onset	duration	accuracy_binary	trial_type	learning_stage	stimulus
0.0	2.806	0	navigation	Trial1	navigation/STIM_000.jpg
5.598	2.92	1	navigation	Trial1	navigation/STIM_000.jpg
11.281	1.965	1	navigation	Trial1	navigation/STIM_000.jpg
17.412	3.472	0	navigation	Trial1	navigation/STIM_000.jpg
24.683	2.841	0	navigation	Trial1	navigation/STIM_000.jpg
31.446	2.296	0	navigation	Trial1	navigation/STIM_000.jpg
36.372	4.065	0	navigation	Trial1	navigation/STIM_001.jpg
44.194	3.058	0	navigation	Trial1	navigation/STIM_001.jpg
50.756	2.439	0	navigation	Trial1	navigation/STIM_001.jpg
57.035	1.8	0	navigation	Trial1	navigation/STIM_001.jpg
62.742	2.244	1	navigation	Trial1	navigation/STIM_001.jpg
69.365	1.483	0	navigation	Trial1	navigation/STIM_001.jpg
73.724	2.926	1	navigation	Trial1	navigation/STIM_002.jpg
80.55	3.832	1	navigation	Trial1	navigation/STIM_002.jpg
88.467	2.331	1	navigation	Trial1	navigation/STIM_002.jpg
94.999	2.232	0	navigation	Trial1	navigation/STIM_002.jpg
101.291	1.97	1	navigation	Trial1	navigation/STIM_002.jpg
106.561	1.362	0	navigation	Trial1	navigation/STIM_002.jpg
111.014	3.82	0	navigation	Trial1	navigation/STIM_003.jpg
117.778	2.436	1	navigation	Trial1	navigation/STIM_003.jpg
122.61	3.354	1	navigation	Trial1	navigation/STIM_003.jpg
128.492	2.349	1	navigation	Trial1	navigation/STIM_003.jpg
134.812	3.411	0	navigation	Trial1	navigation/STIM_003.jpg
141.772	2.526	1	navigation	Trial1	navigation/STIM_003.jpg
148.457	3.295	1	navigation	Trial1	navigation/STIM_004.jpg
155.28	2.28	1	navigation	Trial1	navigation/STIM_004.jpg
160.182	2.448	1	navigation	Trial1	navigation/STIM_004.jpg
166.459	1.63	1	navigation	Trial1	navigation/STIM_004.jpg
172.173	2.662	1	navigation	Trial1	navigation/STIM_004.jpg
179.002	2.454	0	navigation	Trial1	navigation/STIM_004.jpg
184.643	1.84	1	navigation	Trial1	navigation/STIM_005.jpg
190.228	3.653	1	navigation	Trial1	navigation/STIM_005.jpg
198.016	3.732	1	navigation	Trial1	navigation/STIM_005.jpg
206.046	1.992	1	navigation	Trial1	navigation/STIM_005.jpg
212.299	3.436	1	navigation	Trial1	navigation/STIM_005.jpg
218.921	3.278	1	navigation	Trial1	navigation/STIM_005.jpg
225.931	4.194	0	navigation	Trial1	navigation/STIM_006.jpg
233.545	2.229	1	navigation	Trial1	navigation/STIM_006.jpg
239.234	1.939	1	navigation	Trial1	navigation/STIM_006.jpg
243.901	3.106	0	navigation	Trial1	navigation/STIM_006.jpg
250.17	1.737	0	navigation	Trial1	navigation/STIM_006.jpg
254.197	2.969	0	navigation	Trial1	navigation/STIM_006.jpg
261.355	2.889	0	navigation	Trial1	navigation/STIM_007.jpg
268.595	2.279	1	navigation	Trial1	navigation/STIM_007.jpg
274.452	1.558	1	navigation	Trial1	navigation/STIM_007.jpg
279.354	3.566	0	navigation	Trial1	navigation/STIM_007.jpg
286.038	2.351	1	navigation	Trial1	navigation/STIM_007.jpg
291.739	2.171	0	navigation	Trial1	navigation/STIM_007.jpg
298.077	2.271	1	navigation	Trial1	navigation/STIM_008.jpg
303.556	2.067	1	navigation	Trial1	navigation/STIM_008.jpg
308.938	2.706	1	navigation	Trial1	navigation/STIM_008.jpg
315.257	1.981	0	navigation	Trial1	navigation/STIM_008.jpg
319.726	2.782	1	navigation	Trial1	navigation/STIM_008.jpg
325.053	1.645	1	navigation	Trial1	navigation/STIM_008.jpg
329.746	1.923	0	navigation	Trial1	navigation/STIM_009.jpg
335.072	2.145	1	navigation	Trial1	navigation/STIM_009.jpg
340.947	3.761	0	navigation	Trial1	navigation/STIM_009.jpg
348.66	1.969	1	navigation	Trial1	navigation/STIM_009.jpg
354.026	3.06	1	navigation	Trial1	navigation/STIM_009.jpg
360.624	2.845	1	navigation	Trial1	navigation/STIM_009.jpg
366.238	2.555	1	navigation	Trial1	navigation/STIM_010.jpg
371.604	3.646	1	navigation	Trial1	navigation/STIM_010.jpg
378.685	3.58	0	navigation	Trial1	navigation/STIM_010.jpg
386.746	3.62	0	navigation	Trial1	navigation/STIM_010.jpg
393.802	1.944	1	navigation	Trial1	navigation/STIM_010.jpg
398.946	1.909	0	navigation	Trial1	navigation/STIM_010.jpg
403.672	4.014	1	navigation	Trial1	navigation/STIM_011.jpg
410.857	3.14	1	navigation	Trial1	navigation/STIM_011.jpg
417.206	2.729	1	navigation	Trial1	navigation/STIM_011.jpg
422.664	1.724	1	navigation	Trial1	navigation/STIM_011.jpg
427.367	2.09	1	navigation	Trial1	navigation/STIM_011.jpg
433.339	2.311	1	navigation	Trial1	navigation/STIM_011.jpg
438.082	1.078	1	pointing	Trial1	pointing/STIM_000.jpg
442.397	0.864	1	pointing	Trial1	pointing/STIM_000.jpg
447.072	0.877	1	pointing	Trial1	pointing/STIM_000.jpg
451.083	1.165	1	pointing	Trial1	pointing/STIM_000.jpg
456.1	1.116	0	pointing	Trial1	pointing/STIM_000.jpg
459.689	1.042	1	pointing	Trial1	pointing/STIM_000.jpg
464.277	1.06	1	pointing	Trial1	pointing/STIM_001.jpg
468.69	0.824	1	pointing	Trial1	pointing/STIM_001.jpg
472.875	0.932	1	pointing	Trial1	pointing/STIM_001.jpg
476.657	1.314	1	pointing	Trial1	pointing/STIM_001.jpg
480.876	0.75	1	pointing	Trial1	pointing/STIM_001.jpg
484.588	1.085	1	pointing	Trial1	pointing/STIM_001.jpg
487.974	1.163	1	pointing	Trial1	pointing/STIM_002.jpg
493.001	0.857	1	pointing	Trial1	pointing/STIM_002.jpg
497.669	1.046	1	pointing	Trial1	pointing/STIM_002.jpg
501.751	0.881	1	pointing	Trial1	pointing/STIM_002.jpg
505.157	0.914	1	pointing	Trial1	pointing/STIM_002.jpg
508.897	0.896	1	pointing	Trial1	pointing/STIM_002.jpg
512.257	1.038	1	pointing	Trial1	pointing/STIM_003.jpg
516.401	1.307	1	pointing	Trial1	pointing/STIM_003.jpg
520.518	0.9	1	pointing	Trial1	pointing/STIM_003.jpg
524.634	0.905	1	pointing	Trial1	pointing/STIM_003.jpg
529.076	0.93	1	pointing	Trial1	pointing/STIM_003.jpg
532.774	1.182	1	pointing	Trial1	pointing/STIM_003.jpg
537.339	0.995	1	pointing	Trial1	pointing/STIM_004.jpg
541.562	0.837	1	pointing	Trial1	pointing/STIM_004.jpg
545.782	1.192	1	pointing	Trial1	pointing/STIM_004.jpg
550.567	0.849	1	pointing	Trial1	pointing/STIM_004.jpg
555.236	1.285	1	pointing	Trial1	pointing/STIM_004.jpg
560.438	0.687	1	pointing	Trial1	pointing/STIM_004.jpg
563.609	0.937	0	pointing	Trial1	pointing/STIM_005.jpg
567.125	1.199	1	pointing	Trial1	pointing/STIM_005.jpg
571.184	0.788	1	pointing	Trial1	pointing/STIM_005.jpg
574.089	1.243	1	pointing	Trial1	pointing/STIM_005.jpg
578.033	1.218	1	pointing	Trial1	pointing/STIM_005.jpg
583.215	0.956	1	pointing	Trial1	pointing/STIM_005.jpg
588.364	1.045	1	pointing	Trial1	pointing/STIM_006.jpg
593.184	1.149	1	pointing	Trial1	pointing/STIM_006.jpg
598.436	0.699	1	pointing	Trial1	pointing/STIM_006.jpg
601.418	0.922	1	pointing	Trial1	pointing/STIM_006.jpg
604.991	1.085	1	pointing	Trial1	pointing/STIM_006.jpg
609.928	0.79	1	pointing	Trial1	pointing/STIM_006.jpg
613.004	1.13	1	pointing	Trial1	pointing/STIM_007.jpg
617.267	1.255	1	pointing	Trial1	pointing/STIM_007.jpg
620.995	0.848	1	pointing	Trial1	pointing/STIM_007.jpg
625.346	1.105	1	pointing	Trial1	pointing/STIM_007.jpg
629.137	1.146	1	pointing	Trial1	pointing/STIM_007.jpg
634.11	1.088	1	pointing	Trial1	pointing/STIM_007.jpg
637.935	1.004	1	pointing	Trial1	pointing/STIM_008.jpg
641.156	1.18	1	pointing	Trial1	pointing/STIM_008.jpg
644.925	0.767	1	pointing	Trial1	pointing/STIM_008.jpg
648.495	0.827	1	pointing	Trial1	pointing/STIM_008.jpg
652.54	0.809	1	pointing	Trial1	pointing/STIM_008.jpg
656.116	0.724	1	pointing	Trial1	pointing/STIM_008.jpg
660.554	1.262	1	pointing	Trial1	pointing/STIM_009.jpg
665.422	1.299	1	pointing	Trial1	pointing/STIM_009.jpg
669.156	0.876	0	pointing	Trial1	pointing/STIM_009.jpg
672.983	0.967	1	pointing	Trial1	pointing/STIM_009.jpg
677.832	1.28	1	pointing	Trial1	pointing/STIM_009.jpg
681.303	0.934	1	pointing	Trial1	pointing/STIM_009.jpg
684.754	0.987	1	pointing	Trial1	pointing/STIM_010.jpg
688.956	1.053	1	pointing	Trial1	pointing/STIM_010.jpg
693.106	0.776	1	pointing	Trial1	pointing/STIM_010.jpg
696.87	0.891	1	pointing	Trial1	pointing/STIM_010.jpg
700.433	1.292	0	pointing	Trial1	pointing/STIM_010.jpg
704.512	0.869	1	pointing	Trial1	pointing/STIM_010.jpg
708.179	0.817	1	pointing	Trial1	pointing/STIM_011.jpg
712.678	0.784	1	pointing	Trial1	pointing/STIM_011.jpg
716.753	1.184	0	pointing	Trial1	pointing/STIM_011.jpg
720.89	1.246	1	pointing	Trial1	pointing/STIM_011.jpg
726.304	1.052	1	pointing	Trial1	pointing/STIM_011.jpg
730.275	0.802	1	pointing	Trial1	pointing/STIM_011.jpg
733.146	3.15	1	navigation	Trial2	navigation/STIM_000.jpg
739.385	2.602	1	navigation	Trial2	navigation/STIM_000.jpg
745.468	1.619	1	navigation	Trial2	navigation/STIM_000.jpg
750.058	2.416	1	navigation	Trial2	navigation/STIM_000.jpg
755.95	2.468	1	navigation	Trial2	navigation/STIM_000.jpg
762.484	2.722	1	navigation	Trial2	navigation/STIM_000.jpg
767.913	2.45	0	navigation	Trial2	navigation/STIM_001.jpg
774.505	1.611	1	navigation	Trial2	navigation/STIM_001.jpg
779.695	1.919	1	navigation	Trial2	navigation/STIM_001.jpg
784.019	2.74	1	navigation	Trial2	navigation/STIM_001.jpg
789.641	2.896	1	navigation	Trial2	navigation/STIM_001.jpg
795.3	2.816	0	navigation	Trial2	navigation/STIM_001.jpg
800.842	1.998	0	navigation	Trial2	navigation/STIM_002.jpg
806.504	3.046	1	navigation	Trial2	navigation/STIM_002.jpg
813.376	1.991	1	navigation	Trial2	navigation/STIM_002.jpg
819.23	2.175	1	navigation	Trial2	navigation/STIM_002.jpg
824.188	1.29	1	navigation	Trial2	navigation/STIM_002.jpg
828.649	1.281	1	navigation	Trial2	navigation/STIM_002.jpg
833.574	3.459	1	navigation	Trial2	navigation/STIM_003.jpg
839.809	2.885	1	navigation	Trial2	navigation/STIM_003.jpg
845.142	1.572	1	navigation	Trial2	navigation/STIM_003.jpg
850.434	1.729	1	navigation	Trial2	navigation/STIM_003.jpg
856.296	1.511	1	navigation	Trial2	navigation/STIM_003.jpg
860.614	1.604	1	navigation	Trial2	navigation/STIM_003.jpg
866.27	2.758	1	navigation	Trial2	navigation/STIM_004.jpg
872.705	3.325	1	navigation	Trial2	navigation/STIM_004.jpg
880.343	2.407	1	navigation	Trial2	navigation/STIM_004.jpg
886.232	1.819	1	navigation	Trial2	navigation/STIM_004.jpg
891.185	1.358	1	navigation	Trial2	navigation/STIM_004.jpg
896.547	2.392	1	navigation	Trial2	navigation/STIM_004.jpg
902.646	2.508	1	navigation	Trial2	navigation/STIM_005.jpg
907.6	2.329	1	navigation	Trial2	navigation/STIM_005.jpg
913.77	2.841	1	navigation	Trial2	navigation/STIM_005.jpg
921.003	2.679	1	navigation	Trial2	navigation/STIM_005.jpg
927.616	1.538	0	navigation	Trial2	navigation/STIM_005.jpg
933.322	1.754	1	navigation	Trial2	navigation/STIM_005.jpg
938.794	2.608	1	navigation	Trial2	navigation/STIM_006.jpg
944.087	1.956	1	navigation	Trial2	navigation/STIM_006.jpg
948.762	1.893	1	navigation	Trial2	navigation/STIM_006.jpg
954.443	2.794	1	navigation	Trial2	navigation/STIM_006.jpg
960.646	2.807	1	navigation	Trial2	navigation/STIM_006.jpg
967.345	2.3	1	navigation	Trial2	navigation/STIM_006.jpg
973.669	3.656	1	navigation	Trial2	navigation/STIM_007.jpg
980.728	3.147	1	navigation	Trial2	navigation/STIM_007.jpg
986.475	1.604	1	navigation	Trial2	navigation/STIM_007.jpg
990.555	1.418	1	navigation	Trial2	navigation/STIM_007.jpg
994.272	2.64	1	navigation	Trial2	navigation/STIM_007.jpg
1000.303	2.031	0	navigation	Trial2	navigation/STIM_007.jpg
1006.483	2.346	1	navigation	Trial2	navigation/STIM_008.jpg
1013.084	3.388	1	navigation	Trial2	navigation/STIM_008.jpg
1020.88	1.529	1	navigation	Trial2	navigation/STIM_008.jpg
1025.711	1.739	1	navigation	Trial2	navigation/STIM_008.jpg
1030.203	2.779	1	navigation	Trial2	navigation/STIM_008.jpg
1037.153	2.552	1	navigation	Trial2	navigation/STIM_008.jpg
1042.337	3.035	1	navigation	Trial2	navigation/STIM_009.jpg
1048.024	3.36	1	navigation	Trial2	navigation/STIM_009.jpg
1054.411	3.115	1	navigation	Trial2	navigation/STIM_009.jpg
1060.199	2.642	1	navigation	Trial2	navigation/STIM_009.jpg
1066.819	1.733	1	navigation	Trial2	navigation/STIM_009.jpg
1072.834	2.54	1	navigation	Trial2	navigation/STIM_009.jpg
1078.993	1.596	1	navigation	Trial2	navigation/STIM_010.jpg
1083.225	3.06	1	navigation	Trial2	navigation/STIM_010.jpg
1089.878	2.309	1	navigation	Trial2	navigation/STIM_010.jpg
1095.635	1.307	0	navigation	Trial2	navigation/STIM_010.jpg
1100.969	1.698	1	navigation	Trial2	navigation/STIM_010.jpg
1105.171	1.681	1	navigation	Trial2	navigation/STIM_010.jpg
1110.531	2.369	1	navigation	Trial2	navigation/STIM_011.jpg
1116.41	1.52	1	navigation	Trial2	navigation/STIM_011.jpg
1120.704	1.446	1	navigation	Trial2	navigation/STIM_011.jpg
1126.323	2.538	1	navigation	Trial2	navigation/STIM_011.jpg
1131.479	2.588	1	navigation	Trial2	navigation/STIM_011.jpg
1137.787	1.916	1	navigation	Trial2	navigation/STIM_011.jpg
1143.162	1.145	1	pointing	Trial2	pointing/STIM_000.jpg
1146.962	0.961	1	pointing	Trial2	pointing/STIM_000.jpg
1150.343	0.783	1	pointing	Trial2	pointing/STIM_000.jpg
1155.038	1.194	1	pointing	Trial2	pointing/STIM_000.jpg
1158.411	0.985	1	pointing	Trial2	pointing/STIM_000.jpg
1162.976	0.842	1	pointing	Trial2	pointing/STIM_000.jpg
1166.254	1.093	1	pointing	Trial2	pointing/STIM_001.jpg
1169.631	1.22	1	pointing	Trial2	pointing/STIM_001.jpg
1174.297	0.881	1	pointing	Trial2	pointing/STIM_001.jpg
1177.597	0.855	1	pointing	Trial2	pointing/STIM_001.jpg
1181.892	0.904	1	pointing	Trial2	pointing/STIM_001.jpg
1186.073	0.906	1	pointing	Trial2	pointing/STIM_001.jpg
1191.12	1.103	1	pointing	Trial2	pointing/STIM_002.jpg
1196.141	1.191	1	pointing	Trial2	pointing/STIM_002.jpg
1200.196	0.732	1	pointing	Trial2	pointing/STIM_002.jpg
1203.989	1.199	1	pointing	Trial2	pointing/STIM_002.jpg
1209.322	1.283	1	pointing	Trial2	pointing/STIM_002.jpg
1214.765	1.181	1	pointing	Trial2	pointing/STIM_002.jpg
1219.065	1.17	1	pointing	Trial2	pointing/STIM_003.jpg
1223.991	0.786	1	pointing	Trial2	pointing/STIM_003.jpg
1227.021	0.769	1	pointing	Trial2	pointing/STIM_003.jpg
1230.951	0.75	1	pointing	Trial2	pointing/STIM_003.jpg
1235.074	1.217	1	pointing	Trial2	pointing/STIM_003.jpg
1238.743	0.915	1	pointing	Trial2	pointing/STIM_003.jpg
1243.736	0.721	1	pointing	Trial2	pointing/STIM_004.jpg
1248.353	0.681	1	pointing	Trial2	pointing/STIM_004.jpg
1251.867	0.96	1	pointing	Trial2	pointing/STIM_004.jpg
1255.254	1.24	1	pointing	Trial2	pointing/STIM_004.jpg
1259.747	1.092	1	pointing	Trial2	pointing/STIM_004.jpg
1264.527	1.011	1	pointing	Trial2	pointing/STIM_004.jpg
1269.565	1.146	1	pointing	Trial2	pointing/STIM_005.jpg
1274.089	1.086	1	pointing	Trial2	pointing/STIM_005.jpg
1278.451	0.901	1	pointing	Trial2	pointing/STIM_005.jpg
1282.985	0.78	1	pointing	Trial2	pointing/STIM_005.jpg
1287.257	0.789	1	pointing	Trial2	pointing/STIM_005.jpg
1291.252	0.689	1	pointing	Trial2	pointing/STIM_005.jpg
1294.458	1.088	1	pointing	Trial2	pointing/STIM_006.jpg
1298.797	0.959	1	pointing	Trial2	pointing/STIM_006.jpg
1303.133	0.776	1	pointing	Trial2	pointing/STIM_006.jpg
1307.57	0.789	1	pointing	Trial2	pointing/STIM_006.jpg
1311.559	1.046	0	pointing	Trial2	pointing/STIM_006.jpg
1316.666	1.214	1	pointing	Trial2	pointing/STIM_006.jpg
1320.756	0.884	1	pointing	Trial2	pointing/STIM_007.jpg
1325.557	0.836	1	pointing	Trial2	pointing/STIM_007.jpg
1329.175	0.897	1	pointing	Trial2	pointing/STIM_007.jpg
1333.721	0.764	0	pointing	Trial2	pointing/STIM_007.jpg
1337.452	0.782	1	pointing	Trial2	pointing/STIM_007.jpg
1341.262	0.802	1	pointing	Trial2	pointing/STIM_007.jpg
1344.566	0.897	1	pointing	Trial2	pointing/STIM_008.jpg
1348.479	1.337	1	pointing	Trial2	pointing/STIM_008.jpg
1352.68	1.145	1	pointing	Trial2	pointing/STIM_008.jpg
1357.435	0.954	1	pointing	Trial2	pointing/STIM_008.jpg
1361.424	1.097	1	pointing	Trial2	pointing/STIM_008.jpg
1364.805	0.843	1	pointing	Trial2	pointing/STIM_008.jpg
1367.94	1.166	0	pointing	Trial2	pointing/STIM_009.jpg
1373.241	0.99	1	pointing	Trial2	pointing/STIM_009.jpg
1378.215	1.228	1	pointing	Trial2	pointing/STIM_009.jpg
1382.203	1.297	0	pointing	Trial2	pointing/STIM_009.jpg
1386.087	0.89	1	pointing	Trial2	pointing/STIM_009.jpg
1390.565	0.962	0	pointing	Trial2	pointing/STIM_009.jpg
1395.597	1.102	1	pointing	Trial2	pointing/STIM_010.jpg
1399.339	0.812	1	pointing	Trial2	pointing/STIM_010.jpg
1402.261	1.214	1	pointing	Trial2	pointing/STIM_010.jpg
1406.574	0.657	0	pointing	Trial2	pointing/STIM_010.jpg
1411.387	0.837	1	pointing	Trial2	pointing/STIM_010.jpg
1414.75	1.092	1	pointing	Trial2	pointing/STIM_010.jpg
1418.637	0.877	1	pointing	Trial2	pointing/STIM_011.jpg
1423.234	1.038	1	pointing	Trial2	pointing/STIM_011.jpg
1426.71	1.118	1	pointing	Trial2	pointing/STIM_011.jpg
1430.701	0.869	0	pointing	Trial2	pointing/STIM_011.jpg
1433.776	1.019	0	pointing	Trial2	pointing/STIM_011.jpg
1438.311	0.83	0	pointing	Trial2	pointing/STIM_011.jpg
1441.597	2.059	1	navigation	Trial3	navigation/STIM_000.jpg
1446.392	2.627	1	navigation	Trial3	navigation/STIM_000.jpg
1451.831	2.625	1	navigation	Trial3	navigation/STIM_000.jpg
1457.682	1.767	1	navigation	Trial3	navigation/STIM_000.jpg
1463.221	1.962	1	navigation	Trial3	navigation/STIM_000.jpg
1467.692	2.757	1	navigation	Trial3	navigation/STIM_000.jpg
1473.822	2.7	1	navigation	Trial3	navigation/STIM_001.jpg
1480.754	2.532	1	navigation	Trial3	navigation/STIM_001.jpg
1486.906	2.775	1	navigation	Trial3	navigation/STIM_001.jpg
1492.255	2.828	1	navigation	Trial3	navigation/STIM_001.jpg
1497.832	2.907	1	navigation	Trial3	navigation/STIM_001.jpg
1504.622	1.14	1	navigation	Trial3	navigation/STIM_001.jpg
1508.94	1.335	1	navigation	Trial3	navigation/STIM_002.jpg
1514.021	2.941	1	navigation	Trial3	navigation/STIM_002.jpg
1520.865	1.384	1	navigation	Trial3	navigation/STIM_002.jpg
1525.252	2.029	1	navigation	Trial3	navigation/STIM_002.jpg
1530.982	2.662	1	navigation	Trial3	navigation/STIM_002.jpg
1536.971	2.021	0	navigation	Trial3	navigation/STIM_002.jpg
1542.976	2.152	1	navigation	Trial3	navigation/STIM_003.jpg
1547.492	1.545	1	navigation	Trial3	navigation/STIM_003.jpg
1552.95	2.548	1	navigation	Trial3	navigation/STIM_003.jpg
1559.805	1.965	0	navigation	Trial3	navigation/STIM_003.jpg
1564.077	2.858	1	navigation	Trial3	navigation/STIM_003.jpg
1571.105	2.468	1	navigation	Trial3	navigation/STIM_003.jpg
1576.111	2.339	1	navigation	Trial3	navigation/STIM_004.jpg
1581.396	1.822	0	navigation	Trial3	navigation/STIM_004.jpg
1586.218	2.533	1	navigation	Trial3	navigation/STIM_004.jpg
1591.959	2.897	1	navigation	Trial3	navigation/STIM_004.jpg
1599.07	1.814	1	navigation	Trial3	navigation/STIM_004.jpg
1603.205	1.45	1	navigation	Trial3	navigation/STIM_004.jpg
1607.914	1.419	1	navigation	Trial3	navigation/STIM_005.jpg
1612.453	2.691	1	navigation	Trial3	navigation/STIM_005.jpg
1618.733	1.759	1	navigation	Trial3	navigation/STIM_005.jpg
1623.285	2.319	1	navigation	Trial3	navigation/STIM_005.jpg
1629.316	2.152	1	navigation	Trial3	navigation/STIM_005.jpg
1634.141	2.133	1	navigation	Trial3	navigation/STIM_005.jpg
1640.123	2.479	0	navigation	Trial3	navigation/STIM_006.jpg
1646.363	2.822	1	navigation	Trial3	navigation/STIM_006.jpg
1651.926	1.858	1	navigation	Trial3	navigation/STIM_006.jpg
1657.581	2.342	1	navigation	Trial3	navigation/STIM_006.jpg
1664.065	2.813	1	navigation	Trial3	navigation/STIM_006.jpg
1670.384	2.782	1	navigation	Trial3	navigation/STIM_006.jpg
1676.053	1.557	1	navigation	Trial3	navigation/STIM_007.jpg
1680.353	1.886	1	navigation	Trial3	navigation/STIM_007.jpg
1686.122	1.359	1	navigation	Trial3	navigation/STIM_007.jpg
1690.742	1.536	1	navigation	Trial3	navigation/STIM_007.jpg
1695.118	1.63	1	navigation	Trial3	navigation/STIM_007.jpg
1700.102	1.884	1	navigation	Trial3	navigation/STIM_007.jpg
1705.629	1.834	1	navigation	Trial3	navigation/STIM_008.jpg
1710.016	2.217	1	navigation	Trial3	navigation/STIM_008.jpg
1715.627	2.633	1	navigation	Trial3	navigation/STIM_008.jpg
1722.499	1.805	1	navigation	Trial3	navigation/STIM_008.jpg
1728.123	1.436	1	navigation	Trial3	navigation/STIM_008.jpg
1733.195	2.449	1	navigation	Trial3	navigation/STIM_008.jpg
1738.556	1.874	1	navigation	Trial3	navigation/STIM_009.jpg
1743.326	1.489	1	navigation	Trial3	navigation/STIM_009.jpg
1747.533	1.437	1	navigation	Trial3	navigation/STIM_009.jpg
1751.492	2.525	1	navigation	Trial3	navigation/STIM_009.jpg
1757.074	1.647	0	navigation	Trial3	navigation/STIM_009.jpg
1761.124	1.704	1	navigation	Trial3	navigation/STIM_009.jpg
1766.823	2.636	1	navigation	Trial3	navigation/STIM_010.jpg
1773.486	1.465	1	navigation	Trial3	navigation/STIM_010.jpg
1778.5	1.982	1	navigation	Trial3	navigation/STIM_010.jpg
1784.102	2.076	1	navigation	Trial3	navigation/STIM_010.jpg
1788.493	1.763	1	navigation	Trial3	navigation/STIM_010.jpg
1794.433	2.918	1	navigation	Trial3	navigation/STIM_010.jpg
1799.865	1.715	1	navigation	Trial3	navigation/STIM_011.jpg
1804.211	1.613	1	navigation	Trial3	navigation/STIM_011.jpg
1808.961	2.621	1	navigation	Trial3	navigation/STIM_011.jpg
1815.448	2.683	1	navigation	Trial3	navigation/STIM_011.jpg
1822.542	2.362	1	navigation	Trial3	navigation/STIM_011.jpg
1829.084	2.642	1	navigation	Trial3	navigation/STIM_011.jpg
1835.153	1.036	1	pointing	Trial3	pointing/STIM_000.jpg
1838.619	1.08	1	pointing	Trial3	pointing/STIM_000.jpg
1843.784	1.046	1	pointing	Trial3	pointing/STIM_000.jpg
1848.307	0.834	1	pointing	Trial3	pointing/STIM_000.jpg
1852.436	0.944	1	pointing	Trial3	pointing/STIM_000.jpg
1856.521	1.191	1	pointing	Trial3	pointing/STIM_000.jpg
1860.204	1.025	1	pointing	Trial3	pointing/STIM_001.jpg
1864.836	1.012	0	pointing	Trial3	pointing/STIM_001.jpg
1869.7	1.043	1	pointing	Trial3	pointing/STIM_001.jpg
1873.78	0.85	1	pointing	Trial3	pointing/STIM_001.jpg
1878.777	0.783	1	pointing	Trial3	pointing/STIM_001.jpg
1882.332	0.834	1	pointing	Trial3	pointing/STIM_001.jpg
1885.688	0.64	1	pointing	Trial3	pointing/STIM_002.jpg
1889.341	1.147	0	pointing	Trial3	pointing/STIM_002.jpg
1893.45	1.254	1	pointing	Trial3	pointing/STIM_002.jpg
1897.083	0.732	1	pointing	Trial3	pointing/STIM_002.jpg
1901.243	0.901	1	pointing	Trial3	pointing/STIM_002.jpg
1905.665	0.922	1	pointing	Trial3	pointing/STIM_002.jpg
1910.199	0.788	1	pointing	Trial3	pointing/STIM_003.jpg
1913.346	0.652	1	pointing	Trial3	pointing/STIM_003.jpg
1916.831	0.865	1	pointing	Trial3	pointing/STIM_003.jpg
1921.494	0.802	1	pointing	Trial3	pointing/STIM_003.jpg
1924.781	1.161	1	pointing	Trial3	pointing/STIM_003.jpg
1929.392	0.702	1	pointing	Trial3	pointing/STIM_003.jpg
1932.476	0.933	1	pointing	Trial3	pointing/STIM_004.jpg
1936.414	0.737	1	pointing	Trial3	pointing/STIM_004.jpg
1940.025	0.916	1	pointing	Trial3	pointing/STIM_004.jpg
1943.829	0.935	1	pointing	Trial3	pointing/STIM_004.jpg
1947.202	0.925	1	pointing	Trial3	pointing/STIM_004.jpg
1950.587	0.894	1	pointing	Trial3	pointing/STIM_004.jpg
1955.525	0.86	1	pointing	Trial3	pointing/STIM_005.jpg
1959.839	0.943	1	pointing	Trial3	pointing/STIM_005.jpg
1964.287	0.59	1	pointing	Trial3	pointing/STIM_005.jpg
1968.472	1.148	1	pointing	Trial3	pointing/STIM_005.jpg
1972.71	0.685	1	pointing	Trial3	pointing/STIM_005.jpg
1977.199	0.915	1	pointing	Trial3	pointing/STIM_005.jpg
1981.226	1.057	1	pointing	Trial3	pointing/STIM_006.jpg
1986.0	0.917	1	pointing	Trial3	pointing/STIM_006.jpg
1991.033	0.714	0	pointing	Trial3	pointing/STIM_006.jpg
1994.495	1.198	1	pointing	Trial3	pointing/STIM_006.jpg
1998.673	0.734	1	pointing	Trial3	pointing/STIM_006.jpg
2002.946	0.966	0	pointing	Trial3	pointing/STIM_006.jpg
2006.689	0.825	1	pointing	Trial3	pointing/STIM_007.jpg
2011.385	0.744	1	pointing	Trial3	pointing/STIM_007.jpg
2015.658	1.201	1	pointing	Trial3	pointing/STIM_007.jpg
2019.988	1.234	1	pointing	Trial3	pointing/STIM_007.jpg
2024.093	1.016	1	pointing	Trial3	pointing/STIM_007.jpg
2027.74	0.951	1	pointing	Trial3	pointing/STIM_007.jpg
2031.335	1.205	1	pointing	Trial3	pointing/STIM_008.jpg
2035.433	1.168	1	pointing	Trial3	pointing/STIM_008.jpg
2038.904	0.815	1	pointing	Trial3	pointing/STIM_008.jpg
2042.006	0.86	0	pointing	Trial3	pointing/STIM_008.jpg
2045.671	0.849	1	pointing	Trial3	pointing/STIM_008.jpg
2049.713	0.865	0	pointing	Trial3	pointing/STIM_008.jpg
2053.58	1.145	1	pointing	Trial3	pointing/STIM_009.jpg
2057.094	1.287	1	pointing	Trial3	pointing/STIM_009.jpg
2062.429	1.06	1	pointing	Trial3	pointing/STIM_009.jpg
2067.189	1.24	1	pointing	Trial3	pointing/STIM_009.jpg
2071.74	0.993	1	pointing	Trial3	pointing/STIM_009.jpg
2074.925	0.78	0	pointing	Trial3	pointing/STIM_009.jpg
2078.277	1.072	1	pointing	Trial3	pointing/STIM_010.jpg
2081.645	0.836	1	pointing	Trial3	pointing/STIM_010.jpg
2084.99	1.051	1	pointing	Trial3	pointing/STIM_010.jpg
2089.639	1.038	1	pointing	Trial3	pointing/STIM_010.jpg
2093.537	0.792	1	pointing	Trial3	pointing/STIM_010.jpg
2097.063	1.101	1	pointing	Trial3	pointing/STIM_010.jpg
2101.534	1.26	1	pointing	Trial3	pointing/STIM_011.jpg
2106.783	0.999	1	pointing	Trial3	pointing/STIM_011.jpg
2109.905	1.303	1	pointing	Trial3	pointing/STIM_011.jpg
2114.745	0.773	1	pointing	Trial3	pointing/STIM_011.jpg
2119.106	1.11	1	pointing	Trial3	pointing/STIM_011.jpg
2122.595	0.961	1	pointing	Trial3	pointing/STIM_011.jpg
