onset	duration	response_time_ms	trial_type	learning_stage	stimulus	response_port
0.0	2.806	2806.1	navigation	Trial1	navigation/STIM_000.jpg	100
5.598	2.92	2919.5	navigation	Trial1	navigation/STIM_000.jpg	100
11.281	1.965	1964.9	navigation	Trial1	navigation/STIM_000.jpg	100
17.412	3.472	3472.1	navigation	Trial1	navigation/STIM_000.jpg	100
24.683	2.841	2841.2	navigation	Trial1	navigation/STIM_000.jpg	100
31.446	2.296	2296.4	navigation	Trial1	navigation/STIM_000.jpg	99
36.372	4.065	4064.9	navigation	Trial1	navigation/STIM_001.jpg	100
44.194	3.058	3057.7	navigation	Trial1	navigation/STIM_001.jpg	100
50.756	2.439	2438.6	navigation	Trial1	navigation/STIM_001.jpg	100
57.035	1.8	1800.0	navigation	Trial1	navigation/STIM_001.jpg	100
62.742	2.244	2244.1	navigation	Trial1	navigation/STIM_001.jpg	99
69.365	1.483	1482.8	navigation	Trial1	navigation/STIM_001.jpg	100
73.724	2.926	2926.2	navigation	Trial1	navigation/STIM_002.jpg	99
80.55	3.832	3832.2	navigation	Trial1	navigation/STIM_002.jpg	99
88.467	2.331	2331.2	navigation	Trial1	navigation/STIM_002.jpg	99
94.999	2.232	2232.3	navigation	Trial1	navigation/STIM_002.jpg	100
101.291	1.97	1970.2	navigation	Trial1	navigation/STIM_002.jpg	100
106.561	1.362	1362.5	navigation	Trial1	navigation/STIM_002.jpg	99
111.014	3.82	3820.1	navigation	Trial1	navigation/STIM_003.jpg	99
117.778	2.436	2436.5	navigation	Trial1	navigation/STIM_003.jpg	100
122.61	3.354	3353.9	navigation	Trial1	navigation/STIM_003.jpg	99
128.492	2.349	2349.3	navigation	Trial1	navigation/STIM_003.jpg	99
134.812	3.411	3410.9	navigation	Trial1	navigation/STIM_003.jpg	100
141.772	2.526	2525.9	navigation	Trial1	navigation/STIM_003.jpg	100
148.457	3.295	3295.4	navigation	Trial1	navigation/STIM_004.jpg	99
155.28	2.28	2280.2	navigation	Trial1	navigation/STIM_004.jpg	100
160.182	2.448	2447.8	navigation	Trial1	navigation/STIM_004.jpg	99
166.459	1.63	1630.5	navigation	Trial1	navigation/STIM_004.jpg	100
172.173	2.662	2661.8	navigation	Trial1	navigation/STIM_004.jpg	100
179.002	2.454	2454.1	navigation	Trial1	navigation/STIM_004.jpg	99
184.643	1.84	1840.5	navigation	Trial1	navigation/STIM_005.jpg	99
190.228	3.653	3653.4	navigation	Trial1	navigation/STIM_005.jpg	99
198.016	3.732	3731.9	navigation	Trial1	navigation/STIM_005.jpg	99
206.046	1.992	1992.0	navigation	Trial1	navigation/STIM_005.jpg	100
212.299	3.436	3435.5	navigation	Trial1	navigation/STIM_005.jpg	100
218.921	3.278	3278.5	navigation	Trial1	navigation/STIM_005.jpg	100
225.931	4.194	4194.5	navigation	Trial1	navigation/STIM_006.jpg	100
233.545	2.229	2229.0	navigation	Trial1	navigation/STIM_006.jpg	99
239.234	1.939	1938.6	navigation	Trial1	navigation/STIM_006.jpg	99
243.901	3.106	3105.6	navigation	Trial1	navigation/STIM_006.jpg	100
250.17	1.737	1736.8	navigation	Trial1	navigation/STIM_006.jpg	99
254.197	2.969	2968.7	navigation	Trial1	navigation/STIM_006.jpg	99
261.355	2.889	2889.2	navigation	Trial1	navigation/STIM_007.jpg	100
268.595	2.279	2278.9	navigation	Trial1	navigation/STIM_007.jpg	99
274.452	1.558	1558.2	navigation	Trial1	navigation/STIM_007.jpg	99
279.354	3.566	3565.9	navigation	Trial1	navigation/STIM_007.jpg	99
286.038	2.351	2350.9	navigation	Trial1	navigation/STIM_007.jpg	100
291.739	2.171	2170.6	navigation	Trial1	navigation/STIM_007.jpg	99
298.077	2.271	2271.0	navigation	Trial1	navigation/STIM_008.jpg	100
303.556	2.067	2067.4	navigation	Trial1	navigation/STIM_008.jpg	100
308.938	2.706	2706.0	navigation	Trial1	navigation/STIM_008.jpg	99
315.257	1.981	1980.9	navigation	Trial1	navigation/STIM_008.jpg	100
319.726	2.782	2782.5	navigation	Trial1	navigation/STIM_008.jpg	99
325.053	1.645	1644.8	navigation	Trial1	navigation/STIM_008.jpg	100
329.746	1.923	1923.4	navigation	Trial1	navigation/STIM_009.jpg	100
335.072	2.145	2145.1	navigation	Trial1	navigation/STIM_009.jpg	100
340.947	3.761	3760.8	navigation	Trial1	navigation/STIM_009.jpg	100
348.66	1.969	1969.3	navigation	Trial1	navigation/STIM_009.jpg	99
354.026	3.06	3059.8	navigation	Trial1	navigation/STIM_009.jpg	99
360.624	2.845	2844.6	navigation	Trial1	navigation/STIM_009.jpg	100
366.238	2.555	2555.4	navigation	Trial1	navigation/STIM_010.jpg	100
371.604	3.646	3646.1	navigation	Trial1	navigation/STIM_010.jpg	100
378.685	3.58	3580.3	navigation	Trial1	navigation/STIM_010.jpg	100
386.746	3.62	3619.7	navigation	Trial1	navigation/STIM_010.jpg	99
393.802	1.944	1943.8	navigation	Trial1	navigation/STIM_010.jpg	100
398.946	1.909	1908.6	navigation	Trial1	navigation/STIM_010.jpg	100
403.672	4.014	4013.8	navigation	Trial1	navigation/STIM_011.jpg	99
410.857	3.14	3139.8	navigation	Trial1	navigation/STIM_011.jpg	100
417.206	2.729	2729.3	navigation	Trial1	navigation/STIM_011.jpg	99
422.664	1.724	1724.1	navigation	Trial1	navigation/STIM_011.jpg	100
427.367	2.09	2090.1	navigation	Trial1	navigation/STIM_011.jpg	99
433.339	2.311	2311.0	navigation	Trial1	navigation/STIM_011.jpg	100
438.082	1.078	1078.0	pointing	Trial1	pointing/STIM_000.jpg	100
442.397	0.864	864.1	pointing	Trial1	pointing/STIM_000.jpg	99
447.072	0.877	877.4	pointing	Trial1	pointing/STIM_000.jpg	100
451.083	1.165	1165.1	pointing	Trial1	pointing/STIM_000.jpg	99
456.1	1.116	1116.2	pointing	Trial1	pointing/STIM_000.jpg	100
459.689	1.042	1042.5	pointing	Trial1	pointing/STIM_000.jpg	99
464.277	1.06	1059.8	pointing	Trial1	pointing/STIM_001.jpg	100
468.69	0.824	823.7	pointing	Trial1	pointing/STIM_001.jpg	100
472.875	0.932	931.9	pointing	Trial1	pointing/STIM_001.jpg	99
476.657	1.314	1313.6	pointing	Trial1	pointing/STIM_001.jpg	99
480.876	0.75	750.5	pointing	Trial1	pointing/STIM_001.jpg	99
484.588	1.085	1084.6	pointing	Trial1	pointing/STIM_001.jpg	100
487.974	1.163	1163.2	pointing	Trial1	pointing/STIM_002.jpg	100
493.001	0.857	857.4	pointing	Trial1	pointing/STIM_002.jpg	99
497.669	1.046	1046.1	pointing	Trial1	pointing/STIM_002.jpg	99
501.751	0.881	880.6	pointing	Trial1	pointing/STIM_002.jpg	99
505.157	0.914	913.9	pointing	Trial1	pointing/STIM_002.jpg	99
508.897	0.896	896.1	pointing	Trial1	pointing/STIM_002.jpg	100
512.257	1.038	1037.7	pointing	Trial1	pointing/STIM_003.jpg	99
516.401	1.307	1307.1	pointing	Trial1	pointing/STIM_003.jpg	99
520.518	0.9	900.3	pointing	Trial1	pointing/STIM_003.jpg	99
524.634	0.905	905.0	pointing	Trial1	pointing/STIM_003.jpg	100
529.076	0.93	930.3	pointing	Trial1	pointing/STIM_003.jpg	99
532.774	1.182	1182.4	pointing	Trial1	pointing/STIM_003.jpg	100
537.339	0.995	995.3	pointing	Trial1	pointing/STIM_004.jpg	100
541.562	0.837	837.2	pointing	Trial1	pointing/STIM_004.jpg	100
545.782	1.192	1192.1	pointing	Trial1	pointing/STIM_004.jpg	99
550.567	0.849	849.1	pointing	Trial1	pointing/STIM_004.jpg	100
555.236	1.285	1285.2	pointing	Trial1	pointing/STIM_004.jpg	99
560.438	0.687	687.1	pointing	Trial1	pointing/STIM_004.jpg	100
563.609	0.937	937.1	pointing	Trial1	pointing/STIM_005.jpg	99
567.125	1.199	1198.9	pointing	Trial1	pointing/STIM_005.jpg	100
571.184	0.788	787.5	pointing	Trial1	pointing/STIM_005.jpg	100
574.089	1.243	1242.8	pointing	Trial1	pointing/STIM_005.jpg	100
578.033	1.218	1217.7	pointing	Trial1	pointing/STIM_005.jpg	100
583.215	0.956	956.4	pointing	Trial1	pointing/STIM_005.jpg	99
588.364	1.045	1045.0	pointing	Trial1	pointing/STIM_006.jpg	100
593.184	1.149	1149.1	pointing	Trial1	pointing/STIM_006.jpg	100
598.436	0.699	699.0	pointing	Trial1	pointing/STIM_006.jpg	100
601.418	0.922	922.2	pointing	Trial1	pointing/STIM_006.jpg	99
604.991	1.085	1084.9	pointing	Trial1	pointing/STIM_006.jpg	100
609.928	0.79	790.2	pointing	Trial1	pointing/STIM_006.jpg	100
613.004	1.13	1130.4	pointing	Trial1	pointing/STIM_007.jpg	100
617.267	1.255	1255.4	pointing	Trial1	pointing/STIM_007.jpg	100
620.995	0.848	848.3	pointing	Trial1	pointing/STIM_007.jpg	99
625.346	1.105	1105.4	pointing	Trial1	pointing/STIM_007.jpg	100
629.137	1.146	1145.6	pointing	Trial1	pointing/STIM_007.jpg	99
634.11	1.088	1087.5	pointing	Trial1	pointing/STIM_007.jpg	99
637.935	1.004	1004.5	pointing	Trial1	pointing/STIM_008.jpg	100
641.156	1.18	1180.0	pointing	Trial1	pointing/STIM_008.jpg	100
644.925	0.767	767.1	pointing	Trial1	pointing/STIM_008.jpg	99
648.495	0.827	826.8	pointing	Trial1	pointing/STIM_008.jpg	100
652.54	0.809	808.6	pointing	Trial1	pointing/STIM_008.jpg	100
656.116	0.724	723.5	pointing	Trial1	pointing/STIM_008.jpg	100
660.554	1.262	1262.5	pointing	Trial1	pointing/STIM_009.jpg	99
665.422	1.299	1298.8	pointing	Trial1	pointing/STIM_009.jpg	99
669.156	0.876	875.6	pointing	Trial1	pointing/STIM_009.jpg	100
672.983	0.967	967.3	pointing	Trial1	pointing/STIM_009.jpg	99
677.832	1.28	1280.2	pointing	Trial1	pointing/STIM_009.jpg	99
681.303	0.934	933.7	pointing	Trial1	pointing/STIM_009.jpg	100
684.754	0.987	986.6	pointing	Trial1	pointing/STIM_010.jpg	100
688.956	1.053	1052.7	pointing	Trial1	pointing/STIM_010.jpg	99
693.106	0.776	776.5	pointing	Trial1	pointing/STIM_010.jpg	99
696.87	0.891	890.8	pointing	Trial1	pointing/STIM_010.jpg	99
700.433	1.292	1291.7	pointing	Trial1	pointing/STIM_010.jpg	100
704.512	0.869	869.1	pointing	Trial1	pointing/STIM_010.jpg	99
708.179	0.817	817.0	pointing	Trial1	pointing/STIM_011.jpg	100
712.678	0.784	784.5	pointing	Trial1	pointing/STIM_011.jpg	100
716.753	1.184	1183.9	pointing	Trial1	pointing/STIM_011.jpg	100
720.89	1.246	1246.5	pointing	Trial1	pointing/STIM_011.jpg	99
726.304	1.052	1052.3	pointing	Trial1	pointing/STIM_011.jpg	99
730.275	0.802	802.5	pointing	Trial1	pointing/STIM_011.jpg	100
733.146	3.15	3149.6	navigation	Trial2	navigation/STIM_000.jpg	99
739.385	2.602	2602.3	navigation	Trial2	navigation/STIM_000.jpg	100
745.468	1.619	1619.0	navigation	Trial2	navigation/STIM_000.jpg	99
750.058	2.416	2415.9	navigation	Trial2	navigation/STIM_000.jpg	99
755.95	2.468	2468.4	navigation	Trial2	navigation/STIM_000.jpg	99
762.484	2.722	2722.3	navigation	Trial2	navigation/STIM_000.jpg	99
767.913	2.45	2449.5	navigation	Trial2	navigation/STIM_001.jpg	100
774.505	1.611	1610.6	navigation	Trial2	navigation/STIM_001.jpg	99
779.695	1.919	1918.9	navigation	Trial2	navigation/STIM_001.jpg	100
784.019	2.74	2740.1	navigation	Trial2	navigation/STIM_001.jpg	99
789.641	2.896	2895.7	navigation	Trial2	navigation/STIM_001.jpg	100
795.3	2.816	2815.6	navigation	Trial2	navigation/STIM_001.jpg	99
800.842	1.998	1998.3	navigation	Trial2	navigation/STIM_002.jpg	100
806.504	3.046	3046.1	navigation	Trial2	navigation/STIM_002.jpg	99
813.376	1.991	1990.8	navigation	Trial2	navigation/STIM_002.jpg	99
819.23	2.175	2174.9	navigation	Trial2	navigation/STIM_002.jpg	100
824.188	1.29	1289.8	navigation	Trial2	navigation/STIM_002.jpg	99
828.649	1.281	1280.6	navigation	Trial2	navigation/STIM_002.jpg	100
833.574	3.459	3458.8	navigation	Trial2	navigation/STIM_003.jpg	99
839.809	2.885	2885.0	navigation	Trial2	navigation/STIM_003.jpg	99
845.142	1.572	1571.8	navigation	Trial2	navigation/STIM_003.jpg	99
850.434	1.729	1729.2	navigation	Trial2	navigation/STIM_003.jpg	100
856.296	1.511	1511.0	navigation	Trial2	navigation/STIM_003.jpg	100
860.614	1.604	1604.0	navigation	Trial2	navigation/STIM_003.jpg	99
866.27	2.758	2757.9	navigation	Trial2	navigation/STIM_004.jpg	99
872.705	3.325	3324.6	navigation	Trial2	navigation/STIM_004.jpg	99
880.343	2.407	2407.3	navigation	Trial2	navigation/STIM_004.jpg	99
886.232	1.819	1819.2	navigation	Trial2	navigation/STIM_004.jpg	99
891.185	1.358	1358.3	navigation	Trial2	navigation/STIM_004.jpg	99
896.547	2.392	2391.7	navigation	Trial2	navigation/STIM_004.jpg	100
902.646	2.508	2508.2	navigation	Trial2	navigation/STIM_005.jpg	99
907.6	2.329	2329.4	navigation	Trial2	navigation/STIM_005.jpg	100
913.77	2.841	2840.9	navigation	Trial2	navigation/STIM_005.jpg	100
921.003	2.679	2678.9	navigation	Trial2	navigation/STIM_005.jpg	99
927.616	1.538	1538.0	navigation	Trial2	navigation/STIM_005.jpg	100
933.322	1.754	1753.7	navigation	Trial2	navigation/STIM_005.jpg	99
938.794	2.608	2608.3	navigation	Trial2	navigation/STIM_006.jpg	99
944.087	1.956	1955.7	navigation	Trial2	navigation/STIM_006.jpg	100
948.762	1.893	1893.4	navigation	Trial2	navigation/STIM_006.jpg	100
954.443	2.794	2794.1	navigation	Trial2	navigation/STIM_006.jpg	100
960.646	2.807	2807.1	navigation	Trial2	navigation/STIM_006.jpg	99
967.345	2.3	2299.6	navigation	Trial2	navigation/STIM_006.jpg	99
973.669	3.656	3655.5	navigation	Trial2	navigation/STIM_007.jpg	99
980.728	3.147	3147.4	navigation	Trial2	navigation/STIM_007.jpg	99
986.475	1.604	1604.1	navigation	Trial2	navigation/STIM_007.jpg	100
990.555	1.418	1418.3	navigation	Trial2	navigation/STIM_007.jpg	99
994.272	2.64	2639.9	navigation	Trial2	navigation/STIM_007.jpg	100
1000.303	2.031	2030.9	navigation	Trial2	navigation/STIM_007.jpg	100
1006.483	2.346	2346.4	navigation	Trial2	navigation/STIM_008.jpg	100
1013.084	3.388	3387.7	navigation	Trial2	navigation/STIM_008.jpg	100
1020.88	1.529	1528.8	navigation	Trial2	navigation/STIM_008.jpg	100
1025.711	1.739	1738.7	navigation	Trial2	navigation/STIM_008.jpg	100
1030.203	2.779	2779.0	navigation	Trial2	navigation/STIM_008.jpg	100
1037.153	2.552	2551.5	navigation	Trial2	navigation/STIM_008.jpg	99
1042.337	3.035	3034.6	navigation	Trial2	navigation/STIM_009.jpg	99
1048.024	3.36	3359.9	navigation	Trial2	navigation/STIM_009.jpg	99
1054.411	3.115	3114.9	navigation	Trial2	navigation/STIM_009.jpg	99
1060.199	2.642	2641.5	navigation	Trial2	navigation/STIM_009.jpg	99
1066.819	1.733	1733.2	navigation	Trial2	navigation/STIM_009.jpg	100
1072.834	2.54	2540.2	navigation	Trial2	navigation/STIM_009.jpg	100
1078.993	1.596	1595.8	navigation	Trial2	navigation/STIM_010.jpg	100
1083.225	3.06	3060.1	navigation	Trial2	navigation/STIM_010.jpg	99
1089.878	2.309	2308.6	navigation	Trial2	navigation/STIM_010.jpg	100
1095.635	1.307	1307.1	navigation	Trial2	navigation/STIM_010.jpg	99
1100.969	1.698	1698.0	navigation	Trial2	navigation/STIM_010.jpg	99
1105.171	1.681	1680.6	navigation	Trial2	navigation/STIM_010.jpg	99
1110.531	2.369	2369.3	navigation	Trial2	navigation/STIM_011.jpg	100
1116.41	1.52	1519.9	navigation	Trial2	navigation/STIM_011.jpg	100
1120.704	1.446	1446.1	navigation	Trial2	navigation/STIM_011.jpg	99
1126.323	2.538	2538.1	navigation	Trial2	navigation/STIM_011.jpg	99
1131.479	2.588	2587.9	navigation	Trial2	navigation/STIM_011.jpg	100
1137.787	1.916	1916.3	navigation	Trial2	navigation/STIM_011.jpg	99
1143.162	1.145	1144.8	pointing	Trial2	pointing/STIM_000.jpg	100
1146.962	0.961	961.3	pointing	Trial2	pointing/STIM_000.jpg	100
1150.343	0.783	782.8	pointing	Trial2	pointing/STIM_000.jpg	100
1155.038	1.194	1193.5	pointing	Trial2	pointing/STIM_000.jpg	99
1158.411	0.985	984.7	pointing	Trial2	pointing/STIM_000.jpg	100
1162.976	0.842	842.1	pointing	Trial2	pointing/STIM_000.jpg	99
1166.254	1.093	1092.9	pointing	Trial2	pointing/STIM_001.jpg	99
1169.631	1.22	1220.2	pointing	Trial2	pointing/STIM_001.jpg	99
1174.297	0.881	880.7	pointing	Trial2	pointing/STIM_001.jpg	100
1177.597	0.855	855.2	pointing	Trial2	pointing/STIM_001.jpg	100
1181.892	0.904	904.0	pointing	Trial2	pointing/STIM_001.jpg	99
1186.073	0.906	905.5	pointing	Trial2	pointing/STIM_001.jpg	100
1191.12	1.103	1102.7	pointing	Trial2	pointing/STIM_002.jpg	99
1196.141	1.191	1191.4	pointing	Trial2	pointing/STIM_002.jpg	100
1200.196	0.732	731.6	pointing	Trial2	pointing/STIM_002.jpg	100
1203.989	1.199	1198.7	pointing	Trial2	pointing/STIM_002.jpg	100
1209.322	1.283	1282.8	pointing	Trial2	pointing/STIM_002.jpg	100
1214.765	1.181	1181.0	pointing	Trial2	pointing/STIM_002.jpg	99
1219.065	1.17	1170.5	pointing	Trial2	pointing/STIM_003.jpg	100
1223.991	0.786	786.5	pointing	Trial2	pointing/STIM_003.jpg	100
1227.021	0.769	769.3	pointing	Trial2	pointing/STIM_003.jpg	99
1230.951	0.75	750.3	pointing	Trial2	pointing/STIM_003.jpg	99
1235.074	1.217	1217.2	pointing	Trial2	pointing/STIM_003.jpg	99
1238.743	0.915	915.4	pointing	Trial2	pointing/STIM_003.jpg	100
1243.736	0.721	720.6	pointing	Trial2	pointing/STIM_004.jpg	100
1248.353	0.681	680.6	pointing	Trial2	pointing/STIM_004.jpg	99
1251.867	0.96	959.5	pointing	Trial2	pointing/STIM_004.jpg	99
1255.254	1.24	1239.9	pointing	Trial2	pointing/STIM_004.jpg	99
1259.747	1.092	1091.7	pointing	Trial2	pointing/STIM_004.jpg	100
1264.527	1.011	1010.7	pointing	Trial2	pointing/STIM_004.jpg	99
1269.565	1.146	1146.3	pointing	Trial2	pointing/STIM_005.jpg	99
1274.089	1.086	1085.5	pointing	Trial2	pointing/STIM_005.jpg	100
1278.451	0.901	900.9	pointing	Trial2	pointing/STIM_005.jpg	100
1282.985	0.78	779.5	pointing	Trial2	pointing/STIM_005.jpg	99
1287.257	0.789	789.1	pointing	Trial2	pointing/STIM_005.jpg	99
1291.252	0.689	688.9	pointing	Trial2	pointing/STIM_005.jpg	100
1294.458	1.088	1087.8	pointing	Trial2	pointing/STIM_006.jpg	100
1298.797	0.959	959.2	pointing	Trial2	pointing/STIM_006.jpg	100
1303.133	0.776	776.3	pointing	Trial2	pointing/STIM_006.jpg	100
1307.57	0.789	788.7	pointing	Trial2	pointing/STIM_006.jpg	100
1311.559	1.046	1045.8	pointing	Trial2	pointing/STIM_006.jpg	100
1316.666	1.214	1214.4	pointing	Trial2	pointing/STIM_006.jpg	99
1320.756	0.884	883.9	pointing	Trial2	pointing/STIM_007.jpg	99
1325.557	0.836	835.9	pointing	Trial2	pointing/STIM_007.jpg	100
1329.175	0.897	896.8	pointing	Trial2	pointing/STIM_007.jpg	99
1333.721	0.764	764.1	pointing	Trial2	pointing/STIM_007.jpg	99
1337.452	0.782	781.7	pointing	Trial2	pointing/STIM_007.jpg	99
1341.262	0.802	802.3	pointing	Trial2	pointing/STIM_007.jpg	100
1344.566	0.897	897.3	pointing	Trial2	pointing/STIM_008.jpg	100
1348.479	1.337	1336.7	pointing	Trial2	pointing/STIM_008.jpg	100
1352.68	1.145	1144.6	pointing	Trial2	pointing/STIM_008.jpg	99
1357.435	0.954	954.5	pointing	Trial2	pointing/STIM_008.jpg	99
1361.424	1.097	1097.2	pointing	Trial2	pointing/STIM_008.jpg	100
1364.805	0.843	843.3	pointing	Trial2	pointing/STIM_008.jpg	99
1367.94	1.166	1166.4	pointing	Trial2	pointing/STIM_009.jpg	100
1373.241	0.99	989.6	pointing	Trial2	pointing/STIM_009.jpg	99
1378.215	1.228	1228.0	pointing	Trial2	pointing/STIM_009.jpg	100
1382.203	1.297	1297.1	pointing	Trial2	pointing/STIM_009.jpg	99
1386.087	0.89	889.8	pointing	Trial2	pointing/STIM_009.jpg	99
1390.565	0.962	962.1	pointing	Trial2	pointing/STIM_009.jpg	99
1395.597	1.102	1101.9	pointing	Trial2	pointing/STIM_010.jpg	100
1399.339	0.812	811.5	pointing	Trial2	pointing/STIM_010.jpg	99
1402.261	1.214	1213.8	pointing	Trial2	pointing/STIM_010.jpg	99
1406.574	0.657	657.2	pointing	Trial2	pointing/STIM_010.jpg	99
1411.387	0.837	836.8	pointing	Trial2	pointing/STIM_010.jpg	100
1414.75	1.092	1092.4	pointing	Trial2	pointing/STIM_010.jpg	100
1418.637	0.877	876.8	pointing	Trial2	pointing/STIM_011.jpg	99
1423.234	1.038	1038.1	pointing	Trial2	pointing/STIM_011.jpg	99
1426.71	1.118	1117.8	pointing	Trial2	pointing/STIM_011.jpg	100
1430.701	0.869	869.4	pointing	Trial2	pointing/STIM_011.jpg	100
1433.776	1.019	1019.3	pointing	Trial2	pointing/STIM_011.jpg	99
1438.311	0.83	829.7	pointing	Trial2	pointing/STIM_011.jpg	99
1441.597	2.059	2059.2	navigation	Trial3	navigation/STIM_000.jpg	100
1446.392	2.627	2626.6	navigation	Trial3	navigation/STIM_000.jpg	100
1451.831	2.625	2625.3	navigation	Trial3	navigation/STIM_000.jpg	100
1457.682	1.767	1766.7	navigation	Trial3	navigation/STIM_000.jpg	100
1463.221	1.962	1961.5	navigation	Trial3	navigation/STIM_000.jpg	100
1467.692	2.757	2756.9	navigation	Trial3	navigation/STIM_000.jpg	100
1473.822	2.7	2699.9	navigation	Trial3	navigation/STIM_001.jpg	99
1480.754	2.532	2532.4	navigation	Trial3	navigation/STIM_001.jpg	99
1486.906	2.775	2774.7	navigation	Trial3	navigation/STIM_001.jpg	99
1492.255	2.828	2828.5	navigation	Trial3	navigation/STIM_001.jpg	100
1497.832	2.907	2907.3	navigation	Trial3	navigation/STIM_001.jpg	100
1504.622	1.14	1140.5	navigation	Trial3	navigation/STIM_001.jpg	100
1508.94	1.335	1334.7	navigation	Trial3	navigation/STIM_002.jpg	100
1514.021	2.941	2941.3	navigation	Trial3	navigation/STIM_002.jpg	99
1520.865	1.384	1384.3	navigation	Trial3	navigation/STIM_002.jpg	100
1525.252	2.029	2028.5	navigation	Trial3	navigation/STIM_002.jpg	99
1530.982	2.662	2661.8	navigation	Trial3	navigation/STIM_002.jpg	99
1536.971	2.021	2020.8	navigation	Trial3	navigation/STIM_002.jpg	100
1542.976	2.152	2152.3	navigation	Trial3	navigation/STIM_003.jpg	100
1547.492	1.545	1544.6	navigation	Trial3	navigation/STIM_003.jpg	99
1552.95	2.548	2548.4	navigation	Trial3	navigation/STIM_003.jpg	99
1559.805	1.965	1965.1	navigation	Trial3	navigation/STIM_003.jpg	99
1564.077	2.858	2858.3	navigation	Trial3	navigation/STIM_003.jpg	100
1571.105	2.468	2468.4	navigation	Trial3	navigation/STIM_003.jpg	99
1576.111	2.339	2339.0	navigation	Trial3	navigation/STIM_004.jpg	100
1581.396	1.822	1821.9	navigation	Trial3	navigation/STIM_004.jpg	99
1586.218	2.533	2532.7	navigation	Trial3	navigation/STIM_004.jpg	99
1591.959	2.897	2897.1	navigation	Trial3	navigation/STIM_004.jpg	100
1599.07	1.814	1814.4	navigation	Trial3	navigation/STIM_004.jpg	99
1603.205	1.45	1450.5	navigation	Trial3	navigation/STIM_004.jpg	100
1607.914	1.419	1419.3	navigation	Trial3	navigation/STIM_005.jpg	100
1612.453	2.691	2691.2	navigation	Trial3	navigation/STIM_005.jpg	100
1618.733	1.759	1759.1	navigation	Trial3	navigation/STIM_005.jpg	100
1623.285	2.319	2319.2	navigation	Trial3	navigation/STIM_005.jpg	99
1629.316	2.152	2152.2	navigation	Trial3	navigation/STIM_005.jpg	100
1634.141	2.133	2133.2	navigation	Trial3	navigation/STIM_005.jpg	99
1640.123	2.479	2479.0	navigation	Trial3	navigation/STIM_006.jpg	100
1646.363	2.822	2821.9	navigation	Trial3	navigation/STIM_006.jpg	99
1651.926	1.858	1857.6	navigation	Trial3	navigation/STIM_006.jpg	100
1657.581	2.342	2341.8	navigation	Trial3	navigation/STIM_006.jpg	100
1664.065	2.813	2813.1	navigation	Trial3	navigation/STIM_006.jpg	99
1670.384	2.782	2781.9	navigation	Trial3	navigation/STIM_006.jpg	100
1676.053	1.557	1557.4	navigation	Trial3	navigation/STIM_007.jpg	100
1680.353	1.886	1886.5	navigation	Trial3	navigation/STIM_007.jpg	100
1686.122	1.359	1358.9	navigation	Trial3	navigation/STIM_007.jpg	100
1690.742	1.536	1536.3	navigation	Trial3	navigation/STIM_007.jpg	100
1695.118	1.63	1629.9	navigation	Trial3	navigation/STIM_007.jpg	99
1700.102	1.884	1884.5	navigation	Trial3	navigation/STIM_007.jpg	100
1705.629	1.834	1833.6	navigation	Trial3	navigation/STIM_008.jpg	99
1710.016	2.217	2217.2	navigation	Trial3	navigation/STIM_008.jpg	99
1715.627	2.633	2633.3	navigation	Trial3	navigation/STIM_008.jpg	99
1722.499	1.805	1805.0	navigation	Trial3	navigation/STIM_008.jpg	99
1728.123	1.436	1436.4	navigation	Trial3	navigation/STIM_008.jpg	99
1733.195	2.449	2448.8	navigation	Trial3	navigation/STIM_008.jpg	99
1738.556	1.874	1873.7	navigation	Trial3	navigation/STIM_009.jpg	99
1743.326	1.489	1489.2	navigation	Trial3	navigation/STIM_009.jpg	100
1747.533	1.437	1436.8	navigation	Trial3	navigation/STIM_009.jpg	100
1751.492	2.525	2525.2	navigation	Trial3	navigation/STIM_009.jpg	100
1757.074	1.647	1647.4	navigation	Trial3	navigation/STIM_009.jpg	99
1761.124	1.704	1704.2	navigation	Trial3	navigation/STIM_009.jpg	100
1766.823	2.636	2635.6	navigation	Trial3	navigation/STIM_010.jpg	99
1773.486	1.465	1464.6	navigation	Trial3	navigation/STIM_010.jpg	100
1778.5	1.982	1982.5	navigation	Trial3	navigation/STIM_010.jpg	99
1784.102	2.076	2076.1	navigation	Trial3	navigation/STIM_010.jpg	100
1788.493	1.763	1762.7	navigation	Trial3	navigation/STIM_010.jpg	100
1794.433	2.918	2917.8	navigation	Trial3	navigation/STIM_010.jpg	99
1799.865	1.715	1715.2	navigation	Trial3	navigation/STIM_011.jpg	99
1804.211	1.613	1612.6	navigation	Trial3	navigation/STIM_011.jpg	99
1808.961	2.621	2620.6	navigation	Trial3	navigation/STIM_011.jpg	100
1815.448	2.683	2683.3	navigation	Trial3	navigation/STIM_011.jpg	99
1822.542	2.362	2361.5	navigation	Trial3	navigation/STIM_011.jpg	99
1829.084	2.642	2641.5	navigation	Trial3	navigation/STIM_011.jpg	100
1835.153	1.036	1036.0	pointing	Trial3	pointing/STIM_000.jpg	100
1838.619	1.08	1080.1	pointing	Trial3	pointing/STIM_000.jpg	99
1843.784	1.046	1046.5	pointing	Trial3	pointing/STIM_000.jpg	99
1848.307	0.834	833.6	pointing	Trial3	pointing/STIM_000.jpg	99
1852.436	0.944	944.4	pointing	Trial3	pointing/STIM_000.jpg	99
1856.521	1.191	1190.8	pointing	Trial3	pointing/STIM_000.jpg	99
1860.204	1.025	1024.7	pointing	Trial3	pointing/STIM_001.jpg	99
1864.836	1.012	1012.3	pointing	Trial3	pointing/STIM_001.jpg	100
1869.7	1.043	1042.6	pointing	Trial3	pointing/STIM_001.jpg	99
1873.78	0.85	849.7	pointing	Trial3	pointing/STIM_001.jpg	100
1878.777	0.783	783.1	pointing	Trial3	pointing/STIM_001.jpg	99
1882.332	0.834	834.5	pointing	Trial3	pointing/STIM_001.jpg	100
1885.688	0.64	639.9	pointing	Trial3	pointing/STIM_002.jpg	99
1889.341	1.147	1146.8	pointing	Trial3	pointing/STIM_002.jpg	99
1893.45	1.254	1253.6	pointing	Trial3	pointing/STIM_002.jpg	100
1897.083	0.732	732.2	pointing	Trial3	pointing/STIM_002.jpg	99
1901.243	0.901	901.4	pointing	Trial3	pointing/STIM_002.jpg	99
1905.665	0.922	922.5	pointing	Trial3	pointing/STIM_002.jpg	100
1910.199	0.788	787.7	pointing	Trial3	pointing/STIM_003.jpg	99
1913.346	0.652	651.7	pointing	Trial3	pointing/STIM_003.jpg	99
1916.831	0.865	865.3	pointing	Trial3	pointing/STIM_003.jpg	100
1921.494	0.802	801.9	pointing	Trial3	pointing/STIM_003.jpg	100
1924.781	1.161	1160.8	pointing	Trial3	pointing/STIM_003.jpg	99
1929.392	0.702	701.5	pointing	Trial3	pointing/STIM_003.jpg	100
1932.476	0.933	933.4	pointing	Trial3	pointing/STIM_004.jpg	100
1936.414	0.737	737.1	pointing	Trial3	pointing/STIM_004.jpg	99
1940.025	0.916	916.0	pointing	Trial3	pointing/STIM_004.jpg	99
1943.829	0.935	935.2	pointing	Trial3	pointing/STIM_004.jpg	100
1947.202	0.925	925.1	pointing	Trial3	pointing/STIM_004.jpg	99
1950.587	0.894	893.8	pointing	Trial3	pointing/STIM_004.jpg	99
1955.525	0.86	860.4	pointing	Trial3	pointing/STIM_005.jpg	99
1959.839	0.943	942.9	pointing	Trial3	pointing/STIM_005.jpg	99
1964.287	0.59	590.5	pointing	Trial3	pointing/STIM_005.jpg	99
1968.472	1.148	1147.5	pointing	Trial3	pointing/STIM_005.jpg	100
1972.71	0.685	685.0	pointing	Trial3	pointing/STIM_005.jpg	100
1977.199	0.915	915.0	pointing	Trial3	pointing/STIM_005.jpg	99
1981.226	1.057	1057.1	pointing	Trial3	pointing/STIM_006.jpg	99
1986.0	0.917	917.2	pointing	Trial3	pointing/STIM_006.jpg	99
1991.033	0.714	713.8	pointing	Trial3	pointing/STIM_006.jpg	100
1994.495	1.198	1197.9	pointing	Trial3	pointing/STIM_006.jpg	100
1998.673	0.734	734.2	pointing	Trial3	pointing/STIM_006.jpg	100
2002.946	0.966	965.6	pointing	Trial3	pointing/STIM_006.jpg	99
2006.689	0.825	824.6	pointing	Trial3	pointing/STIM_007.jpg	100
2011.385	0.744	744.1	pointing	Trial3	pointing/STIM_007.jpg	99
2015.658	1.201	1200.6	pointing	Trial3	pointing/STIM_007.jpg	100
2019.988	1.234	1234.0	pointing	Trial3	pointing/STIM_007.jpg	99
2024.093	1.016	1015.7	pointing	Trial3	pointing/STIM_007.jpg	100
2027.74	0.951	950.9	pointing	Trial3	pointing/STIM_007.jpg	100
2031.335	1.205	1205.3	pointing	Trial3	pointing/STIM_008.jpg	99
2035.433	1.168	1168.3	pointing	Trial3	pointing/STIM_008.jpg	99
2038.904	0.815	815.3	pointing	Trial3	pointing/STIM_008.jpg	99
2042.006	0.86	859.5	pointing	Trial3	pointing/STIM_008.jpg	99
2045.671	0.849	848.7	pointing	Trial3	pointing/STIM_008.jpg	99
2049.713	0.865	864.8	pointing	Trial3	pointing/STIM_008.jpg	99
2053.58	1.145	1145.1	pointing	Trial3	pointing/STIM_009.jpg	100
2057.094	1.287	1286.8	pointing	Trial3	pointing/STIM_009.jpg	100
2062.429	1.06	1060.4	pointing	Trial3	pointing/STIM_009.jpg	99
2067.189	1.24	1239.7	pointing	Trial3	pointing/STIM_009.jpg	100
2071.74	0.993	993.3	pointing	Trial3	pointing/STIM_009.jpg	99
2074.925	0.78	779.8	pointing	Trial3	pointing/STIM_009.jpg	99
2078.277	1.072	1072.0	pointing	Trial3	pointing/STIM_010.jpg	100
2081.645	0.836	835.8	pointing	Trial3	pointing/STIM_010.jpg	99
2084.99	1.051	1050.8	pointing	Trial3	pointing/STIM_010.jpg	100
2089.639	1.038	1038.5	pointing	Trial3	pointing/STIM_010.jpg	100
2093.537	0.792	791.6	pointing	Trial3	pointing/STIM_010.jpg	99
2097.063	1.101	1101.0	pointing	Trial3	pointing/STIM_010.jpg	100
2101.534	1.26	1259.8	pointing	Trial3	pointing/STIM_011.jpg	100
2106.783	0.999	999.2	pointing	Trial3	pointing/STIM_011.jpg	99
2109.905	1.303	1302.7	pointing	Trial3	pointing/STIM_011.jpg	100
2114.745	0.773	773.3	pointing	Trial3	pointing/STIM_011.jpg	100
2119.106	1.11	1110.3	pointing	Trial3	pointing/STIM_011.jpg	99
2122.595	0.961	961.0	pointing	Trial3	pointing/STIM_011.jpg	99
