onset	duration	accuracy	trial_type	learning_stage	stimulus
0.0	4.074	incorrect	navigation	Trial1	navigation/STIM_000.jpg
6.801	5.518	incorrect	navigation	Trial1	navigation/STIM_000.jpg
14.732	3.342	correct	navigation	Trial1	navigation/STIM_000.jpg
20.887	3.548	incorrect	navigation	Trial1	navigation/STIM_000.jpg
28.249	2.626	incorrect	navigation	Trial1	navigation/STIM_000.jpg
34.64	3.835	incorrect	navigation	Trial1	navigation/STIM_000.jpg
41.472	2.69	incorrect	navigation	Trial1	navigation/STIM_001.jpg
46.81	2.697	incorrect	navigation	Trial1	navigation/STIM_001.jpg
52.447	4.372	incorrect	navigation	Trial1	navigation/STIM_001.jpg
60.797	4.174	incorrect	navigation	Trial1	navigation/STIM_001.jpg
68.057	2.416	correct	navigation	Trial1	navigation/STIM_001.jpg
74.103	2.042	incorrect	navigation	Trial1	navigation/STIM_001.jpg
79.516	3.562	incorrect	navigation	Trial1	navigation/STIM_002.jpg
86.503	2.698	correct	navigation	Trial1	navigation/STIM_002.jpg
91.964	4.26	correct	navigation	Trial1	navigation/STIM_002.jpg
98.675	3.569	incorrect	navigation	Trial1	navigation/STIM_002.jpg
105.746	2.978	correct	navigation	Trial1	navigation/STIM_002.jpg
111.36	4.373	incorrect	navigation	Trial1	navigation/STIM_002.jpg
119.258	4.235	incorrect	navigation	Trial1	navigation/STIM_003.jpg
125.909	4.553	incorrect	navigation	Trial1	navigation/STIM_003.jpg
133.677	4.084	correct	navigation	Trial1	navigation/STIM_003.jpg
141.726	4.091	correct	navigation	Trial1	navigation/STIM_003.jpg
148.692	3.142	incorrect	navigation	Trial1	navigation/STIM_003.jpg
154.112	3.28	correct	navigation	Trial1	navigation/STIM_003.jpg
159.959	2.773	incorrect	navigation	Trial1	navigation/STIM_004.jpg
165.925	5.312	correct	navigation	Trial1	navigation/STIM_004.jpg
175.072	2.515	correct	navigation	Trial1	navigation/STIM_004.jpg
181.396	2.536	correct	navigation	Trial1	navigation/STIM_004.jpg
187.798	4.392	correct	navigation	Trial1	navigation/STIM_004.jpg
195.327	3.091	incorrect	navigation	Trial1	navigation/STIM_004.jpg
201.502	4.263	incorrect	navigation	Trial1	navigation/STIM_005.jpg
209.332	5.028	correct	navigation	Trial1	navigation/STIM_005.jpg
216.833	3.535	correct	navigation	Trial1	navigation/STIM_005.jpg
223.377	4.861	incorrect	navigation	Trial1	navigation/STIM_005.jpg
230.695	3.999	correct	navigation	Trial1	navigation/STIM_005.jpg
237.19	4.484	correct	navigation	Trial1	navigation/STIM_005.jpg
244.431	4.094	incorrect	navigation	Trial1	navigation/STIM_006.jpg
251.196	4.442	correct	navigation	Trial1	navigation/STIM_006.jpg
259.33	4.422	correct	navigation	Trial1	navigation/STIM_006.jpg
267.683	3.606	incorrect	navigation	Trial1	navigation/STIM_006.jpg
273.364	2.328	incorrect	navigation	Trial1	navigation/STIM_006.jpg
278.424	4.255	incorrect	navigation	Trial1	navigation/STIM_006.jpg
285.238	4.287	incorrect	navigation	Trial1	navigation/STIM_007.jpg
291.638	3.303	incorrect	navigation	Trial1	navigation/STIM_007.jpg
298.638	4.254	correct	navigation	Trial1	navigation/STIM_007.jpg
305.723	2.694	incorrect	navigation	Trial1	navigation/STIM_007.jpg
311.594	3.508	correct	navigation	Trial1	navigation/STIM_007.jpg
318.687	1.968	incorrect	navigation	Trial1	navigation/STIM_007.jpg
324.076	2.731	correct	navigation	Trial1	navigation/STIM_008.jpg
329.774	3.318	correct	navigation	Trial1	navigation/STIM_008.jpg
335.902	2.249	correct	navigation	Trial1	navigation/STIM_008.jpg
340.517	2.989	incorrect	navigation	Trial1	navigation/STIM_008.jpg
346.442	2.596	correct	navigation	Trial1	navigation/STIM_008.jpg
352.529	3.732	correct	navigation	Trial1	navigation/STIM_008.jpg
359.442	5.673	incorrect	navigation	Trial1	navigation/STIM_009.jpg
367.535	3.011	incorrect	navigation	Trial1	navigation/STIM_009.jpg
373.54	3.573	correct	navigation	Trial1	navigation/STIM_009.jpg
381.072	3.112	correct	navigation	Trial1	navigation/STIM_009.jpg
388.024	2.431	correct	navigation	Trial1	navigation/STIM_009.jpg
393.389	3.03	incorrect	navigation	Trial1	navigation/STIM_009.jpg
398.853	4.857	correct	navigation	Trial1	navigation/STIM_010.jpg
407.467	5.611	correct	navigation	Trial1	navigation/STIM_010.jpg
416.743	5.18	incorrect	navigation	Trial1	navigation/STIM_010.jpg
424.267	4.543	incorrect	navigation	Trial1	navigation/STIM_010.jpg
432.687	2.653	correct	navigation	Trial1	navigation/STIM_010.jpg
438.172	2.119	incorrect	navigation	Trial1	navigation/STIM_010.jpg
444.238	2.963	correct	navigation	Trial1	navigation/STIM_011.jpg
450.083	4.191	correct	navigation	Trial1	navigation/STIM_011.jpg
457.836	3.882	correct	navigation	Trial1	navigation/STIM_011.jpg
464.574	3.978	incorrect	navigation	Trial1	navigation/STIM_011.jpg
471.362	2.834	correct	navigation	Trial1	navigation/STIM_011.jpg
476.432	2.834	correct	navigation	Trial1	navigation/STIM_011.jpg
482.656	1.456	correct	pointing	Trial1	pointing/STIM_000.jpg
486.586	1.712	correct	pointing	Trial1	pointing/STIM_000.jpg
492.18	1.258	correct	pointing	Trial1	pointing/STIM_000.jpg
497.19	1.314	correct	pointing	Trial1	pointing/STIM_000.jpg
501.682	1.608	incorrect	pointing	Trial1	pointing/STIM_000.jpg
506.454	1.051	correct	pointing	Trial1	pointing/STIM_000.jpg
511.051	1.77	correct	pointing	Trial1	pointing/STIM_001.jpg
516.783	1.307	correct	pointing	Trial1	pointing/STIM_001.jpg
520.718	1.576	correct	pointing	Trial1	pointing/STIM_001.jpg
524.755	1.236	correct	pointing	Trial1	pointing/STIM_001.jpg
529.237	1.027	incorrect	pointing	Trial1	pointing/STIM_001.jpg
533.228	1.558	correct	pointing	Trial1	pointing/STIM_001.jpg
537.101	1.406	correct	pointing	Trial1	pointing/STIM_002.jpg
541.462	1.309	incorrect	pointing	Trial1	pointing/STIM_002.jpg
546.074	1.258	correct	pointing	Trial1	pointing/STIM_002.jpg
550.838	1.66	incorrect	pointing	Trial1	pointing/STIM_002.jpg
555.754	1.531	correct	pointing	Trial1	pointing/STIM_002.jpg
561.026	1.226	correct	pointing	Trial1	pointing/STIM_002.jpg
565.056	1.44	correct	pointing	Trial1	pointing/STIM_003.jpg
569.372	0.986	correct	pointing	Trial1	pointing/STIM_003.jpg
572.797	1.789	incorrect	pointing	Trial1	pointing/STIM_003.jpg
578.209	1.494	correct	pointing	Trial1	pointing/STIM_003.jpg
582.608	1.646	correct	pointing	Trial1	pointing/STIM_003.jpg
586.862	1.106	correct	pointing	Trial1	pointing/STIM_003.jpg
590.005	0.988	correct	pointing	Trial1	pointing/STIM_004.jpg
593.761	1.41	correct	pointing	Trial1	pointing/STIM_004.jpg
598.801	1.07	correct	pointing	Trial1	pointing/STIM_004.jpg
603.515	1.186	correct	pointing	Trial1	pointing/STIM_004.jpg
607.733	1.192	correct	pointing	Trial1	pointing/STIM_004.jpg
611.521	1.697	correct	pointing	Trial1	pointing/STIM_004.jpg
616.265	1.237	incorrect	pointing	Trial1	pointing/STIM_005.jpg
621.274	0.991	correct	pointing	Trial1	pointing/STIM_005.jpg
624.763	1.802	correct	pointing	Trial1	pointing/STIM_005.jpg
629.971	1.189	correct	pointing	Trial1	pointing/STIM_005.jpg
634.364	1.73	incorrect	pointing	Trial1	pointing/STIM_005.jpg
639.941	1.707	correct	pointing	Trial1	pointing/STIM_005.jpg
644.167	1.73	correct	pointing	Trial1	pointing/STIM_006.jpg
648.49	1.162	correct	pointing	Trial1	pointing/STIM_006.jpg
652.613	1.414	correct	pointing	Trial1	pointing/STIM_006.jpg
657.912	1.53	correct	pointing	Trial1	pointing/STIM_006.jpg
662.326	1.132	correct	pointing	Trial1	pointing/STIM_006.jpg
667.018	1.033	correct	pointing	Trial1	pointing/STIM_006.jpg
671.034	1.329	correct	pointing	Trial1	pointing/STIM_007.jpg
675.931	1.625	correct	pointing	Trial1	pointing/STIM_007.jpg
679.677	1.078	correct	pointing	Trial1	pointing/STIM_007.jpg
683.307	1.12	correct	pointing	Trial1	pointing/STIM_007.jpg
686.822	1.049	correct	pointing	Trial1	pointing/STIM_007.jpg
689.997	1.332	correct	pointing	Trial1	pointing/STIM_007.jpg
694.692	1.763	correct	pointing	Trial1	pointing/STIM_008.jpg
700.079	1.167	correct	pointing	Trial1	pointing/STIM_008.jpg
704.191	1.544	correct	pointing	Trial1	pointing/STIM_008.jpg
708.043	1.654	correct	pointing	Trial1	pointing/STIM_008.jpg
713.203	1.27	correct	pointing	Trial1	pointing/STIM_008.jpg
716.811	1.465	correct	pointing	Trial1	pointing/STIM_008.jpg
722.185	1.443	incorrect	pointing	Trial1	pointing/STIM_009.jpg
726.531	1.259	correct	pointing	Trial1	pointing/STIM_009.jpg
731.133	1.294	incorrect	pointing	Trial1	pointing/STIM_009.jpg
735.074	1.159	correct	pointing	Trial1	pointing/STIM_009.jpg
738.663	1.533	correct	pointing	Trial1	pointing/STIM_009.jpg
742.494	1.028	correct	pointing	Trial1	pointing/STIM_009.jpg
746.612	1.705	correct	pointing	Trial1	pointing/STIM_010.jpg
751.55	1.64	correct	pointing	Trial1	pointing/STIM_010.jpg
755.215	1.166	correct	pointing	Trial1	pointing/STIM_010.jpg
759.847	1.111	correct	pointing	Trial1	pointing/STIM_010.jpg
764.431	1.063	incorrect	pointing	Trial1	pointing/STIM_010.jpg
768.016	1.263	correct	pointing	Trial1	pointing/STIM_010.jpg
773.273	1.512	correct	pointing	Trial1	pointing/STIM_011.jpg
777.596	1.437	correct	pointing	Trial1	pointing/STIM_011.jpg
782.63	1.788	incorrect	pointing	Trial1	pointing/STIM_011.jpg
788.326	1.621	incorrect	pointing	Trial1	pointing/STIM_011.jpg
793.116	1.767	correct	pointing	Trial1	pointing/STIM_011.jpg
797.242	1.443	correct	pointing	Trial1	pointing/STIM_011.jpg
801.24	4.928	correct	navigation	Trial2	navigation/STIM_000.jpg
809.82	3.576	correct	navigation	Trial2	navigation/STIM_000.jpg
816.701	2.14	correct	navigation	Trial2	navigation/STIM_000.jpg
821.123	2.742	correct	navigation	Trial2	navigation/STIM_000.jpg
826.71	4.024	correct	navigation	Trial2	navigation/STIM_000.jpg
834.174	2.562	correct	navigation	Trial2	navigation/STIM_000.jpg
838.974	4.24	incorrect	navigation	Trial2	navigation/STIM_001.jpg
846.916	4.423	correct	navigation	Trial2	navigation/STIM_001.jpg
854.222	2.037	correct	navigation	Trial2	navigation/STIM_001.jpg
859.145	2.767	correct	navigation	Trial2	navigation/STIM_001.jpg
864.237	2.389	correct	navigation	Trial2	navigation/STIM_001.jpg
869.796	4.032	incorrect	navigation	Trial2	navigation/STIM_001.jpg
877.225	4.862	incorrect	navigation	Trial2	navigation/STIM_002.jpg
884.199	4.404	incorrect	navigation	Trial2	navigation/STIM_002.jpg
891.206	4.311	correct	navigation	Trial2	navigation/STIM_002.jpg
899.135	2.039	correct	navigation	Trial2	navigation/STIM_002.jpg
905.027	2.212	correct	navigation	Trial2	navigation/STIM_002.jpg
909.694	2.672	correct	navigation	Trial2	navigation/STIM_002.jpg
915.941	3.517	correct	navigation	Trial2	navigation/STIM_003.jpg
923.415	4.806	correct	navigation	Trial2	navigation/STIM_003.jpg
932.087	4.089	correct	navigation	Trial2	navigation/STIM_003.jpg
939.812	3.401	correct	navigation	Trial2	navigation/STIM_003.jpg
946.468	2.661	correct	navigation	Trial2	navigation/STIM_003.jpg
951.251	2.026	correct	navigation	Trial2	navigation/STIM_003.jpg
957.19	3.111	correct	navigation	Trial2	navigation/STIM_004.jpg
963.141	4.497	correct	navigation	Trial2	navigation/STIM_004.jpg
971.215	4.398	correct	navigation	Trial2	navigation/STIM_004.jpg
977.856	1.738	correct	navigation	Trial2	navigation/STIM_004.jpg
982.908	2.834	correct	navigation	Trial2	navigation/STIM_004.jpg
988.06	2.985	correct	navigation	Trial2	navigation/STIM_004.jpg
993.674	3.516	correct	navigation	Trial2	navigation/STIM_005.jpg
1000.905	2.468	correct	navigation	Trial2	navigation/STIM_005.jpg
1005.523	4.344	correct	navigation	Trial2	navigation/STIM_005.jpg
1011.872	2.946	correct	navigation	Trial2	navigation/STIM_005.jpg
1018.136	3.031	incorrect	navigation	Trial2	navigation/STIM_005.jpg
1023.638	3.412	correct	navigation	Trial2	navigation/STIM_005.jpg
1029.243	4.625	correct	navigation	Trial2	navigation/STIM_006.jpg
1036.669	4.225	correct	navigation	Trial2	navigation/STIM_006.jpg
1044.395	3.162	correct	navigation	Trial2	navigation/STIM_006.jpg
1049.919	4.179	correct	navigation	Trial2	navigation/STIM_006.jpg
1057.762	2.667	incorrect	navigation	Trial2	navigation/STIM_006.jpg
1062.994	1.832	correct	navigation	Trial2	navigation/STIM_006.jpg
1067.82	2.932	correct	navigation	Trial2	navigation/STIM_007.jpg
1072.828	2.052	correct	navigation	Trial2	navigation/STIM_007.jpg
1078.404	4.234	correct	navigation	Trial2	navigation/STIM_007.jpg
1085.957	3.384	correct	navigation	Trial2	navigation/STIM_007.jpg
1092.335	2.436	correct	navigation	Trial2	navigation/STIM_007.jpg
1097.765	2.075	incorrect	navigation	Trial2	navigation/STIM_007.jpg
1102.69	3.712	correct	navigation	Trial2	navigation/STIM_008.jpg
1108.493	3.693	correct	navigation	Trial2	navigation/STIM_008.jpg
1115.92	3.005	incorrect	navigation	Trial2	navigation/STIM_008.jpg
1122.038	2.107	correct	navigation	Trial2	navigation/STIM_008.jpg
1128.104	4.099	correct	navigation	Trial2	navigation/STIM_008.jpg
1135.419	2.83	correct	navigation	Trial2	navigation/STIM_008.jpg
1141.284	4.913	correct	navigation	Trial2	navigation/STIM_009.jpg
1148.61	4.584	correct	navigation	Trial2	navigation/STIM_009.jpg
1156.741	1.852	incorrect	navigation	Trial2	navigation/STIM_009.jpg
1161.041	2.614	correct	navigation	Trial2	navigation/STIM_009.jpg
1166.67	2.807	correct	navigation	Trial2	navigation/STIM_009.jpg
1172.935	2.162	correct	navigation	Trial2	navigation/STIM_009.jpg
1178.501	4.16	correct	navigation	Trial2	navigation/STIM_010.jpg
1185.954	2.816	correct	navigation	Trial2	navigation/STIM_010.jpg
1191.121	3.038	correct	navigation	Trial2	navigation/STIM_010.jpg
1198.113	2.886	incorrect	navigation	Trial2	navigation/STIM_010.jpg
1203.754	2.956	incorrect	navigation	Trial2	navigation/STIM_010.jpg
1209.734	4.236	correct	navigation	Trial2	navigation/STIM_010.jpg
1216.503	2.889	correct	navigation	Trial2	navigation/STIM_011.jpg
1221.8	3.746	correct	navigation	Trial2	navigation/STIM_011.jpg
1228.645	2.055	correct	navigation	Trial2	navigation/STIM_011.jpg
1233.722	3.954	correct	navigation	Trial2	navigation/STIM_011.jpg
1241.279	2.034	correct	navigation	Trial2	navigation/STIM_011.jpg
1246.706	2.387	correct	navigation	Trial2	navigation/STIM_011.jpg
1252.019	1.046	correct	pointing	Trial2	pointing/STIM_000.jpg
1256.515	1.375	correct	pointing	Trial2	pointing/STIM_000.jpg
1260.828	1.004	correct	pointing	Trial2	pointing/STIM_000.jpg
1264.366	1.313	correct	pointing	Trial2	pointing/STIM_000.jpg
1268.618	1.402	correct	pointing	Trial2	pointing/STIM_000.jpg
1273.286	1.248	incorrect	pointing	Trial2	pointing/STIM_000.jpg
1277.202	1.348	correct	pointing	Trial2	pointing/STIM_001.jpg
1281.289	1.783	correct	pointing	Trial2	pointing/STIM_001.jpg
1286.253	1.14	correct	pointing	Trial2	pointing/STIM_001.jpg
1289.458	1.183	correct	pointing	Trial2	pointing/STIM_001.jpg
1294.523	1.139	correct	pointing	Trial2	pointing/STIM_001.jpg
1298.214	1.377	correct	pointing	Trial2	pointing/STIM_001.jpg
1301.784	1.095	correct	pointing	Trial2	pointing/STIM_002.jpg
1306.698	1.469	correct	pointing	Trial2	pointing/STIM_002.jpg
1311.901	1.316	correct	pointing	Trial2	pointing/STIM_002.jpg
1315.966	1.155	correct	pointing	Trial2	pointing/STIM_002.jpg
1319.38	1.592	correct	pointing	Trial2	pointing/STIM_002.jpg
1324.922	1.665	incorrect	pointing	Trial2	pointing/STIM_002.jpg
1329.928	1.783	correct	pointing	Trial2	pointing/STIM_003.jpg
1333.959	1.592	incorrect	pointing	Trial2	pointing/STIM_003.jpg
1338.313	1.19	correct	pointing	Trial2	pointing/STIM_003.jpg
1342.168	1.218	correct	pointing	Trial2	pointing/STIM_003.jpg
1346.512	1.793	correct	pointing	Trial2	pointing/STIM_003.jpg
1350.891	1.588	correct	pointing	Trial2	pointing/STIM_003.jpg
1355.282	1.771	correct	pointing	Trial2	pointing/STIM_004.jpg
1360.747	1.49	correct	pointing	Trial2	pointing/STIM_004.jpg
1365.863	1.161	correct	pointing	Trial2	pointing/STIM_004.jpg
1370.321	1.15	correct	pointing	Trial2	pointing/STIM_004.jpg
1373.872	1.145	correct	pointing	Trial2	pointing/STIM_004.jpg
1377.509	1.343	correct	pointing	Trial2	pointing/STIM_004.jpg
1381.734	1.444	correct	pointing	Trial2	pointing/STIM_005.jpg
1387.015	1.801	correct	pointing	Trial2	pointing/STIM_005.jpg
1391.749	1.535	correct	pointing	Trial2	pointing/STIM_005.jpg
1395.62	1.355	correct	pointing	Trial2	pointing/STIM_005.jpg
1399.795	1.15	correct	pointing	Trial2	pointing/STIM_005.jpg
1403.06	1.323	correct	pointing	Trial2	pointing/STIM_005.jpg
1406.975	1.047	correct	pointing	Trial2	pointing/STIM_006.jpg
1411.736	1.82	correct	pointing	Trial2	pointing/STIM_006.jpg
1417.205	1.301	incorrect	pointing	Trial2	pointing/STIM_006.jpg
1421.596	1.414	correct	pointing	Trial2	pointing/STIM_006.jpg
1426.506	1.674	incorrect	pointing	Trial2	pointing/STIM_006.jpg
1431.077	1.554	correct	pointing	Trial2	pointing/STIM_006.jpg
1435.346	1.334	correct	pointing	Trial2	pointing/STIM_007.jpg
1439.898	1.06	correct	pointing	Trial2	pointing/STIM_007.jpg
1444.062	1.314	correct	pointing	Trial2	pointing/STIM_007.jpg
1449.25	1.401	incorrect	pointing	Trial2	pointing/STIM_007.jpg
1453.905	1.538	correct	pointing	Trial2	pointing/STIM_007.jpg
1458.435	1.804	correct	pointing	Trial2	pointing/STIM_007.jpg
1463.561	1.549	correct	pointing	Trial2	pointing/STIM_008.jpg
1467.198	1.024	correct	pointing	Trial2	pointing/STIM_008.jpg
1471.599	1.497	correct	pointing	Trial2	pointing/STIM_008.jpg
1476.531	1.384	correct	pointing	Trial2	pointing/STIM_008.jpg
1480.798	1.342	correct	pointing	Trial2	pointing/STIM_008.jpg
1484.955	1.124	correct	pointing	Trial2	pointing/STIM_008.jpg
1489.501	1.129	incorrect	pointing	Trial2	pointing/STIM_009.jpg
1494.202	1.769	correct	pointing	Trial2	pointing/STIM_009.jpg
1499.953	1.521	correct	pointing	Trial2	pointing/STIM_009.jpg
1504.542	1.372	incorrect	pointing	Trial2	pointing/STIM_009.jpg
1509.651	1.206	correct	pointing	Trial2	pointing/STIM_009.jpg
1513.224	1.113	incorrect	pointing	Trial2	pointing/STIM_009.jpg
1517.493	1.272	incorrect	pointing	Trial2	pointing/STIM_010.jpg
1522.468	1.593	correct	pointing	Trial2	pointing/STIM_010.jpg
1527.991	1.794	correct	pointing	Trial2	pointing/STIM_010.jpg
1533.108	1.234	incorrect	pointing	Trial2	pointing/STIM_010.jpg
1536.526	1.407	correct	pointing	Trial2	pointing/STIM_010.jpg
1540.288	1.235	correct	pointing	Trial2	pointing/STIM_010.jpg
1545.48	1.535	correct	pointing	Trial2	pointing/STIM_011.jpg
1549.947	1.497	correct	pointing	Trial2	pointing/STIM_011.jpg
1554.931	1.828	correct	pointing	Trial2	pointing/STIM_011.jpg
1559.052	1.416	incorrect	pointing	Trial2	pointing/STIM_011.jpg
1564.243	1.031	incorrect	pointing	Trial2	pointing/STIM_011.jpg
1567.555	1.747	incorrect	pointing	Trial2	pointing/STIM_011.jpg
1571.455	3.093	correct	navigation	Trial3	navigation/STIM_000.jpg
1578.108	1.999	correct	navigation	Trial3	navigation/STIM_000.jpg
1582.252	3.942	correct	navigation	Trial3	navigation/STIM_000.jpg
1590.108	3.668	correct	navigation	Trial3	navigation/STIM_000.jpg
1596.1	2.453	correct	navigation	Trial3	navigation/STIM_000.jpg
1602.436	3.263	correct	navigation	Trial3	navigation/STIM_000.jpg
1608.158	2.66	correct	navigation	Trial3	navigation/STIM_001.jpg
1612.882	3.662	incorrect	navigation	Trial3	navigation/STIM_001.jpg
1619.099	2.854	correct	navigation	Trial3	navigation/STIM_001.jpg
1625.682	3.078	correct	navigation	Trial3	navigation/STIM_001.jpg
1630.799	2.662	correct	navigation	Trial3	navigation/STIM_001.jpg
1636.328	3.025	correct	navigation	Trial3	navigation/STIM_001.jpg
1643.299	2.651	correct	navigation	Trial3	navigation/STIM_002.jpg
1648.578	2.254	correct	navigation	Trial3	navigation/STIM_002.jpg
1652.992	1.761	correct	navigation	Trial3	navigation/STIM_002.jpg
1658.29	2.475	correct	navigation	Trial3	navigation/STIM_002.jpg
1663.021	3.095	correct	navigation	Trial3	navigation/STIM_002.jpg
1668.329	3.523	incorrect	navigation	Trial3	navigation/STIM_002.jpg
1675.729	3.147	correct	navigation	Trial3	navigation/STIM_003.jpg
1682.02	3.106	correct	navigation	Trial3	navigation/STIM_003.jpg
1687.865	3.558	correct	navigation	Trial3	navigation/STIM_003.jpg
1695.194	1.904	incorrect	navigation	Trial3	navigation/STIM_003.jpg
1699.11	3.884	correct	navigation	Trial3	navigation/STIM_003.jpg
1706.931	2.46	correct	navigation	Trial3	navigation/STIM_003.jpg
1712.669	3.766	correct	navigation	Trial3	navigation/STIM_004.jpg
1720.423	3.88	incorrect	navigation	Trial3	navigation/STIM_004.jpg
1727.738	3.919	correct	navigation	Trial3	navigation/STIM_004.jpg
1734.324	2.579	correct	navigation	Trial3	navigation/STIM_004.jpg
1739.577	3.592	correct	navigation	Trial3	navigation/STIM_004.jpg
1746.422	3.458	incorrect	navigation	Trial3	navigation/STIM_004.jpg
1752.976	2.655	correct	navigation	Trial3	navigation/STIM_005.jpg
1759.253	2.042	correct	navigation	Trial3	navigation/STIM_005.jpg
1764.184	3.268	correct	navigation	Trial3	navigation/STIM_005.jpg
1771.26	4.07	correct	navigation	Trial3	navigation/STIM_005.jpg
1778.2	3.82	correct	navigation	Trial3	navigation/STIM_005.jpg
1785.885	2.998	correct	navigation	Trial3	navigation/STIM_005.jpg
1792.343	2.857	incorrect	navigation	Trial3	navigation/STIM_006.jpg
1798.541	3.281	correct	navigation	Trial3	navigation/STIM_006.jpg
1805.409	2.971	correct	navigation	Trial3	navigation/STIM_006.jpg
1811.873	2.934	correct	navigation	Trial3	navigation/STIM_006.jpg
1818.664	3.389	correct	navigation	Trial3	navigation/STIM_006.jpg
1824.541	3.163	correct	navigation	Trial3	navigation/STIM_006.jpg
1831.456	2.847	correct	navigation	Trial3	navigation/STIM_007.jpg
1837.817	1.912	correct	navigation	Trial3	navigation/STIM_007.jpg
1843.454	3.263	correct	navigation	Trial3	navigation/STIM_007.jpg
1848.917	2.035	correct	navigation	Trial3	navigation/STIM_007.jpg
1852.967	2.038	correct	navigation	Trial3	navigation/STIM_007.jpg
1857.584	4.002	correct	navigation	Trial3	navigation/STIM_007.jpg
1864.216	3.356	correct	navigation	Trial3	navigation/STIM_008.jpg
1870.014	3.363	correct	navigation	Trial3	navigation/STIM_008.jpg
1876.59	2.728	correct	navigation	Trial3	navigation/STIM_008.jpg
1882.763	2.164	correct	navigation	Trial3	navigation/STIM_008.jpg
1888.224	3.224	correct	navigation	Trial3	navigation/STIM_008.jpg
1893.646	3.67	correct	navigation	Trial3	navigation/STIM_008.jpg
1900.298	2.866	correct	navigation	Trial3	navigation/STIM_009.jpg
1906.167	3.478	correct	navigation	Trial3	navigation/STIM_009.jpg
1913.504	3.181	incorrect	navigation	Trial3	navigation/STIM_009.jpg
1919.25	3.124	correct	navigation	Trial3	navigation/STIM_009.jpg
1925.151	3.767	incorrect	navigation	Trial3	navigation/STIM_009.jpg
1932.578	2.871	correct	navigation	Trial3	navigation/STIM_009.jpg
1938.766	3.983	correct	navigation	Trial3	navigation/STIM_010.jpg
1945.591	3.237	correct	navigation	Trial3	navigation/STIM_010.jpg
1952.316	2.612	correct	navigation	Trial3	navigation/STIM_010.jpg
1958.052	3.863	correct	navigation	Trial3	navigation/STIM_010.jpg
1965.149	4.13	correct	navigation	Trial3	navigation/STIM_010.jpg
1971.386	3.901	correct	navigation	Trial3	navigation/STIM_010.jpg
1977.322	4.218	correct	navigation	Trial3	navigation/STIM_011.jpg
1985.168	3.818	correct	navigation	Trial3	navigation/STIM_011.jpg
1991.422	2.981	incorrect	navigation	Trial3	navigation/STIM_011.jpg
1998.246	4.18	correct	navigation	Trial3	navigation/STIM_011.jpg
2005.149	3.913	correct	navigation	Trial3	navigation/STIM_011.jpg
2011.368	4.237	correct	navigation	Trial3	navigation/STIM_011.jpg
2018.533	1.063	correct	pointing	Trial3	pointing/STIM_000.jpg
2022.434	1.615	correct	pointing	Trial3	pointing/STIM_000.jpg
2027.613	1.121	correct	pointing	Trial3	pointing/STIM_000.jpg
2031.621	1.507	correct	pointing	Trial3	pointing/STIM_000.jpg
2035.543	1.612	incorrect	pointing	Trial3	pointing/STIM_000.jpg
2039.997	1.564	correct	pointing	Trial3	pointing/STIM_000.jpg
2045.104	1.509	correct	pointing	Trial3	pointing/STIM_001.jpg
2048.806	1.39	incorrect	pointing	Trial3	pointing/STIM_001.jpg
2053.416	1.659	correct	pointing	Trial3	pointing/STIM_001.jpg
2058.633	1.037	correct	pointing	Trial3	pointing/STIM_001.jpg
2063.488	1.202	incorrect	pointing	Trial3	pointing/STIM_001.jpg
2067.016	1.601	correct	pointing	Trial3	pointing/STIM_001.jpg
2070.754	1.621	correct	pointing	Trial3	pointing/STIM_002.jpg
2075.039	1.129	incorrect	pointing	Trial3	pointing/STIM_002.jpg
2078.947	1.082	correct	pointing	Trial3	pointing/STIM_002.jpg
2083.529	1.538	correct	pointing	Trial3	pointing/STIM_002.jpg
2087.849	1.208	correct	pointing	Trial3	pointing/STIM_002.jpg
2092.914	1.405	correct	pointing	Trial3	pointing/STIM_002.jpg
2096.562	1.516	correct	pointing	Trial3	pointing/STIM_003.jpg
2100.457	1.018	correct	pointing	Trial3	pointing/STIM_003.jpg
2105.295	0.991	correct	pointing	Trial3	pointing/STIM_003.jpg
2108.424	1.528	correct	pointing	Trial3	pointing/STIM_003.jpg
2113.511	1.705	correct	pointing	Trial3	pointing/STIM_003.jpg
2117.573	1.406	correct	pointing	Trial3	pointing/STIM_003.jpg
2122.868	1.418	correct	pointing	Trial3	pointing/STIM_004.jpg
2127.51	1.277	correct	pointing	Trial3	pointing/STIM_004.jpg
2132.1	1.226	correct	pointing	Trial3	pointing/STIM_004.jpg
2136.434	1.299	correct	pointing	Trial3	pointing/STIM_004.jpg
2141.194	1.692	correct	pointing	Trial3	pointing/STIM_004.jpg
2145.158	1.466	incorrect	pointing	Trial3	pointing/STIM_004.jpg
2149.666	1.699	correct	pointing	Trial3	pointing/STIM_005.jpg
2154.308	1.053	correct	pointing	Trial3	pointing/STIM_005.jpg
2158.05	1.451	correct	pointing	Trial3	pointing/STIM_005.jpg
2161.689	1.4	incorrect	pointing	Trial3	pointing/STIM_005.jpg
2165.161	1.799	correct	pointing	Trial3	pointing/STIM_005.jpg
2169.069	1.058	correct	pointing	Trial3	pointing/STIM_005.jpg
2172.574	1.361	correct	pointing	Trial3	pointing/STIM_006.jpg
2176.367	1.619	correct	pointing	Trial3	pointing/STIM_006.jpg
2180.316	0.995	incorrect	pointing	Trial3	pointing/STIM_006.jpg
2183.667	1.625	correct	pointing	Trial3	pointing/STIM_006.jpg
2187.87	1.501	correct	pointing	Trial3	pointing/STIM_006.jpg
2192.252	1.523	incorrect	pointing	Trial3	pointing/STIM_006.jpg
2196.763	1.055	incorrect	pointing	Trial3	pointing/STIM_007.jpg
2201.637	1.222	incorrect	pointing	Trial3	pointing/STIM_007.jpg
2205.891	1.023	correct	pointing	Trial3	pointing/STIM_007.jpg
2210.145	1.689	correct	pointing	Trial3	pointing/STIM_007.jpg
2214.804	1.301	correct	pointing	Trial3	pointing/STIM_007.jpg
2219.666	1.066	correct	pointing	Trial3	pointing/STIM_007.jpg
2224.116	1.6	correct	pointing	Trial3	pointing/STIM_008.jpg
2229.681	1.62	correct	pointing	Trial3	pointing/STIM_008.jpg
2234.687	1.161	correct	pointing	Trial3	pointing/STIM_008.jpg
2238.204	1.558	incorrect	pointing	Trial3	pointing/STIM_008.jpg
2241.774	1.316	correct	pointing	Trial3	pointing/STIM_008.jpg
2245.581	1.167	incorrect	pointing	Trial3	pointing/STIM_008.jpg
2249.334	1.138	correct	pointing	Trial3	pointing/STIM_009.jpg
2253.063	1.272	correct	pointing	Trial3	pointing/STIM_009.jpg
2257.211	1.653	correct	pointing	Trial3	pointing/STIM_009.jpg
2262.028	1.374	correct	pointing	Trial3	pointing/STIM_009.jpg
2265.848	1.198	correct	pointing	Trial3	pointing/STIM_009.jpg
2269.661	1.692	incorrect	pointing	Trial3	pointing/STIM_009.jpg
2274.167	1.25	correct	pointing	Trial3	pointing/STIM_010.jpg
2279.172	1.366	correct	pointing	Trial3	pointing/STIM_010.jpg
2283.872	1.118	correct	pointing	Trial3	pointing/STIM_010.jpg
2287.404	1.704	correct	pointing	Trial3	pointing/STIM_010.jpg
2292.385	1.657	correct	pointing	Trial3	pointing/STIM_010.jpg
2297.657	1.148	correct	pointing	Trial3	pointing/STIM_010.jpg
2302.478	1.826	correct	pointing	Trial3	pointing/STIM_011.jpg
2307.852	1.572	correct	pointing	Trial3	pointing/STIM_011.jpg
2312.413	1.234	correct	pointing	Trial3	pointing/STIM_011.jpg
2317.287	1.039	correct	pointing	Trial3	pointing/STIM_011.jpg
2321.74	1.822	correct	pointing	Trial3	pointing/STIM_011.jpg
2327.543	1.311	correct	pointing	Trial3	pointing/STIM_011.jpg
