onset	duration	accuracy	trial_type	learning_stage	stimulus
0.0	2.934	correct	generate	Run1	generate/STIM_000.jpg
6.896	2.384	incorrect	generate	Run1	generate/STIM_000.jpg
11.836	2.283	correct	generate	Run1	generate/STIM_000.jpg
17.01	1.823	incorrect	generate	Run1	generate/STIM_000.jpg
21.405	1.172	correct	generate	Run1	generate/STIM_000.jpg
26.445	2.261	correct	generate	Run1	generate/STIM_001.jpg
30.945	1.6	correct	generate	Run1	generate/STIM_001.jpg
36.519	1.456	correct	generate	Run1	generate/STIM_001.jpg
41.525	2.669	correct	generate	Run1	generate/STIM_001.jpg
47.478	2.312	correct	generate	Run1	generate/STIM_001.jpg
52.755	3.001	correct	generate	Run1	generate/STIM_002.jpg
59.041	2.746	correct	generate	Run1	generate/STIM_002.jpg
65.113	1.284	incorrect	generate	Run1	generate/STIM_002.jpg
68.736	2.13	incorrect	generate	Run1	generate/STIM_002.jpg
73.01	1.124	correct	generate	Run1	generate/STIM_002.jpg
77.203	1.41	correct	generate	Run1	generate/STIM_003.jpg
82.0	1.463	correct	generate	Run1	generate/STIM_003.jpg
86.718	2.726	correct	generate	Run1	generate/STIM_003.jpg
92.485	1.372	correct	generate	Run1	generate/STIM_003.jpg
96.258	1.444	correct	generate	Run1	generate/STIM_003.jpg
100.171	2.203	correct	generate	Run1	generate/STIM_004.jpg
105.158	3.009	correct	generate	Run1	generate/STIM_004.jpg
110.75	2.743	correct	generate	Run1	generate/STIM_004.jpg
117.341	2.681	incorrect	generate	Run1	generate/STIM_004.jpg
123.99	2.512	correct	generate	Run1	generate/STIM_004.jpg
129.569	1.569	correct	generate	Run1	generate/STIM_005.jpg
134.654	1.852	correct	generate	Run1	generate/STIM_005.jpg
140.418	2.866	correct	generate	Run1	generate/STIM_005.jpg
147.254	1.52	correct	generate	Run1	generate/STIM_005.jpg
152.685	2.113	correct	generate	Run1	generate/STIM_005.jpg
158.46	2.32	incorrect	generate	Run1	generate/STIM_006.jpg
163.286	1.67	correct	generate	Run1	generate/STIM_006.jpg
168.45	1.904	correct	generate	Run1	generate/STIM_006.jpg
173.229	1.673	correct	generate	Run1	generate/STIM_006.jpg
178.736	1.282	correct	generate	Run1	generate/STIM_006.jpg
183.561	2.807	correct	generate	Run1	generate/STIM_007.jpg
189.656	2.535	correct	generate	Run1	generate/STIM_007.jpg
194.793	2.756	correct	generate	Run1	generate/STIM_007.jpg
199.688	1.902	correct	generate	Run1	generate/STIM_007.jpg
204.169	2.164	correct	generate	Run1	generate/STIM_007.jpg
209.338	3.195	incorrect	generate	Run1	generate/STIM_008.jpg
215.33	3.008	correct	generate	Run1	generate/STIM_008.jpg
221.221	1.291	correct	generate	Run1	generate/STIM_008.jpg
225.26	2.09	correct	generate	Run1	generate/STIM_008.jpg
230.43	1.762	correct	generate	Run1	generate/STIM_008.jpg
235.501	3.295	correct	generate	Run1	generate/STIM_009.jpg
240.804	1.915	correct	generate	Run1	generate/STIM_009.jpg
245.326	2.136	correct	generate	Run1	generate/STIM_009.jpg
250.81	1.841	correct	generate	Run1	generate/STIM_009.jpg
256.294	1.327	correct	generate	Run1	generate/STIM_009.jpg
259.957	1.406	incorrect	generate	Run1	generate/STIM_010.jpg
264.531	2.686	correct	generate	Run1	generate/STIM_010.jpg
270.591	1.55	correct	generate	Run1	generate/STIM_010.jpg
276.118	1.313	correct	generate	Run1	generate/STIM_010.jpg
279.63	2.462	correct	generate	Run1	generate/STIM_010.jpg
284.349	2.812	correct	generate	Run1	generate/STIM_011.jpg
289.436	2.916	correct	generate	Run1	generate/STIM_011.jpg
296.24	2.5	correct	generate	Run1	generate/STIM_011.jpg
302.309	2.725	correct	generate	Run1	generate/STIM_011.jpg
307.283	1.564	correct	generate	Run1	generate/STIM_011.jpg
311.792	1.411	correct	generate	Run1	generate/STIM_012.jpg
315.999	2.85	correct	generate	Run1	generate/STIM_012.jpg
320.984	2.353	correct	generate	Run1	generate/STIM_012.jpg
325.918	1.493	correct	generate	Run1	generate/STIM_012.jpg
331.086	1.573	correct	generate	Run1	generate/STIM_012.jpg
334.974	1.539	correct	generate	Run1	generate/STIM_013.jpg
340.459	3.066	correct	generate	Run1	generate/STIM_013.jpg
345.638	3.024	correct	generate	Run1	generate/STIM_013.jpg
352.532	1.586	correct	generate	Run1	generate/STIM_013.jpg
356.152	1.135	correct	generate	Run1	generate/STIM_013.jpg
359.497	2.808	correct	generate	Run1	generate/STIM_014.jpg
364.81	1.757	incorrect	generate	Run1	generate/STIM_014.jpg
368.903	2.087	incorrect	generate	Run1	generate/STIM_014.jpg
373.984	2.841	correct	generate	Run1	generate/STIM_014.jpg
380.382	2.561	correct	generate	Run1	generate/STIM_014.jpg
386.475	2.553	correct	generate	Run1	generate/STIM_015.jpg
392.354	1.861	incorrect	generate	Run1	generate/STIM_015.jpg
396.819	2.34	correct	generate	Run1	generate/STIM_015.jpg
401.246	1.289	incorrect	generate	Run1	generate/STIM_015.jpg
404.859	1.43	incorrect	generate	Run1	generate/STIM_015.jpg
409.062	1.53	correct	generate	Run1	generate/STIM_016.jpg
413.179	2.905	correct	generate	Run1	generate/STIM_016.jpg
419.073	2.232	incorrect	generate	Run1	generate/STIM_016.jpg
424.818	2.678	correct	generate	Run1	generate/STIM_016.jpg
429.804	1.09	correct	generate	Run1	generate/STIM_016.jpg
434.271	1.407	correct	generate	Run1	generate/STIM_017.jpg
439.329	1.899	correct	generate	Run1	generate/STIM_017.jpg
444.492	1.527	correct	generate	Run1	generate/STIM_017.jpg
448.653	2.557	correct	generate	Run1	generate/STIM_017.jpg
454.222	1.789	correct	generate	Run1	generate/STIM_017.jpg
459.453	1.496	correct	generate	Run1	generate/STIM_018.jpg
463.712	2.725	incorrect	generate	Run1	generate/STIM_018.jpg
470.238	1.766	incorrect	generate	Run1	generate/STIM_018.jpg
474.352	2.437	correct	generate	Run1	generate/STIM_018.jpg
480.48	1.595	correct	generate	Run1	generate/STIM_018.jpg
485.92	1.622	correct	generate	Run1	generate/STIM_019.jpg
490.971	3.008	incorrect	generate	Run1	generate/STIM_019.jpg
496.072	2.554	correct	generate	Run1	generate/STIM_019.jpg
500.656	2.266	correct	generate	Run1	generate/STIM_019.jpg
505.97	1.207	correct	generate	Run1	generate/STIM_019.jpg
509.503	2.692	correct	generate	Run1	generate/STIM_020.jpg
514.315	1.502	correct	generate	Run1	generate/STIM_020.jpg
519.682	2.966	correct	generate	Run1	generate/STIM_020.jpg
525.952	2.736	correct	generate	Run1	generate/STIM_020.jpg
532.051	1.835	correct	generate	Run1	generate/STIM_020.jpg
537.754	2.535	correct	generate	Run1	generate/STIM_021.jpg
544.26	2.474	correct	generate	Run1	generate/STIM_021.jpg
550.452	2.611	correct	generate	Run1	generate/STIM_021.jpg
556.638	2.517	correct	generate	Run1	generate/STIM_021.jpg
563.063	2.064	correct	generate	Run1	generate/STIM_021.jpg
568.829	3.16	incorrect	generate	Run1	generate/STIM_022.jpg
574.126	1.901	correct	generate	Run1	generate/STIM_022.jpg
578.409	1.93	incorrect	generate	Run1	generate/STIM_022.jpg
582.742	1.656	correct	generate	Run1	generate/STIM_022.jpg
588.349	2.004	correct	generate	Run1	generate/STIM_022.jpg
593.136	1.876	correct	generate	Run1	generate/STIM_023.jpg
598.571	1.856	correct	generate	Run1	generate/STIM_023.jpg
602.955	2.216	correct	generate	Run1	generate/STIM_023.jpg
608.474	2.108	incorrect	generate	Run1	generate/STIM_023.jpg
612.634	1.576	incorrect	generate	Run1	generate/STIM_023.jpg
616.764	3.162	incorrect	generate	Run1	generate/STIM_024.jpg
622.818	1.716	correct	generate	Run1	generate/STIM_024.jpg
627.881	1.99	correct	generate	Run1	generate/STIM_024.jpg
632.505	1.491	correct	generate	Run1	generate/STIM_024.jpg
636.755	1.161	correct	generate	Run1	generate/STIM_024.jpg
641.807	0.678	correct	repeat	Run1	repeat/STIM_000.jpg
645.164	0.93	correct	repeat	Run1	repeat/STIM_000.jpg
648.951	0.828	correct	repeat	Run1	repeat/STIM_000.jpg
652.189	1.082	correct	repeat	Run1	repeat/STIM_000.jpg
656.024	0.889	incorrect	repeat	Run1	repeat/STIM_000.jpg
659.864	0.688	correct	repeat	Run1	repeat/STIM_001.jpg
664.529	1.044	correct	repeat	Run1	repeat/STIM_001.jpg
668.564	0.824	correct	repeat	Run1	repeat/STIM_001.jpg
672.737	1.059	correct	repeat	Run1	repeat/STIM_001.jpg
676.394	0.843	correct	repeat	Run1	repeat/STIM_001.jpg
679.609	1.026	correct	repeat	Run1	repeat/STIM_002.jpg
684.596	0.582	correct	repeat	Run1	repeat/STIM_002.jpg
688.792	1.085	correct	repeat	Run1	repeat/STIM_002.jpg
693.512	0.739	correct	repeat	Run1	repeat/STIM_002.jpg
697.122	1.103	correct	repeat	Run1	repeat/STIM_002.jpg
700.995	0.582	correct	repeat	Run1	repeat/STIM_003.jpg
705.299	0.661	correct	repeat	Run1	repeat/STIM_003.jpg
708.397	0.643	correct	repeat	Run1	repeat/STIM_003.jpg
711.449	0.807	correct	repeat	Run1	repeat/STIM_003.jpg
714.453	0.899	correct	repeat	Run1	repeat/STIM_003.jpg
718.826	0.813	correct	repeat	Run1	repeat/STIM_004.jpg
722.284	0.731	correct	repeat	Run1	repeat/STIM_004.jpg
726.337	0.594	correct	repeat	Run1	repeat/STIM_004.jpg
729.149	0.574	correct	repeat	Run1	repeat/STIM_004.jpg
732.343	0.731	correct	repeat	Run1	repeat/STIM_004.jpg
736.035	0.701	correct	repeat	Run1	repeat/STIM_005.jpg
740.214	0.945	correct	repeat	Run1	repeat/STIM_005.jpg
745.031	1.068	correct	repeat	Run1	repeat/STIM_005.jpg
748.162	0.892	correct	repeat	Run1	repeat/STIM_005.jpg
752.349	0.969	correct	repeat	Run1	repeat/STIM_005.jpg
756.621	0.592	correct	repeat	Run1	repeat/STIM_006.jpg
760.394	0.8	correct	repeat	Run1	repeat/STIM_006.jpg
764.183	0.916	correct	repeat	Run1	repeat/STIM_006.jpg
768.679	1.06	correct	repeat	Run1	repeat/STIM_006.jpg
772.038	0.744	correct	repeat	Run1	repeat/STIM_006.jpg
775.135	0.783	incorrect	repeat	Run1	repeat/STIM_007.jpg
778.289	0.788	correct	repeat	Run1	repeat/STIM_007.jpg
782.371	0.88	correct	repeat	Run1	repeat/STIM_007.jpg
785.998	1.029	correct	repeat	Run1	repeat/STIM_007.jpg
789.938	0.834	correct	repeat	Run1	repeat/STIM_007.jpg
794.7	0.653	correct	repeat	Run1	repeat/STIM_008.jpg
797.602	0.683	correct	repeat	Run1	repeat/STIM_008.jpg
801.441	0.949	correct	repeat	Run1	repeat/STIM_008.jpg
805.821	0.839	correct	repeat	Run1	repeat/STIM_008.jpg
810.054	0.925	correct	repeat	Run1	repeat/STIM_008.jpg
813.963	0.599	correct	repeat	Run1	repeat/STIM_009.jpg
818.003	0.594	correct	repeat	Run1	repeat/STIM_009.jpg
820.921	0.567	correct	repeat	Run1	repeat/STIM_009.jpg
824.149	0.882	correct	repeat	Run1	repeat/STIM_009.jpg
828.37	0.679	correct	repeat	Run1	repeat/STIM_009.jpg
832.086	0.842	correct	repeat	Run1	repeat/STIM_010.jpg
835.251	1.062	correct	repeat	Run1	repeat/STIM_010.jpg
839.167	0.875	incorrect	repeat	Run1	repeat/STIM_010.jpg
842.424	0.599	correct	repeat	Run1	repeat/STIM_010.jpg
846.435	0.967	correct	repeat	Run1	repeat/STIM_010.jpg
851.021	0.64	correct	repeat	Run1	repeat/STIM_011.jpg
853.936	1.097	correct	repeat	Run1	repeat/STIM_011.jpg
858.363	0.639	correct	repeat	Run1	repeat/STIM_011.jpg
861.828	0.82	correct	repeat	Run1	repeat/STIM_011.jpg
865.639	0.586	correct	repeat	Run1	repeat/STIM_011.jpg
870.113	0.906	correct	repeat	Run1	repeat/STIM_012.jpg
873.382	0.776	correct	repeat	Run1	repeat/STIM_012.jpg
876.95	1.024	correct	repeat	Run1	repeat/STIM_012.jpg
880.448	0.662	correct	repeat	Run1	repeat/STIM_012.jpg
884.42	0.984	correct	repeat	Run1	repeat/STIM_012.jpg
887.886	0.875	correct	repeat	Run1	repeat/STIM_013.jpg
891.36	0.862	correct	repeat	Run1	repeat/STIM_013.jpg
895.249	1.082	correct	repeat	Run1	repeat/STIM_013.jpg
900.127	1.101	correct	repeat	Run1	repeat/STIM_013.jpg
903.57	0.695	correct	repeat	Run1	repeat/STIM_013.jpg
908.048	0.573	correct	repeat	Run1	repeat/STIM_014.jpg
911.776	0.762	correct	repeat	Run1	repeat/STIM_014.jpg
915.57	0.665	correct	repeat	Run1	repeat/STIM_014.jpg
919.162	0.89	correct	repeat	Run1	repeat/STIM_014.jpg
922.663	0.763	correct	repeat	Run1	repeat/STIM_014.jpg
925.479	1.838	correct	generate	Run2	generate/STIM_000.jpg
929.785	1.705	correct	generate	Run2	generate/STIM_000.jpg
935.383	1.889	correct	generate	Run2	generate/STIM_000.jpg
939.764	1.494	correct	generate	Run2	generate/STIM_000.jpg
944.436	2.064	incorrect	generate	Run2	generate/STIM_000.jpg
949.15	2.666	correct	generate	Run2	generate/STIM_001.jpg
954.999	1.934	correct	generate	Run2	generate/STIM_001.jpg
959.841	1.448	correct	generate	Run2	generate/STIM_001.jpg
963.869	1.106	correct	generate	Run2	generate/STIM_001.jpg
967.797	1.65	correct	generate	Run2	generate/STIM_001.jpg
972.745	1.92	incorrect	generate	Run2	generate/STIM_002.jpg
978.398	1.742	correct	generate	Run2	generate/STIM_002.jpg
984.137	1.576	correct	generate	Run2	generate/STIM_002.jpg
989.031	1.887	correct	generate	Run2	generate/STIM_002.jpg
994.685	1.083	incorrect	generate	Run2	generate/STIM_002.jpg
998.473	1.207	correct	generate	Run2	generate/STIM_003.jpg
1003.361	1.238	correct	generate	Run2	generate/STIM_003.jpg
1007.774	2.129	incorrect	generate	Run2	generate/STIM_003.jpg
1012.516	1.696	incorrect	generate	Run2	generate/STIM_003.jpg
1017.815	1.928	correct	generate	Run2	generate/STIM_003.jpg
1022.248	2.84	correct	generate	Run2	generate/STIM_004.jpg
1028.887	1.351	incorrect	generate	Run2	generate/STIM_004.jpg
1032.673	2.009	correct	generate	Run2	generate/STIM_004.jpg
1036.973	1.54	correct	generate	Run2	generate/STIM_004.jpg
1041.45	2.324	correct	generate	Run2	generate/STIM_004.jpg
1047.366	2.084	correct	generate	Run2	generate/STIM_005.jpg
1051.993	2.209	correct	generate	Run2	generate/STIM_005.jpg
1057.1	1.734	correct	generate	Run2	generate/STIM_005.jpg
1062.21	1.04	correct	generate	Run2	generate/STIM_005.jpg
1067.015	1.613	correct	generate	Run2	generate/STIM_005.jpg
1072.146	2.368	correct	generate	Run2	generate/STIM_006.jpg
1077.875	2.414	correct	generate	Run2	generate/STIM_006.jpg
1083.334	2.074	correct	generate	Run2	generate/STIM_006.jpg
1088.596	2.153	correct	generate	Run2	generate/STIM_006.jpg
1093.458	2.106	correct	generate	Run2	generate/STIM_006.jpg
1098.406	2.462	correct	generate	Run2	generate/STIM_007.jpg
1103.517	1.249	correct	generate	Run2	generate/STIM_007.jpg
1108.021	2.281	correct	generate	Run2	generate/STIM_007.jpg
1112.604	1.49	correct	generate	Run2	generate/STIM_007.jpg
1116.825	2.329	correct	generate	Run2	generate/STIM_007.jpg
1121.43	2.151	correct	generate	Run2	generate/STIM_008.jpg
1126.915	2.036	correct	generate	Run2	generate/STIM_008.jpg
1132.161	1.204	correct	generate	Run2	generate/STIM_008.jpg
1135.543	1.656	correct	generate	Run2	generate/STIM_008.jpg
1140.46	1.012	correct	generate	Run2	generate/STIM_008.jpg
1144.267	2.278	correct	generate	Run2	generate/STIM_009.jpg
1150.071	2.653	correct	generate	Run2	generate/STIM_009.jpg
1155.542	2.306	correct	generate	Run2	generate/STIM_009.jpg
1161.342	1.897	correct	generate	Run2	generate/STIM_009.jpg
1166.938	2.13	correct	generate	Run2	generate/STIM_009.jpg
1171.745	1.976	correct	generate	Run2	generate/STIM_010.jpg
1175.933	1.495	correct	generate	Run2	generate/STIM_010.jpg
1179.713	1.342	correct	generate	Run2	generate/STIM_010.jpg
1184.059	0.969	correct	generate	Run2	generate/STIM_010.jpg
1187.275	1.533	correct	generate	Run2	generate/STIM_010.jpg
1192.406	2.108	correct	generate	Run2	generate/STIM_011.jpg
1196.659	1.245	correct	generate	Run2	generate/STIM_011.jpg
1201.065	1.558	correct	generate	Run2	generate/STIM_011.jpg
1206.056	1.424	incorrect	generate	Run2	generate/STIM_011.jpg
1210.546	2.074	correct	generate	Run2	generate/STIM_011.jpg
1215.889	1.791	correct	generate	Run2	generate/STIM_012.jpg
1219.69	1.448	correct	generate	Run2	generate/STIM_012.jpg
1224.074	1.456	correct	generate	Run2	generate/STIM_012.jpg
1228.326	1.66	correct	generate	Run2	generate/STIM_012.jpg
1232.038	2.13	correct	generate	Run2	generate/STIM_012.jpg
1236.315	2.36	correct	generate	Run2	generate/STIM_013.jpg
1242.371	2.317	correct	generate	Run2	generate/STIM_013.jpg
1248.491	1.672	correct	generate	Run2	generate/STIM_013.jpg
1254.035	2.321	correct	generate	Run2	generate/STIM_013.jpg
1260.148	1.241	correct	generate	Run2	generate/STIM_013.jpg
1263.995	2.316	correct	generate	Run2	generate/STIM_014.jpg
1268.654	2.328	correct	generate	Run2	generate/STIM_014.jpg
1273.579	1.744	correct	generate	Run2	generate/STIM_014.jpg
1278.541	1.925	correct	generate	Run2	generate/STIM_014.jpg
1283.357	2.137	incorrect	generate	Run2	generate/STIM_014.jpg
1289.367	1.698	correct	generate	Run2	generate/STIM_015.jpg
1294.147	1.269	correct	generate	Run2	generate/STIM_015.jpg
1297.707	1.765	correct	generate	Run2	generate/STIM_015.jpg
1302.613	1.822	incorrect	generate	Run2	generate/STIM_015.jpg
1307.622	1.915	correct	generate	Run2	generate/STIM_015.jpg
1312.079	2.889	correct	generate	Run2	generate/STIM_016.jpg
1317.695	1.38	correct	generate	Run2	generate/STIM_016.jpg
1322.937	1.404	incorrect	generate	Run2	generate/STIM_016.jpg
1326.573	1.471	correct	generate	Run2	generate/STIM_016.jpg
1330.69	1.837	correct	generate	Run2	generate/STIM_016.jpg
1334.71	1.463	incorrect	generate	Run2	generate/STIM_017.jpg
1339.44	1.281	correct	generate	Run2	generate/STIM_017.jpg
1343.437	1.499	correct	generate	Run2	generate/STIM_017.jpg
1347.105	1.784	incorrect	generate	Run2	generate/STIM_017.jpg
1352.244	1.21	correct	generate	Run2	generate/STIM_017.jpg
1356.096	2.836	incorrect	generate	Run2	generate/STIM_018.jpg
1362.583	1.24	correct	generate	Run2	generate/STIM_018.jpg
1367.408	2.487	correct	generate	Run2	generate/STIM_018.jpg
1373.742	1.294	correct	generate	Run2	generate/STIM_018.jpg
1378.393	2.248	correct	generate	Run2	generate/STIM_018.jpg
1382.886	1.382	correct	generate	Run2	generate/STIM_019.jpg
1386.394	1.824	correct	generate	Run2	generate/STIM_019.jpg
1390.5	2.286	correct	generate	Run2	generate/STIM_019.jpg
1396.158	1.41	correct	generate	Run2	generate/STIM_019.jpg
1399.853	2.159	correct	generate	Run2	generate/STIM_019.jpg
1404.914	1.508	correct	generate	Run2	generate/STIM_020.jpg
1409.537	2.519	correct	generate	Run2	generate/STIM_020.jpg
1414.346	1.139	correct	generate	Run2	generate/STIM_020.jpg
1419.142	1.699	correct	generate	Run2	generate/STIM_020.jpg
1424.798	1.247	correct	generate	Run2	generate/STIM_020.jpg
1429.372	2.081	correct	generate	Run2	generate/STIM_021.jpg
1435.411	1.224	correct	generate	Run2	generate/STIM_021.jpg
1439.254	2.006	incorrect	generate	Run2	generate/STIM_021.jpg
1444.549	2.361	correct	generate	Run2	generate/STIM_021.jpg
1449.39	1.338	correct	generate	Run2	generate/STIM_021.jpg
1454.263	2.026	correct	generate	Run2	generate/STIM_022.jpg
1458.955	2.234	correct	generate	Run2	generate/STIM_022.jpg
1463.372	2.34	correct	generate	Run2	generate/STIM_022.jpg
1468.487	1.971	correct	generate	Run2	generate/STIM_022.jpg
1473.857	2.01	correct	generate	Run2	generate/STIM_022.jpg
1479.282	2.119	correct	generate	Run2	generate/STIM_023.jpg
1485.01	1.96	correct	generate	Run2	generate/STIM_023.jpg
1490.688	1.432	correct	generate	Run2	generate/STIM_023.jpg
1495.217	1.847	correct	generate	Run2	generate/STIM_023.jpg
1499.905	1.328	correct	generate	Run2	generate/STIM_023.jpg
1505.098	1.916	correct	generate	Run2	generate/STIM_024.jpg
1509.774	1.876	incorrect	generate	Run2	generate/STIM_024.jpg
1514.057	1.909	correct	generate	Run2	generate/STIM_024.jpg
1519.08	1.096	correct	generate	Run2	generate/STIM_024.jpg
1523.633	1.279	correct	generate	Run2	generate/STIM_024.jpg
1528.682	1.117	correct	repeat	Run2	repeat/STIM_000.jpg
1533.336	0.601	correct	repeat	Run2	repeat/STIM_000.jpg
1537.102	0.644	correct	repeat	Run2	repeat/STIM_000.jpg
1540.439	0.749	correct	repeat	Run2	repeat/STIM_000.jpg
1544.039	0.874	correct	repeat	Run2	repeat/STIM_000.jpg
1547.418	0.686	correct	repeat	Run2	repeat/STIM_001.jpg
1551.678	0.921	correct	repeat	Run2	repeat/STIM_001.jpg
1556.388	0.954	correct	repeat	Run2	repeat/STIM_001.jpg
1560.342	1.019	correct	repeat	Run2	repeat/STIM_001.jpg
1564.081	0.743	correct	repeat	Run2	repeat/STIM_001.jpg
1567.199	0.675	correct	repeat	Run2	repeat/STIM_002.jpg
1571.721	0.907	correct	repeat	Run2	repeat/STIM_002.jpg
1575.668	0.971	correct	repeat	Run2	repeat/STIM_002.jpg
1579.426	0.598	correct	repeat	Run2	repeat/STIM_002.jpg
1583.135	0.623	correct	repeat	Run2	repeat/STIM_002.jpg
1587.66	0.885	correct	repeat	Run2	repeat/STIM_003.jpg
1591.314	0.965	correct	repeat	Run2	repeat/STIM_003.jpg
1594.574	1.108	correct	repeat	Run2	repeat/STIM_003.jpg
1597.851	0.625	correct	repeat	Run2	repeat/STIM_003.jpg
1601.222	1.012	correct	repeat	Run2	repeat/STIM_003.jpg
1606.124	0.637	correct	repeat	Run2	repeat/STIM_004.jpg
1608.775	0.975	correct	repeat	Run2	repeat/STIM_004.jpg
1612.809	0.902	correct	repeat	Run2	repeat/STIM_004.jpg
1615.994	0.702	correct	repeat	Run2	repeat/STIM_004.jpg
1619.707	0.83	correct	repeat	Run2	repeat/STIM_004.jpg
1623.962	1.011	correct	repeat	Run2	repeat/STIM_005.jpg
1627.296	0.918	incorrect	repeat	Run2	repeat/STIM_005.jpg
1630.795	0.587	correct	repeat	Run2	repeat/STIM_005.jpg
1634.639	0.87	correct	repeat	Run2	repeat/STIM_005.jpg
1638.132	0.736	correct	repeat	Run2	repeat/STIM_005.jpg
1641.015	0.898	correct	repeat	Run2	repeat/STIM_006.jpg
1644.385	0.992	correct	repeat	Run2	repeat/STIM_006.jpg
1648.246	0.678	correct	repeat	Run2	repeat/STIM_006.jpg
1651.447	0.751	correct	repeat	Run2	repeat/STIM_006.jpg
1654.778	0.878	correct	repeat	Run2	repeat/STIM_006.jpg
1657.957	0.941	correct	repeat	Run2	repeat/STIM_007.jpg
1661.087	0.833	correct	repeat	Run2	repeat/STIM_007.jpg
1664.324	0.672	correct	repeat	Run2	repeat/STIM_007.jpg
1668.282	0.937	correct	repeat	Run2	repeat/STIM_007.jpg
1672.531	0.597	correct	repeat	Run2	repeat/STIM_007.jpg
1675.666	0.593	correct	repeat	Run2	repeat/STIM_008.jpg
1679.124	0.993	correct	repeat	Run2	repeat/STIM_008.jpg
1683.492	0.596	incorrect	repeat	Run2	repeat/STIM_008.jpg
1687.45	0.71	incorrect	repeat	Run2	repeat/STIM_008.jpg
1691.742	0.653	incorrect	repeat	Run2	repeat/STIM_008.jpg
1695.802	1.0	correct	repeat	Run2	repeat/STIM_009.jpg
1700.583	0.811	correct	repeat	Run2	repeat/STIM_009.jpg
1704.983	0.642	correct	repeat	Run2	repeat/STIM_009.jpg
1707.911	0.591	correct	repeat	Run2	repeat/STIM_009.jpg
1711.229	1.036	correct	repeat	Run2	repeat/STIM_009.jpg
1714.646	0.684	correct	repeat	Run2	repeat/STIM_010.jpg
1717.383	0.833	correct	repeat	Run2	repeat/STIM_010.jpg
1720.266	0.708	correct	repeat	Run2	repeat/STIM_010.jpg
1724.005	0.621	correct	repeat	Run2	repeat/STIM_010.jpg
1728.404	0.572	correct	repeat	Run2	repeat/STIM_010.jpg
1731.772	0.62	correct	repeat	Run2	repeat/STIM_011.jpg
1734.677	0.594	correct	repeat	Run2	repeat/STIM_011.jpg
1738.806	0.976	correct	repeat	Run2	repeat/STIM_011.jpg
1742.695	0.897	correct	repeat	Run2	repeat/STIM_011.jpg
1745.669	1.076	correct	repeat	Run2	repeat/STIM_011.jpg
1749.061	0.885	correct	repeat	Run2	repeat/STIM_012.jpg
1753.801	0.75	correct	repeat	Run2	repeat/STIM_012.jpg
1757.63	0.987	correct	repeat	Run2	repeat/STIM_012.jpg
1761.468	0.851	correct	repeat	Run2	repeat/STIM_012.jpg
1764.96	0.956	correct	repeat	Run2	repeat/STIM_012.jpg
1769.123	1.026	correct	repeat	Run2	repeat/STIM_013.jpg
1773.254	1.04	correct	repeat	Run2	repeat/STIM_013.jpg
1778.132	0.646	correct	repeat	Run2	repeat/STIM_013.jpg
1782.231	0.584	correct	repeat	Run2	repeat/STIM_013.jpg
1786.502	0.572	incorrect	repeat	Run2	repeat/STIM_013.jpg
1790.228	0.962	correct	repeat	Run2	repeat/STIM_014.jpg
1793.771	1.128	correct	repeat	Run2	repeat/STIM_014.jpg
1797.385	0.691	correct	repeat	Run2	repeat/STIM_014.jpg
1801.494	0.578	correct	repeat	Run2	repeat/STIM_014.jpg
1806.032	0.863	correct	repeat	Run2	repeat/STIM_014.jpg
1808.944	2.026	correct	generate	Run3	generate/STIM_000.jpg
1813.761	1.968	correct	generate	Run3	generate/STIM_000.jpg
1819.006	1.238	correct	generate	Run3	generate/STIM_000.jpg
1822.92	2.259	correct	generate	Run3	generate/STIM_000.jpg
1828.335	2.165	correct	generate	Run3	generate/STIM_000.jpg
1833.36	1.482	correct	generate	Run3	generate/STIM_001.jpg
1838.698	2.298	correct	generate	Run3	generate/STIM_001.jpg
1843.01	1.29	correct	generate	Run3	generate/STIM_001.jpg
1846.783	2.249	correct	generate	Run3	generate/STIM_001.jpg
1851.633	2.123	correct	generate	Run3	generate/STIM_001.jpg
1856.777	1.29	correct	generate	Run3	generate/STIM_002.jpg
1861.18	2.36	correct	generate	Run3	generate/STIM_002.jpg
1867.289	2.31	correct	generate	Run3	generate/STIM_002.jpg
1872.736	1.834	correct	generate	Run3	generate/STIM_002.jpg
1877.644	1.519	correct	generate	Run3	generate/STIM_002.jpg
1881.6	1.965	correct	generate	Run3	generate/STIM_003.jpg
1885.813	1.84	correct	generate	Run3	generate/STIM_003.jpg
1890.396	1.714	correct	generate	Run3	generate/STIM_003.jpg
1894.889	1.095	correct	generate	Run3	generate/STIM_003.jpg
1899.88	1.463	correct	generate	Run3	generate/STIM_003.jpg
1904.356	1.702	incorrect	generate	Run3	generate/STIM_004.jpg
1908.436	1.354	correct	generate	Run3	generate/STIM_004.jpg
1913.108	1.688	correct	generate	Run3	generate/STIM_004.jpg
1917.297	1.062	correct	generate	Run3	generate/STIM_004.jpg
1921.72	2.24	correct	generate	Run3	generate/STIM_004.jpg
1927.108	1.558	correct	generate	Run3	generate/STIM_005.jpg
1931.017	2.043	incorrect	generate	Run3	generate/STIM_005.jpg
1936.557	1.799	correct	generate	Run3	generate/STIM_005.jpg
1940.449	2.027	correct	generate	Run3	generate/STIM_005.jpg
1944.581	1.526	correct	generate	Run3	generate/STIM_005.jpg
1949.309	1.544	correct	generate	Run3	generate/STIM_006.jpg
1953.609	2.242	correct	generate	Run3	generate/STIM_006.jpg
1959.058	1.398	correct	generate	Run3	generate/STIM_006.jpg
1963.873	2.081	correct	generate	Run3	generate/STIM_006.jpg
1968.733	1.555	correct	generate	Run3	generate/STIM_006.jpg
1972.476	2.051	correct	generate	Run3	generate/STIM_007.jpg
1976.751	2.254	correct	generate	Run3	generate/STIM_007.jpg
1982.985	1.948	correct	generate	Run3	generate/STIM_007.jpg
1988.765	1.61	correct	generate	Run3	generate/STIM_007.jpg
1993.662	1.25	correct	generate	Run3	generate/STIM_007.jpg
1997.923	1.825	correct	generate	Run3	generate/STIM_008.jpg
2002.63	1.832	correct	generate	Run3	generate/STIM_008.jpg
2008.167	1.8	correct	generate	Run3	generate/STIM_008.jpg
2012.788	2.177	correct	generate	Run3	generate/STIM_008.jpg
2018.103	1.123	correct	generate	Run3	generate/STIM_008.jpg
2022.115	1.756	correct	generate	Run3	generate/STIM_009.jpg
2027.378	2.071	correct	generate	Run3	generate/STIM_009.jpg
2032.733	1.227	correct	generate	Run3	generate/STIM_009.jpg
2036.105	1.676	correct	generate	Run3	generate/STIM_009.jpg
2040.953	1.252	correct	generate	Run3	generate/STIM_009.jpg
2044.637	1.931	correct	generate	Run3	generate/STIM_010.jpg
2048.847	1.965	incorrect	generate	Run3	generate/STIM_010.jpg
2053.336	1.171	correct	generate	Run3	generate/STIM_010.jpg
2058.041	1.495	correct	generate	Run3	generate/STIM_010.jpg
2062.618	1.753	correct	generate	Run3	generate/STIM_010.jpg
2066.782	1.55	correct	generate	Run3	generate/STIM_011.jpg
2070.734	1.256	correct	generate	Run3	generate/STIM_011.jpg
2075.67	2.342	correct	generate	Run3	generate/STIM_011.jpg
2081.189	2.183	correct	generate	Run3	generate/STIM_011.jpg
2086.569	1.539	correct	generate	Run3	generate/STIM_011.jpg
2091.609	1.802	correct	generate	Run3	generate/STIM_012.jpg
2095.59	1.275	correct	generate	Run3	generate/STIM_012.jpg
2100.849	2.267	correct	generate	Run3	generate/STIM_012.jpg
2107.07	1.238	correct	generate	Run3	generate/STIM_012.jpg
2111.801	1.495	correct	generate	Run3	generate/STIM_012.jpg
2115.476	1.513	correct	generate	Run3	generate/STIM_013.jpg
2119.662	1.174	correct	generate	Run3	generate/STIM_013.jpg
2123.018	1.25	correct	generate	Run3	generate/STIM_013.jpg
2127.623	1.423	correct	generate	Run3	generate/STIM_013.jpg
2132.549	1.326	correct	generate	Run3	generate/STIM_013.jpg
2137.368	1.037	correct	generate	Run3	generate/STIM_014.jpg
2142.105	1.715	correct	generate	Run3	generate/STIM_014.jpg
2146.549	2.328	incorrect	generate	Run3	generate/STIM_014.jpg
2152.181	2.256	correct	generate	Run3	generate/STIM_014.jpg
2158.288	2.247	correct	generate	Run3	generate/STIM_014.jpg
2163.797	1.016	incorrect	generate	Run3	generate/STIM_015.jpg
2168.121	1.548	correct	generate	Run3	generate/STIM_015.jpg
2172.122	1.65	correct	generate	Run3	generate/STIM_015.jpg
2176.939	1.45	correct	generate	Run3	generate/STIM_015.jpg
2180.444	1.538	correct	generate	Run3	generate/STIM_015.jpg
2184.517	2.214	incorrect	generate	Run3	generate/STIM_016.jpg
2189.327	1.608	correct	generate	Run3	generate/STIM_016.jpg
2193.847	1.976	correct	generate	Run3	generate/STIM_016.jpg
2199.296	1.253	incorrect	generate	Run3	generate/STIM_016.jpg
2202.729	1.712	correct	generate	Run3	generate/STIM_016.jpg
2206.651	1.869	correct	generate	Run3	generate/STIM_017.jpg
2211.508	1.583	correct	generate	Run3	generate/STIM_017.jpg
2215.423	1.62	correct	generate	Run3	generate/STIM_017.jpg
2220.645	1.009	correct	generate	Run3	generate/STIM_017.jpg
2224.0	1.07	correct	generate	Run3	generate/STIM_017.jpg
2227.166	2.376	correct	generate	Run3	generate/STIM_018.jpg
2232.512	1.188	correct	generate	Run3	generate/STIM_018.jpg
2236.264	2.272	correct	generate	Run3	generate/STIM_018.jpg
2241.877	1.307	correct	generate	Run3	generate/STIM_018.jpg
2245.323	2.267	correct	generate	Run3	generate/STIM_018.jpg
2249.591	1.807	correct	generate	Run3	generate/STIM_019.jpg
2255.053	1.647	correct	generate	Run3	generate/STIM_019.jpg
2258.707	2.076	correct	generate	Run3	generate/STIM_019.jpg
2262.913	1.678	correct	generate	Run3	generate/STIM_019.jpg
2267.081	1.229	correct	generate	Run3	generate/STIM_019.jpg
2270.75	1.824	correct	generate	Run3	generate/STIM_020.jpg
2275.631	1.38	correct	generate	Run3	generate/STIM_020.jpg
2279.725	1.884	correct	generate	Run3	generate/STIM_020.jpg
2285.267	1.192	correct	generate	Run3	generate/STIM_020.jpg
2289.949	1.221	correct	generate	Run3	generate/STIM_020.jpg
2293.994	1.224	correct	generate	Run3	generate/STIM_021.jpg
2297.297	1.486	correct	generate	Run3	generate/STIM_021.jpg
2301.883	2.119	correct	generate	Run3	generate/STIM_021.jpg
2306.317	1.949	correct	generate	Run3	generate/STIM_021.jpg
2311.797	1.889	correct	generate	Run3	generate/STIM_021.jpg
2317.202	1.359	correct	generate	Run3	generate/STIM_022.jpg
2321.281	1.869	correct	generate	Run3	generate/STIM_022.jpg
2325.315	1.554	correct	generate	Run3	generate/STIM_022.jpg
2330.584	1.853	correct	generate	Run3	generate/STIM_022.jpg
2335.028	2.322	correct	generate	Run3	generate/STIM_022.jpg
2341.328	1.7	correct	generate	Run3	generate/STIM_023.jpg
2345.174	1.628	correct	generate	Run3	generate/STIM_023.jpg
2349.902	2.299	correct	generate	Run3	generate/STIM_023.jpg
2355.361	1.009	correct	generate	Run3	generate/STIM_023.jpg
2359.514	2.231	correct	generate	Run3	generate/STIM_023.jpg
2364.516	1.51	correct	generate	Run3	generate/STIM_024.jpg
2369.392	1.065	correct	generate	Run3	generate/STIM_024.jpg
2373.004	1.732	correct	generate	Run3	generate/STIM_024.jpg
2377.36	1.423	incorrect	generate	Run3	generate/STIM_024.jpg
2381.966	1.356	correct	generate	Run3	generate/STIM_024.jpg
2386.421	0.6	correct	repeat	Run3	repeat/STIM_000.jpg
2390.902	0.977	correct	repeat	Run3	repeat/STIM_000.jpg
2395.47	0.652	correct	repeat	Run3	repeat/STIM_000.jpg
2399.987	0.935	correct	repeat	Run3	repeat/STIM_000.jpg
2403.467	1.018	correct	repeat	Run3	repeat/STIM_000.jpg
2406.622	1.107	correct	repeat	Run3	repeat/STIM_001.jpg
2409.91	0.763	correct	repeat	Run3	repeat/STIM_001.jpg
2413.938	1.07	correct	repeat	Run3	repeat/STIM_001.jpg
2418.701	1.126	correct	repeat	Run3	repeat/STIM_001.jpg
2423.369	0.878	correct	repeat	Run3	repeat/STIM_001.jpg
2426.703	0.932	correct	repeat	Run3	repeat/STIM_002.jpg
2430.656	1.123	incorrect	repeat	Run3	repeat/STIM_002.jpg
2434.065	1.003	correct	repeat	Run3	repeat/STIM_002.jpg
2437.691	1.074	correct	repeat	Run3	repeat/STIM_002.jpg
2442.593	0.948	correct	repeat	Run3	repeat/STIM_002.jpg
2445.854	0.753	correct	repeat	Run3	repeat/STIM_003.jpg
2449.257	0.98	correct	repeat	Run3	repeat/STIM_003.jpg
2452.92	0.855	correct	repeat	Run3	repeat/STIM_003.jpg
2456.453	0.707	correct	repeat	Run3	repeat/STIM_003.jpg
2460.459	0.675	correct	repeat	Run3	repeat/STIM_003.jpg
2464.535	0.851	correct	repeat	Run3	repeat/STIM_004.jpg
2468.395	0.849	correct	repeat	Run3	repeat/STIM_004.jpg
2472.11	0.625	correct	repeat	Run3	repeat/STIM_004.jpg
2475.887	0.718	correct	repeat	Run3	repeat/STIM_004.jpg
2479.629	0.746	correct	repeat	Run3	repeat/STIM_004.jpg
2483.917	0.999	correct	repeat	Run3	repeat/STIM_005.jpg
2488.485	0.769	correct	repeat	Run3	repeat/STIM_005.jpg
2492.25	0.568	correct	repeat	Run3	repeat/STIM_005.jpg
2495.798	0.887	correct	repeat	Run3	repeat/STIM_005.jpg
2499.643	0.777	correct	repeat	Run3	repeat/STIM_005.jpg
2504.167	0.819	correct	repeat	Run3	repeat/STIM_006.jpg
2507.884	1.091	correct	repeat	Run3	repeat/STIM_006.jpg
2512.346	0.972	correct	repeat	Run3	repeat/STIM_006.jpg
2516.255	0.667	correct	repeat	Run3	repeat/STIM_006.jpg
2519.563	1.129	correct	repeat	Run3	repeat/STIM_006.jpg
2522.716	0.795	correct	repeat	Run3	repeat/STIM_007.jpg
2526.506	1.113	correct	repeat	Run3	repeat/STIM_007.jpg
2531.098	0.926	correct	repeat	Run3	repeat/STIM_007.jpg
2534.278	1.083	correct	repeat	Run3	repeat/STIM_007.jpg
2538.855	0.581	correct	repeat	Run3	repeat/STIM_007.jpg
2542.388	0.893	correct	repeat	Run3	repeat/STIM_008.jpg
2545.639	0.652	correct	repeat	Run3	repeat/STIM_008.jpg
2550.082	0.861	correct	repeat	Run3	repeat/STIM_008.jpg
2553.885	0.727	correct	repeat	Run3	repeat/STIM_008.jpg
2557.117	0.917	correct	repeat	Run3	repeat/STIM_008.jpg
2560.583	0.733	correct	repeat	Run3	repeat/STIM_009.jpg
2564.112	0.647	correct	repeat	Run3	repeat/STIM_009.jpg
2568.259	1.127	correct	repeat	Run3	repeat/STIM_009.jpg
2572.37	0.705	correct	repeat	Run3	repeat/STIM_009.jpg
2575.3	0.714	correct	repeat	Run3	repeat/STIM_009.jpg
2578.467	0.939	correct	repeat	Run3	repeat/STIM_010.jpg
2583.052	1.131	correct	repeat	Run3	repeat/STIM_010.jpg
2587.493	0.816	correct	repeat	Run3	repeat/STIM_010.jpg
2591.894	0.866	correct	repeat	Run3	repeat/STIM_010.jpg
2595.715	1.011	correct	repeat	Run3	repeat/STIM_010.jpg
2599.947	1.075	correct	repeat	Run3	repeat/STIM_011.jpg
2604.904	0.914	correct	repeat	Run3	repeat/STIM_011.jpg
2608.311	0.865	correct	repeat	Run3	repeat/STIM_011.jpg
2613.013	1.038	correct	repeat	Run3	repeat/STIM_011.jpg
2617.307	1.018	correct	repeat	Run3	repeat/STIM_011.jpg
2621.27	0.86	correct	repeat	Run3	repeat/STIM_012.jpg
2624.71	0.665	correct	repeat	Run3	repeat/STIM_012.jpg
2628.975	0.945	correct	repeat	Run3	repeat/STIM_012.jpg
2633.371	0.96	correct	repeat	Run3	repeat/STIM_012.jpg
2638.112	0.736	correct	repeat	Run3	repeat/STIM_012.jpg
2641.553	0.928	correct	repeat	Run3	repeat/STIM_013.jpg
2646.45	1.088	correct	repeat	Run3	repeat/STIM_013.jpg
2649.59	0.618	correct	repeat	Run3	repeat/STIM_013.jpg
2653.723	0.848	correct	repeat	Run3	repeat/STIM_013.jpg
2658.311	0.998	correct	repeat	Run3	repeat/STIM_013.jpg
2661.906	0.936	correct	repeat	Run3	repeat/STIM_014.jpg
2664.92	0.586	correct	repeat	Run3	repeat/STIM_014.jpg
2668.693	0.913	correct	repeat	Run3	repeat/STIM_014.jpg
2673.529	0.886	correct	repeat	Run3	repeat/STIM_014.jpg
2677.163	0.911	correct	repeat	Run3	repeat/STIM_014.jpg
2681.656	2.102	correct	generate	Run4	generate/STIM_000.jpg
2685.988	1.826	correct	generate	Run4	generate/STIM_000.jpg
2691.721	1.044	incorrect	generate	Run4	generate/STIM_000.jpg
2696.657	1.987	correct	generate	Run4	generate/STIM_000.jpg
2701.391	2.279	correct	generate	Run4	generate/STIM_000.jpg
2705.9	1.552	correct	generate	Run4	generate/STIM_001.jpg
2711.398	2.06	correct	generate	Run4	generate/STIM_001.jpg
2716.006	1.608	correct	generate	Run4	generate/STIM_001.jpg
2720.235	0.988	correct	generate	Run4	generate/STIM_001.jpg
2724.771	2.275	correct	generate	Run4	generate/STIM_001.jpg
2729.552	1.111	correct	generate	Run4	generate/STIM_002.jpg
2733.517	2.252	correct	generate	Run4	generate/STIM_002.jpg
2739.547	1.931	correct	generate	Run4	generate/STIM_002.jpg
2743.91	1.706	correct	generate	Run4	generate/STIM_002.jpg
2749.108	2.222	correct	generate	Run4	generate/STIM_002.jpg
2754.618	1.989	correct	generate	Run4	generate/STIM_003.jpg
2759.477	1.06	correct	generate	Run4	generate/STIM_003.jpg
2763.765	1.068	correct	generate	Run4	generate/STIM_003.jpg
2768.645	1.319	correct	generate	Run4	generate/STIM_003.jpg
2773.337	2.34	correct	generate	Run4	generate/STIM_003.jpg
2779.064	2.162	correct	generate	Run4	generate/STIM_004.jpg
2784.353	1.559	correct	generate	Run4	generate/STIM_004.jpg
2789.037	1.976	correct	generate	Run4	generate/STIM_004.jpg
2793.209	2.266	correct	generate	Run4	generate/STIM_004.jpg
2799.183	2.084	correct	generate	Run4	generate/STIM_004.jpg
2804.099	1.118	correct	generate	Run4	generate/STIM_005.jpg
2807.641	2.195	correct	generate	Run4	generate/STIM_005.jpg
2812.987	2.142	correct	generate	Run4	generate/STIM_005.jpg
2817.174	1.91	correct	generate	Run4	generate/STIM_005.jpg
2821.656	1.682	incorrect	generate	Run4	generate/STIM_005.jpg
2826.5	1.342	correct	generate	Run4	generate/STIM_006.jpg
2830.407	2.379	correct	generate	Run4	generate/STIM_006.jpg
2834.806	1.541	correct	generate	Run4	generate/STIM_006.jpg
2839.661	1.642	correct	generate	Run4	generate/STIM_006.jpg
2843.647	1.932	correct	generate	Run4	generate/STIM_006.jpg
2848.321	2.0	correct	generate	Run4	generate/STIM_007.jpg
2853.089	2.236	correct	generate	Run4	generate/STIM_007.jpg
2858.506	1.07	correct	generate	Run4	generate/STIM_007.jpg
2862.359	1.438	incorrect	generate	Run4	generate/STIM_007.jpg
2866.948	0.972	correct	generate	Run4	generate/STIM_007.jpg
2870.978	1.174	correct	generate	Run4	generate/STIM_008.jpg
2876.0	1.428	correct	generate	Run4	generate/STIM_008.jpg
2880.027	1.794	correct	generate	Run4	generate/STIM_008.jpg
2884.14	2.368	correct	generate	Run4	generate/STIM_008.jpg
2890.373	1.432	correct	generate	Run4	generate/STIM_008.jpg
2895.282	1.493	correct	generate	Run4	generate/STIM_009.jpg
2899.006	2.31	correct	generate	Run4	generate/STIM_009.jpg
2904.059	1.393	correct	generate	Run4	generate/STIM_009.jpg
2908.79	1.77	correct	generate	Run4	generate/STIM_009.jpg
2912.695	1.737	correct	generate	Run4	generate/STIM_009.jpg
2918.378	2.021	correct	generate	Run4	generate/STIM_010.jpg
2923.758	2.336	correct	generate	Run4	generate/STIM_010.jpg
2929.102	2.36	correct	generate	Run4	generate/STIM_010.jpg
2934.732	2.064	correct	generate	Run4	generate/STIM_010.jpg
2939.349	1.612	correct	generate	Run4	generate/STIM_010.jpg
2943.117	1.334	correct	generate	Run4	generate/STIM_011.jpg
2946.757	1.603	correct	generate	Run4	generate/STIM_011.jpg
2951.812	2.087	correct	generate	Run4	generate/STIM_011.jpg
2956.641	1.185	correct	generate	Run4	generate/STIM_011.jpg
2961.075	1.178	correct	generate	Run4	generate/STIM_011.jpg
2964.785	0.957	correct	generate	Run4	generate/STIM_012.jpg
2969.26	2.016	correct	generate	Run4	generate/STIM_012.jpg
2973.761	2.086	correct	generate	Run4	generate/STIM_012.jpg
2979.041	1.07	correct	generate	Run4	generate/STIM_012.jpg
2983.89	1.373	correct	generate	Run4	generate/STIM_012.jpg
2989.198	1.694	correct	generate	Run4	generate/STIM_013.jpg
2993.221	1.059	correct	generate	Run4	generate/STIM_013.jpg
2997.62	2.276	correct	generate	Run4	generate/STIM_013.jpg
3002.222	1.457	correct	generate	Run4	generate/STIM_013.jpg
3007.403	1.474	correct	generate	Run4	generate/STIM_013.jpg
3011.31	2.052	correct	generate	Run4	generate/STIM_014.jpg
3015.651	2.109	correct	generate	Run4	generate/STIM_014.jpg
3020.491	1.258	correct	generate	Run4	generate/STIM_014.jpg
3025.341	1.703	correct	generate	Run4	generate/STIM_014.jpg
3029.95	1.159	correct	generate	Run4	generate/STIM_014.jpg
3034.513	1.858	correct	generate	Run4	generate/STIM_015.jpg
3039.174	1.363	correct	generate	Run4	generate/STIM_015.jpg
3043.005	2.196	correct	generate	Run4	generate/STIM_015.jpg
3048.874	2.22	correct	generate	Run4	generate/STIM_015.jpg
3053.242	1.289	correct	generate	Run4	generate/STIM_015.jpg
3058.454	1.438	correct	generate	Run4	generate/STIM_016.jpg
3061.964	1.657	correct	generate	Run4	generate/STIM_016.jpg
3066.956	1.446	correct	generate	Run4	generate/STIM_016.jpg
3071.806	1.462	correct	generate	Run4	generate/STIM_016.jpg
3075.493	1.32	correct	generate	Run4	generate/STIM_016.jpg
3079.898	0.976	correct	generate	Run4	generate/STIM_017.jpg
3083.262	1.684	correct	generate	Run4	generate/STIM_017.jpg
3088.507	1.1	correct	generate	Run4	generate/STIM_017.jpg
3093.312	1.928	correct	generate	Run4	generate/STIM_017.jpg
3097.963	1.085	correct	generate	Run4	generate/STIM_017.jpg
3102.019	1.208	correct	generate	Run4	generate/STIM_018.jpg
3105.706	2.153	correct	generate	Run4	generate/STIM_018.jpg
3111.532	2.021	correct	generate	Run4	generate/STIM_018.jpg
3115.871	1.466	incorrect	generate	Run4	generate/STIM_018.jpg
3119.439	2.081	correct	generate	Run4	generate/STIM_018.jpg
3124.776	1.455	correct	generate	Run4	generate/STIM_019.jpg
3129.314	1.431	correct	generate	Run4	generate/STIM_019.jpg
3132.843	1.401	correct	generate	Run4	generate/STIM_019.jpg
3136.974	0.97	correct	generate	Run4	generate/STIM_019.jpg
3140.373	1.947	correct	generate	Run4	generate/STIM_019.jpg
3145.354	2.118	correct	generate	Run4	generate/STIM_020.jpg
3151.003	1.605	correct	generate	Run4	generate/STIM_020.jpg
3155.544	1.369	correct	generate	Run4	generate/STIM_020.jpg
3160.012	1.948	correct	generate	Run4	generate/STIM_020.jpg
3165.34	1.689	correct	generate	Run4	generate/STIM_020.jpg
3170.074	1.485	correct	generate	Run4	generate/STIM_021.jpg
3174.515	2.02	correct	generate	Run4	generate/STIM_021.jpg
3179.352	1.359	correct	generate	Run4	generate/STIM_021.jpg
3183.007	1.726	correct	generate	Run4	generate/STIM_021.jpg
3186.883	1.779	correct	generate	Run4	generate/STIM_021.jpg
3192.554	0.991	correct	generate	Run4	generate/STIM_022.jpg
3196.906	1.927	correct	generate	Run4	generate/STIM_022.jpg
3201.883	1.393	correct	generate	Run4	generate/STIM_022.jpg
3205.769	1.755	correct	generate	Run4	generate/STIM_022.jpg
3210.767	1.157	correct	generate	Run4	generate/STIM_022.jpg
3214.702	1.705	correct	generate	Run4	generate/STIM_023.jpg
3220.28	1.451	correct	generate	Run4	generate/STIM_023.jpg
3224.995	0.981	correct	generate	Run4	generate/STIM_023.jpg
3228.455	1.606	correct	generate	Run4	generate/STIM_023.jpg
3233.171	1.314	correct	generate	Run4	generate/STIM_023.jpg
3237.141	1.683	correct	generate	Run4	generate/STIM_024.jpg
3242.778	1.536	correct	generate	Run4	generate/STIM_024.jpg
3246.352	1.858	correct	generate	Run4	generate/STIM_024.jpg
3250.96	1.52	correct	generate	Run4	generate/STIM_024.jpg
3255.936	1.689	correct	generate	Run4	generate/STIM_024.jpg
3260.993	0.799	correct	repeat	Run4	repeat/STIM_000.jpg
3263.865	0.62	correct	repeat	Run4	repeat/STIM_000.jpg
3266.999	0.661	correct	repeat	Run4	repeat/STIM_000.jpg
3269.783	1.106	correct	repeat	Run4	repeat/STIM_000.jpg
3273.499	0.883	correct	repeat	Run4	repeat/STIM_000.jpg
3276.786	0.907	correct	repeat	Run4	repeat/STIM_001.jpg
3280.107	0.78	correct	repeat	Run4	repeat/STIM_001.jpg
3282.956	0.569	correct	repeat	Run4	repeat/STIM_001.jpg
3286.381	1.072	correct	repeat	Run4	repeat/STIM_001.jpg
3289.603	1.005	correct	repeat	Run4	repeat/STIM_001.jpg
3292.617	0.798	correct	repeat	Run4	repeat/STIM_002.jpg
3297.284	1.013	correct	repeat	Run4	repeat/STIM_002.jpg
3301.704	1.016	correct	repeat	Run4	repeat/STIM_002.jpg
3304.761	0.758	correct	repeat	Run4	repeat/STIM_002.jpg
3308.818	0.776	correct	repeat	Run4	repeat/STIM_002.jpg
3313.255	0.911	correct	repeat	Run4	repeat/STIM_003.jpg
3316.451	0.645	correct	repeat	Run4	repeat/STIM_003.jpg
3320.542	0.649	correct	repeat	Run4	repeat/STIM_003.jpg
3325.19	0.99	correct	repeat	Run4	repeat/STIM_003.jpg
3329.997	1.111	correct	repeat	Run4	repeat/STIM_003.jpg
3334.608	1.104	correct	repeat	Run4	repeat/STIM_004.jpg
3338.6	0.68	correct	repeat	Run4	repeat/STIM_004.jpg
3341.398	0.954	correct	repeat	Run4	repeat/STIM_004.jpg
3345.782	0.645	correct	repeat	Run4	repeat/STIM_004.jpg
3349.219	0.866	correct	repeat	Run4	repeat/STIM_004.jpg
3353.115	0.787	correct	repeat	Run4	repeat/STIM_005.jpg
3356.983	0.597	correct	repeat	Run4	repeat/STIM_005.jpg
3360.973	0.665	incorrect	repeat	Run4	repeat/STIM_005.jpg
3363.872	1.013	correct	repeat	Run4	repeat/STIM_005.jpg
3367.143	1.106	correct	repeat	Run4	repeat/STIM_005.jpg
3371.78	0.738	correct	repeat	Run4	repeat/STIM_006.jpg
3374.848	0.961	correct	repeat	Run4	repeat/STIM_006.jpg
3378.982	1.109	incorrect	repeat	Run4	repeat/STIM_006.jpg
3382.936	0.579	correct	repeat	Run4	repeat/STIM_006.jpg
3386.404	1.022	correct	repeat	Run4	repeat/STIM_006.jpg
3389.485	1.005	correct	repeat	Run4	repeat/STIM_007.jpg
3393.083	0.923	incorrect	repeat	Run4	repeat/STIM_007.jpg
3396.683	0.767	correct	repeat	Run4	repeat/STIM_007.jpg
3399.67	0.806	correct	repeat	Run4	repeat/STIM_007.jpg
3403.805	0.724	correct	repeat	Run4	repeat/STIM_007.jpg
3407.854	1.01	correct	repeat	Run4	repeat/STIM_008.jpg
3411.375	0.971	correct	repeat	Run4	repeat/STIM_008.jpg
3416.212	0.809	correct	repeat	Run4	repeat/STIM_008.jpg
3420.088	0.822	correct	repeat	Run4	repeat/STIM_008.jpg
3424.723	1.088	correct	repeat	Run4	repeat/STIM_008.jpg
3428.912	0.866	correct	repeat	Run4	repeat/STIM_009.jpg
3433.293	1.079	correct	repeat	Run4	repeat/STIM_009.jpg
3437.085	0.738	incorrect	repeat	Run4	repeat/STIM_009.jpg
3440.031	0.788	correct	repeat	Run4	repeat/STIM_009.jpg
3443.658	1.068	correct	repeat	Run4	repeat/STIM_009.jpg
3448.451	1.054	correct	repeat	Run4	repeat/STIM_010.jpg
3452.515	0.692	correct	repeat	Run4	repeat/STIM_010.jpg
3455.589	0.798	correct	repeat	Run4	repeat/STIM_010.jpg
3459.722	0.698	correct	repeat	Run4	repeat/STIM_010.jpg
3462.61	1.045	correct	repeat	Run4	repeat/STIM_010.jpg
3466.972	0.79	correct	repeat	Run4	repeat/STIM_011.jpg
3470.951	1.033	correct	repeat	Run4	repeat/STIM_011.jpg
3474.487	1.126	correct	repeat	Run4	repeat/STIM_011.jpg
3478.294	0.676	correct	repeat	Run4	repeat/STIM_011.jpg
3482.631	0.919	correct	repeat	Run4	repeat/STIM_011.jpg
3486.895	1.091	correct	repeat	Run4	repeat/STIM_012.jpg
3490.41	0.567	correct	repeat	Run4	repeat/STIM_012.jpg
3494.683	1.04	correct	repeat	Run4	repeat/STIM_012.jpg
3499.259	0.876	correct	repeat	Run4	repeat/STIM_012.jpg
3503.97	0.858	correct	repeat	Run4	repeat/STIM_012.jpg
3507.691	0.971	correct	repeat	Run4	repeat/STIM_013.jpg
3512.64	0.981	correct	repeat	Run4	repeat/STIM_013.jpg
3516.089	0.846	correct	repeat	Run4	repeat/STIM_013.jpg
3519.276	0.93	correct	repeat	Run4	repeat/STIM_013.jpg
3522.432	1.055	correct	repeat	Run4	repeat/STIM_013.jpg
3526.427	0.94	correct	repeat	Run4	repeat/STIM_014.jpg
3530.877	0.867	correct	repeat	Run4	repeat/STIM_014.jpg
3534.216	0.782	incorrect	repeat	Run4	repeat/STIM_014.jpg
3537.111	0.913	correct	repeat	Run4	repeat/STIM_014.jpg
3541.13	0.931	correct	repeat	Run4	repeat/STIM_014.jpg
