onset	duration	accuracy_binary	trial_type	learning_stage	stimulus
0.0	2.934	1	generate	Run1	generate/STIM_000.jpg
6.896	2.384	0	generate	Run1	generate/STIM_000.jpg
11.836	2.283	1	generate	Run1	generate/STIM_000.jpg
17.01	1.823	0	generate	Run1	generate/STIM_000.jpg
21.405	1.172	1	generate	Run1	generate/STIM_000.jpg
26.445	2.261	1	generate	Run1	generate/STIM_001.jpg
30.945	1.6	1	generate	Run1	generate/STIM_001.jpg
36.519	1.456	1	generate	Run1	generate/STIM_001.jpg
41.525	2.669	1	generate	Run1	generate/STIM_001.jpg
47.478	2.312	1	generate	Run1	generate/STIM_001.jpg
52.755	3.001	1	generate	Run1	generate/STIM_002.jpg
59.041	2.746	1	generate	Run1	generate/STIM_002.jpg
65.113	1.284	0	generate	Run1	generate/STIM_002.jpg
68.736	2.13	0	generate	Run1	generate/STIM_002.jpg
73.01	1.124	1	generate	Run1	generate/STIM_002.jpg
77.203	1.41	1	generate	Run1	generate/STIM_003.jpg
82.0	1.463	1	generate	Run1	generate/STIM_003.jpg
86.718	2.726	1	generate	Run1	generate/STIM_003.jpg
92.485	1.372	1	generate	Run1	generate/STIM_003.jpg
96.258	1.444	1	generate	Run1	generate/STIM_003.jpg
100.171	2.203	1	generate	Run1	generate/STIM_004.jpg
105.158	3.009	1	generate	Run1	generate/STIM_004.jpg
110.75	2.743	1	generate	Run1	generate/STIM_004.jpg
117.341	2.681	0	generate	Run1	generate/STIM_004.jpg
123.99	2.512	1	generate	Run1	generate/STIM_004.jpg
129.569	1.569	1	generate	Run1	generate/STIM_005.jpg
134.654	1.852	1	generate	Run1	generate/STIM_005.jpg
140.418	2.866	1	generate	Run1	generate/STIM_005.jpg
147.254	1.52	1	generate	Run1	generate/STIM_005.jpg
152.685	2.113	1	generate	Run1	generate/STIM_005.jpg
158.46	2.32	0	generate	Run1	generate/STIM_006.jpg
163.286	1.67	1	generate	Run1	generate/STIM_006.jpg
168.45	1.904	1	generate	Run1	generate/STIM_006.jpg
173.229	1.673	1	generate	Run1	generate/STIM_006.jpg
178.736	1.282	1	generate	Run1	generate/STIM_006.jpg
183.561	2.807	1	generate	Run1	generate/STIM_007.jpg
189.656	2.535	1	generate	Run1	generate/STIM_007.jpg
194.793	2.756	1	generate	Run1	generate/STIM_007.jpg
199.688	1.902	1	generate	Run1	generate/STIM_007.jpg
204.169	2.164	1	generate	Run1	generate/STIM_007.jpg
209.338	3.195	0	generate	Run1	generate/STIM_008.jpg
215.33	3.008	1	generate	Run1	generate/STIM_008.jpg
221.221	1.291	1	generate	Run1	generate/STIM_008.jpg
225.26	2.09	1	generate	Run1	generate/STIM_008.jpg
230.43	1.762	1	generate	Run1	generate/STIM_008.jpg
235.501	3.295	1	generate	Run1	generate/STIM_009.jpg
240.804	1.915	1	generate	Run1	generate/STIM_009.jpg
245.326	2.136	1	generate	Run1	generate/STIM_009.jpg
250.81	1.841	1	generate	Run1	generate/STIM_009.jpg
256.294	1.327	1	generate	Run1	generate/STIM_009.jpg
259.957	1.406	0	generate	Run1	generate/STIM_010.jpg
264.531	2.686	1	generate	Run1	generate/STIM_010.jpg
270.591	1.55	1	generate	Run1	generate/STIM_010.jpg
276.118	1.313	1	generate	Run1	generate/STIM_010.jpg
279.63	2.462	1	generate	Run1	generate/STIM_010.jpg
284.349	2.812	1	generate	Run1	generate/STIM_011.jpg
289.436	2.916	1	generate	Run1	generate/STIM_011.jpg
296.24	2.5	1	generate	Run1	generate/STIM_011.jpg
302.309	2.725	1	generate	Run1	generate/STIM_011.jpg
307.283	1.564	1	generate	Run1	generate/STIM_011.jpg
311.792	1.411	1	generate	Run1	generate/STIM_012.jpg
315.999	2.85	1	generate	Run1	generate/STIM_012.jpg
320.984	2.353	1	generate	Run1	generate/STIM_012.jpg
325.918	1.493	1	generate	Run1	generate/STIM_012.jpg
331.086	1.573	1	generate	Run1	generate/STIM_012.jpg
334.974	1.539	1	generate	Run1	generate/STIM_013.jpg
340.459	3.066	1	generate	Run1	generate/STIM_013.jpg
345.638	3.024	1	generate	Run1	generate/STIM_013.jpg
352.532	1.586	1	generate	Run1	generate/STIM_013.jpg
356.152	1.135	1	generate	Run1	generate/STIM_013.jpg
359.497	2.808	1	generate	Run1	generate/STIM_014.jpg
364.81	1.757	0	generate	Run1	generate/STIM_014.jpg
368.903	2.087	0	generate	Run1	generate/STIM_014.jpg
373.984	2.841	1	generate	Run1	generate/STIM_014.jpg
380.382	2.561	1	generate	Run1	generate/STIM_014.jpg
386.475	2.553	1	generate	Run1	generate/STIM_015.jpg
392.354	1.861	0	generate	Run1	generate/STIM_015.jpg
396.819	2.34	1	generate	Run1	generate/STIM_015.jpg
401.246	1.289	0	generate	Run1	generate/STIM_015.jpg
404.859	1.43	0	generate	Run1	generate/STIM_015.jpg
409.062	1.53	1	generate	Run1	generate/STIM_016.jpg
413.179	2.905	1	generate	Run1	generate/STIM_016.jpg
419.073	2.232	0	generate	Run1	generate/STIM_016.jpg
424.818	2.678	1	generate	Run1	generate/STIM_016.jpg
429.804	1.09	1	generate	Run1	generate/STIM_016.jpg
434.271	1.407	1	generate	Run1	generate/STIM_017.jpg
439.329	1.899	1	generate	Run1	generate/STIM_017.jpg
444.492	1.527	1	generate	Run1	generate/STIM_017.jpg
448.653	2.557	1	generate	Run1	generate/STIM_017.jpg
454.222	1.789	1	generate	Run1	generate/STIM_017.jpg
459.453	1.496	1	generate	Run1	generate/STIM_018.jpg
463.712	2.725	0	generate	Run1	generate/STIM_018.jpg
470.238	1.766	0	generate	Run1	generate/STIM_018.jpg
474.352	2.437	1	generate	Run1	generate/STIM_018.jpg
480.48	1.595	1	generate	Run1	generate/STIM_018.jpg
485.92	1.622	1	generate	Run1	generate/STIM_019.jpg
490.971	3.008	0	generate	Run1	generate/STIM_019.jpg
496.072	2.554	1	generate	Run1	generate/STIM_019.jpg
500.656	2.266	1	generate	Run1	generate/STIM_019.jpg
505.97	1.207	1	generate	Run1	generate/STIM_019.jpg
509.503	2.692	1	generate	Run1	generate/STIM_020.jpg
514.315	1.502	1	generate	Run1	generate/STIM_020.jpg
519.682	2.966	1	generate	Run1	generate/STIM_020.jpg
525.952	2.736	1	generate	Run1	generate/STIM_020.jpg
532.051	1.835	1	generate	Run1	generate/STIM_020.jpg
537.754	2.535	1	generate	Run1	generate/STIM_021.jpg
544.26	2.474	1	generate	Run1	generate/STIM_021.jpg
550.452	2.611	1	generate	Run1	generate/STIM_021.jpg
556.638	2.517	1	generate	Run1	generate/STIM_021.jpg
563.063	2.064	1	generate	Run1	generate/STIM_021.jpg
568.829	3.16	0	generate	Run1	generate/STIM_022.jpg
574.126	1.901	1	generate	Run1	generate/STIM_022.jpg
578.409	1.93	0	generate	Run1	generate/STIM_022.jpg
582.742	1.656	1	generate	Run1	generate/STIM_022.jpg
588.349	2.004	1	generate	Run1	generate/STIM_022.jpg
593.136	1.876	1	generate	Run1	generate/STIM_023.jpg
598.571	1.856	1	generate	Run1	generate/STIM_023.jpg
602.955	2.216	1	generate	Run1	generate/STIM_023.jpg
608.474	2.108	0	generate	Run1	generate/STIM_023.jpg
612.634	1.576	0	generate	Run1	generate/STIM_023.jpg
616.764	3.162	0	generate	Run1	generate/STIM_024.jpg
622.818	1.716	1	generate	Run1	generate/STIM_024.jpg
627.881	1.99	1	generate	Run1	generate/STIM_024.jpg
632.505	1.491	1	generate	Run1	generate/STIM_024.jpg
636.755	1.161	1	generate	Run1	generate/STIM_024.jpg
641.807	0.678	1	repeat	Run1	repeat/STIM_000.jpg
645.164	0.93	1	repeat	Run1	repeat/STIM_000.jpg
648.951	0.828	1	repeat	Run1	repeat/STIM_000.jpg
652.189	1.082	1	repeat	Run1	repeat/STIM_000.jpg
656.024	0.889	0	repeat	Run1	repeat/STIM_000.jpg
659.864	0.688	1	repeat	Run1	repeat/STIM_001.jpg
664.529	1.044	1	repeat	Run1	repeat/STIM_001.jpg
668.564	0.824	1	repeat	Run1	repeat/STIM_001.jpg
672.737	1.059	1	repeat	Run1	repeat/STIM_001.jpg
676.394	0.843	1	repeat	Run1	repeat/STIM_001.jpg
679.609	1.026	1	repeat	Run1	repeat/STIM_002.jpg
684.596	0.582	1	repeat	Run1	repeat/STIM_002.jpg
688.792	1.085	1	repeat	Run1	repeat/STIM_002.jpg
693.512	0.739	1	repeat	Run1	repeat/STIM_002.jpg
697.122	1.103	1	repeat	Run1	repeat/STIM_002.jpg
700.995	0.582	1	repeat	Run1	repeat/STIM_003.jpg
705.299	0.661	1	repeat	Run1	repeat/STIM_003.jpg
708.397	0.643	1	repeat	Run1	repeat/STIM_003.jpg
711.449	0.807	1	repeat	Run1	repeat/STIM_003.jpg
714.453	0.899	1	repeat	Run1	repeat/STIM_003.jpg
718.826	0.813	1	repeat	Run1	repeat/STIM_004.jpg
722.284	0.731	1	repeat	Run1	repeat/STIM_004.jpg
726.337	0.594	1	repeat	Run1	repeat/STIM_004.jpg
729.149	0.574	1	repeat	Run1	repeat/STIM_004.jpg
732.343	0.731	1	repeat	Run1	repeat/STIM_004.jpg
736.035	0.701	1	repeat	Run1	repeat/STIM_005.jpg
740.214	0.945	1	repeat	Run1	repeat/STIM_005.jpg
745.031	1.068	1	repeat	Run1	repeat/STIM_005.jpg
748.162	0.892	1	repeat	Run1	repeat/STIM_005.jpg
752.349	0.969	1	repeat	Run1	repeat/STIM_005.jpg
756.621	0.592	1	repeat	Run1	repeat/STIM_006.jpg
760.394	0.8	1	repeat	Run1	repeat/STIM_006.jpg
764.183	0.916	1	repeat	Run1	repeat/STIM_006.jpg
768.679	1.06	1	repeat	Run1	repeat/STIM_006.jpg
772.038	0.744	1	repeat	Run1	repeat/STIM_006.jpg
775.135	0.783	0	repeat	Run1	repeat/STIM_007.jpg
778.289	0.788	1	repeat	Run1	repeat/STIM_007.jpg
782.371	0.88	1	repeat	Run1	repeat/STIM_007.jpg
785.998	1.029	1	repeat	Run1	repeat/STIM_007.jpg
789.938	0.834	1	repeat	Run1	repeat/STIM_007.jpg
794.7	0.653	1	repeat	Run1	repeat/STIM_008.jpg
797.602	0.683	1	repeat	Run1	repeat/STIM_008.jpg
801.441	0.949	1	repeat	Run1	repeat/STIM_008.jpg
805.821	0.839	1	repeat	Run1	repeat/STIM_008.jpg
810.054	0.925	1	repeat	Run1	repeat/STIM_008.jpg
813.963	0.599	1	repeat	Run1	repeat/STIM_009.jpg
818.003	0.594	1	repeat	Run1	repeat/STIM_009.jpg
820.921	0.567	1	repeat	Run1	repeat/STIM_009.jpg
824.149	0.882	1	repeat	Run1	repeat/STIM_009.jpg
828.37	0.679	1	repeat	Run1	repeat/STIM_009.jpg
832.086	0.842	1	repeat	Run1	repeat/STIM_010.jpg
835.251	1.062	1	repeat	Run1	repeat/STIM_010.jpg
839.167	0.875	0	repeat	Run1	repeat/STIM_010.jpg
842.424	0.599	1	repeat	Run1	repeat/STIM_010.jpg
846.435	0.967	1	repeat	Run1	repeat/STIM_010.jpg
851.021	0.64	1	repeat	Run1	repeat/STIM_011.jpg
853.936	1.097	1	repeat	Run1	repeat/STIM_011.jpg
858.363	0.639	1	repeat	Run1	repeat/STIM_011.jpg
861.828	0.82	1	repeat	Run1	repeat/STIM_011.jpg
865.639	0.586	1	repeat	Run1	repeat/STIM_011.jpg
870.113	0.906	1	repeat	Run1	repeat/STIM_012.jpg
873.382	0.776	1	repeat	Run1	repeat/STIM_012.jpg
876.95	1.024	1	repeat	Run1	repeat/STIM_012.jpg
880.448	0.662	1	repeat	Run1	repeat/STIM_012.jpg
884.42	0.984	1	repeat	Run1	repeat/STIM_012.jpg
887.886	0.875	1	repeat	Run1	repeat/STIM_013.jpg
891.36	0.862	1	repeat	Run1	repeat/STIM_013.jpg
895.249	1.082	1	repeat	Run1	repeat/STIM_013.jpg
900.127	1.101	1	repeat	Run1	repeat/STIM_013.jpg
903.57	0.695	1	repeat	Run1	repeat/STIM_013.jpg
908.048	0.573	1	repeat	Run1	repeat/STIM_014.jpg
911.776	0.762	1	repeat	Run1	repeat/STIM_014.jpg
915.57	0.665	1	repeat	Run1	repeat/STIM_014.jpg
919.162	0.89	1	repeat	Run1	repeat/STIM_014.jpg
922.663	0.763	1	repeat	Run1	repeat/STIM_014.jpg
925.479	1.838	1	generate	Run2	generate/STIM_000.jpg
929.785	1.705	1	generate	Run2	generate/STIM_000.jpg
935.383	1.889	1	generate	Run2	generate/STIM_000.jpg
939.764	1.494	1	generate	Run2	generate/STIM_000.jpg
944.436	2.064	0	generate	Run2	generate/STIM_000.jpg
949.15	2.666	1	generate	Run2	generate/STIM_001.jpg
954.999	1.934	1	generate	Run2	generate/STIM_001.jpg
959.841	1.448	1	generate	Run2	generate/STIM_001.jpg
963.869	1.106	1	generate	Run2	generate/STIM_001.jpg
967.797	1.65	1	generate	Run2	generate/STIM_001.jpg
972.745	1.92	0	generate	Run2	generate/STIM_002.jpg
978.398	1.742	1	generate	Run2	generate/STIM_002.jpg
984.137	1.576	1	generate	Run2	generate/STIM_002.jpg
989.031	1.887	1	generate	Run2	generate/STIM_002.jpg
994.685	1.083	0	generate	Run2	generate/STIM_002.jpg
998.473	1.207	1	generate	Run2	generate/STIM_003.jpg
1003.361	1.238	1	generate	Run2	generate/STIM_003.jpg
1007.774	2.129	0	generate	Run2	generate/STIM_003.jpg
1012.516	1.696	0	generate	Run2	generate/STIM_003.jpg
1017.815	1.928	1	generate	Run2	generate/STIM_003.jpg
1022.248	2.84	1	generate	Run2	generate/STIM_004.jpg
1028.887	1.351	0	generate	Run2	generate/STIM_004.jpg
1032.673	2.009	1	generate	Run2	generate/STIM_004.jpg
1036.973	1.54	1	generate	Run2	generate/STIM_004.jpg
1041.45	2.324	1	generate	Run2	generate/STIM_004.jpg
1047.366	2.084	1	generate	Run2	generate/STIM_005.jpg
1051.993	2.209	1	generate	Run2	generate/STIM_005.jpg
1057.1	1.734	1	generate	Run2	generate/STIM_005.jpg
1062.21	1.04	1	generate	Run2	generate/STIM_005.jpg
1067.015	1.613	1	generate	Run2	generate/STIM_005.jpg
1072.146	2.368	1	generate	Run2	generate/STIM_006.jpg
1077.875	2.414	1	generate	Run2	generate/STIM_006.jpg
1083.334	2.074	1	generate	Run2	generate/STIM_006.jpg
1088.596	2.153	1	generate	Run2	generate/STIM_006.jpg
1093.458	2.106	1	generate	Run2	generate/STIM_006.jpg
1098.406	2.462	1	generate	Run2	generate/STIM_007.jpg
1103.517	1.249	1	generate	Run2	generate/STIM_007.jpg
1108.021	2.281	1	generate	Run2	generate/STIM_007.jpg
1112.604	1.49	1	generate	Run2	generate/STIM_007.jpg
1116.825	2.329	1	generate	Run2	generate/STIM_007.jpg
1121.43	2.151	1	generate	Run2	generate/STIM_008.jpg
1126.915	2.036	1	generate	Run2	generate/STIM_008.jpg
1132.161	1.204	1	generate	Run2	generate/STIM_008.jpg
1135.543	1.656	1	generate	Run2	generate/STIM_008.jpg
1140.46	1.012	1	generate	Run2	generate/STIM_008.jpg
1144.267	2.278	1	generate	Run2	generate/STIM_009.jpg
1150.071	2.653	1	generate	Run2	generate/STIM_009.jpg
1155.542	2.306	1	generate	Run2	generate/STIM_009.jpg
1161.342	1.897	1	generate	Run2	generate/STIM_009.jpg
1166.938	2.13	1	generate	Run2	generate/STIM_009.jpg
1171.745	1.976	1	generate	Run2	generate/STIM_010.jpg
1175.933	1.495	1	generate	Run2	generate/STIM_010.jpg
1179.713	1.342	1	generate	Run2	generate/STIM_010.jpg
1184.059	0.969	1	generate	Run2	generate/STIM_010.jpg
1187.275	1.533	1	generate	Run2	generate/STIM_010.jpg
1192.406	2.108	1	generate	Run2	generate/STIM_011.jpg
1196.659	1.245	1	generate	Run2	generate/STIM_011.jpg
1201.065	1.558	1	generate	Run2	generate/STIM_011.jpg
1206.056	1.424	0	generate	Run2	generate/STIM_011.jpg
1210.546	2.074	1	generate	Run2	generate/STIM_011.jpg
1215.889	1.791	1	generate	Run2	generate/STIM_012.jpg
1219.69	1.448	1	generate	Run2	generate/STIM_012.jpg
1224.074	1.456	1	generate	Run2	generate/STIM_012.jpg
1228.326	1.66	1	generate	Run2	generate/STIM_012.jpg
1232.038	2.13	1	generate	Run2	generate/STIM_012.jpg
1236.315	2.36	1	generate	Run2	generate/STIM_013.jpg
1242.371	2.317	1	generate	Run2	generate/STIM_013.jpg
1248.491	1.672	1	generate	Run2	generate/STIM_013.jpg
1254.035	2.321	1	generate	Run2	generate/STIM_013.jpg
1260.148	1.241	1	generate	Run2	generate/STIM_013.jpg
1263.995	2.316	1	generate	Run2	generate/STIM_014.jpg
1268.654	2.328	1	generate	Run2	generate/STIM_014.jpg
1273.579	1.744	1	generate	Run2	generate/STIM_014.jpg
1278.541	1.925	1	generate	Run2	generate/STIM_014.jpg
1283.357	2.137	0	generate	Run2	generate/STIM_014.jpg
1289.367	1.698	1	generate	Run2	generate/STIM_015.jpg
1294.147	1.269	1	generate	Run2	generate/STIM_015.jpg
1297.707	1.765	1	generate	Run2	generate/STIM_015.jpg
1302.613	1.822	0	generate	Run2	generate/STIM_015.jpg
1307.622	1.915	1	generate	Run2	generate/STIM_015.jpg
1312.079	2.889	1	generate	Run2	generate/STIM_016.jpg
1317.695	1.38	1	generate	Run2	generate/STIM_016.jpg
1322.937	1.404	0	generate	Run2	generate/STIM_016.jpg
1326.573	1.471	1	generate	Run2	generate/STIM_016.jpg
1330.69	1.837	1	generate	Run2	generate/STIM_016.jpg
1334.71	1.463	0	generate	Run2	generate/STIM_017.jpg
1339.44	1.281	1	generate	Run2	generate/STIM_017.jpg
1343.437	1.499	1	generate	Run2	generate/STIM_017.jpg
1347.105	1.784	0	generate	Run2	generate/STIM_017.jpg
1352.244	1.21	1	generate	Run2	generate/STIM_017.jpg
1356.096	2.836	0	generate	Run2	generate/STIM_018.jpg
1362.583	1.24	1	generate	Run2	generate/STIM_018.jpg
1367.408	2.487	1	generate	Run2	generate/STIM_018.jpg
1373.742	1.294	1	generate	Run2	generate/STIM_018.jpg
1378.393	2.248	1	generate	Run2	generate/STIM_018.jpg
1382.886	1.382	1	generate	Run2	generate/STIM_019.jpg
1386.394	1.824	1	generate	Run2	generate/STIM_019.jpg
1390.5	2.286	1	generate	Run2	generate/STIM_019.jpg
1396.158	1.41	1	generate	Run2	generate/STIM_019.jpg
1399.853	2.159	1	generate	Run2	generate/STIM_019.jpg
1404.914	1.508	1	generate	Run2	generate/STIM_020.jpg
1409.537	2.519	1	generate	Run2	generate/STIM_020.jpg
1414.346	1.139	1	generate	Run2	generate/STIM_020.jpg
1419.142	1.699	1	generate	Run2	generate/STIM_020.jpg
1424.798	1.247	1	generate	Run2	generate/STIM_020.jpg
1429.372	2.081	1	generate	Run2	generate/STIM_021.jpg
1435.411	1.224	1	generate	Run2	generate/STIM_021.jpg
1439.254	2.006	0	generate	Run2	generate/STIM_021.jpg
1444.549	2.361	1	generate	Run2	generate/STIM_021.jpg
1449.39	1.338	1	generate	Run2	generate/STIM_021.jpg
1454.263	2.026	1	generate	Run2	generate/STIM_022.jpg
1458.955	2.234	1	generate	Run2	generate/STIM_022.jpg
1463.372	2.34	1	generate	Run2	generate/STIM_022.jpg
1468.487	1.971	1	generate	Run2	generate/STIM_022.jpg
1473.857	2.01	1	generate	Run2	generate/STIM_022.jpg
1479.282	2.119	1	generate	Run2	generate/STIM_023.jpg
1485.01	1.96	1	generate	Run2	generate/STIM_023.jpg
1490.688	1.432	1	generate	Run2	generate/STIM_023.jpg
1495.217	1.847	1	generate	Run2	generate/STIM_023.jpg
1499.905	1.328	1	generate	Run2	generate/STIM_023.jpg
1505.098	1.916	1	generate	Run2	generate/STIM_024.jpg
1509.774	1.876	0	generate	Run2	generate/STIM_024.jpg
1514.057	1.909	1	generate	Run2	generate/STIM_024.jpg
1519.08	1.096	1	generate	Run2	generate/STIM_024.jpg
1523.633	1.279	1	generate	Run2	generate/STIM_024.jpg
1528.682	1.117	1	repeat	Run2	repeat/STIM_000.jpg
1533.336	0.601	1	repeat	Run2	repeat/STIM_000.jpg
1537.102	0.644	1	repeat	Run2	repeat/STIM_000.jpg
1540.439	0.749	1	repeat	Run2	repeat/STIM_000.jpg
1544.039	0.874	1	repeat	Run2	repeat/STIM_000.jpg
1547.418	0.686	1	repeat	Run2	repeat/STIM_001.jpg
1551.678	0.921	1	repeat	Run2	repeat/STIM_001.jpg
1556.388	0.954	1	repeat	Run2	repeat/STIM_001.jpg
1560.342	1.019	1	repeat	Run2	repeat/STIM_001.jpg
1564.081	0.743	1	repeat	Run2	repeat/STIM_001.jpg
1567.199	0.675	1	repeat	Run2	repeat/STIM_002.jpg
1571.721	0.907	1	repeat	Run2	repeat/STIM_002.jpg
1575.668	0.971	1	repeat	Run2	repeat/STIM_002.jpg
1579.426	0.598	1	repeat	Run2	repeat/STIM_002.jpg
1583.135	0.623	1	repeat	Run2	repeat/STIM_002.jpg
1587.66	0.885	1	repeat	Run2	repeat/STIM_003.jpg
1591.314	0.965	1	repeat	Run2	repeat/STIM_003.jpg
1594.574	1.108	1	repeat	Run2	repeat/STIM_003.jpg
1597.851	0.625	1	repeat	Run2	repeat/STIM_003.jpg
1601.222	1.012	1	repeat	Run2	repeat/STIM_003.jpg
1606.124	0.637	1	repeat	Run2	repeat/STIM_004.jpg
1608.775	0.975	1	repeat	Run2	repeat/STIM_004.jpg
1612.809	0.902	1	repeat	Run2	repeat/STIM_004.jpg
1615.994	0.702	1	repeat	Run2	repeat/STIM_004.jpg
1619.707	0.83	1	repeat	Run2	repeat/STIM_004.jpg
1623.962	1.011	1	repeat	Run2	repeat/STIM_005.jpg
1627.296	0.918	0	repeat	Run2	repeat/STIM_005.jpg
1630.795	0.587	1	repeat	Run2	repeat/STIM_005.jpg
1634.639	0.87	1	repeat	Run2	repeat/STIM_005.jpg
1638.132	0.736	1	repeat	Run2	repeat/STIM_005.jpg
1641.015	0.898	1	repeat	Run2	repeat/STIM_006.jpg
1644.385	0.992	1	repeat	Run2	repeat/STIM_006.jpg
1648.246	0.678	1	repeat	Run2	repeat/STIM_006.jpg
1651.447	0.751	1	repeat	Run2	repeat/STIM_006.jpg
1654.778	0.878	1	repeat	Run2	repeat/STIM_006.jpg
1657.957	0.941	1	repeat	Run2	repeat/STIM_007.jpg
1661.087	0.833	1	repeat	Run2	repeat/STIM_007.jpg
1664.324	0.672	1	repeat	Run2	repeat/STIM_007.jpg
1668.282	0.937	1	repeat	Run2	repeat/STIM_007.jpg
1672.531	0.597	1	repeat	Run2	repeat/STIM_007.jpg
1675.666	0.593	1	repeat	Run2	repeat/STIM_008.jpg
1679.124	0.993	1	repeat	Run2	repeat/STIM_008.jpg
1683.492	0.596	0	repeat	Run2	repeat/STIM_008.jpg
1687.45	0.71	0	repeat	Run2	repeat/STIM_008.jpg
1691.742	0.653	0	repeat	Run2	repeat/STIM_008.jpg
1695.802	1.0	1	repeat	Run2	repeat/STIM_009.jpg
1700.583	0.811	1	repeat	Run2	repeat/STIM_009.jpg
1704.983	0.642	1	repeat	Run2	repeat/STIM_009.jpg
1707.911	0.591	1	repeat	Run2	repeat/STIM_009.jpg
1711.229	1.036	1	repeat	Run2	repeat/STIM_009.jpg
1714.646	0.684	1	repeat	Run2	repeat/STIM_010.jpg
1717.383	0.833	1	repeat	Run2	repeat/STIM_010.jpg
1720.266	0.708	1	repeat	Run2	repeat/STIM_010.jpg
1724.005	0.621	1	repeat	Run2	repeat/STIM_010.jpg
1728.404	0.572	1	repeat	Run2	repeat/STIM_010.jpg
1731.772	0.62	1	repeat	Run2	repeat/STIM_011.jpg
1734.677	0.594	1	repeat	Run2	repeat/STIM_011.jpg
1738.806	0.976	1	repeat	Run2	repeat/STIM_011.jpg
1742.695	0.897	1	repeat	Run2	repeat/STIM_011.jpg
1745.669	1.076	1	repeat	Run2	repeat/STIM_011.jpg
1749.061	0.885	1	repeat	Run2	repeat/STIM_012.jpg
1753.801	0.75	1	repeat	Run2	repeat/STIM_012.jpg
1757.63	0.987	1	repeat	Run2	repeat/STIM_012.jpg
1761.468	0.851	1	repeat	Run2	repeat/STIM_012.jpg
1764.96	0.956	1	repeat	Run2	repeat/STIM_012.jpg
1769.123	1.026	1	repeat	Run2	repeat/STIM_013.jpg
1773.254	1.04	1	repeat	Run2	repeat/STIM_013.jpg
1778.132	0.646	1	repeat	Run2	repeat/STIM_013.jpg
1782.231	0.584	1	repeat	Run2	repeat/STIM_013.jpg
1786.502	0.572	0	repeat	Run2	repeat/STIM_013.jpg
1790.228	0.962	1	repeat	Run2	repeat/STIM_014.jpg
1793.771	1.128	1	repeat	Run2	repeat/STIM_014.jpg
1797.385	0.691	1	repeat	Run2	repeat/STIM_014.jpg
1801.494	0.578	1	repeat	Run2	repeat/STIM_014.jpg
1806.032	0.863	1	repeat	Run2	repeat/STIM_014.jpg
1808.944	2.026	1	generate	Run3	generate/STIM_000.jpg
1813.761	1.968	1	generate	Run3	generate/STIM_000.jpg
1819.006	1.238	1	generate	Run3	generate/STIM_000.jpg
1822.92	2.259	1	generate	Run3	generate/STIM_000.jpg
1828.335	2.165	1	generate	Run3	generate/STIM_000.jpg
1833.36	1.482	1	generate	Run3	generate/STIM_001.jpg
1838.698	2.298	1	generate	Run3	generate/STIM_001.jpg
1843.01	1.29	1	generate	Run3	generate/STIM_001.jpg
1846.783	2.249	1	generate	Run3	generate/STIM_001.jpg
1851.633	2.123	1	generate	Run3	generate/STIM_001.jpg
1856.777	1.29	1	generate	Run3	generate/STIM_002.jpg
1861.18	2.36	1	generate	Run3	generate/STIM_002.jpg
1867.289	2.31	1	generate	Run3	generate/STIM_002.jpg
1872.736	1.834	1	generate	Run3	generate/STIM_002.jpg
1877.644	1.519	1	generate	Run3	generate/STIM_002.jpg
1881.6	1.965	1	generate	Run3	generate/STIM_003.jpg
1885.813	1.84	1	generate	Run3	generate/STIM_003.jpg
1890.396	1.714	1	generate	Run3	generate/STIM_003.jpg
1894.889	1.095	1	generate	Run3	generate/STIM_003.jpg
1899.88	1.463	1	generate	Run3	generate/STIM_003.jpg
1904.356	1.702	0	generate	Run3	generate/STIM_004.jpg
1908.436	1.354	1	generate	Run3	generate/STIM_004.jpg
1913.108	1.688	1	generate	Run3	generate/STIM_004.jpg
1917.297	1.062	1	generate	Run3	generate/STIM_004.jpg
1921.72	2.24	1	generate	Run3	generate/STIM_004.jpg
1927.108	1.558	1	generate	Run3	generate/STIM_005.jpg
1931.017	2.043	0	generate	Run3	generate/STIM_005.jpg
1936.557	1.799	1	generate	Run3	generate/STIM_005.jpg
1940.449	2.027	1	generate	Run3	generate/STIM_005.jpg
1944.581	1.526	1	generate	Run3	generate/STIM_005.jpg
1949.309	1.544	1	generate	Run3	generate/STIM_006.jpg
1953.609	2.242	1	generate	Run3	generate/STIM_006.jpg
1959.058	1.398	1	generate	Run3	generate/STIM_006.jpg
1963.873	2.081	1	generate	Run3	generate/STIM_006.jpg
1968.733	1.555	1	generate	Run3	generate/STIM_006.jpg
1972.476	2.051	1	generate	Run3	generate/STIM_007.jpg
1976.751	2.254	1	generate	Run3	generate/STIM_007.jpg
1982.985	1.948	1	generate	Run3	generate/STIM_007.jpg
1988.765	1.61	1	generate	Run3	generate/STIM_007.jpg
1993.662	1.25	1	generate	Run3	generate/STIM_007.jpg
1997.923	1.825	1	generate	Run3	generate/STIM_008.jpg
2002.63	1.832	1	generate	Run3	generate/STIM_008.jpg
2008.167	1.8	1	generate	Run3	generate/STIM_008.jpg
2012.788	2.177	1	generate	Run3	generate/STIM_008.jpg
2018.103	1.123	1	generate	Run3	generate/STIM_008.jpg
2022.115	1.756	1	generate	Run3	generate/STIM_009.jpg
2027.378	2.071	1	generate	Run3	generate/STIM_009.jpg
2032.733	1.227	1	generate	Run3	generate/STIM_009.jpg
2036.105	1.676	1	generate	Run3	generate/STIM_009.jpg
2040.953	1.252	1	generate	Run3	generate/STIM_009.jpg
2044.637	1.931	1	generate	Run3	generate/STIM_010.jpg
2048.847	1.965	0	generate	Run3	generate/STIM_010.jpg
2053.336	1.171	1	generate	Run3	generate/STIM_010.jpg
2058.041	1.495	1	generate	Run3	generate/STIM_010.jpg
2062.618	1.753	1	generate	Run3	generate/STIM_010.jpg
2066.782	1.55	1	generate	Run3	generate/STIM_011.jpg
2070.734	1.256	1	generate	Run3	generate/STIM_011.jpg
2075.67	2.342	1	generate	Run3	generate/STIM_011.jpg
2081.189	2.183	1	generate	Run3	generate/STIM_011.jpg
2086.569	1.539	1	generate	Run3	generate/STIM_011.jpg
2091.609	1.802	1	generate	Run3	generate/STIM_012.jpg
2095.59	1.275	1	generate	Run3	generate/STIM_012.jpg
2100.849	2.267	1	generate	Run3	generate/STIM_012.jpg
2107.07	1.238	1	generate	Run3	generate/STIM_012.jpg
2111.801	1.495	1	generate	Run3	generate/STIM_012.jpg
2115.476	1.513	1	generate	Run3	generate/STIM_013.jpg
2119.662	1.174	1	generate	Run3	generate/STIM_013.jpg
2123.018	1.25	1	generate	Run3	generate/STIM_013.jpg
2127.623	1.423	1	generate	Run3	generate/STIM_013.jpg
2132.549	1.326	1	generate	Run3	generate/STIM_013.jpg
2137.368	1.037	1	generate	Run3	generate/STIM_014.jpg
2142.105	1.715	1	generate	Run3	generate/STIM_014.jpg
2146.549	2.328	0	generate	Run3	generate/STIM_014.jpg
2152.181	2.256	1	generate	Run3	generate/STIM_014.jpg
2158.288	2.247	1	generate	Run3	generate/STIM_014.jpg
2163.797	1.016	0	generate	Run3	generate/STIM_015.jpg
2168.121	1.548	1	generate	Run3	generate/STIM_015.jpg
2172.122	1.65	1	generate	Run3	generate/STIM_015.jpg
2176.939	1.45	1	generate	Run3	generate/STIM_015.jpg
2180.444	1.538	1	generate	Run3	generate/STIM_015.jpg
2184.517	2.214	0	generate	Run3	generate/STIM_016.jpg
2189.327	1.608	1	generate	Run3	generate/STIM_016.jpg
2193.847	1.976	1	generate	Run3	generate/STIM_016.jpg
2199.296	1.253	0	generate	Run3	generate/STIM_016.jpg
2202.729	1.712	1	generate	Run3	generate/STIM_016.jpg
2206.651	1.869	1	generate	Run3	generate/STIM_017.jpg
2211.508	1.583	1	generate	Run3	generate/STIM_017.jpg
2215.423	1.62	1	generate	Run3	generate/STIM_017.jpg
2220.645	1.009	1	generate	Run3	generate/STIM_017.jpg
2224.0	1.07	1	generate	Run3	generate/STIM_017.jpg
2227.166	2.376	1	generate	Run3	generate/STIM_018.jpg
2232.512	1.188	1	generate	Run3	generate/STIM_018.jpg
2236.264	2.272	1	generate	Run3	generate/STIM_018.jpg
2241.877	1.307	1	generate	Run3	generate/STIM_018.jpg
2245.323	2.267	1	generate	Run3	generate/STIM_018.jpg
2249.591	1.807	1	generate	Run3	generate/STIM_019.jpg
2255.053	1.647	1	generate	Run3	generate/STIM_019.jpg
2258.707	2.076	1	generate	Run3	generate/STIM_019.jpg
2262.913	1.678	1	generate	Run3	generate/STIM_019.jpg
2267.081	1.229	1	generate	Run3	generate/STIM_019.jpg
2270.75	1.824	1	generate	Run3	generate/STIM_020.jpg
2275.631	1.38	1	generate	Run3	generate/STIM_020.jpg
2279.725	1.884	1	generate	Run3	generate/STIM_020.jpg
2285.267	1.192	1	generate	Run3	generate/STIM_020.jpg
2289.949	1.221	1	generate	Run3	generate/STIM_020.jpg
2293.994	1.224	1	generate	Run3	generate/STIM_021.jpg
2297.297	1.486	1	generate	Run3	generate/STIM_021.jpg
2301.883	2.119	1	generate	Run3	generate/STIM_021.jpg
2306.317	1.949	1	generate	Run3	generate/STIM_021.jpg
2311.797	1.889	1	generate	Run3	generate/STIM_021.jpg
2317.202	1.359	1	generate	Run3	generate/STIM_022.jpg
2321.281	1.869	1	generate	Run3	generate/STIM_022.jpg
2325.315	1.554	1	generate	Run3	generate/STIM_022.jpg
2330.584	1.853	1	generate	Run3	generate/STIM_022.jpg
2335.028	2.322	1	generate	Run3	generate/STIM_022.jpg
2341.328	1.7	1	generate	Run3	generate/STIM_023.jpg
2345.174	1.628	1	generate	Run3	generate/STIM_023.jpg
2349.902	2.299	1	generate	Run3	generate/STIM_023.jpg
2355.361	1.009	1	generate	Run3	generate/STIM_023.jpg
2359.514	2.231	1	generate	Run3	generate/STIM_023.jpg
2364.516	1.51	1	generate	Run3	generate/STIM_024.jpg
2369.392	1.065	1	generate	Run3	generate/STIM_024.jpg
2373.004	1.732	1	generate	Run3	generate/STIM_024.jpg
2377.36	1.423	0	generate	Run3	generate/STIM_024.jpg
2381.966	1.356	1	generate	Run3	generate/STIM_024.jpg
2386.421	0.6	1	repeat	Run3	repeat/STIM_000.jpg
2390.902	0.977	1	repeat	Run3	repeat/STIM_000.jpg
2395.47	0.652	1	repeat	Run3	repeat/STIM_000.jpg
2399.987	0.935	1	repeat	Run3	repeat/STIM_000.jpg
2403.467	1.018	1	repeat	Run3	repeat/STIM_000.jpg
2406.622	1.107	1	repeat	Run3	repeat/STIM_001.jpg
2409.91	0.763	1	repeat	Run3	repeat/STIM_001.jpg
2413.938	1.07	1	repeat	Run3	repeat/STIM_001.jpg
2418.701	1.126	1	repeat	Run3	repeat/STIM_001.jpg
2423.369	0.878	1	repeat	Run3	repeat/STIM_001.jpg
2426.703	0.932	1	repeat	Run3	repeat/STIM_002.jpg
2430.656	1.123	0	repeat	Run3	repeat/STIM_002.jpg
2434.065	1.003	1	repeat	Run3	repeat/STIM_002.jpg
2437.691	1.074	1	repeat	Run3	repeat/STIM_002.jpg
2442.593	0.948	1	repeat	Run3	repeat/STIM_002.jpg
2445.854	0.753	1	repeat	Run3	repeat/STIM_003.jpg
2449.257	0.98	1	repeat	Run3	repeat/STIM_003.jpg
2452.92	0.855	1	repeat	Run3	repeat/STIM_003.jpg
2456.453	0.707	1	repeat	Run3	repeat/STIM_003.jpg
2460.459	0.675	1	repeat	Run3	repeat/STIM_003.jpg
2464.535	0.851	1	repeat	Run3	repeat/STIM_004.jpg
2468.395	0.849	1	repeat	Run3	repeat/STIM_004.jpg
2472.11	0.625	1	repeat	Run3	repeat/STIM_004.jpg
2475.887	0.718	1	repeat	Run3	repeat/STIM_004.jpg
2479.629	0.746	1	repeat	Run3	repeat/STIM_004.jpg
2483.917	0.999	1	repeat	Run3	repeat/STIM_005.jpg
2488.485	0.769	1	repeat	Run3	repeat/STIM_005.jpg
2492.25	0.568	1	repeat	Run3	repeat/STIM_005.jpg
2495.798	0.887	1	repeat	Run3	repeat/STIM_005.jpg
2499.643	0.777	1	repeat	Run3	repeat/STIM_005.jpg
2504.167	0.819	1	repeat	Run3	repeat/STIM_006.jpg
2507.884	1.091	1	repeat	Run3	repeat/STIM_006.jpg
2512.346	0.972	1	repeat	Run3	repeat/STIM_006.jpg
2516.255	0.667	1	repeat	Run3	repeat/STIM_006.jpg
2519.563	1.129	1	repeat	Run3	repeat/STIM_006.jpg
2522.716	0.795	1	repeat	Run3	repeat/STIM_007.jpg
2526.506	1.113	1	repeat	Run3	repeat/STIM_007.jpg
2531.098	0.926	1	repeat	Run3	repeat/STIM_007.jpg
2534.278	1.083	1	repeat	Run3	repeat/STIM_007.jpg
2538.855	0.581	1	repeat	Run3	repeat/STIM_007.jpg
2542.388	0.893	1	repeat	Run3	repeat/STIM_008.jpg
2545.639	0.652	1	repeat	Run3	repeat/STIM_008.jpg
2550.082	0.861	1	repeat	Run3	repeat/STIM_008.jpg
2553.885	0.727	1	repeat	Run3	repeat/STIM_008.jpg
2557.117	0.917	1	repeat	Run3	repeat/STIM_008.jpg
2560.583	0.733	1	repeat	Run3	repeat/STIM_009.jpg
2564.112	0.647	1	repeat	Run3	repeat/STIM_009.jpg
2568.259	1.127	1	repeat	Run3	repeat/STIM_009.jpg
2572.37	0.705	1	repeat	Run3	repeat/STIM_009.jpg
2575.3	0.714	1	repeat	Run3	repeat/STIM_009.jpg
2578.467	0.939	1	repeat	Run3	repeat/STIM_010.jpg
2583.052	1.131	1	repeat	Run3	repeat/STIM_010.jpg
2587.493	0.816	1	repeat	Run3	repeat/STIM_010.jpg
2591.894	0.866	1	repeat	Run3	repeat/STIM_010.jpg
2595.715	1.011	1	repeat	Run3	repeat/STIM_010.jpg
2599.947	1.075	1	repeat	Run3	repeat/STIM_011.jpg
2604.904	0.914	1	repeat	Run3	repeat/STIM_011.jpg
2608.311	0.865	1	repeat	Run3	repeat/STIM_011.jpg
2613.013	1.038	1	repeat	Run3	repeat/STIM_011.jpg
2617.307	1.018	1	repeat	Run3	repeat/STIM_011.jpg
2621.27	0.86	1	repeat	Run3	repeat/STIM_012.jpg
2624.71	0.665	1	repeat	Run3	repeat/STIM_012.jpg
2628.975	0.945	1	repeat	Run3	repeat/STIM_012.jpg
2633.371	0.96	1	repeat	Run3	repeat/STIM_012.jpg
2638.112	0.736	1	repeat	Run3	repeat/STIM_012.jpg
2641.553	0.928	1	repeat	Run3	repeat/STIM_013.jpg
2646.45	1.088	1	repeat	Run3	repeat/STIM_013.jpg
2649.59	0.618	1	repeat	Run3	repeat/STIM_013.jpg
2653.723	0.848	1	repeat	Run3	repeat/STIM_013.jpg
2658.311	0.998	1	repeat	Run3	repeat/STIM_013.jpg
2661.906	0.936	1	repeat	Run3	repeat/STIM_014.jpg
2664.92	0.586	1	repeat	Run3	repeat/STIM_014.jpg
2668.693	0.913	1	repeat	Run3	repeat/STIM_014.jpg
2673.529	0.886	1	repeat	Run3	repeat/STIM_014.jpg
2677.163	0.911	1	repeat	Run3	repeat/STIM_014.jpg
2681.656	2.102	1	generate	Run4	generate/STIM_000.jpg
2685.988	1.826	1	generate	Run4	generate/STIM_000.jpg
2691.721	1.044	0	generate	Run4	generate/STIM_000.jpg
2696.657	1.987	1	generate	Run4	generate/STIM_000.jpg
2701.391	2.279	1	generate	Run4	generate/STIM_000.jpg
2705.9	1.552	1	generate	Run4	generate/STIM_001.jpg
2711.398	2.06	1	generate	Run4	generate/STIM_001.jpg
2716.006	1.608	1	generate	Run4	generate/STIM_001.jpg
2720.235	0.988	1	generate	Run4	generate/STIM_001.jpg
2724.771	2.275	1	generate	Run4	generate/STIM_001.jpg
2729.552	1.111	1	generate	Run4	generate/STIM_002.jpg
2733.517	2.252	1	generate	Run4	generate/STIM_002.jpg
2739.547	1.931	1	generate	Run4	generate/STIM_002.jpg
2743.91	1.706	1	generate	Run4	generate/STIM_002.jpg
2749.108	2.222	1	generate	Run4	generate/STIM_002.jpg
2754.618	1.989	1	generate	Run4	generate/STIM_003.jpg
2759.477	1.06	1	generate	Run4	generate/STIM_003.jpg
2763.765	1.068	1	generate	Run4	generate/STIM_003.jpg
2768.645	1.319	1	generate	Run4	generate/STIM_003.jpg
2773.337	2.34	1	generate	Run4	generate/STIM_003.jpg
2779.064	2.162	1	generate	Run4	generate/STIM_004.jpg
2784.353	1.559	1	generate	Run4	generate/STIM_004.jpg
2789.037	1.976	1	generate	Run4	generate/STIM_004.jpg
2793.209	2.266	1	generate	Run4	generate/STIM_004.jpg
2799.183	2.084	1	generate	Run4	generate/STIM_004.jpg
2804.099	1.118	1	generate	Run4	generate/STIM_005.jpg
2807.641	2.195	1	generate	Run4	generate/STIM_005.jpg
2812.987	2.142	1	generate	Run4	generate/STIM_005.jpg
2817.174	1.91	1	generate	Run4	generate/STIM_005.jpg
2821.656	1.682	0	generate	Run4	generate/STIM_005.jpg
2826.5	1.342	1	generate	Run4	generate/STIM_006.jpg
2830.407	2.379	1	generate	Run4	generate/STIM_006.jpg
2834.806	1.541	1	generate	Run4	generate/STIM_006.jpg
2839.661	1.642	1	generate	Run4	generate/STIM_006.jpg
2843.647	1.932	1	generate	Run4	generate/STIM_006.jpg
2848.321	2.0	1	generate	Run4	generate/STIM_007.jpg
2853.089	2.236	1	generate	Run4	generate/STIM_007.jpg
2858.506	1.07	1	generate	Run4	generate/STIM_007.jpg
2862.359	1.438	0	generate	Run4	generate/STIM_007.jpg
2866.948	0.972	1	generate	Run4	generate/STIM_007.jpg
2870.978	1.174	1	generate	Run4	generate/STIM_008.jpg
2876.0	1.428	1	generate	Run4	generate/STIM_008.jpg
2880.027	1.794	1	generate	Run4	generate/STIM_008.jpg
2884.14	2.368	1	generate	Run4	generate/STIM_008.jpg
2890.373	1.432	1	generate	Run4	generate/STIM_008.jpg
2895.282	1.493	1	generate	Run4	generate/STIM_009.jpg
2899.006	2.31	1	generate	Run4	generate/STIM_009.jpg
2904.059	1.393	1	generate	Run4	generate/STIM_009.jpg
2908.79	1.77	1	generate	Run4	generate/STIM_009.jpg
2912.695	1.737	1	generate	Run4	generate/STIM_009.jpg
2918.378	2.021	1	generate	Run4	generate/STIM_010.jpg
2923.758	2.336	1	generate	Run4	generate/STIM_010.jpg
2929.102	2.36	1	generate	Run4	generate/STIM_010.jpg
2934.732	2.064	1	generate	Run4	generate/STIM_010.jpg
2939.349	1.612	1	generate	Run4	generate/STIM_010.jpg
2943.117	1.334	1	generate	Run4	generate/STIM_011.jpg
2946.757	1.603	1	generate	Run4	generate/STIM_011.jpg
2951.812	2.087	1	generate	Run4	generate/STIM_011.jpg
2956.641	1.185	1	generate	Run4	generate/STIM_011.jpg
2961.075	1.178	1	generate	Run4	generate/STIM_011.jpg
2964.785	0.957	1	generate	Run4	generate/STIM_012.jpg
2969.26	2.016	1	generate	Run4	generate/STIM_012.jpg
2973.761	2.086	1	generate	Run4	generate/STIM_012.jpg
2979.041	1.07	1	generate	Run4	generate/STIM_012.jpg
2983.89	1.373	1	generate	Run4	generate/STIM_012.jpg
2989.198	1.694	1	generate	Run4	generate/STIM_013.jpg
2993.221	1.059	1	generate	Run4	generate/STIM_013.jpg
2997.62	2.276	1	generate	Run4	generate/STIM_013.jpg
3002.222	1.457	1	generate	Run4	generate/STIM_013.jpg
3007.403	1.474	1	generate	Run4	generate/STIM_013.jpg
3011.31	2.052	1	generate	Run4	generate/STIM_014.jpg
3015.651	2.109	1	generate	Run4	generate/STIM_014.jpg
3020.491	1.258	1	generate	Run4	generate/STIM_014.jpg
3025.341	1.703	1	generate	Run4	generate/STIM_014.jpg
3029.95	1.159	1	generate	Run4	generate/STIM_014.jpg
3034.513	1.858	1	generate	Run4	generate/STIM_015.jpg
3039.174	1.363	1	generate	Run4	generate/STIM_015.jpg
3043.005	2.196	1	generate	Run4	generate/STIM_015.jpg
3048.874	2.22	1	generate	Run4	generate/STIM_015.jpg
3053.242	1.289	1	generate	Run4	generate/STIM_015.jpg
3058.454	1.438	1	generate	Run4	generate/STIM_016.jpg
3061.964	1.657	1	generate	Run4	generate/STIM_016.jpg
3066.956	1.446	1	generate	Run4	generate/STIM_016.jpg
3071.806	1.462	1	generate	Run4	generate/STIM_016.jpg
3075.493	1.32	1	generate	Run4	generate/STIM_016.jpg
3079.898	0.976	1	generate	Run4	generate/STIM_017.jpg
3083.262	1.684	1	generate	Run4	generate/STIM_017.jpg
3088.507	1.1	1	generate	Run4	generate/STIM_017.jpg
3093.312	1.928	1	generate	Run4	generate/STIM_017.jpg
3097.963	1.085	1	generate	Run4	generate/STIM_017.jpg
3102.019	1.208	1	generate	Run4	generate/STIM_018.jpg
3105.706	2.153	1	generate	Run4	generate/STIM_018.jpg
3111.532	2.021	1	generate	Run4	generate/STIM_018.jpg
3115.871	1.466	0	generate	Run4	generate/STIM_018.jpg
3119.439	2.081	1	generate	Run4	generate/STIM_018.jpg
3124.776	1.455	1	generate	Run4	generate/STIM_019.jpg
3129.314	1.431	1	generate	Run4	generate/STIM_019.jpg
3132.843	1.401	1	generate	Run4	generate/STIM_019.jpg
3136.974	0.97	1	generate	Run4	generate/STIM_019.jpg
3140.373	1.947	1	generate	Run4	generate/STIM_019.jpg
3145.354	2.118	1	generate	Run4	generate/STIM_020.jpg
3151.003	1.605	1	generate	Run4	generate/STIM_020.jpg
3155.544	1.369	1	generate	Run4	generate/STIM_020.jpg
3160.012	1.948	1	generate	Run4	generate/STIM_020.jpg
3165.34	1.689	1	generate	Run4	generate/STIM_020.jpg
3170.074	1.485	1	generate	Run4	generate/STIM_021.jpg
3174.515	2.02	1	generate	Run4	generate/STIM_021.jpg
3179.352	1.359	1	generate	Run4	generate/STIM_021.jpg
3183.007	1.726	1	generate	Run4	generate/STIM_021.jpg
3186.883	1.779	1	generate	Run4	generate/STIM_021.jpg
3192.554	0.991	1	generate	Run4	generate/STIM_022.jpg
3196.906	1.927	1	generate	Run4	generate/STIM_022.jpg
3201.883	1.393	1	generate	Run4	generate/STIM_022.jpg
3205.769	1.755	1	generate	Run4	generate/STIM_022.jpg
3210.767	1.157	1	generate	Run4	generate/STIM_022.jpg
3214.702	1.705	1	generate	Run4	generate/STIM_023.jpg
3220.28	1.451	1	generate	Run4	generate/STIM_023.jpg
3224.995	0.981	1	generate	Run4	generate/STIM_023.jpg
3228.455	1.606	1	generate	Run4	generate/STIM_023.jpg
3233.171	1.314	1	generate	Run4	generate/STIM_023.jpg
3237.141	1.683	1	generate	Run4	generate/STIM_024.jpg
3242.778	1.536	1	generate	Run4	generate/STIM_024.jpg
3246.352	1.858	1	generate	Run4	generate/STIM_024.jpg
3250.96	1.52	1	generate	Run4	generate/STIM_024.jpg
3255.936	1.689	1	generate	Run4	generate/STIM_024.jpg
3260.993	0.799	1	repeat	Run4	repeat/STIM_000.jpg
3263.865	0.62	1	repeat	Run4	repeat/STIM_000.jpg
3266.999	0.661	1	repeat	Run4	repeat/STIM_000.jpg
3269.783	1.106	1	repeat	Run4	repeat/STIM_000.jpg
3273.499	0.883	1	repeat	Run4	repeat/STIM_000.jpg
3276.786	0.907	1	repeat	Run4	repeat/STIM_001.jpg
3280.107	0.78	1	repeat	Run4	repeat/STIM_001.jpg
3282.956	0.569	1	repeat	Run4	repeat/STIM_001.jpg
3286.381	1.072	1	repeat	Run4	repeat/STIM_001.jpg
3289.603	1.005	1	repeat	Run4	repeat/STIM_001.jpg
3292.617	0.798	1	repeat	Run4	repeat/STIM_002.jpg
3297.284	1.013	1	repeat	Run4	repeat/STIM_002.jpg
3301.704	1.016	1	repeat	Run4	repeat/STIM_002.jpg
3304.761	0.758	1	repeat	Run4	repeat/STIM_002.jpg
3308.818	0.776	1	repeat	Run4	repeat/STIM_002.jpg
3313.255	0.911	1	repeat	Run4	repeat/STIM_003.jpg
3316.451	0.645	1	repeat	Run4	repeat/STIM_003.jpg
3320.542	0.649	1	repeat	Run4	repeat/STIM_003.jpg
3325.19	0.99	1	repeat	Run4	repeat/STIM_003.jpg
3329.997	1.111	1	repeat	Run4	repeat/STIM_003.jpg
3334.608	1.104	1	repeat	Run4	repeat/STIM_004.jpg
3338.6	0.68	1	repeat	Run4	repeat/STIM_004.jpg
3341.398	0.954	1	repeat	Run4	repeat/STIM_004.jpg
3345.782	0.645	1	repeat	Run4	repeat/STIM_004.jpg
3349.219	0.866	1	repeat	Run4	repeat/STIM_004.jpg
3353.115	0.787	1	repeat	Run4	repeat/STIM_005.jpg
3356.983	0.597	1	repeat	Run4	repeat/STIM_005.jpg
3360.973	0.665	0	repeat	Run4	repeat/STIM_005.jpg
3363.872	1.013	1	repeat	Run4	repeat/STIM_005.jpg
3367.143	1.106	1	repeat	Run4	repeat/STIM_005.jpg
3371.78	0.738	1	repeat	Run4	repeat/STIM_006.jpg
3374.848	0.961	1	repeat	Run4	repeat/STIM_006.jpg
3378.982	1.109	0	repeat	Run4	repeat/STIM_006.jpg
3382.936	0.579	1	repeat	Run4	repeat/STIM_006.jpg
3386.404	1.022	1	repeat	Run4	repeat/STIM_006.jpg
3389.485	1.005	1	repeat	Run4	repeat/STIM_007.jpg
3393.083	0.923	0	repeat	Run4	repeat/STIM_007.jpg
3396.683	0.767	1	repeat	Run4	repeat/STIM_007.jpg
3399.67	0.806	1	repeat	Run4	repeat/STIM_007.jpg
3403.805	0.724	1	repeat	Run4	repeat/STIM_007.jpg
3407.854	1.01	1	repeat	Run4	repeat/STIM_008.jpg
3411.375	0.971	1	repeat	Run4	repeat/STIM_008.jpg
3416.212	0.809	1	repeat	Run4	repeat/STIM_008.jpg
3420.088	0.822	1	repeat	Run4	repeat/STIM_008.jpg
3424.723	1.088	1	repeat	Run4	repeat/STIM_008.jpg
3428.912	0.866	1	repeat	Run4	repeat/STIM_009.jpg
3433.293	1.079	1	repeat	Run4	repeat/STIM_009.jpg
3437.085	0.738	0	repeat	Run4	repeat/STIM_009.jpg
3440.031	0.788	1	repeat	Run4	repeat/STIM_009.jpg
3443.658	1.068	1	repeat	Run4	repeat/STIM_009.jpg
3448.451	1.054	1	repeat	Run4	repeat/STIM_010.jpg
3452.515	0.692	1	repeat	Run4	repeat/STIM_010.jpg
3455.589	0.798	1	repeat	Run4	repeat/STIM_010.jpg
3459.722	0.698	1	repeat	Run4	repeat/STIM_010.jpg
3462.61	1.045	1	repeat	Run4	repeat/STIM_010.jpg
3466.972	0.79	1	repeat	Run4	repeat/STIM_011.jpg
3470.951	1.033	1	repeat	Run4	repeat/STIM_011.jpg
3474.487	1.126	1	repeat	Run4	repeat/STIM_011.jpg
3478.294	0.676	1	repeat	Run4	repeat/STIM_011.jpg
3482.631	0.919	1	repeat	Run4	repeat/STIM_011.jpg
3486.895	1.091	1	repeat	Run4	repeat/STIM_012.jpg
3490.41	0.567	1	repeat	Run4	repeat/STIM_012.jpg
3494.683	1.04	1	repeat	Run4	repeat/STIM_012.jpg
3499.259	0.876	1	repeat	Run4	repeat/STIM_012.jpg
3503.97	0.858	1	repeat	Run4	repeat/STIM_012.jpg
3507.691	0.971	1	repeat	Run4	repeat/STIM_013.jpg
3512.64	0.981	1	repeat	Run4	repeat/STIM_013.jpg
3516.089	0.846	1	repeat	Run4	repeat/STIM_013.jpg
3519.276	0.93	1	repeat	Run4	repeat/STIM_013.jpg
3522.432	1.055	1	repeat	Run4	repeat/STIM_013.jpg
3526.427	0.94	1	repeat	Run4	repeat/STIM_014.jpg
3530.877	0.867	1	repeat	Run4	repeat/STIM_014.jpg
3534.216	0.782	0	repeat	Run4	repeat/STIM_014.jpg
3537.111	0.913	1	repeat	Run4	repeat/STIM_014.jpg
3541.13	0.931	1	repeat	Run4	repeat/STIM_014.jpg
