onset	duration	accuracy	trial_type	learning_stage	stimulus
0.0	2.19	correct	generate	Run1	generate/STIM_000.jpg
5.774	1.28	incorrect	generate	Run1	generate/STIM_000.jpg
10.42	1.261	correct	generate	Run1	generate/STIM_000.jpg
14.826	2.339	incorrect	generate	Run1	generate/STIM_000.jpg
20.541	0.972	correct	generate	Run1	generate/STIM_000.jpg
24.804	1.574	correct	generate	Run1	generate/STIM_001.jpg
29.397	1.804	correct	generate	Run1	generate/STIM_001.jpg
34.042	2.065	correct	generate	Run1	generate/STIM_001.jpg
39.13	2.115	correct	generate	Run1	generate/STIM_001.jpg
44.502	2.007	correct	generate	Run1	generate/STIM_001.jpg
48.765	1.671	correct	generate	Run1	generate/STIM_002.jpg
53.183	2.65	correct	generate	Run1	generate/STIM_002.jpg
58.624	1.99	incorrect	generate	Run1	generate/STIM_002.jpg
63.667	1.354	incorrect	generate	Run1	generate/STIM_002.jpg
68.305	2.345	correct	generate	Run1	generate/STIM_002.jpg
73.643	1.44	correct	generate	Run1	generate/STIM_003.jpg
78.517	2.352	correct	generate	Run1	generate/STIM_003.jpg
84.762	2.198	correct	generate	Run1	generate/STIM_003.jpg
89.123	1.418	correct	generate	Run1	generate/STIM_003.jpg
94.04	1.185	correct	generate	Run1	generate/STIM_003.jpg
99.101	1.929	correct	generate	Run1	generate/STIM_004.jpg
104.041	2.602	correct	generate	Run1	generate/STIM_004.jpg
109.458	1.417	correct	generate	Run1	generate/STIM_004.jpg
113.148	2.276	incorrect	generate	Run1	generate/STIM_004.jpg
118.54	1.598	correct	generate	Run1	generate/STIM_004.jpg
123.741	2.234	correct	generate	Run1	generate/STIM_005.jpg
128.4	1.372	correct	generate	Run1	generate/STIM_005.jpg
131.934	1.756	correct	generate	Run1	generate/STIM_005.jpg
137.592	1.975	incorrect	generate	Run1	generate/STIM_005.jpg
142.738	1.002	correct	generate	Run1	generate/STIM_005.jpg
147.593	2.059	incorrect	generate	Run1	generate/STIM_006.jpg
152.225	1.886	incorrect	generate	Run1	generate/STIM_006.jpg
157.804	2.078	correct	generate	Run1	generate/STIM_006.jpg
163.685	2.09	correct	generate	Run1	generate/STIM_006.jpg
169.384	1.686	correct	generate	Run1	generate/STIM_006.jpg
173.501	2.951	correct	generate	Run1	generate/STIM_007.jpg
179.111	2.239	correct	generate	Run1	generate/STIM_007.jpg
183.48	1.615	correct	generate	Run1	generate/STIM_007.jpg
187.459	2.303	correct	generate	Run1	generate/STIM_007.jpg
192.668	1.988	correct	generate	Run1	generate/STIM_007.jpg
198.463	1.4	incorrect	generate	Run1	generate/STIM_008.jpg
203.6	1.589	correct	generate	Run1	generate/STIM_008.jpg
207.794	1.07	correct	generate	Run1	generate/STIM_008.jpg
212.405	1.263	correct	generate	Run1	generate/STIM_008.jpg
216.158	1.878	correct	generate	Run1	generate/STIM_008.jpg
220.918	2.025	correct	generate	Run1	generate/STIM_009.jpg
225.96	1.775	correct	generate	Run1	generate/STIM_009.jpg
231.242	1.818	incorrect	generate	Run1	generate/STIM_009.jpg
235.761	1.949	correct	generate	Run1	generate/STIM_009.jpg
241.269	2.203	incorrect	generate	Run1	generate/STIM_009.jpg
247.171	2.836	incorrect	generate	Run1	generate/STIM_010.jpg
252.241	2.328	incorrect	generate	Run1	generate/STIM_010.jpg
256.836	1.092	correct	generate	Run1	generate/STIM_010.jpg
260.599	1.716	correct	generate	Run1	generate/STIM_010.jpg
264.881	1.99	correct	generate	Run1	generate/STIM_010.jpg
268.958	2.358	correct	generate	Run1	generate/STIM_011.jpg
275.067	2.054	correct	generate	Run1	generate/STIM_011.jpg
280.373	1.608	correct	generate	Run1	generate/STIM_011.jpg
285.745	1.655	correct	generate	Run1	generate/STIM_011.jpg
290.944	1.514	correct	generate	Run1	generate/STIM_011.jpg
294.999	2.536	correct	generate	Run1	generate/STIM_012.jpg
300.183	2.242	incorrect	generate	Run1	generate/STIM_012.jpg
305.465	2.168	correct	generate	Run1	generate/STIM_012.jpg
309.776	1.232	correct	generate	Run1	generate/STIM_012.jpg
314.234	1.612	correct	generate	Run1	generate/STIM_012.jpg
319.462	2.19	correct	generate	Run1	generate/STIM_013.jpg
325.34	2.336	correct	generate	Run1	generate/STIM_013.jpg
331.25	1.622	correct	generate	Run1	generate/STIM_013.jpg
335.127	1.816	correct	generate	Run1	generate/STIM_013.jpg
339.292	1.979	correct	generate	Run1	generate/STIM_013.jpg
343.89	2.361	correct	generate	Run1	generate/STIM_014.jpg
349.159	1.612	incorrect	generate	Run1	generate/STIM_014.jpg
354.207	1.643	incorrect	generate	Run1	generate/STIM_014.jpg
359.609	2.342	correct	generate	Run1	generate/STIM_014.jpg
364.018	1.027	correct	generate	Run1	generate/STIM_014.jpg
367.13	2.486	correct	generate	Run1	generate/STIM_015.jpg
372.613	2.011	incorrect	generate	Run1	generate/STIM_015.jpg
378.543	2.084	incorrect	generate	Run1	generate/STIM_015.jpg
383.239	1.862	correct	generate	Run1	generate/STIM_015.jpg
387.761	2.183	incorrect	generate	Run1	generate/STIM_015.jpg
393.023	1.669	correct	generate	Run1	generate/STIM_016.jpg
397.571	1.969	correct	generate	Run1	generate/STIM_016.jpg
402.202	2.64	correct	generate	Run1	generate/STIM_016.jpg
407.491	1.457	correct	generate	Run1	generate/STIM_016.jpg
411.341	0.964	correct	generate	Run1	generate/STIM_016.jpg
415.234	1.2	correct	generate	Run1	generate/STIM_017.jpg
419.316	1.481	correct	generate	Run1	generate/STIM_017.jpg
424.051	2.238	correct	generate	Run1	generate/STIM_017.jpg
428.766	1.995	correct	generate	Run1	generate/STIM_017.jpg
434.374	1.391	correct	generate	Run1	generate/STIM_017.jpg
439.338	2.642	correct	generate	Run1	generate/STIM_018.jpg
445.058	1.292	incorrect	generate	Run1	generate/STIM_018.jpg
449.194	1.413	incorrect	generate	Run1	generate/STIM_018.jpg
453.583	1.092	correct	generate	Run1	generate/STIM_018.jpg
457.783	2.086	correct	generate	Run1	generate/STIM_018.jpg
463.125	1.337	correct	generate	Run1	generate/STIM_019.jpg
467.748	2.266	incorrect	generate	Run1	generate/STIM_019.jpg
473.908	1.396	correct	generate	Run1	generate/STIM_019.jpg
478.797	1.1	correct	generate	Run1	generate/STIM_019.jpg
483.062	0.95	correct	generate	Run1	generate/STIM_019.jpg
486.872	1.767	correct	generate	Run1	generate/STIM_020.jpg
491.666	1.208	correct	generate	Run1	generate/STIM_020.jpg
495.98	1.534	correct	generate	Run1	generate/STIM_020.jpg
499.713	2.423	correct	generate	Run1	generate/STIM_020.jpg
505.06	1.858	correct	generate	Run1	generate/STIM_020.jpg
509.38	2.959	correct	generate	Run1	generate/STIM_021.jpg
515.229	1.259	correct	generate	Run1	generate/STIM_021.jpg
518.946	1.558	correct	generate	Run1	generate/STIM_021.jpg
523.667	2.488	correct	generate	Run1	generate/STIM_021.jpg
530.084	1.361	correct	generate	Run1	generate/STIM_021.jpg
534.729	1.283	correct	generate	Run1	generate/STIM_022.jpg
538.157	2.371	correct	generate	Run1	generate/STIM_022.jpg
543.927	2.053	incorrect	generate	Run1	generate/STIM_022.jpg
549.45	1.723	correct	generate	Run1	generate/STIM_022.jpg
553.337	1.34	correct	generate	Run1	generate/STIM_022.jpg
557.095	1.495	correct	generate	Run1	generate/STIM_023.jpg
561.164	1.649	correct	generate	Run1	generate/STIM_023.jpg
565.003	2.34	correct	generate	Run1	generate/STIM_023.jpg
571.31	1.055	incorrect	generate	Run1	generate/STIM_023.jpg
575.358	2.233	incorrect	generate	Run1	generate/STIM_023.jpg
579.99	2.751	correct	generate	Run1	generate/STIM_024.jpg
585.328	1.662	correct	generate	Run1	generate/STIM_024.jpg
590.28	1.087	correct	generate	Run1	generate/STIM_024.jpg
595.318	2.401	correct	generate	Run1	generate/STIM_024.jpg
600.898	1.133	correct	generate	Run1	generate/STIM_024.jpg
604.218	0.642	correct	repeat	Run1	repeat/STIM_000.jpg
608.445	0.848	correct	repeat	Run1	repeat/STIM_000.jpg
611.353	0.972	correct	repeat	Run1	repeat/STIM_000.jpg
614.83	0.944	correct	repeat	Run1	repeat/STIM_000.jpg
618.945	0.553	correct	repeat	Run1	repeat/STIM_000.jpg
622.652	0.547	correct	repeat	Run1	repeat/STIM_001.jpg
626.26	0.545	correct	repeat	Run1	repeat/STIM_001.jpg
629.937	0.569	correct	repeat	Run1	repeat/STIM_001.jpg
634.114	0.88	correct	repeat	Run1	repeat/STIM_001.jpg
637.658	0.619	correct	repeat	Run1	repeat/STIM_001.jpg
640.975	0.743	incorrect	repeat	Run1	repeat/STIM_002.jpg
643.933	0.629	correct	repeat	Run1	repeat/STIM_002.jpg
648.293	0.67	correct	repeat	Run1	repeat/STIM_002.jpg
652.734	0.779	correct	repeat	Run1	repeat/STIM_002.jpg
656.708	0.855	correct	repeat	Run1	repeat/STIM_002.jpg
661.475	0.886	correct	repeat	Run1	repeat/STIM_003.jpg
665.367	0.669	correct	repeat	Run1	repeat/STIM_003.jpg
668.262	0.597	correct	repeat	Run1	repeat/STIM_003.jpg
671.812	0.645	correct	repeat	Run1	repeat/STIM_003.jpg
674.511	0.837	correct	repeat	Run1	repeat/STIM_003.jpg
678.143	0.594	correct	repeat	Run1	repeat/STIM_004.jpg
681.99	0.533	correct	repeat	Run1	repeat/STIM_004.jpg
685.268	0.786	correct	repeat	Run1	repeat/STIM_004.jpg
689.39	0.908	correct	repeat	Run1	repeat/STIM_004.jpg
693.196	0.67	correct	repeat	Run1	repeat/STIM_004.jpg
697.175	0.963	correct	repeat	Run1	repeat/STIM_005.jpg
701.479	0.607	correct	repeat	Run1	repeat/STIM_005.jpg
704.575	0.528	correct	repeat	Run1	repeat/STIM_005.jpg
707.906	0.661	correct	repeat	Run1	repeat/STIM_005.jpg
711.947	0.922	incorrect	repeat	Run1	repeat/STIM_005.jpg
715.093	0.978	correct	repeat	Run1	repeat/STIM_006.jpg
719.674	0.893	correct	repeat	Run1	repeat/STIM_006.jpg
724.32	0.676	correct	repeat	Run1	repeat/STIM_006.jpg
727.105	0.717	correct	repeat	Run1	repeat/STIM_006.jpg
730.797	0.722	correct	repeat	Run1	repeat/STIM_006.jpg
733.855	0.88	incorrect	repeat	Run1	repeat/STIM_007.jpg
737.388	0.85	correct	repeat	Run1	repeat/STIM_007.jpg
740.824	0.98	correct	repeat	Run1	repeat/STIM_007.jpg
744.171	0.74	correct	repeat	Run1	repeat/STIM_007.jpg
747.482	0.789	correct	repeat	Run1	repeat/STIM_007.jpg
751.554	0.576	correct	repeat	Run1	repeat/STIM_008.jpg
755.092	0.978	correct	repeat	Run1	repeat/STIM_008.jpg
759.474	0.554	correct	repeat	Run1	repeat/STIM_008.jpg
762.935	0.946	correct	repeat	Run1	repeat/STIM_008.jpg
767.671	0.85	correct	repeat	Run1	repeat/STIM_008.jpg
771.246	0.713	correct	repeat	Run1	repeat/STIM_009.jpg
774.544	0.888	correct	repeat	Run1	repeat/STIM_009.jpg
778.408	0.546	correct	repeat	Run1	repeat/STIM_009.jpg
781.149	0.772	correct	repeat	Run1	repeat/STIM_009.jpg
785.193	0.918	correct	repeat	Run1	repeat/STIM_009.jpg
788.967	0.852	correct	repeat	Run1	repeat/STIM_010.jpg
792.209	0.803	correct	repeat	Run1	repeat/STIM_010.jpg
795.537	0.91	incorrect	repeat	Run1	repeat/STIM_010.jpg
798.716	0.858	correct	repeat	Run1	repeat/STIM_010.jpg
802.23	0.881	correct	repeat	Run1	repeat/STIM_010.jpg
806.944	0.758	correct	repeat	Run1	repeat/STIM_011.jpg
811.497	0.889	correct	repeat	Run1	repeat/STIM_011.jpg
815.894	0.529	correct	repeat	Run1	repeat/STIM_011.jpg
818.52	0.937	correct	repeat	Run1	repeat/STIM_011.jpg
823.002	0.51	correct	repeat	Run1	repeat/STIM_011.jpg
826.325	0.949	correct	repeat	Run1	repeat/STIM_012.jpg
830.12	0.652	correct	repeat	Run1	repeat/STIM_012.jpg
833.874	0.876	correct	repeat	Run1	repeat/STIM_012.jpg
838.134	0.702	correct	repeat	Run1	repeat/STIM_012.jpg
841.51	0.761	correct	repeat	Run1	repeat/STIM_012.jpg
845.874	0.59	correct	repeat	Run1	repeat/STIM_013.jpg
850.46	0.818	correct	repeat	Run1	repeat/STIM_013.jpg
854.99	0.84	correct	repeat	Run1	repeat/STIM_013.jpg
858.491	0.624	correct	repeat	Run1	repeat/STIM_013.jpg
861.186	0.568	correct	repeat	Run1	repeat/STIM_013.jpg
865.49	0.975	correct	repeat	Run1	repeat/STIM_014.jpg
868.891	0.864	correct	repeat	Run1	repeat/STIM_014.jpg
871.889	0.979	correct	repeat	Run1	repeat/STIM_014.jpg
874.921	0.606	correct	repeat	Run1	repeat/STIM_014.jpg
879.181	0.888	correct	repeat	Run1	repeat/STIM_014.jpg
882.605	2.124	correct	generate	Run2	generate/STIM_000.jpg
888.727	1.47	correct	generate	Run2	generate/STIM_000.jpg
893.265	1.823	correct	generate	Run2	generate/STIM_000.jpg
898.038	1.992	correct	generate	Run2	generate/STIM_000.jpg
902.578	1.31	incorrect	generate	Run2	generate/STIM_000.jpg
906.396	2.33	correct	generate	Run2	generate/STIM_001.jpg
911.164	1.415	correct	generate	Run2	generate/STIM_001.jpg
915.678	1.199	correct	generate	Run2	generate/STIM_001.jpg
919.22	1.76	correct	generate	Run2	generate/STIM_001.jpg
924.743	2.018	correct	generate	Run2	generate/STIM_001.jpg
930.557	1.167	incorrect	generate	Run2	generate/STIM_002.jpg
934.96	2.208	correct	generate	Run2	generate/STIM_002.jpg
939.877	2.215	correct	generate	Run2	generate/STIM_002.jpg
945.427	1.726	correct	generate	Run2	generate/STIM_002.jpg
951.138	1.294	incorrect	generate	Run2	generate/STIM_002.jpg
954.751	1.072	correct	generate	Run2	generate/STIM_003.jpg
958.189	1.236	correct	generate	Run2	generate/STIM_003.jpg
962.198	1.336	incorrect	generate	Run2	generate/STIM_003.jpg
966.912	1.589	incorrect	generate	Run2	generate/STIM_003.jpg
971.585	1.766	correct	generate	Run2	generate/STIM_003.jpg
976.884	1.246	correct	generate	Run2	generate/STIM_004.jpg
981.955	1.784	incorrect	generate	Run2	generate/STIM_004.jpg
986.511	1.477	correct	generate	Run2	generate/STIM_004.jpg
990.047	1.318	correct	generate	Run2	generate/STIM_004.jpg
994.226	1.822	correct	generate	Run2	generate/STIM_004.jpg
998.584	2.088	correct	generate	Run2	generate/STIM_005.jpg
1004.392	1.085	correct	generate	Run2	generate/STIM_005.jpg
1008.113	1.309	correct	generate	Run2	generate/STIM_005.jpg
1011.475	1.923	correct	generate	Run2	generate/STIM_005.jpg
1016.45	1.8	correct	generate	Run2	generate/STIM_005.jpg
1021.436	1.764	correct	generate	Run2	generate/STIM_006.jpg
1026.054	1.877	incorrect	generate	Run2	generate/STIM_006.jpg
1031.711	0.963	incorrect	generate	Run2	generate/STIM_006.jpg
1035.234	1.046	correct	generate	Run2	generate/STIM_006.jpg
1038.414	1.026	correct	generate	Run2	generate/STIM_006.jpg
1043.361	1.779	correct	generate	Run2	generate/STIM_007.jpg
1047.224	1.939	correct	generate	Run2	generate/STIM_007.jpg
1051.549	1.03	correct	generate	Run2	generate/STIM_007.jpg
1056.335	1.914	correct	generate	Run2	generate/STIM_007.jpg
1062.042	1.348	correct	generate	Run2	generate/STIM_007.jpg
1066.427	1.449	correct	generate	Run2	generate/STIM_008.jpg
1071.232	2.311	correct	generate	Run2	generate/STIM_008.jpg
1076.671	2.12	correct	generate	Run2	generate/STIM_008.jpg
1081.301	1.287	correct	generate	Run2	generate/STIM_008.jpg
1084.924	1.588	correct	generate	Run2	generate/STIM_008.jpg
1088.596	1.731	correct	generate	Run2	generate/STIM_009.jpg
1092.724	1.149	correct	generate	Run2	generate/STIM_009.jpg
1097.721	1.663	correct	generate	Run2	generate/STIM_009.jpg
1102.372	2.018	correct	generate	Run2	generate/STIM_009.jpg
1107.107	1.612	incorrect	generate	Run2	generate/STIM_009.jpg
1112.438	2.336	correct	generate	Run2	generate/STIM_010.jpg
1117.225	2.343	correct	generate	Run2	generate/STIM_010.jpg
1123.439	1.66	correct	generate	Run2	generate/STIM_010.jpg
1128.913	1.071	correct	generate	Run2	generate/STIM_010.jpg
1132.229	1.582	correct	generate	Run2	generate/STIM_010.jpg
1137.058	2.198	correct	generate	Run2	generate/STIM_011.jpg
1143.156	1.64	correct	generate	Run2	generate/STIM_011.jpg
1148.412	1.1	correct	generate	Run2	generate/STIM_011.jpg
1152.867	1.717	correct	generate	Run2	generate/STIM_011.jpg
1158.538	1.2	correct	generate	Run2	generate/STIM_011.jpg
1162.935	1.49	correct	generate	Run2	generate/STIM_012.jpg
1167.402	1.665	correct	generate	Run2	generate/STIM_012.jpg
1172.944	1.812	incorrect	generate	Run2	generate/STIM_012.jpg
1178.135	1.386	correct	generate	Run2	generate/STIM_012.jpg
1181.741	0.905	correct	generate	Run2	generate/STIM_012.jpg
1186.28	2.493	correct	generate	Run2	generate/STIM_013.jpg
1192.547	1.448	correct	generate	Run2	generate/STIM_013.jpg
1197.683	1.952	correct	generate	Run2	generate/STIM_013.jpg
1202.838	1.027	correct	generate	Run2	generate/STIM_013.jpg
1207.41	1.994	correct	generate	Run2	generate/STIM_013.jpg
1212.144	1.426	correct	generate	Run2	generate/STIM_014.jpg
1215.989	1.464	correct	generate	Run2	generate/STIM_014.jpg
1221.022	1.656	correct	generate	Run2	generate/STIM_014.jpg
1225.455	0.985	correct	generate	Run2	generate/STIM_014.jpg
1229.634	1.628	correct	generate	Run2	generate/STIM_014.jpg
1235.232	1.31	correct	generate	Run2	generate/STIM_015.jpg
1238.756	2.298	correct	generate	Run2	generate/STIM_015.jpg
1243.414	1.402	correct	generate	Run2	generate/STIM_015.jpg
1248.828	1.24	incorrect	generate	Run2	generate/STIM_015.jpg
1253.138	1.454	incorrect	generate	Run2	generate/STIM_015.jpg
1257.673	2.436	correct	generate	Run2	generate/STIM_016.jpg
1263.543	1.202	correct	generate	Run2	generate/STIM_016.jpg
1267.362	1.06	incorrect	generate	Run2	generate/STIM_016.jpg
1271.186	1.311	correct	generate	Run2	generate/STIM_016.jpg
1274.984	1.206	correct	generate	Run2	generate/STIM_016.jpg
1279.273	2.454	correct	generate	Run2	generate/STIM_017.jpg
1285.613	1.774	correct	generate	Run2	generate/STIM_017.jpg
1289.712	1.145	correct	generate	Run2	generate/STIM_017.jpg
1293.848	1.511	incorrect	generate	Run2	generate/STIM_017.jpg
1298.154	1.566	correct	generate	Run2	generate/STIM_017.jpg
1303.439	1.148	incorrect	generate	Run2	generate/STIM_018.jpg
1306.889	1.294	correct	generate	Run2	generate/STIM_018.jpg
1310.372	1.376	correct	generate	Run2	generate/STIM_018.jpg
1315.749	0.969	correct	generate	Run2	generate/STIM_018.jpg
1320.532	0.975	correct	generate	Run2	generate/STIM_018.jpg
1324.48	1.923	correct	generate	Run2	generate/STIM_019.jpg
1329.126	2.249	correct	generate	Run2	generate/STIM_019.jpg
1335.293	2.147	correct	generate	Run2	generate/STIM_019.jpg
1340.007	1.056	correct	generate	Run2	generate/STIM_019.jpg
1343.641	1.724	correct	generate	Run2	generate/STIM_019.jpg
1349.356	1.592	correct	generate	Run2	generate/STIM_020.jpg
1353.32	1.309	correct	generate	Run2	generate/STIM_020.jpg
1356.67	1.544	correct	generate	Run2	generate/STIM_020.jpg
1360.324	1.512	correct	generate	Run2	generate/STIM_020.jpg
1365.001	1.408	correct	generate	Run2	generate/STIM_020.jpg
1368.498	1.082	correct	generate	Run2	generate/STIM_021.jpg
1372.949	1.188	correct	generate	Run2	generate/STIM_021.jpg
1377.361	1.718	incorrect	generate	Run2	generate/STIM_021.jpg
1382.066	1.913	correct	generate	Run2	generate/STIM_021.jpg
1386.163	1.268	correct	generate	Run2	generate/STIM_021.jpg
1390.159	1.639	correct	generate	Run2	generate/STIM_022.jpg
1394.082	2.266	correct	generate	Run2	generate/STIM_022.jpg
1399.72	1.427	incorrect	generate	Run2	generate/STIM_022.jpg
1404.097	1.512	correct	generate	Run2	generate/STIM_022.jpg
1408.041	1.247	correct	generate	Run2	generate/STIM_022.jpg
1412.698	1.062	correct	generate	Run2	generate/STIM_023.jpg
1417.427	2.283	correct	generate	Run2	generate/STIM_023.jpg
1423.569	2.172	correct	generate	Run2	generate/STIM_023.jpg
1428.464	0.894	incorrect	generate	Run2	generate/STIM_023.jpg
1431.902	0.936	correct	generate	Run2	generate/STIM_023.jpg
1436.747	2.29	correct	generate	Run2	generate/STIM_024.jpg
1442.541	2.22	incorrect	generate	Run2	generate/STIM_024.jpg
1446.81	1.933	incorrect	generate	Run2	generate/STIM_024.jpg
1452.346	1.124	correct	generate	Run2	generate/STIM_024.jpg
1455.774	1.912	correct	generate	Run2	generate/STIM_024.jpg
1460.262	0.954	correct	repeat	Run2	repeat/STIM_000.jpg
1463.967	0.905	correct	repeat	Run2	repeat/STIM_000.jpg
1468.097	0.561	correct	repeat	Run2	repeat/STIM_000.jpg
1471.537	0.585	correct	repeat	Run2	repeat/STIM_000.jpg
1475.408	0.808	correct	repeat	Run2	repeat/STIM_000.jpg
1479.5	0.585	correct	repeat	Run2	repeat/STIM_001.jpg
1483.116	0.686	correct	repeat	Run2	repeat/STIM_001.jpg
1486.588	0.733	correct	repeat	Run2	repeat/STIM_001.jpg
1489.531	0.89	correct	repeat	Run2	repeat/STIM_001.jpg
1494.221	0.731	correct	repeat	Run2	repeat/STIM_001.jpg
1497.477	0.541	correct	repeat	Run2	repeat/STIM_002.jpg
1501.67	0.824	correct	repeat	Run2	repeat/STIM_002.jpg
1505.518	0.535	correct	repeat	Run2	repeat/STIM_002.jpg
1508.928	0.52	correct	repeat	Run2	repeat/STIM_002.jpg
1511.818	0.939	correct	repeat	Run2	repeat/STIM_002.jpg
1516.543	0.533	correct	repeat	Run2	repeat/STIM_003.jpg
1519.312	0.716	correct	repeat	Run2	repeat/STIM_003.jpg
1522.849	0.79	correct	repeat	Run2	repeat/STIM_003.jpg
1527.093	0.634	correct	repeat	Run2	repeat/STIM_003.jpg
1530.932	0.778	correct	repeat	Run2	repeat/STIM_003.jpg
1534.84	0.661	correct	repeat	Run2	repeat/STIM_004.jpg
1537.562	0.564	correct	repeat	Run2	repeat/STIM_004.jpg
1540.752	0.552	correct	repeat	Run2	repeat/STIM_004.jpg
1544.736	0.887	correct	repeat	Run2	repeat/STIM_004.jpg
1547.908	0.53	correct	repeat	Run2	repeat/STIM_004.jpg
1551.568	0.937	correct	repeat	Run2	repeat/STIM_005.jpg
1554.83	0.964	incorrect	repeat	Run2	repeat/STIM_005.jpg
1558.977	0.615	incorrect	repeat	Run2	repeat/STIM_005.jpg
1561.992	0.801	correct	repeat	Run2	repeat/STIM_005.jpg
1565.595	0.944	correct	repeat	Run2	repeat/STIM_005.jpg
1570.131	0.708	correct	repeat	Run2	repeat/STIM_006.jpg
1574.47	0.588	correct	repeat	Run2	repeat/STIM_006.jpg
1577.743	0.959	correct	repeat	Run2	repeat/STIM_006.jpg
1582.212	0.691	correct	repeat	Run2	repeat/STIM_006.jpg
1585.803	0.771	correct	repeat	Run2	repeat/STIM_006.jpg
1590.364	0.804	correct	repeat	Run2	repeat/STIM_007.jpg
1593.955	0.692	correct	repeat	Run2	repeat/STIM_007.jpg
1597.308	0.596	correct	repeat	Run2	repeat/STIM_007.jpg
1600.727	0.911	correct	repeat	Run2	repeat/STIM_007.jpg
1604.846	0.665	correct	repeat	Run2	repeat/STIM_007.jpg
1608.678	0.805	correct	repeat	Run2	repeat/STIM_008.jpg
1612.969	0.711	correct	repeat	Run2	repeat/STIM_008.jpg
1617.315	0.896	incorrect	repeat	Run2	repeat/STIM_008.jpg
1622.068	0.607	incorrect	repeat	Run2	repeat/STIM_008.jpg
1625.595	0.514	incorrect	repeat	Run2	repeat/STIM_008.jpg
1629.284	0.587	correct	repeat	Run2	repeat/STIM_009.jpg
1633.342	0.909	correct	repeat	Run2	repeat/STIM_009.jpg
1637.695	0.543	correct	repeat	Run2	repeat/STIM_009.jpg
1642.051	0.69	correct	repeat	Run2	repeat/STIM_009.jpg
1645.806	0.765	correct	repeat	Run2	repeat/STIM_009.jpg
1650.007	0.893	correct	repeat	Run2	repeat/STIM_010.jpg
1653.92	0.646	correct	repeat	Run2	repeat/STIM_010.jpg
1658.061	0.81	correct	repeat	Run2	repeat/STIM_010.jpg
1661.741	0.977	correct	repeat	Run2	repeat/STIM_010.jpg
1665.498	0.876	correct	repeat	Run2	repeat/STIM_010.jpg
1669.183	0.699	correct	repeat	Run2	repeat/STIM_011.jpg
1673.165	0.539	correct	repeat	Run2	repeat/STIM_011.jpg
1676.155	0.851	correct	repeat	Run2	repeat/STIM_011.jpg
1679.655	0.97	correct	repeat	Run2	repeat/STIM_011.jpg
1683.575	0.596	correct	repeat	Run2	repeat/STIM_011.jpg
1687.459	0.519	correct	repeat	Run2	repeat/STIM_012.jpg
1690.683	0.88	correct	repeat	Run2	repeat/STIM_012.jpg
1693.874	0.946	correct	repeat	Run2	repeat/STIM_012.jpg
1697.393	0.717	correct	repeat	Run2	repeat/STIM_012.jpg
1700.724	0.726	correct	repeat	Run2	repeat/STIM_012.jpg
1703.606	0.878	correct	repeat	Run2	repeat/STIM_013.jpg
1708.254	0.729	correct	repeat	Run2	repeat/STIM_013.jpg
1712.844	0.762	correct	repeat	Run2	repeat/STIM_013.jpg
1717.465	0.834	correct	repeat	Run2	repeat/STIM_013.jpg
1721.497	0.728	correct	repeat	Run2	repeat/STIM_013.jpg
1724.468	0.504	correct	repeat	Run2	repeat/STIM_014.jpg
1727.59	0.616	correct	repeat	Run2	repeat/STIM_014.jpg
1730.658	0.521	correct	repeat	Run2	repeat/STIM_014.jpg
1734.791	0.822	correct	repeat	Run2	repeat/STIM_014.jpg
1737.656	0.795	correct	repeat	Run2	repeat/STIM_014.jpg
1742.122	1.246	correct	generate	Run3	generate/STIM_000.jpg
1746.716	1.509	correct	generate	Run3	generate/STIM_000.jpg
1751.443	1.342	correct	generate	Run3	generate/STIM_000.jpg
1755.973	1.191	correct	generate	Run3	generate/STIM_000.jpg
1759.255	1.21	correct	generate	Run3	generate/STIM_000.jpg
1763.967	0.998	correct	generate	Run3	generate/STIM_001.jpg
1767.166	2.021	correct	generate	Run3	generate/STIM_001.jpg
1771.875	0.936	correct	generate	Run3	generate/STIM_001.jpg
1776.352	0.838	correct	generate	Run3	generate/STIM_001.jpg
1779.711	1.716	correct	generate	Run3	generate/STIM_001.jpg
1784.656	1.829	correct	generate	Run3	generate/STIM_002.jpg
1789.256	2.063	correct	generate	Run3	generate/STIM_002.jpg
1795.342	1.769	correct	generate	Run3	generate/STIM_002.jpg
1800.294	1.155	correct	generate	Run3	generate/STIM_002.jpg
1804.949	1.482	correct	generate	Run3	generate/STIM_002.jpg
1809.293	1.64	correct	generate	Run3	generate/STIM_003.jpg
1814.116	0.949	correct	generate	Run3	generate/STIM_003.jpg
1817.119	1.433	correct	generate	Run3	generate/STIM_003.jpg
1820.797	0.922	correct	generate	Run3	generate/STIM_003.jpg
1823.872	1.351	correct	generate	Run3	generate/STIM_003.jpg
1828.142	1.958	incorrect	generate	Run3	generate/STIM_004.jpg
1832.263	2.006	correct	generate	Run3	generate/STIM_004.jpg
1837.822	2.016	correct	generate	Run3	generate/STIM_004.jpg
1841.971	0.876	correct	generate	Run3	generate/STIM_004.jpg
1845.497	1.901	correct	generate	Run3	generate/STIM_004.jpg
1849.655	1.387	correct	generate	Run3	generate/STIM_005.jpg
1855.012	1.643	incorrect	generate	Run3	generate/STIM_005.jpg
1860.429	1.069	correct	generate	Run3	generate/STIM_005.jpg
1865.346	0.913	correct	generate	Run3	generate/STIM_005.jpg
1868.373	2.035	correct	generate	Run3	generate/STIM_005.jpg
1873.386	2.031	correct	generate	Run3	generate/STIM_006.jpg
1878.261	2.008	correct	generate	Run3	generate/STIM_006.jpg
1882.929	1.319	correct	generate	Run3	generate/STIM_006.jpg
1886.379	1.533	correct	generate	Run3	generate/STIM_006.jpg
1890.475	1.929	correct	generate	Run3	generate/STIM_006.jpg
1894.797	1.89	correct	generate	Run3	generate/STIM_007.jpg
1899.829	1.519	correct	generate	Run3	generate/STIM_007.jpg
1903.797	0.999	correct	generate	Run3	generate/STIM_007.jpg
1908.226	1.374	correct	generate	Run3	generate/STIM_007.jpg
1913.457	0.983	correct	generate	Run3	generate/STIM_007.jpg
1916.56	0.916	correct	generate	Run3	generate/STIM_008.jpg
1921.448	1.852	correct	generate	Run3	generate/STIM_008.jpg
1926.941	1.73	correct	generate	Run3	generate/STIM_008.jpg
1932.031	1.806	correct	generate	Run3	generate/STIM_008.jpg
1937.824	1.091	correct	generate	Run3	generate/STIM_008.jpg
1942.261	1.552	correct	generate	Run3	generate/STIM_009.jpg
1947.277	1.067	correct	generate	Run3	generate/STIM_009.jpg
1950.733	0.953	correct	generate	Run3	generate/STIM_009.jpg
1954.413	1.728	correct	generate	Run3	generate/STIM_009.jpg
1959.571	1.912	correct	generate	Run3	generate/STIM_009.jpg
1963.668	1.082	correct	generate	Run3	generate/STIM_010.jpg
1968.003	2.026	incorrect	generate	Run3	generate/STIM_010.jpg
1973.571	1.469	correct	generate	Run3	generate/STIM_010.jpg
1977.699	1.579	correct	generate	Run3	generate/STIM_010.jpg
1982.44	1.404	correct	generate	Run3	generate/STIM_010.jpg
1986.32	1.619	correct	generate	Run3	generate/STIM_011.jpg
1990.093	1.763	correct	generate	Run3	generate/STIM_011.jpg
1995.302	1.88	correct	generate	Run3	generate/STIM_011.jpg
2000.076	1.32	correct	generate	Run3	generate/STIM_011.jpg
2003.795	1.96	correct	generate	Run3	generate/STIM_011.jpg
2007.834	1.584	correct	generate	Run3	generate/STIM_012.jpg
2013.183	1.586	correct	generate	Run3	generate/STIM_012.jpg
2017.924	1.677	correct	generate	Run3	generate/STIM_012.jpg
2022.024	1.682	correct	generate	Run3	generate/STIM_012.jpg
2027.361	2.015	correct	generate	Run3	generate/STIM_012.jpg
2033.022	1.138	correct	generate	Run3	generate/STIM_013.jpg
2036.423	1.182	correct	generate	Run3	generate/STIM_013.jpg
2041.23	2.064	correct	generate	Run3	generate/STIM_013.jpg
2046.414	0.857	correct	generate	Run3	generate/STIM_013.jpg
2050.727	2.029	correct	generate	Run3	generate/STIM_013.jpg
2054.978	1.343	correct	generate	Run3	generate/STIM_014.jpg
2059.443	1.959	correct	generate	Run3	generate/STIM_014.jpg
2064.688	1.559	incorrect	generate	Run3	generate/STIM_014.jpg
2069.033	1.671	correct	generate	Run3	generate/STIM_014.jpg
2073.56	1.69	correct	generate	Run3	generate/STIM_014.jpg
2078.676	1.684	incorrect	generate	Run3	generate/STIM_015.jpg
2082.533	1.762	correct	generate	Run3	generate/STIM_015.jpg
2088.186	1.962	correct	generate	Run3	generate/STIM_015.jpg
2092.789	1.584	correct	generate	Run3	generate/STIM_015.jpg
2097.809	1.426	correct	generate	Run3	generate/STIM_015.jpg
2101.94	1.522	correct	generate	Run3	generate/STIM_016.jpg
2105.602	1.016	correct	generate	Run3	generate/STIM_016.jpg
2108.983	1.775	correct	generate	Run3	generate/STIM_016.jpg
2114.671	1.523	correct	generate	Run3	generate/STIM_016.jpg
2118.554	1.07	correct	generate	Run3	generate/STIM_016.jpg
2123.525	1.855	correct	generate	Run3	generate/STIM_017.jpg
2129.089	1.491	incorrect	generate	Run3	generate/STIM_017.jpg
2132.786	2.036	correct	generate	Run3	generate/STIM_017.jpg
2137.361	1.452	correct	generate	Run3	generate/STIM_017.jpg
2141.968	1.552	correct	generate	Run3	generate/STIM_017.jpg
2145.838	0.97	correct	generate	Run3	generate/STIM_018.jpg
2150.282	0.901	correct	generate	Run3	generate/STIM_018.jpg
2155.053	1.36	correct	generate	Run3	generate/STIM_018.jpg
2159.349	1.946	correct	generate	Run3	generate/STIM_018.jpg
2163.932	2.03	correct	generate	Run3	generate/STIM_018.jpg
2169.811	1.062	correct	generate	Run3	generate/STIM_019.jpg
2174.308	0.876	correct	generate	Run3	generate/STIM_019.jpg
2177.342	1.332	correct	generate	Run3	generate/STIM_019.jpg
2181.554	0.985	correct	generate	Run3	generate/STIM_019.jpg
2185.18	1.569	correct	generate	Run3	generate/STIM_019.jpg
2190.547	1.615	correct	generate	Run3	generate/STIM_020.jpg
2195.713	1.841	correct	generate	Run3	generate/STIM_020.jpg
2200.398	1.124	correct	generate	Run3	generate/STIM_020.jpg
2204.031	1.272	correct	generate	Run3	generate/STIM_020.jpg
2207.512	1.494	correct	generate	Run3	generate/STIM_020.jpg
2212.956	1.66	correct	generate	Run3	generate/STIM_021.jpg
2217.402	1.052	correct	generate	Run3	generate/STIM_021.jpg
2221.365	1.838	correct	generate	Run3	generate/STIM_021.jpg
2225.576	1.41	correct	generate	Run3	generate/STIM_021.jpg
2229.521	1.305	correct	generate	Run3	generate/STIM_021.jpg
2233.711	1.013	correct	generate	Run3	generate/STIM_022.jpg
2237.667	1.189	correct	generate	Run3	generate/STIM_022.jpg
2241.013	1.74	correct	generate	Run3	generate/STIM_022.jpg
2244.967	1.246	correct	generate	Run3	generate/STIM_022.jpg
2249.708	0.971	correct	generate	Run3	generate/STIM_022.jpg
2253.452	1.688	correct	generate	Run3	generate/STIM_023.jpg
2258.379	1.386	correct	generate	Run3	generate/STIM_023.jpg
2262.707	1.172	correct	generate	Run3	generate/STIM_023.jpg
2266.993	0.958	correct	generate	Run3	generate/STIM_023.jpg
2270.82	1.582	correct	generate	Run3	generate/STIM_023.jpg
2274.471	1.921	correct	generate	Run3	generate/STIM_024.jpg
2279.252	1.715	correct	generate	Run3	generate/STIM_024.jpg
2283.315	0.919	correct	generate	Run3	generate/STIM_024.jpg
2287.792	1.476	incorrect	generate	Run3	generate/STIM_024.jpg
2292.227	1.583	correct	generate	Run3	generate/STIM_024.jpg
2297.636	0.552	correct	repeat	Run3	repeat/STIM_000.jpg
2300.58	0.639	correct	repeat	Run3	repeat/STIM_000.jpg
2304.94	0.898	correct	repeat	Run3	repeat/STIM_000.jpg
2309.213	0.557	correct	repeat	Run3	repeat/STIM_000.jpg
2312.955	0.813	correct	repeat	Run3	repeat/STIM_000.jpg
2317.501	0.919	correct	repeat	Run3	repeat/STIM_001.jpg
2321.579	0.815	correct	repeat	Run3	repeat/STIM_001.jpg
2326.156	0.669	correct	repeat	Run3	repeat/STIM_001.jpg
2329.91	0.617	correct	repeat	Run3	repeat/STIM_001.jpg
2332.886	0.982	correct	repeat	Run3	repeat/STIM_001.jpg
2336.243	0.84	correct	repeat	Run3	repeat/STIM_002.jpg
2339.52	0.853	incorrect	repeat	Run3	repeat/STIM_002.jpg
2342.689	0.69	correct	repeat	Run3	repeat/STIM_002.jpg
2345.852	0.976	correct	repeat	Run3	repeat/STIM_002.jpg
2349.755	0.944	correct	repeat	Run3	repeat/STIM_002.jpg
2354.15	0.772	correct	repeat	Run3	repeat/STIM_003.jpg
2357.63	0.935	correct	repeat	Run3	repeat/STIM_003.jpg
2362.183	0.584	correct	repeat	Run3	repeat/STIM_003.jpg
2365.084	0.766	correct	repeat	Run3	repeat/STIM_003.jpg
2368.037	0.573	correct	repeat	Run3	repeat/STIM_003.jpg
2371.672	0.949	correct	repeat	Run3	repeat/STIM_004.jpg
2376.186	0.871	correct	repeat	Run3	repeat/STIM_004.jpg
2379.464	0.576	correct	repeat	Run3	repeat/STIM_004.jpg
2382.53	0.676	correct	repeat	Run3	repeat/STIM_004.jpg
2385.723	0.869	correct	repeat	Run3	repeat/STIM_004.jpg
2389.397	0.807	correct	repeat	Run3	repeat/STIM_005.jpg
2393.735	0.603	correct	repeat	Run3	repeat/STIM_005.jpg
2397.954	0.933	correct	repeat	Run3	repeat/STIM_005.jpg
2401.482	0.908	correct	repeat	Run3	repeat/STIM_005.jpg
2406.194	0.769	correct	repeat	Run3	repeat/STIM_005.jpg
2410.859	0.563	correct	repeat	Run3	repeat/STIM_006.jpg
2413.596	0.62	correct	repeat	Run3	repeat/STIM_006.jpg
2418.053	0.898	correct	repeat	Run3	repeat/STIM_006.jpg
2421.019	0.666	correct	repeat	Run3	repeat/STIM_006.jpg
2424.385	0.923	correct	repeat	Run3	repeat/STIM_006.jpg
2428.969	0.633	correct	repeat	Run3	repeat/STIM_007.jpg
2433.465	0.738	correct	repeat	Run3	repeat/STIM_007.jpg
2436.337	0.959	correct	repeat	Run3	repeat/STIM_007.jpg
2441.059	0.527	correct	repeat	Run3	repeat/STIM_007.jpg
2444.06	0.543	correct	repeat	Run3	repeat/STIM_007.jpg
2447.213	0.68	correct	repeat	Run3	repeat/STIM_008.jpg
2450.095	0.611	correct	repeat	Run3	repeat/STIM_008.jpg
2454.096	0.758	correct	repeat	Run3	repeat/STIM_008.jpg
2457.238	0.796	correct	repeat	Run3	repeat/STIM_008.jpg
2460.441	0.802	correct	repeat	Run3	repeat/STIM_008.jpg
2464.65	0.869	correct	repeat	Run3	repeat/STIM_009.jpg
2468.957	0.935	correct	repeat	Run3	repeat/STIM_009.jpg
2473.466	0.594	correct	repeat	Run3	repeat/STIM_009.jpg
2476.71	0.929	correct	repeat	Run3	repeat/STIM_009.jpg
2480.187	0.542	correct	repeat	Run3	repeat/STIM_009.jpg
2484.163	0.758	correct	repeat	Run3	repeat/STIM_010.jpg
2488.604	0.666	correct	repeat	Run3	repeat/STIM_010.jpg
2492.272	0.637	correct	repeat	Run3	repeat/STIM_010.jpg
2495.944	0.698	correct	repeat	Run3	repeat/STIM_010.jpg
2499.201	0.633	correct	repeat	Run3	repeat/STIM_010.jpg
2502.568	0.758	incorrect	repeat	Run3	repeat/STIM_011.jpg
2506.762	0.768	correct	repeat	Run3	repeat/STIM_011.jpg
2510.837	0.94	correct	repeat	Run3	repeat/STIM_011.jpg
2514.002	0.725	correct	repeat	Run3	repeat/STIM_011.jpg
2518.038	0.878	correct	repeat	Run3	repeat/STIM_011.jpg
2522.077	0.534	correct	repeat	Run3	repeat/STIM_012.jpg
2525.884	0.612	correct	repeat	Run3	repeat/STIM_012.jpg
2528.857	0.784	correct	repeat	Run3	repeat/STIM_012.jpg
2533.254	0.528	correct	repeat	Run3	repeat/STIM_012.jpg
2537.493	0.67	correct	repeat	Run3	repeat/STIM_012.jpg
2541.903	0.518	correct	repeat	Run3	repeat/STIM_013.jpg
2544.649	0.535	correct	repeat	Run3	repeat/STIM_013.jpg
2548.03	0.896	correct	repeat	Run3	repeat/STIM_013.jpg
2551.557	0.64	correct	repeat	Run3	repeat/STIM_013.jpg
2555.749	0.947	correct	repeat	Run3	repeat/STIM_013.jpg
2559.428	0.648	correct	repeat	Run3	repeat/STIM_014.jpg
2563.426	0.822	incorrect	repeat	Run3	repeat/STIM_014.jpg
2567.131	0.628	correct	repeat	Run3	repeat/STIM_014.jpg
2569.986	0.719	incorrect	repeat	Run3	repeat/STIM_014.jpg
2574.085	0.851	correct	repeat	Run3	repeat/STIM_014.jpg
2577.317	1.196	correct	generate	Run4	generate/STIM_000.jpg
2581.249	1.222	correct	generate	Run4	generate/STIM_000.jpg
2585.997	1.66	incorrect	generate	Run4	generate/STIM_000.jpg
2590.747	1.688	correct	generate	Run4	generate/STIM_000.jpg
2596.35	1.11	correct	generate	Run4	generate/STIM_000.jpg
2600.237	1.108	correct	generate	Run4	generate/STIM_001.jpg
2603.955	1.012	correct	generate	Run4	generate/STIM_001.jpg
2608.318	1.226	correct	generate	Run4	generate/STIM_001.jpg
2613.197	1.064	correct	generate	Run4	generate/STIM_001.jpg
2617.012	1.231	correct	generate	Run4	generate/STIM_001.jpg
2622.108	1.23	correct	generate	Run4	generate/STIM_002.jpg
2627.344	1.023	correct	generate	Run4	generate/STIM_002.jpg
2631.098	1.104	correct	generate	Run4	generate/STIM_002.jpg
2635.67	1.331	correct	generate	Run4	generate/STIM_002.jpg
2639.427	2.067	correct	generate	Run4	generate/STIM_002.jpg
2643.967	1.549	correct	generate	Run4	generate/STIM_003.jpg
2648.036	1.77	correct	generate	Run4	generate/STIM_003.jpg
2653.256	1.967	correct	generate	Run4	generate/STIM_003.jpg
2657.471	1.94	correct	generate	Run4	generate/STIM_003.jpg
2662.466	1.534	correct	generate	Run4	generate/STIM_003.jpg
2666.608	1.607	correct	generate	Run4	generate/STIM_004.jpg
2671.579	1.615	correct	generate	Run4	generate/STIM_004.jpg
2676.918	1.758	correct	generate	Run4	generate/STIM_004.jpg
2682.203	0.844	correct	generate	Run4	generate/STIM_004.jpg
2685.837	2.025	correct	generate	Run4	generate/STIM_004.jpg
2691.035	1.22	correct	generate	Run4	generate/STIM_005.jpg
2695.421	1.982	correct	generate	Run4	generate/STIM_005.jpg
2699.691	1.753	correct	generate	Run4	generate/STIM_005.jpg
2704.958	1.508	correct	generate	Run4	generate/STIM_005.jpg
2708.976	0.855	correct	generate	Run4	generate/STIM_005.jpg
2712.445	0.873	correct	generate	Run4	generate/STIM_006.jpg
2715.794	1.249	correct	generate	Run4	generate/STIM_006.jpg
2720.827	1.175	correct	generate	Run4	generate/STIM_006.jpg
2725.007	1.823	correct	generate	Run4	generate/STIM_006.jpg
2730.822	0.869	correct	generate	Run4	generate/STIM_006.jpg
2735.556	1.018	correct	generate	Run4	generate/STIM_007.jpg
2740.129	2.0	correct	generate	Run4	generate/STIM_007.jpg
2744.954	1.777	correct	generate	Run4	generate/STIM_007.jpg
2750.057	1.978	incorrect	generate	Run4	generate/STIM_007.jpg
2754.233	0.879	correct	generate	Run4	generate/STIM_007.jpg
2758.912	1.936	correct	generate	Run4	generate/STIM_008.jpg
2763.217	1.094	correct	generate	Run4	generate/STIM_008.jpg
2767.869	1.589	correct	generate	Run4	generate/STIM_008.jpg
2772.89	1.614	correct	generate	Run4	generate/STIM_008.jpg
2777.558	1.552	correct	generate	Run4	generate/STIM_008.jpg
2782.461	1.739	correct	generate	Run4	generate/STIM_009.jpg
2787.173	1.631	correct	generate	Run4	generate/STIM_009.jpg
2791.745	1.814	correct	generate	Run4	generate/STIM_009.jpg
2797.352	0.834	correct	generate	Run4	generate/STIM_009.jpg
2801.992	1.656	correct	generate	Run4	generate/STIM_009.jpg
2807.263	1.486	correct	generate	Run4	generate/STIM_010.jpg
2811.524	1.215	correct	generate	Run4	generate/STIM_010.jpg
2814.776	2.054	correct	generate	Run4	generate/STIM_010.jpg
2820.32	1.448	correct	generate	Run4	generate/STIM_010.jpg
2825.649	1.227	correct	generate	Run4	generate/STIM_010.jpg
2829.124	1.645	correct	generate	Run4	generate/STIM_011.jpg
2834.712	0.934	correct	generate	Run4	generate/STIM_011.jpg
2838.98	1.274	correct	generate	Run4	generate/STIM_011.jpg
2842.499	1.616	correct	generate	Run4	generate/STIM_011.jpg
2847.423	1.495	correct	generate	Run4	generate/STIM_011.jpg
2851.297	1.228	correct	generate	Run4	generate/STIM_012.jpg
2856.491	1.765	correct	generate	Run4	generate/STIM_012.jpg
2861.8	1.765	correct	generate	Run4	generate/STIM_012.jpg
2865.651	1.223	correct	generate	Run4	generate/STIM_012.jpg
2869.145	1.172	correct	generate	Run4	generate/STIM_012.jpg
2873.639	2.063	correct	generate	Run4	generate/STIM_013.jpg
2879.509	1.855	correct	generate	Run4	generate/STIM_013.jpg
2883.655	1.208	correct	generate	Run4	generate/STIM_013.jpg
2887.35	1.582	correct	generate	Run4	generate/STIM_013.jpg
2891.298	1.252	correct	generate	Run4	generate/STIM_013.jpg
2896.556	2.005	correct	generate	Run4	generate/STIM_014.jpg
2901.376	1.09	correct	generate	Run4	generate/STIM_014.jpg
2906.093	1.699	correct	generate	Run4	generate/STIM_014.jpg
2909.998	1.681	correct	generate	Run4	generate/STIM_014.jpg
2914.4	1.826	correct	generate	Run4	generate/STIM_014.jpg
2920.107	0.981	correct	generate	Run4	generate/STIM_015.jpg
2923.527	2.013	correct	generate	Run4	generate/STIM_015.jpg
2929.01	1.216	correct	generate	Run4	generate/STIM_015.jpg
2933.551	1.953	correct	generate	Run4	generate/STIM_015.jpg
2938.54	1.404	correct	generate	Run4	generate/STIM_015.jpg
2943.259	1.26	correct	generate	Run4	generate/STIM_016.jpg
2947.963	2.013	correct	generate	Run4	generate/STIM_016.jpg
2953.925	0.918	correct	generate	Run4	generate/STIM_016.jpg
2957.118	1.804	correct	generate	Run4	generate/STIM_016.jpg
2962.423	1.843	correct	generate	Run4	generate/STIM_016.jpg
2968.228	1.98	correct	generate	Run4	generate/STIM_017.jpg
2974.148	1.826	correct	generate	Run4	generate/STIM_017.jpg
2978.285	1.088	correct	generate	Run4	generate/STIM_017.jpg
2981.793	0.941	correct	generate	Run4	generate/STIM_017.jpg
2985.044	1.434	correct	generate	Run4	generate/STIM_017.jpg
2989.326	1.536	correct	generate	Run4	generate/STIM_018.jpg
2994.544	1.656	correct	generate	Run4	generate/STIM_018.jpg
2998.681	1.721	correct	generate	Run4	generate/STIM_018.jpg
3003.548	1.526	correct	generate	Run4	generate/STIM_018.jpg
3008.416	1.614	correct	generate	Run4	generate/STIM_018.jpg
3012.57	1.5	correct	generate	Run4	generate/STIM_019.jpg
3017.591	1.035	correct	generate	Run4	generate/STIM_019.jpg
3022.525	2.005	correct	generate	Run4	generate/STIM_019.jpg
3028.511	1.503	correct	generate	Run4	generate/STIM_019.jpg
3033.897	0.922	correct	generate	Run4	generate/STIM_019.jpg
3038.189	0.988	correct	generate	Run4	generate/STIM_020.jpg
3041.287	0.954	correct	generate	Run4	generate/STIM_020.jpg
3044.529	1.277	correct	generate	Run4	generate/STIM_020.jpg
3048.041	1.415	correct	generate	Run4	generate/STIM_020.jpg
3052.455	1.484	correct	generate	Run4	generate/STIM_020.jpg
3057.351	1.353	correct	generate	Run4	generate/STIM_021.jpg
3062.241	1.492	correct	generate	Run4	generate/STIM_021.jpg
3066.112	1.895	correct	generate	Run4	generate/STIM_021.jpg
3071.22	1.384	correct	generate	Run4	generate/STIM_021.jpg
3075.518	1.227	correct	generate	Run4	generate/STIM_021.jpg
3080.528	1.658	correct	generate	Run4	generate/STIM_022.jpg
3086.009	1.094	correct	generate	Run4	generate/STIM_022.jpg
3090.691	1.824	correct	generate	Run4	generate/STIM_022.jpg
3095.28	1.064	correct	generate	Run4	generate/STIM_022.jpg
3099.757	1.71	correct	generate	Run4	generate/STIM_022.jpg
3105.374	1.931	incorrect	generate	Run4	generate/STIM_023.jpg
3109.446	1.877	correct	generate	Run4	generate/STIM_023.jpg
3114.696	1.711	correct	generate	Run4	generate/STIM_023.jpg
3119.821	2.021	correct	generate	Run4	generate/STIM_023.jpg
3124.542	2.07	correct	generate	Run4	generate/STIM_023.jpg
3128.786	1.82	correct	generate	Run4	generate/STIM_024.jpg
3134.229	1.276	correct	generate	Run4	generate/STIM_024.jpg
3139.127	1.668	correct	generate	Run4	generate/STIM_024.jpg
3144.491	1.123	correct	generate	Run4	generate/STIM_024.jpg
3149.139	1.388	correct	generate	Run4	generate/STIM_024.jpg
3153.248	0.905	correct	repeat	Run4	repeat/STIM_000.jpg
3158.114	0.586	correct	repeat	Run4	repeat/STIM_000.jpg
3160.885	0.653	correct	repeat	Run4	repeat/STIM_000.jpg
3163.888	0.819	correct	repeat	Run4	repeat/STIM_000.jpg
3167.225	0.706	correct	repeat	Run4	repeat/STIM_000.jpg
3170.682	0.694	correct	repeat	Run4	repeat/STIM_001.jpg
3175.14	0.605	correct	repeat	Run4	repeat/STIM_001.jpg
3178.645	0.91	correct	repeat	Run4	repeat/STIM_001.jpg
3183.535	0.823	correct	repeat	Run4	repeat/STIM_001.jpg
3186.826	0.823	correct	repeat	Run4	repeat/STIM_001.jpg
3190.06	0.837	correct	repeat	Run4	repeat/STIM_002.jpg
3193.467	0.656	correct	repeat	Run4	repeat/STIM_002.jpg
3196.79	0.658	correct	repeat	Run4	repeat/STIM_002.jpg
3200.073	0.835	correct	repeat	Run4	repeat/STIM_002.jpg
3204.114	0.557	correct	repeat	Run4	repeat/STIM_002.jpg
3207.027	0.863	correct	repeat	Run4	repeat/STIM_003.jpg
3210.513	0.647	correct	repeat	Run4	repeat/STIM_003.jpg
3214.955	0.705	correct	repeat	Run4	repeat/STIM_003.jpg
3218.44	0.954	correct	repeat	Run4	repeat/STIM_003.jpg
3223.124	0.546	correct	repeat	Run4	repeat/STIM_003.jpg
3227.173	0.634	correct	repeat	Run4	repeat/STIM_004.jpg
3230.346	0.496	correct	repeat	Run4	repeat/STIM_004.jpg
3233.802	0.754	correct	repeat	Run4	repeat/STIM_004.jpg
3237.82	0.747	correct	repeat	Run4	repeat/STIM_004.jpg
3241.918	0.893	correct	repeat	Run4	repeat/STIM_004.jpg
3246.818	0.531	correct	repeat	Run4	repeat/STIM_005.jpg
3250.266	0.815	correct	repeat	Run4	repeat/STIM_005.jpg
3253.697	0.705	incorrect	repeat	Run4	repeat/STIM_005.jpg
3258.332	0.53	correct	repeat	Run4	repeat/STIM_005.jpg
3261.623	0.843	correct	repeat	Run4	repeat/STIM_005.jpg
3266.309	0.629	correct	repeat	Run4	repeat/STIM_006.jpg
3269.449	0.557	correct	repeat	Run4	repeat/STIM_006.jpg
3273.502	0.677	incorrect	repeat	Run4	repeat/STIM_006.jpg
3277.161	0.872	correct	repeat	Run4	repeat/STIM_006.jpg
3280.327	0.835	correct	repeat	Run4	repeat/STIM_006.jpg
3284.535	0.518	correct	repeat	Run4	repeat/STIM_007.jpg
3287.789	0.71	incorrect	repeat	Run4	repeat/STIM_007.jpg
3291.558	0.509	correct	repeat	Run4	repeat/STIM_007.jpg
3295.815	0.601	correct	repeat	Run4	repeat/STIM_007.jpg
3299.319	0.836	correct	repeat	Run4	repeat/STIM_007.jpg
3302.774	0.644	correct	repeat	Run4	repeat/STIM_008.jpg
3305.582	0.849	correct	repeat	Run4	repeat/STIM_008.jpg
3309.686	0.858	correct	repeat	Run4	repeat/STIM_008.jpg
3312.73	0.93	correct	repeat	Run4	repeat/STIM_008.jpg
3316.438	0.555	correct	repeat	Run4	repeat/STIM_008.jpg
3320.102	0.743	correct	repeat	Run4	repeat/STIM_009.jpg
3323.736	0.811	correct	repeat	Run4	repeat/STIM_009.jpg
3327.135	0.8	incorrect	repeat	Run4	repeat/STIM_009.jpg
3331.89	0.862	correct	repeat	Run4	repeat/STIM_009.jpg
3336.332	0.949	correct	repeat	Run4	repeat/STIM_009.jpg
3339.302	0.608	correct	repeat	Run4	repeat/STIM_010.jpg
3342.191	0.497	correct	repeat	Run4	repeat/STIM_010.jpg
3346.487	0.924	correct	repeat	Run4	repeat/STIM_010.jpg
3350.194	0.687	incorrect	repeat	Run4	repeat/STIM_010.jpg
3353.512	0.657	correct	repeat	Run4	repeat/STIM_010.jpg
3356.643	0.661	correct	repeat	Run4	repeat/STIM_011.jpg
3361.22	0.605	correct	repeat	Run4	repeat/STIM_011.jpg
3364.781	0.749	correct	repeat	Run4	repeat/STIM_011.jpg
3367.825	0.809	correct	repeat	Run4	repeat/STIM_011.jpg
3371.612	0.662	correct	repeat	Run4	repeat/STIM_011.jpg
3374.562	0.52	correct	repeat	Run4	repeat/STIM_012.jpg
3378.453	0.895	correct	repeat	Run4	repeat/STIM_012.jpg
3381.693	0.54	correct	repeat	Run4	repeat/STIM_012.jpg
3385.574	0.727	correct	repeat	Run4	repeat/STIM_012.jpg
3388.92	0.979	correct	repeat	Run4	repeat/STIM_012.jpg
3393.251	0.597	correct	repeat	Run4	repeat/STIM_013.jpg
3395.904	0.779	correct	repeat	Run4	repeat/STIM_013.jpg
3399.924	0.556	correct	repeat	Run4	repeat/STIM_013.jpg
3403.368	0.904	correct	repeat	Run4	repeat/STIM_013.jpg
3406.441	0.772	correct	repeat	Run4	repeat/STIM_013.jpg
3409.274	0.882	correct	repeat	Run4	repeat/STIM_014.jpg
3413.049	0.728	correct	repeat	Run4	repeat/STIM_014.jpg
3415.993	0.949	incorrect	repeat	Run4	repeat/STIM_014.jpg
3420.529	0.901	correct	repeat	Run4	repeat/STIM_014.jpg
3425.396	0.858	correct	repeat	Run4	repeat/STIM_014.jpg
