onset	duration	response_time_ms	trial_type	learning_stage	stimulus	response_port
0.0	2.19	2190.1	generate	Run1	generate/STIM_000.jpg	99
5.774	1.28	1279.9	generate	Run1	generate/STIM_000.jpg	100
10.42	1.261	1261.4	generate	Run1	generate/STIM_000.jpg	99
14.826	2.339	2339.2	generate	Run1	generate/STIM_000.jpg	99
20.541	0.972	972.5	generate	Run1	generate/STIM_000.jpg	100
24.804	1.574	1573.6	generate	Run1	generate/STIM_001.jpg	99
29.397	1.804	1803.8	generate	Run1	generate/STIM_001.jpg	100
34.042	2.065	2065.1	generate	Run1	generate/STIM_001.jpg	99
39.13	2.115	2115.3	generate	Run1	generate/STIM_001.jpg	99
44.502	2.007	2007.5	generate	Run1	generate/STIM_001.jpg	100
48.765	1.671	1671.0	generate	Run1	generate/STIM_002.jpg	99
53.183	2.65	2649.7	generate	Run1	generate/STIM_002.jpg	100
58.624	1.99	1990.3	generate	Run1	generate/STIM_002.jpg	100
63.667	1.354	1354.1	generate	Run1	generate/STIM_002.jpg	99
68.305	2.345	2345.4	generate	Run1	generate/STIM_002.jpg	99
73.643	1.44	1439.7	generate	Run1	generate/STIM_003.jpg	100
78.517	2.352	2352.1	generate	Run1	generate/STIM_003.jpg	100
84.762	2.198	2198.3	generate	Run1	generate/STIM_003.jpg	99
89.123	1.418	1418.3	generate	Run1	generate/STIM_003.jpg	99
94.04	1.185	1184.8	generate	Run1	generate/STIM_003.jpg	100
99.101	1.929	1928.9	generate	Run1	generate/STIM_004.jpg	99
104.041	2.602	2601.5	generate	Run1	generate/STIM_004.jpg	99
109.458	1.417	1417.2	generate	Run1	generate/STIM_004.jpg	100
113.148	2.276	2275.7	generate	Run1	generate/STIM_004.jpg	100
118.54	1.598	1597.7	generate	Run1	generate/STIM_004.jpg	99
123.741	2.234	2234.1	generate	Run1	generate/STIM_005.jpg	99
128.4	1.372	1371.8	generate	Run1	generate/STIM_005.jpg	100
131.934	1.756	1756.3	generate	Run1	generate/STIM_005.jpg	99
137.592	1.975	1975.4	generate	Run1	generate/STIM_005.jpg	100
142.738	1.002	1001.5	generate	Run1	generate/STIM_005.jpg	100
147.593	2.059	2059.3	generate	Run1	generate/STIM_006.jpg	99
152.225	1.886	1886.1	generate	Run1	generate/STIM_006.jpg	100
157.804	2.078	2078.1	generate	Run1	generate/STIM_006.jpg	99
163.685	2.09	2089.5	generate	Run1	generate/STIM_006.jpg	99
169.384	1.686	1685.8	generate	Run1	generate/STIM_006.jpg	100
173.501	2.951	2951.0	generate	Run1	generate/STIM_007.jpg	100
179.111	2.239	2239.4	generate	Run1	generate/STIM_007.jpg	99
183.48	1.615	1615.2	generate	Run1	generate/STIM_007.jpg	100
187.459	2.303	2303.0	generate	Run1	generate/STIM_007.jpg	100
192.668	1.988	1988.4	generate	Run1	generate/STIM_007.jpg	99
198.463	1.4	1400.2	generate	Run1	generate/STIM_008.jpg	99
203.6	1.589	1588.8	generate	Run1	generate/STIM_008.jpg	100
207.794	1.07	1070.5	generate	Run1	generate/STIM_008.jpg	100
212.405	1.263	1263.2	generate	Run1	generate/STIM_008.jpg	99
216.158	1.878	1878.5	generate	Run1	generate/STIM_008.jpg	100
220.918	2.025	2024.5	generate	Run1	generate/STIM_009.jpg	99
225.96	1.775	1775.0	generate	Run1	generate/STIM_009.jpg	100
231.242	1.818	1817.7	generate	Run1	generate/STIM_009.jpg	99
235.761	1.949	1948.6	generate	Run1	generate/STIM_009.jpg	100
241.269	2.203	2203.1	generate	Run1	generate/STIM_009.jpg	100
247.171	2.836	2836.5	generate	Run1	generate/STIM_010.jpg	99
252.241	2.328	2327.5	generate	Run1	generate/STIM_010.jpg	100
256.836	1.092	1091.8	generate	Run1	generate/STIM_010.jpg	100
260.599	1.716	1716.2	generate	Run1	generate/STIM_010.jpg	100
264.881	1.99	1990.3	generate	Run1	generate/STIM_010.jpg	99
268.958	2.358	2358.2	generate	Run1	generate/STIM_011.jpg	99
275.067	2.054	2053.5	generate	Run1	generate/STIM_011.jpg	100
280.373	1.608	1608.0	generate	Run1	generate/STIM_011.jpg	99
285.745	1.655	1654.6	generate	Run1	generate/STIM_011.jpg	99
290.944	1.514	1513.9	generate	Run1	generate/STIM_011.jpg	100
294.999	2.536	2536.4	generate	Run1	generate/STIM_012.jpg	99
300.183	2.242	2241.5	generate	Run1	generate/STIM_012.jpg	99
305.465	2.168	2167.6	generate	Run1	generate/STIM_012.jpg	100
309.776	1.232	1231.7	generate	Run1	generate/STIM_012.jpg	99
314.234	1.612	1612.4	generate	Run1	generate/STIM_012.jpg	99
319.462	2.19	2190.5	generate	Run1	generate/STIM_013.jpg	99
325.34	2.336	2335.7	generate	Run1	generate/STIM_013.jpg	100
331.25	1.622	1621.5	generate	Run1	generate/STIM_013.jpg	99
335.127	1.816	1815.6	generate	Run1	generate/STIM_013.jpg	99
339.292	1.979	1979.4	generate	Run1	generate/STIM_013.jpg	100
343.89	2.361	2361.3	generate	Run1	generate/STIM_014.jpg	100
349.159	1.612	1611.6	generate	Run1	generate/STIM_014.jpg	99
354.207	1.643	1643.1	generate	Run1	generate/STIM_014.jpg	99
359.609	2.342	2342.1	generate	Run1	generate/STIM_014.jpg	100
364.018	1.027	1026.6	generate	Run1	generate/STIM_014.jpg	100
367.13	2.486	2485.8	generate	Run1	generate/STIM_015.jpg	100
372.613	2.011	2011.2	generate	Run1	generate/STIM_015.jpg	99
378.543	2.084	2084.1	generate	Run1	generate/STIM_015.jpg	100
383.239	1.862	1862.0	generate	Run1	generate/STIM_015.jpg	99
387.761	2.183	2183.1	generate	Run1	generate/STIM_015.jpg	100
393.023	1.669	1669.1	generate	Run1	generate/STIM_016.jpg	100
397.571	1.969	1969.1	generate	Run1	generate/STIM_016.jpg	99
402.202	2.64	2640.5	generate	Run1	generate/STIM_016.jpg	100
407.491	1.457	1457.0	generate	Run1	generate/STIM_016.jpg	100
411.341	0.964	963.9	generate	Run1	generate/STIM_016.jpg	99
415.234	1.2	1200.5	generate	Run1	generate/STIM_017.jpg	100
419.316	1.481	1481.4	generate	Run1	generate/STIM_017.jpg	100
424.051	2.238	2237.6	generate	Run1	generate/STIM_017.jpg	100
428.766	1.995	1995.2	generate	Run1	generate/STIM_017.jpg	99
434.374	1.391	1391.2	generate	Run1	generate/STIM_017.jpg	100
439.338	2.642	2642.0	generate	Run1	generate/STIM_018.jpg	100
445.058	1.292	1291.9	generate	Run1	generate/STIM_018.jpg	99
449.194	1.413	1413.1	generate	Run1	generate/STIM_018.jpg	99
453.583	1.092	1092.2	generate	Run1	generate/STIM_018.jpg	100
457.783	2.086	2086.5	generate	Run1	generate/STIM_018.jpg	99
463.125	1.337	1337.0	generate	Run1	generate/STIM_019.jpg	100
467.748	2.266	2266.5	generate	Run1	generate/STIM_019.jpg	100
473.908	1.396	1395.5	generate	Run1	generate/STIM_019.jpg	99
478.797	1.1	1100.2	generate	Run1	generate/STIM_019.jpg	99
483.062	0.95	950.3	generate	Run1	generate/STIM_019.jpg	100
486.872	1.767	1767.4	generate	Run1	generate/STIM_020.jpg	100
491.666	1.208	1208.1	generate	Run1	generate/STIM_020.jpg	99
495.98	1.534	1534.0	generate	Run1	generate/STIM_020.jpg	100
499.713	2.423	2423.2	generate	Run1	generate/STIM_020.jpg	99
505.06	1.858	1858.3	generate	Run1	generate/STIM_020.jpg	99
509.38	2.959	2958.7	generate	Run1	generate/STIM_021.jpg	99
515.229	1.259	1259.3	generate	Run1	generate/STIM_021.jpg	100
518.946	1.558	1557.7	generate	Run1	generate/STIM_021.jpg	99
523.667	2.488	2488.4	generate	Run1	generate/STIM_021.jpg	99
530.084	1.361	1361.3	generate	Run1	generate/STIM_021.jpg	100
534.729	1.283	1283.4	generate	Run1	generate/STIM_022.jpg	100
538.157	2.371	2370.8	generate	Run1	generate/STIM_022.jpg	99
543.927	2.053	2052.6	generate	Run1	generate/STIM_022.jpg	100
549.45	1.723	1723.3	generate	Run1	generate/STIM_022.jpg	99
553.337	1.34	1339.5	generate	Run1	generate/STIM_022.jpg	99
557.095	1.495	1495.3	generate	Run1	generate/STIM_023.jpg	99
561.164	1.649	1648.8	generate	Run1	generate/STIM_023.jpg	100
565.003	2.34	2339.9	generate	Run1	generate/STIM_023.jpg	100
571.31	1.055	1054.6	generate	Run1	generate/STIM_023.jpg	99
575.358	2.233	2233.1	generate	Run1	generate/STIM_023.jpg	99
579.99	2.751	2751.4	generate	Run1	generate/STIM_024.jpg	99
585.328	1.662	1661.8	generate	Run1	generate/STIM_024.jpg	100
590.28	1.087	1086.9	generate	Run1	generate/STIM_024.jpg	100
595.318	2.401	2400.6	generate	Run1	generate/STIM_024.jpg	100
600.898	1.133	1132.7	generate	Run1	generate/STIM_024.jpg	99
604.218	0.642	642.3	repeat	Run1	repeat/STIM_000.jpg	100
608.445	0.848	847.5	repeat	Run1	repeat/STIM_000.jpg	100
611.353	0.972	972.2	repeat	Run1	repeat/STIM_000.jpg	99
614.83	0.944	943.8	repeat	Run1	repeat/STIM_000.jpg	100
618.945	0.553	552.7	repeat	Run1	repeat/STIM_000.jpg	100
622.652	0.547	547.0	repeat	Run1	repeat/STIM_001.jpg	100
626.26	0.545	545.0	repeat	Run1	repeat/STIM_001.jpg	99
629.937	0.569	568.8	repeat	Run1	repeat/STIM_001.jpg	100
634.114	0.88	880.1	repeat	Run1	repeat/STIM_001.jpg	99
637.658	0.619	619.1	repeat	Run1	repeat/STIM_001.jpg	100
640.975	0.743	742.8	repeat	Run1	repeat/STIM_002.jpg	99
643.933	0.629	628.8	repeat	Run1	repeat/STIM_002.jpg	99
648.293	0.67	670.3	repeat	Run1	repeat/STIM_002.jpg	99
652.734	0.779	779.4	repeat	Run1	repeat/STIM_002.jpg	99
656.708	0.855	855.0	repeat	Run1	repeat/STIM_002.jpg	100
661.475	0.886	886.2	repeat	Run1	repeat/STIM_003.jpg	99
665.367	0.669	669.2	repeat	Run1	repeat/STIM_003.jpg	99
668.262	0.597	597.1	repeat	Run1	repeat/STIM_003.jpg	100
671.812	0.645	644.6	repeat	Run1	repeat/STIM_003.jpg	100
674.511	0.837	836.7	repeat	Run1	repeat/STIM_003.jpg	100
678.143	0.594	593.5	repeat	Run1	repeat/STIM_004.jpg	99
681.99	0.533	533.4	repeat	Run1	repeat/STIM_004.jpg	100
685.268	0.786	786.1	repeat	Run1	repeat/STIM_004.jpg	99
689.39	0.908	908.2	repeat	Run1	repeat/STIM_004.jpg	100
693.196	0.67	669.7	repeat	Run1	repeat/STIM_004.jpg	100
697.175	0.963	963.3	repeat	Run1	repeat/STIM_005.jpg	100
701.479	0.607	606.8	repeat	Run1	repeat/STIM_005.jpg	100
704.575	0.528	528.1	repeat	Run1	repeat/STIM_005.jpg	100
707.906	0.661	660.8	repeat	Run1	repeat/STIM_005.jpg	100
711.947	0.922	922.4	repeat	Run1	repeat/STIM_005.jpg	100
715.093	0.978	978.3	repeat	Run1	repeat/STIM_006.jpg	100
719.674	0.893	893.4	repeat	Run1	repeat/STIM_006.jpg	100
724.32	0.676	675.7	repeat	Run1	repeat/STIM_006.jpg	99
727.105	0.717	716.9	repeat	Run1	repeat/STIM_006.jpg	99
730.797	0.722	722.5	repeat	Run1	repeat/STIM_006.jpg	100
733.855	0.88	879.9	repeat	Run1	repeat/STIM_007.jpg	100
737.388	0.85	850.4	repeat	Run1	repeat/STIM_007.jpg	100
740.824	0.98	980.0	repeat	Run1	repeat/STIM_007.jpg	99
744.171	0.74	739.7	repeat	Run1	repeat/STIM_007.jpg	100
747.482	0.789	788.6	repeat	Run1	repeat/STIM_007.jpg	100
751.554	0.576	575.9	repeat	Run1	repeat/STIM_008.jpg	99
755.092	0.978	978.2	repeat	Run1	repeat/STIM_008.jpg	99
759.474	0.554	554.0	repeat	Run1	repeat/STIM_008.jpg	99
762.935	0.946	945.6	repeat	Run1	repeat/STIM_008.jpg	99
767.671	0.85	850.1	repeat	Run1	repeat/STIM_008.jpg	99
771.246	0.713	712.9	repeat	Run1	repeat/STIM_009.jpg	99
774.544	0.888	887.5	repeat	Run1	repeat/STIM_009.jpg	99
778.408	0.546	545.8	repeat	Run1	repeat/STIM_009.jpg	100
781.149	0.772	771.9	repeat	Run1	repeat/STIM_009.jpg	99
785.193	0.918	917.5	repeat	Run1	repeat/STIM_009.jpg	100
788.967	0.852	852.5	repeat	Run1	repeat/STIM_010.jpg	99
792.209	0.803	803.0	repeat	Run1	repeat/STIM_010.jpg	99
795.537	0.91	910.2	repeat	Run1	repeat/STIM_010.jpg	99
798.716	0.858	858.1	repeat	Run1	repeat/STIM_010.jpg	99
802.23	0.881	880.7	repeat	Run1	repeat/STIM_010.jpg	100
806.944	0.758	758.2	repeat	Run1	repeat/STIM_011.jpg	99
811.497	0.889	888.7	repeat	Run1	repeat/STIM_011.jpg	100
815.894	0.529	529.1	repeat	Run1	repeat/STIM_011.jpg	100
818.52	0.937	936.8	repeat	Run1	repeat/STIM_011.jpg	100
823.002	0.51	510.4	repeat	Run1	repeat/STIM_011.jpg	100
826.325	0.949	948.6	repeat	Run1	repeat/STIM_012.jpg	100
830.12	0.652	652.4	repeat	Run1	repeat/STIM_012.jpg	100
833.874	0.876	876.0	repeat	Run1	repeat/STIM_012.jpg	99
838.134	0.702	701.8	repeat	Run1	repeat/STIM_012.jpg	99
841.51	0.761	760.9	repeat	Run1	repeat/STIM_012.jpg	99
845.874	0.59	590.4	repeat	Run1	repeat/STIM_013.jpg	99
850.46	0.818	817.6	repeat	Run1	repeat/STIM_013.jpg	99
854.99	0.84	839.8	repeat	Run1	repeat/STIM_013.jpg	99
858.491	0.624	624.5	repeat	Run1	repeat/STIM_013.jpg	99
861.186	0.568	567.9	repeat	Run1	repeat/STIM_013.jpg	99
865.49	0.975	975.2	repeat	Run1	repeat/STIM_014.jpg	100
868.891	0.864	863.7	repeat	Run1	repeat/STIM_014.jpg	100
871.889	0.979	978.9	repeat	Run1	repeat/STIM_014.jpg	99
874.921	0.606	605.8	repeat	Run1	repeat/STIM_014.jpg	99
879.181	0.888	887.9	repeat	Run1	repeat/STIM_014.jpg	99
882.605	2.124	2124.3	generate	Run2	generate/STIM_000.jpg	100
888.727	1.47	1470.0	generate	Run2	generate/STIM_000.jpg	100
893.265	1.823	1822.9	generate	Run2	generate/STIM_000.jpg	100
898.038	1.992	1992.3	generate	Run2	generate/STIM_000.jpg	100
902.578	1.31	1310.1	generate	Run2	generate/STIM_000.jpg	100
906.396	2.33	2330.2	generate	Run2	generate/STIM_001.jpg	99
911.164	1.415	1414.6	generate	Run2	generate/STIM_001.jpg	100
915.678	1.199	1199.3	generate	Run2	generate/STIM_001.jpg	99
919.22	1.76	1760.1	generate	Run2	generate/STIM_001.jpg	100
924.743	2.018	2017.8	generate	Run2	generate/STIM_001.jpg	99
930.557	1.167	1166.8	generate	Run2	generate/STIM_002.jpg	99
934.96	2.208	2208.1	generate	Run2	generate/STIM_002.jpg	100
939.877	2.215	2214.9	generate	Run2	generate/STIM_002.jpg	99
945.427	1.726	1725.6	generate	Run2	generate/STIM_002.jpg	99
951.138	1.294	1294.2	generate	Run2	generate/STIM_002.jpg	100
954.751	1.072	1072.2	generate	Run2	generate/STIM_003.jpg	99
958.189	1.236	1236.4	generate	Run2	generate/STIM_003.jpg	99
962.198	1.336	1336.3	generate	Run2	generate/STIM_003.jpg	99
966.912	1.589	1588.9	generate	Run2	generate/STIM_003.jpg	100
971.585	1.766	1766.1	generate	Run2	generate/STIM_003.jpg	99
976.884	1.246	1245.6	generate	Run2	generate/STIM_004.jpg	100
981.955	1.784	1783.6	generate	Run2	generate/STIM_004.jpg	99
986.511	1.477	1477.1	generate	Run2	generate/STIM_004.jpg	100
990.047	1.318	1317.8	generate	Run2	generate/STIM_004.jpg	100
994.226	1.822	1822.1	generate	Run2	generate/STIM_004.jpg	99
998.584	2.088	2087.6	generate	Run2	generate/STIM_005.jpg	100
1004.392	1.085	1084.7	generate	Run2	generate/STIM_005.jpg	99
1008.113	1.309	1308.8	generate	Run2	generate/STIM_005.jpg	99
1011.475	1.923	1922.7	generate	Run2	generate/STIM_005.jpg	99
1016.45	1.8	1799.9	generate	Run2	generate/STIM_005.jpg	99
1021.436	1.764	1763.6	generate	Run2	generate/STIM_006.jpg	99
1026.054	1.877	1877.4	generate	Run2	generate/STIM_006.jpg	100
1031.711	0.963	963.2	generate	Run2	generate/STIM_006.jpg	99
1035.234	1.046	1045.5	generate	Run2	generate/STIM_006.jpg	100
1038.414	1.026	1025.8	generate	Run2	generate/STIM_006.jpg	99
1043.361	1.779	1779.2	generate	Run2	generate/STIM_007.jpg	100
1047.224	1.939	1939.0	generate	Run2	generate/STIM_007.jpg	100
1051.549	1.03	1029.9	generate	Run2	generate/STIM_007.jpg	99
1056.335	1.914	1914.2	generate	Run2	generate/STIM_007.jpg	99
1062.042	1.348	1348.0	generate	Run2	generate/STIM_007.jpg	99
1066.427	1.449	1449.4	generate	Run2	generate/STIM_008.jpg	99
1071.232	2.311	2311.1	generate	Run2	generate/STIM_008.jpg	99
1076.671	2.12	2119.5	generate	Run2	generate/STIM_008.jpg	99
1081.301	1.287	1287.4	generate	Run2	generate/STIM_008.jpg	100
1084.924	1.588	1587.9	generate	Run2	generate/STIM_008.jpg	99
1088.596	1.731	1731.3	generate	Run2	generate/STIM_009.jpg	100
1092.724	1.149	1148.9	generate	Run2	generate/STIM_009.jpg	99
1097.721	1.663	1663.1	generate	Run2	generate/STIM_009.jpg	100
1102.372	2.018	2017.8	generate	Run2	generate/STIM_009.jpg	99
1107.107	1.612	1612.3	generate	Run2	generate/STIM_009.jpg	99
1112.438	2.336	2336.3	generate	Run2	generate/STIM_010.jpg	100
1117.225	2.343	2343.0	generate	Run2	generate/STIM_010.jpg	100
1123.439	1.66	1660.0	generate	Run2	generate/STIM_010.jpg	100
1128.913	1.071	1070.8	generate	Run2	generate/STIM_010.jpg	100
1132.229	1.582	1581.8	generate	Run2	generate/STIM_010.jpg	99
1137.058	2.198	2198.3	generate	Run2	generate/STIM_011.jpg	99
1143.156	1.64	1640.2	generate	Run2	generate/STIM_011.jpg	100
1148.412	1.1	1100.2	generate	Run2	generate/STIM_011.jpg	100
1152.867	1.717	1716.7	generate	Run2	generate/STIM_011.jpg	100
1158.538	1.2	1200.2	generate	Run2	generate/STIM_011.jpg	100
1162.935	1.49	1490.2	generate	Run2	generate/STIM_012.jpg	100
1167.402	1.665	1665.3	generate	Run2	generate/STIM_012.jpg	99
1172.944	1.812	1811.9	generate	Run2	generate/STIM_012.jpg	99
1178.135	1.386	1385.8	generate	Run2	generate/STIM_012.jpg	100
1181.741	0.905	904.9	generate	Run2	generate/STIM_012.jpg	100
1186.28	2.493	2492.7	generate	Run2	generate/STIM_013.jpg	100
1192.547	1.448	1448.2	generate	Run2	generate/STIM_013.jpg	100
1197.683	1.952	1951.6	generate	Run2	generate/STIM_013.jpg	99
1202.838	1.027	1027.3	generate	Run2	generate/STIM_013.jpg	100
1207.41	1.994	1993.7	generate	Run2	generate/STIM_013.jpg	100
1212.144	1.426	1425.5	generate	Run2	generate/STIM_014.jpg	100
1215.989	1.464	1464.4	generate	Run2	generate/STIM_014.jpg	100
1221.022	1.656	1656.0	generate	Run2	generate/STIM_014.jpg	100
1225.455	0.985	984.7	generate	Run2	generate/STIM_014.jpg	100
1229.634	1.628	1627.7	generate	Run2	generate/STIM_014.jpg	100
1235.232	1.31	1310.5	generate	Run2	generate/STIM_015.jpg	99
1238.756	2.298	2297.5	generate	Run2	generate/STIM_015.jpg	100
1243.414	1.402	1401.5	generate	Run2	generate/STIM_015.jpg	99
1248.828	1.24	1240.3	generate	Run2	generate/STIM_015.jpg	100
1253.138	1.454	1454.3	generate	Run2	generate/STIM_015.jpg	100
1257.673	2.436	2436.1	generate	Run2	generate/STIM_016.jpg	100
1263.543	1.202	1201.5	generate	Run2	generate/STIM_016.jpg	100
1267.362	1.06	1059.5	generate	Run2	generate/STIM_016.jpg	99
1271.186	1.311	1311.1	generate	Run2	generate/STIM_016.jpg	99
1274.984	1.206	1205.7	generate	Run2	generate/STIM_016.jpg	100
1279.273	2.454	2453.7	generate	Run2	generate/STIM_017.jpg	100
1285.613	1.774	1774.5	generate	Run2	generate/STIM_017.jpg	99
1289.712	1.145	1145.1	generate	Run2	generate/STIM_017.jpg	99
1293.848	1.511	1510.7	generate	Run2	generate/STIM_017.jpg	100
1298.154	1.566	1566.4	generate	Run2	generate/STIM_017.jpg	99
1303.439	1.148	1147.7	generate	Run2	generate/STIM_018.jpg	100
1306.889	1.294	1294.3	generate	Run2	generate/STIM_018.jpg	100
1310.372	1.376	1376.0	generate	Run2	generate/STIM_018.jpg	100
1315.749	0.969	969.1	generate	Run2	generate/STIM_018.jpg	99
1320.532	0.975	975.3	generate	Run2	generate/STIM_018.jpg	99
1324.48	1.923	1923.3	generate	Run2	generate/STIM_019.jpg	100
1329.126	2.249	2248.8	generate	Run2	generate/STIM_019.jpg	99
1335.293	2.147	2146.8	generate	Run2	generate/STIM_019.jpg	99
1340.007	1.056	1056.4	generate	Run2	generate/STIM_019.jpg	100
1343.641	1.724	1723.6	generate	Run2	generate/STIM_019.jpg	100
1349.356	1.592	1591.8	generate	Run2	generate/STIM_020.jpg	100
1353.32	1.309	1309.4	generate	Run2	generate/STIM_020.jpg	100
1356.67	1.544	1543.6	generate	Run2	generate/STIM_020.jpg	100
1360.324	1.512	1512.5	generate	Run2	generate/STIM_020.jpg	99
1365.001	1.408	1408.4	generate	Run2	generate/STIM_020.jpg	99
1368.498	1.082	1082.3	generate	Run2	generate/STIM_021.jpg	100
1372.949	1.188	1187.9	generate	Run2	generate/STIM_021.jpg	99
1377.361	1.718	1718.1	generate	Run2	generate/STIM_021.jpg	100
1382.066	1.913	1913.4	generate	Run2	generate/STIM_021.jpg	99
1386.163	1.268	1268.5	generate	Run2	generate/STIM_021.jpg	99
1390.159	1.639	1639.0	generate	Run2	generate/STIM_022.jpg	100
1394.082	2.266	2265.8	generate	Run2	generate/STIM_022.jpg	99
1399.72	1.427	1426.7	generate	Run2	generate/STIM_022.jpg	99
1404.097	1.512	1511.9	generate	Run2	generate/STIM_022.jpg	100
1408.041	1.247	1246.9	generate	Run2	generate/STIM_022.jpg	100
1412.698	1.062	1062.4	generate	Run2	generate/STIM_023.jpg	99
1417.427	2.283	2283.1	generate	Run2	generate/STIM_023.jpg	99
1423.569	2.172	2172.5	generate	Run2	generate/STIM_023.jpg	99
1428.464	0.894	893.5	generate	Run2	generate/STIM_023.jpg	100
1431.902	0.936	936.1	generate	Run2	generate/STIM_023.jpg	100
1436.747	2.29	2289.6	generate	Run2	generate/STIM_024.jpg	100
1442.541	2.22	2220.5	generate	Run2	generate/STIM_024.jpg	100
1446.81	1.933	1932.9	generate	Run2	generate/STIM_024.jpg	99
1452.346	1.124	1123.9	generate	Run2	generate/STIM_024.jpg	99
1455.774	1.912	1911.6	generate	Run2	generate/STIM_024.jpg	100
1460.262	0.954	953.7	repeat	Run2	repeat/STIM_000.jpg	100
1463.967	0.905	904.6	repeat	Run2	repeat/STIM_000.jpg	100
1468.097	0.561	560.8	repeat	Run2	repeat/STIM_000.jpg	99
1471.537	0.585	584.9	repeat	Run2	repeat/STIM_000.jpg	99
1475.408	0.808	807.7	repeat	Run2	repeat/STIM_000.jpg	100
1479.5	0.585	584.8	repeat	Run2	repeat/STIM_001.jpg	100
1483.116	0.686	686.0	repeat	Run2	repeat/STIM_001.jpg	100
1486.588	0.733	733.3	repeat	Run2	repeat/STIM_001.jpg	100
1489.531	0.89	890.4	repeat	Run2	repeat/STIM_001.jpg	100
1494.221	0.731	731.0	repeat	Run2	repeat/STIM_001.jpg	100
1497.477	0.541	541.1	repeat	Run2	repeat/STIM_002.jpg	99
1501.67	0.824	824.4	repeat	Run2	repeat/STIM_002.jpg	99
1505.518	0.535	535.3	repeat	Run2	repeat/STIM_002.jpg	100
1508.928	0.52	520.5	repeat	Run2	repeat/STIM_002.jpg	100
1511.818	0.939	938.9	repeat	Run2	repeat/STIM_002.jpg	100
1516.543	0.533	533.1	repeat	Run2	repeat/STIM_003.jpg	100
1519.312	0.716	716.1	repeat	Run2	repeat/STIM_003.jpg	99
1522.849	0.79	790.2	repeat	Run2	repeat/STIM_003.jpg	99
1527.093	0.634	633.5	repeat	Run2	repeat/STIM_003.jpg	99
1530.932	0.778	778.5	repeat	Run2	repeat/STIM_003.jpg	99
1534.84	0.661	660.9	repeat	Run2	repeat/STIM_004.jpg	100
1537.562	0.564	563.9	repeat	Run2	repeat/STIM_004.jpg	100
1540.752	0.552	552.5	repeat	Run2	repeat/STIM_004.jpg	100
1544.736	0.887	886.7	repeat	Run2	repeat/STIM_004.jpg	99
1547.908	0.53	530.5	repeat	Run2	repeat/STIM_004.jpg	99
1551.568	0.937	936.7	repeat	Run2	repeat/STIM_005.jpg	99
1554.83	0.964	963.6	repeat	Run2	repeat/STIM_005.jpg	99
1558.977	0.615	615.4	repeat	Run2	repeat/STIM_005.jpg	99
1561.992	0.801	800.7	repeat	Run2	repeat/STIM_005.jpg	100
1565.595	0.944	943.5	repeat	Run2	repeat/STIM_005.jpg	100
1570.131	0.708	707.6	repeat	Run2	repeat/STIM_006.jpg	99
1574.47	0.588	587.7	repeat	Run2	repeat/STIM_006.jpg	99
1577.743	0.959	958.8	repeat	Run2	repeat/STIM_006.jpg	100
1582.212	0.691	691.4	repeat	Run2	repeat/STIM_006.jpg	99
1585.803	0.771	771.0	repeat	Run2	repeat/STIM_006.jpg	99
1590.364	0.804	803.7	repeat	Run2	repeat/STIM_007.jpg	100
1593.955	0.692	692.5	repeat	Run2	repeat/STIM_007.jpg	100
1597.308	0.596	596.2	repeat	Run2	repeat/STIM_007.jpg	99
1600.727	0.911	911.4	repeat	Run2	repeat/STIM_007.jpg	100
1604.846	0.665	664.7	repeat	Run2	repeat/STIM_007.jpg	99
1608.678	0.805	805.0	repeat	Run2	repeat/STIM_008.jpg	100
1612.969	0.711	710.9	repeat	Run2	repeat/STIM_008.jpg	99
1617.315	0.896	895.9	repeat	Run2	repeat/STIM_008.jpg	99
1622.068	0.607	606.6	repeat	Run2	repeat/STIM_008.jpg	99
1625.595	0.514	513.7	repeat	Run2	repeat/STIM_008.jpg	99
1629.284	0.587	587.1	repeat	Run2	repeat/STIM_009.jpg	100
1633.342	0.909	908.7	repeat	Run2	repeat/STIM_009.jpg	99
1637.695	0.543	543.2	repeat	Run2	repeat/STIM_009.jpg	100
1642.051	0.69	689.9	repeat	Run2	repeat/STIM_009.jpg	100
1645.806	0.765	765.0	repeat	Run2	repeat/STIM_009.jpg	99
1650.007	0.893	893.1	repeat	Run2	repeat/STIM_010.jpg	99
1653.92	0.646	646.1	repeat	Run2	repeat/STIM_010.jpg	100
1658.061	0.81	809.7	repeat	Run2	repeat/STIM_010.jpg	99
1661.741	0.977	976.6	repeat	Run2	repeat/STIM_010.jpg	99
1665.498	0.876	876.2	repeat	Run2	repeat/STIM_010.jpg	99
1669.183	0.699	698.6	repeat	Run2	repeat/STIM_011.jpg	99
1673.165	0.539	539.1	repeat	Run2	repeat/STIM_011.jpg	100
1676.155	0.851	851.1	repeat	Run2	repeat/STIM_011.jpg	100
1679.655	0.97	969.5	repeat	Run2	repeat/STIM_011.jpg	100
1683.575	0.596	595.6	repeat	Run2	repeat/STIM_011.jpg	100
1687.459	0.519	518.8	repeat	Run2	repeat/STIM_012.jpg	99
1690.683	0.88	880.0	repeat	Run2	repeat/STIM_012.jpg	100
1693.874	0.946	946.2	repeat	Run2	repeat/STIM_012.jpg	100
1697.393	0.717	717.4	repeat	Run2	repeat/STIM_012.jpg	99
1700.724	0.726	725.8	repeat	Run2	repeat/STIM_012.jpg	99
1703.606	0.878	877.6	repeat	Run2	repeat/STIM_013.jpg	99
1708.254	0.729	728.7	repeat	Run2	repeat/STIM_013.jpg	99
1712.844	0.762	762.1	repeat	Run2	repeat/STIM_013.jpg	99
1717.465	0.834	834.3	repeat	Run2	repeat/STIM_013.jpg	99
1721.497	0.728	727.8	repeat	Run2	repeat/STIM_013.jpg	100
1724.468	0.504	504.1	repeat	Run2	repeat/STIM_014.jpg	100
1727.59	0.616	616.2	repeat	Run2	repeat/STIM_014.jpg	100
1730.658	0.521	521.3	repeat	Run2	repeat/STIM_014.jpg	99
1734.791	0.822	821.8	repeat	Run2	repeat/STIM_014.jpg	100
1737.656	0.795	795.1	repeat	Run2	repeat/STIM_014.jpg	100
1742.122	1.246	1246.3	generate	Run3	generate/STIM_000.jpg	99
1746.716	1.509	1508.8	generate	Run3	generate/STIM_000.jpg	100
1751.443	1.342	1341.6	generate	Run3	generate/STIM_000.jpg	100
1755.973	1.191	1190.8	generate	Run3	generate/STIM_000.jpg	99
1759.255	1.21	1209.7	generate	Run3	generate/STIM_000.jpg	100
1763.967	0.998	998.5	generate	Run3	generate/STIM_001.jpg	100
1767.166	2.021	2020.8	generate	Run3	generate/STIM_001.jpg	100
1771.875	0.936	936.3	generate	Run3	generate/STIM_001.jpg	99
1776.352	0.838	837.5	generate	Run3	generate/STIM_001.jpg	100
1779.711	1.716	1715.6	generate	Run3	generate/STIM_001.jpg	99
1784.656	1.829	1828.8	generate	Run3	generate/STIM_002.jpg	100
1789.256	2.063	2063.1	generate	Run3	generate/STIM_002.jpg	99
1795.342	1.769	1768.8	generate	Run3	generate/STIM_002.jpg	100
1800.294	1.155	1154.8	generate	Run3	generate/STIM_002.jpg	100
1804.949	1.482	1482.5	generate	Run3	generate/STIM_002.jpg	100
1809.293	1.64	1640.3	generate	Run3	generate/STIM_003.jpg	100
1814.116	0.949	949.3	generate	Run3	generate/STIM_003.jpg	99
1817.119	1.433	1433.1	generate	Run3	generate/STIM_003.jpg	100
1820.797	0.922	921.7	generate	Run3	generate/STIM_003.jpg	100
1823.872	1.351	1350.6	generate	Run3	generate/STIM_003.jpg	99
1828.142	1.958	1958.2	generate	Run3	generate/STIM_004.jpg	99
1832.263	2.006	2006.0	generate	Run3	generate/STIM_004.jpg	99
1837.822	2.016	2015.8	generate	Run3	generate/STIM_004.jpg	100
1841.971	0.876	876.4	generate	Run3	generate/STIM_004.jpg	99
1845.497	1.901	1901.2	generate	Run3	generate/STIM_004.jpg	100
1849.655	1.387	1386.7	generate	Run3	generate/STIM_005.jpg	100
1855.012	1.643	1643.4	generate	Run3	generate/STIM_005.jpg	100
1860.429	1.069	1069.3	generate	Run3	generate/STIM_005.jpg	99
1865.346	0.913	913.4	generate	Run3	generate/STIM_005.jpg	99
1868.373	2.035	2035.1	generate	Run3	generate/STIM_005.jpg	99
1873.386	2.031	2031.5	generate	Run3	generate/STIM_006.jpg	99
1878.261	2.008	2008.2	generate	Run3	generate/STIM_006.jpg	100
1882.929	1.319	1318.9	generate	Run3	generate/STIM_006.jpg	100
1886.379	1.533	1532.6	generate	Run3	generate/STIM_006.jpg	99
1890.475	1.929	1929.0	generate	Run3	generate/STIM_006.jpg	99
1894.797	1.89	1890.4	generate	Run3	generate/STIM_007.jpg	100
1899.829	1.519	1518.7	generate	Run3	generate/STIM_007.jpg	99
1903.797	0.999	999.3	generate	Run3	generate/STIM_007.jpg	99
1908.226	1.374	1374.5	generate	Run3	generate/STIM_007.jpg	100
1913.457	0.983	982.9	generate	Run3	generate/STIM_007.jpg	99
1916.56	0.916	915.9	generate	Run3	generate/STIM_008.jpg	99
1921.448	1.852	1852.5	generate	Run3	generate/STIM_008.jpg	100
1926.941	1.73	1729.8	generate	Run3	generate/STIM_008.jpg	99
1932.031	1.806	1805.6	generate	Run3	generate/STIM_008.jpg	100
1937.824	1.091	1090.8	generate	Run3	generate/STIM_008.jpg	99
1942.261	1.552	1551.6	generate	Run3	generate/STIM_009.jpg	100
1947.277	1.067	1067.2	generate	Run3	generate/STIM_009.jpg	99
1950.733	0.953	953.0	generate	Run3	generate/STIM_009.jpg	99
1954.413	1.728	1727.5	generate	Run3	generate/STIM_009.jpg	100
1959.571	1.912	1912.2	generate	Run3	generate/STIM_009.jpg	100
1963.668	1.082	1081.8	generate	Run3	generate/STIM_010.jpg	99
1968.003	2.026	2026.2	generate	Run3	generate/STIM_010.jpg	99
1973.571	1.469	1469.1	generate	Run3	generate/STIM_010.jpg	100
1977.699	1.579	1578.6	generate	Run3	generate/STIM_010.jpg	100
1982.44	1.404	1403.7	generate	Run3	generate/STIM_010.jpg	100
1986.32	1.619	1619.0	generate	Run3	generate/STIM_011.jpg	99
1990.093	1.763	1763.4	generate	Run3	generate/STIM_011.jpg	100
1995.302	1.88	1879.7	generate	Run3	generate/STIM_011.jpg	99
2000.076	1.32	1319.7	generate	Run3	generate/STIM_011.jpg	99
2003.795	1.96	1960.5	generate	Run3	generate/STIM_011.jpg	100
2007.834	1.584	1584.0	generate	Run3	generate/STIM_012.jpg	100
2013.183	1.586	1585.9	generate	Run3	generate/STIM_012.jpg	99
2017.924	1.677	1677.1	generate	Run3	generate/STIM_012.jpg	99
2022.024	1.682	1682.4	generate	Run3	generate/STIM_012.jpg	100
2027.361	2.015	2015.4	generate	Run3	generate/STIM_012.jpg	100
2033.022	1.138	1137.7	generate	Run3	generate/STIM_013.jpg	100
2036.423	1.182	1182.5	generate	Run3	generate/STIM_013.jpg	100
2041.23	2.064	2064.0	generate	Run3	generate/STIM_013.jpg	100
2046.414	0.857	856.6	generate	Run3	generate/STIM_013.jpg	100
2050.727	2.029	2028.8	generate	Run3	generate/STIM_013.jpg	100
2054.978	1.343	1342.7	generate	Run3	generate/STIM_014.jpg	99
2059.443	1.959	1959.0	generate	Run3	generate/STIM_014.jpg	100
2064.688	1.559	1559.1	generate	Run3	generate/STIM_014.jpg	99
2069.033	1.671	1671.2	generate	Run3	generate/STIM_014.jpg	100
2073.56	1.69	1689.9	generate	Run3	generate/STIM_014.jpg	100
2078.676	1.684	1684.2	generate	Run3	generate/STIM_015.jpg	99
2082.533	1.762	1762.3	generate	Run3	generate/STIM_015.jpg	99
2088.186	1.962	1962.3	generate	Run3	generate/STIM_015.jpg	100
2092.789	1.584	1584.5	generate	Run3	generate/STIM_015.jpg	100
2097.809	1.426	1425.7	generate	Run3	generate/STIM_015.jpg	99
2101.94	1.522	1521.8	generate	Run3	generate/STIM_016.jpg	99
2105.602	1.016	1016.1	generate	Run3	generate/STIM_016.jpg	99
2108.983	1.775	1775.4	generate	Run3	generate/STIM_016.jpg	99
2114.671	1.523	1523.3	generate	Run3	generate/STIM_016.jpg	99
2118.554	1.07	1069.5	generate	Run3	generate/STIM_016.jpg	99
2123.525	1.855	1855.2	generate	Run3	generate/STIM_017.jpg	99
2129.089	1.491	1490.8	generate	Run3	generate/STIM_017.jpg	99
2132.786	2.036	2036.2	generate	Run3	generate/STIM_017.jpg	100
2137.361	1.452	1451.5	generate	Run3	generate/STIM_017.jpg	100
2141.968	1.552	1551.5	generate	Run3	generate/STIM_017.jpg	99
2145.838	0.97	970.3	generate	Run3	generate/STIM_018.jpg	100
2150.282	0.901	901.1	generate	Run3	generate/STIM_018.jpg	100
2155.053	1.36	1359.7	generate	Run3	generate/STIM_018.jpg	100
2159.349	1.946	1946.1	generate	Run3	generate/STIM_018.jpg	100
2163.932	2.03	2030.0	generate	Run3	generate/STIM_018.jpg	99
2169.811	1.062	1062.3	generate	Run3	generate/STIM_019.jpg	100
2174.308	0.876	876.1	generate	Run3	generate/STIM_019.jpg	99
2177.342	1.332	1332.5	generate	Run3	generate/STIM_019.jpg	99
2181.554	0.985	985.2	generate	Run3	generate/STIM_019.jpg	100
2185.18	1.569	1568.8	generate	Run3	generate/STIM_019.jpg	99
2190.547	1.615	1615.0	generate	Run3	generate/STIM_020.jpg	99
2195.713	1.841	1841.3	generate	Run3	generate/STIM_020.jpg	100
2200.398	1.124	1123.7	generate	Run3	generate/STIM_020.jpg	100
2204.031	1.272	1271.7	generate	Run3	generate/STIM_020.jpg	100
2207.512	1.494	1494.1	generate	Run3	generate/STIM_020.jpg	99
2212.956	1.66	1660.4	generate	Run3	generate/STIM_021.jpg	99
2217.402	1.052	1051.6	generate	Run3	generate/STIM_021.jpg	99
2221.365	1.838	1838.2	generate	Run3	generate/STIM_021.jpg	100
2225.576	1.41	1409.9	generate	Run3	generate/STIM_021.jpg	99
2229.521	1.305	1304.6	generate	Run3	generate/STIM_021.jpg	99
2233.711	1.013	1012.7	generate	Run3	generate/STIM_022.jpg	100
2237.667	1.189	1188.6	generate	Run3	generate/STIM_022.jpg	100
2241.013	1.74	1739.9	generate	Run3	generate/STIM_022.jpg	100
2244.967	1.246	1245.5	generate	Run3	generate/STIM_022.jpg	99
2249.708	0.971	971.3	generate	Run3	generate/STIM_022.jpg	99
2253.452	1.688	1688.5	generate	Run3	generate/STIM_023.jpg	100
2258.379	1.386	1385.8	generate	Run3	generate/STIM_023.jpg	99
2262.707	1.172	1172.4	generate	Run3	generate/STIM_023.jpg	100
2266.993	0.958	958.2	generate	Run3	generate/STIM_023.jpg	99
2270.82	1.582	1582.4	generate	Run3	generate/STIM_023.jpg	100
2274.471	1.921	1921.2	generate	Run3	generate/STIM_024.jpg	100
2279.252	1.715	1715.0	generate	Run3	generate/STIM_024.jpg	99
2283.315	0.919	919.3	generate	Run3	generate/STIM_024.jpg	99
2287.792	1.476	1476.1	generate	Run3	generate/STIM_024.jpg	99
2292.227	1.583	1583.1	generate	Run3	generate/STIM_024.jpg	99
2297.636	0.552	552.5	repeat	Run3	repeat/STIM_000.jpg	100
2300.58	0.639	638.8	repeat	Run3	repeat/STIM_000.jpg	100
2304.94	0.898	898.4	repeat	Run3	repeat/STIM_000.jpg	100
2309.213	0.557	557.2	repeat	Run3	repeat/STIM_000.jpg	100
2312.955	0.813	813.3	repeat	Run3	repeat/STIM_000.jpg	100
2317.501	0.919	919.2	repeat	Run3	repeat/STIM_001.jpg	100
2321.579	0.815	815.0	repeat	Run3	repeat/STIM_001.jpg	99
2326.156	0.669	669.4	repeat	Run3	repeat/STIM_001.jpg	100
2329.91	0.617	616.6	repeat	Run3	repeat/STIM_001.jpg	100
2332.886	0.982	982.5	repeat	Run3	repeat/STIM_001.jpg	100
2336.243	0.84	840.5	repeat	Run3	repeat/STIM_002.jpg	99
2339.52	0.853	853.2	repeat	Run3	repeat/STIM_002.jpg	99
2342.689	0.69	690.3	repeat	Run3	repeat/STIM_002.jpg	100
2345.852	0.976	976.2	repeat	Run3	repeat/STIM_002.jpg	99
2349.755	0.944	944.5	repeat	Run3	repeat/STIM_002.jpg	100
2354.15	0.772	771.9	repeat	Run3	repeat/STIM_003.jpg	99
2357.63	0.935	934.6	repeat	Run3	repeat/STIM_003.jpg	99
2362.183	0.584	583.9	repeat	Run3	repeat/STIM_003.jpg	100
2365.084	0.766	765.8	repeat	Run3	repeat/STIM_003.jpg	100
2368.037	0.573	572.8	repeat	Run3	repeat/STIM_003.jpg	100
2371.672	0.949	949.2	repeat	Run3	repeat/STIM_004.jpg	99
2376.186	0.871	871.4	repeat	Run3	repeat/STIM_004.jpg	99
2379.464	0.576	575.8	repeat	Run3	repeat/STIM_004.jpg	100
2382.53	0.676	676.0	repeat	Run3	repeat/STIM_004.jpg	99
2385.723	0.869	868.7	repeat	Run3	repeat/STIM_004.jpg	100
2389.397	0.807	807.4	repeat	Run3	repeat/STIM_005.jpg	99
2393.735	0.603	602.8	repeat	Run3	repeat/STIM_005.jpg	99
2397.954	0.933	933.4	repeat	Run3	repeat/STIM_005.jpg	99
2401.482	0.908	908.2	repeat	Run3	repeat/STIM_005.jpg	100
2406.194	0.769	769.2	repeat	Run3	repeat/STIM_005.jpg	99
2410.859	0.563	562.9	repeat	Run3	repeat/STIM_006.jpg	99
2413.596	0.62	619.8	repeat	Run3	repeat/STIM_006.jpg	99
2418.053	0.898	898.1	repeat	Run3	repeat/STIM_006.jpg	99
2421.019	0.666	665.9	repeat	Run3	repeat/STIM_006.jpg	100
2424.385	0.923	923.2	repeat	Run3	repeat/STIM_006.jpg	100
2428.969	0.633	632.9	repeat	Run3	repeat/STIM_007.jpg	99
2433.465	0.738	737.9	repeat	Run3	repeat/STIM_007.jpg	99
2436.337	0.959	959.1	repeat	Run3	repeat/STIM_007.jpg	99
2441.059	0.527	527.2	repeat	Run3	repeat/STIM_007.jpg	100
2444.06	0.543	543.0	repeat	Run3	repeat/STIM_007.jpg	100
2447.213	0.68	680.2	repeat	Run3	repeat/STIM_008.jpg	100
2450.095	0.611	610.8	repeat	Run3	repeat/STIM_008.jpg	100
2454.096	0.758	757.8	repeat	Run3	repeat/STIM_008.jpg	99
2457.238	0.796	796.1	repeat	Run3	repeat/STIM_008.jpg	99
2460.441	0.802	802.3	repeat	Run3	repeat/STIM_008.jpg	100
2464.65	0.869	869.0	repeat	Run3	repeat/STIM_009.jpg	99
2468.957	0.935	935.0	repeat	Run3	repeat/STIM_009.jpg	99
2473.466	0.594	594.0	repeat	Run3	repeat/STIM_009.jpg	99
2476.71	0.929	929.1	repeat	Run3	repeat/STIM_009.jpg	100
2480.187	0.542	542.2	repeat	Run3	repeat/STIM_009.jpg	100
2484.163	0.758	758.2	repeat	Run3	repeat/STIM_010.jpg	99
2488.604	0.666	666.3	repeat	Run3	repeat/STIM_010.jpg	99
2492.272	0.637	636.6	repeat	Run3	repeat/STIM_010.jpg	99
2495.944	0.698	697.8	repeat	Run3	repeat/STIM_010.jpg	99
2499.201	0.633	632.9	repeat	Run3	repeat/STIM_010.jpg	100
2502.568	0.758	757.9	repeat	Run3	repeat/STIM_011.jpg	99
2506.762	0.768	767.8	repeat	Run3	repeat/STIM_011.jpg	99
2510.837	0.94	940.0	repeat	Run3	repeat/STIM_011.jpg	100
2514.002	0.725	725.3	repeat	Run3	repeat/STIM_011.jpg	99
2518.038	0.878	878.2	repeat	Run3	repeat/STIM_011.jpg	99
2522.077	0.534	534.0	repeat	Run3	repeat/STIM_012.jpg	99
2525.884	0.612	612.2	repeat	Run3	repeat/STIM_012.jpg	99
2528.857	0.784	784.3	repeat	Run3	repeat/STIM_012.jpg	99
2533.254	0.528	528.4	repeat	Run3	repeat/STIM_012.jpg	100
2537.493	0.67	669.8	repeat	Run3	repeat/STIM_012.jpg	99
2541.903	0.518	518.5	repeat	Run3	repeat/STIM_013.jpg	100
2544.649	0.535	535.4	repeat	Run3	repeat/STIM_013.jpg	100
2548.03	0.896	895.8	repeat	Run3	repeat/STIM_013.jpg	99
2551.557	0.64	640.4	repeat	Run3	repeat/STIM_013.jpg	99
2555.749	0.947	947.4	repeat	Run3	repeat/STIM_013.jpg	99
2559.428	0.648	647.9	repeat	Run3	repeat/STIM_014.jpg	99
2563.426	0.822	822.1	repeat	Run3	repeat/STIM_014.jpg	99
2567.131	0.628	628.1	repeat	Run3	repeat/STIM_014.jpg	99
2569.986	0.719	718.6	repeat	Run3	repeat/STIM_014.jpg	99
2574.085	0.851	851.0	repeat	Run3	repeat/STIM_014.jpg	99
2577.317	1.196	1196.5	generate	Run4	generate/STIM_000.jpg	99
2581.249	1.222	1221.8	generate	Run4	generate/STIM_000.jpg	100
2585.997	1.66	1660.2	generate	Run4	generate/STIM_000.jpg	100
2590.747	1.688	1687.8	generate	Run4	generate/STIM_000.jpg	100
2596.35	1.11	1110.3	generate	Run4	generate/STIM_000.jpg	100
2600.237	1.108	1108.3	generate	Run4	generate/STIM_001.jpg	100
2603.955	1.012	1012.5	generate	Run4	generate/STIM_001.jpg	100
2608.318	1.226	1225.7	generate	Run4	generate/STIM_001.jpg	100
2613.197	1.064	1063.8	generate	Run4	generate/STIM_001.jpg	99
2617.012	1.231	1231.4	generate	Run4	generate/STIM_001.jpg	100
2622.108	1.23	1230.0	generate	Run4	generate/STIM_002.jpg	99
2627.344	1.023	1023.1	generate	Run4	generate/STIM_002.jpg	99
2631.098	1.104	1103.7	generate	Run4	generate/STIM_002.jpg	100
2635.67	1.331	1331.0	generate	Run4	generate/STIM_002.jpg	100
2639.427	2.067	2066.9	generate	Run4	generate/STIM_002.jpg	100
2643.967	1.549	1549.3	generate	Run4	generate/STIM_003.jpg	99
2648.036	1.77	1769.9	generate	Run4	generate/STIM_003.jpg	99
2653.256	1.967	1966.6	generate	Run4	generate/STIM_003.jpg	100
2657.471	1.94	1939.7	generate	Run4	generate/STIM_003.jpg	100
2662.466	1.534	1534.1	generate	Run4	generate/STIM_003.jpg	99
2666.608	1.607	1607.1	generate	Run4	generate/STIM_004.jpg	100
2671.579	1.615	1615.1	generate	Run4	generate/STIM_004.jpg	100
2676.918	1.758	1758.1	generate	Run4	generate/STIM_004.jpg	100
2682.203	0.844	843.6	generate	Run4	generate/STIM_004.jpg	100
2685.837	2.025	2025.4	generate	Run4	generate/STIM_004.jpg	99
2691.035	1.22	1220.4	generate	Run4	generate/STIM_005.jpg	99
2695.421	1.982	1981.8	generate	Run4	generate/STIM_005.jpg	99
2699.691	1.753	1753.4	generate	Run4	generate/STIM_005.jpg	99
2704.958	1.508	1507.8	generate	Run4	generate/STIM_005.jpg	99
2708.976	0.855	855.0	generate	Run4	generate/STIM_005.jpg	99
2712.445	0.873	873.4	generate	Run4	generate/STIM_006.jpg	99
2715.794	1.249	1249.0	generate	Run4	generate/STIM_006.jpg	99
2720.827	1.175	1174.8	generate	Run4	generate/STIM_006.jpg	99
2725.007	1.823	1822.7	generate	Run4	generate/STIM_006.jpg	100
2730.822	0.869	868.9	generate	Run4	generate/STIM_006.jpg	100
2735.556	1.018	1017.7	generate	Run4	generate/STIM_007.jpg	99
2740.129	2.0	2000.3	generate	Run4	generate/STIM_007.jpg	99
2744.954	1.777	1777.3	generate	Run4	generate/STIM_007.jpg	99
2750.057	1.978	1978.0	generate	Run4	generate/STIM_007.jpg	100
2754.233	0.879	879.2	generate	Run4	generate/STIM_007.jpg	99
2758.912	1.936	1935.8	generate	Run4	generate/STIM_008.jpg	99
2763.217	1.094	1093.5	generate	Run4	generate/STIM_008.jpg	99
2767.869	1.589	1589.2	generate	Run4	generate/STIM_008.jpg	100
2772.89	1.614	1613.5	generate	Run4	generate/STIM_008.jpg	99
2777.558	1.552	1552.2	generate	Run4	generate/STIM_008.jpg	99
2782.461	1.739	1738.7	generate	Run4	generate/STIM_009.jpg	99
2787.173	1.631	1631.4	generate	Run4	generate/STIM_009.jpg	100
2791.745	1.814	1814.5	generate	Run4	generate/STIM_009.jpg	99
2797.352	0.834	833.7	generate	Run4	generate/STIM_009.jpg	100
2801.992	1.656	1655.8	generate	Run4	generate/STIM_009.jpg	100
2807.263	1.486	1486.5	generate	Run4	generate/STIM_010.jpg	100
2811.524	1.215	1214.9	generate	Run4	generate/STIM_010.jpg	99
2814.776	2.054	2053.9	generate	Run4	generate/STIM_010.jpg	100
2820.32	1.448	1448.0	generate	Run4	generate/STIM_010.jpg	100
2825.649	1.227	1227.3	generate	Run4	generate/STIM_010.jpg	99
2829.124	1.645	1645.3	generate	Run4	generate/STIM_011.jpg	100
2834.712	0.934	934.1	generate	Run4	generate/STIM_011.jpg	99
2838.98	1.274	1274.1	generate	Run4	generate/STIM_011.jpg	100
2842.499	1.616	1616.2	generate	Run4	generate/STIM_011.jpg	99
2847.423	1.495	1495.4	generate	Run4	generate/STIM_011.jpg	99
2851.297	1.228	1228.1	generate	Run4	generate/STIM_012.jpg	100
2856.491	1.765	1764.7	generate	Run4	generate/STIM_012.jpg	100
2861.8	1.765	1765.1	generate	Run4	generate/STIM_012.jpg	100
2865.651	1.223	1223.4	generate	Run4	generate/STIM_012.jpg	99
2869.145	1.172	1172.4	generate	Run4	generate/STIM_012.jpg	99
2873.639	2.063	2062.6	generate	Run4	generate/STIM_013.jpg	100
2879.509	1.855	1855.0	generate	Run4	generate/STIM_013.jpg	99
2883.655	1.208	1207.6	generate	Run4	generate/STIM_013.jpg	100
2887.35	1.582	1581.9	generate	Run4	generate/STIM_013.jpg	100
2891.298	1.252	1252.0	generate	Run4	generate/STIM_013.jpg	100
2896.556	2.005	2004.7	generate	Run4	generate/STIM_014.jpg	99
2901.376	1.09	1090.5	generate	Run4	generate/STIM_014.jpg	99
2906.093	1.699	1699.0	generate	Run4	generate/STIM_014.jpg	99
2909.998	1.681	1680.9	generate	Run4	generate/STIM_014.jpg	100
2914.4	1.826	1825.6	generate	Run4	generate/STIM_014.jpg	99
2920.107	0.981	980.8	generate	Run4	generate/STIM_015.jpg	100
2923.527	2.013	2013.4	generate	Run4	generate/STIM_015.jpg	100
2929.01	1.216	1216.2	generate	Run4	generate/STIM_015.jpg	100
2933.551	1.953	1953.1	generate	Run4	generate/STIM_015.jpg	99
2938.54	1.404	1403.5	generate	Run4	generate/STIM_015.jpg	100
2943.259	1.26	1260.4	generate	Run4	generate/STIM_016.jpg	99
2947.963	2.013	2012.6	generate	Run4	generate/STIM_016.jpg	99
2953.925	0.918	917.7	generate	Run4	generate/STIM_016.jpg	99
2957.118	1.804	1804.2	generate	Run4	generate/STIM_016.jpg	99
2962.423	1.843	1843.4	generate	Run4	generate/STIM_016.jpg	100
2968.228	1.98	1980.3	generate	Run4	generate/STIM_017.jpg	99
2974.148	1.826	1826.3	generate	Run4	generate/STIM_017.jpg	100
2978.285	1.088	1087.6	generate	Run4	generate/STIM_017.jpg	99
2981.793	0.941	941.3	generate	Run4	generate/STIM_017.jpg	99
2985.044	1.434	1433.6	generate	Run4	generate/STIM_017.jpg	100
2989.326	1.536	1535.5	generate	Run4	generate/STIM_018.jpg	99
2994.544	1.656	1656.0	generate	Run4	generate/STIM_018.jpg	99
2998.681	1.721	1721.2	generate	Run4	generate/STIM_018.jpg	99
3003.548	1.526	1526.0	generate	Run4	generate/STIM_018.jpg	100
3008.416	1.614	1614.5	generate	Run4	generate/STIM_018.jpg	100
3012.57	1.5	1499.6	generate	Run4	generate/STIM_019.jpg	100
3017.591	1.035	1034.9	generate	Run4	generate/STIM_019.jpg	99
3022.525	2.005	2005.0	generate	Run4	generate/STIM_019.jpg	99
3028.511	1.503	1503.0	generate	Run4	generate/STIM_019.jpg	99
3033.897	0.922	921.6	generate	Run4	generate/STIM_019.jpg	100
3038.189	0.988	988.0	generate	Run4	generate/STIM_020.jpg	100
3041.287	0.954	953.7	generate	Run4	generate/STIM_020.jpg	99
3044.529	1.277	1277.0	generate	Run4	generate/STIM_020.jpg	100
3048.041	1.415	1415.1	generate	Run4	generate/STIM_020.jpg	100
3052.455	1.484	1484.3	generate	Run4	generate/STIM_020.jpg	100
3057.351	1.353	1353.3	generate	Run4	generate/STIM_021.jpg	100
3062.241	1.492	1492.4	generate	Run4	generate/STIM_021.jpg	100
3066.112	1.895	1894.6	generate	Run4	generate/STIM_021.jpg	100
3071.22	1.384	1383.6	generate	Run4	generate/STIM_021.jpg	100
3075.518	1.227	1226.6	generate	Run4	generate/STIM_021.jpg	99
3080.528	1.658	1657.6	generate	Run4	generate/STIM_022.jpg	99
3086.009	1.094	1093.7	generate	Run4	generate/STIM_022.jpg	99
3090.691	1.824	1823.6	generate	Run4	generate/STIM_022.jpg	100
3095.28	1.064	1063.9	generate	Run4	generate/STIM_022.jpg	99
3099.757	1.71	1710.1	generate	Run4	generate/STIM_022.jpg	99
3105.374	1.931	1931.4	generate	Run4	generate/STIM_023.jpg	100
3109.446	1.877	1877.2	generate	Run4	generate/STIM_023.jpg	99
3114.696	1.711	1710.7	generate	Run4	generate/STIM_023.jpg	100
3119.821	2.021	2021.2	generate	Run4	generate/STIM_023.jpg	99
3124.542	2.07	2070.1	generate	Run4	generate/STIM_023.jpg	100
3128.786	1.82	1819.6	generate	Run4	generate/STIM_024.jpg	100
3134.229	1.276	1275.9	generate	Run4	generate/STIM_024.jpg	100
3139.127	1.668	1668.5	generate	Run4	generate/STIM_024.jpg	100
3144.491	1.123	1123.1	generate	Run4	generate/STIM_024.jpg	100
3149.139	1.388	1388.3	generate	Run4	generate/STIM_024.jpg	100
3153.248	0.905	904.9	repeat	Run4	repeat/STIM_000.jpg	100
3158.114	0.586	585.9	repeat	Run4	repeat/STIM_000.jpg	99
3160.885	0.653	653.4	repeat	Run4	repeat/STIM_000.jpg	99
3163.888	0.819	819.2	repeat	Run4	repeat/STIM_000.jpg	99
3167.225	0.706	705.8	repeat	Run4	repeat/STIM_000.jpg	100
3170.682	0.694	694.2	repeat	Run4	repeat/STIM_001.jpg	100
3175.14	0.605	605.1	repeat	Run4	repeat/STIM_001.jpg	99
3178.645	0.91	910.3	repeat	Run4	repeat/STIM_001.jpg	99
3183.535	0.823	822.9	repeat	Run4	repeat/STIM_001.jpg	100
3186.826	0.823	823.1	repeat	Run4	repeat/STIM_001.jpg	100
3190.06	0.837	837.0	repeat	Run4	repeat/STIM_002.jpg	100
3193.467	0.656	655.5	repeat	Run4	repeat/STIM_002.jpg	100
3196.79	0.658	658.3	repeat	Run4	repeat/STIM_002.jpg	100
3200.073	0.835	835.0	repeat	Run4	repeat/STIM_002.jpg	100
3204.114	0.557	557.4	repeat	Run4	repeat/STIM_002.jpg	99
3207.027	0.863	862.7	repeat	Run4	repeat/STIM_003.jpg	100
3210.513	0.647	646.6	repeat	Run4	repeat/STIM_003.jpg	100
3214.955	0.705	705.3	repeat	Run4	repeat/STIM_003.jpg	99
3218.44	0.954	953.5	repeat	Run4	repeat/STIM_003.jpg	100
3223.124	0.546	546.1	repeat	Run4	repeat/STIM_003.jpg	100
3227.173	0.634	633.5	repeat	Run4	repeat/STIM_004.jpg	100
3230.346	0.496	496.1	repeat	Run4	repeat/STIM_004.jpg	100
3233.802	0.754	753.9	repeat	Run4	repeat/STIM_004.jpg	99
3237.82	0.747	747.4	repeat	Run4	repeat/STIM_004.jpg	100
3241.918	0.893	893.4	repeat	Run4	repeat/STIM_004.jpg	99
3246.818	0.531	531.2	repeat	Run4	repeat/STIM_005.jpg	99
3250.266	0.815	815.0	repeat	Run4	repeat/STIM_005.jpg	100
3253.697	0.705	705.2	repeat	Run4	repeat/STIM_005.jpg	99
3258.332	0.53	529.8	repeat	Run4	repeat/STIM_005.jpg	100
3261.623	0.843	843.1	repeat	Run4	repeat/STIM_005.jpg	100
3266.309	0.629	628.8	repeat	Run4	repeat/STIM_006.jpg	100
3269.449	0.557	556.9	repeat	Run4	repeat/STIM_006.jpg	100
3273.502	0.677	676.8	repeat	Run4	repeat/STIM_006.jpg	99
3277.161	0.872	871.9	repeat	Run4	repeat/STIM_006.jpg	99
3280.327	0.835	834.8	repeat	Run4	repeat/STIM_006.jpg	99
3284.535	0.518	517.7	repeat	Run4	repeat/STIM_007.jpg	100
3287.789	0.71	710.3	repeat	Run4	repeat/STIM_007.jpg	99
3291.558	0.509	509.2	repeat	Run4	repeat/STIM_007.jpg	100
3295.815	0.601	601.1	repeat	Run4	repeat/STIM_007.jpg	99
3299.319	0.836	836.0	repeat	Run4	repeat/STIM_007.jpg	100
3302.774	0.644	644.5	repeat	Run4	repeat/STIM_008.jpg	99
3305.582	0.849	849.0	repeat	Run4	repeat/STIM_008.jpg	100
3309.686	0.858	857.9	repeat	Run4	repeat/STIM_008.jpg	99
3312.73	0.93	930.4	repeat	Run4	repeat/STIM_008.jpg	100
3316.438	0.555	554.7	repeat	Run4	repeat/STIM_008.jpg	100
3320.102	0.743	743.2	repeat	Run4	repeat/STIM_009.jpg	99
3323.736	0.811	810.9	repeat	Run4	repeat/STIM_009.jpg	100
3327.135	0.8	799.9	repeat	Run4	repeat/STIM_009.jpg	99
3331.89	0.862	861.5	repeat	Run4	repeat/STIM_009.jpg	100
3336.332	0.949	949.0	repeat	Run4	repeat/STIM_009.jpg	100
3339.302	0.608	607.5	repeat	Run4	repeat/STIM_010.jpg	99
3342.191	0.497	496.8	repeat	Run4	repeat/STIM_010.jpg	99
3346.487	0.924	923.6	repeat	Run4	repeat/STIM_010.jpg	100
3350.194	0.687	687.0	repeat	Run4	repeat/STIM_010.jpg	100
3353.512	0.657	657.1	repeat	Run4	repeat/STIM_010.jpg	100
3356.643	0.661	660.6	repeat	Run4	repeat/STIM_011.jpg	100
3361.22	0.605	605.1	repeat	Run4	repeat/STIM_011.jpg	100
3364.781	0.749	748.6	repeat	Run4	repeat/STIM_011.jpg	100
3367.825	0.809	808.6	repeat	Run4	repeat/STIM_011.jpg	99
3371.612	0.662	661.5	repeat	Run4	repeat/STIM_011.jpg	100
3374.562	0.52	520.1	repeat	Run4	repeat/STIM_012.jpg	100
3378.453	0.895	895.0	repeat	Run4	repeat/STIM_012.jpg	100
3381.693	0.54	540.0	repeat	Run4	repeat/STIM_012.jpg	99
3385.574	0.727	727.3	repeat	Run4	repeat/STIM_012.jpg	100
3388.92	0.979	979.1	repeat	Run4	repeat/STIM_012.jpg	99
3393.251	0.597	597.1	repeat	Run4	repeat/STIM_013.jpg	100
3395.904	0.779	779.2	repeat	Run4	repeat/STIM_013.jpg	99
3399.924	0.556	555.7	repeat	Run4	repeat/STIM_013.jpg	100
3403.368	0.904	904.0	repeat	Run4	repeat/STIM_013.jpg	99
3406.441	0.772	772.4	repeat	Run4	repeat/STIM_013.jpg	100
3409.274	0.882	881.8	repeat	Run4	repeat/STIM_014.jpg	100
3413.049	0.728	727.6	repeat	Run4	repeat/STIM_014.jpg	99
3415.993	0.949	948.6	repeat	Run4	repeat/STIM_014.jpg	99
3420.529	0.901	901.2	repeat	Run4	repeat/STIM_014.jpg	100
3425.396	0.858	858.2	repeat	Run4	repeat/STIM_014.jpg	99
