onset	duration	accuracy	trial_type	learning_stage	stimulus
0.0	2.72	incorrect	navigation	Trial1	navigation/STIM_000.jpg
5.421	2.538	correct	navigation	Trial1	navigation/STIM_000.jpg
11.163	2.006	correct	navigation	Trial1	navigation/STIM_000.jpg
17.156	1.488	correct	navigation	Trial1	navigation/STIM_000.jpg
22.418	1.988	correct	navigation	Trial1	navigation/STIM_000.jpg
27.434	1.202	correct	navigation	Trial1	navigation/STIM_000.jpg
31.498	2.446	correct	navigation	Trial1	navigation/STIM_001.jpg
36.639	2.498	correct	navigation	Trial1	navigation/STIM_001.jpg
42.901	1.987	correct	navigation	Trial1	navigation/STIM_001.jpg
46.992	2.642	incorrect	navigation	Trial1	navigation/STIM_001.jpg
52.462	2.423	correct	navigation	Trial1	navigation/STIM_001.jpg
58.53	1.398	incorrect	navigation	Trial1	navigation/STIM_001.jpg
61.975	2.794	incorrect	navigation	Trial1	navigation/STIM_002.jpg
68.448	2.222	correct	navigation	Trial1	navigation/STIM_002.jpg
73.983	1.448	correct	navigation	Trial1	navigation/STIM_002.jpg
77.494	3.262	correct	navigation	Trial1	navigation/STIM_002.jpg
84.523	2.233	correct	navigation	Trial1	navigation/STIM_002.jpg
89.754	2.199	incorrect	navigation	Trial1	navigation/STIM_002.jpg
94.366	2.953	correct	navigation	Trial1	navigation/STIM_003.jpg
101.106	1.49	incorrect	navigation	Trial1	navigation/STIM_003.jpg
104.652	2.406	incorrect	navigation	Trial1	navigation/STIM_003.jpg
110.14	2.205	incorrect	navigation	Trial1	navigation/STIM_003.jpg
115.8	2.229	incorrect	navigation	Trial1	navigation/STIM_003.jpg
121.215	2.298	incorrect	navigation	Trial1	navigation/STIM_003.jpg
126.534	2.899	correct	navigation	Trial1	navigation/STIM_004.jpg
132.514	3.5	correct	navigation	Trial1	navigation/STIM_004.jpg
139.326	1.445	incorrect	navigation	Trial1	navigation/STIM_004.jpg
143.053	3.193	incorrect	navigation	Trial1	navigation/STIM_004.jpg
148.759	3.079	correct	navigation	Trial1	navigation/STIM_004.jpg
154.721	2.702	correct	navigation	Trial1	navigation/STIM_004.jpg
159.435	3.19	correct	navigation	Trial1	navigation/STIM_005.jpg
164.732	2.55	correct	navigation	Trial1	navigation/STIM_005.jpg
170.43	2.876	incorrect	navigation	Trial1	navigation/STIM_005.jpg
176.802	2.085	correct	navigation	Trial1	navigation/STIM_005.jpg
182.529	2.905	correct	navigation	Trial1	navigation/STIM_005.jpg
187.633	2.577	correct	navigation	Trial1	navigation/STIM_005.jpg
193.649	3.076	incorrect	navigation	Trial1	navigation/STIM_006.jpg
199.671	3.621	incorrect	navigation	Trial1	navigation/STIM_006.jpg
205.461	2.686	correct	navigation	Trial1	navigation/STIM_006.jpg
211.642	2.451	correct	navigation	Trial1	navigation/STIM_006.jpg
216.113	1.932	correct	navigation	Trial1	navigation/STIM_006.jpg
221.258	2.058	correct	navigation	Trial1	navigation/STIM_006.jpg
225.604	2.152	correct	navigation	Trial1	navigation/STIM_007.jpg
231.426	1.838	incorrect	navigation	Trial1	navigation/STIM_007.jpg
237.257	2.53	correct	navigation	Trial1	navigation/STIM_007.jpg
243.428	2.278	correct	navigation	Trial1	navigation/STIM_007.jpg
248.955	1.472	correct	navigation	Trial1	navigation/STIM_007.jpg
252.516	1.95	correct	navigation	Trial1	navigation/STIM_007.jpg
257.286	3.587	correct	navigation	Trial1	navigation/STIM_008.jpg
264.352	3.378	incorrect	navigation	Trial1	navigation/STIM_008.jpg
270.552	1.891	correct	navigation	Trial1	navigation/STIM_008.jpg
274.541	2.641	correct	navigation	Trial1	navigation/STIM_008.jpg
280.483	2.657	correct	navigation	Trial1	navigation/STIM_008.jpg
286.183	1.539	incorrect	navigation	Trial1	navigation/STIM_008.jpg
291.268	3.414	correct	navigation	Trial1	navigation/STIM_009.jpg
297.942	2.427	incorrect	navigation	Trial1	navigation/STIM_009.jpg
302.863	1.984	correct	navigation	Trial1	navigation/STIM_009.jpg
308.245	1.342	correct	navigation	Trial1	navigation/STIM_009.jpg
311.854	2.54	correct	navigation	Trial1	navigation/STIM_009.jpg
317.036	1.452	correct	navigation	Trial1	navigation/STIM_009.jpg
320.861	2.709	incorrect	navigation	Trial1	navigation/STIM_010.jpg
327.47	1.896	incorrect	navigation	Trial1	navigation/STIM_010.jpg
332.474	1.61	correct	navigation	Trial1	navigation/STIM_010.jpg
336.135	1.827	correct	navigation	Trial1	navigation/STIM_010.jpg
340.686	1.63	incorrect	navigation	Trial1	navigation/STIM_010.jpg
344.349	1.584	incorrect	navigation	Trial1	navigation/STIM_010.jpg
348.692	3.168	incorrect	navigation	Trial1	navigation/STIM_011.jpg
354.987	1.581	correct	navigation	Trial1	navigation/STIM_011.jpg
360.276	1.843	incorrect	navigation	Trial1	navigation/STIM_011.jpg
365.093	2.648	correct	navigation	Trial1	navigation/STIM_011.jpg
370.919	2.926	correct	navigation	Trial1	navigation/STIM_011.jpg
377.732	2.503	correct	navigation	Trial1	navigation/STIM_011.jpg
383.666	0.643	correct	pointing	Trial1	pointing/STIM_000.jpg
386.88	0.858	correct	pointing	Trial1	pointing/STIM_000.jpg
390.836	0.916	correct	pointing	Trial1	pointing/STIM_000.jpg
394.751	0.87	correct	pointing	Trial1	pointing/STIM_000.jpg
399.263	0.932	correct	pointing	Trial1	pointing/STIM_000.jpg
402.31	1.006	correct	pointing	Trial1	pointing/STIM_000.jpg
406.753	0.733	correct	pointing	Trial1	pointing/STIM_001.jpg
410.475	0.708	correct	pointing	Trial1	pointing/STIM_001.jpg
413.477	0.639	correct	pointing	Trial1	pointing/STIM_001.jpg
416.436	1.063	correct	pointing	Trial1	pointing/STIM_001.jpg
421.443	0.771	correct	pointing	Trial1	pointing/STIM_001.jpg
425.709	0.924	correct	pointing	Trial1	pointing/STIM_001.jpg
429.466	1.07	correct	pointing	Trial1	pointing/STIM_002.jpg
432.805	1.044	correct	pointing	Trial1	pointing/STIM_002.jpg
436.772	0.906	correct	pointing	Trial1	pointing/STIM_002.jpg
441.365	0.893	correct	pointing	Trial1	pointing/STIM_002.jpg
444.702	0.694	correct	pointing	Trial1	pointing/STIM_002.jpg
448.793	1.153	correct	pointing	Trial1	pointing/STIM_002.jpg
452.954	0.835	correct	pointing	Trial1	pointing/STIM_003.jpg
457.475	0.682	correct	pointing	Trial1	pointing/STIM_003.jpg
461.897	1.028	correct	pointing	Trial1	pointing/STIM_003.jpg
465.36	0.663	correct	pointing	Trial1	pointing/STIM_003.jpg
468.668	1.146	correct	pointing	Trial1	pointing/STIM_003.jpg
471.843	0.642	correct	pointing	Trial1	pointing/STIM_003.jpg
476.317	1.12	incorrect	pointing	Trial1	pointing/STIM_004.jpg
480.865	0.74	correct	pointing	Trial1	pointing/STIM_004.jpg
484.182	1.109	incorrect	pointing	Trial1	pointing/STIM_004.jpg
487.509	0.672	incorrect	pointing	Trial1	pointing/STIM_004.jpg
491.739	0.961	correct	pointing	Trial1	pointing/STIM_004.jpg
495.767	1.051	correct	pointing	Trial1	pointing/STIM_004.jpg
499.574	1.068	correct	pointing	Trial1	pointing/STIM_005.jpg
503.856	0.733	correct	pointing	Trial1	pointing/STIM_005.jpg
507.788	0.642	correct	pointing	Trial1	pointing/STIM_005.jpg
511.023	1.012	correct	pointing	Trial1	pointing/STIM_005.jpg
515.617	1.056	correct	pointing	Trial1	pointing/STIM_005.jpg
520.293	0.71	incorrect	pointing	Trial1	pointing/STIM_005.jpg
524.898	0.945	correct	pointing	Trial1	pointing/STIM_006.jpg
529.294	0.773	incorrect	pointing	Trial1	pointing/STIM_006.jpg
532.777	1.09	incorrect	pointing	Trial1	pointing/STIM_006.jpg
537.305	0.756	correct	pointing	Trial1	pointing/STIM_006.jpg
540.142	0.762	correct	pointing	Trial1	pointing/STIM_006.jpg
544.713	1.065	correct	pointing	Trial1	pointing/STIM_006.jpg
548.502	0.885	correct	pointing	Trial1	pointing/STIM_007.jpg
552.042	0.893	correct	pointing	Trial1	pointing/STIM_007.jpg
555.816	1.106	correct	pointing	Trial1	pointing/STIM_007.jpg
560.037	0.913	correct	pointing	Trial1	pointing/STIM_007.jpg
564.916	1.033	correct	pointing	Trial1	pointing/STIM_007.jpg
569.58	0.642	correct	pointing	Trial1	pointing/STIM_007.jpg
572.387	0.896	correct	pointing	Trial1	pointing/STIM_008.jpg
576.481	1.073	correct	pointing	Trial1	pointing/STIM_008.jpg
579.972	0.857	correct	pointing	Trial1	pointing/STIM_008.jpg
583.544	0.852	correct	pointing	Trial1	pointing/STIM_008.jpg
587.634	1.049	correct	pointing	Trial1	pointing/STIM_008.jpg
591.37	0.965	correct	pointing	Trial1	pointing/STIM_008.jpg
594.392	0.892	correct	pointing	Trial1	pointing/STIM_009.jpg
597.322	1.091	correct	pointing	Trial1	pointing/STIM_009.jpg
601.629	1.056	correct	pointing	Trial1	pointing/STIM_009.jpg
606.474	1.104	incorrect	pointing	Trial1	pointing/STIM_009.jpg
609.862	0.676	correct	pointing	Trial1	pointing/STIM_009.jpg
612.948	0.893	correct	pointing	Trial1	pointing/STIM_009.jpg
616.888	0.759	correct	pointing	Trial1	pointing/STIM_010.jpg
620.917	0.624	correct	pointing	Trial1	pointing/STIM_010.jpg
624.678	0.76	incorrect	pointing	Trial1	pointing/STIM_010.jpg
627.977	1.059	correct	pointing	Trial1	pointing/STIM_010.jpg
631.309	0.848	correct	pointing	Trial1	pointing/STIM_010.jpg
635.483	1.161	correct	pointing	Trial1	pointing/STIM_010.jpg
639.778	0.965	correct	pointing	Trial1	pointing/STIM_011.jpg
643.74	0.735	incorrect	pointing	Trial1	pointing/STIM_011.jpg
646.605	0.709	correct	pointing	Trial1	pointing/STIM_011.jpg
650.177	0.961	incorrect	pointing	Trial1	pointing/STIM_011.jpg
653.701	0.719	correct	pointing	Trial1	pointing/STIM_011.jpg
657.074	0.978	correct	pointing	Trial1	pointing/STIM_011.jpg
661.692	2.766	correct	navigation	Trial2	navigation/STIM_000.jpg
667.488	1.294	correct	navigation	Trial2	navigation/STIM_000.jpg
672.173	2.635	correct	navigation	Trial2	navigation/STIM_000.jpg
677.684	2.102	incorrect	navigation	Trial2	navigation/STIM_000.jpg
682.025	2.538	correct	navigation	Trial2	navigation/STIM_000.jpg
686.924	1.128	correct	navigation	Trial2	navigation/STIM_000.jpg
690.552	3.024	correct	navigation	Trial2	navigation/STIM_001.jpg
696.647	2.277	correct	navigation	Trial2	navigation/STIM_001.jpg
702.863	1.285	correct	navigation	Trial2	navigation/STIM_001.jpg
707.504	2.159	correct	navigation	Trial2	navigation/STIM_001.jpg
712.017	2.381	correct	navigation	Trial2	navigation/STIM_001.jpg
717.324	2.216	correct	navigation	Trial2	navigation/STIM_001.jpg
721.76	1.83	incorrect	navigation	Trial2	navigation/STIM_002.jpg
727.477	1.41	correct	navigation	Trial2	navigation/STIM_002.jpg
731.518	2.884	correct	navigation	Trial2	navigation/STIM_002.jpg
737.629	2.239	correct	navigation	Trial2	navigation/STIM_002.jpg
742.047	2.522	incorrect	navigation	Trial2	navigation/STIM_002.jpg
747.523	2.492	incorrect	navigation	Trial2	navigation/STIM_002.jpg
752.208	1.352	correct	navigation	Trial2	navigation/STIM_003.jpg
756.714	1.52	incorrect	navigation	Trial2	navigation/STIM_003.jpg
761.546	2.267	correct	navigation	Trial2	navigation/STIM_003.jpg
766.452	2.113	incorrect	navigation	Trial2	navigation/STIM_003.jpg
770.874	1.488	correct	navigation	Trial2	navigation/STIM_003.jpg
774.607	1.374	correct	navigation	Trial2	navigation/STIM_003.jpg
779.129	1.982	correct	navigation	Trial2	navigation/STIM_004.jpg
784.484	2.693	correct	navigation	Trial2	navigation/STIM_004.jpg
790.393	1.342	incorrect	navigation	Trial2	navigation/STIM_004.jpg
795.24	2.623	correct	navigation	Trial2	navigation/STIM_004.jpg
800.98	1.338	correct	navigation	Trial2	navigation/STIM_004.jpg
804.343	1.671	correct	navigation	Trial2	navigation/STIM_004.jpg
808.812	2.059	incorrect	navigation	Trial2	navigation/STIM_005.jpg
814.131	1.803	incorrect	navigation	Trial2	navigation/STIM_005.jpg
818.649	1.695	incorrect	navigation	Trial2	navigation/STIM_005.jpg
823.029	2.323	correct	navigation	Trial2	navigation/STIM_005.jpg
828.854	2.183	correct	navigation	Trial2	navigation/STIM_005.jpg
833.895	1.855	correct	navigation	Trial2	navigation/STIM_005.jpg
838.419	2.477	correct	navigation	Trial2	navigation/STIM_006.jpg
844.297	2.177	correct	navigation	Trial2	navigation/STIM_006.jpg
849.275	2.628	correct	navigation	Trial2	navigation/STIM_006.jpg
854.526	2.595	incorrect	navigation	Trial2	navigation/STIM_006.jpg
860.264	2.311	incorrect	navigation	Trial2	navigation/STIM_006.jpg
866.262	1.175	correct	navigation	Trial2	navigation/STIM_006.jpg
870.347	2.132	correct	navigation	Trial2	navigation/STIM_007.jpg
875.687	2.857	incorrect	navigation	Trial2	navigation/STIM_007.jpg
881.906	2.001	correct	navigation	Trial2	navigation/STIM_007.jpg
887.236	2.612	correct	navigation	Trial2	navigation/STIM_007.jpg
892.52	2.178	correct	navigation	Trial2	navigation/STIM_007.jpg
898.551	1.358	correct	navigation	Trial2	navigation/STIM_007.jpg
902.189	2.318	correct	navigation	Trial2	navigation/STIM_008.jpg
907.866	2.769	correct	navigation	Trial2	navigation/STIM_008.jpg
913.18	1.245	correct	navigation	Trial2	navigation/STIM_008.jpg
918.071	2.316	incorrect	navigation	Trial2	navigation/STIM_008.jpg
922.739	2.33	correct	navigation	Trial2	navigation/STIM_008.jpg
927.689	1.546	correct	navigation	Trial2	navigation/STIM_008.jpg
931.698	1.387	incorrect	navigation	Trial2	navigation/STIM_009.jpg
936.802	2.834	correct	navigation	Trial2	navigation/STIM_009.jpg
941.835	1.954	incorrect	navigation	Trial2	navigation/STIM_009.jpg
947.143	1.388	correct	navigation	Trial2	navigation/STIM_009.jpg
951.212	1.418	incorrect	navigation	Trial2	navigation/STIM_009.jpg
955.314	2.42	incorrect	navigation	Trial2	navigation/STIM_009.jpg
961.352	2.469	correct	navigation	Trial2	navigation/STIM_010.jpg
966.843	2.411	incorrect	navigation	Trial2	navigation/STIM_010.jpg
971.996	2.21	correct	navigation	Trial2	navigation/STIM_010.jpg
977.071	1.935	correct	navigation	Trial2	navigation/STIM_010.jpg
981.224	2.521	correct	navigation	Trial2	navigation/STIM_010.jpg
986.663	1.66	correct	navigation	Trial2	navigation/STIM_010.jpg
990.443	2.702	correct	navigation	Trial2	navigation/STIM_011.jpg
996.397	2.788	correct	navigation	Trial2	navigation/STIM_011.jpg
1002.721	1.802	correct	navigation	Trial2	navigation/STIM_011.jpg
1008.484	1.094	correct	navigation	Trial2	navigation/STIM_011.jpg
1012.178	2.193	correct	navigation	Trial2	navigation/STIM_011.jpg
1016.481	1.232	correct	navigation	Trial2	navigation/STIM_011.jpg
1021.674	0.805	correct	pointing	Trial2	pointing/STIM_000.jpg
1025.669	0.716	correct	pointing	Trial2	pointing/STIM_000.jpg
1030.351	0.729	correct	pointing	Trial2	pointing/STIM_000.jpg
1033.146	1.02	correct	pointing	Trial2	pointing/STIM_000.jpg
1037.054	0.844	correct	pointing	Trial2	pointing/STIM_000.jpg
1040.043	0.976	correct	pointing	Trial2	pointing/STIM_000.jpg
1043.528	1.079	correct	pointing	Trial2	pointing/STIM_001.jpg
1047.539	0.828	correct	pointing	Trial2	pointing/STIM_001.jpg
1052.312	0.797	correct	pointing	Trial2	pointing/STIM_001.jpg
1056.855	0.922	correct	pointing	Trial2	pointing/STIM_001.jpg
1061.684	1.087	correct	pointing	Trial2	pointing/STIM_001.jpg
1065.317	1.12	incorrect	pointing	Trial2	pointing/STIM_001.jpg
1070.211	0.899	correct	pointing	Trial2	pointing/STIM_002.jpg
1073.148	1.045	correct	pointing	Trial2	pointing/STIM_002.jpg
1077.511	0.762	correct	pointing	Trial2	pointing/STIM_002.jpg
1081.997	0.887	correct	pointing	Trial2	pointing/STIM_002.jpg
1085.453	0.995	correct	pointing	Trial2	pointing/STIM_002.jpg
1090.222	0.988	correct	pointing	Trial2	pointing/STIM_002.jpg
1093.457	0.828	correct	pointing	Trial2	pointing/STIM_003.jpg
1096.863	1.046	correct	pointing	Trial2	pointing/STIM_003.jpg
1101.671	1.116	incorrect	pointing	Trial2	pointing/STIM_003.jpg
1106.082	0.883	correct	pointing	Trial2	pointing/STIM_003.jpg
1109.519	0.875	incorrect	pointing	Trial2	pointing/STIM_003.jpg
1112.865	0.819	correct	pointing	Trial2	pointing/STIM_003.jpg
1115.735	1.151	incorrect	pointing	Trial2	pointing/STIM_004.jpg
1119.665	1.111	correct	pointing	Trial2	pointing/STIM_004.jpg
1123.11	0.65	correct	pointing	Trial2	pointing/STIM_004.jpg
1127.546	0.991	correct	pointing	Trial2	pointing/STIM_004.jpg
1131.174	0.843	correct	pointing	Trial2	pointing/STIM_004.jpg
1134.561	1.135	correct	pointing	Trial2	pointing/STIM_004.jpg
1138.456	0.987	correct	pointing	Trial2	pointing/STIM_005.jpg
1142.103	0.768	incorrect	pointing	Trial2	pointing/STIM_005.jpg
1146.076	0.748	correct	pointing	Trial2	pointing/STIM_005.jpg
1149.334	0.69	correct	pointing	Trial2	pointing/STIM_005.jpg
1153.511	0.881	correct	pointing	Trial2	pointing/STIM_005.jpg
1156.761	0.754	correct	pointing	Trial2	pointing/STIM_005.jpg
1159.92	0.944	correct	pointing	Trial2	pointing/STIM_006.jpg
1163.836	0.734	correct	pointing	Trial2	pointing/STIM_006.jpg
1167.915	0.682	correct	pointing	Trial2	pointing/STIM_006.jpg
1172.076	0.668	correct	pointing	Trial2	pointing/STIM_006.jpg
1176.728	0.637	correct	pointing	Trial2	pointing/STIM_006.jpg
1180.104	1.06	correct	pointing	Trial2	pointing/STIM_006.jpg
1184.915	0.946	correct	pointing	Trial2	pointing/STIM_007.jpg
1189.574	1.161	correct	pointing	Trial2	pointing/STIM_007.jpg
1193.03	1.057	correct	pointing	Trial2	pointing/STIM_007.jpg
1197.498	0.89	correct	pointing	Trial2	pointing/STIM_007.jpg
1202.317	0.696	correct	pointing	Trial2	pointing/STIM_007.jpg
1206.617	0.879	correct	pointing	Trial2	pointing/STIM_007.jpg
1210.939	1.039	correct	pointing	Trial2	pointing/STIM_008.jpg
1214.381	0.826	correct	pointing	Trial2	pointing/STIM_008.jpg
1218.01	0.772	correct	pointing	Trial2	pointing/STIM_008.jpg
1220.812	0.717	incorrect	pointing	Trial2	pointing/STIM_008.jpg
1224.496	1.098	correct	pointing	Trial2	pointing/STIM_008.jpg
1229.403	0.994	correct	pointing	Trial2	pointing/STIM_008.jpg
1234.312	1.033	correct	pointing	Trial2	pointing/STIM_009.jpg
1239.164	1.027	correct	pointing	Trial2	pointing/STIM_009.jpg
1243.413	0.923	correct	pointing	Trial2	pointing/STIM_009.jpg
1246.39	0.903	correct	pointing	Trial2	pointing/STIM_009.jpg
1251.081	0.942	correct	pointing	Trial2	pointing/STIM_009.jpg
1255.169	1.111	correct	pointing	Trial2	pointing/STIM_009.jpg
1258.987	0.917	incorrect	pointing	Trial2	pointing/STIM_010.jpg
1262.685	1.111	correct	pointing	Trial2	pointing/STIM_010.jpg
1267.673	0.861	correct	pointing	Trial2	pointing/STIM_010.jpg
1271.957	0.633	incorrect	pointing	Trial2	pointing/STIM_010.jpg
1275.172	0.935	correct	pointing	Trial2	pointing/STIM_010.jpg
1280.105	0.652	correct	pointing	Trial2	pointing/STIM_010.jpg
1284.517	0.777	correct	pointing	Trial2	pointing/STIM_011.jpg
1288.007	0.791	correct	pointing	Trial2	pointing/STIM_011.jpg
1292.194	0.759	correct	pointing	Trial2	pointing/STIM_011.jpg
1295.113	0.976	correct	pointing	Trial2	pointing/STIM_011.jpg
1299.524	0.796	correct	pointing	Trial2	pointing/STIM_011.jpg
1303.133	1.011	correct	pointing	Trial2	pointing/STIM_011.jpg
1308.094	2.563	correct	navigation	Trial3	navigation/STIM_000.jpg
1313.568	1.122	correct	navigation	Trial3	navigation/STIM_000.jpg
1316.982	2.59	correct	navigation	Trial3	navigation/STIM_000.jpg
1323.449	2.0	correct	navigation	Trial3	navigation/STIM_000.jpg
1329.448	2.502	incorrect	navigation	Trial3	navigation/STIM_000.jpg
1335.94	2.525	correct	navigation	Trial3	navigation/STIM_000.jpg
1342.256	1.456	correct	navigation	Trial3	navigation/STIM_001.jpg
1346.739	2.554	correct	navigation	Trial3	navigation/STIM_001.jpg
1351.811	2.538	correct	navigation	Trial3	navigation/STIM_001.jpg
1357.939	1.445	correct	navigation	Trial3	navigation/STIM_001.jpg
1361.463	2.427	correct	navigation	Trial3	navigation/STIM_001.jpg
1367.567	2.524	correct	navigation	Trial3	navigation/STIM_001.jpg
1373.261	2.572	correct	navigation	Trial3	navigation/STIM_002.jpg
1377.863	2.01	correct	navigation	Trial3	navigation/STIM_002.jpg
1381.956	2.344	correct	navigation	Trial3	navigation/STIM_002.jpg
1387.801	1.945	correct	navigation	Trial3	navigation/STIM_002.jpg
1392.237	2.668	correct	navigation	Trial3	navigation/STIM_002.jpg
1397.3	2.435	correct	navigation	Trial3	navigation/STIM_002.jpg
1402.72	1.645	correct	navigation	Trial3	navigation/STIM_003.jpg
1406.477	2.038	correct	navigation	Trial3	navigation/STIM_003.jpg
1411.831	1.118	incorrect	navigation	Trial3	navigation/STIM_003.jpg
1416.88	2.371	correct	navigation	Trial3	navigation/STIM_003.jpg
1421.906	1.274	correct	navigation	Trial3	navigation/STIM_003.jpg
1426.549	1.296	correct	navigation	Trial3	navigation/STIM_003.jpg
1431.659	1.951	incorrect	navigation	Trial3	navigation/STIM_004.jpg
1437.036	1.087	correct	navigation	Trial3	navigation/STIM_004.jpg
1440.242	2.186	correct	navigation	Trial3	navigation/STIM_004.jpg
1446.17	2.59	incorrect	navigation	Trial3	navigation/STIM_004.jpg
1451.513	1.981	correct	navigation	Trial3	navigation/STIM_004.jpg
1456.325	2.197	correct	navigation	Trial3	navigation/STIM_004.jpg
1462.27	2.567	correct	navigation	Trial3	navigation/STIM_005.jpg
1466.998	1.986	correct	navigation	Trial3	navigation/STIM_005.jpg
1471.045	1.46	incorrect	navigation	Trial3	navigation/STIM_005.jpg
1476.46	2.578	correct	navigation	Trial3	navigation/STIM_005.jpg
1481.583	1.435	correct	navigation	Trial3	navigation/STIM_005.jpg
1485.432	1.223	correct	navigation	Trial3	navigation/STIM_005.jpg
1489.054	2.151	correct	navigation	Trial3	navigation/STIM_006.jpg
1493.904	1.967	correct	navigation	Trial3	navigation/STIM_006.jpg
1499.778	1.431	correct	navigation	Trial3	navigation/STIM_006.jpg
1505.003	2.361	correct	navigation	Trial3	navigation/STIM_006.jpg
1510.29	2.072	correct	navigation	Trial3	navigation/STIM_006.jpg
1516.087	1.17	correct	navigation	Trial3	navigation/STIM_006.jpg
1519.661	1.269	incorrect	navigation	Trial3	navigation/STIM_007.jpg
1524.802	2.59	correct	navigation	Trial3	navigation/STIM_007.jpg
1529.869	1.973	correct	navigation	Trial3	navigation/STIM_007.jpg
1534.471	1.439	incorrect	navigation	Trial3	navigation/STIM_007.jpg
1539.314	1.948	correct	navigation	Trial3	navigation/STIM_007.jpg
1544.07	2.44	correct	navigation	Trial3	navigation/STIM_007.jpg
1548.559	2.425	incorrect	navigation	Trial3	navigation/STIM_008.jpg
1554.491	2.624	incorrect	navigation	Trial3	navigation/STIM_008.jpg
1560.991	1.12	correct	navigation	Trial3	navigation/STIM_008.jpg
1565.449	1.131	correct	navigation	Trial3	navigation/STIM_008.jpg
1569.329	1.689	correct	navigation	Trial3	navigation/STIM_008.jpg
1574.104	1.135	correct	navigation	Trial3	navigation/STIM_008.jpg
1577.365	1.541	correct	navigation	Trial3	navigation/STIM_009.jpg
1582.181	2.168	incorrect	navigation	Trial3	navigation/STIM_009.jpg
1587.156	1.917	correct	navigation	Trial3	navigation/STIM_009.jpg
1592.366	2.014	correct	navigation	Trial3	navigation/STIM_009.jpg
1596.67	2.07	correct	navigation	Trial3	navigation/STIM_009.jpg
1602.191	1.091	correct	navigation	Trial3	navigation/STIM_009.jpg
1606.873	1.928	correct	navigation	Trial3	navigation/STIM_010.jpg
1611.202	1.146	correct	navigation	Trial3	navigation/STIM_010.jpg
1614.857	2.619	correct	navigation	Trial3	navigation/STIM_010.jpg
1619.925	2.355	correct	navigation	Trial3	navigation/STIM_010.jpg
1625.147	1.678	correct	navigation	Trial3	navigation/STIM_010.jpg
1630.343	1.643	correct	navigation	Trial3	navigation/STIM_010.jpg
1634.371	1.9	incorrect	navigation	Trial3	navigation/STIM_011.jpg
1639.025	2.265	correct	navigation	Trial3	navigation/STIM_011.jpg
1643.588	1.922	incorrect	navigation	Trial3	navigation/STIM_011.jpg
1648.168	1.136	correct	navigation	Trial3	navigation/STIM_011.jpg
1652.162	1.912	correct	navigation	Trial3	navigation/STIM_011.jpg
1656.903	2.058	incorrect	navigation	Trial3	navigation/STIM_011.jpg
1661.883	0.818	correct	pointing	Trial3	pointing/STIM_000.jpg
1665.939	1.091	correct	pointing	Trial3	pointing/STIM_000.jpg
1669.131	0.679	correct	pointing	Trial3	pointing/STIM_000.jpg
1672.04	1.154	correct	pointing	Trial3	pointing/STIM_000.jpg
1675.764	1.108	correct	pointing	Trial3	pointing/STIM_000.jpg
1679.138	1.091	incorrect	pointing	Trial3	pointing/STIM_000.jpg
1683.541	0.998	correct	pointing	Trial3	pointing/STIM_001.jpg
1688.34	1.018	correct	pointing	Trial3	pointing/STIM_001.jpg
1691.788	0.941	correct	pointing	Trial3	pointing/STIM_001.jpg
1696.616	1.042	correct	pointing	Trial3	pointing/STIM_001.jpg
1700.343	0.86	incorrect	pointing	Trial3	pointing/STIM_001.jpg
1703.783	0.625	correct	pointing	Trial3	pointing/STIM_001.jpg
1707.783	0.911	correct	pointing	Trial3	pointing/STIM_002.jpg
1710.917	0.992	correct	pointing	Trial3	pointing/STIM_002.jpg
1714.448	0.963	correct	pointing	Trial3	pointing/STIM_002.jpg
1718.25	0.689	incorrect	pointing	Trial3	pointing/STIM_002.jpg
1721.175	0.792	incorrect	pointing	Trial3	pointing/STIM_002.jpg
1724.296	0.675	correct	pointing	Trial3	pointing/STIM_002.jpg
1727.305	1.065	correct	pointing	Trial3	pointing/STIM_003.jpg
1731.643	0.898	correct	pointing	Trial3	pointing/STIM_003.jpg
1734.974	0.644	incorrect	pointing	Trial3	pointing/STIM_003.jpg
1739.21	0.81	correct	pointing	Trial3	pointing/STIM_003.jpg
1743.1	0.967	correct	pointing	Trial3	pointing/STIM_003.jpg
1746.99	0.926	correct	pointing	Trial3	pointing/STIM_003.jpg
1751.579	0.696	correct	pointing	Trial3	pointing/STIM_004.jpg
1754.74	0.864	incorrect	pointing	Trial3	pointing/STIM_004.jpg
1758.929	0.765	correct	pointing	Trial3	pointing/STIM_004.jpg
1762.857	0.98	correct	pointing	Trial3	pointing/STIM_004.jpg
1766.26	0.934	correct	pointing	Trial3	pointing/STIM_004.jpg
1771.082	0.674	correct	pointing	Trial3	pointing/STIM_004.jpg
1774.154	0.658	incorrect	pointing	Trial3	pointing/STIM_005.jpg
1777.4	1.145	correct	pointing	Trial3	pointing/STIM_005.jpg
1782.147	0.668	correct	pointing	Trial3	pointing/STIM_005.jpg
1785.05	0.822	correct	pointing	Trial3	pointing/STIM_005.jpg
1789.488	0.627	incorrect	pointing	Trial3	pointing/STIM_005.jpg
1793.636	0.907	correct	pointing	Trial3	pointing/STIM_005.jpg
1797.703	1.0	correct	pointing	Trial3	pointing/STIM_006.jpg
1802.546	0.876	correct	pointing	Trial3	pointing/STIM_006.jpg
1805.499	0.998	correct	pointing	Trial3	pointing/STIM_006.jpg
1810.409	1.138	incorrect	pointing	Trial3	pointing/STIM_006.jpg
1815.296	0.988	correct	pointing	Trial3	pointing/STIM_006.jpg
1819.214	0.947	correct	pointing	Trial3	pointing/STIM_006.jpg
1822.419	1.012	incorrect	pointing	Trial3	pointing/STIM_007.jpg
1826.927	0.851	correct	pointing	Trial3	pointing/STIM_007.jpg
1831.099	0.96	correct	pointing	Trial3	pointing/STIM_007.jpg
1835.472	0.913	correct	pointing	Trial3	pointing/STIM_007.jpg
1839.77	0.896	correct	pointing	Trial3	pointing/STIM_007.jpg
1844.646	0.919	correct	pointing	Trial3	pointing/STIM_007.jpg
1847.61	0.939	correct	pointing	Trial3	pointing/STIM_008.jpg
1852.338	0.657	correct	pointing	Trial3	pointing/STIM_008.jpg
1856.553	1.12	correct	pointing	Trial3	pointing/STIM_008.jpg
1860.355	0.752	correct	pointing	Trial3	pointing/STIM_008.jpg
1864.403	1.08	incorrect	pointing	Trial3	pointing/STIM_008.jpg
1867.598	0.986	incorrect	pointing	Trial3	pointing/STIM_008.jpg
1871.779	1.102	correct	pointing	Trial3	pointing/STIM_009.jpg
1875.344	0.699	correct	pointing	Trial3	pointing/STIM_009.jpg
1878.952	0.845	incorrect	pointing	Trial3	pointing/STIM_009.jpg
1883.468	1.047	incorrect	pointing	Trial3	pointing/STIM_009.jpg
1887.88	0.621	correct	pointing	Trial3	pointing/STIM_009.jpg
1891.066	0.995	correct	pointing	Trial3	pointing/STIM_009.jpg
1895.449	0.934	correct	pointing	Trial3	pointing/STIM_010.jpg
1898.576	0.862	correct	pointing	Trial3	pointing/STIM_010.jpg
1901.876	0.637	correct	pointing	Trial3	pointing/STIM_010.jpg
1905.717	0.987	correct	pointing	Trial3	pointing/STIM_010.jpg
1909.956	0.64	correct	pointing	Trial3	pointing/STIM_010.jpg
1913.054	1.032	correct	pointing	Trial3	pointing/STIM_010.jpg
1917.779	0.684	incorrect	pointing	Trial3	pointing/STIM_011.jpg
1921.211	0.657	correct	pointing	Trial3	pointing/STIM_011.jpg
1924.755	0.961	incorrect	pointing	Trial3	pointing/STIM_011.jpg
1929.533	0.794	correct	pointing	Trial3	pointing/STIM_011.jpg
1934.007	0.676	correct	pointing	Trial3	pointing/STIM_011.jpg
1937.073	0.91	correct	pointing	Trial3	pointing/STIM_011.jpg
