onset	duration	accuracy_binary	trial_type	learning_stage	stimulus
0.0	1.042	1	study	Phase1	study/STIM_000.jpg
3.109	0.879	1	study	Phase1	study/STIM_000.jpg
7.573	1.136	1	study	Phase1	study/STIM_000.jpg
10.868	1.688	1	study	Phase1	study/STIM_001.jpg
14.987	1.555	0	study	Phase1	study/STIM_001.jpg
19.515	1.15	1	study	Phase1	study/STIM_001.jpg
23.943	1.828	1	study	Phase1	study/STIM_002.jpg
28.602	1.011	1	study	Phase1	study/STIM_002.jpg
31.947	0.888	0	study	Phase1	study/STIM_002.jpg
35.92	1.476	0	study	Phase1	study/STIM_003.jpg
41.169	1.758	1	study	Phase1	study/STIM_003.jpg
46.2	1.227	1	study	Phase1	study/STIM_003.jpg
50.86	1.076	1	study	Phase1	study/STIM_004.jpg
54.164	0.947	0	study	Phase1	study/STIM_004.jpg
57.811	1.382	1	study	Phase1	study/STIM_004.jpg
61.471	1.137	1	study	Phase1	study/STIM_005.jpg
66.125	1.664	1	study	Phase1	study/STIM_005.jpg
70.68	1.437	1	study	Phase1	study/STIM_005.jpg
74.282	1.343	1	study	Phase1	study/STIM_006.jpg
78.373	1.127	1	study	Phase1	study/STIM_006.jpg
83.336	1.537	1	study	Phase1	study/STIM_006.jpg
88.65	1.502	1	study	Phase1	study/STIM_007.jpg
94.025	1.495	1	study	Phase1	study/STIM_007.jpg
98.192	1.419	1	study	Phase1	study/STIM_007.jpg
103.589	1.083	1	study	Phase1	study/STIM_008.jpg
106.909	1.521	1	study	Phase1	study/STIM_008.jpg
111.55	1.286	1	study	Phase1	study/STIM_008.jpg
115.91	1.638	1	study	Phase1	study/STIM_009.jpg
119.83	0.942	1	study	Phase1	study/STIM_009.jpg
123.422	1.157	1	study	Phase1	study/STIM_009.jpg
127.077	0.872	1	study	Phase1	study/STIM_010.jpg
130.735	1.596	1	study	Phase1	study/STIM_010.jpg
134.729	1.46	0	study	Phase1	study/STIM_010.jpg
139.888	1.225	1	study	Phase1	study/STIM_011.jpg
144.182	1.845	0	study	Phase1	study/STIM_011.jpg
148.433	1.455	1	study	Phase1	study/STIM_011.jpg
153.547	1.815	1	study	Phase1	study/STIM_012.jpg
157.523	1.634	1	study	Phase1	study/STIM_012.jpg
162.06	1.164	1	study	Phase1	study/STIM_012.jpg
167.103	1.654	1	study	Phase1	study/STIM_013.jpg
171.942	1.363	1	study	Phase1	study/STIM_013.jpg
177.23	1.216	0	study	Phase1	study/STIM_013.jpg
180.966	1.26	1	study	Phase1	study/STIM_014.jpg
186.079	1.819	1	study	Phase1	study/STIM_014.jpg
191.541	0.896	1	study	Phase1	study/STIM_014.jpg
196.334	1.114	1	study	Phase1	study/STIM_015.jpg
200.24	1.587	1	study	Phase1	study/STIM_015.jpg
205.293	1.602	1	study	Phase1	study/STIM_015.jpg
209.357	0.998	1	study	Phase1	study/STIM_016.jpg
212.399	1.739	1	study	Phase1	study/STIM_016.jpg
216.569	0.925	1	study	Phase1	study/STIM_016.jpg
220.028	0.952	1	study	Phase1	study/STIM_017.jpg
223.527	0.836	1	study	Phase1	study/STIM_017.jpg
227.535	0.809	1	study	Phase1	study/STIM_017.jpg
230.989	1.878	1	study	Phase1	study/STIM_018.jpg
236.249	1.618	0	study	Phase1	study/STIM_018.jpg
240.07	1.686	1	study	Phase1	study/STIM_018.jpg
244.097	1.694	1	study	Phase1	study/STIM_019.jpg
249.257	1.279	1	study	Phase1	study/STIM_019.jpg
252.736	0.921	1	study	Phase1	study/STIM_019.jpg
255.921	1.348	0	study	Phase1	study/STIM_020.jpg
259.875	0.852	1	study	Phase1	study/STIM_020.jpg
263.849	1.625	1	study	Phase1	study/STIM_020.jpg
268.217	1.115	1	study	Phase1	study/STIM_021.jpg
271.934	1.647	1	study	Phase1	study/STIM_021.jpg
277.409	1.451	0	study	Phase1	study/STIM_021.jpg
281.303	0.901	1	study	Phase1	study/STIM_022.jpg
285.647	0.98	1	study	Phase1	study/STIM_022.jpg
289.995	1.399	1	study	Phase1	study/STIM_022.jpg
294.062	1.261	1	study	Phase1	study/STIM_023.jpg
297.89	1.689	1	study	Phase1	study/STIM_023.jpg
302.321	1.598	1	study	Phase1	study/STIM_023.jpg
306.234	0.872	1	study	Phase1	study/STIM_024.jpg
310.845	1.015	1	study	Phase1	study/STIM_024.jpg
315.807	1.075	1	study	Phase1	study/STIM_024.jpg
319.292	1.499	1	study	Phase1	study/STIM_025.jpg
324.023	1.507	1	study	Phase1	study/STIM_025.jpg
329.336	0.884	1	study	Phase1	study/STIM_025.jpg
332.561	1.336	1	study	Phase1	study/STIM_026.jpg
336.566	1.835	1	study	Phase1	study/STIM_026.jpg
340.585	1.169	1	study	Phase1	study/STIM_026.jpg
344.087	1.366	1	study	Phase1	study/STIM_027.jpg
347.625	1.66	1	study	Phase1	study/STIM_027.jpg
352.212	1.708	1	study	Phase1	study/STIM_027.jpg
357.722	1.856	1	study	Phase1	study/STIM_028.jpg
363.447	0.913	1	study	Phase1	study/STIM_028.jpg
368.129	1.295	1	study	Phase1	study/STIM_028.jpg
371.509	1.583	1	study	Phase1	study/STIM_029.jpg
376.452	1.799	1	study	Phase1	study/STIM_029.jpg
380.883	1.025	1	study	Phase1	study/STIM_029.jpg
384.1	0.939	1	test	Phase1	test/STIM_000.jpg
388.243	0.824	1	test	Phase1	test/STIM_000.jpg
392.952	1.1	1	test	Phase1	test/STIM_000.jpg
396.666	0.842	1	test	Phase1	test/STIM_001.jpg
400.321	1.351	1	test	Phase1	test/STIM_001.jpg
404.249	0.895	1	test	Phase1	test/STIM_001.jpg
408.599	0.953	1	test	Phase1	test/STIM_002.jpg
412.983	1.14	1	test	Phase1	test/STIM_002.jpg
416.17	1.323	1	test	Phase1	test/STIM_002.jpg
421.178	1.215	1	test	Phase1	test/STIM_003.jpg
426.181	0.683	1	test	Phase1	test/STIM_003.jpg
428.98	0.888	1	test	Phase1	test/STIM_003.jpg
433.025	1.114	1	test	Phase1	test/STIM_004.jpg
436.586	0.834	1	test	Phase1	test/STIM_004.jpg
439.731	0.975	1	test	Phase1	test/STIM_004.jpg
444.314	0.666	1	test	Phase1	test/STIM_005.jpg
448.228	0.994	1	test	Phase1	test/STIM_005.jpg
452.782	1.02	1	test	Phase1	test/STIM_005.jpg
456.475	0.873	1	test	Phase1	test/STIM_006.jpg
460.745	0.898	1	test	Phase1	test/STIM_006.jpg
463.751	0.973	1	test	Phase1	test/STIM_006.jpg
468.524	0.991	1	test	Phase1	test/STIM_007.jpg
472.256	1.011	1	test	Phase1	test/STIM_007.jpg
476.015	1.234	1	test	Phase1	test/STIM_007.jpg
479.66	0.84	1	test	Phase1	test/STIM_008.jpg
484.009	1.328	1	test	Phase1	test/STIM_008.jpg
487.361	0.794	1	test	Phase1	test/STIM_008.jpg
490.573	0.69	1	test	Phase1	test/STIM_009.jpg
495.041	0.792	1	test	Phase1	test/STIM_009.jpg
499.788	1.095	1	test	Phase1	test/STIM_009.jpg
503.732	0.744	1	test	Phase1	test/STIM_010.jpg
508.228	0.831	1	test	Phase1	test/STIM_010.jpg
511.331	0.945	1	test	Phase1	test/STIM_010.jpg
515.358	0.674	1	test	Phase1	test/STIM_011.jpg
518.869	0.847	1	test	Phase1	test/STIM_011.jpg
523.595	1.178	1	test	Phase1	test/STIM_011.jpg
528.076	0.763	1	test	Phase1	test/STIM_012.jpg
532.762	1.383	1	test	Phase1	test/STIM_012.jpg
536.88	1.182	1	test	Phase1	test/STIM_012.jpg
541.922	0.992	1	test	Phase1	test/STIM_013.jpg
545.684	0.962	0	test	Phase1	test/STIM_013.jpg
549.598	1.298	1	test	Phase1	test/STIM_013.jpg
553.571	0.734	1	test	Phase1	test/STIM_014.jpg
556.316	1.214	1	test	Phase1	test/STIM_014.jpg
559.943	0.762	1	test	Phase1	test/STIM_014.jpg
564.704	0.759	1	test	Phase1	test/STIM_015.jpg
569.115	0.915	1	test	Phase1	test/STIM_015.jpg
572.612	0.892	1	test	Phase1	test/STIM_015.jpg
575.638	1.344	1	test	Phase1	test/STIM_016.jpg
580.687	1.228	1	test	Phase1	test/STIM_016.jpg
585.327	1.293	0	test	Phase1	test/STIM_016.jpg
590.159	1.305	1	test	Phase1	test/STIM_017.jpg
595.162	0.873	0	test	Phase1	test/STIM_017.jpg
599.255	0.755	0	test	Phase1	test/STIM_017.jpg
603.998	1.244	1	test	Phase1	test/STIM_018.jpg
607.476	0.945	1	test	Phase1	test/STIM_018.jpg
612.371	1.006	1	test	Phase1	test/STIM_018.jpg
616.555	1.149	1	test	Phase1	test/STIM_019.jpg
620.046	1.266	1	test	Phase1	test/STIM_019.jpg
623.39	1.297	1	test	Phase1	test/STIM_019.jpg
628.129	1.141	1	test	Phase1	test/STIM_020.jpg
633.047	0.925	1	test	Phase1	test/STIM_020.jpg
637.05	0.999	1	test	Phase1	test/STIM_020.jpg
640.623	0.937	1	test	Phase1	test/STIM_021.jpg
644.355	1.359	1	test	Phase1	test/STIM_021.jpg
649.352	1.322	1	test	Phase1	test/STIM_021.jpg
654.279	0.794	1	test	Phase1	test/STIM_022.jpg
657.685	1.025	0	test	Phase1	test/STIM_022.jpg
662.633	1.152	0	test	Phase1	test/STIM_022.jpg
666.258	0.768	1	test	Phase1	test/STIM_023.jpg
669.985	1.325	1	test	Phase1	test/STIM_023.jpg
674.303	1.017	1	test	Phase1	test/STIM_023.jpg
678.77	1.056	1	test	Phase1	test/STIM_024.jpg
683.224	1.343	1	test	Phase1	test/STIM_024.jpg
686.695	0.804	1	test	Phase1	test/STIM_024.jpg
690.198	0.688	1	test	Phase1	test/STIM_025.jpg
694.572	0.691	1	test	Phase1	test/STIM_025.jpg
699.226	0.686	1	test	Phase1	test/STIM_025.jpg
702.796	0.779	1	test	Phase1	test/STIM_026.jpg
707.279	0.925	1	test	Phase1	test/STIM_026.jpg
711.432	1.316	0	test	Phase1	test/STIM_026.jpg
716.049	1.235	1	test	Phase1	test/STIM_027.jpg
720.255	0.939	1	test	Phase1	test/STIM_027.jpg
723.685	1.024	1	test	Phase1	test/STIM_027.jpg
726.748	1.349	1	test	Phase1	test/STIM_028.jpg
731.766	0.788	1	test	Phase1	test/STIM_028.jpg
734.716	0.991	1	test	Phase1	test/STIM_028.jpg
739.029	0.825	1	test	Phase1	test/STIM_029.jpg
742.565	1.11	1	test	Phase1	test/STIM_029.jpg
747.349	1.029	1	test	Phase1	test/STIM_029.jpg
751.677	1.629	1	study	Phase2	study/STIM_000.jpg
756.757	1.115	1	study	Phase2	study/STIM_000.jpg
760.052	0.839	1	study	Phase2	study/STIM_000.jpg
764.557	0.865	1	study	Phase2	study/STIM_001.jpg
768.379	1.127	1	study	Phase2	study/STIM_001.jpg
773.446	0.697	1	study	Phase2	study/STIM_001.jpg
777.407	1.324	1	study	Phase2	study/STIM_002.jpg
782.469	0.979	1	study	Phase2	study/STIM_002.jpg
785.532	0.759	1	study	Phase2	study/STIM_002.jpg
788.911	1.338	1	study	Phase2	study/STIM_003.jpg
794.02	1.128	1	study	Phase2	study/STIM_003.jpg
798.586	0.755	1	study	Phase2	study/STIM_003.jpg
803.1	1.347	1	study	Phase2	study/STIM_004.jpg
808.364	1.089	1	study	Phase2	study/STIM_004.jpg
812.763	0.74	1	study	Phase2	study/STIM_004.jpg
815.724	1.521	1	study	Phase2	study/STIM_005.jpg
820.023	1.291	1	study	Phase2	study/STIM_005.jpg
823.414	0.78	1	study	Phase2	study/STIM_005.jpg
826.591	1.431	1	study	Phase2	study/STIM_006.jpg
831.449	0.82	1	study	Phase2	study/STIM_006.jpg
835.001	1.449	1	study	Phase2	study/STIM_006.jpg
839.086	0.866	0	study	Phase2	study/STIM_007.jpg
843.715	0.797	1	study	Phase2	study/STIM_007.jpg
847.613	1.185	1	study	Phase2	study/STIM_007.jpg
851.881	1.187	1	study	Phase2	study/STIM_008.jpg
855.9	0.759	1	study	Phase2	study/STIM_008.jpg
858.73	1.134	1	study	Phase2	study/STIM_008.jpg
862.474	1.052	1	study	Phase2	study/STIM_009.jpg
866.509	1.058	1	study	Phase2	study/STIM_009.jpg
870.215	1.173	1	study	Phase2	study/STIM_009.jpg
874.023	1.564	1	study	Phase2	study/STIM_010.jpg
877.878	1.363	1	study	Phase2	study/STIM_010.jpg
881.783	0.933	1	study	Phase2	study/STIM_010.jpg
886.184	0.916	1	study	Phase2	study/STIM_011.jpg
889.684	1.432	1	study	Phase2	study/STIM_011.jpg
893.674	1.132	1	study	Phase2	study/STIM_011.jpg
896.952	1.257	1	study	Phase2	study/STIM_012.jpg
900.934	1.321	1	study	Phase2	study/STIM_012.jpg
905.742	1.418	1	study	Phase2	study/STIM_012.jpg
911.026	0.947	1	study	Phase2	study/STIM_013.jpg
914.73	1.316	1	study	Phase2	study/STIM_013.jpg
918.405	0.754	1	study	Phase2	study/STIM_013.jpg
921.531	1.446	1	study	Phase2	study/STIM_014.jpg
925.72	0.869	1	study	Phase2	study/STIM_014.jpg
930.349	1.339	1	study	Phase2	study/STIM_014.jpg
935.304	1.316	1	study	Phase2	study/STIM_015.jpg
939.201	0.697	1	study	Phase2	study/STIM_015.jpg
942.77	1.355	1	study	Phase2	study/STIM_015.jpg
946.801	0.754	0	study	Phase2	study/STIM_016.jpg
950.533	1.258	1	study	Phase2	study/STIM_016.jpg
954.485	1.4	1	study	Phase2	study/STIM_016.jpg
959.032	1.28	1	study	Phase2	study/STIM_017.jpg
963.698	0.997	1	study	Phase2	study/STIM_017.jpg
968.481	1.314	1	study	Phase2	study/STIM_017.jpg
971.928	1.358	1	study	Phase2	study/STIM_018.jpg
976.485	1.068	1	study	Phase2	study/STIM_018.jpg
980.463	0.821	1	study	Phase2	study/STIM_018.jpg
983.882	1.285	1	study	Phase2	study/STIM_019.jpg
987.27	1.143	1	study	Phase2	study/STIM_019.jpg
992.335	1.311	1	study	Phase2	study/STIM_019.jpg
996.866	1.337	1	study	Phase2	study/STIM_020.jpg
1002.019	1.193	1	study	Phase2	study/STIM_020.jpg
1006.499	0.839	1	study	Phase2	study/STIM_020.jpg
1010.555	0.993	1	study	Phase2	study/STIM_021.jpg
1015.189	0.818	1	study	Phase2	study/STIM_021.jpg
1018.176	1.432	1	study	Phase2	study/STIM_021.jpg
1023.456	1.63	0	study	Phase2	study/STIM_022.jpg
1028.16	1.295	1	study	Phase2	study/STIM_022.jpg
1032.49	0.989	1	study	Phase2	study/STIM_022.jpg
1036.575	1.392	1	study	Phase2	study/STIM_023.jpg
1041.954	0.932	1	study	Phase2	study/STIM_023.jpg
1046.257	1.202	1	study	Phase2	study/STIM_023.jpg
1051.231	0.943	1	study	Phase2	study/STIM_024.jpg
1055.184	1.117	1	study	Phase2	study/STIM_024.jpg
1059.353	0.726	1	study	Phase2	study/STIM_024.jpg
1062.1	1.103	1	study	Phase2	study/STIM_025.jpg
1066.807	0.741	1	study	Phase2	study/STIM_025.jpg
1071.004	1.279	1	study	Phase2	study/STIM_025.jpg
1074.416	1.334	1	study	Phase2	study/STIM_026.jpg
1078.936	1.278	1	study	Phase2	study/STIM_026.jpg
1083.148	0.837	1	study	Phase2	study/STIM_026.jpg
1087.848	1.209	1	study	Phase2	study/STIM_027.jpg
1091.215	1.028	1	study	Phase2	study/STIM_027.jpg
1095.652	1.426	1	study	Phase2	study/STIM_027.jpg
1099.853	1.344	1	study	Phase2	study/STIM_028.jpg
1103.279	0.932	1	study	Phase2	study/STIM_028.jpg
1107.487	1.331	1	study	Phase2	study/STIM_028.jpg
1111.606	1.005	1	study	Phase2	study/STIM_029.jpg
1114.863	0.854	1	study	Phase2	study/STIM_029.jpg
1118.004	1.332	1	study	Phase2	study/STIM_029.jpg
1122.303	1.177	1	test	Phase2	test/STIM_000.jpg
1126.378	0.81	1	test	Phase2	test/STIM_000.jpg
1129.262	1.092	1	test	Phase2	test/STIM_000.jpg
1133.926	0.825	1	test	Phase2	test/STIM_001.jpg
1136.875	0.859	1	test	Phase2	test/STIM_001.jpg
1139.884	0.775	1	test	Phase2	test/STIM_001.jpg
1143.594	1.361	1	test	Phase2	test/STIM_002.jpg
1148.296	1.226	1	test	Phase2	test/STIM_002.jpg
1153.044	0.775	1	test	Phase2	test/STIM_002.jpg
1157.602	1.08	1	test	Phase2	test/STIM_003.jpg
1160.71	1.108	1	test	Phase2	test/STIM_003.jpg
1164.225	1.401	1	test	Phase2	test/STIM_003.jpg
1168.767	1.012	1	test	Phase2	test/STIM_004.jpg
1172.757	0.903	1	test	Phase2	test/STIM_004.jpg
1176.797	0.682	1	test	Phase2	test/STIM_004.jpg
1180.481	0.674	1	test	Phase2	test/STIM_005.jpg
1184.122	0.734	1	test	Phase2	test/STIM_005.jpg
1187.857	1.308	1	test	Phase2	test/STIM_005.jpg
1192.973	1.221	1	test	Phase2	test/STIM_006.jpg
1197.438	1.2	1	test	Phase2	test/STIM_006.jpg
1201.483	0.814	1	test	Phase2	test/STIM_006.jpg
1205.685	0.849	1	test	Phase2	test/STIM_007.jpg
1208.907	0.694	1	test	Phase2	test/STIM_007.jpg
1213.419	0.764	1	test	Phase2	test/STIM_007.jpg
1216.976	1.083	1	test	Phase2	test/STIM_008.jpg
1221.452	1.107	1	test	Phase2	test/STIM_008.jpg
1225.319	0.923	1	test	Phase2	test/STIM_008.jpg
1228.331	1.24	1	test	Phase2	test/STIM_009.jpg
1233.039	0.88	1	test	Phase2	test/STIM_009.jpg
1237.529	0.727	1	test	Phase2	test/STIM_009.jpg
1241.326	1.162	1	test	Phase2	test/STIM_010.jpg
1245.846	1.323	1	test	Phase2	test/STIM_010.jpg
1250.809	1.086	1	test	Phase2	test/STIM_010.jpg
1255.567	0.818	1	test	Phase2	test/STIM_011.jpg
1259.1	1.178	1	test	Phase2	test/STIM_011.jpg
1263.271	1.282	1	test	Phase2	test/STIM_011.jpg
1268.258	1.079	1	test	Phase2	test/STIM_012.jpg
1272.239	1.267	1	test	Phase2	test/STIM_012.jpg
1276.931	0.989	1	test	Phase2	test/STIM_012.jpg
1281.7	1.011	1	test	Phase2	test/STIM_013.jpg
1285.638	0.879	1	test	Phase2	test/STIM_013.jpg
1288.787	1.087	1	test	Phase2	test/STIM_013.jpg
1292.106	0.72	1	test	Phase2	test/STIM_014.jpg
1295.349	1.079	1	test	Phase2	test/STIM_014.jpg
1300.165	1.227	1	test	Phase2	test/STIM_014.jpg
1305.196	1.091	1	test	Phase2	test/STIM_015.jpg
1309.994	1.256	1	test	Phase2	test/STIM_015.jpg
1314.861	1.044	1	test	Phase2	test/STIM_015.jpg
1318.314	1.172	1	test	Phase2	test/STIM_016.jpg
1322.014	1.096	1	test	Phase2	test/STIM_016.jpg
1325.747	1.18	1	test	Phase2	test/STIM_016.jpg
1330.786	1.253	1	test	Phase2	test/STIM_017.jpg
1334.967	1.077	1	test	Phase2	test/STIM_017.jpg
1340.014	0.674	1	test	Phase2	test/STIM_017.jpg
1343.919	1.354	1	test	Phase2	test/STIM_018.jpg
1349.11	1.396	1	test	Phase2	test/STIM_018.jpg
1353.486	0.79	1	test	Phase2	test/STIM_018.jpg
1357.422	1.17	1	test	Phase2	test/STIM_019.jpg
1360.709	0.705	1	test	Phase2	test/STIM_019.jpg
1364.151	1.214	1	test	Phase2	test/STIM_019.jpg
1367.748	0.735	1	test	Phase2	test/STIM_020.jpg
1371.798	1.106	1	test	Phase2	test/STIM_020.jpg
1375.625	0.726	1	test	Phase2	test/STIM_020.jpg
1380.196	1.002	1	test	Phase2	test/STIM_021.jpg
1383.639	0.655	1	test	Phase2	test/STIM_021.jpg
1387.295	1.367	1	test	Phase2	test/STIM_021.jpg
1391.336	1.393	1	test	Phase2	test/STIM_022.jpg
1395.432	0.798	1	test	Phase2	test/STIM_022.jpg
1400.076	0.952	1	test	Phase2	test/STIM_022.jpg
1403.731	1.361	1	test	Phase2	test/STIM_023.jpg
1407.746	0.97	1	test	Phase2	test/STIM_023.jpg
1412.205	1.257	1	test	Phase2	test/STIM_023.jpg
1415.582	1.299	1	test	Phase2	test/STIM_024.jpg
1420.024	1.174	1	test	Phase2	test/STIM_024.jpg
1425.05	0.81	1	test	Phase2	test/STIM_024.jpg
1428.81	1.065	1	test	Phase2	test/STIM_025.jpg
1432.237	0.897	1	test	Phase2	test/STIM_025.jpg
1435.376	0.924	1	test	Phase2	test/STIM_025.jpg
1439.004	0.704	1	test	Phase2	test/STIM_026.jpg
1442.024	0.69	1	test	Phase2	test/STIM_026.jpg
1445.642	1.323	1	test	Phase2	test/STIM_026.jpg
1450.139	0.857	1	test	Phase2	test/STIM_027.jpg
1454.271	1.215	1	test	Phase2	test/STIM_027.jpg
1458.159	1.395	1	test	Phase2	test/STIM_027.jpg
1462.66	1.154	1	test	Phase2	test/STIM_028.jpg
1466.081	0.783	1	test	Phase2	test/STIM_028.jpg
1470.674	0.781	1	test	Phase2	test/STIM_028.jpg
1473.8	1.312	0	test	Phase2	test/STIM_029.jpg
1477.436	1.183	1	test	Phase2	test/STIM_029.jpg
1481.709	0.796	1	test	Phase2	test/STIM_029.jpg
1485.25	1.115	1	study	Phase3	study/STIM_000.jpg
1489.473	0.86	1	study	Phase3	study/STIM_000.jpg
1493.791	1.261	1	study	Phase3	study/STIM_000.jpg
1497.934	1.292	1	study	Phase3	study/STIM_001.jpg
1501.933	1.179	1	study	Phase3	study/STIM_001.jpg
1505.925	1.208	1	study	Phase3	study/STIM_001.jpg
1509.39	1.327	1	study	Phase3	study/STIM_002.jpg
1513.207	1.215	1	study	Phase3	study/STIM_002.jpg
1517.776	1.069	1	study	Phase3	study/STIM_002.jpg
1522.335	1.346	1	study	Phase3	study/STIM_003.jpg
1526.222	0.608	1	study	Phase3	study/STIM_003.jpg
1530.483	0.63	1	study	Phase3	study/STIM_003.jpg
1533.203	0.965	1	study	Phase3	study/STIM_004.jpg
1538.041	0.847	1	study	Phase3	study/STIM_004.jpg
1542.129	0.824	1	study	Phase3	study/STIM_004.jpg
1545.526	0.702	1	study	Phase3	study/STIM_005.jpg
1549.412	0.681	1	study	Phase3	study/STIM_005.jpg
1552.434	0.71	1	study	Phase3	study/STIM_005.jpg
1556.739	0.788	1	study	Phase3	study/STIM_006.jpg
1559.785	1.135	1	study	Phase3	study/STIM_006.jpg
1563.032	1.359	1	study	Phase3	study/STIM_006.jpg
1567.788	1.27	1	study	Phase3	study/STIM_007.jpg
1572.666	1.127	1	study	Phase3	study/STIM_007.jpg
1575.906	1.023	1	study	Phase3	study/STIM_007.jpg
1579.004	1.311	1	study	Phase3	study/STIM_008.jpg
1583.312	1.147	1	study	Phase3	study/STIM_008.jpg
1588.427	1.062	1	study	Phase3	study/STIM_008.jpg
1592.75	1.341	1	study	Phase3	study/STIM_009.jpg
1597.765	0.67	1	study	Phase3	study/STIM_009.jpg
1601.587	1.083	1	study	Phase3	study/STIM_009.jpg
1606.08	1.108	1	study	Phase3	study/STIM_010.jpg
1611.015	0.762	1	study	Phase3	study/STIM_010.jpg
1614.865	0.828	1	study	Phase3	study/STIM_010.jpg
1618.175	0.911	1	study	Phase3	study/STIM_011.jpg
1621.719	0.89	1	study	Phase3	study/STIM_011.jpg
1624.991	0.638	1	study	Phase3	study/STIM_011.jpg
1628.302	0.799	1	study	Phase3	study/STIM_012.jpg
1631.838	0.922	1	study	Phase3	study/STIM_012.jpg
1635.548	1.23	1	study	Phase3	study/STIM_012.jpg
1639.549	1.038	1	study	Phase3	study/STIM_013.jpg
1643.655	0.84	1	study	Phase3	study/STIM_013.jpg
1646.89	1.08	1	study	Phase3	study/STIM_013.jpg
1651.344	1.284	1	study	Phase3	study/STIM_014.jpg
1656.312	0.669	1	study	Phase3	study/STIM_014.jpg
1660.497	0.863	1	study	Phase3	study/STIM_014.jpg
1664.227	1.149	1	study	Phase3	study/STIM_015.jpg
1667.98	0.626	1	study	Phase3	study/STIM_015.jpg
1671.193	1.04	1	study	Phase3	study/STIM_015.jpg
1676.003	0.627	1	study	Phase3	study/STIM_016.jpg
1679.898	1.067	1	study	Phase3	study/STIM_016.jpg
1683.088	0.778	1	study	Phase3	study/STIM_016.jpg
1686.542	0.801	1	study	Phase3	study/STIM_017.jpg
1691.076	0.766	1	study	Phase3	study/STIM_017.jpg
1694.562	1.111	1	study	Phase3	study/STIM_017.jpg
1698.008	0.705	1	study	Phase3	study/STIM_018.jpg
1702.113	1.271	0	study	Phase3	study/STIM_018.jpg
1706.67	1.004	1	study	Phase3	study/STIM_018.jpg
1709.745	0.978	1	study	Phase3	study/STIM_019.jpg
1713.171	1.05	1	study	Phase3	study/STIM_019.jpg
1717.786	1.034	1	study	Phase3	study/STIM_019.jpg
1721.298	1.234	1	study	Phase3	study/STIM_020.jpg
1725.76	1.275	1	study	Phase3	study/STIM_020.jpg
1730.441	1.211	1	study	Phase3	study/STIM_020.jpg
1733.808	1.229	1	study	Phase3	study/STIM_021.jpg
1737.843	0.974	1	study	Phase3	study/STIM_021.jpg
1741.203	0.616	1	study	Phase3	study/STIM_021.jpg
1745.132	1.12	1	study	Phase3	study/STIM_022.jpg
1749.374	1.342	1	study	Phase3	study/STIM_022.jpg
1752.996	0.807	1	study	Phase3	study/STIM_022.jpg
1756.221	1.259	1	study	Phase3	study/STIM_023.jpg
1760.436	1.352	1	study	Phase3	study/STIM_023.jpg
1764.688	0.767	1	study	Phase3	study/STIM_023.jpg
1767.778	0.714	1	study	Phase3	study/STIM_024.jpg
1770.742	1.322	1	study	Phase3	study/STIM_024.jpg
1774.996	1.194	1	study	Phase3	study/STIM_024.jpg
1780.112	1.026	1	study	Phase3	study/STIM_025.jpg
1784.415	1.054	1	study	Phase3	study/STIM_025.jpg
1788.181	1.269	1	study	Phase3	study/STIM_025.jpg
1792.659	0.932	1	study	Phase3	study/STIM_026.jpg
1796.04	1.083	1	study	Phase3	study/STIM_026.jpg
1800.989	0.935	1	study	Phase3	study/STIM_026.jpg
1804.787	0.694	1	study	Phase3	study/STIM_027.jpg
1807.484	0.824	1	study	Phase3	study/STIM_027.jpg
1810.356	0.948	1	study	Phase3	study/STIM_027.jpg
1814.383	1.07	1	study	Phase3	study/STIM_028.jpg
1818.489	0.728	1	study	Phase3	study/STIM_028.jpg
1823.17	1.343	1	study	Phase3	study/STIM_028.jpg
1827.97	0.939	1	study	Phase3	study/STIM_029.jpg
1832.39	0.865	1	study	Phase3	study/STIM_029.jpg
1836.014	0.737	1	study	Phase3	study/STIM_029.jpg
1838.855	0.925	1	test	Phase3	test/STIM_000.jpg
1843.553	0.77	1	test	Phase3	test/STIM_000.jpg
1846.927	0.842	1	test	Phase3	test/STIM_000.jpg
1850.245	1.12	1	test	Phase3	test/STIM_001.jpg
1854.976	1.105	1	test	Phase3	test/STIM_001.jpg
1859.465	0.832	1	test	Phase3	test/STIM_001.jpg
1862.676	0.789	1	test	Phase3	test/STIM_002.jpg
1866.503	0.769	1	test	Phase3	test/STIM_002.jpg
1869.611	1.349	1	test	Phase3	test/STIM_002.jpg
1874.419	0.745	1	test	Phase3	test/STIM_003.jpg
1878.278	1.034	1	test	Phase3	test/STIM_003.jpg
1881.503	1.165	1	test	Phase3	test/STIM_003.jpg
1885.509	1.349	1	test	Phase3	test/STIM_004.jpg
1889.588	0.688	1	test	Phase3	test/STIM_004.jpg
1893.156	1.005	1	test	Phase3	test/STIM_004.jpg
1897.483	1.109	0	test	Phase3	test/STIM_005.jpg
1900.947	0.67	1	test	Phase3	test/STIM_005.jpg
1905.394	1.4	1	test	Phase3	test/STIM_005.jpg
1909.221	0.95	1	test	Phase3	test/STIM_006.jpg
1913.431	0.818	1	test	Phase3	test/STIM_006.jpg
1917.96	1.079	1	test	Phase3	test/STIM_006.jpg
1921.23	1.143	0	test	Phase3	test/STIM_007.jpg
1924.766	1.103	1	test	Phase3	test/STIM_007.jpg
1928.953	1.002	1	test	Phase3	test/STIM_007.jpg
1932.542	0.674	1	test	Phase3	test/STIM_008.jpg
1935.48	0.694	1	test	Phase3	test/STIM_008.jpg
1938.395	1.144	1	test	Phase3	test/STIM_008.jpg
1942.18	0.832	0	test	Phase3	test/STIM_009.jpg
1945.329	1.084	1	test	Phase3	test/STIM_009.jpg
1949.886	0.673	1	test	Phase3	test/STIM_009.jpg
1953.723	0.855	0	test	Phase3	test/STIM_010.jpg
1958.176	1.016	1	test	Phase3	test/STIM_010.jpg
1962.007	1.062	1	test	Phase3	test/STIM_010.jpg
1966.061	1.074	1	test	Phase3	test/STIM_011.jpg
1969.517	1.384	1	test	Phase3	test/STIM_011.jpg
1973.15	1.187	1	test	Phase3	test/STIM_011.jpg
1976.65	1.128	1	test	Phase3	test/STIM_012.jpg
1981.378	0.652	0	test	Phase3	test/STIM_012.jpg
1984.963	0.915	1	test	Phase3	test/STIM_012.jpg
1988.263	1.362	1	test	Phase3	test/STIM_013.jpg
1992.067	0.771	1	test	Phase3	test/STIM_013.jpg
1995.767	0.906	1	test	Phase3	test/STIM_013.jpg
1999.077	1.213	1	test	Phase3	test/STIM_014.jpg
2002.355	0.811	1	test	Phase3	test/STIM_014.jpg
2005.342	1.372	1	test	Phase3	test/STIM_014.jpg
2009.113	1.378	1	test	Phase3	test/STIM_015.jpg
2013.862	1.372	1	test	Phase3	test/STIM_015.jpg
2019.163	1.283	1	test	Phase3	test/STIM_015.jpg
2022.865	0.786	0	test	Phase3	test/STIM_016.jpg
2027.452	0.835	1	test	Phase3	test/STIM_016.jpg
2031.439	0.823	1	test	Phase3	test/STIM_016.jpg
2035.565	0.916	1	test	Phase3	test/STIM_017.jpg
2039.416	0.739	1	test	Phase3	test/STIM_017.jpg
2042.452	1.221	1	test	Phase3	test/STIM_017.jpg
2046.532	0.669	0	test	Phase3	test/STIM_018.jpg
2051.119	0.821	1	test	Phase3	test/STIM_018.jpg
2054.11	1.177	1	test	Phase3	test/STIM_018.jpg
2059.204	1.286	1	test	Phase3	test/STIM_019.jpg
2064.117	1.38	1	test	Phase3	test/STIM_019.jpg
2067.824	0.824	1	test	Phase3	test/STIM_019.jpg
2072.581	1.371	0	test	Phase3	test/STIM_020.jpg
2077.186	1.154	1	test	Phase3	test/STIM_020.jpg
2082.217	1.268	1	test	Phase3	test/STIM_020.jpg
2085.75	1.072	1	test	Phase3	test/STIM_021.jpg
2088.86	0.993	1	test	Phase3	test/STIM_021.jpg
2092.744	1.156	1	test	Phase3	test/STIM_021.jpg
2095.961	0.859	1	test	Phase3	test/STIM_022.jpg
2099.841	1.389	1	test	Phase3	test/STIM_022.jpg
2103.79	0.85	1	test	Phase3	test/STIM_022.jpg
2107.658	1.327	1	test	Phase3	test/STIM_023.jpg
2112.552	1.086	1	test	Phase3	test/STIM_023.jpg
2116.481	0.96	1	test	Phase3	test/STIM_023.jpg
2120.541	0.706	1	test	Phase3	test/STIM_024.jpg
2124.38	1.012	1	test	Phase3	test/STIM_024.jpg
2127.887	0.804	0	test	Phase3	test/STIM_024.jpg
2131.448	1.192	1	test	Phase3	test/STIM_025.jpg
2134.671	1.279	1	test	Phase3	test/STIM_025.jpg
2139.355	1.226	1	test	Phase3	test/STIM_025.jpg
2144.166	1.109	1	test	Phase3	test/STIM_026.jpg
2148.641	0.772	1	test	Phase3	test/STIM_026.jpg
2152.263	0.935	1	test	Phase3	test/STIM_026.jpg
2156.124	1.042	1	test	Phase3	test/STIM_027.jpg
2159.766	0.69	1	test	Phase3	test/STIM_027.jpg
2163.889	0.937	1	test	Phase3	test/STIM_027.jpg
2167.6	1.193	0	test	Phase3	test/STIM_028.jpg
2172.184	0.751	1	test	Phase3	test/STIM_028.jpg
2175.824	0.944	1	test	Phase3	test/STIM_028.jpg
2179.057	0.9	1	test	Phase3	test/STIM_029.jpg
2182.095	0.842	1	test	Phase3	test/STIM_029.jpg
2186.284	0.884	1	test	Phase3	test/STIM_029.jpg
