onset	duration	accuracy_binary	trial_type	learning_stage	stimulus
24.142	0.076	0	learning	LS1	h51_p24_k_up_q3_right.jpg
28.828	1.984	0	learning	LS1	h101_p49_k_down_q2_right.jpg
33.515	0.257	0	learning	LS1	h34_p41_k_up_q4_left.jpg
38.185	1.800	0	learning	LS1	h61_p5_k_up_q2_right.jpg
42.871	2.084	1	learning	LS1	h101_p49_k_down_q2_right.jpg
47.541	0.029	1	learning	LS1	h61_p5_k_up_q2_right.jpg
52.194	2.396	1	learning	LS1	h34_p41_k_up_q4_left.jpg
56.864	1.754	0	learning	LS1	h102_p40_k_down_q2_right.jpg
61.534	0.652	0	learning	LS1	h51_p24_k_up_q3_right.jpg
66.204	2.050	1	learning	LS1	h102_p40_k_down_q2_right.jpg
75.377	n/a	n/a	learning	LS2	n/a
80.064	0.651	1	learning	LS2	h51_p24_k_up_q3_right.jpg
84.733	0.092	1	learning	LS2	h102_p40_k_down_q2_right.jpg
89.420	1.164	1	learning	LS2	h101_p49_k_down_q2_right.jpg
94.073	0.590	1	learning	LS2	h51_p24_k_up_q3_right.jpg
98.743	1.233	1	learning	LS2	h61_p5_k_up_q2_right.jpg
103.413	1.355	1	learning	LS2	h34_p41_k_up_q4_left.jpg
108.099	0.212	1	learning	LS2	h102_p40_k_down_q2_right.jpg
112.769	0.005	1	learning	LS2	h34_p41_k_up_q4_left.jpg
117.439	0.944	1	learning	LS2	h61_p5_k_up_q2_right.jpg
126.612	2.130	1	learning	LS3	h61_p5_k_up_q2_right.jpg
131.265	1.025	1	learning	LS3	h51_p24_k_up_q3_right.jpg
135.935	2.475	1	learning	LS3	h101_p49_k_down_q2_right.jpg
140.588	0.301	1	learning	LS3	h51_p24_k_up_q3_right.jpg
145.225	n/a	n/a	learning	LS3	n/a
149.878	1.065	1	learning	LS3	h34_p41_k_up_q4_left.jpg
154.531	0.356	1	learning	LS3	h102_p40_k_down_q2_right.jpg
159.201	1.262	1	learning	LS3	h61_p5_k_up_q2_right.jpg
163.854	0.770	1	learning	LS3	h102_p40_k_down_q2_right.jpg
168.524	0.312	1	learning	LS3	h34_p41_k_up_q4_left.jpg
177.697	0.926	1	learning	LS4	h51_p24_k_up_q3_right.jpg
182.367	0.602	1	learning	LS4	h34_p41_k_up_q4_left.jpg
187.037	1.775	1	learning	LS4	h61_p5_k_up_q2_right.jpg
191.690	1.348	1	learning	LS4	h102_p40_k_down_q2_right.jpg
196.343	0.140	1	learning	LS4	h101_p49_k_down_q2_right.jpg
201.013	0.999	1	learning	LS4	h102_p40_k_down_q2_right.jpg
205.666	1.288	1	learning	LS4	h61_p5_k_up_q2_right.jpg
210.319	0.279	1	learning	LS4	h101_p49_k_down_q2_right.jpg
214.989	0.071	1	learning	LS4	h34_p41_k_up_q4_left.jpg
219.659	1.043	1	learning	LS4	h51_p24_k_up_q3_right.jpg
246.911	1.284	1	learning	LS1	h56_p13_k_up_q2_right.jpg
251.597	1.164	1	learning	LS1	h30_p14_k_up_q2_right.jpg
256.267	0.406	0	learning	LS1	h75_p37_k_down_q1_left.jpg
260.954	1.752	0	learning	LS1	h97_p23_k_down_q2_right.jpg
265.607	1.220	1	learning	LS1	h56_p13_k_up_q2_right.jpg
270.294	0.729	1	learning	LS1	h30_p14_k_up_q2_right.jpg
274.964	1.629	1	learning	LS1	h75_p37_k_down_q1_left.jpg
279.633	0.860	0	learning	LS1	h76_p29_k_down_q1_left.jpg
284.286	0.735	1	learning	LS1	h97_p23_k_down_q2_right.jpg
288.973	1.267	1	learning	LS1	h76_p29_k_down_q1_left.jpg
298.163	0.841	1	learning	LS2	h76_p29_k_down_q1_left.jpg
302.816	0.283	1	learning	LS2	h97_p23_k_down_q2_right.jpg
307.486	1.622	1	learning	LS2	h56_p13_k_up_q2_right.jpg
312.156	1.031	1	learning	LS2	h30_p14_k_up_q2_right.jpg
316.825	0.123	1	learning	LS2	h56_p13_k_up_q2_right.jpg
321.512	1.612	1	learning	LS2	h97_p23_k_down_q2_right.jpg
326.199	0.854	1	learning	LS2	h30_p14_k_up_q2_right.jpg
330.868	1.417	1	learning	LS2	h75_p37_k_down_q1_left.jpg
335.522	1.885	1	learning	LS2	h76_p29_k_down_q1_left.jpg
340.191	0.610	0	learning	LS2	h75_p37_k_down_q1_left.jpg
349.364	0.915	1	learning	LS3	h76_p29_k_down_q1_left.jpg
354.034	1.100	1	learning	LS3	h75_p37_k_down_q1_left.jpg
358.704	0.324	1	learning	LS3	h30_p14_k_up_q2_right.jpg
363.357	0.905	1	learning	LS3	h97_p23_k_down_q2_right.jpg
368.010	0.922	1	learning	LS3	h56_p13_k_up_q2_right.jpg
372.680	0.414	1	learning	LS3	h76_p29_k_down_q1_left.jpg
377.350	0.895	1	learning	LS3	h56_p13_k_up_q2_right.jpg
382.037	1.011	1	learning	LS3	h97_p23_k_down_q2_right.jpg
386.690	0.203	1	learning	LS3	h30_p14_k_up_q2_right.jpg
391.360	0.997	1	learning	LS3	h75_p37_k_down_q1_left.jpg
400.533	0.292	1	learning	LS4	h97_p23_k_down_q2_right.jpg
405.186	0.865	1	learning	LS4	h75_p37_k_down_q1_left.jpg
409.839	1.073	1	learning	LS4	h76_p29_k_down_q1_left.jpg
414.509	0.715	1	learning	LS4	h75_p37_k_down_q1_left.jpg
419.162	0.840	1	learning	LS4	h56_p13_k_up_q2_right.jpg
423.832	1.196	1	learning	LS4	h30_p14_k_up_q2_right.jpg
428.485	0.488	1	learning	LS4	h97_p23_k_down_q2_right.jpg
433.155	1.006	1	learning	LS4	h30_p14_k_up_q2_right.jpg
437.808	1.118	1	learning	LS4	h56_p13_k_up_q2_right.jpg
442.461	0.461	1	learning	LS4	h76_p29_k_down_q1_left.jpg
469.713	n/a	n/a	learning	LS1	n/a
474.400	1.744	1	learning	LS1	h50_p45_k_up_q3_right.jpg
479.053	n/a	n/a	learning	LS1	n/a
483.723	0.880	1	learning	LS1	h26_p20_k_up_q2_right.jpg
488.393	0.389	0	learning	LS1	h57_p36_k_down_q1_left.jpg
493.079	0.978	0	learning	LS1	h80_p30_k_down_q2_right.jpg
497.749	0.536	1	learning	LS1	h26_p20_k_up_q2_right.jpg
502.402	0.177	0	learning	LS1	h60_p49_k_up_q4_left.jpg
507.056	1.464	1	learning	LS1	h57_p36_k_down_q1_left.jpg
511.725	0.859	1	learning	LS1	h80_p30_k_down_q2_right.jpg
520.898	0.209	1	learning	LS2	h26_p20_k_up_q2_right.jpg
525.568	1.265	1	learning	LS2	h50_p45_k_up_q3_right.jpg
530.238	0.606	1	learning	LS2	h60_p49_k_up_q4_left.jpg
534.925	0.015	1	learning	LS2	h80_p30_k_down_q2_right.jpg
539.578	0.403	1	learning	LS2	h80_p30_k_down_q2_right.jpg
544.248	0.595	1	learning	LS2	h57_p36_k_down_q1_left.jpg
548.918	1.296	1	learning	LS2	h50_p45_k_up_q3_right.jpg
553.587	1.343	1	learning	LS2	h60_p49_k_up_q4_left.jpg
558.257	0.768	1	learning	LS2	h26_p20_k_up_q2_right.jpg
562.910	1.765	0	learning	LS2	h57_p36_k_down_q1_left.jpg
572.083	1.008	1	learning	LS3	h26_p20_k_up_q2_right.jpg
576.753	1.282	1	learning	LS3	h50_p45_k_up_q3_right.jpg
581.406	1.247	1	learning	LS3	h50_p45_k_up_q3_right.jpg
586.076	0.531	1	learning	LS3	h57_p36_k_down_q1_left.jpg
590.730	0.157	1	learning	LS3	h60_p49_k_up_q4_left.jpg
595.383	1.063	1	learning	LS3	h60_p49_k_up_q4_left.jpg
600.036	0.854	1	learning	LS3	h80_p30_k_down_q2_right.jpg
604.706	0.213	1	learning	LS3	h26_p20_k_up_q2_right.jpg
609.375	1.037	1	learning	LS3	h57_p36_k_down_q1_left.jpg
614.045	1.060	1	learning	LS3	h80_p30_k_down_q2_right.jpg
623.218	1.241	1	learning	LS4	h60_p49_k_up_q4_left.jpg
627.871	1.050	1	learning	LS4	h57_p36_k_down_q1_left.jpg
632.541	0.258	1	learning	LS4	h50_p45_k_up_q3_right.jpg
637.211	0.992	1	learning	LS4	h60_p49_k_up_q4_left.jpg
641.864	1.273	1	learning	LS4	h26_p20_k_up_q2_right.jpg
646.518	0.547	1	learning	LS4	h26_p20_k_up_q2_right.jpg
651.204	0.934	1	learning	LS4	h50_p45_k_up_q3_right.jpg
655.857	1.012	1	learning	LS4	h80_p30_k_down_q2_right.jpg
660.527	1.726	1	learning	LS4	h57_p36_k_down_q1_left.jpg
665.180	0.844	1	learning	LS4	h80_p30_k_down_q2_right.jpg
692.349	n/a	n/a	control	LS1	n/a
697.452	2.480	1	control	LS1	h38_p37_k_up_q3_right.jpg
702.039	1.889	1	control	LS1	h75_p13_i_down_left.jpg
706.625	1.298	1	control	LS1	h101_p49_k_down_q2_right.jpg
711.229	0.881	0	control	LS1	h20_p12_i_up_right.jpg
715.815	2.112	1	control	LS1	h75_p37_k_down_q1_left.jpg
720.418	1.504	1	control	LS1	h20_p53_k_up_q3_right.jpg
725.005	0.928	1	control	LS1	h34_p41_k_up_q4_left.jpg
729.591	2.334	1	control	LS1	h101_p21_i_down_left.jpg
734.194	1.727	1	control	LS1	h38_p25_i_up_left.jpg
743.317	1.585	1	control	LS2	h20_p43_i_up_right.jpg
747.904	2.017	1	control	LS2	h101_p37_i_down_left.jpg
752.490	1.441	1	control	LS2	h20_p53_k_up_q3_right.jpg
757.077	0.850	1	control	LS2	h101_p49_k_down_q2_right.jpg
761.680	2.240	1	control	LS2	h34_p21_i_up_right.jpg
766.299	1.631	1	control	LS2	h38_p47_i_up_left.jpg
770.886	1.088	1	control	LS2	h34_p41_k_up_q4_left.jpg
775.472	2.446	1	control	LS2	h38_p37_k_up_q3_right.jpg
780.076	1.855	1	control	LS2	h75_p16_i_down_right.jpg
784.662	1.263	1	control	LS2	h75_p37_k_down_q1_left.jpg
793.785	2.144	1	control	LS3	h101_p49_k_down_q2_right.jpg
798.371	1.553	0	control	LS3	h20_p12_i_up_right.jpg
802.975	1.232	1	control	LS3	h38_p25_i_up_left.jpg
807.561	2.366	1	control	LS3	h34_p17_i_up_left.jpg
812.148	1.775	1	control	LS3	h38_p37_k_up_q3_right.jpg
816.734	1.184	1	control	LS3	h34_p41_k_up_q4_left.jpg
821.321	0.881	1	control	LS3	h75_p37_k_down_q1_left.jpg
825.907	2.015	1	control	LS3	h75_p13_i_down_left.jpg
830.493	1.440	1	control	LS3	h101_p21_i_down_left.jpg
835.080	0.848	1	control	LS3	h20_p53_k_up_q3_right.jpg
844.186	1.746	1	control	LS4	h20_p43_i_up_right.jpg
848.773	1.155	1	control	LS4	h75_p37_k_down_q1_left.jpg
853.359	0.564	1	control	LS4	h75_p16_i_down_right.jpg
857.946	1.986	1	control	LS4	h34_p41_k_up_q4_left.jpg
862.549	1.378	1	control	LS4	h101_p37_i_down_left.jpg
867.135	0.787	1	control	LS4	h38_p47_i_up_left.jpg
871.722	2.209	1	control	LS4	h101_p49_k_down_q2_right.jpg
876.308	1.617	1	control	LS4	h34_p21_i_up_right.jpg
880.911	1.009	1	control	LS4	h38_p37_k_up_q3_right.jpg
885.514	2.415	1	control	LS4	h20_p53_k_up_q3_right.jpg
912.766	2.014	0	learning	LS1	h69_p34_k_down_q1_left.jpg
917.436	1.118	1	learning	LS1	h93_p27_k_down_q1_left.jpg
922.123	0.926	1	learning	LS1	h58_p6_k_down_q3_right.jpg
926.793	1.202	0	learning	LS1	h93_p27_k_down_q1_left.jpg
931.496	1.240	1	learning	LS1	h44_p18_k_up_q1_right.jpg
936.182	0.732	1	learning	LS1	h69_p34_k_down_q1_left.jpg
940.869	0.074	1	learning	LS1	h54_p3_k_up_q2_right.jpg
945.522	1.047	1	learning	LS1	h58_p6_k_down_q3_right.jpg
950.175	0.472	1	learning	LS1	h44_p18_k_up_q1_right.jpg
954.845	1.165	1	learning	LS1	h54_p3_k_up_q2_right.jpg
964.035	0.762	1	learning	LS2	h54_p3_k_up_q2_right.jpg
968.705	0.221	1	learning	LS2	h69_p34_k_down_q1_left.jpg
973.375	1.189	1	learning	LS2	h44_p18_k_up_q1_right.jpg
978.061	0.952	1	learning	LS2	h58_p6_k_down_q3_right.jpg
982.731	0.360	1	learning	LS2	h69_p34_k_down_q1_left.jpg
987.401	1.081	1	learning	LS2	h54_p3_k_up_q2_right.jpg
992.071	0.608	0	learning	LS2	h93_p27_k_down_q1_left.jpg
996.724	1.267	1	learning	LS2	h58_p6_k_down_q3_right.jpg
1001.394	0.832	1	learning	LS2	h93_p27_k_down_q1_left.jpg
1006.047	0.964	1	learning	LS2	h44_p18_k_up_q1_right.jpg
1015.236	0.989	1	learning	LS3	h58_p6_k_down_q3_right.jpg
1019.906	1.020	1	learning	LS3	h54_p3_k_up_q2_right.jpg
1024.576	1.557	0	learning	LS3	h93_p27_k_down_q1_left.jpg
1029.246	0.995	1	learning	LS3	h58_p6_k_down_q3_right.jpg
1033.899	0.827	1	learning	LS3	h44_p18_k_up_q1_right.jpg
1038.552	0.602	1	learning	LS3	h69_p34_k_down_q1_left.jpg
1043.206	0.921	1	learning	LS3	h54_p3_k_up_q2_right.jpg
1047.875	1.016	1	learning	LS3	h69_p34_k_down_q1_left.jpg
1052.545	0.358	1	learning	LS3	h44_p18_k_up_q1_right.jpg
1057.198	0.895	1	learning	LS3	h93_p27_k_down_q1_left.jpg
1066.371	0.497	1	learning	LS4	h93_p27_k_down_q1_left.jpg
1071.041	0.072	1	learning	LS4	h54_p3_k_up_q2_right.jpg
1075.695	1.378	1	learning	LS4	h93_p27_k_down_q1_left.jpg
1080.348	0.703	1	learning	LS4	h58_p6_k_down_q3_right.jpg
1085.001	1.587	1	learning	LS4	h54_p3_k_up_q2_right.jpg
1089.654	0.800	1	learning	LS4	h44_p18_k_up_q1_right.jpg
1094.307	0.242	1	learning	LS4	h58_p6_k_down_q3_right.jpg
1098.977	1.131	1	learning	LS4	h69_p34_k_down_q1_left.jpg
1103.630	1.441	1	learning	LS4	h44_p18_k_up_q1_right.jpg
1108.283	0.732	1	learning	LS4	h69_p34_k_down_q1_left.jpg
1135.452	2.479	0	control	LS1	h57_p15_i_down_left.jpg
1140.055	1.871	1	control	LS1	h80_p16_i_down_right.jpg
1144.642	1.280	1	control	LS1	h57_p36_k_down_q1_left.jpg
1149.228	0.864	1	control	LS1	h58_p11_i_down_right.jpg
1153.831	2.094	1	control	LS1	h24_p20_i_up_right.jpg
1158.434	1.502	1	control	LS1	h60_p49_k_up_q4_left.jpg
1163.021	0.911	1	control	LS1	h80_p30_k_down_q2_right.jpg
1167.607	2.317	1	control	LS1	h58_p6_k_down_q3_right.jpg
1172.194	1.742	1	control	LS1	h60_p35_i_up_right.jpg
1176.797	1.134	1	control	LS1	h24_p40_k_up_q4_left.jpg
1185.903	2.031	1	control	LS2	h60_p49_k_up_q4_left.jpg
1190.490	1.440	1	control	LS2	h57_p36_k_down_q1_left.jpg
1195.076	0.849	1	control	LS2	h80_p30_k_down_q2_right.jpg
1199.679	2.255	1	control	LS2	h24_p48_i_up_right.jpg
1204.266	n/a	n/a	control	LS2	n/a
1209.352	0.907	1	control	LS2	h58_p15_i_down_left.jpg
1213.956	1.977	1	control	LS2	h57_p34_i_down_left.jpg
1218.542	1.386	1	control	LS2	h80_p25_i_down_right.jpg
1223.145	0.986	1	control	LS2	h58_p6_k_down_q3_right.jpg
1227.748	2.184	1	control	LS2	h24_p40_k_up_q4_left.jpg
1236.871	1.051	1	control	LS3	h24_p40_k_up_q4_left.jpg
1241.475	2.456	1	control	LS3	h57_p36_k_down_q1_left.jpg
1246.078	1.848	1	control	LS3	h58_p6_k_down_q3_right.jpg
1250.664	1.257	1	control	LS3	h60_p35_i_up_right.jpg
1255.251	0.985	1	control	LS3	h80_p30_k_down_q2_right.jpg
1259.837	2.088	1	control	LS3	h60_p49_k_up_q4_left.jpg
1264.424	1.512	1	control	LS3	h24_p20_i_up_right.jpg
1269.010	0.921	1	control	LS3	h57_p15_i_down_left.jpg
1273.613	2.311	1	control	LS3	h80_p16_i_down_right.jpg
1278.216	1.718	1	control	LS3	h58_p11_i_down_right.jpg
1287.322	1.369	1	control	LS4	h80_p25_i_down_right.jpg
1291.909	2.025	1	control	LS4	h24_p48_i_up_right.jpg
1296.512	1.417	1	control	LS4	h57_p36_k_down_q1_left.jpg
1301.099	0.985	1	control	LS4	h80_p30_k_down_q2_right.jpg
1305.685	2.248	1	control	LS4	h60_p49_k_up_q4_left.jpg
1310.288	1.688	1	control	LS4	h57_p34_i_down_left.jpg
1314.875	1.049	1	control	LS4	h58_p6_k_down_q3_right.jpg
1319.478	2.454	1	control	LS4	h60_p48_i_up_right.jpg
1324.064	1.863	1	control	LS4	h24_p40_k_up_q4_left.jpg
1328.651	1.272	1	control	LS4	h58_p15_i_down_left.jpg
1355.903	0.318	1	learning	LS1	h27_p8_k_up_q1_left.jpg
1360.573	1.539	0	learning	LS1	h77_p42_k_down_q1_left.jpg
1365.259	1.503	1	learning	LS1	h74_p16_k_up_q1_left.jpg
1369.946	0.990	1	learning	LS1	h27_p8_k_up_q1_left.jpg
1374.599	0.449	1	learning	LS1	h74_p16_k_up_q1_left.jpg
1379.252	1.861	1	learning	LS1	h38_p37_k_up_q3_right.jpg
1383.955	0.780	1	learning	LS1	h84_p8_k_down_q3_right.jpg
1388.625	0.189	1	learning	LS1	h77_p42_k_down_q1_left.jpg
1393.295	1.321	1	learning	LS1	h38_p37_k_up_q3_right.jpg
1397.965	2.102	0	learning	LS1	h84_p8_k_down_q3_right.jpg
1407.171	1.093	1	learning	LS2	h27_p8_k_up_q1_left.jpg
1411.824	1.226	1	learning	LS2	h74_p16_k_up_q1_left.jpg
1416.494	0.468	1	learning	LS2	h77_p42_k_down_q1_left.jpg
1421.164	1.420	1	learning	LS2	h27_p8_k_up_q1_left.jpg
1425.834	1.399	1	learning	LS2	h38_p37_k_up_q3_right.jpg
1430.487	0.324	1	learning	LS2	h84_p8_k_down_q3_right.jpg
1435.140	1.873	0	learning	LS2	h38_p37_k_up_q3_right.jpg
1439.827	1.105	1	learning	LS2	h84_p8_k_down_q3_right.jpg
1444.497	0.530	1	learning	LS2	h74_p16_k_up_q1_left.jpg
1449.200	0.982	1	learning	LS2	h77_p42_k_down_q1_left.jpg
1458.373	0.620	1	learning	LS3	h77_p42_k_down_q1_left.jpg
1463.026	0.947	1	learning	LS3	h27_p8_k_up_q1_left.jpg
1467.696	1.368	1	learning	LS3	h74_p16_k_up_q1_left.jpg
1472.366	0.543	1	learning	LS3	h84_p8_k_down_q3_right.jpg
1477.019	0.051	1	learning	LS3	h38_p37_k_up_q3_right.jpg
1481.689	1.357	1	learning	LS3	h77_p42_k_down_q1_left.jpg
1486.342	0.699	1	learning	LS3	h38_p37_k_up_q3_right.jpg
1490.995	0.073	1	learning	LS3	h27_p8_k_up_q1_left.jpg
1495.665	1.396	1	learning	LS3	h74_p16_k_up_q1_left.jpg
1500.318	0.355	1	learning	LS3	h84_p8_k_down_q3_right.jpg
1509.508	0.936	1	learning	LS4	h84_p8_k_down_q3_right.jpg
1514.161	1.061	1	learning	LS4	h38_p37_k_up_q3_right.jpg
1518.814	0.336	1	learning	LS4	h74_p16_k_up_q1_left.jpg
1523.467	1.709	1	learning	LS4	h84_p8_k_down_q3_right.jpg
1528.120	0.800	1	learning	LS4	h74_p16_k_up_q1_left.jpg
1532.790	0.359	1	learning	LS4	h27_p8_k_up_q1_left.jpg
1537.444	1.732	1	learning	LS4	h77_p42_k_down_q1_left.jpg
1542.097	0.856	1	learning	LS4	h38_p37_k_up_q3_right.jpg
1546.750	0.165	1	learning	LS4	h27_p8_k_up_q1_left.jpg
1551.403	0.894	1	learning	LS4	h77_p42_k_down_q1_left.jpg
1578.638	1.865	1	learning	LS1	h88_p35_k_down_q1_left.jpg
1583.342	1.750	1	learning	LS1	h55_p24_k_down_q4_left.jpg
1587.995	2.050	0	learning	LS1	h20_p53_k_up_q3_right.jpg
1592.665	1.487	0	learning	LS1	h24_p40_k_up_q4_left.jpg
1597.334	1.020	0	learning	LS1	h95_p32_k_down_q2_right.jpg
1602.004	0.373	1	learning	LS1	h88_p35_k_down_q1_left.jpg
1606.674	0.132	1	learning	LS1	h20_p53_k_up_q3_right.jpg
1611.361	1.585	0	learning	LS1	h24_p40_k_up_q4_left.jpg
1616.031	0.530	1	learning	LS1	h55_p24_k_down_q4_left.jpg
1620.700	1.258	1	learning	LS1	h95_p32_k_down_q2_right.jpg
1629.873	0.970	1	learning	LS2	h24_p40_k_up_q4_left.jpg
1634.527	0.495	1	learning	LS2	h55_p24_k_down_q4_left.jpg
1639.180	1.092	1	learning	LS2	h95_p32_k_down_q2_right.jpg
1643.833	1.243	1	learning	LS2	h20_p53_k_up_q3_right.jpg
1648.486	0.017	1	learning	LS2	h24_p40_k_up_q4_left.jpg
1653.173	0.987	1	learning	LS2	h88_p35_k_down_q1_left.jpg
1657.843	1.365	0	learning	LS2	h95_p32_k_down_q2_right.jpg
1662.513	0.523	1	learning	LS2	h55_p24_k_down_q4_left.jpg
1667.182	1.552	0	learning	LS2	h88_p35_k_down_q1_left.jpg
1671.835	1.205	1	learning	LS2	h20_p53_k_up_q3_right.jpg
1681.025	1.069	1	learning	LS3	h20_p53_k_up_q3_right.jpg
1685.695	1.260	1	learning	LS3	h88_p35_k_down_q1_left.jpg
1690.348	0.519	1	learning	LS3	h55_p24_k_down_q4_left.jpg
1695.018	1.011	1	learning	LS3	h95_p32_k_down_q2_right.jpg
1699.671	1.217	1	learning	LS3	h24_p40_k_up_q4_left.jpg
1704.341	0.642	1	learning	LS3	h55_p24_k_down_q4_left.jpg
1709.011	1.145	1	learning	LS3	h88_p35_k_down_q1_left.jpg
1713.681	1.257	1	learning	LS3	h24_p40_k_up_q4_left.jpg
1718.351	0.715	1	learning	LS3	h95_p32_k_down_q2_right.jpg
1723.021	0.058	1	learning	LS3	h20_p53_k_up_q3_right.jpg
1732.210	0.572	1	learning	LS4	h55_p24_k_down_q4_left.jpg
1736.880	0.331	1	learning	LS4	h88_p35_k_down_q1_left.jpg
1741.566	1.436	1	learning	LS4	h95_p32_k_down_q2_right.jpg
1746.220	0.961	1	learning	LS4	h88_p35_k_down_q1_left.jpg
1750.873	0.186	1	learning	LS4	h24_p40_k_up_q4_left.jpg
1755.543	1.642	1	learning	LS4	h20_p53_k_up_q3_right.jpg
1760.213	0.750	1	learning	LS4	h24_p40_k_up_q4_left.jpg
1764.866	0.606	0	learning	LS4	h95_p32_k_down_q2_right.jpg
1769.552	1.465	1	learning	LS4	h55_p24_k_down_q4_left.jpg
1774.206	0.890	1	learning	LS4	h20_p53_k_up_q3_right.jpg
