onset	duration	accuracy	trial_type	learning_stage	stimulus
0.0	0.868	correct	2back	Block1	2back/STIM_000.jpg
4.394	1.17	correct	2back	Block1	2back/STIM_000.jpg
9.386	1.076	correct	2back	Block1	2back/STIM_000.jpg
13.503	1.091	correct	2back	Block1	2back/STIM_001.jpg
17.095	0.853	correct	2back	Block1	2back/STIM_001.jpg
20.889	0.507	correct	2back	Block1	2back/STIM_001.jpg
24.452	1.145	incorrect	2back	Block1	2back/STIM_002.jpg
27.807	0.84	correct	2back	Block1	2back/STIM_002.jpg
32.112	1.115	correct	2back	Block1	2back/STIM_002.jpg
36.853	1.098	correct	2back	Block1	2back/STIM_003.jpg
40.262	0.988	correct	2back	Block1	2back/STIM_003.jpg
44.525	0.783	incorrect	2back	Block1	2back/STIM_003.jpg
48.199	1.193	correct	2back	Block1	2back/STIM_004.jpg
53.525	1.005	correct	2back	Block1	2back/STIM_004.jpg
56.664	0.642	correct	2back	Block1	2back/STIM_004.jpg
59.546	0.76	correct	2back	Block1	2back/STIM_005.jpg
63.188	1.244	incorrect	2back	Block1	2back/STIM_005.jpg
66.546	0.603	incorrect	2back	Block1	2back/STIM_005.jpg
69.326	1.058	correct	2back	Block1	2back/STIM_006.jpg
72.66	0.725	correct	2back	Block1	2back/STIM_006.jpg
76.24	0.81	correct	2back	Block1	2back/STIM_006.jpg
79.647	1.292	correct	2back	Block1	2back/STIM_007.jpg
83.842	0.704	correct	2back	Block1	2back/STIM_007.jpg
86.628	0.555	incorrect	2back	Block1	2back/STIM_007.jpg
90.222	1.23	correct	2back	Block1	2back/STIM_008.jpg
94.736	0.777	correct	2back	Block1	2back/STIM_008.jpg
97.67	1.126	correct	2back	Block1	2back/STIM_008.jpg
100.983	0.85	correct	2back	Block1	2back/STIM_009.jpg
105.343	1.194	correct	2back	Block1	2back/STIM_009.jpg
109.884	1.037	correct	2back	Block1	2back/STIM_009.jpg
114.076	0.618	incorrect	2back	Block1	2back/STIM_010.jpg
117.02	0.81	correct	2back	Block1	2back/STIM_010.jpg
121.221	0.643	correct	2back	Block1	2back/STIM_010.jpg
125.046	1.156	correct	2back	Block1	2back/STIM_011.jpg
129.599	0.926	correct	2back	Block1	2back/STIM_011.jpg
133.757	0.86	correct	2back	Block1	2back/STIM_011.jpg
138.51	0.499	correct	2back	Block1	2back/STIM_012.jpg
141.834	1.06	correct	2back	Block1	2back/STIM_012.jpg
145.875	1.111	incorrect	2back	Block1	2back/STIM_012.jpg
150.504	0.567	correct	2back	Block1	2back/STIM_013.jpg
153.611	0.851	incorrect	2back	Block1	2back/STIM_013.jpg
157.397	1.133	correct	2back	Block1	2back/STIM_013.jpg
161.804	0.696	correct	2back	Block1	2back/STIM_014.jpg
164.658	0.95	correct	2back	Block1	2back/STIM_014.jpg
168.731	0.634	correct	2back	Block1	2back/STIM_014.jpg
172.652	0.832	incorrect	2back	Block1	2back/STIM_015.jpg
176.452	1.222	correct	2back	Block1	2back/STIM_015.jpg
181.116	0.831	incorrect	2back	Block1	2back/STIM_015.jpg
184.321	0.845	correct	2back	Block1	2back/STIM_016.jpg
188.947	1.254	correct	2back	Block1	2back/STIM_016.jpg
192.545	0.982	correct	2back	Block1	2back/STIM_016.jpg
195.703	0.807	correct	2back	Block1	2back/STIM_017.jpg
198.97	0.798	correct	2back	Block1	2back/STIM_017.jpg
202.324	0.802	correct	2back	Block1	2back/STIM_017.jpg
206.892	1.272	correct	2back	Block1	2back/STIM_018.jpg
211.757	1.226	incorrect	2back	Block1	2back/STIM_018.jpg
216.356	1.13	correct	2back	Block1	2back/STIM_018.jpg
221.515	0.623	correct	2back	Block1	2back/STIM_019.jpg
225.485	0.645	correct	2back	Block1	2back/STIM_019.jpg
228.782	0.713	correct	2back	Block1	2back/STIM_019.jpg
232.531	0.566	correct	2back	Block1	2back/STIM_020.jpg
236.206	0.606	correct	2back	Block1	2back/STIM_020.jpg
239.401	0.912	correct	2back	Block1	2back/STIM_020.jpg
242.813	0.901	correct	2back	Block1	2back/STIM_021.jpg
247.353	0.462	correct	2back	Block1	2back/STIM_021.jpg
251.364	1.006	incorrect	2back	Block1	2back/STIM_021.jpg
256.207	0.931	incorrect	2back	Block1	2back/STIM_022.jpg
259.924	1.158	correct	2back	Block1	2back/STIM_022.jpg
264.212	0.979	correct	2back	Block1	2back/STIM_022.jpg
267.427	0.633	correct	2back	Block1	2back/STIM_023.jpg
270.986	1.081	correct	2back	Block1	2back/STIM_023.jpg
274.413	0.462	correct	2back	Block1	2back/STIM_023.jpg
277.018	0.645	correct	2back	Block1	2back/STIM_024.jpg
280.511	1.07	correct	2back	Block1	2back/STIM_024.jpg
284.172	1.089	correct	2back	Block1	2back/STIM_024.jpg
288.216	0.938	incorrect	2back	Block1	2back/STIM_025.jpg
291.18	1.219	correct	2back	Block1	2back/STIM_025.jpg
296.296	1.161	correct	2back	Block1	2back/STIM_025.jpg
300.758	1.008	correct	2back	Block1	2back/STIM_026.jpg
304.343	0.774	correct	2back	Block1	2back/STIM_026.jpg
308.472	0.56	correct	2back	Block1	2back/STIM_026.jpg
312.511	0.745	correct	2back	Block1	2back/STIM_027.jpg
316.168	0.796	correct	2back	Block1	2back/STIM_027.jpg
319.227	0.896	correct	2back	Block1	2back/STIM_027.jpg
323.722	1.086	correct	2back	Block1	2back/STIM_028.jpg
326.997	0.61	correct	2back	Block1	2back/STIM_028.jpg
330.236	0.62	correct	2back	Block1	2back/STIM_028.jpg
333.983	0.58	correct	2back	Block1	2back/STIM_029.jpg
338.404	0.869	correct	2back	Block1	2back/STIM_029.jpg
343.17	0.477	correct	2back	Block1	2back/STIM_029.jpg
346.494	0.517	correct	2back	Block1	2back/STIM_030.jpg
349.956	0.857	correct	2back	Block1	2back/STIM_030.jpg
353.187	0.593	correct	2back	Block1	2back/STIM_030.jpg
355.923	0.978	correct	2back	Block1	2back/STIM_031.jpg
359.148	1.116	correct	2back	Block1	2back/STIM_031.jpg
364.301	0.937	correct	2back	Block1	2back/STIM_031.jpg
369.044	0.98	incorrect	2back	Block1	2back/STIM_032.jpg
373.324	0.627	correct	2back	Block1	2back/STIM_032.jpg
377.414	0.582	correct	2back	Block1	2back/STIM_032.jpg
381.278	0.554	incorrect	2back	Block1	2back/STIM_033.jpg
385.068	0.798	correct	2back	Block1	2back/STIM_033.jpg
388.208	0.736	correct	2back	Block1	2back/STIM_033.jpg
391.794	0.678	correct	2back	Block1	2back/STIM_034.jpg
394.978	1.167	correct	2back	Block1	2back/STIM_034.jpg
399.353	0.877	correct	2back	Block1	2back/STIM_034.jpg
404.085	1.221	correct	2back	Block1	2back/STIM_035.jpg
409.049	1.028	correct	2back	Block1	2back/STIM_035.jpg
413.662	0.806	correct	2back	Block1	2back/STIM_035.jpg
416.884	1.13	correct	2back	Block1	2back/STIM_036.jpg
421.414	0.935	correct	2back	Block1	2back/STIM_036.jpg
425.625	0.599	incorrect	2back	Block1	2back/STIM_036.jpg
428.464	0.884	correct	2back	Block1	2back/STIM_037.jpg
432.111	0.867	correct	2back	Block1	2back/STIM_037.jpg
435.332	1.113	correct	2back	Block1	2back/STIM_037.jpg
439.672	0.778	correct	2back	Block1	2back/STIM_038.jpg
444.171	0.59	correct	2back	Block1	2back/STIM_038.jpg
448.31	0.94	correct	2back	Block1	2back/STIM_038.jpg
452.214	0.823	correct	2back	Block1	2back/STIM_039.jpg
456.365	0.522	correct	2back	Block1	2back/STIM_039.jpg
460.507	0.571	correct	2back	Block1	2back/STIM_039.jpg
463.405	0.577	correct	0back	Block1	0back/STIM_000.jpg
466.983	0.617	correct	0back	Block1	0back/STIM_000.jpg
469.807	0.471	correct	0back	Block1	0back/STIM_000.jpg
473.71	0.336	correct	0back	Block1	0back/STIM_001.jpg
478.037	0.388	correct	0back	Block1	0back/STIM_001.jpg
481.733	0.554	correct	0back	Block1	0back/STIM_001.jpg
485.13	0.475	correct	0back	Block1	0back/STIM_002.jpg
487.993	0.28	correct	0back	Block1	0back/STIM_002.jpg
491.001	0.446	correct	0back	Block1	0back/STIM_002.jpg
493.786	0.684	correct	0back	Block1	0back/STIM_003.jpg
498.047	0.483	correct	0back	Block1	0back/STIM_003.jpg
501.86	0.376	correct	0back	Block1	0back/STIM_003.jpg
504.814	0.646	correct	0back	Block1	0back/STIM_004.jpg
508.743	0.644	correct	0back	Block1	0back/STIM_004.jpg
512.647	0.618	correct	0back	Block1	0back/STIM_004.jpg
515.614	0.47	correct	0back	Block1	0back/STIM_005.jpg
518.249	0.455	correct	0back	Block1	0back/STIM_005.jpg
522.064	0.696	correct	0back	Block1	0back/STIM_005.jpg
525.674	0.5	correct	0back	Block1	0back/STIM_006.jpg
528.591	0.386	correct	0back	Block1	0back/STIM_006.jpg
532.055	0.395	correct	0back	Block1	0back/STIM_006.jpg
536.463	0.557	correct	0back	Block1	0back/STIM_007.jpg
540.905	0.424	correct	0back	Block1	0back/STIM_007.jpg
544.104	0.739	correct	0back	Block1	0back/STIM_007.jpg
548.071	0.691	correct	0back	Block1	0back/STIM_008.jpg
551.766	0.444	correct	0back	Block1	0back/STIM_008.jpg
555.777	0.509	correct	0back	Block1	0back/STIM_008.jpg
558.917	0.52	correct	0back	Block1	0back/STIM_009.jpg
561.845	0.395	correct	0back	Block1	0back/STIM_009.jpg
565.95	0.784	correct	0back	Block1	0back/STIM_009.jpg
569.261	0.789	correct	0back	Block1	0back/STIM_010.jpg
572.964	0.501	correct	0back	Block1	0back/STIM_010.jpg
576.646	0.629	correct	0back	Block1	0back/STIM_010.jpg
580.67	0.65	correct	0back	Block1	0back/STIM_011.jpg
584.497	0.426	correct	0back	Block1	0back/STIM_011.jpg
588.096	0.438	correct	0back	Block1	0back/STIM_011.jpg
591.977	0.626	correct	0back	Block1	0back/STIM_012.jpg
596.182	0.493	correct	0back	Block1	0back/STIM_012.jpg
599.263	0.668	correct	0back	Block1	0back/STIM_012.jpg
603.45	0.507	correct	0back	Block1	0back/STIM_013.jpg
607.648	0.614	correct	0back	Block1	0back/STIM_013.jpg
611.917	0.714	correct	0back	Block1	0back/STIM_013.jpg
615.254	0.72	correct	0back	Block1	0back/STIM_014.jpg
619.608	0.605	correct	0back	Block1	0back/STIM_014.jpg
622.592	0.646	correct	0back	Block1	0back/STIM_014.jpg
626.153	0.589	correct	0back	Block1	0back/STIM_015.jpg
630.0	0.374	correct	0back	Block1	0back/STIM_015.jpg
632.951	0.645	correct	0back	Block1	0back/STIM_015.jpg
636.279	0.55	correct	0back	Block1	0back/STIM_016.jpg
640.046	0.408	incorrect	0back	Block1	0back/STIM_016.jpg
642.567	0.364	correct	0back	Block1	0back/STIM_016.jpg
645.313	0.556	correct	0back	Block1	0back/STIM_017.jpg
648.166	0.664	correct	0back	Block1	0back/STIM_017.jpg
652.482	0.536	correct	0back	Block1	0back/STIM_017.jpg
656.0	0.343	correct	0back	Block1	0back/STIM_018.jpg
660.329	0.638	correct	0back	Block1	0back/STIM_018.jpg
663.476	0.499	correct	0back	Block1	0back/STIM_018.jpg
667.417	0.734	correct	0back	Block1	0back/STIM_019.jpg
670.789	0.734	correct	0back	Block1	0back/STIM_019.jpg
673.616	0.616	correct	0back	Block1	0back/STIM_019.jpg
678.255	0.863	correct	2back	Block2	2back/STIM_000.jpg
681.571	0.81	incorrect	2back	Block2	2back/STIM_000.jpg
685.913	0.569	correct	2back	Block2	2back/STIM_000.jpg
690.453	0.655	correct	2back	Block2	2back/STIM_001.jpg
694.874	0.75	correct	2back	Block2	2back/STIM_001.jpg
699.28	0.786	correct	2back	Block2	2back/STIM_001.jpg
702.524	0.63	correct	2back	Block2	2back/STIM_002.jpg
706.071	0.812	correct	2back	Block2	2back/STIM_002.jpg
710.835	0.914	correct	2back	Block2	2back/STIM_002.jpg
714.77	0.695	incorrect	2back	Block2	2back/STIM_003.jpg
718.855	0.777	correct	2back	Block2	2back/STIM_003.jpg
723.154	0.863	correct	2back	Block2	2back/STIM_003.jpg
726.329	1.057	correct	2back	Block2	2back/STIM_004.jpg
731.219	0.956	correct	2back	Block2	2back/STIM_004.jpg
735.371	0.54	correct	2back	Block2	2back/STIM_004.jpg
738.797	1.016	correct	2back	Block2	2back/STIM_005.jpg
743.195	0.751	correct	2back	Block2	2back/STIM_005.jpg
747.894	0.631	correct	2back	Block2	2back/STIM_005.jpg
752.284	1.038	correct	2back	Block2	2back/STIM_006.jpg
757.267	0.707	correct	2back	Block2	2back/STIM_006.jpg
760.781	0.702	correct	2back	Block2	2back/STIM_006.jpg
765.305	0.695	correct	2back	Block2	2back/STIM_007.jpg
769.553	0.543	correct	2back	Block2	2back/STIM_007.jpg
773.797	0.883	correct	2back	Block2	2back/STIM_007.jpg
777.624	0.974	correct	2back	Block2	2back/STIM_008.jpg
782.157	0.602	correct	2back	Block2	2back/STIM_008.jpg
785.252	0.598	correct	2back	Block2	2back/STIM_008.jpg
788.829	0.926	correct	2back	Block2	2back/STIM_009.jpg
791.864	0.541	correct	2back	Block2	2back/STIM_009.jpg
796.279	0.5	correct	2back	Block2	2back/STIM_009.jpg
800.711	0.781	incorrect	2back	Block2	2back/STIM_010.jpg
804.479	0.674	correct	2back	Block2	2back/STIM_010.jpg
808.72	0.931	correct	2back	Block2	2back/STIM_010.jpg
813.35	0.581	correct	2back	Block2	2back/STIM_011.jpg
816.817	1.008	correct	2back	Block2	2back/STIM_011.jpg
821.089	0.791	correct	2back	Block2	2back/STIM_011.jpg
825.856	1.072	correct	2back	Block2	2back/STIM_012.jpg
829.687	0.529	incorrect	2back	Block2	2back/STIM_012.jpg
832.473	0.961	correct	2back	Block2	2back/STIM_012.jpg
836.626	0.393	correct	2back	Block2	2back/STIM_013.jpg
839.722	0.541	correct	2back	Block2	2back/STIM_013.jpg
842.644	0.935	correct	2back	Block2	2back/STIM_013.jpg
846.761	1.034	incorrect	2back	Block2	2back/STIM_014.jpg
850.073	0.619	incorrect	2back	Block2	2back/STIM_014.jpg
853.322	0.718	correct	2back	Block2	2back/STIM_014.jpg
857.772	1.068	correct	2back	Block2	2back/STIM_015.jpg
862.806	0.554	correct	2back	Block2	2back/STIM_015.jpg
865.945	0.87	incorrect	2back	Block2	2back/STIM_015.jpg
870.516	0.474	correct	2back	Block2	2back/STIM_016.jpg
873.88	0.835	correct	2back	Block2	2back/STIM_016.jpg
877.701	0.408	correct	2back	Block2	2back/STIM_016.jpg
880.342	0.456	correct	2back	Block2	2back/STIM_017.jpg
883.065	1.054	correct	2back	Block2	2back/STIM_017.jpg
886.604	0.911	correct	2back	Block2	2back/STIM_017.jpg
890.617	0.517	correct	2back	Block2	2back/STIM_018.jpg
893.741	0.744	correct	2back	Block2	2back/STIM_018.jpg
897.948	0.881	correct	2back	Block2	2back/STIM_018.jpg
900.924	0.606	correct	2back	Block2	2back/STIM_019.jpg
905.264	0.688	correct	2back	Block2	2back/STIM_019.jpg
909.86	0.928	correct	2back	Block2	2back/STIM_019.jpg
913.707	0.591	correct	2back	Block2	2back/STIM_020.jpg
917.429	0.569	correct	2back	Block2	2back/STIM_020.jpg
921.351	0.408	correct	2back	Block2	2back/STIM_020.jpg
924.064	0.702	correct	2back	Block2	2back/STIM_021.jpg
928.47	0.898	correct	2back	Block2	2back/STIM_021.jpg
932.06	0.742	correct	2back	Block2	2back/STIM_021.jpg
934.973	1.022	correct	2back	Block2	2back/STIM_022.jpg
938.223	0.941	correct	2back	Block2	2back/STIM_022.jpg
941.963	0.586	correct	2back	Block2	2back/STIM_022.jpg
945.616	0.813	correct	2back	Block2	2back/STIM_023.jpg
949.572	0.465	correct	2back	Block2	2back/STIM_023.jpg
952.893	0.556	correct	2back	Block2	2back/STIM_023.jpg
955.831	0.929	correct	2back	Block2	2back/STIM_024.jpg
959.519	0.815	correct	2back	Block2	2back/STIM_024.jpg
963.244	0.58	correct	2back	Block2	2back/STIM_024.jpg
967.48	0.87	correct	2back	Block2	2back/STIM_025.jpg
970.474	0.76	correct	2back	Block2	2back/STIM_025.jpg
975.156	1.035	incorrect	2back	Block2	2back/STIM_025.jpg
978.721	1.079	correct	2back	Block2	2back/STIM_026.jpg
982.562	0.805	correct	2back	Block2	2back/STIM_026.jpg
986.931	0.826	correct	2back	Block2	2back/STIM_026.jpg
991.583	0.687	correct	2back	Block2	2back/STIM_027.jpg
994.928	0.682	correct	2back	Block2	2back/STIM_027.jpg
998.524	0.795	correct	2back	Block2	2back/STIM_027.jpg
1002.319	0.535	correct	2back	Block2	2back/STIM_028.jpg
1005.686	0.794	correct	2back	Block2	2back/STIM_028.jpg
1009.814	0.611	correct	2back	Block2	2back/STIM_028.jpg
1014.008	0.511	correct	2back	Block2	2back/STIM_029.jpg
1017.031	0.717	correct	2back	Block2	2back/STIM_029.jpg
1020.264	0.586	correct	2back	Block2	2back/STIM_029.jpg
1024.619	0.844	correct	2back	Block2	2back/STIM_030.jpg
1028.25	0.575	correct	2back	Block2	2back/STIM_030.jpg
1032.51	0.841	correct	2back	Block2	2back/STIM_030.jpg
1036.813	1.159	correct	2back	Block2	2back/STIM_031.jpg
1041.881	0.995	correct	2back	Block2	2back/STIM_031.jpg
1045.306	0.465	correct	2back	Block2	2back/STIM_031.jpg
1047.99	0.528	correct	2back	Block2	2back/STIM_032.jpg
1051.195	0.976	incorrect	2back	Block2	2back/STIM_032.jpg
1055.686	0.842	correct	2back	Block2	2back/STIM_032.jpg
1059.632	0.53	correct	2back	Block2	2back/STIM_033.jpg
1062.533	0.739	correct	2back	Block2	2back/STIM_033.jpg
1065.595	0.956	correct	2back	Block2	2back/STIM_033.jpg
1068.556	0.952	correct	2back	Block2	2back/STIM_034.jpg
1071.94	0.535	correct	2back	Block2	2back/STIM_034.jpg
1076.175	0.747	incorrect	2back	Block2	2back/STIM_034.jpg
1079.904	0.853	correct	2back	Block2	2back/STIM_035.jpg
1083.081	0.783	correct	2back	Block2	2back/STIM_035.jpg
1087.689	0.68	correct	2back	Block2	2back/STIM_035.jpg
1091.493	0.6	correct	2back	Block2	2back/STIM_036.jpg
1094.769	0.939	incorrect	2back	Block2	2back/STIM_036.jpg
1097.969	0.744	correct	2back	Block2	2back/STIM_036.jpg
1101.096	0.866	correct	2back	Block2	2back/STIM_037.jpg
1104.893	1.024	correct	2back	Block2	2back/STIM_037.jpg
1109.306	0.676	correct	2back	Block2	2back/STIM_037.jpg
1112.875	0.887	correct	2back	Block2	2back/STIM_038.jpg
1117.411	0.778	correct	2back	Block2	2back/STIM_038.jpg
1120.737	0.948	correct	2back	Block2	2back/STIM_038.jpg
1123.918	0.659	correct	2back	Block2	2back/STIM_039.jpg
1127.126	0.843	correct	2back	Block2	2back/STIM_039.jpg
1131.079	0.923	correct	2back	Block2	2back/STIM_039.jpg
1135.182	0.669	correct	0back	Block2	0back/STIM_000.jpg
1138.776	0.662	correct	0back	Block2	0back/STIM_000.jpg
1141.895	0.563	correct	0back	Block2	0back/STIM_000.jpg
1145.194	0.509	correct	0back	Block2	0back/STIM_001.jpg
1148.592	0.45	correct	0back	Block2	0back/STIM_001.jpg
1153.011	0.45	correct	0back	Block2	0back/STIM_001.jpg
1156.223	0.424	correct	0back	Block2	0back/STIM_002.jpg
1159.046	0.615	correct	0back	Block2	0back/STIM_002.jpg
1163.536	0.326	correct	0back	Block2	0back/STIM_002.jpg
1167.335	0.456	correct	0back	Block2	0back/STIM_003.jpg
1170.119	0.327	correct	0back	Block2	0back/STIM_003.jpg
1173.911	0.549	correct	0back	Block2	0back/STIM_003.jpg
1177.644	0.511	correct	0back	Block2	0back/STIM_004.jpg
1181.861	0.62	correct	0back	Block2	0back/STIM_004.jpg
1185.829	0.5	correct	0back	Block2	0back/STIM_004.jpg
1188.46	0.572	correct	0back	Block2	0back/STIM_005.jpg
1192.187	0.523	correct	0back	Block2	0back/STIM_005.jpg
1195.999	0.578	correct	0back	Block2	0back/STIM_005.jpg
1199.286	0.589	correct	0back	Block2	0back/STIM_006.jpg
1203.45	0.402	correct	0back	Block2	0back/STIM_006.jpg
1207.725	0.452	correct	0back	Block2	0back/STIM_006.jpg
1210.589	0.382	correct	0back	Block2	0back/STIM_007.jpg
1213.166	0.436	correct	0back	Block2	0back/STIM_007.jpg
1216.44	0.799	correct	0back	Block2	0back/STIM_007.jpg
1220.436	0.503	incorrect	0back	Block2	0back/STIM_008.jpg
1223.805	0.582	correct	0back	Block2	0back/STIM_008.jpg
1227.848	0.452	correct	0back	Block2	0back/STIM_008.jpg
1230.42	0.536	correct	0back	Block2	0back/STIM_009.jpg
1234.466	0.657	correct	0back	Block2	0back/STIM_009.jpg
1238.206	0.444	correct	0back	Block2	0back/STIM_009.jpg
1241.286	0.488	correct	0back	Block2	0back/STIM_010.jpg
1244.81	0.629	correct	0back	Block2	0back/STIM_010.jpg
1249.329	0.79	correct	0back	Block2	0back/STIM_010.jpg
1252.625	0.532	correct	0back	Block2	0back/STIM_011.jpg
1256.241	0.522	correct	0back	Block2	0back/STIM_011.jpg
1260.059	0.612	correct	0back	Block2	0back/STIM_011.jpg
1262.998	0.606	correct	0back	Block2	0back/STIM_012.jpg
1266.874	0.48	correct	0back	Block2	0back/STIM_012.jpg
1270.931	0.617	correct	0back	Block2	0back/STIM_012.jpg
1274.363	0.535	correct	0back	Block2	0back/STIM_013.jpg
1278.005	0.704	correct	0back	Block2	0back/STIM_013.jpg
1281.885	0.368	correct	0back	Block2	0back/STIM_013.jpg
1285.077	0.582	correct	0back	Block2	0back/STIM_014.jpg
1289.158	0.349	correct	0back	Block2	0back/STIM_014.jpg
1292.314	0.673	correct	0back	Block2	0back/STIM_014.jpg
1295.088	0.622	correct	0back	Block2	0back/STIM_015.jpg
1298.255	0.564	correct	0back	Block2	0back/STIM_015.jpg
1302.289	0.455	correct	0back	Block2	0back/STIM_015.jpg
1305.429	0.623	correct	0back	Block2	0back/STIM_016.jpg
1309.749	0.484	correct	0back	Block2	0back/STIM_016.jpg
1313.055	0.634	correct	0back	Block2	0back/STIM_016.jpg
1316.891	0.414	correct	0back	Block2	0back/STIM_017.jpg
1320.939	0.376	correct	0back	Block2	0back/STIM_017.jpg
1324.426	0.562	correct	0back	Block2	0back/STIM_017.jpg
1328.89	0.453	correct	0back	Block2	0back/STIM_018.jpg
1331.977	0.72	correct	0back	Block2	0back/STIM_018.jpg
1336.357	0.638	correct	0back	Block2	0back/STIM_018.jpg
1339.208	0.46	correct	0back	Block2	0back/STIM_019.jpg
1342.631	0.64	correct	0back	Block2	0back/STIM_019.jpg
1345.562	0.614	correct	0back	Block2	0back/STIM_019.jpg
1349.644	0.464	correct	2back	Block3	2back/STIM_000.jpg
1352.601	0.662	correct	2back	Block3	2back/STIM_000.jpg
1356.713	0.682	correct	2back	Block3	2back/STIM_000.jpg
1360.142	0.81	incorrect	2back	Block3	2back/STIM_001.jpg
1363.385	0.363	correct	2back	Block3	2back/STIM_001.jpg
1366.402	0.449	correct	2back	Block3	2back/STIM_001.jpg
1369.594	0.466	correct	2back	Block3	2back/STIM_002.jpg
1373.247	0.696	correct	2back	Block3	2back/STIM_002.jpg
1377.47	0.502	correct	2back	Block3	2back/STIM_002.jpg
1380.661	0.453	correct	2back	Block3	2back/STIM_003.jpg
1384.486	0.605	correct	2back	Block3	2back/STIM_003.jpg
1388.621	0.721	correct	2back	Block3	2back/STIM_003.jpg
1392.562	0.47	correct	2back	Block3	2back/STIM_004.jpg
1396.758	0.634	correct	2back	Block3	2back/STIM_004.jpg
1400.932	0.552	correct	2back	Block3	2back/STIM_004.jpg
1403.536	0.71	correct	2back	Block3	2back/STIM_005.jpg
1406.604	0.712	correct	2back	Block3	2back/STIM_005.jpg
1409.542	0.844	correct	2back	Block3	2back/STIM_005.jpg
1414.19	0.548	correct	2back	Block3	2back/STIM_006.jpg
1418.75	0.602	correct	2back	Block3	2back/STIM_006.jpg
1423.11	0.458	correct	2back	Block3	2back/STIM_006.jpg
1426.36	0.994	correct	2back	Block3	2back/STIM_007.jpg
1430.224	0.629	correct	2back	Block3	2back/STIM_007.jpg
1434.537	0.418	correct	2back	Block3	2back/STIM_007.jpg
1438.201	0.55	correct	2back	Block3	2back/STIM_008.jpg
1441.626	0.523	correct	2back	Block3	2back/STIM_008.jpg
1444.813	0.57	correct	2back	Block3	2back/STIM_008.jpg
1449.353	0.901	correct	2back	Block3	2back/STIM_009.jpg
1453.295	0.519	correct	2back	Block3	2back/STIM_009.jpg
1456.216	0.855	correct	2back	Block3	2back/STIM_009.jpg
1460.238	0.542	correct	2back	Block3	2back/STIM_010.jpg
1463.597	0.831	correct	2back	Block3	2back/STIM_010.jpg
1467.631	0.776	correct	2back	Block3	2back/STIM_010.jpg
1472.381	0.645	correct	2back	Block3	2back/STIM_011.jpg
1476.039	0.46	correct	2back	Block3	2back/STIM_011.jpg
1479.736	0.57	correct	2back	Block3	2back/STIM_011.jpg
1483.12	0.677	correct	2back	Block3	2back/STIM_012.jpg
1487.707	0.612	correct	2back	Block3	2back/STIM_012.jpg
1492.193	0.838	correct	2back	Block3	2back/STIM_012.jpg
1495.364	0.59	correct	2back	Block3	2back/STIM_013.jpg
1498.976	0.912	correct	2back	Block3	2back/STIM_013.jpg
1503.415	0.703	correct	2back	Block3	2back/STIM_013.jpg
1507.514	0.514	correct	2back	Block3	2back/STIM_014.jpg
1511.692	0.431	correct	2back	Block3	2back/STIM_014.jpg
1515.335	0.373	correct	2back	Block3	2back/STIM_014.jpg
1519.044	0.672	correct	2back	Block3	2back/STIM_015.jpg
1523.731	0.909	correct	2back	Block3	2back/STIM_015.jpg
1528.403	0.866	correct	2back	Block3	2back/STIM_015.jpg
1532.761	0.585	incorrect	2back	Block3	2back/STIM_016.jpg
1536.927	0.746	correct	2back	Block3	2back/STIM_016.jpg
1540.63	0.46	correct	2back	Block3	2back/STIM_016.jpg
1544.3	0.638	correct	2back	Block3	2back/STIM_017.jpg
1547.282	0.426	correct	2back	Block3	2back/STIM_017.jpg
1550.677	0.479	correct	2back	Block3	2back/STIM_017.jpg
1555.155	0.828	correct	2back	Block3	2back/STIM_018.jpg
1558.519	0.482	correct	2back	Block3	2back/STIM_018.jpg
1561.194	0.766	correct	2back	Block3	2back/STIM_018.jpg
1565.235	0.91	correct	2back	Block3	2back/STIM_019.jpg
1569.573	0.636	correct	2back	Block3	2back/STIM_019.jpg
1572.254	0.827	correct	2back	Block3	2back/STIM_019.jpg
1575.533	0.79	correct	2back	Block3	2back/STIM_020.jpg
1579.191	0.979	correct	2back	Block3	2back/STIM_020.jpg
1583.284	0.622	correct	2back	Block3	2back/STIM_020.jpg
1587.868	0.884	correct	2back	Block3	2back/STIM_021.jpg
1592.325	0.692	correct	2back	Block3	2back/STIM_021.jpg
1595.944	0.696	correct	2back	Block3	2back/STIM_021.jpg
1599.201	0.678	correct	2back	Block3	2back/STIM_022.jpg
1602.003	0.428	correct	2back	Block3	2back/STIM_022.jpg
1606.357	0.862	correct	2back	Block3	2back/STIM_022.jpg
1611.091	0.689	correct	2back	Block3	2back/STIM_023.jpg
1615.254	0.639	correct	2back	Block3	2back/STIM_023.jpg
1618.356	0.819	correct	2back	Block3	2back/STIM_023.jpg
1621.366	0.94	correct	2back	Block3	2back/STIM_024.jpg
1625.746	0.591	correct	2back	Block3	2back/STIM_024.jpg
1629.671	0.74	correct	2back	Block3	2back/STIM_024.jpg
1632.733	0.52	incorrect	2back	Block3	2back/STIM_025.jpg
1635.643	0.7	correct	2back	Block3	2back/STIM_025.jpg
1639.119	0.526	correct	2back	Block3	2back/STIM_025.jpg
1643.271	0.706	correct	2back	Block3	2back/STIM_026.jpg
1646.979	0.745	correct	2back	Block3	2back/STIM_026.jpg
1649.916	0.549	correct	2back	Block3	2back/STIM_026.jpg
1654.192	0.497	correct	2back	Block3	2back/STIM_027.jpg
1658.171	0.663	correct	2back	Block3	2back/STIM_027.jpg
1662.415	0.397	correct	2back	Block3	2back/STIM_027.jpg
1666.634	0.618	correct	2back	Block3	2back/STIM_028.jpg
1669.949	0.706	correct	2back	Block3	2back/STIM_028.jpg
1673.196	0.694	correct	2back	Block3	2back/STIM_028.jpg
1676.654	0.608	correct	2back	Block3	2back/STIM_029.jpg
1681.322	0.51	correct	2back	Block3	2back/STIM_029.jpg
1684.059	0.522	correct	2back	Block3	2back/STIM_029.jpg
1687.691	0.588	correct	2back	Block3	2back/STIM_030.jpg
1692.032	0.602	correct	2back	Block3	2back/STIM_030.jpg
1695.842	0.817	correct	2back	Block3	2back/STIM_030.jpg
1699.942	0.923	correct	2back	Block3	2back/STIM_031.jpg
1703.879	0.525	correct	2back	Block3	2back/STIM_031.jpg
1707.801	0.416	correct	2back	Block3	2back/STIM_031.jpg
1711.326	0.416	correct	2back	Block3	2back/STIM_032.jpg
1714.499	0.794	correct	2back	Block3	2back/STIM_032.jpg
1717.834	0.724	correct	2back	Block3	2back/STIM_032.jpg
1720.675	0.52	correct	2back	Block3	2back/STIM_033.jpg
1724.463	0.801	correct	2back	Block3	2back/STIM_033.jpg
1728.497	0.48	correct	2back	Block3	2back/STIM_033.jpg
1732.469	0.383	correct	2back	Block3	2back/STIM_034.jpg
1735.117	0.737	correct	2back	Block3	2back/STIM_034.jpg
1738.423	0.779	correct	2back	Block3	2back/STIM_034.jpg
1741.774	0.766	correct	2back	Block3	2back/STIM_035.jpg
1746.383	0.736	correct	2back	Block3	2back/STIM_035.jpg
1749.565	0.489	correct	2back	Block3	2back/STIM_035.jpg
1753.526	0.563	correct	2back	Block3	2back/STIM_036.jpg
1757.559	0.752	correct	2back	Block3	2back/STIM_036.jpg
1761.967	0.886	correct	2back	Block3	2back/STIM_036.jpg
1765.346	0.656	correct	2back	Block3	2back/STIM_037.jpg
1768.818	0.393	correct	2back	Block3	2back/STIM_037.jpg
1771.587	0.622	correct	2back	Block3	2back/STIM_037.jpg
1774.418	0.504	correct	2back	Block3	2back/STIM_038.jpg
1777.563	0.508	correct	2back	Block3	2back/STIM_038.jpg
1781.679	0.917	correct	2back	Block3	2back/STIM_038.jpg
1786.571	0.743	correct	2back	Block3	2back/STIM_039.jpg
1790.839	0.839	correct	2back	Block3	2back/STIM_039.jpg
1794.878	0.82	correct	2back	Block3	2back/STIM_039.jpg
1798.436	0.621	correct	0back	Block3	0back/STIM_000.jpg
1802.548	0.498	correct	0back	Block3	0back/STIM_000.jpg
1806.381	0.44	correct	0back	Block3	0back/STIM_000.jpg
1809.658	0.44	correct	0back	Block3	0back/STIM_001.jpg
1813.337	0.494	correct	0back	Block3	0back/STIM_001.jpg
1816.277	0.334	correct	0back	Block3	0back/STIM_001.jpg
1819.708	0.432	correct	0back	Block3	0back/STIM_002.jpg
1822.372	0.531	correct	0back	Block3	0back/STIM_002.jpg
1826.694	0.701	correct	0back	Block3	0back/STIM_002.jpg
1829.885	0.45	correct	0back	Block3	0back/STIM_003.jpg
1832.728	0.556	correct	0back	Block3	0back/STIM_003.jpg
1837.114	0.772	correct	0back	Block3	0back/STIM_003.jpg
1840.116	0.528	correct	0back	Block3	0back/STIM_004.jpg
1844.242	0.475	correct	0back	Block3	0back/STIM_004.jpg
1848.665	0.631	correct	0back	Block3	0back/STIM_004.jpg
1851.938	0.676	incorrect	0back	Block3	0back/STIM_005.jpg
1855.485	0.622	correct	0back	Block3	0back/STIM_005.jpg
1858.811	0.551	correct	0back	Block3	0back/STIM_005.jpg
1861.966	0.663	correct	0back	Block3	0back/STIM_006.jpg
1865.446	0.616	correct	0back	Block3	0back/STIM_006.jpg
1868.291	0.486	correct	0back	Block3	0back/STIM_006.jpg
1870.916	0.454	correct	0back	Block3	0back/STIM_007.jpg
1873.536	0.499	correct	0back	Block3	0back/STIM_007.jpg
1877.342	0.714	correct	0back	Block3	0back/STIM_007.jpg
1881.957	0.554	correct	0back	Block3	0back/STIM_008.jpg
1885.652	0.74	correct	0back	Block3	0back/STIM_008.jpg
1890.285	0.598	correct	0back	Block3	0back/STIM_008.jpg
1893.256	0.606	correct	0back	Block3	0back/STIM_009.jpg
1896.143	0.737	correct	0back	Block3	0back/STIM_009.jpg
1899.018	0.671	correct	0back	Block3	0back/STIM_009.jpg
1901.853	0.408	correct	0back	Block3	0back/STIM_010.jpg
1905.915	0.471	correct	0back	Block3	0back/STIM_010.jpg
1908.672	0.486	correct	0back	Block3	0back/STIM_010.jpg
1913.286	0.658	correct	0back	Block3	0back/STIM_011.jpg
1916.332	0.388	correct	0back	Block3	0back/STIM_011.jpg
1919.932	0.763	incorrect	0back	Block3	0back/STIM_011.jpg
1924.399	0.52	correct	0back	Block3	0back/STIM_012.jpg
1927.716	0.481	correct	0back	Block3	0back/STIM_012.jpg
1932.01	0.425	correct	0back	Block3	0back/STIM_012.jpg
1935.038	0.59	correct	0back	Block3	0back/STIM_013.jpg
1938.062	0.557	correct	0back	Block3	0back/STIM_013.jpg
1941.608	0.358	correct	0back	Block3	0back/STIM_013.jpg
1945.822	0.409	correct	0back	Block3	0back/STIM_014.jpg
1949.881	0.494	correct	0back	Block3	0back/STIM_014.jpg
1952.797	0.408	correct	0back	Block3	0back/STIM_014.jpg
1955.699	0.404	correct	0back	Block3	0back/STIM_015.jpg
1958.788	0.649	correct	0back	Block3	0back/STIM_015.jpg
1963.208	0.444	correct	0back	Block3	0back/STIM_015.jpg
1966.788	0.582	correct	0back	Block3	0back/STIM_016.jpg
1969.999	0.5	correct	0back	Block3	0back/STIM_016.jpg
1973.638	0.612	correct	0back	Block3	0back/STIM_016.jpg
1978.029	0.738	correct	0back	Block3	0back/STIM_017.jpg
1980.806	0.632	correct	0back	Block3	0back/STIM_017.jpg
1985.136	0.623	correct	0back	Block3	0back/STIM_017.jpg
1989.436	0.557	correct	0back	Block3	0back/STIM_018.jpg
1993.303	0.648	correct	0back	Block3	0back/STIM_018.jpg
1997.448	0.664	correct	0back	Block3	0back/STIM_018.jpg
2001.979	0.66	correct	0back	Block3	0back/STIM_019.jpg
2006.475	0.384	correct	0back	Block3	0back/STIM_019.jpg
2010.048	0.481	correct	0back	Block3	0back/STIM_019.jpg
2012.822	0.866	correct	2back	Block4	2back/STIM_000.jpg
2016.195	0.772	correct	2back	Block4	2back/STIM_000.jpg
2020.473	0.87	correct	2back	Block4	2back/STIM_000.jpg
2025.12	0.675	correct	2back	Block4	2back/STIM_001.jpg
2027.95	0.857	correct	2back	Block4	2back/STIM_001.jpg
2032.388	0.498	correct	2back	Block4	2back/STIM_001.jpg
2036.73	0.768	correct	2back	Block4	2back/STIM_002.jpg
2041.049	0.892	correct	2back	Block4	2back/STIM_002.jpg
2045.832	0.646	correct	2back	Block4	2back/STIM_002.jpg
2049.098	0.744	correct	2back	Block4	2back/STIM_003.jpg
2052.927	0.464	correct	2back	Block4	2back/STIM_003.jpg
2057.196	0.587	correct	2back	Block4	2back/STIM_003.jpg
2060.927	0.694	correct	2back	Block4	2back/STIM_004.jpg
2065.058	0.563	correct	2back	Block4	2back/STIM_004.jpg
2068.11	0.394	correct	2back	Block4	2back/STIM_004.jpg
2072.491	0.892	correct	2back	Block4	2back/STIM_005.jpg
2076.582	0.561	correct	2back	Block4	2back/STIM_005.jpg
2079.463	0.764	correct	2back	Block4	2back/STIM_005.jpg
2083.012	0.808	correct	2back	Block4	2back/STIM_006.jpg
2086.77	0.379	correct	2back	Block4	2back/STIM_006.jpg
2089.918	0.877	correct	2back	Block4	2back/STIM_006.jpg
2093.109	0.573	correct	2back	Block4	2back/STIM_007.jpg
2097.505	0.443	correct	2back	Block4	2back/STIM_007.jpg
2100.533	0.57	correct	2back	Block4	2back/STIM_007.jpg
2104.654	0.653	correct	2back	Block4	2back/STIM_008.jpg
2108.699	0.667	correct	2back	Block4	2back/STIM_008.jpg
2113.249	0.852	correct	2back	Block4	2back/STIM_008.jpg
2117.871	0.864	correct	2back	Block4	2back/STIM_009.jpg
2122.683	0.44	correct	2back	Block4	2back/STIM_009.jpg
2125.935	0.838	correct	2back	Block4	2back/STIM_009.jpg
2130.27	0.49	correct	2back	Block4	2back/STIM_010.jpg
2134.277	0.85	correct	2back	Block4	2back/STIM_010.jpg
2138.872	0.408	correct	2back	Block4	2back/STIM_010.jpg
2141.378	0.682	correct	2back	Block4	2back/STIM_011.jpg
2145.689	0.468	correct	2back	Block4	2back/STIM_011.jpg
2149.09	0.357	correct	2back	Block4	2back/STIM_011.jpg
2153.472	0.864	correct	2back	Block4	2back/STIM_012.jpg
2158.083	0.746	correct	2back	Block4	2back/STIM_012.jpg
2162.314	0.574	correct	2back	Block4	2back/STIM_012.jpg
2166.318	0.817	correct	2back	Block4	2back/STIM_013.jpg
2171.221	0.68	correct	2back	Block4	2back/STIM_013.jpg
2174.081	0.752	correct	2back	Block4	2back/STIM_013.jpg
2178.222	0.443	correct	2back	Block4	2back/STIM_014.jpg
2182.611	0.544	correct	2back	Block4	2back/STIM_014.jpg
2186.986	0.869	correct	2back	Block4	2back/STIM_014.jpg
2190.065	0.726	correct	2back	Block4	2back/STIM_015.jpg
2193.791	0.453	correct	2back	Block4	2back/STIM_015.jpg
2196.56	0.919	correct	2back	Block4	2back/STIM_015.jpg
2201.068	0.703	correct	2back	Block4	2back/STIM_016.jpg
2205.403	0.73	correct	2back	Block4	2back/STIM_016.jpg
2209.316	0.815	correct	2back	Block4	2back/STIM_016.jpg
2212.966	0.824	correct	2back	Block4	2back/STIM_017.jpg
2217.213	0.732	correct	2back	Block4	2back/STIM_017.jpg
2221.082	0.837	correct	2back	Block4	2back/STIM_017.jpg
2224.272	0.78	correct	2back	Block4	2back/STIM_018.jpg
2228.681	0.806	correct	2back	Block4	2back/STIM_018.jpg
2232.307	0.893	correct	2back	Block4	2back/STIM_018.jpg
2236.835	0.91	correct	2back	Block4	2back/STIM_019.jpg
2240.722	0.656	correct	2back	Block4	2back/STIM_019.jpg
2244.658	0.474	correct	2back	Block4	2back/STIM_019.jpg
2248.253	0.574	correct	2back	Block4	2back/STIM_020.jpg
2252.8	0.748	correct	2back	Block4	2back/STIM_020.jpg
2256.244	0.483	correct	2back	Block4	2back/STIM_020.jpg
2258.911	0.721	correct	2back	Block4	2back/STIM_021.jpg
2263.194	0.457	correct	2back	Block4	2back/STIM_021.jpg
2267.522	0.428	correct	2back	Block4	2back/STIM_021.jpg
2270.554	0.547	correct	2back	Block4	2back/STIM_022.jpg
2273.52	0.635	correct	2back	Block4	2back/STIM_022.jpg
2277.333	0.598	correct	2back	Block4	2back/STIM_022.jpg
2280.681	0.9	correct	2back	Block4	2back/STIM_023.jpg
2284.173	0.521	correct	2back	Block4	2back/STIM_023.jpg
2287.699	0.539	correct	2back	Block4	2back/STIM_023.jpg
2291.282	0.825	correct	2back	Block4	2back/STIM_024.jpg
2295.407	0.636	correct	2back	Block4	2back/STIM_024.jpg
2298.396	0.637	correct	2back	Block4	2back/STIM_024.jpg
2301.513	0.637	correct	2back	Block4	2back/STIM_025.jpg
2304.748	0.505	correct	2back	Block4	2back/STIM_025.jpg
2309.106	0.646	correct	2back	Block4	2back/STIM_025.jpg
2312.286	0.478	correct	2back	Block4	2back/STIM_026.jpg
2315.227	0.825	correct	2back	Block4	2back/STIM_026.jpg
2319.428	0.75	correct	2back	Block4	2back/STIM_026.jpg
2323.136	0.483	correct	2back	Block4	2back/STIM_027.jpg
2326.215	0.708	correct	2back	Block4	2back/STIM_027.jpg
2329.849	0.916	correct	2back	Block4	2back/STIM_027.jpg
2334.031	0.86	correct	2back	Block4	2back/STIM_028.jpg
2337.046	0.538	correct	2back	Block4	2back/STIM_028.jpg
2339.706	0.824	incorrect	2back	Block4	2back/STIM_028.jpg
2342.928	0.647	correct	2back	Block4	2back/STIM_029.jpg
2346.456	0.866	correct	2back	Block4	2back/STIM_029.jpg
2349.984	0.529	correct	2back	Block4	2back/STIM_029.jpg
2353.253	0.772	incorrect	2back	Block4	2back/STIM_030.jpg
2357.894	0.386	correct	2back	Block4	2back/STIM_030.jpg
2361.949	0.474	correct	2back	Block4	2back/STIM_030.jpg
2364.926	0.39	correct	2back	Block4	2back/STIM_031.jpg
2368.336	0.793	correct	2back	Block4	2back/STIM_031.jpg
2371.828	0.376	correct	2back	Block4	2back/STIM_031.jpg
2375.092	0.784	correct	2back	Block4	2back/STIM_032.jpg
2378.518	0.435	correct	2back	Block4	2back/STIM_032.jpg
2382.827	0.411	correct	2back	Block4	2back/STIM_032.jpg
2387.192	0.438	correct	2back	Block4	2back/STIM_033.jpg
2389.944	0.688	correct	2back	Block4	2back/STIM_033.jpg
2392.873	0.564	correct	2back	Block4	2back/STIM_033.jpg
2395.704	0.4	correct	2back	Block4	2back/STIM_034.jpg
2399.159	0.762	correct	2back	Block4	2back/STIM_034.jpg
2402.684	0.439	correct	2back	Block4	2back/STIM_034.jpg
2405.962	0.557	incorrect	2back	Block4	2back/STIM_035.jpg
2409.136	0.599	correct	2back	Block4	2back/STIM_035.jpg
2413.162	0.753	correct	2back	Block4	2back/STIM_035.jpg
2417.631	0.649	correct	2back	Block4	2back/STIM_036.jpg
2421.813	0.723	correct	2back	Block4	2back/STIM_036.jpg
2426.368	0.5	correct	2back	Block4	2back/STIM_036.jpg
2429.964	0.81	correct	2back	Block4	2back/STIM_037.jpg
2433.042	0.634	correct	2back	Block4	2back/STIM_037.jpg
2436.686	0.582	correct	2back	Block4	2back/STIM_037.jpg
2439.548	0.392	correct	2back	Block4	2back/STIM_038.jpg
2442.453	0.618	correct	2back	Block4	2back/STIM_038.jpg
2446.752	0.743	correct	2back	Block4	2back/STIM_038.jpg
2450.665	0.515	correct	2back	Block4	2back/STIM_039.jpg
2454.633	0.692	correct	2back	Block4	2back/STIM_039.jpg
2458.747	0.787	correct	2back	Block4	2back/STIM_039.jpg
2463.592	0.586	correct	0back	Block4	0back/STIM_000.jpg
2468.074	0.614	correct	0back	Block4	0back/STIM_000.jpg
2472.235	0.699	correct	0back	Block4	0back/STIM_000.jpg
2476.754	0.593	correct	0back	Block4	0back/STIM_001.jpg
2480.549	0.62	correct	0back	Block4	0back/STIM_001.jpg
2483.697	0.577	correct	0back	Block4	0back/STIM_001.jpg
2486.965	0.664	correct	0back	Block4	0back/STIM_002.jpg
2489.961	0.55	incorrect	0back	Block4	0back/STIM_002.jpg
2493.434	0.637	correct	0back	Block4	0back/STIM_002.jpg
2497.38	0.51	correct	0back	Block4	0back/STIM_003.jpg
2501.587	0.424	correct	0back	Block4	0back/STIM_003.jpg
2504.788	0.552	correct	0back	Block4	0back/STIM_003.jpg
2508.859	0.379	correct	0back	Block4	0back/STIM_004.jpg
2511.495	0.601	correct	0back	Block4	0back/STIM_004.jpg
2516.028	0.623	correct	0back	Block4	0back/STIM_004.jpg
2520.235	0.352	correct	0back	Block4	0back/STIM_005.jpg
2522.813	0.509	incorrect	0back	Block4	0back/STIM_005.jpg
2526.609	0.699	correct	0back	Block4	0back/STIM_005.jpg
2530.373	0.646	correct	0back	Block4	0back/STIM_006.jpg
2534.395	0.574	incorrect	0back	Block4	0back/STIM_006.jpg
2538.819	0.65	correct	0back	Block4	0back/STIM_006.jpg
2541.528	0.464	correct	0back	Block4	0back/STIM_007.jpg
2544.64	0.808	correct	0back	Block4	0back/STIM_007.jpg
2548.932	0.518	correct	0back	Block4	0back/STIM_007.jpg
2552.531	0.762	correct	0back	Block4	0back/STIM_008.jpg
2555.926	0.708	correct	0back	Block4	0back/STIM_008.jpg
2560.151	0.731	correct	0back	Block4	0back/STIM_008.jpg
2564.372	0.554	correct	0back	Block4	0back/STIM_009.jpg
2567.513	0.686	correct	0back	Block4	0back/STIM_009.jpg
2570.561	0.585	correct	0back	Block4	0back/STIM_009.jpg
2575.036	0.382	correct	0back	Block4	0back/STIM_010.jpg
2577.848	0.486	correct	0back	Block4	0back/STIM_010.jpg
2582.258	0.368	correct	0back	Block4	0back/STIM_010.jpg
2585.355	0.535	correct	0back	Block4	0back/STIM_011.jpg
2588.85	0.614	correct	0back	Block4	0back/STIM_011.jpg
2591.663	0.413	correct	0back	Block4	0back/STIM_011.jpg
2594.577	0.729	correct	0back	Block4	0back/STIM_012.jpg
2597.888	0.625	correct	0back	Block4	0back/STIM_012.jpg
2601.607	0.386	incorrect	0back	Block4	0back/STIM_012.jpg
2605.172	0.44	correct	0back	Block4	0back/STIM_013.jpg
2607.636	0.682	correct	0back	Block4	0back/STIM_013.jpg
2612.189	0.563	correct	0back	Block4	0back/STIM_013.jpg
2616.197	0.533	correct	0back	Block4	0back/STIM_014.jpg
2619.121	0.413	correct	0back	Block4	0back/STIM_014.jpg
2622.508	0.502	correct	0back	Block4	0back/STIM_014.jpg
2625.79	0.517	correct	0back	Block4	0back/STIM_015.jpg
2629.403	0.701	correct	0back	Block4	0back/STIM_015.jpg
2633.096	0.744	correct	0back	Block4	0back/STIM_015.jpg
2637.366	0.749	correct	0back	Block4	0back/STIM_016.jpg
2641.306	0.542	correct	0back	Block4	0back/STIM_016.jpg
2645.286	0.581	correct	0back	Block4	0back/STIM_016.jpg
2648.816	0.589	correct	0back	Block4	0back/STIM_017.jpg
2652.17	0.777	correct	0back	Block4	0back/STIM_017.jpg
2655.217	0.542	correct	0back	Block4	0back/STIM_017.jpg
2657.909	0.459	correct	0back	Block4	0back/STIM_018.jpg
2661.954	0.57	correct	0back	Block4	0back/STIM_018.jpg
2666.595	0.523	correct	0back	Block4	0back/STIM_018.jpg
2670.725	0.636	correct	0back	Block4	0back/STIM_019.jpg
2674.166	0.461	correct	0back	Block4	0back/STIM_019.jpg
2677.973	0.665	correct	0back	Block4	0back/STIM_019.jpg
