onset	duration	response_time_ms	trial_type	learning_stage	stimulus	response_port
0.0	0.868	868.3	2back	Block1	2back/STIM_000.jpg	99
4.394	1.17	1169.7	2back	Block1	2back/STIM_000.jpg	100
9.386	1.076	1075.9	2back	Block1	2back/STIM_000.jpg	99
13.503	1.091	1090.9	2back	Block1	2back/STIM_001.jpg	100
17.095	0.853	853.3	2back	Block1	2back/STIM_001.jpg	100
20.889	0.507	507.4	2back	Block1	2back/STIM_001.jpg	100
24.452	1.145	1145.2	2back	Block1	2back/STIM_002.jpg	100
27.807	0.84	839.5	2back	Block1	2back/STIM_002.jpg	100
32.112	1.115	1114.7	2back	Block1	2back/STIM_002.jpg	99
36.853	1.098	1097.9	2back	Block1	2back/STIM_003.jpg	99
40.262	0.988	987.5	2back	Block1	2back/STIM_003.jpg	100
44.525	0.783	782.6	2back	Block1	2back/STIM_003.jpg	100
48.199	1.193	1192.6	2back	Block1	2back/STIM_004.jpg	100
53.525	1.005	1004.7	2back	Block1	2back/STIM_004.jpg	99
56.664	0.642	642.5	2back	Block1	2back/STIM_004.jpg	100
59.546	0.76	760.0	2back	Block1	2back/STIM_005.jpg	99
63.188	1.244	1244.2	2back	Block1	2back/STIM_005.jpg	99
66.546	0.603	602.7	2back	Block1	2back/STIM_005.jpg	100
69.326	1.058	1057.7	2back	Block1	2back/STIM_006.jpg	99
72.66	0.725	725.2	2back	Block1	2back/STIM_006.jpg	99
76.24	0.81	809.5	2back	Block1	2back/STIM_006.jpg	99
79.647	1.292	1291.6	2back	Block1	2back/STIM_007.jpg	100
83.842	0.704	703.9	2back	Block1	2back/STIM_007.jpg	99
86.628	0.555	554.6	2back	Block1	2back/STIM_007.jpg	99
90.222	1.23	1229.5	2back	Block1	2back/STIM_008.jpg	99
94.736	0.777	776.6	2back	Block1	2back/STIM_008.jpg	99
97.67	1.126	1125.8	2back	Block1	2back/STIM_008.jpg	99
100.983	0.85	849.9	2back	Block1	2back/STIM_009.jpg	99
105.343	1.194	1193.7	2back	Block1	2back/STIM_009.jpg	100
109.884	1.037	1036.6	2back	Block1	2back/STIM_009.jpg	99
114.076	0.618	617.5	2back	Block1	2back/STIM_010.jpg	100
117.02	0.81	809.7	2back	Block1	2back/STIM_010.jpg	99
121.221	0.643	643.3	2back	Block1	2back/STIM_010.jpg	99
125.046	1.156	1155.6	2back	Block1	2back/STIM_011.jpg	100
129.599	0.926	925.7	2back	Block1	2back/STIM_011.jpg	100
133.757	0.86	859.8	2back	Block1	2back/STIM_011.jpg	99
138.51	0.499	499.3	2back	Block1	2back/STIM_012.jpg	99
141.834	1.06	1060.2	2back	Block1	2back/STIM_012.jpg	99
145.875	1.111	1110.8	2back	Block1	2back/STIM_012.jpg	100
150.504	0.567	566.6	2back	Block1	2back/STIM_013.jpg	99
153.611	0.851	850.7	2back	Block1	2back/STIM_013.jpg	99
157.397	1.133	1132.6	2back	Block1	2back/STIM_013.jpg	99
161.804	0.696	696.0	2back	Block1	2back/STIM_014.jpg	100
164.658	0.95	950.1	2back	Block1	2back/STIM_014.jpg	100
168.731	0.634	634.2	2back	Block1	2back/STIM_014.jpg	100
172.652	0.832	832.4	2back	Block1	2back/STIM_015.jpg	99
176.452	1.222	1221.7	2back	Block1	2back/STIM_015.jpg	100
181.116	0.831	830.9	2back	Block1	2back/STIM_015.jpg	100
184.321	0.845	845.1	2back	Block1	2back/STIM_016.jpg	99
188.947	1.254	1253.6	2back	Block1	2back/STIM_016.jpg	100
192.545	0.982	981.8	2back	Block1	2back/STIM_016.jpg	99
195.703	0.807	807.0	2back	Block1	2back/STIM_017.jpg	99
198.97	0.798	798.5	2back	Block1	2back/STIM_017.jpg	100
202.324	0.802	801.6	2back	Block1	2back/STIM_017.jpg	100
206.892	1.272	1271.9	2back	Block1	2back/STIM_018.jpg	99
211.757	1.226	1225.7	2back	Block1	2back/STIM_018.jpg	100
216.356	1.13	1130.2	2back	Block1	2back/STIM_018.jpg	100
221.515	0.623	622.7	2back	Block1	2back/STIM_019.jpg	99
225.485	0.645	645.1	2back	Block1	2back/STIM_019.jpg	99
228.782	0.713	713.3	2back	Block1	2back/STIM_019.jpg	99
232.531	0.566	565.9	2back	Block1	2back/STIM_020.jpg	99
236.206	0.606	606.4	2back	Block1	2back/STIM_020.jpg	100
239.401	0.912	911.5	2back	Block1	2back/STIM_020.jpg	100
242.813	0.901	900.7	2back	Block1	2back/STIM_021.jpg	100
247.353	0.462	461.7	2back	Block1	2back/STIM_021.jpg	100
251.364	1.006	1005.6	2back	Block1	2back/STIM_021.jpg	100
256.207	0.931	931.4	2back	Block1	2back/STIM_022.jpg	100
259.924	1.158	1157.9	2back	Block1	2back/STIM_022.jpg	99
264.212	0.979	978.7	2back	Block1	2back/STIM_022.jpg	100
267.427	0.633	633.1	2back	Block1	2back/STIM_023.jpg	100
270.986	1.081	1081.2	2back	Block1	2back/STIM_023.jpg	99
274.413	0.462	461.8	2back	Block1	2back/STIM_023.jpg	99
277.018	0.645	644.9	2back	Block1	2back/STIM_024.jpg	99
280.511	1.07	1069.5	2back	Block1	2back/STIM_024.jpg	100
284.172	1.089	1089.2	2back	Block1	2back/STIM_024.jpg	100
288.216	0.938	937.5	2back	Block1	2back/STIM_025.jpg	100
291.18	1.219	1219.1	2back	Block1	2back/STIM_025.jpg	100
296.296	1.161	1160.7	2back	Block1	2back/STIM_025.jpg	100
300.758	1.008	1008.4	2back	Block1	2back/STIM_026.jpg	100
304.343	0.774	774.1	2back	Block1	2back/STIM_026.jpg	99
308.472	0.56	559.9	2back	Block1	2back/STIM_026.jpg	100
312.511	0.745	745.0	2back	Block1	2back/STIM_027.jpg	99
316.168	0.796	796.3	2back	Block1	2back/STIM_027.jpg	100
319.227	0.896	895.6	2back	Block1	2back/STIM_027.jpg	100
323.722	1.086	1086.0	2back	Block1	2back/STIM_028.jpg	100
326.997	0.61	610.5	2back	Block1	2back/STIM_028.jpg	99
330.236	0.62	619.8	2back	Block1	2back/STIM_028.jpg	100
333.983	0.58	580.0	2back	Block1	2back/STIM_029.jpg	99
338.404	0.869	869.1	2back	Block1	2back/STIM_029.jpg	99
343.17	0.477	477.1	2back	Block1	2back/STIM_029.jpg	100
346.494	0.517	517.3	2back	Block1	2back/STIM_030.jpg	99
349.956	0.857	856.8	2back	Block1	2back/STIM_030.jpg	100
353.187	0.593	592.8	2back	Block1	2back/STIM_030.jpg	100
355.923	0.978	978.3	2back	Block1	2back/STIM_031.jpg	100
359.148	1.116	1115.5	2back	Block1	2back/STIM_031.jpg	100
364.301	0.937	936.7	2back	Block1	2back/STIM_031.jpg	100
369.044	0.98	979.6	2back	Block1	2back/STIM_032.jpg	99
373.324	0.627	627.1	2back	Block1	2back/STIM_032.jpg	99
377.414	0.582	581.9	2back	Block1	2back/STIM_032.jpg	99
381.278	0.554	554.0	2back	Block1	2back/STIM_033.jpg	99
385.068	0.798	797.6	2back	Block1	2back/STIM_033.jpg	99
388.208	0.736	735.9	2back	Block1	2back/STIM_033.jpg	99
391.794	0.678	677.7	2back	Block1	2back/STIM_034.jpg	99
394.978	1.167	1167.2	2back	Block1	2back/STIM_034.jpg	99
399.353	0.877	877.4	2back	Block1	2back/STIM_034.jpg	99
404.085	1.221	1220.7	2back	Block1	2back/STIM_035.jpg	100
409.049	1.028	1028.5	2back	Block1	2back/STIM_035.jpg	99
413.662	0.806	806.3	2back	Block1	2back/STIM_035.jpg	100
416.884	1.13	1130.0	2back	Block1	2back/STIM_036.jpg	100
421.414	0.935	935.1	2back	Block1	2back/STIM_036.jpg	99
425.625	0.599	599.2	2back	Block1	2back/STIM_036.jpg	100
428.464	0.884	883.5	2back	Block1	2back/STIM_037.jpg	100
432.111	0.867	866.8	2back	Block1	2back/STIM_037.jpg	100
435.332	1.113	1112.7	2back	Block1	2back/STIM_037.jpg	99
439.672	0.778	778.0	2back	Block1	2back/STIM_038.jpg	100
444.171	0.59	590.4	2back	Block1	2back/STIM_038.jpg	99
448.31	0.94	939.6	2back	Block1	2back/STIM_038.jpg	99
452.214	0.823	822.7	2back	Block1	2back/STIM_039.jpg	99
456.365	0.522	522.0	2back	Block1	2back/STIM_039.jpg	100
460.507	0.571	570.6	2back	Block1	2back/STIM_039.jpg	100
463.405	0.577	576.8	0back	Block1	0back/STIM_000.jpg	100
466.983	0.617	616.7	0back	Block1	0back/STIM_000.jpg	99
469.807	0.471	470.6	0back	Block1	0back/STIM_000.jpg	99
473.71	0.336	336.5	0back	Block1	0back/STIM_001.jpg	100
478.037	0.388	387.9	0back	Block1	0back/STIM_001.jpg	100
481.733	0.554	553.9	0back	Block1	0back/STIM_001.jpg	99
485.13	0.475	475.3	0back	Block1	0back/STIM_002.jpg	99
487.993	0.28	280.0	0back	Block1	0back/STIM_002.jpg	99
491.001	0.446	446.1	0back	Block1	0back/STIM_002.jpg	100
493.786	0.684	683.7	0back	Block1	0back/STIM_003.jpg	100
498.047	0.483	483.3	0back	Block1	0back/STIM_003.jpg	100
501.86	0.376	375.7	0back	Block1	0back/STIM_003.jpg	100
504.814	0.646	646.1	0back	Block1	0back/STIM_004.jpg	99
508.743	0.644	644.5	0back	Block1	0back/STIM_004.jpg	100
512.647	0.618	617.9	0back	Block1	0back/STIM_004.jpg	99
515.614	0.47	470.2	0back	Block1	0back/STIM_005.jpg	99
518.249	0.455	455.2	0back	Block1	0back/STIM_005.jpg	99
522.064	0.696	696.4	0back	Block1	0back/STIM_005.jpg	100
525.674	0.5	499.9	0back	Block1	0back/STIM_006.jpg	99
528.591	0.386	385.7	0back	Block1	0back/STIM_006.jpg	100
532.055	0.395	394.9	0back	Block1	0back/STIM_006.jpg	99
536.463	0.557	557.3	0back	Block1	0back/STIM_007.jpg	100
540.905	0.424	424.1	0back	Block1	0back/STIM_007.jpg	100
544.104	0.739	739.1	0back	Block1	0back/STIM_007.jpg	100
548.071	0.691	691.3	0back	Block1	0back/STIM_008.jpg	100
551.766	0.444	444.2	0back	Block1	0back/STIM_008.jpg	100
555.777	0.509	508.6	0back	Block1	0back/STIM_008.jpg	100
558.917	0.52	519.6	0back	Block1	0back/STIM_009.jpg	99
561.845	0.395	395.4	0back	Block1	0back/STIM_009.jpg	99
565.95	0.784	783.7	0back	Block1	0back/STIM_009.jpg	100
569.261	0.789	789.0	0back	Block1	0back/STIM_010.jpg	99
572.964	0.501	500.7	0back	Block1	0back/STIM_010.jpg	100
576.646	0.629	628.8	0back	Block1	0back/STIM_010.jpg	100
580.67	0.65	650.1	0back	Block1	0back/STIM_011.jpg	100
584.497	0.426	426.4	0back	Block1	0back/STIM_011.jpg	99
588.096	0.438	438.2	0back	Block1	0back/STIM_011.jpg	100
591.977	0.626	626.1	0back	Block1	0back/STIM_012.jpg	99
596.182	0.493	492.8	0back	Block1	0back/STIM_012.jpg	100
599.263	0.668	667.5	0back	Block1	0back/STIM_012.jpg	100
603.45	0.507	507.4	0back	Block1	0back/STIM_013.jpg	100
607.648	0.614	613.7	0back	Block1	0back/STIM_013.jpg	99
611.917	0.714	714.5	0back	Block1	0back/STIM_013.jpg	100
615.254	0.72	720.3	0back	Block1	0back/STIM_014.jpg	99
619.608	0.605	605.0	0back	Block1	0back/STIM_014.jpg	100
622.592	0.646	646.4	0back	Block1	0back/STIM_014.jpg	99
626.153	0.589	588.7	0back	Block1	0back/STIM_015.jpg	100
630.0	0.374	374.3	0back	Block1	0back/STIM_015.jpg	100
632.951	0.645	644.9	0back	Block1	0back/STIM_015.jpg	99
636.279	0.55	549.6	0back	Block1	0back/STIM_016.jpg	99
640.046	0.408	408.4	0back	Block1	0back/STIM_016.jpg	100
642.567	0.364	363.7	0back	Block1	0back/STIM_016.jpg	99
645.313	0.556	555.7	0back	Block1	0back/STIM_017.jpg	99
648.166	0.664	664.1	0back	Block1	0back/STIM_017.jpg	99
652.482	0.536	535.5	0back	Block1	0back/STIM_017.jpg	100
656.0	0.343	343.2	0back	Block1	0back/STIM_018.jpg	100
660.329	0.638	638.1	0back	Block1	0back/STIM_018.jpg	99
663.476	0.499	499.4	0back	Block1	0back/STIM_018.jpg	100
667.417	0.734	733.5	0back	Block1	0back/STIM_019.jpg	100
670.789	0.734	733.5	0back	Block1	0back/STIM_019.jpg	100
673.616	0.616	616.5	0back	Block1	0back/STIM_019.jpg	99
678.255	0.863	862.6	2back	Block2	2back/STIM_000.jpg	99
681.571	0.81	809.7	2back	Block2	2back/STIM_000.jpg	100
685.913	0.569	568.8	2back	Block2	2back/STIM_000.jpg	99
690.453	0.655	655.0	2back	Block2	2back/STIM_001.jpg	100
694.874	0.75	749.7	2back	Block2	2back/STIM_001.jpg	99
699.28	0.786	786.4	2back	Block2	2back/STIM_001.jpg	100
702.524	0.63	629.9	2back	Block2	2back/STIM_002.jpg	100
706.071	0.812	812.0	2back	Block2	2back/STIM_002.jpg	100
710.835	0.914	914.5	2back	Block2	2back/STIM_002.jpg	100
714.77	0.695	695.2	2back	Block2	2back/STIM_003.jpg	100
718.855	0.777	776.6	2back	Block2	2back/STIM_003.jpg	100
723.154	0.863	863.3	2back	Block2	2back/STIM_003.jpg	100
726.329	1.057	1057.1	2back	Block2	2back/STIM_004.jpg	99
731.219	0.956	956.1	2back	Block2	2back/STIM_004.jpg	99
735.371	0.54	539.9	2back	Block2	2back/STIM_004.jpg	99
738.797	1.016	1015.9	2back	Block2	2back/STIM_005.jpg	100
743.195	0.751	751.4	2back	Block2	2back/STIM_005.jpg	99
747.894	0.631	630.6	2back	Block2	2back/STIM_005.jpg	100
752.284	1.038	1038.0	2back	Block2	2back/STIM_006.jpg	100
757.267	0.707	706.8	2back	Block2	2back/STIM_006.jpg	99
760.781	0.702	701.5	2back	Block2	2back/STIM_006.jpg	100
765.305	0.695	694.8	2back	Block2	2back/STIM_007.jpg	99
769.553	0.543	542.9	2back	Block2	2back/STIM_007.jpg	100
773.797	0.883	883.3	2back	Block2	2back/STIM_007.jpg	100
777.624	0.974	973.8	2back	Block2	2back/STIM_008.jpg	99
782.157	0.602	602.1	2back	Block2	2back/STIM_008.jpg	99
785.252	0.598	598.3	2back	Block2	2back/STIM_008.jpg	100
788.829	0.926	925.5	2back	Block2	2back/STIM_009.jpg	100
791.864	0.541	540.7	2back	Block2	2back/STIM_009.jpg	99
796.279	0.5	499.5	2back	Block2	2back/STIM_009.jpg	99
800.711	0.781	781.2	2back	Block2	2back/STIM_010.jpg	100
804.479	0.674	674.1	2back	Block2	2back/STIM_010.jpg	100
808.72	0.931	931.0	2back	Block2	2back/STIM_010.jpg	99
813.35	0.581	581.1	2back	Block2	2back/STIM_011.jpg	100
816.817	1.008	1008.5	2back	Block2	2back/STIM_011.jpg	100
821.089	0.791	791.1	2back	Block2	2back/STIM_011.jpg	100
825.856	1.072	1072.4	2back	Block2	2back/STIM_012.jpg	99
829.687	0.529	529.1	2back	Block2	2back/STIM_012.jpg	100
832.473	0.961	961.3	2back	Block2	2back/STIM_012.jpg	99
836.626	0.393	392.9	2back	Block2	2back/STIM_013.jpg	99
839.722	0.541	540.9	2back	Block2	2back/STIM_013.jpg	99
842.644	0.935	935.2	2back	Block2	2back/STIM_013.jpg	100
846.761	1.034	1034.2	2back	Block2	2back/STIM_014.jpg	100
850.073	0.619	618.8	2back	Block2	2back/STIM_014.jpg	99
853.322	0.718	717.7	2back	Block2	2back/STIM_014.jpg	99
857.772	1.068	1068.0	2back	Block2	2back/STIM_015.jpg	99
862.806	0.554	554.0	2back	Block2	2back/STIM_015.jpg	100
865.945	0.87	869.6	2back	Block2	2back/STIM_015.jpg	100
870.516	0.474	473.8	2back	Block2	2back/STIM_016.jpg	100
873.88	0.835	834.8	2back	Block2	2back/STIM_016.jpg	99
877.701	0.408	407.7	2back	Block2	2back/STIM_016.jpg	100
880.342	0.456	456.2	2back	Block2	2back/STIM_017.jpg	99
883.065	1.054	1054.5	2back	Block2	2back/STIM_017.jpg	99
886.604	0.911	910.9	2back	Block2	2back/STIM_017.jpg	100
890.617	0.517	516.6	2back	Block2	2back/STIM_018.jpg	100
893.741	0.744	743.6	2back	Block2	2back/STIM_018.jpg	99
897.948	0.881	880.6	2back	Block2	2back/STIM_018.jpg	99
900.924	0.606	605.5	2back	Block2	2back/STIM_019.jpg	99
905.264	0.688	687.5	2back	Block2	2back/STIM_019.jpg	100
909.86	0.928	927.9	2back	Block2	2back/STIM_019.jpg	99
913.707	0.591	590.7	2back	Block2	2back/STIM_020.jpg	100
917.429	0.569	569.2	2back	Block2	2back/STIM_020.jpg	99
921.351	0.408	407.8	2back	Block2	2back/STIM_020.jpg	99
924.064	0.702	702.5	2back	Block2	2back/STIM_021.jpg	99
928.47	0.898	897.9	2back	Block2	2back/STIM_021.jpg	99
932.06	0.742	741.9	2back	Block2	2back/STIM_021.jpg	99
934.973	1.022	1022.4	2back	Block2	2back/STIM_022.jpg	100
938.223	0.941	940.8	2back	Block2	2back/STIM_022.jpg	100
941.963	0.586	586.1	2back	Block2	2back/STIM_022.jpg	99
945.616	0.813	812.9	2back	Block2	2back/STIM_023.jpg	100
949.572	0.465	464.6	2back	Block2	2back/STIM_023.jpg	100
952.893	0.556	556.4	2back	Block2	2back/STIM_023.jpg	99
955.831	0.929	929.4	2back	Block2	2back/STIM_024.jpg	99
959.519	0.815	815.3	2back	Block2	2back/STIM_024.jpg	99
963.244	0.58	580.1	2back	Block2	2back/STIM_024.jpg	99
967.48	0.87	869.7	2back	Block2	2back/STIM_025.jpg	99
970.474	0.76	760.0	2back	Block2	2back/STIM_025.jpg	100
975.156	1.035	1034.9	2back	Block2	2back/STIM_025.jpg	100
978.721	1.079	1079.4	2back	Block2	2back/STIM_026.jpg	99
982.562	0.805	805.4	2back	Block2	2back/STIM_026.jpg	100
986.931	0.826	826.2	2back	Block2	2back/STIM_026.jpg	100
991.583	0.687	687.3	2back	Block2	2back/STIM_027.jpg	100
994.928	0.682	682.1	2back	Block2	2back/STIM_027.jpg	99
998.524	0.795	795.0	2back	Block2	2back/STIM_027.jpg	100
1002.319	0.535	535.0	2back	Block2	2back/STIM_028.jpg	99
1005.686	0.794	793.8	2back	Block2	2back/STIM_028.jpg	100
1009.814	0.611	611.3	2back	Block2	2back/STIM_028.jpg	100
1014.008	0.511	511.2	2back	Block2	2back/STIM_029.jpg	100
1017.031	0.717	716.8	2back	Block2	2back/STIM_029.jpg	100
1020.264	0.586	585.8	2back	Block2	2back/STIM_029.jpg	100
1024.619	0.844	844.2	2back	Block2	2back/STIM_030.jpg	99
1028.25	0.575	574.9	2back	Block2	2back/STIM_030.jpg	99
1032.51	0.841	841.1	2back	Block2	2back/STIM_030.jpg	99
1036.813	1.159	1158.8	2back	Block2	2back/STIM_031.jpg	99
1041.881	0.995	995.4	2back	Block2	2back/STIM_031.jpg	99
1045.306	0.465	464.9	2back	Block2	2back/STIM_031.jpg	100
1047.99	0.528	528.4	2back	Block2	2back/STIM_032.jpg	100
1051.195	0.976	976.0	2back	Block2	2back/STIM_032.jpg	99
1055.686	0.842	841.6	2back	Block2	2back/STIM_032.jpg	100
1059.632	0.53	530.2	2back	Block2	2back/STIM_033.jpg	99
1062.533	0.739	739.0	2back	Block2	2back/STIM_033.jpg	99
1065.595	0.956	955.8	2back	Block2	2back/STIM_033.jpg	99
1068.556	0.952	952.5	2back	Block2	2back/STIM_034.jpg	99
1071.94	0.535	535.1	2back	Block2	2back/STIM_034.jpg	100
1076.175	0.747	746.7	2back	Block2	2back/STIM_034.jpg	99
1079.904	0.853	853.4	2back	Block2	2back/STIM_035.jpg	99
1083.081	0.783	783.2	2back	Block2	2back/STIM_035.jpg	100
1087.689	0.68	679.6	2back	Block2	2back/STIM_035.jpg	99
1091.493	0.6	600.1	2back	Block2	2back/STIM_036.jpg	99
1094.769	0.939	939.4	2back	Block2	2back/STIM_036.jpg	100
1097.969	0.744	744.2	2back	Block2	2back/STIM_036.jpg	99
1101.096	0.866	865.9	2back	Block2	2back/STIM_037.jpg	99
1104.893	1.024	1023.6	2back	Block2	2back/STIM_037.jpg	100
1109.306	0.676	676.2	2back	Block2	2back/STIM_037.jpg	100
1112.875	0.887	886.7	2back	Block2	2back/STIM_038.jpg	100
1117.411	0.778	778.5	2back	Block2	2back/STIM_038.jpg	100
1120.737	0.948	948.2	2back	Block2	2back/STIM_038.jpg	100
1123.918	0.659	658.9	2back	Block2	2back/STIM_039.jpg	99
1127.126	0.843	843.1	2back	Block2	2back/STIM_039.jpg	99
1131.079	0.923	923.2	2back	Block2	2back/STIM_039.jpg	100
1135.182	0.669	669.4	0back	Block2	0back/STIM_000.jpg	99
1138.776	0.662	661.5	0back	Block2	0back/STIM_000.jpg	99
1141.895	0.563	562.9	0back	Block2	0back/STIM_000.jpg	99
1145.194	0.509	508.9	0back	Block2	0back/STIM_001.jpg	99
1148.592	0.45	450.5	0back	Block2	0back/STIM_001.jpg	100
1153.011	0.45	449.7	0back	Block2	0back/STIM_001.jpg	99
1156.223	0.424	423.5	0back	Block2	0back/STIM_002.jpg	99
1159.046	0.615	615.1	0back	Block2	0back/STIM_002.jpg	100
1163.536	0.326	325.7	0back	Block2	0back/STIM_002.jpg	99
1167.335	0.456	456.1	0back	Block2	0back/STIM_003.jpg	100
1170.119	0.327	327.2	0back	Block2	0back/STIM_003.jpg	100
1173.911	0.549	549.1	0back	Block2	0back/STIM_003.jpg	100
1177.644	0.511	510.7	0back	Block2	0back/STIM_004.jpg	100
1181.861	0.62	619.8	0back	Block2	0back/STIM_004.jpg	99
1185.829	0.5	500.4	0back	Block2	0back/STIM_004.jpg	99
1188.46	0.572	571.7	0back	Block2	0back/STIM_005.jpg	99
1192.187	0.523	523.3	0back	Block2	0back/STIM_005.jpg	99
1195.999	0.578	578.1	0back	Block2	0back/STIM_005.jpg	100
1199.286	0.589	589.0	0back	Block2	0back/STIM_006.jpg	100
1203.45	0.402	402.1	0back	Block2	0back/STIM_006.jpg	99
1207.725	0.452	451.6	0back	Block2	0back/STIM_006.jpg	99
1210.589	0.382	381.9	0back	Block2	0back/STIM_007.jpg	99
1213.166	0.436	436.4	0back	Block2	0back/STIM_007.jpg	100
1216.44	0.799	799.4	0back	Block2	0back/STIM_007.jpg	100
1220.436	0.503	502.6	0back	Block2	0back/STIM_008.jpg	100
1223.805	0.582	581.7	0back	Block2	0back/STIM_008.jpg	99
1227.848	0.452	452.2	0back	Block2	0back/STIM_008.jpg	99
1230.42	0.536	536.5	0back	Block2	0back/STIM_009.jpg	100
1234.466	0.657	656.8	0back	Block2	0back/STIM_009.jpg	99
1238.206	0.444	443.8	0back	Block2	0back/STIM_009.jpg	99
1241.286	0.488	487.7	0back	Block2	0back/STIM_010.jpg	99
1244.81	0.629	629.4	0back	Block2	0back/STIM_010.jpg	99
1249.329	0.79	790.2	0back	Block2	0back/STIM_010.jpg	99
1252.625	0.532	532.1	0back	Block2	0back/STIM_011.jpg	100
1256.241	0.522	521.5	0back	Block2	0back/STIM_011.jpg	100
1260.059	0.612	611.8	0back	Block2	0back/STIM_011.jpg	99
1262.998	0.606	606.4	0back	Block2	0back/STIM_012.jpg	99
1266.874	0.48	479.9	0back	Block2	0back/STIM_012.jpg	100
1270.931	0.617	616.7	0back	Block2	0back/STIM_012.jpg	100
1274.363	0.535	535.0	0back	Block2	0back/STIM_013.jpg	100
1278.005	0.704	704.1	0back	Block2	0back/STIM_013.jpg	99
1281.885	0.368	368.4	0back	Block2	0back/STIM_013.jpg	99
1285.077	0.582	582.4	0back	Block2	0back/STIM_014.jpg	99
1289.158	0.349	349.4	0back	Block2	0back/STIM_014.jpg	100
1292.314	0.673	673.4	0back	Block2	0back/STIM_014.jpg	100
1295.088	0.622	622.1	0back	Block2	0back/STIM_015.jpg	99
1298.255	0.564	563.9	0back	Block2	0back/STIM_015.jpg	100
1302.289	0.455	455.4	0back	Block2	0back/STIM_015.jpg	100
1305.429	0.623	622.8	0back	Block2	0back/STIM_016.jpg	99
1309.749	0.484	484.5	0back	Block2	0back/STIM_016.jpg	99
1313.055	0.634	633.7	0back	Block2	0back/STIM_016.jpg	99
1316.891	0.414	414.0	0back	Block2	0back/STIM_017.jpg	99
1320.939	0.376	375.9	0back	Block2	0back/STIM_017.jpg	100
1324.426	0.562	561.8	0back	Block2	0back/STIM_017.jpg	100
1328.89	0.453	452.6	0back	Block2	0back/STIM_018.jpg	99
1331.977	0.72	719.9	0back	Block2	0back/STIM_018.jpg	99
1336.357	0.638	638.3	0back	Block2	0back/STIM_018.jpg	99
1339.208	0.46	460.3	0back	Block2	0back/STIM_019.jpg	99
1342.631	0.64	639.8	0back	Block2	0back/STIM_019.jpg	100
1345.562	0.614	613.7	0back	Block2	0back/STIM_019.jpg	99
1349.644	0.464	464.0	2back	Block3	2back/STIM_000.jpg	100
1352.601	0.662	662.3	2back	Block3	2back/STIM_000.jpg	99
1356.713	0.682	682.2	2back	Block3	2back/STIM_000.jpg	99
1360.142	0.81	810.5	2back	Block3	2back/STIM_001.jpg	99
1363.385	0.363	362.7	2back	Block3	2back/STIM_001.jpg	99
1366.402	0.449	449.3	2back	Block3	2back/STIM_001.jpg	99
1369.594	0.466	465.7	2back	Block3	2back/STIM_002.jpg	99
1373.247	0.696	695.8	2back	Block3	2back/STIM_002.jpg	99
1377.47	0.502	501.7	2back	Block3	2back/STIM_002.jpg	99
1380.661	0.453	452.8	2back	Block3	2back/STIM_003.jpg	99
1384.486	0.605	604.6	2back	Block3	2back/STIM_003.jpg	99
1388.621	0.721	721.2	2back	Block3	2back/STIM_003.jpg	100
1392.562	0.47	469.7	2back	Block3	2back/STIM_004.jpg	99
1396.758	0.634	634.0	2back	Block3	2back/STIM_004.jpg	100
1400.932	0.552	552.3	2back	Block3	2back/STIM_004.jpg	100
1403.536	0.71	710.5	2back	Block3	2back/STIM_005.jpg	100
1406.604	0.712	711.5	2back	Block3	2back/STIM_005.jpg	100
1409.542	0.844	843.6	2back	Block3	2back/STIM_005.jpg	100
1414.19	0.548	547.8	2back	Block3	2back/STIM_006.jpg	100
1418.75	0.602	602.3	2back	Block3	2back/STIM_006.jpg	100
1423.11	0.458	458.1	2back	Block3	2back/STIM_006.jpg	100
1426.36	0.994	994.3	2back	Block3	2back/STIM_007.jpg	99
1430.224	0.629	628.6	2back	Block3	2back/STIM_007.jpg	99
1434.537	0.418	418.2	2back	Block3	2back/STIM_007.jpg	100
1438.201	0.55	550.3	2back	Block3	2back/STIM_008.jpg	100
1441.626	0.523	523.0	2back	Block3	2back/STIM_008.jpg	100
1444.813	0.57	569.9	2back	Block3	2back/STIM_008.jpg	100
1449.353	0.901	901.1	2back	Block3	2back/STIM_009.jpg	99
1453.295	0.519	518.9	2back	Block3	2back/STIM_009.jpg	99
1456.216	0.855	854.7	2back	Block3	2back/STIM_009.jpg	99
1460.238	0.542	541.8	2back	Block3	2back/STIM_010.jpg	99
1463.597	0.831	830.7	2back	Block3	2back/STIM_010.jpg	100
1467.631	0.776	776.1	2back	Block3	2back/STIM_010.jpg	100
1472.381	0.645	645.2	2back	Block3	2back/STIM_011.jpg	99
1476.039	0.46	460.5	2back	Block3	2back/STIM_011.jpg	100
1479.736	0.57	569.5	2back	Block3	2back/STIM_011.jpg	100
1483.12	0.677	677.3	2back	Block3	2back/STIM_012.jpg	99
1487.707	0.612	611.9	2back	Block3	2back/STIM_012.jpg	100
1492.193	0.838	837.8	2back	Block3	2back/STIM_012.jpg	99
1495.364	0.59	590.3	2back	Block3	2back/STIM_013.jpg	100
1498.976	0.912	911.9	2back	Block3	2back/STIM_013.jpg	99
1503.415	0.703	702.6	2back	Block3	2back/STIM_013.jpg	100
1507.514	0.514	513.9	2back	Block3	2back/STIM_014.jpg	99
1511.692	0.431	431.1	2back	Block3	2back/STIM_014.jpg	99
1515.335	0.373	372.9	2back	Block3	2back/STIM_014.jpg	99
1519.044	0.672	672.0	2back	Block3	2back/STIM_015.jpg	99
1523.731	0.909	909.0	2back	Block3	2back/STIM_015.jpg	99
1528.403	0.866	865.9	2back	Block3	2back/STIM_015.jpg	99
1532.761	0.585	585.0	2back	Block3	2back/STIM_016.jpg	99
1536.927	0.746	745.8	2back	Block3	2back/STIM_016.jpg	100
1540.63	0.46	460.3	2back	Block3	2back/STIM_016.jpg	99
1544.3	0.638	638.3	2back	Block3	2back/STIM_017.jpg	99
1547.282	0.426	425.7	2back	Block3	2back/STIM_017.jpg	99
1550.677	0.479	479.1	2back	Block3	2back/STIM_017.jpg	99
1555.155	0.828	828.3	2back	Block3	2back/STIM_018.jpg	99
1558.519	0.482	481.8	2back	Block3	2back/STIM_018.jpg	100
1561.194	0.766	766.5	2back	Block3	2back/STIM_018.jpg	99
1565.235	0.91	909.7	2back	Block3	2back/STIM_019.jpg	99
1569.573	0.636	635.6	2back	Block3	2back/STIM_019.jpg	99
1572.254	0.827	826.9	2back	Block3	2back/STIM_019.jpg	100
1575.533	0.79	790.5	2back	Block3	2back/STIM_020.jpg	100
1579.191	0.979	979.2	2back	Block3	2back/STIM_020.jpg	100
1583.284	0.622	622.1	2back	Block3	2back/STIM_020.jpg	99
1587.868	0.884	883.7	2back	Block3	2back/STIM_021.jpg	99
1592.325	0.692	692.3	2back	Block3	2back/STIM_021.jpg	100
1595.944	0.696	696.0	2back	Block3	2back/STIM_021.jpg	100
1599.201	0.678	678.5	2back	Block3	2back/STIM_022.jpg	99
1602.003	0.428	428.5	2back	Block3	2back/STIM_022.jpg	99
1606.357	0.862	861.5	2back	Block3	2back/STIM_022.jpg	100
1611.091	0.689	689.4	2back	Block3	2back/STIM_023.jpg	100
1615.254	0.639	639.3	2back	Block3	2back/STIM_023.jpg	99
1618.356	0.819	819.0	2back	Block3	2back/STIM_023.jpg	99
1621.366	0.94	939.9	2back	Block3	2back/STIM_024.jpg	99
1625.746	0.591	591.4	2back	Block3	2back/STIM_024.jpg	99
1629.671	0.74	739.7	2back	Block3	2back/STIM_024.jpg	99
1632.733	0.52	519.8	2back	Block3	2back/STIM_025.jpg	100
1635.643	0.7	700.4	2back	Block3	2back/STIM_025.jpg	100
1639.119	0.526	526.1	2back	Block3	2back/STIM_025.jpg	99
1643.271	0.706	706.4	2back	Block3	2back/STIM_026.jpg	100
1646.979	0.745	744.9	2back	Block3	2back/STIM_026.jpg	100
1649.916	0.549	549.3	2back	Block3	2back/STIM_026.jpg	100
1654.192	0.497	496.6	2back	Block3	2back/STIM_027.jpg	100
1658.171	0.663	663.1	2back	Block3	2back/STIM_027.jpg	100
1662.415	0.397	396.6	2back	Block3	2back/STIM_027.jpg	100
1666.634	0.618	618.3	2back	Block3	2back/STIM_028.jpg	100
1669.949	0.706	706.0	2back	Block3	2back/STIM_028.jpg	100
1673.196	0.694	693.8	2back	Block3	2back/STIM_028.jpg	99
1676.654	0.608	608.1	2back	Block3	2back/STIM_029.jpg	99
1681.322	0.51	509.9	2back	Block3	2back/STIM_029.jpg	99
1684.059	0.522	521.9	2back	Block3	2back/STIM_029.jpg	99
1687.691	0.588	588.0	2back	Block3	2back/STIM_030.jpg	100
1692.032	0.602	601.8	2back	Block3	2back/STIM_030.jpg	100
1695.842	0.817	817.4	2back	Block3	2back/STIM_030.jpg	100
1699.942	0.923	922.8	2back	Block3	2back/STIM_031.jpg	99
1703.879	0.525	525.2	2back	Block3	2back/STIM_031.jpg	99
1707.801	0.416	416.4	2back	Block3	2back/STIM_031.jpg	99
1711.326	0.416	416.2	2back	Block3	2back/STIM_032.jpg	100
1714.499	0.794	793.7	2back	Block3	2back/STIM_032.jpg	99
1717.834	0.724	724.3	2back	Block3	2back/STIM_032.jpg	100
1720.675	0.52	519.9	2back	Block3	2back/STIM_033.jpg	100
1724.463	0.801	800.6	2back	Block3	2back/STIM_033.jpg	100
1728.497	0.48	479.9	2back	Block3	2back/STIM_033.jpg	99
1732.469	0.383	383.4	2back	Block3	2back/STIM_034.jpg	99
1735.117	0.737	737.1	2back	Block3	2back/STIM_034.jpg	99
1738.423	0.779	779.1	2back	Block3	2back/STIM_034.jpg	99
1741.774	0.766	766.5	2back	Block3	2back/STIM_035.jpg	99
1746.383	0.736	736.4	2back	Block3	2back/STIM_035.jpg	99
1749.565	0.489	488.8	2back	Block3	2back/STIM_035.jpg	100
1753.526	0.563	563.0	2back	Block3	2back/STIM_036.jpg	99
1757.559	0.752	751.8	2back	Block3	2back/STIM_036.jpg	100
1761.967	0.886	885.7	2back	Block3	2back/STIM_036.jpg	99
1765.346	0.656	656.0	2back	Block3	2back/STIM_037.jpg	99
1768.818	0.393	392.6	2back	Block3	2back/STIM_037.jpg	100
1771.587	0.622	622.5	2back	Block3	2back/STIM_037.jpg	100
1774.418	0.504	504.0	2back	Block3	2back/STIM_038.jpg	99
1777.563	0.508	508.5	2back	Block3	2back/STIM_038.jpg	99
1781.679	0.917	916.6	2back	Block3	2back/STIM_038.jpg	100
1786.571	0.743	743.3	2back	Block3	2back/STIM_039.jpg	100
1790.839	0.839	838.8	2back	Block3	2back/STIM_039.jpg	99
1794.878	0.82	820.5	2back	Block3	2back/STIM_039.jpg	100
1798.436	0.621	620.7	0back	Block3	0back/STIM_000.jpg	99
1802.548	0.498	498.5	0back	Block3	0back/STIM_000.jpg	99
1806.381	0.44	440.0	0back	Block3	0back/STIM_000.jpg	100
1809.658	0.44	440.4	0back	Block3	0back/STIM_001.jpg	100
1813.337	0.494	493.7	0back	Block3	0back/STIM_001.jpg	99
1816.277	0.334	334.0	0back	Block3	0back/STIM_001.jpg	99
1819.708	0.432	432.5	0back	Block3	0back/STIM_002.jpg	100
1822.372	0.531	530.6	0back	Block3	0back/STIM_002.jpg	100
1826.694	0.701	701.3	0back	Block3	0back/STIM_002.jpg	100
1829.885	0.45	450.2	0back	Block3	0back/STIM_003.jpg	99
1832.728	0.556	555.7	0back	Block3	0back/STIM_003.jpg	100
1837.114	0.772	772.4	0back	Block3	0back/STIM_003.jpg	100
1840.116	0.528	527.6	0back	Block3	0back/STIM_004.jpg	100
1844.242	0.475	474.7	0back	Block3	0back/STIM_004.jpg	99
1848.665	0.631	630.9	0back	Block3	0back/STIM_004.jpg	100
1851.938	0.676	675.5	0back	Block3	0back/STIM_005.jpg	100
1855.485	0.622	622.5	0back	Block3	0back/STIM_005.jpg	99
1858.811	0.551	550.9	0back	Block3	0back/STIM_005.jpg	99
1861.966	0.663	662.7	0back	Block3	0back/STIM_006.jpg	99
1865.446	0.616	615.5	0back	Block3	0back/STIM_006.jpg	100
1868.291	0.486	486.5	0back	Block3	0back/STIM_006.jpg	100
1870.916	0.454	454.1	0back	Block3	0back/STIM_007.jpg	100
1873.536	0.499	498.6	0back	Block3	0back/STIM_007.jpg	99
1877.342	0.714	714.0	0back	Block3	0back/STIM_007.jpg	99
1881.957	0.554	554.1	0back	Block3	0back/STIM_008.jpg	100
1885.652	0.74	739.9	0back	Block3	0back/STIM_008.jpg	100
1890.285	0.598	598.2	0back	Block3	0back/STIM_008.jpg	99
1893.256	0.606	606.3	0back	Block3	0back/STIM_009.jpg	100
1896.143	0.737	736.9	0back	Block3	0back/STIM_009.jpg	100
1899.018	0.671	670.8	0back	Block3	0back/STIM_009.jpg	99
1901.853	0.408	407.6	0back	Block3	0back/STIM_010.jpg	100
1905.915	0.471	470.6	0back	Block3	0back/STIM_010.jpg	100
1908.672	0.486	485.6	0back	Block3	0back/STIM_010.jpg	100
1913.286	0.658	657.8	0back	Block3	0back/STIM_011.jpg	99
1916.332	0.388	388.5	0back	Block3	0back/STIM_011.jpg	99
1919.932	0.763	763.3	0back	Block3	0back/STIM_011.jpg	99
1924.399	0.52	519.7	0back	Block3	0back/STIM_012.jpg	99
1927.716	0.481	481.4	0back	Block3	0back/STIM_012.jpg	100
1932.01	0.425	424.8	0back	Block3	0back/STIM_012.jpg	100
1935.038	0.59	590.1	0back	Block3	0back/STIM_013.jpg	99
1938.062	0.557	556.6	0back	Block3	0back/STIM_013.jpg	99
1941.608	0.358	358.5	0back	Block3	0back/STIM_013.jpg	99
1945.822	0.409	408.8	0back	Block3	0back/STIM_014.jpg	99
1949.881	0.494	494.2	0back	Block3	0back/STIM_014.jpg	99
1952.797	0.408	408.1	0back	Block3	0back/STIM_014.jpg	100
1955.699	0.404	404.0	0back	Block3	0back/STIM_015.jpg	100
1958.788	0.649	649.0	0back	Block3	0back/STIM_015.jpg	99
1963.208	0.444	443.6	0back	Block3	0back/STIM_015.jpg	99
1966.788	0.582	581.9	0back	Block3	0back/STIM_016.jpg	100
1969.999	0.5	499.6	0back	Block3	0back/STIM_016.jpg	99
1973.638	0.612	612.1	0back	Block3	0back/STIM_016.jpg	100
1978.029	0.738	738.4	0back	Block3	0back/STIM_017.jpg	99
1980.806	0.632	632.5	0back	Block3	0back/STIM_017.jpg	100
1985.136	0.623	623.1	0back	Block3	0back/STIM_017.jpg	100
1989.436	0.557	556.6	0back	Block3	0back/STIM_018.jpg	99
1993.303	0.648	647.9	0back	Block3	0back/STIM_018.jpg	100
1997.448	0.664	664.1	0back	Block3	0back/STIM_018.jpg	100
2001.979	0.66	659.8	0back	Block3	0back/STIM_019.jpg	99
2006.475	0.384	384.4	0back	Block3	0back/STIM_019.jpg	99
2010.048	0.481	480.7	0back	Block3	0back/STIM_019.jpg	100
2012.822	0.866	865.8	2back	Block4	2back/STIM_000.jpg	100
2016.195	0.772	771.7	2back	Block4	2back/STIM_000.jpg	99
2020.473	0.87	870.5	2back	Block4	2back/STIM_000.jpg	99
2025.12	0.675	674.7	2back	Block4	2back/STIM_001.jpg	99
2027.95	0.857	857.3	2back	Block4	2back/STIM_001.jpg	100
2032.388	0.498	497.8	2back	Block4	2back/STIM_001.jpg	99
2036.73	0.768	768.4	2back	Block4	2back/STIM_002.jpg	99
2041.049	0.892	892.5	2back	Block4	2back/STIM_002.jpg	99
2045.832	0.646	646.4	2back	Block4	2back/STIM_002.jpg	100
2049.098	0.744	743.5	2back	Block4	2back/STIM_003.jpg	100
2052.927	0.464	464.3	2back	Block4	2back/STIM_003.jpg	99
2057.196	0.587	587.4	2back	Block4	2back/STIM_003.jpg	99
2060.927	0.694	694.0	2back	Block4	2back/STIM_004.jpg	99
2065.058	0.563	562.6	2back	Block4	2back/STIM_004.jpg	99
2068.11	0.394	394.2	2back	Block4	2back/STIM_004.jpg	100
2072.491	0.892	891.6	2back	Block4	2back/STIM_005.jpg	100
2076.582	0.561	560.7	2back	Block4	2back/STIM_005.jpg	100
2079.463	0.764	763.9	2back	Block4	2back/STIM_005.jpg	99
2083.012	0.808	807.8	2back	Block4	2back/STIM_006.jpg	99
2086.77	0.379	379.4	2back	Block4	2back/STIM_006.jpg	100
2089.918	0.877	876.8	2back	Block4	2back/STIM_006.jpg	99
2093.109	0.573	572.6	2back	Block4	2back/STIM_007.jpg	100
2097.505	0.443	442.9	2back	Block4	2back/STIM_007.jpg	100
2100.533	0.57	569.7	2back	Block4	2back/STIM_007.jpg	100
2104.654	0.653	653.0	2back	Block4	2back/STIM_008.jpg	99
2108.699	0.667	667.4	2back	Block4	2back/STIM_008.jpg	100
2113.249	0.852	851.7	2back	Block4	2back/STIM_008.jpg	100
2117.871	0.864	863.7	2back	Block4	2back/STIM_009.jpg	99
2122.683	0.44	439.9	2back	Block4	2back/STIM_009.jpg	100
2125.935	0.838	838.1	2back	Block4	2back/STIM_009.jpg	99
2130.27	0.49	489.9	2back	Block4	2back/STIM_010.jpg	99
2134.277	0.85	850.3	2back	Block4	2back/STIM_010.jpg	100
2138.872	0.408	408.5	2back	Block4	2back/STIM_010.jpg	99
2141.378	0.682	682.3	2back	Block4	2back/STIM_011.jpg	100
2145.689	0.468	468.1	2back	Block4	2back/STIM_011.jpg	99
2149.09	0.357	357.0	2back	Block4	2back/STIM_011.jpg	99
2153.472	0.864	864.3	2back	Block4	2back/STIM_012.jpg	99
2158.083	0.746	745.7	2back	Block4	2back/STIM_012.jpg	99
2162.314	0.574	573.6	2back	Block4	2back/STIM_012.jpg	99
2166.318	0.817	817.1	2back	Block4	2back/STIM_013.jpg	100
2171.221	0.68	679.8	2back	Block4	2back/STIM_013.jpg	100
2174.081	0.752	752.3	2back	Block4	2back/STIM_013.jpg	100
2178.222	0.443	443.1	2back	Block4	2back/STIM_014.jpg	100
2182.611	0.544	544.3	2back	Block4	2back/STIM_014.jpg	99
2186.986	0.869	869.2	2back	Block4	2back/STIM_014.jpg	99
2190.065	0.726	725.9	2back	Block4	2back/STIM_015.jpg	99
2193.791	0.453	452.9	2back	Block4	2back/STIM_015.jpg	100
2196.56	0.919	919.1	2back	Block4	2back/STIM_015.jpg	99
2201.068	0.703	703.4	2back	Block4	2back/STIM_016.jpg	100
2205.403	0.73	729.6	2back	Block4	2back/STIM_016.jpg	100
2209.316	0.815	814.6	2back	Block4	2back/STIM_016.jpg	100
2212.966	0.824	824.0	2back	Block4	2back/STIM_017.jpg	100
2217.213	0.732	731.8	2back	Block4	2back/STIM_017.jpg	100
2221.082	0.837	836.8	2back	Block4	2back/STIM_017.jpg	100
2224.272	0.78	780.3	2back	Block4	2back/STIM_018.jpg	99
2228.681	0.806	805.9	2back	Block4	2back/STIM_018.jpg	99
2232.307	0.893	892.8	2back	Block4	2back/STIM_018.jpg	99
2236.835	0.91	909.6	2back	Block4	2back/STIM_019.jpg	100
2240.722	0.656	656.0	2back	Block4	2back/STIM_019.jpg	99
2244.658	0.474	474.2	2back	Block4	2back/STIM_019.jpg	99
2248.253	0.574	573.7	2back	Block4	2back/STIM_020.jpg	100
2252.8	0.748	748.5	2back	Block4	2back/STIM_020.jpg	100
2256.244	0.483	483.2	2back	Block4	2back/STIM_020.jpg	100
2258.911	0.721	721.4	2back	Block4	2back/STIM_021.jpg	99
2263.194	0.457	457.4	2back	Block4	2back/STIM_021.jpg	99
2267.522	0.428	427.6	2back	Block4	2back/STIM_021.jpg	100
2270.554	0.547	547.0	2back	Block4	2back/STIM_022.jpg	100
2273.52	0.635	634.9	2back	Block4	2back/STIM_022.jpg	100
2277.333	0.598	598.4	2back	Block4	2back/STIM_022.jpg	100
2280.681	0.9	900.2	2back	Block4	2back/STIM_023.jpg	100
2284.173	0.521	520.8	2back	Block4	2back/STIM_023.jpg	100
2287.699	0.539	539.2	2back	Block4	2back/STIM_023.jpg	100
2291.282	0.825	825.0	2back	Block4	2back/STIM_024.jpg	99
2295.407	0.636	636.3	2back	Block4	2back/STIM_024.jpg	100
2298.396	0.637	637.2	2back	Block4	2back/STIM_024.jpg	99
2301.513	0.637	636.8	2back	Block4	2back/STIM_025.jpg	100
2304.748	0.505	505.3	2back	Block4	2back/STIM_025.jpg	99
2309.106	0.646	646.1	2back	Block4	2back/STIM_025.jpg	100
2312.286	0.478	478.1	2back	Block4	2back/STIM_026.jpg	100
2315.227	0.825	824.6	2back	Block4	2back/STIM_026.jpg	100
2319.428	0.75	749.8	2back	Block4	2back/STIM_026.jpg	100
2323.136	0.483	483.3	2back	Block4	2back/STIM_027.jpg	100
2326.215	0.708	707.6	2back	Block4	2back/STIM_027.jpg	99
2329.849	0.916	915.8	2back	Block4	2back/STIM_027.jpg	99
2334.031	0.86	860.5	2back	Block4	2back/STIM_028.jpg	99
2337.046	0.538	537.8	2back	Block4	2back/STIM_028.jpg	100
2339.706	0.824	823.5	2back	Block4	2back/STIM_028.jpg	99
2342.928	0.647	646.8	2back	Block4	2back/STIM_029.jpg	100
2346.456	0.866	865.9	2back	Block4	2back/STIM_029.jpg	100
2349.984	0.529	528.8	2back	Block4	2back/STIM_029.jpg	99
2353.253	0.772	771.6	2back	Block4	2back/STIM_030.jpg	99
2357.894	0.386	385.9	2back	Block4	2back/STIM_030.jpg	99
2361.949	0.474	474.3	2back	Block4	2back/STIM_030.jpg	100
2364.926	0.39	390.2	2back	Block4	2back/STIM_031.jpg	100
2368.336	0.793	792.9	2back	Block4	2back/STIM_031.jpg	99
2371.828	0.376	376.5	2back	Block4	2back/STIM_031.jpg	99
2375.092	0.784	784.1	2back	Block4	2back/STIM_032.jpg	100
2378.518	0.435	434.7	2back	Block4	2back/STIM_032.jpg	99
2382.827	0.411	411.1	2back	Block4	2back/STIM_032.jpg	99
2387.192	0.438	437.5	2back	Block4	2back/STIM_033.jpg	99
2389.944	0.688	687.8	2back	Block4	2back/STIM_033.jpg	100
2392.873	0.564	564.4	2back	Block4	2back/STIM_033.jpg	100
2395.704	0.4	400.0	2back	Block4	2back/STIM_034.jpg	100
2399.159	0.762	761.6	2back	Block4	2back/STIM_034.jpg	100
2402.684	0.439	439.0	2back	Block4	2back/STIM_034.jpg	100
2405.962	0.557	556.8	2back	Block4	2back/STIM_035.jpg	100
2409.136	0.599	599.0	2back	Block4	2back/STIM_035.jpg	99
2413.162	0.753	753.1	2back	Block4	2back/STIM_035.jpg	99
2417.631	0.649	648.8	2back	Block4	2back/STIM_036.jpg	100
2421.813	0.723	723.1	2back	Block4	2back/STIM_036.jpg	100
2426.368	0.5	499.5	2back	Block4	2back/STIM_036.jpg	100
2429.964	0.81	809.9	2back	Block4	2back/STIM_037.jpg	99
2433.042	0.634	633.7	2back	Block4	2back/STIM_037.jpg	99
2436.686	0.582	581.9	2back	Block4	2back/STIM_037.jpg	100
2439.548	0.392	391.6	2back	Block4	2back/STIM_038.jpg	99
2442.453	0.618	618.1	2back	Block4	2back/STIM_038.jpg	99
2446.752	0.743	742.9	2back	Block4	2back/STIM_038.jpg	100
2450.665	0.515	514.7	2back	Block4	2back/STIM_039.jpg	99
2454.633	0.692	692.0	2back	Block4	2back/STIM_039.jpg	100
2458.747	0.787	787.4	2back	Block4	2back/STIM_039.jpg	99
2463.592	0.586	586.5	0back	Block4	0back/STIM_000.jpg	99
2468.074	0.614	613.8	0back	Block4	0back/STIM_000.jpg	99
2472.235	0.699	698.7	0back	Block4	0back/STIM_000.jpg	99
2476.754	0.593	592.7	0back	Block4	0back/STIM_001.jpg	99
2480.549	0.62	619.6	0back	Block4	0back/STIM_001.jpg	99
2483.697	0.577	577.2	0back	Block4	0back/STIM_001.jpg	100
2486.965	0.664	663.5	0back	Block4	0back/STIM_002.jpg	100
2489.961	0.55	549.7	0back	Block4	0back/STIM_002.jpg	99
2493.434	0.637	636.8	0back	Block4	0back/STIM_002.jpg	99
2497.38	0.51	510.5	0back	Block4	0back/STIM_003.jpg	100
2501.587	0.424	424.2	0back	Block4	0back/STIM_003.jpg	99
2504.788	0.552	551.9	0back	Block4	0back/STIM_003.jpg	99
2508.859	0.379	378.6	0back	Block4	0back/STIM_004.jpg	100
2511.495	0.601	601.3	0back	Block4	0back/STIM_004.jpg	99
2516.028	0.623	623.1	0back	Block4	0back/STIM_004.jpg	99
2520.235	0.352	351.6	0back	Block4	0back/STIM_005.jpg	99
2522.813	0.509	509.2	0back	Block4	0back/STIM_005.jpg	100
2526.609	0.699	698.8	0back	Block4	0back/STIM_005.jpg	99
2530.373	0.646	645.9	0back	Block4	0back/STIM_006.jpg	99
2534.395	0.574	574.0	0back	Block4	0back/STIM_006.jpg	99
2538.819	0.65	649.7	0back	Block4	0back/STIM_006.jpg	99
2541.528	0.464	463.8	0back	Block4	0back/STIM_007.jpg	99
2544.64	0.808	808.5	0back	Block4	0back/STIM_007.jpg	100
2548.932	0.518	517.9	0back	Block4	0back/STIM_007.jpg	99
2552.531	0.762	762.1	0back	Block4	0back/STIM_008.jpg	99
2555.926	0.708	707.5	0back	Block4	0back/STIM_008.jpg	99
2560.151	0.731	730.7	0back	Block4	0back/STIM_008.jpg	100
2564.372	0.554	554.4	0back	Block4	0back/STIM_009.jpg	100
2567.513	0.686	686.0	0back	Block4	0back/STIM_009.jpg	100
2570.561	0.585	584.7	0back	Block4	0back/STIM_009.jpg	99
2575.036	0.382	382.0	0back	Block4	0back/STIM_010.jpg	99
2577.848	0.486	486.0	0back	Block4	0back/STIM_010.jpg	99
2582.258	0.368	368.5	0back	Block4	0back/STIM_010.jpg	100
2585.355	0.535	535.2	0back	Block4	0back/STIM_011.jpg	99
2588.85	0.614	614.5	0back	Block4	0back/STIM_011.jpg	99
2591.663	0.413	412.7	0back	Block4	0back/STIM_011.jpg	99
2594.577	0.729	729.2	0back	Block4	0back/STIM_012.jpg	99
2597.888	0.625	624.7	0back	Block4	0back/STIM_012.jpg	99
2601.607	0.386	386.1	0back	Block4	0back/STIM_012.jpg	99
2605.172	0.44	439.7	0back	Block4	0back/STIM_013.jpg	100
2607.636	0.682	681.6	0back	Block4	0back/STIM_013.jpg	99
2612.189	0.563	563.0	0back	Block4	0back/STIM_013.jpg	99
2616.197	0.533	533.0	0back	Block4	0back/STIM_014.jpg	100
2619.121	0.413	412.9	0back	Block4	0back/STIM_014.jpg	99
2622.508	0.502	502.1	0back	Block4	0back/STIM_014.jpg	99
2625.79	0.517	516.9	0back	Block4	0back/STIM_015.jpg	100
2629.403	0.701	701.4	0back	Block4	0back/STIM_015.jpg	100
2633.096	0.744	744.0	0back	Block4	0back/STIM_015.jpg	99
2637.366	0.749	749.1	0back	Block4	0back/STIM_016.jpg	99
2641.306	0.542	542.5	0back	Block4	0back/STIM_016.jpg	100
2645.286	0.581	580.9	0back	Block4	0back/STIM_016.jpg	100
2648.816	0.589	589.2	0back	Block4	0back/STIM_017.jpg	99
2652.17	0.777	777.1	0back	Block4	0back/STIM_017.jpg	100
2655.217	0.542	542.3	0back	Block4	0back/STIM_017.jpg	99
2657.909	0.459	458.8	0back	Block4	0back/STIM_018.jpg	100
2661.954	0.57	570.5	0back	Block4	0back/STIM_018.jpg	100
2666.595	0.523	523.2	0back	Block4	0back/STIM_018.jpg	99
2670.725	0.636	635.5	0back	Block4	0back/STIM_019.jpg	99
2674.166	0.461	461.1	0back	Block4	0back/STIM_019.jpg	100
2677.973	0.665	665.4	0back	Block4	0back/STIM_019.jpg	99
