onset	duration	accuracy_binary	trial_type	learning_stage	stimulus
24.142	0.850	1	learning	LS1	h89_p39_k_up_left.jpg
28.829	0.141	0	learning	LS1	h22_p21_k_down_left.jpg
33.498	1.346	0	learning	LS1	h89_p39_k_up_left.jpg
38.168	0.870	0	learning	LS1	h53_p33_k_down_right.jpg
42.838	0.095	1	learning	LS1	h94_p2_k_up_left.jpg
47.508	1.417	0	learning	LS1	h29_p3_k_down_left.jpg
52.178	0.858	1	learning	LS1	h94_p2_k_up_left.jpg
56.831	1.152	1	learning	LS1	h53_p33_k_down_right.jpg
61.501	1.520	1	learning	LS1	h29_p3_k_down_left.jpg
66.171	0.545	1	learning	LS1	h22_p21_k_down_left.jpg
75.360	0.997	1	learning	LS2	h22_p21_k_down_left.jpg
80.030	0.881	1	learning	LS2	h89_p39_k_up_left.jpg
84.683	0.289	1	learning	LS2	h94_p2_k_up_left.jpg
89.370	0.953	1	learning	LS2	h53_p33_k_down_right.jpg
94.040	0.935	1	learning	LS2	h29_p3_k_down_left.jpg
98.693	0.442	1	learning	LS2	h89_p39_k_up_left.jpg
103.363	0.795	1	learning	LS2	h94_p2_k_up_left.jpg
108.016	1.038	1	learning	LS2	h53_p33_k_down_right.jpg
112.686	0.646	1	learning	LS2	h22_p21_k_down_left.jpg
117.339	0.975	1	learning	LS2	h29_p3_k_down_left.jpg
126.529	0.583	1	learning	LS3	h29_p3_k_down_left.jpg
131.182	0.057	1	learning	LS3	h94_p2_k_up_left.jpg
135.852	1.212	1	learning	LS3	h53_p33_k_down_right.jpg
140.505	0.737	1	learning	LS3	h22_p21_k_down_left.jpg
145.175	1.246	1	learning	LS3	h89_p39_k_up_left.jpg
149.845	1.016	1	learning	LS3	h53_p33_k_down_right.jpg
154.498	0.457	1	learning	LS3	h29_p3_k_down_left.jpg
159.151	0.032	1	learning	LS3	h89_p39_k_up_left.jpg
163.804	1.204	1	learning	LS3	h22_p21_k_down_left.jpg
168.474	0.245	1	learning	LS3	h94_p2_k_up_left.jpg
177.647	1.441	1	learning	LS4	h94_p2_k_up_left.jpg
182.300	0.916	1	learning	LS4	h89_p39_k_up_left.jpg
186.970	0.024	1	learning	LS4	h29_p3_k_down_left.jpg
191.623	1.429	1	learning	LS4	h22_p21_k_down_left.jpg
196.276	1.004	1	learning	LS4	h53_p33_k_down_right.jpg
200.929	0.146	1	learning	LS4	h94_p2_k_up_left.jpg
205.616	1.484	1	learning	LS4	h53_p33_k_down_right.jpg
210.286	0.475	1	learning	LS4	h29_p3_k_down_left.jpg
214.939	0.317	1	learning	LS4	h22_p21_k_down_left.jpg
219.609	1.422	1	learning	LS4	h89_p39_k_up_left.jpg
246.778	1.633	1	control	LS1	h36_p11_i_down_right.jpg
251.381	1.169	1	control	LS1	h53_p25_i_down_right.jpg
256.000	1.966	1	control	LS1	h46_p34_i_down_left.jpg
260.604	1.358	0	control	LS1	h36_p12_k_down_left.jpg
265.207	1.453	1	control	LS1	h83_p34_i_up_right.jpg
269.810	2.155	1	control	LS1	h85_p16_i_up_left.jpg
274.413	1.546	1	control	LS1	h85_p11_k_up_left.jpg
279.016	1.034	1	control	LS1	h53_p33_k_down_right.jpg
283.619	2.343	1	control	LS1	h83_p29_k_up_right.jpg
288.223	1.751	0	control	LS1	h46_p18_k_down_left.jpg
297.345	1.353	1	control	LS2	h53_p33_k_down_right.jpg
301.949	2.022	1	control	LS2	h36_p25_i_down_right.jpg
306.535	1.431	1	control	LS2	h36_p12_k_down_left.jpg
311.122	0.839	1	control	LS2	h53_p35_i_down_left.jpg
315.725	2.244	1	control	LS2	h85_p43_i_up_right.jpg
320.328	1.636	1	control	LS2	h83_p49_i_up_left.jpg
324.914	1.060	1	control	LS2	h85_p11_k_up_left.jpg
329.517	2.449	1	control	LS2	h46_p43_i_down_left.jpg
334.104	1.858	1	control	LS2	h83_p29_k_up_right.jpg
338.707	1.361	1	control	LS2	h46_p18_k_down_left.jpg
347.813	2.147	1	control	LS3	h36_p12_k_down_left.jpg
352.416	1.555	1	control	LS3	h83_p29_k_up_right.jpg
357.003	1.378	0	control	LS3	h36_p11_i_down_right.jpg
361.606	2.368	1	control	LS3	h46_p18_k_down_left.jpg
366.209	1.760	1	control	LS3	h46_p34_i_down_left.jpg
370.796	1.168	1	control	LS3	h85_p16_i_up_left.jpg
375.382	0.832	1	control	LS3	h83_p34_i_up_right.jpg
379.969	1.998	1	control	LS3	h85_p11_k_up_left.jpg
384.555	1.406	1	control	LS3	h53_p25_i_down_right.jpg
389.158	0.941	1	control	LS3	h53_p33_k_down_right.jpg
398.264	1.711	1	control	LS4	h83_p29_k_up_right.jpg
402.851	1.119	1	control	LS4	h46_p43_i_down_left.jpg
407.437	1.071	1	control	LS4	h36_p25_i_down_right.jpg
412.024	1.950	1	control	LS4	h83_p49_i_up_left.jpg
416.610	1.358	1	control	LS4	h46_p18_k_down_left.jpg
421.197	0.910	1	control	LS4	h85_p11_k_up_left.jpg
425.800	2.171	1	control	LS4	h36_p12_k_down_left.jpg
430.403	1.563	1	control	LS4	h53_p35_i_down_left.jpg
434.990	0.971	1	control	LS4	h85_p43_i_up_right.jpg
439.576	2.393	1	control	LS4	h53_p33_k_down_right.jpg
466.795	0.272	0	learning	LS1	h36_p12_k_down_left.jpg
471.481	1.610	0	learning	LS1	h32_p31_k_down_right.jpg
476.168	0.902	1	learning	LS1	h82_p21_k_up_right.jpg
480.821	0.327	1	learning	LS1	h36_p12_k_down_left.jpg
485.474	1.165	0	learning	LS1	h46_p18_k_down_left.jpg
490.127	1.107	1	learning	LS1	h32_p31_k_down_right.jpg
494.814	0.348	0	learning	LS1	h98_p19_k_up_right.jpg
499.467	1.454	1	learning	LS1	h46_p18_k_down_left.jpg
504.137	0.145	0	learning	LS1	h82_p21_k_up_right.jpg
508.790	1.237	1	learning	LS1	h98_p19_k_up_right.jpg
517.980	1.033	1	learning	LS2	h98_p19_k_up_right.jpg
522.649	0.474	1	learning	LS2	h46_p18_k_down_left.jpg
527.303	0.861	1	learning	LS2	h82_p21_k_up_right.jpg
531.956	1.222	1	learning	LS2	h32_p31_k_down_right.jpg
536.626	0.346	1	learning	LS2	h82_p21_k_up_right.jpg
541.295	0.755	1	learning	LS2	h98_p19_k_up_right.jpg
545.949	1.326	1	learning	LS2	h36_p12_k_down_left.jpg
550.619	0.601	1	learning	LS2	h32_p31_k_down_right.jpg
555.272	0.759	1	learning	LS2	h46_p18_k_down_left.jpg
559.925	1.097	1	learning	LS2	h36_p12_k_down_left.jpg
569.098	0.963	1	learning	LS3	h32_p31_k_down_right.jpg
573.751	1.469	1	learning	LS3	h46_p18_k_down_left.jpg
578.404	0.561	0	learning	LS3	h98_p19_k_up_right.jpg
583.074	1.002	1	learning	LS3	h36_p12_k_down_left.jpg
587.744	1.640	1	learning	LS3	h46_p18_k_down_left.jpg
592.397	0.798	1	learning	LS3	h82_p21_k_up_right.jpg
597.050	1.214	1	learning	LS3	h36_p12_k_down_left.jpg
601.703	1.345	1	learning	LS3	h98_p19_k_up_right.jpg
606.373	0.802	1	learning	LS3	h82_p21_k_up_right.jpg
611.027	1.011	1	learning	LS3	h32_p31_k_down_right.jpg
620.199	0.891	1	learning	LS4	h32_p31_k_down_right.jpg
624.886	0.232	1	learning	LS4	h36_p12_k_down_left.jpg
629.539	1.770	1	learning	LS4	h46_p18_k_down_left.jpg
634.209	0.996	1	learning	LS4	h36_p12_k_down_left.jpg
638.862	0.303	1	learning	LS4	h46_p18_k_down_left.jpg
643.515	1.391	1	learning	LS4	h82_p21_k_up_right.jpg
648.169	0.950	1	learning	LS4	h98_p19_k_up_right.jpg
652.838	0.208	1	learning	LS4	h82_p21_k_up_right.jpg
657.492	1.797	1	learning	LS4	h32_p31_k_down_right.jpg
662.145	1.105	1	learning	LS4	h98_p19_k_up_right.jpg
689.380	1.020	1	learning	LS1	h117_p6_k_up_left.jpg
694.050	0.890	0	learning	LS1	h33_p11_k_down_right.jpg
698.720	0.015	1	learning	LS1	h120_p12_k_up_right.jpg
703.406	1.153	1	learning	LS1	h25_p14_k_down_left.jpg
708.093	0.929	0	learning	LS1	h33_p11_k_down_right.jpg
712.763	1.542	1	learning	LS1	h116_p28_k_up_right.jpg
717.433	0.899	1	learning	LS1	h117_p6_k_up_left.jpg
722.102	1.033	1	learning	LS1	h116_p28_k_up_right.jpg
726.772	1.419	0	learning	LS1	h25_p14_k_down_left.jpg
731.442	1.447	0	learning	LS1	h120_p12_k_up_right.jpg
740.632	0.129	1	learning	LS2	h33_p11_k_down_right.jpg
745.285	0.818	1	learning	LS2	h117_p6_k_up_left.jpg
749.955	0.926	1	learning	LS2	h116_p28_k_up_right.jpg
754.641	0.667	1	learning	LS2	h120_p12_k_up_right.jpg
759.311	0.837	1	learning	LS2	h117_p6_k_up_left.jpg
763.964	1.214	1	learning	LS2	h116_p28_k_up_right.jpg
768.634	0.254	1	learning	LS2	h25_p14_k_down_left.jpg
773.321	1.162	1	learning	LS2	h33_p11_k_down_right.jpg
777.991	1.234	1	learning	LS2	h25_p14_k_down_left.jpg
782.660	0.259	1	learning	LS2	h120_p12_k_up_right.jpg
791.850	1.171	1	learning	LS3	h120_p12_k_up_right.jpg
796.520	0.546	1	learning	LS3	h116_p28_k_up_right.jpg
801.173	0.887	1	learning	LS3	h120_p12_k_up_right.jpg
805.843	1.442	1	learning	LS3	h117_p6_k_up_left.jpg
810.513	0.666	1	learning	LS3	h33_p11_k_down_right.jpg
815.183	0.090	1	learning	LS3	h25_p14_k_down_left.jpg
819.836	1.379	1	learning	LS3	h33_p11_k_down_right.jpg
824.489	1.538	1	learning	LS3	h116_p28_k_up_right.jpg
829.159	1.038	1	learning	LS3	h25_p14_k_down_left.jpg
833.812	1.266	1	learning	LS3	h117_p6_k_up_left.jpg
843.019	1.161	1	learning	LS4	h33_p11_k_down_right.jpg
847.672	1.454	1	learning	LS4	h25_p14_k_down_left.jpg
852.325	0.945	1	learning	LS4	h33_p11_k_down_right.jpg
856.995	1.470	1	learning	LS4	h120_p12_k_up_right.jpg
861.664	1.641	1	learning	LS4	h116_p28_k_up_right.jpg
866.351	1.150	1	learning	LS4	h117_p6_k_up_left.jpg
871.004	0.977	1	learning	LS4	h120_p12_k_up_right.jpg
875.674	1.412	1	learning	LS4	h117_p6_k_up_left.jpg
880.344	0.904	1	learning	LS4	h116_p28_k_up_right.jpg
885.030	0.997	1	learning	LS4	h25_p14_k_down_left.jpg
912.182	1.788	1	control	LS1	h117_p13_i_up_right.jpg
916.786	1.372	1	control	LS1	h108_p27_k_up_left.jpg
921.389	1.003	1	control	LS1	h109_p51_k_up_left.jpg
925.992	1.977	1	control	LS1	h117_p6_k_up_left.jpg
930.595	1.369	1	control	LS1	h111_p47_k_up_left.jpg
935.198	1.079	1	control	LS1	h35_p50_k_down_right.jpg
939.801	2.165	1	control	LS1	h111_p16_i_up_left.jpg
944.404	1.573	1	control	LS1	h35_p31_i_down_right.jpg
949.008	1.268	0	control	LS1	h109_p34_i_up_right.jpg
953.611	2.353	1	control	LS1	h108_p13_i_up_right.jpg
962.734	1.236	1	control	LS2	h108_p15_i_up_right.jpg
967.354	0.755	1	control	LS2	h111_p37_i_up_right.jpg
971.957	2.016	1	control	LS2	h35_p50_k_down_right.jpg
976.560	1.407	1	control	LS2	h35_p43_i_down_left.jpg
981.163	1.790	1	control	LS2	h109_p35_i_up_right.jpg
985.749	2.221	1	control	LS2	h117_p6_k_up_left.jpg
990.336	1.629	1	control	LS2	h117_p31_i_up_left.jpg
994.922	1.724	0	control	LS2	h109_p51_k_up_left.jpg
999.509	2.459	0	control	LS2	h108_p27_k_up_left.jpg
1004.112	1.866	1	control	LS2	h111_p47_k_up_left.jpg
1013.235	0.988	1	control	LS3	h35_p31_i_down_right.jpg
1017.838	2.138	1	control	LS3	h117_p13_i_up_right.jpg
1022.441	1.529	1	control	LS3	h117_p6_k_up_left.jpg
1027.028	0.937	1	control	LS3	h111_p47_k_up_left.jpg
1031.614	2.359	1	control	LS3	h35_p50_k_down_right.jpg
1036.217	1.750	1	control	LS3	h109_p34_i_up_right.jpg
1040.820	1.158	1	control	LS3	h108_p13_i_up_right.jpg
1045.407	0.966	1	control	LS3	h108_p27_k_up_left.jpg
1049.993	1.972	1	control	LS3	h109_p51_k_up_left.jpg
1054.596	1.379	1	control	LS3	h111_p16_i_up_left.jpg
1063.703	2.276	1	control	LS4	h35_p43_i_down_left.jpg
1068.289	1.684	1	control	LS4	h109_p35_i_up_right.jpg
1072.892	1.076	1	control	LS4	h108_p27_k_up_left.jpg
1077.479	2.498	1	control	LS4	h117_p31_i_up_left.jpg
1082.082	1.889	1	control	LS4	h108_p15_i_up_right.jpg
1086.668	1.298	1	control	LS4	h35_p50_k_down_right.jpg
1091.272	0.705	1	control	LS4	h111_p37_i_up_right.jpg
1095.858	2.111	1	control	LS4	h111_p47_k_up_left.jpg
1100.461	1.518	1	control	LS4	h117_p6_k_up_left.jpg
1105.048	0.925	1	control	LS4	h109_p51_k_up_left.jpg
1132.283	0.716	0	learning	LS1	h114_p35_k_up_right.jpg
1136.953	0.107	1	learning	LS1	h87_p9_k_up_left.jpg
1141.623	1.263	1	learning	LS1	h12_p4_k_down_left.jpg
1146.276	0.388	1	learning	LS1	h83_p29_k_up_right.jpg
1150.962	2.247	1	learning	LS1	h83_p29_k_up_right.jpg
1155.632	1.701	1	learning	LS1	h114_p35_k_up_right.jpg
1160.302	0.741	1	learning	LS1	h87_p9_k_up_left.jpg
1164.972	0.116	1	learning	LS1	h12_p4_k_down_left.jpg
1169.625	1.637	1	learning	LS1	h28_p46_k_down_right.jpg
1174.295	0.912	1	learning	LS1	h28_p46_k_down_right.jpg
1183.485	1.225	1	learning	LS2	h87_p9_k_up_left.jpg
1188.138	0.833	1	learning	LS2	h12_p4_k_down_left.jpg
1192.791	0.341	1	learning	LS2	h87_p9_k_up_left.jpg
1197.461	1.830	1	learning	LS2	h114_p35_k_up_right.jpg
1202.131	1.055	1	learning	LS2	h114_p35_k_up_right.jpg
1206.801	0.229	1	learning	LS2	h28_p46_k_down_right.jpg
1211.470	1.618	1	learning	LS2	h12_p4_k_down_left.jpg
1216.140	0.593	1	learning	LS2	h83_p29_k_up_right.jpg
1220.793	1.651	1	learning	LS2	h83_p29_k_up_right.jpg
1225.463	1.473	1	learning	LS2	h28_p46_k_down_right.jpg
1234.653	0.589	1	learning	LS3	h28_p46_k_down_right.jpg
1239.339	1.370	1	learning	LS3	h83_p29_k_up_right.jpg
1244.026	1.436	1	learning	LS3	h114_p35_k_up_right.jpg
1248.679	0.394	1	learning	LS3	h12_p4_k_down_left.jpg
1253.349	0.846	1	learning	LS3	h28_p46_k_down_right.jpg
1258.002	1.074	1	learning	LS3	h114_p35_k_up_right.jpg
1262.672	0.366	1	learning	LS3	h87_p9_k_up_left.jpg
1267.325	0.756	1	learning	LS3	h87_p9_k_up_left.jpg
1271.978	1.313	1	learning	LS3	h83_p29_k_up_right.jpg
1276.632	0.171	1	learning	LS3	h12_p4_k_down_left.jpg
1285.804	1.317	1	learning	LS4	h28_p46_k_down_right.jpg
1290.474	0.793	1	learning	LS4	h114_p35_k_up_right.jpg
1295.128	0.284	1	learning	LS4	h83_p29_k_up_right.jpg
1299.797	1.222	1	learning	LS4	h12_p4_k_down_left.jpg
1304.451	0.648	1	learning	LS4	h83_p29_k_up_right.jpg
1309.104	1.099	1	learning	LS4	h12_p4_k_down_left.jpg
1313.757	1.545	1	learning	LS4	h28_p46_k_down_right.jpg
1318.410	0.719	1	learning	LS4	h87_p9_k_up_left.jpg
1323.080	0.094	1	learning	LS4	h87_p9_k_up_left.jpg
1327.750	1.483	1	learning	LS4	h114_p35_k_up_right.jpg
1354.985	1.062	0	learning	LS1	h107_p42_k_up_right.jpg
1359.638	1.384	1	learning	LS1	h109_p51_k_up_left.jpg
1364.325	0.509	0	learning	LS1	h11_p43_k_down_left.jpg
1369.011	0.200	0	learning	LS1	h42_p5_k_down_left.jpg
1373.681	0.856	1	learning	LS1	h107_p42_k_up_right.jpg
1378.351	0.648	1	learning	LS1	h42_p5_k_down_left.jpg
1383.038	1.486	0	learning	LS1	h111_p47_k_up_left.jpg
1387.691	1.211	1	learning	LS1	h109_p51_k_up_left.jpg
1392.361	0.686	1	learning	LS1	h111_p47_k_up_left.jpg
1397.014	0.980	1	learning	LS1	h11_p43_k_down_left.jpg
1406.187	0.924	1	learning	LS2	h109_p51_k_up_left.jpg
1410.857	1.391	1	learning	LS2	h107_p42_k_up_right.jpg
1415.526	1.304	1	learning	LS2	h111_p47_k_up_left.jpg
1420.196	1.013	1	learning	LS2	h11_p43_k_down_left.jpg
1424.866	0.104	1	learning	LS2	h109_p51_k_up_left.jpg
1429.553	1.510	1	learning	LS2	h107_p42_k_up_right.jpg
1434.223	0.751	1	learning	LS2	h42_p5_k_down_left.jpg
1438.892	0.376	1	learning	LS2	h111_p47_k_up_left.jpg
1443.562	1.497	1	learning	LS2	h11_p43_k_down_left.jpg
1448.249	0.972	1	learning	LS2	h42_p5_k_down_left.jpg
1457.422	0.958	1	learning	LS3	h42_p5_k_down_left.jpg
1462.075	0.694	1	learning	LS3	h107_p42_k_up_right.jpg
1466.728	0.435	1	learning	LS3	h11_p43_k_down_left.jpg
1471.398	0.964	1	learning	LS3	h111_p47_k_up_left.jpg
1476.068	1.133	1	learning	LS3	h109_p51_k_up_left.jpg
1480.738	0.240	1	learning	LS3	h42_p5_k_down_left.jpg
1485.391	0.713	1	learning	LS3	h109_p51_k_up_left.jpg
1490.061	0.887	1	learning	LS3	h107_p42_k_up_right.jpg
1494.714	0.395	1	learning	LS3	h111_p47_k_up_left.jpg
1499.384	0.291	0	learning	LS3	h11_p43_k_down_left.jpg
1508.573	0.650	1	learning	LS4	h111_p47_k_up_left.jpg
1513.243	0.888	1	learning	LS4	h42_p5_k_down_left.jpg
1517.913	1.397	1	learning	LS4	h109_p51_k_up_left.jpg
1522.583	0.622	1	learning	LS4	h42_p5_k_down_left.jpg
1527.253	0.813	1	learning	LS4	h111_p47_k_up_left.jpg
1531.906	1.185	1	learning	LS4	h109_p51_k_up_left.jpg
1536.576	0.160	1	learning	LS4	h107_p42_k_up_right.jpg
1541.229	1.011	1	learning	LS4	h11_p43_k_down_left.jpg
1545.899	1.341	1	learning	LS4	h107_p42_k_up_right.jpg
1550.552	0.666	1	learning	LS4	h11_p43_k_down_left.jpg
1577.787	1.258	1	learning	LS1	h85_p11_k_up_left.jpg
1582.457	0.383	1	learning	LS1	h18_p7_k_down_right.jpg
1587.127	1.627	0	learning	LS1	h108_p27_k_up_left.jpg
1591.814	1.029	1	learning	LS1	h35_p50_k_down_right.jpg
1596.467	0.571	1	learning	LS1	h85_p11_k_up_left.jpg
1601.137	1.424	1	learning	LS1	h18_p7_k_down_right.jpg
1605.790	1.118	0	learning	LS1	h108_p27_k_up_left.jpg
1610.460	0.493	1	learning	LS1	h48_p41_k_down_right.jpg
1615.130	1.142	1	learning	LS1	h35_p50_k_down_right.jpg
1619.783	1.540	1	learning	LS1	h48_p41_k_down_right.jpg
1628.972	1.234	1	learning	LS2	h108_p27_k_up_left.jpg
1633.642	1.295	1	learning	LS2	h48_p41_k_down_right.jpg
1638.312	0.635	1	learning	LS2	h85_p11_k_up_left.jpg
1642.982	1.046	1	learning	LS2	h18_p7_k_down_right.jpg
1647.652	1.716	1	learning	LS2	h48_p41_k_down_right.jpg
1652.338	0.857	1	learning	LS2	h85_p11_k_up_left.jpg
1657.025	1.048	1	learning	LS2	h18_p7_k_down_right.jpg
1661.695	1.820	1	learning	LS2	h35_p50_k_down_right.jpg
1666.348	0.862	1	learning	LS2	h108_p27_k_up_left.jpg
1671.001	0.053	1	learning	LS2	h35_p50_k_down_right.jpg
1680.191	0.950	1	learning	LS3	h35_p50_k_down_right.jpg
1684.861	0.191	1	learning	LS3	h108_p27_k_up_left.jpg
1689.514	1.429	1	learning	LS3	h35_p50_k_down_right.jpg
1694.167	0.787	1	learning	LS3	h85_p11_k_up_left.jpg
1698.837	0.362	1	learning	LS3	h48_p41_k_down_right.jpg
1703.490	1.634	1	learning	LS3	h18_p7_k_down_right.jpg
1708.160	1.058	1	learning	LS3	h85_p11_k_up_left.jpg
1712.813	1.202	1	learning	LS3	h18_p7_k_down_right.jpg
1717.483	1.788	0	learning	LS3	h48_p41_k_down_right.jpg
1722.153	1.113	1	learning	LS3	h108_p27_k_up_left.jpg
1731.326	1.112	1	learning	LS4	h48_p41_k_down_right.jpg
1735.979	1.167	0	learning	LS4	h35_p50_k_down_right.jpg
1740.665	0.342	1	learning	LS4	h108_p27_k_up_left.jpg
1745.352	1.036	1	learning	LS4	h18_p7_k_down_right.jpg
1750.022	1.172	1	learning	LS4	h85_p11_k_up_left.jpg
1754.708	0.564	1	learning	LS4	h108_p27_k_up_left.jpg
1759.378	0.752	1	learning	LS4	h48_p41_k_down_right.jpg
1764.031	1.110	1	learning	LS4	h85_p11_k_up_left.jpg
1768.718	0.268	1	learning	LS4	h18_p7_k_down_right.jpg
1773.388	0.868	1	learning	LS4	h35_p50_k_down_right.jpg
