onset	duration	response_time_ms	trial_type	learning_stage	stimulus	response_port
0.0	1.431	1430.9	generate	Run1	generate/STIM_000.jpg	100
4.336	1.471	1470.7	generate	Run1	generate/STIM_000.jpg	99
7.93	1.186	1185.8	generate	Run1	generate/STIM_000.jpg	99
11.703	1.89	1889.8	generate	Run1	generate/STIM_000.jpg	100
17.398	1.991	1991.1	generate	Run1	generate/STIM_000.jpg	100
21.712	1.974	1974.0	generate	Run1	generate/STIM_001.jpg	100
27.026	1.541	1541.4	generate	Run1	generate/STIM_001.jpg	99
32.308	2.61	2609.6	generate	Run1	generate/STIM_001.jpg	99
38.836	2.0	2000.4	generate	Run1	generate/STIM_001.jpg	99
44.215	1.668	1668.4	generate	Run1	generate/STIM_001.jpg	99
49.068	2.868	2868.4	generate	Run1	generate/STIM_002.jpg	100
55.988	2.108	2107.5	generate	Run1	generate/STIM_002.jpg	100
61.258	2.539	2539.2	generate	Run1	generate/STIM_002.jpg	99
66.863	2.361	2361.1	generate	Run1	generate/STIM_002.jpg	100
72.507	1.933	1932.9	generate	Run1	generate/STIM_002.jpg	100
77.56	1.306	1305.8	generate	Run1	generate/STIM_003.jpg	100
82.106	1.502	1501.7	generate	Run1	generate/STIM_003.jpg	99
85.655	2.37	2369.6	generate	Run1	generate/STIM_003.jpg	100
90.833	2.381	2381.1	generate	Run1	generate/STIM_003.jpg	99
96.313	2.138	2137.7	generate	Run1	generate/STIM_003.jpg	99
101.248	1.528	1527.5	generate	Run1	generate/STIM_004.jpg	99
106.17	1.6	1599.7	generate	Run1	generate/STIM_004.jpg	99
110.521	1.718	1717.8	generate	Run1	generate/STIM_004.jpg	100
114.403	1.81	1809.5	generate	Run1	generate/STIM_004.jpg	100
118.899	1.964	1963.7	generate	Run1	generate/STIM_004.jpg	100
123.575	2.715	2714.7	generate	Run1	generate/STIM_005.jpg	100
129.266	2.225	2225.2	generate	Run1	generate/STIM_005.jpg	100
134.489	2.06	2060.0	generate	Run1	generate/STIM_005.jpg	99
138.877	1.744	1744.0	generate	Run1	generate/STIM_005.jpg	99
144.266	1.28	1280.5	generate	Run1	generate/STIM_005.jpg	100
147.834	1.855	1854.7	generate	Run1	generate/STIM_006.jpg	100
152.327	1.2	1200.3	generate	Run1	generate/STIM_006.jpg	100
157.317	1.912	1912.0	generate	Run1	generate/STIM_006.jpg	100
162.293	1.597	1596.7	generate	Run1	generate/STIM_006.jpg	99
166.113	1.542	1541.5	generate	Run1	generate/STIM_006.jpg	99
171.097	2.471	2470.7	generate	Run1	generate/STIM_007.jpg	100
176.235	2.526	2525.5	generate	Run1	generate/STIM_007.jpg	99
181.603	1.505	1504.7	generate	Run1	generate/STIM_007.jpg	99
186.736	1.894	1893.6	generate	Run1	generate/STIM_007.jpg	100
190.957	1.396	1396.0	generate	Run1	generate/STIM_007.jpg	100
196.14	2.33	2330.4	generate	Run1	generate/STIM_008.jpg	99
201.901	1.117	1116.8	generate	Run1	generate/STIM_008.jpg	99
205.126	1.408	1408.5	generate	Run1	generate/STIM_008.jpg	99
210.066	1.335	1334.9	generate	Run1	generate/STIM_008.jpg	99
215.366	2.142	2141.9	generate	Run1	generate/STIM_008.jpg	99
220.637	1.351	1350.6	generate	Run1	generate/STIM_009.jpg	100
224.051	2.085	2084.8	generate	Run1	generate/STIM_009.jpg	100
228.52	2.447	2447.2	generate	Run1	generate/STIM_009.jpg	99
235.015	1.531	1531.2	generate	Run1	generate/STIM_009.jpg	99
238.728	2.181	2181.1	generate	Run1	generate/STIM_009.jpg	100
243.444	2.407	2406.7	generate	Run1	generate/STIM_010.jpg	100
248.782	1.602	1601.8	generate	Run1	generate/STIM_010.jpg	99
254.02	1.528	1527.8	generate	Run1	generate/STIM_010.jpg	100
258.178	1.903	1903.2	generate	Run1	generate/STIM_010.jpg	100
263.934	1.307	1307.1	generate	Run1	generate/STIM_010.jpg	100
267.56	2.497	2496.7	generate	Run1	generate/STIM_011.jpg	99
272.937	1.117	1117.3	generate	Run1	generate/STIM_011.jpg	100
277.517	2.094	2093.5	generate	Run1	generate/STIM_011.jpg	99
281.716	1.576	1576.4	generate	Run1	generate/STIM_011.jpg	100
286.516	2.011	2011.0	generate	Run1	generate/STIM_011.jpg	99
292.032	1.939	1939.4	generate	Run1	generate/STIM_012.jpg	99
297.818	1.644	1643.9	generate	Run1	generate/STIM_012.jpg	100
302.309	1.865	1865.3	generate	Run1	generate/STIM_012.jpg	100
307.152	1.603	1603.4	generate	Run1	generate/STIM_012.jpg	99
312.085	1.463	1463.1	generate	Run1	generate/STIM_012.jpg	99
317.328	2.495	2495.4	generate	Run1	generate/STIM_013.jpg	100
323.241	2.398	2398.2	generate	Run1	generate/STIM_013.jpg	100
329.425	1.96	1960.0	generate	Run1	generate/STIM_013.jpg	100
334.398	2.047	2046.6	generate	Run1	generate/STIM_013.jpg	100
339.882	1.088	1087.5	generate	Run1	generate/STIM_013.jpg	99
344.212	2.561	2561.0	generate	Run1	generate/STIM_014.jpg	100
349.408	1.607	1607.2	generate	Run1	generate/STIM_014.jpg	99
354.001	1.287	1287.1	generate	Run1	generate/STIM_014.jpg	99
359.172	1.032	1031.5	generate	Run1	generate/STIM_014.jpg	99
362.252	1.083	1082.9	generate	Run1	generate/STIM_014.jpg	99
365.924	1.364	1364.2	generate	Run1	generate/STIM_015.jpg	100
370.382	1.386	1385.5	generate	Run1	generate/STIM_015.jpg	99
374.053	2.427	2426.8	generate	Run1	generate/STIM_015.jpg	100
380.147	1.981	1981.4	generate	Run1	generate/STIM_015.jpg	99
384.239	1.708	1708.5	generate	Run1	generate/STIM_015.jpg	100
388.582	2.55	2549.9	generate	Run1	generate/STIM_016.jpg	99
393.411	1.206	1205.7	generate	Run1	generate/STIM_016.jpg	99
397.788	2.506	2506.2	generate	Run1	generate/STIM_016.jpg	99
403.659	2.216	2215.9	generate	Run1	generate/STIM_016.jpg	99
408.492	0.972	972.4	generate	Run1	generate/STIM_016.jpg	99
412.166	2.604	2604.0	generate	Run1	generate/STIM_017.jpg	100
417.26	1.917	1917.3	generate	Run1	generate/STIM_017.jpg	100
421.605	1.138	1138.1	generate	Run1	generate/STIM_017.jpg	100
425.889	1.316	1316.2	generate	Run1	generate/STIM_017.jpg	100
429.404	1.678	1678.0	generate	Run1	generate/STIM_017.jpg	100
434.991	1.558	1557.6	generate	Run1	generate/STIM_018.jpg	99
438.775	1.864	1864.0	generate	Run1	generate/STIM_018.jpg	99
444.095	2.279	2279.1	generate	Run1	generate/STIM_018.jpg	100
449.066	2.339	2339.1	generate	Run1	generate/STIM_018.jpg	99
454.436	2.118	2117.6	generate	Run1	generate/STIM_018.jpg	100
460.205	1.4	1399.8	generate	Run1	generate/STIM_019.jpg	100
464.858	2.213	2213.4	generate	Run1	generate/STIM_019.jpg	99
470.624	2.074	2073.9	generate	Run1	generate/STIM_019.jpg	99
476.339	1.949	1949.2	generate	Run1	generate/STIM_019.jpg	100
482.246	1.105	1104.9	generate	Run1	generate/STIM_019.jpg	99
485.612	1.699	1699.1	generate	Run1	generate/STIM_020.jpg	100
490.123	1.863	1862.8	generate	Run1	generate/STIM_020.jpg	100
494.442	1.686	1685.9	generate	Run1	generate/STIM_020.jpg	99
499.679	1.396	1395.8	generate	Run1	generate/STIM_020.jpg	99
504.684	2.293	2292.6	generate	Run1	generate/STIM_020.jpg	100
509.105	1.945	1944.9	generate	Run1	generate/STIM_021.jpg	99
514.683	2.665	2664.9	generate	Run1	generate/STIM_021.jpg	100
519.82	1.555	1555.1	generate	Run1	generate/STIM_021.jpg	99
523.495	1.546	1546.1	generate	Run1	generate/STIM_021.jpg	100
528.781	2.298	2298.4	generate	Run1	generate/STIM_021.jpg	99
533.719	2.01	2009.5	generate	Run1	generate/STIM_022.jpg	100
539.075	2.466	2465.9	generate	Run1	generate/STIM_022.jpg	100
545.277	1.858	1857.7	generate	Run1	generate/STIM_022.jpg	99
550.017	1.961	1960.8	generate	Run1	generate/STIM_022.jpg	99
554.437	1.154	1154.1	generate	Run1	generate/STIM_022.jpg	100
558.581	1.441	1441.3	generate	Run1	generate/STIM_023.jpg	100
562.422	1.547	1547.0	generate	Run1	generate/STIM_023.jpg	100
566.604	2.624	2623.6	generate	Run1	generate/STIM_023.jpg	100
573.15	1.106	1105.6	generate	Run1	generate/STIM_023.jpg	99
576.459	1.436	1435.6	generate	Run1	generate/STIM_023.jpg	100
579.974	2.59	2589.5	generate	Run1	generate/STIM_024.jpg	100
586.263	1.258	1258.2	generate	Run1	generate/STIM_024.jpg	100
590.136	1.137	1136.6	generate	Run1	generate/STIM_024.jpg	99
594.157	1.035	1034.7	generate	Run1	generate/STIM_024.jpg	100
598.183	2.017	2017.3	generate	Run1	generate/STIM_024.jpg	99
603.339	0.535	534.7	repeat	Run1	repeat/STIM_000.jpg	99
607.249	0.782	781.8	repeat	Run1	repeat/STIM_000.jpg	100
611.762	0.609	609.3	repeat	Run1	repeat/STIM_000.jpg	100
615.991	0.971	971.2	repeat	Run1	repeat/STIM_000.jpg	99
619.748	0.835	835.4	repeat	Run1	repeat/STIM_000.jpg	99
622.868	0.872	872.5	repeat	Run1	repeat/STIM_001.jpg	99
627.526	0.538	538.3	repeat	Run1	repeat/STIM_001.jpg	100
630.178	0.879	878.8	repeat	Run1	repeat/STIM_001.jpg	100
634.971	0.641	640.8	repeat	Run1	repeat/STIM_001.jpg	99
637.902	0.532	531.5	repeat	Run1	repeat/STIM_001.jpg	100
641.25	0.867	866.6	repeat	Run1	repeat/STIM_002.jpg	99
645.928	0.84	840.3	repeat	Run1	repeat/STIM_002.jpg	100
649.109	0.578	578.4	repeat	Run1	repeat/STIM_002.jpg	99
653.607	0.546	546.4	repeat	Run1	repeat/STIM_002.jpg	100
657.065	0.575	574.9	repeat	Run1	repeat/STIM_002.jpg	100
661.462	0.676	675.6	repeat	Run1	repeat/STIM_003.jpg	99
665.74	0.734	733.9	repeat	Run1	repeat/STIM_003.jpg	100
669.996	0.561	560.6	repeat	Run1	repeat/STIM_003.jpg	100
673.353	0.508	508.1	repeat	Run1	repeat/STIM_003.jpg	100
677.218	0.514	513.9	repeat	Run1	repeat/STIM_003.jpg	99
681.446	0.947	946.8	repeat	Run1	repeat/STIM_004.jpg	99
685.13	0.681	680.9	repeat	Run1	repeat/STIM_004.jpg	100
689.77	0.584	584.4	repeat	Run1	repeat/STIM_004.jpg	99
694.131	0.834	833.8	repeat	Run1	repeat/STIM_004.jpg	100
697.14	0.615	615.4	repeat	Run1	repeat/STIM_004.jpg	100
700.938	0.641	641.4	repeat	Run1	repeat/STIM_005.jpg	99
703.709	0.52	519.9	repeat	Run1	repeat/STIM_005.jpg	99
706.838	0.963	963.3	repeat	Run1	repeat/STIM_005.jpg	100
711.828	0.503	502.8	repeat	Run1	repeat/STIM_005.jpg	99
715.007	0.835	834.8	repeat	Run1	repeat/STIM_005.jpg	100
719.54	0.893	893.1	repeat	Run1	repeat/STIM_006.jpg	100
723.26	0.69	690.3	repeat	Run1	repeat/STIM_006.jpg	100
727.791	0.566	566.4	repeat	Run1	repeat/STIM_006.jpg	99
731.669	0.7	700.3	repeat	Run1	repeat/STIM_006.jpg	99
735.14	0.694	694.4	repeat	Run1	repeat/STIM_006.jpg	99
739.089	0.82	819.7	repeat	Run1	repeat/STIM_007.jpg	100
742.937	0.776	775.8	repeat	Run1	repeat/STIM_007.jpg	99
746.481	0.634	634.5	repeat	Run1	repeat/STIM_007.jpg	99
749.675	0.616	616.1	repeat	Run1	repeat/STIM_007.jpg	99
754.024	0.764	763.5	repeat	Run1	repeat/STIM_007.jpg	100
757.893	0.604	604.3	repeat	Run1	repeat/STIM_008.jpg	99
761.011	0.569	568.9	repeat	Run1	repeat/STIM_008.jpg	100
764.178	0.538	537.6	repeat	Run1	repeat/STIM_008.jpg	100
767.727	0.952	951.6	repeat	Run1	repeat/STIM_008.jpg	100
772.113	0.97	969.7	repeat	Run1	repeat/STIM_008.jpg	99
776.648	0.553	553.1	repeat	Run1	repeat/STIM_009.jpg	100
780.97	0.52	520.4	repeat	Run1	repeat/STIM_009.jpg	100
785.453	0.541	540.8	repeat	Run1	repeat/STIM_009.jpg	100
789.346	0.488	488.4	repeat	Run1	repeat/STIM_009.jpg	100
793.34	0.785	785.2	repeat	Run1	repeat/STIM_009.jpg	100
797.173	0.79	789.6	repeat	Run1	repeat/STIM_010.jpg	100
801.351	0.709	708.9	repeat	Run1	repeat/STIM_010.jpg	100
804.85	0.92	919.9	repeat	Run1	repeat/STIM_010.jpg	99
808.293	0.59	590.5	repeat	Run1	repeat/STIM_010.jpg	99
811.628	0.638	638.0	repeat	Run1	repeat/STIM_010.jpg	100
816.26	0.778	778.4	repeat	Run1	repeat/STIM_011.jpg	100
821.044	0.727	727.0	repeat	Run1	repeat/STIM_011.jpg	99
824.891	0.828	828.5	repeat	Run1	repeat/STIM_011.jpg	100
828.39	0.714	714.3	repeat	Run1	repeat/STIM_011.jpg	99
832.392	0.728	727.5	repeat	Run1	repeat/STIM_011.jpg	100
836.539	0.824	824.0	repeat	Run1	repeat/STIM_012.jpg	99
840.115	0.955	955.2	repeat	Run1	repeat/STIM_012.jpg	99
844.545	0.554	554.5	repeat	Run1	repeat/STIM_012.jpg	99
848.254	0.79	790.2	repeat	Run1	repeat/STIM_012.jpg	99
851.191	0.569	569.1	repeat	Run1	repeat/STIM_012.jpg	100
855.078	0.617	616.6	repeat	Run1	repeat/STIM_013.jpg	99
858.939	0.84	839.9	repeat	Run1	repeat/STIM_013.jpg	99
863.443	0.554	553.9	repeat	Run1	repeat/STIM_013.jpg	100
866.239	0.647	647.4	repeat	Run1	repeat/STIM_013.jpg	99
868.94	0.828	828.1	repeat	Run1	repeat/STIM_013.jpg	100
871.84	0.767	766.8	repeat	Run1	repeat/STIM_014.jpg	100
875.377	0.539	539.3	repeat	Run1	repeat/STIM_014.jpg	99
878.787	0.919	919.0	repeat	Run1	repeat/STIM_014.jpg	100
882.632	0.494	494.3	repeat	Run1	repeat/STIM_014.jpg	100
886.569	0.864	864.3	repeat	Run1	repeat/STIM_014.jpg	100
890.649	1.357	1356.7	generate	Run2	generate/STIM_000.jpg	100
895.027	1.282	1282.4	generate	Run2	generate/STIM_000.jpg	99
899.998	1.62	1620.2	generate	Run2	generate/STIM_000.jpg	100
904.675	1.013	1013.4	generate	Run2	generate/STIM_000.jpg	100
908.052	1.314	1314.2	generate	Run2	generate/STIM_000.jpg	99
913.335	1.58	1579.9	generate	Run2	generate/STIM_001.jpg	99
917.243	2.019	2018.8	generate	Run2	generate/STIM_001.jpg	99
923.008	2.041	2040.5	generate	Run2	generate/STIM_001.jpg	99
927.994	1.869	1869.1	generate	Run2	generate/STIM_001.jpg	100
933.068	1.992	1991.6	generate	Run2	generate/STIM_001.jpg	99
937.383	1.007	1006.8	generate	Run2	generate/STIM_002.jpg	99
941.606	1.055	1054.8	generate	Run2	generate/STIM_002.jpg	99
944.837	1.074	1074.0	generate	Run2	generate/STIM_002.jpg	99
947.942	1.021	1020.9	generate	Run2	generate/STIM_002.jpg	100
952.834	1.346	1345.5	generate	Run2	generate/STIM_002.jpg	99
958.018	1.825	1824.7	generate	Run2	generate/STIM_003.jpg	100
963.283	1.227	1227.2	generate	Run2	generate/STIM_003.jpg	99
967.247	2.15	2150.3	generate	Run2	generate/STIM_003.jpg	99
973.148	1.965	1964.9	generate	Run2	generate/STIM_003.jpg	100
978.705	0.862	861.9	generate	Run2	generate/STIM_003.jpg	99
982.403	2.376	2375.5	generate	Run2	generate/STIM_004.jpg	100
987.125	2.0	1999.5	generate	Run2	generate/STIM_004.jpg	100
992.985	1.409	1409.0	generate	Run2	generate/STIM_004.jpg	100
998.085	1.18	1180.0	generate	Run2	generate/STIM_004.jpg	100
1003.279	1.497	1497.4	generate	Run2	generate/STIM_004.jpg	100
1006.835	1.647	1647.4	generate	Run2	generate/STIM_005.jpg	99
1010.838	1.015	1014.9	generate	Run2	generate/STIM_005.jpg	99
1015.215	2.112	2112.3	generate	Run2	generate/STIM_005.jpg	99
1020.664	1.177	1176.9	generate	Run2	generate/STIM_005.jpg	100
1025.555	1.2	1199.8	generate	Run2	generate/STIM_005.jpg	99
1029.934	1.984	1984.0	generate	Run2	generate/STIM_006.jpg	99
1034.606	1.336	1335.6	generate	Run2	generate/STIM_006.jpg	99
1039.784	1.809	1809.2	generate	Run2	generate/STIM_006.jpg	100
1044.106	1.373	1373.2	generate	Run2	generate/STIM_006.jpg	99
1049.3	1.558	1558.4	generate	Run2	generate/STIM_006.jpg	99
1054.701	1.451	1451.3	generate	Run2	generate/STIM_007.jpg	100
1059.303	1.506	1506.2	generate	Run2	generate/STIM_007.jpg	99
1063.552	1.486	1486.4	generate	Run2	generate/STIM_007.jpg	99
1068.245	1.304	1304.2	generate	Run2	generate/STIM_007.jpg	100
1072.321	1.606	1606.2	generate	Run2	generate/STIM_007.jpg	100
1076.604	2.005	2004.9	generate	Run2	generate/STIM_008.jpg	100
1081.678	2.074	2074.4	generate	Run2	generate/STIM_008.jpg	100
1086.981	1.048	1048.5	generate	Run2	generate/STIM_008.jpg	99
1091.988	0.982	981.9	generate	Run2	generate/STIM_008.jpg	99
1096.289	1.426	1426.2	generate	Run2	generate/STIM_008.jpg	100
1099.842	1.734	1733.9	generate	Run2	generate/STIM_009.jpg	99
1105.432	1.447	1446.9	generate	Run2	generate/STIM_009.jpg	100
1109.1	1.715	1715.3	generate	Run2	generate/STIM_009.jpg	99
1113.075	1.048	1048.0	generate	Run2	generate/STIM_009.jpg	99
1116.24	1.093	1092.7	generate	Run2	generate/STIM_009.jpg	100
1119.944	1.716	1716.5	generate	Run2	generate/STIM_010.jpg	99
1125.139	1.036	1035.7	generate	Run2	generate/STIM_010.jpg	100
1129.453	0.949	948.6	generate	Run2	generate/STIM_010.jpg	99
1133.158	1.015	1014.8	generate	Run2	generate/STIM_010.jpg	99
1136.333	0.851	850.6	generate	Run2	generate/STIM_010.jpg	100
1141.082	1.025	1025.1	generate	Run2	generate/STIM_011.jpg	99
1145.528	1.138	1137.7	generate	Run2	generate/STIM_011.jpg	99
1149.039	2.178	2178.5	generate	Run2	generate/STIM_011.jpg	99
1154.813	1.662	1662.5	generate	Run2	generate/STIM_011.jpg	99
1159.786	1.113	1112.7	generate	Run2	generate/STIM_011.jpg	99
1164.305	2.32	2320.2	generate	Run2	generate/STIM_012.jpg	99
1168.902	1.687	1686.9	generate	Run2	generate/STIM_012.jpg	99
1173.523	1.816	1815.8	generate	Run2	generate/STIM_012.jpg	100
1177.71	1.275	1275.2	generate	Run2	generate/STIM_012.jpg	100
1182.878	1.804	1803.6	generate	Run2	generate/STIM_012.jpg	100
1188.502	1.245	1244.6	generate	Run2	generate/STIM_013.jpg	99
1191.975	1.367	1367.2	generate	Run2	generate/STIM_013.jpg	99
1196.94	2.145	2145.2	generate	Run2	generate/STIM_013.jpg	100
1201.639	0.988	987.6	generate	Run2	generate/STIM_013.jpg	100
1204.966	1.243	1243.2	generate	Run2	generate/STIM_013.jpg	100
1208.276	1.776	1775.5	generate	Run2	generate/STIM_014.jpg	100
1212.43	1.303	1303.3	generate	Run2	generate/STIM_014.jpg	99
1216.539	1.688	1688.4	generate	Run2	generate/STIM_014.jpg	100
1220.657	1.923	1923.4	generate	Run2	generate/STIM_014.jpg	100
1226.449	1.46	1459.9	generate	Run2	generate/STIM_014.jpg	99
1231.823	1.948	1947.5	generate	Run2	generate/STIM_015.jpg	100
1236.252	1.748	1748.1	generate	Run2	generate/STIM_015.jpg	99
1240.62	1.903	1903.3	generate	Run2	generate/STIM_015.jpg	99
1245.397	1.431	1431.4	generate	Run2	generate/STIM_015.jpg	100
1249.365	1.637	1636.7	generate	Run2	generate/STIM_015.jpg	100
1254.243	1.421	1420.7	generate	Run2	generate/STIM_016.jpg	100
1258.776	1.425	1424.7	generate	Run2	generate/STIM_016.jpg	99
1263.518	2.062	2062.4	generate	Run2	generate/STIM_016.jpg	99
1268.164	1.867	1867.0	generate	Run2	generate/STIM_016.jpg	100
1273.545	2.031	2031.1	generate	Run2	generate/STIM_016.jpg	99
1279.224	2.268	2267.7	generate	Run2	generate/STIM_017.jpg	99
1284.591	1.052	1052.0	generate	Run2	generate/STIM_017.jpg	99
1288.355	1.869	1868.7	generate	Run2	generate/STIM_017.jpg	100
1293.916	1.851	1851.4	generate	Run2	generate/STIM_017.jpg	99
1298.118	1.769	1768.7	generate	Run2	generate/STIM_017.jpg	99
1302.223	1.154	1154.1	generate	Run2	generate/STIM_018.jpg	99
1306.315	1.504	1504.1	generate	Run2	generate/STIM_018.jpg	99
1310.848	2.107	2106.6	generate	Run2	generate/STIM_018.jpg	99
1315.421	1.077	1077.1	generate	Run2	generate/STIM_018.jpg	99
1318.772	1.474	1474.3	generate	Run2	generate/STIM_018.jpg	99
1323.281	2.099	2099.3	generate	Run2	generate/STIM_019.jpg	100
1329.082	1.76	1760.3	generate	Run2	generate/STIM_019.jpg	100
1334.318	0.901	900.8	generate	Run2	generate/STIM_019.jpg	99
1337.678	1.822	1821.8	generate	Run2	generate/STIM_019.jpg	100
1342.166	1.425	1424.9	generate	Run2	generate/STIM_019.jpg	99
1346.832	2.272	2271.5	generate	Run2	generate/STIM_020.jpg	100
1351.615	2.101	2101.3	generate	Run2	generate/STIM_020.jpg	99
1356.713	1.55	1549.7	generate	Run2	generate/STIM_020.jpg	99
1361.538	1.749	1748.8	generate	Run2	generate/STIM_020.jpg	100
1367.002	1.361	1360.8	generate	Run2	generate/STIM_020.jpg	100
1370.487	2.475	2475.4	generate	Run2	generate/STIM_021.jpg	100
1375.651	1.379	1378.9	generate	Run2	generate/STIM_021.jpg	99
1380.934	1.503	1502.8	generate	Run2	generate/STIM_021.jpg	99
1384.519	1.389	1388.7	generate	Run2	generate/STIM_021.jpg	99
1388.486	1.357	1356.6	generate	Run2	generate/STIM_021.jpg	100
1393.119	2.458	2457.6	generate	Run2	generate/STIM_022.jpg	99
1399.538	1.063	1063.3	generate	Run2	generate/STIM_022.jpg	100
1402.781	1.743	1742.7	generate	Run2	generate/STIM_022.jpg	100
1407.889	1.746	1746.5	generate	Run2	generate/STIM_022.jpg	99
1413.051	2.023	2022.8	generate	Run2	generate/STIM_022.jpg	99
1417.906	1.99	1989.7	generate	Run2	generate/STIM_023.jpg	99
1423.248	2.079	2078.6	generate	Run2	generate/STIM_023.jpg	99
1427.62	1.7	1699.8	generate	Run2	generate/STIM_023.jpg	100
1431.47	1.018	1018.1	generate	Run2	generate/STIM_023.jpg	100
1435.835	1.267	1267.2	generate	Run2	generate/STIM_023.jpg	100
1440.596	1.685	1685.0	generate	Run2	generate/STIM_024.jpg	100
1445.551	1.098	1098.5	generate	Run2	generate/STIM_024.jpg	99
1449.406	1.707	1706.7	generate	Run2	generate/STIM_024.jpg	99
1453.292	1.718	1717.6	generate	Run2	generate/STIM_024.jpg	99
1457.693	1.92	1920.0	generate	Run2	generate/STIM_024.jpg	100
1462.001	0.752	751.5	repeat	Run2	repeat/STIM_000.jpg	100
1466.165	0.69	689.8	repeat	Run2	repeat/STIM_000.jpg	100
1470.128	0.642	642.0	repeat	Run2	repeat/STIM_000.jpg	99
1474.295	0.957	957.4	repeat	Run2	repeat/STIM_000.jpg	99
1478.34	0.639	639.4	repeat	Run2	repeat/STIM_000.jpg	100
1482.044	0.616	616.1	repeat	Run2	repeat/STIM_001.jpg	100
1485.704	0.886	885.6	repeat	Run2	repeat/STIM_001.jpg	99
1488.899	0.924	923.9	repeat	Run2	repeat/STIM_001.jpg	100
1493.551	0.71	710.4	repeat	Run2	repeat/STIM_001.jpg	99
1496.617	0.777	776.9	repeat	Run2	repeat/STIM_001.jpg	99
1499.479	0.871	871.1	repeat	Run2	repeat/STIM_002.jpg	100
1503.7	0.734	733.8	repeat	Run2	repeat/STIM_002.jpg	100
1508.416	0.936	936.3	repeat	Run2	repeat/STIM_002.jpg	100
1512.748	0.688	688.3	repeat	Run2	repeat/STIM_002.jpg	100
1516.362	0.826	825.7	repeat	Run2	repeat/STIM_002.jpg	100
1519.707	0.729	729.3	repeat	Run2	repeat/STIM_003.jpg	100
1524.201	0.751	751.1	repeat	Run2	repeat/STIM_003.jpg	100
1527.975	0.817	817.4	repeat	Run2	repeat/STIM_003.jpg	100
1531.988	0.615	614.9	repeat	Run2	repeat/STIM_003.jpg	100
1535.2	0.947	947.4	repeat	Run2	repeat/STIM_003.jpg	100
1539.363	0.886	885.9	repeat	Run2	repeat/STIM_004.jpg	100
1542.795	0.807	806.9	repeat	Run2	repeat/STIM_004.jpg	99
1547.363	0.827	826.7	repeat	Run2	repeat/STIM_004.jpg	100
1551.332	0.908	908.3	repeat	Run2	repeat/STIM_004.jpg	99
1555.699	0.647	646.9	repeat	Run2	repeat/STIM_004.jpg	99
1559.126	0.629	628.7	repeat	Run2	repeat/STIM_005.jpg	99
1563.293	0.6	599.6	repeat	Run2	repeat/STIM_005.jpg	100
1565.944	0.778	778.0	repeat	Run2	repeat/STIM_005.jpg	100
1569.377	0.816	816.3	repeat	Run2	repeat/STIM_005.jpg	100
1572.887	0.809	808.6	repeat	Run2	repeat/STIM_005.jpg	100
1577.051	0.627	627.0	repeat	Run2	repeat/STIM_006.jpg	100
1580.065	0.498	497.9	repeat	Run2	repeat/STIM_006.jpg	99
1584.155	0.701	700.9	repeat	Run2	repeat/STIM_006.jpg	100
1587.45	0.526	526.2	repeat	Run2	repeat/STIM_006.jpg	100
1590.686	0.551	551.0	repeat	Run2	repeat/STIM_006.jpg	100
1593.618	0.505	505.2	repeat	Run2	repeat/STIM_007.jpg	99
1596.36	0.605	605.3	repeat	Run2	repeat/STIM_007.jpg	100
1599.71	0.656	655.5	repeat	Run2	repeat/STIM_007.jpg	99
1604.223	0.548	548.3	repeat	Run2	repeat/STIM_007.jpg	99
1608.646	0.689	688.7	repeat	Run2	repeat/STIM_007.jpg	99
1612.73	0.586	585.7	repeat	Run2	repeat/STIM_008.jpg	100
1616.519	0.911	910.9	repeat	Run2	repeat/STIM_008.jpg	99
1619.901	0.73	729.8	repeat	Run2	repeat/STIM_008.jpg	99
1623.56	0.633	632.8	repeat	Run2	repeat/STIM_008.jpg	100
1626.778	0.739	738.6	repeat	Run2	repeat/STIM_008.jpg	99
1630.374	0.636	636.4	repeat	Run2	repeat/STIM_009.jpg	99
1634.276	0.897	897.0	repeat	Run2	repeat/STIM_009.jpg	100
1638.933	0.887	886.7	repeat	Run2	repeat/STIM_009.jpg	99
1642.169	0.699	699.3	repeat	Run2	repeat/STIM_009.jpg	100
1646.64	0.831	830.8	repeat	Run2	repeat/STIM_009.jpg	99
1650.427	0.84	840.5	repeat	Run2	repeat/STIM_010.jpg	99
1654.995	0.775	775.4	repeat	Run2	repeat/STIM_010.jpg	99
1659.392	0.728	728.2	repeat	Run2	repeat/STIM_010.jpg	99
1662.714	0.582	581.5	repeat	Run2	repeat/STIM_010.jpg	99
1666.574	0.522	521.5	repeat	Run2	repeat/STIM_010.jpg	99
1670.275	0.841	840.6	repeat	Run2	repeat/STIM_011.jpg	100
1673.678	0.776	775.6	repeat	Run2	repeat/STIM_011.jpg	99
1676.855	0.749	749.2	repeat	Run2	repeat/STIM_011.jpg	100
1681.066	0.685	684.8	repeat	Run2	repeat/STIM_011.jpg	100
1684.971	0.907	906.6	repeat	Run2	repeat/STIM_011.jpg	100
1688.6	0.49	489.9	repeat	Run2	repeat/STIM_012.jpg	99
1692.004	0.572	572.1	repeat	Run2	repeat/STIM_012.jpg	99
1695.903	0.554	554.0	repeat	Run2	repeat/STIM_012.jpg	100
1700.141	0.92	919.6	repeat	Run2	repeat/STIM_012.jpg	99
1704.236	0.63	629.9	repeat	Run2	repeat/STIM_012.jpg	100
1708.84	0.582	582.1	repeat	Run2	repeat/STIM_013.jpg	100
1712.773	0.522	522.4	repeat	Run2	repeat/STIM_013.jpg	99
1716.141	0.59	590.2	repeat	Run2	repeat/STIM_013.jpg	99
1719.138	0.611	611.4	repeat	Run2	repeat/STIM_013.jpg	99
1723.222	0.675	675.0	repeat	Run2	repeat/STIM_013.jpg	100
1726.483	0.556	555.9	repeat	Run2	repeat/STIM_014.jpg	99
1729.754	0.68	679.9	repeat	Run2	repeat/STIM_014.jpg	100
1733.555	0.522	522.0	repeat	Run2	repeat/STIM_014.jpg	99
1737.103	0.951	950.8	repeat	Run2	repeat/STIM_014.jpg	100
1740.614	0.557	557.3	repeat	Run2	repeat/STIM_014.jpg	100
1743.709	1.434	1434.0	generate	Run3	generate/STIM_000.jpg	100
1749.05	0.96	960.4	generate	Run3	generate/STIM_000.jpg	100
1752.383	0.936	935.8	generate	Run3	generate/STIM_000.jpg	99
1755.418	2.024	2024.3	generate	Run3	generate/STIM_000.jpg	100
1761.112	1.779	1779.2	generate	Run3	generate/STIM_000.jpg	99
1765.811	1.526	1526.3	generate	Run3	generate/STIM_001.jpg	99
1771.308	2.014	2013.5	generate	Run3	generate/STIM_001.jpg	99
1775.911	1.883	1883.0	generate	Run3	generate/STIM_001.jpg	99
1781.161	1.058	1057.9	generate	Run3	generate/STIM_001.jpg	99
1785.314	0.819	819.3	generate	Run3	generate/STIM_001.jpg	100
1788.52	1.917	1917.0	generate	Run3	generate/STIM_002.jpg	99
1793.487	1.653	1653.3	generate	Run3	generate/STIM_002.jpg	100
1799.143	1.816	1815.8	generate	Run3	generate/STIM_002.jpg	100
1804.129	1.343	1342.9	generate	Run3	generate/STIM_002.jpg	99
1808.697	1.99	1990.5	generate	Run3	generate/STIM_002.jpg	100
1812.761	1.122	1121.9	generate	Run3	generate/STIM_003.jpg	100
1816.274	1.638	1638.3	generate	Run3	generate/STIM_003.jpg	99
1820.891	1.726	1725.9	generate	Run3	generate/STIM_003.jpg	100
1825.545	0.891	890.7	generate	Run3	generate/STIM_003.jpg	100
1830.227	1.028	1027.5	generate	Run3	generate/STIM_003.jpg	99
1834.53	1.187	1187.2	generate	Run3	generate/STIM_004.jpg	100
1837.969	0.998	998.3	generate	Run3	generate/STIM_004.jpg	100
1842.808	0.864	864.2	generate	Run3	generate/STIM_004.jpg	100
1847.156	1.935	1934.9	generate	Run3	generate/STIM_004.jpg	100
1851.513	1.864	1863.5	generate	Run3	generate/STIM_004.jpg	100
1855.863	1.752	1752.2	generate	Run3	generate/STIM_005.jpg	100
1859.696	1.086	1086.2	generate	Run3	generate/STIM_005.jpg	99
1863.774	1.332	1331.8	generate	Run3	generate/STIM_005.jpg	100
1868.285	0.825	825.2	generate	Run3	generate/STIM_005.jpg	100
1872.422	1.116	1115.6	generate	Run3	generate/STIM_005.jpg	100
1876.451	1.632	1631.6	generate	Run3	generate/STIM_006.jpg	100
1880.776	0.841	840.9	generate	Run3	generate/STIM_006.jpg	100
1885.503	0.83	830.1	generate	Run3	generate/STIM_006.jpg	100
1890.232	1.741	1740.7	generate	Run3	generate/STIM_006.jpg	100
1895.636	1.957	1956.7	generate	Run3	generate/STIM_006.jpg	100
1900.438	1.055	1054.6	generate	Run3	generate/STIM_007.jpg	100
1904.51	2.041	2041.1	generate	Run3	generate/STIM_007.jpg	99
1910.35	1.356	1356.3	generate	Run3	generate/STIM_007.jpg	100
1914.83	0.989	989.2	generate	Run3	generate/STIM_007.jpg	99
1919.701	1.706	1706.0	generate	Run3	generate/STIM_007.jpg	99
1923.823	1.133	1133.0	generate	Run3	generate/STIM_008.jpg	99
1928.441	0.937	936.8	generate	Run3	generate/STIM_008.jpg	99
1932.768	1.774	1774.5	generate	Run3	generate/STIM_008.jpg	100
1936.812	1.261	1261.0	generate	Run3	generate/STIM_008.jpg	100
1941.075	1.268	1268.3	generate	Run3	generate/STIM_008.jpg	100
1945.354	1.956	1956.1	generate	Run3	generate/STIM_009.jpg	99
1950.891	1.272	1272.1	generate	Run3	generate/STIM_009.jpg	99
1956.167	1.788	1788.3	generate	Run3	generate/STIM_009.jpg	100
1961.001	1.977	1976.9	generate	Run3	generate/STIM_009.jpg	100
1966.135	1.439	1439.1	generate	Run3	generate/STIM_009.jpg	100
1970.643	1.151	1151.2	generate	Run3	generate/STIM_010.jpg	99
1973.881	0.843	843.2	generate	Run3	generate/STIM_010.jpg	99
1976.897	1.141	1141.4	generate	Run3	generate/STIM_010.jpg	99
1981.929	1.697	1697.2	generate	Run3	generate/STIM_010.jpg	100
1986.322	0.9	900.0	generate	Run3	generate/STIM_010.jpg	99
1990.852	0.935	934.9	generate	Run3	generate/STIM_011.jpg	99
1995.025	1.768	1768.2	generate	Run3	generate/STIM_011.jpg	99
2000.687	1.553	1552.7	generate	Run3	generate/STIM_011.jpg	99
2005.027	0.822	822.1	generate	Run3	generate/STIM_011.jpg	99
2009.465	1.248	1248.3	generate	Run3	generate/STIM_011.jpg	99
2014.31	0.912	912.3	generate	Run3	generate/STIM_012.jpg	100
2019.005	1.661	1660.6	generate	Run3	generate/STIM_012.jpg	100
2024.681	1.054	1054.0	generate	Run3	generate/STIM_012.jpg	100
2029.358	1.645	1644.8	generate	Run3	generate/STIM_012.jpg	100
2033.052	0.965	964.6	generate	Run3	generate/STIM_012.jpg	100
2037.743	1.166	1166.0	generate	Run3	generate/STIM_013.jpg	99
2041.559	1.455	1455.0	generate	Run3	generate/STIM_013.jpg	99
2046.519	1.963	1962.8	generate	Run3	generate/STIM_013.jpg	100
2052.511	0.926	926.1	generate	Run3	generate/STIM_013.jpg	100
2056.278	0.909	908.8	generate	Run3	generate/STIM_013.jpg	100
2060.7	1.172	1171.6	generate	Run3	generate/STIM_014.jpg	100
2065.688	1.205	1204.9	generate	Run3	generate/STIM_014.jpg	100
2069.66	1.906	1905.9	generate	Run3	generate/STIM_014.jpg	100
2073.749	1.866	1865.5	generate	Run3	generate/STIM_014.jpg	99
2079.112	2.033	2033.1	generate	Run3	generate/STIM_014.jpg	100
2084.972	1.62	1620.5	generate	Run3	generate/STIM_015.jpg	100
2090.38	1.878	1878.4	generate	Run3	generate/STIM_015.jpg	99
2094.442	0.853	853.1	generate	Run3	generate/STIM_015.jpg	99
2097.526	2.001	2000.8	generate	Run3	generate/STIM_015.jpg	100
2103.291	1.304	1304.5	generate	Run3	generate/STIM_015.jpg	99
2106.644	1.795	1795.4	generate	Run3	generate/STIM_016.jpg	100
2111.411	0.883	883.0	generate	Run3	generate/STIM_016.jpg	99
2114.941	0.883	882.6	generate	Run3	generate/STIM_016.jpg	100
2119.823	1.753	1752.9	generate	Run3	generate/STIM_016.jpg	100
2124.069	2.0	1999.8	generate	Run3	generate/STIM_016.jpg	99
2128.798	0.992	991.6	generate	Run3	generate/STIM_017.jpg	99
2132.769	1.468	1467.9	generate	Run3	generate/STIM_017.jpg	99
2136.328	1.514	1514.2	generate	Run3	generate/STIM_017.jpg	100
2141.524	1.404	1404.4	generate	Run3	generate/STIM_017.jpg	99
2146.732	1.1	1099.9	generate	Run3	generate/STIM_017.jpg	100
2150.814	0.882	881.8	generate	Run3	generate/STIM_018.jpg	100
2154.308	1.838	1837.9	generate	Run3	generate/STIM_018.jpg	100
2158.652	1.134	1134.2	generate	Run3	generate/STIM_018.jpg	99
2163.417	1.634	1634.3	generate	Run3	generate/STIM_018.jpg	100
2168.624	1.534	1533.8	generate	Run3	generate/STIM_018.jpg	99
2172.67	1.591	1590.8	generate	Run3	generate/STIM_019.jpg	99
2177.835	1.497	1496.7	generate	Run3	generate/STIM_019.jpg	99
2182.558	1.575	1575.2	generate	Run3	generate/STIM_019.jpg	100
2186.535	1.525	1525.4	generate	Run3	generate/STIM_019.jpg	100
2190.342	1.472	1471.7	generate	Run3	generate/STIM_019.jpg	100
2194.188	1.364	1363.5	generate	Run3	generate/STIM_020.jpg	99
2199.0	1.81	1810.1	generate	Run3	generate/STIM_020.jpg	100
2204.685	0.87	870.2	generate	Run3	generate/STIM_020.jpg	99
2208.133	1.277	1276.6	generate	Run3	generate/STIM_020.jpg	100
2213.308	1.489	1488.8	generate	Run3	generate/STIM_020.jpg	99
2217.889	1.577	1577.4	generate	Run3	generate/STIM_021.jpg	99
2221.843	1.403	1403.4	generate	Run3	generate/STIM_021.jpg	100
2226.33	1.245	1244.9	generate	Run3	generate/STIM_021.jpg	100
2229.706	0.945	944.9	generate	Run3	generate/STIM_021.jpg	100
2233.431	1.246	1246.3	generate	Run3	generate/STIM_021.jpg	100
2238.663	1.528	1528.1	generate	Run3	generate/STIM_022.jpg	100
2242.286	1.53	1530.3	generate	Run3	generate/STIM_022.jpg	100
2247.052	1.011	1010.7	generate	Run3	generate/STIM_022.jpg	99
2251.033	1.437	1436.8	generate	Run3	generate/STIM_022.jpg	100
2254.7	1.61	1610.1	generate	Run3	generate/STIM_022.jpg	99
2259.85	0.921	920.9	generate	Run3	generate/STIM_023.jpg	100
2264.546	0.83	830.1	generate	Run3	generate/STIM_023.jpg	99
2268.859	1.954	1953.7	generate	Run3	generate/STIM_023.jpg	99
2273.494	1.77	1770.0	generate	Run3	generate/STIM_023.jpg	100
2278.876	1.129	1129.3	generate	Run3	generate/STIM_023.jpg	99
2283.787	1.175	1175.3	generate	Run3	generate/STIM_024.jpg	100
2288.371	1.52	1519.9	generate	Run3	generate/STIM_024.jpg	100
2291.949	1.78	1780.1	generate	Run3	generate/STIM_024.jpg	100
2296.404	0.954	954.2	generate	Run3	generate/STIM_024.jpg	99
2301.083	1.661	1661.2	generate	Run3	generate/STIM_024.jpg	100
2304.935	0.872	871.6	repeat	Run3	repeat/STIM_000.jpg	99
2307.98	0.899	898.7	repeat	Run3	repeat/STIM_000.jpg	100
2312.317	0.654	653.9	repeat	Run3	repeat/STIM_000.jpg	99
2316.573	0.935	935.2	repeat	Run3	repeat/STIM_000.jpg	99
2320.927	0.67	669.7	repeat	Run3	repeat/STIM_000.jpg	99
2323.824	0.859	859.1	repeat	Run3	repeat/STIM_001.jpg	100
2327.806	0.903	902.6	repeat	Run3	repeat/STIM_001.jpg	99
2332.396	0.662	662.1	repeat	Run3	repeat/STIM_001.jpg	99
2335.563	0.852	851.9	repeat	Run3	repeat/STIM_001.jpg	99
2338.926	0.888	887.6	repeat	Run3	repeat/STIM_001.jpg	99
2343.318	0.579	579.0	repeat	Run3	repeat/STIM_002.jpg	100
2347.409	0.956	955.8	repeat	Run3	repeat/STIM_002.jpg	99
2352.299	0.675	675.0	repeat	Run3	repeat/STIM_002.jpg	99
2355.274	0.503	503.1	repeat	Run3	repeat/STIM_002.jpg	99
2358.701	0.573	572.6	repeat	Run3	repeat/STIM_002.jpg	99
2361.373	0.642	641.7	repeat	Run3	repeat/STIM_003.jpg	99
2365.284	0.569	568.7	repeat	Run3	repeat/STIM_003.jpg	100
2368.897	0.869	868.7	repeat	Run3	repeat/STIM_003.jpg	99
2372.868	0.956	956.3	repeat	Run3	repeat/STIM_003.jpg	99
2377.297	0.887	887.2	repeat	Run3	repeat/STIM_003.jpg	100
2380.278	0.893	893.2	repeat	Run3	repeat/STIM_004.jpg	100
2384.096	0.731	731.4	repeat	Run3	repeat/STIM_004.jpg	99
2388.722	0.653	653.2	repeat	Run3	repeat/STIM_004.jpg	99
2393.218	0.83	829.6	repeat	Run3	repeat/STIM_004.jpg	99
2397.874	0.857	856.6	repeat	Run3	repeat/STIM_004.jpg	99
2401.466	0.889	888.6	repeat	Run3	repeat/STIM_005.jpg	99
2405.292	0.87	870.0	repeat	Run3	repeat/STIM_005.jpg	100
2409.05	0.884	883.5	repeat	Run3	repeat/STIM_005.jpg	100
2413.172	0.966	965.5	repeat	Run3	repeat/STIM_005.jpg	99
2416.257	0.868	868.4	repeat	Run3	repeat/STIM_005.jpg	99
2419.244	0.744	743.5	repeat	Run3	repeat/STIM_006.jpg	99
2423.386	0.752	752.5	repeat	Run3	repeat/STIM_006.jpg	99
2427.651	0.715	715.2	repeat	Run3	repeat/STIM_006.jpg	100
2431.631	0.6	599.7	repeat	Run3	repeat/STIM_006.jpg	100
2435.498	0.654	653.9	repeat	Run3	repeat/STIM_006.jpg	100
2439.906	0.905	905.4	repeat	Run3	repeat/STIM_007.jpg	99
2444.68	0.877	877.2	repeat	Run3	repeat/STIM_007.jpg	100
2447.761	0.838	838.4	repeat	Run3	repeat/STIM_007.jpg	100
2451.906	0.662	662.4	repeat	Run3	repeat/STIM_007.jpg	100
2455.303	0.746	746.4	repeat	Run3	repeat/STIM_007.jpg	99
2458.859	0.72	719.8	repeat	Run3	repeat/STIM_008.jpg	100
2462.861	0.598	597.7	repeat	Run3	repeat/STIM_008.jpg	99
2466.306	0.876	875.8	repeat	Run3	repeat/STIM_008.jpg	100
2469.383	0.782	782.4	repeat	Run3	repeat/STIM_008.jpg	99
2473.0	0.713	713.2	repeat	Run3	repeat/STIM_008.jpg	100
2477.1	0.595	595.4	repeat	Run3	repeat/STIM_009.jpg	99
2480.444	0.727	727.2	repeat	Run3	repeat/STIM_009.jpg	99
2483.403	0.77	770.5	repeat	Run3	repeat/STIM_009.jpg	100
2487.519	0.781	781.0	repeat	Run3	repeat/STIM_009.jpg	100
2491.763	0.771	770.9	repeat	Run3	repeat/STIM_009.jpg	100
2495.938	0.802	802.0	repeat	Run3	repeat/STIM_010.jpg	100
2499.933	0.776	776.0	repeat	Run3	repeat/STIM_010.jpg	99
2504.126	0.95	950.3	repeat	Run3	repeat/STIM_010.jpg	99
2507.563	0.59	590.2	repeat	Run3	repeat/STIM_010.jpg	99
2511.704	0.493	492.8	repeat	Run3	repeat/STIM_010.jpg	99
2516.161	0.925	924.6	repeat	Run3	repeat/STIM_011.jpg	100
2521.076	0.707	706.8	repeat	Run3	repeat/STIM_011.jpg	100
2525.776	0.755	755.2	repeat	Run3	repeat/STIM_011.jpg	100
2530.024	0.817	816.8	repeat	Run3	repeat/STIM_011.jpg	100
2534.637	0.542	542.5	repeat	Run3	repeat/STIM_011.jpg	99
2537.39	0.932	931.8	repeat	Run3	repeat/STIM_012.jpg	100
2542.301	0.672	671.6	repeat	Run3	repeat/STIM_012.jpg	100
2546.529	0.616	615.7	repeat	Run3	repeat/STIM_012.jpg	100
2550.509	0.587	587.4	repeat	Run3	repeat/STIM_012.jpg	100
2554.478	0.728	727.6	repeat	Run3	repeat/STIM_012.jpg	99
2557.568	0.64	640.2	repeat	Run3	repeat/STIM_013.jpg	100
2561.141	0.719	719.0	repeat	Run3	repeat/STIM_013.jpg	99
2565.07	0.548	548.3	repeat	Run3	repeat/STIM_013.jpg	99
2568.277	0.837	837.3	repeat	Run3	repeat/STIM_013.jpg	99
2572.378	0.803	802.6	repeat	Run3	repeat/STIM_013.jpg	99
2576.318	0.66	660.1	repeat	Run3	repeat/STIM_014.jpg	100
2579.455	0.849	848.6	repeat	Run3	repeat/STIM_014.jpg	99
2582.597	0.713	713.2	repeat	Run3	repeat/STIM_014.jpg	100
2586.05	0.841	840.8	repeat	Run3	repeat/STIM_014.jpg	99
2589.3	0.544	544.2	repeat	Run3	repeat/STIM_014.jpg	100
2592.185	1.567	1566.8	generate	Run4	generate/STIM_000.jpg	100
2596.759	1.395	1394.7	generate	Run4	generate/STIM_000.jpg	100
2600.731	1.348	1347.8	generate	Run4	generate/STIM_000.jpg	99
2604.213	0.87	870.4	generate	Run4	generate/STIM_000.jpg	99
2607.666	1.347	1346.8	generate	Run4	generate/STIM_000.jpg	99
2611.13	1.783	1783.3	generate	Run4	generate/STIM_001.jpg	99
2615.194	1.204	1204.2	generate	Run4	generate/STIM_001.jpg	99
2618.759	1.98	1979.5	generate	Run4	generate/STIM_001.jpg	100
2623.495	1.973	1973.1	generate	Run4	generate/STIM_001.jpg	99
2627.56	1.642	1642.2	generate	Run4	generate/STIM_001.jpg	100
2631.87	1.725	1724.9	generate	Run4	generate/STIM_002.jpg	100
2636.948	0.897	897.3	generate	Run4	generate/STIM_002.jpg	100
2640.24	1.015	1015.3	generate	Run4	generate/STIM_002.jpg	99
2644.357	1.806	1806.2	generate	Run4	generate/STIM_002.jpg	99
2648.906	1.304	1303.7	generate	Run4	generate/STIM_002.jpg	100
2653.747	1.138	1138.5	generate	Run4	generate/STIM_003.jpg	99
2657.685	1.463	1463.2	generate	Run4	generate/STIM_003.jpg	99
2662.1	1.833	1832.7	generate	Run4	generate/STIM_003.jpg	100
2667.276	0.993	993.4	generate	Run4	generate/STIM_003.jpg	100
2670.77	1.862	1862.3	generate	Run4	generate/STIM_003.jpg	99
2675.562	1.006	1005.9	generate	Run4	generate/STIM_004.jpg	99
2679.597	1.668	1667.5	generate	Run4	generate/STIM_004.jpg	100
2684.889	1.484	1484.4	generate	Run4	generate/STIM_004.jpg	99
2688.422	1.471	1470.8	generate	Run4	generate/STIM_004.jpg	99
2693.116	2.001	2001.4	generate	Run4	generate/STIM_004.jpg	99
2697.669	1.106	1106.1	generate	Run4	generate/STIM_005.jpg	99
2702.712	1.959	1958.6	generate	Run4	generate/STIM_005.jpg	100
2707.423	1.85	1850.4	generate	Run4	generate/STIM_005.jpg	100
2712.637	1.682	1681.8	generate	Run4	generate/STIM_005.jpg	99
2718.284	1.22	1220.0	generate	Run4	generate/STIM_005.jpg	99
2721.959	1.105	1104.6	generate	Run4	generate/STIM_006.jpg	100
2727.063	1.02	1019.8	generate	Run4	generate/STIM_006.jpg	100
2731.474	1.014	1013.7	generate	Run4	generate/STIM_006.jpg	99
2734.602	1.654	1653.6	generate	Run4	generate/STIM_006.jpg	99
2740.259	1.543	1542.9	generate	Run4	generate/STIM_006.jpg	100
2745.719	1.299	1299.1	generate	Run4	generate/STIM_007.jpg	100
2749.249	1.595	1594.9	generate	Run4	generate/STIM_007.jpg	100
2753.687	1.173	1173.2	generate	Run4	generate/STIM_007.jpg	99
2757.129	1.597	1597.0	generate	Run4	generate/STIM_007.jpg	99
2761.747	1.268	1268.1	generate	Run4	generate/STIM_007.jpg	99
2765.592	1.894	1893.7	generate	Run4	generate/STIM_008.jpg	99
2770.624	0.978	978.1	generate	Run4	generate/STIM_008.jpg	100
2773.787	1.584	1584.5	generate	Run4	generate/STIM_008.jpg	99
2778.301	0.82	820.3	generate	Run4	generate/STIM_008.jpg	99
2782.153	1.581	1580.8	generate	Run4	generate/STIM_008.jpg	100
2786.166	1.868	1868.1	generate	Run4	generate/STIM_009.jpg	100
2790.621	0.879	878.9	generate	Run4	generate/STIM_009.jpg	100
2793.918	1.45	1450.0	generate	Run4	generate/STIM_009.jpg	100
2798.186	1.06	1060.3	generate	Run4	generate/STIM_009.jpg	100
2802.838	1.302	1301.7	generate	Run4	generate/STIM_009.jpg	99
2807.572	1.693	1693.0	generate	Run4	generate/STIM_010.jpg	99
2811.695	1.229	1229.1	generate	Run4	generate/STIM_010.jpg	100
2815.084	1.271	1271.2	generate	Run4	generate/STIM_010.jpg	100
2819.573	1.98	1979.9	generate	Run4	generate/STIM_010.jpg	100
2825.163	1.354	1354.1	generate	Run4	generate/STIM_010.jpg	100
2830.365	1.565	1565.1	generate	Run4	generate/STIM_011.jpg	100
2834.343	0.827	826.6	generate	Run4	generate/STIM_011.jpg	99
2838.848	1.307	1307.4	generate	Run4	generate/STIM_011.jpg	99
2843.378	0.864	863.8	generate	Run4	generate/STIM_011.jpg	99
2847.365	2.034	2034.1	generate	Run4	generate/STIM_011.jpg	99
2852.407	1.304	1303.8	generate	Run4	generate/STIM_012.jpg	100
2856.447	1.049	1049.1	generate	Run4	generate/STIM_012.jpg	99
2859.82	0.924	923.8	generate	Run4	generate/STIM_012.jpg	99
2863.489	1.714	1713.5	generate	Run4	generate/STIM_012.jpg	99
2867.491	1.531	1531.3	generate	Run4	generate/STIM_012.jpg	100
2872.417	1.156	1155.5	generate	Run4	generate/STIM_013.jpg	100
2876.081	0.942	941.8	generate	Run4	generate/STIM_013.jpg	99
2879.393	1.822	1821.9	generate	Run4	generate/STIM_013.jpg	100
2884.896	2.01	2010.2	generate	Run4	generate/STIM_013.jpg	99
2889.56	1.551	1550.9	generate	Run4	generate/STIM_013.jpg	99
2894.841	1.224	1224.2	generate	Run4	generate/STIM_014.jpg	100
2899.875	1.686	1686.4	generate	Run4	generate/STIM_014.jpg	100
2905.28	1.364	1364.3	generate	Run4	generate/STIM_014.jpg	99
2909.227	0.885	885.0	generate	Run4	generate/STIM_014.jpg	100
2913.074	1.815	1814.7	generate	Run4	generate/STIM_014.jpg	99
2918.924	1.073	1073.3	generate	Run4	generate/STIM_015.jpg	99
2922.535	1.266	1265.5	generate	Run4	generate/STIM_015.jpg	99
2926.302	1.033	1032.7	generate	Run4	generate/STIM_015.jpg	100
2929.965	1.228	1227.8	generate	Run4	generate/STIM_015.jpg	100
2934.921	1.934	1934.5	generate	Run4	generate/STIM_015.jpg	99
2940.341	1.931	1930.7	generate	Run4	generate/STIM_016.jpg	100
2946.184	1.936	1936.5	generate	Run4	generate/STIM_016.jpg	100
2951.421	1.446	1445.5	generate	Run4	generate/STIM_016.jpg	99
2955.218	0.872	871.8	generate	Run4	generate/STIM_016.jpg	99
2958.33	1.616	1615.7	generate	Run4	generate/STIM_016.jpg	100
2963.679	0.874	874.0	generate	Run4	generate/STIM_017.jpg	99
2967.144	1.716	1716.3	generate	Run4	generate/STIM_017.jpg	100
2971.564	1.795	1794.9	generate	Run4	generate/STIM_017.jpg	99
2976.615	1.047	1047.1	generate	Run4	generate/STIM_017.jpg	99
2981.169	1.0	999.5	generate	Run4	generate/STIM_017.jpg	100
2985.859	1.054	1053.6	generate	Run4	generate/STIM_018.jpg	100
2990.137	0.952	952.5	generate	Run4	generate/STIM_018.jpg	100
2994.202	1.467	1466.8	generate	Run4	generate/STIM_018.jpg	99
2999.348	0.849	848.7	generate	Run4	generate/STIM_018.jpg	99
3004.098	1.519	1519.2	generate	Run4	generate/STIM_018.jpg	100
3009.106	1.073	1073.0	generate	Run4	generate/STIM_019.jpg	100
3013.23	1.355	1355.4	generate	Run4	generate/STIM_019.jpg	99
3018.176	1.335	1334.6	generate	Run4	generate/STIM_019.jpg	100
3021.626	1.126	1126.5	generate	Run4	generate/STIM_019.jpg	99
3025.384	1.824	1824.4	generate	Run4	generate/STIM_019.jpg	100
3031.181	1.377	1377.1	generate	Run4	generate/STIM_020.jpg	99
3035.669	1.731	1731.3	generate	Run4	generate/STIM_020.jpg	99
3040.862	1.856	1856.2	generate	Run4	generate/STIM_020.jpg	99
3046.617	1.956	1956.4	generate	Run4	generate/STIM_020.jpg	100
3051.859	1.22	1220.4	generate	Run4	generate/STIM_020.jpg	99
3055.665	1.101	1100.8	generate	Run4	generate/STIM_021.jpg	100
3060.747	1.927	1927.4	generate	Run4	generate/STIM_021.jpg	100
3064.851	1.395	1394.9	generate	Run4	generate/STIM_021.jpg	100
3070.006	1.603	1602.6	generate	Run4	generate/STIM_021.jpg	99
3074.173	1.608	1608.2	generate	Run4	generate/STIM_021.jpg	99
3079.627	1.389	1388.9	generate	Run4	generate/STIM_022.jpg	99
3083.194	1.328	1328.4	generate	Run4	generate/STIM_022.jpg	100
3086.683	1.258	1258.0	generate	Run4	generate/STIM_022.jpg	100
3091.264	0.819	819.3	generate	Run4	generate/STIM_022.jpg	100
3095.947	0.958	958.5	generate	Run4	generate/STIM_022.jpg	99
3100.89	0.925	925.1	generate	Run4	generate/STIM_023.jpg	100
3104.948	1.066	1065.8	generate	Run4	generate/STIM_023.jpg	99
3108.208	0.902	901.8	generate	Run4	generate/STIM_023.jpg	100
3112.671	0.986	986.2	generate	Run4	generate/STIM_023.jpg	100
3117.014	1.315	1315.0	generate	Run4	generate/STIM_023.jpg	99
3120.562	1.542	1542.5	generate	Run4	generate/STIM_024.jpg	100
3125.667	0.957	957.3	generate	Run4	generate/STIM_024.jpg	100
3128.674	1.136	1135.5	generate	Run4	generate/STIM_024.jpg	99
3132.219	1.118	1117.6	generate	Run4	generate/STIM_024.jpg	100
3135.777	1.414	1414.3	generate	Run4	generate/STIM_024.jpg	100
3139.862	0.829	828.6	repeat	Run4	repeat/STIM_000.jpg	100
3144.512	0.562	562.4	repeat	Run4	repeat/STIM_000.jpg	100
3148.186	0.71	709.6	repeat	Run4	repeat/STIM_000.jpg	100
3152.713	0.898	898.2	repeat	Run4	repeat/STIM_000.jpg	100
3157.157	0.531	531.3	repeat	Run4	repeat/STIM_000.jpg	99
3159.993	0.514	514.0	repeat	Run4	repeat/STIM_001.jpg	100
3163.478	0.913	912.7	repeat	Run4	repeat/STIM_001.jpg	99
3168.051	0.742	741.7	repeat	Run4	repeat/STIM_001.jpg	99
3172.565	0.487	486.9	repeat	Run4	repeat/STIM_001.jpg	100
3175.237	0.545	544.6	repeat	Run4	repeat/STIM_001.jpg	100
3179.087	0.607	606.8	repeat	Run4	repeat/STIM_002.jpg	99
3183.68	0.78	779.9	repeat	Run4	repeat/STIM_002.jpg	99
3186.95	0.682	682.1	repeat	Run4	repeat/STIM_002.jpg	100
3189.841	0.94	939.9	repeat	Run4	repeat/STIM_002.jpg	100
3192.943	0.785	784.9	repeat	Run4	repeat/STIM_002.jpg	99
3197.354	0.596	595.5	repeat	Run4	repeat/STIM_003.jpg	99
3200.349	0.838	837.5	repeat	Run4	repeat/STIM_003.jpg	99
3204.577	0.572	571.8	repeat	Run4	repeat/STIM_003.jpg	99
3208.204	0.596	596.1	repeat	Run4	repeat/STIM_003.jpg	99
3211.082	0.52	519.7	repeat	Run4	repeat/STIM_003.jpg	100
3214.633	0.778	777.7	repeat	Run4	repeat/STIM_004.jpg	99
3218.538	0.744	743.6	repeat	Run4	repeat/STIM_004.jpg	99
3221.687	0.878	878.1	repeat	Run4	repeat/STIM_004.jpg	100
3224.651	0.736	736.1	repeat	Run4	repeat/STIM_004.jpg	99
3229.169	0.916	916.0	repeat	Run4	repeat/STIM_004.jpg	99
3232.883	0.755	754.6	repeat	Run4	repeat/STIM_005.jpg	99
3236.763	0.854	853.7	repeat	Run4	repeat/STIM_005.jpg	99
3240.33	0.773	772.7	repeat	Run4	repeat/STIM_005.jpg	99
3243.422	0.81	809.6	repeat	Run4	repeat/STIM_005.jpg	99
3247.566	0.564	563.9	repeat	Run4	repeat/STIM_005.jpg	99
3250.427	0.749	749.0	repeat	Run4	repeat/STIM_006.jpg	100
3253.621	0.695	694.6	repeat	Run4	repeat/STIM_006.jpg	100
3256.349	0.54	540.0	repeat	Run4	repeat/STIM_006.jpg	100
3260.469	0.77	769.5	repeat	Run4	repeat/STIM_006.jpg	100
3264.679	0.842	841.5	repeat	Run4	repeat/STIM_006.jpg	100
3267.986	0.565	565.4	repeat	Run4	repeat/STIM_007.jpg	100
3270.699	0.587	586.8	repeat	Run4	repeat/STIM_007.jpg	100
3274.942	0.632	632.3	repeat	Run4	repeat/STIM_007.jpg	100
3279.105	0.778	778.1	repeat	Run4	repeat/STIM_007.jpg	99
3283.393	0.704	704.2	repeat	Run4	repeat/STIM_007.jpg	100
3286.589	0.61	610.2	repeat	Run4	repeat/STIM_008.jpg	99
3290.581	0.813	813.1	repeat	Run4	repeat/STIM_008.jpg	100
3293.525	0.914	914.5	repeat	Run4	repeat/STIM_008.jpg	99
3297.974	0.538	537.8	repeat	Run4	repeat/STIM_008.jpg	100
3302.377	0.856	855.8	repeat	Run4	repeat/STIM_008.jpg	99
3306.953	0.666	665.9	repeat	Run4	repeat/STIM_009.jpg	100
3310.103	0.692	691.9	repeat	Run4	repeat/STIM_009.jpg	99
3314.718	0.879	879.2	repeat	Run4	repeat/STIM_009.jpg	100
3319.56	0.655	655.2	repeat	Run4	repeat/STIM_009.jpg	100
3322.251	0.688	687.7	repeat	Run4	repeat/STIM_009.jpg	100
3325.189	0.639	639.4	repeat	Run4	repeat/STIM_010.jpg	100
3328.545	0.617	617.3	repeat	Run4	repeat/STIM_010.jpg	99
3331.647	0.701	701.0	repeat	Run4	repeat/STIM_010.jpg	100
3334.577	0.515	514.9	repeat	Run4	repeat/STIM_010.jpg	100
3338.435	0.673	672.6	repeat	Run4	repeat/STIM_010.jpg	100
3342.202	0.632	632.3	repeat	Run4	repeat/STIM_011.jpg	99
3345.954	0.71	709.6	repeat	Run4	repeat/STIM_011.jpg	99
3350.064	0.951	951.3	repeat	Run4	repeat/STIM_011.jpg	99
3354.644	0.558	558.5	repeat	Run4	repeat/STIM_011.jpg	100
3358.891	0.937	936.6	repeat	Run4	repeat/STIM_011.jpg	99
3361.994	0.943	943.2	repeat	Run4	repeat/STIM_012.jpg	100
3365.85	0.894	894.0	repeat	Run4	repeat/STIM_012.jpg	100
3369.813	0.682	682.3	repeat	Run4	repeat/STIM_012.jpg	100
3372.763	0.767	767.1	repeat	Run4	repeat/STIM_012.jpg	100
3375.675	0.754	754.3	repeat	Run4	repeat/STIM_012.jpg	100
3379.739	0.875	875.4	repeat	Run4	repeat/STIM_013.jpg	99
3382.735	0.557	556.7	repeat	Run4	repeat/STIM_013.jpg	99
3386.568	0.649	648.8	repeat	Run4	repeat/STIM_013.jpg	100
3390.664	0.656	655.9	repeat	Run4	repeat/STIM_013.jpg	99
3394.728	0.875	875.2	repeat	Run4	repeat/STIM_013.jpg	100
3398.7	0.68	680.2	repeat	Run4	repeat/STIM_014.jpg	99
3402.937	0.568	567.6	repeat	Run4	repeat/STIM_014.jpg	100
3407.211	0.835	835.1	repeat	Run4	repeat/STIM_014.jpg	99
3411.954	0.957	957.2	repeat	Run4	repeat/STIM_014.jpg	99
3415.057	0.935	934.8	repeat	Run4	repeat/STIM_014.jpg	100
