onset	duration	accuracy_binary	trial_type	learning_stage	stimulus
0.0	1.399	1	generate	Run1	generate/STIM_000.jpg
3.812	2.577	0	generate	Run1	generate/STIM_000.jpg
8.514	2.344	1	generate	Run1	generate/STIM_000.jpg
13.643	2.11	0	generate	Run1	generate/STIM_000.jpg
18.525	1.408	1	generate	Run1	generate/STIM_000.jpg
22.826	1.848	1	generate	Run1	generate/STIM_001.jpg
26.934	2.074	0	generate	Run1	generate/STIM_001.jpg
32.866	2.489	0	generate	Run1	generate/STIM_001.jpg
38.418	1.433	1	generate	Run1	generate/STIM_001.jpg
42.21	1.396	1	generate	Run1	generate/STIM_001.jpg
46.423	2.631	1	generate	Run1	generate/STIM_002.jpg
51.056	1.93	0	generate	Run1	generate/STIM_002.jpg
55.029	1.724	1	generate	Run1	generate/STIM_002.jpg
60.388	1.093	1	generate	Run1	generate/STIM_002.jpg
63.767	1.932	0	generate	Run1	generate/STIM_002.jpg
68.31	1.878	1	generate	Run1	generate/STIM_003.jpg
72.292	2.04	1	generate	Run1	generate/STIM_003.jpg
77.14	1.962	1	generate	Run1	generate/STIM_003.jpg
81.339	2.049	1	generate	Run1	generate/STIM_003.jpg
86.158	1.02	1	generate	Run1	generate/STIM_003.jpg
90.847	1.124	1	generate	Run1	generate/STIM_004.jpg
94.199	2.629	1	generate	Run1	generate/STIM_004.jpg
100.643	1.321	1	generate	Run1	generate/STIM_004.jpg
104.946	2.369	0	generate	Run1	generate/STIM_004.jpg
110.941	1.549	1	generate	Run1	generate/STIM_004.jpg
115.17	1.913	1	generate	Run1	generate/STIM_005.jpg
120.896	2.047	0	generate	Run1	generate/STIM_005.jpg
125.136	2.033	1	generate	Run1	generate/STIM_005.jpg
129.3	1.81	1	generate	Run1	generate/STIM_005.jpg
135.106	0.909	1	generate	Run1	generate/STIM_005.jpg
138.938	1.186	1	generate	Run1	generate/STIM_006.jpg
142.538	1.401	1	generate	Run1	generate/STIM_006.jpg
146.842	1.996	1	generate	Run1	generate/STIM_006.jpg
151.761	1.609	1	generate	Run1	generate/STIM_006.jpg
157.036	1.709	1	generate	Run1	generate/STIM_006.jpg
161.895	2.719	1	generate	Run1	generate/STIM_007.jpg
167.535	2.018	1	generate	Run1	generate/STIM_007.jpg
172.409	1.82	1	generate	Run1	generate/STIM_007.jpg
176.373	2.241	1	generate	Run1	generate/STIM_007.jpg
180.737	1.821	0	generate	Run1	generate/STIM_007.jpg
185.356	1.86	1	generate	Run1	generate/STIM_008.jpg
190.255	2.439	0	generate	Run1	generate/STIM_008.jpg
195.702	2.307	1	generate	Run1	generate/STIM_008.jpg
200.201	1.379	1	generate	Run1	generate/STIM_008.jpg
205.538	1.943	1	generate	Run1	generate/STIM_008.jpg
210.648	2.127	1	generate	Run1	generate/STIM_009.jpg
216.117	2.326	0	generate	Run1	generate/STIM_009.jpg
222.323	1.456	1	generate	Run1	generate/STIM_009.jpg
226.43	1.406	1	generate	Run1	generate/STIM_009.jpg
230.863	2.226	1	generate	Run1	generate/STIM_009.jpg
235.736	1.718	1	generate	Run1	generate/STIM_010.jpg
239.548	1.687	0	generate	Run1	generate/STIM_010.jpg
243.709	1.565	1	generate	Run1	generate/STIM_010.jpg
248.219	1.946	1	generate	Run1	generate/STIM_010.jpg
253.515	1.591	1	generate	Run1	generate/STIM_010.jpg
258.998	2.329	1	generate	Run1	generate/STIM_011.jpg
264.506	1.238	0	generate	Run1	generate/STIM_011.jpg
267.932	2.225	1	generate	Run1	generate/STIM_011.jpg
273.326	2.296	0	generate	Run1	generate/STIM_011.jpg
278.394	1.493	1	generate	Run1	generate/STIM_011.jpg
282.551	2.663	1	generate	Run1	generate/STIM_012.jpg
287.46	2.573	1	generate	Run1	generate/STIM_012.jpg
293.807	2.374	1	generate	Run1	generate/STIM_012.jpg
299.075	2.133	1	generate	Run1	generate/STIM_012.jpg
304.295	1.849	0	generate	Run1	generate/STIM_012.jpg
309.014	2.74	1	generate	Run1	generate/STIM_013.jpg
314.554	1.356	1	generate	Run1	generate/STIM_013.jpg
319.565	2.191	1	generate	Run1	generate/STIM_013.jpg
323.826	1.579	1	generate	Run1	generate/STIM_013.jpg
327.93	1.96	1	generate	Run1	generate/STIM_013.jpg
332.607	2.295	1	generate	Run1	generate/STIM_014.jpg
337.5	2.127	1	generate	Run1	generate/STIM_014.jpg
342.887	1.863	1	generate	Run1	generate/STIM_014.jpg
346.833	2.293	0	generate	Run1	generate/STIM_014.jpg
352.457	1.547	1	generate	Run1	generate/STIM_014.jpg
356.962	1.668	0	generate	Run1	generate/STIM_015.jpg
361.177	1.819	1	generate	Run1	generate/STIM_015.jpg
365.458	1.358	0	generate	Run1	generate/STIM_015.jpg
370.773	1.7	1	generate	Run1	generate/STIM_015.jpg
376.136	1.896	0	generate	Run1	generate/STIM_015.jpg
381.027	1.301	0	generate	Run1	generate/STIM_016.jpg
384.618	2.076	1	generate	Run1	generate/STIM_016.jpg
390.615	2.365	1	generate	Run1	generate/STIM_016.jpg
395.751	2.144	1	generate	Run1	generate/STIM_016.jpg
400.268	1.319	1	generate	Run1	generate/STIM_016.jpg
405.193	2.478	1	generate	Run1	generate/STIM_017.jpg
410.66	2.647	1	generate	Run1	generate/STIM_017.jpg
416.117	1.522	1	generate	Run1	generate/STIM_017.jpg
420.417	1.429	1	generate	Run1	generate/STIM_017.jpg
424.277	1.339	1	generate	Run1	generate/STIM_017.jpg
429.46	1.632	1	generate	Run1	generate/STIM_018.jpg
434.863	2.285	1	generate	Run1	generate/STIM_018.jpg
439.225	1.724	1	generate	Run1	generate/STIM_018.jpg
443.371	2.023	0	generate	Run1	generate/STIM_018.jpg
448.076	0.931	1	generate	Run1	generate/STIM_018.jpg
451.7	1.551	1	generate	Run1	generate/STIM_019.jpg
457.043	1.862	1	generate	Run1	generate/STIM_019.jpg
461.688	1.247	1	generate	Run1	generate/STIM_019.jpg
465.188	2.343	0	generate	Run1	generate/STIM_019.jpg
470.755	2.084	0	generate	Run1	generate/STIM_019.jpg
476.585	2.115	1	generate	Run1	generate/STIM_020.jpg
482.639	2.231	1	generate	Run1	generate/STIM_020.jpg
487.299	1.135	1	generate	Run1	generate/STIM_020.jpg
490.72	1.756	1	generate	Run1	generate/STIM_020.jpg
494.989	1.363	1	generate	Run1	generate/STIM_020.jpg
499.727	1.201	1	generate	Run1	generate/STIM_021.jpg
503.531	1.064	1	generate	Run1	generate/STIM_021.jpg
507.624	2.233	1	generate	Run1	generate/STIM_021.jpg
513.024	2.234	0	generate	Run1	generate/STIM_021.jpg
517.807	1.676	1	generate	Run1	generate/STIM_021.jpg
523.055	2.073	1	generate	Run1	generate/STIM_022.jpg
528.373	1.905	1	generate	Run1	generate/STIM_022.jpg
534.072	2.516	1	generate	Run1	generate/STIM_022.jpg
540.429	1.942	1	generate	Run1	generate/STIM_022.jpg
545.645	2.132	1	generate	Run1	generate/STIM_022.jpg
551.147	1.583	1	generate	Run1	generate/STIM_023.jpg
556.728	2.593	1	generate	Run1	generate/STIM_023.jpg
562.848	2.442	1	generate	Run1	generate/STIM_023.jpg
567.906	1.598	1	generate	Run1	generate/STIM_023.jpg
571.877	1.123	1	generate	Run1	generate/STIM_023.jpg
575.27	2.513	1	generate	Run1	generate/STIM_024.jpg
580.789	1.48	1	generate	Run1	generate/STIM_024.jpg
584.375	1.591	1	generate	Run1	generate/STIM_024.jpg
588.38	2.354	1	generate	Run1	generate/STIM_024.jpg
594.586	1.65	1	generate	Run1	generate/STIM_024.jpg
598.706	0.577	1	repeat	Run1	repeat/STIM_000.jpg
603.119	0.532	1	repeat	Run1	repeat/STIM_000.jpg
605.961	0.55	0	repeat	Run1	repeat/STIM_000.jpg
608.665	0.837	1	repeat	Run1	repeat/STIM_000.jpg
612.126	0.702	1	repeat	Run1	repeat/STIM_000.jpg
616.544	0.667	1	repeat	Run1	repeat/STIM_001.jpg
619.63	0.906	1	repeat	Run1	repeat/STIM_001.jpg
624.112	0.702	1	repeat	Run1	repeat/STIM_001.jpg
627.037	0.749	1	repeat	Run1	repeat/STIM_001.jpg
630.913	0.757	1	repeat	Run1	repeat/STIM_001.jpg
634.216	0.546	1	repeat	Run1	repeat/STIM_002.jpg
638.016	0.821	0	repeat	Run1	repeat/STIM_002.jpg
641.857	0.824	1	repeat	Run1	repeat/STIM_002.jpg
646.554	0.548	1	repeat	Run1	repeat/STIM_002.jpg
650.105	0.545	1	repeat	Run1	repeat/STIM_002.jpg
654.597	0.718	1	repeat	Run1	repeat/STIM_003.jpg
658.563	0.743	1	repeat	Run1	repeat/STIM_003.jpg
661.837	0.697	1	repeat	Run1	repeat/STIM_003.jpg
665.314	0.929	1	repeat	Run1	repeat/STIM_003.jpg
668.939	0.833	1	repeat	Run1	repeat/STIM_003.jpg
673.61	0.741	1	repeat	Run1	repeat/STIM_004.jpg
676.412	0.837	1	repeat	Run1	repeat/STIM_004.jpg
680.284	0.828	1	repeat	Run1	repeat/STIM_004.jpg
683.677	0.834	1	repeat	Run1	repeat/STIM_004.jpg
688.064	0.923	1	repeat	Run1	repeat/STIM_004.jpg
691.018	0.492	1	repeat	Run1	repeat/STIM_005.jpg
694.927	0.81	1	repeat	Run1	repeat/STIM_005.jpg
699.165	0.661	1	repeat	Run1	repeat/STIM_005.jpg
702.584	0.499	1	repeat	Run1	repeat/STIM_005.jpg
706.858	0.689	1	repeat	Run1	repeat/STIM_005.jpg
710.823	0.545	1	repeat	Run1	repeat/STIM_006.jpg
714.527	0.618	1	repeat	Run1	repeat/STIM_006.jpg
717.628	0.59	1	repeat	Run1	repeat/STIM_006.jpg
720.761	0.882	1	repeat	Run1	repeat/STIM_006.jpg
725.376	0.919	1	repeat	Run1	repeat/STIM_006.jpg
730.257	0.674	1	repeat	Run1	repeat/STIM_007.jpg
734.382	0.74	1	repeat	Run1	repeat/STIM_007.jpg
738.492	0.614	1	repeat	Run1	repeat/STIM_007.jpg
742.417	0.585	1	repeat	Run1	repeat/STIM_007.jpg
745.631	0.683	1	repeat	Run1	repeat/STIM_007.jpg
748.596	0.808	1	repeat	Run1	repeat/STIM_008.jpg
751.572	0.8	0	repeat	Run1	repeat/STIM_008.jpg
756.345	0.872	1	repeat	Run1	repeat/STIM_008.jpg
760.85	0.922	1	repeat	Run1	repeat/STIM_008.jpg
764.758	0.7	1	repeat	Run1	repeat/STIM_008.jpg
769.14	0.743	1	repeat	Run1	repeat/STIM_009.jpg
773.059	0.763	1	repeat	Run1	repeat/STIM_009.jpg
776.313	0.83	1	repeat	Run1	repeat/STIM_009.jpg
780.53	0.588	1	repeat	Run1	repeat/STIM_009.jpg
784.842	0.639	1	repeat	Run1	repeat/STIM_009.jpg
787.757	0.896	1	repeat	Run1	repeat/STIM_010.jpg
792.516	0.926	0	repeat	Run1	repeat/STIM_010.jpg
796.978	0.542	1	repeat	Run1	repeat/STIM_010.jpg
799.589	0.746	1	repeat	Run1	repeat/STIM_010.jpg
803.857	0.781	1	repeat	Run1	repeat/STIM_010.jpg
807.222	0.481	1	repeat	Run1	repeat/STIM_011.jpg
809.783	0.773	0	repeat	Run1	repeat/STIM_011.jpg
814.318	0.78	1	repeat	Run1	repeat/STIM_011.jpg
817.657	0.726	1	repeat	Run1	repeat/STIM_011.jpg
820.789	0.772	1	repeat	Run1	repeat/STIM_011.jpg
823.592	0.921	1	repeat	Run1	repeat/STIM_012.jpg
826.795	0.55	1	repeat	Run1	repeat/STIM_012.jpg
831.32	0.718	1	repeat	Run1	repeat/STIM_012.jpg
834.177	0.732	1	repeat	Run1	repeat/STIM_012.jpg
837.736	0.486	1	repeat	Run1	repeat/STIM_012.jpg
841.011	0.637	1	repeat	Run1	repeat/STIM_013.jpg
843.861	0.587	1	repeat	Run1	repeat/STIM_013.jpg
846.762	0.558	1	repeat	Run1	repeat/STIM_013.jpg
850.389	0.739	1	repeat	Run1	repeat/STIM_013.jpg
854.982	0.618	1	repeat	Run1	repeat/STIM_013.jpg
858.532	0.813	1	repeat	Run1	repeat/STIM_014.jpg
863.098	0.792	1	repeat	Run1	repeat/STIM_014.jpg
867.138	0.739	1	repeat	Run1	repeat/STIM_014.jpg
871.247	0.62	1	repeat	Run1	repeat/STIM_014.jpg
874.699	0.573	1	repeat	Run1	repeat/STIM_014.jpg
877.337	2.0	1	generate	Run2	generate/STIM_000.jpg
882.156	1.008	1	generate	Run2	generate/STIM_000.jpg
886.978	1.72	1	generate	Run2	generate/STIM_000.jpg
892.584	1.307	1	generate	Run2	generate/STIM_000.jpg
897.05	1.048	1	generate	Run2	generate/STIM_000.jpg
901.767	1.369	1	generate	Run2	generate/STIM_001.jpg
906.517	1.756	1	generate	Run2	generate/STIM_001.jpg
910.875	1.571	1	generate	Run2	generate/STIM_001.jpg
915.883	0.971	0	generate	Run2	generate/STIM_001.jpg
919.244	1.129	1	generate	Run2	generate/STIM_001.jpg
922.557	1.7	1	generate	Run2	generate/STIM_002.jpg
928.097	2.164	0	generate	Run2	generate/STIM_002.jpg
933.514	1.054	0	generate	Run2	generate/STIM_002.jpg
936.679	1.308	0	generate	Run2	generate/STIM_002.jpg
941.647	0.783	1	generate	Run2	generate/STIM_002.jpg
944.538	1.203	1	generate	Run2	generate/STIM_003.jpg
949.291	2.055	0	generate	Run2	generate/STIM_003.jpg
954.339	1.807	1	generate	Run2	generate/STIM_003.jpg
959.775	1.463	0	generate	Run2	generate/STIM_003.jpg
963.525	0.966	1	generate	Run2	generate/STIM_003.jpg
966.724	1.07	1	generate	Run2	generate/STIM_004.jpg
970.842	1.062	1	generate	Run2	generate/STIM_004.jpg
974.906	1.162	1	generate	Run2	generate/STIM_004.jpg
980.064	1.543	1	generate	Run2	generate/STIM_004.jpg
984.099	1.694	1	generate	Run2	generate/STIM_004.jpg
989.761	1.32	1	generate	Run2	generate/STIM_005.jpg
994.597	1.176	0	generate	Run2	generate/STIM_005.jpg
999.275	1.955	1	generate	Run2	generate/STIM_005.jpg
1003.319	1.36	1	generate	Run2	generate/STIM_005.jpg
1007.587	1.752	1	generate	Run2	generate/STIM_005.jpg
1011.689	1.862	1	generate	Run2	generate/STIM_006.jpg
1016.139	1.467	0	generate	Run2	generate/STIM_006.jpg
1020.679	0.997	1	generate	Run2	generate/STIM_006.jpg
1024.246	1.68	1	generate	Run2	generate/STIM_006.jpg
1028.169	1.477	1	generate	Run2	generate/STIM_006.jpg
1032.794	1.582	0	generate	Run2	generate/STIM_007.jpg
1036.74	1.442	1	generate	Run2	generate/STIM_007.jpg
1040.752	1.704	1	generate	Run2	generate/STIM_007.jpg
1045.832	0.927	1	generate	Run2	generate/STIM_007.jpg
1049.566	1.238	1	generate	Run2	generate/STIM_007.jpg
1053.141	1.017	1	generate	Run2	generate/STIM_008.jpg
1056.921	1.698	1	generate	Run2	generate/STIM_008.jpg
1061.873	1.247	1	generate	Run2	generate/STIM_008.jpg
1066.609	1.668	1	generate	Run2	generate/STIM_008.jpg
1071.33	1.615	1	generate	Run2	generate/STIM_008.jpg
1075.759	1.578	1	generate	Run2	generate/STIM_009.jpg
1080.265	1.043	1	generate	Run2	generate/STIM_009.jpg
1085.305	2.052	1	generate	Run2	generate/STIM_009.jpg
1090.735	1.123	1	generate	Run2	generate/STIM_009.jpg
1095.266	0.866	1	generate	Run2	generate/STIM_009.jpg
1098.17	1.676	1	generate	Run2	generate/STIM_010.jpg
1103.591	1.863	1	generate	Run2	generate/STIM_010.jpg
1107.894	1.34	1	generate	Run2	generate/STIM_010.jpg
1112.979	1.553	1	generate	Run2	generate/STIM_010.jpg
1117.063	1.931	1	generate	Run2	generate/STIM_010.jpg
1122.365	0.979	0	generate	Run2	generate/STIM_011.jpg
1126.384	0.992	1	generate	Run2	generate/STIM_011.jpg
1130.24	1.669	1	generate	Run2	generate/STIM_011.jpg
1135.61	1.802	1	generate	Run2	generate/STIM_011.jpg
1140.322	1.444	0	generate	Run2	generate/STIM_011.jpg
1145.182	2.31	1	generate	Run2	generate/STIM_012.jpg
1149.845	1.761	1	generate	Run2	generate/STIM_012.jpg
1155.004	1.613	1	generate	Run2	generate/STIM_012.jpg
1160.264	1.742	1	generate	Run2	generate/STIM_012.jpg
1164.449	1.575	1	generate	Run2	generate/STIM_012.jpg
1168.697	1.331	0	generate	Run2	generate/STIM_013.jpg
1172.501	1.968	1	generate	Run2	generate/STIM_013.jpg
1178.343	1.861	1	generate	Run2	generate/STIM_013.jpg
1184.167	0.878	1	generate	Run2	generate/STIM_013.jpg
1188.173	1.485	1	generate	Run2	generate/STIM_013.jpg
1192.132	2.084	1	generate	Run2	generate/STIM_014.jpg
1196.845	1.313	1	generate	Run2	generate/STIM_014.jpg
1201.197	1.48	1	generate	Run2	generate/STIM_014.jpg
1205.56	1.807	1	generate	Run2	generate/STIM_014.jpg
1209.53	1.868	1	generate	Run2	generate/STIM_014.jpg
1213.487	1.188	1	generate	Run2	generate/STIM_015.jpg
1216.823	1.067	1	generate	Run2	generate/STIM_015.jpg
1220.154	1.318	0	generate	Run2	generate/STIM_015.jpg
1225.294	1.047	1	generate	Run2	generate/STIM_015.jpg
1229.033	1.723	1	generate	Run2	generate/STIM_015.jpg
1233.158	1.154	1	generate	Run2	generate/STIM_016.jpg
1237.75	1.254	0	generate	Run2	generate/STIM_016.jpg
1242.0	0.94	1	generate	Run2	generate/STIM_016.jpg
1245.485	1.843	1	generate	Run2	generate/STIM_016.jpg
1249.888	0.905	1	generate	Run2	generate/STIM_016.jpg
1253.494	2.157	1	generate	Run2	generate/STIM_017.jpg
1257.685	1.983	1	generate	Run2	generate/STIM_017.jpg
1262.949	1.727	1	generate	Run2	generate/STIM_017.jpg
1266.915	1.346	1	generate	Run2	generate/STIM_017.jpg
1272.257	1.724	1	generate	Run2	generate/STIM_017.jpg
1276.578	1.782	1	generate	Run2	generate/STIM_018.jpg
1282.246	2.059	1	generate	Run2	generate/STIM_018.jpg
1287.846	1.151	1	generate	Run2	generate/STIM_018.jpg
1292.908	1.536	1	generate	Run2	generate/STIM_018.jpg
1297.015	1.548	1	generate	Run2	generate/STIM_018.jpg
1302.536	1.364	1	generate	Run2	generate/STIM_019.jpg
1306.833	1.196	1	generate	Run2	generate/STIM_019.jpg
1311.605	1.213	0	generate	Run2	generate/STIM_019.jpg
1316.105	0.95	1	generate	Run2	generate/STIM_019.jpg
1321.002	1.644	1	generate	Run2	generate/STIM_019.jpg
1324.918	1.835	1	generate	Run2	generate/STIM_020.jpg
1328.876	1.174	1	generate	Run2	generate/STIM_020.jpg
1333.942	1.014	1	generate	Run2	generate/STIM_020.jpg
1336.989	0.987	1	generate	Run2	generate/STIM_020.jpg
1340.658	1.317	1	generate	Run2	generate/STIM_020.jpg
1344.98	1.955	1	generate	Run2	generate/STIM_021.jpg
1350.751	2.079	1	generate	Run2	generate/STIM_021.jpg
1355.956	1.152	1	generate	Run2	generate/STIM_021.jpg
1360.569	1.93	1	generate	Run2	generate/STIM_021.jpg
1365.699	1.854	1	generate	Run2	generate/STIM_021.jpg
1369.579	1.631	1	generate	Run2	generate/STIM_022.jpg
1373.667	1.028	1	generate	Run2	generate/STIM_022.jpg
1376.762	1.078	1	generate	Run2	generate/STIM_022.jpg
1380.626	1.85	1	generate	Run2	generate/STIM_022.jpg
1386.409	1.404	1	generate	Run2	generate/STIM_022.jpg
1391.663	2.144	0	generate	Run2	generate/STIM_023.jpg
1397.195	1.332	1	generate	Run2	generate/STIM_023.jpg
1402.002	1.632	1	generate	Run2	generate/STIM_023.jpg
1406.681	1.519	1	generate	Run2	generate/STIM_023.jpg
1410.864	1.005	1	generate	Run2	generate/STIM_023.jpg
1414.738	1.333	1	generate	Run2	generate/STIM_024.jpg
1419.788	1.098	0	generate	Run2	generate/STIM_024.jpg
1424.236	1.699	1	generate	Run2	generate/STIM_024.jpg
1428.63	1.332	1	generate	Run2	generate/STIM_024.jpg
1433.439	1.68	1	generate	Run2	generate/STIM_024.jpg
1438.11	0.692	1	repeat	Run2	repeat/STIM_000.jpg
1441.083	0.93	1	repeat	Run2	repeat/STIM_000.jpg
1444.493	0.913	1	repeat	Run2	repeat/STIM_000.jpg
1447.863	0.892	1	repeat	Run2	repeat/STIM_000.jpg
1450.938	0.825	1	repeat	Run2	repeat/STIM_000.jpg
1454.312	0.766	1	repeat	Run2	repeat/STIM_001.jpg
1458.513	0.544	1	repeat	Run2	repeat/STIM_001.jpg
1462.801	0.793	1	repeat	Run2	repeat/STIM_001.jpg
1467.422	0.577	1	repeat	Run2	repeat/STIM_001.jpg
1470.136	0.631	1	repeat	Run2	repeat/STIM_001.jpg
1473.894	0.712	1	repeat	Run2	repeat/STIM_002.jpg
1477.973	0.899	1	repeat	Run2	repeat/STIM_002.jpg
1482.103	0.779	1	repeat	Run2	repeat/STIM_002.jpg
1486.376	0.704	1	repeat	Run2	repeat/STIM_002.jpg
1490.236	0.858	1	repeat	Run2	repeat/STIM_002.jpg
1494.601	0.642	1	repeat	Run2	repeat/STIM_003.jpg
1498.69	0.56	1	repeat	Run2	repeat/STIM_003.jpg
1503.212	0.888	1	repeat	Run2	repeat/STIM_003.jpg
1507.888	0.921	1	repeat	Run2	repeat/STIM_003.jpg
1511.817	0.819	1	repeat	Run2	repeat/STIM_003.jpg
1515.524	0.885	1	repeat	Run2	repeat/STIM_004.jpg
1519.442	0.883	1	repeat	Run2	repeat/STIM_004.jpg
1524.076	0.762	1	repeat	Run2	repeat/STIM_004.jpg
1528.052	0.652	1	repeat	Run2	repeat/STIM_004.jpg
1531.913	0.587	1	repeat	Run2	repeat/STIM_004.jpg
1535.543	0.776	1	repeat	Run2	repeat/STIM_005.jpg
1539.295	0.654	1	repeat	Run2	repeat/STIM_005.jpg
1542.409	0.753	1	repeat	Run2	repeat/STIM_005.jpg
1547.117	0.677	1	repeat	Run2	repeat/STIM_005.jpg
1550.71	0.547	1	repeat	Run2	repeat/STIM_005.jpg
1553.949	0.514	1	repeat	Run2	repeat/STIM_006.jpg
1558.457	0.619	1	repeat	Run2	repeat/STIM_006.jpg
1561.108	0.761	1	repeat	Run2	repeat/STIM_006.jpg
1565.501	0.638	0	repeat	Run2	repeat/STIM_006.jpg
1569.934	0.819	1	repeat	Run2	repeat/STIM_006.jpg
1573.438	0.637	1	repeat	Run2	repeat/STIM_007.jpg
1576.128	0.54	1	repeat	Run2	repeat/STIM_007.jpg
1578.892	0.665	1	repeat	Run2	repeat/STIM_007.jpg
1582.781	0.637	1	repeat	Run2	repeat/STIM_007.jpg
1586.94	0.576	1	repeat	Run2	repeat/STIM_007.jpg
1590.766	0.543	1	repeat	Run2	repeat/STIM_008.jpg
1594.004	0.816	1	repeat	Run2	repeat/STIM_008.jpg
1597.587	0.505	1	repeat	Run2	repeat/STIM_008.jpg
1600.598	0.573	1	repeat	Run2	repeat/STIM_008.jpg
1604.82	0.867	1	repeat	Run2	repeat/STIM_008.jpg
1609.454	0.888	1	repeat	Run2	repeat/STIM_009.jpg
1613.285	0.575	1	repeat	Run2	repeat/STIM_009.jpg
1616.339	0.701	1	repeat	Run2	repeat/STIM_009.jpg
1620.803	0.526	1	repeat	Run2	repeat/STIM_009.jpg
1623.565	0.613	0	repeat	Run2	repeat/STIM_009.jpg
1626.489	0.771	1	repeat	Run2	repeat/STIM_010.jpg
1630.748	0.602	1	repeat	Run2	repeat/STIM_010.jpg
1634.022	0.558	1	repeat	Run2	repeat/STIM_010.jpg
1637.814	0.574	1	repeat	Run2	repeat/STIM_010.jpg
1641.192	0.625	1	repeat	Run2	repeat/STIM_010.jpg
1644.37	0.642	1	repeat	Run2	repeat/STIM_011.jpg
1647.181	0.69	1	repeat	Run2	repeat/STIM_011.jpg
1650.992	0.678	1	repeat	Run2	repeat/STIM_011.jpg
1653.888	0.626	1	repeat	Run2	repeat/STIM_011.jpg
1657.432	0.503	1	repeat	Run2	repeat/STIM_011.jpg
1661.12	0.66	1	repeat	Run2	repeat/STIM_012.jpg
1664.802	0.471	1	repeat	Run2	repeat/STIM_012.jpg
1669.256	0.766	1	repeat	Run2	repeat/STIM_012.jpg
1673.532	0.663	1	repeat	Run2	repeat/STIM_012.jpg
1676.963	0.564	1	repeat	Run2	repeat/STIM_012.jpg
1680.198	0.674	1	repeat	Run2	repeat/STIM_013.jpg
1683.369	0.744	1	repeat	Run2	repeat/STIM_013.jpg
1686.843	0.468	1	repeat	Run2	repeat/STIM_013.jpg
1690.595	0.49	1	repeat	Run2	repeat/STIM_013.jpg
1694.962	0.496	1	repeat	Run2	repeat/STIM_013.jpg
1697.992	0.625	1	repeat	Run2	repeat/STIM_014.jpg
1702.039	0.801	1	repeat	Run2	repeat/STIM_014.jpg
1706.657	0.757	1	repeat	Run2	repeat/STIM_014.jpg
1710.758	0.675	1	repeat	Run2	repeat/STIM_014.jpg
1714.681	0.669	1	repeat	Run2	repeat/STIM_014.jpg
1718.374	1.463	1	generate	Run3	generate/STIM_000.jpg
1722.108	1.13	1	generate	Run3	generate/STIM_000.jpg
1726.53	1.183	1	generate	Run3	generate/STIM_000.jpg
1729.988	1.858	1	generate	Run3	generate/STIM_000.jpg
1735.117	1.395	1	generate	Run3	generate/STIM_000.jpg
1738.957	1.551	1	generate	Run3	generate/STIM_001.jpg
1743.462	0.921	1	generate	Run3	generate/STIM_001.jpg
1747.854	0.784	1	generate	Run3	generate/STIM_001.jpg
1751.854	1.299	1	generate	Run3	generate/STIM_001.jpg
1755.852	1.811	1	generate	Run3	generate/STIM_001.jpg
1760.424	1.28	1	generate	Run3	generate/STIM_002.jpg
1764.945	0.896	1	generate	Run3	generate/STIM_002.jpg
1769.149	1.138	1	generate	Run3	generate/STIM_002.jpg
1773.662	1.541	1	generate	Run3	generate/STIM_002.jpg
1778.355	1.804	1	generate	Run3	generate/STIM_002.jpg
1783.773	0.963	0	generate	Run3	generate/STIM_003.jpg
1787.611	1.276	1	generate	Run3	generate/STIM_003.jpg
1791.117	1.941	1	generate	Run3	generate/STIM_003.jpg
1796.615	1.609	1	generate	Run3	generate/STIM_003.jpg
1802.093	0.879	1	generate	Run3	generate/STIM_003.jpg
1806.405	0.865	0	generate	Run3	generate/STIM_004.jpg
1809.481	1.543	1	generate	Run3	generate/STIM_004.jpg
1814.664	1.299	1	generate	Run3	generate/STIM_004.jpg
1818.856	1.038	1	generate	Run3	generate/STIM_004.jpg
1821.992	1.448	1	generate	Run3	generate/STIM_004.jpg
1826.614	1.931	1	generate	Run3	generate/STIM_005.jpg
1830.708	1.147	1	generate	Run3	generate/STIM_005.jpg
1835.165	1.448	1	generate	Run3	generate/STIM_005.jpg
1840.342	1.538	1	generate	Run3	generate/STIM_005.jpg
1844.137	1.684	1	generate	Run3	generate/STIM_005.jpg
1847.939	1.227	1	generate	Run3	generate/STIM_006.jpg
1852.737	1.469	1	generate	Run3	generate/STIM_006.jpg
1856.946	1.812	1	generate	Run3	generate/STIM_006.jpg
1862.035	1.685	1	generate	Run3	generate/STIM_006.jpg
1867.272	1.257	1	generate	Run3	generate/STIM_006.jpg
1871.529	1.855	1	generate	Run3	generate/STIM_007.jpg
1875.561	1.072	1	generate	Run3	generate/STIM_007.jpg
1880.204	1.216	1	generate	Run3	generate/STIM_007.jpg
1885.073	0.984	1	generate	Run3	generate/STIM_007.jpg
1888.644	1.917	1	generate	Run3	generate/STIM_007.jpg
1893.321	1.402	1	generate	Run3	generate/STIM_008.jpg
1896.972	1.466	1	generate	Run3	generate/STIM_008.jpg
1900.596	1.064	1	generate	Run3	generate/STIM_008.jpg
1905.604	1.079	1	generate	Run3	generate/STIM_008.jpg
1910.566	1.422	1	generate	Run3	generate/STIM_008.jpg
1915.667	1.356	1	generate	Run3	generate/STIM_009.jpg
1919.219	1.882	1	generate	Run3	generate/STIM_009.jpg
1924.975	1.056	1	generate	Run3	generate/STIM_009.jpg
1928.305	1.222	1	generate	Run3	generate/STIM_009.jpg
1932.283	0.826	1	generate	Run3	generate/STIM_009.jpg
1936.326	1.304	1	generate	Run3	generate/STIM_010.jpg
1940.967	1.558	1	generate	Run3	generate/STIM_010.jpg
1946.321	1.185	1	generate	Run3	generate/STIM_010.jpg
1949.619	1.226	1	generate	Run3	generate/STIM_010.jpg
1954.094	1.695	0	generate	Run3	generate/STIM_010.jpg
1958.803	1.918	0	generate	Run3	generate/STIM_011.jpg
1963.518	0.806	1	generate	Run3	generate/STIM_011.jpg
1967.808	1.338	1	generate	Run3	generate/STIM_011.jpg
1971.679	0.965	1	generate	Run3	generate/STIM_011.jpg
1975.136	0.877	1	generate	Run3	generate/STIM_011.jpg
1978.112	1.295	1	generate	Run3	generate/STIM_012.jpg
1982.328	1.93	1	generate	Run3	generate/STIM_012.jpg
1987.174	1.19	1	generate	Run3	generate/STIM_012.jpg
1991.297	1.748	1	generate	Run3	generate/STIM_012.jpg
1996.256	1.176	1	generate	Run3	generate/STIM_012.jpg
2000.602	1.352	1	generate	Run3	generate/STIM_013.jpg
2005.183	1.722	1	generate	Run3	generate/STIM_013.jpg
2010.047	1.353	1	generate	Run3	generate/STIM_013.jpg
2014.388	1.529	1	generate	Run3	generate/STIM_013.jpg
2019.699	1.325	1	generate	Run3	generate/STIM_013.jpg
2023.243	1.765	1	generate	Run3	generate/STIM_014.jpg
2027.713	1.478	1	generate	Run3	generate/STIM_014.jpg
2031.662	1.263	1	generate	Run3	generate/STIM_014.jpg
2036.354	0.891	1	generate	Run3	generate/STIM_014.jpg
2039.335	0.875	1	generate	Run3	generate/STIM_014.jpg
2043.754	1.388	1	generate	Run3	generate/STIM_015.jpg
2048.675	0.789	1	generate	Run3	generate/STIM_015.jpg
2052.511	1.927	1	generate	Run3	generate/STIM_015.jpg
2058.204	1.16	1	generate	Run3	generate/STIM_015.jpg
2062.68	1.505	1	generate	Run3	generate/STIM_015.jpg
2067.506	1.628	1	generate	Run3	generate/STIM_016.jpg
2071.64	1.223	1	generate	Run3	generate/STIM_016.jpg
2076.207	0.834	1	generate	Run3	generate/STIM_016.jpg
2079.734	1.642	1	generate	Run3	generate/STIM_016.jpg
2085.34	1.633	1	generate	Run3	generate/STIM_016.jpg
2090.487	1.768	0	generate	Run3	generate/STIM_017.jpg
2095.438	1.553	0	generate	Run3	generate/STIM_017.jpg
2100.326	1.803	0	generate	Run3	generate/STIM_017.jpg
2105.962	1.303	1	generate	Run3	generate/STIM_017.jpg
2110.04	1.825	1	generate	Run3	generate/STIM_017.jpg
2115.321	1.526	0	generate	Run3	generate/STIM_018.jpg
2120.105	1.674	1	generate	Run3	generate/STIM_018.jpg
2124.014	1.4	1	generate	Run3	generate/STIM_018.jpg
2129.292	1.396	1	generate	Run3	generate/STIM_018.jpg
2133.191	1.305	1	generate	Run3	generate/STIM_018.jpg
2137.152	1.764	1	generate	Run3	generate/STIM_019.jpg
2141.41	1.672	1	generate	Run3	generate/STIM_019.jpg
2145.148	0.821	1	generate	Run3	generate/STIM_019.jpg
2148.72	1.452	1	generate	Run3	generate/STIM_019.jpg
2152.715	1.165	1	generate	Run3	generate/STIM_019.jpg
2155.883	1.75	1	generate	Run3	generate/STIM_020.jpg
2159.865	1.118	1	generate	Run3	generate/STIM_020.jpg
2163.505	1.71	1	generate	Run3	generate/STIM_020.jpg
2167.909	1.249	1	generate	Run3	generate/STIM_020.jpg
2171.251	1.857	1	generate	Run3	generate/STIM_020.jpg
2176.151	1.472	0	generate	Run3	generate/STIM_021.jpg
2181.387	1.501	1	generate	Run3	generate/STIM_021.jpg
2185.435	0.855	1	generate	Run3	generate/STIM_021.jpg
2189.384	1.873	0	generate	Run3	generate/STIM_021.jpg
2194.227	0.952	1	generate	Run3	generate/STIM_021.jpg
2198.631	1.776	1	generate	Run3	generate/STIM_022.jpg
2202.883	1.68	1	generate	Run3	generate/STIM_022.jpg
2206.741	1.243	1	generate	Run3	generate/STIM_022.jpg
2210.761	0.962	1	generate	Run3	generate/STIM_022.jpg
2215.563	0.828	1	generate	Run3	generate/STIM_022.jpg
2219.025	1.094	1	generate	Run3	generate/STIM_023.jpg
2223.418	1.17	1	generate	Run3	generate/STIM_023.jpg
2228.255	1.844	1	generate	Run3	generate/STIM_023.jpg
2233.497	1.851	1	generate	Run3	generate/STIM_023.jpg
2238.404	0.944	1	generate	Run3	generate/STIM_023.jpg
2243.009	0.907	1	generate	Run3	generate/STIM_024.jpg
2247.893	1.234	1	generate	Run3	generate/STIM_024.jpg
2251.924	1.15	1	generate	Run3	generate/STIM_024.jpg
2256.588	0.94	1	generate	Run3	generate/STIM_024.jpg
2259.992	1.283	1	generate	Run3	generate/STIM_024.jpg
2265.236	0.7	1	repeat	Run3	repeat/STIM_000.jpg
2268.852	0.894	1	repeat	Run3	repeat/STIM_000.jpg
2272.429	0.744	1	repeat	Run3	repeat/STIM_000.jpg
2276.837	0.693	1	repeat	Run3	repeat/STIM_000.jpg
2281.399	0.499	1	repeat	Run3	repeat/STIM_000.jpg
2285.604	0.485	1	repeat	Run3	repeat/STIM_001.jpg
2288.247	0.767	1	repeat	Run3	repeat/STIM_001.jpg
2291.358	0.833	1	repeat	Run3	repeat/STIM_001.jpg
2296.024	0.616	1	repeat	Run3	repeat/STIM_001.jpg
2300.153	0.748	1	repeat	Run3	repeat/STIM_001.jpg
2304.036	0.689	1	repeat	Run3	repeat/STIM_002.jpg
2308.718	0.742	1	repeat	Run3	repeat/STIM_002.jpg
2312.532	0.791	0	repeat	Run3	repeat/STIM_002.jpg
2315.326	0.772	1	repeat	Run3	repeat/STIM_002.jpg
2319.437	0.567	1	repeat	Run3	repeat/STIM_002.jpg
2322.763	0.606	1	repeat	Run3	repeat/STIM_003.jpg
2327.075	0.484	1	repeat	Run3	repeat/STIM_003.jpg
2331.161	0.532	1	repeat	Run3	repeat/STIM_003.jpg
2334.093	0.885	1	repeat	Run3	repeat/STIM_003.jpg
2337.368	0.778	1	repeat	Run3	repeat/STIM_003.jpg
2342.04	0.855	1	repeat	Run3	repeat/STIM_004.jpg
2345.45	0.604	1	repeat	Run3	repeat/STIM_004.jpg
2348.087	0.792	1	repeat	Run3	repeat/STIM_004.jpg
2351.873	0.665	1	repeat	Run3	repeat/STIM_004.jpg
2356.26	0.665	1	repeat	Run3	repeat/STIM_004.jpg
2360.616	0.712	1	repeat	Run3	repeat/STIM_005.jpg
2365.286	0.82	1	repeat	Run3	repeat/STIM_005.jpg
2368.134	0.92	1	repeat	Run3	repeat/STIM_005.jpg
2371.832	0.762	1	repeat	Run3	repeat/STIM_005.jpg
2376.521	0.916	1	repeat	Run3	repeat/STIM_005.jpg
2381.0	0.48	1	repeat	Run3	repeat/STIM_006.jpg
2383.897	0.875	1	repeat	Run3	repeat/STIM_006.jpg
2388.352	0.783	1	repeat	Run3	repeat/STIM_006.jpg
2392.036	0.898	1	repeat	Run3	repeat/STIM_006.jpg
2395.559	0.711	1	repeat	Run3	repeat/STIM_006.jpg
2400.048	0.804	1	repeat	Run3	repeat/STIM_007.jpg
2403.926	0.595	1	repeat	Run3	repeat/STIM_007.jpg
2407.619	0.618	1	repeat	Run3	repeat/STIM_007.jpg
2411.567	0.843	1	repeat	Run3	repeat/STIM_007.jpg
2416.123	0.757	1	repeat	Run3	repeat/STIM_007.jpg
2419.322	0.706	1	repeat	Run3	repeat/STIM_008.jpg
2422.478	0.713	1	repeat	Run3	repeat/STIM_008.jpg
2426.713	0.739	1	repeat	Run3	repeat/STIM_008.jpg
2429.634	0.69	1	repeat	Run3	repeat/STIM_008.jpg
2434.193	0.85	1	repeat	Run3	repeat/STIM_008.jpg
2438.365	0.657	1	repeat	Run3	repeat/STIM_009.jpg
2441.306	0.632	1	repeat	Run3	repeat/STIM_009.jpg
2444.391	0.478	1	repeat	Run3	repeat/STIM_009.jpg
2447.27	0.824	1	repeat	Run3	repeat/STIM_009.jpg
2451.171	0.796	1	repeat	Run3	repeat/STIM_009.jpg
2455.6	0.73	1	repeat	Run3	repeat/STIM_010.jpg
2458.708	0.508	1	repeat	Run3	repeat/STIM_010.jpg
2461.243	0.918	1	repeat	Run3	repeat/STIM_010.jpg
2465.867	0.926	1	repeat	Run3	repeat/STIM_010.jpg
2469.375	0.834	1	repeat	Run3	repeat/STIM_010.jpg
2472.365	0.604	1	repeat	Run3	repeat/STIM_011.jpg
2476.12	0.61	1	repeat	Run3	repeat/STIM_011.jpg
2480.617	0.924	1	repeat	Run3	repeat/STIM_011.jpg
2483.822	0.764	1	repeat	Run3	repeat/STIM_011.jpg
2487.887	0.495	1	repeat	Run3	repeat/STIM_011.jpg
2491.648	0.808	1	repeat	Run3	repeat/STIM_012.jpg
2494.753	0.67	1	repeat	Run3	repeat/STIM_012.jpg
2498.916	0.594	1	repeat	Run3	repeat/STIM_012.jpg
2502.659	0.854	1	repeat	Run3	repeat/STIM_012.jpg
2506.581	0.618	1	repeat	Run3	repeat/STIM_012.jpg
2511.103	0.498	1	repeat	Run3	repeat/STIM_013.jpg
2514.365	0.571	1	repeat	Run3	repeat/STIM_013.jpg
2518.834	0.63	1	repeat	Run3	repeat/STIM_013.jpg
2521.52	0.559	1	repeat	Run3	repeat/STIM_013.jpg
2525.673	0.799	1	repeat	Run3	repeat/STIM_013.jpg
2529.917	0.633	1	repeat	Run3	repeat/STIM_014.jpg
2534.332	0.82	0	repeat	Run3	repeat/STIM_014.jpg
2537.576	0.742	1	repeat	Run3	repeat/STIM_014.jpg
2540.327	0.517	1	repeat	Run3	repeat/STIM_014.jpg
2544.309	0.466	1	repeat	Run3	repeat/STIM_014.jpg
2548.61	0.825	1	generate	Run4	generate/STIM_000.jpg
2552.745	1.042	1	generate	Run4	generate/STIM_000.jpg
2557.378	1.112	1	generate	Run4	generate/STIM_000.jpg
2561.54	0.86	1	generate	Run4	generate/STIM_000.jpg
2565.912	1.738	1	generate	Run4	generate/STIM_000.jpg
2571.335	1.308	1	generate	Run4	generate/STIM_001.jpg
2576.003	0.834	1	generate	Run4	generate/STIM_001.jpg
2579.307	0.826	1	generate	Run4	generate/STIM_001.jpg
2583.119	0.801	1	generate	Run4	generate/STIM_001.jpg
2587.12	1.394	1	generate	Run4	generate/STIM_001.jpg
2592.194	1.84	1	generate	Run4	generate/STIM_002.jpg
2597.52	1.242	1	generate	Run4	generate/STIM_002.jpg
2601.392	0.981	1	generate	Run4	generate/STIM_002.jpg
2604.424	1.578	1	generate	Run4	generate/STIM_002.jpg
2608.99	1.0	1	generate	Run4	generate/STIM_002.jpg
2612.413	0.834	1	generate	Run4	generate/STIM_003.jpg
2616.392	1.945	1	generate	Run4	generate/STIM_003.jpg
2620.73	0.907	1	generate	Run4	generate/STIM_003.jpg
2624.963	1.936	1	generate	Run4	generate/STIM_003.jpg
2629.83	0.802	1	generate	Run4	generate/STIM_003.jpg
2633.322	1.101	1	generate	Run4	generate/STIM_004.jpg
2637.915	1.226	1	generate	Run4	generate/STIM_004.jpg
2641.266	1.535	1	generate	Run4	generate/STIM_004.jpg
2645.551	0.832	1	generate	Run4	generate/STIM_004.jpg
2650.219	1.275	1	generate	Run4	generate/STIM_004.jpg
2654.628	1.515	1	generate	Run4	generate/STIM_005.jpg
2658.684	0.937	1	generate	Run4	generate/STIM_005.jpg
2663.133	1.395	1	generate	Run4	generate/STIM_005.jpg
2667.367	0.874	1	generate	Run4	generate/STIM_005.jpg
2671.315	1.498	1	generate	Run4	generate/STIM_005.jpg
2675.321	1.802	1	generate	Run4	generate/STIM_006.jpg
2680.389	0.948	1	generate	Run4	generate/STIM_006.jpg
2685.146	1.459	1	generate	Run4	generate/STIM_006.jpg
2690.195	1.844	1	generate	Run4	generate/STIM_006.jpg
2694.705	1.7	1	generate	Run4	generate/STIM_006.jpg
2699.164	1.9	1	generate	Run4	generate/STIM_007.jpg
2703.525	1.891	1	generate	Run4	generate/STIM_007.jpg
2707.584	1.586	1	generate	Run4	generate/STIM_007.jpg
2711.307	1.846	1	generate	Run4	generate/STIM_007.jpg
2715.37	1.262	1	generate	Run4	generate/STIM_007.jpg
2719.264	0.863	1	generate	Run4	generate/STIM_008.jpg
2722.267	1.441	1	generate	Run4	generate/STIM_008.jpg
2727.127	1.034	1	generate	Run4	generate/STIM_008.jpg
2730.395	1.117	1	generate	Run4	generate/STIM_008.jpg
2733.933	1.029	1	generate	Run4	generate/STIM_008.jpg
2737.69	1.071	1	generate	Run4	generate/STIM_009.jpg
2741.432	1.66	1	generate	Run4	generate/STIM_009.jpg
2745.805	1.7	1	generate	Run4	generate/STIM_009.jpg
2751.458	1.95	1	generate	Run4	generate/STIM_009.jpg
2756.651	1.41	1	generate	Run4	generate/STIM_009.jpg
2761.72	1.43	1	generate	Run4	generate/STIM_010.jpg
2766.139	1.588	1	generate	Run4	generate/STIM_010.jpg
2770.549	1.8	1	generate	Run4	generate/STIM_010.jpg
2774.724	1.183	1	generate	Run4	generate/STIM_010.jpg
2778.643	1.655	1	generate	Run4	generate/STIM_010.jpg
2783.226	1.834	0	generate	Run4	generate/STIM_011.jpg
2788.886	1.775	1	generate	Run4	generate/STIM_011.jpg
2794.19	1.267	1	generate	Run4	generate/STIM_011.jpg
2797.898	1.535	0	generate	Run4	generate/STIM_011.jpg
2802.882	1.634	1	generate	Run4	generate/STIM_011.jpg
2807.435	1.054	1	generate	Run4	generate/STIM_012.jpg
2811.349	1.399	1	generate	Run4	generate/STIM_012.jpg
2814.766	1.317	1	generate	Run4	generate/STIM_012.jpg
2818.549	1.03	1	generate	Run4	generate/STIM_012.jpg
2821.634	1.811	1	generate	Run4	generate/STIM_012.jpg
2826.268	1.47	1	generate	Run4	generate/STIM_013.jpg
2829.742	1.695	1	generate	Run4	generate/STIM_013.jpg
2834.886	1.041	1	generate	Run4	generate/STIM_013.jpg
2839.108	0.813	1	generate	Run4	generate/STIM_013.jpg
2842.625	1.945	1	generate	Run4	generate/STIM_013.jpg
2847.268	1.75	1	generate	Run4	generate/STIM_014.jpg
2851.264	1.37	1	generate	Run4	generate/STIM_014.jpg
2856.368	1.799	1	generate	Run4	generate/STIM_014.jpg
2861.871	1.292	1	generate	Run4	generate/STIM_014.jpg
2866.933	1.787	1	generate	Run4	generate/STIM_014.jpg
2871.332	1.108	1	generate	Run4	generate/STIM_015.jpg
2875.577	1.059	1	generate	Run4	generate/STIM_015.jpg
2879.333	1.844	1	generate	Run4	generate/STIM_015.jpg
2884.658	1.438	1	generate	Run4	generate/STIM_015.jpg
2888.352	1.909	1	generate	Run4	generate/STIM_015.jpg
2892.927	0.84	1	generate	Run4	generate/STIM_016.jpg
2897.072	1.146	1	generate	Run4	generate/STIM_016.jpg
2901.001	1.345	1	generate	Run4	generate/STIM_016.jpg
2906.154	1.895	1	generate	Run4	generate/STIM_016.jpg
2910.348	1.436	1	generate	Run4	generate/STIM_016.jpg
2914.326	1.878	1	generate	Run4	generate/STIM_017.jpg
2919.153	1.309	0	generate	Run4	generate/STIM_017.jpg
2924.327	1.526	1	generate	Run4	generate/STIM_017.jpg
2928.768	1.378	1	generate	Run4	generate/STIM_017.jpg
2933.242	0.848	1	generate	Run4	generate/STIM_017.jpg
2937.563	1.847	1	generate	Run4	generate/STIM_018.jpg
2942.183	1.322	1	generate	Run4	generate/STIM_018.jpg
2947.058	0.973	1	generate	Run4	generate/STIM_018.jpg
2951.132	1.558	1	generate	Run4	generate/STIM_018.jpg
2954.881	1.158	1	generate	Run4	generate/STIM_018.jpg
2959.168	1.845	1	generate	Run4	generate/STIM_019.jpg
2964.975	1.024	1	generate	Run4	generate/STIM_019.jpg
2968.286	1.03	1	generate	Run4	generate/STIM_019.jpg
2971.477	1.457	1	generate	Run4	generate/STIM_019.jpg
2975.541	1.561	1	generate	Run4	generate/STIM_019.jpg
2980.508	0.985	1	generate	Run4	generate/STIM_020.jpg
2984.794	1.184	1	generate	Run4	generate/STIM_020.jpg
2989.892	1.315	1	generate	Run4	generate/STIM_020.jpg
2993.467	1.562	1	generate	Run4	generate/STIM_020.jpg
2997.925	0.972	0	generate	Run4	generate/STIM_020.jpg
3001.605	0.804	1	generate	Run4	generate/STIM_021.jpg
3005.303	1.743	1	generate	Run4	generate/STIM_021.jpg
3010.698	1.15	1	generate	Run4	generate/STIM_021.jpg
3015.395	1.396	1	generate	Run4	generate/STIM_021.jpg
3019.743	1.715	1	generate	Run4	generate/STIM_021.jpg
3025.07	1.134	1	generate	Run4	generate/STIM_022.jpg
3029.435	0.817	1	generate	Run4	generate/STIM_022.jpg
3033.584	1.818	1	generate	Run4	generate/STIM_022.jpg
3038.638	1.474	1	generate	Run4	generate/STIM_022.jpg
3043.744	1.244	1	generate	Run4	generate/STIM_022.jpg
3047.733	1.376	1	generate	Run4	generate/STIM_023.jpg
3051.527	1.755	1	generate	Run4	generate/STIM_023.jpg
3055.846	1.18	1	generate	Run4	generate/STIM_023.jpg
3059.862	1.197	1	generate	Run4	generate/STIM_023.jpg
3064.777	0.838	1	generate	Run4	generate/STIM_023.jpg
3068.562	1.239	1	generate	Run4	generate/STIM_024.jpg
3073.251	1.866	1	generate	Run4	generate/STIM_024.jpg
3078.425	1.456	1	generate	Run4	generate/STIM_024.jpg
3083.695	1.069	1	generate	Run4	generate/STIM_024.jpg
3087.09	1.563	1	generate	Run4	generate/STIM_024.jpg
3092.029	0.62	1	repeat	Run4	repeat/STIM_000.jpg
3096.299	0.749	1	repeat	Run4	repeat/STIM_000.jpg
3099.367	0.855	1	repeat	Run4	repeat/STIM_000.jpg
3103.976	0.478	1	repeat	Run4	repeat/STIM_000.jpg
3107.269	0.627	1	repeat	Run4	repeat/STIM_000.jpg
3111.57	0.74	1	repeat	Run4	repeat/STIM_001.jpg
3116.029	0.742	1	repeat	Run4	repeat/STIM_001.jpg
3119.26	0.649	1	repeat	Run4	repeat/STIM_001.jpg
3122.222	0.878	1	repeat	Run4	repeat/STIM_001.jpg
3126.144	0.615	1	repeat	Run4	repeat/STIM_001.jpg
3129.752	0.774	1	repeat	Run4	repeat/STIM_002.jpg
3133.517	0.524	1	repeat	Run4	repeat/STIM_002.jpg
3138.004	0.79	1	repeat	Run4	repeat/STIM_002.jpg
3142.576	0.784	1	repeat	Run4	repeat/STIM_002.jpg
3146.742	0.55	1	repeat	Run4	repeat/STIM_002.jpg
3150.953	0.757	1	repeat	Run4	repeat/STIM_003.jpg
3154.709	0.48	1	repeat	Run4	repeat/STIM_003.jpg
3158.459	0.855	1	repeat	Run4	repeat/STIM_003.jpg
3162.56	0.607	1	repeat	Run4	repeat/STIM_003.jpg
3166.771	0.478	1	repeat	Run4	repeat/STIM_003.jpg
3169.277	0.596	1	repeat	Run4	repeat/STIM_004.jpg
3172.749	0.782	1	repeat	Run4	repeat/STIM_004.jpg
3176.883	0.759	1	repeat	Run4	repeat/STIM_004.jpg
3180.67	0.812	1	repeat	Run4	repeat/STIM_004.jpg
3184.451	0.683	1	repeat	Run4	repeat/STIM_004.jpg
3188.752	0.567	1	repeat	Run4	repeat/STIM_005.jpg
3192.612	0.77	1	repeat	Run4	repeat/STIM_005.jpg
3195.587	0.825	1	repeat	Run4	repeat/STIM_005.jpg
3199.41	0.917	1	repeat	Run4	repeat/STIM_005.jpg
3203.498	0.891	1	repeat	Run4	repeat/STIM_005.jpg
3206.995	0.657	1	repeat	Run4	repeat/STIM_006.jpg
3211.303	0.602	1	repeat	Run4	repeat/STIM_006.jpg
3215.729	0.595	1	repeat	Run4	repeat/STIM_006.jpg
3220.156	0.759	1	repeat	Run4	repeat/STIM_006.jpg
3223.802	0.687	1	repeat	Run4	repeat/STIM_006.jpg
3226.926	0.665	0	repeat	Run4	repeat/STIM_007.jpg
3231.001	0.928	1	repeat	Run4	repeat/STIM_007.jpg
3234.929	0.671	1	repeat	Run4	repeat/STIM_007.jpg
3238.308	0.848	1	repeat	Run4	repeat/STIM_007.jpg
3241.31	0.68	1	repeat	Run4	repeat/STIM_007.jpg
3244.202	0.868	1	repeat	Run4	repeat/STIM_008.jpg
3247.479	0.727	0	repeat	Run4	repeat/STIM_008.jpg
3251.633	0.63	1	repeat	Run4	repeat/STIM_008.jpg
3254.273	0.517	1	repeat	Run4	repeat/STIM_008.jpg
3258.305	0.832	1	repeat	Run4	repeat/STIM_008.jpg
3261.592	0.724	1	repeat	Run4	repeat/STIM_009.jpg
3265.569	0.713	1	repeat	Run4	repeat/STIM_009.jpg
3269.208	0.559	1	repeat	Run4	repeat/STIM_009.jpg
3273.676	0.913	1	repeat	Run4	repeat/STIM_009.jpg
3277.324	0.912	1	repeat	Run4	repeat/STIM_009.jpg
3281.99	0.763	1	repeat	Run4	repeat/STIM_010.jpg
3286.117	0.52	1	repeat	Run4	repeat/STIM_010.jpg
3288.711	0.752	1	repeat	Run4	repeat/STIM_010.jpg
3293.262	0.864	1	repeat	Run4	repeat/STIM_010.jpg
3297.86	0.788	1	repeat	Run4	repeat/STIM_010.jpg
3302.379	0.466	1	repeat	Run4	repeat/STIM_011.jpg
3306.245	0.511	1	repeat	Run4	repeat/STIM_011.jpg
3308.999	0.814	1	repeat	Run4	repeat/STIM_011.jpg
3313.233	0.555	1	repeat	Run4	repeat/STIM_011.jpg
3316.35	0.599	1	repeat	Run4	repeat/STIM_011.jpg
3319.565	0.774	0	repeat	Run4	repeat/STIM_012.jpg
3323.216	0.724	1	repeat	Run4	repeat/STIM_012.jpg
3326.349	0.792	1	repeat	Run4	repeat/STIM_012.jpg
3331.093	0.683	1	repeat	Run4	repeat/STIM_012.jpg
3334.719	0.712	1	repeat	Run4	repeat/STIM_012.jpg
3338.642	0.625	1	repeat	Run4	repeat/STIM_013.jpg
3341.424	0.475	1	repeat	Run4	repeat/STIM_013.jpg
3344.442	0.775	1	repeat	Run4	repeat/STIM_013.jpg
3348.739	0.824	1	repeat	Run4	repeat/STIM_013.jpg
3353.369	0.51	1	repeat	Run4	repeat/STIM_013.jpg
3357.346	0.821	1	repeat	Run4	repeat/STIM_014.jpg
3360.198	0.68	1	repeat	Run4	repeat/STIM_014.jpg
3362.926	0.87	1	repeat	Run4	repeat/STIM_014.jpg
3366.469	0.634	1	repeat	Run4	repeat/STIM_014.jpg
3369.887	0.902	1	repeat	Run4	repeat/STIM_014.jpg
