onset	duration	accuracy	trial_type	learning_stage	stimulus
0.0	1.714	correct	study	Phase1	study/STIM_000.jpg
5.518	1.516	incorrect	study	Phase1	study/STIM_000.jpg
9.323	1.006	correct	study	Phase1	study/STIM_000.jpg
14.2	1.715	correct	study	Phase1	study/STIM_001.jpg
18.212	1.378	correct	study	Phase1	study/STIM_001.jpg
23.267	1.139	correct	study	Phase1	study/STIM_001.jpg
26.725	1.084	incorrect	study	Phase1	study/STIM_002.jpg
30.298	1.64	correct	study	Phase1	study/STIM_002.jpg
34.162	1.293	correct	study	Phase1	study/STIM_002.jpg
39.102	1.234	correct	study	Phase1	study/STIM_003.jpg
44.104	1.244	correct	study	Phase1	study/STIM_003.jpg
49.079	0.92	correct	study	Phase1	study/STIM_003.jpg
52.881	1.712	correct	study	Phase1	study/STIM_004.jpg
58.079	1.458	correct	study	Phase1	study/STIM_004.jpg
62.405	1.628	correct	study	Phase1	study/STIM_004.jpg
66.299	1.696	incorrect	study	Phase1	study/STIM_005.jpg
70.699	0.937	correct	study	Phase1	study/STIM_005.jpg
75.349	1.548	correct	study	Phase1	study/STIM_005.jpg
79.977	1.586	correct	study	Phase1	study/STIM_006.jpg
83.663	1.456	correct	study	Phase1	study/STIM_006.jpg
87.84	0.941	correct	study	Phase1	study/STIM_006.jpg
91.796	1.054	correct	study	Phase1	study/STIM_007.jpg
96.395	1.127	correct	study	Phase1	study/STIM_007.jpg
99.647	1.675	correct	study	Phase1	study/STIM_007.jpg
104.032	1.474	correct	study	Phase1	study/STIM_008.jpg
107.668	1.1	correct	study	Phase1	study/STIM_008.jpg
112.313	1.733	correct	study	Phase1	study/STIM_008.jpg
117.48	1.443	correct	study	Phase1	study/STIM_009.jpg
122.872	1.825	correct	study	Phase1	study/STIM_009.jpg
127.327	0.916	correct	study	Phase1	study/STIM_009.jpg
131.717	1.393	correct	study	Phase1	study/STIM_010.jpg
135.149	1.824	correct	study	Phase1	study/STIM_010.jpg
140.542	1.282	correct	study	Phase1	study/STIM_010.jpg
145.736	1.623	correct	study	Phase1	study/STIM_011.jpg
150.976	1.72	correct	study	Phase1	study/STIM_011.jpg
156.608	1.074	correct	study	Phase1	study/STIM_011.jpg
159.937	1.274	correct	study	Phase1	study/STIM_012.jpg
164.318	0.907	correct	study	Phase1	study/STIM_012.jpg
167.848	1.238	correct	study	Phase1	study/STIM_012.jpg
171.389	1.616	correct	study	Phase1	study/STIM_013.jpg
175.618	1.245	correct	study	Phase1	study/STIM_013.jpg
178.998	1.348	correct	study	Phase1	study/STIM_013.jpg
183.594	1.456	correct	study	Phase1	study/STIM_014.jpg
187.758	1.268	correct	study	Phase1	study/STIM_014.jpg
192.187	1.653	correct	study	Phase1	study/STIM_014.jpg
196.65	1.611	correct	study	Phase1	study/STIM_015.jpg
202.045	1.612	correct	study	Phase1	study/STIM_015.jpg
206.074	1.412	correct	study	Phase1	study/STIM_015.jpg
211.235	0.956	correct	study	Phase1	study/STIM_016.jpg
215.566	1.39	correct	study	Phase1	study/STIM_016.jpg
220.689	1.732	incorrect	study	Phase1	study/STIM_016.jpg
225.609	1.258	correct	study	Phase1	study/STIM_017.jpg
230.663	1.265	correct	study	Phase1	study/STIM_017.jpg
234.574	1.174	correct	study	Phase1	study/STIM_017.jpg
239.218	1.065	correct	study	Phase1	study/STIM_018.jpg
243.497	1.649	correct	study	Phase1	study/STIM_018.jpg
248.672	1.194	correct	study	Phase1	study/STIM_018.jpg
252.629	1.657	correct	study	Phase1	study/STIM_019.jpg
256.955	1.686	correct	study	Phase1	study/STIM_019.jpg
261.439	1.347	correct	study	Phase1	study/STIM_019.jpg
266.012	1.28	correct	study	Phase1	study/STIM_020.jpg
269.406	1.412	correct	study	Phase1	study/STIM_020.jpg
274.364	1.174	correct	study	Phase1	study/STIM_020.jpg
279.039	1.814	correct	study	Phase1	study/STIM_021.jpg
282.977	1.47	correct	study	Phase1	study/STIM_021.jpg
286.794	0.789	correct	study	Phase1	study/STIM_021.jpg
291.106	1.767	correct	study	Phase1	study/STIM_022.jpg
296.519	1.047	correct	study	Phase1	study/STIM_022.jpg
300.74	0.91	correct	study	Phase1	study/STIM_022.jpg
304.26	1.693	correct	study	Phase1	study/STIM_023.jpg
308.504	0.936	correct	study	Phase1	study/STIM_023.jpg
311.818	0.888	correct	study	Phase1	study/STIM_023.jpg
316.396	1.092	incorrect	study	Phase1	study/STIM_024.jpg
320.809	0.873	correct	study	Phase1	study/STIM_024.jpg
324.292	1.687	correct	study	Phase1	study/STIM_024.jpg
329.044	1.715	correct	study	Phase1	study/STIM_025.jpg
332.95	1.609	correct	study	Phase1	study/STIM_025.jpg
338.316	1.536	correct	study	Phase1	study/STIM_025.jpg
342.453	1.334	correct	study	Phase1	study/STIM_026.jpg
346.028	1.645	correct	study	Phase1	study/STIM_026.jpg
351.483	0.993	correct	study	Phase1	study/STIM_026.jpg
354.9	1.898	correct	study	Phase1	study/STIM_027.jpg
359.917	1.731	correct	study	Phase1	study/STIM_027.jpg
363.821	1.741	correct	study	Phase1	study/STIM_027.jpg
368.068	1.518	correct	study	Phase1	study/STIM_028.jpg
373.439	1.046	correct	study	Phase1	study/STIM_028.jpg
376.842	1.334	correct	study	Phase1	study/STIM_028.jpg
380.771	1.452	correct	study	Phase1	study/STIM_029.jpg
386.217	1.496	correct	study	Phase1	study/STIM_029.jpg
390.107	0.913	correct	study	Phase1	study/STIM_029.jpg
394.648	0.805	correct	test	Phase1	test/STIM_000.jpg
398.94	1.265	correct	test	Phase1	test/STIM_000.jpg
402.494	1.291	correct	test	Phase1	test/STIM_000.jpg
407.649	0.812	incorrect	test	Phase1	test/STIM_001.jpg
410.912	0.799	correct	test	Phase1	test/STIM_001.jpg
413.902	1.273	correct	test	Phase1	test/STIM_001.jpg
419.009	1.01	correct	test	Phase1	test/STIM_002.jpg
423.823	0.66	correct	test	Phase1	test/STIM_002.jpg
427.732	0.777	correct	test	Phase1	test/STIM_002.jpg
431.69	0.728	correct	test	Phase1	test/STIM_003.jpg
435.455	0.68	correct	test	Phase1	test/STIM_003.jpg
439.529	1.362	correct	test	Phase1	test/STIM_003.jpg
443.018	0.808	correct	test	Phase1	test/STIM_004.jpg
446.71	1.071	correct	test	Phase1	test/STIM_004.jpg
450.236	1.352	correct	test	Phase1	test/STIM_004.jpg
453.648	1.233	correct	test	Phase1	test/STIM_005.jpg
458.369	0.882	correct	test	Phase1	test/STIM_005.jpg
462.982	0.797	correct	test	Phase1	test/STIM_005.jpg
467.402	1.397	correct	test	Phase1	test/STIM_006.jpg
471.801	0.878	correct	test	Phase1	test/STIM_006.jpg
474.813	1.336	correct	test	Phase1	test/STIM_006.jpg
480.127	0.99	correct	test	Phase1	test/STIM_007.jpg
484.125	0.761	correct	test	Phase1	test/STIM_007.jpg
488.502	1.282	correct	test	Phase1	test/STIM_007.jpg
492.501	1.386	correct	test	Phase1	test/STIM_008.jpg
497.665	0.852	correct	test	Phase1	test/STIM_008.jpg
501.866	0.729	correct	test	Phase1	test/STIM_008.jpg
505.478	1.262	correct	test	Phase1	test/STIM_009.jpg
510.103	0.944	correct	test	Phase1	test/STIM_009.jpg
514.659	0.732	correct	test	Phase1	test/STIM_009.jpg
517.965	0.942	correct	test	Phase1	test/STIM_010.jpg
522.872	1.198	correct	test	Phase1	test/STIM_010.jpg
526.263	1.393	correct	test	Phase1	test/STIM_010.jpg
529.693	0.819	correct	test	Phase1	test/STIM_011.jpg
534.006	1.167	correct	test	Phase1	test/STIM_011.jpg
537.544	0.928	correct	test	Phase1	test/STIM_011.jpg
541.075	1.178	correct	test	Phase1	test/STIM_012.jpg
545.865	1.094	correct	test	Phase1	test/STIM_012.jpg
549.035	1.215	correct	test	Phase1	test/STIM_012.jpg
553.538	0.974	correct	test	Phase1	test/STIM_013.jpg
557.213	0.743	correct	test	Phase1	test/STIM_013.jpg
560.191	1.168	correct	test	Phase1	test/STIM_013.jpg
565.28	1.28	correct	test	Phase1	test/STIM_014.jpg
569.591	1.253	correct	test	Phase1	test/STIM_014.jpg
573.21	0.943	correct	test	Phase1	test/STIM_014.jpg
576.407	1.01	correct	test	Phase1	test/STIM_015.jpg
581.175	1.368	correct	test	Phase1	test/STIM_015.jpg
584.817	1.179	correct	test	Phase1	test/STIM_015.jpg
589.694	0.945	incorrect	test	Phase1	test/STIM_016.jpg
594.242	0.808	correct	test	Phase1	test/STIM_016.jpg
598.087	1.215	correct	test	Phase1	test/STIM_016.jpg
601.33	0.95	correct	test	Phase1	test/STIM_017.jpg
604.548	1.37	correct	test	Phase1	test/STIM_017.jpg
609.098	0.738	correct	test	Phase1	test/STIM_017.jpg
612.884	1.015	correct	test	Phase1	test/STIM_018.jpg
617.547	1.19	correct	test	Phase1	test/STIM_018.jpg
622.628	1.336	correct	test	Phase1	test/STIM_018.jpg
626.592	0.818	correct	test	Phase1	test/STIM_019.jpg
631.118	1.378	correct	test	Phase1	test/STIM_019.jpg
636.221	0.914	correct	test	Phase1	test/STIM_019.jpg
639.68	1.187	correct	test	Phase1	test/STIM_020.jpg
644.547	0.858	correct	test	Phase1	test/STIM_020.jpg
649.218	0.707	correct	test	Phase1	test/STIM_020.jpg
652.086	1.227	correct	test	Phase1	test/STIM_021.jpg
657.205	1.291	correct	test	Phase1	test/STIM_021.jpg
662.133	0.738	correct	test	Phase1	test/STIM_021.jpg
666.262	1.39	correct	test	Phase1	test/STIM_022.jpg
671.154	1.086	correct	test	Phase1	test/STIM_022.jpg
675.245	1.372	correct	test	Phase1	test/STIM_022.jpg
678.993	0.942	correct	test	Phase1	test/STIM_023.jpg
683.248	1.125	correct	test	Phase1	test/STIM_023.jpg
686.626	1.05	correct	test	Phase1	test/STIM_023.jpg
690.909	1.122	correct	test	Phase1	test/STIM_024.jpg
695.921	1.092	correct	test	Phase1	test/STIM_024.jpg
699.099	1.232	correct	test	Phase1	test/STIM_024.jpg
703.368	0.734	correct	test	Phase1	test/STIM_025.jpg
706.739	1.248	correct	test	Phase1	test/STIM_025.jpg
710.347	0.754	correct	test	Phase1	test/STIM_025.jpg
714.543	0.76	correct	test	Phase1	test/STIM_026.jpg
718.075	0.74	correct	test	Phase1	test/STIM_026.jpg
721.179	1.03	correct	test	Phase1	test/STIM_026.jpg
725.453	1.361	correct	test	Phase1	test/STIM_027.jpg
729.77	1.314	correct	test	Phase1	test/STIM_027.jpg
733.192	0.676	correct	test	Phase1	test/STIM_027.jpg
736.271	1.35	correct	test	Phase1	test/STIM_028.jpg
740.537	1.411	correct	test	Phase1	test/STIM_028.jpg
745.894	1.141	correct	test	Phase1	test/STIM_028.jpg
749.167	0.665	correct	test	Phase1	test/STIM_029.jpg
752.845	1.264	correct	test	Phase1	test/STIM_029.jpg
757.741	1.161	correct	test	Phase1	test/STIM_029.jpg
762.723	1.64	correct	study	Phase2	study/STIM_000.jpg
767.265	1.196	correct	study	Phase2	study/STIM_000.jpg
771.863	1.089	correct	study	Phase2	study/STIM_000.jpg
775.278	0.926	correct	study	Phase2	study/STIM_001.jpg
779.687	1.041	correct	study	Phase2	study/STIM_001.jpg
782.82	0.97	correct	study	Phase2	study/STIM_001.jpg
787.458	1.195	incorrect	study	Phase2	study/STIM_002.jpg
792.139	0.958	correct	study	Phase2	study/STIM_002.jpg
795.886	0.742	correct	study	Phase2	study/STIM_002.jpg
800.473	0.943	correct	study	Phase2	study/STIM_003.jpg
804.793	0.911	correct	study	Phase2	study/STIM_003.jpg
808.499	1.167	correct	study	Phase2	study/STIM_003.jpg
813.018	0.826	correct	study	Phase2	study/STIM_004.jpg
815.949	1.18	correct	study	Phase2	study/STIM_004.jpg
821.066	0.903	correct	study	Phase2	study/STIM_004.jpg
824.676	1.186	correct	study	Phase2	study/STIM_005.jpg
828.579	1.282	correct	study	Phase2	study/STIM_005.jpg
833.344	1.345	correct	study	Phase2	study/STIM_005.jpg
838.183	1.015	correct	study	Phase2	study/STIM_006.jpg
841.257	0.884	correct	study	Phase2	study/STIM_006.jpg
845.326	1.428	correct	study	Phase2	study/STIM_006.jpg
849.806	1.198	correct	study	Phase2	study/STIM_007.jpg
853.491	1.507	correct	study	Phase2	study/STIM_007.jpg
858.767	1.23	correct	study	Phase2	study/STIM_007.jpg
863.498	1.259	correct	study	Phase2	study/STIM_008.jpg
868.536	1.27	correct	study	Phase2	study/STIM_008.jpg
872.801	1.02	correct	study	Phase2	study/STIM_008.jpg
876.552	0.934	correct	study	Phase2	study/STIM_009.jpg
879.53	0.941	incorrect	study	Phase2	study/STIM_009.jpg
884.156	1.452	correct	study	Phase2	study/STIM_009.jpg
888.787	1.621	correct	study	Phase2	study/STIM_010.jpg
893.427	1.069	correct	study	Phase2	study/STIM_010.jpg
897.14	1.267	correct	study	Phase2	study/STIM_010.jpg
901.436	0.909	correct	study	Phase2	study/STIM_011.jpg
906.285	1.269	correct	study	Phase2	study/STIM_011.jpg
909.881	1.104	correct	study	Phase2	study/STIM_011.jpg
914.7	1.645	correct	study	Phase2	study/STIM_012.jpg
919.492	1.408	correct	study	Phase2	study/STIM_012.jpg
924.645	1.293	correct	study	Phase2	study/STIM_012.jpg
929.641	1.511	correct	study	Phase2	study/STIM_013.jpg
934.954	0.984	correct	study	Phase2	study/STIM_013.jpg
939.549	1.283	correct	study	Phase2	study/STIM_013.jpg
943.298	1.477	correct	study	Phase2	study/STIM_014.jpg
947.742	0.746	correct	study	Phase2	study/STIM_014.jpg
950.979	1.078	correct	study	Phase2	study/STIM_014.jpg
954.12	0.985	correct	study	Phase2	study/STIM_015.jpg
957.472	1.205	correct	study	Phase2	study/STIM_015.jpg
962.089	0.844	correct	study	Phase2	study/STIM_015.jpg
966.803	1.419	correct	study	Phase2	study/STIM_016.jpg
971.661	1.331	correct	study	Phase2	study/STIM_016.jpg
976.845	1.309	correct	study	Phase2	study/STIM_016.jpg
980.486	1.46	correct	study	Phase2	study/STIM_017.jpg
984.89	0.773	correct	study	Phase2	study/STIM_017.jpg
988.005	1.303	correct	study	Phase2	study/STIM_017.jpg
991.892	0.833	correct	study	Phase2	study/STIM_018.jpg
994.864	1.158	correct	study	Phase2	study/STIM_018.jpg
999.304	1.117	correct	study	Phase2	study/STIM_018.jpg
1003.053	1.074	correct	study	Phase2	study/STIM_019.jpg
1007.486	0.85	correct	study	Phase2	study/STIM_019.jpg
1010.484	1.213	correct	study	Phase2	study/STIM_019.jpg
1014.322	1.251	correct	study	Phase2	study/STIM_020.jpg
1018.648	1.5	correct	study	Phase2	study/STIM_020.jpg
1022.48	0.699	correct	study	Phase2	study/STIM_020.jpg
1026.39	1.276	correct	study	Phase2	study/STIM_021.jpg
1029.752	1.462	correct	study	Phase2	study/STIM_021.jpg
1033.426	1.194	correct	study	Phase2	study/STIM_021.jpg
1037.846	0.956	correct	study	Phase2	study/STIM_022.jpg
1040.978	0.8	correct	study	Phase2	study/STIM_022.jpg
1045.577	1.326	correct	study	Phase2	study/STIM_022.jpg
1050.304	1.317	correct	study	Phase2	study/STIM_023.jpg
1054.021	0.795	correct	study	Phase2	study/STIM_023.jpg
1058.491	0.999	correct	study	Phase2	study/STIM_023.jpg
1062.51	0.756	incorrect	study	Phase2	study/STIM_024.jpg
1066.212	1.209	correct	study	Phase2	study/STIM_024.jpg
1070.6	1.139	correct	study	Phase2	study/STIM_024.jpg
1073.742	1.064	correct	study	Phase2	study/STIM_025.jpg
1077.573	0.907	correct	study	Phase2	study/STIM_025.jpg
1082.015	1.278	correct	study	Phase2	study/STIM_025.jpg
1085.528	1.635	correct	study	Phase2	study/STIM_026.jpg
1091.018	1.049	correct	study	Phase2	study/STIM_026.jpg
1094.564	1.201	correct	study	Phase2	study/STIM_026.jpg
1098.577	0.878	correct	study	Phase2	study/STIM_027.jpg
1101.906	0.746	correct	study	Phase2	study/STIM_027.jpg
1106.06	1.187	correct	study	Phase2	study/STIM_027.jpg
1110.518	0.774	correct	study	Phase2	study/STIM_028.jpg
1114.118	0.836	incorrect	study	Phase2	study/STIM_028.jpg
1117.81	0.864	correct	study	Phase2	study/STIM_028.jpg
1120.794	1.08	incorrect	study	Phase2	study/STIM_029.jpg
1124.118	0.811	correct	study	Phase2	study/STIM_029.jpg
1126.97	1.142	correct	study	Phase2	study/STIM_029.jpg
1131.825	1.261	correct	test	Phase2	test/STIM_000.jpg
1135.132	1.036	correct	test	Phase2	test/STIM_000.jpg
1139.107	0.794	correct	test	Phase2	test/STIM_000.jpg
1143.561	0.984	correct	test	Phase2	test/STIM_001.jpg
1146.768	1.093	correct	test	Phase2	test/STIM_001.jpg
1151.644	0.885	correct	test	Phase2	test/STIM_001.jpg
1155.504	0.842	correct	test	Phase2	test/STIM_002.jpg
1159.723	0.717	correct	test	Phase2	test/STIM_002.jpg
1163.954	0.983	correct	test	Phase2	test/STIM_002.jpg
1167.381	0.799	correct	test	Phase2	test/STIM_003.jpg
1171.099	0.973	correct	test	Phase2	test/STIM_003.jpg
1174.803	1.385	correct	test	Phase2	test/STIM_003.jpg
1178.808	0.801	correct	test	Phase2	test/STIM_004.jpg
1183.166	1.116	correct	test	Phase2	test/STIM_004.jpg
1187.594	1.217	correct	test	Phase2	test/STIM_004.jpg
1192.771	0.924	correct	test	Phase2	test/STIM_005.jpg
1197.365	1.059	correct	test	Phase2	test/STIM_005.jpg
1201.64	1.127	correct	test	Phase2	test/STIM_005.jpg
1205.958	0.858	correct	test	Phase2	test/STIM_006.jpg
1209.751	0.95	incorrect	test	Phase2	test/STIM_006.jpg
1213.839	1.026	correct	test	Phase2	test/STIM_006.jpg
1217.504	1.172	correct	test	Phase2	test/STIM_007.jpg
1222.257	1.261	correct	test	Phase2	test/STIM_007.jpg
1227.255	0.744	correct	test	Phase2	test/STIM_007.jpg
1231.613	0.719	correct	test	Phase2	test/STIM_008.jpg
1234.816	1.054	correct	test	Phase2	test/STIM_008.jpg
1239.706	1.0	correct	test	Phase2	test/STIM_008.jpg
1244.554	1.244	correct	test	Phase2	test/STIM_009.jpg
1248.288	1.013	correct	test	Phase2	test/STIM_009.jpg
1251.923	0.765	correct	test	Phase2	test/STIM_009.jpg
1256.233	0.78	correct	test	Phase2	test/STIM_010.jpg
1260.721	1.367	correct	test	Phase2	test/STIM_010.jpg
1264.819	1.348	correct	test	Phase2	test/STIM_010.jpg
1270.153	0.667	correct	test	Phase2	test/STIM_011.jpg
1274.309	1.113	correct	test	Phase2	test/STIM_011.jpg
1277.577	1.38	incorrect	test	Phase2	test/STIM_011.jpg
1281.109	1.228	correct	test	Phase2	test/STIM_012.jpg
1286.264	0.705	correct	test	Phase2	test/STIM_012.jpg
1290.515	0.667	correct	test	Phase2	test/STIM_012.jpg
1293.704	1.311	correct	test	Phase2	test/STIM_013.jpg
1297.129	1.066	correct	test	Phase2	test/STIM_013.jpg
1301.265	1.341	correct	test	Phase2	test/STIM_013.jpg
1304.854	0.689	correct	test	Phase2	test/STIM_014.jpg
1308.952	1.308	correct	test	Phase2	test/STIM_014.jpg
1312.395	1.268	correct	test	Phase2	test/STIM_014.jpg
1317.501	1.033	correct	test	Phase2	test/STIM_015.jpg
1322.519	0.81	correct	test	Phase2	test/STIM_015.jpg
1326.386	0.674	correct	test	Phase2	test/STIM_015.jpg
1329.964	0.922	correct	test	Phase2	test/STIM_016.jpg
1334.825	1.03	correct	test	Phase2	test/STIM_016.jpg
1337.885	1.23	correct	test	Phase2	test/STIM_016.jpg
1342.703	1.355	correct	test	Phase2	test/STIM_017.jpg
1346.612	1.271	correct	test	Phase2	test/STIM_017.jpg
1351.469	1.271	correct	test	Phase2	test/STIM_017.jpg
1356.64	1.34	correct	test	Phase2	test/STIM_018.jpg
1360.064	1.354	correct	test	Phase2	test/STIM_018.jpg
1364.901	1.159	correct	test	Phase2	test/STIM_018.jpg
1369.296	0.872	correct	test	Phase2	test/STIM_019.jpg
1373.232	0.888	correct	test	Phase2	test/STIM_019.jpg
1377.414	1.292	correct	test	Phase2	test/STIM_019.jpg
1381.581	0.748	correct	test	Phase2	test/STIM_020.jpg
1384.504	0.706	correct	test	Phase2	test/STIM_020.jpg
1389.018	0.769	correct	test	Phase2	test/STIM_020.jpg
1393.012	1.065	correct	test	Phase2	test/STIM_021.jpg
1396.537	1.023	correct	test	Phase2	test/STIM_021.jpg
1400.734	1.114	correct	test	Phase2	test/STIM_021.jpg
1404.509	0.881	correct	test	Phase2	test/STIM_022.jpg
1408.29	0.875	correct	test	Phase2	test/STIM_022.jpg
1411.451	0.949	correct	test	Phase2	test/STIM_022.jpg
1416.167	1.209	correct	test	Phase2	test/STIM_023.jpg
1420.306	1.373	correct	test	Phase2	test/STIM_023.jpg
1423.914	0.928	correct	test	Phase2	test/STIM_023.jpg
1427.245	0.752	incorrect	test	Phase2	test/STIM_024.jpg
1431.321	1.386	correct	test	Phase2	test/STIM_024.jpg
1436.458	1.196	correct	test	Phase2	test/STIM_024.jpg
1439.686	0.672	correct	test	Phase2	test/STIM_025.jpg
1443.286	0.668	correct	test	Phase2	test/STIM_025.jpg
1447.858	1.082	correct	test	Phase2	test/STIM_025.jpg
1451.921	1.403	correct	test	Phase2	test/STIM_026.jpg
1457.275	1.01	correct	test	Phase2	test/STIM_026.jpg
1461.567	0.809	correct	test	Phase2	test/STIM_026.jpg
1464.642	1.274	incorrect	test	Phase2	test/STIM_027.jpg
1468.201	0.928	correct	test	Phase2	test/STIM_027.jpg
1472.765	0.998	correct	test	Phase2	test/STIM_027.jpg
1475.966	0.659	correct	test	Phase2	test/STIM_028.jpg
1478.914	1.287	correct	test	Phase2	test/STIM_028.jpg
1483.813	1.114	correct	test	Phase2	test/STIM_028.jpg
1487.984	1.062	correct	test	Phase2	test/STIM_029.jpg
1492.324	0.788	correct	test	Phase2	test/STIM_029.jpg
1496.456	1.273	correct	test	Phase2	test/STIM_029.jpg
1500.958	1.165	correct	study	Phase3	study/STIM_000.jpg
1504.217	0.836	correct	study	Phase3	study/STIM_000.jpg
1508.574	1.232	correct	study	Phase3	study/STIM_000.jpg
1513.008	0.974	correct	study	Phase3	study/STIM_001.jpg
1517.821	1.1	correct	study	Phase3	study/STIM_001.jpg
1521.319	1.003	correct	study	Phase3	study/STIM_001.jpg
1525.969	1.29	correct	study	Phase3	study/STIM_002.jpg
1530.216	0.786	correct	study	Phase3	study/STIM_002.jpg
1533.28	1.31	correct	study	Phase3	study/STIM_002.jpg
1537.081	0.936	correct	study	Phase3	study/STIM_003.jpg
1541.205	1.226	correct	study	Phase3	study/STIM_003.jpg
1544.762	1.032	correct	study	Phase3	study/STIM_003.jpg
1549.515	1.179	correct	study	Phase3	study/STIM_004.jpg
1554.653	1.234	correct	study	Phase3	study/STIM_004.jpg
1559.587	1.169	correct	study	Phase3	study/STIM_004.jpg
1563.649	1.191	correct	study	Phase3	study/STIM_005.jpg
1568.64	0.785	correct	study	Phase3	study/STIM_005.jpg
1571.903	0.968	correct	study	Phase3	study/STIM_005.jpg
1575.864	1.013	correct	study	Phase3	study/STIM_006.jpg
1579.527	0.772	correct	study	Phase3	study/STIM_006.jpg
1583.575	0.719	correct	study	Phase3	study/STIM_006.jpg
1587.387	1.219	correct	study	Phase3	study/STIM_007.jpg
1592.254	0.664	correct	study	Phase3	study/STIM_007.jpg
1596.768	1.116	correct	study	Phase3	study/STIM_007.jpg
1600.61	1.181	correct	study	Phase3	study/STIM_008.jpg
1604.858	0.712	correct	study	Phase3	study/STIM_008.jpg
1608.375	1.291	correct	study	Phase3	study/STIM_008.jpg
1612.316	0.696	correct	study	Phase3	study/STIM_009.jpg
1615.173	1.242	correct	study	Phase3	study/STIM_009.jpg
1620.3	0.99	correct	study	Phase3	study/STIM_009.jpg
1624.976	1.028	correct	study	Phase3	study/STIM_010.jpg
1628.411	1.167	correct	study	Phase3	study/STIM_010.jpg
1632.59	0.805	correct	study	Phase3	study/STIM_010.jpg
1636.028	1.225	correct	study	Phase3	study/STIM_011.jpg
1639.957	0.836	incorrect	study	Phase3	study/STIM_011.jpg
1642.855	0.977	correct	study	Phase3	study/STIM_011.jpg
1647.705	1.036	correct	study	Phase3	study/STIM_012.jpg
1651.147	0.704	correct	study	Phase3	study/STIM_012.jpg
1655.07	1.152	correct	study	Phase3	study/STIM_012.jpg
1658.937	0.831	correct	study	Phase3	study/STIM_013.jpg
1661.927	0.954	correct	study	Phase3	study/STIM_013.jpg
1666.039	1.151	correct	study	Phase3	study/STIM_013.jpg
1670.956	1.171	correct	study	Phase3	study/STIM_014.jpg
1674.848	0.656	correct	study	Phase3	study/STIM_014.jpg
1678.862	0.853	correct	study	Phase3	study/STIM_014.jpg
1682.438	0.883	correct	study	Phase3	study/STIM_015.jpg
1685.51	1.368	correct	study	Phase3	study/STIM_015.jpg
1690.757	1.049	correct	study	Phase3	study/STIM_015.jpg
1695.011	1.105	correct	study	Phase3	study/STIM_016.jpg
1699.64	0.746	correct	study	Phase3	study/STIM_016.jpg
1703.065	0.921	correct	study	Phase3	study/STIM_016.jpg
1707.692	0.88	correct	study	Phase3	study/STIM_017.jpg
1711.52	0.828	correct	study	Phase3	study/STIM_017.jpg
1714.968	1.195	correct	study	Phase3	study/STIM_017.jpg
1718.594	0.974	correct	study	Phase3	study/STIM_018.jpg
1722.154	1.135	correct	study	Phase3	study/STIM_018.jpg
1727.035	0.999	correct	study	Phase3	study/STIM_018.jpg
1731.739	0.719	correct	study	Phase3	study/STIM_019.jpg
1734.796	1.275	correct	study	Phase3	study/STIM_019.jpg
1738.659	1.264	correct	study	Phase3	study/STIM_019.jpg
1742.116	1.07	correct	study	Phase3	study/STIM_020.jpg
1746.854	0.996	correct	study	Phase3	study/STIM_020.jpg
1751.794	1.028	correct	study	Phase3	study/STIM_020.jpg
1754.926	1.222	correct	study	Phase3	study/STIM_021.jpg
1758.728	0.83	correct	study	Phase3	study/STIM_021.jpg
1762.648	0.627	correct	study	Phase3	study/STIM_021.jpg
1766.498	0.981	correct	study	Phase3	study/STIM_022.jpg
1770.964	0.942	correct	study	Phase3	study/STIM_022.jpg
1775.626	1.066	correct	study	Phase3	study/STIM_022.jpg
1780.679	1.002	correct	study	Phase3	study/STIM_023.jpg
1785.257	0.743	correct	study	Phase3	study/STIM_023.jpg
1788.888	1.205	correct	study	Phase3	study/STIM_023.jpg
1793.002	1.248	correct	study	Phase3	study/STIM_024.jpg
1797.064	1.049	incorrect	study	Phase3	study/STIM_024.jpg
1800.491	1.077	correct	study	Phase3	study/STIM_024.jpg
1805.15	1.108	correct	study	Phase3	study/STIM_025.jpg
1809.977	1.068	correct	study	Phase3	study/STIM_025.jpg
1813.436	0.768	correct	study	Phase3	study/STIM_025.jpg
1817.848	0.638	correct	study	Phase3	study/STIM_026.jpg
1821.667	0.697	correct	study	Phase3	study/STIM_026.jpg
1826.115	0.891	correct	study	Phase3	study/STIM_026.jpg
1830.699	0.981	correct	study	Phase3	study/STIM_027.jpg
1835.462	0.709	correct	study	Phase3	study/STIM_027.jpg
1840.024	0.621	correct	study	Phase3	study/STIM_027.jpg
1843.21	1.041	correct	study	Phase3	study/STIM_028.jpg
1847.418	1.129	correct	study	Phase3	study/STIM_028.jpg
1852.031	1.02	correct	study	Phase3	study/STIM_028.jpg
1855.449	1.107	correct	study	Phase3	study/STIM_029.jpg
1859.272	1.043	correct	study	Phase3	study/STIM_029.jpg
1863.577	1.14	correct	study	Phase3	study/STIM_029.jpg
1868.107	0.803	correct	test	Phase3	test/STIM_000.jpg
1872.47	0.838	correct	test	Phase3	test/STIM_000.jpg
1875.905	1.008	correct	test	Phase3	test/STIM_000.jpg
1879.1	0.846	correct	test	Phase3	test/STIM_001.jpg
1883.018	1.177	correct	test	Phase3	test/STIM_001.jpg
1887.775	0.693	correct	test	Phase3	test/STIM_001.jpg
1891.96	1.041	correct	test	Phase3	test/STIM_002.jpg
1896.355	1.033	correct	test	Phase3	test/STIM_002.jpg
1899.486	0.741	correct	test	Phase3	test/STIM_002.jpg
1903.372	1.358	correct	test	Phase3	test/STIM_003.jpg
1908.653	1.381	correct	test	Phase3	test/STIM_003.jpg
1913.101	1.168	correct	test	Phase3	test/STIM_003.jpg
1916.326	1.319	correct	test	Phase3	test/STIM_004.jpg
1920.395	0.8	correct	test	Phase3	test/STIM_004.jpg
1924.615	1.312	correct	test	Phase3	test/STIM_004.jpg
1929.254	1.213	correct	test	Phase3	test/STIM_005.jpg
1933.265	1.114	correct	test	Phase3	test/STIM_005.jpg
1937.019	0.911	correct	test	Phase3	test/STIM_005.jpg
1941.066	1.37	correct	test	Phase3	test/STIM_006.jpg
1945.779	1.282	correct	test	Phase3	test/STIM_006.jpg
1950.67	0.727	correct	test	Phase3	test/STIM_006.jpg
1954.829	1.211	correct	test	Phase3	test/STIM_007.jpg
1959.618	1.105	correct	test	Phase3	test/STIM_007.jpg
1963.949	1.342	correct	test	Phase3	test/STIM_007.jpg
1967.654	0.796	correct	test	Phase3	test/STIM_008.jpg
1972.084	1.1	correct	test	Phase3	test/STIM_008.jpg
1976.671	0.895	correct	test	Phase3	test/STIM_008.jpg
1981.281	1.124	correct	test	Phase3	test/STIM_009.jpg
1985.874	0.989	correct	test	Phase3	test/STIM_009.jpg
1989.104	1.35	correct	test	Phase3	test/STIM_009.jpg
1993.275	1.305	correct	test	Phase3	test/STIM_010.jpg
1997.644	1.221	correct	test	Phase3	test/STIM_010.jpg
2000.899	0.826	correct	test	Phase3	test/STIM_010.jpg
2004.245	1.02	correct	test	Phase3	test/STIM_011.jpg
2008.458	1.079	correct	test	Phase3	test/STIM_011.jpg
2011.897	1.179	correct	test	Phase3	test/STIM_011.jpg
2015.722	0.889	correct	test	Phase3	test/STIM_012.jpg
2019.283	1.114	correct	test	Phase3	test/STIM_012.jpg
2022.439	1.132	correct	test	Phase3	test/STIM_012.jpg
2027.567	1.34	correct	test	Phase3	test/STIM_013.jpg
2031.644	0.707	correct	test	Phase3	test/STIM_013.jpg
2035.949	1.03	correct	test	Phase3	test/STIM_013.jpg
2040.118	0.887	incorrect	test	Phase3	test/STIM_014.jpg
2043.151	0.991	correct	test	Phase3	test/STIM_014.jpg
2047.004	1.246	correct	test	Phase3	test/STIM_014.jpg
2050.708	1.196	correct	test	Phase3	test/STIM_015.jpg
2054.745	0.691	correct	test	Phase3	test/STIM_015.jpg
2058.254	0.778	correct	test	Phase3	test/STIM_015.jpg
2061.845	0.655	correct	test	Phase3	test/STIM_016.jpg
2065.432	1.129	correct	test	Phase3	test/STIM_016.jpg
2070.128	0.891	correct	test	Phase3	test/STIM_016.jpg
2073.868	0.985	correct	test	Phase3	test/STIM_017.jpg
2078.428	0.953	correct	test	Phase3	test/STIM_017.jpg
2081.51	0.709	correct	test	Phase3	test/STIM_017.jpg
2084.675	0.79	correct	test	Phase3	test/STIM_018.jpg
2087.998	1.179	correct	test	Phase3	test/STIM_018.jpg
2091.984	1.329	correct	test	Phase3	test/STIM_018.jpg
2097.066	1.009	correct	test	Phase3	test/STIM_019.jpg
2101.146	0.948	correct	test	Phase3	test/STIM_019.jpg
2104.307	1.014	correct	test	Phase3	test/STIM_019.jpg
2108.913	1.317	correct	test	Phase3	test/STIM_020.jpg
2113.002	1.12	correct	test	Phase3	test/STIM_020.jpg
2117.862	1.049	correct	test	Phase3	test/STIM_020.jpg
2121.63	1.384	correct	test	Phase3	test/STIM_021.jpg
2126.466	1.053	correct	test	Phase3	test/STIM_021.jpg
2129.915	1.101	correct	test	Phase3	test/STIM_021.jpg
2134.929	0.915	correct	test	Phase3	test/STIM_022.jpg
2138.964	0.889	correct	test	Phase3	test/STIM_022.jpg
2143.386	0.696	correct	test	Phase3	test/STIM_022.jpg
2147.346	0.919	correct	test	Phase3	test/STIM_023.jpg
2152.037	1.377	correct	test	Phase3	test/STIM_023.jpg
2156.443	1.102	correct	test	Phase3	test/STIM_023.jpg
2161.384	0.703	incorrect	test	Phase3	test/STIM_024.jpg
2164.505	0.987	incorrect	test	Phase3	test/STIM_024.jpg
2168.338	1.36	correct	test	Phase3	test/STIM_024.jpg
2172.834	0.986	correct	test	Phase3	test/STIM_025.jpg
2177.609	0.973	correct	test	Phase3	test/STIM_025.jpg
2181.567	1.114	correct	test	Phase3	test/STIM_025.jpg
2186.646	0.946	correct	test	Phase3	test/STIM_026.jpg
2189.667	1.297	correct	test	Phase3	test/STIM_026.jpg
2193.56	0.938	correct	test	Phase3	test/STIM_026.jpg
2197.338	0.978	correct	test	Phase3	test/STIM_027.jpg
2202.014	0.942	correct	test	Phase3	test/STIM_027.jpg
2205.017	0.996	correct	test	Phase3	test/STIM_027.jpg
2208.446	0.721	correct	test	Phase3	test/STIM_028.jpg
2212.064	1.177	correct	test	Phase3	test/STIM_028.jpg
2216.679	1.244	correct	test	Phase3	test/STIM_028.jpg
2219.972	1.075	correct	test	Phase3	test/STIM_029.jpg
2224.779	1.344	incorrect	test	Phase3	test/STIM_029.jpg
2229.624	0.944	correct	test	Phase3	test/STIM_029.jpg
