onset	duration	accuracy	trial_type	learning_stage	stimulus
0.0	1.614	correct	study	Phase1	study/STIM_000.jpg
5.191	1.871	incorrect	study	Phase1	study/STIM_000.jpg
9.756	1.207	correct	study	Phase1	study/STIM_000.jpg
14.323	1.842	correct	study	Phase1	study/STIM_001.jpg
19.603	1.242	correct	study	Phase1	study/STIM_001.jpg
23.782	0.991	correct	study	Phase1	study/STIM_001.jpg
27.219	1.511	incorrect	study	Phase1	study/STIM_002.jpg
31.286	1.863	correct	study	Phase1	study/STIM_002.jpg
36.291	0.959	correct	study	Phase1	study/STIM_002.jpg
41.165	1.81	correct	study	Phase1	study/STIM_003.jpg
44.909	1.393	correct	study	Phase1	study/STIM_003.jpg
49.666	1.195	correct	study	Phase1	study/STIM_003.jpg
52.964	1.105	correct	study	Phase1	study/STIM_004.jpg
56.011	2.007	correct	study	Phase1	study/STIM_004.jpg
60.346	0.948	correct	study	Phase1	study/STIM_004.jpg
63.292	1.755	incorrect	study	Phase1	study/STIM_005.jpg
68.808	1.229	correct	study	Phase1	study/STIM_005.jpg
72.718	1.176	correct	study	Phase1	study/STIM_005.jpg
77.51	1.509	correct	study	Phase1	study/STIM_006.jpg
81.693	0.94	correct	study	Phase1	study/STIM_006.jpg
86.056	1.179	correct	study	Phase1	study/STIM_006.jpg
89.514	0.947	correct	study	Phase1	study/STIM_007.jpg
93.829	1.493	correct	study	Phase1	study/STIM_007.jpg
98.118	0.936	correct	study	Phase1	study/STIM_007.jpg
101.457	1.701	correct	study	Phase1	study/STIM_008.jpg
105.463	1.784	correct	study	Phase1	study/STIM_008.jpg
110.42	1.23	correct	study	Phase1	study/STIM_008.jpg
114.183	1.375	correct	study	Phase1	study/STIM_009.jpg
117.951	1.576	correct	study	Phase1	study/STIM_009.jpg
121.572	1.367	correct	study	Phase1	study/STIM_009.jpg
125.476	1.901	correct	study	Phase1	study/STIM_010.jpg
130.832	1.634	incorrect	study	Phase1	study/STIM_010.jpg
136.001	1.426	correct	study	Phase1	study/STIM_010.jpg
140.041	1.97	correct	study	Phase1	study/STIM_011.jpg
143.837	1.872	correct	study	Phase1	study/STIM_011.jpg
149.015	1.322	incorrect	study	Phase1	study/STIM_011.jpg
153.321	1.005	correct	study	Phase1	study/STIM_012.jpg
157.886	0.986	correct	study	Phase1	study/STIM_012.jpg
161.97	1.699	correct	study	Phase1	study/STIM_012.jpg
166.555	2.054	correct	study	Phase1	study/STIM_013.jpg
170.974	1.648	incorrect	study	Phase1	study/STIM_013.jpg
175.778	0.999	incorrect	study	Phase1	study/STIM_013.jpg
179.447	1.102	correct	study	Phase1	study/STIM_014.jpg
183.67	1.038	incorrect	study	Phase1	study/STIM_014.jpg
187.357	1.712	correct	study	Phase1	study/STIM_014.jpg
191.645	1.826	correct	study	Phase1	study/STIM_015.jpg
195.4	0.987	correct	study	Phase1	study/STIM_015.jpg
199.667	0.916	correct	study	Phase1	study/STIM_015.jpg
202.479	1.706	correct	study	Phase1	study/STIM_016.jpg
207.694	1.682	correct	study	Phase1	study/STIM_016.jpg
211.29	1.769	incorrect	study	Phase1	study/STIM_016.jpg
214.89	1.523	correct	study	Phase1	study/STIM_017.jpg
218.626	1.466	correct	study	Phase1	study/STIM_017.jpg
223.416	1.671	correct	study	Phase1	study/STIM_017.jpg
228.797	1.269	correct	study	Phase1	study/STIM_018.jpg
233.13	1.141	correct	study	Phase1	study/STIM_018.jpg
236.722	1.593	correct	study	Phase1	study/STIM_018.jpg
241.833	1.007	correct	study	Phase1	study/STIM_019.jpg
246.547	1.077	correct	study	Phase1	study/STIM_019.jpg
250.525	1.712	correct	study	Phase1	study/STIM_019.jpg
254.738	1.612	correct	study	Phase1	study/STIM_020.jpg
258.225	1.026	correct	study	Phase1	study/STIM_020.jpg
261.221	1.762	correct	study	Phase1	study/STIM_020.jpg
266.29	1.669	correct	study	Phase1	study/STIM_021.jpg
271.021	1.931	correct	study	Phase1	study/STIM_021.jpg
275.561	1.677	correct	study	Phase1	study/STIM_021.jpg
280.518	1.709	correct	study	Phase1	study/STIM_022.jpg
285.925	1.392	correct	study	Phase1	study/STIM_022.jpg
291.054	1.346	correct	study	Phase1	study/STIM_022.jpg
294.948	1.61	correct	study	Phase1	study/STIM_023.jpg
298.916	1.704	correct	study	Phase1	study/STIM_023.jpg
302.64	1.683	correct	study	Phase1	study/STIM_023.jpg
306.332	1.59	correct	study	Phase1	study/STIM_024.jpg
310.201	1.752	correct	study	Phase1	study/STIM_024.jpg
315.778	1.763	correct	study	Phase1	study/STIM_024.jpg
319.713	1.366	correct	study	Phase1	study/STIM_025.jpg
324.56	1.493	correct	study	Phase1	study/STIM_025.jpg
329.365	1.821	correct	study	Phase1	study/STIM_025.jpg
334.023	1.572	correct	study	Phase1	study/STIM_026.jpg
338.794	1.651	correct	study	Phase1	study/STIM_026.jpg
343.628	1.775	incorrect	study	Phase1	study/STIM_026.jpg
348.686	1.957	incorrect	study	Phase1	study/STIM_027.jpg
354.134	1.509	correct	study	Phase1	study/STIM_027.jpg
358.59	1.792	correct	study	Phase1	study/STIM_027.jpg
363.418	1.722	correct	study	Phase1	study/STIM_028.jpg
368.715	1.257	correct	study	Phase1	study/STIM_028.jpg
373.662	1.622	correct	study	Phase1	study/STIM_028.jpg
378.4	1.964	correct	study	Phase1	study/STIM_029.jpg
384.058	1.191	correct	study	Phase1	study/STIM_029.jpg
389.165	1.508	correct	study	Phase1	study/STIM_029.jpg
393.732	1.341	correct	test	Phase1	test/STIM_000.jpg
398.287	0.859	correct	test	Phase1	test/STIM_000.jpg
401.469	1.158	correct	test	Phase1	test/STIM_000.jpg
406.543	0.88	correct	test	Phase1	test/STIM_001.jpg
409.424	1.026	incorrect	test	Phase1	test/STIM_001.jpg
413.913	0.901	incorrect	test	Phase1	test/STIM_001.jpg
417.674	1.096	correct	test	Phase1	test/STIM_002.jpg
422.384	1.342	incorrect	test	Phase1	test/STIM_002.jpg
426.557	1.296	correct	test	Phase1	test/STIM_002.jpg
430.894	1.271	correct	test	Phase1	test/STIM_003.jpg
434.677	1.063	correct	test	Phase1	test/STIM_003.jpg
439.582	0.76	correct	test	Phase1	test/STIM_003.jpg
443.299	0.684	correct	test	Phase1	test/STIM_004.jpg
447.251	0.884	correct	test	Phase1	test/STIM_004.jpg
451.621	0.96	correct	test	Phase1	test/STIM_004.jpg
454.603	0.671	correct	test	Phase1	test/STIM_005.jpg
458.86	1.361	correct	test	Phase1	test/STIM_005.jpg
463.605	1.438	correct	test	Phase1	test/STIM_005.jpg
468.142	0.72	correct	test	Phase1	test/STIM_006.jpg
471.005	0.853	correct	test	Phase1	test/STIM_006.jpg
473.964	1.012	correct	test	Phase1	test/STIM_006.jpg
477.347	1.065	correct	test	Phase1	test/STIM_007.jpg
480.426	1.266	correct	test	Phase1	test/STIM_007.jpg
483.846	1.356	correct	test	Phase1	test/STIM_007.jpg
487.383	0.734	correct	test	Phase1	test/STIM_008.jpg
491.304	1.445	correct	test	Phase1	test/STIM_008.jpg
494.708	1.365	correct	test	Phase1	test/STIM_008.jpg
498.839	1.256	correct	test	Phase1	test/STIM_009.jpg
503.498	0.77	correct	test	Phase1	test/STIM_009.jpg
507.944	1.193	correct	test	Phase1	test/STIM_009.jpg
513.011	1.482	correct	test	Phase1	test/STIM_010.jpg
518.09	1.041	incorrect	test	Phase1	test/STIM_010.jpg
522.935	1.267	correct	test	Phase1	test/STIM_010.jpg
526.97	0.645	correct	test	Phase1	test/STIM_011.jpg
530.125	0.759	correct	test	Phase1	test/STIM_011.jpg
533.927	1.208	correct	test	Phase1	test/STIM_011.jpg
537.246	0.772	correct	test	Phase1	test/STIM_012.jpg
540.48	1.122	correct	test	Phase1	test/STIM_012.jpg
544.295	0.683	correct	test	Phase1	test/STIM_012.jpg
547.048	1.138	correct	test	Phase1	test/STIM_013.jpg
551.561	0.902	correct	test	Phase1	test/STIM_013.jpg
556.315	1.009	correct	test	Phase1	test/STIM_013.jpg
561.087	1.243	correct	test	Phase1	test/STIM_014.jpg
564.962	0.912	correct	test	Phase1	test/STIM_014.jpg
568.566	1.065	correct	test	Phase1	test/STIM_014.jpg
572.734	0.875	correct	test	Phase1	test/STIM_015.jpg
576.539	1.202	correct	test	Phase1	test/STIM_015.jpg
580.498	0.983	correct	test	Phase1	test/STIM_015.jpg
585.1	1.312	incorrect	test	Phase1	test/STIM_016.jpg
589.64	1.048	correct	test	Phase1	test/STIM_016.jpg
592.963	0.697	correct	test	Phase1	test/STIM_016.jpg
596.769	1.031	correct	test	Phase1	test/STIM_017.jpg
601.438	0.822	correct	test	Phase1	test/STIM_017.jpg
605.154	1.446	incorrect	test	Phase1	test/STIM_017.jpg
610.076	1.095	correct	test	Phase1	test/STIM_018.jpg
614.754	1.201	incorrect	test	Phase1	test/STIM_018.jpg
618.995	0.764	correct	test	Phase1	test/STIM_018.jpg
621.677	1.205	correct	test	Phase1	test/STIM_019.jpg
625.698	0.775	incorrect	test	Phase1	test/STIM_019.jpg
629.776	0.688	correct	test	Phase1	test/STIM_019.jpg
633.699	0.965	correct	test	Phase1	test/STIM_020.jpg
638.404	1.19	correct	test	Phase1	test/STIM_020.jpg
643.229	1.107	correct	test	Phase1	test/STIM_020.jpg
646.255	1.256	correct	test	Phase1	test/STIM_021.jpg
650.27	0.893	correct	test	Phase1	test/STIM_021.jpg
653.462	1.171	correct	test	Phase1	test/STIM_021.jpg
656.719	1.403	correct	test	Phase1	test/STIM_022.jpg
661.873	0.835	correct	test	Phase1	test/STIM_022.jpg
666.582	1.058	correct	test	Phase1	test/STIM_022.jpg
671.244	0.817	correct	test	Phase1	test/STIM_023.jpg
674.979	1.048	correct	test	Phase1	test/STIM_023.jpg
678.39	0.901	correct	test	Phase1	test/STIM_023.jpg
681.785	1.415	correct	test	Phase1	test/STIM_024.jpg
686.773	0.959	correct	test	Phase1	test/STIM_024.jpg
689.772	0.974	correct	test	Phase1	test/STIM_024.jpg
693.348	1.1	correct	test	Phase1	test/STIM_025.jpg
698.065	1.373	correct	test	Phase1	test/STIM_025.jpg
702.427	1.18	correct	test	Phase1	test/STIM_025.jpg
707.027	1.443	correct	test	Phase1	test/STIM_026.jpg
712.08	1.316	correct	test	Phase1	test/STIM_026.jpg
715.732	0.78	correct	test	Phase1	test/STIM_026.jpg
719.541	0.831	correct	test	Phase1	test/STIM_027.jpg
723.327	1.113	correct	test	Phase1	test/STIM_027.jpg
727.523	0.712	correct	test	Phase1	test/STIM_027.jpg
731.986	1.23	correct	test	Phase1	test/STIM_028.jpg
735.475	1.003	correct	test	Phase1	test/STIM_028.jpg
738.869	1.213	correct	test	Phase1	test/STIM_028.jpg
742.951	1.233	correct	test	Phase1	test/STIM_029.jpg
747.021	1.254	correct	test	Phase1	test/STIM_029.jpg
751.938	1.285	correct	test	Phase1	test/STIM_029.jpg
755.681	1.372	correct	study	Phase2	study/STIM_000.jpg
760.816	0.977	correct	study	Phase2	study/STIM_000.jpg
765.135	1.425	correct	study	Phase2	study/STIM_000.jpg
769.439	1.18	correct	study	Phase2	study/STIM_001.jpg
773.37	1.31	correct	study	Phase2	study/STIM_001.jpg
777.397	0.778	correct	study	Phase2	study/STIM_001.jpg
781.013	1.22	incorrect	study	Phase2	study/STIM_002.jpg
785.753	1.037	correct	study	Phase2	study/STIM_002.jpg
789.259	1.215	correct	study	Phase2	study/STIM_002.jpg
794.22	1.164	correct	study	Phase2	study/STIM_003.jpg
797.656	0.968	correct	study	Phase2	study/STIM_003.jpg
802.314	0.962	correct	study	Phase2	study/STIM_003.jpg
805.671	1.185	correct	study	Phase2	study/STIM_004.jpg
810.568	1.384	correct	study	Phase2	study/STIM_004.jpg
814.433	0.689	correct	study	Phase2	study/STIM_004.jpg
817.281	1.449	correct	study	Phase2	study/STIM_005.jpg
821.35	0.956	correct	study	Phase2	study/STIM_005.jpg
824.804	0.894	correct	study	Phase2	study/STIM_005.jpg
828.013	0.758	correct	study	Phase2	study/STIM_006.jpg
831.434	1.41	correct	study	Phase2	study/STIM_006.jpg
835.247	1.3	correct	study	Phase2	study/STIM_006.jpg
840.385	1.01	correct	study	Phase2	study/STIM_007.jpg
843.241	1.421	correct	study	Phase2	study/STIM_007.jpg
847.094	0.731	correct	study	Phase2	study/STIM_007.jpg
849.848	0.814	correct	study	Phase2	study/STIM_008.jpg
853.651	0.805	correct	study	Phase2	study/STIM_008.jpg
857.599	1.362	correct	study	Phase2	study/STIM_008.jpg
862.514	1.084	correct	study	Phase2	study/STIM_009.jpg
866.293	1.19	incorrect	study	Phase2	study/STIM_009.jpg
870.68	1.542	correct	study	Phase2	study/STIM_009.jpg
874.539	1.194	correct	study	Phase2	study/STIM_010.jpg
878.89	1.263	correct	study	Phase2	study/STIM_010.jpg
883.714	0.786	correct	study	Phase2	study/STIM_010.jpg
886.924	1.043	correct	study	Phase2	study/STIM_011.jpg
890.842	0.905	correct	study	Phase2	study/STIM_011.jpg
894.378	1.322	correct	study	Phase2	study/STIM_011.jpg
898.497	1.339	correct	study	Phase2	study/STIM_012.jpg
903.491	1.033	correct	study	Phase2	study/STIM_012.jpg
907.464	0.952	correct	study	Phase2	study/STIM_012.jpg
911.427	1.313	correct	study	Phase2	study/STIM_013.jpg
914.777	0.975	correct	study	Phase2	study/STIM_013.jpg
917.899	0.826	correct	study	Phase2	study/STIM_013.jpg
921.852	1.447	correct	study	Phase2	study/STIM_014.jpg
925.333	1.434	correct	study	Phase2	study/STIM_014.jpg
930.136	0.872	correct	study	Phase2	study/STIM_014.jpg
933.343	0.912	correct	study	Phase2	study/STIM_015.jpg
937.271	0.896	correct	study	Phase2	study/STIM_015.jpg
941.003	1.024	correct	study	Phase2	study/STIM_015.jpg
945.496	0.962	correct	study	Phase2	study/STIM_016.jpg
948.942	0.876	correct	study	Phase2	study/STIM_016.jpg
952.677	1.048	correct	study	Phase2	study/STIM_016.jpg
956.604	1.646	correct	study	Phase2	study/STIM_017.jpg
961.917	1.151	correct	study	Phase2	study/STIM_017.jpg
965.307	1.235	correct	study	Phase2	study/STIM_017.jpg
969.816	1.506	correct	study	Phase2	study/STIM_018.jpg
974.798	0.941	correct	study	Phase2	study/STIM_018.jpg
978.086	0.905	correct	study	Phase2	study/STIM_018.jpg
981.288	1.438	correct	study	Phase2	study/STIM_019.jpg
986.542	1.622	correct	study	Phase2	study/STIM_019.jpg
991.516	0.962	correct	study	Phase2	study/STIM_019.jpg
994.532	1.36	correct	study	Phase2	study/STIM_020.jpg
999.436	1.558	incorrect	study	Phase2	study/STIM_020.jpg
1004.281	0.796	correct	study	Phase2	study/STIM_020.jpg
1007.734	0.958	correct	study	Phase2	study/STIM_021.jpg
1011.126	0.965	correct	study	Phase2	study/STIM_021.jpg
1014.639	1.44	correct	study	Phase2	study/STIM_021.jpg
1018.946	1.672	correct	study	Phase2	study/STIM_022.jpg
1022.469	1.244	correct	study	Phase2	study/STIM_022.jpg
1027.444	1.257	correct	study	Phase2	study/STIM_022.jpg
1030.687	0.89	correct	study	Phase2	study/STIM_023.jpg
1035.407	1.698	correct	study	Phase2	study/STIM_023.jpg
1040.608	0.836	correct	study	Phase2	study/STIM_023.jpg
1044.132	1.481	incorrect	study	Phase2	study/STIM_024.jpg
1048.19	1.177	correct	study	Phase2	study/STIM_024.jpg
1051.759	1.404	incorrect	study	Phase2	study/STIM_024.jpg
1056.474	1.256	correct	study	Phase2	study/STIM_025.jpg
1060.52	1.183	correct	study	Phase2	study/STIM_025.jpg
1064.928	1.059	correct	study	Phase2	study/STIM_025.jpg
1069.676	1.242	correct	study	Phase2	study/STIM_026.jpg
1074.02	1.367	incorrect	study	Phase2	study/STIM_026.jpg
1078.491	1.134	correct	study	Phase2	study/STIM_026.jpg
1082.097	1.19	correct	study	Phase2	study/STIM_027.jpg
1085.914	1.168	correct	study	Phase2	study/STIM_027.jpg
1090.004	0.959	correct	study	Phase2	study/STIM_027.jpg
1094.355	1.642	correct	study	Phase2	study/STIM_028.jpg
1099.152	1.203	incorrect	study	Phase2	study/STIM_028.jpg
1102.537	0.932	correct	study	Phase2	study/STIM_028.jpg
1105.944	1.158	correct	study	Phase2	study/STIM_029.jpg
1109.449	1.385	correct	study	Phase2	study/STIM_029.jpg
1112.881	1.586	correct	study	Phase2	study/STIM_029.jpg
1116.325	1.526	correct	test	Phase2	test/STIM_000.jpg
1120.177	0.945	correct	test	Phase2	test/STIM_000.jpg
1124.325	1.265	correct	test	Phase2	test/STIM_000.jpg
1127.887	1.11	correct	test	Phase2	test/STIM_001.jpg
1131.125	0.813	correct	test	Phase2	test/STIM_001.jpg
1135.585	0.989	correct	test	Phase2	test/STIM_001.jpg
1138.52	1.012	correct	test	Phase2	test/STIM_002.jpg
1142.392	1.02	correct	test	Phase2	test/STIM_002.jpg
1146.608	1.356	correct	test	Phase2	test/STIM_002.jpg
1150.563	1.273	correct	test	Phase2	test/STIM_003.jpg
1154.915	0.966	correct	test	Phase2	test/STIM_003.jpg
1158.776	0.937	correct	test	Phase2	test/STIM_003.jpg
1163.045	1.154	correct	test	Phase2	test/STIM_004.jpg
1166.262	1.402	correct	test	Phase2	test/STIM_004.jpg
1170.85	1.031	correct	test	Phase2	test/STIM_004.jpg
1175.58	1.157	correct	test	Phase2	test/STIM_005.jpg
1179.97	1.404	correct	test	Phase2	test/STIM_005.jpg
1183.99	1.345	correct	test	Phase2	test/STIM_005.jpg
1188.956	1.297	correct	test	Phase2	test/STIM_006.jpg
1192.908	0.994	incorrect	test	Phase2	test/STIM_006.jpg
1197.142	0.821	correct	test	Phase2	test/STIM_006.jpg
1201.257	1.421	correct	test	Phase2	test/STIM_007.jpg
1205.637	1.455	correct	test	Phase2	test/STIM_007.jpg
1209.319	1.022	correct	test	Phase2	test/STIM_007.jpg
1214.071	1.416	correct	test	Phase2	test/STIM_008.jpg
1218.598	1.13	incorrect	test	Phase2	test/STIM_008.jpg
1221.698	0.904	correct	test	Phase2	test/STIM_008.jpg
1225.17	1.181	correct	test	Phase2	test/STIM_009.jpg
1229.064	1.143	correct	test	Phase2	test/STIM_009.jpg
1232.329	0.732	correct	test	Phase2	test/STIM_009.jpg
1235.225	1.093	correct	test	Phase2	test/STIM_010.jpg
1239.856	0.724	incorrect	test	Phase2	test/STIM_010.jpg
1242.915	0.739	correct	test	Phase2	test/STIM_010.jpg
1245.849	0.829	correct	test	Phase2	test/STIM_011.jpg
1248.817	1.181	correct	test	Phase2	test/STIM_011.jpg
1253.071	1.038	incorrect	test	Phase2	test/STIM_011.jpg
1257.592	1.364	correct	test	Phase2	test/STIM_012.jpg
1262.447	1.06	correct	test	Phase2	test/STIM_012.jpg
1266.894	1.105	correct	test	Phase2	test/STIM_012.jpg
1271.291	1.075	correct	test	Phase2	test/STIM_013.jpg
1275.794	0.917	correct	test	Phase2	test/STIM_013.jpg
1279.073	0.766	correct	test	Phase2	test/STIM_013.jpg
1283.473	1.432	correct	test	Phase2	test/STIM_014.jpg
1287.194	0.992	correct	test	Phase2	test/STIM_014.jpg
1291.848	0.911	correct	test	Phase2	test/STIM_014.jpg
1294.724	1.251	correct	test	Phase2	test/STIM_015.jpg
1298.302	1.413	correct	test	Phase2	test/STIM_015.jpg
1302.412	1.047	correct	test	Phase2	test/STIM_015.jpg
1306.421	1.134	incorrect	test	Phase2	test/STIM_016.jpg
1310.0	0.725	correct	test	Phase2	test/STIM_016.jpg
1313.388	1.481	correct	test	Phase2	test/STIM_016.jpg
1317.489	0.769	correct	test	Phase2	test/STIM_017.jpg
1321.049	1.31	correct	test	Phase2	test/STIM_017.jpg
1325.361	1.295	correct	test	Phase2	test/STIM_017.jpg
1329.543	1.333	correct	test	Phase2	test/STIM_018.jpg
1333.921	1.004	correct	test	Phase2	test/STIM_018.jpg
1338.203	1.414	correct	test	Phase2	test/STIM_018.jpg
1343.187	1.027	correct	test	Phase2	test/STIM_019.jpg
1347.664	0.775	correct	test	Phase2	test/STIM_019.jpg
1352.305	0.781	correct	test	Phase2	test/STIM_019.jpg
1357.011	0.986	correct	test	Phase2	test/STIM_020.jpg
1360.711	1.527	correct	test	Phase2	test/STIM_020.jpg
1365.909	0.688	correct	test	Phase2	test/STIM_020.jpg
1369.783	0.799	correct	test	Phase2	test/STIM_021.jpg
1374.327	1.117	correct	test	Phase2	test/STIM_021.jpg
1377.687	1.157	correct	test	Phase2	test/STIM_021.jpg
1382.242	0.901	correct	test	Phase2	test/STIM_022.jpg
1385.211	0.958	correct	test	Phase2	test/STIM_022.jpg
1389.171	1.192	correct	test	Phase2	test/STIM_022.jpg
1393.388	0.952	correct	test	Phase2	test/STIM_023.jpg
1396.501	0.916	correct	test	Phase2	test/STIM_023.jpg
1400.48	0.739	correct	test	Phase2	test/STIM_023.jpg
1404.299	0.95	incorrect	test	Phase2	test/STIM_024.jpg
1407.291	1.273	correct	test	Phase2	test/STIM_024.jpg
1410.901	0.659	correct	test	Phase2	test/STIM_024.jpg
1415.256	0.799	correct	test	Phase2	test/STIM_025.jpg
1419.611	1.022	correct	test	Phase2	test/STIM_025.jpg
1423.013	0.727	correct	test	Phase2	test/STIM_025.jpg
1427.295	1.09	correct	test	Phase2	test/STIM_026.jpg
1431.272	1.176	correct	test	Phase2	test/STIM_026.jpg
1436.088	1.302	correct	test	Phase2	test/STIM_026.jpg
1440.026	1.038	incorrect	test	Phase2	test/STIM_027.jpg
1444.447	0.651	correct	test	Phase2	test/STIM_027.jpg
1447.886	1.377	correct	test	Phase2	test/STIM_027.jpg
1452.164	1.451	correct	test	Phase2	test/STIM_028.jpg
1456.579	1.208	incorrect	test	Phase2	test/STIM_028.jpg
1461.141	0.718	correct	test	Phase2	test/STIM_028.jpg
1464.16	0.997	correct	test	Phase2	test/STIM_029.jpg
1467.382	1.25	correct	test	Phase2	test/STIM_029.jpg
1471.93	1.388	correct	test	Phase2	test/STIM_029.jpg
1476.254	0.842	correct	study	Phase3	study/STIM_000.jpg
1479.085	1.044	correct	study	Phase3	study/STIM_000.jpg
1482.42	1.307	correct	study	Phase3	study/STIM_000.jpg
1487.392	1.231	correct	study	Phase3	study/STIM_001.jpg
1492.398	0.98	correct	study	Phase3	study/STIM_001.jpg
1496.639	0.714	correct	study	Phase3	study/STIM_001.jpg
1501.161	0.667	correct	study	Phase3	study/STIM_002.jpg
1503.899	0.959	correct	study	Phase3	study/STIM_002.jpg
1507.452	1.306	correct	study	Phase3	study/STIM_002.jpg
1511.025	1.096	correct	study	Phase3	study/STIM_003.jpg
1514.062	1.363	correct	study	Phase3	study/STIM_003.jpg
1517.327	1.111	correct	study	Phase3	study/STIM_003.jpg
1521.192	0.769	correct	study	Phase3	study/STIM_004.jpg
1524.031	0.949	correct	study	Phase3	study/STIM_004.jpg
1528.42	0.816	correct	study	Phase3	study/STIM_004.jpg
1532.89	1.272	correct	study	Phase3	study/STIM_005.jpg
1536.122	0.638	correct	study	Phase3	study/STIM_005.jpg
1539.392	0.943	correct	study	Phase3	study/STIM_005.jpg
1544.068	0.881	correct	study	Phase3	study/STIM_006.jpg
1548.297	1.407	correct	study	Phase3	study/STIM_006.jpg
1551.707	1.274	correct	study	Phase3	study/STIM_006.jpg
1556.017	0.949	correct	study	Phase3	study/STIM_007.jpg
1560.851	0.775	correct	study	Phase3	study/STIM_007.jpg
1563.978	0.609	correct	study	Phase3	study/STIM_007.jpg
1566.576	1.024	correct	study	Phase3	study/STIM_008.jpg
1570.7	1.282	correct	study	Phase3	study/STIM_008.jpg
1573.846	0.968	correct	study	Phase3	study/STIM_008.jpg
1578.314	0.657	correct	study	Phase3	study/STIM_009.jpg
1581.588	1.257	correct	study	Phase3	study/STIM_009.jpg
1586.276	1.101	correct	study	Phase3	study/STIM_009.jpg
1590.953	1.199	correct	study	Phase3	study/STIM_010.jpg
1594.202	0.925	correct	study	Phase3	study/STIM_010.jpg
1597.985	0.656	correct	study	Phase3	study/STIM_010.jpg
1601.296	1.147	correct	study	Phase3	study/STIM_011.jpg
1606.047	1.042	correct	study	Phase3	study/STIM_011.jpg
1610.272	1.233	correct	study	Phase3	study/STIM_011.jpg
1615.32	0.694	correct	study	Phase3	study/STIM_012.jpg
1618.683	0.962	correct	study	Phase3	study/STIM_012.jpg
1621.509	0.956	correct	study	Phase3	study/STIM_012.jpg
1625.351	0.984	correct	study	Phase3	study/STIM_013.jpg
1629.288	1.403	correct	study	Phase3	study/STIM_013.jpg
1632.695	1.07	correct	study	Phase3	study/STIM_013.jpg
1635.88	1.309	correct	study	Phase3	study/STIM_014.jpg
1640.152	1.006	correct	study	Phase3	study/STIM_014.jpg
1644.477	1.059	correct	study	Phase3	study/STIM_014.jpg
1647.443	1.332	correct	study	Phase3	study/STIM_015.jpg
1652.489	1.147	correct	study	Phase3	study/STIM_015.jpg
1655.883	0.588	correct	study	Phase3	study/STIM_015.jpg
1659.562	0.654	correct	study	Phase3	study/STIM_016.jpg
1662.995	0.902	correct	study	Phase3	study/STIM_016.jpg
1667.612	1.122	correct	study	Phase3	study/STIM_016.jpg
1671.005	0.585	correct	study	Phase3	study/STIM_017.jpg
1673.847	1.073	correct	study	Phase3	study/STIM_017.jpg
1677.8	0.977	correct	study	Phase3	study/STIM_017.jpg
1681.72	0.641	incorrect	study	Phase3	study/STIM_018.jpg
1686.031	1.384	correct	study	Phase3	study/STIM_018.jpg
1690.528	0.782	correct	study	Phase3	study/STIM_018.jpg
1694.271	0.971	correct	study	Phase3	study/STIM_019.jpg
1697.59	1.218	correct	study	Phase3	study/STIM_019.jpg
1702.466	0.618	correct	study	Phase3	study/STIM_019.jpg
1705.255	1.261	correct	study	Phase3	study/STIM_020.jpg
1708.662	0.901	correct	study	Phase3	study/STIM_020.jpg
1712.693	1.366	incorrect	study	Phase3	study/STIM_020.jpg
1716.201	0.886	correct	study	Phase3	study/STIM_021.jpg
1720.346	1.112	correct	study	Phase3	study/STIM_021.jpg
1723.846	1.258	correct	study	Phase3	study/STIM_021.jpg
1727.863	0.807	correct	study	Phase3	study/STIM_022.jpg
1731.657	0.696	correct	study	Phase3	study/STIM_022.jpg
1735.347	1.144	correct	study	Phase3	study/STIM_022.jpg
1738.437	1.404	correct	study	Phase3	study/STIM_023.jpg
1741.994	1.362	correct	study	Phase3	study/STIM_023.jpg
1746.481	1.201	correct	study	Phase3	study/STIM_023.jpg
1750.898	0.796	correct	study	Phase3	study/STIM_024.jpg
1754.487	1.102	incorrect	study	Phase3	study/STIM_024.jpg
1758.8	1.282	correct	study	Phase3	study/STIM_024.jpg
1763.179	1.044	correct	study	Phase3	study/STIM_025.jpg
1767.738	1.251	correct	study	Phase3	study/STIM_025.jpg
1771.558	1.349	correct	study	Phase3	study/STIM_025.jpg
1774.925	1.398	incorrect	study	Phase3	study/STIM_026.jpg
1779.825	1.045	correct	study	Phase3	study/STIM_026.jpg
1783.749	0.672	correct	study	Phase3	study/STIM_026.jpg
1788.102	1.151	correct	study	Phase3	study/STIM_027.jpg
1791.738	0.789	correct	study	Phase3	study/STIM_027.jpg
1795.454	1.214	correct	study	Phase3	study/STIM_027.jpg
1800.272	1.428	correct	study	Phase3	study/STIM_028.jpg
1805.225	0.807	correct	study	Phase3	study/STIM_028.jpg
1808.403	0.751	correct	study	Phase3	study/STIM_028.jpg
1811.694	0.866	correct	study	Phase3	study/STIM_029.jpg
1816.224	0.67	correct	study	Phase3	study/STIM_029.jpg
1819.324	1.34	correct	study	Phase3	study/STIM_029.jpg
1822.988	0.945	correct	test	Phase3	test/STIM_000.jpg
1826.175	0.827	correct	test	Phase3	test/STIM_000.jpg
1829.248	1.11	correct	test	Phase3	test/STIM_000.jpg
1832.222	1.229	correct	test	Phase3	test/STIM_001.jpg
1835.652	1.112	correct	test	Phase3	test/STIM_001.jpg
1840.138	1.179	correct	test	Phase3	test/STIM_001.jpg
1845.036	1.298	incorrect	test	Phase3	test/STIM_002.jpg
1848.9	0.887	correct	test	Phase3	test/STIM_002.jpg
1852.036	0.747	correct	test	Phase3	test/STIM_002.jpg
1856.179	1.117	correct	test	Phase3	test/STIM_003.jpg
1860.763	0.897	correct	test	Phase3	test/STIM_003.jpg
1865.131	1.307	correct	test	Phase3	test/STIM_003.jpg
1869.425	1.188	correct	test	Phase3	test/STIM_004.jpg
1872.477	0.78	correct	test	Phase3	test/STIM_004.jpg
1876.553	0.918	correct	test	Phase3	test/STIM_004.jpg
1880.862	1.142	incorrect	test	Phase3	test/STIM_005.jpg
1884.477	1.23	correct	test	Phase3	test/STIM_005.jpg
1889.236	0.891	correct	test	Phase3	test/STIM_005.jpg
1893.856	0.715	correct	test	Phase3	test/STIM_006.jpg
1896.695	0.706	correct	test	Phase3	test/STIM_006.jpg
1899.717	1.265	correct	test	Phase3	test/STIM_006.jpg
1904.136	0.832	correct	test	Phase3	test/STIM_007.jpg
1907.519	1.206	correct	test	Phase3	test/STIM_007.jpg
1910.9	0.85	incorrect	test	Phase3	test/STIM_007.jpg
1913.609	1.384	correct	test	Phase3	test/STIM_008.jpg
1918.235	1.095	incorrect	test	Phase3	test/STIM_008.jpg
1922.893	1.242	correct	test	Phase3	test/STIM_008.jpg
1926.883	1.115	correct	test	Phase3	test/STIM_009.jpg
1931.729	1.002	incorrect	test	Phase3	test/STIM_009.jpg
1935.651	0.706	correct	test	Phase3	test/STIM_009.jpg
1940.289	0.916	correct	test	Phase3	test/STIM_010.jpg
1943.688	1.064	correct	test	Phase3	test/STIM_010.jpg
1948.516	1.238	correct	test	Phase3	test/STIM_010.jpg
1951.982	1.478	correct	test	Phase3	test/STIM_011.jpg
1956.13	1.039	correct	test	Phase3	test/STIM_011.jpg
1959.779	0.832	correct	test	Phase3	test/STIM_011.jpg
1962.71	1.212	correct	test	Phase3	test/STIM_012.jpg
1966.625	1.317	correct	test	Phase3	test/STIM_012.jpg
1971.316	1.107	correct	test	Phase3	test/STIM_012.jpg
1975.237	1.505	correct	test	Phase3	test/STIM_013.jpg
1979.243	1.262	correct	test	Phase3	test/STIM_013.jpg
1982.96	1.298	correct	test	Phase3	test/STIM_013.jpg
1986.209	1.031	incorrect	test	Phase3	test/STIM_014.jpg
1989.638	1.131	correct	test	Phase3	test/STIM_014.jpg
1992.723	1.088	correct	test	Phase3	test/STIM_014.jpg
1996.633	1.044	correct	test	Phase3	test/STIM_015.jpg
1999.778	1.078	correct	test	Phase3	test/STIM_015.jpg
2002.94	1.227	correct	test	Phase3	test/STIM_015.jpg
2006.019	0.998	correct	test	Phase3	test/STIM_016.jpg
2009.312	1.235	correct	test	Phase3	test/STIM_016.jpg
2013.72	1.224	correct	test	Phase3	test/STIM_016.jpg
2018.369	0.81	correct	test	Phase3	test/STIM_017.jpg
2022.954	0.836	correct	test	Phase3	test/STIM_017.jpg
2027.285	0.836	correct	test	Phase3	test/STIM_017.jpg
2029.97	1.079	correct	test	Phase3	test/STIM_018.jpg
2033.613	0.757	correct	test	Phase3	test/STIM_018.jpg
2036.63	1.414	correct	test	Phase3	test/STIM_018.jpg
2040.186	1.231	correct	test	Phase3	test/STIM_019.jpg
2043.673	1.167	correct	test	Phase3	test/STIM_019.jpg
2048.226	0.832	incorrect	test	Phase3	test/STIM_019.jpg
2052.134	1.024	correct	test	Phase3	test/STIM_020.jpg
2055.933	0.867	correct	test	Phase3	test/STIM_020.jpg
2058.73	1.171	correct	test	Phase3	test/STIM_020.jpg
2063.055	1.003	correct	test	Phase3	test/STIM_021.jpg
2066.519	1.1	correct	test	Phase3	test/STIM_021.jpg
2070.869	0.732	correct	test	Phase3	test/STIM_021.jpg
2074.759	1.464	correct	test	Phase3	test/STIM_022.jpg
2078.978	1.215	correct	test	Phase3	test/STIM_022.jpg
2082.19	1.061	correct	test	Phase3	test/STIM_022.jpg
2085.648	0.721	incorrect	test	Phase3	test/STIM_023.jpg
2089.132	0.743	correct	test	Phase3	test/STIM_023.jpg
2093.739	1.392	correct	test	Phase3	test/STIM_023.jpg
2098.352	1.396	incorrect	test	Phase3	test/STIM_024.jpg
2102.482	1.321	incorrect	test	Phase3	test/STIM_024.jpg
2105.794	1.116	correct	test	Phase3	test/STIM_024.jpg
2109.682	1.328	correct	test	Phase3	test/STIM_025.jpg
2114.029	1.392	correct	test	Phase3	test/STIM_025.jpg
2118.708	1.22	correct	test	Phase3	test/STIM_025.jpg
2121.98	0.99	correct	test	Phase3	test/STIM_026.jpg
2124.908	1.332	correct	test	Phase3	test/STIM_026.jpg
2128.136	1.171	correct	test	Phase3	test/STIM_026.jpg
2132.067	1.373	correct	test	Phase3	test/STIM_027.jpg
2135.449	1.401	correct	test	Phase3	test/STIM_027.jpg
2139.316	1.101	correct	test	Phase3	test/STIM_027.jpg
2143.271	0.918	correct	test	Phase3	test/STIM_028.jpg
2147.359	1.144	correct	test	Phase3	test/STIM_028.jpg
2151.097	1.422	correct	test	Phase3	test/STIM_028.jpg
2155.781	0.938	correct	test	Phase3	test/STIM_029.jpg
2160.591	1.009	incorrect	test	Phase3	test/STIM_029.jpg
2165.349	0.866	correct	test	Phase3	test/STIM_029.jpg
