onset	duration	response_time_ms	trial_type	learning_stage	stimulus	response_port
0.0	1.614	1614.5	study	Phase1	study/STIM_000.jpg	100
5.191	1.871	1871.4	study	Phase1	study/STIM_000.jpg	100
9.756	1.207	1207.2	study	Phase1	study/STIM_000.jpg	100
14.323	1.842	1841.9	study	Phase1	study/STIM_001.jpg	99
19.603	1.242	1242.2	study	Phase1	study/STIM_001.jpg	100
23.782	0.991	991.4	study	Phase1	study/STIM_001.jpg	99
27.219	1.511	1511.4	study	Phase1	study/STIM_002.jpg	100
31.286	1.863	1862.8	study	Phase1	study/STIM_002.jpg	99
36.291	0.959	959.2	study	Phase1	study/STIM_002.jpg	100
41.165	1.81	1809.5	study	Phase1	study/STIM_003.jpg	100
44.909	1.393	1393.1	study	Phase1	study/STIM_003.jpg	100
49.666	1.195	1194.7	study	Phase1	study/STIM_003.jpg	100
52.964	1.105	1104.8	study	Phase1	study/STIM_004.jpg	100
56.011	2.007	2006.9	study	Phase1	study/STIM_004.jpg	100
60.346	0.948	947.5	study	Phase1	study/STIM_004.jpg	99
63.292	1.755	1755.3	study	Phase1	study/STIM_005.jpg	99
68.808	1.229	1228.7	study	Phase1	study/STIM_005.jpg	99
72.718	1.176	1176.4	study	Phase1	study/STIM_005.jpg	99
77.51	1.509	1509.1	study	Phase1	study/STIM_006.jpg	99
81.693	0.94	940.5	study	Phase1	study/STIM_006.jpg	100
86.056	1.179	1178.6	study	Phase1	study/STIM_006.jpg	100
89.514	0.947	946.9	study	Phase1	study/STIM_007.jpg	99
93.829	1.493	1492.9	study	Phase1	study/STIM_007.jpg	99
98.118	0.936	935.9	study	Phase1	study/STIM_007.jpg	100
101.457	1.701	1701.2	study	Phase1	study/STIM_008.jpg	99
105.463	1.784	1783.8	study	Phase1	study/STIM_008.jpg	100
110.42	1.23	1230.1	study	Phase1	study/STIM_008.jpg	99
114.183	1.375	1375.3	study	Phase1	study/STIM_009.jpg	100
117.951	1.576	1575.9	study	Phase1	study/STIM_009.jpg	100
121.572	1.367	1367.2	study	Phase1	study/STIM_009.jpg	100
125.476	1.901	1901.2	study	Phase1	study/STIM_010.jpg	100
130.832	1.634	1633.9	study	Phase1	study/STIM_010.jpg	100
136.001	1.426	1425.6	study	Phase1	study/STIM_010.jpg	100
140.041	1.97	1969.6	study	Phase1	study/STIM_011.jpg	100
143.837	1.872	1871.6	study	Phase1	study/STIM_011.jpg	100
149.015	1.322	1321.9	study	Phase1	study/STIM_011.jpg	99
153.321	1.005	1005.2	study	Phase1	study/STIM_012.jpg	99
157.886	0.986	986.3	study	Phase1	study/STIM_012.jpg	99
161.97	1.699	1698.7	study	Phase1	study/STIM_012.jpg	100
166.555	2.054	2053.8	study	Phase1	study/STIM_013.jpg	100
170.974	1.648	1647.7	study	Phase1	study/STIM_013.jpg	99
175.778	0.999	999.4	study	Phase1	study/STIM_013.jpg	99
179.447	1.102	1102.0	study	Phase1	study/STIM_014.jpg	99
183.67	1.038	1038.4	study	Phase1	study/STIM_014.jpg	99
187.357	1.712	1712.0	study	Phase1	study/STIM_014.jpg	100
191.645	1.826	1826.3	study	Phase1	study/STIM_015.jpg	99
195.4	0.987	986.9	study	Phase1	study/STIM_015.jpg	100
199.667	0.916	916.2	study	Phase1	study/STIM_015.jpg	100
202.479	1.706	1706.0	study	Phase1	study/STIM_016.jpg	99
207.694	1.682	1681.6	study	Phase1	study/STIM_016.jpg	100
211.29	1.769	1769.0	study	Phase1	study/STIM_016.jpg	100
214.89	1.523	1522.7	study	Phase1	study/STIM_017.jpg	100
218.626	1.466	1466.1	study	Phase1	study/STIM_017.jpg	100
223.416	1.671	1671.0	study	Phase1	study/STIM_017.jpg	100
228.797	1.269	1268.6	study	Phase1	study/STIM_018.jpg	99
233.13	1.141	1141.1	study	Phase1	study/STIM_018.jpg	100
236.722	1.593	1593.2	study	Phase1	study/STIM_018.jpg	100
241.833	1.007	1006.8	study	Phase1	study/STIM_019.jpg	99
246.547	1.077	1077.1	study	Phase1	study/STIM_019.jpg	100
250.525	1.712	1711.5	study	Phase1	study/STIM_019.jpg	100
254.738	1.612	1612.4	study	Phase1	study/STIM_020.jpg	100
258.225	1.026	1025.7	study	Phase1	study/STIM_020.jpg	99
261.221	1.762	1761.5	study	Phase1	study/STIM_020.jpg	100
266.29	1.669	1669.2	study	Phase1	study/STIM_021.jpg	99
271.021	1.931	1931.2	study	Phase1	study/STIM_021.jpg	100
275.561	1.677	1677.1	study	Phase1	study/STIM_021.jpg	100
280.518	1.709	1709.0	study	Phase1	study/STIM_022.jpg	99
285.925	1.392	1392.1	study	Phase1	study/STIM_022.jpg	99
291.054	1.346	1345.6	study	Phase1	study/STIM_022.jpg	99
294.948	1.61	1609.6	study	Phase1	study/STIM_023.jpg	99
298.916	1.704	1704.5	study	Phase1	study/STIM_023.jpg	99
302.64	1.683	1682.6	study	Phase1	study/STIM_023.jpg	99
306.332	1.59	1590.3	study	Phase1	study/STIM_024.jpg	99
310.201	1.752	1752.5	study	Phase1	study/STIM_024.jpg	100
315.778	1.763	1763.3	study	Phase1	study/STIM_024.jpg	99
319.713	1.366	1366.1	study	Phase1	study/STIM_025.jpg	99
324.56	1.493	1492.8	study	Phase1	study/STIM_025.jpg	100
329.365	1.821	1821.2	study	Phase1	study/STIM_025.jpg	100
334.023	1.572	1572.1	study	Phase1	study/STIM_026.jpg	99
338.794	1.651	1651.2	study	Phase1	study/STIM_026.jpg	99
343.628	1.775	1775.0	study	Phase1	study/STIM_026.jpg	99
348.686	1.957	1957.4	study	Phase1	study/STIM_027.jpg	100
354.134	1.509	1508.7	study	Phase1	study/STIM_027.jpg	99
358.59	1.792	1791.5	study	Phase1	study/STIM_027.jpg	99
363.418	1.722	1721.7	study	Phase1	study/STIM_028.jpg	99
368.715	1.257	1256.6	study	Phase1	study/STIM_028.jpg	99
373.662	1.622	1621.8	study	Phase1	study/STIM_028.jpg	100
378.4	1.964	1964.1	study	Phase1	study/STIM_029.jpg	100
384.058	1.191	1190.7	study	Phase1	study/STIM_029.jpg	99
389.165	1.508	1508.4	study	Phase1	study/STIM_029.jpg	100
393.732	1.341	1340.6	test	Phase1	test/STIM_000.jpg	99
398.287	0.859	859.4	test	Phase1	test/STIM_000.jpg	99
401.469	1.158	1158.4	test	Phase1	test/STIM_000.jpg	99
406.543	0.88	879.6	test	Phase1	test/STIM_001.jpg	99
409.424	1.026	1025.7	test	Phase1	test/STIM_001.jpg	100
413.913	0.901	901.3	test	Phase1	test/STIM_001.jpg	100
417.674	1.096	1096.4	test	Phase1	test/STIM_002.jpg	99
422.384	1.342	1341.8	test	Phase1	test/STIM_002.jpg	99
426.557	1.296	1296.4	test	Phase1	test/STIM_002.jpg	99
430.894	1.271	1270.6	test	Phase1	test/STIM_003.jpg	99
434.677	1.063	1063.0	test	Phase1	test/STIM_003.jpg	99
439.582	0.76	760.1	test	Phase1	test/STIM_003.jpg	100
443.299	0.684	683.9	test	Phase1	test/STIM_004.jpg	99
447.251	0.884	883.6	test	Phase1	test/STIM_004.jpg	99
451.621	0.96	960.0	test	Phase1	test/STIM_004.jpg	100
454.603	0.671	671.1	test	Phase1	test/STIM_005.jpg	99
458.86	1.361	1361.1	test	Phase1	test/STIM_005.jpg	99
463.605	1.438	1438.3	test	Phase1	test/STIM_005.jpg	100
468.142	0.72	720.4	test	Phase1	test/STIM_006.jpg	99
471.005	0.853	853.1	test	Phase1	test/STIM_006.jpg	99
473.964	1.012	1011.7	test	Phase1	test/STIM_006.jpg	99
477.347	1.065	1065.0	test	Phase1	test/STIM_007.jpg	100
480.426	1.266	1265.9	test	Phase1	test/STIM_007.jpg	99
483.846	1.356	1355.5	test	Phase1	test/STIM_007.jpg	99
487.383	0.734	733.6	test	Phase1	test/STIM_008.jpg	100
491.304	1.445	1444.8	test	Phase1	test/STIM_008.jpg	100
494.708	1.365	1365.1	test	Phase1	test/STIM_008.jpg	99
498.839	1.256	1256.3	test	Phase1	test/STIM_009.jpg	100
503.498	0.77	770.2	test	Phase1	test/STIM_009.jpg	99
507.944	1.193	1193.3	test	Phase1	test/STIM_009.jpg	99
513.011	1.482	1481.5	test	Phase1	test/STIM_010.jpg	99
518.09	1.041	1041.4	test	Phase1	test/STIM_010.jpg	100
522.935	1.267	1266.6	test	Phase1	test/STIM_010.jpg	100
526.97	0.645	644.7	test	Phase1	test/STIM_011.jpg	100
530.125	0.759	759.2	test	Phase1	test/STIM_011.jpg	100
533.927	1.208	1208.5	test	Phase1	test/STIM_011.jpg	100
537.246	0.772	772.5	test	Phase1	test/STIM_012.jpg	99
540.48	1.122	1122.1	test	Phase1	test/STIM_012.jpg	100
544.295	0.683	682.6	test	Phase1	test/STIM_012.jpg	100
547.048	1.138	1138.4	test	Phase1	test/STIM_013.jpg	100
551.561	0.902	901.7	test	Phase1	test/STIM_013.jpg	99
556.315	1.009	1009.2	test	Phase1	test/STIM_013.jpg	100
561.087	1.243	1242.7	test	Phase1	test/STIM_014.jpg	100
564.962	0.912	911.8	test	Phase1	test/STIM_014.jpg	99
568.566	1.065	1065.1	test	Phase1	test/STIM_014.jpg	100
572.734	0.875	875.3	test	Phase1	test/STIM_015.jpg	99
576.539	1.202	1201.9	test	Phase1	test/STIM_015.jpg	100
580.498	0.983	982.9	test	Phase1	test/STIM_015.jpg	99
585.1	1.312	1312.5	test	Phase1	test/STIM_016.jpg	99
589.64	1.048	1048.0	test	Phase1	test/STIM_016.jpg	100
592.963	0.697	696.7	test	Phase1	test/STIM_016.jpg	100
596.769	1.031	1031.0	test	Phase1	test/STIM_017.jpg	99
601.438	0.822	821.9	test	Phase1	test/STIM_017.jpg	99
605.154	1.446	1446.2	test	Phase1	test/STIM_017.jpg	99
610.076	1.095	1095.1	test	Phase1	test/STIM_018.jpg	99
614.754	1.201	1200.8	test	Phase1	test/STIM_018.jpg	99
618.995	0.764	764.3	test	Phase1	test/STIM_018.jpg	99
621.677	1.205	1204.9	test	Phase1	test/STIM_019.jpg	100
625.698	0.775	775.2	test	Phase1	test/STIM_019.jpg	99
629.776	0.688	687.5	test	Phase1	test/STIM_019.jpg	99
633.699	0.965	965.4	test	Phase1	test/STIM_020.jpg	99
638.404	1.19	1190.3	test	Phase1	test/STIM_020.jpg	99
643.229	1.107	1107.0	test	Phase1	test/STIM_020.jpg	99
646.255	1.256	1255.6	test	Phase1	test/STIM_021.jpg	100
650.27	0.893	893.4	test	Phase1	test/STIM_021.jpg	99
653.462	1.171	1171.3	test	Phase1	test/STIM_021.jpg	100
656.719	1.403	1403.3	test	Phase1	test/STIM_022.jpg	99
661.873	0.835	834.6	test	Phase1	test/STIM_022.jpg	99
666.582	1.058	1058.5	test	Phase1	test/STIM_022.jpg	99
671.244	0.817	816.8	test	Phase1	test/STIM_023.jpg	99
674.979	1.048	1047.6	test	Phase1	test/STIM_023.jpg	99
678.39	0.901	900.7	test	Phase1	test/STIM_023.jpg	99
681.785	1.415	1414.9	test	Phase1	test/STIM_024.jpg	100
686.773	0.959	958.7	test	Phase1	test/STIM_024.jpg	100
689.772	0.974	974.3	test	Phase1	test/STIM_024.jpg	100
693.348	1.1	1099.8	test	Phase1	test/STIM_025.jpg	100
698.065	1.373	1373.4	test	Phase1	test/STIM_025.jpg	99
702.427	1.18	1180.0	test	Phase1	test/STIM_025.jpg	99
707.027	1.443	1443.1	test	Phase1	test/STIM_026.jpg	99
712.08	1.316	1316.2	test	Phase1	test/STIM_026.jpg	100
715.732	0.78	779.7	test	Phase1	test/STIM_026.jpg	100
719.541	0.831	830.8	test	Phase1	test/STIM_027.jpg	99
723.327	1.113	1112.8	test	Phase1	test/STIM_027.jpg	100
727.523	0.712	712.5	test	Phase1	test/STIM_027.jpg	99
731.986	1.23	1230.5	test	Phase1	test/STIM_028.jpg	100
735.475	1.003	1002.8	test	Phase1	test/STIM_028.jpg	99
738.869	1.213	1212.6	test	Phase1	test/STIM_028.jpg	100
742.951	1.233	1232.9	test	Phase1	test/STIM_029.jpg	100
747.021	1.254	1254.3	test	Phase1	test/STIM_029.jpg	100
751.938	1.285	1285.3	test	Phase1	test/STIM_029.jpg	100
755.681	1.372	1372.3	study	Phase2	study/STIM_000.jpg	100
760.816	0.977	976.7	study	Phase2	study/STIM_000.jpg	99
765.135	1.425	1425.1	study	Phase2	study/STIM_000.jpg	100
769.439	1.18	1179.9	study	Phase2	study/STIM_001.jpg	100
773.37	1.31	1309.6	study	Phase2	study/STIM_001.jpg	99
777.397	0.778	777.6	study	Phase2	study/STIM_001.jpg	100
781.013	1.22	1219.5	study	Phase2	study/STIM_002.jpg	100
785.753	1.037	1037.4	study	Phase2	study/STIM_002.jpg	99
789.259	1.215	1214.7	study	Phase2	study/STIM_002.jpg	99
794.22	1.164	1164.0	study	Phase2	study/STIM_003.jpg	100
797.656	0.968	967.9	study	Phase2	study/STIM_003.jpg	99
802.314	0.962	962.3	study	Phase2	study/STIM_003.jpg	99
805.671	1.185	1185.3	study	Phase2	study/STIM_004.jpg	99
810.568	1.384	1384.4	study	Phase2	study/STIM_004.jpg	99
814.433	0.689	689.2	study	Phase2	study/STIM_004.jpg	100
817.281	1.449	1449.3	study	Phase2	study/STIM_005.jpg	100
821.35	0.956	955.5	study	Phase2	study/STIM_005.jpg	99
824.804	0.894	894.0	study	Phase2	study/STIM_005.jpg	100
828.013	0.758	757.7	study	Phase2	study/STIM_006.jpg	99
831.434	1.41	1409.9	study	Phase2	study/STIM_006.jpg	100
835.247	1.3	1299.8	study	Phase2	study/STIM_006.jpg	99
840.385	1.01	1010.2	study	Phase2	study/STIM_007.jpg	100
843.241	1.421	1421.1	study	Phase2	study/STIM_007.jpg	100
847.094	0.731	730.8	study	Phase2	study/STIM_007.jpg	100
849.848	0.814	814.0	study	Phase2	study/STIM_008.jpg	100
853.651	0.805	805.2	study	Phase2	study/STIM_008.jpg	99
857.599	1.362	1361.7	study	Phase2	study/STIM_008.jpg	99
862.514	1.084	1084.4	study	Phase2	study/STIM_009.jpg	99
866.293	1.19	1189.9	study	Phase2	study/STIM_009.jpg	100
870.68	1.542	1541.5	study	Phase2	study/STIM_009.jpg	99
874.539	1.194	1194.5	study	Phase2	study/STIM_010.jpg	99
878.89	1.263	1262.8	study	Phase2	study/STIM_010.jpg	99
883.714	0.786	786.5	study	Phase2	study/STIM_010.jpg	100
886.924	1.043	1043.3	study	Phase2	study/STIM_011.jpg	99
890.842	0.905	905.3	study	Phase2	study/STIM_011.jpg	99
894.378	1.322	1322.1	study	Phase2	study/STIM_011.jpg	100
898.497	1.339	1339.3	study	Phase2	study/STIM_012.jpg	99
903.491	1.033	1033.1	study	Phase2	study/STIM_012.jpg	99
907.464	0.952	951.9	study	Phase2	study/STIM_012.jpg	100
911.427	1.313	1312.8	study	Phase2	study/STIM_013.jpg	100
914.777	0.975	974.6	study	Phase2	study/STIM_013.jpg	100
917.899	0.826	826.4	study	Phase2	study/STIM_013.jpg	99
921.852	1.447	1447.2	study	Phase2	study/STIM_014.jpg	100
925.333	1.434	1434.2	study	Phase2	study/STIM_014.jpg	100
930.136	0.872	872.5	study	Phase2	study/STIM_014.jpg	99
933.343	0.912	911.5	study	Phase2	study/STIM_015.jpg	99
937.271	0.896	895.5	study	Phase2	study/STIM_015.jpg	100
941.003	1.024	1023.8	study	Phase2	study/STIM_015.jpg	100
945.496	0.962	961.5	study	Phase2	study/STIM_016.jpg	99
948.942	0.876	876.3	study	Phase2	study/STIM_016.jpg	99
952.677	1.048	1047.7	study	Phase2	study/STIM_016.jpg	99
956.604	1.646	1646.1	study	Phase2	study/STIM_017.jpg	100
961.917	1.151	1150.7	study	Phase2	study/STIM_017.jpg	100
965.307	1.235	1234.8	study	Phase2	study/STIM_017.jpg	100
969.816	1.506	1505.8	study	Phase2	study/STIM_018.jpg	100
974.798	0.941	940.7	study	Phase2	study/STIM_018.jpg	99
978.086	0.905	904.7	study	Phase2	study/STIM_018.jpg	100
981.288	1.438	1437.7	study	Phase2	study/STIM_019.jpg	99
986.542	1.622	1622.0	study	Phase2	study/STIM_019.jpg	99
991.516	0.962	961.6	study	Phase2	study/STIM_019.jpg	99
994.532	1.36	1359.9	study	Phase2	study/STIM_020.jpg	100
999.436	1.558	1557.8	study	Phase2	study/STIM_020.jpg	99
1004.281	0.796	795.5	study	Phase2	study/STIM_020.jpg	100
1007.734	0.958	958.2	study	Phase2	study/STIM_021.jpg	99
1011.126	0.965	965.4	study	Phase2	study/STIM_021.jpg	99
1014.639	1.44	1439.9	study	Phase2	study/STIM_021.jpg	99
1018.946	1.672	1672.3	study	Phase2	study/STIM_022.jpg	99
1022.469	1.244	1243.7	study	Phase2	study/STIM_022.jpg	100
1027.444	1.257	1257.3	study	Phase2	study/STIM_022.jpg	100
1030.687	0.89	889.5	study	Phase2	study/STIM_023.jpg	100
1035.407	1.698	1698.1	study	Phase2	study/STIM_023.jpg	100
1040.608	0.836	835.7	study	Phase2	study/STIM_023.jpg	99
1044.132	1.481	1481.0	study	Phase2	study/STIM_024.jpg	100
1048.19	1.177	1176.7	study	Phase2	study/STIM_024.jpg	100
1051.759	1.404	1404.3	study	Phase2	study/STIM_024.jpg	100
1056.474	1.256	1255.8	study	Phase2	study/STIM_025.jpg	100
1060.52	1.183	1182.6	study	Phase2	study/STIM_025.jpg	99
1064.928	1.059	1059.0	study	Phase2	study/STIM_025.jpg	100
1069.676	1.242	1242.4	study	Phase2	study/STIM_026.jpg	100
1074.02	1.367	1367.0	study	Phase2	study/STIM_026.jpg	99
1078.491	1.134	1134.3	study	Phase2	study/STIM_026.jpg	100
1082.097	1.19	1190.2	study	Phase2	study/STIM_027.jpg	99
1085.914	1.168	1168.0	study	Phase2	study/STIM_027.jpg	100
1090.004	0.959	959.2	study	Phase2	study/STIM_027.jpg	100
1094.355	1.642	1642.0	study	Phase2	study/STIM_028.jpg	99
1099.152	1.203	1202.9	study	Phase2	study/STIM_028.jpg	99
1102.537	0.932	932.3	study	Phase2	study/STIM_028.jpg	100
1105.944	1.158	1158.0	study	Phase2	study/STIM_029.jpg	99
1109.449	1.385	1384.9	study	Phase2	study/STIM_029.jpg	99
1112.881	1.586	1586.5	study	Phase2	study/STIM_029.jpg	99
1116.325	1.526	1526.4	test	Phase2	test/STIM_000.jpg	100
1120.177	0.945	944.6	test	Phase2	test/STIM_000.jpg	99
1124.325	1.265	1264.6	test	Phase2	test/STIM_000.jpg	100
1127.887	1.11	1109.7	test	Phase2	test/STIM_001.jpg	99
1131.125	0.813	812.8	test	Phase2	test/STIM_001.jpg	99
1135.585	0.989	989.4	test	Phase2	test/STIM_001.jpg	100
1138.52	1.012	1011.8	test	Phase2	test/STIM_002.jpg	99
1142.392	1.02	1020.0	test	Phase2	test/STIM_002.jpg	99
1146.608	1.356	1356.5	test	Phase2	test/STIM_002.jpg	100
1150.563	1.273	1273.0	test	Phase2	test/STIM_003.jpg	100
1154.915	0.966	965.8	test	Phase2	test/STIM_003.jpg	99
1158.776	0.937	937.0	test	Phase2	test/STIM_003.jpg	100
1163.045	1.154	1153.6	test	Phase2	test/STIM_004.jpg	100
1166.262	1.402	1402.4	test	Phase2	test/STIM_004.jpg	99
1170.85	1.031	1030.9	test	Phase2	test/STIM_004.jpg	100
1175.58	1.157	1156.7	test	Phase2	test/STIM_005.jpg	100
1179.97	1.404	1403.7	test	Phase2	test/STIM_005.jpg	99
1183.99	1.345	1345.0	test	Phase2	test/STIM_005.jpg	100
1188.956	1.297	1296.6	test	Phase2	test/STIM_006.jpg	99
1192.908	0.994	994.4	test	Phase2	test/STIM_006.jpg	100
1197.142	0.821	821.1	test	Phase2	test/STIM_006.jpg	99
1201.257	1.421	1421.1	test	Phase2	test/STIM_007.jpg	99
1205.637	1.455	1454.7	test	Phase2	test/STIM_007.jpg	99
1209.319	1.022	1022.2	test	Phase2	test/STIM_007.jpg	99
1214.071	1.416	1415.8	test	Phase2	test/STIM_008.jpg	100
1218.598	1.13	1129.9	test	Phase2	test/STIM_008.jpg	100
1221.698	0.904	904.2	test	Phase2	test/STIM_008.jpg	100
1225.17	1.181	1180.6	test	Phase2	test/STIM_009.jpg	99
1229.064	1.143	1142.6	test	Phase2	test/STIM_009.jpg	99
1232.329	0.732	731.9	test	Phase2	test/STIM_009.jpg	100
1235.225	1.093	1093.4	test	Phase2	test/STIM_010.jpg	100
1239.856	0.724	724.5	test	Phase2	test/STIM_010.jpg	100
1242.915	0.739	738.9	test	Phase2	test/STIM_010.jpg	99
1245.849	0.829	829.0	test	Phase2	test/STIM_011.jpg	100
1248.817	1.181	1181.1	test	Phase2	test/STIM_011.jpg	100
1253.071	1.038	1037.9	test	Phase2	test/STIM_011.jpg	99
1257.592	1.364	1363.8	test	Phase2	test/STIM_012.jpg	100
1262.447	1.06	1060.2	test	Phase2	test/STIM_012.jpg	99
1266.894	1.105	1104.6	test	Phase2	test/STIM_012.jpg	100
1271.291	1.075	1074.7	test	Phase2	test/STIM_013.jpg	100
1275.794	0.917	916.6	test	Phase2	test/STIM_013.jpg	100
1279.073	0.766	766.3	test	Phase2	test/STIM_013.jpg	99
1283.473	1.432	1432.4	test	Phase2	test/STIM_014.jpg	99
1287.194	0.992	991.8	test	Phase2	test/STIM_014.jpg	100
1291.848	0.911	911.4	test	Phase2	test/STIM_014.jpg	100
1294.724	1.251	1251.4	test	Phase2	test/STIM_015.jpg	100
1298.302	1.413	1412.8	test	Phase2	test/STIM_015.jpg	100
1302.412	1.047	1046.7	test	Phase2	test/STIM_015.jpg	100
1306.421	1.134	1133.7	test	Phase2	test/STIM_016.jpg	99
1310.0	0.725	725.2	test	Phase2	test/STIM_016.jpg	99
1313.388	1.481	1481.2	test	Phase2	test/STIM_016.jpg	100
1317.489	0.769	769.1	test	Phase2	test/STIM_017.jpg	100
1321.049	1.31	1310.1	test	Phase2	test/STIM_017.jpg	99
1325.361	1.295	1294.8	test	Phase2	test/STIM_017.jpg	99
1329.543	1.333	1333.0	test	Phase2	test/STIM_018.jpg	99
1333.921	1.004	1003.6	test	Phase2	test/STIM_018.jpg	99
1338.203	1.414	1414.0	test	Phase2	test/STIM_018.jpg	100
1343.187	1.027	1026.8	test	Phase2	test/STIM_019.jpg	99
1347.664	0.775	775.1	test	Phase2	test/STIM_019.jpg	100
1352.305	0.781	780.8	test	Phase2	test/STIM_019.jpg	100
1357.011	0.986	986.1	test	Phase2	test/STIM_020.jpg	100
1360.711	1.527	1527.1	test	Phase2	test/STIM_020.jpg	100
1365.909	0.688	687.6	test	Phase2	test/STIM_020.jpg	100
1369.783	0.799	799.4	test	Phase2	test/STIM_021.jpg	100
1374.327	1.117	1117.4	test	Phase2	test/STIM_021.jpg	99
1377.687	1.157	1157.3	test	Phase2	test/STIM_021.jpg	100
1382.242	0.901	901.3	test	Phase2	test/STIM_022.jpg	99
1385.211	0.958	957.9	test	Phase2	test/STIM_022.jpg	100
1389.171	1.192	1192.1	test	Phase2	test/STIM_022.jpg	99
1393.388	0.952	952.3	test	Phase2	test/STIM_023.jpg	99
1396.501	0.916	916.0	test	Phase2	test/STIM_023.jpg	100
1400.48	0.739	738.7	test	Phase2	test/STIM_023.jpg	99
1404.299	0.95	950.5	test	Phase2	test/STIM_024.jpg	99
1407.291	1.273	1272.7	test	Phase2	test/STIM_024.jpg	100
1410.901	0.659	658.8	test	Phase2	test/STIM_024.jpg	99
1415.256	0.799	799.1	test	Phase2	test/STIM_025.jpg	100
1419.611	1.022	1022.5	test	Phase2	test/STIM_025.jpg	99
1423.013	0.727	726.8	test	Phase2	test/STIM_025.jpg	99
1427.295	1.09	1090.2	test	Phase2	test/STIM_026.jpg	100
1431.272	1.176	1176.2	test	Phase2	test/STIM_026.jpg	100
1436.088	1.302	1302.1	test	Phase2	test/STIM_026.jpg	100
1440.026	1.038	1037.8	test	Phase2	test/STIM_027.jpg	99
1444.447	0.651	650.8	test	Phase2	test/STIM_027.jpg	99
1447.886	1.377	1377.4	test	Phase2	test/STIM_027.jpg	100
1452.164	1.451	1450.9	test	Phase2	test/STIM_028.jpg	100
1456.579	1.208	1207.9	test	Phase2	test/STIM_028.jpg	100
1461.141	0.718	717.8	test	Phase2	test/STIM_028.jpg	99
1464.16	0.997	997.2	test	Phase2	test/STIM_029.jpg	99
1467.382	1.25	1250.4	test	Phase2	test/STIM_029.jpg	100
1471.93	1.388	1388.1	test	Phase2	test/STIM_029.jpg	99
1476.254	0.842	841.6	study	Phase3	study/STIM_000.jpg	99
1479.085	1.044	1044.2	study	Phase3	study/STIM_000.jpg	100
1482.42	1.307	1307.1	study	Phase3	study/STIM_000.jpg	99
1487.392	1.231	1230.6	study	Phase3	study/STIM_001.jpg	100
1492.398	0.98	979.9	study	Phase3	study/STIM_001.jpg	99
1496.639	0.714	714.2	study	Phase3	study/STIM_001.jpg	99
1501.161	0.667	666.7	study	Phase3	study/STIM_002.jpg	100
1503.899	0.959	959.0	study	Phase3	study/STIM_002.jpg	99
1507.452	1.306	1306.3	study	Phase3	study/STIM_002.jpg	99
1511.025	1.096	1095.7	study	Phase3	study/STIM_003.jpg	99
1514.062	1.363	1362.9	study	Phase3	study/STIM_003.jpg	99
1517.327	1.111	1111.3	study	Phase3	study/STIM_003.jpg	100
1521.192	0.769	768.9	study	Phase3	study/STIM_004.jpg	100
1524.031	0.949	948.8	study	Phase3	study/STIM_004.jpg	100
1528.42	0.816	816.0	study	Phase3	study/STIM_004.jpg	99
1532.89	1.272	1271.5	study	Phase3	study/STIM_005.jpg	100
1536.122	0.638	637.6	study	Phase3	study/STIM_005.jpg	100
1539.392	0.943	942.6	study	Phase3	study/STIM_005.jpg	99
1544.068	0.881	881.4	study	Phase3	study/STIM_006.jpg	99
1548.297	1.407	1406.9	study	Phase3	study/STIM_006.jpg	100
1551.707	1.274	1274.1	study	Phase3	study/STIM_006.jpg	100
1556.017	0.949	948.7	study	Phase3	study/STIM_007.jpg	99
1560.851	0.775	774.9	study	Phase3	study/STIM_007.jpg	99
1563.978	0.609	608.7	study	Phase3	study/STIM_007.jpg	100
1566.576	1.024	1023.8	study	Phase3	study/STIM_008.jpg	99
1570.7	1.282	1281.8	study	Phase3	study/STIM_008.jpg	99
1573.846	0.968	968.1	study	Phase3	study/STIM_008.jpg	99
1578.314	0.657	657.2	study	Phase3	study/STIM_009.jpg	100
1581.588	1.257	1257.1	study	Phase3	study/STIM_009.jpg	99
1586.276	1.101	1101.0	study	Phase3	study/STIM_009.jpg	100
1590.953	1.199	1199.2	study	Phase3	study/STIM_010.jpg	100
1594.202	0.925	925.0	study	Phase3	study/STIM_010.jpg	100
1597.985	0.656	655.8	study	Phase3	study/STIM_010.jpg	99
1601.296	1.147	1146.9	study	Phase3	study/STIM_011.jpg	100
1606.047	1.042	1041.9	study	Phase3	study/STIM_011.jpg	100
1610.272	1.233	1233.4	study	Phase3	study/STIM_011.jpg	100
1615.32	0.694	694.1	study	Phase3	study/STIM_012.jpg	100
1618.683	0.962	961.9	study	Phase3	study/STIM_012.jpg	99
1621.509	0.956	955.8	study	Phase3	study/STIM_012.jpg	99
1625.351	0.984	983.6	study	Phase3	study/STIM_013.jpg	99
1629.288	1.403	1403.0	study	Phase3	study/STIM_013.jpg	100
1632.695	1.07	1069.8	study	Phase3	study/STIM_013.jpg	100
1635.88	1.309	1308.8	study	Phase3	study/STIM_014.jpg	99
1640.152	1.006	1005.9	study	Phase3	study/STIM_014.jpg	100
1644.477	1.059	1059.0	study	Phase3	study/STIM_014.jpg	100
1647.443	1.332	1332.4	study	Phase3	study/STIM_015.jpg	99
1652.489	1.147	1147.0	study	Phase3	study/STIM_015.jpg	100
1655.883	0.588	588.0	study	Phase3	study/STIM_015.jpg	100
1659.562	0.654	654.1	study	Phase3	study/STIM_016.jpg	99
1662.995	0.902	901.6	study	Phase3	study/STIM_016.jpg	99
1667.612	1.122	1122.0	study	Phase3	study/STIM_016.jpg	100
1671.005	0.585	585.0	study	Phase3	study/STIM_017.jpg	99
1673.847	1.073	1072.7	study	Phase3	study/STIM_017.jpg	99
1677.8	0.977	976.6	study	Phase3	study/STIM_017.jpg	100
1681.72	0.641	641.3	study	Phase3	study/STIM_018.jpg	100
1686.031	1.384	1384.4	study	Phase3	study/STIM_018.jpg	99
1690.528	0.782	782.0	study	Phase3	study/STIM_018.jpg	99
1694.271	0.971	970.7	study	Phase3	study/STIM_019.jpg	100
1697.59	1.218	1217.6	study	Phase3	study/STIM_019.jpg	99
1702.466	0.618	618.0	study	Phase3	study/STIM_019.jpg	99
1705.255	1.261	1261.0	study	Phase3	study/STIM_020.jpg	99
1708.662	0.901	900.8	study	Phase3	study/STIM_020.jpg	99
1712.693	1.366	1365.7	study	Phase3	study/STIM_020.jpg	99
1716.201	0.886	885.5	study	Phase3	study/STIM_021.jpg	100
1720.346	1.112	1111.8	study	Phase3	study/STIM_021.jpg	100
1723.846	1.258	1258.4	study	Phase3	study/STIM_021.jpg	100
1727.863	0.807	807.4	study	Phase3	study/STIM_022.jpg	100
1731.657	0.696	696.3	study	Phase3	study/STIM_022.jpg	100
1735.347	1.144	1143.6	study	Phase3	study/STIM_022.jpg	99
1738.437	1.404	1403.6	study	Phase3	study/STIM_023.jpg	100
1741.994	1.362	1361.6	study	Phase3	study/STIM_023.jpg	99
1746.481	1.201	1200.7	study	Phase3	study/STIM_023.jpg	99
1750.898	0.796	795.8	study	Phase3	study/STIM_024.jpg	99
1754.487	1.102	1101.9	study	Phase3	study/STIM_024.jpg	100
1758.8	1.282	1282.1	study	Phase3	study/STIM_024.jpg	99
1763.179	1.044	1043.6	study	Phase3	study/STIM_025.jpg	99
1767.738	1.251	1251.4	study	Phase3	study/STIM_025.jpg	99
1771.558	1.349	1348.8	study	Phase3	study/STIM_025.jpg	99
1774.925	1.398	1398.4	study	Phase3	study/STIM_026.jpg	100
1779.825	1.045	1045.3	study	Phase3	study/STIM_026.jpg	99
1783.749	0.672	672.4	study	Phase3	study/STIM_026.jpg	99
1788.102	1.151	1151.0	study	Phase3	study/STIM_027.jpg	99
1791.738	0.789	789.4	study	Phase3	study/STIM_027.jpg	100
1795.454	1.214	1214.2	study	Phase3	study/STIM_027.jpg	99
1800.272	1.428	1428.5	study	Phase3	study/STIM_028.jpg	100
1805.225	0.807	807.3	study	Phase3	study/STIM_028.jpg	99
1808.403	0.751	751.0	study	Phase3	study/STIM_028.jpg	99
1811.694	0.866	866.5	study	Phase3	study/STIM_029.jpg	99
1816.224	0.67	669.6	study	Phase3	study/STIM_029.jpg	99
1819.324	1.34	1339.5	study	Phase3	study/STIM_029.jpg	100
1822.988	0.945	945.1	test	Phase3	test/STIM_000.jpg	100
1826.175	0.827	827.3	test	Phase3	test/STIM_000.jpg	100
1829.248	1.11	1110.5	test	Phase3	test/STIM_000.jpg	100
1832.222	1.229	1229.3	test	Phase3	test/STIM_001.jpg	100
1835.652	1.112	1112.5	test	Phase3	test/STIM_001.jpg	100
1840.138	1.179	1179.4	test	Phase3	test/STIM_001.jpg	99
1845.036	1.298	1297.9	test	Phase3	test/STIM_002.jpg	100
1848.9	0.887	887.1	test	Phase3	test/STIM_002.jpg	99
1852.036	0.747	746.7	test	Phase3	test/STIM_002.jpg	99
1856.179	1.117	1116.9	test	Phase3	test/STIM_003.jpg	100
1860.763	0.897	896.9	test	Phase3	test/STIM_003.jpg	99
1865.131	1.307	1306.9	test	Phase3	test/STIM_003.jpg	99
1869.425	1.188	1188.0	test	Phase3	test/STIM_004.jpg	100
1872.477	0.78	780.2	test	Phase3	test/STIM_004.jpg	100
1876.553	0.918	918.1	test	Phase3	test/STIM_004.jpg	99
1880.862	1.142	1141.7	test	Phase3	test/STIM_005.jpg	100
1884.477	1.23	1230.4	test	Phase3	test/STIM_005.jpg	100
1889.236	0.891	890.7	test	Phase3	test/STIM_005.jpg	99
1893.856	0.715	714.8	test	Phase3	test/STIM_006.jpg	100
1896.695	0.706	705.6	test	Phase3	test/STIM_006.jpg	100
1899.717	1.265	1265.2	test	Phase3	test/STIM_006.jpg	99
1904.136	0.832	832.2	test	Phase3	test/STIM_007.jpg	100
1907.519	1.206	1205.5	test	Phase3	test/STIM_007.jpg	100
1910.9	0.85	849.5	test	Phase3	test/STIM_007.jpg	99
1913.609	1.384	1383.9	test	Phase3	test/STIM_008.jpg	99
1918.235	1.095	1094.6	test	Phase3	test/STIM_008.jpg	99
1922.893	1.242	1241.7	test	Phase3	test/STIM_008.jpg	100
1926.883	1.115	1114.9	test	Phase3	test/STIM_009.jpg	100
1931.729	1.002	1001.6	test	Phase3	test/STIM_009.jpg	99
1935.651	0.706	706.1	test	Phase3	test/STIM_009.jpg	100
1940.289	0.916	916.0	test	Phase3	test/STIM_010.jpg	100
1943.688	1.064	1064.0	test	Phase3	test/STIM_010.jpg	100
1948.516	1.238	1238.0	test	Phase3	test/STIM_010.jpg	100
1951.982	1.478	1477.6	test	Phase3	test/STIM_011.jpg	99
1956.13	1.039	1038.8	test	Phase3	test/STIM_011.jpg	99
1959.779	0.832	831.6	test	Phase3	test/STIM_011.jpg	100
1962.71	1.212	1212.5	test	Phase3	test/STIM_012.jpg	100
1966.625	1.317	1316.7	test	Phase3	test/STIM_012.jpg	100
1971.316	1.107	1107.4	test	Phase3	test/STIM_012.jpg	100
1975.237	1.505	1504.6	test	Phase3	test/STIM_013.jpg	99
1979.243	1.262	1262.2	test	Phase3	test/STIM_013.jpg	100
1982.96	1.298	1298.3	test	Phase3	test/STIM_013.jpg	100
1986.209	1.031	1030.7	test	Phase3	test/STIM_014.jpg	99
1989.638	1.131	1130.6	test	Phase3	test/STIM_014.jpg	100
1992.723	1.088	1087.6	test	Phase3	test/STIM_014.jpg	100
1996.633	1.044	1043.8	test	Phase3	test/STIM_015.jpg	99
1999.778	1.078	1077.5	test	Phase3	test/STIM_015.jpg	99
2002.94	1.227	1226.6	test	Phase3	test/STIM_015.jpg	99
2006.019	0.998	998.4	test	Phase3	test/STIM_016.jpg	100
2009.312	1.235	1234.6	test	Phase3	test/STIM_016.jpg	100
2013.72	1.224	1224.2	test	Phase3	test/STIM_016.jpg	100
2018.369	0.81	810.5	test	Phase3	test/STIM_017.jpg	100
2022.954	0.836	835.6	test	Phase3	test/STIM_017.jpg	100
2027.285	0.836	836.3	test	Phase3	test/STIM_017.jpg	99
2029.97	1.079	1079.2	test	Phase3	test/STIM_018.jpg	99
2033.613	0.757	757.0	test	Phase3	test/STIM_018.jpg	100
2036.63	1.414	1414.1	test	Phase3	test/STIM_018.jpg	100
2040.186	1.231	1231.0	test	Phase3	test/STIM_019.jpg	100
2043.673	1.167	1166.6	test	Phase3	test/STIM_019.jpg	100
2048.226	0.832	832.1	test	Phase3	test/STIM_019.jpg	99
2052.134	1.024	1024.3	test	Phase3	test/STIM_020.jpg	99
2055.933	0.867	867.4	test	Phase3	test/STIM_020.jpg	100
2058.73	1.171	1171.0	test	Phase3	test/STIM_020.jpg	99
2063.055	1.003	1003.0	test	Phase3	test/STIM_021.jpg	100
2066.519	1.1	1099.7	test	Phase3	test/STIM_021.jpg	100
2070.869	0.732	732.1	test	Phase3	test/STIM_021.jpg	99
2074.759	1.464	1464.3	test	Phase3	test/STIM_022.jpg	99
2078.978	1.215	1215.1	test	Phase3	test/STIM_022.jpg	99
2082.19	1.061	1060.6	test	Phase3	test/STIM_022.jpg	99
2085.648	0.721	721.2	test	Phase3	test/STIM_023.jpg	99
2089.132	0.743	743.3	test	Phase3	test/STIM_023.jpg	100
2093.739	1.392	1391.5	test	Phase3	test/STIM_023.jpg	100
2098.352	1.396	1395.7	test	Phase3	test/STIM_024.jpg	99
2102.482	1.321	1320.7	test	Phase3	test/STIM_024.jpg	100
2105.794	1.116	1115.5	test	Phase3	test/STIM_024.jpg	100
2109.682	1.328	1327.9	test	Phase3	test/STIM_025.jpg	100
2114.029	1.392	1392.5	test	Phase3	test/STIM_025.jpg	100
2118.708	1.22	1220.4	test	Phase3	test/STIM_025.jpg	99
2121.98	0.99	990.4	test	Phase3	test/STIM_026.jpg	99
2124.908	1.332	1332.3	test	Phase3	test/STIM_026.jpg	99
2128.136	1.171	1170.9	test	Phase3	test/STIM_026.jpg	99
2132.067	1.373	1373.2	test	Phase3	test/STIM_027.jpg	99
2135.449	1.401	1401.4	test	Phase3	test/STIM_027.jpg	99
2139.316	1.101	1101.0	test	Phase3	test/STIM_027.jpg	100
2143.271	0.918	918.0	test	Phase3	test/STIM_028.jpg	100
2147.359	1.144	1144.2	test	Phase3	test/STIM_028.jpg	99
2151.097	1.422	1422.1	test	Phase3	test/STIM_028.jpg	99
2155.781	0.938	938.0	test	Phase3	test/STIM_029.jpg	99
2160.591	1.009	1009.4	test	Phase3	test/STIM_029.jpg	99
2165.349	0.866	865.7	test	Phase3	test/STIM_029.jpg	100
