onset	duration	response_time_ms	trial_type	learning_stage	stimulus	response_port
0.0	1.043	1042.8	2back	Block1	2back/STIM_000.jpg	100
3.107	1.238	1238.2	2back	Block1	2back/STIM_000.jpg	100
7.868	1.033	1032.9	2back	Block1	2back/STIM_000.jpg	100
11.26	1.282	1281.6	2back	Block1	2back/STIM_001.jpg	100
15.851	1.165	1164.6	2back	Block1	2back/STIM_001.jpg	100
20.329	1.134	1133.6	2back	Block1	2back/STIM_001.jpg	100
24.916	1.089	1088.8	2back	Block1	2back/STIM_002.jpg	100
28.265	0.585	584.9	2back	Block1	2back/STIM_002.jpg	100
32.076	0.628	627.5	2back	Block1	2back/STIM_002.jpg	100
36.52	1.026	1026.4	2back	Block1	2back/STIM_003.jpg	100
40.957	0.949	949.2	2back	Block1	2back/STIM_003.jpg	99
45.847	0.923	923.0	2back	Block1	2back/STIM_003.jpg	100
48.948	1.1	1100.2	2back	Block1	2back/STIM_004.jpg	100
53.514	0.583	583.4	2back	Block1	2back/STIM_004.jpg	100
56.737	0.696	696.1	2back	Block1	2back/STIM_004.jpg	100
59.779	0.973	972.9	2back	Block1	2back/STIM_005.jpg	99
64.307	0.924	924.4	2back	Block1	2back/STIM_005.jpg	99
68.368	0.991	990.9	2back	Block1	2back/STIM_005.jpg	100
71.728	0.845	845.4	2back	Block1	2back/STIM_006.jpg	100
74.802	0.918	918.0	2back	Block1	2back/STIM_006.jpg	99
77.73	1.202	1202.5	2back	Block1	2back/STIM_006.jpg	100
82.653	1.266	1265.6	2back	Block1	2back/STIM_007.jpg	99
86.415	0.958	957.5	2back	Block1	2back/STIM_007.jpg	99
90.627	0.971	970.9	2back	Block1	2back/STIM_007.jpg	100
94.499	1.299	1298.6	2back	Block1	2back/STIM_008.jpg	99
99.416	0.755	755.3	2back	Block1	2back/STIM_008.jpg	100
102.762	1.196	1195.9	2back	Block1	2back/STIM_008.jpg	100
106.991	0.787	787.0	2back	Block1	2back/STIM_009.jpg	99
111.246	0.927	927.2	2back	Block1	2back/STIM_009.jpg	100
114.571	0.597	596.9	2back	Block1	2back/STIM_009.jpg	100
118.629	0.807	807.4	2back	Block1	2back/STIM_010.jpg	99
123.095	0.959	959.3	2back	Block1	2back/STIM_010.jpg	99
127.416	0.911	910.6	2back	Block1	2back/STIM_010.jpg	99
132.266	0.908	908.2	2back	Block1	2back/STIM_011.jpg	99
136.324	1.051	1051.1	2back	Block1	2back/STIM_011.jpg	99
141.304	0.928	928.1	2back	Block1	2back/STIM_011.jpg	100
145.489	1.316	1315.6	2back	Block1	2back/STIM_012.jpg	100
149.055	1.245	1245.3	2back	Block1	2back/STIM_012.jpg	100
152.37	0.667	667.4	2back	Block1	2back/STIM_012.jpg	100
156.782	1.218	1218.5	2back	Block1	2back/STIM_013.jpg	100
160.661	0.568	568.3	2back	Block1	2back/STIM_013.jpg	99
164.418	1.117	1117.2	2back	Block1	2back/STIM_013.jpg	100
168.551	0.637	637.2	2back	Block1	2back/STIM_014.jpg	100
171.67	1.119	1118.6	2back	Block1	2back/STIM_014.jpg	99
175.645	0.924	923.8	2back	Block1	2back/STIM_014.jpg	99
179.421	0.688	688.1	2back	Block1	2back/STIM_015.jpg	100
183.271	1.285	1285.3	2back	Block1	2back/STIM_015.jpg	99
187.925	0.812	812.1	2back	Block1	2back/STIM_015.jpg	99
191.084	0.958	958.1	2back	Block1	2back/STIM_016.jpg	100
195.027	0.773	773.2	2back	Block1	2back/STIM_016.jpg	100
198.428	0.794	793.6	2back	Block1	2back/STIM_016.jpg	99
201.906	0.942	942.2	2back	Block1	2back/STIM_017.jpg	100
206.462	0.604	604.0	2back	Block1	2back/STIM_017.jpg	99
210.844	1.102	1102.3	2back	Block1	2back/STIM_017.jpg	99
214.145	0.926	926.5	2back	Block1	2back/STIM_018.jpg	100
218.669	0.636	635.9	2back	Block1	2back/STIM_018.jpg	100
221.463	0.678	677.5	2back	Block1	2back/STIM_018.jpg	100
224.337	1.241	1241.4	2back	Block1	2back/STIM_019.jpg	100
229.502	0.592	592.0	2back	Block1	2back/STIM_019.jpg	99
233.322	0.694	693.5	2back	Block1	2back/STIM_019.jpg	99
236.585	0.886	885.9	2back	Block1	2back/STIM_020.jpg	99
240.384	0.722	721.7	2back	Block1	2back/STIM_020.jpg	100
244.815	0.77	769.8	2back	Block1	2back/STIM_020.jpg	99
249.003	0.818	817.5	2back	Block1	2back/STIM_021.jpg	99
252.961	0.862	861.7	2back	Block1	2back/STIM_021.jpg	100
256.73	1.139	1139.1	2back	Block1	2back/STIM_021.jpg	100
259.954	1.049	1049.1	2back	Block1	2back/STIM_022.jpg	99
264.718	0.678	677.6	2back	Block1	2back/STIM_022.jpg	99
267.907	0.925	925.0	2back	Block1	2back/STIM_022.jpg	100
272.596	0.858	858.5	2back	Block1	2back/STIM_023.jpg	99
276.765	0.909	908.9	2back	Block1	2back/STIM_023.jpg	100
280.774	1.163	1162.6	2back	Block1	2back/STIM_023.jpg	100
284.01	1.026	1026.2	2back	Block1	2back/STIM_024.jpg	100
288.428	0.759	758.7	2back	Block1	2back/STIM_024.jpg	100
293.034	0.71	709.7	2back	Block1	2back/STIM_024.jpg	100
295.854	0.892	891.5	2back	Block1	2back/STIM_025.jpg	100
300.348	0.825	824.6	2back	Block1	2back/STIM_025.jpg	100
303.561	0.958	957.5	2back	Block1	2back/STIM_025.jpg	100
307.835	1.034	1033.9	2back	Block1	2back/STIM_026.jpg	99
311.396	0.678	677.6	2back	Block1	2back/STIM_026.jpg	100
314.572	0.756	756.1	2back	Block1	2back/STIM_026.jpg	100
317.704	0.909	909.2	2back	Block1	2back/STIM_027.jpg	100
320.744	1.205	1205.0	2back	Block1	2back/STIM_027.jpg	100
324.277	0.68	680.2	2back	Block1	2back/STIM_027.jpg	100
328.552	1.224	1223.8	2back	Block1	2back/STIM_028.jpg	99
333.044	1.086	1085.6	2back	Block1	2back/STIM_028.jpg	99
337.204	0.756	755.9	2back	Block1	2back/STIM_028.jpg	100
340.87	0.86	859.8	2back	Block1	2back/STIM_029.jpg	99
343.843	0.633	632.9	2back	Block1	2back/STIM_029.jpg	100
346.936	0.836	835.9	2back	Block1	2back/STIM_029.jpg	99
351.535	1.044	1044.5	2back	Block1	2back/STIM_030.jpg	100
354.948	0.71	710.2	2back	Block1	2back/STIM_030.jpg	99
358.808	0.915	914.6	2back	Block1	2back/STIM_030.jpg	100
363.141	1.025	1025.4	2back	Block1	2back/STIM_031.jpg	100
367.012	0.67	670.5	2back	Block1	2back/STIM_031.jpg	100
369.816	0.525	524.8	2back	Block1	2back/STIM_031.jpg	100
373.099	0.874	874.1	2back	Block1	2back/STIM_032.jpg	100
376.989	0.953	953.3	2back	Block1	2back/STIM_032.jpg	99
381.443	0.617	616.7	2back	Block1	2back/STIM_032.jpg	100
384.439	1.327	1326.8	2back	Block1	2back/STIM_033.jpg	100
388.345	0.835	834.8	2back	Block1	2back/STIM_033.jpg	100
392.933	1.166	1165.7	2back	Block1	2back/STIM_033.jpg	99
396.524	1.312	1312.5	2back	Block1	2back/STIM_034.jpg	100
400.933	0.634	634.2	2back	Block1	2back/STIM_034.jpg	100
405.376	0.629	629.0	2back	Block1	2back/STIM_034.jpg	100
409.007	1.268	1268.1	2back	Block1	2back/STIM_035.jpg	99
414.008	0.974	974.3	2back	Block1	2back/STIM_035.jpg	100
417.673	1.087	1087.1	2back	Block1	2back/STIM_035.jpg	100
420.989	1.207	1207.4	2back	Block1	2back/STIM_036.jpg	100
425.313	1.159	1159.2	2back	Block1	2back/STIM_036.jpg	99
429.629	1.013	1013.1	2back	Block1	2back/STIM_036.jpg	99
432.912	1.105	1105.0	2back	Block1	2back/STIM_037.jpg	99
437.321	0.901	901.3	2back	Block1	2back/STIM_037.jpg	99
442.177	0.739	738.9	2back	Block1	2back/STIM_037.jpg	100
446.751	1.32	1320.4	2back	Block1	2back/STIM_038.jpg	100
451.868	1.084	1084.3	2back	Block1	2back/STIM_038.jpg	100
456.705	1.102	1102.3	2back	Block1	2back/STIM_038.jpg	100
461.775	1.185	1185.4	2back	Block1	2back/STIM_039.jpg	100
466.282	0.962	962.4	2back	Block1	2back/STIM_039.jpg	100
469.868	0.628	627.7	2back	Block1	2back/STIM_039.jpg	100
472.932	0.64	639.7	0back	Block1	0back/STIM_000.jpg	99
477.028	0.572	571.5	0back	Block1	0back/STIM_000.jpg	100
481.251	0.47	469.7	0back	Block1	0back/STIM_000.jpg	100
485.528	0.487	487.0	0back	Block1	0back/STIM_001.jpg	100
488.302	0.652	651.6	0back	Block1	0back/STIM_001.jpg	99
491.724	0.394	394.5	0back	Block1	0back/STIM_001.jpg	100
494.536	0.42	420.5	0back	Block1	0back/STIM_002.jpg	100
496.972	0.393	392.8	0back	Block1	0back/STIM_002.jpg	100
501.181	0.578	578.1	0back	Block1	0back/STIM_002.jpg	99
504.18	0.507	506.9	0back	Block1	0back/STIM_003.jpg	100
508.503	0.556	555.6	0back	Block1	0back/STIM_003.jpg	99
511.498	0.503	502.7	0back	Block1	0back/STIM_003.jpg	100
514.466	0.679	678.8	0back	Block1	0back/STIM_004.jpg	100
517.467	0.763	763.4	0back	Block1	0back/STIM_004.jpg	99
521.217	0.438	437.5	0back	Block1	0back/STIM_004.jpg	99
525.453	0.724	724.3	0back	Block1	0back/STIM_005.jpg	100
528.646	0.399	398.7	0back	Block1	0back/STIM_005.jpg	100
532.711	0.678	677.7	0back	Block1	0back/STIM_005.jpg	100
537.17	0.406	405.5	0back	Block1	0back/STIM_006.jpg	99
539.917	0.754	753.7	0back	Block1	0back/STIM_006.jpg	100
543.21	0.506	505.9	0back	Block1	0back/STIM_006.jpg	100
547.509	0.632	632.4	0back	Block1	0back/STIM_007.jpg	99
551.392	0.709	708.8	0back	Block1	0back/STIM_007.jpg	99
554.182	0.408	407.8	0back	Block1	0back/STIM_007.jpg	100
557.421	0.606	606.0	0back	Block1	0back/STIM_008.jpg	100
561.967	0.565	565.3	0back	Block1	0back/STIM_008.jpg	99
566.131	0.562	562.3	0back	Block1	0back/STIM_008.jpg	100
569.895	0.463	462.6	0back	Block1	0back/STIM_009.jpg	100
573.611	0.531	531.0	0back	Block1	0back/STIM_009.jpg	99
577.961	0.749	749.2	0back	Block1	0back/STIM_009.jpg	99
582.126	0.478	478.2	0back	Block1	0back/STIM_010.jpg	100
585.079	0.692	692.5	0back	Block1	0back/STIM_010.jpg	99
589.165	0.498	498.5	0back	Block1	0back/STIM_010.jpg	99
591.982	0.755	755.0	0back	Block1	0back/STIM_011.jpg	99
594.997	0.767	767.0	0back	Block1	0back/STIM_011.jpg	99
599.537	0.593	592.9	0back	Block1	0back/STIM_011.jpg	100
602.435	0.69	690.0	0back	Block1	0back/STIM_012.jpg	99
606.007	0.468	468.2	0back	Block1	0back/STIM_012.jpg	100
609.402	0.727	726.7	0back	Block1	0back/STIM_012.jpg	99
613.737	0.672	671.7	0back	Block1	0back/STIM_013.jpg	99
617.841	0.454	454.3	0back	Block1	0back/STIM_013.jpg	99
622.096	0.528	527.6	0back	Block1	0back/STIM_013.jpg	100
626.558	0.749	748.7	0back	Block1	0back/STIM_014.jpg	99
630.136	0.66	659.6	0back	Block1	0back/STIM_014.jpg	99
633.952	0.514	513.5	0back	Block1	0back/STIM_014.jpg	100
638.198	0.626	625.7	0back	Block1	0back/STIM_015.jpg	100
641.398	0.567	566.7	0back	Block1	0back/STIM_015.jpg	100
645.363	0.456	455.7	0back	Block1	0back/STIM_015.jpg	100
648.872	0.417	416.6	0back	Block1	0back/STIM_016.jpg	99
652.15	0.687	686.9	0back	Block1	0back/STIM_016.jpg	99
655.978	0.604	604.2	0back	Block1	0back/STIM_016.jpg	100
660.288	0.573	573.1	0back	Block1	0back/STIM_017.jpg	99
664.074	0.597	596.9	0back	Block1	0back/STIM_017.jpg	100
666.865	0.457	456.7	0back	Block1	0back/STIM_017.jpg	99
669.476	0.744	744.4	0back	Block1	0back/STIM_018.jpg	99
672.987	0.704	704.3	0back	Block1	0back/STIM_018.jpg	99
676.797	0.574	574.5	0back	Block1	0back/STIM_018.jpg	100
679.56	0.422	421.7	0back	Block1	0back/STIM_019.jpg	100
682.66	0.614	614.1	0back	Block1	0back/STIM_019.jpg	100
686.965	0.692	691.9	0back	Block1	0back/STIM_019.jpg	99
691.114	0.725	725.4	2back	Block2	2back/STIM_000.jpg	99
695.764	0.618	618.1	2back	Block2	2back/STIM_000.jpg	99
700.039	0.822	822.1	2back	Block2	2back/STIM_000.jpg	100
703.821	1.009	1009.3	2back	Block2	2back/STIM_001.jpg	100
708.696	0.826	825.6	2back	Block2	2back/STIM_001.jpg	100
711.85	0.774	774.5	2back	Block2	2back/STIM_001.jpg	99
715.954	0.877	877.0	2back	Block2	2back/STIM_002.jpg	100
719.643	0.71	710.3	2back	Block2	2back/STIM_002.jpg	100
724.273	0.522	522.0	2back	Block2	2back/STIM_002.jpg	100
727.298	0.575	575.3	2back	Block2	2back/STIM_003.jpg	99
731.126	0.568	567.6	2back	Block2	2back/STIM_003.jpg	100
735.355	0.497	496.9	2back	Block2	2back/STIM_003.jpg	100
738.483	1.116	1116.2	2back	Block2	2back/STIM_004.jpg	99
741.928	0.897	897.4	2back	Block2	2back/STIM_004.jpg	100
745.031	0.519	519.0	2back	Block2	2back/STIM_004.jpg	99
748.878	0.913	913.0	2back	Block2	2back/STIM_005.jpg	100
752.891	0.788	788.3	2back	Block2	2back/STIM_005.jpg	99
757.461	1.015	1014.9	2back	Block2	2back/STIM_005.jpg	99
761.58	0.758	757.9	2back	Block2	2back/STIM_006.jpg	99
765.401	0.778	778.5	2back	Block2	2back/STIM_006.jpg	99
768.47	0.79	789.7	2back	Block2	2back/STIM_006.jpg	100
772.147	0.925	925.2	2back	Block2	2back/STIM_007.jpg	99
775.98	0.941	940.8	2back	Block2	2back/STIM_007.jpg	99
779.37	0.57	570.2	2back	Block2	2back/STIM_007.jpg	99
783.212	0.793	793.3	2back	Block2	2back/STIM_008.jpg	100
787.736	0.484	484.5	2back	Block2	2back/STIM_008.jpg	99
791.305	0.881	881.4	2back	Block2	2back/STIM_008.jpg	99
795.73	1.018	1017.5	2back	Block2	2back/STIM_009.jpg	100
799.814	0.789	788.9	2back	Block2	2back/STIM_009.jpg	99
803.965	0.742	741.7	2back	Block2	2back/STIM_009.jpg	100
808.403	1.128	1128.2	2back	Block2	2back/STIM_010.jpg	99
812.563	0.991	990.9	2back	Block2	2back/STIM_010.jpg	100
816.276	0.901	901.2	2back	Block2	2back/STIM_010.jpg	100
820.89	0.73	730.5	2back	Block2	2back/STIM_011.jpg	100
824.656	0.782	781.5	2back	Block2	2back/STIM_011.jpg	99
827.876	0.478	477.5	2back	Block2	2back/STIM_011.jpg	100
832.137	0.773	773.4	2back	Block2	2back/STIM_012.jpg	100
835.562	0.755	754.7	2back	Block2	2back/STIM_012.jpg	99
838.784	0.442	442.2	2back	Block2	2back/STIM_012.jpg	100
842.122	0.69	689.7	2back	Block2	2back/STIM_013.jpg	100
845.052	0.998	997.7	2back	Block2	2back/STIM_013.jpg	99
849.782	0.992	992.5	2back	Block2	2back/STIM_013.jpg	100
854.484	0.615	614.6	2back	Block2	2back/STIM_014.jpg	100
858.817	1.055	1055.1	2back	Block2	2back/STIM_014.jpg	99
863.767	0.725	725.3	2back	Block2	2back/STIM_014.jpg	99
867.037	0.738	738.1	2back	Block2	2back/STIM_015.jpg	100
870.137	0.939	939.1	2back	Block2	2back/STIM_015.jpg	100
874.027	0.548	548.4	2back	Block2	2back/STIM_015.jpg	99
878.071	0.764	764.0	2back	Block2	2back/STIM_016.jpg	99
881.025	0.714	714.3	2back	Block2	2back/STIM_016.jpg	100
885.113	0.603	602.7	2back	Block2	2back/STIM_016.jpg	99
889.19	1.091	1091.4	2back	Block2	2back/STIM_017.jpg	100
892.468	0.7	699.5	2back	Block2	2back/STIM_017.jpg	100
895.677	0.721	721.2	2back	Block2	2back/STIM_017.jpg	99
899.16	0.98	980.2	2back	Block2	2back/STIM_018.jpg	100
903.036	0.482	481.7	2back	Block2	2back/STIM_018.jpg	99
906.91	0.606	606.3	2back	Block2	2back/STIM_018.jpg	99
910.662	0.76	759.8	2back	Block2	2back/STIM_019.jpg	99
914.136	0.785	784.7	2back	Block2	2back/STIM_019.jpg	99
917.406	0.943	942.7	2back	Block2	2back/STIM_019.jpg	99
920.402	0.791	790.8	2back	Block2	2back/STIM_020.jpg	99
925.138	0.857	857.4	2back	Block2	2back/STIM_020.jpg	99
929.005	0.608	607.6	2back	Block2	2back/STIM_020.jpg	99
932.314	0.968	968.1	2back	Block2	2back/STIM_021.jpg	99
935.317	1.017	1017.2	2back	Block2	2back/STIM_021.jpg	99
940.133	0.966	966.1	2back	Block2	2back/STIM_021.jpg	99
945.073	0.952	952.1	2back	Block2	2back/STIM_022.jpg	100
948.157	0.95	949.5	2back	Block2	2back/STIM_022.jpg	100
952.511	0.688	688.5	2back	Block2	2back/STIM_022.jpg	100
956.879	1.134	1133.6	2back	Block2	2back/STIM_023.jpg	100
961.607	0.818	818.2	2back	Block2	2back/STIM_023.jpg	100
965.565	0.696	695.6	2back	Block2	2back/STIM_023.jpg	99
969.129	0.69	690.3	2back	Block2	2back/STIM_024.jpg	99
972.564	0.616	615.8	2back	Block2	2back/STIM_024.jpg	100
975.721	0.858	858.5	2back	Block2	2back/STIM_024.jpg	100
979.764	0.964	964.2	2back	Block2	2back/STIM_025.jpg	100
984.669	0.653	653.3	2back	Block2	2back/STIM_025.jpg	100
988.234	0.895	894.6	2back	Block2	2back/STIM_025.jpg	99
992.21	1.117	1117.2	2back	Block2	2back/STIM_026.jpg	99
996.979	0.991	990.7	2back	Block2	2back/STIM_026.jpg	99
1001.878	0.657	656.8	2back	Block2	2back/STIM_026.jpg	99
1005.337	0.565	564.6	2back	Block2	2back/STIM_027.jpg	100
1008.66	0.958	957.6	2back	Block2	2back/STIM_027.jpg	99
1011.714	0.808	807.7	2back	Block2	2back/STIM_027.jpg	100
1014.973	1.02	1020.2	2back	Block2	2back/STIM_028.jpg	100
1019.274	0.952	951.6	2back	Block2	2back/STIM_028.jpg	100
1023.146	0.914	913.9	2back	Block2	2back/STIM_028.jpg	99
1026.345	0.86	860.3	2back	Block2	2back/STIM_029.jpg	99
1031.061	1.055	1055.4	2back	Block2	2back/STIM_029.jpg	99
1035.796	0.808	808.2	2back	Block2	2back/STIM_029.jpg	99
1039.918	0.774	773.6	2back	Block2	2back/STIM_030.jpg	100
1044.671	0.882	881.8	2back	Block2	2back/STIM_030.jpg	100
1048.522	0.53	529.7	2back	Block2	2back/STIM_030.jpg	100
1052.758	0.988	988.4	2back	Block2	2back/STIM_031.jpg	99
1057.527	0.676	676.1	2back	Block2	2back/STIM_031.jpg	100
1061.194	0.84	839.5	2back	Block2	2back/STIM_031.jpg	99
1065.693	0.587	586.8	2back	Block2	2back/STIM_032.jpg	99
1069.979	0.774	773.8	2back	Block2	2back/STIM_032.jpg	100
1074.091	0.58	580.3	2back	Block2	2back/STIM_032.jpg	99
1078.362	0.696	696.0	2back	Block2	2back/STIM_033.jpg	99
1082.544	0.678	678.1	2back	Block2	2back/STIM_033.jpg	100
1085.806	0.906	906.3	2back	Block2	2back/STIM_033.jpg	99
1089.486	0.89	890.3	2back	Block2	2back/STIM_034.jpg	99
1093.834	0.98	979.7	2back	Block2	2back/STIM_034.jpg	99
1097.035	0.561	560.8	2back	Block2	2back/STIM_034.jpg	99
1100.686	1.01	1010.2	2back	Block2	2back/STIM_035.jpg	99
1104.294	0.711	710.7	2back	Block2	2back/STIM_035.jpg	99
1108.1	0.653	652.7	2back	Block2	2back/STIM_035.jpg	100
1112.292	0.952	951.9	2back	Block2	2back/STIM_036.jpg	99
1116.054	0.575	575.4	2back	Block2	2back/STIM_036.jpg	100
1119.671	0.615	614.7	2back	Block2	2back/STIM_036.jpg	99
1123.866	0.641	640.7	2back	Block2	2back/STIM_037.jpg	99
1127.414	0.646	646.5	2back	Block2	2back/STIM_037.jpg	99
1131.298	0.989	988.6	2back	Block2	2back/STIM_037.jpg	99
1135.048	0.938	938.0	2back	Block2	2back/STIM_038.jpg	99
1138.215	0.479	478.7	2back	Block2	2back/STIM_038.jpg	100
1141.683	0.785	784.7	2back	Block2	2back/STIM_038.jpg	100
1145.015	0.512	512.3	2back	Block2	2back/STIM_039.jpg	99
1149.204	0.971	970.7	2back	Block2	2back/STIM_039.jpg	99
1152.851	0.526	526.4	2back	Block2	2back/STIM_039.jpg	100
1156.891	0.427	427.1	0back	Block2	0back/STIM_000.jpg	100
1160.68	0.521	521.3	0back	Block2	0back/STIM_000.jpg	100
1163.344	0.7	699.5	0back	Block2	0back/STIM_000.jpg	100
1166.893	0.636	636.1	0back	Block2	0back/STIM_001.jpg	99
1171.305	0.732	732.1	0back	Block2	0back/STIM_001.jpg	100
1175.855	0.539	539.3	0back	Block2	0back/STIM_001.jpg	100
1178.986	0.677	677.1	0back	Block2	0back/STIM_002.jpg	100
1181.708	0.603	602.6	0back	Block2	0back/STIM_002.jpg	99
1184.956	0.449	449.3	0back	Block2	0back/STIM_002.jpg	100
1187.95	0.478	478.4	0back	Block2	0back/STIM_003.jpg	99
1191.532	0.41	410.4	0back	Block2	0back/STIM_003.jpg	100
1194.641	0.695	694.8	0back	Block2	0back/STIM_003.jpg	100
1198.891	0.426	425.7	0back	Block2	0back/STIM_004.jpg	99
1201.661	0.649	649.1	0back	Block2	0back/STIM_004.jpg	100
1204.76	0.541	541.1	0back	Block2	0back/STIM_004.jpg	99
1207.527	0.624	624.3	0back	Block2	0back/STIM_005.jpg	99
1211.117	0.754	753.8	0back	Block2	0back/STIM_005.jpg	99
1215.409	0.752	752.2	0back	Block2	0back/STIM_005.jpg	99
1218.528	0.416	416.0	0back	Block2	0back/STIM_006.jpg	100
1221.719	0.592	591.9	0back	Block2	0back/STIM_006.jpg	100
1226.292	0.538	537.7	0back	Block2	0back/STIM_006.jpg	100
1229.425	0.512	512.2	0back	Block2	0back/STIM_007.jpg	99
1232.844	0.429	429.1	0back	Block2	0back/STIM_007.jpg	99
1236.957	0.538	538.5	0back	Block2	0back/STIM_007.jpg	100
1240.439	0.475	474.9	0back	Block2	0back/STIM_008.jpg	99
1243.236	0.442	441.6	0back	Block2	0back/STIM_008.jpg	100
1246.82	0.669	668.6	0back	Block2	0back/STIM_008.jpg	100
1251.166	0.754	753.5	0back	Block2	0back/STIM_009.jpg	100
1254.093	0.528	527.5	0back	Block2	0back/STIM_009.jpg	99
1258.516	0.741	741.4	0back	Block2	0back/STIM_009.jpg	100
1261.713	0.528	527.8	0back	Block2	0back/STIM_010.jpg	100
1265.757	0.529	529.4	0back	Block2	0back/STIM_010.jpg	100
1269.299	0.754	753.8	0back	Block2	0back/STIM_010.jpg	99
1272.136	0.703	703.0	0back	Block2	0back/STIM_011.jpg	99
1276.534	0.749	748.8	0back	Block2	0back/STIM_011.jpg	100
1280.126	0.66	659.5	0back	Block2	0back/STIM_011.jpg	99
1284.383	0.713	713.1	0back	Block2	0back/STIM_012.jpg	100
1288.265	0.469	468.6	0back	Block2	0back/STIM_012.jpg	100
1291.45	0.584	584.0	0back	Block2	0back/STIM_012.jpg	100
1294.266	0.759	759.0	0back	Block2	0back/STIM_013.jpg	100
1297.615	0.478	477.6	0back	Block2	0back/STIM_013.jpg	99
1300.862	0.731	731.4	0back	Block2	0back/STIM_013.jpg	99
1303.796	0.533	533.2	0back	Block2	0back/STIM_014.jpg	99
1307.216	0.713	712.6	0back	Block2	0back/STIM_014.jpg	99
1311.399	0.563	562.6	0back	Block2	0back/STIM_014.jpg	99
1314.119	0.711	711.4	0back	Block2	0back/STIM_015.jpg	99
1317.132	0.593	592.7	0back	Block2	0back/STIM_015.jpg	99
1321.446	0.411	410.8	0back	Block2	0back/STIM_015.jpg	99
1324.11	0.515	515.0	0back	Block2	0back/STIM_016.jpg	100
1327.667	0.62	619.8	0back	Block2	0back/STIM_016.jpg	100
1331.199	0.633	632.9	0back	Block2	0back/STIM_016.jpg	99
1335.34	0.591	591.1	0back	Block2	0back/STIM_017.jpg	100
1338.112	0.516	515.7	0back	Block2	0back/STIM_017.jpg	99
1341.04	0.657	656.8	0back	Block2	0back/STIM_017.jpg	100
1343.898	0.45	449.6	0back	Block2	0back/STIM_018.jpg	99
1346.803	0.518	517.7	0back	Block2	0back/STIM_018.jpg	99
1351.143	0.498	498.5	0back	Block2	0back/STIM_018.jpg	99
1354.773	0.422	422.3	0back	Block2	0back/STIM_019.jpg	100
1359.064	0.619	619.3	0back	Block2	0back/STIM_019.jpg	99
1362.325	0.633	633.2	0back	Block2	0back/STIM_019.jpg	100
1366.06	0.424	423.5	2back	Block3	2back/STIM_000.jpg	100
1369.78	0.467	467.3	2back	Block3	2back/STIM_000.jpg	100
1372.664	0.686	686.5	2back	Block3	2back/STIM_000.jpg	99
1377.223	0.838	837.8	2back	Block3	2back/STIM_001.jpg	100
1380.648	0.734	733.8	2back	Block3	2back/STIM_001.jpg	99
1383.96	0.843	842.6	2back	Block3	2back/STIM_001.jpg	99
1388.215	0.44	439.6	2back	Block3	2back/STIM_002.jpg	99
1390.786	0.94	940.3	2back	Block3	2back/STIM_002.jpg	100
1393.951	0.751	751.2	2back	Block3	2back/STIM_002.jpg	99
1398.089	0.555	555.0	2back	Block3	2back/STIM_003.jpg	99
1402.201	0.759	759.4	2back	Block3	2back/STIM_003.jpg	100
1406.362	0.51	509.8	2back	Block3	2back/STIM_003.jpg	100
1409.452	0.932	931.7	2back	Block3	2back/STIM_004.jpg	100
1413.981	0.498	497.8	2back	Block3	2back/STIM_004.jpg	99
1417.42	0.539	539.0	2back	Block3	2back/STIM_004.jpg	99
1420.793	0.909	908.7	2back	Block3	2back/STIM_005.jpg	99
1423.953	0.851	850.9	2back	Block3	2back/STIM_005.jpg	100
1428.392	0.833	833.0	2back	Block3	2back/STIM_005.jpg	100
1432.784	0.464	464.3	2back	Block3	2back/STIM_006.jpg	99
1436.148	0.673	672.9	2back	Block3	2back/STIM_006.jpg	100
1439.83	0.503	502.9	2back	Block3	2back/STIM_006.jpg	100
1442.365	0.422	422.0	2back	Block3	2back/STIM_007.jpg	100
1445.166	0.767	767.3	2back	Block3	2back/STIM_007.jpg	99
1449.254	0.897	896.9	2back	Block3	2back/STIM_007.jpg	100
1454.037	0.659	658.8	2back	Block3	2back/STIM_008.jpg	99
1457.922	0.931	931.2	2back	Block3	2back/STIM_008.jpg	100
1461.355	0.517	516.6	2back	Block3	2back/STIM_008.jpg	99
1465.219	0.451	451.1	2back	Block3	2back/STIM_009.jpg	99
1469.496	0.542	541.8	2back	Block3	2back/STIM_009.jpg	99
1472.802	0.619	619.0	2back	Block3	2back/STIM_009.jpg	99
1476.889	0.927	927.4	2back	Block3	2back/STIM_010.jpg	99
1479.858	0.454	454.5	2back	Block3	2back/STIM_010.jpg	99
1484.163	0.63	629.8	2back	Block3	2back/STIM_010.jpg	99
1487.557	0.753	753.4	2back	Block3	2back/STIM_011.jpg	100
1490.984	0.782	782.4	2back	Block3	2back/STIM_011.jpg	99
1493.805	0.504	504.2	2back	Block3	2back/STIM_011.jpg	100
1497.145	0.906	906.3	2back	Block3	2back/STIM_012.jpg	99
1500.184	0.768	768.0	2back	Block3	2back/STIM_012.jpg	100
1504.063	0.675	675.3	2back	Block3	2back/STIM_012.jpg	100
1508.109	0.486	485.7	2back	Block3	2back/STIM_013.jpg	100
1512.358	0.876	876.4	2back	Block3	2back/STIM_013.jpg	100
1516.545	0.423	422.6	2back	Block3	2back/STIM_013.jpg	99
1520.063	0.71	710.5	2back	Block3	2back/STIM_014.jpg	99
1524.013	0.476	476.3	2back	Block3	2back/STIM_014.jpg	100
1528.345	0.469	468.8	2back	Block3	2back/STIM_014.jpg	99
1532.62	0.734	734.2	2back	Block3	2back/STIM_015.jpg	100
1535.433	0.563	562.6	2back	Block3	2back/STIM_015.jpg	100
1539.218	0.608	607.6	2back	Block3	2back/STIM_015.jpg	100
1543.236	0.616	615.6	2back	Block3	2back/STIM_016.jpg	99
1547.616	0.831	830.6	2back	Block3	2back/STIM_016.jpg	100
1551.84	0.912	912.3	2back	Block3	2back/STIM_016.jpg	100
1556.665	0.666	665.9	2back	Block3	2back/STIM_017.jpg	99
1559.591	0.533	532.6	2back	Block3	2back/STIM_017.jpg	99
1563.34	0.592	592.0	2back	Block3	2back/STIM_017.jpg	100
1566.67	0.897	897.4	2back	Block3	2back/STIM_018.jpg	99
1570.108	0.582	582.4	2back	Block3	2back/STIM_018.jpg	100
1573.641	0.753	753.3	2back	Block3	2back/STIM_018.jpg	99
1576.788	0.636	636.4	2back	Block3	2back/STIM_019.jpg	100
1579.787	0.757	756.8	2back	Block3	2back/STIM_019.jpg	100
1582.893	0.914	913.6	2back	Block3	2back/STIM_019.jpg	99
1587.691	0.937	936.6	2back	Block3	2back/STIM_020.jpg	99
1591.044	0.486	486.3	2back	Block3	2back/STIM_020.jpg	100
1594.811	0.899	899.4	2back	Block3	2back/STIM_020.jpg	99
1598.483	0.589	589.1	2back	Block3	2back/STIM_021.jpg	99
1602.668	0.741	741.4	2back	Block3	2back/STIM_021.jpg	100
1607.167	0.804	803.6	2back	Block3	2back/STIM_021.jpg	100
1611.349	0.93	929.9	2back	Block3	2back/STIM_022.jpg	100
1615.501	0.71	709.7	2back	Block3	2back/STIM_022.jpg	100
1618.967	0.901	901.4	2back	Block3	2back/STIM_022.jpg	99
1623.848	0.835	835.4	2back	Block3	2back/STIM_023.jpg	99
1627.809	0.687	687.2	2back	Block3	2back/STIM_023.jpg	100
1631.532	0.797	796.6	2back	Block3	2back/STIM_023.jpg	100
1636.091	0.491	490.9	2back	Block3	2back/STIM_024.jpg	100
1638.59	0.715	715.1	2back	Block3	2back/STIM_024.jpg	100
1642.915	0.825	825.2	2back	Block3	2back/STIM_024.jpg	100
1647.48	0.723	723.4	2back	Block3	2back/STIM_025.jpg	100
1650.733	0.695	694.6	2back	Block3	2back/STIM_025.jpg	100
1654.449	0.486	486.2	2back	Block3	2back/STIM_025.jpg	100
1658.595	0.569	569.2	2back	Block3	2back/STIM_026.jpg	99
1662.244	0.566	565.6	2back	Block3	2back/STIM_026.jpg	99
1664.866	0.944	943.7	2back	Block3	2back/STIM_026.jpg	100
1668.981	0.496	495.6	2back	Block3	2back/STIM_027.jpg	99
1672.901	0.421	420.6	2back	Block3	2back/STIM_027.jpg	100
1676.148	0.609	609.2	2back	Block3	2back/STIM_027.jpg	99
1680.498	0.947	947.0	2back	Block3	2back/STIM_028.jpg	100
1683.649	0.758	757.6	2back	Block3	2back/STIM_028.jpg	100
1687.12	0.59	589.8	2back	Block3	2back/STIM_028.jpg	99
1691.169	0.535	534.6	2back	Block3	2back/STIM_029.jpg	100
1694.809	0.62	619.6	2back	Block3	2back/STIM_029.jpg	100
1698.033	0.65	650.2	2back	Block3	2back/STIM_029.jpg	99
1701.917	0.415	414.9	2back	Block3	2back/STIM_030.jpg	99
1705.163	0.823	823.1	2back	Block3	2back/STIM_030.jpg	100
1709.458	0.419	418.7	2back	Block3	2back/STIM_030.jpg	100
1713.619	0.652	652.0	2back	Block3	2back/STIM_031.jpg	100
1717.403	0.564	563.6	2back	Block3	2back/STIM_031.jpg	100
1721.339	0.654	653.6	2back	Block3	2back/STIM_031.jpg	99
1725.955	0.591	590.8	2back	Block3	2back/STIM_032.jpg	100
1728.963	0.802	801.7	2back	Block3	2back/STIM_032.jpg	100
1733.268	0.441	441.1	2back	Block3	2back/STIM_032.jpg	100
1736.658	0.923	922.8	2back	Block3	2back/STIM_033.jpg	100
1740.387	0.894	894.2	2back	Block3	2back/STIM_033.jpg	99
1743.415	0.767	767.1	2back	Block3	2back/STIM_033.jpg	99
1747.975	0.627	626.9	2back	Block3	2back/STIM_034.jpg	99
1751.798	0.487	487.3	2back	Block3	2back/STIM_034.jpg	99
1756.165	0.643	642.7	2back	Block3	2back/STIM_034.jpg	100
1759.129	0.688	687.9	2back	Block3	2back/STIM_035.jpg	99
1762.568	0.478	478.1	2back	Block3	2back/STIM_035.jpg	99
1765.216	0.415	414.7	2back	Block3	2back/STIM_035.jpg	100
1769.209	0.586	585.5	2back	Block3	2back/STIM_036.jpg	100
1771.805	0.464	463.7	2back	Block3	2back/STIM_036.jpg	100
1775.822	0.53	530.4	2back	Block3	2back/STIM_036.jpg	99
1780.244	0.658	658.0	2back	Block3	2back/STIM_037.jpg	99
1784.861	0.631	631.0	2back	Block3	2back/STIM_037.jpg	100
1787.864	0.816	815.6	2back	Block3	2back/STIM_037.jpg	100
1791.0	0.493	493.0	2back	Block3	2back/STIM_038.jpg	99
1795.247	0.731	731.4	2back	Block3	2back/STIM_038.jpg	99
1798.44	0.758	758.1	2back	Block3	2back/STIM_038.jpg	100
1801.716	0.635	634.7	2back	Block3	2back/STIM_039.jpg	99
1805.587	0.845	845.2	2back	Block3	2back/STIM_039.jpg	100
1809.915	0.673	672.6	2back	Block3	2back/STIM_039.jpg	100
1814.43	0.642	641.6	0back	Block3	0back/STIM_000.jpg	99
1818.733	0.749	749.3	0back	Block3	0back/STIM_000.jpg	100
1822.812	0.65	649.8	0back	Block3	0back/STIM_000.jpg	99
1826.604	0.616	615.5	0back	Block3	0back/STIM_001.jpg	100
1829.377	0.456	455.7	0back	Block3	0back/STIM_001.jpg	99
1832.482	0.76	759.9	0back	Block3	0back/STIM_001.jpg	99
1836.364	0.742	741.6	0back	Block3	0back/STIM_002.jpg	100
1839.763	0.691	690.6	0back	Block3	0back/STIM_002.jpg	100
1843.513	0.64	639.7	0back	Block3	0back/STIM_002.jpg	100
1847.188	0.474	474.0	0back	Block3	0back/STIM_003.jpg	100
1850.587	0.44	440.1	0back	Block3	0back/STIM_003.jpg	100
1853.094	0.439	438.6	0back	Block3	0back/STIM_003.jpg	100
1857.219	0.774	774.3	0back	Block3	0back/STIM_004.jpg	100
1861.198	0.457	456.6	0back	Block3	0back/STIM_004.jpg	100
1864.603	0.751	751.2	0back	Block3	0back/STIM_004.jpg	99
1869.227	0.737	737.4	0back	Block3	0back/STIM_005.jpg	99
1873.161	0.689	688.6	0back	Block3	0back/STIM_005.jpg	99
1876.685	0.519	519.3	0back	Block3	0back/STIM_005.jpg	100
1881.113	0.488	487.5	0back	Block3	0back/STIM_006.jpg	100
1885.079	0.512	512.0	0back	Block3	0back/STIM_006.jpg	99
1887.741	0.487	487.0	0back	Block3	0back/STIM_006.jpg	99
1890.422	0.427	427.3	0back	Block3	0back/STIM_007.jpg	100
1894.737	0.678	678.5	0back	Block3	0back/STIM_007.jpg	99
1899.014	0.42	419.5	0back	Block3	0back/STIM_007.jpg	99
1902.582	0.533	532.8	0back	Block3	0back/STIM_008.jpg	100
1905.343	0.753	752.7	0back	Block3	0back/STIM_008.jpg	99
1909.996	0.578	578.0	0back	Block3	0back/STIM_008.jpg	100
1913.172	0.573	573.3	0back	Block3	0back/STIM_009.jpg	100
1916.381	0.592	591.9	0back	Block3	0back/STIM_009.jpg	100
1919.321	0.452	452.0	0back	Block3	0back/STIM_009.jpg	99
1922.646	0.7	700.1	0back	Block3	0back/STIM_010.jpg	100
1925.669	0.468	467.7	0back	Block3	0back/STIM_010.jpg	99
1929.601	0.696	695.8	0back	Block3	0back/STIM_010.jpg	100
1933.826	0.675	674.7	0back	Block3	0back/STIM_011.jpg	100
1937.268	0.666	666.2	0back	Block3	0back/STIM_011.jpg	99
1940.96	0.68	680.1	0back	Block3	0back/STIM_011.jpg	99
1944.839	0.517	517.2	0back	Block3	0back/STIM_012.jpg	100
1948.024	0.462	462.0	0back	Block3	0back/STIM_012.jpg	99
1951.928	0.51	510.0	0back	Block3	0back/STIM_012.jpg	99
1955.87	0.463	463.4	0back	Block3	0back/STIM_013.jpg	100
1959.224	0.626	626.1	0back	Block3	0back/STIM_013.jpg	100
1962.624	0.492	492.0	0back	Block3	0back/STIM_013.jpg	99
1966.816	0.482	482.1	0back	Block3	0back/STIM_014.jpg	99
1969.778	0.428	427.9	0back	Block3	0back/STIM_014.jpg	100
1972.486	0.48	479.5	0back	Block3	0back/STIM_014.jpg	100
1976.552	0.535	534.8	0back	Block3	0back/STIM_015.jpg	100
1979.388	0.7	699.9	0back	Block3	0back/STIM_015.jpg	100
1983.605	0.443	443.3	0back	Block3	0back/STIM_015.jpg	100
1987.203	0.775	775.3	0back	Block3	0back/STIM_016.jpg	100
1991.452	0.609	608.7	0back	Block3	0back/STIM_016.jpg	99
1995.051	0.677	677.4	0back	Block3	0back/STIM_016.jpg	100
1998.13	0.656	655.6	0back	Block3	0back/STIM_017.jpg	100
2002.514	0.396	396.0	0back	Block3	0back/STIM_017.jpg	100
2005.808	0.626	625.5	0back	Block3	0back/STIM_017.jpg	100
2009.493	0.758	758.4	0back	Block3	0back/STIM_018.jpg	100
2013.721	0.389	389.3	0back	Block3	0back/STIM_018.jpg	100
2016.479	0.678	677.5	0back	Block3	0back/STIM_018.jpg	99
2019.786	0.397	396.7	0back	Block3	0back/STIM_019.jpg	100
2022.74	0.674	673.6	0back	Block3	0back/STIM_019.jpg	99
2027.339	0.492	491.7	0back	Block3	0back/STIM_019.jpg	100
2031.767	0.906	905.9	2back	Block4	2back/STIM_000.jpg	99
2036.016	0.578	578.2	2back	Block4	2back/STIM_000.jpg	99
2038.795	0.671	671.1	2back	Block4	2back/STIM_000.jpg	99
2042.073	0.407	407.1	2back	Block4	2back/STIM_001.jpg	100
2046.133	0.742	742.5	2back	Block4	2back/STIM_001.jpg	99
2050.494	0.857	856.9	2back	Block4	2back/STIM_001.jpg	99
2054.434	0.78	780.1	2back	Block4	2back/STIM_002.jpg	99
2058.143	0.712	712.0	2back	Block4	2back/STIM_002.jpg	99
2061.604	0.635	635.4	2back	Block4	2back/STIM_002.jpg	100
2065.106	0.423	423.2	2back	Block4	2back/STIM_003.jpg	100
2069.412	0.71	709.7	2back	Block4	2back/STIM_003.jpg	99
2073.022	0.927	926.8	2back	Block4	2back/STIM_003.jpg	99
2076.95	0.458	457.9	2back	Block4	2back/STIM_004.jpg	100
2081.317	0.558	557.9	2back	Block4	2back/STIM_004.jpg	100
2085.611	0.568	568.3	2back	Block4	2back/STIM_004.jpg	99
2089.872	0.557	557.1	2back	Block4	2back/STIM_005.jpg	99
2092.592	0.762	761.5	2back	Block4	2back/STIM_005.jpg	100
2095.399	0.855	855.0	2back	Block4	2back/STIM_005.jpg	100
2098.749	0.773	773.0	2back	Block4	2back/STIM_006.jpg	100
2101.906	0.742	741.6	2back	Block4	2back/STIM_006.jpg	100
2105.767	0.544	544.4	2back	Block4	2back/STIM_006.jpg	100
2110.275	0.722	722.2	2back	Block4	2back/STIM_007.jpg	99
2113.021	0.436	435.7	2back	Block4	2back/STIM_007.jpg	99
2115.518	0.756	756.1	2back	Block4	2back/STIM_007.jpg	99
2118.606	0.852	851.8	2back	Block4	2back/STIM_008.jpg	100
2121.836	0.88	879.5	2back	Block4	2back/STIM_008.jpg	100
2126.461	0.929	928.8	2back	Block4	2back/STIM_008.jpg	100
2129.669	0.679	679.2	2back	Block4	2back/STIM_009.jpg	100
2133.18	0.888	888.5	2back	Block4	2back/STIM_009.jpg	99
2137.225	0.58	579.7	2back	Block4	2back/STIM_009.jpg	99
2140.968	0.544	544.3	2back	Block4	2back/STIM_010.jpg	100
2143.607	0.917	916.9	2back	Block4	2back/STIM_010.jpg	99
2147.284	0.495	494.7	2back	Block4	2back/STIM_010.jpg	100
2151.31	0.701	700.6	2back	Block4	2back/STIM_011.jpg	99
2155.723	0.588	588.0	2back	Block4	2back/STIM_011.jpg	99
2160.236	0.818	817.7	2back	Block4	2back/STIM_011.jpg	100
2164.739	0.938	937.7	2back	Block4	2back/STIM_012.jpg	99
2168.818	0.822	822.3	2back	Block4	2back/STIM_012.jpg	100
2173.487	0.622	621.7	2back	Block4	2back/STIM_012.jpg	99
2176.659	0.92	920.4	2back	Block4	2back/STIM_013.jpg	99
2180.777	0.78	780.0	2back	Block4	2back/STIM_013.jpg	99
2184.914	0.643	642.6	2back	Block4	2back/STIM_013.jpg	99
2187.84	0.521	521.2	2back	Block4	2back/STIM_014.jpg	99
2190.605	0.57	569.6	2back	Block4	2back/STIM_014.jpg	100
2194.178	0.653	653.0	2back	Block4	2back/STIM_014.jpg	99
2198.331	0.759	758.9	2back	Block4	2back/STIM_015.jpg	99
2201.395	0.864	864.2	2back	Block4	2back/STIM_015.jpg	100
2206.018	0.539	538.8	2back	Block4	2back/STIM_015.jpg	99
2210.232	0.532	532.0	2back	Block4	2back/STIM_016.jpg	100
2214.105	0.949	948.8	2back	Block4	2back/STIM_016.jpg	100
2217.999	0.477	477.3	2back	Block4	2back/STIM_016.jpg	99
2222.027	0.495	495.3	2back	Block4	2back/STIM_017.jpg	100
2225.213	0.422	422.5	2back	Block4	2back/STIM_017.jpg	100
2229.536	0.933	932.6	2back	Block4	2back/STIM_017.jpg	99
2234.318	0.535	535.4	2back	Block4	2back/STIM_018.jpg	100
2237.176	0.593	592.6	2back	Block4	2back/STIM_018.jpg	99
2240.091	0.563	562.8	2back	Block4	2back/STIM_018.jpg	99
2244.174	0.551	551.2	2back	Block4	2back/STIM_019.jpg	100
2247.216	0.772	772.5	2back	Block4	2back/STIM_019.jpg	100
2251.412	0.587	587.4	2back	Block4	2back/STIM_019.jpg	100
2255.089	0.47	470.2	2back	Block4	2back/STIM_020.jpg	99
2258.339	0.825	824.6	2back	Block4	2back/STIM_020.jpg	99
2262.349	0.759	758.7	2back	Block4	2back/STIM_020.jpg	100
2266.07	0.534	534.2	2back	Block4	2back/STIM_021.jpg	99
2270.201	0.908	907.5	2back	Block4	2back/STIM_021.jpg	99
2273.614	0.676	675.9	2back	Block4	2back/STIM_021.jpg	99
2276.62	0.849	848.6	2back	Block4	2back/STIM_022.jpg	99
2279.745	0.942	942.1	2back	Block4	2back/STIM_022.jpg	99
2283.597	0.454	453.7	2back	Block4	2back/STIM_022.jpg	100
2286.732	0.91	910.4	2back	Block4	2back/STIM_023.jpg	99
2290.815	0.844	844.0	2back	Block4	2back/STIM_023.jpg	99
2295.385	0.887	886.8	2back	Block4	2back/STIM_023.jpg	99
2299.28	0.759	759.0	2back	Block4	2back/STIM_024.jpg	100
2302.328	0.44	440.0	2back	Block4	2back/STIM_024.jpg	100
2305.45	0.477	476.7	2back	Block4	2back/STIM_024.jpg	100
2308.074	0.653	653.0	2back	Block4	2back/STIM_025.jpg	99
2311.305	0.69	689.9	2back	Block4	2back/STIM_025.jpg	100
2314.867	0.934	934.1	2back	Block4	2back/STIM_025.jpg	100
2319.006	0.512	512.2	2back	Block4	2back/STIM_026.jpg	100
2321.602	0.433	433.3	2back	Block4	2back/STIM_026.jpg	100
2325.592	0.85	850.4	2back	Block4	2back/STIM_026.jpg	99
2329.053	0.554	554.3	2back	Block4	2back/STIM_027.jpg	99
2333.299	0.738	737.7	2back	Block4	2back/STIM_027.jpg	99
2336.883	0.75	749.9	2back	Block4	2back/STIM_027.jpg	100
2339.927	0.87	869.5	2back	Block4	2back/STIM_028.jpg	100
2343.314	0.597	596.9	2back	Block4	2back/STIM_028.jpg	99
2347.217	0.626	625.8	2back	Block4	2back/STIM_028.jpg	99
2351.567	0.504	504.5	2back	Block4	2back/STIM_029.jpg	99
2354.503	0.78	779.6	2back	Block4	2back/STIM_029.jpg	99
2358.538	0.89	889.5	2back	Block4	2back/STIM_029.jpg	99
2361.994	0.733	732.7	2back	Block4	2back/STIM_030.jpg	100
2366.301	0.864	864.1	2back	Block4	2back/STIM_030.jpg	99
2370.31	0.805	805.1	2back	Block4	2back/STIM_030.jpg	100
2373.659	0.438	438.4	2back	Block4	2back/STIM_031.jpg	99
2376.15	0.628	627.5	2back	Block4	2back/STIM_031.jpg	99
2380.55	0.878	877.7	2back	Block4	2back/STIM_031.jpg	100
2384.336	0.856	856.2	2back	Block4	2back/STIM_032.jpg	99
2389.123	0.506	506.3	2back	Block4	2back/STIM_032.jpg	100
2392.293	0.938	937.6	2back	Block4	2back/STIM_032.jpg	99
2395.314	0.497	496.6	2back	Block4	2back/STIM_033.jpg	99
2398.578	0.689	688.8	2back	Block4	2back/STIM_033.jpg	99
2401.464	0.846	846.5	2back	Block4	2back/STIM_033.jpg	100
2406.261	0.765	765.4	2back	Block4	2back/STIM_034.jpg	100
2410.796	0.759	759.0	2back	Block4	2back/STIM_034.jpg	100
2415.527	0.78	779.5	2back	Block4	2back/STIM_034.jpg	99
2419.024	0.502	502.5	2back	Block4	2back/STIM_035.jpg	99
2422.039	0.702	702.4	2back	Block4	2back/STIM_035.jpg	99
2425.119	0.816	816.2	2back	Block4	2back/STIM_035.jpg	100
2428.988	0.877	877.4	2back	Block4	2back/STIM_036.jpg	99
2433.575	0.718	718.1	2back	Block4	2back/STIM_036.jpg	99
2436.797	0.581	581.1	2back	Block4	2back/STIM_036.jpg	99
2440.62	0.844	844.0	2back	Block4	2back/STIM_037.jpg	99
2445.389	0.616	615.5	2back	Block4	2back/STIM_037.jpg	99
2448.797	0.828	827.7	2back	Block4	2back/STIM_037.jpg	100
2452.748	0.9	900.3	2back	Block4	2back/STIM_038.jpg	100
2457.001	0.918	917.8	2back	Block4	2back/STIM_038.jpg	99
2461.491	0.873	873.3	2back	Block4	2back/STIM_038.jpg	100
2466.145	0.733	732.7	2back	Block4	2back/STIM_039.jpg	99
2469.581	0.634	634.4	2back	Block4	2back/STIM_039.jpg	100
2472.95	0.408	407.6	2back	Block4	2back/STIM_039.jpg	99
2476.696	0.578	577.6	0back	Block4	0back/STIM_000.jpg	100
2479.973	0.66	659.6	0back	Block4	0back/STIM_000.jpg	100
2483.458	0.715	714.7	0back	Block4	0back/STIM_000.jpg	99
2487.603	0.772	772.1	0back	Block4	0back/STIM_001.jpg	99
2491.643	0.752	752.2	0back	Block4	0back/STIM_001.jpg	99
2496.348	0.616	615.9	0back	Block4	0back/STIM_001.jpg	100
2500.307	0.665	665.0	0back	Block4	0back/STIM_002.jpg	99
2503.191	0.431	430.6	0back	Block4	0back/STIM_002.jpg	99
2507.188	0.522	521.6	0back	Block4	0back/STIM_002.jpg	100
2511.436	0.458	457.6	0back	Block4	0back/STIM_003.jpg	99
2514.474	0.466	466.5	0back	Block4	0back/STIM_003.jpg	100
2518.8	0.601	601.1	0back	Block4	0back/STIM_003.jpg	100
2522.05	0.636	636.2	0back	Block4	0back/STIM_004.jpg	100
2525.169	0.757	756.7	0back	Block4	0back/STIM_004.jpg	99
2529.293	0.716	716.3	0back	Block4	0back/STIM_004.jpg	100
2532.253	0.554	553.8	0back	Block4	0back/STIM_005.jpg	100
2536.709	0.713	712.7	0back	Block4	0back/STIM_005.jpg	99
2541.146	0.607	607.2	0back	Block4	0back/STIM_005.jpg	99
2544.405	0.441	440.9	0back	Block4	0back/STIM_006.jpg	99
2547.234	0.604	603.6	0back	Block4	0back/STIM_006.jpg	100
2551.529	0.496	496.0	0back	Block4	0back/STIM_006.jpg	99
2555.968	0.563	562.9	0back	Block4	0back/STIM_007.jpg	99
2559.512	0.493	492.9	0back	Block4	0back/STIM_007.jpg	99
2562.084	0.723	722.7	0back	Block4	0back/STIM_007.jpg	100
2566.516	0.593	592.6	0back	Block4	0back/STIM_008.jpg	99
2569.865	0.587	587.4	0back	Block4	0back/STIM_008.jpg	100
2573.969	0.764	763.8	0back	Block4	0back/STIM_008.jpg	100
2577.187	0.655	654.8	0back	Block4	0back/STIM_009.jpg	99
2581.013	0.769	769.0	0back	Block4	0back/STIM_009.jpg	100
2584.838	0.392	392.3	0back	Block4	0back/STIM_009.jpg	99
2588.031	0.418	418.5	0back	Block4	0back/STIM_010.jpg	99
2590.632	0.398	397.8	0back	Block4	0back/STIM_010.jpg	99
2593.629	0.651	651.1	0back	Block4	0back/STIM_010.jpg	100
2597.685	0.729	729.1	0back	Block4	0back/STIM_011.jpg	99
2601.104	0.668	667.6	0back	Block4	0back/STIM_011.jpg	99
2604.426	0.584	584.1	0back	Block4	0back/STIM_011.jpg	99
2607.3	0.672	672.3	0back	Block4	0back/STIM_012.jpg	100
2610.74	0.468	467.9	0back	Block4	0back/STIM_012.jpg	99
2615.133	0.63	630.2	0back	Block4	0back/STIM_012.jpg	99
2617.946	0.649	649.3	0back	Block4	0back/STIM_013.jpg	100
2622.063	0.609	608.6	0back	Block4	0back/STIM_013.jpg	99
2626.327	0.498	498.1	0back	Block4	0back/STIM_013.jpg	99
2629.337	0.73	729.6	0back	Block4	0back/STIM_014.jpg	100
2632.848	0.75	750.2	0back	Block4	0back/STIM_014.jpg	99
2637.339	0.746	746.3	0back	Block4	0back/STIM_014.jpg	100
2640.174	0.533	532.7	0back	Block4	0back/STIM_015.jpg	99
2644.328	0.425	424.8	0back	Block4	0back/STIM_015.jpg	99
2648.595	0.491	491.0	0back	Block4	0back/STIM_015.jpg	99
2652.897	0.698	698.4	0back	Block4	0back/STIM_016.jpg	100
2656.168	0.752	752.2	0back	Block4	0back/STIM_016.jpg	100
2659.868	0.589	588.7	0back	Block4	0back/STIM_016.jpg	99
2664.111	0.616	616.0	0back	Block4	0back/STIM_017.jpg	99
2666.857	0.729	728.9	0back	Block4	0back/STIM_017.jpg	99
2669.731	0.416	416.5	0back	Block4	0back/STIM_017.jpg	100
2674.034	0.479	479.0	0back	Block4	0back/STIM_018.jpg	99
2677.518	0.414	414.5	0back	Block4	0back/STIM_018.jpg	100
2681.316	0.531	530.7	0back	Block4	0back/STIM_018.jpg	100
2685.426	0.469	469.3	0back	Block4	0back/STIM_019.jpg	99
2689.701	0.431	431.1	0back	Block4	0back/STIM_019.jpg	100
2693.584	0.608	608.5	0back	Block4	0back/STIM_019.jpg	99
