onset	duration	response_time_ms	trial_type	learning_stage	stimulus	response_port
0.0	1.337	1337.1	2back	Block1	2back/STIM_000.jpg	100
3.753	1.027	1027.2	2back	Block1	2back/STIM_000.jpg	100
6.908	1.004	1003.9	2back	Block1	2back/STIM_000.jpg	100
11.253	1.299	1299.2	2back	Block1	2back/STIM_001.jpg	100
14.621	0.956	955.8	2back	Block1	2back/STIM_001.jpg	100
18.031	0.631	630.9	2back	Block1	2back/STIM_001.jpg	100
22.587	0.655	655.4	2back	Block1	2back/STIM_002.jpg	100
25.652	1.054	1053.6	2back	Block1	2back/STIM_002.jpg	100
29.649	0.712	712.4	2back	Block1	2back/STIM_002.jpg	100
34.327	0.675	675.0	2back	Block1	2back/STIM_003.jpg	100
37.665	1.195	1194.7	2back	Block1	2back/STIM_003.jpg	99
41.76	0.58	580.5	2back	Block1	2back/STIM_003.jpg	100
44.826	1.14	1140.5	2back	Block1	2back/STIM_004.jpg	100
48.038	0.719	719.1	2back	Block1	2back/STIM_004.jpg	100
52.549	1.116	1116.2	2back	Block1	2back/STIM_004.jpg	100
57.39	0.844	843.6	2back	Block1	2back/STIM_005.jpg	99
60.451	0.705	704.6	2back	Block1	2back/STIM_005.jpg	99
64.605	0.642	642.5	2back	Block1	2back/STIM_005.jpg	100
67.432	0.79	790.2	2back	Block1	2back/STIM_006.jpg	100
72.099	0.592	591.9	2back	Block1	2back/STIM_006.jpg	99
76.676	0.584	584.3	2back	Block1	2back/STIM_006.jpg	100
80.65	1.065	1064.6	2back	Block1	2back/STIM_007.jpg	99
84.731	1.13	1130.3	2back	Block1	2back/STIM_007.jpg	99
88.86	0.951	950.9	2back	Block1	2back/STIM_007.jpg	100
92.092	0.618	618.5	2back	Block1	2back/STIM_008.jpg	99
95.037	0.522	522.0	2back	Block1	2back/STIM_008.jpg	100
98.765	0.583	582.7	2back	Block1	2back/STIM_008.jpg	100
102.556	0.709	709.2	2back	Block1	2back/STIM_009.jpg	99
105.397	1.269	1269.1	2back	Block1	2back/STIM_009.jpg	100
109.738	1.215	1214.7	2back	Block1	2back/STIM_009.jpg	100
114.952	0.9	900.4	2back	Block1	2back/STIM_010.jpg	99
118.418	1.232	1232.5	2back	Block1	2back/STIM_010.jpg	99
122.766	0.689	689.1	2back	Block1	2back/STIM_010.jpg	99
127.283	1.082	1081.5	2back	Block1	2back/STIM_011.jpg	99
132.16	1.18	1179.9	2back	Block1	2back/STIM_011.jpg	99
136.151	1.165	1165.4	2back	Block1	2back/STIM_011.jpg	100
139.604	0.733	733.3	2back	Block1	2back/STIM_012.jpg	100
143.372	1.106	1106.4	2back	Block1	2back/STIM_012.jpg	100
147.112	0.576	576.4	2back	Block1	2back/STIM_012.jpg	100
149.893	1.281	1281.3	2back	Block1	2back/STIM_013.jpg	100
154.119	0.865	865.2	2back	Block1	2back/STIM_013.jpg	99
157.991	0.794	794.2	2back	Block1	2back/STIM_013.jpg	100
162.718	1.196	1196.2	2back	Block1	2back/STIM_014.jpg	100
167.293	1.076	1075.6	2back	Block1	2back/STIM_014.jpg	99
170.843	0.538	538.5	2back	Block1	2back/STIM_014.jpg	99
173.47	1.005	1005.1	2back	Block1	2back/STIM_015.jpg	100
176.86	0.994	993.6	2back	Block1	2back/STIM_015.jpg	99
180.354	0.866	866.0	2back	Block1	2back/STIM_015.jpg	99
183.927	0.872	871.9	2back	Block1	2back/STIM_016.jpg	100
188.153	1.078	1077.6	2back	Block1	2back/STIM_016.jpg	100
192.722	0.697	697.2	2back	Block1	2back/STIM_016.jpg	99
197.296	1.223	1222.7	2back	Block1	2back/STIM_017.jpg	100
201.981	1.21	1209.9	2back	Block1	2back/STIM_017.jpg	99
207.033	1.007	1007.4	2back	Block1	2back/STIM_017.jpg	99
210.272	0.617	616.7	2back	Block1	2back/STIM_018.jpg	100
213.028	1.152	1152.0	2back	Block1	2back/STIM_018.jpg	100
216.613	1.064	1064.3	2back	Block1	2back/STIM_018.jpg	100
221.208	0.908	908.5	2back	Block1	2back/STIM_019.jpg	100
224.303	0.66	659.6	2back	Block1	2back/STIM_019.jpg	99
228.83	0.798	797.6	2back	Block1	2back/STIM_019.jpg	99
233.238	1.126	1125.6	2back	Block1	2back/STIM_020.jpg	99
238.195	0.798	798.5	2back	Block1	2back/STIM_020.jpg	100
242.697	0.708	708.1	2back	Block1	2back/STIM_020.jpg	99
247.215	0.96	960.3	2back	Block1	2back/STIM_021.jpg	99
251.37	0.847	846.9	2back	Block1	2back/STIM_021.jpg	100
254.378	1.027	1027.4	2back	Block1	2back/STIM_021.jpg	100
259.128	0.945	944.7	2back	Block1	2back/STIM_022.jpg	99
262.2	0.944	944.2	2back	Block1	2back/STIM_022.jpg	99
266.658	1.046	1045.8	2back	Block1	2back/STIM_022.jpg	100
271.073	0.856	856.1	2back	Block1	2back/STIM_023.jpg	99
275.308	0.726	725.7	2back	Block1	2back/STIM_023.jpg	100
279.755	0.952	952.5	2back	Block1	2back/STIM_023.jpg	100
282.864	0.796	796.0	2back	Block1	2back/STIM_024.jpg	100
286.242	1.227	1227.3	2back	Block1	2back/STIM_024.jpg	100
290.736	0.979	979.3	2back	Block1	2back/STIM_024.jpg	100
295.284	0.623	623.1	2back	Block1	2back/STIM_025.jpg	100
298.213	0.522	521.5	2back	Block1	2back/STIM_025.jpg	100
302.396	0.984	984.5	2back	Block1	2back/STIM_025.jpg	100
306.269	1.276	1276.2	2back	Block1	2back/STIM_026.jpg	99
310.2	0.836	836.1	2back	Block1	2back/STIM_026.jpg	100
313.71	0.503	503.5	2back	Block1	2back/STIM_026.jpg	100
316.49	1.151	1151.1	2back	Block1	2back/STIM_027.jpg	100
320.018	0.901	900.6	2back	Block1	2back/STIM_027.jpg	100
323.971	1.037	1037.1	2back	Block1	2back/STIM_027.jpg	100
328.807	1.144	1143.9	2back	Block1	2back/STIM_028.jpg	99
332.551	0.735	735.4	2back	Block1	2back/STIM_028.jpg	99
336.76	0.884	883.5	2back	Block1	2back/STIM_028.jpg	100
341.021	1.281	1281.3	2back	Block1	2back/STIM_029.jpg	99
344.56	0.822	821.5	2back	Block1	2back/STIM_029.jpg	100
348.034	0.989	989.2	2back	Block1	2back/STIM_029.jpg	99
352.333	0.719	719.2	2back	Block1	2back/STIM_030.jpg	100
356.555	0.546	546.4	2back	Block1	2back/STIM_030.jpg	99
360.781	0.954	953.7	2back	Block1	2back/STIM_030.jpg	100
364.269	0.723	723.0	2back	Block1	2back/STIM_031.jpg	100
367.709	0.492	491.8	2back	Block1	2back/STIM_031.jpg	100
370.765	0.582	581.9	2back	Block1	2back/STIM_031.jpg	100
373.61	1.105	1105.1	2back	Block1	2back/STIM_032.jpg	100
376.87	1.069	1069.4	2back	Block1	2back/STIM_032.jpg	99
380.46	0.543	543.4	2back	Block1	2back/STIM_032.jpg	100
384.855	1.206	1206.1	2back	Block1	2back/STIM_033.jpg	100
388.173	0.8	800.5	2back	Block1	2back/STIM_033.jpg	100
392.551	0.712	711.7	2back	Block1	2back/STIM_033.jpg	99
395.696	1.017	1016.8	2back	Block1	2back/STIM_034.jpg	100
399.36	1.06	1060.5	2back	Block1	2back/STIM_034.jpg	100
403.619	0.885	885.1	2back	Block1	2back/STIM_034.jpg	100
407.991	0.944	944.0	2back	Block1	2back/STIM_035.jpg	99
412.231	0.988	988.4	2back	Block1	2back/STIM_035.jpg	100
416.405	1.081	1080.7	2back	Block1	2back/STIM_035.jpg	100
421.151	0.936	936.2	2back	Block1	2back/STIM_036.jpg	100
424.863	0.887	887.4	2back	Block1	2back/STIM_036.jpg	99
429.676	0.746	746.0	2back	Block1	2back/STIM_036.jpg	99
432.422	0.892	892.3	2back	Block1	2back/STIM_037.jpg	99
436.083	1.163	1163.3	2back	Block1	2back/STIM_037.jpg	99
440.256	0.751	751.4	2back	Block1	2back/STIM_037.jpg	100
443.501	0.923	923.2	2back	Block1	2back/STIM_038.jpg	100
448.265	0.986	986.5	2back	Block1	2back/STIM_038.jpg	100
452.947	0.81	809.8	2back	Block1	2back/STIM_038.jpg	100
456.363	1.244	1243.5	2back	Block1	2back/STIM_039.jpg	100
460.679	1.004	1004.0	2back	Block1	2back/STIM_039.jpg	100
464.98	1.093	1093.0	2back	Block1	2back/STIM_039.jpg	100
470.06	0.634	634.3	0back	Block1	0back/STIM_000.jpg	99
473.999	0.594	594.0	0back	Block1	0back/STIM_000.jpg	100
478.313	0.357	357.4	0back	Block1	0back/STIM_000.jpg	100
482.301	0.621	621.1	0back	Block1	0back/STIM_001.jpg	100
486.284	0.643	642.8	0back	Block1	0back/STIM_001.jpg	99
490.008	0.522	521.5	0back	Block1	0back/STIM_001.jpg	100
493.756	0.428	428.0	0back	Block1	0back/STIM_002.jpg	100
498.21	0.514	513.7	0back	Block1	0back/STIM_002.jpg	100
502.638	0.566	566.5	0back	Block1	0back/STIM_002.jpg	99
506.09	0.64	640.3	0back	Block1	0back/STIM_003.jpg	100
508.835	0.443	443.1	0back	Block1	0back/STIM_003.jpg	99
512.714	0.645	645.2	0back	Block1	0back/STIM_003.jpg	100
516.351	0.357	357.2	0back	Block1	0back/STIM_004.jpg	100
520.239	0.299	298.8	0back	Block1	0back/STIM_004.jpg	99
523.469	0.431	431.0	0back	Block1	0back/STIM_004.jpg	99
526.561	0.397	396.7	0back	Block1	0back/STIM_005.jpg	100
530.167	0.706	705.9	0back	Block1	0back/STIM_005.jpg	100
533.694	0.512	512.3	0back	Block1	0back/STIM_005.jpg	100
537.663	0.749	749.3	0back	Block1	0back/STIM_006.jpg	99
540.951	0.758	758.3	0back	Block1	0back/STIM_006.jpg	100
544.88	0.627	627.1	0back	Block1	0back/STIM_006.jpg	100
548.475	0.665	665.2	0back	Block1	0back/STIM_007.jpg	99
552.916	0.656	656.2	0back	Block1	0back/STIM_007.jpg	99
556.878	0.415	415.0	0back	Block1	0back/STIM_007.jpg	100
560.648	0.682	682.2	0back	Block1	0back/STIM_008.jpg	100
565.057	0.604	603.8	0back	Block1	0back/STIM_008.jpg	99
569.321	0.614	613.9	0back	Block1	0back/STIM_008.jpg	100
573.303	0.586	585.6	0back	Block1	0back/STIM_009.jpg	100
577.063	0.68	679.6	0back	Block1	0back/STIM_009.jpg	99
580.341	0.718	718.5	0back	Block1	0back/STIM_009.jpg	99
584.604	0.666	665.5	0back	Block1	0back/STIM_010.jpg	100
589.124	0.706	706.4	0back	Block1	0back/STIM_010.jpg	99
592.209	0.677	677.3	0back	Block1	0back/STIM_010.jpg	99
596.279	0.493	492.6	0back	Block1	0back/STIM_011.jpg	99
600.13	0.531	530.8	0back	Block1	0back/STIM_011.jpg	99
604.649	0.465	464.9	0back	Block1	0back/STIM_011.jpg	100
609.117	0.692	692.3	0back	Block1	0back/STIM_012.jpg	99
612.967	0.436	436.5	0back	Block1	0back/STIM_012.jpg	100
615.432	0.651	651.4	0back	Block1	0back/STIM_012.jpg	99
619.316	0.668	668.0	0back	Block1	0back/STIM_013.jpg	99
623.525	0.706	706.4	0back	Block1	0back/STIM_013.jpg	99
626.521	0.377	377.2	0back	Block1	0back/STIM_013.jpg	100
630.864	0.573	573.1	0back	Block1	0back/STIM_014.jpg	99
634.319	0.605	604.8	0back	Block1	0back/STIM_014.jpg	99
638.05	0.601	601.1	0back	Block1	0back/STIM_014.jpg	100
642.605	0.695	695.4	0back	Block1	0back/STIM_015.jpg	100
646.49	0.478	477.7	0back	Block1	0back/STIM_015.jpg	100
649.505	0.573	572.7	0back	Block1	0back/STIM_015.jpg	100
653.945	0.687	687.4	0back	Block1	0back/STIM_016.jpg	99
656.751	0.666	666.3	0back	Block1	0back/STIM_016.jpg	99
660.972	0.704	704.5	0back	Block1	0back/STIM_016.jpg	100
665.423	0.589	589.2	0back	Block1	0back/STIM_017.jpg	99
668.496	0.767	766.7	0back	Block1	0back/STIM_017.jpg	100
672.018	0.496	496.0	0back	Block1	0back/STIM_017.jpg	99
675.239	0.41	409.9	0back	Block1	0back/STIM_018.jpg	99
678.919	0.437	436.9	0back	Block1	0back/STIM_018.jpg	99
682.719	0.766	766.3	0back	Block1	0back/STIM_018.jpg	100
686.804	0.599	598.8	0back	Block1	0back/STIM_019.jpg	100
690.395	0.581	581.2	0back	Block1	0back/STIM_019.jpg	100
694.585	0.678	677.8	0back	Block1	0back/STIM_019.jpg	99
698.295	0.44	439.9	2back	Block2	2back/STIM_000.jpg	99
701.317	1.125	1125.1	2back	Block2	2back/STIM_000.jpg	99
705.315	0.766	766.1	2back	Block2	2back/STIM_000.jpg	100
708.711	0.561	561.2	2back	Block2	2back/STIM_001.jpg	100
712.229	0.995	994.9	2back	Block2	2back/STIM_001.jpg	100
715.596	0.523	522.7	2back	Block2	2back/STIM_001.jpg	99
719.119	0.674	673.8	2back	Block2	2back/STIM_002.jpg	100
721.937	1.029	1028.7	2back	Block2	2back/STIM_002.jpg	100
726.327	0.713	713.2	2back	Block2	2back/STIM_002.jpg	100
729.544	1.054	1053.9	2back	Block2	2back/STIM_003.jpg	99
733.809	0.466	466.2	2back	Block2	2back/STIM_003.jpg	100
736.731	0.452	451.9	2back	Block2	2back/STIM_003.jpg	100
740.867	0.804	803.5	2back	Block2	2back/STIM_004.jpg	99
744.14	0.646	645.8	2back	Block2	2back/STIM_004.jpg	100
748.647	0.658	658.1	2back	Block2	2back/STIM_004.jpg	99
753.038	0.768	768.2	2back	Block2	2back/STIM_005.jpg	100
756.292	0.573	573.2	2back	Block2	2back/STIM_005.jpg	99
759.506	0.553	552.9	2back	Block2	2back/STIM_005.jpg	99
763.918	0.465	464.8	2back	Block2	2back/STIM_006.jpg	99
767.646	0.558	557.9	2back	Block2	2back/STIM_006.jpg	99
770.786	0.934	934.4	2back	Block2	2back/STIM_006.jpg	100
774.264	0.592	591.7	2back	Block2	2back/STIM_007.jpg	99
778.29	1.062	1061.7	2back	Block2	2back/STIM_007.jpg	99
781.927	0.659	659.0	2back	Block2	2back/STIM_007.jpg	99
785.791	0.782	782.1	2back	Block2	2back/STIM_008.jpg	100
788.98	0.682	681.5	2back	Block2	2back/STIM_008.jpg	99
792.311	0.579	579.4	2back	Block2	2back/STIM_008.jpg	99
795.895	0.813	813.1	2back	Block2	2back/STIM_009.jpg	100
799.508	0.822	821.5	2back	Block2	2back/STIM_009.jpg	99
802.953	0.895	895.4	2back	Block2	2back/STIM_009.jpg	100
806.582	0.892	892.4	2back	Block2	2back/STIM_010.jpg	99
811.409	0.483	483.4	2back	Block2	2back/STIM_010.jpg	100
815.921	0.505	505.1	2back	Block2	2back/STIM_010.jpg	100
820.094	0.848	848.2	2back	Block2	2back/STIM_011.jpg	100
823.833	0.993	993.1	2back	Block2	2back/STIM_011.jpg	99
828.723	0.482	482.1	2back	Block2	2back/STIM_011.jpg	100
831.429	0.784	784.1	2back	Block2	2back/STIM_012.jpg	100
835.917	0.516	515.7	2back	Block2	2back/STIM_012.jpg	99
838.862	0.878	878.0	2back	Block2	2back/STIM_012.jpg	100
842.428	0.856	855.9	2back	Block2	2back/STIM_013.jpg	100
847.053	0.93	929.8	2back	Block2	2back/STIM_013.jpg	99
850.732	0.564	564.3	2back	Block2	2back/STIM_013.jpg	100
854.093	0.448	447.5	2back	Block2	2back/STIM_014.jpg	100
858.155	0.962	961.8	2back	Block2	2back/STIM_014.jpg	99
861.788	0.97	970.4	2back	Block2	2back/STIM_014.jpg	99
865.617	0.72	720.3	2back	Block2	2back/STIM_015.jpg	100
869.709	0.479	479.2	2back	Block2	2back/STIM_015.jpg	100
874.01	0.738	738.5	2back	Block2	2back/STIM_015.jpg	99
876.926	0.9	900.0	2back	Block2	2back/STIM_016.jpg	99
880.443	0.534	533.7	2back	Block2	2back/STIM_016.jpg	100
884.716	1.008	1007.6	2back	Block2	2back/STIM_016.jpg	99
888.992	0.583	582.6	2back	Block2	2back/STIM_017.jpg	100
892.847	0.557	557.2	2back	Block2	2back/STIM_017.jpg	100
897.366	0.598	598.1	2back	Block2	2back/STIM_017.jpg	99
901.936	1.013	1012.9	2back	Block2	2back/STIM_018.jpg	100
906.411	0.793	793.1	2back	Block2	2back/STIM_018.jpg	99
910.52	0.739	739.0	2back	Block2	2back/STIM_018.jpg	99
914.257	1.152	1152.2	2back	Block2	2back/STIM_019.jpg	99
918.06	0.554	553.9	2back	Block2	2back/STIM_019.jpg	99
921.741	0.777	777.1	2back	Block2	2back/STIM_019.jpg	99
925.039	0.993	993.4	2back	Block2	2back/STIM_020.jpg	99
928.232	0.995	994.9	2back	Block2	2back/STIM_020.jpg	99
932.577	0.55	550.0	2back	Block2	2back/STIM_020.jpg	99
936.64	0.736	736.2	2back	Block2	2back/STIM_021.jpg	99
940.274	0.888	888.2	2back	Block2	2back/STIM_021.jpg	99
943.224	0.803	803.2	2back	Block2	2back/STIM_021.jpg	99
947.455	0.952	952.4	2back	Block2	2back/STIM_022.jpg	100
952.508	0.818	818.3	2back	Block2	2back/STIM_022.jpg	100
956.22	0.579	578.9	2back	Block2	2back/STIM_022.jpg	100
959.566	1.111	1110.7	2back	Block2	2back/STIM_023.jpg	100
964.515	0.91	909.5	2back	Block2	2back/STIM_023.jpg	100
968.644	0.852	851.7	2back	Block2	2back/STIM_023.jpg	99
973.458	0.658	658.0	2back	Block2	2back/STIM_024.jpg	99
976.488	0.558	557.8	2back	Block2	2back/STIM_024.jpg	100
979.812	0.591	591.1	2back	Block2	2back/STIM_024.jpg	100
984.21	0.598	597.6	2back	Block2	2back/STIM_025.jpg	100
988.358	0.538	537.7	2back	Block2	2back/STIM_025.jpg	100
992.777	0.421	420.8	2back	Block2	2back/STIM_025.jpg	99
996.837	1.057	1057.3	2back	Block2	2back/STIM_026.jpg	99
1001.064	0.983	983.1	2back	Block2	2back/STIM_026.jpg	99
1004.29	0.713	712.9	2back	Block2	2back/STIM_026.jpg	99
1008.963	0.499	499.2	2back	Block2	2back/STIM_027.jpg	100
1013.082	0.679	678.6	2back	Block2	2back/STIM_027.jpg	99
1016.089	0.359	359.1	2back	Block2	2back/STIM_027.jpg	100
1019.449	0.976	975.8	2back	Block2	2back/STIM_028.jpg	100
1023.565	0.965	965.1	2back	Block2	2back/STIM_028.jpg	100
1028.145	0.5	500.5	2back	Block2	2back/STIM_028.jpg	99
1031.793	0.816	816.1	2back	Block2	2back/STIM_029.jpg	99
1035.509	1.0	1000.2	2back	Block2	2back/STIM_029.jpg	99
1038.657	0.427	427.1	2back	Block2	2back/STIM_029.jpg	99
1042.039	0.866	866.4	2back	Block2	2back/STIM_030.jpg	100
1045.882	0.638	638.4	2back	Block2	2back/STIM_030.jpg	100
1050.459	0.805	804.7	2back	Block2	2back/STIM_030.jpg	100
1053.931	0.973	973.3	2back	Block2	2back/STIM_031.jpg	99
1057.522	0.939	938.9	2back	Block2	2back/STIM_031.jpg	100
1060.505	0.792	791.8	2back	Block2	2back/STIM_031.jpg	99
1065.013	0.908	907.7	2back	Block2	2back/STIM_032.jpg	99
1069.587	0.758	758.2	2back	Block2	2back/STIM_032.jpg	100
1073.54	0.946	946.2	2back	Block2	2back/STIM_032.jpg	99
1077.971	0.687	687.0	2back	Block2	2back/STIM_033.jpg	99
1081.576	0.484	483.9	2back	Block2	2back/STIM_033.jpg	100
1084.199	0.832	831.6	2back	Block2	2back/STIM_033.jpg	99
1087.617	1.108	1108.1	2back	Block2	2back/STIM_034.jpg	99
1091.965	0.916	915.6	2back	Block2	2back/STIM_034.jpg	99
1095.149	0.684	683.5	2back	Block2	2back/STIM_034.jpg	99
1098.22	0.828	828.5	2back	Block2	2back/STIM_035.jpg	99
1101.781	0.504	504.2	2back	Block2	2back/STIM_035.jpg	99
1105.446	0.62	620.1	2back	Block2	2back/STIM_035.jpg	100
1108.755	0.668	667.9	2back	Block2	2back/STIM_036.jpg	99
1113.343	0.946	946.3	2back	Block2	2back/STIM_036.jpg	100
1117.407	0.709	708.8	2back	Block2	2back/STIM_036.jpg	99
1121.563	0.738	738.0	2back	Block2	2back/STIM_037.jpg	99
1126.256	0.786	786.0	2back	Block2	2back/STIM_037.jpg	99
1130.593	0.596	596.1	2back	Block2	2back/STIM_037.jpg	99
1133.758	1.149	1148.6	2back	Block2	2back/STIM_038.jpg	99
1137.256	0.517	517.2	2back	Block2	2back/STIM_038.jpg	100
1140.507	0.796	795.5	2back	Block2	2back/STIM_038.jpg	100
1143.854	0.494	493.8	2back	Block2	2back/STIM_039.jpg	99
1148.005	0.548	547.7	2back	Block2	2back/STIM_039.jpg	99
1152.322	1.091	1090.8	2back	Block2	2back/STIM_039.jpg	100
1156.768	0.51	510.3	0back	Block2	0back/STIM_000.jpg	100
1160.709	0.435	435.2	0back	Block2	0back/STIM_000.jpg	100
1163.321	0.544	544.4	0back	Block2	0back/STIM_000.jpg	100
1166.71	0.48	479.5	0back	Block2	0back/STIM_001.jpg	99
1170.812	0.587	586.9	0back	Block2	0back/STIM_001.jpg	100
1174.453	0.735	734.7	0back	Block2	0back/STIM_001.jpg	100
1178.287	0.679	678.7	0back	Block2	0back/STIM_002.jpg	100
1181.221	0.567	567.4	0back	Block2	0back/STIM_002.jpg	99
1184.418	0.576	576.4	0back	Block2	0back/STIM_002.jpg	100
1188.216	0.477	476.6	0back	Block2	0back/STIM_003.jpg	99
1192.391	0.583	583.0	0back	Block2	0back/STIM_003.jpg	100
1196.491	0.736	736.4	0back	Block2	0back/STIM_003.jpg	100
1200.737	0.423	422.8	0back	Block2	0back/STIM_004.jpg	99
1204.74	0.482	482.4	0back	Block2	0back/STIM_004.jpg	100
1209.024	0.666	665.8	0back	Block2	0back/STIM_004.jpg	99
1213.348	0.689	689.1	0back	Block2	0back/STIM_005.jpg	99
1216.24	0.375	375.1	0back	Block2	0back/STIM_005.jpg	99
1220.546	0.568	568.4	0back	Block2	0back/STIM_005.jpg	99
1223.863	0.693	692.8	0back	Block2	0back/STIM_006.jpg	100
1226.635	0.652	652.1	0back	Block2	0back/STIM_006.jpg	100
1230.674	0.382	382.1	0back	Block2	0back/STIM_006.jpg	100
1233.412	0.67	669.5	0back	Block2	0back/STIM_007.jpg	99
1236.156	0.671	670.8	0back	Block2	0back/STIM_007.jpg	99
1239.931	0.752	751.6	0back	Block2	0back/STIM_007.jpg	100
1243.367	0.686	685.5	0back	Block2	0back/STIM_008.jpg	99
1247.663	0.41	409.9	0back	Block2	0back/STIM_008.jpg	100
1251.382	0.722	721.5	0back	Block2	0back/STIM_008.jpg	100
1255.941	0.381	381.0	0back	Block2	0back/STIM_009.jpg	100
1260.06	0.678	678.3	0back	Block2	0back/STIM_009.jpg	99
1264.217	0.485	485.2	0back	Block2	0back/STIM_009.jpg	100
1267.235	0.67	669.5	0back	Block2	0back/STIM_010.jpg	100
1271.424	0.673	672.9	0back	Block2	0back/STIM_010.jpg	100
1275.147	0.616	615.6	0back	Block2	0back/STIM_010.jpg	99
1279.497	0.666	665.6	0back	Block2	0back/STIM_011.jpg	99
1282.894	0.657	657.3	0back	Block2	0back/STIM_011.jpg	100
1285.904	0.563	562.7	0back	Block2	0back/STIM_011.jpg	99
1289.454	0.577	576.8	0back	Block2	0back/STIM_012.jpg	100
1293.375	0.57	569.8	0back	Block2	0back/STIM_012.jpg	100
1297.418	0.558	558.5	0back	Block2	0back/STIM_012.jpg	100
1301.933	0.485	485.0	0back	Block2	0back/STIM_013.jpg	100
1304.812	0.652	652.3	0back	Block2	0back/STIM_013.jpg	99
1307.581	0.45	450.0	0back	Block2	0back/STIM_013.jpg	99
1311.303	0.516	516.0	0back	Block2	0back/STIM_014.jpg	99
1315.353	0.641	640.7	0back	Block2	0back/STIM_014.jpg	99
1318.653	0.718	717.6	0back	Block2	0back/STIM_014.jpg	99
1322.293	0.528	528.0	0back	Block2	0back/STIM_015.jpg	99
1325.861	0.574	574.4	0back	Block2	0back/STIM_015.jpg	99
1329.769	0.593	593.3	0back	Block2	0back/STIM_015.jpg	99
1332.676	0.718	717.8	0back	Block2	0back/STIM_016.jpg	100
1335.899	0.64	639.9	0back	Block2	0back/STIM_016.jpg	100
1339.436	0.649	648.9	0back	Block2	0back/STIM_016.jpg	99
1343.866	0.662	662.1	0back	Block2	0back/STIM_017.jpg	100
1347.517	0.652	651.7	0back	Block2	0back/STIM_017.jpg	99
1351.812	0.512	512.3	0back	Block2	0back/STIM_017.jpg	100
1356.021	0.439	438.9	0back	Block2	0back/STIM_018.jpg	99
1359.276	0.408	408.0	0back	Block2	0back/STIM_018.jpg	99
1362.446	0.718	718.3	0back	Block2	0back/STIM_018.jpg	99
1366.981	0.597	596.7	0back	Block2	0back/STIM_019.jpg	100
1370.665	0.337	337.1	0back	Block2	0back/STIM_019.jpg	99
1374.181	0.403	403.0	0back	Block2	0back/STIM_019.jpg	100
1377.769	0.831	831.4	2back	Block3	2back/STIM_000.jpg	100
1382.577	0.477	476.9	2back	Block3	2back/STIM_000.jpg	100
1385.335	0.585	585.0	2back	Block3	2back/STIM_000.jpg	99
1389.304	0.428	427.6	2back	Block3	2back/STIM_001.jpg	100
1393.546	0.538	538.5	2back	Block3	2back/STIM_001.jpg	99
1397.814	0.604	603.6	2back	Block3	2back/STIM_001.jpg	99
1401.142	0.937	937.4	2back	Block3	2back/STIM_002.jpg	99
1404.304	0.685	685.0	2back	Block3	2back/STIM_002.jpg	100
1407.601	0.965	964.7	2back	Block3	2back/STIM_002.jpg	99
1410.754	0.749	748.7	2back	Block3	2back/STIM_003.jpg	99
1415.391	0.477	477.4	2back	Block3	2back/STIM_003.jpg	100
1419.257	0.586	585.8	2back	Block3	2back/STIM_003.jpg	100
1423.248	0.688	688.5	2back	Block3	2back/STIM_004.jpg	100
1427.778	0.778	778.4	2back	Block3	2back/STIM_004.jpg	99
1432.323	0.526	525.7	2back	Block3	2back/STIM_004.jpg	99
1436.697	0.466	466.4	2back	Block3	2back/STIM_005.jpg	99
1439.426	0.861	861.2	2back	Block3	2back/STIM_005.jpg	100
1444.242	0.678	677.9	2back	Block3	2back/STIM_005.jpg	100
1448.113	0.692	691.6	2back	Block3	2back/STIM_006.jpg	99
1450.901	0.831	831.4	2back	Block3	2back/STIM_006.jpg	100
1454.263	0.479	479.0	2back	Block3	2back/STIM_006.jpg	100
1458.371	0.697	696.9	2back	Block3	2back/STIM_007.jpg	100
1462.668	0.616	615.6	2back	Block3	2back/STIM_007.jpg	99
1466.826	0.732	731.5	2back	Block3	2back/STIM_007.jpg	100
1471.308	0.768	767.9	2back	Block3	2back/STIM_008.jpg	99
1474.803	0.584	583.9	2back	Block3	2back/STIM_008.jpg	100
1478.985	0.525	525.0	2back	Block3	2back/STIM_008.jpg	99
1482.015	0.477	476.8	2back	Block3	2back/STIM_009.jpg	99
1485.458	0.43	430.2	2back	Block3	2back/STIM_009.jpg	99
1488.355	0.536	535.9	2back	Block3	2back/STIM_009.jpg	99
1492.599	0.805	805.0	2back	Block3	2back/STIM_010.jpg	99
1496.717	0.767	766.6	2back	Block3	2back/STIM_010.jpg	99
1499.61	0.767	767.2	2back	Block3	2back/STIM_010.jpg	99
1503.413	0.81	809.9	2back	Block3	2back/STIM_011.jpg	100
1507.39	0.526	525.8	2back	Block3	2back/STIM_011.jpg	99
1510.753	0.905	904.7	2back	Block3	2back/STIM_011.jpg	100
1515.028	1.016	1016.5	2back	Block3	2back/STIM_012.jpg	99
1518.949	0.966	965.7	2back	Block3	2back/STIM_012.jpg	100
1523.91	0.556	555.9	2back	Block3	2back/STIM_012.jpg	100
1527.475	0.826	826.4	2back	Block3	2back/STIM_013.jpg	100
1532.2	0.811	810.9	2back	Block3	2back/STIM_013.jpg	100
1536.755	0.516	516.4	2back	Block3	2back/STIM_013.jpg	99
1540.031	0.473	473.4	2back	Block3	2back/STIM_014.jpg	99
1543.785	0.685	685.4	2back	Block3	2back/STIM_014.jpg	100
1548.183	0.871	871.4	2back	Block3	2back/STIM_014.jpg	99
1552.683	0.657	657.2	2back	Block3	2back/STIM_015.jpg	100
1557.082	0.938	938.4	2back	Block3	2back/STIM_015.jpg	100
1561.229	0.553	552.9	2back	Block3	2back/STIM_015.jpg	100
1564.395	0.861	860.9	2back	Block3	2back/STIM_016.jpg	99
1567.928	0.499	499.0	2back	Block3	2back/STIM_016.jpg	100
1572.335	0.719	718.6	2back	Block3	2back/STIM_016.jpg	100
1575.347	0.753	753.4	2back	Block3	2back/STIM_017.jpg	99
1579.417	0.82	819.9	2back	Block3	2back/STIM_017.jpg	99
1583.831	0.805	804.9	2back	Block3	2back/STIM_017.jpg	100
1587.745	0.892	891.6	2back	Block3	2back/STIM_018.jpg	99
1590.948	0.614	613.7	2back	Block3	2back/STIM_018.jpg	100
1594.537	0.891	891.2	2back	Block3	2back/STIM_018.jpg	99
1598.661	0.645	645.4	2back	Block3	2back/STIM_019.jpg	100
1601.663	0.509	509.0	2back	Block3	2back/STIM_019.jpg	100
1605.772	0.697	697.2	2back	Block3	2back/STIM_019.jpg	99
1610.044	0.96	959.6	2back	Block3	2back/STIM_020.jpg	99
1614.825	0.538	538.3	2back	Block3	2back/STIM_020.jpg	100
1617.486	0.693	693.2	2back	Block3	2back/STIM_020.jpg	99
1621.714	0.516	515.8	2back	Block3	2back/STIM_021.jpg	99
1624.38	0.531	530.9	2back	Block3	2back/STIM_021.jpg	100
1628.1	0.486	485.6	2back	Block3	2back/STIM_021.jpg	100
1632.057	0.779	778.6	2back	Block3	2back/STIM_022.jpg	100
1636.768	0.811	811.4	2back	Block3	2back/STIM_022.jpg	100
1639.908	0.688	688.4	2back	Block3	2back/STIM_022.jpg	99
1643.106	0.916	916.0	2back	Block3	2back/STIM_023.jpg	99
1647.154	0.503	502.6	2back	Block3	2back/STIM_023.jpg	100
1650.199	0.416	416.5	2back	Block3	2back/STIM_023.jpg	100
1654.596	0.908	907.5	2back	Block3	2back/STIM_024.jpg	100
1658.592	0.664	663.6	2back	Block3	2back/STIM_024.jpg	100
1662.804	0.829	828.6	2back	Block3	2back/STIM_024.jpg	100
1665.838	0.476	476.2	2back	Block3	2back/STIM_025.jpg	100
1670.151	0.91	910.5	2back	Block3	2back/STIM_025.jpg	100
1674.995	0.83	830.5	2back	Block3	2back/STIM_025.jpg	100
1678.034	0.644	643.5	2back	Block3	2back/STIM_026.jpg	99
1681.898	0.664	663.9	2back	Block3	2back/STIM_026.jpg	99
1685.152	0.412	411.8	2back	Block3	2back/STIM_026.jpg	100
1689.301	0.927	927.2	2back	Block3	2back/STIM_027.jpg	99
1693.51	0.417	416.8	2back	Block3	2back/STIM_027.jpg	100
1696.999	0.822	821.7	2back	Block3	2back/STIM_027.jpg	99
1701.679	0.972	972.4	2back	Block3	2back/STIM_028.jpg	100
1706.164	0.563	562.8	2back	Block3	2back/STIM_028.jpg	100
1709.989	0.482	482.1	2back	Block3	2back/STIM_028.jpg	99
1714.358	0.737	736.7	2back	Block3	2back/STIM_029.jpg	100
1717.24	0.584	584.4	2back	Block3	2back/STIM_029.jpg	100
1721.602	0.414	413.6	2back	Block3	2back/STIM_029.jpg	99
1724.711	0.679	678.9	2back	Block3	2back/STIM_030.jpg	99
1727.873	0.879	878.6	2back	Block3	2back/STIM_030.jpg	100
1731.617	0.807	807.2	2back	Block3	2back/STIM_030.jpg	100
1736.032	0.471	471.4	2back	Block3	2back/STIM_031.jpg	100
1739.373	0.767	766.7	2back	Block3	2back/STIM_031.jpg	100
1743.66	0.806	806.0	2back	Block3	2back/STIM_031.jpg	99
1746.656	0.626	625.5	2back	Block3	2back/STIM_032.jpg	100
1750.395	0.904	904.3	2back	Block3	2back/STIM_032.jpg	100
1754.407	0.949	948.7	2back	Block3	2back/STIM_032.jpg	100
1758.507	0.801	801.3	2back	Block3	2back/STIM_033.jpg	100
1761.551	0.633	632.8	2back	Block3	2back/STIM_033.jpg	99
1765.907	0.427	427.4	2back	Block3	2back/STIM_033.jpg	99
1769.706	0.975	975.3	2back	Block3	2back/STIM_034.jpg	99
1773.674	0.923	923.3	2back	Block3	2back/STIM_034.jpg	99
1777.267	0.482	481.6	2back	Block3	2back/STIM_034.jpg	100
1780.422	0.659	658.8	2back	Block3	2back/STIM_035.jpg	99
1784.757	0.54	539.8	2back	Block3	2back/STIM_035.jpg	99
1787.729	0.436	436.1	2back	Block3	2back/STIM_035.jpg	100
1791.083	0.498	497.9	2back	Block3	2back/STIM_036.jpg	100
1795.252	0.433	432.7	2back	Block3	2back/STIM_036.jpg	100
1798.982	0.463	462.7	2back	Block3	2back/STIM_036.jpg	99
1801.644	0.542	541.5	2back	Block3	2back/STIM_037.jpg	99
1805.691	0.458	457.9	2back	Block3	2back/STIM_037.jpg	100
1809.512	0.728	728.5	2back	Block3	2back/STIM_037.jpg	100
1813.88	0.89	889.7	2back	Block3	2back/STIM_038.jpg	99
1816.869	0.43	430.2	2back	Block3	2back/STIM_038.jpg	99
1820.485	0.822	821.6	2back	Block3	2back/STIM_038.jpg	100
1823.942	0.638	638.4	2back	Block3	2back/STIM_039.jpg	99
1828.173	0.853	852.6	2back	Block3	2back/STIM_039.jpg	100
1831.749	0.512	511.9	2back	Block3	2back/STIM_039.jpg	100
1835.166	0.43	430.5	0back	Block3	0back/STIM_000.jpg	99
1838.38	0.665	664.7	0back	Block3	0back/STIM_000.jpg	100
1841.049	0.695	694.6	0back	Block3	0back/STIM_000.jpg	99
1843.986	0.333	332.9	0back	Block3	0back/STIM_001.jpg	100
1847.302	0.751	751.3	0back	Block3	0back/STIM_001.jpg	99
1850.879	0.352	352.5	0back	Block3	0back/STIM_001.jpg	99
1853.79	0.488	487.9	0back	Block3	0back/STIM_002.jpg	100
1858.055	0.478	478.2	0back	Block3	0back/STIM_002.jpg	100
1861.384	0.691	691.4	0back	Block3	0back/STIM_002.jpg	100
1864.85	0.53	530.0	0back	Block3	0back/STIM_003.jpg	100
1868.932	0.434	434.0	0back	Block3	0back/STIM_003.jpg	100
1871.879	0.433	433.4	0back	Block3	0back/STIM_003.jpg	100
1876.32	0.676	676.3	0back	Block3	0back/STIM_004.jpg	100
1880.441	0.498	498.3	0back	Block3	0back/STIM_004.jpg	100
1883.082	0.518	517.7	0back	Block3	0back/STIM_004.jpg	99
1887.441	0.518	518.2	0back	Block3	0back/STIM_005.jpg	99
1891.748	0.711	711.2	0back	Block3	0back/STIM_005.jpg	99
1896.44	0.682	682.1	0back	Block3	0back/STIM_005.jpg	100
1899.704	0.736	735.6	0back	Block3	0back/STIM_006.jpg	100
1902.838	0.712	711.5	0back	Block3	0back/STIM_006.jpg	99
1906.332	0.571	571.1	0back	Block3	0back/STIM_006.jpg	99
1910.874	0.452	451.7	0back	Block3	0back/STIM_007.jpg	100
1914.64	0.442	442.4	0back	Block3	0back/STIM_007.jpg	99
1918.809	0.482	481.9	0back	Block3	0back/STIM_007.jpg	99
1923.064	0.428	428.4	0back	Block3	0back/STIM_008.jpg	100
1926.034	0.686	685.7	0back	Block3	0back/STIM_008.jpg	99
1929.447	0.61	609.9	0back	Block3	0back/STIM_008.jpg	100
1932.308	0.801	801.4	0back	Block3	0back/STIM_009.jpg	100
1935.16	0.78	779.8	0back	Block3	0back/STIM_009.jpg	100
1939.451	0.46	459.6	0back	Block3	0back/STIM_009.jpg	99
1943.497	0.636	636.5	0back	Block3	0back/STIM_010.jpg	100
1947.338	0.816	815.9	0back	Block3	0back/STIM_010.jpg	99
1950.402	0.355	354.9	0back	Block3	0back/STIM_010.jpg	100
1953.12	0.704	703.9	0back	Block3	0back/STIM_011.jpg	100
1957.051	0.715	715.2	0back	Block3	0back/STIM_011.jpg	99
1961.219	0.492	491.7	0back	Block3	0back/STIM_011.jpg	99
1965.363	0.483	483.2	0back	Block3	0back/STIM_012.jpg	100
1968.432	0.623	622.7	0back	Block3	0back/STIM_012.jpg	99
1972.767	0.641	640.7	0back	Block3	0back/STIM_012.jpg	99
1976.089	0.439	439.1	0back	Block3	0back/STIM_013.jpg	100
1979.992	0.767	767.2	0back	Block3	0back/STIM_013.jpg	100
1984.292	0.581	581.2	0back	Block3	0back/STIM_013.jpg	99
1988.547	0.312	311.9	0back	Block3	0back/STIM_014.jpg	99
1992.758	0.462	462.2	0back	Block3	0back/STIM_014.jpg	100
1995.915	0.458	457.8	0back	Block3	0back/STIM_014.jpg	100
1998.341	0.717	717.3	0back	Block3	0back/STIM_015.jpg	100
2001.219	0.791	791.2	0back	Block3	0back/STIM_015.jpg	100
2004.784	0.718	718.0	0back	Block3	0back/STIM_015.jpg	100
2008.822	0.381	380.9	0back	Block3	0back/STIM_016.jpg	100
2013.121	0.542	541.7	0back	Block3	0back/STIM_016.jpg	99
2016.513	0.5	499.7	0back	Block3	0back/STIM_016.jpg	100
2019.966	0.631	631.2	0back	Block3	0back/STIM_017.jpg	100
2023.19	0.603	603.3	0back	Block3	0back/STIM_017.jpg	100
2026.13	0.494	494.1	0back	Block3	0back/STIM_017.jpg	100
2030.084	0.612	611.9	0back	Block3	0back/STIM_018.jpg	100
2032.986	0.648	647.8	0back	Block3	0back/STIM_018.jpg	100
2037.372	0.394	394.1	0back	Block3	0back/STIM_018.jpg	99
2041.113	0.558	557.9	0back	Block3	0back/STIM_019.jpg	100
2043.894	0.557	557.1	0back	Block3	0back/STIM_019.jpg	99
2047.087	0.689	689.3	0back	Block3	0back/STIM_019.jpg	100
2049.679	0.506	505.7	2back	Block4	2back/STIM_000.jpg	99
2054.014	0.662	662.1	2back	Block4	2back/STIM_000.jpg	99
2058.335	0.598	598.1	2back	Block4	2back/STIM_000.jpg	99
2061.62	0.86	859.5	2back	Block4	2back/STIM_001.jpg	100
2065.163	0.817	817.1	2back	Block4	2back/STIM_001.jpg	99
2069.554	0.848	847.8	2back	Block4	2back/STIM_001.jpg	99
2072.699	0.718	717.6	2back	Block4	2back/STIM_002.jpg	99
2076.301	0.743	743.1	2back	Block4	2back/STIM_002.jpg	99
2079.573	0.682	682.3	2back	Block4	2back/STIM_002.jpg	100
2083.54	0.611	610.8	2back	Block4	2back/STIM_003.jpg	100
2087.194	0.872	871.6	2back	Block4	2back/STIM_003.jpg	99
2091.65	0.616	616.2	2back	Block4	2back/STIM_003.jpg	99
2094.79	0.458	458.1	2back	Block4	2back/STIM_004.jpg	100
2097.508	0.737	736.7	2back	Block4	2back/STIM_004.jpg	100
2101.936	0.492	491.6	2back	Block4	2back/STIM_004.jpg	99
2106.506	0.508	508.3	2back	Block4	2back/STIM_005.jpg	99
2109.981	0.843	843.1	2back	Block4	2back/STIM_005.jpg	100
2113.649	0.597	597.0	2back	Block4	2back/STIM_005.jpg	100
2118.243	0.617	617.1	2back	Block4	2back/STIM_006.jpg	100
2120.897	0.525	525.0	2back	Block4	2back/STIM_006.jpg	100
2124.032	0.528	527.7	2back	Block4	2back/STIM_006.jpg	100
2127.395	0.489	488.9	2back	Block4	2back/STIM_007.jpg	99
2130.671	0.615	614.7	2back	Block4	2back/STIM_007.jpg	99
2133.398	0.896	895.8	2back	Block4	2back/STIM_007.jpg	99
2137.855	0.794	794.2	2back	Block4	2back/STIM_008.jpg	100
2141.679	0.691	690.6	2back	Block4	2back/STIM_008.jpg	100
2145.949	0.574	573.6	2back	Block4	2back/STIM_008.jpg	100
2150.449	0.87	870.0	2back	Block4	2back/STIM_009.jpg	100
2155.251	0.909	909.2	2back	Block4	2back/STIM_009.jpg	99
2160.069	0.472	471.8	2back	Block4	2back/STIM_009.jpg	99
2163.78	0.88	880.4	2back	Block4	2back/STIM_010.jpg	100
2168.515	0.915	914.8	2back	Block4	2back/STIM_010.jpg	99
2172.478	0.528	527.8	2back	Block4	2back/STIM_010.jpg	100
2175.956	0.642	642.2	2back	Block4	2back/STIM_011.jpg	99
2178.667	0.524	523.9	2back	Block4	2back/STIM_011.jpg	99
2182.357	0.462	461.9	2back	Block4	2back/STIM_011.jpg	100
2186.627	0.641	641.1	2back	Block4	2back/STIM_012.jpg	99
2191.257	0.836	836.1	2back	Block4	2back/STIM_012.jpg	100
2195.089	0.548	548.3	2back	Block4	2back/STIM_012.jpg	99
2199.237	0.63	630.1	2back	Block4	2back/STIM_013.jpg	99
2202.888	0.618	618.5	2back	Block4	2back/STIM_013.jpg	99
2206.25	0.337	337.3	2back	Block4	2back/STIM_013.jpg	99
2209.66	0.497	496.6	2back	Block4	2back/STIM_014.jpg	99
2213.068	0.519	518.8	2back	Block4	2back/STIM_014.jpg	100
2215.803	0.567	567.2	2back	Block4	2back/STIM_014.jpg	99
2219.02	0.903	903.1	2back	Block4	2back/STIM_015.jpg	99
2222.785	0.879	878.8	2back	Block4	2back/STIM_015.jpg	100
2226.826	0.927	926.7	2back	Block4	2back/STIM_015.jpg	99
2231.589	0.484	483.7	2back	Block4	2back/STIM_016.jpg	100
2235.544	0.704	704.2	2back	Block4	2back/STIM_016.jpg	100
2239.96	0.526	525.7	2back	Block4	2back/STIM_016.jpg	99
2244.214	0.601	601.3	2back	Block4	2back/STIM_017.jpg	100
2247.271	0.47	470.0	2back	Block4	2back/STIM_017.jpg	100
2251.471	0.778	777.6	2back	Block4	2back/STIM_017.jpg	99
2255.377	0.934	934.5	2back	Block4	2back/STIM_018.jpg	100
2259.692	0.836	835.5	2back	Block4	2back/STIM_018.jpg	99
2264.057	0.637	637.2	2back	Block4	2back/STIM_018.jpg	99
2267.615	0.676	676.0	2back	Block4	2back/STIM_019.jpg	100
2270.855	0.534	533.8	2back	Block4	2back/STIM_019.jpg	100
2274.83	0.647	646.7	2back	Block4	2back/STIM_019.jpg	100
2278.529	0.795	795.2	2back	Block4	2back/STIM_020.jpg	99
2282.294	0.42	420.0	2back	Block4	2back/STIM_020.jpg	99
2284.909	0.495	495.4	2back	Block4	2back/STIM_020.jpg	100
2289.045	0.674	674.2	2back	Block4	2back/STIM_021.jpg	99
2292.661	0.826	826.3	2back	Block4	2back/STIM_021.jpg	99
2297.322	0.568	567.8	2back	Block4	2back/STIM_021.jpg	99
2300.744	0.484	483.7	2back	Block4	2back/STIM_022.jpg	99
2304.379	0.863	862.7	2back	Block4	2back/STIM_022.jpg	99
2308.385	0.773	773.0	2back	Block4	2back/STIM_022.jpg	100
2312.121	0.765	765.1	2back	Block4	2back/STIM_023.jpg	99
2315.292	0.649	649.3	2back	Block4	2back/STIM_023.jpg	99
2318.188	0.542	542.2	2back	Block4	2back/STIM_023.jpg	99
2320.982	0.917	916.8	2back	Block4	2back/STIM_024.jpg	100
2325.211	0.487	486.6	2back	Block4	2back/STIM_024.jpg	100
2328.426	0.661	660.6	2back	Block4	2back/STIM_024.jpg	100
2332.63	0.831	830.6	2back	Block4	2back/STIM_025.jpg	99
2337.298	0.694	694.1	2back	Block4	2back/STIM_025.jpg	100
2341.997	0.83	829.7	2back	Block4	2back/STIM_025.jpg	100
2345.104	0.6	599.8	2back	Block4	2back/STIM_026.jpg	100
2349.764	0.797	797.4	2back	Block4	2back/STIM_026.jpg	100
2352.871	0.8	799.7	2back	Block4	2back/STIM_026.jpg	99
2357.487	0.741	741.1	2back	Block4	2back/STIM_027.jpg	99
2360.852	0.741	740.6	2back	Block4	2back/STIM_027.jpg	99
2364.761	0.39	390.4	2back	Block4	2back/STIM_027.jpg	100
2367.953	0.646	646.4	2back	Block4	2back/STIM_028.jpg	100
2371.285	0.616	615.8	2back	Block4	2back/STIM_028.jpg	99
2374.827	0.916	916.1	2back	Block4	2back/STIM_028.jpg	99
2379.079	0.654	654.0	2back	Block4	2back/STIM_029.jpg	99
2382.769	0.584	584.5	2back	Block4	2back/STIM_029.jpg	99
2385.368	0.684	684.0	2back	Block4	2back/STIM_029.jpg	99
2389.435	0.544	543.8	2back	Block4	2back/STIM_030.jpg	100
2391.982	0.507	507.2	2back	Block4	2back/STIM_030.jpg	99
2395.28	0.437	436.9	2back	Block4	2back/STIM_030.jpg	100
2398.501	0.671	671.2	2back	Block4	2back/STIM_031.jpg	99
2401.698	0.821	821.0	2back	Block4	2back/STIM_031.jpg	99
2405.18	0.534	533.7	2back	Block4	2back/STIM_031.jpg	100
2408.693	0.66	660.3	2back	Block4	2back/STIM_032.jpg	99
2412.288	0.95	950.4	2back	Block4	2back/STIM_032.jpg	100
2416.019	0.739	738.8	2back	Block4	2back/STIM_032.jpg	99
2419.808	0.594	593.6	2back	Block4	2back/STIM_033.jpg	99
2422.725	0.925	924.6	2back	Block4	2back/STIM_033.jpg	99
2426.779	1.019	1019.1	2back	Block4	2back/STIM_033.jpg	100
2430.931	0.649	649.2	2back	Block4	2back/STIM_034.jpg	100
2434.772	0.865	864.7	2back	Block4	2back/STIM_034.jpg	100
2438.743	0.842	842.4	2back	Block4	2back/STIM_034.jpg	99
2442.496	0.83	830.2	2back	Block4	2back/STIM_035.jpg	99
2446.912	0.761	760.7	2back	Block4	2back/STIM_035.jpg	99
2449.773	0.438	437.9	2back	Block4	2back/STIM_035.jpg	100
2453.979	0.642	642.1	2back	Block4	2back/STIM_036.jpg	99
2458.569	0.587	587.1	2back	Block4	2back/STIM_036.jpg	99
2462.637	0.602	601.7	2back	Block4	2back/STIM_036.jpg	99
2466.652	0.72	720.0	2back	Block4	2back/STIM_037.jpg	99
2469.538	0.727	727.2	2back	Block4	2back/STIM_037.jpg	99
2473.326	0.436	436.1	2back	Block4	2back/STIM_037.jpg	100
2477.287	0.752	752.4	2back	Block4	2back/STIM_038.jpg	100
2481.265	0.478	478.5	2back	Block4	2back/STIM_038.jpg	99
2485.723	0.553	553.2	2back	Block4	2back/STIM_038.jpg	100
2488.763	0.515	515.1	2back	Block4	2back/STIM_039.jpg	99
2493.204	0.942	941.9	2back	Block4	2back/STIM_039.jpg	100
2496.158	0.804	803.7	2back	Block4	2back/STIM_039.jpg	99
2500.63	0.638	637.7	0back	Block4	0back/STIM_000.jpg	100
2504.391	0.764	763.8	0back	Block4	0back/STIM_000.jpg	100
2508.722	0.424	423.9	0back	Block4	0back/STIM_000.jpg	99
2512.17	0.678	677.7	0back	Block4	0back/STIM_001.jpg	99
2515.404	0.613	613.4	0back	Block4	0back/STIM_001.jpg	99
2519.202	0.59	590.4	0back	Block4	0back/STIM_001.jpg	100
2523.275	0.604	603.6	0back	Block4	0back/STIM_002.jpg	99
2527.46	0.675	675.1	0back	Block4	0back/STIM_002.jpg	99
2530.599	0.509	508.9	0back	Block4	0back/STIM_002.jpg	100
2533.536	0.716	716.0	0back	Block4	0back/STIM_003.jpg	99
2537.402	0.498	498.5	0back	Block4	0back/STIM_003.jpg	100
2541.603	0.755	755.2	0back	Block4	0back/STIM_003.jpg	100
2545.594	0.42	420.2	0back	Block4	0back/STIM_004.jpg	100
2548.855	0.687	687.3	0back	Block4	0back/STIM_004.jpg	99
2552.23	0.415	415.3	0back	Block4	0back/STIM_004.jpg	100
2556.146	0.597	597.0	0back	Block4	0back/STIM_005.jpg	100
2559.262	0.603	602.8	0back	Block4	0back/STIM_005.jpg	99
2562.4	0.716	715.5	0back	Block4	0back/STIM_005.jpg	99
2566.863	0.762	761.5	0back	Block4	0back/STIM_006.jpg	99
2570.007	0.608	607.8	0back	Block4	0back/STIM_006.jpg	100
2573.048	0.496	496.4	0back	Block4	0back/STIM_006.jpg	99
2577.158	0.645	644.6	0back	Block4	0back/STIM_007.jpg	99
2579.935	0.551	550.8	0back	Block4	0back/STIM_007.jpg	99
2582.777	0.624	623.8	0back	Block4	0back/STIM_007.jpg	100
2586.413	0.736	736.2	0back	Block4	0back/STIM_008.jpg	99
2590.217	0.575	575.1	0back	Block4	0back/STIM_008.jpg	100
2592.793	0.371	370.9	0back	Block4	0back/STIM_008.jpg	100
2597.041	0.465	464.8	0back	Block4	0back/STIM_009.jpg	99
2600.134	0.403	402.9	0back	Block4	0back/STIM_009.jpg	100
2603.229	0.473	473.1	0back	Block4	0back/STIM_009.jpg	99
2606.553	0.451	450.9	0back	Block4	0back/STIM_010.jpg	99
2609.249	0.564	563.7	0back	Block4	0back/STIM_010.jpg	99
2612.168	0.596	596.2	0back	Block4	0back/STIM_010.jpg	100
2614.941	0.54	540.4	0back	Block4	0back/STIM_011.jpg	99
2618.418	0.415	414.9	0back	Block4	0back/STIM_011.jpg	99
2621.741	0.609	609.3	0back	Block4	0back/STIM_011.jpg	99
2625.245	0.672	672.4	0back	Block4	0back/STIM_012.jpg	100
2628.097	0.768	767.8	0back	Block4	0back/STIM_012.jpg	99
2632.413	0.465	465.3	0back	Block4	0back/STIM_012.jpg	99
2636.5	0.74	739.6	0back	Block4	0back/STIM_013.jpg	100
2641.132	0.772	772.2	0back	Block4	0back/STIM_013.jpg	99
2644.349	0.628	628.4	0back	Block4	0back/STIM_013.jpg	99
2648.752	0.657	657.0	0back	Block4	0back/STIM_014.jpg	100
2652.773	0.453	453.3	0back	Block4	0back/STIM_014.jpg	99
2656.645	0.489	489.0	0back	Block4	0back/STIM_014.jpg	100
2660.733	0.492	492.5	0back	Block4	0back/STIM_015.jpg	99
2664.012	0.343	342.9	0back	Block4	0back/STIM_015.jpg	99
2667.537	0.397	397.0	0back	Block4	0back/STIM_015.jpg	99
2671.279	0.484	484.1	0back	Block4	0back/STIM_016.jpg	100
2674.744	0.698	697.6	0back	Block4	0back/STIM_016.jpg	100
2677.737	0.375	374.6	0back	Block4	0back/STIM_016.jpg	99
2680.733	0.646	646.2	0back	Block4	0back/STIM_017.jpg	99
2683.902	0.717	716.7	0back	Block4	0back/STIM_017.jpg	99
2688.506	0.756	755.5	0back	Block4	0back/STIM_017.jpg	100
2693.11	0.413	413.4	0back	Block4	0back/STIM_018.jpg	99
2696.392	0.424	424.1	0back	Block4	0back/STIM_018.jpg	100
2700.016	0.514	513.6	0back	Block4	0back/STIM_018.jpg	100
2703.213	0.436	436.4	0back	Block4	0back/STIM_019.jpg	99
2707.619	0.763	763.3	0back	Block4	0back/STIM_019.jpg	100
2710.712	0.538	538.5	0back	Block4	0back/STIM_019.jpg	99
