onset	duration	accuracy	trial_type	learning_stage	stimulus
0.0	1.337	correct	2back	Block1	2back/STIM_000.jpg
3.753	1.027	correct	2back	Block1	2back/STIM_000.jpg
6.908	1.004	correct	2back	Block1	2back/STIM_000.jpg
11.253	1.299	correct	2back	Block1	2back/STIM_001.jpg
14.621	0.956	correct	2back	Block1	2back/STIM_001.jpg
18.031	0.631	correct	2back	Block1	2back/STIM_001.jpg
22.587	0.655	correct	2back	Block1	2back/STIM_002.jpg
25.652	1.054	incorrect	2back	Block1	2back/STIM_002.jpg
29.649	0.712	correct	2back	Block1	2back/STIM_002.jpg
34.327	0.675	correct	2back	Block1	2back/STIM_003.jpg
37.665	1.195	correct	2back	Block1	2back/STIM_003.jpg
41.76	0.58	correct	2back	Block1	2back/STIM_003.jpg
44.826	1.14	correct	2back	Block1	2back/STIM_004.jpg
48.038	0.719	correct	2back	Block1	2back/STIM_004.jpg
52.549	1.116	correct	2back	Block1	2back/STIM_004.jpg
57.39	0.844	correct	2back	Block1	2back/STIM_005.jpg
60.451	0.705	correct	2back	Block1	2back/STIM_005.jpg
64.605	0.642	incorrect	2back	Block1	2back/STIM_005.jpg
67.432	0.79	correct	2back	Block1	2back/STIM_006.jpg
72.099	0.592	incorrect	2back	Block1	2back/STIM_006.jpg
76.676	0.584	correct	2back	Block1	2back/STIM_006.jpg
80.65	1.065	correct	2back	Block1	2back/STIM_007.jpg
84.731	1.13	incorrect	2back	Block1	2back/STIM_007.jpg
88.86	0.951	correct	2back	Block1	2back/STIM_007.jpg
92.092	0.618	correct	2back	Block1	2back/STIM_008.jpg
95.037	0.522	correct	2back	Block1	2back/STIM_008.jpg
98.765	0.583	correct	2back	Block1	2back/STIM_008.jpg
102.556	0.709	correct	2back	Block1	2back/STIM_009.jpg
105.397	1.269	correct	2back	Block1	2back/STIM_009.jpg
109.738	1.215	correct	2back	Block1	2back/STIM_009.jpg
114.952	0.9	correct	2back	Block1	2back/STIM_010.jpg
118.418	1.232	correct	2back	Block1	2back/STIM_010.jpg
122.766	0.689	correct	2back	Block1	2back/STIM_010.jpg
127.283	1.082	correct	2back	Block1	2back/STIM_011.jpg
132.16	1.18	incorrect	2back	Block1	2back/STIM_011.jpg
136.151	1.165	incorrect	2back	Block1	2back/STIM_011.jpg
139.604	0.733	correct	2back	Block1	2back/STIM_012.jpg
143.372	1.106	correct	2back	Block1	2back/STIM_012.jpg
147.112	0.576	correct	2back	Block1	2back/STIM_012.jpg
149.893	1.281	correct	2back	Block1	2back/STIM_013.jpg
154.119	0.865	correct	2back	Block1	2back/STIM_013.jpg
157.991	0.794	correct	2back	Block1	2back/STIM_013.jpg
162.718	1.196	correct	2back	Block1	2back/STIM_014.jpg
167.293	1.076	correct	2back	Block1	2back/STIM_014.jpg
170.843	0.538	correct	2back	Block1	2back/STIM_014.jpg
173.47	1.005	correct	2back	Block1	2back/STIM_015.jpg
176.86	0.994	correct	2back	Block1	2back/STIM_015.jpg
180.354	0.866	correct	2back	Block1	2back/STIM_015.jpg
183.927	0.872	correct	2back	Block1	2back/STIM_016.jpg
188.153	1.078	correct	2back	Block1	2back/STIM_016.jpg
192.722	0.697	correct	2back	Block1	2back/STIM_016.jpg
197.296	1.223	correct	2back	Block1	2back/STIM_017.jpg
201.981	1.21	incorrect	2back	Block1	2back/STIM_017.jpg
207.033	1.007	correct	2back	Block1	2back/STIM_017.jpg
210.272	0.617	incorrect	2back	Block1	2back/STIM_018.jpg
213.028	1.152	correct	2back	Block1	2back/STIM_018.jpg
216.613	1.064	correct	2back	Block1	2back/STIM_018.jpg
221.208	0.908	correct	2back	Block1	2back/STIM_019.jpg
224.303	0.66	correct	2back	Block1	2back/STIM_019.jpg
228.83	0.798	correct	2back	Block1	2back/STIM_019.jpg
233.238	1.126	correct	2back	Block1	2back/STIM_020.jpg
238.195	0.798	correct	2back	Block1	2back/STIM_020.jpg
242.697	0.708	correct	2back	Block1	2back/STIM_020.jpg
247.215	0.96	correct	2back	Block1	2back/STIM_021.jpg
251.37	0.847	correct	2back	Block1	2back/STIM_021.jpg
254.378	1.027	correct	2back	Block1	2back/STIM_021.jpg
259.128	0.945	correct	2back	Block1	2back/STIM_022.jpg
262.2	0.944	correct	2back	Block1	2back/STIM_022.jpg
266.658	1.046	correct	2back	Block1	2back/STIM_022.jpg
271.073	0.856	correct	2back	Block1	2back/STIM_023.jpg
275.308	0.726	correct	2back	Block1	2back/STIM_023.jpg
279.755	0.952	correct	2back	Block1	2back/STIM_023.jpg
282.864	0.796	correct	2back	Block1	2back/STIM_024.jpg
286.242	1.227	correct	2back	Block1	2back/STIM_024.jpg
290.736	0.979	correct	2back	Block1	2back/STIM_024.jpg
295.284	0.623	correct	2back	Block1	2back/STIM_025.jpg
298.213	0.522	correct	2back	Block1	2back/STIM_025.jpg
302.396	0.984	correct	2back	Block1	2back/STIM_025.jpg
306.269	1.276	correct	2back	Block1	2back/STIM_026.jpg
310.2	0.836	correct	2back	Block1	2back/STIM_026.jpg
313.71	0.503	correct	2back	Block1	2back/STIM_026.jpg
316.49	1.151	correct	2back	Block1	2back/STIM_027.jpg
320.018	0.901	correct	2back	Block1	2back/STIM_027.jpg
323.971	1.037	correct	2back	Block1	2back/STIM_027.jpg
328.807	1.144	correct	2back	Block1	2back/STIM_028.jpg
332.551	0.735	correct	2back	Block1	2back/STIM_028.jpg
336.76	0.884	correct	2back	Block1	2back/STIM_028.jpg
341.021	1.281	correct	2back	Block1	2back/STIM_029.jpg
344.56	0.822	correct	2back	Block1	2back/STIM_029.jpg
348.034	0.989	correct	2back	Block1	2back/STIM_029.jpg
352.333	0.719	correct	2back	Block1	2back/STIM_030.jpg
356.555	0.546	correct	2back	Block1	2back/STIM_030.jpg
360.781	0.954	correct	2back	Block1	2back/STIM_030.jpg
364.269	0.723	correct	2back	Block1	2back/STIM_031.jpg
367.709	0.492	correct	2back	Block1	2back/STIM_031.jpg
370.765	0.582	correct	2back	Block1	2back/STIM_031.jpg
373.61	1.105	correct	2back	Block1	2back/STIM_032.jpg
376.87	1.069	correct	2back	Block1	2back/STIM_032.jpg
380.46	0.543	correct	2back	Block1	2back/STIM_032.jpg
384.855	1.206	correct	2back	Block1	2back/STIM_033.jpg
388.173	0.8	correct	2back	Block1	2back/STIM_033.jpg
392.551	0.712	correct	2back	Block1	2back/STIM_033.jpg
395.696	1.017	correct	2back	Block1	2back/STIM_034.jpg
399.36	1.06	correct	2back	Block1	2back/STIM_034.jpg
403.619	0.885	incorrect	2back	Block1	2back/STIM_034.jpg
407.991	0.944	incorrect	2back	Block1	2back/STIM_035.jpg
412.231	0.988	correct	2back	Block1	2back/STIM_035.jpg
416.405	1.081	correct	2back	Block1	2back/STIM_035.jpg
421.151	0.936	correct	2back	Block1	2back/STIM_036.jpg
424.863	0.887	correct	2back	Block1	2back/STIM_036.jpg
429.676	0.746	correct	2back	Block1	2back/STIM_036.jpg
432.422	0.892	correct	2back	Block1	2back/STIM_037.jpg
436.083	1.163	correct	2back	Block1	2back/STIM_037.jpg
440.256	0.751	correct	2back	Block1	2back/STIM_037.jpg
443.501	0.923	correct	2back	Block1	2back/STIM_038.jpg
448.265	0.986	incorrect	2back	Block1	2back/STIM_038.jpg
452.947	0.81	correct	2back	Block1	2back/STIM_038.jpg
456.363	1.244	correct	2back	Block1	2back/STIM_039.jpg
460.679	1.004	correct	2back	Block1	2back/STIM_039.jpg
464.98	1.093	correct	2back	Block1	2back/STIM_039.jpg
470.06	0.634	correct	0back	Block1	0back/STIM_000.jpg
473.999	0.594	correct	0back	Block1	0back/STIM_000.jpg
478.313	0.357	correct	0back	Block1	0back/STIM_000.jpg
482.301	0.621	correct	0back	Block1	0back/STIM_001.jpg
486.284	0.643	correct	0back	Block1	0back/STIM_001.jpg
490.008	0.522	correct	0back	Block1	0back/STIM_001.jpg
493.756	0.428	correct	0back	Block1	0back/STIM_002.jpg
498.21	0.514	correct	0back	Block1	0back/STIM_002.jpg
502.638	0.566	incorrect	0back	Block1	0back/STIM_002.jpg
506.09	0.64	correct	0back	Block1	0back/STIM_003.jpg
508.835	0.443	correct	0back	Block1	0back/STIM_003.jpg
512.714	0.645	correct	0back	Block1	0back/STIM_003.jpg
516.351	0.357	correct	0back	Block1	0back/STIM_004.jpg
520.239	0.299	correct	0back	Block1	0back/STIM_004.jpg
523.469	0.431	correct	0back	Block1	0back/STIM_004.jpg
526.561	0.397	correct	0back	Block1	0back/STIM_005.jpg
530.167	0.706	correct	0back	Block1	0back/STIM_005.jpg
533.694	0.512	correct	0back	Block1	0back/STIM_005.jpg
537.663	0.749	correct	0back	Block1	0back/STIM_006.jpg
540.951	0.758	correct	0back	Block1	0back/STIM_006.jpg
544.88	0.627	correct	0back	Block1	0back/STIM_006.jpg
548.475	0.665	correct	0back	Block1	0back/STIM_007.jpg
552.916	0.656	correct	0back	Block1	0back/STIM_007.jpg
556.878	0.415	correct	0back	Block1	0back/STIM_007.jpg
560.648	0.682	correct	0back	Block1	0back/STIM_008.jpg
565.057	0.604	correct	0back	Block1	0back/STIM_008.jpg
569.321	0.614	correct	0back	Block1	0back/STIM_008.jpg
573.303	0.586	correct	0back	Block1	0back/STIM_009.jpg
577.063	0.68	correct	0back	Block1	0back/STIM_009.jpg
580.341	0.718	correct	0back	Block1	0back/STIM_009.jpg
584.604	0.666	correct	0back	Block1	0back/STIM_010.jpg
589.124	0.706	incorrect	0back	Block1	0back/STIM_010.jpg
592.209	0.677	correct	0back	Block1	0back/STIM_010.jpg
596.279	0.493	correct	0back	Block1	0back/STIM_011.jpg
600.13	0.531	correct	0back	Block1	0back/STIM_011.jpg
604.649	0.465	correct	0back	Block1	0back/STIM_011.jpg
609.117	0.692	correct	0back	Block1	0back/STIM_012.jpg
612.967	0.436	incorrect	0back	Block1	0back/STIM_012.jpg
615.432	0.651	correct	0back	Block1	0back/STIM_012.jpg
619.316	0.668	correct	0back	Block1	0back/STIM_013.jpg
623.525	0.706	correct	0back	Block1	0back/STIM_013.jpg
626.521	0.377	correct	0back	Block1	0back/STIM_013.jpg
630.864	0.573	correct	0back	Block1	0back/STIM_014.jpg
634.319	0.605	correct	0back	Block1	0back/STIM_014.jpg
638.05	0.601	correct	0back	Block1	0back/STIM_014.jpg
642.605	0.695	correct	0back	Block1	0back/STIM_015.jpg
646.49	0.478	correct	0back	Block1	0back/STIM_015.jpg
649.505	0.573	correct	0back	Block1	0back/STIM_015.jpg
653.945	0.687	correct	0back	Block1	0back/STIM_016.jpg
656.751	0.666	correct	0back	Block1	0back/STIM_016.jpg
660.972	0.704	correct	0back	Block1	0back/STIM_016.jpg
665.423	0.589	correct	0back	Block1	0back/STIM_017.jpg
668.496	0.767	correct	0back	Block1	0back/STIM_017.jpg
672.018	0.496	correct	0back	Block1	0back/STIM_017.jpg
675.239	0.41	correct	0back	Block1	0back/STIM_018.jpg
678.919	0.437	correct	0back	Block1	0back/STIM_018.jpg
682.719	0.766	correct	0back	Block1	0back/STIM_018.jpg
686.804	0.599	correct	0back	Block1	0back/STIM_019.jpg
690.395	0.581	correct	0back	Block1	0back/STIM_019.jpg
694.585	0.678	correct	0back	Block1	0back/STIM_019.jpg
698.295	0.44	correct	2back	Block2	2back/STIM_000.jpg
701.317	1.125	correct	2back	Block2	2back/STIM_000.jpg
705.315	0.766	correct	2back	Block2	2back/STIM_000.jpg
708.711	0.561	incorrect	2back	Block2	2back/STIM_001.jpg
712.229	0.995	correct	2back	Block2	2back/STIM_001.jpg
715.596	0.523	correct	2back	Block2	2back/STIM_001.jpg
719.119	0.674	correct	2back	Block2	2back/STIM_002.jpg
721.937	1.029	correct	2back	Block2	2back/STIM_002.jpg
726.327	0.713	correct	2back	Block2	2back/STIM_002.jpg
729.544	1.054	correct	2back	Block2	2back/STIM_003.jpg
733.809	0.466	correct	2back	Block2	2back/STIM_003.jpg
736.731	0.452	correct	2back	Block2	2back/STIM_003.jpg
740.867	0.804	correct	2back	Block2	2back/STIM_004.jpg
744.14	0.646	correct	2back	Block2	2back/STIM_004.jpg
748.647	0.658	correct	2back	Block2	2back/STIM_004.jpg
753.038	0.768	correct	2back	Block2	2back/STIM_005.jpg
756.292	0.573	correct	2back	Block2	2back/STIM_005.jpg
759.506	0.553	correct	2back	Block2	2back/STIM_005.jpg
763.918	0.465	incorrect	2back	Block2	2back/STIM_006.jpg
767.646	0.558	correct	2back	Block2	2back/STIM_006.jpg
770.786	0.934	correct	2back	Block2	2back/STIM_006.jpg
774.264	0.592	incorrect	2back	Block2	2back/STIM_007.jpg
778.29	1.062	correct	2back	Block2	2back/STIM_007.jpg
781.927	0.659	correct	2back	Block2	2back/STIM_007.jpg
785.791	0.782	incorrect	2back	Block2	2back/STIM_008.jpg
788.98	0.682	correct	2back	Block2	2back/STIM_008.jpg
792.311	0.579	correct	2back	Block2	2back/STIM_008.jpg
795.895	0.813	correct	2back	Block2	2back/STIM_009.jpg
799.508	0.822	correct	2back	Block2	2back/STIM_009.jpg
802.953	0.895	correct	2back	Block2	2back/STIM_009.jpg
806.582	0.892	correct	2back	Block2	2back/STIM_010.jpg
811.409	0.483	correct	2back	Block2	2back/STIM_010.jpg
815.921	0.505	correct	2back	Block2	2back/STIM_010.jpg
820.094	0.848	correct	2back	Block2	2back/STIM_011.jpg
823.833	0.993	correct	2back	Block2	2back/STIM_011.jpg
828.723	0.482	correct	2back	Block2	2back/STIM_011.jpg
831.429	0.784	correct	2back	Block2	2back/STIM_012.jpg
835.917	0.516	correct	2back	Block2	2back/STIM_012.jpg
838.862	0.878	correct	2back	Block2	2back/STIM_012.jpg
842.428	0.856	incorrect	2back	Block2	2back/STIM_013.jpg
847.053	0.93	incorrect	2back	Block2	2back/STIM_013.jpg
850.732	0.564	correct	2back	Block2	2back/STIM_013.jpg
854.093	0.448	correct	2back	Block2	2back/STIM_014.jpg
858.155	0.962	correct	2back	Block2	2back/STIM_014.jpg
861.788	0.97	correct	2back	Block2	2back/STIM_014.jpg
865.617	0.72	correct	2back	Block2	2back/STIM_015.jpg
869.709	0.479	incorrect	2back	Block2	2back/STIM_015.jpg
874.01	0.738	incorrect	2back	Block2	2back/STIM_015.jpg
876.926	0.9	correct	2back	Block2	2back/STIM_016.jpg
880.443	0.534	correct	2back	Block2	2back/STIM_016.jpg
884.716	1.008	correct	2back	Block2	2back/STIM_016.jpg
888.992	0.583	correct	2back	Block2	2back/STIM_017.jpg
892.847	0.557	correct	2back	Block2	2back/STIM_017.jpg
897.366	0.598	correct	2back	Block2	2back/STIM_017.jpg
901.936	1.013	correct	2back	Block2	2back/STIM_018.jpg
906.411	0.793	correct	2back	Block2	2back/STIM_018.jpg
910.52	0.739	correct	2back	Block2	2back/STIM_018.jpg
914.257	1.152	correct	2back	Block2	2back/STIM_019.jpg
918.06	0.554	correct	2back	Block2	2back/STIM_019.jpg
921.741	0.777	correct	2back	Block2	2back/STIM_019.jpg
925.039	0.993	correct	2back	Block2	2back/STIM_020.jpg
928.232	0.995	correct	2back	Block2	2back/STIM_020.jpg
932.577	0.55	correct	2back	Block2	2back/STIM_020.jpg
936.64	0.736	correct	2back	Block2	2back/STIM_021.jpg
940.274	0.888	correct	2back	Block2	2back/STIM_021.jpg
943.224	0.803	correct	2back	Block2	2back/STIM_021.jpg
947.455	0.952	correct	2back	Block2	2back/STIM_022.jpg
952.508	0.818	correct	2back	Block2	2back/STIM_022.jpg
956.22	0.579	correct	2back	Block2	2back/STIM_022.jpg
959.566	1.111	incorrect	2back	Block2	2back/STIM_023.jpg
964.515	0.91	correct	2back	Block2	2back/STIM_023.jpg
968.644	0.852	correct	2back	Block2	2back/STIM_023.jpg
973.458	0.658	correct	2back	Block2	2back/STIM_024.jpg
976.488	0.558	correct	2back	Block2	2back/STIM_024.jpg
979.812	0.591	correct	2back	Block2	2back/STIM_024.jpg
984.21	0.598	correct	2back	Block2	2back/STIM_025.jpg
988.358	0.538	correct	2back	Block2	2back/STIM_025.jpg
992.777	0.421	correct	2back	Block2	2back/STIM_025.jpg
996.837	1.057	correct	2back	Block2	2back/STIM_026.jpg
1001.064	0.983	correct	2back	Block2	2back/STIM_026.jpg
1004.29	0.713	correct	2back	Block2	2back/STIM_026.jpg
1008.963	0.499	correct	2back	Block2	2back/STIM_027.jpg
1013.082	0.679	correct	2back	Block2	2back/STIM_027.jpg
1016.089	0.359	correct	2back	Block2	2back/STIM_027.jpg
1019.449	0.976	correct	2back	Block2	2back/STIM_028.jpg
1023.565	0.965	correct	2back	Block2	2back/STIM_028.jpg
1028.145	0.5	correct	2back	Block2	2back/STIM_028.jpg
1031.793	0.816	correct	2back	Block2	2back/STIM_029.jpg
1035.509	1.0	correct	2back	Block2	2back/STIM_029.jpg
1038.657	0.427	correct	2back	Block2	2back/STIM_029.jpg
1042.039	0.866	correct	2back	Block2	2back/STIM_030.jpg
1045.882	0.638	correct	2back	Block2	2back/STIM_030.jpg
1050.459	0.805	correct	2back	Block2	2back/STIM_030.jpg
1053.931	0.973	correct	2back	Block2	2back/STIM_031.jpg
1057.522	0.939	correct	2back	Block2	2back/STIM_031.jpg
1060.505	0.792	correct	2back	Block2	2back/STIM_031.jpg
1065.013	0.908	correct	2back	Block2	2back/STIM_032.jpg
1069.587	0.758	correct	2back	Block2	2back/STIM_032.jpg
1073.54	0.946	correct	2back	Block2	2back/STIM_032.jpg
1077.971	0.687	correct	2back	Block2	2back/STIM_033.jpg
1081.576	0.484	correct	2back	Block2	2back/STIM_033.jpg
1084.199	0.832	correct	2back	Block2	2back/STIM_033.jpg
1087.617	1.108	correct	2back	Block2	2back/STIM_034.jpg
1091.965	0.916	correct	2back	Block2	2back/STIM_034.jpg
1095.149	0.684	correct	2back	Block2	2back/STIM_034.jpg
1098.22	0.828	correct	2back	Block2	2back/STIM_035.jpg
1101.781	0.504	correct	2back	Block2	2back/STIM_035.jpg
1105.446	0.62	correct	2back	Block2	2back/STIM_035.jpg
1108.755	0.668	incorrect	2back	Block2	2back/STIM_036.jpg
1113.343	0.946	correct	2back	Block2	2back/STIM_036.jpg
1117.407	0.709	correct	2back	Block2	2back/STIM_036.jpg
1121.563	0.738	correct	2back	Block2	2back/STIM_037.jpg
1126.256	0.786	correct	2back	Block2	2back/STIM_037.jpg
1130.593	0.596	correct	2back	Block2	2back/STIM_037.jpg
1133.758	1.149	correct	2back	Block2	2back/STIM_038.jpg
1137.256	0.517	correct	2back	Block2	2back/STIM_038.jpg
1140.507	0.796	correct	2back	Block2	2back/STIM_038.jpg
1143.854	0.494	correct	2back	Block2	2back/STIM_039.jpg
1148.005	0.548	correct	2back	Block2	2back/STIM_039.jpg
1152.322	1.091	correct	2back	Block2	2back/STIM_039.jpg
1156.768	0.51	correct	0back	Block2	0back/STIM_000.jpg
1160.709	0.435	correct	0back	Block2	0back/STIM_000.jpg
1163.321	0.544	correct	0back	Block2	0back/STIM_000.jpg
1166.71	0.48	correct	0back	Block2	0back/STIM_001.jpg
1170.812	0.587	correct	0back	Block2	0back/STIM_001.jpg
1174.453	0.735	correct	0back	Block2	0back/STIM_001.jpg
1178.287	0.679	correct	0back	Block2	0back/STIM_002.jpg
1181.221	0.567	correct	0back	Block2	0back/STIM_002.jpg
1184.418	0.576	correct	0back	Block2	0back/STIM_002.jpg
1188.216	0.477	correct	0back	Block2	0back/STIM_003.jpg
1192.391	0.583	incorrect	0back	Block2	0back/STIM_003.jpg
1196.491	0.736	correct	0back	Block2	0back/STIM_003.jpg
1200.737	0.423	correct	0back	Block2	0back/STIM_004.jpg
1204.74	0.482	correct	0back	Block2	0back/STIM_004.jpg
1209.024	0.666	correct	0back	Block2	0back/STIM_004.jpg
1213.348	0.689	correct	0back	Block2	0back/STIM_005.jpg
1216.24	0.375	correct	0back	Block2	0back/STIM_005.jpg
1220.546	0.568	correct	0back	Block2	0back/STIM_005.jpg
1223.863	0.693	correct	0back	Block2	0back/STIM_006.jpg
1226.635	0.652	correct	0back	Block2	0back/STIM_006.jpg
1230.674	0.382	correct	0back	Block2	0back/STIM_006.jpg
1233.412	0.67	correct	0back	Block2	0back/STIM_007.jpg
1236.156	0.671	correct	0back	Block2	0back/STIM_007.jpg
1239.931	0.752	correct	0back	Block2	0back/STIM_007.jpg
1243.367	0.686	correct	0back	Block2	0back/STIM_008.jpg
1247.663	0.41	correct	0back	Block2	0back/STIM_008.jpg
1251.382	0.722	correct	0back	Block2	0back/STIM_008.jpg
1255.941	0.381	correct	0back	Block2	0back/STIM_009.jpg
1260.06	0.678	correct	0back	Block2	0back/STIM_009.jpg
1264.217	0.485	correct	0back	Block2	0back/STIM_009.jpg
1267.235	0.67	incorrect	0back	Block2	0back/STIM_010.jpg
1271.424	0.673	correct	0back	Block2	0back/STIM_010.jpg
1275.147	0.616	correct	0back	Block2	0back/STIM_010.jpg
1279.497	0.666	correct	0back	Block2	0back/STIM_011.jpg
1282.894	0.657	correct	0back	Block2	0back/STIM_011.jpg
1285.904	0.563	correct	0back	Block2	0back/STIM_011.jpg
1289.454	0.577	correct	0back	Block2	0back/STIM_012.jpg
1293.375	0.57	correct	0back	Block2	0back/STIM_012.jpg
1297.418	0.558	correct	0back	Block2	0back/STIM_012.jpg
1301.933	0.485	incorrect	0back	Block2	0back/STIM_013.jpg
1304.812	0.652	correct	0back	Block2	0back/STIM_013.jpg
1307.581	0.45	correct	0back	Block2	0back/STIM_013.jpg
1311.303	0.516	correct	0back	Block2	0back/STIM_014.jpg
1315.353	0.641	correct	0back	Block2	0back/STIM_014.jpg
1318.653	0.718	correct	0back	Block2	0back/STIM_014.jpg
1322.293	0.528	correct	0back	Block2	0back/STIM_015.jpg
1325.861	0.574	correct	0back	Block2	0back/STIM_015.jpg
1329.769	0.593	correct	0back	Block2	0back/STIM_015.jpg
1332.676	0.718	correct	0back	Block2	0back/STIM_016.jpg
1335.899	0.64	correct	0back	Block2	0back/STIM_016.jpg
1339.436	0.649	correct	0back	Block2	0back/STIM_016.jpg
1343.866	0.662	correct	0back	Block2	0back/STIM_017.jpg
1347.517	0.652	correct	0back	Block2	0back/STIM_017.jpg
1351.812	0.512	correct	0back	Block2	0back/STIM_017.jpg
1356.021	0.439	correct	0back	Block2	0back/STIM_018.jpg
1359.276	0.408	correct	0back	Block2	0back/STIM_018.jpg
1362.446	0.718	correct	0back	Block2	0back/STIM_018.jpg
1366.981	0.597	correct	0back	Block2	0back/STIM_019.jpg
1370.665	0.337	correct	0back	Block2	0back/STIM_019.jpg
1374.181	0.403	correct	0back	Block2	0back/STIM_019.jpg
1377.769	0.831	correct	2back	Block3	2back/STIM_000.jpg
1382.577	0.477	correct	2back	Block3	2back/STIM_000.jpg
1385.335	0.585	correct	2back	Block3	2back/STIM_000.jpg
1389.304	0.428	correct	2back	Block3	2back/STIM_001.jpg
1393.546	0.538	correct	2back	Block3	2back/STIM_001.jpg
1397.814	0.604	correct	2back	Block3	2back/STIM_001.jpg
1401.142	0.937	correct	2back	Block3	2back/STIM_002.jpg
1404.304	0.685	correct	2back	Block3	2back/STIM_002.jpg
1407.601	0.965	correct	2back	Block3	2back/STIM_002.jpg
1410.754	0.749	correct	2back	Block3	2back/STIM_003.jpg
1415.391	0.477	correct	2back	Block3	2back/STIM_003.jpg
1419.257	0.586	correct	2back	Block3	2back/STIM_003.jpg
1423.248	0.688	correct	2back	Block3	2back/STIM_004.jpg
1427.778	0.778	correct	2back	Block3	2back/STIM_004.jpg
1432.323	0.526	correct	2back	Block3	2back/STIM_004.jpg
1436.697	0.466	incorrect	2back	Block3	2back/STIM_005.jpg
1439.426	0.861	correct	2back	Block3	2back/STIM_005.jpg
1444.242	0.678	correct	2back	Block3	2back/STIM_005.jpg
1448.113	0.692	correct	2back	Block3	2back/STIM_006.jpg
1450.901	0.831	correct	2back	Block3	2back/STIM_006.jpg
1454.263	0.479	correct	2back	Block3	2back/STIM_006.jpg
1458.371	0.697	correct	2back	Block3	2back/STIM_007.jpg
1462.668	0.616	correct	2back	Block3	2back/STIM_007.jpg
1466.826	0.732	correct	2back	Block3	2back/STIM_007.jpg
1471.308	0.768	correct	2back	Block3	2back/STIM_008.jpg
1474.803	0.584	correct	2back	Block3	2back/STIM_008.jpg
1478.985	0.525	correct	2back	Block3	2back/STIM_008.jpg
1482.015	0.477	correct	2back	Block3	2back/STIM_009.jpg
1485.458	0.43	correct	2back	Block3	2back/STIM_009.jpg
1488.355	0.536	correct	2back	Block3	2back/STIM_009.jpg
1492.599	0.805	correct	2back	Block3	2back/STIM_010.jpg
1496.717	0.767	correct	2back	Block3	2back/STIM_010.jpg
1499.61	0.767	correct	2back	Block3	2back/STIM_010.jpg
1503.413	0.81	correct	2back	Block3	2back/STIM_011.jpg
1507.39	0.526	correct	2back	Block3	2back/STIM_011.jpg
1510.753	0.905	correct	2back	Block3	2back/STIM_011.jpg
1515.028	1.016	correct	2back	Block3	2back/STIM_012.jpg
1518.949	0.966	correct	2back	Block3	2back/STIM_012.jpg
1523.91	0.556	correct	2back	Block3	2back/STIM_012.jpg
1527.475	0.826	correct	2back	Block3	2back/STIM_013.jpg
1532.2	0.811	correct	2back	Block3	2back/STIM_013.jpg
1536.755	0.516	correct	2back	Block3	2back/STIM_013.jpg
1540.031	0.473	correct	2back	Block3	2back/STIM_014.jpg
1543.785	0.685	correct	2back	Block3	2back/STIM_014.jpg
1548.183	0.871	correct	2back	Block3	2back/STIM_014.jpg
1552.683	0.657	correct	2back	Block3	2back/STIM_015.jpg
1557.082	0.938	incorrect	2back	Block3	2back/STIM_015.jpg
1561.229	0.553	correct	2back	Block3	2back/STIM_015.jpg
1564.395	0.861	correct	2back	Block3	2back/STIM_016.jpg
1567.928	0.499	correct	2back	Block3	2back/STIM_016.jpg
1572.335	0.719	correct	2back	Block3	2back/STIM_016.jpg
1575.347	0.753	correct	2back	Block3	2back/STIM_017.jpg
1579.417	0.82	correct	2back	Block3	2back/STIM_017.jpg
1583.831	0.805	correct	2back	Block3	2back/STIM_017.jpg
1587.745	0.892	correct	2back	Block3	2back/STIM_018.jpg
1590.948	0.614	correct	2back	Block3	2back/STIM_018.jpg
1594.537	0.891	correct	2back	Block3	2back/STIM_018.jpg
1598.661	0.645	correct	2back	Block3	2back/STIM_019.jpg
1601.663	0.509	correct	2back	Block3	2back/STIM_019.jpg
1605.772	0.697	correct	2back	Block3	2back/STIM_019.jpg
1610.044	0.96	correct	2back	Block3	2back/STIM_020.jpg
1614.825	0.538	correct	2back	Block3	2back/STIM_020.jpg
1617.486	0.693	correct	2back	Block3	2back/STIM_020.jpg
1621.714	0.516	correct	2back	Block3	2back/STIM_021.jpg
1624.38	0.531	correct	2back	Block3	2back/STIM_021.jpg
1628.1	0.486	correct	2back	Block3	2back/STIM_021.jpg
1632.057	0.779	correct	2back	Block3	2back/STIM_022.jpg
1636.768	0.811	correct	2back	Block3	2back/STIM_022.jpg
1639.908	0.688	correct	2back	Block3	2back/STIM_022.jpg
1643.106	0.916	correct	2back	Block3	2back/STIM_023.jpg
1647.154	0.503	correct	2back	Block3	2back/STIM_023.jpg
1650.199	0.416	correct	2back	Block3	2back/STIM_023.jpg
1654.596	0.908	correct	2back	Block3	2back/STIM_024.jpg
1658.592	0.664	correct	2back	Block3	2back/STIM_024.jpg
1662.804	0.829	correct	2back	Block3	2back/STIM_024.jpg
1665.838	0.476	correct	2back	Block3	2back/STIM_025.jpg
1670.151	0.91	correct	2back	Block3	2back/STIM_025.jpg
1674.995	0.83	correct	2back	Block3	2back/STIM_025.jpg
1678.034	0.644	correct	2back	Block3	2back/STIM_026.jpg
1681.898	0.664	correct	2back	Block3	2back/STIM_026.jpg
1685.152	0.412	correct	2back	Block3	2back/STIM_026.jpg
1689.301	0.927	correct	2back	Block3	2back/STIM_027.jpg
1693.51	0.417	correct	2back	Block3	2back/STIM_027.jpg
1696.999	0.822	correct	2back	Block3	2back/STIM_027.jpg
1701.679	0.972	correct	2back	Block3	2back/STIM_028.jpg
1706.164	0.563	correct	2back	Block3	2back/STIM_028.jpg
1709.989	0.482	correct	2back	Block3	2back/STIM_028.jpg
1714.358	0.737	correct	2back	Block3	2back/STIM_029.jpg
1717.24	0.584	correct	2back	Block3	2back/STIM_029.jpg
1721.602	0.414	correct	2back	Block3	2back/STIM_029.jpg
1724.711	0.679	correct	2back	Block3	2back/STIM_030.jpg
1727.873	0.879	correct	2back	Block3	2back/STIM_030.jpg
1731.617	0.807	correct	2back	Block3	2back/STIM_030.jpg
1736.032	0.471	correct	2back	Block3	2back/STIM_031.jpg
1739.373	0.767	correct	2back	Block3	2back/STIM_031.jpg
1743.66	0.806	correct	2back	Block3	2back/STIM_031.jpg
1746.656	0.626	correct	2back	Block3	2back/STIM_032.jpg
1750.395	0.904	correct	2back	Block3	2back/STIM_032.jpg
1754.407	0.949	correct	2back	Block3	2back/STIM_032.jpg
1758.507	0.801	correct	2back	Block3	2back/STIM_033.jpg
1761.551	0.633	correct	2back	Block3	2back/STIM_033.jpg
1765.907	0.427	correct	2back	Block3	2back/STIM_033.jpg
1769.706	0.975	correct	2back	Block3	2back/STIM_034.jpg
1773.674	0.923	correct	2back	Block3	2back/STIM_034.jpg
1777.267	0.482	correct	2back	Block3	2back/STIM_034.jpg
1780.422	0.659	correct	2back	Block3	2back/STIM_035.jpg
1784.757	0.54	correct	2back	Block3	2back/STIM_035.jpg
1787.729	0.436	correct	2back	Block3	2back/STIM_035.jpg
1791.083	0.498	incorrect	2back	Block3	2back/STIM_036.jpg
1795.252	0.433	correct	2back	Block3	2back/STIM_036.jpg
1798.982	0.463	correct	2back	Block3	2back/STIM_036.jpg
1801.644	0.542	correct	2back	Block3	2back/STIM_037.jpg
1805.691	0.458	incorrect	2back	Block3	2back/STIM_037.jpg
1809.512	0.728	correct	2back	Block3	2back/STIM_037.jpg
1813.88	0.89	correct	2back	Block3	2back/STIM_038.jpg
1816.869	0.43	correct	2back	Block3	2back/STIM_038.jpg
1820.485	0.822	correct	2back	Block3	2back/STIM_038.jpg
1823.942	0.638	correct	2back	Block3	2back/STIM_039.jpg
1828.173	0.853	correct	2back	Block3	2back/STIM_039.jpg
1831.749	0.512	correct	2back	Block3	2back/STIM_039.jpg
1835.166	0.43	correct	0back	Block3	0back/STIM_000.jpg
1838.38	0.665	correct	0back	Block3	0back/STIM_000.jpg
1841.049	0.695	correct	0back	Block3	0back/STIM_000.jpg
1843.986	0.333	correct	0back	Block3	0back/STIM_001.jpg
1847.302	0.751	correct	0back	Block3	0back/STIM_001.jpg
1850.879	0.352	correct	0back	Block3	0back/STIM_001.jpg
1853.79	0.488	correct	0back	Block3	0back/STIM_002.jpg
1858.055	0.478	correct	0back	Block3	0back/STIM_002.jpg
1861.384	0.691	correct	0back	Block3	0back/STIM_002.jpg
1864.85	0.53	correct	0back	Block3	0back/STIM_003.jpg
1868.932	0.434	correct	0back	Block3	0back/STIM_003.jpg
1871.879	0.433	correct	0back	Block3	0back/STIM_003.jpg
1876.32	0.676	correct	0back	Block3	0back/STIM_004.jpg
1880.441	0.498	correct	0back	Block3	0back/STIM_004.jpg
1883.082	0.518	correct	0back	Block3	0back/STIM_004.jpg
1887.441	0.518	correct	0back	Block3	0back/STIM_005.jpg
1891.748	0.711	correct	0back	Block3	0back/STIM_005.jpg
1896.44	0.682	correct	0back	Block3	0back/STIM_005.jpg
1899.704	0.736	correct	0back	Block3	0back/STIM_006.jpg
1902.838	0.712	correct	0back	Block3	0back/STIM_006.jpg
1906.332	0.571	correct	0back	Block3	0back/STIM_006.jpg
1910.874	0.452	correct	0back	Block3	0back/STIM_007.jpg
1914.64	0.442	correct	0back	Block3	0back/STIM_007.jpg
1918.809	0.482	correct	0back	Block3	0back/STIM_007.jpg
1923.064	0.428	correct	0back	Block3	0back/STIM_008.jpg
1926.034	0.686	correct	0back	Block3	0back/STIM_008.jpg
1929.447	0.61	correct	0back	Block3	0back/STIM_008.jpg
1932.308	0.801	correct	0back	Block3	0back/STIM_009.jpg
1935.16	0.78	correct	0back	Block3	0back/STIM_009.jpg
1939.451	0.46	correct	0back	Block3	0back/STIM_009.jpg
1943.497	0.636	correct	0back	Block3	0back/STIM_010.jpg
1947.338	0.816	correct	0back	Block3	0back/STIM_010.jpg
1950.402	0.355	correct	0back	Block3	0back/STIM_010.jpg
1953.12	0.704	correct	0back	Block3	0back/STIM_011.jpg
1957.051	0.715	correct	0back	Block3	0back/STIM_011.jpg
1961.219	0.492	correct	0back	Block3	0back/STIM_011.jpg
1965.363	0.483	incorrect	0back	Block3	0back/STIM_012.jpg
1968.432	0.623	correct	0back	Block3	0back/STIM_012.jpg
1972.767	0.641	correct	0back	Block3	0back/STIM_012.jpg
1976.089	0.439	correct	0back	Block3	0back/STIM_013.jpg
1979.992	0.767	correct	0back	Block3	0back/STIM_013.jpg
1984.292	0.581	correct	0back	Block3	0back/STIM_013.jpg
1988.547	0.312	correct	0back	Block3	0back/STIM_014.jpg
1992.758	0.462	correct	0back	Block3	0back/STIM_014.jpg
1995.915	0.458	correct	0back	Block3	0back/STIM_014.jpg
1998.341	0.717	incorrect	0back	Block3	0back/STIM_015.jpg
2001.219	0.791	correct	0back	Block3	0back/STIM_015.jpg
2004.784	0.718	correct	0back	Block3	0back/STIM_015.jpg
2008.822	0.381	correct	0back	Block3	0back/STIM_016.jpg
2013.121	0.542	correct	0back	Block3	0back/STIM_016.jpg
2016.513	0.5	correct	0back	Block3	0back/STIM_016.jpg
2019.966	0.631	correct	0back	Block3	0back/STIM_017.jpg
2023.19	0.603	incorrect	0back	Block3	0back/STIM_017.jpg
2026.13	0.494	correct	0back	Block3	0back/STIM_017.jpg
2030.084	0.612	correct	0back	Block3	0back/STIM_018.jpg
2032.986	0.648	correct	0back	Block3	0back/STIM_018.jpg
2037.372	0.394	correct	0back	Block3	0back/STIM_018.jpg
2041.113	0.558	correct	0back	Block3	0back/STIM_019.jpg
2043.894	0.557	correct	0back	Block3	0back/STIM_019.jpg
2047.087	0.689	correct	0back	Block3	0back/STIM_019.jpg
2049.679	0.506	correct	2back	Block4	2back/STIM_000.jpg
2054.014	0.662	correct	2back	Block4	2back/STIM_000.jpg
2058.335	0.598	correct	2back	Block4	2back/STIM_000.jpg
2061.62	0.86	correct	2back	Block4	2back/STIM_001.jpg
2065.163	0.817	correct	2back	Block4	2back/STIM_001.jpg
2069.554	0.848	correct	2back	Block4	2back/STIM_001.jpg
2072.699	0.718	correct	2back	Block4	2back/STIM_002.jpg
2076.301	0.743	correct	2back	Block4	2back/STIM_002.jpg
2079.573	0.682	correct	2back	Block4	2back/STIM_002.jpg
2083.54	0.611	correct	2back	Block4	2back/STIM_003.jpg
2087.194	0.872	correct	2back	Block4	2back/STIM_003.jpg
2091.65	0.616	correct	2back	Block4	2back/STIM_003.jpg
2094.79	0.458	correct	2back	Block4	2back/STIM_004.jpg
2097.508	0.737	correct	2back	Block4	2back/STIM_004.jpg
2101.936	0.492	correct	2back	Block4	2back/STIM_004.jpg
2106.506	0.508	correct	2back	Block4	2back/STIM_005.jpg
2109.981	0.843	correct	2back	Block4	2back/STIM_005.jpg
2113.649	0.597	correct	2back	Block4	2back/STIM_005.jpg
2118.243	0.617	correct	2back	Block4	2back/STIM_006.jpg
2120.897	0.525	correct	2back	Block4	2back/STIM_006.jpg
2124.032	0.528	correct	2back	Block4	2back/STIM_006.jpg
2127.395	0.489	correct	2back	Block4	2back/STIM_007.jpg
2130.671	0.615	correct	2back	Block4	2back/STIM_007.jpg
2133.398	0.896	correct	2back	Block4	2back/STIM_007.jpg
2137.855	0.794	correct	2back	Block4	2back/STIM_008.jpg
2141.679	0.691	correct	2back	Block4	2back/STIM_008.jpg
2145.949	0.574	correct	2back	Block4	2back/STIM_008.jpg
2150.449	0.87	correct	2back	Block4	2back/STIM_009.jpg
2155.251	0.909	correct	2back	Block4	2back/STIM_009.jpg
2160.069	0.472	correct	2back	Block4	2back/STIM_009.jpg
2163.78	0.88	correct	2back	Block4	2back/STIM_010.jpg
2168.515	0.915	correct	2back	Block4	2back/STIM_010.jpg
2172.478	0.528	correct	2back	Block4	2back/STIM_010.jpg
2175.956	0.642	correct	2back	Block4	2back/STIM_011.jpg
2178.667	0.524	correct	2back	Block4	2back/STIM_011.jpg
2182.357	0.462	correct	2back	Block4	2back/STIM_011.jpg
2186.627	0.641	correct	2back	Block4	2back/STIM_012.jpg
2191.257	0.836	correct	2back	Block4	2back/STIM_012.jpg
2195.089	0.548	correct	2back	Block4	2back/STIM_012.jpg
2199.237	0.63	correct	2back	Block4	2back/STIM_013.jpg
2202.888	0.618	correct	2back	Block4	2back/STIM_013.jpg
2206.25	0.337	incorrect	2back	Block4	2back/STIM_013.jpg
2209.66	0.497	correct	2back	Block4	2back/STIM_014.jpg
2213.068	0.519	correct	2back	Block4	2back/STIM_014.jpg
2215.803	0.567	correct	2back	Block4	2back/STIM_014.jpg
2219.02	0.903	correct	2back	Block4	2back/STIM_015.jpg
2222.785	0.879	correct	2back	Block4	2back/STIM_015.jpg
2226.826	0.927	correct	2back	Block4	2back/STIM_015.jpg
2231.589	0.484	correct	2back	Block4	2back/STIM_016.jpg
2235.544	0.704	correct	2back	Block4	2back/STIM_016.jpg
2239.96	0.526	correct	2back	Block4	2back/STIM_016.jpg
2244.214	0.601	correct	2back	Block4	2back/STIM_017.jpg
2247.271	0.47	correct	2back	Block4	2back/STIM_017.jpg
2251.471	0.778	correct	2back	Block4	2back/STIM_017.jpg
2255.377	0.934	correct	2back	Block4	2back/STIM_018.jpg
2259.692	0.836	correct	2back	Block4	2back/STIM_018.jpg
2264.057	0.637	correct	2back	Block4	2back/STIM_018.jpg
2267.615	0.676	correct	2back	Block4	2back/STIM_019.jpg
2270.855	0.534	correct	2back	Block4	2back/STIM_019.jpg
2274.83	0.647	correct	2back	Block4	2back/STIM_019.jpg
2278.529	0.795	correct	2back	Block4	2back/STIM_020.jpg
2282.294	0.42	correct	2back	Block4	2back/STIM_020.jpg
2284.909	0.495	correct	2back	Block4	2back/STIM_020.jpg
2289.045	0.674	correct	2back	Block4	2back/STIM_021.jpg
2292.661	0.826	correct	2back	Block4	2back/STIM_021.jpg
2297.322	0.568	correct	2back	Block4	2back/STIM_021.jpg
2300.744	0.484	correct	2back	Block4	2back/STIM_022.jpg
2304.379	0.863	correct	2back	Block4	2back/STIM_022.jpg
2308.385	0.773	correct	2back	Block4	2back/STIM_022.jpg
2312.121	0.765	correct	2back	Block4	2back/STIM_023.jpg
2315.292	0.649	correct	2back	Block4	2back/STIM_023.jpg
2318.188	0.542	correct	2back	Block4	2back/STIM_023.jpg
2320.982	0.917	correct	2back	Block4	2back/STIM_024.jpg
2325.211	0.487	correct	2back	Block4	2back/STIM_024.jpg
2328.426	0.661	correct	2back	Block4	2back/STIM_024.jpg
2332.63	0.831	correct	2back	Block4	2back/STIM_025.jpg
2337.298	0.694	correct	2back	Block4	2back/STIM_025.jpg
2341.997	0.83	correct	2back	Block4	2back/STIM_025.jpg
2345.104	0.6	correct	2back	Block4	2back/STIM_026.jpg
2349.764	0.797	correct	2back	Block4	2back/STIM_026.jpg
2352.871	0.8	correct	2back	Block4	2back/STIM_026.jpg
2357.487	0.741	correct	2back	Block4	2back/STIM_027.jpg
2360.852	0.741	correct	2back	Block4	2back/STIM_027.jpg
2364.761	0.39	correct	2back	Block4	2back/STIM_027.jpg
2367.953	0.646	correct	2back	Block4	2back/STIM_028.jpg
2371.285	0.616	correct	2back	Block4	2back/STIM_028.jpg
2374.827	0.916	correct	2back	Block4	2back/STIM_028.jpg
2379.079	0.654	correct	2back	Block4	2back/STIM_029.jpg
2382.769	0.584	correct	2back	Block4	2back/STIM_029.jpg
2385.368	0.684	correct	2back	Block4	2back/STIM_029.jpg
2389.435	0.544	correct	2back	Block4	2back/STIM_030.jpg
2391.982	0.507	correct	2back	Block4	2back/STIM_030.jpg
2395.28	0.437	correct	2back	Block4	2back/STIM_030.jpg
2398.501	0.671	correct	2back	Block4	2back/STIM_031.jpg
2401.698	0.821	incorrect	2back	Block4	2back/STIM_031.jpg
2405.18	0.534	correct	2back	Block4	2back/STIM_031.jpg
2408.693	0.66	correct	2back	Block4	2back/STIM_032.jpg
2412.288	0.95	correct	2back	Block4	2back/STIM_032.jpg
2416.019	0.739	correct	2back	Block4	2back/STIM_032.jpg
2419.808	0.594	correct	2back	Block4	2back/STIM_033.jpg
2422.725	0.925	correct	2back	Block4	2back/STIM_033.jpg
2426.779	1.019	correct	2back	Block4	2back/STIM_033.jpg
2430.931	0.649	correct	2back	Block4	2back/STIM_034.jpg
2434.772	0.865	correct	2back	Block4	2back/STIM_034.jpg
2438.743	0.842	correct	2back	Block4	2back/STIM_034.jpg
2442.496	0.83	correct	2back	Block4	2back/STIM_035.jpg
2446.912	0.761	correct	2back	Block4	2back/STIM_035.jpg
2449.773	0.438	correct	2back	Block4	2back/STIM_035.jpg
2453.979	0.642	correct	2back	Block4	2back/STIM_036.jpg
2458.569	0.587	correct	2back	Block4	2back/STIM_036.jpg
2462.637	0.602	correct	2back	Block4	2back/STIM_036.jpg
2466.652	0.72	correct	2back	Block4	2back/STIM_037.jpg
2469.538	0.727	correct	2back	Block4	2back/STIM_037.jpg
2473.326	0.436	correct	2back	Block4	2back/STIM_037.jpg
2477.287	0.752	correct	2back	Block4	2back/STIM_038.jpg
2481.265	0.478	correct	2back	Block4	2back/STIM_038.jpg
2485.723	0.553	correct	2back	Block4	2back/STIM_038.jpg
2488.763	0.515	correct	2back	Block4	2back/STIM_039.jpg
2493.204	0.942	correct	2back	Block4	2back/STIM_039.jpg
2496.158	0.804	correct	2back	Block4	2back/STIM_039.jpg
2500.63	0.638	correct	0back	Block4	0back/STIM_000.jpg
2504.391	0.764	correct	0back	Block4	0back/STIM_000.jpg
2508.722	0.424	correct	0back	Block4	0back/STIM_000.jpg
2512.17	0.678	correct	0back	Block4	0back/STIM_001.jpg
2515.404	0.613	correct	0back	Block4	0back/STIM_001.jpg
2519.202	0.59	correct	0back	Block4	0back/STIM_001.jpg
2523.275	0.604	correct	0back	Block4	0back/STIM_002.jpg
2527.46	0.675	correct	0back	Block4	0back/STIM_002.jpg
2530.599	0.509	correct	0back	Block4	0back/STIM_002.jpg
2533.536	0.716	correct	0back	Block4	0back/STIM_003.jpg
2537.402	0.498	correct	0back	Block4	0back/STIM_003.jpg
2541.603	0.755	correct	0back	Block4	0back/STIM_003.jpg
2545.594	0.42	correct	0back	Block4	0back/STIM_004.jpg
2548.855	0.687	correct	0back	Block4	0back/STIM_004.jpg
2552.23	0.415	correct	0back	Block4	0back/STIM_004.jpg
2556.146	0.597	correct	0back	Block4	0back/STIM_005.jpg
2559.262	0.603	correct	0back	Block4	0back/STIM_005.jpg
2562.4	0.716	correct	0back	Block4	0back/STIM_005.jpg
2566.863	0.762	correct	0back	Block4	0back/STIM_006.jpg
2570.007	0.608	correct	0back	Block4	0back/STIM_006.jpg
2573.048	0.496	correct	0back	Block4	0back/STIM_006.jpg
2577.158	0.645	correct	0back	Block4	0back/STIM_007.jpg
2579.935	0.551	correct	0back	Block4	0back/STIM_007.jpg
2582.777	0.624	correct	0back	Block4	0back/STIM_007.jpg
2586.413	0.736	correct	0back	Block4	0back/STIM_008.jpg
2590.217	0.575	correct	0back	Block4	0back/STIM_008.jpg
2592.793	0.371	correct	0back	Block4	0back/STIM_008.jpg
2597.041	0.465	correct	0back	Block4	0back/STIM_009.jpg
2600.134	0.403	correct	0back	Block4	0back/STIM_009.jpg
2603.229	0.473	correct	0back	Block4	0back/STIM_009.jpg
2606.553	0.451	correct	0back	Block4	0back/STIM_010.jpg
2609.249	0.564	correct	0back	Block4	0back/STIM_010.jpg
2612.168	0.596	correct	0back	Block4	0back/STIM_010.jpg
2614.941	0.54	correct	0back	Block4	0back/STIM_011.jpg
2618.418	0.415	correct	0back	Block4	0back/STIM_011.jpg
2621.741	0.609	correct	0back	Block4	0back/STIM_011.jpg
2625.245	0.672	correct	0back	Block4	0back/STIM_012.jpg
2628.097	0.768	correct	0back	Block4	0back/STIM_012.jpg
2632.413	0.465	correct	0back	Block4	0back/STIM_012.jpg
2636.5	0.74	correct	0back	Block4	0back/STIM_013.jpg
2641.132	0.772	correct	0back	Block4	0back/STIM_013.jpg
2644.349	0.628	correct	0back	Block4	0back/STIM_013.jpg
2648.752	0.657	correct	0back	Block4	0back/STIM_014.jpg
2652.773	0.453	incorrect	0back	Block4	0back/STIM_014.jpg
2656.645	0.489	correct	0back	Block4	0back/STIM_014.jpg
2660.733	0.492	correct	0back	Block4	0back/STIM_015.jpg
2664.012	0.343	correct	0back	Block4	0back/STIM_015.jpg
2667.537	0.397	correct	0back	Block4	0back/STIM_015.jpg
2671.279	0.484	correct	0back	Block4	0back/STIM_016.jpg
2674.744	0.698	correct	0back	Block4	0back/STIM_016.jpg
2677.737	0.375	correct	0back	Block4	0back/STIM_016.jpg
2680.733	0.646	correct	0back	Block4	0back/STIM_017.jpg
2683.902	0.717	incorrect	0back	Block4	0back/STIM_017.jpg
2688.506	0.756	correct	0back	Block4	0back/STIM_017.jpg
2693.11	0.413	correct	0back	Block4	0back/STIM_018.jpg
2696.392	0.424	correct	0back	Block4	0back/STIM_018.jpg
2700.016	0.514	correct	0back	Block4	0back/STIM_018.jpg
2703.213	0.436	correct	0back	Block4	0back/STIM_019.jpg
2707.619	0.763	correct	0back	Block4	0back/STIM_019.jpg
2710.712	0.538	correct	0back	Block4	0back/STIM_019.jpg
