onset	duration	response_time_ms	trial_type	learning_stage	stimulus	response_port
0.0	2.3	2300.0	generate	Run1	generate/STIM_000.jpg	99
5.869	2.078	2078.3	generate	Run1	generate/STIM_000.jpg	99
10.854	1.618	1617.5	generate	Run1	generate/STIM_000.jpg	99
15.688	1.315	1314.6	generate	Run1	generate/STIM_000.jpg	100
19.657	0.856	855.7	generate	Run1	generate/STIM_000.jpg	99
23.881	2.373	2372.8	generate	Run1	generate/STIM_001.jpg	99
29.914	1.066	1066.3	generate	Run1	generate/STIM_001.jpg	100
33.849	2.018	2018.3	generate	Run1	generate/STIM_001.jpg	100
38.352	1.112	1112.1	generate	Run1	generate/STIM_001.jpg	100
43.171	1.182	1182.2	generate	Run1	generate/STIM_001.jpg	100
47.787	2.475	2475.0	generate	Run1	generate/STIM_002.jpg	99
52.513	1.64	1639.9	generate	Run1	generate/STIM_002.jpg	99
57.378	1.344	1343.6	generate	Run1	generate/STIM_002.jpg	100
61.953	1.488	1487.9	generate	Run1	generate/STIM_002.jpg	99
67.302	1.357	1356.7	generate	Run1	generate/STIM_002.jpg	99
72.073	1.116	1116.1	generate	Run1	generate/STIM_003.jpg	99
75.644	2.124	2123.5	generate	Run1	generate/STIM_003.jpg	100
81.423	1.352	1352.5	generate	Run1	generate/STIM_003.jpg	99
86.573	1.979	1978.7	generate	Run1	generate/STIM_003.jpg	99
91.007	1.198	1198.3	generate	Run1	generate/STIM_003.jpg	100
95.485	1.306	1305.9	generate	Run1	generate/STIM_004.jpg	99
100.609	2.456	2455.8	generate	Run1	generate/STIM_004.jpg	100
105.407	1.83	1829.9	generate	Run1	generate/STIM_004.jpg	99
110.454	2.189	2189.4	generate	Run1	generate/STIM_004.jpg	99
115.881	1.004	1004.5	generate	Run1	generate/STIM_004.jpg	99
119.353	2.133	2133.4	generate	Run1	generate/STIM_005.jpg	99
125.242	1.509	1509.0	generate	Run1	generate/STIM_005.jpg	100
130.71	2.007	2007.0	generate	Run1	generate/STIM_005.jpg	100
135.777	1.313	1313.3	generate	Run1	generate/STIM_005.jpg	100
139.606	1.112	1112.5	generate	Run1	generate/STIM_005.jpg	99
144.433	2.397	2397.2	generate	Run1	generate/STIM_006.jpg	100
150.178	1.998	1998.2	generate	Run1	generate/STIM_006.jpg	99
154.745	1.214	1214.5	generate	Run1	generate/STIM_006.jpg	99
158.973	1.827	1826.8	generate	Run1	generate/STIM_006.jpg	100
163.025	1.131	1130.9	generate	Run1	generate/STIM_006.jpg	100
166.739	2.296	2296.4	generate	Run1	generate/STIM_007.jpg	99
171.584	1.349	1348.7	generate	Run1	generate/STIM_007.jpg	100
175.391	1.77	1770.5	generate	Run1	generate/STIM_007.jpg	99
180.297	2.15	2149.7	generate	Run1	generate/STIM_007.jpg	100
186.086	1.497	1497.0	generate	Run1	generate/STIM_007.jpg	100
190.316	2.438	2437.8	generate	Run1	generate/STIM_008.jpg	99
195.498	1.383	1383.0	generate	Run1	generate/STIM_008.jpg	99
200.227	2.326	2325.7	generate	Run1	generate/STIM_008.jpg	99
204.873	1.723	1723.1	generate	Run1	generate/STIM_008.jpg	100
209.008	1.052	1051.9	generate	Run1	generate/STIM_008.jpg	99
212.65	1.337	1337.3	generate	Run1	generate/STIM_009.jpg	100
216.274	1.87	1870.4	generate	Run1	generate/STIM_009.jpg	99
221.064	2.059	2058.8	generate	Run1	generate/STIM_009.jpg	99
225.34	1.716	1715.7	generate	Run1	generate/STIM_009.jpg	99
230.285	1.34	1339.9	generate	Run1	generate/STIM_009.jpg	99
235.151	1.482	1482.2	generate	Run1	generate/STIM_010.jpg	100
239.91	1.854	1853.8	generate	Run1	generate/STIM_010.jpg	100
245.066	0.975	975.4	generate	Run1	generate/STIM_010.jpg	100
248.8	2.098	2098.5	generate	Run1	generate/STIM_010.jpg	99
253.287	1.956	1955.7	generate	Run1	generate/STIM_010.jpg	99
257.629	2.189	2189.3	generate	Run1	generate/STIM_011.jpg	100
262.85	1.273	1273.4	generate	Run1	generate/STIM_011.jpg	100
266.291	2.112	2111.5	generate	Run1	generate/STIM_011.jpg	100
271.775	2.102	2102.5	generate	Run1	generate/STIM_011.jpg	99
276.263	1.988	1987.6	generate	Run1	generate/STIM_011.jpg	100
280.566	1.972	1971.7	generate	Run1	generate/STIM_012.jpg	100
285.313	1.425	1425.2	generate	Run1	generate/STIM_012.jpg	100
288.968	1.789	1789.0	generate	Run1	generate/STIM_012.jpg	99
294.304	2.177	2176.8	generate	Run1	generate/STIM_012.jpg	99
299.475	1.839	1838.8	generate	Run1	generate/STIM_012.jpg	99
304.688	2.122	2122.0	generate	Run1	generate/STIM_013.jpg	100
309.633	2.232	2231.6	generate	Run1	generate/STIM_013.jpg	100
314.725	2.249	2249.4	generate	Run1	generate/STIM_013.jpg	99
319.582	1.419	1419.1	generate	Run1	generate/STIM_013.jpg	100
323.838	1.211	1210.6	generate	Run1	generate/STIM_013.jpg	100
328.764	2.307	2306.9	generate	Run1	generate/STIM_014.jpg	99
334.068	1.716	1715.6	generate	Run1	generate/STIM_014.jpg	99
338.738	1.438	1437.6	generate	Run1	generate/STIM_014.jpg	99
342.459	1.197	1196.6	generate	Run1	generate/STIM_014.jpg	100
346.045	1.59	1590.3	generate	Run1	generate/STIM_014.jpg	99
350.847	2.171	2170.7	generate	Run1	generate/STIM_015.jpg	99
355.46	1.563	1562.7	generate	Run1	generate/STIM_015.jpg	99
360.666	1.443	1442.8	generate	Run1	generate/STIM_015.jpg	99
365.149	1.944	1943.8	generate	Run1	generate/STIM_015.jpg	100
370.477	1.571	1571.4	generate	Run1	generate/STIM_015.jpg	100
375.277	1.567	1566.6	generate	Run1	generate/STIM_016.jpg	100
379.856	2.041	2040.8	generate	Run1	generate/STIM_016.jpg	100
384.188	1.8	1800.2	generate	Run1	generate/STIM_016.jpg	100
388.302	1.256	1256.5	generate	Run1	generate/STIM_016.jpg	100
392.205	1.19	1190.3	generate	Run1	generate/STIM_016.jpg	100
396.729	1.318	1318.3	generate	Run1	generate/STIM_017.jpg	99
401.525	2.16	2159.9	generate	Run1	generate/STIM_017.jpg	99
406.913	1.102	1101.9	generate	Run1	generate/STIM_017.jpg	99
410.567	1.48	1480.3	generate	Run1	generate/STIM_017.jpg	100
415.577	1.557	1556.9	generate	Run1	generate/STIM_017.jpg	100
420.288	1.363	1362.8	generate	Run1	generate/STIM_018.jpg	100
425.418	2.348	2348.3	generate	Run1	generate/STIM_018.jpg	99
430.825	2.042	2041.6	generate	Run1	generate/STIM_018.jpg	100
435.512	1.238	1237.6	generate	Run1	generate/STIM_018.jpg	99
440.692	1.75	1750.5	generate	Run1	generate/STIM_018.jpg	100
445.012	1.958	1958.5	generate	Run1	generate/STIM_019.jpg	99
450.083	1.901	1900.6	generate	Run1	generate/STIM_019.jpg	99
454.96	2.302	2302.4	generate	Run1	generate/STIM_019.jpg	99
460.371	2.211	2210.9	generate	Run1	generate/STIM_019.jpg	100
464.995	0.964	963.7	generate	Run1	generate/STIM_019.jpg	99
469.663	1.341	1341.2	generate	Run1	generate/STIM_020.jpg	100
474.812	2.206	2206.1	generate	Run1	generate/STIM_020.jpg	100
480.367	1.905	1904.7	generate	Run1	generate/STIM_020.jpg	100
486.2	2.088	2088.5	generate	Run1	generate/STIM_020.jpg	100
491.714	1.545	1544.8	generate	Run1	generate/STIM_020.jpg	100
497.025	2.246	2245.9	generate	Run1	generate/STIM_021.jpg	99
502.209	2.487	2486.8	generate	Run1	generate/STIM_021.jpg	99
507.598	2.171	2171.0	generate	Run1	generate/STIM_021.jpg	99
513.5	1.429	1428.6	generate	Run1	generate/STIM_021.jpg	99
517.027	1.164	1164.0	generate	Run1	generate/STIM_021.jpg	100
522.067	1.306	1306.5	generate	Run1	generate/STIM_022.jpg	99
525.757	2.394	2394.5	generate	Run1	generate/STIM_022.jpg	99
531.473	1.284	1283.5	generate	Run1	generate/STIM_022.jpg	99
536.448	1.946	1946.2	generate	Run1	generate/STIM_022.jpg	100
542.005	1.249	1249.2	generate	Run1	generate/STIM_022.jpg	99
546.028	2.362	2362.5	generate	Run1	generate/STIM_023.jpg	100
551.561	1.606	1606.0	generate	Run1	generate/STIM_023.jpg	100
556.875	2.169	2169.0	generate	Run1	generate/STIM_023.jpg	99
561.417	1.029	1028.6	generate	Run1	generate/STIM_023.jpg	99
564.569	2.033	2032.9	generate	Run1	generate/STIM_023.jpg	99
569.99	2.305	2304.8	generate	Run1	generate/STIM_024.jpg	100
576.153	2.081	2080.9	generate	Run1	generate/STIM_024.jpg	100
581.941	2.034	2034.3	generate	Run1	generate/STIM_024.jpg	99
587.7	1.874	1873.6	generate	Run1	generate/STIM_024.jpg	100
591.818	1.677	1676.9	generate	Run1	generate/STIM_024.jpg	99
597.181	0.745	744.7	repeat	Run1	repeat/STIM_000.jpg	100
600.291	0.471	470.9	repeat	Run1	repeat/STIM_000.jpg	99
604.311	0.498	498.5	repeat	Run1	repeat/STIM_000.jpg	99
608.561	0.837	837.4	repeat	Run1	repeat/STIM_000.jpg	100
612.19	0.597	597.4	repeat	Run1	repeat/STIM_000.jpg	99
616.744	0.683	683.0	repeat	Run1	repeat/STIM_001.jpg	99
620.636	0.644	643.8	repeat	Run1	repeat/STIM_001.jpg	100
623.837	0.866	865.6	repeat	Run1	repeat/STIM_001.jpg	100
627.865	0.59	589.8	repeat	Run1	repeat/STIM_001.jpg	99
631.026	0.812	811.8	repeat	Run1	repeat/STIM_001.jpg	99
635.01	0.607	607.0	repeat	Run1	repeat/STIM_002.jpg	99
638.618	0.772	771.7	repeat	Run1	repeat/STIM_002.jpg	100
641.572	0.721	721.2	repeat	Run1	repeat/STIM_002.jpg	99
644.317	0.863	862.7	repeat	Run1	repeat/STIM_002.jpg	100
647.636	0.545	544.6	repeat	Run1	repeat/STIM_002.jpg	99
652.011	0.546	546.5	repeat	Run1	repeat/STIM_003.jpg	100
655.504	0.6	600.0	repeat	Run1	repeat/STIM_003.jpg	99
658.866	0.509	508.7	repeat	Run1	repeat/STIM_003.jpg	99
662.773	0.731	731.2	repeat	Run1	repeat/STIM_003.jpg	100
667.337	0.472	472.3	repeat	Run1	repeat/STIM_003.jpg	99
670.511	0.738	737.8	repeat	Run1	repeat/STIM_004.jpg	100
675.149	0.596	596.0	repeat	Run1	repeat/STIM_004.jpg	99
677.971	0.581	581.1	repeat	Run1	repeat/STIM_004.jpg	99
681.416	0.553	553.3	repeat	Run1	repeat/STIM_004.jpg	100
684.763	0.491	490.6	repeat	Run1	repeat/STIM_004.jpg	100
688.945	0.481	481.2	repeat	Run1	repeat/STIM_005.jpg	100
692.979	0.87	870.5	repeat	Run1	repeat/STIM_005.jpg	99
696.098	0.655	655.0	repeat	Run1	repeat/STIM_005.jpg	99
700.105	0.501	500.9	repeat	Run1	repeat/STIM_005.jpg	100
703.213	0.698	698.0	repeat	Run1	repeat/STIM_005.jpg	99
706.252	0.525	524.7	repeat	Run1	repeat/STIM_006.jpg	100
710.113	0.506	506.5	repeat	Run1	repeat/STIM_006.jpg	100
714.583	0.63	630.0	repeat	Run1	repeat/STIM_006.jpg	99
718.205	0.649	648.6	repeat	Run1	repeat/STIM_006.jpg	99
722.79	0.754	753.5	repeat	Run1	repeat/STIM_006.jpg	100
725.788	0.484	484.5	repeat	Run1	repeat/STIM_007.jpg	99
729.816	0.648	647.9	repeat	Run1	repeat/STIM_007.jpg	99
732.695	0.739	739.0	repeat	Run1	repeat/STIM_007.jpg	99
736.143	0.462	461.7	repeat	Run1	repeat/STIM_007.jpg	100
739.27	0.438	437.9	repeat	Run1	repeat/STIM_007.jpg	100
743.056	0.864	864.2	repeat	Run1	repeat/STIM_008.jpg	100
747.732	0.53	529.6	repeat	Run1	repeat/STIM_008.jpg	99
750.473	0.744	743.7	repeat	Run1	repeat/STIM_008.jpg	100
753.628	0.737	736.7	repeat	Run1	repeat/STIM_008.jpg	100
758.273	0.657	656.8	repeat	Run1	repeat/STIM_008.jpg	100
761.219	0.49	489.9	repeat	Run1	repeat/STIM_009.jpg	99
764.547	0.461	460.7	repeat	Run1	repeat/STIM_009.jpg	99
768.419	0.725	724.6	repeat	Run1	repeat/STIM_009.jpg	100
772.375	0.802	801.8	repeat	Run1	repeat/STIM_009.jpg	100
777.043	0.478	478.4	repeat	Run1	repeat/STIM_009.jpg	99
780.334	0.83	830.4	repeat	Run1	repeat/STIM_010.jpg	100
783.277	0.795	795.4	repeat	Run1	repeat/STIM_010.jpg	99
786.455	0.724	723.8	repeat	Run1	repeat/STIM_010.jpg	100
789.285	0.512	511.6	repeat	Run1	repeat/STIM_010.jpg	100
792.61	0.465	464.9	repeat	Run1	repeat/STIM_010.jpg	100
795.537	0.602	602.4	repeat	Run1	repeat/STIM_011.jpg	100
798.397	0.587	586.6	repeat	Run1	repeat/STIM_011.jpg	100
801.337	0.77	770.4	repeat	Run1	repeat/STIM_011.jpg	99
804.878	0.674	674.5	repeat	Run1	repeat/STIM_011.jpg	99
809.355	0.46	460.4	repeat	Run1	repeat/STIM_011.jpg	99
812.995	0.634	633.5	repeat	Run1	repeat/STIM_012.jpg	99
816.277	0.476	476.0	repeat	Run1	repeat/STIM_012.jpg	99
819.38	0.793	793.4	repeat	Run1	repeat/STIM_012.jpg	100
823.406	0.72	719.7	repeat	Run1	repeat/STIM_012.jpg	100
827.857	0.46	460.1	repeat	Run1	repeat/STIM_012.jpg	99
832.301	0.692	691.9	repeat	Run1	repeat/STIM_013.jpg	99
836.277	0.768	767.6	repeat	Run1	repeat/STIM_013.jpg	100
840.206	0.522	522.4	repeat	Run1	repeat/STIM_013.jpg	100
844.024	0.701	700.9	repeat	Run1	repeat/STIM_013.jpg	99
846.939	0.727	727.4	repeat	Run1	repeat/STIM_013.jpg	99
851.601	0.753	753.0	repeat	Run1	repeat/STIM_014.jpg	100
856.288	0.784	784.1	repeat	Run1	repeat/STIM_014.jpg	100
859.163	0.47	470.0	repeat	Run1	repeat/STIM_014.jpg	99
861.835	0.638	637.9	repeat	Run1	repeat/STIM_014.jpg	100
865.674	0.677	677.3	repeat	Run1	repeat/STIM_014.jpg	99
868.824	1.483	1483.3	generate	Run2	generate/STIM_000.jpg	100
873.27	0.982	982.4	generate	Run2	generate/STIM_000.jpg	99
877.383	1.128	1127.8	generate	Run2	generate/STIM_000.jpg	100
881.844	1.037	1036.8	generate	Run2	generate/STIM_000.jpg	99
885.809	1.269	1268.7	generate	Run2	generate/STIM_000.jpg	99
890.682	1.593	1593.3	generate	Run2	generate/STIM_001.jpg	99
894.915	2.064	2063.5	generate	Run2	generate/STIM_001.jpg	99
900.234	0.932	932.1	generate	Run2	generate/STIM_001.jpg	99
904.242	1.41	1409.6	generate	Run2	generate/STIM_001.jpg	100
908.299	1.154	1154.2	generate	Run2	generate/STIM_001.jpg	100
911.734	1.788	1788.3	generate	Run2	generate/STIM_002.jpg	99
916.76	1.41	1410.3	generate	Run2	generate/STIM_002.jpg	99
921.199	1.573	1573.3	generate	Run2	generate/STIM_002.jpg	100
925.084	0.979	979.1	generate	Run2	generate/STIM_002.jpg	100
929.027	1.008	1008.5	generate	Run2	generate/STIM_002.jpg	100
932.823	1.125	1125.2	generate	Run2	generate/STIM_003.jpg	99
937.144	2.038	2038.2	generate	Run2	generate/STIM_003.jpg	99
941.475	1.339	1339.1	generate	Run2	generate/STIM_003.jpg	100
945.229	1.686	1686.0	generate	Run2	generate/STIM_003.jpg	99
949.916	0.817	817.1	generate	Run2	generate/STIM_003.jpg	99
953.433	1.68	1680.4	generate	Run2	generate/STIM_004.jpg	100
957.412	0.881	881.1	generate	Run2	generate/STIM_004.jpg	100
961.054	1.86	1859.8	generate	Run2	generate/STIM_004.jpg	99
964.957	1.821	1821.0	generate	Run2	generate/STIM_004.jpg	100
969.211	0.786	785.9	generate	Run2	generate/STIM_004.jpg	99
972.247	1.34	1339.7	generate	Run2	generate/STIM_005.jpg	100
976.036	1.94	1939.7	generate	Run2	generate/STIM_005.jpg	99
980.958	0.846	846.3	generate	Run2	generate/STIM_005.jpg	99
985.323	1.025	1024.8	generate	Run2	generate/STIM_005.jpg	100
989.31	1.17	1170.3	generate	Run2	generate/STIM_005.jpg	99
994.137	2.003	2002.6	generate	Run2	generate/STIM_006.jpg	99
999.243	1.947	1947.1	generate	Run2	generate/STIM_006.jpg	100
1004.979	1.327	1326.6	generate	Run2	generate/STIM_006.jpg	99
1008.829	0.811	810.8	generate	Run2	generate/STIM_006.jpg	99
1012.344	1.772	1772.5	generate	Run2	generate/STIM_006.jpg	99
1017.492	2.025	2025.3	generate	Run2	generate/STIM_007.jpg	100
1023.413	0.878	878.3	generate	Run2	generate/STIM_007.jpg	99
1026.897	1.335	1334.9	generate	Run2	generate/STIM_007.jpg	99
1031.962	1.007	1007.3	generate	Run2	generate/STIM_007.jpg	99
1035.452	0.984	984.4	generate	Run2	generate/STIM_007.jpg	100
1039.91	1.378	1378.5	generate	Run2	generate/STIM_008.jpg	99
1043.963	2.009	2008.6	generate	Run2	generate/STIM_008.jpg	99
1048.651	1.589	1588.6	generate	Run2	generate/STIM_008.jpg	100
1053.193	1.316	1316.0	generate	Run2	generate/STIM_008.jpg	99
1058.257	1.574	1574.2	generate	Run2	generate/STIM_008.jpg	99
1063.523	0.974	974.2	generate	Run2	generate/STIM_009.jpg	100
1067.186	1.059	1059.1	generate	Run2	generate/STIM_009.jpg	99
1072.089	1.509	1509.2	generate	Run2	generate/STIM_009.jpg	99
1076.983	1.754	1753.5	generate	Run2	generate/STIM_009.jpg	99
1082.576	0.983	982.7	generate	Run2	generate/STIM_009.jpg	100
1085.653	1.942	1942.3	generate	Run2	generate/STIM_010.jpg	99
1090.303	2.083	2082.8	generate	Run2	generate/STIM_010.jpg	100
1096.168	1.643	1642.8	generate	Run2	generate/STIM_010.jpg	99
1101.8	1.478	1478.5	generate	Run2	generate/STIM_010.jpg	100
1105.899	1.787	1787.3	generate	Run2	generate/STIM_010.jpg	99
1111.418	1.821	1820.6	generate	Run2	generate/STIM_011.jpg	100
1116.892	1.0	1000.4	generate	Run2	generate/STIM_011.jpg	100
1121.549	0.814	813.8	generate	Run2	generate/STIM_011.jpg	99
1125.381	1.697	1697.2	generate	Run2	generate/STIM_011.jpg	100
1130.63	1.81	1810.1	generate	Run2	generate/STIM_011.jpg	99
1135.298	1.425	1425.0	generate	Run2	generate/STIM_012.jpg	99
1140.07	0.914	914.0	generate	Run2	generate/STIM_012.jpg	100
1144.739	1.265	1265.0	generate	Run2	generate/STIM_012.jpg	99
1149.596	1.62	1619.7	generate	Run2	generate/STIM_012.jpg	100
1154.165	0.793	793.3	generate	Run2	generate/STIM_012.jpg	100
1157.607	1.692	1691.5	generate	Run2	generate/STIM_013.jpg	99
1163.241	1.724	1723.7	generate	Run2	generate/STIM_013.jpg	99
1168.524	1.795	1795.4	generate	Run2	generate/STIM_013.jpg	100
1173.602	1.462	1462.2	generate	Run2	generate/STIM_013.jpg	99
1178.878	0.876	875.6	generate	Run2	generate/STIM_013.jpg	100
1182.795	1.72	1720.0	generate	Run2	generate/STIM_014.jpg	99
1188.128	2.09	2090.4	generate	Run2	generate/STIM_014.jpg	100
1192.318	1.771	1771.0	generate	Run2	generate/STIM_014.jpg	100
1197.595	1.752	1751.8	generate	Run2	generate/STIM_014.jpg	100
1202.026	1.502	1502.0	generate	Run2	generate/STIM_014.jpg	99
1205.937	1.112	1112.1	generate	Run2	generate/STIM_015.jpg	100
1209.769	1.216	1216.5	generate	Run2	generate/STIM_015.jpg	99
1214.096	1.668	1667.9	generate	Run2	generate/STIM_015.jpg	99
1219.548	1.293	1292.6	generate	Run2	generate/STIM_015.jpg	100
1224.023	0.923	922.9	generate	Run2	generate/STIM_015.jpg	100
1227.35	2.19	2189.9	generate	Run2	generate/STIM_016.jpg	99
1232.866	1.015	1014.9	generate	Run2	generate/STIM_016.jpg	99
1236.494	1.783	1782.8	generate	Run2	generate/STIM_016.jpg	100
1241.167	1.071	1070.7	generate	Run2	generate/STIM_016.jpg	100
1246.141	1.301	1300.8	generate	Run2	generate/STIM_016.jpg	100
1250.307	1.688	1688.5	generate	Run2	generate/STIM_017.jpg	99
1254.095	1.453	1453.1	generate	Run2	generate/STIM_017.jpg	99
1258.123	0.936	936.4	generate	Run2	generate/STIM_017.jpg	100
1261.268	1.711	1711.0	generate	Run2	generate/STIM_017.jpg	99
1265.142	1.712	1712.4	generate	Run2	generate/STIM_017.jpg	100
1270.611	2.042	2042.4	generate	Run2	generate/STIM_018.jpg	100
1275.691	0.869	868.6	generate	Run2	generate/STIM_018.jpg	99
1280.416	1.51	1510.5	generate	Run2	generate/STIM_018.jpg	99
1285.109	1.005	1005.3	generate	Run2	generate/STIM_018.jpg	99
1289.286	1.344	1344.1	generate	Run2	generate/STIM_018.jpg	100
1292.972	1.541	1540.6	generate	Run2	generate/STIM_019.jpg	100
1298.186	1.416	1416.5	generate	Run2	generate/STIM_019.jpg	100
1303.026	0.9	900.3	generate	Run2	generate/STIM_019.jpg	99
1307.115	0.97	969.7	generate	Run2	generate/STIM_019.jpg	100
1311.409	0.888	888.4	generate	Run2	generate/STIM_019.jpg	99
1315.453	1.988	1988.1	generate	Run2	generate/STIM_020.jpg	99
1320.973	0.872	872.4	generate	Run2	generate/STIM_020.jpg	100
1324.041	1.059	1059.3	generate	Run2	generate/STIM_020.jpg	100
1327.658	0.763	762.9	generate	Run2	generate/STIM_020.jpg	100
1331.448	1.589	1588.7	generate	Run2	generate/STIM_020.jpg	100
1336.532	1.104	1104.5	generate	Run2	generate/STIM_021.jpg	99
1340.671	0.854	854.2	generate	Run2	generate/STIM_021.jpg	100
1343.966	1.885	1884.8	generate	Run2	generate/STIM_021.jpg	99
1349.177	0.916	916.0	generate	Run2	generate/STIM_021.jpg	100
1353.842	1.203	1203.1	generate	Run2	generate/STIM_021.jpg	100
1358.606	1.146	1145.9	generate	Run2	generate/STIM_022.jpg	100
1363.126	1.928	1927.5	generate	Run2	generate/STIM_022.jpg	99
1369.027	1.699	1698.6	generate	Run2	generate/STIM_022.jpg	99
1374.372	1.102	1101.9	generate	Run2	generate/STIM_022.jpg	100
1379.469	1.294	1294.0	generate	Run2	generate/STIM_022.jpg	99
1383.557	1.027	1026.6	generate	Run2	generate/STIM_023.jpg	100
1388.532	1.791	1790.7	generate	Run2	generate/STIM_023.jpg	100
1394.001	1.0	1000.5	generate	Run2	generate/STIM_023.jpg	99
1398.455	1.796	1796.2	generate	Run2	generate/STIM_023.jpg	100
1403.832	1.28	1280.4	generate	Run2	generate/STIM_023.jpg	99
1407.39	1.553	1552.9	generate	Run2	generate/STIM_024.jpg	100
1412.138	2.066	2066.4	generate	Run2	generate/STIM_024.jpg	99
1417.1	1.029	1029.2	generate	Run2	generate/STIM_024.jpg	99
1421.452	1.311	1311.0	generate	Run2	generate/STIM_024.jpg	100
1426.49	0.812	812.2	generate	Run2	generate/STIM_024.jpg	100
1430.873	0.441	441.1	repeat	Run2	repeat/STIM_000.jpg	100
1435.056	0.608	607.5	repeat	Run2	repeat/STIM_000.jpg	99
1438.129	0.513	512.7	repeat	Run2	repeat/STIM_000.jpg	99
1441.906	0.595	595.0	repeat	Run2	repeat/STIM_000.jpg	100
1445.664	0.542	541.6	repeat	Run2	repeat/STIM_000.jpg	100
1448.327	0.726	726.0	repeat	Run2	repeat/STIM_001.jpg	100
1452.298	0.72	719.7	repeat	Run2	repeat/STIM_001.jpg	100
1456.167	0.477	476.7	repeat	Run2	repeat/STIM_001.jpg	99
1460.267	0.728	727.7	repeat	Run2	repeat/STIM_001.jpg	99
1463.403	0.596	596.3	repeat	Run2	repeat/STIM_001.jpg	100
1467.428	0.51	510.1	repeat	Run2	repeat/STIM_002.jpg	100
1470.487	0.72	720.4	repeat	Run2	repeat/STIM_002.jpg	99
1474.894	0.662	661.7	repeat	Run2	repeat/STIM_002.jpg	99
1479.037	0.501	501.4	repeat	Run2	repeat/STIM_002.jpg	100
1483.459	0.841	840.6	repeat	Run2	repeat/STIM_002.jpg	100
1487.397	0.694	694.0	repeat	Run2	repeat/STIM_003.jpg	100
1490.343	0.784	783.5	repeat	Run2	repeat/STIM_003.jpg	100
1493.148	0.802	801.6	repeat	Run2	repeat/STIM_003.jpg	99
1497.183	0.661	660.6	repeat	Run2	repeat/STIM_003.jpg	99
1500.511	0.529	529.1	repeat	Run2	repeat/STIM_003.jpg	99
1503.213	0.737	736.9	repeat	Run2	repeat/STIM_004.jpg	99
1507.182	0.812	811.9	repeat	Run2	repeat/STIM_004.jpg	99
1511.631	0.692	692.1	repeat	Run2	repeat/STIM_004.jpg	100
1515.022	0.67	670.4	repeat	Run2	repeat/STIM_004.jpg	99
1519.604	0.562	561.6	repeat	Run2	repeat/STIM_004.jpg	99
1523.978	0.778	777.6	repeat	Run2	repeat/STIM_005.jpg	100
1528.742	0.5	499.6	repeat	Run2	repeat/STIM_005.jpg	99
1532.744	0.556	556.2	repeat	Run2	repeat/STIM_005.jpg	100
1536.758	0.73	729.9	repeat	Run2	repeat/STIM_005.jpg	99
1540.001	0.872	872.5	repeat	Run2	repeat/STIM_005.jpg	99
1544.536	0.85	849.7	repeat	Run2	repeat/STIM_006.jpg	100
1548.26	0.657	657.0	repeat	Run2	repeat/STIM_006.jpg	100
1552.291	0.598	598.3	repeat	Run2	repeat/STIM_006.jpg	100
1555.674	0.834	833.9	repeat	Run2	repeat/STIM_006.jpg	100
1559.973	0.667	666.6	repeat	Run2	repeat/STIM_006.jpg	100
1562.822	0.635	635.1	repeat	Run2	repeat/STIM_007.jpg	100
1566.893	0.702	701.9	repeat	Run2	repeat/STIM_007.jpg	99
1570.053	0.583	582.9	repeat	Run2	repeat/STIM_007.jpg	100
1574.531	0.744	743.7	repeat	Run2	repeat/STIM_007.jpg	100
1577.819	0.481	480.6	repeat	Run2	repeat/STIM_007.jpg	100
1581.759	0.731	730.9	repeat	Run2	repeat/STIM_008.jpg	99
1585.791	0.641	641.3	repeat	Run2	repeat/STIM_008.jpg	99
1588.907	0.459	459.3	repeat	Run2	repeat/STIM_008.jpg	99
1593.099	0.607	607.3	repeat	Run2	repeat/STIM_008.jpg	99
1596.163	0.442	441.7	repeat	Run2	repeat/STIM_008.jpg	99
1598.732	0.839	838.6	repeat	Run2	repeat/STIM_009.jpg	100
1601.86	0.508	507.9	repeat	Run2	repeat/STIM_009.jpg	99
1605.604	0.455	455.0	repeat	Run2	repeat/STIM_009.jpg	99
1609.084	0.517	517.4	repeat	Run2	repeat/STIM_009.jpg	100
1612.138	0.578	577.6	repeat	Run2	repeat/STIM_009.jpg	99
1614.854	0.863	863.1	repeat	Run2	repeat/STIM_010.jpg	99
1619.56	0.857	856.6	repeat	Run2	repeat/STIM_010.jpg	99
1624.146	0.814	814.5	repeat	Run2	repeat/STIM_010.jpg	99
1627.092	0.734	733.7	repeat	Run2	repeat/STIM_010.jpg	99
1630.905	0.527	527.4	repeat	Run2	repeat/STIM_010.jpg	99
1634.543	0.708	707.7	repeat	Run2	repeat/STIM_011.jpg	100
1638.45	0.509	508.8	repeat	Run2	repeat/STIM_011.jpg	99
1642.268	0.798	797.6	repeat	Run2	repeat/STIM_011.jpg	99
1646.666	0.783	783.1	repeat	Run2	repeat/STIM_011.jpg	99
1650.764	0.655	654.7	repeat	Run2	repeat/STIM_011.jpg	99
1653.593	0.583	582.7	repeat	Run2	repeat/STIM_012.jpg	100
1657.926	0.735	734.8	repeat	Run2	repeat/STIM_012.jpg	100
1661.524	0.754	754.3	repeat	Run2	repeat/STIM_012.jpg	99
1665.461	0.869	868.6	repeat	Run2	repeat/STIM_012.jpg	100
1670.165	0.629	628.7	repeat	Run2	repeat/STIM_012.jpg	99
1673.803	0.772	772.1	repeat	Run2	repeat/STIM_013.jpg	99
1677.294	0.708	708.5	repeat	Run2	repeat/STIM_013.jpg	100
1681.97	0.739	739.1	repeat	Run2	repeat/STIM_013.jpg	100
1686.628	0.834	833.7	repeat	Run2	repeat/STIM_013.jpg	100
1690.89	0.454	454.2	repeat	Run2	repeat/STIM_013.jpg	100
1693.603	0.507	506.9	repeat	Run2	repeat/STIM_014.jpg	100
1697.525	0.571	570.8	repeat	Run2	repeat/STIM_014.jpg	99
1700.297	0.611	610.7	repeat	Run2	repeat/STIM_014.jpg	100
1704.234	0.772	771.6	repeat	Run2	repeat/STIM_014.jpg	100
1707.058	0.556	555.8	repeat	Run2	repeat/STIM_014.jpg	99
1709.731	1.318	1318.5	generate	Run3	generate/STIM_000.jpg	100
1713.171	1.007	1007.4	generate	Run3	generate/STIM_000.jpg	100
1717.737	0.882	882.0	generate	Run3	generate/STIM_000.jpg	100
1720.868	1.068	1067.9	generate	Run3	generate/STIM_000.jpg	99
1725.67	1.445	1445.4	generate	Run3	generate/STIM_000.jpg	99
1729.784	1.5	1500.0	generate	Run3	generate/STIM_001.jpg	99
1734.598	1.743	1743.0	generate	Run3	generate/STIM_001.jpg	99
1739.392	1.426	1425.7	generate	Run3	generate/STIM_001.jpg	100
1743.817	1.249	1248.7	generate	Run3	generate/STIM_001.jpg	99
1747.229	1.405	1404.8	generate	Run3	generate/STIM_001.jpg	99
1751.52	1.455	1455.0	generate	Run3	generate/STIM_002.jpg	99
1756.276	1.022	1021.8	generate	Run3	generate/STIM_002.jpg	99
1760.998	1.646	1646.4	generate	Run3	generate/STIM_002.jpg	100
1766.041	1.229	1228.8	generate	Run3	generate/STIM_002.jpg	100
1770.412	0.779	778.8	generate	Run3	generate/STIM_002.jpg	100
1774.277	1.583	1583.3	generate	Run3	generate/STIM_003.jpg	99
1779.425	1.002	1001.9	generate	Run3	generate/STIM_003.jpg	99
1783.53	1.008	1007.8	generate	Run3	generate/STIM_003.jpg	100
1787.714	1.059	1058.8	generate	Run3	generate/STIM_003.jpg	99
1790.817	0.844	844.5	generate	Run3	generate/STIM_003.jpg	99
1795.401	0.871	871.3	generate	Run3	generate/STIM_004.jpg	99
1799.45	1.692	1691.9	generate	Run3	generate/STIM_004.jpg	100
1804.894	1.019	1019.2	generate	Run3	generate/STIM_004.jpg	100
1809.522	1.57	1570.1	generate	Run3	generate/STIM_004.jpg	100
1814.044	1.053	1052.8	generate	Run3	generate/STIM_004.jpg	100
1818.998	1.827	1826.6	generate	Run3	generate/STIM_005.jpg	99
1823.138	1.789	1788.7	generate	Run3	generate/STIM_005.jpg	100
1827.063	0.815	814.7	generate	Run3	generate/STIM_005.jpg	99
1831.413	1.713	1713.3	generate	Run3	generate/STIM_005.jpg	100
1836.807	1.243	1243.2	generate	Run3	generate/STIM_005.jpg	100
1841.75	1.322	1322.1	generate	Run3	generate/STIM_006.jpg	100
1846.759	1.14	1139.5	generate	Run3	generate/STIM_006.jpg	99
1849.966	1.41	1409.7	generate	Run3	generate/STIM_006.jpg	100
1854.645	1.189	1189.1	generate	Run3	generate/STIM_006.jpg	100
1858.534	1.242	1242.4	generate	Run3	generate/STIM_006.jpg	99
1862.935	0.768	767.7	generate	Run3	generate/STIM_007.jpg	99
1865.807	0.85	850.4	generate	Run3	generate/STIM_007.jpg	100
1869.606	1.65	1649.5	generate	Run3	generate/STIM_007.jpg	100
1873.625	1.458	1458.4	generate	Run3	generate/STIM_007.jpg	100
1878.659	1.399	1399.4	generate	Run3	generate/STIM_007.jpg	100
1883.672	1.457	1456.6	generate	Run3	generate/STIM_008.jpg	100
1888.849	0.86	859.5	generate	Run3	generate/STIM_008.jpg	100
1891.908	1.799	1799.2	generate	Run3	generate/STIM_008.jpg	100
1896.007	1.475	1474.9	generate	Run3	generate/STIM_008.jpg	99
1901.204	1.152	1151.5	generate	Run3	generate/STIM_008.jpg	100
1904.496	1.669	1669.1	generate	Run3	generate/STIM_009.jpg	99
1910.014	1.235	1235.0	generate	Run3	generate/STIM_009.jpg	99
1914.519	0.862	862.4	generate	Run3	generate/STIM_009.jpg	99
1918.057	1.156	1155.6	generate	Run3	generate/STIM_009.jpg	100
1923.156	0.984	983.7	generate	Run3	generate/STIM_009.jpg	100
1927.827	0.88	880.3	generate	Run3	generate/STIM_010.jpg	100
1930.901	1.134	1134.4	generate	Run3	generate/STIM_010.jpg	99
1935.798	1.185	1185.1	generate	Run3	generate/STIM_010.jpg	99
1940.518	1.138	1138.3	generate	Run3	generate/STIM_010.jpg	100
1943.899	1.29	1289.9	generate	Run3	generate/STIM_010.jpg	99
1947.791	1.829	1829.4	generate	Run3	generate/STIM_011.jpg	100
1952.748	1.728	1728.4	generate	Run3	generate/STIM_011.jpg	100
1956.931	1.557	1556.6	generate	Run3	generate/STIM_011.jpg	100
1962.17	1.6	1599.5	generate	Run3	generate/STIM_011.jpg	99
1967.441	1.498	1497.8	generate	Run3	generate/STIM_011.jpg	100
1971.014	0.846	846.3	generate	Run3	generate/STIM_012.jpg	100
1975.413	1.712	1712.0	generate	Run3	generate/STIM_012.jpg	99
1979.165	1.475	1475.4	generate	Run3	generate/STIM_012.jpg	100
1983.29	0.842	842.5	generate	Run3	generate/STIM_012.jpg	99
1986.919	1.486	1486.4	generate	Run3	generate/STIM_012.jpg	99
1992.057	1.175	1174.7	generate	Run3	generate/STIM_013.jpg	100
1995.697	0.805	804.6	generate	Run3	generate/STIM_013.jpg	100
1999.779	1.157	1157.2	generate	Run3	generate/STIM_013.jpg	100
2004.332	0.794	793.6	generate	Run3	generate/STIM_013.jpg	100
2009.08	1.42	1419.8	generate	Run3	generate/STIM_013.jpg	100
2013.71	1.398	1398.0	generate	Run3	generate/STIM_014.jpg	100
2017.168	1.419	1419.0	generate	Run3	generate/STIM_014.jpg	100
2020.713	1.623	1623.4	generate	Run3	generate/STIM_014.jpg	100
2025.253	1.0	1000.3	generate	Run3	generate/STIM_014.jpg	99
2028.715	1.392	1391.7	generate	Run3	generate/STIM_014.jpg	100
2034.053	1.289	1289.0	generate	Run3	generate/STIM_015.jpg	100
2038.388	1.636	1635.6	generate	Run3	generate/STIM_015.jpg	99
2043.33	1.566	1565.9	generate	Run3	generate/STIM_015.jpg	99
2048.039	1.476	1476.0	generate	Run3	generate/STIM_015.jpg	100
2053.17	1.752	1752.0	generate	Run3	generate/STIM_015.jpg	100
2057.327	1.18	1179.7	generate	Run3	generate/STIM_016.jpg	100
2062.212	0.981	980.8	generate	Run3	generate/STIM_016.jpg	100
2066.677	1.499	1498.9	generate	Run3	generate/STIM_016.jpg	100
2071.031	1.831	1831.3	generate	Run3	generate/STIM_016.jpg	100
2075.796	1.311	1310.9	generate	Run3	generate/STIM_016.jpg	99
2080.839	1.731	1730.9	generate	Run3	generate/STIM_017.jpg	100
2085.458	1.234	1234.2	generate	Run3	generate/STIM_017.jpg	99
2088.799	1.42	1420.0	generate	Run3	generate/STIM_017.jpg	100
2092.685	1.049	1048.8	generate	Run3	generate/STIM_017.jpg	100
2096.614	1.106	1105.7	generate	Run3	generate/STIM_017.jpg	99
2101.139	1.654	1654.0	generate	Run3	generate/STIM_018.jpg	99
2106.212	1.113	1112.6	generate	Run3	generate/STIM_018.jpg	100
2109.402	1.162	1162.2	generate	Run3	generate/STIM_018.jpg	99
2113.319	1.598	1597.5	generate	Run3	generate/STIM_018.jpg	99
2117.973	0.753	753.0	generate	Run3	generate/STIM_018.jpg	99
2120.959	1.481	1480.8	generate	Run3	generate/STIM_019.jpg	99
2125.668	1.02	1020.5	generate	Run3	generate/STIM_019.jpg	100
2128.981	1.566	1565.9	generate	Run3	generate/STIM_019.jpg	100
2133.008	1.395	1395.2	generate	Run3	generate/STIM_019.jpg	100
2137.233	1.619	1618.9	generate	Run3	generate/STIM_019.jpg	100
2141.091	1.344	1343.6	generate	Run3	generate/STIM_020.jpg	99
2146.161	0.899	899.1	generate	Run3	generate/STIM_020.jpg	100
2149.676	0.868	867.8	generate	Run3	generate/STIM_020.jpg	100
2154.492	0.783	782.7	generate	Run3	generate/STIM_020.jpg	99
2158.789	1.253	1252.8	generate	Run3	generate/STIM_020.jpg	99
2162.383	0.87	870.3	generate	Run3	generate/STIM_021.jpg	99
2166.176	1.214	1214.0	generate	Run3	generate/STIM_021.jpg	100
2170.051	0.879	878.7	generate	Run3	generate/STIM_021.jpg	99
2174.738	1.657	1656.7	generate	Run3	generate/STIM_021.jpg	100
2178.959	1.279	1279.1	generate	Run3	generate/STIM_021.jpg	99
2183.864	0.78	780.5	generate	Run3	generate/STIM_022.jpg	99
2187.412	1.535	1534.8	generate	Run3	generate/STIM_022.jpg	100
2192.64	1.649	1648.7	generate	Run3	generate/STIM_022.jpg	99
2196.819	0.889	889.0	generate	Run3	generate/STIM_022.jpg	100
2201.498	1.297	1297.4	generate	Run3	generate/STIM_022.jpg	100
2205.082	0.842	842.0	generate	Run3	generate/STIM_023.jpg	100
2208.102	1.108	1108.1	generate	Run3	generate/STIM_023.jpg	100
2211.622	1.016	1015.6	generate	Run3	generate/STIM_023.jpg	99
2215.708	1.563	1563.1	generate	Run3	generate/STIM_023.jpg	99
2220.971	1.598	1597.5	generate	Run3	generate/STIM_023.jpg	99
2224.79	1.047	1046.8	generate	Run3	generate/STIM_024.jpg	99
2228.517	1.176	1176.5	generate	Run3	generate/STIM_024.jpg	99
2233.683	1.506	1506.3	generate	Run3	generate/STIM_024.jpg	99
2238.36	0.854	853.5	generate	Run3	generate/STIM_024.jpg	99
2241.512	1.114	1113.7	generate	Run3	generate/STIM_024.jpg	100
2245.848	0.864	863.6	repeat	Run3	repeat/STIM_000.jpg	99
2248.89	0.844	843.7	repeat	Run3	repeat/STIM_000.jpg	100
2252.356	0.559	558.9	repeat	Run3	repeat/STIM_000.jpg	99
2255.581	0.44	439.9	repeat	Run3	repeat/STIM_000.jpg	99
2259.235	0.792	792.4	repeat	Run3	repeat/STIM_000.jpg	100
2262.422	0.826	825.7	repeat	Run3	repeat/STIM_001.jpg	100
2266.751	0.809	809.0	repeat	Run3	repeat/STIM_001.jpg	100
2269.909	0.505	505.3	repeat	Run3	repeat/STIM_001.jpg	99
2272.651	0.821	820.7	repeat	Run3	repeat/STIM_001.jpg	99
2276.519	0.66	660.3	repeat	Run3	repeat/STIM_001.jpg	99
2280.072	0.701	701.4	repeat	Run3	repeat/STIM_002.jpg	99
2282.943	0.816	815.9	repeat	Run3	repeat/STIM_002.jpg	99
2286.398	0.688	688.1	repeat	Run3	repeat/STIM_002.jpg	100
2289.616	0.584	583.5	repeat	Run3	repeat/STIM_002.jpg	99
2293.956	0.685	685.4	repeat	Run3	repeat/STIM_002.jpg	100
2297.841	0.443	443.0	repeat	Run3	repeat/STIM_003.jpg	100
2301.286	0.741	740.7	repeat	Run3	repeat/STIM_003.jpg	99
2304.591	0.804	804.0	repeat	Run3	repeat/STIM_003.jpg	100
2307.727	0.833	832.7	repeat	Run3	repeat/STIM_003.jpg	100
2311.732	0.817	817.1	repeat	Run3	repeat/STIM_003.jpg	100
2315.728	0.485	485.2	repeat	Run3	repeat/STIM_004.jpg	99
2319.071	0.59	590.4	repeat	Run3	repeat/STIM_004.jpg	99
2321.892	0.837	837.3	repeat	Run3	repeat/STIM_004.jpg	99
2326.119	0.815	814.6	repeat	Run3	repeat/STIM_004.jpg	99
2329.544	0.591	591.2	repeat	Run3	repeat/STIM_004.jpg	100
2333.995	0.507	507.2	repeat	Run3	repeat/STIM_005.jpg	99
2337.331	0.543	542.6	repeat	Run3	repeat/STIM_005.jpg	99
2339.937	0.707	707.3	repeat	Run3	repeat/STIM_005.jpg	100
2344.586	0.606	605.8	repeat	Run3	repeat/STIM_005.jpg	100
2348.486	0.629	629.0	repeat	Run3	repeat/STIM_005.jpg	99
2351.619	0.731	730.9	repeat	Run3	repeat/STIM_006.jpg	100
2356.104	0.694	693.5	repeat	Run3	repeat/STIM_006.jpg	100
2358.997	0.547	547.0	repeat	Run3	repeat/STIM_006.jpg	100
2362.121	0.597	597.3	repeat	Run3	repeat/STIM_006.jpg	100
2364.852	0.477	477.3	repeat	Run3	repeat/STIM_006.jpg	99
2367.47	0.749	748.7	repeat	Run3	repeat/STIM_007.jpg	99
2371.712	0.565	565.4	repeat	Run3	repeat/STIM_007.jpg	99
2376.079	0.447	447.0	repeat	Run3	repeat/STIM_007.jpg	99
2378.608	0.562	562.3	repeat	Run3	repeat/STIM_007.jpg	99
2382.642	0.672	672.4	repeat	Run3	repeat/STIM_007.jpg	100
2386.903	0.725	724.7	repeat	Run3	repeat/STIM_008.jpg	100
2390.028	0.662	662.3	repeat	Run3	repeat/STIM_008.jpg	99
2393.397	0.672	672.4	repeat	Run3	repeat/STIM_008.jpg	100
2397.84	0.578	578.0	repeat	Run3	repeat/STIM_008.jpg	100
2401.278	0.566	566.1	repeat	Run3	repeat/STIM_008.jpg	100
2404.478	0.827	826.9	repeat	Run3	repeat/STIM_009.jpg	100
2407.71	0.558	558.5	repeat	Run3	repeat/STIM_009.jpg	100
2411.041	0.55	550.5	repeat	Run3	repeat/STIM_009.jpg	99
2414.66	0.807	807.3	repeat	Run3	repeat/STIM_009.jpg	99
2418.064	0.5	499.6	repeat	Run3	repeat/STIM_009.jpg	100
2422.519	0.864	864.1	repeat	Run3	repeat/STIM_010.jpg	99
2426.523	0.792	792.0	repeat	Run3	repeat/STIM_010.jpg	99
2431.236	0.578	578.0	repeat	Run3	repeat/STIM_010.jpg	99
2435.211	0.537	536.6	repeat	Run3	repeat/STIM_010.jpg	99
2437.866	0.811	810.9	repeat	Run3	repeat/STIM_010.jpg	99
2442.022	0.839	839.0	repeat	Run3	repeat/STIM_011.jpg	100
2445.047	0.759	758.8	repeat	Run3	repeat/STIM_011.jpg	99
2449.756	0.513	513.3	repeat	Run3	repeat/STIM_011.jpg	99
2454.222	0.651	650.9	repeat	Run3	repeat/STIM_011.jpg	99
2458.863	0.859	858.6	repeat	Run3	repeat/STIM_011.jpg	99
2463.625	0.794	793.9	repeat	Run3	repeat/STIM_012.jpg	99
2466.479	0.676	675.9	repeat	Run3	repeat/STIM_012.jpg	100
2470.512	0.598	598.4	repeat	Run3	repeat/STIM_012.jpg	99
2473.782	0.691	690.9	repeat	Run3	repeat/STIM_012.jpg	100
2476.785	0.779	779.2	repeat	Run3	repeat/STIM_012.jpg	100
2480.963	0.782	782.3	repeat	Run3	repeat/STIM_013.jpg	100
2484.902	0.73	730.3	repeat	Run3	repeat/STIM_013.jpg	100
2488.885	0.824	823.7	repeat	Run3	repeat/STIM_013.jpg	100
2492.306	0.854	854.0	repeat	Run3	repeat/STIM_013.jpg	100
2496.73	0.496	496.4	repeat	Run3	repeat/STIM_013.jpg	99
2499.363	0.534	533.9	repeat	Run3	repeat/STIM_014.jpg	99
2502.929	0.722	721.7	repeat	Run3	repeat/STIM_014.jpg	100
2506.165	0.661	661.2	repeat	Run3	repeat/STIM_014.jpg	100
2510.457	0.664	664.1	repeat	Run3	repeat/STIM_014.jpg	100
2513.803	0.733	733.1	repeat	Run3	repeat/STIM_014.jpg	100
2518.184	1.31	1310.3	generate	Run4	generate/STIM_000.jpg	100
2521.635	1.182	1181.5	generate	Run4	generate/STIM_000.jpg	99
2526.601	0.979	979.0	generate	Run4	generate/STIM_000.jpg	100
2530.709	1.127	1127.2	generate	Run4	generate/STIM_000.jpg	100
2534.056	1.114	1113.9	generate	Run4	generate/STIM_000.jpg	99
2538.23	0.815	814.7	generate	Run4	generate/STIM_001.jpg	99
2542.854	1.047	1047.0	generate	Run4	generate/STIM_001.jpg	100
2547.498	1.293	1292.6	generate	Run4	generate/STIM_001.jpg	100
2551.637	1.546	1545.6	generate	Run4	generate/STIM_001.jpg	99
2555.676	0.951	950.9	generate	Run4	generate/STIM_001.jpg	99
2559.553	1.691	1690.7	generate	Run4	generate/STIM_002.jpg	99
2565.021	1.735	1735.0	generate	Run4	generate/STIM_002.jpg	100
2570.321	1.191	1191.0	generate	Run4	generate/STIM_002.jpg	99
2575.155	1.394	1393.7	generate	Run4	generate/STIM_002.jpg	99
2579.351	1.036	1036.3	generate	Run4	generate/STIM_002.jpg	99
2584.251	1.018	1018.0	generate	Run4	generate/STIM_003.jpg	99
2587.489	1.164	1163.5	generate	Run4	generate/STIM_003.jpg	99
2591.372	1.302	1302.0	generate	Run4	generate/STIM_003.jpg	99
2594.72	1.548	1548.3	generate	Run4	generate/STIM_003.jpg	100
2598.579	1.154	1154.4	generate	Run4	generate/STIM_003.jpg	100
2602.481	1.216	1215.8	generate	Run4	generate/STIM_004.jpg	99
2606.841	1.482	1481.9	generate	Run4	generate/STIM_004.jpg	100
2611.377	1.615	1615.3	generate	Run4	generate/STIM_004.jpg	100
2616.576	0.91	910.2	generate	Run4	generate/STIM_004.jpg	100
2619.925	1.17	1169.9	generate	Run4	generate/STIM_004.jpg	99
2623.351	1.27	1270.5	generate	Run4	generate/STIM_005.jpg	99
2628.268	0.945	945.2	generate	Run4	generate/STIM_005.jpg	100
2633.002	0.928	927.9	generate	Run4	generate/STIM_005.jpg	99
2636.357	1.272	1271.5	generate	Run4	generate/STIM_005.jpg	99
2639.797	0.791	790.6	generate	Run4	generate/STIM_005.jpg	99
2644.555	1.017	1017.2	generate	Run4	generate/STIM_006.jpg	99
2648.733	0.772	772.0	generate	Run4	generate/STIM_006.jpg	100
2651.58	0.942	941.5	generate	Run4	generate/STIM_006.jpg	100
2655.137	0.83	830.0	generate	Run4	generate/STIM_006.jpg	100
2658.444	1.392	1391.8	generate	Run4	generate/STIM_006.jpg	99
2663.463	1.199	1198.8	generate	Run4	generate/STIM_007.jpg	99
2667.911	1.113	1112.8	generate	Run4	generate/STIM_007.jpg	100
2672.614	1.194	1193.5	generate	Run4	generate/STIM_007.jpg	100
2676.321	1.09	1090.4	generate	Run4	generate/STIM_007.jpg	100
2681.283	1.002	1002.2	generate	Run4	generate/STIM_007.jpg	100
2684.664	1.237	1236.6	generate	Run4	generate/STIM_008.jpg	100
2688.205	1.355	1355.2	generate	Run4	generate/STIM_008.jpg	100
2691.821	0.94	939.6	generate	Run4	generate/STIM_008.jpg	100
2695.505	0.822	822.3	generate	Run4	generate/STIM_008.jpg	100
2700.167	1.821	1820.7	generate	Run4	generate/STIM_008.jpg	100
2705.392	1.597	1597.1	generate	Run4	generate/STIM_009.jpg	100
2709.424	1.333	1332.8	generate	Run4	generate/STIM_009.jpg	100
2713.047	0.749	749.1	generate	Run4	generate/STIM_009.jpg	100
2715.965	1.035	1034.6	generate	Run4	generate/STIM_009.jpg	99
2719.99	1.251	1250.9	generate	Run4	generate/STIM_009.jpg	100
2723.439	1.666	1666.3	generate	Run4	generate/STIM_010.jpg	100
2727.352	0.77	770.0	generate	Run4	generate/STIM_010.jpg	99
2731.444	1.261	1260.7	generate	Run4	generate/STIM_010.jpg	99
2734.771	1.042	1042.4	generate	Run4	generate/STIM_010.jpg	100
2738.701	1.705	1705.1	generate	Run4	generate/STIM_010.jpg	100
2743.101	1.649	1649.1	generate	Run4	generate/STIM_011.jpg	99
2748.373	0.784	783.7	generate	Run4	generate/STIM_011.jpg	99
2752.594	1.412	1411.9	generate	Run4	generate/STIM_011.jpg	100
2757.748	1.466	1465.7	generate	Run4	generate/STIM_011.jpg	99
2761.977	0.984	983.9	generate	Run4	generate/STIM_011.jpg	99
2765.166	1.447	1446.8	generate	Run4	generate/STIM_012.jpg	99
2769.566	1.383	1383.0	generate	Run4	generate/STIM_012.jpg	99
2773.41	1.147	1146.8	generate	Run4	generate/STIM_012.jpg	100
2777.626	1.036	1035.7	generate	Run4	generate/STIM_012.jpg	100
2781.093	1.339	1338.6	generate	Run4	generate/STIM_012.jpg	99
2784.973	1.22	1220.1	generate	Run4	generate/STIM_013.jpg	99
2788.814	1.1	1100.2	generate	Run4	generate/STIM_013.jpg	100
2793.313	1.513	1513.0	generate	Run4	generate/STIM_013.jpg	99
2797.049	1.583	1582.7	generate	Run4	generate/STIM_013.jpg	100
2801.348	0.869	868.8	generate	Run4	generate/STIM_013.jpg	99
2804.42	1.305	1305.3	generate	Run4	generate/STIM_014.jpg	99
2809.164	1.388	1387.9	generate	Run4	generate/STIM_014.jpg	100
2814.027	1.128	1128.4	generate	Run4	generate/STIM_014.jpg	99
2818.856	1.486	1485.6	generate	Run4	generate/STIM_014.jpg	100
2822.498	1.321	1321.3	generate	Run4	generate/STIM_014.jpg	100
2826.259	0.979	978.6	generate	Run4	generate/STIM_015.jpg	99
2830.481	1.366	1366.5	generate	Run4	generate/STIM_015.jpg	99
2833.905	1.001	1001.1	generate	Run4	generate/STIM_015.jpg	99
2838.361	1.547	1546.8	generate	Run4	generate/STIM_015.jpg	100
2843.618	1.056	1056.0	generate	Run4	generate/STIM_015.jpg	100
2847.863	0.793	793.2	generate	Run4	generate/STIM_016.jpg	99
2851.699	1.158	1158.0	generate	Run4	generate/STIM_016.jpg	100
2855.87	1.584	1583.8	generate	Run4	generate/STIM_016.jpg	99
2859.987	0.992	991.8	generate	Run4	generate/STIM_016.jpg	100
2864.729	1.215	1215.3	generate	Run4	generate/STIM_016.jpg	100
2868.91	1.805	1805.4	generate	Run4	generate/STIM_017.jpg	99
2874.602	1.354	1353.5	generate	Run4	generate/STIM_017.jpg	100
2878.16	1.477	1477.1	generate	Run4	generate/STIM_017.jpg	99
2881.796	1.28	1279.6	generate	Run4	generate/STIM_017.jpg	100
2886.483	1.711	1710.8	generate	Run4	generate/STIM_017.jpg	99
2891.09	1.702	1702.4	generate	Run4	generate/STIM_018.jpg	100
2895.901	1.634	1634.4	generate	Run4	generate/STIM_018.jpg	99
2901.465	1.272	1271.7	generate	Run4	generate/STIM_018.jpg	99
2906.421	1.339	1339.0	generate	Run4	generate/STIM_018.jpg	100
2911.671	1.363	1363.1	generate	Run4	generate/STIM_018.jpg	99
2915.326	1.042	1041.7	generate	Run4	generate/STIM_019.jpg	99
2919.06	0.99	990.5	generate	Run4	generate/STIM_019.jpg	100
2923.164	0.974	974.5	generate	Run4	generate/STIM_019.jpg	99
2927.322	0.877	877.3	generate	Run4	generate/STIM_019.jpg	100
2931.104	1.215	1215.4	generate	Run4	generate/STIM_019.jpg	100
2935.567	1.075	1075.4	generate	Run4	generate/STIM_020.jpg	99
2939.61	1.718	1717.6	generate	Run4	generate/STIM_020.jpg	99
2944.073	1.004	1003.9	generate	Run4	generate/STIM_020.jpg	99
2947.851	1.769	1768.6	generate	Run4	generate/STIM_020.jpg	99
2953.507	1.059	1058.9	generate	Run4	generate/STIM_020.jpg	99
2956.844	1.144	1143.5	generate	Run4	generate/STIM_021.jpg	99
2960.859	1.3	1300.1	generate	Run4	generate/STIM_021.jpg	99
2964.753	0.758	758.3	generate	Run4	generate/STIM_021.jpg	100
2969.477	1.465	1465.1	generate	Run4	generate/STIM_021.jpg	99
2973.957	1.768	1767.8	generate	Run4	generate/STIM_021.jpg	99
2978.297	1.359	1359.3	generate	Run4	generate/STIM_022.jpg	100
2982.034	0.754	753.5	generate	Run4	generate/STIM_022.jpg	99
2985.213	1.269	1269.2	generate	Run4	generate/STIM_022.jpg	100
2988.839	1.339	1338.7	generate	Run4	generate/STIM_022.jpg	100
2993.869	1.066	1065.8	generate	Run4	generate/STIM_022.jpg	100
2998.355	1.466	1466.5	generate	Run4	generate/STIM_023.jpg	100
3003.145	1.339	1339.3	generate	Run4	generate/STIM_023.jpg	99
3007.431	1.631	1631.0	generate	Run4	generate/STIM_023.jpg	100
3012.208	0.844	843.5	generate	Run4	generate/STIM_023.jpg	99
3016.294	1.366	1365.7	generate	Run4	generate/STIM_023.jpg	99
3019.899	1.403	1403.2	generate	Run4	generate/STIM_024.jpg	99
3024.16	1.355	1354.9	generate	Run4	generate/STIM_024.jpg	100
3029.457	0.893	892.8	generate	Run4	generate/STIM_024.jpg	99
3034.27	1.752	1752.5	generate	Run4	generate/STIM_024.jpg	99
3038.586	1.445	1445.4	generate	Run4	generate/STIM_024.jpg	99
3043.098	0.583	583.4	repeat	Run4	repeat/STIM_000.jpg	100
3047.298	0.486	486.0	repeat	Run4	repeat/STIM_000.jpg	100
3051.522	0.816	815.7	repeat	Run4	repeat/STIM_000.jpg	100
3054.928	0.54	540.3	repeat	Run4	repeat/STIM_000.jpg	99
3058.031	0.837	837.4	repeat	Run4	repeat/STIM_000.jpg	99
3062.832	0.799	799.4	repeat	Run4	repeat/STIM_001.jpg	100
3065.789	0.454	453.7	repeat	Run4	repeat/STIM_001.jpg	99
3068.617	0.782	782.3	repeat	Run4	repeat/STIM_001.jpg	99
3072.1	0.75	749.5	repeat	Run4	repeat/STIM_001.jpg	100
3076.555	0.712	711.7	repeat	Run4	repeat/STIM_001.jpg	99
3080.433	0.859	858.7	repeat	Run4	repeat/STIM_002.jpg	100
3083.687	0.795	794.7	repeat	Run4	repeat/STIM_002.jpg	100
3087.723	0.535	534.8	repeat	Run4	repeat/STIM_002.jpg	99
3092.209	0.452	452.1	repeat	Run4	repeat/STIM_002.jpg	99
3096.638	0.601	600.8	repeat	Run4	repeat/STIM_002.jpg	99
3099.247	0.542	542.5	repeat	Run4	repeat/STIM_003.jpg	100
3103.491	0.7	699.5	repeat	Run4	repeat/STIM_003.jpg	99
3106.73	0.821	821.3	repeat	Run4	repeat/STIM_003.jpg	100
3111.05	0.735	734.6	repeat	Run4	repeat/STIM_003.jpg	99
3115.605	0.55	549.9	repeat	Run4	repeat/STIM_003.jpg	99
3120.023	0.87	870.4	repeat	Run4	repeat/STIM_004.jpg	100
3123.679	0.782	782.1	repeat	Run4	repeat/STIM_004.jpg	99
3127.433	0.832	832.3	repeat	Run4	repeat/STIM_004.jpg	99
3130.823	0.806	806.1	repeat	Run4	repeat/STIM_004.jpg	100
3134.656	0.517	517.3	repeat	Run4	repeat/STIM_004.jpg	99
3138.771	0.872	872.5	repeat	Run4	repeat/STIM_005.jpg	100
3143.475	0.811	810.7	repeat	Run4	repeat/STIM_005.jpg	99
3148.166	0.514	513.6	repeat	Run4	repeat/STIM_005.jpg	99
3151.703	0.539	539.2	repeat	Run4	repeat/STIM_005.jpg	99
3154.743	0.464	463.6	repeat	Run4	repeat/STIM_005.jpg	100
3158.935	0.822	822.0	repeat	Run4	repeat/STIM_006.jpg	100
3162.592	0.518	518.3	repeat	Run4	repeat/STIM_006.jpg	100
3166.809	0.637	636.8	repeat	Run4	repeat/STIM_006.jpg	99
3170.459	0.634	633.7	repeat	Run4	repeat/STIM_006.jpg	99
3173.597	0.803	802.7	repeat	Run4	repeat/STIM_006.jpg	100
3177.307	0.622	621.7	repeat	Run4	repeat/STIM_007.jpg	100
3181.261	0.449	449.0	repeat	Run4	repeat/STIM_007.jpg	99
3183.711	0.616	615.8	repeat	Run4	repeat/STIM_007.jpg	99
3187.044	0.807	806.8	repeat	Run4	repeat/STIM_007.jpg	100
3190.217	0.676	675.6	repeat	Run4	repeat/STIM_007.jpg	100
3194.309	0.785	785.4	repeat	Run4	repeat/STIM_008.jpg	100
3197.991	0.646	646.1	repeat	Run4	repeat/STIM_008.jpg	100
3201.354	0.801	801.1	repeat	Run4	repeat/STIM_008.jpg	99
3204.22	0.574	574.1	repeat	Run4	repeat/STIM_008.jpg	100
3207.964	0.826	826.1	repeat	Run4	repeat/STIM_008.jpg	99
3210.89	0.612	612.5	repeat	Run4	repeat/STIM_009.jpg	99
3215.29	0.438	438.2	repeat	Run4	repeat/STIM_009.jpg	99
3218.704	0.718	717.6	repeat	Run4	repeat/STIM_009.jpg	99
3222.306	0.806	805.6	repeat	Run4	repeat/STIM_009.jpg	99
3225.169	0.723	722.8	repeat	Run4	repeat/STIM_009.jpg	100
3229.713	0.557	557.2	repeat	Run4	repeat/STIM_010.jpg	99
3234.161	0.513	513.2	repeat	Run4	repeat/STIM_010.jpg	100
3236.813	0.654	654.1	repeat	Run4	repeat/STIM_010.jpg	100
3239.675	0.548	547.9	repeat	Run4	repeat/STIM_010.jpg	99
3243.252	0.703	703.2	repeat	Run4	repeat/STIM_010.jpg	100
3246.315	0.602	601.7	repeat	Run4	repeat/STIM_011.jpg	100
3250.107	0.451	450.7	repeat	Run4	repeat/STIM_011.jpg	99
3253.991	0.669	668.9	repeat	Run4	repeat/STIM_011.jpg	100
3258.011	0.857	857.2	repeat	Run4	repeat/STIM_011.jpg	100
3262.354	0.818	817.9	repeat	Run4	repeat/STIM_011.jpg	99
3266.707	0.563	563.2	repeat	Run4	repeat/STIM_012.jpg	99
3270.44	0.64	640.4	repeat	Run4	repeat/STIM_012.jpg	100
3274.07	0.758	758.5	repeat	Run4	repeat/STIM_012.jpg	100
3278.293	0.476	476.0	repeat	Run4	repeat/STIM_012.jpg	100
3282.067	0.738	738.0	repeat	Run4	repeat/STIM_012.jpg	100
3285.314	0.646	645.6	repeat	Run4	repeat/STIM_013.jpg	99
3288.805	0.617	617.2	repeat	Run4	repeat/STIM_013.jpg	99
3291.539	0.457	456.6	repeat	Run4	repeat/STIM_013.jpg	99
3294.781	0.573	572.7	repeat	Run4	repeat/STIM_013.jpg	99
3299.275	0.746	745.7	repeat	Run4	repeat/STIM_013.jpg	99
3302.482	0.647	647.1	repeat	Run4	repeat/STIM_014.jpg	99
3305.457	0.634	633.6	repeat	Run4	repeat/STIM_014.jpg	100
3309.329	0.836	836.2	repeat	Run4	repeat/STIM_014.jpg	100
3313.738	0.707	707.1	repeat	Run4	repeat/STIM_014.jpg	100
3317.873	0.541	540.9	repeat	Run4	repeat/STIM_014.jpg	99
