onset	duration	accuracy	trial_type	learning_stage	stimulus
0.0	1.562	correct	regulate	Run1	regulate/STIM_000.jpg
5.491	2.352	correct	regulate	Run1	regulate/STIM_000.jpg
11.024	2.16	correct	regulate	Run1	regulate/STIM_000.jpg
15.721	1.566	correct	regulate	Run1	regulate/STIM_000.jpg
20.651	3.072	correct	regulate	Run1	regulate/STIM_001.jpg
26.357	1.608	correct	regulate	Run1	regulate/STIM_001.jpg
31.796	2.372	correct	regulate	Run1	regulate/STIM_001.jpg
37.608	1.463	incorrect	regulate	Run1	regulate/STIM_001.jpg
42.976	2.772	correct	regulate	Run1	regulate/STIM_002.jpg
49.119	2.202	incorrect	regulate	Run1	regulate/STIM_002.jpg
55.247	2.231	correct	regulate	Run1	regulate/STIM_002.jpg
61.23	1.6	incorrect	regulate	Run1	regulate/STIM_002.jpg
66.72	2.991	correct	regulate	Run1	regulate/STIM_003.jpg
72.386	1.905	correct	regulate	Run1	regulate/STIM_003.jpg
77.762	1.556	correct	regulate	Run1	regulate/STIM_003.jpg
83.467	1.902	correct	regulate	Run1	regulate/STIM_003.jpg
88.245	2.645	correct	regulate	Run1	regulate/STIM_004.jpg
94.411	1.938	correct	regulate	Run1	regulate/STIM_004.jpg
98.775	2.408	correct	regulate	Run1	regulate/STIM_004.jpg
104.274	1.236	correct	regulate	Run1	regulate/STIM_004.jpg
108.45	2.1	correct	regulate	Run1	regulate/STIM_005.jpg
114.61	2.775	incorrect	regulate	Run1	regulate/STIM_005.jpg
119.855	1.208	correct	regulate	Run1	regulate/STIM_005.jpg
124.02	2.258	correct	regulate	Run1	regulate/STIM_005.jpg
129.656	1.454	incorrect	regulate	Run1	regulate/STIM_006.jpg
134.039	2.896	correct	regulate	Run1	regulate/STIM_006.jpg
140.295	1.668	correct	regulate	Run1	regulate/STIM_006.jpg
145.836	1.981	correct	regulate	Run1	regulate/STIM_006.jpg
151.551	1.846	incorrect	regulate	Run1	regulate/STIM_007.jpg
156.526	1.431	correct	regulate	Run1	regulate/STIM_007.jpg
161.52	1.974	correct	regulate	Run1	regulate/STIM_007.jpg
166.115	2.072	correct	regulate	Run1	regulate/STIM_007.jpg
171.153	2.933	correct	regulate	Run1	regulate/STIM_008.jpg
177.111	1.991	incorrect	regulate	Run1	regulate/STIM_008.jpg
182.656	1.957	incorrect	regulate	Run1	regulate/STIM_008.jpg
187.413	2.456	correct	regulate	Run1	regulate/STIM_008.jpg
192.502	2.287	incorrect	regulate	Run1	regulate/STIM_009.jpg
198.052	2.018	incorrect	regulate	Run1	regulate/STIM_009.jpg
203.753	2.175	correct	regulate	Run1	regulate/STIM_009.jpg
209.713	1.96	correct	regulate	Run1	regulate/STIM_009.jpg
213.962	2.856	correct	regulate	Run1	regulate/STIM_010.jpg
220.959	1.988	correct	regulate	Run1	regulate/STIM_010.jpg
227.127	2.365	correct	regulate	Run1	regulate/STIM_010.jpg
232.958	2.439	correct	regulate	Run1	regulate/STIM_010.jpg
237.839	2.623	correct	regulate	Run1	regulate/STIM_011.jpg
244.522	2.804	correct	regulate	Run1	regulate/STIM_011.jpg
249.741	2.161	correct	regulate	Run1	regulate/STIM_011.jpg
256.105	1.874	correct	regulate	Run1	regulate/STIM_011.jpg
262.041	1.404	correct	regulate	Run1	regulate/STIM_012.jpg
267.53	2.031	correct	regulate	Run1	regulate/STIM_012.jpg
271.94	1.304	correct	regulate	Run1	regulate/STIM_012.jpg
277.355	1.275	correct	regulate	Run1	regulate/STIM_012.jpg
282.132	1.743	correct	regulate	Run1	regulate/STIM_013.jpg
288.035	1.564	correct	regulate	Run1	regulate/STIM_013.jpg
292.739	1.683	correct	regulate	Run1	regulate/STIM_013.jpg
296.88	1.87	incorrect	regulate	Run1	regulate/STIM_013.jpg
301.298	1.464	correct	regulate	Run1	regulate/STIM_014.jpg
306.771	2.195	correct	regulate	Run1	regulate/STIM_014.jpg
312.913	2.3	correct	regulate	Run1	regulate/STIM_014.jpg
318.225	2.548	correct	regulate	Run1	regulate/STIM_014.jpg
323.361	2.445	incorrect	regulate	Run1	regulate/STIM_015.jpg
329.074	1.55	correct	regulate	Run1	regulate/STIM_015.jpg
334.691	2.231	correct	regulate	Run1	regulate/STIM_015.jpg
339.421	1.749	correct	regulate	Run1	regulate/STIM_015.jpg
345.214	2.318	correct	regulate	Run1	regulate/STIM_016.jpg
351.804	2.246	correct	regulate	Run1	regulate/STIM_016.jpg
356.38	1.622	correct	regulate	Run1	regulate/STIM_016.jpg
360.746	1.808	incorrect	regulate	Run1	regulate/STIM_016.jpg
365.212	1.696	correct	regulate	Run1	regulate/STIM_017.jpg
370.914	2.098	incorrect	regulate	Run1	regulate/STIM_017.jpg
376.573	1.791	correct	regulate	Run1	regulate/STIM_017.jpg
381.149	1.647	correct	regulate	Run1	regulate/STIM_017.jpg
386.343	1.861	correct	regulate	Run1	regulate/STIM_018.jpg
390.657	1.275	correct	regulate	Run1	regulate/STIM_018.jpg
394.146	2.409	incorrect	regulate	Run1	regulate/STIM_018.jpg
398.972	1.898	correct	regulate	Run1	regulate/STIM_018.jpg
403.655	1.754	correct	regulate	Run1	regulate/STIM_019.jpg
407.711	2.734	correct	regulate	Run1	regulate/STIM_019.jpg
414.102	2.366	correct	regulate	Run1	regulate/STIM_019.jpg
418.89	2.042	correct	regulate	Run1	regulate/STIM_019.jpg
424.274	1.694	correct	regulate	Run1	regulate/STIM_020.jpg
429.348	1.678	correct	regulate	Run1	regulate/STIM_020.jpg
433.759	1.259	correct	regulate	Run1	regulate/STIM_020.jpg
438.126	1.168	correct	regulate	Run1	regulate/STIM_020.jpg
443.312	1.909	correct	regulate	Run1	regulate/STIM_021.jpg
448.703	2.281	correct	regulate	Run1	regulate/STIM_021.jpg
454.992	1.47	correct	regulate	Run1	regulate/STIM_021.jpg
458.92	1.419	incorrect	regulate	Run1	regulate/STIM_021.jpg
463.855	2.658	correct	regulate	Run1	regulate/STIM_022.jpg
469.76	2.832	correct	regulate	Run1	regulate/STIM_022.jpg
475.314	1.48	correct	regulate	Run1	regulate/STIM_022.jpg
479.191	1.243	correct	regulate	Run1	regulate/STIM_022.jpg
483.058	2.05	correct	regulate	Run1	regulate/STIM_023.jpg
489.161	2.142	correct	regulate	Run1	regulate/STIM_023.jpg
494.594	1.376	correct	regulate	Run1	regulate/STIM_023.jpg
498.214	2.613	correct	regulate	Run1	regulate/STIM_023.jpg
503.569	1.478	correct	regulate	Run1	regulate/STIM_024.jpg
507.448	2.826	correct	regulate	Run1	regulate/STIM_024.jpg
513.239	2.522	correct	regulate	Run1	regulate/STIM_024.jpg
518.128	2.085	correct	regulate	Run1	regulate/STIM_024.jpg
524.11	3.018	incorrect	regulate	Run1	regulate/STIM_025.jpg
530.393	1.882	incorrect	regulate	Run1	regulate/STIM_025.jpg
535.159	2.204	correct	regulate	Run1	regulate/STIM_025.jpg
539.945	2.423	correct	regulate	Run1	regulate/STIM_025.jpg
546.078	1.952	incorrect	regulate	Run1	regulate/STIM_026.jpg
551.795	2.722	correct	regulate	Run1	regulate/STIM_026.jpg
557.812	1.95	correct	regulate	Run1	regulate/STIM_026.jpg
562.825	1.222	correct	regulate	Run1	regulate/STIM_026.jpg
566.918	2.065	correct	regulate	Run1	regulate/STIM_027.jpg
571.935	1.845	incorrect	regulate	Run1	regulate/STIM_027.jpg
577.915	1.649	correct	regulate	Run1	regulate/STIM_027.jpg
582.311	2.248	correct	regulate	Run1	regulate/STIM_027.jpg
587.732	2.674	correct	regulate	Run1	regulate/STIM_028.jpg
593.549	1.407	correct	regulate	Run1	regulate/STIM_028.jpg
597.95	2.681	correct	regulate	Run1	regulate/STIM_028.jpg
604.849	2.099	correct	regulate	Run1	regulate/STIM_028.jpg
609.803	2.144	correct	regulate	Run1	regulate/STIM_029.jpg
616.024	1.544	correct	regulate	Run1	regulate/STIM_029.jpg
621.602	1.934	correct	regulate	Run1	regulate/STIM_029.jpg
626.905	1.361	correct	regulate	Run1	regulate/STIM_029.jpg
632.348	1.042	incorrect	observe	Run1	observe/STIM_000.jpg
636.552	1.183	correct	observe	Run1	observe/STIM_000.jpg
641.564	1.114	correct	observe	Run1	observe/STIM_000.jpg
646.648	0.85	correct	observe	Run1	observe/STIM_000.jpg
649.627	1.062	correct	observe	Run1	observe/STIM_001.jpg
652.927	1.229	incorrect	observe	Run1	observe/STIM_001.jpg
657.849	1.195	correct	observe	Run1	observe/STIM_001.jpg
661.457	0.928	incorrect	observe	Run1	observe/STIM_001.jpg
665.975	1.014	correct	observe	Run1	observe/STIM_002.jpg
669.207	0.742	correct	observe	Run1	observe/STIM_002.jpg
673.645	0.901	correct	observe	Run1	observe/STIM_002.jpg
678.29	1.027	correct	observe	Run1	observe/STIM_002.jpg
681.764	0.847	incorrect	observe	Run1	observe/STIM_003.jpg
686.044	0.711	correct	observe	Run1	observe/STIM_003.jpg
689.282	1.302	correct	observe	Run1	observe/STIM_003.jpg
693.059	1.092	correct	observe	Run1	observe/STIM_003.jpg
696.743	0.758	correct	observe	Run1	observe/STIM_004.jpg
700.81	1.097	correct	observe	Run1	observe/STIM_004.jpg
705.404	0.969	incorrect	observe	Run1	observe/STIM_004.jpg
709.382	0.924	correct	observe	Run1	observe/STIM_004.jpg
713.731	0.93	correct	observe	Run1	observe/STIM_005.jpg
716.924	0.931	correct	observe	Run1	observe/STIM_005.jpg
720.219	1.292	correct	observe	Run1	observe/STIM_005.jpg
725.559	0.821	correct	observe	Run1	observe/STIM_005.jpg
728.564	0.988	correct	observe	Run1	observe/STIM_006.jpg
732.845	0.842	correct	observe	Run1	observe/STIM_006.jpg
737.267	1.079	correct	observe	Run1	observe/STIM_006.jpg
742.454	1.039	correct	observe	Run1	observe/STIM_006.jpg
746.004	1.222	correct	observe	Run1	observe/STIM_007.jpg
750.974	1.033	correct	observe	Run1	observe/STIM_007.jpg
755.1	1.332	correct	observe	Run1	observe/STIM_007.jpg
760.002	1.35	correct	observe	Run1	observe/STIM_007.jpg
764.4	0.769	incorrect	observe	Run1	observe/STIM_008.jpg
768.427	1.081	correct	observe	Run1	observe/STIM_008.jpg
773.28	0.971	correct	observe	Run1	observe/STIM_008.jpg
777.858	0.756	correct	observe	Run1	observe/STIM_008.jpg
782.597	0.878	incorrect	observe	Run1	observe/STIM_009.jpg
787.529	1.18	correct	observe	Run1	observe/STIM_009.jpg
791.81	1.192	correct	observe	Run1	observe/STIM_009.jpg
796.824	0.775	correct	observe	Run1	observe/STIM_009.jpg
800.41	1.131	correct	observe	Run1	observe/STIM_010.jpg
805.34	1.162	correct	observe	Run1	observe/STIM_010.jpg
809.291	0.876	correct	observe	Run1	observe/STIM_010.jpg
812.731	1.411	correct	observe	Run1	observe/STIM_010.jpg
817.656	0.967	correct	observe	Run1	observe/STIM_011.jpg
820.967	1.149	incorrect	observe	Run1	observe/STIM_011.jpg
825.044	1.246	correct	observe	Run1	observe/STIM_011.jpg
828.883	1.108	correct	observe	Run1	observe/STIM_011.jpg
833.146	1.278	correct	observe	Run1	observe/STIM_012.jpg
837.127	0.82	correct	observe	Run1	observe/STIM_012.jpg
840.659	1.031	correct	observe	Run1	observe/STIM_012.jpg
844.18	0.927	correct	observe	Run1	observe/STIM_012.jpg
848.833	1.014	correct	observe	Run1	observe/STIM_013.jpg
852.033	1.105	incorrect	observe	Run1	observe/STIM_013.jpg
855.719	0.713	correct	observe	Run1	observe/STIM_013.jpg
858.975	1.182	correct	observe	Run1	observe/STIM_013.jpg
863.063	0.715	correct	observe	Run1	observe/STIM_014.jpg
867.079	1.356	correct	observe	Run1	observe/STIM_014.jpg
870.647	1.184	incorrect	observe	Run1	observe/STIM_014.jpg
874.016	1.223	correct	observe	Run1	observe/STIM_014.jpg
877.946	0.822	correct	observe	Run1	observe/STIM_015.jpg
882.418	0.772	correct	observe	Run1	observe/STIM_015.jpg
887.087	1.051	correct	observe	Run1	observe/STIM_015.jpg
892.209	0.993	correct	observe	Run1	observe/STIM_015.jpg
896.83	0.711	correct	observe	Run1	observe/STIM_016.jpg
900.45	0.853	correct	observe	Run1	observe/STIM_016.jpg
905.373	1.31	correct	observe	Run1	observe/STIM_016.jpg
909.735	0.78	correct	observe	Run1	observe/STIM_016.jpg
913.804	1.358	correct	observe	Run1	observe/STIM_017.jpg
918.736	0.934	correct	observe	Run1	observe/STIM_017.jpg
922.64	0.966	correct	observe	Run1	observe/STIM_017.jpg
925.754	0.737	correct	observe	Run1	observe/STIM_017.jpg
929.811	1.311	correct	observe	Run1	observe/STIM_018.jpg
934.776	1.317	incorrect	observe	Run1	observe/STIM_018.jpg
939.662	1.113	correct	observe	Run1	observe/STIM_018.jpg
943.432	1.234	correct	observe	Run1	observe/STIM_018.jpg
947.448	0.729	correct	observe	Run1	observe/STIM_019.jpg
951.857	1.326	correct	observe	Run1	observe/STIM_019.jpg
956.536	1.306	correct	observe	Run1	observe/STIM_019.jpg
961.877	1.216	correct	observe	Run1	observe/STIM_019.jpg
966.639	1.996	correct	regulate	Run2	regulate/STIM_000.jpg
970.969	1.931	correct	regulate	Run2	regulate/STIM_000.jpg
976.893	2.072	correct	regulate	Run2	regulate/STIM_000.jpg
982.854	1.731	correct	regulate	Run2	regulate/STIM_000.jpg
987.417	2.054	incorrect	regulate	Run2	regulate/STIM_001.jpg
992.172	2.48	correct	regulate	Run2	regulate/STIM_001.jpg
998.757	1.917	correct	regulate	Run2	regulate/STIM_001.jpg
1003.319	1.578	correct	regulate	Run2	regulate/STIM_001.jpg
1007.613	1.406	incorrect	regulate	Run2	regulate/STIM_002.jpg
1012.313	2.318	incorrect	regulate	Run2	regulate/STIM_002.jpg
1018.066	2.248	correct	regulate	Run2	regulate/STIM_002.jpg
1023.199	2.12	correct	regulate	Run2	regulate/STIM_002.jpg
1027.811	2.022	correct	regulate	Run2	regulate/STIM_003.jpg
1033.652	1.652	correct	regulate	Run2	regulate/STIM_003.jpg
1037.576	1.687	correct	regulate	Run2	regulate/STIM_003.jpg
1043.024	1.453	correct	regulate	Run2	regulate/STIM_003.jpg
1048.481	2.257	correct	regulate	Run2	regulate/STIM_004.jpg
1053.302	1.37	correct	regulate	Run2	regulate/STIM_004.jpg
1056.88	1.094	correct	regulate	Run2	regulate/STIM_004.jpg
1060.827	1.566	correct	regulate	Run2	regulate/STIM_004.jpg
1065.098	1.898	correct	regulate	Run2	regulate/STIM_005.jpg
1069.53	2.177	correct	regulate	Run2	regulate/STIM_005.jpg
1075.545	1.789	correct	regulate	Run2	regulate/STIM_005.jpg
1079.873	1.116	correct	regulate	Run2	regulate/STIM_005.jpg
1084.227	1.921	correct	regulate	Run2	regulate/STIM_006.jpg
1090.342	1.356	correct	regulate	Run2	regulate/STIM_006.jpg
1095.05	2.257	incorrect	regulate	Run2	regulate/STIM_006.jpg
1100.609	1.505	correct	regulate	Run2	regulate/STIM_006.jpg
1104.553	2.086	correct	regulate	Run2	regulate/STIM_007.jpg
1110.708	2.082	incorrect	regulate	Run2	regulate/STIM_007.jpg
1115.125	1.414	correct	regulate	Run2	regulate/STIM_007.jpg
1120.12	1.872	correct	regulate	Run2	regulate/STIM_007.jpg
1124.978	1.638	correct	regulate	Run2	regulate/STIM_008.jpg
1129.406	1.297	correct	regulate	Run2	regulate/STIM_008.jpg
1132.982	1.658	correct	regulate	Run2	regulate/STIM_008.jpg
1138.021	1.419	correct	regulate	Run2	regulate/STIM_008.jpg
1143.31	1.175	correct	regulate	Run2	regulate/STIM_009.jpg
1148.016	2.023	correct	regulate	Run2	regulate/STIM_009.jpg
1152.889	2.248	correct	regulate	Run2	regulate/STIM_009.jpg
1158.099	2.038	correct	regulate	Run2	regulate/STIM_009.jpg
1163.4	2.354	correct	regulate	Run2	regulate/STIM_010.jpg
1169.364	2.272	correct	regulate	Run2	regulate/STIM_010.jpg
1174.391	2.026	correct	regulate	Run2	regulate/STIM_010.jpg
1179.142	1.334	correct	regulate	Run2	regulate/STIM_010.jpg
1183.746	2.129	incorrect	regulate	Run2	regulate/STIM_011.jpg
1188.832	2.429	correct	regulate	Run2	regulate/STIM_011.jpg
1194.528	1.555	incorrect	regulate	Run2	regulate/STIM_011.jpg
1199.479	1.719	correct	regulate	Run2	regulate/STIM_011.jpg
1205.047	1.717	incorrect	regulate	Run2	regulate/STIM_012.jpg
1209.393	1.898	correct	regulate	Run2	regulate/STIM_012.jpg
1213.765	1.444	correct	regulate	Run2	regulate/STIM_012.jpg
1219.17	1.764	correct	regulate	Run2	regulate/STIM_012.jpg
1223.812	1.457	correct	regulate	Run2	regulate/STIM_013.jpg
1228.592	1.669	correct	regulate	Run2	regulate/STIM_013.jpg
1234.16	1.536	correct	regulate	Run2	regulate/STIM_013.jpg
1238.669	2.128	correct	regulate	Run2	regulate/STIM_013.jpg
1244.977	2.031	incorrect	regulate	Run2	regulate/STIM_014.jpg
1249.946	1.916	correct	regulate	Run2	regulate/STIM_014.jpg
1254.653	1.967	correct	regulate	Run2	regulate/STIM_014.jpg
1260.616	2.016	correct	regulate	Run2	regulate/STIM_014.jpg
1265.715	1.65	correct	regulate	Run2	regulate/STIM_015.jpg
1269.919	1.368	correct	regulate	Run2	regulate/STIM_015.jpg
1274.785	1.898	correct	regulate	Run2	regulate/STIM_015.jpg
1279.777	1.612	correct	regulate	Run2	regulate/STIM_015.jpg
1285.478	1.209	correct	regulate	Run2	regulate/STIM_016.jpg
1289.147	2.06	correct	regulate	Run2	regulate/STIM_016.jpg
1295.412	2.303	correct	regulate	Run2	regulate/STIM_016.jpg
1300.523	1.475	correct	regulate	Run2	regulate/STIM_016.jpg
1305.499	1.72	correct	regulate	Run2	regulate/STIM_017.jpg
1310.845	1.853	correct	regulate	Run2	regulate/STIM_017.jpg
1315.322	1.096	correct	regulate	Run2	regulate/STIM_017.jpg
1319.371	1.428	correct	regulate	Run2	regulate/STIM_017.jpg
1324.426	1.81	correct	regulate	Run2	regulate/STIM_018.jpg
1328.763	2.215	correct	regulate	Run2	regulate/STIM_018.jpg
1334.614	1.567	correct	regulate	Run2	regulate/STIM_018.jpg
1340.315	1.271	correct	regulate	Run2	regulate/STIM_018.jpg
1344.625	1.838	incorrect	regulate	Run2	regulate/STIM_019.jpg
1348.851	1.588	correct	regulate	Run2	regulate/STIM_019.jpg
1353.692	1.584	correct	regulate	Run2	regulate/STIM_019.jpg
1358.922	1.339	correct	regulate	Run2	regulate/STIM_019.jpg
1362.642	2.556	correct	regulate	Run2	regulate/STIM_020.jpg
1369.397	1.766	incorrect	regulate	Run2	regulate/STIM_020.jpg
1374.497	1.687	correct	regulate	Run2	regulate/STIM_020.jpg
1379.913	1.231	correct	regulate	Run2	regulate/STIM_020.jpg
1383.825	1.377	correct	regulate	Run2	regulate/STIM_021.jpg
1389.082	2.336	correct	regulate	Run2	regulate/STIM_021.jpg
1394.489	2.099	correct	regulate	Run2	regulate/STIM_021.jpg
1400.534	1.517	correct	regulate	Run2	regulate/STIM_021.jpg
1405.829	2.015	correct	regulate	Run2	regulate/STIM_022.jpg
1410.417	1.19	correct	regulate	Run2	regulate/STIM_022.jpg
1414.69	2.033	correct	regulate	Run2	regulate/STIM_022.jpg
1419.986	1.61	correct	regulate	Run2	regulate/STIM_022.jpg
1425.313	1.488	correct	regulate	Run2	regulate/STIM_023.jpg
1430.628	2.455	correct	regulate	Run2	regulate/STIM_023.jpg
1435.681	1.114	correct	regulate	Run2	regulate/STIM_023.jpg
1439.617	2.058	correct	regulate	Run2	regulate/STIM_023.jpg
1445.322	1.362	correct	regulate	Run2	regulate/STIM_024.jpg
1449.237	2.114	incorrect	regulate	Run2	regulate/STIM_024.jpg
1453.668	1.829	correct	regulate	Run2	regulate/STIM_024.jpg
1458.401	1.928	correct	regulate	Run2	regulate/STIM_024.jpg
1464.536	2.008	correct	regulate	Run2	regulate/STIM_025.jpg
1469.778	2.082	correct	regulate	Run2	regulate/STIM_025.jpg
1475.827	2.034	correct	regulate	Run2	regulate/STIM_025.jpg
1480.829	1.513	correct	regulate	Run2	regulate/STIM_025.jpg
1485.719	2.444	incorrect	regulate	Run2	regulate/STIM_026.jpg
1491.932	1.679	correct	regulate	Run2	regulate/STIM_026.jpg
1497.439	1.111	correct	regulate	Run2	regulate/STIM_026.jpg
1501.912	1.022	correct	regulate	Run2	regulate/STIM_026.jpg
1506.112	1.228	incorrect	regulate	Run2	regulate/STIM_027.jpg
1510.525	1.845	correct	regulate	Run2	regulate/STIM_027.jpg
1515.66	2.096	correct	regulate	Run2	regulate/STIM_027.jpg
1521.306	2.037	correct	regulate	Run2	regulate/STIM_027.jpg
1526.86	1.649	correct	regulate	Run2	regulate/STIM_028.jpg
1532.656	2.208	incorrect	regulate	Run2	regulate/STIM_028.jpg
1538.393	1.597	correct	regulate	Run2	regulate/STIM_028.jpg
1544.163	1.55	incorrect	regulate	Run2	regulate/STIM_028.jpg
1548.802	1.32	correct	regulate	Run2	regulate/STIM_029.jpg
1552.575	1.732	correct	regulate	Run2	regulate/STIM_029.jpg
1556.853	1.966	correct	regulate	Run2	regulate/STIM_029.jpg
1561.296	1.709	correct	regulate	Run2	regulate/STIM_029.jpg
1567.109	0.853	correct	observe	Run2	observe/STIM_000.jpg
1571.396	1.142	correct	observe	Run2	observe/STIM_000.jpg
1575.61	0.952	incorrect	observe	Run2	observe/STIM_000.jpg
1579.361	1.392	correct	observe	Run2	observe/STIM_000.jpg
1583.858	1.112	correct	observe	Run2	observe/STIM_001.jpg
1588.374	1.374	incorrect	observe	Run2	observe/STIM_001.jpg
1592.482	0.741	correct	observe	Run2	observe/STIM_001.jpg
1596.546	1.156	correct	observe	Run2	observe/STIM_001.jpg
1600.826	0.97	correct	observe	Run2	observe/STIM_002.jpg
1605.072	1.413	correct	observe	Run2	observe/STIM_002.jpg
1608.675	1.396	correct	observe	Run2	observe/STIM_002.jpg
1612.778	0.921	incorrect	observe	Run2	observe/STIM_002.jpg
1617.164	1.076	correct	observe	Run2	observe/STIM_003.jpg
1620.993	1.117	correct	observe	Run2	observe/STIM_003.jpg
1625.031	1.304	incorrect	observe	Run2	observe/STIM_003.jpg
1629.561	1.08	correct	observe	Run2	observe/STIM_003.jpg
1633.88	1.245	correct	observe	Run2	observe/STIM_004.jpg
1637.694	1.022	correct	observe	Run2	observe/STIM_004.jpg
1641.41	1.064	correct	observe	Run2	observe/STIM_004.jpg
1645.18	1.176	correct	observe	Run2	observe/STIM_004.jpg
1650.467	1.077	incorrect	observe	Run2	observe/STIM_005.jpg
1655.119	1.05	correct	observe	Run2	observe/STIM_005.jpg
1660.191	1.207	correct	observe	Run2	observe/STIM_005.jpg
1665.538	0.804	correct	observe	Run2	observe/STIM_005.jpg
1669.153	0.827	correct	observe	Run2	observe/STIM_006.jpg
1673.196	0.886	correct	observe	Run2	observe/STIM_006.jpg
1678.142	1.012	correct	observe	Run2	observe/STIM_006.jpg
1682.501	1.115	correct	observe	Run2	observe/STIM_006.jpg
1687.536	0.823	correct	observe	Run2	observe/STIM_007.jpg
1691.701	1.34	correct	observe	Run2	observe/STIM_007.jpg
1696.806	0.841	correct	observe	Run2	observe/STIM_007.jpg
1701.389	1.301	correct	observe	Run2	observe/STIM_007.jpg
1706.301	0.758	correct	observe	Run2	observe/STIM_008.jpg
1709.879	0.974	correct	observe	Run2	observe/STIM_008.jpg
1713.46	1.12	correct	observe	Run2	observe/STIM_008.jpg
1716.871	0.788	correct	observe	Run2	observe/STIM_008.jpg
1721.399	1.021	correct	observe	Run2	observe/STIM_009.jpg
1724.661	0.862	correct	observe	Run2	observe/STIM_009.jpg
1728.128	1.301	correct	observe	Run2	observe/STIM_009.jpg
1733.431	1.379	correct	observe	Run2	observe/STIM_009.jpg
1737.695	1.072	correct	observe	Run2	observe/STIM_010.jpg
1742.791	1.228	correct	observe	Run2	observe/STIM_010.jpg
1746.249	0.88	correct	observe	Run2	observe/STIM_010.jpg
1750.751	0.78	correct	observe	Run2	observe/STIM_010.jpg
1754.471	1.284	correct	observe	Run2	observe/STIM_011.jpg
1758.573	0.847	correct	observe	Run2	observe/STIM_011.jpg
1762.057	0.766	correct	observe	Run2	observe/STIM_011.jpg
1765.978	1.251	correct	observe	Run2	observe/STIM_011.jpg
1769.462	1.415	incorrect	observe	Run2	observe/STIM_012.jpg
1775.037	1.135	incorrect	observe	Run2	observe/STIM_012.jpg
1779.811	0.917	correct	observe	Run2	observe/STIM_012.jpg
1784.552	0.935	correct	observe	Run2	observe/STIM_012.jpg
1788.043	1.294	correct	observe	Run2	observe/STIM_013.jpg
1792.123	0.882	correct	observe	Run2	observe/STIM_013.jpg
1795.576	1.0	correct	observe	Run2	observe/STIM_013.jpg
1800.087	1.258	correct	observe	Run2	observe/STIM_013.jpg
1804.699	1.103	incorrect	observe	Run2	observe/STIM_014.jpg
1809.479	0.829	correct	observe	Run2	observe/STIM_014.jpg
1812.558	1.137	correct	observe	Run2	observe/STIM_014.jpg
1817.142	0.766	correct	observe	Run2	observe/STIM_014.jpg
1820.034	0.962	correct	observe	Run2	observe/STIM_015.jpg
1823.793	1.228	incorrect	observe	Run2	observe/STIM_015.jpg
1827.385	1.193	correct	observe	Run2	observe/STIM_015.jpg
1831.487	0.984	correct	observe	Run2	observe/STIM_015.jpg
1835.97	0.74	correct	observe	Run2	observe/STIM_016.jpg
1839.209	1.337	correct	observe	Run2	observe/STIM_016.jpg
1842.958	0.893	correct	observe	Run2	observe/STIM_016.jpg
1846.806	0.985	correct	observe	Run2	observe/STIM_016.jpg
1850.522	0.812	incorrect	observe	Run2	observe/STIM_017.jpg
1853.878	1.028	correct	observe	Run2	observe/STIM_017.jpg
1857.229	0.733	correct	observe	Run2	observe/STIM_017.jpg
1860.638	0.78	correct	observe	Run2	observe/STIM_017.jpg
1864.899	1.057	correct	observe	Run2	observe/STIM_018.jpg
1869.371	0.844	incorrect	observe	Run2	observe/STIM_018.jpg
1873.176	0.862	correct	observe	Run2	observe/STIM_018.jpg
1877.099	1.186	correct	observe	Run2	observe/STIM_018.jpg
1881.929	0.802	correct	observe	Run2	observe/STIM_019.jpg
1886.348	0.717	correct	observe	Run2	observe/STIM_019.jpg
1890.146	1.148	correct	observe	Run2	observe/STIM_019.jpg
1895.104	1.229	correct	observe	Run2	observe/STIM_019.jpg
1899.585	1.444	correct	regulate	Run3	regulate/STIM_000.jpg
1904.246	1.581	correct	regulate	Run3	regulate/STIM_000.jpg
1909.561	1.892	correct	regulate	Run3	regulate/STIM_000.jpg
1914.962	1.899	correct	regulate	Run3	regulate/STIM_000.jpg
1920.872	2.152	correct	regulate	Run3	regulate/STIM_001.jpg
1926.475	1.67	correct	regulate	Run3	regulate/STIM_001.jpg
1930.435	1.554	correct	regulate	Run3	regulate/STIM_001.jpg
1934.239	0.981	correct	regulate	Run3	regulate/STIM_001.jpg
1938.616	2.081	correct	regulate	Run3	regulate/STIM_002.jpg
1943.378	1.03	correct	regulate	Run3	regulate/STIM_002.jpg
1948.242	1.992	correct	regulate	Run3	regulate/STIM_002.jpg
1953.319	0.99	correct	regulate	Run3	regulate/STIM_002.jpg
1957.813	0.952	correct	regulate	Run3	regulate/STIM_003.jpg
1961.897	1.312	correct	regulate	Run3	regulate/STIM_003.jpg
1966.881	1.17	correct	regulate	Run3	regulate/STIM_003.jpg
1972.097	2.068	correct	regulate	Run3	regulate/STIM_003.jpg
1977.924	1.046	correct	regulate	Run3	regulate/STIM_004.jpg
1981.285	1.87	correct	regulate	Run3	regulate/STIM_004.jpg
1985.648	1.286	correct	regulate	Run3	regulate/STIM_004.jpg
1990.648	1.618	correct	regulate	Run3	regulate/STIM_004.jpg
1996.408	1.394	correct	regulate	Run3	regulate/STIM_005.jpg
2000.613	2.025	correct	regulate	Run3	regulate/STIM_005.jpg
2005.523	1.45	correct	regulate	Run3	regulate/STIM_005.jpg
2011.031	1.121	correct	regulate	Run3	regulate/STIM_005.jpg
2014.817	1.092	correct	regulate	Run3	regulate/STIM_006.jpg
2018.821	1.362	correct	regulate	Run3	regulate/STIM_006.jpg
2022.602	1.544	correct	regulate	Run3	regulate/STIM_006.jpg
2027.047	1.663	correct	regulate	Run3	regulate/STIM_006.jpg
2032.761	2.094	correct	regulate	Run3	regulate/STIM_007.jpg
2038.387	1.288	correct	regulate	Run3	regulate/STIM_007.jpg
2042.358	1.467	correct	regulate	Run3	regulate/STIM_007.jpg
2046.047	1.466	correct	regulate	Run3	regulate/STIM_007.jpg
2051.392	1.144	correct	regulate	Run3	regulate/STIM_008.jpg
2054.685	1.889	incorrect	regulate	Run3	regulate/STIM_008.jpg
2060.066	1.969	correct	regulate	Run3	regulate/STIM_008.jpg
2065.683	1.236	correct	regulate	Run3	regulate/STIM_008.jpg
2069.277	1.475	correct	regulate	Run3	regulate/STIM_009.jpg
2073.061	0.932	correct	regulate	Run3	regulate/STIM_009.jpg
2077.45	1.852	correct	regulate	Run3	regulate/STIM_009.jpg
2082.886	1.327	correct	regulate	Run3	regulate/STIM_009.jpg
2086.476	1.492	correct	regulate	Run3	regulate/STIM_010.jpg
2090.704	1.624	correct	regulate	Run3	regulate/STIM_010.jpg
2094.923	1.147	correct	regulate	Run3	regulate/STIM_010.jpg
2098.682	1.586	correct	regulate	Run3	regulate/STIM_010.jpg
2102.969	1.895	correct	regulate	Run3	regulate/STIM_011.jpg
2107.403	1.687	correct	regulate	Run3	regulate/STIM_011.jpg
2111.774	1.888	correct	regulate	Run3	regulate/STIM_011.jpg
2116.025	1.203	correct	regulate	Run3	regulate/STIM_011.jpg
2119.629	1.069	correct	regulate	Run3	regulate/STIM_012.jpg
2124.447	1.09	correct	regulate	Run3	regulate/STIM_012.jpg
2129.671	1.125	correct	regulate	Run3	regulate/STIM_012.jpg
2133.434	1.279	correct	regulate	Run3	regulate/STIM_012.jpg
2137.612	1.98	correct	regulate	Run3	regulate/STIM_013.jpg
2142.22	1.416	correct	regulate	Run3	regulate/STIM_013.jpg
2146.036	1.36	correct	regulate	Run3	regulate/STIM_013.jpg
2150.756	1.832	correct	regulate	Run3	regulate/STIM_013.jpg
2155.927	1.885	correct	regulate	Run3	regulate/STIM_014.jpg
2160.616	1.435	correct	regulate	Run3	regulate/STIM_014.jpg
2165.827	2.144	correct	regulate	Run3	regulate/STIM_014.jpg
2171.115	1.2	correct	regulate	Run3	regulate/STIM_014.jpg
2174.912	1.651	correct	regulate	Run3	regulate/STIM_015.jpg
2179.818	1.912	correct	regulate	Run3	regulate/STIM_015.jpg
2185.921	1.202	correct	regulate	Run3	regulate/STIM_015.jpg
2189.663	1.846	correct	regulate	Run3	regulate/STIM_015.jpg
2193.86	1.741	correct	regulate	Run3	regulate/STIM_016.jpg
2198.232	1.894	correct	regulate	Run3	regulate/STIM_016.jpg
2202.376	2.057	correct	regulate	Run3	regulate/STIM_016.jpg
2206.939	1.023	correct	regulate	Run3	regulate/STIM_016.jpg
2211.65	2.145	correct	regulate	Run3	regulate/STIM_017.jpg
2217.638	1.934	correct	regulate	Run3	regulate/STIM_017.jpg
2222.466	1.454	correct	regulate	Run3	regulate/STIM_017.jpg
2227.889	1.263	correct	regulate	Run3	regulate/STIM_017.jpg
2232.061	1.063	correct	regulate	Run3	regulate/STIM_018.jpg
2235.948	1.854	correct	regulate	Run3	regulate/STIM_018.jpg
2240.586	1.93	correct	regulate	Run3	regulate/STIM_018.jpg
2246.113	1.335	correct	regulate	Run3	regulate/STIM_018.jpg
2249.737	1.314	incorrect	regulate	Run3	regulate/STIM_019.jpg
2254.513	1.107	correct	regulate	Run3	regulate/STIM_019.jpg
2259.018	1.516	correct	regulate	Run3	regulate/STIM_019.jpg
2264.594	1.487	correct	regulate	Run3	regulate/STIM_019.jpg
2269.877	2.154	correct	regulate	Run3	regulate/STIM_020.jpg
2275.57	1.342	correct	regulate	Run3	regulate/STIM_020.jpg
2280.874	1.578	correct	regulate	Run3	regulate/STIM_020.jpg
2286.055	2.101	correct	regulate	Run3	regulate/STIM_020.jpg
2290.888	1.364	correct	regulate	Run3	regulate/STIM_021.jpg
2294.477	2.138	correct	regulate	Run3	regulate/STIM_021.jpg
2299.813	1.92	correct	regulate	Run3	regulate/STIM_021.jpg
2305.18	1.089	correct	regulate	Run3	regulate/STIM_021.jpg
2310.173	1.06	correct	regulate	Run3	regulate/STIM_022.jpg
2315.105	1.183	incorrect	regulate	Run3	regulate/STIM_022.jpg
2319.986	1.567	correct	regulate	Run3	regulate/STIM_022.jpg
2325.443	1.304	correct	regulate	Run3	regulate/STIM_022.jpg
2329.788	1.76	correct	regulate	Run3	regulate/STIM_023.jpg
2335.676	1.183	correct	regulate	Run3	regulate/STIM_023.jpg
2339.402	1.898	correct	regulate	Run3	regulate/STIM_023.jpg
2344.504	1.779	correct	regulate	Run3	regulate/STIM_023.jpg
2350.105	0.969	incorrect	regulate	Run3	regulate/STIM_024.jpg
2354.664	1.366	correct	regulate	Run3	regulate/STIM_024.jpg
2359.352	1.638	correct	regulate	Run3	regulate/STIM_024.jpg
2364.406	1.332	correct	regulate	Run3	regulate/STIM_024.jpg
2368.326	1.227	correct	regulate	Run3	regulate/STIM_025.jpg
2372.556	1.898	correct	regulate	Run3	regulate/STIM_025.jpg
2377.655	1.842	correct	regulate	Run3	regulate/STIM_025.jpg
2383.431	1.432	correct	regulate	Run3	regulate/STIM_025.jpg
2388.408	1.73	correct	regulate	Run3	regulate/STIM_026.jpg
2393.721	1.219	correct	regulate	Run3	regulate/STIM_026.jpg
2397.314	1.886	correct	regulate	Run3	regulate/STIM_026.jpg
2401.875	1.182	correct	regulate	Run3	regulate/STIM_026.jpg
2406.312	1.878	correct	regulate	Run3	regulate/STIM_027.jpg
2410.76	1.191	correct	regulate	Run3	regulate/STIM_027.jpg
2415.49	1.51	correct	regulate	Run3	regulate/STIM_027.jpg
2420.687	1.94	correct	regulate	Run3	regulate/STIM_027.jpg
2424.959	0.977	correct	regulate	Run3	regulate/STIM_028.jpg
2428.084	1.579	correct	regulate	Run3	regulate/STIM_028.jpg
2432.434	1.936	incorrect	regulate	Run3	regulate/STIM_028.jpg
2437.83	2.012	correct	regulate	Run3	regulate/STIM_028.jpg
2442.267	1.348	correct	regulate	Run3	regulate/STIM_029.jpg
2447.192	2.083	correct	regulate	Run3	regulate/STIM_029.jpg
2453.201	1.43	correct	regulate	Run3	regulate/STIM_029.jpg
2457.971	2.022	correct	regulate	Run3	regulate/STIM_029.jpg
2462.698	1.176	correct	observe	Run3	observe/STIM_000.jpg
2466.568	0.803	correct	observe	Run3	observe/STIM_000.jpg
2471.359	0.904	correct	observe	Run3	observe/STIM_000.jpg
2474.556	0.994	correct	observe	Run3	observe/STIM_000.jpg
2478.577	1.026	correct	observe	Run3	observe/STIM_001.jpg
2481.739	0.773	incorrect	observe	Run3	observe/STIM_001.jpg
2484.924	1.038	correct	observe	Run3	observe/STIM_001.jpg
2488.44	0.883	correct	observe	Run3	observe/STIM_001.jpg
2492.962	0.867	correct	observe	Run3	observe/STIM_002.jpg
2496.91	0.725	incorrect	observe	Run3	observe/STIM_002.jpg
2501.689	0.948	incorrect	observe	Run3	observe/STIM_002.jpg
2505.324	1.058	incorrect	observe	Run3	observe/STIM_002.jpg
2508.93	1.416	correct	observe	Run3	observe/STIM_003.jpg
2513.216	1.164	correct	observe	Run3	observe/STIM_003.jpg
2517.453	1.082	correct	observe	Run3	observe/STIM_003.jpg
2521.692	1.243	incorrect	observe	Run3	observe/STIM_003.jpg
2526.151	1.177	correct	observe	Run3	observe/STIM_004.jpg
2531.378	1.182	correct	observe	Run3	observe/STIM_004.jpg
2534.79	0.712	correct	observe	Run3	observe/STIM_004.jpg
2538.725	1.354	correct	observe	Run3	observe/STIM_004.jpg
2543.388	1.221	correct	observe	Run3	observe/STIM_005.jpg
2548.692	1.2	correct	observe	Run3	observe/STIM_005.jpg
2553.936	1.347	correct	observe	Run3	observe/STIM_005.jpg
2557.87	1.055	correct	observe	Run3	observe/STIM_005.jpg
2562.592	1.155	correct	observe	Run3	observe/STIM_006.jpg
2567.169	1.375	correct	observe	Run3	observe/STIM_006.jpg
2571.054	1.273	correct	observe	Run3	observe/STIM_006.jpg
2575.694	1.299	correct	observe	Run3	observe/STIM_006.jpg
2580.176	1.129	correct	observe	Run3	observe/STIM_007.jpg
2583.588	1.335	correct	observe	Run3	observe/STIM_007.jpg
2588.232	1.051	correct	observe	Run3	observe/STIM_007.jpg
2591.536	1.31	correct	observe	Run3	observe/STIM_007.jpg
2595.312	0.974	correct	observe	Run3	observe/STIM_008.jpg
2599.122	0.906	incorrect	observe	Run3	observe/STIM_008.jpg
2603.858	1.311	incorrect	observe	Run3	observe/STIM_008.jpg
2607.58	1.111	correct	observe	Run3	observe/STIM_008.jpg
2611.555	0.88	correct	observe	Run3	observe/STIM_009.jpg
2615.13	1.322	correct	observe	Run3	observe/STIM_009.jpg
2619.644	1.24	correct	observe	Run3	observe/STIM_009.jpg
2624.489	1.055	correct	observe	Run3	observe/STIM_009.jpg
2628.064	0.834	correct	observe	Run3	observe/STIM_010.jpg
2632.617	1.118	correct	observe	Run3	observe/STIM_010.jpg
2636.134	1.184	correct	observe	Run3	observe/STIM_010.jpg
2640.779	1.329	correct	observe	Run3	observe/STIM_010.jpg
2645.671	1.113	correct	observe	Run3	observe/STIM_011.jpg
2648.93	0.858	correct	observe	Run3	observe/STIM_011.jpg
2653.605	1.052	correct	observe	Run3	observe/STIM_011.jpg
2656.837	0.87	correct	observe	Run3	observe/STIM_011.jpg
2660.157	0.772	correct	observe	Run3	observe/STIM_012.jpg
2663.499	1.003	correct	observe	Run3	observe/STIM_012.jpg
2668.21	1.216	correct	observe	Run3	observe/STIM_012.jpg
2672.275	1.293	correct	observe	Run3	observe/STIM_012.jpg
2676.893	0.765	correct	observe	Run3	observe/STIM_013.jpg
2680.787	1.351	correct	observe	Run3	observe/STIM_013.jpg
2684.38	0.742	correct	observe	Run3	observe/STIM_013.jpg
2688.314	0.824	correct	observe	Run3	observe/STIM_013.jpg
2691.417	0.931	correct	observe	Run3	observe/STIM_014.jpg
2695.873	0.715	correct	observe	Run3	observe/STIM_014.jpg
2700.381	1.281	correct	observe	Run3	observe/STIM_014.jpg
2704.386	1.085	correct	observe	Run3	observe/STIM_014.jpg
2707.866	1.416	correct	observe	Run3	observe/STIM_015.jpg
2711.992	1.072	correct	observe	Run3	observe/STIM_015.jpg
2716.254	0.994	correct	observe	Run3	observe/STIM_015.jpg
2719.675	1.413	incorrect	observe	Run3	observe/STIM_015.jpg
2723.656	1.136	incorrect	observe	Run3	observe/STIM_016.jpg
2728.713	0.994	correct	observe	Run3	observe/STIM_016.jpg
2732.821	0.815	correct	observe	Run3	observe/STIM_016.jpg
2736.952	1.204	correct	observe	Run3	observe/STIM_016.jpg
2740.663	1.087	correct	observe	Run3	observe/STIM_017.jpg
2744.187	1.263	correct	observe	Run3	observe/STIM_017.jpg
2749.145	1.018	correct	observe	Run3	observe/STIM_017.jpg
2753.224	0.72	correct	observe	Run3	observe/STIM_017.jpg
2757.418	0.982	incorrect	observe	Run3	observe/STIM_018.jpg
2762.078	0.812	correct	observe	Run3	observe/STIM_018.jpg
2765.869	1.379	correct	observe	Run3	observe/STIM_018.jpg
2769.832	0.736	correct	observe	Run3	observe/STIM_018.jpg
2773.026	1.104	correct	observe	Run3	observe/STIM_019.jpg
2777.932	0.961	correct	observe	Run3	observe/STIM_019.jpg
2782.789	0.716	correct	observe	Run3	observe/STIM_019.jpg
2787.327	0.895	correct	observe	Run3	observe/STIM_019.jpg
