onset	duration	accuracy_binary	trial_type	learning_stage	stimulus
0.0	0.986	1	2back	Block1	2back/STIM_000.jpg
3.899	1.199	1	2back	Block1	2back/STIM_000.jpg
7.645	0.937	0	2back	Block1	2back/STIM_000.jpg
10.647	1.256	0	2back	Block1	2back/STIM_001.jpg
15.022	1.218	1	2back	Block1	2back/STIM_001.jpg
20.218	1.099	1	2back	Block1	2back/STIM_001.jpg
23.965	0.898	1	2back	Block1	2back/STIM_002.jpg
27.538	0.854	1	2back	Block1	2back/STIM_002.jpg
32.026	0.738	1	2back	Block1	2back/STIM_002.jpg
35.351	0.693	1	2back	Block1	2back/STIM_003.jpg
39.592	0.558	1	2back	Block1	2back/STIM_003.jpg
42.72	0.82	1	2back	Block1	2back/STIM_003.jpg
47.003	0.727	1	2back	Block1	2back/STIM_004.jpg
51.457	0.959	1	2back	Block1	2back/STIM_004.jpg
56.017	0.694	1	2back	Block1	2back/STIM_004.jpg
58.917	1.278	0	2back	Block1	2back/STIM_005.jpg
63.267	0.787	0	2back	Block1	2back/STIM_005.jpg
66.16	1.134	0	2back	Block1	2back/STIM_005.jpg
69.624	0.578	1	2back	Block1	2back/STIM_006.jpg
72.801	1.071	1	2back	Block1	2back/STIM_006.jpg
76.046	0.917	1	2back	Block1	2back/STIM_006.jpg
80.819	0.971	1	2back	Block1	2back/STIM_007.jpg
85.197	1.091	0	2back	Block1	2back/STIM_007.jpg
89.889	0.705	1	2back	Block1	2back/STIM_007.jpg
94.486	1.234	1	2back	Block1	2back/STIM_008.jpg
97.891	1.076	1	2back	Block1	2back/STIM_008.jpg
102.533	0.71	0	2back	Block1	2back/STIM_008.jpg
105.4	0.554	1	2back	Block1	2back/STIM_009.jpg
108.306	0.626	1	2back	Block1	2back/STIM_009.jpg
110.948	1.139	1	2back	Block1	2back/STIM_009.jpg
114.992	1.084	1	2back	Block1	2back/STIM_010.jpg
119.569	1.151	1	2back	Block1	2back/STIM_010.jpg
123.953	0.931	1	2back	Block1	2back/STIM_010.jpg
127.223	0.782	1	2back	Block1	2back/STIM_011.jpg
130.843	1.054	1	2back	Block1	2back/STIM_011.jpg
135.028	0.65	1	2back	Block1	2back/STIM_011.jpg
138.476	1.088	1	2back	Block1	2back/STIM_012.jpg
142.61	1.059	1	2back	Block1	2back/STIM_012.jpg
147.522	0.882	1	2back	Block1	2back/STIM_012.jpg
150.96	0.909	1	2back	Block1	2back/STIM_013.jpg
154.15	0.967	1	2back	Block1	2back/STIM_013.jpg
158.579	0.597	1	2back	Block1	2back/STIM_013.jpg
161.733	0.947	0	2back	Block1	2back/STIM_014.jpg
165.357	0.986	0	2back	Block1	2back/STIM_014.jpg
169.812	1.063	1	2back	Block1	2back/STIM_014.jpg
174.402	1.225	0	2back	Block1	2back/STIM_015.jpg
178.962	0.576	0	2back	Block1	2back/STIM_015.jpg
182.878	0.573	1	2back	Block1	2back/STIM_015.jpg
186.293	0.607	1	2back	Block1	2back/STIM_016.jpg
190.065	0.919	0	2back	Block1	2back/STIM_016.jpg
193.29	0.677	0	2back	Block1	2back/STIM_016.jpg
196.98	1.124	1	2back	Block1	2back/STIM_017.jpg
201.439	1.117	1	2back	Block1	2back/STIM_017.jpg
205.504	0.861	1	2back	Block1	2back/STIM_017.jpg
210.048	0.608	1	2back	Block1	2back/STIM_018.jpg
214.216	0.61	1	2back	Block1	2back/STIM_018.jpg
216.903	0.896	1	2back	Block1	2back/STIM_018.jpg
221.375	0.96	1	2back	Block1	2back/STIM_019.jpg
224.84	0.796	1	2back	Block1	2back/STIM_019.jpg
228.278	0.696	1	2back	Block1	2back/STIM_019.jpg
232.771	0.741	1	2back	Block1	2back/STIM_020.jpg
236.562	1.053	0	2back	Block1	2back/STIM_020.jpg
240.242	0.705	1	2back	Block1	2back/STIM_020.jpg
243.577	0.76	1	2back	Block1	2back/STIM_021.jpg
247.199	0.709	0	2back	Block1	2back/STIM_021.jpg
250.429	0.856	1	2back	Block1	2back/STIM_021.jpg
255.267	1.05	0	2back	Block1	2back/STIM_022.jpg
258.46	0.935	1	2back	Block1	2back/STIM_022.jpg
262.641	1.01	1	2back	Block1	2back/STIM_022.jpg
265.907	1.187	1	2back	Block1	2back/STIM_023.jpg
269.893	0.874	0	2back	Block1	2back/STIM_023.jpg
274.493	0.613	1	2back	Block1	2back/STIM_023.jpg
277.804	0.997	0	2back	Block1	2back/STIM_024.jpg
281.507	0.727	0	2back	Block1	2back/STIM_024.jpg
284.912	0.719	1	2back	Block1	2back/STIM_024.jpg
289.265	0.788	0	2back	Block1	2back/STIM_025.jpg
293.421	0.761	1	2back	Block1	2back/STIM_025.jpg
296.483	0.892	1	2back	Block1	2back/STIM_025.jpg
300.338	1.005	1	2back	Block1	2back/STIM_026.jpg
304.075	0.637	1	2back	Block1	2back/STIM_026.jpg
307.03	0.752	1	2back	Block1	2back/STIM_026.jpg
310.061	0.981	1	2back	Block1	2back/STIM_027.jpg
313.822	0.713	0	2back	Block1	2back/STIM_027.jpg
316.88	0.954	1	2back	Block1	2back/STIM_027.jpg
321.787	1.004	1	2back	Block1	2back/STIM_028.jpg
325.187	0.658	1	2back	Block1	2back/STIM_028.jpg
327.846	0.925	0	2back	Block1	2back/STIM_028.jpg
332.351	0.782	1	2back	Block1	2back/STIM_029.jpg
335.789	1.077	0	2back	Block1	2back/STIM_029.jpg
339.074	0.674	1	2back	Block1	2back/STIM_029.jpg
343.288	0.607	1	2back	Block1	2back/STIM_030.jpg
346.596	1.032	0	2back	Block1	2back/STIM_030.jpg
351.5	0.914	1	2back	Block1	2back/STIM_030.jpg
354.698	1.095	1	2back	Block1	2back/STIM_031.jpg
358.931	0.535	1	2back	Block1	2back/STIM_031.jpg
362.275	0.79	1	2back	Block1	2back/STIM_031.jpg
366.152	0.574	1	2back	Block1	2back/STIM_032.jpg
368.849	0.638	1	2back	Block1	2back/STIM_032.jpg
372.72	0.579	1	2back	Block1	2back/STIM_032.jpg
375.352	0.816	1	2back	Block1	2back/STIM_033.jpg
379.978	1.089	0	2back	Block1	2back/STIM_033.jpg
383.371	1.139	1	2back	Block1	2back/STIM_033.jpg
388.37	0.966	1	2back	Block1	2back/STIM_034.jpg
391.462	0.937	1	2back	Block1	2back/STIM_034.jpg
394.746	1.141	1	2back	Block1	2back/STIM_034.jpg
399.683	0.817	0	2back	Block1	2back/STIM_035.jpg
402.7	0.532	1	2back	Block1	2back/STIM_035.jpg
406.167	0.648	0	2back	Block1	2back/STIM_035.jpg
410.036	1.119	1	2back	Block1	2back/STIM_036.jpg
414.63	0.697	0	2back	Block1	2back/STIM_036.jpg
417.868	0.745	0	2back	Block1	2back/STIM_036.jpg
421.041	0.716	1	2back	Block1	2back/STIM_037.jpg
424.988	0.746	1	2back	Block1	2back/STIM_037.jpg
429.367	1.084	1	2back	Block1	2back/STIM_037.jpg
433.829	0.915	0	2back	Block1	2back/STIM_038.jpg
437.58	0.645	1	2back	Block1	2back/STIM_038.jpg
442.157	0.809	1	2back	Block1	2back/STIM_038.jpg
446.439	1.184	0	2back	Block1	2back/STIM_039.jpg
450.06	1.077	0	2back	Block1	2back/STIM_039.jpg
453.498	0.757	0	2back	Block1	2back/STIM_039.jpg
457.299	0.545	1	0back	Block1	0back/STIM_000.jpg
460.844	0.383	1	0back	Block1	0back/STIM_000.jpg
463.238	0.566	1	0back	Block1	0back/STIM_000.jpg
466.19	0.428	1	0back	Block1	0back/STIM_001.jpg
469.505	0.452	0	0back	Block1	0back/STIM_001.jpg
473.768	0.551	1	0back	Block1	0back/STIM_001.jpg
476.445	0.467	1	0back	Block1	0back/STIM_002.jpg
479.716	0.417	1	0back	Block1	0back/STIM_002.jpg
483.636	0.424	0	0back	Block1	0back/STIM_002.jpg
487.704	0.718	1	0back	Block1	0back/STIM_003.jpg
491.173	0.505	1	0back	Block1	0back/STIM_003.jpg
495.407	0.588	1	0back	Block1	0back/STIM_003.jpg
498.777	0.525	1	0back	Block1	0back/STIM_004.jpg
501.629	0.425	0	0back	Block1	0back/STIM_004.jpg
505.687	0.42	1	0back	Block1	0back/STIM_004.jpg
509.215	0.448	1	0back	Block1	0back/STIM_005.jpg
512.565	0.456	0	0back	Block1	0back/STIM_005.jpg
516.627	0.522	0	0back	Block1	0back/STIM_005.jpg
520.712	0.524	0	0back	Block1	0back/STIM_006.jpg
523.307	0.454	1	0back	Block1	0back/STIM_006.jpg
526.691	0.481	1	0back	Block1	0back/STIM_006.jpg
529.481	0.479	1	0back	Block1	0back/STIM_007.jpg
533.15	0.528	0	0back	Block1	0back/STIM_007.jpg
535.751	0.522	1	0back	Block1	0back/STIM_007.jpg
539.964	0.384	1	0back	Block1	0back/STIM_008.jpg
543.804	0.396	1	0back	Block1	0back/STIM_008.jpg
547.38	0.648	1	0back	Block1	0back/STIM_008.jpg
551.656	0.683	1	0back	Block1	0back/STIM_009.jpg
556.286	0.462	1	0back	Block1	0back/STIM_009.jpg
559.284	0.376	0	0back	Block1	0back/STIM_009.jpg
562.173	0.506	1	0back	Block1	0back/STIM_010.jpg
565.901	0.737	1	0back	Block1	0back/STIM_010.jpg
568.888	0.708	1	0back	Block1	0back/STIM_010.jpg
572.835	0.56	1	0back	Block1	0back/STIM_011.jpg
575.559	0.528	1	0back	Block1	0back/STIM_011.jpg
579.891	0.536	1	0back	Block1	0back/STIM_011.jpg
582.939	0.654	1	0back	Block1	0back/STIM_012.jpg
586.664	0.418	1	0back	Block1	0back/STIM_012.jpg
590.854	0.712	0	0back	Block1	0back/STIM_012.jpg
595.401	0.496	1	0back	Block1	0back/STIM_013.jpg
598.726	0.428	1	0back	Block1	0back/STIM_013.jpg
602.981	0.431	1	0back	Block1	0back/STIM_013.jpg
606.627	0.411	0	0back	Block1	0back/STIM_014.jpg
609.377	0.442	0	0back	Block1	0back/STIM_014.jpg
613.246	0.64	1	0back	Block1	0back/STIM_014.jpg
617.664	0.566	1	0back	Block1	0back/STIM_015.jpg
620.461	0.381	1	0back	Block1	0back/STIM_015.jpg
624.72	0.52	1	0back	Block1	0back/STIM_015.jpg
627.507	0.522	1	0back	Block1	0back/STIM_016.jpg
630.861	0.647	1	0back	Block1	0back/STIM_016.jpg
635.236	0.503	1	0back	Block1	0back/STIM_016.jpg
639.071	0.491	1	0back	Block1	0back/STIM_017.jpg
642.26	0.432	1	0back	Block1	0back/STIM_017.jpg
645.374	0.427	0	0back	Block1	0back/STIM_017.jpg
649.405	0.563	1	0back	Block1	0back/STIM_018.jpg
652.903	0.659	1	0back	Block1	0back/STIM_018.jpg
657.129	0.495	0	0back	Block1	0back/STIM_018.jpg
660.917	0.573	1	0back	Block1	0back/STIM_019.jpg
665.332	0.372	1	0back	Block1	0back/STIM_019.jpg
668.503	0.606	1	0back	Block1	0back/STIM_019.jpg
671.368	0.808	0	2back	Block2	2back/STIM_000.jpg
675.642	0.503	1	2back	Block2	2back/STIM_000.jpg
680.052	0.718	1	2back	Block2	2back/STIM_000.jpg
684.104	0.618	0	2back	Block2	2back/STIM_001.jpg
687.929	0.554	1	2back	Block2	2back/STIM_001.jpg
691.726	0.572	1	2back	Block2	2back/STIM_001.jpg
695.346	0.9	1	2back	Block2	2back/STIM_002.jpg
698.41	0.793	0	2back	Block2	2back/STIM_002.jpg
701.657	0.839	1	2back	Block2	2back/STIM_002.jpg
706.284	0.827	1	2back	Block2	2back/STIM_003.jpg
710.222	1.01	1	2back	Block2	2back/STIM_003.jpg
714.448	0.492	1	2back	Block2	2back/STIM_003.jpg
718.777	0.494	1	2back	Block2	2back/STIM_004.jpg
722.576	0.607	1	2back	Block2	2back/STIM_004.jpg
726.679	0.656	1	2back	Block2	2back/STIM_004.jpg
730.871	0.953	1	2back	Block2	2back/STIM_005.jpg
735.707	0.697	0	2back	Block2	2back/STIM_005.jpg
739.55	0.566	1	2back	Block2	2back/STIM_005.jpg
743.915	0.859	1	2back	Block2	2back/STIM_006.jpg
747.326	0.596	1	2back	Block2	2back/STIM_006.jpg
750.095	0.623	1	2back	Block2	2back/STIM_006.jpg
753.12	1.093	1	2back	Block2	2back/STIM_007.jpg
756.741	0.916	0	2back	Block2	2back/STIM_007.jpg
760.25	0.502	1	2back	Block2	2back/STIM_007.jpg
763.789	0.856	1	2back	Block2	2back/STIM_008.jpg
767.045	0.679	1	2back	Block2	2back/STIM_008.jpg
770.663	0.542	0	2back	Block2	2back/STIM_008.jpg
774.101	1.031	1	2back	Block2	2back/STIM_009.jpg
778.071	0.673	1	2back	Block2	2back/STIM_009.jpg
781.119	0.772	1	2back	Block2	2back/STIM_009.jpg
784.705	0.567	1	2back	Block2	2back/STIM_010.jpg
787.751	0.931	1	2back	Block2	2back/STIM_010.jpg
791.325	0.536	1	2back	Block2	2back/STIM_010.jpg
794.2	0.534	1	2back	Block2	2back/STIM_011.jpg
797.494	0.499	1	2back	Block2	2back/STIM_011.jpg
800.43	0.853	1	2back	Block2	2back/STIM_011.jpg
804.287	0.824	1	2back	Block2	2back/STIM_012.jpg
808.213	0.79	1	2back	Block2	2back/STIM_012.jpg
811.475	0.952	1	2back	Block2	2back/STIM_012.jpg
814.64	1.089	0	2back	Block2	2back/STIM_013.jpg
818.301	0.89	1	2back	Block2	2back/STIM_013.jpg
823.11	0.883	1	2back	Block2	2back/STIM_013.jpg
826.815	0.627	1	2back	Block2	2back/STIM_014.jpg
831.23	0.879	1	2back	Block2	2back/STIM_014.jpg
836.023	0.87	1	2back	Block2	2back/STIM_014.jpg
840.01	0.873	1	2back	Block2	2back/STIM_015.jpg
844.401	0.862	1	2back	Block2	2back/STIM_015.jpg
847.293	0.632	1	2back	Block2	2back/STIM_015.jpg
851.487	1.087	1	2back	Block2	2back/STIM_016.jpg
856.04	0.706	0	2back	Block2	2back/STIM_016.jpg
860.376	0.71	1	2back	Block2	2back/STIM_016.jpg
864.564	0.541	1	2back	Block2	2back/STIM_017.jpg
867.345	0.529	1	2back	Block2	2back/STIM_017.jpg
870.978	0.807	1	2back	Block2	2back/STIM_017.jpg
874.053	0.865	0	2back	Block2	2back/STIM_018.jpg
877.454	0.663	1	2back	Block2	2back/STIM_018.jpg
881.541	0.442	1	2back	Block2	2back/STIM_018.jpg
884.914	0.875	1	2back	Block2	2back/STIM_019.jpg
888.806	0.623	1	2back	Block2	2back/STIM_019.jpg
892.651	0.599	1	2back	Block2	2back/STIM_019.jpg
895.947	0.695	0	2back	Block2	2back/STIM_020.jpg
900.371	0.554	1	2back	Block2	2back/STIM_020.jpg
903.746	0.931	1	2back	Block2	2back/STIM_020.jpg
906.729	1.037	1	2back	Block2	2back/STIM_021.jpg
910.444	1.018	1	2back	Block2	2back/STIM_021.jpg
914.735	0.45	1	2back	Block2	2back/STIM_021.jpg
919.074	0.919	1	2back	Block2	2back/STIM_022.jpg
922.896	0.621	1	2back	Block2	2back/STIM_022.jpg
926.089	0.478	1	2back	Block2	2back/STIM_022.jpg
929.134	0.746	1	2back	Block2	2back/STIM_023.jpg
933.653	0.993	0	2back	Block2	2back/STIM_023.jpg
938.574	0.816	1	2back	Block2	2back/STIM_023.jpg
941.746	0.582	1	2back	Block2	2back/STIM_024.jpg
945.491	0.523	1	2back	Block2	2back/STIM_024.jpg
948.309	0.929	0	2back	Block2	2back/STIM_024.jpg
952.714	0.579	1	2back	Block2	2back/STIM_025.jpg
955.671	0.587	1	2back	Block2	2back/STIM_025.jpg
959.821	0.668	1	2back	Block2	2back/STIM_025.jpg
963.321	0.878	1	2back	Block2	2back/STIM_026.jpg
968.088	0.961	1	2back	Block2	2back/STIM_026.jpg
972.518	0.855	0	2back	Block2	2back/STIM_026.jpg
977.201	1.009	0	2back	Block2	2back/STIM_027.jpg
980.26	0.499	1	2back	Block2	2back/STIM_027.jpg
984.463	0.691	1	2back	Block2	2back/STIM_027.jpg
987.381	0.656	1	2back	Block2	2back/STIM_028.jpg
990.044	0.796	0	2back	Block2	2back/STIM_028.jpg
993.077	0.851	1	2back	Block2	2back/STIM_028.jpg
996.108	0.995	1	2back	Block2	2back/STIM_029.jpg
1000.339	0.481	1	2back	Block2	2back/STIM_029.jpg
1003.352	0.85	1	2back	Block2	2back/STIM_029.jpg
1006.686	0.839	1	2back	Block2	2back/STIM_030.jpg
1010.582	0.796	1	2back	Block2	2back/STIM_030.jpg
1014.451	0.703	0	2back	Block2	2back/STIM_030.jpg
1018.447	0.555	0	2back	Block2	2back/STIM_031.jpg
1022.202	0.719	1	2back	Block2	2back/STIM_031.jpg
1025.473	0.772	0	2back	Block2	2back/STIM_031.jpg
1029.392	0.65	1	2back	Block2	2back/STIM_032.jpg
1032.141	0.628	1	2back	Block2	2back/STIM_032.jpg
1035.939	0.646	0	2back	Block2	2back/STIM_032.jpg
1039.572	0.753	1	2back	Block2	2back/STIM_033.jpg
1042.76	0.453	1	2back	Block2	2back/STIM_033.jpg
1045.93	0.88	1	2back	Block2	2back/STIM_033.jpg
1049.929	0.92	0	2back	Block2	2back/STIM_034.jpg
1054.298	0.616	0	2back	Block2	2back/STIM_034.jpg
1058.084	0.529	1	2back	Block2	2back/STIM_034.jpg
1062.477	0.569	1	2back	Block2	2back/STIM_035.jpg
1065.596	0.905	1	2back	Block2	2back/STIM_035.jpg
1068.629	0.628	1	2back	Block2	2back/STIM_035.jpg
1073.156	0.982	1	2back	Block2	2back/STIM_036.jpg
1076.46	0.937	1	2back	Block2	2back/STIM_036.jpg
1079.682	0.568	1	2back	Block2	2back/STIM_036.jpg
1083.023	0.666	1	2back	Block2	2back/STIM_037.jpg
1085.962	0.787	1	2back	Block2	2back/STIM_037.jpg
1090.054	0.484	0	2back	Block2	2back/STIM_037.jpg
1094.44	1.054	0	2back	Block2	2back/STIM_038.jpg
1099.436	0.977	1	2back	Block2	2back/STIM_038.jpg
1103.9	0.801	1	2back	Block2	2back/STIM_038.jpg
1108.246	1.026	1	2back	Block2	2back/STIM_039.jpg
1111.611	0.637	1	2back	Block2	2back/STIM_039.jpg
1114.254	0.941	1	2back	Block2	2back/STIM_039.jpg
1118.919	0.553	1	0back	Block2	0back/STIM_000.jpg
1121.508	0.726	1	0back	Block2	0back/STIM_000.jpg
1124.387	0.474	1	0back	Block2	0back/STIM_000.jpg
1126.924	0.658	1	0back	Block2	0back/STIM_001.jpg
1130.785	0.418	1	0back	Block2	0back/STIM_001.jpg
1134.959	0.658	1	0back	Block2	0back/STIM_001.jpg
1138.203	0.668	1	0back	Block2	0back/STIM_002.jpg
1142.554	0.57	1	0back	Block2	0back/STIM_002.jpg
1145.866	0.641	1	0back	Block2	0back/STIM_002.jpg
1150.291	0.7	1	0back	Block2	0back/STIM_003.jpg
1153.409	0.483	0	0back	Block2	0back/STIM_003.jpg
1156.328	0.671	1	0back	Block2	0back/STIM_003.jpg
1160.887	0.662	1	0back	Block2	0back/STIM_004.jpg
1165.113	0.589	1	0back	Block2	0back/STIM_004.jpg
1169.275	0.622	1	0back	Block2	0back/STIM_004.jpg
1172.28	0.526	1	0back	Block2	0back/STIM_005.jpg
1175.305	0.631	1	0back	Block2	0back/STIM_005.jpg
1179.142	0.591	1	0back	Block2	0back/STIM_005.jpg
1182.986	0.57	0	0back	Block2	0back/STIM_006.jpg
1187.346	0.652	1	0back	Block2	0back/STIM_006.jpg
1190.226	0.649	1	0back	Block2	0back/STIM_006.jpg
1194.192	0.533	1	0back	Block2	0back/STIM_007.jpg
1197.253	0.701	1	0back	Block2	0back/STIM_007.jpg
1200.775	0.728	1	0back	Block2	0back/STIM_007.jpg
1204.904	0.503	0	0back	Block2	0back/STIM_008.jpg
1208.051	0.612	1	0back	Block2	0back/STIM_008.jpg
1212.33	0.577	0	0back	Block2	0back/STIM_008.jpg
1215.032	0.507	1	0back	Block2	0back/STIM_009.jpg
1217.621	0.524	1	0back	Block2	0back/STIM_009.jpg
1222.056	0.715	1	0back	Block2	0back/STIM_009.jpg
1224.788	0.431	1	0back	Block2	0back/STIM_010.jpg
1228.866	0.528	1	0back	Block2	0back/STIM_010.jpg
1233.347	0.562	1	0back	Block2	0back/STIM_010.jpg
1237.428	0.507	1	0back	Block2	0back/STIM_011.jpg
1240.995	0.393	1	0back	Block2	0back/STIM_011.jpg
1244.189	0.435	1	0back	Block2	0back/STIM_011.jpg
1248.139	0.445	1	0back	Block2	0back/STIM_012.jpg
1251.699	0.397	1	0back	Block2	0back/STIM_012.jpg
1255.025	0.476	1	0back	Block2	0back/STIM_012.jpg
1259.264	0.602	1	0back	Block2	0back/STIM_013.jpg
1262.079	0.551	1	0back	Block2	0back/STIM_013.jpg
1265.797	0.46	1	0back	Block2	0back/STIM_013.jpg
1268.999	0.495	1	0back	Block2	0back/STIM_014.jpg
1272.75	0.638	1	0back	Block2	0back/STIM_014.jpg
1275.954	0.665	0	0back	Block2	0back/STIM_014.jpg
1279.551	0.635	0	0back	Block2	0back/STIM_015.jpg
1282.295	0.664	1	0back	Block2	0back/STIM_015.jpg
1286.602	0.606	1	0back	Block2	0back/STIM_015.jpg
1290.347	0.666	1	0back	Block2	0back/STIM_016.jpg
1293.42	0.436	1	0back	Block2	0back/STIM_016.jpg
1297.639	0.455	1	0back	Block2	0back/STIM_016.jpg
1301.681	0.692	1	0back	Block2	0back/STIM_017.jpg
1304.395	0.482	1	0back	Block2	0back/STIM_017.jpg
1307.099	0.573	1	0back	Block2	0back/STIM_017.jpg
1311.171	0.373	1	0back	Block2	0back/STIM_018.jpg
1315.332	0.376	1	0back	Block2	0back/STIM_018.jpg
1318.552	0.486	0	0back	Block2	0back/STIM_018.jpg
1322.399	0.382	1	0back	Block2	0back/STIM_019.jpg
1325.228	0.432	0	0back	Block2	0back/STIM_019.jpg
1328.021	0.698	1	0back	Block2	0back/STIM_019.jpg
1332.019	0.834	1	2back	Block3	2back/STIM_000.jpg
1336.416	0.665	1	2back	Block3	2back/STIM_000.jpg
1340.015	0.488	1	2back	Block3	2back/STIM_000.jpg
1343.063	0.879	1	2back	Block3	2back/STIM_001.jpg
1346.697	0.633	0	2back	Block3	2back/STIM_001.jpg
1349.751	0.599	0	2back	Block3	2back/STIM_001.jpg
1353.143	0.829	1	2back	Block3	2back/STIM_002.jpg
1357.532	0.896	1	2back	Block3	2back/STIM_002.jpg
1360.899	0.508	1	2back	Block3	2back/STIM_002.jpg
1363.97	0.792	1	2back	Block3	2back/STIM_003.jpg
1367.725	0.882	0	2back	Block3	2back/STIM_003.jpg
1370.942	0.878	1	2back	Block3	2back/STIM_003.jpg
1374.744	0.442	1	2back	Block3	2back/STIM_004.jpg
1379.12	0.667	1	2back	Block3	2back/STIM_004.jpg
1382.485	0.689	1	2back	Block3	2back/STIM_004.jpg
1385.825	0.599	1	2back	Block3	2back/STIM_005.jpg
1389.112	0.503	0	2back	Block3	2back/STIM_005.jpg
1392.035	0.66	1	2back	Block3	2back/STIM_005.jpg
1396.619	0.888	0	2back	Block3	2back/STIM_006.jpg
1401.311	0.794	1	2back	Block3	2back/STIM_006.jpg
1405.395	0.828	1	2back	Block3	2back/STIM_006.jpg
1410.17	0.772	0	2back	Block3	2back/STIM_007.jpg
1414.343	0.55	1	2back	Block3	2back/STIM_007.jpg
1418.081	0.804	1	2back	Block3	2back/STIM_007.jpg
1422.116	0.804	1	2back	Block3	2back/STIM_008.jpg
1426.623	0.49	1	2back	Block3	2back/STIM_008.jpg
1430.586	0.777	1	2back	Block3	2back/STIM_008.jpg
1433.4	0.879	1	2back	Block3	2back/STIM_009.jpg
1436.982	0.624	1	2back	Block3	2back/STIM_009.jpg
1439.847	0.543	1	2back	Block3	2back/STIM_009.jpg
1443.809	0.648	1	2back	Block3	2back/STIM_010.jpg
1446.559	0.796	1	2back	Block3	2back/STIM_010.jpg
1450.66	0.808	1	2back	Block3	2back/STIM_010.jpg
1455.322	0.49	1	2back	Block3	2back/STIM_011.jpg
1458.453	0.722	0	2back	Block3	2back/STIM_011.jpg
1461.701	0.892	0	2back	Block3	2back/STIM_011.jpg
1465.025	0.851	1	2back	Block3	2back/STIM_012.jpg
1469.13	0.635	1	2back	Block3	2back/STIM_012.jpg
1471.832	0.685	1	2back	Block3	2back/STIM_012.jpg
1474.651	0.865	0	2back	Block3	2back/STIM_013.jpg
1478.767	0.792	0	2back	Block3	2back/STIM_013.jpg
1481.715	0.598	1	2back	Block3	2back/STIM_013.jpg
1486.307	0.705	1	2back	Block3	2back/STIM_014.jpg
1490.711	0.412	1	2back	Block3	2back/STIM_014.jpg
1493.772	0.872	1	2back	Block3	2back/STIM_014.jpg
1497.345	0.391	1	2back	Block3	2back/STIM_015.jpg
1500.684	0.6	1	2back	Block3	2back/STIM_015.jpg
1504.16	0.84	1	2back	Block3	2back/STIM_015.jpg
1507.918	0.442	1	2back	Block3	2back/STIM_016.jpg
1510.712	0.609	1	2back	Block3	2back/STIM_016.jpg
1514.46	0.735	1	2back	Block3	2back/STIM_016.jpg
1518.239	0.714	1	2back	Block3	2back/STIM_017.jpg
1521.753	0.744	0	2back	Block3	2back/STIM_017.jpg
1524.727	0.894	1	2back	Block3	2back/STIM_017.jpg
1528.136	0.401	1	2back	Block3	2back/STIM_018.jpg
1531.204	0.83	1	2back	Block3	2back/STIM_018.jpg
1534.407	0.791	1	2back	Block3	2back/STIM_018.jpg
1538.384	0.821	1	2back	Block3	2back/STIM_019.jpg
1543.024	0.555	1	2back	Block3	2back/STIM_019.jpg
1546.946	0.597	1	2back	Block3	2back/STIM_019.jpg
1550.562	0.509	1	2back	Block3	2back/STIM_020.jpg
1553.877	0.709	1	2back	Block3	2back/STIM_020.jpg
1556.722	0.854	1	2back	Block3	2back/STIM_020.jpg
1560.9	0.765	1	2back	Block3	2back/STIM_021.jpg
1564.076	0.757	1	2back	Block3	2back/STIM_021.jpg
1568.659	0.511	1	2back	Block3	2back/STIM_021.jpg
1571.827	0.424	1	2back	Block3	2back/STIM_022.jpg
1575.727	0.414	1	2back	Block3	2back/STIM_022.jpg
1578.766	0.466	1	2back	Block3	2back/STIM_022.jpg
1581.737	0.461	1	2back	Block3	2back/STIM_023.jpg
1584.575	0.461	1	2back	Block3	2back/STIM_023.jpg
1587.841	0.436	1	2back	Block3	2back/STIM_023.jpg
1592.169	0.444	1	2back	Block3	2back/STIM_024.jpg
1596.055	0.741	1	2back	Block3	2back/STIM_024.jpg
1598.891	0.73	1	2back	Block3	2back/STIM_024.jpg
1601.837	0.428	0	2back	Block3	2back/STIM_025.jpg
1604.509	0.875	1	2back	Block3	2back/STIM_025.jpg
1608.943	0.639	1	2back	Block3	2back/STIM_025.jpg
1611.785	0.39	1	2back	Block3	2back/STIM_026.jpg
1614.892	0.67	1	2back	Block3	2back/STIM_026.jpg
1618.828	0.53	1	2back	Block3	2back/STIM_026.jpg
1622.426	0.491	1	2back	Block3	2back/STIM_027.jpg
1626.898	0.57	1	2back	Block3	2back/STIM_027.jpg
1631.374	0.706	1	2back	Block3	2back/STIM_027.jpg
1635.254	0.768	1	2back	Block3	2back/STIM_028.jpg
1638.927	0.608	1	2back	Block3	2back/STIM_028.jpg
1643.17	0.574	1	2back	Block3	2back/STIM_028.jpg
1646.992	0.821	1	2back	Block3	2back/STIM_029.jpg
1650.132	0.444	1	2back	Block3	2back/STIM_029.jpg
1654.229	0.468	1	2back	Block3	2back/STIM_029.jpg
1657.955	0.459	0	2back	Block3	2back/STIM_030.jpg
1661.739	0.723	1	2back	Block3	2back/STIM_030.jpg
1665.638	0.716	1	2back	Block3	2back/STIM_030.jpg
1669.991	0.454	0	2back	Block3	2back/STIM_031.jpg
1674.176	0.524	1	2back	Block3	2back/STIM_031.jpg
1677.064	0.667	1	2back	Block3	2back/STIM_031.jpg
1681.703	0.697	1	2back	Block3	2back/STIM_032.jpg
1685.662	0.823	1	2back	Block3	2back/STIM_032.jpg
1688.773	0.429	1	2back	Block3	2back/STIM_032.jpg
1691.631	0.868	0	2back	Block3	2back/STIM_033.jpg
1694.976	0.761	1	2back	Block3	2back/STIM_033.jpg
1698.222	0.496	1	2back	Block3	2back/STIM_033.jpg
1701.133	0.695	0	2back	Block3	2back/STIM_034.jpg
1703.84	0.805	1	2back	Block3	2back/STIM_034.jpg
1707.004	0.685	1	2back	Block3	2back/STIM_034.jpg
1709.75	0.874	1	2back	Block3	2back/STIM_035.jpg
1714.582	0.753	1	2back	Block3	2back/STIM_035.jpg
1718.54	0.904	1	2back	Block3	2back/STIM_035.jpg
1721.932	0.795	1	2back	Block3	2back/STIM_036.jpg
1724.783	0.891	1	2back	Block3	2back/STIM_036.jpg
1728.403	0.457	1	2back	Block3	2back/STIM_036.jpg
1731.611	0.699	0	2back	Block3	2back/STIM_037.jpg
1735.912	0.566	1	2back	Block3	2back/STIM_037.jpg
1739.611	0.716	1	2back	Block3	2back/STIM_037.jpg
1744.195	0.652	1	2back	Block3	2back/STIM_038.jpg
1746.875	0.681	1	2back	Block3	2back/STIM_038.jpg
1751.174	0.583	1	2back	Block3	2back/STIM_038.jpg
1754.841	0.624	1	2back	Block3	2back/STIM_039.jpg
1758.634	0.585	1	2back	Block3	2back/STIM_039.jpg
1762.685	0.874	1	2back	Block3	2back/STIM_039.jpg
1767.517	0.704	0	0back	Block3	0back/STIM_000.jpg
1771.006	0.654	1	0back	Block3	0back/STIM_000.jpg
1774.541	0.659	1	0back	Block3	0back/STIM_000.jpg
1778.191	0.487	1	0back	Block3	0back/STIM_001.jpg
1781.882	0.412	1	0back	Block3	0back/STIM_001.jpg
1784.812	0.528	1	0back	Block3	0back/STIM_001.jpg
1787.735	0.441	1	0back	Block3	0back/STIM_002.jpg
1790.899	0.63	0	0back	Block3	0back/STIM_002.jpg
1794.51	0.488	1	0back	Block3	0back/STIM_002.jpg
1797.881	0.533	1	0back	Block3	0back/STIM_003.jpg
1801.604	0.668	1	0back	Block3	0back/STIM_003.jpg
1804.647	0.707	0	0back	Block3	0back/STIM_003.jpg
1808.547	0.44	1	0back	Block3	0back/STIM_004.jpg
1811.961	0.616	0	0back	Block3	0back/STIM_004.jpg
1816.411	0.56	1	0back	Block3	0back/STIM_004.jpg
1819.919	0.694	1	0back	Block3	0back/STIM_005.jpg
1823.809	0.498	1	0back	Block3	0back/STIM_005.jpg
1826.668	0.46	0	0back	Block3	0back/STIM_005.jpg
1830.425	0.691	1	0back	Block3	0back/STIM_006.jpg
1834.539	0.39	1	0back	Block3	0back/STIM_006.jpg
1838.875	0.381	1	0back	Block3	0back/STIM_006.jpg
1842.034	0.475	1	0back	Block3	0back/STIM_007.jpg
1845.341	0.532	1	0back	Block3	0back/STIM_007.jpg
1848.393	0.542	1	0back	Block3	0back/STIM_007.jpg
1851.827	0.652	1	0back	Block3	0back/STIM_008.jpg
1856.315	0.591	1	0back	Block3	0back/STIM_008.jpg
1860.163	0.37	1	0back	Block3	0back/STIM_008.jpg
1862.98	0.499	0	0back	Block3	0back/STIM_009.jpg
1866.544	0.619	1	0back	Block3	0back/STIM_009.jpg
1869.387	0.651	0	0back	Block3	0back/STIM_009.jpg
1873.892	0.708	0	0back	Block3	0back/STIM_010.jpg
1876.724	0.501	1	0back	Block3	0back/STIM_010.jpg
1880.566	0.519	1	0back	Block3	0back/STIM_010.jpg
1883.337	0.532	0	0back	Block3	0back/STIM_011.jpg
1886.342	0.404	1	0back	Block3	0back/STIM_011.jpg
1889.081	0.394	1	0back	Block3	0back/STIM_011.jpg
1891.622	0.486	1	0back	Block3	0back/STIM_012.jpg
1895.035	0.619	1	0back	Block3	0back/STIM_012.jpg
1898.795	0.632	1	0back	Block3	0back/STIM_012.jpg
1901.798	0.652	1	0back	Block3	0back/STIM_013.jpg
1906.158	0.502	1	0back	Block3	0back/STIM_013.jpg
1909.19	0.562	1	0back	Block3	0back/STIM_013.jpg
1912.515	0.666	1	0back	Block3	0back/STIM_014.jpg
1917.006	0.579	1	0back	Block3	0back/STIM_014.jpg
1921.157	0.498	1	0back	Block3	0back/STIM_014.jpg
1923.771	0.474	1	0back	Block3	0back/STIM_015.jpg
1926.509	0.461	1	0back	Block3	0back/STIM_015.jpg
1930.451	0.388	1	0back	Block3	0back/STIM_015.jpg
1933.885	0.657	1	0back	Block3	0back/STIM_016.jpg
1936.683	0.704	0	0back	Block3	0back/STIM_016.jpg
1940.562	0.461	1	0back	Block3	0back/STIM_016.jpg
1944.779	0.528	1	0back	Block3	0back/STIM_017.jpg
1948.045	0.394	1	0back	Block3	0back/STIM_017.jpg
1951.185	0.485	1	0back	Block3	0back/STIM_017.jpg
1955.492	0.397	1	0back	Block3	0back/STIM_018.jpg
1958.71	0.587	0	0back	Block3	0back/STIM_018.jpg
1961.618	0.482	1	0back	Block3	0back/STIM_018.jpg
1965.637	0.663	1	0back	Block3	0back/STIM_019.jpg
1970.094	0.636	0	0back	Block3	0back/STIM_019.jpg
1973.504	0.46	1	0back	Block3	0back/STIM_019.jpg
1976.037	0.617	1	2back	Block4	2back/STIM_000.jpg
1978.735	0.834	1	2back	Block4	2back/STIM_000.jpg
1982.193	0.875	1	2back	Block4	2back/STIM_000.jpg
1986.13	0.775	1	2back	Block4	2back/STIM_001.jpg
1989.27	0.568	1	2back	Block4	2back/STIM_001.jpg
1993.734	0.844	1	2back	Block4	2back/STIM_001.jpg
1997.301	0.539	1	2back	Block4	2back/STIM_002.jpg
2000.656	0.657	1	2back	Block4	2back/STIM_002.jpg
2004.364	0.761	1	2back	Block4	2back/STIM_002.jpg
2007.559	0.768	1	2back	Block4	2back/STIM_003.jpg
2011.229	0.498	1	2back	Block4	2back/STIM_003.jpg
2014.591	0.884	1	2back	Block4	2back/STIM_003.jpg
2018.604	0.89	1	2back	Block4	2back/STIM_004.jpg
2023.325	0.404	1	2back	Block4	2back/STIM_004.jpg
2025.829	0.472	1	2back	Block4	2back/STIM_004.jpg
2029.808	0.44	1	2back	Block4	2back/STIM_005.jpg
2032.741	0.831	1	2back	Block4	2back/STIM_005.jpg
2036.782	0.619	1	2back	Block4	2back/STIM_005.jpg
2040.368	0.528	1	2back	Block4	2back/STIM_006.jpg
2043.594	0.59	1	2back	Block4	2back/STIM_006.jpg
2048.011	0.518	1	2back	Block4	2back/STIM_006.jpg
2051.083	0.89	1	2back	Block4	2back/STIM_007.jpg
2054.696	0.528	1	2back	Block4	2back/STIM_007.jpg
2058.758	0.463	1	2back	Block4	2back/STIM_007.jpg
2061.297	0.822	1	2back	Block4	2back/STIM_008.jpg
2065.787	0.809	1	2back	Block4	2back/STIM_008.jpg
2069.819	0.416	1	2back	Block4	2back/STIM_008.jpg
2073.884	0.388	1	2back	Block4	2back/STIM_009.jpg
2076.666	0.708	1	2back	Block4	2back/STIM_009.jpg
2080.739	0.876	1	2back	Block4	2back/STIM_009.jpg
2083.656	0.412	1	2back	Block4	2back/STIM_010.jpg
2087.742	0.585	1	2back	Block4	2back/STIM_010.jpg
2090.527	0.663	1	2back	Block4	2back/STIM_010.jpg
2094.057	0.498	1	2back	Block4	2back/STIM_011.jpg
2097.637	0.8	1	2back	Block4	2back/STIM_011.jpg
2101.766	0.837	1	2back	Block4	2back/STIM_011.jpg
2104.896	0.582	0	2back	Block4	2back/STIM_012.jpg
2108.732	0.689	1	2back	Block4	2back/STIM_012.jpg
2113.197	0.4	1	2back	Block4	2back/STIM_012.jpg
2116.976	0.462	1	2back	Block4	2back/STIM_013.jpg
2120.499	0.485	1	2back	Block4	2back/STIM_013.jpg
2123.259	0.416	1	2back	Block4	2back/STIM_013.jpg
2127.367	0.777	1	2back	Block4	2back/STIM_014.jpg
2130.31	0.672	1	2back	Block4	2back/STIM_014.jpg
2134.562	0.669	1	2back	Block4	2back/STIM_014.jpg
2138.64	0.577	1	2back	Block4	2back/STIM_015.jpg
2142.293	0.698	1	2back	Block4	2back/STIM_015.jpg
2145.55	0.454	1	2back	Block4	2back/STIM_015.jpg
2149.728	0.791	1	2back	Block4	2back/STIM_016.jpg
2152.775	0.4	1	2back	Block4	2back/STIM_016.jpg
2155.283	0.469	1	2back	Block4	2back/STIM_016.jpg
2159.015	0.785	1	2back	Block4	2back/STIM_017.jpg
2162.466	0.55	1	2back	Block4	2back/STIM_017.jpg
2166.519	0.64	1	2back	Block4	2back/STIM_017.jpg
2170.44	0.438	1	2back	Block4	2back/STIM_018.jpg
2174.323	0.511	1	2back	Block4	2back/STIM_018.jpg
2176.963	0.601	1	2back	Block4	2back/STIM_018.jpg
2180.478	0.741	1	2back	Block4	2back/STIM_019.jpg
2184.938	0.687	1	2back	Block4	2back/STIM_019.jpg
2189.245	0.718	1	2back	Block4	2back/STIM_019.jpg
2192.149	0.727	1	2back	Block4	2back/STIM_020.jpg
2195.745	0.428	1	2back	Block4	2back/STIM_020.jpg
2198.4	0.673	1	2back	Block4	2back/STIM_020.jpg
2202.853	0.757	1	2back	Block4	2back/STIM_021.jpg
2206.607	0.424	0	2back	Block4	2back/STIM_021.jpg
2210.428	0.472	0	2back	Block4	2back/STIM_021.jpg
2214.151	0.871	0	2back	Block4	2back/STIM_022.jpg
2218.167	0.591	1	2back	Block4	2back/STIM_022.jpg
2222.047	0.449	1	2back	Block4	2back/STIM_022.jpg
2225.437	0.841	1	2back	Block4	2back/STIM_023.jpg
2229.135	0.407	1	2back	Block4	2back/STIM_023.jpg
2232.476	0.532	1	2back	Block4	2back/STIM_023.jpg
2235.251	0.704	1	2back	Block4	2back/STIM_024.jpg
2239.528	0.634	1	2back	Block4	2back/STIM_024.jpg
2242.647	0.88	1	2back	Block4	2back/STIM_024.jpg
2246.277	0.823	1	2back	Block4	2back/STIM_025.jpg
2251.025	0.704	1	2back	Block4	2back/STIM_025.jpg
2254.58	0.469	1	2back	Block4	2back/STIM_025.jpg
2257.538	0.631	1	2back	Block4	2back/STIM_026.jpg
2261.849	0.901	1	2back	Block4	2back/STIM_026.jpg
2265.447	0.804	1	2back	Block4	2back/STIM_026.jpg
2269.801	0.79	1	2back	Block4	2back/STIM_027.jpg
2274.246	0.731	1	2back	Block4	2back/STIM_027.jpg
2278.458	0.685	1	2back	Block4	2back/STIM_027.jpg
2281.828	0.811	1	2back	Block4	2back/STIM_028.jpg
2284.714	0.565	1	2back	Block4	2back/STIM_028.jpg
2288.081	0.588	1	2back	Block4	2back/STIM_028.jpg
2291.278	0.406	1	2back	Block4	2back/STIM_029.jpg
2295.33	0.803	1	2back	Block4	2back/STIM_029.jpg
2299.344	0.808	1	2back	Block4	2back/STIM_029.jpg
2303.863	0.838	1	2back	Block4	2back/STIM_030.jpg
2307.591	0.533	1	2back	Block4	2back/STIM_030.jpg
2311.576	0.846	1	2back	Block4	2back/STIM_030.jpg
2315.014	0.901	1	2back	Block4	2back/STIM_031.jpg
2318.222	0.606	1	2back	Block4	2back/STIM_031.jpg
2322.597	0.88	1	2back	Block4	2back/STIM_031.jpg
2326.216	0.613	1	2back	Block4	2back/STIM_032.jpg
2330.287	0.728	1	2back	Block4	2back/STIM_032.jpg
2333.025	0.794	1	2back	Block4	2back/STIM_032.jpg
2336.697	0.504	1	2back	Block4	2back/STIM_033.jpg
2340.414	0.799	0	2back	Block4	2back/STIM_033.jpg
2344.305	0.85	1	2back	Block4	2back/STIM_033.jpg
2347.776	0.552	1	2back	Block4	2back/STIM_034.jpg
2350.468	0.872	1	2back	Block4	2back/STIM_034.jpg
2354.445	0.793	0	2back	Block4	2back/STIM_034.jpg
2357.822	0.668	1	2back	Block4	2back/STIM_035.jpg
2360.869	0.78	1	2back	Block4	2back/STIM_035.jpg
2365.014	0.888	1	2back	Block4	2back/STIM_035.jpg
2368.949	0.572	0	2back	Block4	2back/STIM_036.jpg
2372.614	0.434	1	2back	Block4	2back/STIM_036.jpg
2375.073	0.679	1	2back	Block4	2back/STIM_036.jpg
2378.745	0.9	1	2back	Block4	2back/STIM_037.jpg
2383.409	0.83	0	2back	Block4	2back/STIM_037.jpg
2386.812	0.57	1	2back	Block4	2back/STIM_037.jpg
2389.698	0.887	1	2back	Block4	2back/STIM_038.jpg
2393.271	0.904	0	2back	Block4	2back/STIM_038.jpg
2397.655	0.426	0	2back	Block4	2back/STIM_038.jpg
2401.225	0.888	1	2back	Block4	2back/STIM_039.jpg
2405.979	0.584	1	2back	Block4	2back/STIM_039.jpg
2409.673	0.718	1	2back	Block4	2back/STIM_039.jpg
2413.504	0.446	1	0back	Block4	0back/STIM_000.jpg
2417.333	0.414	1	0back	Block4	0back/STIM_000.jpg
2419.972	0.729	1	0back	Block4	0back/STIM_000.jpg
2424.398	0.677	1	0back	Block4	0back/STIM_001.jpg
2427.27	0.392	1	0back	Block4	0back/STIM_001.jpg
2431.105	0.567	1	0back	Block4	0back/STIM_001.jpg
2434.793	0.413	1	0back	Block4	0back/STIM_002.jpg
2438.003	0.452	1	0back	Block4	0back/STIM_002.jpg
2441.07	0.568	0	0back	Block4	0back/STIM_002.jpg
2443.813	0.517	1	0back	Block4	0back/STIM_003.jpg
2446.617	0.372	1	0back	Block4	0back/STIM_003.jpg
2450.374	0.467	1	0back	Block4	0back/STIM_003.jpg
2454.363	0.734	1	0back	Block4	0back/STIM_004.jpg
2458.372	0.604	1	0back	Block4	0back/STIM_004.jpg
2462.541	0.528	1	0back	Block4	0back/STIM_004.jpg
2466.423	0.699	1	0back	Block4	0back/STIM_005.jpg
2469.639	0.729	1	0back	Block4	0back/STIM_005.jpg
2474.122	0.637	1	0back	Block4	0back/STIM_005.jpg
2477.853	0.398	1	0back	Block4	0back/STIM_006.jpg
2481.55	0.625	1	0back	Block4	0back/STIM_006.jpg
2484.94	0.391	1	0back	Block4	0back/STIM_006.jpg
2487.554	0.522	1	0back	Block4	0back/STIM_007.jpg
2491.398	0.433	1	0back	Block4	0back/STIM_007.jpg
2494.187	0.695	1	0back	Block4	0back/STIM_007.jpg
2498.459	0.453	1	0back	Block4	0back/STIM_008.jpg
2502.276	0.679	1	0back	Block4	0back/STIM_008.jpg
2506.249	0.569	1	0back	Block4	0back/STIM_008.jpg
2510.059	0.521	1	0back	Block4	0back/STIM_009.jpg
2514.386	0.423	0	0back	Block4	0back/STIM_009.jpg
2517.523	0.648	1	0back	Block4	0back/STIM_009.jpg
2520.541	0.675	1	0back	Block4	0back/STIM_010.jpg
2525.147	0.425	0	0back	Block4	0back/STIM_010.jpg
2529.305	0.672	1	0back	Block4	0back/STIM_010.jpg
2533.083	0.414	1	0back	Block4	0back/STIM_011.jpg
2535.563	0.483	1	0back	Block4	0back/STIM_011.jpg
2538.219	0.535	0	0back	Block4	0back/STIM_011.jpg
2542.012	0.654	0	0back	Block4	0back/STIM_012.jpg
2546.653	0.601	1	0back	Block4	0back/STIM_012.jpg
2550.399	0.645	1	0back	Block4	0back/STIM_012.jpg
2554.598	0.623	1	0back	Block4	0back/STIM_013.jpg
2558.776	0.471	0	0back	Block4	0back/STIM_013.jpg
2561.612	0.668	1	0back	Block4	0back/STIM_013.jpg
2564.635	0.702	1	0back	Block4	0back/STIM_014.jpg
2567.744	0.71	1	0back	Block4	0back/STIM_014.jpg
2570.89	0.4	1	0back	Block4	0back/STIM_014.jpg
2573.632	0.517	0	0back	Block4	0back/STIM_015.jpg
2576.367	0.513	0	0back	Block4	0back/STIM_015.jpg
2579.958	0.72	0	0back	Block4	0back/STIM_015.jpg
2582.717	0.404	1	0back	Block4	0back/STIM_016.jpg
2586.402	0.73	1	0back	Block4	0back/STIM_016.jpg
2590.681	0.558	1	0back	Block4	0back/STIM_016.jpg
2594.066	0.493	0	0back	Block4	0back/STIM_017.jpg
2597.854	0.654	1	0back	Block4	0back/STIM_017.jpg
2601.936	0.646	1	0back	Block4	0back/STIM_017.jpg
2604.826	0.495	1	0back	Block4	0back/STIM_018.jpg
2608.295	0.529	0	0back	Block4	0back/STIM_018.jpg
2611.835	0.421	1	0back	Block4	0back/STIM_018.jpg
2614.377	0.39	1	0back	Block4	0back/STIM_019.jpg
2618.488	0.654	1	0back	Block4	0back/STIM_019.jpg
2621.427	0.53	1	0back	Block4	0back/STIM_019.jpg
