onset	duration	accuracy	trial_type	learning_stage	stimulus
0.0	1.232	correct	2back	Block1	2back/STIM_000.jpg
3.286	1.456	correct	2back	Block1	2back/STIM_000.jpg
7.619	0.859	correct	2back	Block1	2back/STIM_000.jpg
11.123	1.479	incorrect	2back	Block1	2back/STIM_001.jpg
15.496	1.315	correct	2back	Block1	2back/STIM_001.jpg
20.266	1.062	correct	2back	Block1	2back/STIM_001.jpg
24.104	1.532	correct	2back	Block1	2back/STIM_002.jpg
28.869	0.638	correct	2back	Block1	2back/STIM_002.jpg
32.793	1.351	correct	2back	Block1	2back/STIM_002.jpg
36.335	1.037	correct	2back	Block1	2back/STIM_003.jpg
39.994	1.164	correct	2back	Block1	2back/STIM_003.jpg
44.908	0.734	correct	2back	Block1	2back/STIM_003.jpg
49.156	0.856	correct	2back	Block1	2back/STIM_004.jpg
52.077	1.304	correct	2back	Block1	2back/STIM_004.jpg
56.715	0.789	correct	2back	Block1	2back/STIM_004.jpg
60.555	1.443	correct	2back	Block1	2back/STIM_005.jpg
64.308	0.733	correct	2back	Block1	2back/STIM_005.jpg
67.273	0.574	correct	2back	Block1	2back/STIM_005.jpg
71.452	1.227	correct	2back	Block1	2back/STIM_006.jpg
76.287	1.163	correct	2back	Block1	2back/STIM_006.jpg
79.897	0.707	correct	2back	Block1	2back/STIM_006.jpg
84.51	0.794	correct	2back	Block1	2back/STIM_007.jpg
88.37	1.237	correct	2back	Block1	2back/STIM_007.jpg
91.661	1.134	correct	2back	Block1	2back/STIM_007.jpg
96.198	1.198	correct	2back	Block1	2back/STIM_008.jpg
99.592	0.721	correct	2back	Block1	2back/STIM_008.jpg
103.738	0.756	correct	2back	Block1	2back/STIM_008.jpg
107.562	1.171	correct	2back	Block1	2back/STIM_009.jpg
111.817	1.182	correct	2back	Block1	2back/STIM_009.jpg
116.094	0.91	correct	2back	Block1	2back/STIM_009.jpg
119.954	1.077	correct	2back	Block1	2back/STIM_010.jpg
124.772	1.46	correct	2back	Block1	2back/STIM_010.jpg
128.09	1.021	correct	2back	Block1	2back/STIM_010.jpg
131.022	1.343	correct	2back	Block1	2back/STIM_011.jpg
135.103	0.78	correct	2back	Block1	2back/STIM_011.jpg
138.03	0.866	correct	2back	Block1	2back/STIM_011.jpg
141.505	0.783	correct	2back	Block1	2back/STIM_012.jpg
146.066	1.131	correct	2back	Block1	2back/STIM_012.jpg
149.727	1.106	correct	2back	Block1	2back/STIM_012.jpg
152.862	0.982	correct	2back	Block1	2back/STIM_013.jpg
155.839	0.991	correct	2back	Block1	2back/STIM_013.jpg
160.254	0.804	correct	2back	Block1	2back/STIM_013.jpg
163.713	1.365	correct	2back	Block1	2back/STIM_014.jpg
168.657	1.505	incorrect	2back	Block1	2back/STIM_014.jpg
172.65	0.843	correct	2back	Block1	2back/STIM_014.jpg
175.666	1.39	correct	2back	Block1	2back/STIM_015.jpg
180.535	0.76	correct	2back	Block1	2back/STIM_015.jpg
183.295	0.594	correct	2back	Block1	2back/STIM_015.jpg
187.216	1.056	correct	2back	Block1	2back/STIM_016.jpg
190.349	1.034	correct	2back	Block1	2back/STIM_016.jpg
193.846	1.119	correct	2back	Block1	2back/STIM_016.jpg
197.132	0.869	correct	2back	Block1	2back/STIM_017.jpg
201.321	1.317	correct	2back	Block1	2back/STIM_017.jpg
205.767	0.979	correct	2back	Block1	2back/STIM_017.jpg
209.775	1.209	correct	2back	Block1	2back/STIM_018.jpg
213.005	0.641	correct	2back	Block1	2back/STIM_018.jpg
217.333	0.764	correct	2back	Block1	2back/STIM_018.jpg
220.156	1.452	correct	2back	Block1	2back/STIM_019.jpg
224.297	1.229	correct	2back	Block1	2back/STIM_019.jpg
229.069	0.844	correct	2back	Block1	2back/STIM_019.jpg
232.655	1.28	correct	2back	Block1	2back/STIM_020.jpg
236.79	1.251	correct	2back	Block1	2back/STIM_020.jpg
241.432	1.044	correct	2back	Block1	2back/STIM_020.jpg
245.326	1.391	correct	2back	Block1	2back/STIM_021.jpg
250.449	0.741	incorrect	2back	Block1	2back/STIM_021.jpg
255.02	1.255	correct	2back	Block1	2back/STIM_021.jpg
259.049	1.462	incorrect	2back	Block1	2back/STIM_022.jpg
264.221	1.141	correct	2back	Block1	2back/STIM_022.jpg
267.976	1.299	correct	2back	Block1	2back/STIM_022.jpg
272.939	0.764	correct	2back	Block1	2back/STIM_023.jpg
275.873	1.35	incorrect	2back	Block1	2back/STIM_023.jpg
279.896	0.987	correct	2back	Block1	2back/STIM_023.jpg
284.167	1.522	incorrect	2back	Block1	2back/STIM_024.jpg
289.276	1.243	correct	2back	Block1	2back/STIM_024.jpg
293.154	1.143	correct	2back	Block1	2back/STIM_024.jpg
296.556	0.838	correct	2back	Block1	2back/STIM_025.jpg
300.985	0.912	correct	2back	Block1	2back/STIM_025.jpg
305.044	0.978	correct	2back	Block1	2back/STIM_025.jpg
308.112	0.729	correct	2back	Block1	2back/STIM_026.jpg
311.063	0.654	correct	2back	Block1	2back/STIM_026.jpg
313.955	0.982	correct	2back	Block1	2back/STIM_026.jpg
317.028	1.467	correct	2back	Block1	2back/STIM_027.jpg
321.095	0.922	incorrect	2back	Block1	2back/STIM_027.jpg
325.545	1.126	correct	2back	Block1	2back/STIM_027.jpg
330.406	1.526	correct	2back	Block1	2back/STIM_028.jpg
335.171	1.143	correct	2back	Block1	2back/STIM_028.jpg
338.614	1.126	incorrect	2back	Block1	2back/STIM_028.jpg
342.977	1.033	correct	2back	Block1	2back/STIM_029.jpg
346.783	1.141	incorrect	2back	Block1	2back/STIM_029.jpg
350.031	1.222	correct	2back	Block1	2back/STIM_029.jpg
353.241	0.808	correct	2back	Block1	2back/STIM_030.jpg
356.59	0.736	correct	2back	Block1	2back/STIM_030.jpg
360.244	0.772	correct	2back	Block1	2back/STIM_030.jpg
364.301	1.405	correct	2back	Block1	2back/STIM_031.jpg
367.996	1.395	correct	2back	Block1	2back/STIM_031.jpg
371.812	0.91	correct	2back	Block1	2back/STIM_031.jpg
374.786	0.672	correct	2back	Block1	2back/STIM_032.jpg
379.226	0.729	correct	2back	Block1	2back/STIM_032.jpg
382.177	0.778	correct	2back	Block1	2back/STIM_032.jpg
385.37	0.958	correct	2back	Block1	2back/STIM_033.jpg
389.35	1.276	incorrect	2back	Block1	2back/STIM_033.jpg
392.501	0.872	correct	2back	Block1	2back/STIM_033.jpg
396.661	0.851	correct	2back	Block1	2back/STIM_034.jpg
401.068	0.803	correct	2back	Block1	2back/STIM_034.jpg
404.652	1.252	correct	2back	Block1	2back/STIM_034.jpg
409.29	1.007	incorrect	2back	Block1	2back/STIM_035.jpg
413.88	0.86	correct	2back	Block1	2back/STIM_035.jpg
418.571	1.102	incorrect	2back	Block1	2back/STIM_035.jpg
421.757	1.061	correct	2back	Block1	2back/STIM_036.jpg
425.101	1.417	correct	2back	Block1	2back/STIM_036.jpg
429.599	1.21	correct	2back	Block1	2back/STIM_036.jpg
432.761	1.422	correct	2back	Block1	2back/STIM_037.jpg
437.32	0.748	correct	2back	Block1	2back/STIM_037.jpg
440.106	1.345	correct	2back	Block1	2back/STIM_037.jpg
444.124	0.812	correct	2back	Block1	2back/STIM_038.jpg
448.182	1.462	correct	2back	Block1	2back/STIM_038.jpg
451.873	1.159	correct	2back	Block1	2back/STIM_038.jpg
456.363	0.725	incorrect	2back	Block1	2back/STIM_039.jpg
460.044	0.738	incorrect	2back	Block1	2back/STIM_039.jpg
464.247	0.528	correct	2back	Block1	2back/STIM_039.jpg
467.745	0.817	correct	0back	Block1	0back/STIM_000.jpg
470.617	0.634	correct	0back	Block1	0back/STIM_000.jpg
473.592	0.746	correct	0back	Block1	0back/STIM_000.jpg
476.763	0.546	correct	0back	Block1	0back/STIM_001.jpg
479.794	0.671	correct	0back	Block1	0back/STIM_001.jpg
483.276	0.557	correct	0back	Block1	0back/STIM_001.jpg
486.413	0.407	correct	0back	Block1	0back/STIM_002.jpg
489.104	0.619	correct	0back	Block1	0back/STIM_002.jpg
492.455	0.721	correct	0back	Block1	0back/STIM_002.jpg
495.229	0.937	correct	0back	Block1	0back/STIM_003.jpg
499.073	0.671	correct	0back	Block1	0back/STIM_003.jpg
502.226	0.558	correct	0back	Block1	0back/STIM_003.jpg
505.1	0.549	correct	0back	Block1	0back/STIM_004.jpg
509.107	0.443	correct	0back	Block1	0back/STIM_004.jpg
513.373	0.713	correct	0back	Block1	0back/STIM_004.jpg
516.105	0.78	correct	0back	Block1	0back/STIM_005.jpg
519.254	0.759	incorrect	0back	Block1	0back/STIM_005.jpg
523.675	0.477	incorrect	0back	Block1	0back/STIM_005.jpg
527.065	0.582	incorrect	0back	Block1	0back/STIM_006.jpg
530.541	0.702	correct	0back	Block1	0back/STIM_006.jpg
533.3	0.505	correct	0back	Block1	0back/STIM_006.jpg
536.103	0.597	correct	0back	Block1	0back/STIM_007.jpg
540.12	0.545	correct	0back	Block1	0back/STIM_007.jpg
542.606	0.51	correct	0back	Block1	0back/STIM_007.jpg
545.372	0.883	correct	0back	Block1	0back/STIM_008.jpg
549.772	0.94	correct	0back	Block1	0back/STIM_008.jpg
554.433	0.717	correct	0back	Block1	0back/STIM_008.jpg
557.097	0.751	correct	0back	Block1	0back/STIM_009.jpg
560.107	0.531	correct	0back	Block1	0back/STIM_009.jpg
563.063	0.803	correct	0back	Block1	0back/STIM_009.jpg
566.226	0.443	correct	0back	Block1	0back/STIM_010.jpg
568.776	0.663	correct	0back	Block1	0back/STIM_010.jpg
573.08	0.761	correct	0back	Block1	0back/STIM_010.jpg
575.972	0.538	correct	0back	Block1	0back/STIM_011.jpg
578.56	0.85	correct	0back	Block1	0back/STIM_011.jpg
582.41	0.832	correct	0back	Block1	0back/STIM_011.jpg
586.8	0.626	correct	0back	Block1	0back/STIM_012.jpg
590.566	0.829	correct	0back	Block1	0back/STIM_012.jpg
595.17	0.652	incorrect	0back	Block1	0back/STIM_012.jpg
597.919	0.81	correct	0back	Block1	0back/STIM_013.jpg
602.53	0.687	correct	0back	Block1	0back/STIM_013.jpg
606.303	0.741	correct	0back	Block1	0back/STIM_013.jpg
610.685	0.764	correct	0back	Block1	0back/STIM_014.jpg
614.956	0.567	correct	0back	Block1	0back/STIM_014.jpg
617.874	0.592	correct	0back	Block1	0back/STIM_014.jpg
620.518	0.645	correct	0back	Block1	0back/STIM_015.jpg
624.481	0.72	correct	0back	Block1	0back/STIM_015.jpg
627.857	0.512	correct	0back	Block1	0back/STIM_015.jpg
632.058	0.739	correct	0back	Block1	0back/STIM_016.jpg
635.135	0.572	correct	0back	Block1	0back/STIM_016.jpg
637.649	0.833	correct	0back	Block1	0back/STIM_016.jpg
641.469	0.423	correct	0back	Block1	0back/STIM_017.jpg
644.374	0.754	correct	0back	Block1	0back/STIM_017.jpg
648.799	0.611	correct	0back	Block1	0back/STIM_017.jpg
652.805	0.675	correct	0back	Block1	0back/STIM_018.jpg
656.343	0.725	correct	0back	Block1	0back/STIM_018.jpg
660.081	0.689	correct	0back	Block1	0back/STIM_018.jpg
663.595	0.918	correct	0back	Block1	0back/STIM_019.jpg
668.061	0.63	correct	0back	Block1	0back/STIM_019.jpg
670.736	0.691	correct	0back	Block1	0back/STIM_019.jpg
674.431	1.243	correct	2back	Block2	2back/STIM_000.jpg
679.03	0.738	correct	2back	Block2	2back/STIM_000.jpg
681.972	0.569	correct	2back	Block2	2back/STIM_000.jpg
685.011	1.411	incorrect	2back	Block2	2back/STIM_001.jpg
689.269	0.773	correct	2back	Block2	2back/STIM_001.jpg
693.41	0.862	correct	2back	Block2	2back/STIM_001.jpg
697.396	0.888	correct	2back	Block2	2back/STIM_002.jpg
702.17	0.878	incorrect	2back	Block2	2back/STIM_002.jpg
705.15	0.775	correct	2back	Block2	2back/STIM_002.jpg
708.696	0.578	correct	2back	Block2	2back/STIM_003.jpg
711.94	1.218	correct	2back	Block2	2back/STIM_003.jpg
716.035	0.636	correct	2back	Block2	2back/STIM_003.jpg
719.557	0.782	correct	2back	Block2	2back/STIM_004.jpg
723.445	0.521	correct	2back	Block2	2back/STIM_004.jpg
726.618	0.806	correct	2back	Block2	2back/STIM_004.jpg
730.522	0.616	correct	2back	Block2	2back/STIM_005.jpg
734.567	1.296	incorrect	2back	Block2	2back/STIM_005.jpg
738.95	1.046	correct	2back	Block2	2back/STIM_005.jpg
743.63	0.944	correct	2back	Block2	2back/STIM_006.jpg
747.625	0.549	correct	2back	Block2	2back/STIM_006.jpg
750.351	0.563	correct	2back	Block2	2back/STIM_006.jpg
753.39	1.033	correct	2back	Block2	2back/STIM_007.jpg
758.148	1.098	correct	2back	Block2	2back/STIM_007.jpg
761.635	0.551	correct	2back	Block2	2back/STIM_007.jpg
764.423	1.166	correct	2back	Block2	2back/STIM_008.jpg
768.558	1.334	correct	2back	Block2	2back/STIM_008.jpg
772.178	1.131	correct	2back	Block2	2back/STIM_008.jpg
775.338	0.942	correct	2back	Block2	2back/STIM_009.jpg
778.173	1.181	correct	2back	Block2	2back/STIM_009.jpg
781.758	0.964	correct	2back	Block2	2back/STIM_009.jpg
785.056	1.026	correct	2back	Block2	2back/STIM_010.jpg
788.556	0.559	correct	2back	Block2	2back/STIM_010.jpg
791.67	0.803	correct	2back	Block2	2back/STIM_010.jpg
795.583	0.769	correct	2back	Block2	2back/STIM_011.jpg
798.641	0.869	correct	2back	Block2	2back/STIM_011.jpg
803.064	1.208	correct	2back	Block2	2back/STIM_011.jpg
808.047	0.88	correct	2back	Block2	2back/STIM_012.jpg
811.257	0.87	correct	2back	Block2	2back/STIM_012.jpg
815.282	0.798	correct	2back	Block2	2back/STIM_012.jpg
819.298	1.039	correct	2back	Block2	2back/STIM_013.jpg
823.553	0.878	correct	2back	Block2	2back/STIM_013.jpg
827.167	1.035	correct	2back	Block2	2back/STIM_013.jpg
831.073	0.667	correct	2back	Block2	2back/STIM_014.jpg
834.805	0.52	correct	2back	Block2	2back/STIM_014.jpg
837.55	0.962	correct	2back	Block2	2back/STIM_014.jpg
842.119	0.599	correct	2back	Block2	2back/STIM_015.jpg
845.549	0.709	correct	2back	Block2	2back/STIM_015.jpg
850.195	1.154	correct	2back	Block2	2back/STIM_015.jpg
854.167	0.884	correct	2back	Block2	2back/STIM_016.jpg
858.438	0.781	incorrect	2back	Block2	2back/STIM_016.jpg
861.912	0.821	correct	2back	Block2	2back/STIM_016.jpg
864.842	1.147	correct	2back	Block2	2back/STIM_017.jpg
869.737	0.718	correct	2back	Block2	2back/STIM_017.jpg
874.377	0.974	correct	2back	Block2	2back/STIM_017.jpg
878.167	1.255	correct	2back	Block2	2back/STIM_018.jpg
882.108	0.821	correct	2back	Block2	2back/STIM_018.jpg
885.464	0.841	correct	2back	Block2	2back/STIM_018.jpg
888.593	1.008	correct	2back	Block2	2back/STIM_019.jpg
893.312	0.605	correct	2back	Block2	2back/STIM_019.jpg
897.114	0.918	correct	2back	Block2	2back/STIM_019.jpg
900.325	0.877	correct	2back	Block2	2back/STIM_020.jpg
903.74	0.976	correct	2back	Block2	2back/STIM_020.jpg
908.316	0.678	correct	2back	Block2	2back/STIM_020.jpg
912.612	1.224	correct	2back	Block2	2back/STIM_021.jpg
917.247	1.22	correct	2back	Block2	2back/STIM_021.jpg
921.176	0.79	correct	2back	Block2	2back/STIM_021.jpg
925.156	0.548	correct	2back	Block2	2back/STIM_022.jpg
928.392	1.021	correct	2back	Block2	2back/STIM_022.jpg
932.531	0.666	correct	2back	Block2	2back/STIM_022.jpg
935.154	0.92	correct	2back	Block2	2back/STIM_023.jpg
939.532	0.9	correct	2back	Block2	2back/STIM_023.jpg
943.159	1.083	correct	2back	Block2	2back/STIM_023.jpg
947.182	0.781	correct	2back	Block2	2back/STIM_024.jpg
950.823	0.575	correct	2back	Block2	2back/STIM_024.jpg
954.382	0.769	correct	2back	Block2	2back/STIM_024.jpg
957.255	0.63	correct	2back	Block2	2back/STIM_025.jpg
961.38	0.988	correct	2back	Block2	2back/STIM_025.jpg
965.403	0.542	correct	2back	Block2	2back/STIM_025.jpg
967.957	0.932	correct	2back	Block2	2back/STIM_026.jpg
972.271	0.819	correct	2back	Block2	2back/STIM_026.jpg
976.149	0.831	correct	2back	Block2	2back/STIM_026.jpg
978.993	1.293	correct	2back	Block2	2back/STIM_027.jpg
984.067	0.801	correct	2back	Block2	2back/STIM_027.jpg
988.06	0.574	correct	2back	Block2	2back/STIM_027.jpg
990.965	1.167	correct	2back	Block2	2back/STIM_028.jpg
995.481	0.639	correct	2back	Block2	2back/STIM_028.jpg
999.697	1.063	correct	2back	Block2	2back/STIM_028.jpg
1002.95	0.916	correct	2back	Block2	2back/STIM_029.jpg
1006.867	0.818	correct	2back	Block2	2back/STIM_029.jpg
1011.168	1.076	correct	2back	Block2	2back/STIM_029.jpg
1015.454	0.674	correct	2back	Block2	2back/STIM_030.jpg
1019.955	0.794	correct	2back	Block2	2back/STIM_030.jpg
1024.378	0.579	correct	2back	Block2	2back/STIM_030.jpg
1028.714	0.876	incorrect	2back	Block2	2back/STIM_031.jpg
1032.678	0.644	correct	2back	Block2	2back/STIM_031.jpg
1036.254	0.399	correct	2back	Block2	2back/STIM_031.jpg
1039.099	0.561	correct	2back	Block2	2back/STIM_032.jpg
1041.823	0.997	correct	2back	Block2	2back/STIM_032.jpg
1045.527	1.236	incorrect	2back	Block2	2back/STIM_032.jpg
1049.158	0.696	correct	2back	Block2	2back/STIM_033.jpg
1051.996	1.049	correct	2back	Block2	2back/STIM_033.jpg
1055.874	0.93	correct	2back	Block2	2back/STIM_033.jpg
1059.11	0.919	incorrect	2back	Block2	2back/STIM_034.jpg
1063.055	0.618	incorrect	2back	Block2	2back/STIM_034.jpg
1066.84	0.555	correct	2back	Block2	2back/STIM_034.jpg
1069.392	1.169	correct	2back	Block2	2back/STIM_035.jpg
1073.481	1.176	correct	2back	Block2	2back/STIM_035.jpg
1077.148	0.678	correct	2back	Block2	2back/STIM_035.jpg
1080.142	1.246	correct	2back	Block2	2back/STIM_036.jpg
1085.204	0.897	correct	2back	Block2	2back/STIM_036.jpg
1088.554	0.816	correct	2back	Block2	2back/STIM_036.jpg
1091.502	1.226	correct	2back	Block2	2back/STIM_037.jpg
1096.117	1.182	correct	2back	Block2	2back/STIM_037.jpg
1100.621	0.582	incorrect	2back	Block2	2back/STIM_037.jpg
1105.22	0.746	incorrect	2back	Block2	2back/STIM_038.jpg
1108.986	0.726	correct	2back	Block2	2back/STIM_038.jpg
1113.565	0.723	correct	2back	Block2	2back/STIM_038.jpg
1117.279	0.664	correct	2back	Block2	2back/STIM_039.jpg
1120.631	1.088	correct	2back	Block2	2back/STIM_039.jpg
1124.762	0.952	correct	2back	Block2	2back/STIM_039.jpg
1129.476	0.604	correct	0back	Block2	0back/STIM_000.jpg
1132.338	0.675	correct	0back	Block2	0back/STIM_000.jpg
1136.397	0.795	correct	0back	Block2	0back/STIM_000.jpg
1140.323	0.809	correct	0back	Block2	0back/STIM_001.jpg
1144.348	0.698	correct	0back	Block2	0back/STIM_001.jpg
1147.77	0.51	correct	0back	Block2	0back/STIM_001.jpg
1151.114	0.989	correct	0back	Block2	0back/STIM_002.jpg
1155.777	0.864	correct	0back	Block2	0back/STIM_002.jpg
1160.095	0.894	correct	0back	Block2	0back/STIM_002.jpg
1163.692	0.498	correct	0back	Block2	0back/STIM_003.jpg
1167.759	0.722	correct	0back	Block2	0back/STIM_003.jpg
1172.124	0.77	correct	0back	Block2	0back/STIM_003.jpg
1175.435	0.644	correct	0back	Block2	0back/STIM_004.jpg
1179.166	0.963	correct	0back	Block2	0back/STIM_004.jpg
1182.07	0.77	correct	0back	Block2	0back/STIM_004.jpg
1185.73	0.546	correct	0back	Block2	0back/STIM_005.jpg
1188.811	0.412	correct	0back	Block2	0back/STIM_005.jpg
1192.874	0.608	correct	0back	Block2	0back/STIM_005.jpg
1197.348	0.934	correct	0back	Block2	0back/STIM_006.jpg
1200.88	0.756	correct	0back	Block2	0back/STIM_006.jpg
1203.584	0.767	correct	0back	Block2	0back/STIM_006.jpg
1207.939	0.693	correct	0back	Block2	0back/STIM_007.jpg
1210.65	0.476	correct	0back	Block2	0back/STIM_007.jpg
1214.284	0.637	correct	0back	Block2	0back/STIM_007.jpg
1216.924	0.558	incorrect	0back	Block2	0back/STIM_008.jpg
1220.876	0.474	correct	0back	Block2	0back/STIM_008.jpg
1223.493	0.902	incorrect	0back	Block2	0back/STIM_008.jpg
1226.895	0.695	correct	0back	Block2	0back/STIM_009.jpg
1229.544	0.524	correct	0back	Block2	0back/STIM_009.jpg
1233.921	0.676	correct	0back	Block2	0back/STIM_009.jpg
1238.348	0.694	correct	0back	Block2	0back/STIM_010.jpg
1241.801	0.697	correct	0back	Block2	0back/STIM_010.jpg
1245.176	0.529	correct	0back	Block2	0back/STIM_010.jpg
1249.53	0.571	correct	0back	Block2	0back/STIM_011.jpg
1253.909	0.48	correct	0back	Block2	0back/STIM_011.jpg
1257.978	0.694	correct	0back	Block2	0back/STIM_011.jpg
1261.637	0.47	correct	0back	Block2	0back/STIM_012.jpg
1264.149	0.606	correct	0back	Block2	0back/STIM_012.jpg
1267.313	0.692	correct	0back	Block2	0back/STIM_012.jpg
1271.471	0.588	correct	0back	Block2	0back/STIM_013.jpg
1274.354	0.741	correct	0back	Block2	0back/STIM_013.jpg
1278.709	0.708	correct	0back	Block2	0back/STIM_013.jpg
1282.575	0.769	correct	0back	Block2	0back/STIM_014.jpg
1286.982	0.872	correct	0back	Block2	0back/STIM_014.jpg
1291.147	0.838	correct	0back	Block2	0back/STIM_014.jpg
1294.219	0.74	correct	0back	Block2	0back/STIM_015.jpg
1297.13	0.61	correct	0back	Block2	0back/STIM_015.jpg
1300.354	0.845	correct	0back	Block2	0back/STIM_015.jpg
1303.569	0.862	correct	0back	Block2	0back/STIM_016.jpg
1306.787	0.746	correct	0back	Block2	0back/STIM_016.jpg
1310.568	0.548	correct	0back	Block2	0back/STIM_016.jpg
1313.533	0.774	correct	0back	Block2	0back/STIM_017.jpg
1317.148	0.76	correct	0back	Block2	0back/STIM_017.jpg
1320.371	0.409	correct	0back	Block2	0back/STIM_017.jpg
1323.85	0.644	correct	0back	Block2	0back/STIM_018.jpg
1327.116	0.713	correct	0back	Block2	0back/STIM_018.jpg
1331.147	0.639	incorrect	0back	Block2	0back/STIM_018.jpg
1335.467	0.775	correct	0back	Block2	0back/STIM_019.jpg
1339.046	0.405	correct	0back	Block2	0back/STIM_019.jpg
1342.441	0.84	correct	0back	Block2	0back/STIM_019.jpg
1347.09	0.953	correct	2back	Block3	2back/STIM_000.jpg
1350.548	0.751	correct	2back	Block3	2back/STIM_000.jpg
1355.049	0.57	correct	2back	Block3	2back/STIM_000.jpg
1358.533	0.742	correct	2back	Block3	2back/STIM_001.jpg
1361.278	0.959	incorrect	2back	Block3	2back/STIM_001.jpg
1364.766	1.12	correct	2back	Block3	2back/STIM_001.jpg
1368.449	0.944	correct	2back	Block3	2back/STIM_002.jpg
1371.538	0.764	correct	2back	Block3	2back/STIM_002.jpg
1375.398	0.398	correct	2back	Block3	2back/STIM_002.jpg
1379.364	0.868	correct	2back	Block3	2back/STIM_003.jpg
1383.84	0.62	incorrect	2back	Block3	2back/STIM_003.jpg
1386.925	0.599	correct	2back	Block3	2back/STIM_003.jpg
1391.342	0.547	correct	2back	Block3	2back/STIM_004.jpg
1394.966	0.927	correct	2back	Block3	2back/STIM_004.jpg
1397.906	0.57	correct	2back	Block3	2back/STIM_004.jpg
1401.525	1.008	correct	2back	Block3	2back/STIM_005.jpg
1405.195	0.652	correct	2back	Block3	2back/STIM_005.jpg
1407.789	0.649	correct	2back	Block3	2back/STIM_005.jpg
1412.036	0.773	correct	2back	Block3	2back/STIM_006.jpg
1414.959	0.712	correct	2back	Block3	2back/STIM_006.jpg
1418.437	0.834	correct	2back	Block3	2back/STIM_006.jpg
1422.658	0.881	correct	2back	Block3	2back/STIM_007.jpg
1425.823	0.619	correct	2back	Block3	2back/STIM_007.jpg
1429.897	0.499	correct	2back	Block3	2back/STIM_007.jpg
1432.954	0.798	correct	2back	Block3	2back/STIM_008.jpg
1437.403	0.607	correct	2back	Block3	2back/STIM_008.jpg
1440.462	0.748	correct	2back	Block3	2back/STIM_008.jpg
1444.154	1.1	correct	2back	Block3	2back/STIM_009.jpg
1447.293	1.022	correct	2back	Block3	2back/STIM_009.jpg
1450.439	1.051	correct	2back	Block3	2back/STIM_009.jpg
1455.301	0.755	correct	2back	Block3	2back/STIM_010.jpg
1459.26	0.958	correct	2back	Block3	2back/STIM_010.jpg
1463.8	0.648	correct	2back	Block3	2back/STIM_010.jpg
1468.284	0.614	correct	2back	Block3	2back/STIM_011.jpg
1472.396	0.879	correct	2back	Block3	2back/STIM_011.jpg
1476.56	0.692	incorrect	2back	Block3	2back/STIM_011.jpg
1480.428	0.392	correct	2back	Block3	2back/STIM_012.jpg
1484.779	0.831	correct	2back	Block3	2back/STIM_012.jpg
1488.661	1.036	correct	2back	Block3	2back/STIM_012.jpg
1491.725	0.601	correct	2back	Block3	2back/STIM_013.jpg
1495.233	0.872	incorrect	2back	Block3	2back/STIM_013.jpg
1499.922	0.992	correct	2back	Block3	2back/STIM_013.jpg
1503.846	0.899	correct	2back	Block3	2back/STIM_014.jpg
1506.708	1.058	correct	2back	Block3	2back/STIM_014.jpg
1510.456	0.391	incorrect	2back	Block3	2back/STIM_014.jpg
1514.083	0.699	correct	2back	Block3	2back/STIM_015.jpg
1516.9	0.96	correct	2back	Block3	2back/STIM_015.jpg
1520.882	0.602	correct	2back	Block3	2back/STIM_015.jpg
1523.599	0.692	correct	2back	Block3	2back/STIM_016.jpg
1527.217	1.084	correct	2back	Block3	2back/STIM_016.jpg
1532.113	1.045	correct	2back	Block3	2back/STIM_016.jpg
1536.812	1.103	correct	2back	Block3	2back/STIM_017.jpg
1539.775	0.755	correct	2back	Block3	2back/STIM_017.jpg
1543.977	0.877	correct	2back	Block3	2back/STIM_017.jpg
1547.249	0.795	correct	2back	Block3	2back/STIM_018.jpg
1550.539	0.723	correct	2back	Block3	2back/STIM_018.jpg
1553.344	0.606	correct	2back	Block3	2back/STIM_018.jpg
1556.346	0.915	correct	2back	Block3	2back/STIM_019.jpg
1560.473	0.834	correct	2back	Block3	2back/STIM_019.jpg
1563.673	0.908	correct	2back	Block3	2back/STIM_019.jpg
1567.152	1.058	correct	2back	Block3	2back/STIM_020.jpg
1570.594	0.698	correct	2back	Block3	2back/STIM_020.jpg
1573.662	0.986	correct	2back	Block3	2back/STIM_020.jpg
1577.235	0.54	correct	2back	Block3	2back/STIM_021.jpg
1580.87	0.747	correct	2back	Block3	2back/STIM_021.jpg
1585.024	0.787	correct	2back	Block3	2back/STIM_021.jpg
1588.841	0.609	correct	2back	Block3	2back/STIM_022.jpg
1592.881	0.656	correct	2back	Block3	2back/STIM_022.jpg
1596.872	0.831	correct	2back	Block3	2back/STIM_022.jpg
1599.829	0.572	correct	2back	Block3	2back/STIM_023.jpg
1602.656	0.902	correct	2back	Block3	2back/STIM_023.jpg
1606.96	0.751	correct	2back	Block3	2back/STIM_023.jpg
1609.665	0.952	correct	2back	Block3	2back/STIM_024.jpg
1613.648	0.971	correct	2back	Block3	2back/STIM_024.jpg
1618.262	0.789	correct	2back	Block3	2back/STIM_024.jpg
1621.631	1.035	correct	2back	Block3	2back/STIM_025.jpg
1625.553	0.937	correct	2back	Block3	2back/STIM_025.jpg
1630.116	0.858	correct	2back	Block3	2back/STIM_025.jpg
1633.142	0.61	correct	2back	Block3	2back/STIM_026.jpg
1637.439	1.119	correct	2back	Block3	2back/STIM_026.jpg
1642.25	0.933	correct	2back	Block3	2back/STIM_026.jpg
1646.016	0.544	correct	2back	Block3	2back/STIM_027.jpg
1650.366	0.752	correct	2back	Block3	2back/STIM_027.jpg
1653.664	0.639	correct	2back	Block3	2back/STIM_027.jpg
1658.213	1.015	correct	2back	Block3	2back/STIM_028.jpg
1662.504	0.507	correct	2back	Block3	2back/STIM_028.jpg
1665.81	0.679	correct	2back	Block3	2back/STIM_028.jpg
1668.449	1.113	correct	2back	Block3	2back/STIM_029.jpg
1672.54	0.945	correct	2back	Block3	2back/STIM_029.jpg
1675.708	0.53	correct	2back	Block3	2back/STIM_029.jpg
1679.681	0.69	incorrect	2back	Block3	2back/STIM_030.jpg
1682.914	0.967	correct	2back	Block3	2back/STIM_030.jpg
1686.891	1.056	correct	2back	Block3	2back/STIM_030.jpg
1691.714	0.828	correct	2back	Block3	2back/STIM_031.jpg
1695.062	0.492	correct	2back	Block3	2back/STIM_031.jpg
1697.741	0.646	correct	2back	Block3	2back/STIM_031.jpg
1702.07	0.816	correct	2back	Block3	2back/STIM_032.jpg
1705.683	0.518	correct	2back	Block3	2back/STIM_032.jpg
1709.478	0.888	correct	2back	Block3	2back/STIM_032.jpg
1713.475	0.943	incorrect	2back	Block3	2back/STIM_033.jpg
1716.92	1.171	correct	2back	Block3	2back/STIM_033.jpg
1720.226	0.853	correct	2back	Block3	2back/STIM_033.jpg
1723.03	0.798	correct	2back	Block3	2back/STIM_034.jpg
1726.287	0.743	correct	2back	Block3	2back/STIM_034.jpg
1730.949	1.02	correct	2back	Block3	2back/STIM_034.jpg
1734.918	0.709	correct	2back	Block3	2back/STIM_035.jpg
1739.237	1.025	correct	2back	Block3	2back/STIM_035.jpg
1744.103	0.789	correct	2back	Block3	2back/STIM_035.jpg
1748.584	0.955	correct	2back	Block3	2back/STIM_036.jpg
1752.703	0.84	correct	2back	Block3	2back/STIM_036.jpg
1755.629	1.135	correct	2back	Block3	2back/STIM_036.jpg
1760.174	0.538	incorrect	2back	Block3	2back/STIM_037.jpg
1762.79	0.682	correct	2back	Block3	2back/STIM_037.jpg
1767.367	0.895	correct	2back	Block3	2back/STIM_037.jpg
1771.183	0.556	correct	2back	Block3	2back/STIM_038.jpg
1774.825	1.057	correct	2back	Block3	2back/STIM_038.jpg
1778.099	0.757	correct	2back	Block3	2back/STIM_038.jpg
1781.904	0.557	correct	2back	Block3	2back/STIM_039.jpg
1786.352	0.792	correct	2back	Block3	2back/STIM_039.jpg
1790.44	0.539	correct	2back	Block3	2back/STIM_039.jpg
1793.684	0.961	correct	0back	Block3	0back/STIM_000.jpg
1797.651	0.694	correct	0back	Block3	0back/STIM_000.jpg
1802.048	0.32	correct	0back	Block3	0back/STIM_000.jpg
1805.678	0.619	correct	0back	Block3	0back/STIM_001.jpg
1809.72	0.801	correct	0back	Block3	0back/STIM_001.jpg
1812.921	0.803	correct	0back	Block3	0back/STIM_001.jpg
1816.288	0.731	correct	0back	Block3	0back/STIM_002.jpg
1820.533	0.452	correct	0back	Block3	0back/STIM_002.jpg
1823.915	0.572	correct	0back	Block3	0back/STIM_002.jpg
1827.008	0.588	correct	0back	Block3	0back/STIM_003.jpg
1829.575	0.68	correct	0back	Block3	0back/STIM_003.jpg
1833.229	0.645	correct	0back	Block3	0back/STIM_003.jpg
1837.382	0.849	correct	0back	Block3	0back/STIM_004.jpg
1841.176	0.73	correct	0back	Block3	0back/STIM_004.jpg
1843.984	0.735	correct	0back	Block3	0back/STIM_004.jpg
1848.205	0.589	correct	0back	Block3	0back/STIM_005.jpg
1851.55	0.884	correct	0back	Block3	0back/STIM_005.jpg
1856.107	0.767	correct	0back	Block3	0back/STIM_005.jpg
1858.922	0.801	correct	0back	Block3	0back/STIM_006.jpg
1863.32	0.61	correct	0back	Block3	0back/STIM_006.jpg
1866.32	0.475	correct	0back	Block3	0back/STIM_006.jpg
1870.571	0.597	correct	0back	Block3	0back/STIM_007.jpg
1874.641	0.758	correct	0back	Block3	0back/STIM_007.jpg
1877.937	0.565	correct	0back	Block3	0back/STIM_007.jpg
1882.095	0.698	correct	0back	Block3	0back/STIM_008.jpg
1885.096	0.84	correct	0back	Block3	0back/STIM_008.jpg
1888.059	0.768	correct	0back	Block3	0back/STIM_008.jpg
1891.112	0.736	correct	0back	Block3	0back/STIM_009.jpg
1894.556	0.775	correct	0back	Block3	0back/STIM_009.jpg
1898.722	0.775	correct	0back	Block3	0back/STIM_009.jpg
1902.443	0.622	incorrect	0back	Block3	0back/STIM_010.jpg
1905.34	0.878	correct	0back	Block3	0back/STIM_010.jpg
1909.182	0.856	correct	0back	Block3	0back/STIM_010.jpg
1912.48	0.697	correct	0back	Block3	0back/STIM_011.jpg
1916.769	0.743	correct	0back	Block3	0back/STIM_011.jpg
1921.056	0.88	correct	0back	Block3	0back/STIM_011.jpg
1925.791	0.884	correct	0back	Block3	0back/STIM_012.jpg
1928.891	0.654	correct	0back	Block3	0back/STIM_012.jpg
1933.016	0.791	correct	0back	Block3	0back/STIM_012.jpg
1936.819	0.808	correct	0back	Block3	0back/STIM_013.jpg
1940.075	0.793	correct	0back	Block3	0back/STIM_013.jpg
1944.631	0.782	correct	0back	Block3	0back/STIM_013.jpg
1949.052	0.487	correct	0back	Block3	0back/STIM_014.jpg
1951.63	0.7	correct	0back	Block3	0back/STIM_014.jpg
1955.39	0.844	correct	0back	Block3	0back/STIM_014.jpg
1958.133	0.651	correct	0back	Block3	0back/STIM_015.jpg
1960.745	0.758	correct	0back	Block3	0back/STIM_015.jpg
1963.801	0.62	correct	0back	Block3	0back/STIM_015.jpg
1967.786	0.849	correct	0back	Block3	0back/STIM_016.jpg
1972.004	0.599	correct	0back	Block3	0back/STIM_016.jpg
1975.671	0.787	correct	0back	Block3	0back/STIM_016.jpg
1979.275	0.625	correct	0back	Block3	0back/STIM_017.jpg
1982.439	0.828	correct	0back	Block3	0back/STIM_017.jpg
1985.496	0.868	correct	0back	Block3	0back/STIM_017.jpg
1990.063	0.851	correct	0back	Block3	0back/STIM_018.jpg
1993.635	0.827	incorrect	0back	Block3	0back/STIM_018.jpg
1998.028	0.451	correct	0back	Block3	0back/STIM_018.jpg
2001.701	0.795	correct	0back	Block3	0back/STIM_019.jpg
2005.818	0.608	correct	0back	Block3	0back/STIM_019.jpg
2009.315	0.827	correct	0back	Block3	0back/STIM_019.jpg
2012.037	0.674	correct	2back	Block4	2back/STIM_000.jpg
2016.605	0.626	correct	2back	Block4	2back/STIM_000.jpg
2020.169	0.898	correct	2back	Block4	2back/STIM_000.jpg
2024.143	1.024	correct	2back	Block4	2back/STIM_001.jpg
2028.481	0.506	correct	2back	Block4	2back/STIM_001.jpg
2031.421	1.077	correct	2back	Block4	2back/STIM_001.jpg
2035.956	1.127	correct	2back	Block4	2back/STIM_002.jpg
2040.803	0.508	correct	2back	Block4	2back/STIM_002.jpg
2044.493	0.816	correct	2back	Block4	2back/STIM_002.jpg
2047.254	1.048	correct	2back	Block4	2back/STIM_003.jpg
2050.519	1.012	correct	2back	Block4	2back/STIM_003.jpg
2055.261	1.168	correct	2back	Block4	2back/STIM_003.jpg
2059.221	1.073	correct	2back	Block4	2back/STIM_004.jpg
2064.145	0.781	correct	2back	Block4	2back/STIM_004.jpg
2067.158	0.97	correct	2back	Block4	2back/STIM_004.jpg
2070.267	1.12	correct	2back	Block4	2back/STIM_005.jpg
2074.375	0.888	correct	2back	Block4	2back/STIM_005.jpg
2078.156	0.66	correct	2back	Block4	2back/STIM_005.jpg
2082.098	0.625	correct	2back	Block4	2back/STIM_006.jpg
2086.303	0.745	correct	2back	Block4	2back/STIM_006.jpg
2089.428	1.017	correct	2back	Block4	2back/STIM_006.jpg
2093.763	0.966	correct	2back	Block4	2back/STIM_007.jpg
2096.695	0.882	correct	2back	Block4	2back/STIM_007.jpg
2101.288	0.839	correct	2back	Block4	2back/STIM_007.jpg
2105.131	0.919	correct	2back	Block4	2back/STIM_008.jpg
2109.134	0.826	correct	2back	Block4	2back/STIM_008.jpg
2113.75	0.724	correct	2back	Block4	2back/STIM_008.jpg
2117.884	0.602	correct	2back	Block4	2back/STIM_009.jpg
2121.695	1.096	correct	2back	Block4	2back/STIM_009.jpg
2126.553	1.121	correct	2back	Block4	2back/STIM_009.jpg
2130.071	0.937	correct	2back	Block4	2back/STIM_010.jpg
2134.086	0.833	correct	2back	Block4	2back/STIM_010.jpg
2138.482	1.048	correct	2back	Block4	2back/STIM_010.jpg
2143.086	0.763	correct	2back	Block4	2back/STIM_011.jpg
2147.65	1.027	correct	2back	Block4	2back/STIM_011.jpg
2151.995	0.509	correct	2back	Block4	2back/STIM_011.jpg
2155.281	0.592	correct	2back	Block4	2back/STIM_012.jpg
2158.77	0.704	correct	2back	Block4	2back/STIM_012.jpg
2162.576	0.986	correct	2back	Block4	2back/STIM_012.jpg
2165.541	0.54	correct	2back	Block4	2back/STIM_013.jpg
2168.578	1.031	correct	2back	Block4	2back/STIM_013.jpg
2172.574	0.723	correct	2back	Block4	2back/STIM_013.jpg
2176.749	0.488	correct	2back	Block4	2back/STIM_014.jpg
2180.529	1.084	correct	2back	Block4	2back/STIM_014.jpg
2184.83	0.973	correct	2back	Block4	2back/STIM_014.jpg
2187.786	0.621	correct	2back	Block4	2back/STIM_015.jpg
2191.457	0.727	correct	2back	Block4	2back/STIM_015.jpg
2195.993	0.86	correct	2back	Block4	2back/STIM_015.jpg
2199.214	1.129	correct	2back	Block4	2back/STIM_016.jpg
2203.72	0.7	correct	2back	Block4	2back/STIM_016.jpg
2207.436	0.735	correct	2back	Block4	2back/STIM_016.jpg
2212.049	1.083	correct	2back	Block4	2back/STIM_017.jpg
2216.321	0.618	correct	2back	Block4	2back/STIM_017.jpg
2220.69	0.464	correct	2back	Block4	2back/STIM_017.jpg
2223.939	0.748	correct	2back	Block4	2back/STIM_018.jpg
2227.613	0.588	correct	2back	Block4	2back/STIM_018.jpg
2230.523	0.937	correct	2back	Block4	2back/STIM_018.jpg
2234.655	0.656	correct	2back	Block4	2back/STIM_019.jpg
2237.942	0.689	correct	2back	Block4	2back/STIM_019.jpg
2242.517	0.539	correct	2back	Block4	2back/STIM_019.jpg
2245.139	0.92	correct	2back	Block4	2back/STIM_020.jpg
2248.397	1.04	correct	2back	Block4	2back/STIM_020.jpg
2252.393	0.809	correct	2back	Block4	2back/STIM_020.jpg
2256.635	0.417	correct	2back	Block4	2back/STIM_021.jpg
2261.022	0.855	correct	2back	Block4	2back/STIM_021.jpg
2264.259	0.581	correct	2back	Block4	2back/STIM_021.jpg
2267.621	0.912	incorrect	2back	Block4	2back/STIM_022.jpg
2272.062	0.843	correct	2back	Block4	2back/STIM_022.jpg
2275.197	0.541	correct	2back	Block4	2back/STIM_022.jpg
2278.677	0.734	correct	2back	Block4	2back/STIM_023.jpg
2281.56	0.988	correct	2back	Block4	2back/STIM_023.jpg
2286.311	0.825	correct	2back	Block4	2back/STIM_023.jpg
2290.291	0.889	correct	2back	Block4	2back/STIM_024.jpg
2293.069	0.653	correct	2back	Block4	2back/STIM_024.jpg
2295.932	1.006	correct	2back	Block4	2back/STIM_024.jpg
2298.856	0.805	correct	2back	Block4	2back/STIM_025.jpg
2303.408	0.599	correct	2back	Block4	2back/STIM_025.jpg
2307.844	0.826	correct	2back	Block4	2back/STIM_025.jpg
2311.826	0.485	correct	2back	Block4	2back/STIM_026.jpg
2314.669	0.448	correct	2back	Block4	2back/STIM_026.jpg
2318.376	1.094	correct	2back	Block4	2back/STIM_026.jpg
2322.967	0.829	correct	2back	Block4	2back/STIM_027.jpg
2327.247	0.539	correct	2back	Block4	2back/STIM_027.jpg
2331.495	0.705	correct	2back	Block4	2back/STIM_027.jpg
2334.949	0.865	correct	2back	Block4	2back/STIM_028.jpg
2338.924	1.08	correct	2back	Block4	2back/STIM_028.jpg
2341.915	0.68	correct	2back	Block4	2back/STIM_028.jpg
2345.679	0.847	correct	2back	Block4	2back/STIM_029.jpg
2349.371	0.814	correct	2back	Block4	2back/STIM_029.jpg
2352.182	0.572	correct	2back	Block4	2back/STIM_029.jpg
2355.359	0.511	correct	2back	Block4	2back/STIM_030.jpg
2358.097	0.909	correct	2back	Block4	2back/STIM_030.jpg
2361.312	0.747	correct	2back	Block4	2back/STIM_030.jpg
2365.245	1.07	correct	2back	Block4	2back/STIM_031.jpg
2370.067	0.411	correct	2back	Block4	2back/STIM_031.jpg
2373.502	0.873	correct	2back	Block4	2back/STIM_031.jpg
2376.497	0.774	correct	2back	Block4	2back/STIM_032.jpg
2380.987	0.889	correct	2back	Block4	2back/STIM_032.jpg
2384.967	0.822	correct	2back	Block4	2back/STIM_032.jpg
2388.129	0.684	correct	2back	Block4	2back/STIM_033.jpg
2391.169	0.767	correct	2back	Block4	2back/STIM_033.jpg
2394.79	1.018	correct	2back	Block4	2back/STIM_033.jpg
2398.797	0.697	correct	2back	Block4	2back/STIM_034.jpg
2403.083	0.855	correct	2back	Block4	2back/STIM_034.jpg
2406.686	0.686	correct	2back	Block4	2back/STIM_034.jpg
2411.265	0.987	correct	2back	Block4	2back/STIM_035.jpg
2415.141	0.738	correct	2back	Block4	2back/STIM_035.jpg
2419.397	0.824	correct	2back	Block4	2back/STIM_035.jpg
2423.741	0.937	incorrect	2back	Block4	2back/STIM_036.jpg
2426.704	0.65	correct	2back	Block4	2back/STIM_036.jpg
2430.988	0.633	correct	2back	Block4	2back/STIM_036.jpg
2434.864	0.64	correct	2back	Block4	2back/STIM_037.jpg
2438.962	0.793	correct	2back	Block4	2back/STIM_037.jpg
2443.134	0.605	correct	2back	Block4	2back/STIM_037.jpg
2446.181	0.573	correct	2back	Block4	2back/STIM_038.jpg
2450.102	0.869	correct	2back	Block4	2back/STIM_038.jpg
2454.035	0.765	incorrect	2back	Block4	2back/STIM_038.jpg
2458.418	1.101	correct	2back	Block4	2back/STIM_039.jpg
2462.562	0.836	correct	2back	Block4	2back/STIM_039.jpg
2465.813	1.084	correct	2back	Block4	2back/STIM_039.jpg
2470.101	0.591	correct	0back	Block4	0back/STIM_000.jpg
2473.648	0.755	correct	0back	Block4	0back/STIM_000.jpg
2477.587	0.45	correct	0back	Block4	0back/STIM_000.jpg
2480.635	0.52	correct	0back	Block4	0back/STIM_001.jpg
2483.105	0.82	correct	0back	Block4	0back/STIM_001.jpg
2487.44	0.833	correct	0back	Block4	0back/STIM_001.jpg
2490.921	0.586	correct	0back	Block4	0back/STIM_002.jpg
2495.102	0.78	correct	0back	Block4	0back/STIM_002.jpg
2499.654	0.592	correct	0back	Block4	0back/STIM_002.jpg
2503.819	0.428	correct	0back	Block4	0back/STIM_003.jpg
2507.853	0.753	correct	0back	Block4	0back/STIM_003.jpg
2511.848	0.307	correct	0back	Block4	0back/STIM_003.jpg
2514.845	0.706	correct	0back	Block4	0back/STIM_004.jpg
2517.96	0.56	correct	0back	Block4	0back/STIM_004.jpg
2521.713	0.442	correct	0back	Block4	0back/STIM_004.jpg
2525.406	0.785	correct	0back	Block4	0back/STIM_005.jpg
2529.06	0.772	correct	0back	Block4	0back/STIM_005.jpg
2532.464	0.872	correct	0back	Block4	0back/STIM_005.jpg
2536.253	0.441	correct	0back	Block4	0back/STIM_006.jpg
2540.079	0.94	correct	0back	Block4	0back/STIM_006.jpg
2544.654	0.575	correct	0back	Block4	0back/STIM_006.jpg
2548.12	0.608	correct	0back	Block4	0back/STIM_007.jpg
2552.535	0.709	correct	0back	Block4	0back/STIM_007.jpg
2557.007	0.529	correct	0back	Block4	0back/STIM_007.jpg
2561.285	0.872	correct	0back	Block4	0back/STIM_008.jpg
2565.674	0.762	correct	0back	Block4	0back/STIM_008.jpg
2569.529	0.624	correct	0back	Block4	0back/STIM_008.jpg
2573.677	0.599	correct	0back	Block4	0back/STIM_009.jpg
2576.621	0.776	incorrect	0back	Block4	0back/STIM_009.jpg
2580.242	0.625	correct	0back	Block4	0back/STIM_009.jpg
2583.803	0.828	correct	0back	Block4	0back/STIM_010.jpg
2587.816	0.552	incorrect	0back	Block4	0back/STIM_010.jpg
2591.197	0.7	correct	0back	Block4	0back/STIM_010.jpg
2594.13	0.674	correct	0back	Block4	0back/STIM_011.jpg
2597.414	0.767	correct	0back	Block4	0back/STIM_011.jpg
2601.319	0.783	correct	0back	Block4	0back/STIM_011.jpg
2605.359	0.713	correct	0back	Block4	0back/STIM_012.jpg
2608.088	0.653	correct	0back	Block4	0back/STIM_012.jpg
2612.548	0.703	correct	0back	Block4	0back/STIM_012.jpg
2616.902	0.525	correct	0back	Block4	0back/STIM_013.jpg
2620.477	0.881	correct	0back	Block4	0back/STIM_013.jpg
2623.246	0.613	correct	0back	Block4	0back/STIM_013.jpg
2627.705	0.76	correct	0back	Block4	0back/STIM_014.jpg
2631.045	0.844	correct	0back	Block4	0back/STIM_014.jpg
2635.295	0.701	correct	0back	Block4	0back/STIM_014.jpg
2638.167	0.551	incorrect	0back	Block4	0back/STIM_015.jpg
2642.575	0.53	correct	0back	Block4	0back/STIM_015.jpg
2646.546	0.816	correct	0back	Block4	0back/STIM_015.jpg
2650.418	0.544	correct	0back	Block4	0back/STIM_016.jpg
2654.679	0.422	correct	0back	Block4	0back/STIM_016.jpg
2657.668	0.686	correct	0back	Block4	0back/STIM_016.jpg
2660.273	0.712	correct	0back	Block4	0back/STIM_017.jpg
2663.471	0.628	correct	0back	Block4	0back/STIM_017.jpg
2667.39	0.567	correct	0back	Block4	0back/STIM_017.jpg
2670.999	0.807	correct	0back	Block4	0back/STIM_018.jpg
2674.961	0.674	correct	0back	Block4	0back/STIM_018.jpg
2677.536	0.86	correct	0back	Block4	0back/STIM_018.jpg
2681.752	0.833	correct	0back	Block4	0back/STIM_019.jpg
2686.448	0.625	correct	0back	Block4	0back/STIM_019.jpg
2689.933	0.446	correct	0back	Block4	0back/STIM_019.jpg
