onset	duration	response_time_ms	trial_type	learning_stage	stimulus	response_port
0.0	1.366	1365.5	2back	Block1	2back/STIM_000.jpg	100
3.276	0.817	817.0	2back	Block1	2back/STIM_000.jpg	99
7.487	0.575	574.9	2back	Block1	2back/STIM_000.jpg	99
12.044	1.028	1028.0	2back	Block1	2back/STIM_001.jpg	100
15.674	0.761	760.7	2back	Block1	2back/STIM_001.jpg	100
19.618	0.951	950.6	2back	Block1	2back/STIM_001.jpg	100
23.409	1.208	1208.2	2back	Block1	2back/STIM_002.jpg	99
27.73	0.753	752.6	2back	Block1	2back/STIM_002.jpg	99
31.771	1.363	1363.3	2back	Block1	2back/STIM_002.jpg	100
35.373	0.703	703.0	2back	Block1	2back/STIM_003.jpg	100
38.906	1.103	1102.6	2back	Block1	2back/STIM_003.jpg	99
43.641	0.985	985.4	2back	Block1	2back/STIM_003.jpg	100
48.263	0.78	780.1	2back	Block1	2back/STIM_004.jpg	100
51.552	1.254	1253.9	2back	Block1	2back/STIM_004.jpg	100
55.046	0.992	991.6	2back	Block1	2back/STIM_004.jpg	99
59.608	0.908	908.5	2back	Block1	2back/STIM_005.jpg	100
63.137	0.757	756.7	2back	Block1	2back/STIM_005.jpg	99
66.722	0.711	711.1	2back	Block1	2back/STIM_005.jpg	99
71.301	0.889	888.6	2back	Block1	2back/STIM_006.jpg	100
74.893	1.07	1069.8	2back	Block1	2back/STIM_006.jpg	99
78.611	1.315	1315.4	2back	Block1	2back/STIM_006.jpg	99
81.99	1.325	1324.7	2back	Block1	2back/STIM_007.jpg	100
85.435	1.062	1062.5	2back	Block1	2back/STIM_007.jpg	99
89.931	1.238	1238.4	2back	Block1	2back/STIM_007.jpg	99
93.503	1.366	1366.1	2back	Block1	2back/STIM_008.jpg	100
97.973	0.912	911.9	2back	Block1	2back/STIM_008.jpg	99
101.638	1.15	1149.8	2back	Block1	2back/STIM_008.jpg	100
105.29	0.856	855.9	2back	Block1	2back/STIM_009.jpg	100
109.129	0.848	848.0	2back	Block1	2back/STIM_009.jpg	100
112.819	1.104	1104.5	2back	Block1	2back/STIM_009.jpg	100
116.737	0.838	837.9	2back	Block1	2back/STIM_010.jpg	100
119.703	0.839	838.8	2back	Block1	2back/STIM_010.jpg	99
123.269	1.116	1115.9	2back	Block1	2back/STIM_010.jpg	100
126.996	0.954	953.5	2back	Block1	2back/STIM_011.jpg	100
130.257	0.895	894.8	2back	Block1	2back/STIM_011.jpg	100
133.514	1.338	1337.5	2back	Block1	2back/STIM_011.jpg	99
137.461	0.742	742.1	2back	Block1	2back/STIM_012.jpg	100
141.995	0.752	752.0	2back	Block1	2back/STIM_012.jpg	100
144.995	1.423	1423.3	2back	Block1	2back/STIM_012.jpg	99
149.792	1.276	1275.9	2back	Block1	2back/STIM_013.jpg	100
153.735	0.906	905.5	2back	Block1	2back/STIM_013.jpg	100
157.934	1.138	1137.9	2back	Block1	2back/STIM_013.jpg	100
161.483	0.641	641.1	2back	Block1	2back/STIM_014.jpg	100
165.699	1.399	1399.1	2back	Block1	2back/STIM_014.jpg	99
170.175	0.989	988.9	2back	Block1	2back/STIM_014.jpg	99
173.197	0.849	848.6	2back	Block1	2back/STIM_015.jpg	100
176.404	1.105	1105.0	2back	Block1	2back/STIM_015.jpg	100
180.262	0.707	707.3	2back	Block1	2back/STIM_015.jpg	99
183.538	0.97	969.9	2back	Block1	2back/STIM_016.jpg	99
186.671	1.053	1053.3	2back	Block1	2back/STIM_016.jpg	100
189.819	1.355	1355.4	2back	Block1	2back/STIM_016.jpg	100
192.958	0.814	814.1	2back	Block1	2back/STIM_017.jpg	99
196.55	0.725	724.9	2back	Block1	2back/STIM_017.jpg	100
200.575	1.278	1278.4	2back	Block1	2back/STIM_017.jpg	100
205.086	1.252	1252.0	2back	Block1	2back/STIM_018.jpg	99
208.701	1.36	1360.5	2back	Block1	2back/STIM_018.jpg	99
213.34	1.128	1128.5	2back	Block1	2back/STIM_018.jpg	100
217.059	1.171	1170.8	2back	Block1	2back/STIM_019.jpg	99
221.376	1.2	1200.2	2back	Block1	2back/STIM_019.jpg	99
224.618	1.362	1361.9	2back	Block1	2back/STIM_019.jpg	100
228.503	0.658	657.7	2back	Block1	2back/STIM_020.jpg	99
231.275	0.724	723.7	2back	Block1	2back/STIM_020.jpg	100
234.185	0.964	963.8	2back	Block1	2back/STIM_020.jpg	100
238.148	1.289	1289.0	2back	Block1	2back/STIM_021.jpg	100
241.631	0.847	846.6	2back	Block1	2back/STIM_021.jpg	100
244.922	0.902	902.3	2back	Block1	2back/STIM_021.jpg	99
249.034	1.068	1068.5	2back	Block1	2back/STIM_022.jpg	100
252.996	1.373	1373.1	2back	Block1	2back/STIM_022.jpg	100
257.535	0.66	660.4	2back	Block1	2back/STIM_022.jpg	99
260.264	0.914	914.0	2back	Block1	2back/STIM_023.jpg	100
263.591	0.765	764.9	2back	Block1	2back/STIM_023.jpg	99
267.091	1.379	1378.7	2back	Block1	2back/STIM_023.jpg	100
270.554	0.989	989.3	2back	Block1	2back/STIM_024.jpg	100
274.022	0.722	722.4	2back	Block1	2back/STIM_024.jpg	100
276.943	1.234	1234.5	2back	Block1	2back/STIM_024.jpg	99
280.873	1.081	1081.3	2back	Block1	2back/STIM_025.jpg	100
284.197	0.678	677.5	2back	Block1	2back/STIM_025.jpg	99
288.142	1.159	1158.7	2back	Block1	2back/STIM_025.jpg	100
292.293	1.265	1265.3	2back	Block1	2back/STIM_026.jpg	100
296.517	0.923	922.9	2back	Block1	2back/STIM_026.jpg	100
299.876	1.222	1221.7	2back	Block1	2back/STIM_026.jpg	99
303.766	0.95	949.5	2back	Block1	2back/STIM_027.jpg	99
308.574	1.347	1346.8	2back	Block1	2back/STIM_027.jpg	99
313.442	0.816	816.1	2back	Block1	2back/STIM_027.jpg	100
316.947	1.162	1162.0	2back	Block1	2back/STIM_028.jpg	99
320.424	1.321	1321.4	2back	Block1	2back/STIM_028.jpg	99
325.15	1.212	1212.4	2back	Block1	2back/STIM_028.jpg	99
328.59	0.731	730.7	2back	Block1	2back/STIM_029.jpg	99
331.7	1.382	1382.3	2back	Block1	2back/STIM_029.jpg	99
336.864	1.164	1164.2	2back	Block1	2back/STIM_029.jpg	100
341.449	1.353	1353.0	2back	Block1	2back/STIM_030.jpg	99
345.818	1.127	1127.3	2back	Block1	2back/STIM_030.jpg	100
349.136	0.85	850.1	2back	Block1	2back/STIM_030.jpg	99
352.438	1.513	1512.7	2back	Block1	2back/STIM_031.jpg	99
357.039	1.441	1440.6	2back	Block1	2back/STIM_031.jpg	99
361.186	0.944	944.4	2back	Block1	2back/STIM_031.jpg	100
366.001	1.238	1237.7	2back	Block1	2back/STIM_032.jpg	100
369.514	1.134	1134.2	2back	Block1	2back/STIM_032.jpg	99
373.904	1.218	1217.9	2back	Block1	2back/STIM_032.jpg	100
377.669	0.932	931.9	2back	Block1	2back/STIM_033.jpg	100
380.802	0.917	917.4	2back	Block1	2back/STIM_033.jpg	99
383.794	0.792	791.5	2back	Block1	2back/STIM_033.jpg	99
387.181	0.746	746.3	2back	Block1	2back/STIM_034.jpg	100
390.149	1.085	1084.9	2back	Block1	2back/STIM_034.jpg	100
394.646	1.214	1213.6	2back	Block1	2back/STIM_034.jpg	100
398.309	1.519	1519.1	2back	Block1	2back/STIM_035.jpg	100
403.363	0.855	854.9	2back	Block1	2back/STIM_035.jpg	99
407.837	1.265	1264.8	2back	Block1	2back/STIM_035.jpg	99
412.027	1.31	1309.8	2back	Block1	2back/STIM_036.jpg	99
415.481	1.381	1381.1	2back	Block1	2back/STIM_036.jpg	99
418.859	0.987	987.2	2back	Block1	2back/STIM_036.jpg	100
422.302	1.018	1018.5	2back	Block1	2back/STIM_037.jpg	100
427.044	1.386	1385.6	2back	Block1	2back/STIM_037.jpg	100
430.696	0.978	977.5	2back	Block1	2back/STIM_037.jpg	100
433.6	1.281	1281.1	2back	Block1	2back/STIM_038.jpg	100
436.835	0.983	982.7	2back	Block1	2back/STIM_038.jpg	100
441.745	0.8	799.7	2back	Block1	2back/STIM_038.jpg	100
446.035	1.254	1253.7	2back	Block1	2back/STIM_039.jpg	99
451.003	1.149	1149.1	2back	Block1	2back/STIM_039.jpg	100
455.648	0.701	700.8	2back	Block1	2back/STIM_039.jpg	99
460.129	0.788	788.5	0back	Block1	0back/STIM_000.jpg	100
463.634	0.526	525.7	0back	Block1	0back/STIM_000.jpg	99
466.657	0.513	513.1	0back	Block1	0back/STIM_000.jpg	99
469.89	0.461	461.1	0back	Block1	0back/STIM_001.jpg	100
474.257	0.679	678.6	0back	Block1	0back/STIM_001.jpg	100
476.986	0.464	463.6	0back	Block1	0back/STIM_001.jpg	99
480.925	0.662	662.3	0back	Block1	0back/STIM_002.jpg	100
485.538	0.751	750.8	0back	Block1	0back/STIM_002.jpg	100
489.019	0.745	744.9	0back	Block1	0back/STIM_002.jpg	100
492.017	0.584	584.3	0back	Block1	0back/STIM_003.jpg	100
495.999	0.733	733.3	0back	Block1	0back/STIM_003.jpg	99
499.123	0.603	603.0	0back	Block1	0back/STIM_003.jpg	100
502.58	0.668	667.5	0back	Block1	0back/STIM_004.jpg	100
506.994	0.857	856.8	0back	Block1	0back/STIM_004.jpg	100
510.976	0.53	529.6	0back	Block1	0back/STIM_004.jpg	100
513.817	0.748	748.5	0back	Block1	0back/STIM_005.jpg	99
517.379	0.541	541.2	0back	Block1	0back/STIM_005.jpg	100
521.742	0.651	651.0	0back	Block1	0back/STIM_005.jpg	99
524.368	0.398	398.4	0back	Block1	0back/STIM_006.jpg	99
527.834	0.814	814.1	0back	Block1	0back/STIM_006.jpg	99
530.571	0.722	722.5	0back	Block1	0back/STIM_006.jpg	100
533.244	0.757	756.7	0back	Block1	0back/STIM_007.jpg	99
537.8	0.913	912.6	0back	Block1	0back/STIM_007.jpg	99
541.318	0.66	660.4	0back	Block1	0back/STIM_007.jpg	99
545.885	0.684	684.0	0back	Block1	0back/STIM_008.jpg	100
548.794	0.703	702.6	0back	Block1	0back/STIM_008.jpg	100
553.288	0.797	796.7	0back	Block1	0back/STIM_008.jpg	100
557.929	0.65	650.0	0back	Block1	0back/STIM_009.jpg	99
562.198	0.474	474.2	0back	Block1	0back/STIM_009.jpg	99
566.41	0.416	416.5	0back	Block1	0back/STIM_009.jpg	100
570.388	0.622	621.6	0back	Block1	0back/STIM_010.jpg	100
573.959	0.505	504.6	0back	Block1	0back/STIM_010.jpg	99
578.391	0.732	732.0	0back	Block1	0back/STIM_010.jpg	100
581.801	0.832	831.8	0back	Block1	0back/STIM_011.jpg	100
584.896	0.762	761.7	0back	Block1	0back/STIM_011.jpg	100
589.121	0.78	780.3	0back	Block1	0back/STIM_011.jpg	100
593.72	0.665	664.6	0back	Block1	0back/STIM_012.jpg	100
596.6	0.686	686.0	0back	Block1	0back/STIM_012.jpg	100
601.15	0.553	553.4	0back	Block1	0back/STIM_012.jpg	99
604.217	0.761	760.8	0back	Block1	0back/STIM_013.jpg	99
608.12	0.728	728.0	0back	Block1	0back/STIM_013.jpg	100
611.033	0.519	519.2	0back	Block1	0back/STIM_013.jpg	99
614.821	0.908	907.9	0back	Block1	0back/STIM_014.jpg	100
618.9	0.668	668.1	0back	Block1	0back/STIM_014.jpg	100
622.817	0.561	561.4	0back	Block1	0back/STIM_014.jpg	99
626.274	0.853	853.2	0back	Block1	0back/STIM_015.jpg	100
629.717	0.489	489.3	0back	Block1	0back/STIM_015.jpg	100
632.311	0.518	518.4	0back	Block1	0back/STIM_015.jpg	99
635.253	0.68	679.5	0back	Block1	0back/STIM_016.jpg	100
637.963	0.698	698.3	0back	Block1	0back/STIM_016.jpg	100
642.286	0.464	463.8	0back	Block1	0back/STIM_016.jpg	100
645.248	0.852	852.0	0back	Block1	0back/STIM_017.jpg	99
649.602	0.823	823.3	0back	Block1	0back/STIM_017.jpg	100
653.358	0.428	428.1	0back	Block1	0back/STIM_017.jpg	100
656.35	0.786	786.3	0back	Block1	0back/STIM_018.jpg	100
660.999	0.724	723.8	0back	Block1	0back/STIM_018.jpg	100
665.035	0.485	485.2	0back	Block1	0back/STIM_018.jpg	100
668.304	0.665	665.1	0back	Block1	0back/STIM_019.jpg	100
671.776	0.547	547.3	0back	Block1	0back/STIM_019.jpg	100
674.472	0.784	783.6	0back	Block1	0back/STIM_019.jpg	100
677.451	1.146	1146.5	2back	Block2	2back/STIM_000.jpg	99
680.75	0.638	638.4	2back	Block2	2back/STIM_000.jpg	99
684.424	0.624	624.4	2back	Block2	2back/STIM_000.jpg	100
688.826	0.881	881.0	2back	Block2	2back/STIM_001.jpg	100
693.52	0.999	999.2	2back	Block2	2back/STIM_001.jpg	99
697.278	0.692	692.4	2back	Block2	2back/STIM_001.jpg	100
700.914	0.728	728.5	2back	Block2	2back/STIM_002.jpg	100
704.038	0.547	546.7	2back	Block2	2back/STIM_002.jpg	100
707.469	0.554	554.3	2back	Block2	2back/STIM_002.jpg	99
712.066	1.265	1265.3	2back	Block2	2back/STIM_003.jpg	100
715.324	0.661	660.9	2back	Block2	2back/STIM_003.jpg	99
718.19	0.571	571.4	2back	Block2	2back/STIM_003.jpg	99
721.265	1.26	1259.6	2back	Block2	2back/STIM_004.jpg	100
726.403	1.03	1030.2	2back	Block2	2back/STIM_004.jpg	100
730.743	1.001	1001.1	2back	Block2	2back/STIM_004.jpg	100
734.66	0.978	978.1	2back	Block2	2back/STIM_005.jpg	100
738.424	1.169	1169.3	2back	Block2	2back/STIM_005.jpg	99
741.639	0.726	725.9	2back	Block2	2back/STIM_005.jpg	99
744.559	1.232	1231.9	2back	Block2	2back/STIM_006.jpg	100
747.889	0.62	619.7	2back	Block2	2back/STIM_006.jpg	100
751.136	0.655	655.4	2back	Block2	2back/STIM_006.jpg	100
754.129	1.151	1150.7	2back	Block2	2back/STIM_007.jpg	100
757.627	0.738	738.2	2back	Block2	2back/STIM_007.jpg	100
760.518	0.919	919.0	2back	Block2	2back/STIM_007.jpg	99
765.415	0.724	723.9	2back	Block2	2back/STIM_008.jpg	100
768.656	0.804	804.5	2back	Block2	2back/STIM_008.jpg	100
772.548	1.081	1080.9	2back	Block2	2back/STIM_008.jpg	99
776.824	0.86	860.1	2back	Block2	2back/STIM_009.jpg	100
780.02	1.095	1095.3	2back	Block2	2back/STIM_009.jpg	100
784.198	1.086	1086.5	2back	Block2	2back/STIM_009.jpg	100
789.109	0.961	961.2	2back	Block2	2back/STIM_010.jpg	99
792.883	0.622	621.7	2back	Block2	2back/STIM_010.jpg	99
795.808	0.824	824.4	2back	Block2	2back/STIM_010.jpg	100
800.497	1.241	1241.2	2back	Block2	2back/STIM_011.jpg	100
805.638	0.759	759.3	2back	Block2	2back/STIM_011.jpg	100
810.026	0.569	569.3	2back	Block2	2back/STIM_011.jpg	99
813.496	0.653	653.1	2back	Block2	2back/STIM_012.jpg	100
816.476	1.254	1254.1	2back	Block2	2back/STIM_012.jpg	99
821.288	0.872	872.2	2back	Block2	2back/STIM_012.jpg	99
825.567	0.763	762.9	2back	Block2	2back/STIM_013.jpg	99
830.229	0.722	721.9	2back	Block2	2back/STIM_013.jpg	100
833.045	1.104	1103.7	2back	Block2	2back/STIM_013.jpg	99
838.017	0.98	980.4	2back	Block2	2back/STIM_014.jpg	100
841.43	0.889	888.6	2back	Block2	2back/STIM_014.jpg	99
844.405	0.565	564.9	2back	Block2	2back/STIM_014.jpg	99
847.592	1.146	1146.2	2back	Block2	2back/STIM_015.jpg	100
850.657	0.59	590.0	2back	Block2	2back/STIM_015.jpg	99
853.749	0.861	861.4	2back	Block2	2back/STIM_015.jpg	100
857.488	0.953	952.7	2back	Block2	2back/STIM_016.jpg	99
862.303	0.568	567.6	2back	Block2	2back/STIM_016.jpg	99
865.333	0.633	632.8	2back	Block2	2back/STIM_016.jpg	99
869.419	0.762	762.4	2back	Block2	2back/STIM_017.jpg	100
873.267	0.805	805.2	2back	Block2	2back/STIM_017.jpg	100
878.056	0.644	644.3	2back	Block2	2back/STIM_017.jpg	99
882.223	1.073	1073.3	2back	Block2	2back/STIM_018.jpg	99
885.439	0.909	908.8	2back	Block2	2back/STIM_018.jpg	100
888.799	0.606	605.8	2back	Block2	2back/STIM_018.jpg	100
892.16	0.964	964.2	2back	Block2	2back/STIM_019.jpg	99
895.883	1.038	1037.5	2back	Block2	2back/STIM_019.jpg	100
900.778	0.988	987.7	2back	Block2	2back/STIM_019.jpg	100
903.966	1.095	1095.1	2back	Block2	2back/STIM_020.jpg	99
908.824	0.769	768.8	2back	Block2	2back/STIM_020.jpg	100
911.932	0.795	795.1	2back	Block2	2back/STIM_020.jpg	99
914.881	0.561	560.6	2back	Block2	2back/STIM_021.jpg	99
917.901	0.701	701.4	2back	Block2	2back/STIM_021.jpg	99
920.891	0.543	543.3	2back	Block2	2back/STIM_021.jpg	100
924.756	1.021	1021.0	2back	Block2	2back/STIM_022.jpg	100
928.312	0.784	783.7	2back	Block2	2back/STIM_022.jpg	100
932.681	0.956	955.8	2back	Block2	2back/STIM_022.jpg	100
936.887	0.587	587.2	2back	Block2	2back/STIM_023.jpg	100
941.202	0.771	771.4	2back	Block2	2back/STIM_023.jpg	100
944.91	0.611	611.4	2back	Block2	2back/STIM_023.jpg	100
947.702	0.65	650.3	2back	Block2	2back/STIM_024.jpg	99
951.833	0.633	632.6	2back	Block2	2back/STIM_024.jpg	99
954.684	0.831	830.7	2back	Block2	2back/STIM_024.jpg	100
957.989	0.832	832.1	2back	Block2	2back/STIM_025.jpg	99
961.592	0.658	658.1	2back	Block2	2back/STIM_025.jpg	99
964.506	0.608	608.2	2back	Block2	2back/STIM_025.jpg	100
967.067	1.084	1083.7	2back	Block2	2back/STIM_026.jpg	100
970.947	1.04	1039.6	2back	Block2	2back/STIM_026.jpg	99
975.336	0.472	472.5	2back	Block2	2back/STIM_026.jpg	100
979.551	0.542	541.7	2back	Block2	2back/STIM_027.jpg	99
983.183	0.643	643.1	2back	Block2	2back/STIM_027.jpg	99
987.158	0.96	960.0	2back	Block2	2back/STIM_027.jpg	99
991.523	1.104	1104.0	2back	Block2	2back/STIM_028.jpg	99
995.084	0.53	530.0	2back	Block2	2back/STIM_028.jpg	100
998.048	0.488	488.5	2back	Block2	2back/STIM_028.jpg	100
1000.745	0.528	527.9	2back	Block2	2back/STIM_029.jpg	99
1004.23	1.041	1041.1	2back	Block2	2back/STIM_029.jpg	99
1008.569	0.41	410.1	2back	Block2	2back/STIM_029.jpg	99
1011.37	0.579	579.4	2back	Block2	2back/STIM_030.jpg	99
1014.746	1.043	1042.7	2back	Block2	2back/STIM_030.jpg	100
1018.659	0.616	616.0	2back	Block2	2back/STIM_030.jpg	100
1022.179	0.64	639.7	2back	Block2	2back/STIM_031.jpg	99
1026.217	0.87	870.4	2back	Block2	2back/STIM_031.jpg	100
1031.018	0.866	866.4	2back	Block2	2back/STIM_031.jpg	100
1034.941	1.11	1109.7	2back	Block2	2back/STIM_032.jpg	99
1038.897	1.052	1052.1	2back	Block2	2back/STIM_032.jpg	100
1042.515	0.92	919.6	2back	Block2	2back/STIM_032.jpg	99
1046.618	1.113	1113.1	2back	Block2	2back/STIM_033.jpg	100
1050.653	0.502	502.1	2back	Block2	2back/STIM_033.jpg	99
1054.385	0.936	935.5	2back	Block2	2back/STIM_033.jpg	100
1057.558	0.858	858.4	2back	Block2	2back/STIM_034.jpg	100
1061.742	0.56	559.8	2back	Block2	2back/STIM_034.jpg	99
1064.565	1.081	1081.1	2back	Block2	2back/STIM_034.jpg	100
1068.762	1.229	1229.0	2back	Block2	2back/STIM_035.jpg	99
1071.959	1.173	1173.1	2back	Block2	2back/STIM_035.jpg	100
1076.437	1.1	1099.6	2back	Block2	2back/STIM_035.jpg	100
1079.648	0.809	809.1	2back	Block2	2back/STIM_036.jpg	99
1084.193	0.808	807.8	2back	Block2	2back/STIM_036.jpg	99
1087.862	0.649	648.9	2back	Block2	2back/STIM_036.jpg	100
1091.323	0.799	799.3	2back	Block2	2back/STIM_037.jpg	99
1095.277	0.884	883.9	2back	Block2	2back/STIM_037.jpg	100
1099.561	1.06	1059.6	2back	Block2	2back/STIM_037.jpg	100
1103.42	1.061	1060.8	2back	Block2	2back/STIM_038.jpg	99
1107.992	0.834	834.5	2back	Block2	2back/STIM_038.jpg	99
1112.027	0.598	598.1	2back	Block2	2back/STIM_038.jpg	100
1114.712	0.552	551.6	2back	Block2	2back/STIM_039.jpg	100
1117.754	0.683	682.7	2back	Block2	2back/STIM_039.jpg	100
1122.112	1.018	1018.1	2back	Block2	2back/STIM_039.jpg	100
1125.565	0.783	782.9	0back	Block2	0back/STIM_000.jpg	99
1128.493	0.754	754.4	0back	Block2	0back/STIM_000.jpg	100
1132.343	0.568	568.2	0back	Block2	0back/STIM_000.jpg	100
1135.336	0.562	561.7	0back	Block2	0back/STIM_001.jpg	100
1138.887	0.693	693.3	0back	Block2	0back/STIM_001.jpg	99
1142.953	0.814	814.3	0back	Block2	0back/STIM_001.jpg	100
1146.233	0.781	780.7	0back	Block2	0back/STIM_002.jpg	100
1149.131	0.729	728.8	0back	Block2	0back/STIM_002.jpg	99
1151.778	0.609	609.3	0back	Block2	0back/STIM_002.jpg	100
1156.131	0.817	817.4	0back	Block2	0back/STIM_003.jpg	100
1158.91	0.873	873.3	0back	Block2	0back/STIM_003.jpg	100
1162.998	0.873	872.9	0back	Block2	0back/STIM_003.jpg	99
1166.35	0.639	639.1	0back	Block2	0back/STIM_004.jpg	100
1169.926	0.66	659.6	0back	Block2	0back/STIM_004.jpg	99
1173.015	0.55	550.5	0back	Block2	0back/STIM_004.jpg	100
1177.058	0.786	786.0	0back	Block2	0back/STIM_005.jpg	100
1181.483	0.565	564.6	0back	Block2	0back/STIM_005.jpg	100
1185.473	0.839	839.4	0back	Block2	0back/STIM_005.jpg	99
1188.312	0.471	470.9	0back	Block2	0back/STIM_006.jpg	99
1192.696	0.864	863.7	0back	Block2	0back/STIM_006.jpg	100
1197.222	0.887	886.6	0back	Block2	0back/STIM_006.jpg	100
1200.145	0.586	585.8	0back	Block2	0back/STIM_007.jpg	99
1204.69	0.591	591.0	0back	Block2	0back/STIM_007.jpg	100
1208.356	0.782	781.8	0back	Block2	0back/STIM_007.jpg	99
1211.131	0.699	698.6	0back	Block2	0back/STIM_008.jpg	99
1213.943	0.458	458.5	0back	Block2	0back/STIM_008.jpg	100
1218.109	0.88	879.5	0back	Block2	0back/STIM_008.jpg	100
1221.765	0.829	828.6	0back	Block2	0back/STIM_009.jpg	99
1225.505	0.426	426.5	0back	Block2	0back/STIM_009.jpg	100
1228.059	0.499	498.8	0back	Block2	0back/STIM_009.jpg	100
1231.127	0.771	770.7	0back	Block2	0back/STIM_010.jpg	99
1235.62	0.479	478.9	0back	Block2	0back/STIM_010.jpg	99
1238.516	0.587	586.7	0back	Block2	0back/STIM_010.jpg	100
1241.89	0.806	805.6	0back	Block2	0back/STIM_011.jpg	99
1245.185	0.508	508.5	0back	Block2	0back/STIM_011.jpg	99
1248.95	0.528	527.7	0back	Block2	0back/STIM_011.jpg	100
1252.166	0.628	628.5	0back	Block2	0back/STIM_012.jpg	100
1256.599	0.843	842.8	0back	Block2	0back/STIM_012.jpg	100
1259.392	0.632	631.7	0back	Block2	0back/STIM_012.jpg	100
1262.249	0.821	821.3	0back	Block2	0back/STIM_013.jpg	99
1265.675	0.623	623.0	0back	Block2	0back/STIM_013.jpg	100
1269.202	0.73	730.4	0back	Block2	0back/STIM_013.jpg	100
1273.009	0.753	753.0	0back	Block2	0back/STIM_014.jpg	100
1277.38	0.543	543.2	0back	Block2	0back/STIM_014.jpg	100
1280.791	0.61	610.5	0back	Block2	0back/STIM_014.jpg	99
1284.517	0.46	459.6	0back	Block2	0back/STIM_015.jpg	99
1288.435	0.664	663.6	0back	Block2	0back/STIM_015.jpg	99
1292.883	0.672	671.9	0back	Block2	0back/STIM_015.jpg	99
1295.676	0.523	523.3	0back	Block2	0back/STIM_016.jpg	99
1298.551	0.619	619.1	0back	Block2	0back/STIM_016.jpg	100
1301.543	0.527	526.6	0back	Block2	0back/STIM_016.jpg	100
1304.83	0.786	785.7	0back	Block2	0back/STIM_017.jpg	99
1309.012	0.61	610.1	0back	Block2	0back/STIM_017.jpg	99
1313.408	0.811	811.4	0back	Block2	0back/STIM_017.jpg	100
1317.794	0.412	411.5	0back	Block2	0back/STIM_018.jpg	99
1320.624	0.908	908.1	0back	Block2	0back/STIM_018.jpg	100
1323.943	0.489	489.0	0back	Block2	0back/STIM_018.jpg	100
1327.84	0.467	467.3	0back	Block2	0back/STIM_019.jpg	100
1331.645	0.412	412.2	0back	Block2	0back/STIM_019.jpg	99
1335.782	0.898	898.5	0back	Block2	0back/STIM_019.jpg	99
1340.392	0.58	579.5	2back	Block3	2back/STIM_000.jpg	99
1344.778	0.436	435.7	2back	Block3	2back/STIM_000.jpg	100
1349.127	0.885	885.4	2back	Block3	2back/STIM_000.jpg	100
1353.856	0.649	648.6	2back	Block3	2back/STIM_001.jpg	100
1357.964	0.998	998.1	2back	Block3	2back/STIM_001.jpg	100
1361.195	1.011	1010.9	2back	Block3	2back/STIM_001.jpg	100
1364.954	0.584	584.1	2back	Block3	2back/STIM_002.jpg	99
1368.479	0.822	821.6	2back	Block3	2back/STIM_002.jpg	99
1371.793	1.065	1065.4	2back	Block3	2back/STIM_002.jpg	100
1375.848	0.674	674.2	2back	Block3	2back/STIM_003.jpg	99
1380.266	0.798	797.9	2back	Block3	2back/STIM_003.jpg	100
1383.93	0.561	561.3	2back	Block3	2back/STIM_003.jpg	99
1388.014	0.431	431.0	2back	Block3	2back/STIM_004.jpg	100
1391.777	0.992	992.0	2back	Block3	2back/STIM_004.jpg	100
1396.114	0.836	835.5	2back	Block3	2back/STIM_004.jpg	99
1399.133	1.049	1049.4	2back	Block3	2back/STIM_005.jpg	99
1402.447	0.594	594.1	2back	Block3	2back/STIM_005.jpg	100
1405.348	1.006	1006.5	2back	Block3	2back/STIM_005.jpg	100
1408.755	0.604	604.3	2back	Block3	2back/STIM_006.jpg	100
1412.06	0.93	930.1	2back	Block3	2back/STIM_006.jpg	99
1415.807	0.845	845.2	2back	Block3	2back/STIM_006.jpg	100
1419.785	0.911	911.4	2back	Block3	2back/STIM_007.jpg	99
1423.779	0.981	981.0	2back	Block3	2back/STIM_007.jpg	100
1428.378	0.765	765.4	2back	Block3	2back/STIM_007.jpg	99
1431.839	1.058	1058.5	2back	Block3	2back/STIM_008.jpg	100
1436.199	0.645	644.7	2back	Block3	2back/STIM_008.jpg	99
1439.547	0.711	710.7	2back	Block3	2back/STIM_008.jpg	99
1444.02	0.631	630.7	2back	Block3	2back/STIM_009.jpg	100
1446.856	0.778	778.5	2back	Block3	2back/STIM_009.jpg	99
1450.137	0.746	746.2	2back	Block3	2back/STIM_009.jpg	99
1454.627	0.816	816.1	2back	Block3	2back/STIM_010.jpg	100
1459.093	0.588	587.6	2back	Block3	2back/STIM_010.jpg	100
1463.61	0.686	685.6	2back	Block3	2back/STIM_010.jpg	99
1467.441	0.722	721.9	2back	Block3	2back/STIM_011.jpg	100
1471.885	0.547	546.8	2back	Block3	2back/STIM_011.jpg	100
1474.424	0.838	838.0	2back	Block3	2back/STIM_011.jpg	99
1478.057	0.61	610.2	2back	Block3	2back/STIM_012.jpg	100
1482.568	0.606	606.0	2back	Block3	2back/STIM_012.jpg	99
1485.521	0.816	816.3	2back	Block3	2back/STIM_012.jpg	100
1489.202	0.717	717.3	2back	Block3	2back/STIM_013.jpg	100
1492.906	0.918	918.0	2back	Block3	2back/STIM_013.jpg	100
1495.861	0.511	511.1	2back	Block3	2back/STIM_013.jpg	99
1500.205	0.523	522.6	2back	Block3	2back/STIM_014.jpg	100
1502.76	0.821	820.7	2back	Block3	2back/STIM_014.jpg	100
1507.165	0.979	978.8	2back	Block3	2back/STIM_014.jpg	100
1511.366	0.533	533.0	2back	Block3	2back/STIM_015.jpg	100
1514.934	0.595	594.6	2back	Block3	2back/STIM_015.jpg	100
1518.637	0.572	572.4	2back	Block3	2back/STIM_015.jpg	100
1521.129	0.539	538.8	2back	Block3	2back/STIM_016.jpg	100
1524.394	0.816	815.5	2back	Block3	2back/STIM_016.jpg	100
1527.201	0.46	459.5	2back	Block3	2back/STIM_016.jpg	99
1530.655	1.027	1027.1	2back	Block3	2back/STIM_017.jpg	100
1535.179	0.968	968.3	2back	Block3	2back/STIM_017.jpg	100
1539.555	0.81	810.3	2back	Block3	2back/STIM_017.jpg	99
1542.369	0.849	849.4	2back	Block3	2back/STIM_018.jpg	99
1546.86	0.918	917.7	2back	Block3	2back/STIM_018.jpg	100
1550.213	0.636	635.6	2back	Block3	2back/STIM_018.jpg	99
1553.052	0.881	881.2	2back	Block3	2back/STIM_019.jpg	99
1555.83	0.561	561.2	2back	Block3	2back/STIM_019.jpg	100
1558.863	0.557	557.2	2back	Block3	2back/STIM_019.jpg	99
1562.652	0.801	800.6	2back	Block3	2back/STIM_020.jpg	99
1567.031	0.584	584.4	2back	Block3	2back/STIM_020.jpg	99
1571.291	0.936	936.1	2back	Block3	2back/STIM_020.jpg	100
1575.879	0.882	882.2	2back	Block3	2back/STIM_021.jpg	99
1579.223	0.559	558.9	2back	Block3	2back/STIM_021.jpg	99
1581.777	0.545	545.1	2back	Block3	2back/STIM_021.jpg	99
1584.912	0.832	831.8	2back	Block3	2back/STIM_022.jpg	99
1589.332	0.879	878.7	2back	Block3	2back/STIM_022.jpg	100
1593.821	0.866	865.9	2back	Block3	2back/STIM_022.jpg	99
1597.888	0.394	393.8	2back	Block3	2back/STIM_023.jpg	99
1600.492	0.802	801.7	2back	Block3	2back/STIM_023.jpg	99
1603.468	0.61	610.1	2back	Block3	2back/STIM_023.jpg	99
1607.972	0.506	505.6	2back	Block3	2back/STIM_024.jpg	100
1611.137	1.002	1001.8	2back	Block3	2back/STIM_024.jpg	100
1615.761	0.802	802.5	2back	Block3	2back/STIM_024.jpg	99
1620.133	0.584	584.4	2back	Block3	2back/STIM_025.jpg	99
1624.056	0.632	632.1	2back	Block3	2back/STIM_025.jpg	99
1626.85	1.027	1027.2	2back	Block3	2back/STIM_025.jpg	99
1631.192	1.049	1049.1	2back	Block3	2back/STIM_026.jpg	99
1634.388	0.865	865.0	2back	Block3	2back/STIM_026.jpg	100
1637.842	0.742	741.9	2back	Block3	2back/STIM_026.jpg	99
1641.02	0.818	817.5	2back	Block3	2back/STIM_027.jpg	100
1644.799	0.64	640.3	2back	Block3	2back/STIM_027.jpg	99
1649.308	0.558	557.5	2back	Block3	2back/STIM_027.jpg	100
1652.493	0.657	657.3	2back	Block3	2back/STIM_028.jpg	100
1656.478	0.696	695.9	2back	Block3	2back/STIM_028.jpg	100
1661.069	1.037	1036.6	2back	Block3	2back/STIM_028.jpg	100
1665.919	0.632	632.1	2back	Block3	2back/STIM_029.jpg	100
1670.244	1.03	1030.0	2back	Block3	2back/STIM_029.jpg	99
1673.498	0.767	766.8	2back	Block3	2back/STIM_029.jpg	99
1676.315	0.373	372.7	2back	Block3	2back/STIM_030.jpg	99
1679.892	0.805	805.3	2back	Block3	2back/STIM_030.jpg	99
1683.015	0.669	669.4	2back	Block3	2back/STIM_030.jpg	100
1687.676	0.674	674.3	2back	Block3	2back/STIM_031.jpg	99
1690.624	0.954	954.0	2back	Block3	2back/STIM_031.jpg	100
1694.01	0.961	960.6	2back	Block3	2back/STIM_031.jpg	100
1698.76	1.068	1067.6	2back	Block3	2back/STIM_032.jpg	100
1701.763	0.542	541.6	2back	Block3	2back/STIM_032.jpg	100
1704.809	0.645	645.2	2back	Block3	2back/STIM_032.jpg	99
1709.121	1.052	1051.9	2back	Block3	2back/STIM_033.jpg	99
1714.009	0.722	722.4	2back	Block3	2back/STIM_033.jpg	99
1717.071	0.52	520.1	2back	Block3	2back/STIM_033.jpg	99
1720.481	0.891	891.4	2back	Block3	2back/STIM_034.jpg	99
1723.669	0.563	563.3	2back	Block3	2back/STIM_034.jpg	100
1726.566	0.882	881.8	2back	Block3	2back/STIM_034.jpg	99
1730.237	0.401	401.4	2back	Block3	2back/STIM_035.jpg	99
1732.963	0.54	540.3	2back	Block3	2back/STIM_035.jpg	99
1736.24	0.515	514.8	2back	Block3	2back/STIM_035.jpg	99
1739.328	0.727	727.3	2back	Block3	2back/STIM_036.jpg	100
1743.325	0.423	423.3	2back	Block3	2back/STIM_036.jpg	100
1746.344	1.014	1014.1	2back	Block3	2back/STIM_036.jpg	100
1751.091	0.561	561.2	2back	Block3	2back/STIM_037.jpg	100
1755.514	1.068	1068.3	2back	Block3	2back/STIM_037.jpg	99
1759.315	0.398	398.4	2back	Block3	2back/STIM_037.jpg	99
1761.76	0.477	476.6	2back	Block3	2back/STIM_038.jpg	99
1766.159	0.892	892.5	2back	Block3	2back/STIM_038.jpg	99
1770.727	1.006	1006.2	2back	Block3	2back/STIM_038.jpg	99
1774.592	0.565	564.8	2back	Block3	2back/STIM_039.jpg	100
1778.979	0.957	957.1	2back	Block3	2back/STIM_039.jpg	100
1782.335	0.815	815.2	2back	Block3	2back/STIM_039.jpg	99
1785.312	0.58	579.5	0back	Block3	0back/STIM_000.jpg	100
1788.669	0.696	696.4	0back	Block3	0back/STIM_000.jpg	99
1793.057	0.828	828.2	0back	Block3	0back/STIM_000.jpg	100
1796.749	0.861	860.9	0back	Block3	0back/STIM_001.jpg	99
1800.877	0.854	854.3	0back	Block3	0back/STIM_001.jpg	99
1805.189	0.461	460.6	0back	Block3	0back/STIM_001.jpg	100
1809.2	0.654	654.5	0back	Block3	0back/STIM_002.jpg	99
1813.397	0.579	578.7	0back	Block3	0back/STIM_002.jpg	99
1817.111	0.713	712.6	0back	Block3	0back/STIM_002.jpg	99
1821.228	0.873	872.9	0back	Block3	0back/STIM_003.jpg	99
1825.962	0.567	567.4	0back	Block3	0back/STIM_003.jpg	99
1829.479	0.65	650.3	0back	Block3	0back/STIM_003.jpg	99
1832.305	0.772	771.6	0back	Block3	0back/STIM_004.jpg	99
1835.791	0.702	701.9	0back	Block3	0back/STIM_004.jpg	100
1838.764	0.654	654.3	0back	Block3	0back/STIM_004.jpg	99
1842.88	0.658	657.5	0back	Block3	0back/STIM_005.jpg	99
1846.115	0.716	715.6	0back	Block3	0back/STIM_005.jpg	99
1849.881	0.799	798.6	0back	Block3	0back/STIM_005.jpg	99
1853.111	0.689	689.0	0back	Block3	0back/STIM_006.jpg	100
1857.364	0.486	485.5	0back	Block3	0back/STIM_006.jpg	99
1860.809	0.34	339.9	0back	Block3	0back/STIM_006.jpg	99
1863.779	0.599	599.3	0back	Block3	0back/STIM_007.jpg	99
1866.478	0.606	605.9	0back	Block3	0back/STIM_007.jpg	99
1870.343	0.807	807.2	0back	Block3	0back/STIM_007.jpg	100
1873.982	0.692	691.8	0back	Block3	0back/STIM_008.jpg	100
1878.278	0.653	652.7	0back	Block3	0back/STIM_008.jpg	100
1881.764	0.484	484.3	0back	Block3	0back/STIM_008.jpg	99
1885.253	0.562	562.4	0back	Block3	0back/STIM_009.jpg	100
1889.487	0.774	773.6	0back	Block3	0back/STIM_009.jpg	99
1893.979	0.791	791.3	0back	Block3	0back/STIM_009.jpg	99
1897.668	0.67	669.7	0back	Block3	0back/STIM_010.jpg	99
1900.546	0.681	680.9	0back	Block3	0back/STIM_010.jpg	100
1904.415	0.679	679.3	0back	Block3	0back/STIM_010.jpg	99
1908.51	0.652	651.9	0back	Block3	0back/STIM_011.jpg	99
1912.64	0.53	529.7	0back	Block3	0back/STIM_011.jpg	100
1916.641	0.464	464.2	0back	Block3	0back/STIM_011.jpg	99
1919.478	0.62	620.3	0back	Block3	0back/STIM_012.jpg	99
1923.173	0.383	382.6	0back	Block3	0back/STIM_012.jpg	100
1926.995	0.617	617.1	0back	Block3	0back/STIM_012.jpg	100
1931.194	0.751	751.1	0back	Block3	0back/STIM_013.jpg	100
1935.67	0.554	553.8	0back	Block3	0back/STIM_013.jpg	99
1940.234	0.682	682.5	0back	Block3	0back/STIM_013.jpg	100
1944.646	0.489	488.6	0back	Block3	0back/STIM_014.jpg	100
1947.253	0.708	708.2	0back	Block3	0back/STIM_014.jpg	99
1950.268	0.543	543.0	0back	Block3	0back/STIM_014.jpg	99
1954.078	0.809	809.0	0back	Block3	0back/STIM_015.jpg	100
1957.138	0.619	618.6	0back	Block3	0back/STIM_015.jpg	99
1960.595	0.757	757.1	0back	Block3	0back/STIM_015.jpg	99
1963.785	0.501	501.2	0back	Block3	0back/STIM_016.jpg	99
1966.558	0.612	611.9	0back	Block3	0back/STIM_016.jpg	99
1970.164	0.69	690.3	0back	Block3	0back/STIM_016.jpg	100
1973.391	0.557	557.2	0back	Block3	0back/STIM_017.jpg	100
1976.918	0.563	563.2	0back	Block3	0back/STIM_017.jpg	100
1980.051	0.555	554.8	0back	Block3	0back/STIM_017.jpg	99
1983.678	0.769	768.9	0back	Block3	0back/STIM_018.jpg	99
1987.989	0.466	466.5	0back	Block3	0back/STIM_018.jpg	99
1992.379	0.78	780.2	0back	Block3	0back/STIM_018.jpg	100
1996.506	0.519	519.1	0back	Block3	0back/STIM_019.jpg	100
1999.368	0.668	667.8	0back	Block3	0back/STIM_019.jpg	99
2003.877	0.753	753.4	0back	Block3	0back/STIM_019.jpg	100
2008.297	0.522	521.5	2back	Block4	2back/STIM_000.jpg	100
2010.887	0.952	952.4	2back	Block4	2back/STIM_000.jpg	100
2014.506	0.522	521.6	2back	Block4	2back/STIM_000.jpg	99
2017.594	1.06	1059.6	2back	Block4	2back/STIM_001.jpg	99
2021.148	0.505	505.3	2back	Block4	2back/STIM_001.jpg	99
2025.318	0.642	642.3	2back	Block4	2back/STIM_001.jpg	100
2028.582	0.93	930.3	2back	Block4	2back/STIM_002.jpg	100
2033.008	1.009	1008.8	2back	Block4	2back/STIM_002.jpg	99
2036.017	0.504	503.8	2back	Block4	2back/STIM_002.jpg	100
2038.617	0.45	449.5	2back	Block4	2back/STIM_003.jpg	100
2041.958	0.622	621.5	2back	Block4	2back/STIM_003.jpg	99
2045.272	0.516	516.5	2back	Block4	2back/STIM_003.jpg	99
2048.79	0.956	956.4	2back	Block4	2back/STIM_004.jpg	99
2051.81	1.068	1068.3	2back	Block4	2back/STIM_004.jpg	100
2055.342	0.866	866.5	2back	Block4	2back/STIM_004.jpg	99
2059.336	0.789	789.1	2back	Block4	2back/STIM_005.jpg	99
2063.402	0.852	851.6	2back	Block4	2back/STIM_005.jpg	99
2066.374	1.101	1100.7	2back	Block4	2back/STIM_005.jpg	100
2070.037	0.918	918.2	2back	Block4	2back/STIM_006.jpg	100
2074.796	0.527	526.8	2back	Block4	2back/STIM_006.jpg	100
2077.88	1.079	1079.4	2back	Block4	2back/STIM_006.jpg	99
2082.202	0.735	735.3	2back	Block4	2back/STIM_007.jpg	100
2086.707	0.529	528.8	2back	Block4	2back/STIM_007.jpg	100
2090.238	0.696	696.0	2back	Block4	2back/STIM_007.jpg	99
2093.172	0.605	605.2	2back	Block4	2back/STIM_008.jpg	100
2096.138	1.061	1060.9	2back	Block4	2back/STIM_008.jpg	99
2100.877	0.874	873.5	2back	Block4	2back/STIM_008.jpg	99
2104.454	0.738	738.4	2back	Block4	2back/STIM_009.jpg	100
2108.528	0.77	769.5	2back	Block4	2back/STIM_009.jpg	100
2112.309	0.758	757.8	2back	Block4	2back/STIM_009.jpg	100
2115.833	0.655	654.6	2back	Block4	2back/STIM_010.jpg	100
2118.628	1.027	1026.6	2back	Block4	2back/STIM_010.jpg	100
2121.868	0.779	778.6	2back	Block4	2back/STIM_010.jpg	99
2126.224	0.888	888.2	2back	Block4	2back/STIM_011.jpg	99
2129.412	0.954	954.5	2back	Block4	2back/STIM_011.jpg	100
2133.17	0.658	658.5	2back	Block4	2back/STIM_011.jpg	100
2136.714	0.711	711.3	2back	Block4	2back/STIM_012.jpg	100
2139.672	0.874	874.2	2back	Block4	2back/STIM_012.jpg	99
2142.858	0.838	838.1	2back	Block4	2back/STIM_012.jpg	100
2147.225	0.796	796.2	2back	Block4	2back/STIM_013.jpg	100
2150.627	0.452	451.9	2back	Block4	2back/STIM_013.jpg	99
2154.566	0.87	870.2	2back	Block4	2back/STIM_013.jpg	100
2158.175	0.551	550.9	2back	Block4	2back/STIM_014.jpg	100
2161.758	0.996	996.2	2back	Block4	2back/STIM_014.jpg	100
2166.645	0.702	702.4	2back	Block4	2back/STIM_014.jpg	99
2169.292	0.677	677.4	2back	Block4	2back/STIM_015.jpg	100
2172.707	0.842	842.2	2back	Block4	2back/STIM_015.jpg	99
2176.579	1.052	1052.1	2back	Block4	2back/STIM_015.jpg	99
2179.746	0.577	576.6	2back	Block4	2back/STIM_016.jpg	100
2182.54	0.954	953.8	2back	Block4	2back/STIM_016.jpg	99
2187.382	0.614	614.3	2back	Block4	2back/STIM_016.jpg	100
2190.108	0.953	952.9	2back	Block4	2back/STIM_017.jpg	99
2193.985	0.98	980.1	2back	Block4	2back/STIM_017.jpg	99
2197.82	0.728	727.6	2back	Block4	2back/STIM_017.jpg	99
2200.679	0.811	811.0	2back	Block4	2back/STIM_018.jpg	99
2204.968	0.349	349.2	2back	Block4	2back/STIM_018.jpg	100
2207.536	0.454	454.0	2back	Block4	2back/STIM_018.jpg	99
2211.141	0.939	938.7	2back	Block4	2back/STIM_019.jpg	99
2215.037	0.681	681.4	2back	Block4	2back/STIM_019.jpg	100
2218.873	0.701	700.8	2back	Block4	2back/STIM_019.jpg	99
2222.844	0.767	767.4	2back	Block4	2back/STIM_020.jpg	100
2226.328	0.742	742.0	2back	Block4	2back/STIM_020.jpg	99
2229.378	0.76	760.2	2back	Block4	2back/STIM_020.jpg	100
2233.34	0.52	520.4	2back	Block4	2back/STIM_021.jpg	100
2237.487	0.687	686.7	2back	Block4	2back/STIM_021.jpg	100
2241.989	0.833	832.6	2back	Block4	2back/STIM_021.jpg	100
2244.718	0.767	767.4	2back	Block4	2back/STIM_022.jpg	99
2248.283	0.993	993.4	2back	Block4	2back/STIM_022.jpg	100
2251.489	0.933	932.6	2back	Block4	2back/STIM_022.jpg	99
2255.039	0.943	942.9	2back	Block4	2back/STIM_023.jpg	99
2259.137	1.031	1030.6	2back	Block4	2back/STIM_023.jpg	100
2263.479	1.039	1039.1	2back	Block4	2back/STIM_023.jpg	99
2267.666	0.964	963.8	2back	Block4	2back/STIM_024.jpg	100
2272.049	0.794	794.3	2back	Block4	2back/STIM_024.jpg	99
2276.026	0.77	769.7	2back	Block4	2back/STIM_024.jpg	100
2279.746	0.61	609.9	2back	Block4	2back/STIM_025.jpg	99
2282.304	0.908	908.5	2back	Block4	2back/STIM_025.jpg	99
2286.977	0.936	936.4	2back	Block4	2back/STIM_025.jpg	99
2290.16	0.919	919.2	2back	Block4	2back/STIM_026.jpg	100
2293.422	0.715	715.3	2back	Block4	2back/STIM_026.jpg	100
2296.561	0.5	500.1	2back	Block4	2back/STIM_026.jpg	99
2300.356	0.846	846.1	2back	Block4	2back/STIM_027.jpg	100
2304.331	0.881	880.9	2back	Block4	2back/STIM_027.jpg	99
2307.54	0.781	781.3	2back	Block4	2back/STIM_027.jpg	99
2312.1	0.889	888.7	2back	Block4	2back/STIM_028.jpg	99
2316.661	0.987	986.9	2back	Block4	2back/STIM_028.jpg	99
2320.543	0.775	774.9	2back	Block4	2back/STIM_028.jpg	100
2323.212	0.902	901.7	2back	Block4	2back/STIM_029.jpg	100
2327.578	0.713	713.3	2back	Block4	2back/STIM_029.jpg	99
2331.075	1.022	1022.5	2back	Block4	2back/STIM_029.jpg	100
2334.918	1.0	999.6	2back	Block4	2back/STIM_030.jpg	100
2339.575	0.971	971.0	2back	Block4	2back/STIM_030.jpg	99
2344.018	0.513	513.3	2back	Block4	2back/STIM_030.jpg	99
2347.344	0.564	564.0	2back	Block4	2back/STIM_031.jpg	100
2351.324	0.924	924.1	2back	Block4	2back/STIM_031.jpg	100
2354.547	1.047	1046.7	2back	Block4	2back/STIM_031.jpg	100
2357.632	0.821	821.2	2back	Block4	2back/STIM_032.jpg	100
2360.564	0.55	550.5	2back	Block4	2back/STIM_032.jpg	100
2365.009	0.481	480.6	2back	Block4	2back/STIM_032.jpg	100
2368.111	0.904	903.6	2back	Block4	2back/STIM_033.jpg	100
2371.075	0.821	820.7	2back	Block4	2back/STIM_033.jpg	99
2375.512	0.847	846.9	2back	Block4	2back/STIM_033.jpg	99
2378.638	1.042	1042.1	2back	Block4	2back/STIM_034.jpg	99
2382.29	1.055	1055.3	2back	Block4	2back/STIM_034.jpg	100
2385.221	0.886	886.0	2back	Block4	2back/STIM_034.jpg	99
2389.234	0.96	960.1	2back	Block4	2back/STIM_035.jpg	100
2392.861	0.738	737.8	2back	Block4	2back/STIM_035.jpg	100
2396.368	0.845	845.4	2back	Block4	2back/STIM_035.jpg	99
2399.807	0.786	786.3	2back	Block4	2back/STIM_036.jpg	100
2403.256	1.003	1002.9	2back	Block4	2back/STIM_036.jpg	100
2406.145	0.629	629.2	2back	Block4	2back/STIM_036.jpg	100
2409.618	0.834	833.8	2back	Block4	2back/STIM_037.jpg	100
2413.982	0.675	674.8	2back	Block4	2back/STIM_037.jpg	99
2416.631	0.816	816.3	2back	Block4	2back/STIM_037.jpg	99
2420.888	0.812	811.5	2back	Block4	2back/STIM_038.jpg	99
2425.214	1.036	1035.5	2back	Block4	2back/STIM_038.jpg	99
2429.611	0.772	771.6	2back	Block4	2back/STIM_038.jpg	99
2433.041	0.561	561.2	2back	Block4	2back/STIM_039.jpg	99
2436.195	0.523	522.9	2back	Block4	2back/STIM_039.jpg	100
2439.092	0.984	983.9	2back	Block4	2back/STIM_039.jpg	100
2442.142	0.844	844.2	0back	Block4	0back/STIM_000.jpg	99
2446.448	0.889	889.1	0back	Block4	0back/STIM_000.jpg	100
2450.21	0.552	551.5	0back	Block4	0back/STIM_000.jpg	99
2452.892	0.868	867.9	0back	Block4	0back/STIM_001.jpg	99
2457.194	0.722	722.2	0back	Block4	0back/STIM_001.jpg	99
2460.778	0.579	579.4	0back	Block4	0back/STIM_001.jpg	100
2463.469	0.679	679.0	0back	Block4	0back/STIM_002.jpg	99
2467.554	0.797	796.9	0back	Block4	0back/STIM_002.jpg	100
2470.342	0.555	555.3	0back	Block4	0back/STIM_002.jpg	99
2474.171	0.495	495.4	0back	Block4	0back/STIM_003.jpg	99
2477.385	0.789	789.1	0back	Block4	0back/STIM_003.jpg	99
2481.701	0.551	551.0	0back	Block4	0back/STIM_003.jpg	100
2485.947	0.526	526.0	0back	Block4	0back/STIM_004.jpg	100
2489.487	0.803	803.2	0back	Block4	0back/STIM_004.jpg	99
2494.166	0.63	630.2	0back	Block4	0back/STIM_004.jpg	100
2497.742	0.898	898.1	0back	Block4	0back/STIM_005.jpg	100
2502.438	0.508	508.5	0back	Block4	0back/STIM_005.jpg	100
2506.657	0.629	629.2	0back	Block4	0back/STIM_005.jpg	100
2511.12	0.803	803.4	0back	Block4	0back/STIM_006.jpg	99
2515.404	0.458	458.1	0back	Block4	0back/STIM_006.jpg	100
2519.864	0.681	681.0	0back	Block4	0back/STIM_006.jpg	100
2523.604	0.448	447.8	0back	Block4	0back/STIM_007.jpg	100
2527.817	0.491	491.3	0back	Block4	0back/STIM_007.jpg	100
2531.128	0.48	480.2	0back	Block4	0back/STIM_007.jpg	100
2534.425	0.513	512.6	0back	Block4	0back/STIM_008.jpg	99
2537.304	0.787	787.1	0back	Block4	0back/STIM_008.jpg	100
2541.207	0.61	610.5	0back	Block4	0back/STIM_008.jpg	99
2544.783	0.699	698.7	0back	Block4	0back/STIM_009.jpg	99
2548.383	0.708	708.3	0back	Block4	0back/STIM_009.jpg	99
2551.049	0.5	500.4	0back	Block4	0back/STIM_009.jpg	100
2553.694	0.801	800.6	0back	Block4	0back/STIM_010.jpg	99
2558.045	0.763	763.1	0back	Block4	0back/STIM_010.jpg	99
2561.949	0.487	486.9	0back	Block4	0back/STIM_010.jpg	99
2564.559	0.456	455.6	0back	Block4	0back/STIM_011.jpg	99
2568.147	0.371	370.8	0back	Block4	0back/STIM_011.jpg	99
2572.17	0.823	822.7	0back	Block4	0back/STIM_011.jpg	99
2574.893	0.649	648.7	0back	Block4	0back/STIM_012.jpg	100
2578.265	0.836	836.0	0back	Block4	0back/STIM_012.jpg	99
2582.202	0.931	930.9	0back	Block4	0back/STIM_012.jpg	99
2585.67	0.652	652.5	0back	Block4	0back/STIM_013.jpg	99
2589.427	0.542	542.5	0back	Block4	0back/STIM_013.jpg	99
2593.063	0.792	792.5	0back	Block4	0back/STIM_013.jpg	100
2596.778	0.516	516.0	0back	Block4	0back/STIM_014.jpg	99
2599.513	0.91	909.5	0back	Block4	0back/STIM_014.jpg	100
2602.61	0.8	799.9	0back	Block4	0back/STIM_014.jpg	100
2605.487	0.609	608.8	0back	Block4	0back/STIM_015.jpg	100
2608.953	0.672	671.8	0back	Block4	0back/STIM_015.jpg	99
2612.366	0.777	777.2	0back	Block4	0back/STIM_015.jpg	99
2616.175	0.617	617.0	0back	Block4	0back/STIM_016.jpg	100
2619.517	0.714	714.0	0back	Block4	0back/STIM_016.jpg	99
2623.989	0.572	571.7	0back	Block4	0back/STIM_016.jpg	99
2628.391	0.625	624.7	0back	Block4	0back/STIM_017.jpg	99
2631.626	0.804	804.3	0back	Block4	0back/STIM_017.jpg	99
2636.018	0.551	550.7	0back	Block4	0back/STIM_017.jpg	100
2640.108	0.418	418.3	0back	Block4	0back/STIM_018.jpg	99
2642.783	0.595	595.1	0back	Block4	0back/STIM_018.jpg	100
2646.034	0.934	934.4	0back	Block4	0back/STIM_018.jpg	100
2648.986	0.769	769.1	0back	Block4	0back/STIM_019.jpg	100
2653.462	0.861	860.8	0back	Block4	0back/STIM_019.jpg	100
2658.074	0.489	488.6	0back	Block4	0back/STIM_019.jpg	99
