onset	duration	response_time_ms	trial_type	learning_stage	stimulus	response_port
0.0	0.981	981.4	2back	Block1	2back/STIM_000.jpg	100
3.827	1.164	1163.9	2back	Block1	2back/STIM_000.jpg	99
8.293	1.071	1071.3	2back	Block1	2back/STIM_000.jpg	99
12.06	0.793	792.7	2back	Block1	2back/STIM_001.jpg	100
16.255	1.082	1082.3	2back	Block1	2back/STIM_001.jpg	100
20.57	0.91	909.6	2back	Block1	2back/STIM_001.jpg	100
25.312	1.516	1515.8	2back	Block1	2back/STIM_002.jpg	99
29.144	1.371	1370.8	2back	Block1	2back/STIM_002.jpg	99
32.806	0.984	984.5	2back	Block1	2back/STIM_002.jpg	100
37.18	1.469	1468.8	2back	Block1	2back/STIM_003.jpg	100
40.661	1.12	1120.1	2back	Block1	2back/STIM_003.jpg	99
45.729	0.78	780.0	2back	Block1	2back/STIM_003.jpg	100
50.109	1.325	1325.0	2back	Block1	2back/STIM_004.jpg	100
53.668	1.488	1488.0	2back	Block1	2back/STIM_004.jpg	100
58.772	1.007	1006.9	2back	Block1	2back/STIM_004.jpg	99
63.373	0.745	745.4	2back	Block1	2back/STIM_005.jpg	100
66.929	1.204	1203.9	2back	Block1	2back/STIM_005.jpg	99
71.527	0.859	858.8	2back	Block1	2back/STIM_005.jpg	99
74.909	0.996	996.3	2back	Block1	2back/STIM_006.jpg	100
79.02	0.913	912.6	2back	Block1	2back/STIM_006.jpg	99
82.145	1.411	1411.0	2back	Block1	2back/STIM_006.jpg	99
85.791	1.227	1226.9	2back	Block1	2back/STIM_007.jpg	100
89.823	1.196	1196.1	2back	Block1	2back/STIM_007.jpg	99
94.025	0.975	975.0	2back	Block1	2back/STIM_007.jpg	99
97.909	1.072	1071.9	2back	Block1	2back/STIM_008.jpg	100
102.804	1.49	1489.9	2back	Block1	2back/STIM_008.jpg	99
108.142	1.076	1075.9	2back	Block1	2back/STIM_008.jpg	100
111.342	1.156	1155.7	2back	Block1	2back/STIM_009.jpg	100
114.523	1.173	1173.0	2back	Block1	2back/STIM_009.jpg	100
117.827	0.679	679.4	2back	Block1	2back/STIM_009.jpg	100
122.337	0.916	915.7	2back	Block1	2back/STIM_010.jpg	100
127.152	1.382	1381.6	2back	Block1	2back/STIM_010.jpg	99
132.494	0.818	817.8	2back	Block1	2back/STIM_010.jpg	100
137.193	1.573	1573.3	2back	Block1	2back/STIM_011.jpg	100
142.33	1.349	1348.9	2back	Block1	2back/STIM_011.jpg	100
145.925	1.028	1027.7	2back	Block1	2back/STIM_011.jpg	99
150.336	1.513	1512.9	2back	Block1	2back/STIM_012.jpg	100
154.312	0.683	682.7	2back	Block1	2back/STIM_012.jpg	100
157.212	1.022	1022.4	2back	Block1	2back/STIM_012.jpg	99
160.89	1.277	1277.2	2back	Block1	2back/STIM_013.jpg	100
164.318	1.01	1010.0	2back	Block1	2back/STIM_013.jpg	100
169.064	1.384	1384.4	2back	Block1	2back/STIM_013.jpg	100
173.464	0.749	748.7	2back	Block1	2back/STIM_014.jpg	100
177.089	0.953	952.9	2back	Block1	2back/STIM_014.jpg	99
180.301	0.984	984.0	2back	Block1	2back/STIM_014.jpg	99
183.414	1.622	1622.2	2back	Block1	2back/STIM_015.jpg	100
188.446	1.148	1148.5	2back	Block1	2back/STIM_015.jpg	100
191.797	1.046	1046.0	2back	Block1	2back/STIM_015.jpg	99
196.224	0.756	756.4	2back	Block1	2back/STIM_016.jpg	99
199.399	1.443	1443.1	2back	Block1	2back/STIM_016.jpg	100
204.437	0.656	656.0	2back	Block1	2back/STIM_016.jpg	100
207.194	1.286	1286.2	2back	Block1	2back/STIM_017.jpg	99
210.66	0.72	720.2	2back	Block1	2back/STIM_017.jpg	100
214.615	0.764	763.6	2back	Block1	2back/STIM_017.jpg	100
218.608	0.787	787.1	2back	Block1	2back/STIM_018.jpg	99
222.808	0.938	937.6	2back	Block1	2back/STIM_018.jpg	99
226.729	1.463	1463.2	2back	Block1	2back/STIM_018.jpg	100
231.39	0.856	855.9	2back	Block1	2back/STIM_019.jpg	99
234.598	0.84	839.8	2back	Block1	2back/STIM_019.jpg	99
238.071	1.052	1052.4	2back	Block1	2back/STIM_019.jpg	100
241.133	1.263	1262.8	2back	Block1	2back/STIM_020.jpg	99
245.112	1.173	1173.0	2back	Block1	2back/STIM_020.jpg	100
248.622	1.036	1035.9	2back	Block1	2back/STIM_020.jpg	100
252.429	1.422	1422.1	2back	Block1	2back/STIM_021.jpg	100
256.664	1.492	1492.5	2back	Block1	2back/STIM_021.jpg	100
260.168	1.152	1151.6	2back	Block1	2back/STIM_021.jpg	99
263.524	0.855	854.6	2back	Block1	2back/STIM_022.jpg	100
266.589	1.092	1092.2	2back	Block1	2back/STIM_022.jpg	100
270.286	1.392	1392.3	2back	Block1	2back/STIM_022.jpg	99
274.9	1.54	1540.2	2back	Block1	2back/STIM_023.jpg	100
278.661	1.359	1358.9	2back	Block1	2back/STIM_023.jpg	99
283.39	1.22	1220.5	2back	Block1	2back/STIM_023.jpg	100
288.573	1.432	1431.9	2back	Block1	2back/STIM_024.jpg	100
293.348	0.706	705.7	2back	Block1	2back/STIM_024.jpg	100
297.156	1.399	1398.7	2back	Block1	2back/STIM_024.jpg	99
300.72	1.399	1399.1	2back	Block1	2back/STIM_025.jpg	100
304.185	1.447	1446.9	2back	Block1	2back/STIM_025.jpg	99
309.542	0.643	643.2	2back	Block1	2back/STIM_025.jpg	100
314.057	1.245	1245.3	2back	Block1	2back/STIM_026.jpg	100
317.818	1.128	1128.3	2back	Block1	2back/STIM_026.jpg	100
322.207	0.802	801.9	2back	Block1	2back/STIM_026.jpg	99
326.185	0.805	804.9	2back	Block1	2back/STIM_027.jpg	99
329.155	1.13	1130.1	2back	Block1	2back/STIM_027.jpg	99
332.881	1.207	1207.2	2back	Block1	2back/STIM_027.jpg	100
336.76	1.382	1381.6	2back	Block1	2back/STIM_028.jpg	99
341.62	1.481	1480.8	2back	Block1	2back/STIM_028.jpg	99
347.023	0.688	688.2	2back	Block1	2back/STIM_028.jpg	99
350.778	1.111	1110.7	2back	Block1	2back/STIM_029.jpg	99
355.029	1.051	1051.2	2back	Block1	2back/STIM_029.jpg	99
359.069	1.116	1115.5	2back	Block1	2back/STIM_029.jpg	100
362.283	0.799	799.4	2back	Block1	2back/STIM_030.jpg	99
366.477	0.791	791.4	2back	Block1	2back/STIM_030.jpg	100
371.009	0.653	652.7	2back	Block1	2back/STIM_030.jpg	99
375.317	0.818	817.7	2back	Block1	2back/STIM_031.jpg	99
378.837	1.491	1491.2	2back	Block1	2back/STIM_031.jpg	99
383.719	1.018	1017.7	2back	Block1	2back/STIM_031.jpg	100
386.782	0.912	912.0	2back	Block1	2back/STIM_032.jpg	100
390.405	1.259	1259.3	2back	Block1	2back/STIM_032.jpg	99
393.746	0.768	768.1	2back	Block1	2back/STIM_032.jpg	100
396.779	1.054	1054.3	2back	Block1	2back/STIM_033.jpg	100
401.747	1.276	1276.5	2back	Block1	2back/STIM_033.jpg	99
405.36	1.273	1272.8	2back	Block1	2back/STIM_033.jpg	99
410.504	1.569	1569.1	2back	Block1	2back/STIM_034.jpg	100
415.218	0.871	871.3	2back	Block1	2back/STIM_034.jpg	100
418.291	0.978	978.2	2back	Block1	2back/STIM_034.jpg	100
422.664	0.729	728.9	2back	Block1	2back/STIM_035.jpg	100
425.885	1.148	1147.6	2back	Block1	2back/STIM_035.jpg	99
430.117	1.261	1261.3	2back	Block1	2back/STIM_035.jpg	99
433.741	1.34	1340.4	2back	Block1	2back/STIM_036.jpg	99
438.319	1.033	1033.0	2back	Block1	2back/STIM_036.jpg	99
441.397	1.016	1016.2	2back	Block1	2back/STIM_036.jpg	100
445.491	0.825	825.0	2back	Block1	2back/STIM_037.jpg	100
448.833	1.254	1253.7	2back	Block1	2back/STIM_037.jpg	100
453.147	0.645	644.7	2back	Block1	2back/STIM_037.jpg	100
457.187	1.626	1625.7	2back	Block1	2back/STIM_038.jpg	100
462.22	0.811	811.3	2back	Block1	2back/STIM_038.jpg	100
465.808	1.035	1034.9	2back	Block1	2back/STIM_038.jpg	100
470.75	1.48	1480.3	2back	Block1	2back/STIM_039.jpg	99
475.453	0.982	981.5	2back	Block1	2back/STIM_039.jpg	100
479.105	0.733	732.9	2back	Block1	2back/STIM_039.jpg	99
482.594	0.598	598.5	0back	Block1	0back/STIM_000.jpg	100
485.37	0.533	533.4	0back	Block1	0back/STIM_000.jpg	99
489.403	0.645	645.0	0back	Block1	0back/STIM_000.jpg	99
493.857	0.873	873.4	0back	Block1	0back/STIM_001.jpg	100
496.951	0.915	915.4	0back	Block1	0back/STIM_001.jpg	100
501.272	0.686	686.5	0back	Block1	0back/STIM_001.jpg	99
504.384	0.58	580.4	0back	Block1	0back/STIM_002.jpg	100
507.332	0.625	624.6	0back	Block1	0back/STIM_002.jpg	100
511.154	0.527	527.1	0back	Block1	0back/STIM_002.jpg	100
515.163	0.683	683.4	0back	Block1	0back/STIM_003.jpg	100
517.865	0.726	726.5	0back	Block1	0back/STIM_003.jpg	99
522.171	0.673	673.3	0back	Block1	0back/STIM_003.jpg	100
526.8	0.896	896.1	0back	Block1	0back/STIM_004.jpg	100
530.474	0.701	701.1	0back	Block1	0back/STIM_004.jpg	100
533.489	0.762	762.2	0back	Block1	0back/STIM_004.jpg	100
537.815	0.657	657.2	0back	Block1	0back/STIM_005.jpg	99
542.106	0.77	770.1	0back	Block1	0back/STIM_005.jpg	100
546.837	0.527	526.8	0back	Block1	0back/STIM_005.jpg	99
551.163	0.583	583.1	0back	Block1	0back/STIM_006.jpg	99
555.208	0.559	558.7	0back	Block1	0back/STIM_006.jpg	99
558.408	0.816	815.9	0back	Block1	0back/STIM_006.jpg	100
561.263	0.867	867.1	0back	Block1	0back/STIM_007.jpg	99
565.782	0.538	538.2	0back	Block1	0back/STIM_007.jpg	99
570.012	0.698	698.1	0back	Block1	0back/STIM_007.jpg	99
574.38	0.83	829.6	0back	Block1	0back/STIM_008.jpg	100
578.278	0.708	707.5	0back	Block1	0back/STIM_008.jpg	100
582.266	0.649	649.1	0back	Block1	0back/STIM_008.jpg	100
586.28	0.482	481.9	0back	Block1	0back/STIM_009.jpg	99
588.834	0.544	544.1	0back	Block1	0back/STIM_009.jpg	99
591.905	0.793	792.9	0back	Block1	0back/STIM_009.jpg	100
594.975	0.549	548.8	0back	Block1	0back/STIM_010.jpg	100
598.185	0.857	857.1	0back	Block1	0back/STIM_010.jpg	99
602.711	0.712	711.6	0back	Block1	0back/STIM_010.jpg	100
606.703	0.894	894.2	0back	Block1	0back/STIM_011.jpg	100
611.229	0.939	939.0	0back	Block1	0back/STIM_011.jpg	100
615.917	0.539	539.3	0back	Block1	0back/STIM_011.jpg	100
620.293	0.591	590.6	0back	Block1	0back/STIM_012.jpg	100
624.093	0.726	726.4	0back	Block1	0back/STIM_012.jpg	100
627.501	0.69	690.5	0back	Block1	0back/STIM_012.jpg	99
630.78	0.538	538.1	0back	Block1	0back/STIM_013.jpg	99
633.932	0.776	775.5	0back	Block1	0back/STIM_013.jpg	100
638.296	0.657	657.2	0back	Block1	0back/STIM_013.jpg	99
642.028	0.82	819.6	0back	Block1	0back/STIM_014.jpg	100
646.18	0.784	783.7	0back	Block1	0back/STIM_014.jpg	100
649.843	0.784	784.5	0back	Block1	0back/STIM_014.jpg	99
653.052	0.572	571.6	0back	Block1	0back/STIM_015.jpg	100
655.914	0.793	793.2	0back	Block1	0back/STIM_015.jpg	100
658.96	0.782	782.5	0back	Block1	0back/STIM_015.jpg	99
663.578	0.622	621.8	0back	Block1	0back/STIM_016.jpg	100
666.482	0.695	695.2	0back	Block1	0back/STIM_016.jpg	100
671.011	0.595	594.6	0back	Block1	0back/STIM_016.jpg	100
674.504	0.535	535.0	0back	Block1	0back/STIM_017.jpg	99
677.16	0.912	912.0	0back	Block1	0back/STIM_017.jpg	100
681.199	0.632	632.1	0back	Block1	0back/STIM_017.jpg	100
684.726	0.621	621.2	0back	Block1	0back/STIM_018.jpg	100
687.885	0.892	892.2	0back	Block1	0back/STIM_018.jpg	100
692.434	0.52	520.1	0back	Block1	0back/STIM_018.jpg	100
696.413	0.506	506.3	0back	Block1	0back/STIM_019.jpg	100
699.969	0.544	543.7	0back	Block1	0back/STIM_019.jpg	100
704.271	0.513	513.2	0back	Block1	0back/STIM_019.jpg	100
707.443	0.741	741.2	2back	Block2	2back/STIM_000.jpg	99
710.566	1.327	1326.6	2back	Block2	2back/STIM_000.jpg	99
715.774	0.991	991.3	2back	Block2	2back/STIM_000.jpg	100
720.531	0.78	780.2	2back	Block2	2back/STIM_001.jpg	100
724.701	1.281	1281.4	2back	Block2	2back/STIM_001.jpg	99
729.081	0.664	663.5	2back	Block2	2back/STIM_001.jpg	100
733.014	1.071	1071.3	2back	Block2	2back/STIM_002.jpg	100
736.634	0.852	852.3	2back	Block2	2back/STIM_002.jpg	100
740.361	0.673	672.7	2back	Block2	2back/STIM_002.jpg	99
743.296	0.948	947.5	2back	Block2	2back/STIM_003.jpg	100
746.968	0.892	892.0	2back	Block2	2back/STIM_003.jpg	99
750.316	0.648	648.0	2back	Block2	2back/STIM_003.jpg	99
754.956	1.176	1176.1	2back	Block2	2back/STIM_004.jpg	100
759.436	1.026	1026.0	2back	Block2	2back/STIM_004.jpg	100
762.748	1.069	1068.8	2back	Block2	2back/STIM_004.jpg	100
766.252	0.865	865.2	2back	Block2	2back/STIM_005.jpg	100
769.177	0.871	870.8	2back	Block2	2back/STIM_005.jpg	99
772.719	1.228	1227.8	2back	Block2	2back/STIM_005.jpg	99
776.098	1.031	1030.6	2back	Block2	2back/STIM_006.jpg	100
780.683	1.045	1044.9	2back	Block2	2back/STIM_006.jpg	100
783.984	1.007	1006.6	2back	Block2	2back/STIM_006.jpg	100
787.881	0.628	628.2	2back	Block2	2back/STIM_007.jpg	100
792.38	1.177	1177.3	2back	Block2	2back/STIM_007.jpg	100
797.322	0.556	555.5	2back	Block2	2back/STIM_007.jpg	99
800.67	1.384	1383.9	2back	Block2	2back/STIM_008.jpg	100
804.895	0.618	617.7	2back	Block2	2back/STIM_008.jpg	100
807.959	0.586	585.7	2back	Block2	2back/STIM_008.jpg	99
811.941	0.683	683.0	2back	Block2	2back/STIM_009.jpg	100
815.161	0.646	645.5	2back	Block2	2back/STIM_009.jpg	100
818.998	0.904	904.0	2back	Block2	2back/STIM_009.jpg	100
822.791	0.758	758.5	2back	Block2	2back/STIM_010.jpg	99
825.782	0.771	771.0	2back	Block2	2back/STIM_010.jpg	99
828.705	0.543	542.9	2back	Block2	2back/STIM_010.jpg	100
832.935	1.318	1318.0	2back	Block2	2back/STIM_011.jpg	100
837.005	0.702	701.8	2back	Block2	2back/STIM_011.jpg	100
840.437	0.932	932.1	2back	Block2	2back/STIM_011.jpg	99
845.209	0.812	812.5	2back	Block2	2back/STIM_012.jpg	100
848.671	0.579	579.1	2back	Block2	2back/STIM_012.jpg	99
852.426	0.567	567.3	2back	Block2	2back/STIM_012.jpg	99
856.654	1.076	1075.5	2back	Block2	2back/STIM_013.jpg	99
859.882	0.594	593.5	2back	Block2	2back/STIM_013.jpg	100
863.517	0.707	706.6	2back	Block2	2back/STIM_013.jpg	99
866.479	0.642	642.5	2back	Block2	2back/STIM_014.jpg	100
869.555	1.126	1126.0	2back	Block2	2back/STIM_014.jpg	99
872.769	0.577	576.7	2back	Block2	2back/STIM_014.jpg	99
876.734	1.316	1316.5	2back	Block2	2back/STIM_015.jpg	100
881.559	0.77	769.7	2back	Block2	2back/STIM_015.jpg	99
884.764	1.175	1175.0	2back	Block2	2back/STIM_015.jpg	100
889.333	1.286	1286.4	2back	Block2	2back/STIM_016.jpg	99
894.078	0.876	875.5	2back	Block2	2back/STIM_016.jpg	99
898.88	1.098	1097.6	2back	Block2	2back/STIM_016.jpg	99
903.866	1.074	1074.3	2back	Block2	2back/STIM_017.jpg	100
907.339	0.985	985.4	2back	Block2	2back/STIM_017.jpg	100
910.88	0.961	960.6	2back	Block2	2back/STIM_017.jpg	99
915.511	1.184	1184.2	2back	Block2	2back/STIM_018.jpg	99
919.088	1.318	1318.0	2back	Block2	2back/STIM_018.jpg	100
923.749	1.206	1206.1	2back	Block2	2back/STIM_018.jpg	100
928.307	1.379	1378.9	2back	Block2	2back/STIM_019.jpg	99
931.945	0.718	717.5	2back	Block2	2back/STIM_019.jpg	100
936.422	1.24	1239.6	2back	Block2	2back/STIM_019.jpg	100
941.656	0.622	621.7	2back	Block2	2back/STIM_020.jpg	99
944.832	0.696	696.1	2back	Block2	2back/STIM_020.jpg	100
948.373	0.721	720.6	2back	Block2	2back/STIM_020.jpg	99
952.793	0.686	685.5	2back	Block2	2back/STIM_021.jpg	99
955.971	0.695	695.2	2back	Block2	2back/STIM_021.jpg	99
960.491	1.164	1163.9	2back	Block2	2back/STIM_021.jpg	100
964.401	0.654	654.3	2back	Block2	2back/STIM_022.jpg	100
968.851	1.196	1196.2	2back	Block2	2back/STIM_022.jpg	100
972.122	1.134	1134.3	2back	Block2	2back/STIM_022.jpg	100
975.31	1.119	1118.9	2back	Block2	2back/STIM_023.jpg	100
980.227	0.885	884.9	2back	Block2	2back/STIM_023.jpg	100
984.03	0.863	862.8	2back	Block2	2back/STIM_023.jpg	100
988.854	1.096	1095.7	2back	Block2	2back/STIM_024.jpg	99
993.846	0.783	782.6	2back	Block2	2back/STIM_024.jpg	99
998.307	0.679	678.8	2back	Block2	2back/STIM_024.jpg	100
1002.628	1.313	1313.0	2back	Block2	2back/STIM_025.jpg	99
1006.666	1.23	1230.4	2back	Block2	2back/STIM_025.jpg	99
1011.302	0.615	615.3	2back	Block2	2back/STIM_025.jpg	100
1014.788	0.633	633.0	2back	Block2	2back/STIM_026.jpg	100
1018.473	1.169	1168.9	2back	Block2	2back/STIM_026.jpg	99
1021.647	1.216	1215.7	2back	Block2	2back/STIM_026.jpg	100
1025.937	1.041	1040.9	2back	Block2	2back/STIM_027.jpg	99
1029.717	0.765	764.6	2back	Block2	2back/STIM_027.jpg	99
1033.657	1.197	1197.3	2back	Block2	2back/STIM_027.jpg	99
1038.479	1.195	1194.7	2back	Block2	2back/STIM_028.jpg	99
1042.504	1.022	1021.5	2back	Block2	2back/STIM_028.jpg	100
1045.58	1.242	1242.0	2back	Block2	2back/STIM_028.jpg	100
1050.752	0.648	647.9	2back	Block2	2back/STIM_029.jpg	99
1053.843	0.858	857.7	2back	Block2	2back/STIM_029.jpg	99
1058.671	0.851	850.6	2back	Block2	2back/STIM_029.jpg	99
1063.51	1.299	1299.2	2back	Block2	2back/STIM_030.jpg	99
1067.139	0.818	818.4	2back	Block2	2back/STIM_030.jpg	100
1071.89	1.181	1181.4	2back	Block2	2back/STIM_030.jpg	100
1076.966	0.673	673.4	2back	Block2	2back/STIM_031.jpg	99
1081.009	0.756	756.1	2back	Block2	2back/STIM_031.jpg	100
1084.953	0.826	826.0	2back	Block2	2back/STIM_031.jpg	100
1089.471	1.16	1159.9	2back	Block2	2back/STIM_032.jpg	99
1092.987	1.286	1286.5	2back	Block2	2back/STIM_032.jpg	100
1096.917	0.684	683.7	2back	Block2	2back/STIM_032.jpg	99
1100.757	0.87	870.5	2back	Block2	2back/STIM_033.jpg	100
1103.869	0.71	710.5	2back	Block2	2back/STIM_033.jpg	99
1108.535	0.739	739.4	2back	Block2	2back/STIM_033.jpg	100
1113.221	0.885	884.6	2back	Block2	2back/STIM_034.jpg	100
1116.741	0.84	840.4	2back	Block2	2back/STIM_034.jpg	99
1119.836	0.55	550.0	2back	Block2	2back/STIM_034.jpg	100
1122.632	1.308	1308.5	2back	Block2	2back/STIM_035.jpg	99
1127.329	0.573	572.9	2back	Block2	2back/STIM_035.jpg	100
1131.258	0.574	574.0	2back	Block2	2back/STIM_035.jpg	100
1135.135	0.638	638.1	2back	Block2	2back/STIM_036.jpg	99
1139.337	1.026	1025.6	2back	Block2	2back/STIM_036.jpg	99
1144.001	1.07	1069.7	2back	Block2	2back/STIM_036.jpg	100
1147.437	1.126	1125.7	2back	Block2	2back/STIM_037.jpg	99
1152.24	0.627	627.2	2back	Block2	2back/STIM_037.jpg	100
1155.539	1.237	1237.2	2back	Block2	2back/STIM_037.jpg	100
1160.444	1.058	1057.5	2back	Block2	2back/STIM_038.jpg	99
1164.744	0.789	788.9	2back	Block2	2back/STIM_038.jpg	99
1168.995	1.076	1075.9	2back	Block2	2back/STIM_038.jpg	100
1173.65	0.697	696.7	2back	Block2	2back/STIM_039.jpg	100
1177.3	1.168	1167.5	2back	Block2	2back/STIM_039.jpg	100
1180.964	0.653	652.6	2back	Block2	2back/STIM_039.jpg	100
1184.955	0.542	542.3	0back	Block2	0back/STIM_000.jpg	99
1188.617	0.639	639.0	0back	Block2	0back/STIM_000.jpg	100
1192.952	0.595	595.3	0back	Block2	0back/STIM_000.jpg	100
1196.125	0.768	767.9	0back	Block2	0back/STIM_001.jpg	100
1198.897	0.523	522.9	0back	Block2	0back/STIM_001.jpg	99
1201.733	0.866	865.6	0back	Block2	0back/STIM_001.jpg	100
1205.594	0.762	762.3	0back	Block2	0back/STIM_002.jpg	100
1208.558	0.923	922.8	0back	Block2	0back/STIM_002.jpg	99
1212.844	0.579	579.0	0back	Block2	0back/STIM_002.jpg	100
1216.593	0.585	585.3	0back	Block2	0back/STIM_003.jpg	100
1220.393	0.876	876.1	0back	Block2	0back/STIM_003.jpg	100
1223.459	0.507	506.9	0back	Block2	0back/STIM_003.jpg	99
1227.03	0.702	702.2	0back	Block2	0back/STIM_004.jpg	100
1229.853	0.502	502.1	0back	Block2	0back/STIM_004.jpg	99
1232.761	0.482	481.8	0back	Block2	0back/STIM_004.jpg	100
1235.986	0.535	534.6	0back	Block2	0back/STIM_005.jpg	100
1239.724	0.877	876.8	0back	Block2	0back/STIM_005.jpg	100
1243.506	0.802	802.4	0back	Block2	0back/STIM_005.jpg	99
1247.004	0.784	783.8	0back	Block2	0back/STIM_006.jpg	99
1250.332	0.863	863.0	0back	Block2	0back/STIM_006.jpg	100
1253.311	0.907	907.4	0back	Block2	0back/STIM_006.jpg	100
1257.373	0.685	685.3	0back	Block2	0back/STIM_007.jpg	99
1260.735	0.862	861.6	0back	Block2	0back/STIM_007.jpg	100
1264.31	0.827	827.4	0back	Block2	0back/STIM_007.jpg	99
1268.045	0.861	860.9	0back	Block2	0back/STIM_008.jpg	99
1271.723	0.526	525.5	0back	Block2	0back/STIM_008.jpg	100
1274.663	0.924	924.3	0back	Block2	0back/STIM_008.jpg	100
1278.32	0.757	756.8	0back	Block2	0back/STIM_009.jpg	99
1281.786	0.718	717.8	0back	Block2	0back/STIM_009.jpg	100
1286.296	0.888	888.5	0back	Block2	0back/STIM_009.jpg	100
1290.819	0.763	763.0	0back	Block2	0back/STIM_010.jpg	99
1293.936	0.81	810.4	0back	Block2	0back/STIM_010.jpg	99
1297.131	0.89	889.5	0back	Block2	0back/STIM_010.jpg	100
1300.563	0.862	862.1	0back	Block2	0back/STIM_011.jpg	99
1303.999	0.625	625.2	0back	Block2	0back/STIM_011.jpg	99
1308.052	0.651	651.4	0back	Block2	0back/STIM_011.jpg	100
1311.353	0.698	698.1	0back	Block2	0back/STIM_012.jpg	100
1314.719	0.781	781.1	0back	Block2	0back/STIM_012.jpg	100
1318.102	0.673	672.9	0back	Block2	0back/STIM_012.jpg	100
1321.401	0.866	866.2	0back	Block2	0back/STIM_013.jpg	99
1324.83	0.528	527.7	0back	Block2	0back/STIM_013.jpg	100
1327.715	0.71	709.6	0back	Block2	0back/STIM_013.jpg	100
1331.267	0.588	588.1	0back	Block2	0back/STIM_014.jpg	100
1334.568	0.749	749.4	0back	Block2	0back/STIM_014.jpg	100
1338.935	0.791	791.1	0back	Block2	0back/STIM_014.jpg	99
1341.937	0.63	629.7	0back	Block2	0back/STIM_015.jpg	99
1346.501	0.94	939.5	0back	Block2	0back/STIM_015.jpg	99
1350.243	0.744	744.0	0back	Block2	0back/STIM_015.jpg	99
1353.386	0.807	807.0	0back	Block2	0back/STIM_016.jpg	99
1356.341	0.851	850.9	0back	Block2	0back/STIM_016.jpg	100
1360.48	0.927	927.0	0back	Block2	0back/STIM_016.jpg	100
1363.685	0.481	480.7	0back	Block2	0back/STIM_017.jpg	99
1367.112	0.828	827.6	0back	Block2	0back/STIM_017.jpg	99
1369.962	0.61	610.1	0back	Block2	0back/STIM_017.jpg	100
1374.438	0.585	584.6	0back	Block2	0back/STIM_018.jpg	99
1377.408	0.764	763.8	0back	Block2	0back/STIM_018.jpg	100
1382.028	0.939	939.1	0back	Block2	0back/STIM_018.jpg	100
1386.149	0.575	575.4	0back	Block2	0back/STIM_019.jpg	100
1389.245	0.943	942.8	0back	Block2	0back/STIM_019.jpg	99
1393.321	0.792	792.2	0back	Block2	0back/STIM_019.jpg	99
1397.311	0.562	562.4	2back	Block3	2back/STIM_000.jpg	99
1401.526	0.82	820.3	2back	Block3	2back/STIM_000.jpg	100
1404.7	0.587	587.0	2back	Block3	2back/STIM_000.jpg	100
1407.888	0.939	939.0	2back	Block3	2back/STIM_001.jpg	100
1410.981	1.024	1024.0	2back	Block3	2back/STIM_001.jpg	100
1415.478	1.161	1160.9	2back	Block3	2back/STIM_001.jpg	100
1418.784	0.982	982.4	2back	Block3	2back/STIM_002.jpg	99
1422.612	1.046	1046.4	2back	Block3	2back/STIM_002.jpg	99
1425.73	0.578	577.8	2back	Block3	2back/STIM_002.jpg	100
1429.646	0.862	861.6	2back	Block3	2back/STIM_003.jpg	99
1433.648	1.072	1072.1	2back	Block3	2back/STIM_003.jpg	100
1438.424	1.015	1015.4	2back	Block3	2back/STIM_003.jpg	99
1441.666	0.626	625.8	2back	Block3	2back/STIM_004.jpg	100
1446.034	0.921	920.9	2back	Block3	2back/STIM_004.jpg	100
1449.844	0.557	557.1	2back	Block3	2back/STIM_004.jpg	99
1453.083	1.111	1110.7	2back	Block3	2back/STIM_005.jpg	99
1456.391	0.604	604.0	2back	Block3	2back/STIM_005.jpg	100
1459.908	0.599	599.2	2back	Block3	2back/STIM_005.jpg	100
1463.175	0.837	836.7	2back	Block3	2back/STIM_006.jpg	100
1466.666	1.083	1082.6	2back	Block3	2back/STIM_006.jpg	99
1470.851	1.148	1148.2	2back	Block3	2back/STIM_006.jpg	100
1475.817	0.831	830.7	2back	Block3	2back/STIM_007.jpg	99
1479.327	0.705	705.2	2back	Block3	2back/STIM_007.jpg	100
1482.741	0.854	854.4	2back	Block3	2back/STIM_007.jpg	99
1486.708	0.754	754.4	2back	Block3	2back/STIM_008.jpg	100
1490.271	0.769	769.1	2back	Block3	2back/STIM_008.jpg	99
1493.972	0.877	876.9	2back	Block3	2back/STIM_008.jpg	99
1497.789	0.774	773.5	2back	Block3	2back/STIM_009.jpg	100
1501.299	0.511	510.9	2back	Block3	2back/STIM_009.jpg	99
1504.595	0.705	705.4	2back	Block3	2back/STIM_009.jpg	99
1508.347	0.613	613.2	2back	Block3	2back/STIM_010.jpg	100
1511.619	0.808	807.8	2back	Block3	2back/STIM_010.jpg	100
1515.606	0.532	532.1	2back	Block3	2back/STIM_010.jpg	99
1518.98	1.113	1113.4	2back	Block3	2back/STIM_011.jpg	100
1523.696	0.71	710.3	2back	Block3	2back/STIM_011.jpg	100
1528.235	0.541	541.0	2back	Block3	2back/STIM_011.jpg	99
1530.834	0.767	767.1	2back	Block3	2back/STIM_012.jpg	100
1535.487	0.715	715.2	2back	Block3	2back/STIM_012.jpg	99
1538.686	1.143	1143.1	2back	Block3	2back/STIM_012.jpg	100
1542.389	0.661	660.8	2back	Block3	2back/STIM_013.jpg	100
1545.367	0.978	977.5	2back	Block3	2back/STIM_013.jpg	100
1549.795	0.947	946.9	2back	Block3	2back/STIM_013.jpg	99
1553.876	1.131	1130.9	2back	Block3	2back/STIM_014.jpg	100
1558.075	0.578	578.0	2back	Block3	2back/STIM_014.jpg	100
1561.861	0.522	521.5	2back	Block3	2back/STIM_014.jpg	100
1565.226	0.581	581.0	2back	Block3	2back/STIM_015.jpg	100
1568.848	0.583	582.6	2back	Block3	2back/STIM_015.jpg	100
1573.253	0.568	568.4	2back	Block3	2back/STIM_015.jpg	100
1577.602	0.776	776.2	2back	Block3	2back/STIM_016.jpg	100
1581.327	0.521	521.4	2back	Block3	2back/STIM_016.jpg	100
1584.417	0.93	929.5	2back	Block3	2back/STIM_016.jpg	99
1588.494	0.544	544.0	2back	Block3	2back/STIM_017.jpg	100
1591.076	0.773	772.6	2back	Block3	2back/STIM_017.jpg	100
1594.318	0.747	746.8	2back	Block3	2back/STIM_017.jpg	99
1598.305	1.027	1027.0	2back	Block3	2back/STIM_018.jpg	99
1602.051	0.773	773.0	2back	Block3	2back/STIM_018.jpg	100
1605.396	0.641	641.4	2back	Block3	2back/STIM_018.jpg	99
1609.561	0.788	788.2	2back	Block3	2back/STIM_019.jpg	99
1614.314	0.536	535.9	2back	Block3	2back/STIM_019.jpg	100
1617.456	1.03	1030.0	2back	Block3	2back/STIM_019.jpg	99
1622.105	0.981	981.4	2back	Block3	2back/STIM_020.jpg	99
1626.412	0.87	869.8	2back	Block3	2back/STIM_020.jpg	99
1630.381	0.908	907.9	2back	Block3	2back/STIM_020.jpg	100
1633.684	0.84	839.8	2back	Block3	2back/STIM_021.jpg	99
1638.021	0.729	729.0	2back	Block3	2back/STIM_021.jpg	99
1641.416	0.715	714.6	2back	Block3	2back/STIM_021.jpg	99
1644.428	1.137	1136.7	2back	Block3	2back/STIM_022.jpg	99
1648.696	0.737	736.9	2back	Block3	2back/STIM_022.jpg	100
1651.459	0.554	554.5	2back	Block3	2back/STIM_022.jpg	99
1654.046	0.869	869.3	2back	Block3	2back/STIM_023.jpg	99
1658.16	1.16	1160.2	2back	Block3	2back/STIM_023.jpg	99
1662.04	0.553	552.7	2back	Block3	2back/STIM_023.jpg	99
1665.021	0.944	943.7	2back	Block3	2back/STIM_024.jpg	100
1669.021	0.538	538.1	2back	Block3	2back/STIM_024.jpg	100
1671.863	0.998	998.5	2back	Block3	2back/STIM_024.jpg	99
1676.048	1.134	1134.4	2back	Block3	2back/STIM_025.jpg	99
1680.402	0.734	734.1	2back	Block3	2back/STIM_025.jpg	99
1684.426	0.898	897.8	2back	Block3	2back/STIM_025.jpg	99
1689.089	1.153	1153.2	2back	Block3	2back/STIM_026.jpg	99
1693.106	0.842	842.5	2back	Block3	2back/STIM_026.jpg	100
1697.888	0.967	966.8	2back	Block3	2back/STIM_026.jpg	99
1702.715	0.937	937.1	2back	Block3	2back/STIM_027.jpg	100
1706.361	0.774	774.5	2back	Block3	2back/STIM_027.jpg	99
1709.92	0.871	871.4	2back	Block3	2back/STIM_027.jpg	100
1714.229	0.581	581.3	2back	Block3	2back/STIM_028.jpg	100
1718.127	0.897	897.1	2back	Block3	2back/STIM_028.jpg	100
1722.583	0.893	893.0	2back	Block3	2back/STIM_028.jpg	100
1727.051	0.863	862.6	2back	Block3	2back/STIM_029.jpg	100
1730.297	1.002	1002.5	2back	Block3	2back/STIM_029.jpg	99
1734.947	0.619	619.4	2back	Block3	2back/STIM_029.jpg	99
1738.636	0.734	734.0	2back	Block3	2back/STIM_030.jpg	99
1743.326	0.729	728.7	2back	Block3	2back/STIM_030.jpg	99
1747.765	0.936	936.1	2back	Block3	2back/STIM_030.jpg	100
1752.412	0.831	831.0	2back	Block3	2back/STIM_031.jpg	99
1755.472	1.125	1124.8	2back	Block3	2back/STIM_031.jpg	100
1759.89	0.862	861.5	2back	Block3	2back/STIM_031.jpg	100
1763.577	1.109	1108.7	2back	Block3	2back/STIM_032.jpg	100
1767.908	0.524	524.0	2back	Block3	2back/STIM_032.jpg	100
1772.105	0.762	762.4	2back	Block3	2back/STIM_032.jpg	99
1774.952	0.698	697.9	2back	Block3	2back/STIM_033.jpg	99
1778.606	0.535	534.9	2back	Block3	2back/STIM_033.jpg	99
1781.626	0.519	518.9	2back	Block3	2back/STIM_033.jpg	99
1784.984	0.625	625.0	2back	Block3	2back/STIM_034.jpg	99
1788.538	1.048	1048.2	2back	Block3	2back/STIM_034.jpg	100
1791.867	0.762	761.9	2back	Block3	2back/STIM_034.jpg	99
1795.201	1.136	1136.0	2back	Block3	2back/STIM_035.jpg	99
1800.146	0.878	877.5	2back	Block3	2back/STIM_035.jpg	99
1804.526	0.978	978.5	2back	Block3	2back/STIM_035.jpg	99
1808.132	0.84	840.2	2back	Block3	2back/STIM_036.jpg	100
1811.126	0.618	617.6	2back	Block3	2back/STIM_036.jpg	100
1815.196	0.809	809.4	2back	Block3	2back/STIM_036.jpg	100
1819.669	0.994	994.2	2back	Block3	2back/STIM_037.jpg	100
1824.084	0.631	631.0	2back	Block3	2back/STIM_037.jpg	99
1827.208	0.589	589.0	2back	Block3	2back/STIM_037.jpg	99
1831.748	0.868	868.1	2back	Block3	2back/STIM_038.jpg	99
1836.039	1.001	1001.1	2back	Block3	2back/STIM_038.jpg	99
1840.391	1.126	1126.1	2back	Block3	2back/STIM_038.jpg	99
1844.334	1.106	1106.4	2back	Block3	2back/STIM_039.jpg	100
1847.599	0.649	649.1	2back	Block3	2back/STIM_039.jpg	100
1851.575	0.818	817.9	2back	Block3	2back/STIM_039.jpg	99
1855.215	0.691	690.6	0back	Block3	0back/STIM_000.jpg	100
1859.036	0.701	700.8	0back	Block3	0back/STIM_000.jpg	99
1863.416	0.833	833.1	0back	Block3	0back/STIM_000.jpg	100
1867.629	0.507	507.3	0back	Block3	0back/STIM_001.jpg	99
1871.128	0.781	780.7	0back	Block3	0back/STIM_001.jpg	99
1875.715	0.569	569.2	0back	Block3	0back/STIM_001.jpg	100
1879.848	0.698	697.5	0back	Block3	0back/STIM_002.jpg	99
1882.754	0.875	874.7	0back	Block3	0back/STIM_002.jpg	99
1887.32	0.892	891.6	0back	Block3	0back/STIM_002.jpg	99
1891.117	0.937	937.2	0back	Block3	0back/STIM_003.jpg	99
1894.256	0.739	739.1	0back	Block3	0back/STIM_003.jpg	99
1898.096	0.608	608.5	0back	Block3	0back/STIM_003.jpg	99
1902.334	0.849	849.3	0back	Block3	0back/STIM_004.jpg	99
1906.358	0.676	676.3	0back	Block3	0back/STIM_004.jpg	100
1910.14	0.583	583.2	0back	Block3	0back/STIM_004.jpg	99
1913.956	0.646	645.9	0back	Block3	0back/STIM_005.jpg	99
1917.104	0.901	901.2	0back	Block3	0back/STIM_005.jpg	99
1921.038	0.88	879.8	0back	Block3	0back/STIM_005.jpg	99
1924.266	0.941	940.6	0back	Block3	0back/STIM_006.jpg	100
1928.548	0.616	616.4	0back	Block3	0back/STIM_006.jpg	99
1932.795	0.846	846.3	0back	Block3	0back/STIM_006.jpg	99
1937.591	0.803	803.4	0back	Block3	0back/STIM_007.jpg	99
1941.095	0.845	844.9	0back	Block3	0back/STIM_007.jpg	99
1945.655	0.49	490.4	0back	Block3	0back/STIM_007.jpg	100
1948.367	0.925	924.7	0back	Block3	0back/STIM_008.jpg	100
1953.156	0.758	758.4	0back	Block3	0back/STIM_008.jpg	100
1957.064	0.734	734.2	0back	Block3	0back/STIM_008.jpg	99
1961.762	0.593	593.4	0back	Block3	0back/STIM_009.jpg	100
1965.376	0.943	942.9	0back	Block3	0back/STIM_009.jpg	99
1969.29	0.892	891.6	0back	Block3	0back/STIM_009.jpg	99
1972.939	0.633	633.1	0back	Block3	0back/STIM_010.jpg	99
1975.809	0.562	561.7	0back	Block3	0back/STIM_010.jpg	100
1980.106	0.889	889.4	0back	Block3	0back/STIM_010.jpg	99
1984.445	0.877	876.8	0back	Block3	0back/STIM_011.jpg	99
1989.104	0.658	657.8	0back	Block3	0back/STIM_011.jpg	100
1992.142	0.488	487.8	0back	Block3	0back/STIM_011.jpg	99
1996.349	0.881	881.0	0back	Block3	0back/STIM_012.jpg	99
1999.724	0.524	523.5	0back	Block3	0back/STIM_012.jpg	100
2002.622	0.61	609.8	0back	Block3	0back/STIM_012.jpg	100
2006.415	0.834	833.7	0back	Block3	0back/STIM_013.jpg	100
2010.345	0.868	868.0	0back	Block3	0back/STIM_013.jpg	99
2013.957	0.782	781.8	0back	Block3	0back/STIM_013.jpg	100
2017.442	0.518	518.2	0back	Block3	0back/STIM_014.jpg	100
2020.528	0.8	800.3	0back	Block3	0back/STIM_014.jpg	99
2025.098	0.515	515.4	0back	Block3	0back/STIM_014.jpg	99
2029.087	0.852	852.5	0back	Block3	0back/STIM_015.jpg	100
2033.846	0.493	492.9	0back	Block3	0back/STIM_015.jpg	99
2036.413	0.948	948.0	0back	Block3	0back/STIM_015.jpg	99
2041.135	0.921	921.3	0back	Block3	0back/STIM_016.jpg	99
2045.487	0.552	551.9	0back	Block3	0back/STIM_016.jpg	99
2048.054	0.826	826.5	0back	Block3	0back/STIM_016.jpg	100
2051.29	0.513	513.4	0back	Block3	0back/STIM_017.jpg	100
2054.864	0.705	705.3	0back	Block3	0back/STIM_017.jpg	100
2058.959	0.566	565.5	0back	Block3	0back/STIM_017.jpg	99
2062.657	0.924	924.4	0back	Block3	0back/STIM_018.jpg	99
2067.036	0.94	939.5	0back	Block3	0back/STIM_018.jpg	99
2070.958	0.494	494.5	0back	Block3	0back/STIM_018.jpg	100
2074.66	0.861	861.2	0back	Block3	0back/STIM_019.jpg	100
2077.676	0.809	809.4	0back	Block3	0back/STIM_019.jpg	99
2082.175	0.584	583.5	0back	Block3	0back/STIM_019.jpg	100
2086.758	0.78	780.4	2back	Block4	2back/STIM_000.jpg	100
2090.844	0.515	514.8	2back	Block4	2back/STIM_000.jpg	100
2093.981	0.613	613.1	2back	Block4	2back/STIM_000.jpg	99
2097.153	0.535	535.4	2back	Block4	2back/STIM_001.jpg	99
2100.828	0.836	835.6	2back	Block4	2back/STIM_001.jpg	99
2104.024	0.97	969.6	2back	Block4	2back/STIM_001.jpg	100
2107.853	0.943	942.7	2back	Block4	2back/STIM_002.jpg	100
2112.076	0.741	741.2	2back	Block4	2back/STIM_002.jpg	99
2116.623	0.869	869.0	2back	Block4	2back/STIM_002.jpg	100
2120.223	0.502	502.0	2back	Block4	2back/STIM_003.jpg	100
2124.6	0.752	751.6	2back	Block4	2back/STIM_003.jpg	99
2127.432	0.985	984.8	2back	Block4	2back/STIM_003.jpg	99
2131.121	0.97	969.9	2back	Block4	2back/STIM_004.jpg	99
2135.93	0.536	536.3	2back	Block4	2back/STIM_004.jpg	100
2139.933	0.73	730.1	2back	Block4	2back/STIM_004.jpg	99
2143.678	0.798	798.1	2back	Block4	2back/STIM_005.jpg	99
2146.646	0.685	684.6	2back	Block4	2back/STIM_005.jpg	99
2150.37	0.953	952.6	2back	Block4	2back/STIM_005.jpg	100
2155.072	1.13	1129.8	2back	Block4	2back/STIM_006.jpg	100
2159.457	0.746	746.4	2back	Block4	2back/STIM_006.jpg	100
2163.006	1.147	1147.3	2back	Block4	2back/STIM_006.jpg	99
2166.317	1.12	1120.4	2back	Block4	2back/STIM_007.jpg	100
2171.156	0.86	860.2	2back	Block4	2back/STIM_007.jpg	100
2175.599	0.881	880.8	2back	Block4	2back/STIM_007.jpg	99
2179.799	0.658	658.5	2back	Block4	2back/STIM_008.jpg	100
2183.171	0.639	638.6	2back	Block4	2back/STIM_008.jpg	99
2186.484	0.873	873.4	2back	Block4	2back/STIM_008.jpg	99
2189.839	0.55	549.7	2back	Block4	2back/STIM_009.jpg	100
2193.068	0.7	700.3	2back	Block4	2back/STIM_009.jpg	100
2197.132	0.762	762.3	2back	Block4	2back/STIM_009.jpg	100
2201.262	0.92	920.5	2back	Block4	2back/STIM_010.jpg	100
2206.172	0.774	774.2	2back	Block4	2back/STIM_010.jpg	100
2210.403	0.829	828.8	2back	Block4	2back/STIM_010.jpg	99
2215.193	0.744	744.3	2back	Block4	2back/STIM_011.jpg	99
2218.795	0.622	621.5	2back	Block4	2back/STIM_011.jpg	100
2223.394	0.812	811.6	2back	Block4	2back/STIM_011.jpg	100
2226.769	0.846	846.2	2back	Block4	2back/STIM_012.jpg	100
2230.416	0.725	724.8	2back	Block4	2back/STIM_012.jpg	99
2235.133	0.869	868.9	2back	Block4	2back/STIM_012.jpg	100
2239.137	0.968	967.5	2back	Block4	2back/STIM_013.jpg	100
2243.335	1.045	1044.6	2back	Block4	2back/STIM_013.jpg	99
2248.073	0.832	831.7	2back	Block4	2back/STIM_013.jpg	100
2252.622	0.83	830.4	2back	Block4	2back/STIM_014.jpg	100
2257.258	1.114	1114.0	2back	Block4	2back/STIM_014.jpg	100
2260.976	1.078	1078.1	2back	Block4	2back/STIM_014.jpg	99
2264.87	0.699	699.3	2back	Block4	2back/STIM_015.jpg	100
2268.429	0.71	710.0	2back	Block4	2back/STIM_015.jpg	99
2271.567	1.09	1090.5	2back	Block4	2back/STIM_015.jpg	99
2274.837	1.121	1121.3	2back	Block4	2back/STIM_016.jpg	100
2279.773	0.875	874.9	2back	Block4	2back/STIM_016.jpg	99
2283.386	0.805	805.2	2back	Block4	2back/STIM_016.jpg	100
2287.887	0.81	810.5	2back	Block4	2back/STIM_017.jpg	99
2292.683	0.889	888.9	2back	Block4	2back/STIM_017.jpg	99
2296.937	1.095	1095.2	2back	Block4	2back/STIM_017.jpg	99
2301.066	1.144	1143.5	2back	Block4	2back/STIM_018.jpg	99
2304.229	1.036	1036.1	2back	Block4	2back/STIM_018.jpg	100
2307.587	1.112	1111.8	2back	Block4	2back/STIM_018.jpg	99
2311.448	1.069	1068.7	2back	Block4	2back/STIM_019.jpg	99
2316.068	0.586	586.0	2back	Block4	2back/STIM_019.jpg	100
2320.652	0.719	718.8	2back	Block4	2back/STIM_019.jpg	99
2325.176	0.978	978.0	2back	Block4	2back/STIM_020.jpg	100
2328.407	0.618	617.5	2back	Block4	2back/STIM_020.jpg	99
2332.099	1.11	1109.9	2back	Block4	2back/STIM_020.jpg	100
2336.878	0.869	869.2	2back	Block4	2back/STIM_021.jpg	100
2340.558	0.742	742.2	2back	Block4	2back/STIM_021.jpg	100
2344.9	0.608	608.2	2back	Block4	2back/STIM_021.jpg	100
2347.734	0.79	789.8	2back	Block4	2back/STIM_022.jpg	99
2351.492	0.692	692.0	2back	Block4	2back/STIM_022.jpg	100
2355.959	0.602	602.1	2back	Block4	2back/STIM_022.jpg	99
2359.927	1.036	1036.5	2back	Block4	2back/STIM_023.jpg	99
2363.32	0.94	939.7	2back	Block4	2back/STIM_023.jpg	100
2366.746	0.647	647.4	2back	Block4	2back/STIM_023.jpg	99
2369.65	0.734	734.0	2back	Block4	2back/STIM_024.jpg	100
2373.955	0.862	861.9	2back	Block4	2back/STIM_024.jpg	99
2377.346	1.064	1064.4	2back	Block4	2back/STIM_024.jpg	100
2382.294	1.153	1152.7	2back	Block4	2back/STIM_025.jpg	99
2385.513	0.52	520.5	2back	Block4	2back/STIM_025.jpg	99
2388.962	0.661	660.7	2back	Block4	2back/STIM_025.jpg	99
2392.206	0.716	716.3	2back	Block4	2back/STIM_026.jpg	100
2395.963	0.561	561.2	2back	Block4	2back/STIM_026.jpg	100
2399.823	1.028	1027.9	2back	Block4	2back/STIM_026.jpg	99
2403.8	1.011	1010.8	2back	Block4	2back/STIM_027.jpg	100
2407.486	0.594	593.5	2back	Block4	2back/STIM_027.jpg	99
2410.695	1.072	1072.0	2back	Block4	2back/STIM_027.jpg	99
2415.048	0.664	663.6	2back	Block4	2back/STIM_028.jpg	99
2419.527	0.882	882.0	2back	Block4	2back/STIM_028.jpg	99
2423.269	1.002	1001.6	2back	Block4	2back/STIM_028.jpg	100
2427.915	0.556	556.5	2back	Block4	2back/STIM_029.jpg	100
2431.171	0.54	540.4	2back	Block4	2back/STIM_029.jpg	99
2433.932	0.76	759.6	2back	Block4	2back/STIM_029.jpg	100
2436.761	0.917	916.8	2back	Block4	2back/STIM_030.jpg	100
2439.874	1.008	1008.0	2back	Block4	2back/STIM_030.jpg	99
2444.014	0.66	660.3	2back	Block4	2back/STIM_030.jpg	99
2448.628	0.661	660.9	2back	Block4	2back/STIM_031.jpg	100
2452.822	0.539	539.0	2back	Block4	2back/STIM_031.jpg	100
2455.528	0.986	986.1	2back	Block4	2back/STIM_031.jpg	100
2458.577	1.005	1005.1	2back	Block4	2back/STIM_032.jpg	100
2461.925	0.745	745.2	2back	Block4	2back/STIM_032.jpg	100
2465.748	0.581	581.4	2back	Block4	2back/STIM_032.jpg	100
2468.834	0.835	835.1	2back	Block4	2back/STIM_033.jpg	100
2471.733	0.886	886.3	2back	Block4	2back/STIM_033.jpg	99
2474.954	0.501	501.4	2back	Block4	2back/STIM_033.jpg	99
2478.326	0.894	894.2	2back	Block4	2back/STIM_034.jpg	99
2481.298	1.059	1059.3	2back	Block4	2back/STIM_034.jpg	100
2485.354	0.942	941.5	2back	Block4	2back/STIM_034.jpg	99
2489.315	1.107	1106.7	2back	Block4	2back/STIM_035.jpg	100
2492.775	0.674	673.5	2back	Block4	2back/STIM_035.jpg	100
2495.809	0.576	576.2	2back	Block4	2back/STIM_035.jpg	99
2498.99	1.068	1067.5	2back	Block4	2back/STIM_036.jpg	100
2503.5	1.034	1033.5	2back	Block4	2back/STIM_036.jpg	100
2506.871	0.812	812.2	2back	Block4	2back/STIM_036.jpg	100
2509.899	0.973	972.7	2back	Block4	2back/STIM_037.jpg	100
2513.695	0.564	564.4	2back	Block4	2back/STIM_037.jpg	99
2517.444	1.125	1124.8	2back	Block4	2back/STIM_037.jpg	99
2520.724	1.07	1069.6	2back	Block4	2back/STIM_038.jpg	99
2524.494	0.93	930.3	2back	Block4	2back/STIM_038.jpg	99
2528.461	0.785	785.3	2back	Block4	2back/STIM_038.jpg	99
2532.541	0.666	665.6	2back	Block4	2back/STIM_039.jpg	99
2535.225	1.01	1009.8	2back	Block4	2back/STIM_039.jpg	100
2539.927	0.666	665.5	2back	Block4	2back/STIM_039.jpg	100
2544.469	0.49	490.4	0back	Block4	0back/STIM_000.jpg	99
2547.542	0.534	534.3	0back	Block4	0back/STIM_000.jpg	100
2551.181	0.934	934.1	0back	Block4	0back/STIM_000.jpg	99
2554.835	0.735	734.9	0back	Block4	0back/STIM_001.jpg	99
2559.367	0.803	802.6	0back	Block4	0back/STIM_001.jpg	99
2563.317	0.488	487.7	0back	Block4	0back/STIM_001.jpg	100
2567.594	0.904	903.6	0back	Block4	0back/STIM_002.jpg	99
2570.834	0.57	569.5	0back	Block4	0back/STIM_002.jpg	100
2573.757	0.498	497.7	0back	Block4	0back/STIM_002.jpg	99
2577.881	0.63	630.4	0back	Block4	0back/STIM_003.jpg	99
2580.9	0.943	943.2	0back	Block4	0back/STIM_003.jpg	99
2584.705	0.605	604.9	0back	Block4	0back/STIM_003.jpg	100
2588.395	0.712	712.3	0back	Block4	0back/STIM_004.jpg	100
2591.754	0.614	613.9	0back	Block4	0back/STIM_004.jpg	99
2596.35	0.574	574.3	0back	Block4	0back/STIM_004.jpg	100
2600.575	0.749	749.0	0back	Block4	0back/STIM_005.jpg	100
2603.634	0.875	874.8	0back	Block4	0back/STIM_005.jpg	100
2608.042	0.571	571.3	0back	Block4	0back/STIM_005.jpg	100
2611.701	0.617	617.0	0back	Block4	0back/STIM_006.jpg	99
2615.77	0.859	858.7	0back	Block4	0back/STIM_006.jpg	100
2619.174	0.572	572.3	0back	Block4	0back/STIM_006.jpg	100
2623.107	0.799	799.4	0back	Block4	0back/STIM_007.jpg	100
2627.515	0.649	649.4	0back	Block4	0back/STIM_007.jpg	100
2631.802	0.676	675.6	0back	Block4	0back/STIM_007.jpg	100
2635.166	0.784	784.4	0back	Block4	0back/STIM_008.jpg	99
2638.631	0.635	635.4	0back	Block4	0back/STIM_008.jpg	100
2643.164	0.888	887.8	0back	Block4	0back/STIM_008.jpg	99
2647.523	0.84	839.8	0back	Block4	0back/STIM_009.jpg	99
2651.605	0.784	784.4	0back	Block4	0back/STIM_009.jpg	99
2656.234	0.734	733.5	0back	Block4	0back/STIM_009.jpg	100
2660.64	0.601	600.8	0back	Block4	0back/STIM_010.jpg	99
2664.986	0.669	668.6	0back	Block4	0back/STIM_010.jpg	99
2668.579	0.807	807.0	0back	Block4	0back/STIM_010.jpg	99
2671.674	0.859	859.4	0back	Block4	0back/STIM_011.jpg	99
2675.612	0.842	842.1	0back	Block4	0back/STIM_011.jpg	99
2679.261	0.628	628.5	0back	Block4	0back/STIM_011.jpg	99
2682.084	0.78	779.5	0back	Block4	0back/STIM_012.jpg	100
2684.969	0.608	608.1	0back	Block4	0back/STIM_012.jpg	99
2688.588	0.676	676.0	0back	Block4	0back/STIM_012.jpg	99
2692.149	0.935	935.1	0back	Block4	0back/STIM_013.jpg	99
2696.535	0.625	624.9	0back	Block4	0back/STIM_013.jpg	99
2700.673	0.908	908.2	0back	Block4	0back/STIM_013.jpg	100
2703.868	0.622	621.7	0back	Block4	0back/STIM_014.jpg	99
2707.459	0.738	737.9	0back	Block4	0back/STIM_014.jpg	100
2710.434	0.778	778.4	0back	Block4	0back/STIM_014.jpg	100
2713.32	0.503	502.6	0back	Block4	0back/STIM_015.jpg	100
2717.169	0.536	536.3	0back	Block4	0back/STIM_015.jpg	99
2719.781	0.543	542.7	0back	Block4	0back/STIM_015.jpg	99
2722.366	0.706	705.5	0back	Block4	0back/STIM_016.jpg	100
2725.143	0.648	648.4	0back	Block4	0back/STIM_016.jpg	99
2728.478	0.54	540.1	0back	Block4	0back/STIM_016.jpg	99
2732.663	0.67	670.5	0back	Block4	0back/STIM_017.jpg	99
2737.21	0.575	575.0	0back	Block4	0back/STIM_017.jpg	99
2741.287	0.854	853.9	0back	Block4	0back/STIM_017.jpg	100
2744.557	0.56	559.8	0back	Block4	0back/STIM_018.jpg	99
2747.458	0.714	713.9	0back	Block4	0back/STIM_018.jpg	100
2752.152	0.946	945.5	0back	Block4	0back/STIM_018.jpg	100
2755.962	0.782	782.5	0back	Block4	0back/STIM_019.jpg	100
2760.357	0.712	711.5	0back	Block4	0back/STIM_019.jpg	100
2763.949	0.814	814.5	0back	Block4	0back/STIM_019.jpg	99
