onset	duration	response_time_ms	trial_type	learning_stage	stimulus	response_port
0.0	2.245	2244.6	navigation	Trial1	navigation/STIM_000.jpg	100
5.446	4.85	4850.2	navigation	Trial1	navigation/STIM_000.jpg	100
12.574	2.232	2231.5	navigation	Trial1	navigation/STIM_000.jpg	100
18.362	2.154	2153.9	navigation	Trial1	navigation/STIM_000.jpg	99
23.411	2.02	2020.1	navigation	Trial1	navigation/STIM_000.jpg	100
28.978	2.269	2269.2	navigation	Trial1	navigation/STIM_000.jpg	99
34.819	2.428	2427.8	navigation	Trial1	navigation/STIM_001.jpg	99
41.035	2.673	2673.0	navigation	Trial1	navigation/STIM_001.jpg	99
46.72	3.737	3736.6	navigation	Trial1	navigation/STIM_001.jpg	99
53.05	3.973	3972.7	navigation	Trial1	navigation/STIM_001.jpg	100
58.87	2.742	2742.5	navigation	Trial1	navigation/STIM_001.jpg	99
64.213	3.26	3259.5	navigation	Trial1	navigation/STIM_001.jpg	99
70.206	3.246	3245.5	navigation	Trial1	navigation/STIM_002.jpg	99
76.879	4.755	4755.4	navigation	Trial1	navigation/STIM_002.jpg	99
84.683	3.291	3291.1	navigation	Trial1	navigation/STIM_002.jpg	100
90.59	2.126	2125.9	navigation	Trial1	navigation/STIM_002.jpg	100
96.32	3.733	3733.3	navigation	Trial1	navigation/STIM_002.jpg	100
101.993	3.074	3074.5	navigation	Trial1	navigation/STIM_002.jpg	99
108.531	5.252	5252.4	navigation	Trial1	navigation/STIM_003.jpg	99
117.204	5.066	5066.3	navigation	Trial1	navigation/STIM_003.jpg	100
125.376	3.352	3351.9	navigation	Trial1	navigation/STIM_003.jpg	100
131.834	3.49	3489.7	navigation	Trial1	navigation/STIM_003.jpg	99
138.213	3.481	3481.0	navigation	Trial1	navigation/STIM_003.jpg	100
145.345	3.409	3409.0	navigation	Trial1	navigation/STIM_003.jpg	100
151.901	2.243	2243.4	navigation	Trial1	navigation/STIM_004.jpg	100
157.901	2.771	2771.0	navigation	Trial1	navigation/STIM_004.jpg	100
163.105	2.365	2365.1	navigation	Trial1	navigation/STIM_004.jpg	99
167.615	2.308	2308.3	navigation	Trial1	navigation/STIM_004.jpg	100
172.492	1.966	1965.5	navigation	Trial1	navigation/STIM_004.jpg	99
178.008	2.126	2126.3	navigation	Trial1	navigation/STIM_004.jpg	99
183.052	4.678	4678.4	navigation	Trial1	navigation/STIM_005.jpg	100
190.671	2.694	2693.7	navigation	Trial1	navigation/STIM_005.jpg	99
195.74	3.736	3735.6	navigation	Trial1	navigation/STIM_005.jpg	100
201.985	3.765	3765.1	navigation	Trial1	navigation/STIM_005.jpg	99
208.04	3.973	3973.2	navigation	Trial1	navigation/STIM_005.jpg	99
214.395	2.519	2519.4	navigation	Trial1	navigation/STIM_005.jpg	100
219.457	3.703	3702.8	navigation	Trial1	navigation/STIM_006.jpg	99
225.567	2.801	2801.4	navigation	Trial1	navigation/STIM_006.jpg	99
232.103	2.53	2530.2	navigation	Trial1	navigation/STIM_006.jpg	99
236.585	3.453	3453.1	navigation	Trial1	navigation/STIM_006.jpg	100
243.219	3.423	3423.2	navigation	Trial1	navigation/STIM_006.jpg	100
249.308	2.996	2995.9	navigation	Trial1	navigation/STIM_006.jpg	100
254.89	2.136	2136.4	navigation	Trial1	navigation/STIM_007.jpg	100
259.26	2.119	2118.7	navigation	Trial1	navigation/STIM_007.jpg	99
264.995	4.254	4253.5	navigation	Trial1	navigation/STIM_007.jpg	100
272.67	4.491	4490.9	navigation	Trial1	navigation/STIM_007.jpg	99
280.407	2.647	2647.3	navigation	Trial1	navigation/STIM_007.jpg	100
285.767	3.684	3683.5	navigation	Trial1	navigation/STIM_007.jpg	100
292.648	2.393	2392.8	navigation	Trial1	navigation/STIM_008.jpg	99
297.658	3.482	3481.9	navigation	Trial1	navigation/STIM_008.jpg	99
304.35	3.524	3524.2	navigation	Trial1	navigation/STIM_008.jpg	100
310.882	2.966	2966.3	navigation	Trial1	navigation/STIM_008.jpg	100
317.188	2.842	2842.0	navigation	Trial1	navigation/STIM_008.jpg	100
322.582	3.24	3240.4	navigation	Trial1	navigation/STIM_008.jpg	99
328.32	3.293	3292.8	navigation	Trial1	navigation/STIM_009.jpg	99
334.567	4.862	4862.5	navigation	Trial1	navigation/STIM_009.jpg	99
342.716	3.43	3429.9	navigation	Trial1	navigation/STIM_009.jpg	100
349.963	2.416	2415.8	navigation	Trial1	navigation/STIM_009.jpg	99
356.063	2.81	2809.8	navigation	Trial1	navigation/STIM_009.jpg	99
362.35	2.324	2323.7	navigation	Trial1	navigation/STIM_009.jpg	100
367.236	5.116	5115.5	navigation	Trial1	navigation/STIM_010.jpg	99
374.737	2.572	2571.9	navigation	Trial1	navigation/STIM_010.jpg	100
380.425	1.955	1954.8	navigation	Trial1	navigation/STIM_010.jpg	99
385.337	3.662	3662.0	navigation	Trial1	navigation/STIM_010.jpg	100
391.402	2.238	2238.1	navigation	Trial1	navigation/STIM_010.jpg	100
396.652	2.442	2441.9	navigation	Trial1	navigation/STIM_010.jpg	99
402.203	3.974	3973.8	navigation	Trial1	navigation/STIM_011.jpg	99
409.007	3.145	3144.6	navigation	Trial1	navigation/STIM_011.jpg	99
415.084	4.227	4227.2	navigation	Trial1	navigation/STIM_011.jpg	99
422.054	3.106	3106.3	navigation	Trial1	navigation/STIM_011.jpg	99
427.103	3.319	3319.0	navigation	Trial1	navigation/STIM_011.jpg	99
432.572	3.662	3661.9	navigation	Trial1	navigation/STIM_011.jpg	99
440.006	0.928	928.2	pointing	Trial1	pointing/STIM_000.jpg	100
443.796	1.243	1243.1	pointing	Trial1	pointing/STIM_000.jpg	99
447.524	1.081	1080.8	pointing	Trial1	pointing/STIM_000.jpg	99
450.819	1.538	1538.1	pointing	Trial1	pointing/STIM_000.jpg	99
454.285	1.385	1385.0	pointing	Trial1	pointing/STIM_000.jpg	100
458.101	1.258	1258.2	pointing	Trial1	pointing/STIM_000.jpg	99
461.653	1.279	1278.6	pointing	Trial1	pointing/STIM_001.jpg	100
465.367	1.045	1044.8	pointing	Trial1	pointing/STIM_001.jpg	99
469.486	0.86	860.4	pointing	Trial1	pointing/STIM_001.jpg	100
473.724	1.133	1132.8	pointing	Trial1	pointing/STIM_001.jpg	100
477.893	1.452	1451.9	pointing	Trial1	pointing/STIM_001.jpg	100
482.29	1.486	1485.5	pointing	Trial1	pointing/STIM_001.jpg	99
487.496	1.571	1571.0	pointing	Trial1	pointing/STIM_002.jpg	99
492.928	1.212	1212.3	pointing	Trial1	pointing/STIM_002.jpg	100
497.08	1.109	1109.0	pointing	Trial1	pointing/STIM_002.jpg	100
501.687	0.826	825.5	pointing	Trial1	pointing/STIM_002.jpg	100
504.74	1.072	1072.3	pointing	Trial1	pointing/STIM_002.jpg	100
508.053	0.851	851.2	pointing	Trial1	pointing/STIM_002.jpg	100
511.67	0.881	880.9	pointing	Trial1	pointing/STIM_003.jpg	100
515.285	1.441	1441.2	pointing	Trial1	pointing/STIM_003.jpg	99
520.225	1.312	1312.3	pointing	Trial1	pointing/STIM_003.jpg	100
523.507	1.257	1256.9	pointing	Trial1	pointing/STIM_003.jpg	99
527.492	1.177	1176.8	pointing	Trial1	pointing/STIM_003.jpg	99
531.225	0.935	934.9	pointing	Trial1	pointing/STIM_003.jpg	100
534.178	1.651	1651.2	pointing	Trial1	pointing/STIM_004.jpg	100
539.154	1.029	1028.6	pointing	Trial1	pointing/STIM_004.jpg	100
542.842	0.896	896.5	pointing	Trial1	pointing/STIM_004.jpg	100
546.331	1.107	1107.0	pointing	Trial1	pointing/STIM_004.jpg	99
550.699	1.265	1264.7	pointing	Trial1	pointing/STIM_004.jpg	100
554.461	1.558	1557.5	pointing	Trial1	pointing/STIM_004.jpg	99
558.778	1.565	1564.7	pointing	Trial1	pointing/STIM_005.jpg	99
563.57	1.235	1234.6	pointing	Trial1	pointing/STIM_005.jpg	100
568.332	1.123	1123.0	pointing	Trial1	pointing/STIM_005.jpg	99
572.216	1.041	1041.1	pointing	Trial1	pointing/STIM_005.jpg	99
576.752	1.541	1541.1	pointing	Trial1	pointing/STIM_005.jpg	100
580.309	1.006	1006.0	pointing	Trial1	pointing/STIM_005.jpg	100
583.628	1.087	1086.8	pointing	Trial1	pointing/STIM_006.jpg	100
587.51	1.523	1522.8	pointing	Trial1	pointing/STIM_006.jpg	99
591.744	0.862	861.9	pointing	Trial1	pointing/STIM_006.jpg	99
595.556	1.488	1488.4	pointing	Trial1	pointing/STIM_006.jpg	99
599.985	1.285	1285.2	pointing	Trial1	pointing/STIM_006.jpg	99
604.948	0.858	857.8	pointing	Trial1	pointing/STIM_006.jpg	99
607.784	1.428	1427.7	pointing	Trial1	pointing/STIM_007.jpg	100
612.99	1.238	1237.8	pointing	Trial1	pointing/STIM_007.jpg	100
617.761	0.959	959.2	pointing	Trial1	pointing/STIM_007.jpg	99
621.737	1.601	1601.3	pointing	Trial1	pointing/STIM_007.jpg	100
626.76	0.913	913.4	pointing	Trial1	pointing/STIM_007.jpg	99
631.523	1.198	1198.4	pointing	Trial1	pointing/STIM_007.jpg	100
635.723	1.422	1421.8	pointing	Trial1	pointing/STIM_008.jpg	100
639.034	1.339	1339.1	pointing	Trial1	pointing/STIM_008.jpg	99
643.544	1.238	1238.2	pointing	Trial1	pointing/STIM_008.jpg	99
648.341	1.251	1250.6	pointing	Trial1	pointing/STIM_008.jpg	100
652.715	1.296	1296.0	pointing	Trial1	pointing/STIM_008.jpg	100
657.374	1.006	1005.8	pointing	Trial1	pointing/STIM_008.jpg	100
661.004	1.009	1008.7	pointing	Trial1	pointing/STIM_009.jpg	100
665.861	1.162	1162.0	pointing	Trial1	pointing/STIM_009.jpg	100
669.495	0.809	808.8	pointing	Trial1	pointing/STIM_009.jpg	100
672.636	0.954	954.3	pointing	Trial1	pointing/STIM_009.jpg	100
676.767	1.26	1260.3	pointing	Trial1	pointing/STIM_009.jpg	100
681.726	1.414	1413.5	pointing	Trial1	pointing/STIM_009.jpg	100
686.35	1.538	1537.7	pointing	Trial1	pointing/STIM_010.jpg	100
690.198	1.058	1057.7	pointing	Trial1	pointing/STIM_010.jpg	100
694.039	1.384	1384.2	pointing	Trial1	pointing/STIM_010.jpg	99
698.174	1.159	1158.6	pointing	Trial1	pointing/STIM_010.jpg	100
702.351	0.936	935.8	pointing	Trial1	pointing/STIM_010.jpg	99
706.134	1.401	1401.2	pointing	Trial1	pointing/STIM_010.jpg	100
710.632	0.897	896.9	pointing	Trial1	pointing/STIM_011.jpg	99
714.899	1.326	1325.7	pointing	Trial1	pointing/STIM_011.jpg	99
719.806	0.969	968.6	pointing	Trial1	pointing/STIM_011.jpg	100
724.374	1.521	1521.3	pointing	Trial1	pointing/STIM_011.jpg	99
728.857	1.581	1581.4	pointing	Trial1	pointing/STIM_011.jpg	100
734.085	1.417	1416.6	pointing	Trial1	pointing/STIM_011.jpg	100
739.32	3.513	3513.4	navigation	Trial2	navigation/STIM_000.jpg	99
745.79	1.927	1926.8	navigation	Trial2	navigation/STIM_000.jpg	99
750.582	2.53	2530.3	navigation	Trial2	navigation/STIM_000.jpg	99
755.158	3.079	3079.4	navigation	Trial2	navigation/STIM_000.jpg	99
761.577	2.394	2394.1	navigation	Trial2	navigation/STIM_000.jpg	99
766.985	1.64	1640.2	navigation	Trial2	navigation/STIM_000.jpg	100
770.78	3.621	3621.2	navigation	Trial2	navigation/STIM_001.jpg	99
776.663	3.002	3002.0	navigation	Trial2	navigation/STIM_001.jpg	100
782.165	3.514	3513.8	navigation	Trial2	navigation/STIM_001.jpg	100
789.37	2.94	2940.3	navigation	Trial2	navigation/STIM_001.jpg	100
795.453	1.971	1971.2	navigation	Trial2	navigation/STIM_001.jpg	99
799.613	3.113	3113.3	navigation	Trial2	navigation/STIM_001.jpg	100
806.286	2.209	2209.0	navigation	Trial2	navigation/STIM_002.jpg	99
812.321	2.532	2532.4	navigation	Trial2	navigation/STIM_002.jpg	100
816.775	2.128	2128.3	navigation	Trial2	navigation/STIM_002.jpg	99
821.126	3.644	3644.4	navigation	Trial2	navigation/STIM_002.jpg	100
827.496	2.664	2663.6	navigation	Trial2	navigation/STIM_002.jpg	99
832.932	1.459	1458.8	navigation	Trial2	navigation/STIM_002.jpg	99
836.593	2.786	2786.3	navigation	Trial2	navigation/STIM_003.jpg	99
843.039	1.74	1740.3	navigation	Trial2	navigation/STIM_003.jpg	99
847.567	2.508	2508.4	navigation	Trial2	navigation/STIM_003.jpg	99
852.351	2.656	2655.5	navigation	Trial2	navigation/STIM_003.jpg	99
858.656	3.464	3464.3	navigation	Trial2	navigation/STIM_003.jpg	100
864.377	2.595	2595.0	navigation	Trial2	navigation/STIM_003.jpg	99
870.356	3.366	3365.9	navigation	Trial2	navigation/STIM_004.jpg	99
876.986	4.038	4037.7	navigation	Trial2	navigation/STIM_004.jpg	100
884.848	3.262	3261.6	navigation	Trial2	navigation/STIM_004.jpg	99
891.761	2.149	2149.3	navigation	Trial2	navigation/STIM_004.jpg	100
896.742	2.651	2650.8	navigation	Trial2	navigation/STIM_004.jpg	99
902.566	2.576	2576.3	navigation	Trial2	navigation/STIM_004.jpg	99
908.371	4.07	4070.4	navigation	Trial2	navigation/STIM_005.jpg	100
914.662	1.851	1851.2	navigation	Trial2	navigation/STIM_005.jpg	99
920.305	3.286	3285.5	navigation	Trial2	navigation/STIM_005.jpg	99
926.629	2.706	2705.8	navigation	Trial2	navigation/STIM_005.jpg	100
932.919	1.775	1775.0	navigation	Trial2	navigation/STIM_005.jpg	100
937.161	1.857	1857.3	navigation	Trial2	navigation/STIM_005.jpg	100
941.316	4.459	4458.9	navigation	Trial2	navigation/STIM_006.jpg	100
949.204	3.572	3571.6	navigation	Trial2	navigation/STIM_006.jpg	100
956.406	2.563	2563.4	navigation	Trial2	navigation/STIM_006.jpg	99
962.769	1.776	1776.4	navigation	Trial2	navigation/STIM_006.jpg	99
967.075	2.451	2450.8	navigation	Trial2	navigation/STIM_006.jpg	100
971.79	3.281	3281.1	navigation	Trial2	navigation/STIM_006.jpg	100
978.54	2.372	2372.1	navigation	Trial2	navigation/STIM_007.jpg	99
983.208	3.498	3497.8	navigation	Trial2	navigation/STIM_007.jpg	100
988.558	2.82	2820.2	navigation	Trial2	navigation/STIM_007.jpg	99
993.61	3.374	3374.3	navigation	Trial2	navigation/STIM_007.jpg	99
1000.406	3.451	3450.7	navigation	Trial2	navigation/STIM_007.jpg	99
1007.031	2.018	2017.6	navigation	Trial2	navigation/STIM_007.jpg	100
1012.284	2.619	2619.3	navigation	Trial2	navigation/STIM_008.jpg	100
1018.365	1.765	1765.4	navigation	Trial2	navigation/STIM_008.jpg	99
1022.26	3.729	3728.7	navigation	Trial2	navigation/STIM_008.jpg	100
1029.136	3.089	3088.6	navigation	Trial2	navigation/STIM_008.jpg	99
1035.368	2.129	2129.0	navigation	Trial2	navigation/STIM_008.jpg	100
1040.934	1.722	1722.3	navigation	Trial2	navigation/STIM_008.jpg	99
1046.006	3.865	3865.4	navigation	Trial2	navigation/STIM_009.jpg	100
1053.319	2.983	2983.4	navigation	Trial2	navigation/STIM_009.jpg	99
1058.278	2.474	2474.3	navigation	Trial2	navigation/STIM_009.jpg	99
1063.22	2.919	2919.1	navigation	Trial2	navigation/STIM_009.jpg	100
1068.1	2.867	2867.2	navigation	Trial2	navigation/STIM_009.jpg	100
1074.416	2.248	2247.9	navigation	Trial2	navigation/STIM_009.jpg	100
1079.047	3.99	3990.2	navigation	Trial2	navigation/STIM_010.jpg	100
1085.111	3.764	3764.4	navigation	Trial2	navigation/STIM_010.jpg	100
1091.454	3.833	3832.9	navigation	Trial2	navigation/STIM_010.jpg	100
1098.405	3.137	3137.4	navigation	Trial2	navigation/STIM_010.jpg	100
1103.506	2.236	2236.4	navigation	Trial2	navigation/STIM_010.jpg	99
1107.745	3.11	3110.0	navigation	Trial2	navigation/STIM_010.jpg	99
1113.281	1.932	1932.5	navigation	Trial2	navigation/STIM_011.jpg	99
1117.276	3.985	3984.6	navigation	Trial2	navigation/STIM_011.jpg	99
1125.001	2.41	2410.5	navigation	Trial2	navigation/STIM_011.jpg	99
1130.554	2.182	2182.2	navigation	Trial2	navigation/STIM_011.jpg	99
1135.351	2.456	2456.3	navigation	Trial2	navigation/STIM_011.jpg	100
1139.903	2.723	2723.1	navigation	Trial2	navigation/STIM_011.jpg	99
1145.664	1.541	1541.3	pointing	Trial2	pointing/STIM_000.jpg	99
1150.604	1.385	1385.1	pointing	Trial2	pointing/STIM_000.jpg	99
1155.77	0.984	983.5	pointing	Trial2	pointing/STIM_000.jpg	100
1159.444	1.28	1279.7	pointing	Trial2	pointing/STIM_000.jpg	100
1163.541	1.035	1035.1	pointing	Trial2	pointing/STIM_000.jpg	99
1166.777	1.164	1163.9	pointing	Trial2	pointing/STIM_000.jpg	100
1170.73	1.33	1329.8	pointing	Trial2	pointing/STIM_001.jpg	100
1175.648	1.089	1089.4	pointing	Trial2	pointing/STIM_001.jpg	100
1179.653	0.847	846.9	pointing	Trial2	pointing/STIM_001.jpg	100
1183.671	0.871	870.8	pointing	Trial2	pointing/STIM_001.jpg	100
1187.729	1.23	1230.5	pointing	Trial2	pointing/STIM_001.jpg	99
1191.869	1.552	1551.6	pointing	Trial2	pointing/STIM_001.jpg	100
1195.336	1.042	1042.0	pointing	Trial2	pointing/STIM_002.jpg	99
1198.252	0.955	955.3	pointing	Trial2	pointing/STIM_002.jpg	99
1203.014	1.274	1273.6	pointing	Trial2	pointing/STIM_002.jpg	100
1208.078	1.34	1339.9	pointing	Trial2	pointing/STIM_002.jpg	99
1211.797	1.203	1202.9	pointing	Trial2	pointing/STIM_002.jpg	99
1216.403	1.076	1075.5	pointing	Trial2	pointing/STIM_002.jpg	100
1219.577	0.984	983.8	pointing	Trial2	pointing/STIM_003.jpg	100
1223.914	1.373	1373.4	pointing	Trial2	pointing/STIM_003.jpg	100
1227.738	1.278	1278.3	pointing	Trial2	pointing/STIM_003.jpg	100
1232.072	1.124	1123.6	pointing	Trial2	pointing/STIM_003.jpg	99
1235.4	0.959	959.4	pointing	Trial2	pointing/STIM_003.jpg	100
1240.128	1.178	1177.5	pointing	Trial2	pointing/STIM_003.jpg	99
1244.538	1.064	1063.5	pointing	Trial2	pointing/STIM_004.jpg	100
1249.055	1.133	1133.1	pointing	Trial2	pointing/STIM_004.jpg	99
1252.918	1.428	1427.9	pointing	Trial2	pointing/STIM_004.jpg	100
1257.659	1.198	1198.3	pointing	Trial2	pointing/STIM_004.jpg	99
1261.949	1.332	1332.5	pointing	Trial2	pointing/STIM_004.jpg	99
1267.06	1.174	1173.9	pointing	Trial2	pointing/STIM_004.jpg	100
1270.274	0.958	958.2	pointing	Trial2	pointing/STIM_005.jpg	100
1273.34	0.941	940.6	pointing	Trial2	pointing/STIM_005.jpg	99
1277.129	1.018	1018.2	pointing	Trial2	pointing/STIM_005.jpg	99
1280.692	1.326	1326.5	pointing	Trial2	pointing/STIM_005.jpg	100
1284.407	1.489	1488.6	pointing	Trial2	pointing/STIM_005.jpg	99
1287.998	1.335	1335.0	pointing	Trial2	pointing/STIM_005.jpg	99
1291.616	1.031	1031.2	pointing	Trial2	pointing/STIM_006.jpg	100
1294.732	1.186	1186.1	pointing	Trial2	pointing/STIM_006.jpg	100
1299.023	0.986	986.0	pointing	Trial2	pointing/STIM_006.jpg	100
1302.368	1.564	1564.0	pointing	Trial2	pointing/STIM_006.jpg	100
1307.271	1.162	1161.8	pointing	Trial2	pointing/STIM_006.jpg	99
1312.029	1.341	1340.9	pointing	Trial2	pointing/STIM_006.jpg	99
1315.926	0.909	909.4	pointing	Trial2	pointing/STIM_007.jpg	99
1320.65	1.242	1241.5	pointing	Trial2	pointing/STIM_007.jpg	99
1325.614	0.867	866.7	pointing	Trial2	pointing/STIM_007.jpg	100
1329.555	1.337	1337.4	pointing	Trial2	pointing/STIM_007.jpg	100
1333.041	1.322	1321.5	pointing	Trial2	pointing/STIM_007.jpg	100
1337.68	1.141	1141.2	pointing	Trial2	pointing/STIM_007.jpg	99
1342.57	1.035	1035.4	pointing	Trial2	pointing/STIM_008.jpg	99
1347.4	0.864	863.7	pointing	Trial2	pointing/STIM_008.jpg	100
1351.678	1.277	1277.1	pointing	Trial2	pointing/STIM_008.jpg	99
1356.09	1.304	1303.6	pointing	Trial2	pointing/STIM_008.jpg	99
1360.186	1.28	1280.5	pointing	Trial2	pointing/STIM_008.jpg	99
1364.823	1.497	1497.3	pointing	Trial2	pointing/STIM_008.jpg	100
1368.384	1.254	1254.4	pointing	Trial2	pointing/STIM_009.jpg	99
1372.59	0.783	782.7	pointing	Trial2	pointing/STIM_009.jpg	99
1376.725	1.168	1167.6	pointing	Trial2	pointing/STIM_009.jpg	99
1381.317	1.352	1351.5	pointing	Trial2	pointing/STIM_009.jpg	100
1385.52	1.139	1139.0	pointing	Trial2	pointing/STIM_009.jpg	99
1389.78	1.186	1185.7	pointing	Trial2	pointing/STIM_009.jpg	99
1394.692	1.467	1466.8	pointing	Trial2	pointing/STIM_010.jpg	99
1398.465	1.134	1133.6	pointing	Trial2	pointing/STIM_010.jpg	100
1402.287	1.197	1196.9	pointing	Trial2	pointing/STIM_010.jpg	100
1407.161	1.233	1233.3	pointing	Trial2	pointing/STIM_010.jpg	99
1412.441	1.153	1153.3	pointing	Trial2	pointing/STIM_010.jpg	100
1417.426	1.042	1042.1	pointing	Trial2	pointing/STIM_010.jpg	100
1421.037	1.211	1211.0	pointing	Trial2	pointing/STIM_011.jpg	100
1425.117	1.54	1540.5	pointing	Trial2	pointing/STIM_011.jpg	100
1429.289	1.209	1208.6	pointing	Trial2	pointing/STIM_011.jpg	99
1433.348	1.316	1315.6	pointing	Trial2	pointing/STIM_011.jpg	100
1436.68	1.371	1370.9	pointing	Trial2	pointing/STIM_011.jpg	100
1440.045	1.364	1363.9	pointing	Trial2	pointing/STIM_011.jpg	100
1443.804	2.142	2141.6	navigation	Trial3	navigation/STIM_000.jpg	99
1448.211	3.56	3559.9	navigation	Trial3	navigation/STIM_000.jpg	100
1455.264	1.779	1778.7	navigation	Trial3	navigation/STIM_000.jpg	99
1459.904	2.968	2967.7	navigation	Trial3	navigation/STIM_000.jpg	99
1466.637	2.201	2200.9	navigation	Trial3	navigation/STIM_000.jpg	99
1471.43	3.282	3282.4	navigation	Trial3	navigation/STIM_000.jpg	99
1477.04	1.895	1895.1	navigation	Trial3	navigation/STIM_001.jpg	99
1482.463	2.222	2222.4	navigation	Trial3	navigation/STIM_001.jpg	99
1487.779	2.049	2049.2	navigation	Trial3	navigation/STIM_001.jpg	99
1492.867	3.352	3351.5	navigation	Trial3	navigation/STIM_001.jpg	100
1499.119	1.689	1689.4	navigation	Trial3	navigation/STIM_001.jpg	99
1503.758	3.004	3003.8	navigation	Trial3	navigation/STIM_001.jpg	99
1509.779	2.182	2182.5	navigation	Trial3	navigation/STIM_002.jpg	100
1515.491	2.259	2259.1	navigation	Trial3	navigation/STIM_002.jpg	100
1519.879	3.22	3219.5	navigation	Trial3	navigation/STIM_002.jpg	100
1526.072	2.626	2626.5	navigation	Trial3	navigation/STIM_002.jpg	100
1530.864	2.41	2409.7	navigation	Trial3	navigation/STIM_002.jpg	99
1536.62	2.396	2395.7	navigation	Trial3	navigation/STIM_002.jpg	99
1542.692	1.763	1762.6	navigation	Trial3	navigation/STIM_003.jpg	100
1546.364	2.499	2499.4	navigation	Trial3	navigation/STIM_003.jpg	100
1551.038	1.566	1566.2	navigation	Trial3	navigation/STIM_003.jpg	99
1555.541	2.934	2934.3	navigation	Trial3	navigation/STIM_003.jpg	100
1561.003	3.297	3296.6	navigation	Trial3	navigation/STIM_003.jpg	100
1567.977	3.756	3756.3	navigation	Trial3	navigation/STIM_003.jpg	100
1574.451	2.158	2158.4	navigation	Trial3	navigation/STIM_004.jpg	99
1579.369	1.507	1507.3	navigation	Trial3	navigation/STIM_004.jpg	100
1584.68	3.74	3739.7	navigation	Trial3	navigation/STIM_004.jpg	99
1590.665	2.794	2794.5	navigation	Trial3	navigation/STIM_004.jpg	99
1595.396	3.634	3634.0	navigation	Trial3	navigation/STIM_004.jpg	100
1602.594	1.572	1571.8	navigation	Trial3	navigation/STIM_004.jpg	99
1608.061	2.394	2394.0	navigation	Trial3	navigation/STIM_005.jpg	100
1614.007	1.64	1640.1	navigation	Trial3	navigation/STIM_005.jpg	100
1618.775	2.068	2068.5	navigation	Trial3	navigation/STIM_005.jpg	99
1622.986	2.446	2445.7	navigation	Trial3	navigation/STIM_005.jpg	100
1628.697	3.576	3575.5	navigation	Trial3	navigation/STIM_005.jpg	99
1635.088	3.402	3402.3	navigation	Trial3	navigation/STIM_005.jpg	100
1640.555	3.587	3587.2	navigation	Trial3	navigation/STIM_006.jpg	100
1647.909	2.025	2024.7	navigation	Trial3	navigation/STIM_006.jpg	100
1652.938	3.505	3504.8	navigation	Trial3	navigation/STIM_006.jpg	100
1659.708	1.444	1443.9	navigation	Trial3	navigation/STIM_006.jpg	100
1663.256	2.996	2996.1	navigation	Trial3	navigation/STIM_006.jpg	99
1668.553	3.462	3461.5	navigation	Trial3	navigation/STIM_006.jpg	100
1674.013	2.082	2081.8	navigation	Trial3	navigation/STIM_007.jpg	100
1678.115	3.448	3447.9	navigation	Trial3	navigation/STIM_007.jpg	99
1685.373	1.676	1675.9	navigation	Trial3	navigation/STIM_007.jpg	99
1690.283	2.187	2187.2	navigation	Trial3	navigation/STIM_007.jpg	99
1694.795	3.409	3408.6	navigation	Trial3	navigation/STIM_007.jpg	100
1700.551	2.87	2870.4	navigation	Trial3	navigation/STIM_007.jpg	99
1706.221	2.109	2108.8	navigation	Trial3	navigation/STIM_008.jpg	100
1711.868	1.965	1964.8	navigation	Trial3	navigation/STIM_008.jpg	100
1717.076	1.657	1656.6	navigation	Trial3	navigation/STIM_008.jpg	100
1721.736	2.375	2375.3	navigation	Trial3	navigation/STIM_008.jpg	100
1726.156	1.898	1897.7	navigation	Trial3	navigation/STIM_008.jpg	100
1731.283	3.438	3437.5	navigation	Trial3	navigation/STIM_008.jpg	100
1737.813	2.152	2152.2	navigation	Trial3	navigation/STIM_009.jpg	100
1743.678	2.152	2152.2	navigation	Trial3	navigation/STIM_009.jpg	99
1747.884	2.328	2327.9	navigation	Trial3	navigation/STIM_009.jpg	100
1753.074	2.24	2240.3	navigation	Trial3	navigation/STIM_009.jpg	100
1757.35	2.834	2834.0	navigation	Trial3	navigation/STIM_009.jpg	99
1762.85	2.007	2007.1	navigation	Trial3	navigation/STIM_009.jpg	99
1767.413	3.216	3216.0	navigation	Trial3	navigation/STIM_010.jpg	100
1772.759	1.943	1942.6	navigation	Trial3	navigation/STIM_010.jpg	99
1777.525	1.843	1842.6	navigation	Trial3	navigation/STIM_010.jpg	99
1781.45	2.558	2557.7	navigation	Trial3	navigation/STIM_010.jpg	100
1786.89	2.945	2945.4	navigation	Trial3	navigation/STIM_010.jpg	99
1792.222	3.076	3076.0	navigation	Trial3	navigation/STIM_010.jpg	99
1797.461	3.662	3661.9	navigation	Trial3	navigation/STIM_011.jpg	99
1804.271	2.339	2338.8	navigation	Trial3	navigation/STIM_011.jpg	99
1810.288	3.396	3395.6	navigation	Trial3	navigation/STIM_011.jpg	99
1817.361	3.337	3337.3	navigation	Trial3	navigation/STIM_011.jpg	100
1822.995	1.862	1861.6	navigation	Trial3	navigation/STIM_011.jpg	99
1828.438	2.956	2956.3	navigation	Trial3	navigation/STIM_011.jpg	99
1833.429	1.531	1531.1	pointing	Trial3	pointing/STIM_000.jpg	99
1837.722	1.513	1513.3	pointing	Trial3	pointing/STIM_000.jpg	100
1842.644	1.394	1394.1	pointing	Trial3	pointing/STIM_000.jpg	100
1846.693	1.013	1012.6	pointing	Trial3	pointing/STIM_000.jpg	99
1851.02	1.118	1118.4	pointing	Trial3	pointing/STIM_000.jpg	99
1854.473	0.885	885.0	pointing	Trial3	pointing/STIM_000.jpg	99
1858.507	1.145	1144.7	pointing	Trial3	pointing/STIM_001.jpg	99
1862.227	1.59	1589.9	pointing	Trial3	pointing/STIM_001.jpg	100
1867.549	1.487	1487.3	pointing	Trial3	pointing/STIM_001.jpg	99
1871.997	1.484	1483.8	pointing	Trial3	pointing/STIM_001.jpg	99
1876.293	1.415	1414.6	pointing	Trial3	pointing/STIM_001.jpg	99
1880.684	0.801	800.8	pointing	Trial3	pointing/STIM_001.jpg	100
1885.319	1.574	1573.5	pointing	Trial3	pointing/STIM_002.jpg	100
1890.016	1.301	1301.2	pointing	Trial3	pointing/STIM_002.jpg	99
1894.414	1.164	1164.0	pointing	Trial3	pointing/STIM_002.jpg	99
1897.712	1.084	1084.4	pointing	Trial3	pointing/STIM_002.jpg	99
1900.879	1.574	1573.7	pointing	Trial3	pointing/STIM_002.jpg	99
1906.266	1.449	1448.9	pointing	Trial3	pointing/STIM_002.jpg	99
1911.057	1.066	1066.5	pointing	Trial3	pointing/STIM_003.jpg	99
1914.479	1.625	1625.4	pointing	Trial3	pointing/STIM_003.jpg	99
1919.573	1.513	1513.3	pointing	Trial3	pointing/STIM_003.jpg	100
1923.787	1.105	1105.2	pointing	Trial3	pointing/STIM_003.jpg	100
1927.156	1.325	1325.0	pointing	Trial3	pointing/STIM_003.jpg	99
1931.769	0.846	845.6	pointing	Trial3	pointing/STIM_003.jpg	99
1934.826	1.374	1374.2	pointing	Trial3	pointing/STIM_004.jpg	99
1939.074	1.14	1140.4	pointing	Trial3	pointing/STIM_004.jpg	100
1942.883	1.622	1622.0	pointing	Trial3	pointing/STIM_004.jpg	100
1947.321	1.245	1245.2	pointing	Trial3	pointing/STIM_004.jpg	100
1951.658	0.964	963.8	pointing	Trial3	pointing/STIM_004.jpg	99
1956.337	1.495	1495.1	pointing	Trial3	pointing/STIM_004.jpg	99
1960.012	1.614	1614.4	pointing	Trial3	pointing/STIM_005.jpg	99
1964.614	1.675	1675.1	pointing	Trial3	pointing/STIM_005.jpg	100
1969.318	1.523	1522.8	pointing	Trial3	pointing/STIM_005.jpg	100
1973.382	1.166	1166.5	pointing	Trial3	pointing/STIM_005.jpg	100
1977.589	1.02	1020.0	pointing	Trial3	pointing/STIM_005.jpg	100
1981.184	1.423	1422.8	pointing	Trial3	pointing/STIM_005.jpg	99
1986.151	0.912	912.3	pointing	Trial3	pointing/STIM_006.jpg	99
1989.793	1.395	1395.0	pointing	Trial3	pointing/STIM_006.jpg	99
1993.2	1.27	1270.0	pointing	Trial3	pointing/STIM_006.jpg	99
1997.644	0.885	884.7	pointing	Trial3	pointing/STIM_006.jpg	100
2001.746	0.878	878.3	pointing	Trial3	pointing/STIM_006.jpg	100
2006.502	1.43	1430.4	pointing	Trial3	pointing/STIM_006.jpg	100
2010.644	1.071	1071.2	pointing	Trial3	pointing/STIM_007.jpg	99
2014.546	0.992	991.7	pointing	Trial3	pointing/STIM_007.jpg	100
2017.501	1.216	1215.6	pointing	Trial3	pointing/STIM_007.jpg	100
2020.877	0.909	908.9	pointing	Trial3	pointing/STIM_007.jpg	99
2025.118	1.272	1272.5	pointing	Trial3	pointing/STIM_007.jpg	100
2029.73	1.585	1584.8	pointing	Trial3	pointing/STIM_007.jpg	100
2034.169	1.048	1048.0	pointing	Trial3	pointing/STIM_008.jpg	99
2038.88	1.29	1289.8	pointing	Trial3	pointing/STIM_008.jpg	100
2043.513	1.524	1524.5	pointing	Trial3	pointing/STIM_008.jpg	100
2047.837	1.368	1368.4	pointing	Trial3	pointing/STIM_008.jpg	100
2051.671	0.923	922.9	pointing	Trial3	pointing/STIM_008.jpg	100
2056.135	1.464	1464.3	pointing	Trial3	pointing/STIM_008.jpg	100
2059.991	1.125	1124.9	pointing	Trial3	pointing/STIM_009.jpg	99
2064.036	1.236	1235.8	pointing	Trial3	pointing/STIM_009.jpg	99
2067.542	1.556	1556.5	pointing	Trial3	pointing/STIM_009.jpg	100
2072.709	0.866	866.2	pointing	Trial3	pointing/STIM_009.jpg	99
2077.56	0.882	881.5	pointing	Trial3	pointing/STIM_009.jpg	100
2082.158	1.578	1577.7	pointing	Trial3	pointing/STIM_009.jpg	99
2086.109	0.951	950.9	pointing	Trial3	pointing/STIM_010.jpg	100
2089.357	1.077	1076.7	pointing	Trial3	pointing/STIM_010.jpg	100
2092.391	1.07	1069.5	pointing	Trial3	pointing/STIM_010.jpg	100
2097.148	1.148	1148.4	pointing	Trial3	pointing/STIM_010.jpg	99
2101.426	1.551	1551.0	pointing	Trial3	pointing/STIM_010.jpg	100
2106.467	1.466	1465.9	pointing	Trial3	pointing/STIM_010.jpg	100
2111.082	1.261	1260.6	pointing	Trial3	pointing/STIM_011.jpg	100
2114.93	1.506	1505.6	pointing	Trial3	pointing/STIM_011.jpg	100
2120.046	1.06	1060.0	pointing	Trial3	pointing/STIM_011.jpg	100
2123.805	1.577	1576.9	pointing	Trial3	pointing/STIM_011.jpg	100
2128.129	1.009	1009.0	pointing	Trial3	pointing/STIM_011.jpg	100
2131.56	1.103	1102.6	pointing	Trial3	pointing/STIM_011.jpg	99
