onset	duration	response_time_ms	trial_type	learning_stage	stimulus	response_port
0.0	3.377	3377.2	navigation	Trial1	navigation/STIM_000.jpg	100
6.151	2.967	2967.0	navigation	Trial1	navigation/STIM_000.jpg	100
12.715	1.554	1554.4	navigation	Trial1	navigation/STIM_000.jpg	100
16.971	2.723	2723.4	navigation	Trial1	navigation/STIM_000.jpg	99
22.918	1.861	1860.6	navigation	Trial1	navigation/STIM_000.jpg	100
27.685	2.52	2519.6	navigation	Trial1	navigation/STIM_000.jpg	99
32.771	3.731	3730.6	navigation	Trial1	navigation/STIM_001.jpg	99
38.589	3.245	3245.2	navigation	Trial1	navigation/STIM_001.jpg	99
45.124	3.317	3316.6	navigation	Trial1	navigation/STIM_001.jpg	99
50.79	3.435	3435.0	navigation	Trial1	navigation/STIM_001.jpg	100
57.641	2.23	2230.5	navigation	Trial1	navigation/STIM_001.jpg	99
62.451	2.594	2594.2	navigation	Trial1	navigation/STIM_001.jpg	99
67.438	2.125	2125.3	navigation	Trial1	navigation/STIM_002.jpg	99
72.119	2.29	2289.5	navigation	Trial1	navigation/STIM_002.jpg	99
77.559	3.113	3113.3	navigation	Trial1	navigation/STIM_002.jpg	100
82.858	2.015	2015.3	navigation	Trial1	navigation/STIM_002.jpg	100
86.938	1.573	1573.4	navigation	Trial1	navigation/STIM_002.jpg	100
91.105	2.685	2684.8	navigation	Trial1	navigation/STIM_002.jpg	99
96.635	3.346	3346.4	navigation	Trial1	navigation/STIM_003.jpg	99
102.349	1.714	1713.6	navigation	Trial1	navigation/STIM_003.jpg	100
107.104	3.331	3330.7	navigation	Trial1	navigation/STIM_003.jpg	100
113.882	1.483	1482.7	navigation	Trial1	navigation/STIM_003.jpg	99
118.825	2.32	2320.3	navigation	Trial1	navigation/STIM_003.jpg	100
124.623	2.798	2797.9	navigation	Trial1	navigation/STIM_003.jpg	100
129.445	3.166	3166.2	navigation	Trial1	navigation/STIM_004.jpg	100
135.202	2.266	2266.2	navigation	Trial1	navigation/STIM_004.jpg	100
140.284	3.647	3646.6	navigation	Trial1	navigation/STIM_004.jpg	99
147.472	3.099	3099.0	navigation	Trial1	navigation/STIM_004.jpg	100
154.419	2.75	2749.7	navigation	Trial1	navigation/STIM_004.jpg	99
161.068	2.674	2674.3	navigation	Trial1	navigation/STIM_004.jpg	99
166.061	3.542	3542.1	navigation	Trial1	navigation/STIM_005.jpg	100
173.259	2.506	2505.7	navigation	Trial1	navigation/STIM_005.jpg	99
179.752	2.838	2838.3	navigation	Trial1	navigation/STIM_005.jpg	100
185.991	2.77	2770.2	navigation	Trial1	navigation/STIM_005.jpg	99
191.412	2.891	2891.3	navigation	Trial1	navigation/STIM_005.jpg	99
196.5	2.918	2917.9	navigation	Trial1	navigation/STIM_005.jpg	100
203.359	4.121	4121.2	navigation	Trial1	navigation/STIM_006.jpg	99
210.046	1.88	1880.2	navigation	Trial1	navigation/STIM_006.jpg	99
215.442	1.594	1594.3	navigation	Trial1	navigation/STIM_006.jpg	99
219.857	3.022	3021.8	navigation	Trial1	navigation/STIM_006.jpg	100
225.312	3.112	3112.3	navigation	Trial1	navigation/STIM_006.jpg	100
231.532	1.746	1745.6	navigation	Trial1	navigation/STIM_006.jpg	100
237.153	2.24	2239.9	navigation	Trial1	navigation/STIM_007.jpg	100
243.093	1.833	1833.4	navigation	Trial1	navigation/STIM_007.jpg	99
247.486	3.326	3326.1	navigation	Trial1	navigation/STIM_007.jpg	100
254.107	2.511	2510.8	navigation	Trial1	navigation/STIM_007.jpg	99
260.031	2.659	2659.4	navigation	Trial1	navigation/STIM_007.jpg	100
265.134	3.115	3115.3	navigation	Trial1	navigation/STIM_007.jpg	100
271.784	2.153	2152.7	navigation	Trial1	navigation/STIM_008.jpg	99
276.812	2.441	2440.7	navigation	Trial1	navigation/STIM_008.jpg	99
281.846	3.656	3655.7	navigation	Trial1	navigation/STIM_008.jpg	100
289.403	3.491	3491.0	navigation	Trial1	navigation/STIM_008.jpg	100
296.758	2.032	2032.0	navigation	Trial1	navigation/STIM_008.jpg	100
301.497	1.397	1397.2	navigation	Trial1	navigation/STIM_008.jpg	99
306.59	3.414	3413.7	navigation	Trial1	navigation/STIM_009.jpg	99
312.499	3.726	3726.5	navigation	Trial1	navigation/STIM_009.jpg	99
318.938	2.448	2448.5	navigation	Trial1	navigation/STIM_009.jpg	100
325.327	1.574	1574.2	navigation	Trial1	navigation/STIM_009.jpg	99
330.141	1.385	1385.3	navigation	Trial1	navigation/STIM_009.jpg	99
333.883	1.981	1981.2	navigation	Trial1	navigation/STIM_009.jpg	100
337.975	2.528	2528.5	navigation	Trial1	navigation/STIM_010.jpg	99
343.127	2.562	2562.5	navigation	Trial1	navigation/STIM_010.jpg	100
349.618	3.593	3593.4	navigation	Trial1	navigation/STIM_010.jpg	99
356.843	3.454	3454.5	navigation	Trial1	navigation/STIM_010.jpg	100
363.479	3.064	3064.2	navigation	Trial1	navigation/STIM_010.jpg	100
369.662	1.73	1730.0	navigation	Trial1	navigation/STIM_010.jpg	99
374.962	3.59	3590.1	navigation	Trial1	navigation/STIM_011.jpg	99
382.196	3.098	3098.1	navigation	Trial1	navigation/STIM_011.jpg	99
389.181	1.868	1868.2	navigation	Trial1	navigation/STIM_011.jpg	99
394.235	2.484	2483.8	navigation	Trial1	navigation/STIM_011.jpg	99
400.396	2.073	2072.6	navigation	Trial1	navigation/STIM_011.jpg	99
404.482	1.659	1659.1	navigation	Trial1	navigation/STIM_011.jpg	99
409.361	0.69	690.1	pointing	Trial1	pointing/STIM_000.jpg	100
412.921	0.987	987.0	pointing	Trial1	pointing/STIM_000.jpg	99
416.707	1.076	1075.9	pointing	Trial1	pointing/STIM_000.jpg	99
421.639	1.227	1227.3	pointing	Trial1	pointing/STIM_000.jpg	99
426.195	0.876	876.0	pointing	Trial1	pointing/STIM_000.jpg	100
430.786	0.962	962.1	pointing	Trial1	pointing/STIM_000.jpg	99
434.262	0.774	774.3	pointing	Trial1	pointing/STIM_001.jpg	100
438.512	0.732	731.7	pointing	Trial1	pointing/STIM_001.jpg	99
442.569	0.738	738.5	pointing	Trial1	pointing/STIM_001.jpg	100
447.121	0.858	858.1	pointing	Trial1	pointing/STIM_001.jpg	100
451.829	0.813	812.6	pointing	Trial1	pointing/STIM_001.jpg	100
455.897	1.01	1009.7	pointing	Trial1	pointing/STIM_001.jpg	99
459.949	1.151	1151.1	pointing	Trial1	pointing/STIM_002.jpg	99
464.284	0.863	862.7	pointing	Trial1	pointing/STIM_002.jpg	100
468.771	0.684	683.5	pointing	Trial1	pointing/STIM_002.jpg	100
472.429	0.725	724.6	pointing	Trial1	pointing/STIM_002.jpg	100
475.746	1.027	1027.1	pointing	Trial1	pointing/STIM_002.jpg	100
479.715	1.105	1104.7	pointing	Trial1	pointing/STIM_002.jpg	100
484.735	1.04	1040.1	pointing	Trial1	pointing/STIM_003.jpg	100
489.304	0.911	910.9	pointing	Trial1	pointing/STIM_003.jpg	99
492.762	1.107	1106.8	pointing	Trial1	pointing/STIM_003.jpg	100
496.467	1.185	1185.3	pointing	Trial1	pointing/STIM_003.jpg	99
500.396	0.893	893.0	pointing	Trial1	pointing/STIM_003.jpg	99
504.306	0.694	694.0	pointing	Trial1	pointing/STIM_003.jpg	100
507.755	0.982	982.0	pointing	Trial1	pointing/STIM_004.jpg	100
512.448	0.948	948.4	pointing	Trial1	pointing/STIM_004.jpg	100
515.912	1.241	1240.9	pointing	Trial1	pointing/STIM_004.jpg	100
520.215	1.245	1245.0	pointing	Trial1	pointing/STIM_004.jpg	99
523.907	1.23	1230.5	pointing	Trial1	pointing/STIM_004.jpg	100
528.194	0.768	768.4	pointing	Trial1	pointing/STIM_004.jpg	99
532.428	1.236	1236.4	pointing	Trial1	pointing/STIM_005.jpg	99
535.86	0.682	682.3	pointing	Trial1	pointing/STIM_005.jpg	100
538.779	0.766	765.8	pointing	Trial1	pointing/STIM_005.jpg	99
542.137	0.69	689.7	pointing	Trial1	pointing/STIM_005.jpg	99
544.953	0.844	843.7	pointing	Trial1	pointing/STIM_005.jpg	100
548.823	0.723	722.6	pointing	Trial1	pointing/STIM_005.jpg	100
551.832	1.088	1088.5	pointing	Trial1	pointing/STIM_006.jpg	100
555.803	0.693	692.8	pointing	Trial1	pointing/STIM_006.jpg	99
559.506	0.739	738.9	pointing	Trial1	pointing/STIM_006.jpg	99
563.102	1.212	1212.1	pointing	Trial1	pointing/STIM_006.jpg	99
567.285	0.8	800.4	pointing	Trial1	pointing/STIM_006.jpg	99
571.685	1.011	1011.0	pointing	Trial1	pointing/STIM_006.jpg	99
575.738	0.92	919.8	pointing	Trial1	pointing/STIM_007.jpg	100
579.456	1.052	1052.3	pointing	Trial1	pointing/STIM_007.jpg	100
583.893	0.849	848.6	pointing	Trial1	pointing/STIM_007.jpg	99
587.545	0.986	986.0	pointing	Trial1	pointing/STIM_007.jpg	100
591.375	1.244	1243.7	pointing	Trial1	pointing/STIM_007.jpg	99
596.055	0.69	689.7	pointing	Trial1	pointing/STIM_007.jpg	100
600.704	0.711	711.0	pointing	Trial1	pointing/STIM_008.jpg	100
604.656	0.674	674.5	pointing	Trial1	pointing/STIM_008.jpg	99
607.388	0.944	943.9	pointing	Trial1	pointing/STIM_008.jpg	99
610.587	0.797	797.4	pointing	Trial1	pointing/STIM_008.jpg	100
615.354	1.05	1049.8	pointing	Trial1	pointing/STIM_008.jpg	100
619.198	0.899	898.7	pointing	Trial1	pointing/STIM_008.jpg	100
622.877	1.176	1176.5	pointing	Trial1	pointing/STIM_009.jpg	100
626.675	0.789	788.9	pointing	Trial1	pointing/STIM_009.jpg	100
630.845	0.786	786.2	pointing	Trial1	pointing/STIM_009.jpg	100
634.785	0.957	957.2	pointing	Trial1	pointing/STIM_009.jpg	100
639.635	1.196	1196.1	pointing	Trial1	pointing/STIM_009.jpg	100
643.402	0.771	770.9	pointing	Trial1	pointing/STIM_009.jpg	100
648.136	1.227	1226.7	pointing	Trial1	pointing/STIM_010.jpg	100
652.084	0.699	699.2	pointing	Trial1	pointing/STIM_010.jpg	100
654.892	0.893	892.7	pointing	Trial1	pointing/STIM_010.jpg	99
658.524	1.011	1010.7	pointing	Trial1	pointing/STIM_010.jpg	100
662.209	1.011	1010.8	pointing	Trial1	pointing/STIM_010.jpg	99
666.557	0.792	791.6	pointing	Trial1	pointing/STIM_010.jpg	100
670.623	0.9	899.7	pointing	Trial1	pointing/STIM_011.jpg	99
675.326	1.087	1087.1	pointing	Trial1	pointing/STIM_011.jpg	99
679.989	0.962	961.7	pointing	Trial1	pointing/STIM_011.jpg	100
683.951	0.934	934.3	pointing	Trial1	pointing/STIM_011.jpg	99
688.271	0.72	720.5	pointing	Trial1	pointing/STIM_011.jpg	100
692.349	1.123	1122.7	pointing	Trial1	pointing/STIM_011.jpg	100
696.217	3.122	3122.2	navigation	Trial2	navigation/STIM_000.jpg	99
702.463	2.31	2309.7	navigation	Trial2	navigation/STIM_000.jpg	99
706.931	2.732	2732.5	navigation	Trial2	navigation/STIM_000.jpg	99
712.645	1.852	1851.9	navigation	Trial2	navigation/STIM_000.jpg	99
716.844	2.902	2902.1	navigation	Trial2	navigation/STIM_000.jpg	99
723.06	2.405	2405.4	navigation	Trial2	navigation/STIM_000.jpg	100
729.172	2.755	2754.9	navigation	Trial2	navigation/STIM_001.jpg	99
734.245	3.065	3065.0	navigation	Trial2	navigation/STIM_001.jpg	100
740.437	2.476	2476.2	navigation	Trial2	navigation/STIM_001.jpg	100
745.082	1.492	1491.6	navigation	Trial2	navigation/STIM_001.jpg	100
749.106	2.391	2390.6	navigation	Trial2	navigation/STIM_001.jpg	99
753.879	2.006	2006.0	navigation	Trial2	navigation/STIM_001.jpg	100
758.636	1.967	1966.6	navigation	Trial2	navigation/STIM_002.jpg	99
763.726	2.241	2241.4	navigation	Trial2	navigation/STIM_002.jpg	100
769.536	2.49	2489.5	navigation	Trial2	navigation/STIM_002.jpg	99
775.814	1.896	1896.5	navigation	Trial2	navigation/STIM_002.jpg	100
781.315	2.886	2886.2	navigation	Trial2	navigation/STIM_002.jpg	99
786.704	1.477	1477.0	navigation	Trial2	navigation/STIM_002.jpg	99
792.001	2.696	2695.8	navigation	Trial2	navigation/STIM_003.jpg	99
797.313	1.937	1936.9	navigation	Trial2	navigation/STIM_003.jpg	99
801.367	2.539	2539.1	navigation	Trial2	navigation/STIM_003.jpg	99
806.706	1.269	1268.7	navigation	Trial2	navigation/STIM_003.jpg	99
810.295	1.914	1914.0	navigation	Trial2	navigation/STIM_003.jpg	100
814.274	2.866	2866.1	navigation	Trial2	navigation/STIM_003.jpg	99
820.625	1.489	1488.9	navigation	Trial2	navigation/STIM_004.jpg	99
825.123	1.988	1988.3	navigation	Trial2	navigation/STIM_004.jpg	100
829.975	2.938	2937.6	navigation	Trial2	navigation/STIM_004.jpg	99
835.531	1.395	1394.9	navigation	Trial2	navigation/STIM_004.jpg	100
840.902	2.484	2484.5	navigation	Trial2	navigation/STIM_004.jpg	99
847.131	2.86	2859.7	navigation	Trial2	navigation/STIM_004.jpg	99
852.153	1.465	1465.4	navigation	Trial2	navigation/STIM_005.jpg	100
857.566	3.335	3334.7	navigation	Trial2	navigation/STIM_005.jpg	99
863.884	3.121	3121.4	navigation	Trial2	navigation/STIM_005.jpg	99
870.535	1.516	1515.7	navigation	Trial2	navigation/STIM_005.jpg	100
874.319	1.598	1597.7	navigation	Trial2	navigation/STIM_005.jpg	100
878.018	2.625	2625.4	navigation	Trial2	navigation/STIM_005.jpg	100
884.275	2.638	2638.5	navigation	Trial2	navigation/STIM_006.jpg	100
889.389	3.039	3038.7	navigation	Trial2	navigation/STIM_006.jpg	100
895.106	2.794	2794.3	navigation	Trial2	navigation/STIM_006.jpg	99
901.679	1.525	1525.4	navigation	Trial2	navigation/STIM_006.jpg	99
906.491	2.504	2503.9	navigation	Trial2	navigation/STIM_006.jpg	100
912.101	1.295	1294.9	navigation	Trial2	navigation/STIM_006.jpg	100
916.69	1.545	1544.7	navigation	Trial2	navigation/STIM_007.jpg	99
921.014	2.522	2521.8	navigation	Trial2	navigation/STIM_007.jpg	100
925.954	2.61	2610.4	navigation	Trial2	navigation/STIM_007.jpg	99
932.201	2.684	2684.1	navigation	Trial2	navigation/STIM_007.jpg	99
936.899	2.806	2805.6	navigation	Trial2	navigation/STIM_007.jpg	99
943.629	1.647	1647.2	navigation	Trial2	navigation/STIM_007.jpg	100
949.241	3.107	3106.6	navigation	Trial2	navigation/STIM_008.jpg	100
954.726	2.828	2827.6	navigation	Trial2	navigation/STIM_008.jpg	99
960.635	2.723	2722.8	navigation	Trial2	navigation/STIM_008.jpg	100
966.406	2.719	2718.9	navigation	Trial2	navigation/STIM_008.jpg	99
972.671	1.502	1501.6	navigation	Trial2	navigation/STIM_008.jpg	100
977.216	1.672	1672.4	navigation	Trial2	navigation/STIM_008.jpg	99
982.635	2.21	2210.1	navigation	Trial2	navigation/STIM_009.jpg	100
988.723	2.3	2299.7	navigation	Trial2	navigation/STIM_009.jpg	99
994.038	3.022	3021.7	navigation	Trial2	navigation/STIM_009.jpg	99
1001.018	2.574	2573.6	navigation	Trial2	navigation/STIM_009.jpg	100
1007.309	2.511	2510.9	navigation	Trial2	navigation/STIM_009.jpg	100
1011.953	2.535	2534.9	navigation	Trial2	navigation/STIM_009.jpg	100
1016.769	1.917	1917.1	navigation	Trial2	navigation/STIM_010.jpg	100
1020.911	3.109	3108.8	navigation	Trial2	navigation/STIM_010.jpg	100
1026.324	2.754	2753.6	navigation	Trial2	navigation/STIM_010.jpg	100
1031.461	1.569	1569.0	navigation	Trial2	navigation/STIM_010.jpg	100
1036.758	2.546	2545.5	navigation	Trial2	navigation/STIM_010.jpg	99
1041.36	2.124	2123.6	navigation	Trial2	navigation/STIM_010.jpg	99
1045.539	2.522	2521.6	navigation	Trial2	navigation/STIM_011.jpg	99
1051.487	2.426	2425.5	navigation	Trial2	navigation/STIM_011.jpg	99
1057.649	2.379	2379.0	navigation	Trial2	navigation/STIM_011.jpg	99
1063.255	2.804	2803.8	navigation	Trial2	navigation/STIM_011.jpg	99
1068.519	1.692	1692.5	navigation	Trial2	navigation/STIM_011.jpg	100
1073.547	1.259	1259.4	navigation	Trial2	navigation/STIM_011.jpg	99
1077.787	1.005	1004.9	pointing	Trial2	pointing/STIM_000.jpg	99
1082.628	1.25	1250.2	pointing	Trial2	pointing/STIM_000.jpg	99
1085.921	0.819	819.4	pointing	Trial2	pointing/STIM_000.jpg	100
1088.846	0.916	916.3	pointing	Trial2	pointing/STIM_000.jpg	100
1093.184	1.071	1071.3	pointing	Trial2	pointing/STIM_000.jpg	99
1097.682	1.239	1239.0	pointing	Trial2	pointing/STIM_000.jpg	100
1101.764	0.863	863.0	pointing	Trial2	pointing/STIM_001.jpg	100
1105.019	1.059	1059.4	pointing	Trial2	pointing/STIM_001.jpg	100
1108.359	0.916	916.0	pointing	Trial2	pointing/STIM_001.jpg	100
1112.434	0.752	751.6	pointing	Trial2	pointing/STIM_001.jpg	100
1115.551	0.751	750.9	pointing	Trial2	pointing/STIM_001.jpg	99
1119.786	1.082	1082.3	pointing	Trial2	pointing/STIM_001.jpg	100
1124.285	0.724	723.5	pointing	Trial2	pointing/STIM_002.jpg	99
1127.964	1.212	1212.5	pointing	Trial2	pointing/STIM_002.jpg	99
1132.569	0.935	935.3	pointing	Trial2	pointing/STIM_002.jpg	100
1136.029	0.805	805.4	pointing	Trial2	pointing/STIM_002.jpg	99
1140.617	1.21	1209.5	pointing	Trial2	pointing/STIM_002.jpg	99
1144.494	0.896	895.5	pointing	Trial2	pointing/STIM_002.jpg	100
1148.737	0.762	761.5	pointing	Trial2	pointing/STIM_003.jpg	100
1153.222	1.223	1223.2	pointing	Trial2	pointing/STIM_003.jpg	100
1157.239	0.944	944.1	pointing	Trial2	pointing/STIM_003.jpg	100
1161.842	0.724	723.5	pointing	Trial2	pointing/STIM_003.jpg	99
1165.454	1.103	1103.3	pointing	Trial2	pointing/STIM_003.jpg	100
1169.702	0.929	928.9	pointing	Trial2	pointing/STIM_003.jpg	99
1173.445	0.903	902.6	pointing	Trial2	pointing/STIM_004.jpg	100
1176.36	0.827	826.8	pointing	Trial2	pointing/STIM_004.jpg	99
1180.241	0.811	811.3	pointing	Trial2	pointing/STIM_004.jpg	100
1184.306	1.076	1076.4	pointing	Trial2	pointing/STIM_004.jpg	99
1187.768	1.138	1138.1	pointing	Trial2	pointing/STIM_004.jpg	99
1190.949	1.043	1042.8	pointing	Trial2	pointing/STIM_004.jpg	100
1194.133	0.973	972.9	pointing	Trial2	pointing/STIM_005.jpg	100
1197.886	0.76	760.1	pointing	Trial2	pointing/STIM_005.jpg	99
1202.443	0.774	774.5	pointing	Trial2	pointing/STIM_005.jpg	99
1205.563	1.252	1251.5	pointing	Trial2	pointing/STIM_005.jpg	100
1209.779	1.112	1111.8	pointing	Trial2	pointing/STIM_005.jpg	99
1214.606	1.221	1220.8	pointing	Trial2	pointing/STIM_005.jpg	99
1218.427	1.159	1158.7	pointing	Trial2	pointing/STIM_006.jpg	100
1221.999	0.927	927.0	pointing	Trial2	pointing/STIM_006.jpg	100
1225.813	1.091	1091.1	pointing	Trial2	pointing/STIM_006.jpg	100
1230.541	1.183	1183.2	pointing	Trial2	pointing/STIM_006.jpg	100
1235.497	1.041	1041.0	pointing	Trial2	pointing/STIM_006.jpg	99
1239.989	1.2	1200.4	pointing	Trial2	pointing/STIM_006.jpg	99
1244.904	0.787	786.8	pointing	Trial2	pointing/STIM_007.jpg	99
1248.651	0.694	693.8	pointing	Trial2	pointing/STIM_007.jpg	99
1253.045	0.972	972.0	pointing	Trial2	pointing/STIM_007.jpg	100
1256.528	0.693	693.4	pointing	Trial2	pointing/STIM_007.jpg	100
1261.103	1.231	1230.6	pointing	Trial2	pointing/STIM_007.jpg	100
1266.301	1.169	1168.6	pointing	Trial2	pointing/STIM_007.jpg	99
1270.436	0.855	854.6	pointing	Trial2	pointing/STIM_008.jpg	99
1274.789	1.199	1199.2	pointing	Trial2	pointing/STIM_008.jpg	100
1278.114	1.077	1077.3	pointing	Trial2	pointing/STIM_008.jpg	99
1282.881	0.723	723.2	pointing	Trial2	pointing/STIM_008.jpg	99
1285.894	1.238	1238.0	pointing	Trial2	pointing/STIM_008.jpg	99
1289.389	0.698	698.0	pointing	Trial2	pointing/STIM_008.jpg	100
1292.376	0.84	840.3	pointing	Trial2	pointing/STIM_009.jpg	99
1296.544	0.689	689.3	pointing	Trial2	pointing/STIM_009.jpg	99
1300.849	1.066	1065.6	pointing	Trial2	pointing/STIM_009.jpg	99
1305.008	0.848	847.8	pointing	Trial2	pointing/STIM_009.jpg	100
1308.009	1.022	1022.3	pointing	Trial2	pointing/STIM_009.jpg	99
1312.075	1.125	1124.7	pointing	Trial2	pointing/STIM_009.jpg	99
1316.808	0.991	990.9	pointing	Trial2	pointing/STIM_010.jpg	99
1320.262	0.781	780.8	pointing	Trial2	pointing/STIM_010.jpg	100
1324.545	1.076	1076.0	pointing	Trial2	pointing/STIM_010.jpg	100
1329.377	1.094	1093.8	pointing	Trial2	pointing/STIM_010.jpg	99
1334.439	1.081	1081.1	pointing	Trial2	pointing/STIM_010.jpg	100
1337.971	0.862	861.6	pointing	Trial2	pointing/STIM_010.jpg	100
1341.163	0.833	832.6	pointing	Trial2	pointing/STIM_011.jpg	100
1345.199	1.032	1032.1	pointing	Trial2	pointing/STIM_011.jpg	100
1349.43	1.043	1042.8	pointing	Trial2	pointing/STIM_011.jpg	99
1353.813	1.002	1001.6	pointing	Trial2	pointing/STIM_011.jpg	100
1358.726	1.118	1117.9	pointing	Trial2	pointing/STIM_011.jpg	100
1363.784	1.139	1139.2	pointing	Trial2	pointing/STIM_011.jpg	100
1368.106	2.837	2837.2	navigation	Trial3	navigation/STIM_000.jpg	99
1374.653	2.504	2503.8	navigation	Trial3	navigation/STIM_000.jpg	100
1379.879	1.902	1901.7	navigation	Trial3	navigation/STIM_000.jpg	99
1384.78	1.417	1417.2	navigation	Trial3	navigation/STIM_000.jpg	99
1388.52	1.346	1345.9	navigation	Trial3	navigation/STIM_000.jpg	99
1392.113	1.75	1749.9	navigation	Trial3	navigation/STIM_000.jpg	99
1396.359	2.546	2546.4	navigation	Trial3	navigation/STIM_001.jpg	99
1401.043	1.447	1446.9	navigation	Trial3	navigation/STIM_001.jpg	99
1406.075	2.58	2580.4	navigation	Trial3	navigation/STIM_001.jpg	99
1410.793	2.276	2275.7	navigation	Trial3	navigation/STIM_001.jpg	100
1415.726	1.941	1941.0	navigation	Trial3	navigation/STIM_001.jpg	99
1421.419	1.75	1750.3	navigation	Trial3	navigation/STIM_001.jpg	99
1426.366	1.849	1848.7	navigation	Trial3	navigation/STIM_002.jpg	100
1431.191	1.714	1714.3	navigation	Trial3	navigation/STIM_002.jpg	100
1435.442	1.826	1826.3	navigation	Trial3	navigation/STIM_002.jpg	100
1440.61	2.623	2623.2	navigation	Trial3	navigation/STIM_002.jpg	100
1446.352	1.231	1231.1	navigation	Trial3	navigation/STIM_002.jpg	99
1450.422	2.329	2328.6	navigation	Trial3	navigation/STIM_002.jpg	99
1456.616	2.833	2832.6	navigation	Trial3	navigation/STIM_003.jpg	100
1461.823	1.567	1566.6	navigation	Trial3	navigation/STIM_003.jpg	100
1466.195	2.227	2226.7	navigation	Trial3	navigation/STIM_003.jpg	99
1471.484	2.584	2583.8	navigation	Trial3	navigation/STIM_003.jpg	100
1476.551	1.709	1709.4	navigation	Trial3	navigation/STIM_003.jpg	100
1480.403	1.88	1880.3	navigation	Trial3	navigation/STIM_003.jpg	100
1484.321	1.576	1575.7	navigation	Trial3	navigation/STIM_004.jpg	99
1489.18	1.408	1408.4	navigation	Trial3	navigation/STIM_004.jpg	100
1493.091	2.382	2381.5	navigation	Trial3	navigation/STIM_004.jpg	99
1499.252	1.971	1971.0	navigation	Trial3	navigation/STIM_004.jpg	99
1503.746	2.09	2090.3	navigation	Trial3	navigation/STIM_004.jpg	100
1508.195	2.426	2426.2	navigation	Trial3	navigation/STIM_004.jpg	99
1513.552	2.064	2063.7	navigation	Trial3	navigation/STIM_005.jpg	100
1517.953	2.474	2474.4	navigation	Trial3	navigation/STIM_005.jpg	100
1522.607	2.671	2671.4	navigation	Trial3	navigation/STIM_005.jpg	99
1527.844	1.404	1403.9	navigation	Trial3	navigation/STIM_005.jpg	100
1533.084	1.593	1593.1	navigation	Trial3	navigation/STIM_005.jpg	99
1537.594	2.683	2682.6	navigation	Trial3	navigation/STIM_005.jpg	100
1543.72	1.999	1999.4	navigation	Trial3	navigation/STIM_006.jpg	100
1549.255	2.201	2200.9	navigation	Trial3	navigation/STIM_006.jpg	100
1554.254	1.805	1804.6	navigation	Trial3	navigation/STIM_006.jpg	100
1559.365	2.776	2775.8	navigation	Trial3	navigation/STIM_006.jpg	100
1564.8	1.436	1436.2	navigation	Trial3	navigation/STIM_006.jpg	99
1569.693	2.719	2719.2	navigation	Trial3	navigation/STIM_006.jpg	100
1576.017	1.783	1782.8	navigation	Trial3	navigation/STIM_007.jpg	100
1581.653	2.019	2018.8	navigation	Trial3	navigation/STIM_007.jpg	99
1587.46	1.449	1448.8	navigation	Trial3	navigation/STIM_007.jpg	99
1592.602	2.809	2808.8	navigation	Trial3	navigation/STIM_007.jpg	99
1598.452	1.298	1298.3	navigation	Trial3	navigation/STIM_007.jpg	100
1602.646	2.088	2087.9	navigation	Trial3	navigation/STIM_007.jpg	99
1608.067	2.256	2256.1	navigation	Trial3	navigation/STIM_008.jpg	100
1612.816	1.867	1866.6	navigation	Trial3	navigation/STIM_008.jpg	100
1616.946	1.472	1472.2	navigation	Trial3	navigation/STIM_008.jpg	100
1621.988	2.481	2480.7	navigation	Trial3	navigation/STIM_008.jpg	100
1628.467	1.474	1474.2	navigation	Trial3	navigation/STIM_008.jpg	100
1632.04	1.761	1760.8	navigation	Trial3	navigation/STIM_008.jpg	100
1636.465	1.383	1383.0	navigation	Trial3	navigation/STIM_009.jpg	100
1641.639	1.309	1309.3	navigation	Trial3	navigation/STIM_009.jpg	99
1646.421	2.688	2687.8	navigation	Trial3	navigation/STIM_009.jpg	100
1651.75	2.801	2800.9	navigation	Trial3	navigation/STIM_009.jpg	100
1658.075	2.819	2819.4	navigation	Trial3	navigation/STIM_009.jpg	99
1663.145	1.504	1503.8	navigation	Trial3	navigation/STIM_009.jpg	99
1667.352	2.904	2904.0	navigation	Trial3	navigation/STIM_010.jpg	100
1673.854	1.599	1598.8	navigation	Trial3	navigation/STIM_010.jpg	99
1678.551	1.491	1491.1	navigation	Trial3	navigation/STIM_010.jpg	99
1683.584	1.95	1950.0	navigation	Trial3	navigation/STIM_010.jpg	100
1688.386	2.384	2384.0	navigation	Trial3	navigation/STIM_010.jpg	99
1694.029	1.266	1265.6	navigation	Trial3	navigation/STIM_010.jpg	99
1698.677	2.543	2543.3	navigation	Trial3	navigation/STIM_011.jpg	99
1703.631	1.855	1854.7	navigation	Trial3	navigation/STIM_011.jpg	99
1707.539	2.911	2910.9	navigation	Trial3	navigation/STIM_011.jpg	99
1712.74	2.846	2846.0	navigation	Trial3	navigation/STIM_011.jpg	100
1718.449	2.83	2830.0	navigation	Trial3	navigation/STIM_011.jpg	99
1723.898	1.828	1827.6	navigation	Trial3	navigation/STIM_011.jpg	99
1728.245	0.819	818.8	pointing	Trial3	pointing/STIM_000.jpg	99
1732.526	1.238	1238.0	pointing	Trial3	pointing/STIM_000.jpg	100
1736.57	0.832	832.2	pointing	Trial3	pointing/STIM_000.jpg	100
1739.598	0.971	971.1	pointing	Trial3	pointing/STIM_000.jpg	99
1744.326	0.906	905.9	pointing	Trial3	pointing/STIM_000.jpg	99
1748.508	0.784	784.1	pointing	Trial3	pointing/STIM_000.jpg	99
1753.049	1.229	1229.1	pointing	Trial3	pointing/STIM_001.jpg	99
1756.402	0.784	784.0	pointing	Trial3	pointing/STIM_001.jpg	100
1760.299	0.785	785.4	pointing	Trial3	pointing/STIM_001.jpg	99
1764.108	1.208	1208.3	pointing	Trial3	pointing/STIM_001.jpg	99
1768.682	1.239	1239.1	pointing	Trial3	pointing/STIM_001.jpg	99
1773.092	0.783	782.9	pointing	Trial3	pointing/STIM_001.jpg	100
1777.328	0.708	707.7	pointing	Trial3	pointing/STIM_002.jpg	100
1780.182	0.702	701.8	pointing	Trial3	pointing/STIM_002.jpg	99
1784.333	1.194	1194.2	pointing	Trial3	pointing/STIM_002.jpg	99
1787.67	0.695	695.2	pointing	Trial3	pointing/STIM_002.jpg	99
1790.993	0.702	702.4	pointing	Trial3	pointing/STIM_002.jpg	99
1794.948	0.785	784.6	pointing	Trial3	pointing/STIM_002.jpg	99
1799.621	1.17	1170.4	pointing	Trial3	pointing/STIM_003.jpg	99
1804.655	0.977	977.2	pointing	Trial3	pointing/STIM_003.jpg	99
1809.584	1.027	1026.9	pointing	Trial3	pointing/STIM_003.jpg	100
1813.528	1.065	1065.4	pointing	Trial3	pointing/STIM_003.jpg	100
1817.14	0.896	895.5	pointing	Trial3	pointing/STIM_003.jpg	99
1820.286	0.896	896.4	pointing	Trial3	pointing/STIM_003.jpg	99
1824.531	0.749	748.7	pointing	Trial3	pointing/STIM_004.jpg	99
1827.421	1.21	1210.3	pointing	Trial3	pointing/STIM_004.jpg	100
1831.519	1.112	1111.8	pointing	Trial3	pointing/STIM_004.jpg	100
1834.853	0.983	983.4	pointing	Trial3	pointing/STIM_004.jpg	100
1839.626	0.986	985.9	pointing	Trial3	pointing/STIM_004.jpg	99
1843.657	1.171	1171.2	pointing	Trial3	pointing/STIM_004.jpg	99
1847.105	0.978	978.4	pointing	Trial3	pointing/STIM_005.jpg	99
1852.054	1.144	1143.7	pointing	Trial3	pointing/STIM_005.jpg	100
1856.795	1.154	1153.8	pointing	Trial3	pointing/STIM_005.jpg	100
1860.611	1.047	1047.0	pointing	Trial3	pointing/STIM_005.jpg	100
1865.283	0.899	899.0	pointing	Trial3	pointing/STIM_005.jpg	100
1868.966	0.783	783.4	pointing	Trial3	pointing/STIM_005.jpg	99
1872.979	0.704	704.1	pointing	Trial3	pointing/STIM_006.jpg	99
1877.226	1.224	1223.8	pointing	Trial3	pointing/STIM_006.jpg	99
1881.76	0.916	915.5	pointing	Trial3	pointing/STIM_006.jpg	99
1886.105	0.969	969.2	pointing	Trial3	pointing/STIM_006.jpg	100
1890.607	0.741	740.9	pointing	Trial3	pointing/STIM_006.jpg	100
1894.485	0.986	985.7	pointing	Trial3	pointing/STIM_006.jpg	100
1898.442	1.025	1025.3	pointing	Trial3	pointing/STIM_007.jpg	99
1902.274	0.89	890.5	pointing	Trial3	pointing/STIM_007.jpg	100
1906.447	1.122	1121.6	pointing	Trial3	pointing/STIM_007.jpg	100
1910.632	0.715	714.7	pointing	Trial3	pointing/STIM_007.jpg	99
1914.889	0.757	756.7	pointing	Trial3	pointing/STIM_007.jpg	100
1918.986	0.796	796.5	pointing	Trial3	pointing/STIM_007.jpg	100
1922.436	0.975	975.0	pointing	Trial3	pointing/STIM_008.jpg	99
1925.566	0.995	994.7	pointing	Trial3	pointing/STIM_008.jpg	100
1928.667	1.244	1244.4	pointing	Trial3	pointing/STIM_008.jpg	100
1933.69	1.0	1000.1	pointing	Trial3	pointing/STIM_008.jpg	100
1938.265	0.838	837.7	pointing	Trial3	pointing/STIM_008.jpg	100
1942.965	0.97	969.7	pointing	Trial3	pointing/STIM_008.jpg	100
1946.912	1.034	1033.6	pointing	Trial3	pointing/STIM_009.jpg	99
1950.955	0.731	731.0	pointing	Trial3	pointing/STIM_009.jpg	99
1955.007	0.798	798.0	pointing	Trial3	pointing/STIM_009.jpg	100
1958.004	0.746	745.5	pointing	Trial3	pointing/STIM_009.jpg	99
1962.434	1.0	999.9	pointing	Trial3	pointing/STIM_009.jpg	100
1965.732	0.825	825.2	pointing	Trial3	pointing/STIM_009.jpg	99
1970.202	1.238	1237.8	pointing	Trial3	pointing/STIM_010.jpg	100
1974.921	1.15	1150.5	pointing	Trial3	pointing/STIM_010.jpg	100
1979.515	1.0	999.5	pointing	Trial3	pointing/STIM_010.jpg	100
1982.806	1.123	1122.8	pointing	Trial3	pointing/STIM_010.jpg	99
1987.844	0.938	938.1	pointing	Trial3	pointing/STIM_010.jpg	100
1991.13	0.687	687.4	pointing	Trial3	pointing/STIM_010.jpg	100
1994.18	1.113	1113.1	pointing	Trial3	pointing/STIM_011.jpg	100
1999.146	1.137	1137.2	pointing	Trial3	pointing/STIM_011.jpg	100
2002.385	1.239	1239.3	pointing	Trial3	pointing/STIM_011.jpg	100
2006.576	0.911	910.8	pointing	Trial3	pointing/STIM_011.jpg	100
2010.154	1.06	1059.7	pointing	Trial3	pointing/STIM_011.jpg	100
2013.798	1.146	1145.5	pointing	Trial3	pointing/STIM_011.jpg	99
