onset	duration	accuracy_binary	trial_type	learning_stage	stimulus
0.0	3.377	1	navigation	Trial1	navigation/STIM_000.jpg
6.151	2.967	1	navigation	Trial1	navigation/STIM_000.jpg
12.715	1.554	1	navigation	Trial1	navigation/STIM_000.jpg
16.971	2.723	1	navigation	Trial1	navigation/STIM_000.jpg
22.918	1.861	1	navigation	Trial1	navigation/STIM_000.jpg
27.685	2.52	0	navigation	Trial1	navigation/STIM_000.jpg
32.771	3.731	0	navigation	Trial1	navigation/STIM_001.jpg
38.589	3.245	1	navigation	Trial1	navigation/STIM_001.jpg
45.124	3.317	0	navigation	Trial1	navigation/STIM_001.jpg
50.79	3.435	1	navigation	Trial1	navigation/STIM_001.jpg
57.641	2.23	1	navigation	Trial1	navigation/STIM_001.jpg
62.451	2.594	0	navigation	Trial1	navigation/STIM_001.jpg
67.438	2.125	1	navigation	Trial1	navigation/STIM_002.jpg
72.119	2.29	0	navigation	Trial1	navigation/STIM_002.jpg
77.559	3.113	1	navigation	Trial1	navigation/STIM_002.jpg
82.858	2.015	1	navigation	Trial1	navigation/STIM_002.jpg
86.938	1.573	1	navigation	Trial1	navigation/STIM_002.jpg
91.105	2.685	1	navigation	Trial1	navigation/STIM_002.jpg
96.635	3.346	1	navigation	Trial1	navigation/STIM_003.jpg
102.349	1.714	0	navigation	Trial1	navigation/STIM_003.jpg
107.104	3.331	1	navigation	Trial1	navigation/STIM_003.jpg
113.882	1.483	1	navigation	Trial1	navigation/STIM_003.jpg
118.825	2.32	1	navigation	Trial1	navigation/STIM_003.jpg
124.623	2.798	0	navigation	Trial1	navigation/STIM_003.jpg
129.445	3.166	0	navigation	Trial1	navigation/STIM_004.jpg
135.202	2.266	1	navigation	Trial1	navigation/STIM_004.jpg
140.284	3.647	1	navigation	Trial1	navigation/STIM_004.jpg
147.472	3.099	1	navigation	Trial1	navigation/STIM_004.jpg
154.419	2.75	1	navigation	Trial1	navigation/STIM_004.jpg
161.068	2.674	1	navigation	Trial1	navigation/STIM_004.jpg
166.061	3.542	0	navigation	Trial1	navigation/STIM_005.jpg
173.259	2.506	0	navigation	Trial1	navigation/STIM_005.jpg
179.752	2.838	1	navigation	Trial1	navigation/STIM_005.jpg
185.991	2.77	1	navigation	Trial1	navigation/STIM_005.jpg
191.412	2.891	0	navigation	Trial1	navigation/STIM_005.jpg
196.5	2.918	1	navigation	Trial1	navigation/STIM_005.jpg
203.359	4.121	0	navigation	Trial1	navigation/STIM_006.jpg
210.046	1.88	1	navigation	Trial1	navigation/STIM_006.jpg
215.442	1.594	0	navigation	Trial1	navigation/STIM_006.jpg
219.857	3.022	1	navigation	Trial1	navigation/STIM_006.jpg
225.312	3.112	1	navigation	Trial1	navigation/STIM_006.jpg
231.532	1.746	1	navigation	Trial1	navigation/STIM_006.jpg
237.153	2.24	1	navigation	Trial1	navigation/STIM_007.jpg
243.093	1.833	1	navigation	Trial1	navigation/STIM_007.jpg
247.486	3.326	1	navigation	Trial1	navigation/STIM_007.jpg
254.107	2.511	1	navigation	Trial1	navigation/STIM_007.jpg
260.031	2.659	1	navigation	Trial1	navigation/STIM_007.jpg
265.134	3.115	1	navigation	Trial1	navigation/STIM_007.jpg
271.784	2.153	0	navigation	Trial1	navigation/STIM_008.jpg
276.812	2.441	0	navigation	Trial1	navigation/STIM_008.jpg
281.846	3.656	1	navigation	Trial1	navigation/STIM_008.jpg
289.403	3.491	1	navigation	Trial1	navigation/STIM_008.jpg
296.758	2.032	1	navigation	Trial1	navigation/STIM_008.jpg
301.497	1.397	1	navigation	Trial1	navigation/STIM_008.jpg
306.59	3.414	1	navigation	Trial1	navigation/STIM_009.jpg
312.499	3.726	1	navigation	Trial1	navigation/STIM_009.jpg
318.938	2.448	1	navigation	Trial1	navigation/STIM_009.jpg
325.327	1.574	1	navigation	Trial1	navigation/STIM_009.jpg
330.141	1.385	1	navigation	Trial1	navigation/STIM_009.jpg
333.883	1.981	1	navigation	Trial1	navigation/STIM_009.jpg
337.975	2.528	1	navigation	Trial1	navigation/STIM_010.jpg
343.127	2.562	0	navigation	Trial1	navigation/STIM_010.jpg
349.618	3.593	1	navigation	Trial1	navigation/STIM_010.jpg
356.843	3.454	0	navigation	Trial1	navigation/STIM_010.jpg
363.479	3.064	1	navigation	Trial1	navigation/STIM_010.jpg
369.662	1.73	1	navigation	Trial1	navigation/STIM_010.jpg
374.962	3.59	1	navigation	Trial1	navigation/STIM_011.jpg
382.196	3.098	1	navigation	Trial1	navigation/STIM_011.jpg
389.181	1.868	1	navigation	Trial1	navigation/STIM_011.jpg
394.235	2.484	1	navigation	Trial1	navigation/STIM_011.jpg
400.396	2.073	1	navigation	Trial1	navigation/STIM_011.jpg
404.482	1.659	1	navigation	Trial1	navigation/STIM_011.jpg
409.361	0.69	1	pointing	Trial1	pointing/STIM_000.jpg
412.921	0.987	1	pointing	Trial1	pointing/STIM_000.jpg
416.707	1.076	1	pointing	Trial1	pointing/STIM_000.jpg
421.639	1.227	1	pointing	Trial1	pointing/STIM_000.jpg
426.195	0.876	1	pointing	Trial1	pointing/STIM_000.jpg
430.786	0.962	1	pointing	Trial1	pointing/STIM_000.jpg
434.262	0.774	1	pointing	Trial1	pointing/STIM_001.jpg
438.512	0.732	1	pointing	Trial1	pointing/STIM_001.jpg
442.569	0.738	1	pointing	Trial1	pointing/STIM_001.jpg
447.121	0.858	1	pointing	Trial1	pointing/STIM_001.jpg
451.829	0.813	1	pointing	Trial1	pointing/STIM_001.jpg
455.897	1.01	1	pointing	Trial1	pointing/STIM_001.jpg
459.949	1.151	1	pointing	Trial1	pointing/STIM_002.jpg
464.284	0.863	1	pointing	Trial1	pointing/STIM_002.jpg
468.771	0.684	1	pointing	Trial1	pointing/STIM_002.jpg
472.429	0.725	1	pointing	Trial1	pointing/STIM_002.jpg
475.746	1.027	1	pointing	Trial1	pointing/STIM_002.jpg
479.715	1.105	1	pointing	Trial1	pointing/STIM_002.jpg
484.735	1.04	1	pointing	Trial1	pointing/STIM_003.jpg
489.304	0.911	1	pointing	Trial1	pointing/STIM_003.jpg
492.762	1.107	1	pointing	Trial1	pointing/STIM_003.jpg
496.467	1.185	1	pointing	Trial1	pointing/STIM_003.jpg
500.396	0.893	1	pointing	Trial1	pointing/STIM_003.jpg
504.306	0.694	1	pointing	Trial1	pointing/STIM_003.jpg
507.755	0.982	1	pointing	Trial1	pointing/STIM_004.jpg
512.448	0.948	1	pointing	Trial1	pointing/STIM_004.jpg
515.912	1.241	1	pointing	Trial1	pointing/STIM_004.jpg
520.215	1.245	1	pointing	Trial1	pointing/STIM_004.jpg
523.907	1.23	1	pointing	Trial1	pointing/STIM_004.jpg
528.194	0.768	1	pointing	Trial1	pointing/STIM_004.jpg
532.428	1.236	1	pointing	Trial1	pointing/STIM_005.jpg
535.86	0.682	1	pointing	Trial1	pointing/STIM_005.jpg
538.779	0.766	1	pointing	Trial1	pointing/STIM_005.jpg
542.137	0.69	1	pointing	Trial1	pointing/STIM_005.jpg
544.953	0.844	1	pointing	Trial1	pointing/STIM_005.jpg
548.823	0.723	1	pointing	Trial1	pointing/STIM_005.jpg
551.832	1.088	1	pointing	Trial1	pointing/STIM_006.jpg
555.803	0.693	1	pointing	Trial1	pointing/STIM_006.jpg
559.506	0.739	1	pointing	Trial1	pointing/STIM_006.jpg
563.102	1.212	1	pointing	Trial1	pointing/STIM_006.jpg
567.285	0.8	1	pointing	Trial1	pointing/STIM_006.jpg
571.685	1.011	1	pointing	Trial1	pointing/STIM_006.jpg
575.738	0.92	1	pointing	Trial1	pointing/STIM_007.jpg
579.456	1.052	1	pointing	Trial1	pointing/STIM_007.jpg
583.893	0.849	1	pointing	Trial1	pointing/STIM_007.jpg
587.545	0.986	0	pointing	Trial1	pointing/STIM_007.jpg
591.375	1.244	1	pointing	Trial1	pointing/STIM_007.jpg
596.055	0.69	1	pointing	Trial1	pointing/STIM_007.jpg
600.704	0.711	1	pointing	Trial1	pointing/STIM_008.jpg
604.656	0.674	1	pointing	Trial1	pointing/STIM_008.jpg
607.388	0.944	1	pointing	Trial1	pointing/STIM_008.jpg
610.587	0.797	1	pointing	Trial1	pointing/STIM_008.jpg
615.354	1.05	1	pointing	Trial1	pointing/STIM_008.jpg
619.198	0.899	1	pointing	Trial1	pointing/STIM_008.jpg
622.877	1.176	0	pointing	Trial1	pointing/STIM_009.jpg
626.675	0.789	1	pointing	Trial1	pointing/STIM_009.jpg
630.845	0.786	1	pointing	Trial1	pointing/STIM_009.jpg
634.785	0.957	1	pointing	Trial1	pointing/STIM_009.jpg
639.635	1.196	1	pointing	Trial1	pointing/STIM_009.jpg
643.402	0.771	1	pointing	Trial1	pointing/STIM_009.jpg
648.136	1.227	1	pointing	Trial1	pointing/STIM_010.jpg
652.084	0.699	1	pointing	Trial1	pointing/STIM_010.jpg
654.892	0.893	1	pointing	Trial1	pointing/STIM_010.jpg
658.524	1.011	1	pointing	Trial1	pointing/STIM_010.jpg
662.209	1.011	1	pointing	Trial1	pointing/STIM_010.jpg
666.557	0.792	1	pointing	Trial1	pointing/STIM_010.jpg
670.623	0.9	1	pointing	Trial1	pointing/STIM_011.jpg
675.326	1.087	1	pointing	Trial1	pointing/STIM_011.jpg
679.989	0.962	1	pointing	Trial1	pointing/STIM_011.jpg
683.951	0.934	1	pointing	Trial1	pointing/STIM_011.jpg
688.271	0.72	1	pointing	Trial1	pointing/STIM_011.jpg
692.349	1.123	1	pointing	Trial1	pointing/STIM_011.jpg
696.217	3.122	0	navigation	Trial2	navigation/STIM_000.jpg
702.463	2.31	1	navigation	Trial2	navigation/STIM_000.jpg
706.931	2.732	1	navigation	Trial2	navigation/STIM_000.jpg
712.645	1.852	1	navigation	Trial2	navigation/STIM_000.jpg
716.844	2.902	1	navigation	Trial2	navigation/STIM_000.jpg
723.06	2.405	1	navigation	Trial2	navigation/STIM_000.jpg
729.172	2.755	0	navigation	Trial2	navigation/STIM_001.jpg
734.245	3.065	1	navigation	Trial2	navigation/STIM_001.jpg
740.437	2.476	1	navigation	Trial2	navigation/STIM_001.jpg
745.082	1.492	1	navigation	Trial2	navigation/STIM_001.jpg
749.106	2.391	0	navigation	Trial2	navigation/STIM_001.jpg
753.879	2.006	1	navigation	Trial2	navigation/STIM_001.jpg
758.636	1.967	1	navigation	Trial2	navigation/STIM_002.jpg
763.726	2.241	1	navigation	Trial2	navigation/STIM_002.jpg
769.536	2.49	1	navigation	Trial2	navigation/STIM_002.jpg
775.814	1.896	1	navigation	Trial2	navigation/STIM_002.jpg
781.315	2.886	1	navigation	Trial2	navigation/STIM_002.jpg
786.704	1.477	1	navigation	Trial2	navigation/STIM_002.jpg
792.001	2.696	1	navigation	Trial2	navigation/STIM_003.jpg
797.313	1.937	1	navigation	Trial2	navigation/STIM_003.jpg
801.367	2.539	1	navigation	Trial2	navigation/STIM_003.jpg
806.706	1.269	0	navigation	Trial2	navigation/STIM_003.jpg
810.295	1.914	1	navigation	Trial2	navigation/STIM_003.jpg
814.274	2.866	1	navigation	Trial2	navigation/STIM_003.jpg
820.625	1.489	1	navigation	Trial2	navigation/STIM_004.jpg
825.123	1.988	1	navigation	Trial2	navigation/STIM_004.jpg
829.975	2.938	1	navigation	Trial2	navigation/STIM_004.jpg
835.531	1.395	1	navigation	Trial2	navigation/STIM_004.jpg
840.902	2.484	1	navigation	Trial2	navigation/STIM_004.jpg
847.131	2.86	1	navigation	Trial2	navigation/STIM_004.jpg
852.153	1.465	1	navigation	Trial2	navigation/STIM_005.jpg
857.566	3.335	1	navigation	Trial2	navigation/STIM_005.jpg
863.884	3.121	1	navigation	Trial2	navigation/STIM_005.jpg
870.535	1.516	0	navigation	Trial2	navigation/STIM_005.jpg
874.319	1.598	0	navigation	Trial2	navigation/STIM_005.jpg
878.018	2.625	1	navigation	Trial2	navigation/STIM_005.jpg
884.275	2.638	1	navigation	Trial2	navigation/STIM_006.jpg
889.389	3.039	1	navigation	Trial2	navigation/STIM_006.jpg
895.106	2.794	0	navigation	Trial2	navigation/STIM_006.jpg
901.679	1.525	0	navigation	Trial2	navigation/STIM_006.jpg
906.491	2.504	1	navigation	Trial2	navigation/STIM_006.jpg
912.101	1.295	1	navigation	Trial2	navigation/STIM_006.jpg
916.69	1.545	1	navigation	Trial2	navigation/STIM_007.jpg
921.014	2.522	1	navigation	Trial2	navigation/STIM_007.jpg
925.954	2.61	1	navigation	Trial2	navigation/STIM_007.jpg
932.201	2.684	1	navigation	Trial2	navigation/STIM_007.jpg
936.899	2.806	1	navigation	Trial2	navigation/STIM_007.jpg
943.629	1.647	1	navigation	Trial2	navigation/STIM_007.jpg
949.241	3.107	1	navigation	Trial2	navigation/STIM_008.jpg
954.726	2.828	1	navigation	Trial2	navigation/STIM_008.jpg
960.635	2.723	1	navigation	Trial2	navigation/STIM_008.jpg
966.406	2.719	1	navigation	Trial2	navigation/STIM_008.jpg
972.671	1.502	0	navigation	Trial2	navigation/STIM_008.jpg
977.216	1.672	1	navigation	Trial2	navigation/STIM_008.jpg
982.635	2.21	1	navigation	Trial2	navigation/STIM_009.jpg
988.723	2.3	1	navigation	Trial2	navigation/STIM_009.jpg
994.038	3.022	0	navigation	Trial2	navigation/STIM_009.jpg
1001.018	2.574	1	navigation	Trial2	navigation/STIM_009.jpg
1007.309	2.511	1	navigation	Trial2	navigation/STIM_009.jpg
1011.953	2.535	1	navigation	Trial2	navigation/STIM_009.jpg
1016.769	1.917	1	navigation	Trial2	navigation/STIM_010.jpg
1020.911	3.109	1	navigation	Trial2	navigation/STIM_010.jpg
1026.324	2.754	1	navigation	Trial2	navigation/STIM_010.jpg
1031.461	1.569	1	navigation	Trial2	navigation/STIM_010.jpg
1036.758	2.546	0	navigation	Trial2	navigation/STIM_010.jpg
1041.36	2.124	1	navigation	Trial2	navigation/STIM_010.jpg
1045.539	2.522	0	navigation	Trial2	navigation/STIM_011.jpg
1051.487	2.426	1	navigation	Trial2	navigation/STIM_011.jpg
1057.649	2.379	1	navigation	Trial2	navigation/STIM_011.jpg
1063.255	2.804	1	navigation	Trial2	navigation/STIM_011.jpg
1068.519	1.692	1	navigation	Trial2	navigation/STIM_011.jpg
1073.547	1.259	1	navigation	Trial2	navigation/STIM_011.jpg
1077.787	1.005	1	pointing	Trial2	pointing/STIM_000.jpg
1082.628	1.25	1	pointing	Trial2	pointing/STIM_000.jpg
1085.921	0.819	1	pointing	Trial2	pointing/STIM_000.jpg
1088.846	0.916	1	pointing	Trial2	pointing/STIM_000.jpg
1093.184	1.071	1	pointing	Trial2	pointing/STIM_000.jpg
1097.682	1.239	1	pointing	Trial2	pointing/STIM_000.jpg
1101.764	0.863	1	pointing	Trial2	pointing/STIM_001.jpg
1105.019	1.059	1	pointing	Trial2	pointing/STIM_001.jpg
1108.359	0.916	1	pointing	Trial2	pointing/STIM_001.jpg
1112.434	0.752	1	pointing	Trial2	pointing/STIM_001.jpg
1115.551	0.751	1	pointing	Trial2	pointing/STIM_001.jpg
1119.786	1.082	1	pointing	Trial2	pointing/STIM_001.jpg
1124.285	0.724	1	pointing	Trial2	pointing/STIM_002.jpg
1127.964	1.212	1	pointing	Trial2	pointing/STIM_002.jpg
1132.569	0.935	1	pointing	Trial2	pointing/STIM_002.jpg
1136.029	0.805	1	pointing	Trial2	pointing/STIM_002.jpg
1140.617	1.21	0	pointing	Trial2	pointing/STIM_002.jpg
1144.494	0.896	1	pointing	Trial2	pointing/STIM_002.jpg
1148.737	0.762	1	pointing	Trial2	pointing/STIM_003.jpg
1153.222	1.223	1	pointing	Trial2	pointing/STIM_003.jpg
1157.239	0.944	1	pointing	Trial2	pointing/STIM_003.jpg
1161.842	0.724	1	pointing	Trial2	pointing/STIM_003.jpg
1165.454	1.103	1	pointing	Trial2	pointing/STIM_003.jpg
1169.702	0.929	1	pointing	Trial2	pointing/STIM_003.jpg
1173.445	0.903	1	pointing	Trial2	pointing/STIM_004.jpg
1176.36	0.827	1	pointing	Trial2	pointing/STIM_004.jpg
1180.241	0.811	1	pointing	Trial2	pointing/STIM_004.jpg
1184.306	1.076	1	pointing	Trial2	pointing/STIM_004.jpg
1187.768	1.138	1	pointing	Trial2	pointing/STIM_004.jpg
1190.949	1.043	1	pointing	Trial2	pointing/STIM_004.jpg
1194.133	0.973	1	pointing	Trial2	pointing/STIM_005.jpg
1197.886	0.76	1	pointing	Trial2	pointing/STIM_005.jpg
1202.443	0.774	1	pointing	Trial2	pointing/STIM_005.jpg
1205.563	1.252	1	pointing	Trial2	pointing/STIM_005.jpg
1209.779	1.112	1	pointing	Trial2	pointing/STIM_005.jpg
1214.606	1.221	1	pointing	Trial2	pointing/STIM_005.jpg
1218.427	1.159	1	pointing	Trial2	pointing/STIM_006.jpg
1221.999	0.927	1	pointing	Trial2	pointing/STIM_006.jpg
1225.813	1.091	1	pointing	Trial2	pointing/STIM_006.jpg
1230.541	1.183	1	pointing	Trial2	pointing/STIM_006.jpg
1235.497	1.041	1	pointing	Trial2	pointing/STIM_006.jpg
1239.989	1.2	1	pointing	Trial2	pointing/STIM_006.jpg
1244.904	0.787	1	pointing	Trial2	pointing/STIM_007.jpg
1248.651	0.694	1	pointing	Trial2	pointing/STIM_007.jpg
1253.045	0.972	1	pointing	Trial2	pointing/STIM_007.jpg
1256.528	0.693	1	pointing	Trial2	pointing/STIM_007.jpg
1261.103	1.231	1	pointing	Trial2	pointing/STIM_007.jpg
1266.301	1.169	1	pointing	Trial2	pointing/STIM_007.jpg
1270.436	0.855	1	pointing	Trial2	pointing/STIM_008.jpg
1274.789	1.199	1	pointing	Trial2	pointing/STIM_008.jpg
1278.114	1.077	1	pointing	Trial2	pointing/STIM_008.jpg
1282.881	0.723	1	pointing	Trial2	pointing/STIM_008.jpg
1285.894	1.238	1	pointing	Trial2	pointing/STIM_008.jpg
1289.389	0.698	1	pointing	Trial2	pointing/STIM_008.jpg
1292.376	0.84	1	pointing	Trial2	pointing/STIM_009.jpg
1296.544	0.689	0	pointing	Trial2	pointing/STIM_009.jpg
1300.849	1.066	1	pointing	Trial2	pointing/STIM_009.jpg
1305.008	0.848	1	pointing	Trial2	pointing/STIM_009.jpg
1308.009	1.022	1	pointing	Trial2	pointing/STIM_009.jpg
1312.075	1.125	1	pointing	Trial2	pointing/STIM_009.jpg
1316.808	0.991	1	pointing	Trial2	pointing/STIM_010.jpg
1320.262	0.781	1	pointing	Trial2	pointing/STIM_010.jpg
1324.545	1.076	0	pointing	Trial2	pointing/STIM_010.jpg
1329.377	1.094	1	pointing	Trial2	pointing/STIM_010.jpg
1334.439	1.081	1	pointing	Trial2	pointing/STIM_010.jpg
1337.971	0.862	0	pointing	Trial2	pointing/STIM_010.jpg
1341.163	0.833	1	pointing	Trial2	pointing/STIM_011.jpg
1345.199	1.032	1	pointing	Trial2	pointing/STIM_011.jpg
1349.43	1.043	1	pointing	Trial2	pointing/STIM_011.jpg
1353.813	1.002	1	pointing	Trial2	pointing/STIM_011.jpg
1358.726	1.118	0	pointing	Trial2	pointing/STIM_011.jpg
1363.784	1.139	0	pointing	Trial2	pointing/STIM_011.jpg
1368.106	2.837	1	navigation	Trial3	navigation/STIM_000.jpg
1374.653	2.504	1	navigation	Trial3	navigation/STIM_000.jpg
1379.879	1.902	0	navigation	Trial3	navigation/STIM_000.jpg
1384.78	1.417	1	navigation	Trial3	navigation/STIM_000.jpg
1388.52	1.346	1	navigation	Trial3	navigation/STIM_000.jpg
1392.113	1.75	1	navigation	Trial3	navigation/STIM_000.jpg
1396.359	2.546	1	navigation	Trial3	navigation/STIM_001.jpg
1401.043	1.447	1	navigation	Trial3	navigation/STIM_001.jpg
1406.075	2.58	0	navigation	Trial3	navigation/STIM_001.jpg
1410.793	2.276	1	navigation	Trial3	navigation/STIM_001.jpg
1415.726	1.941	1	navigation	Trial3	navigation/STIM_001.jpg
1421.419	1.75	1	navigation	Trial3	navigation/STIM_001.jpg
1426.366	1.849	1	navigation	Trial3	navigation/STIM_002.jpg
1431.191	1.714	1	navigation	Trial3	navigation/STIM_002.jpg
1435.442	1.826	1	navigation	Trial3	navigation/STIM_002.jpg
1440.61	2.623	1	navigation	Trial3	navigation/STIM_002.jpg
1446.352	1.231	1	navigation	Trial3	navigation/STIM_002.jpg
1450.422	2.329	1	navigation	Trial3	navigation/STIM_002.jpg
1456.616	2.833	1	navigation	Trial3	navigation/STIM_003.jpg
1461.823	1.567	1	navigation	Trial3	navigation/STIM_003.jpg
1466.195	2.227	1	navigation	Trial3	navigation/STIM_003.jpg
1471.484	2.584	1	navigation	Trial3	navigation/STIM_003.jpg
1476.551	1.709	1	navigation	Trial3	navigation/STIM_003.jpg
1480.403	1.88	1	navigation	Trial3	navigation/STIM_003.jpg
1484.321	1.576	1	navigation	Trial3	navigation/STIM_004.jpg
1489.18	1.408	1	navigation	Trial3	navigation/STIM_004.jpg
1493.091	2.382	1	navigation	Trial3	navigation/STIM_004.jpg
1499.252	1.971	1	navigation	Trial3	navigation/STIM_004.jpg
1503.746	2.09	1	navigation	Trial3	navigation/STIM_004.jpg
1508.195	2.426	1	navigation	Trial3	navigation/STIM_004.jpg
1513.552	2.064	1	navigation	Trial3	navigation/STIM_005.jpg
1517.953	2.474	1	navigation	Trial3	navigation/STIM_005.jpg
1522.607	2.671	1	navigation	Trial3	navigation/STIM_005.jpg
1527.844	1.404	1	navigation	Trial3	navigation/STIM_005.jpg
1533.084	1.593	1	navigation	Trial3	navigation/STIM_005.jpg
1537.594	2.683	1	navigation	Trial3	navigation/STIM_005.jpg
1543.72	1.999	1	navigation	Trial3	navigation/STIM_006.jpg
1549.255	2.201	1	navigation	Trial3	navigation/STIM_006.jpg
1554.254	1.805	1	navigation	Trial3	navigation/STIM_006.jpg
1559.365	2.776	1	navigation	Trial3	navigation/STIM_006.jpg
1564.8	1.436	1	navigation	Trial3	navigation/STIM_006.jpg
1569.693	2.719	1	navigation	Trial3	navigation/STIM_006.jpg
1576.017	1.783	1	navigation	Trial3	navigation/STIM_007.jpg
1581.653	2.019	1	navigation	Trial3	navigation/STIM_007.jpg
1587.46	1.449	1	navigation	Trial3	navigation/STIM_007.jpg
1592.602	2.809	1	navigation	Trial3	navigation/STIM_007.jpg
1598.452	1.298	1	navigation	Trial3	navigation/STIM_007.jpg
1602.646	2.088	1	navigation	Trial3	navigation/STIM_007.jpg
1608.067	2.256	1	navigation	Trial3	navigation/STIM_008.jpg
1612.816	1.867	1	navigation	Trial3	navigation/STIM_008.jpg
1616.946	1.472	1	navigation	Trial3	navigation/STIM_008.jpg
1621.988	2.481	1	navigation	Trial3	navigation/STIM_008.jpg
1628.467	1.474	0	navigation	Trial3	navigation/STIM_008.jpg
1632.04	1.761	1	navigation	Trial3	navigation/STIM_008.jpg
1636.465	1.383	1	navigation	Trial3	navigation/STIM_009.jpg
1641.639	1.309	1	navigation	Trial3	navigation/STIM_009.jpg
1646.421	2.688	1	navigation	Trial3	navigation/STIM_009.jpg
1651.75	2.801	1	navigation	Trial3	navigation/STIM_009.jpg
1658.075	2.819	1	navigation	Trial3	navigation/STIM_009.jpg
1663.145	1.504	1	navigation	Trial3	navigation/STIM_009.jpg
1667.352	2.904	1	navigation	Trial3	navigation/STIM_010.jpg
1673.854	1.599	1	navigation	Trial3	navigation/STIM_010.jpg
1678.551	1.491	1	navigation	Trial3	navigation/STIM_010.jpg
1683.584	1.95	1	navigation	Trial3	navigation/STIM_010.jpg
1688.386	2.384	1	navigation	Trial3	navigation/STIM_010.jpg
1694.029	1.266	1	navigation	Trial3	navigation/STIM_010.jpg
1698.677	2.543	1	navigation	Trial3	navigation/STIM_011.jpg
1703.631	1.855	1	navigation	Trial3	navigation/STIM_011.jpg
1707.539	2.911	1	navigation	Trial3	navigation/STIM_011.jpg
1712.74	2.846	0	navigation	Trial3	navigation/STIM_011.jpg
1718.449	2.83	1	navigation	Trial3	navigation/STIM_011.jpg
1723.898	1.828	1	navigation	Trial3	navigation/STIM_011.jpg
1728.245	0.819	1	pointing	Trial3	pointing/STIM_000.jpg
1732.526	1.238	1	pointing	Trial3	pointing/STIM_000.jpg
1736.57	0.832	1	pointing	Trial3	pointing/STIM_000.jpg
1739.598	0.971	1	pointing	Trial3	pointing/STIM_000.jpg
1744.326	0.906	1	pointing	Trial3	pointing/STIM_000.jpg
1748.508	0.784	1	pointing	Trial3	pointing/STIM_000.jpg
1753.049	1.229	1	pointing	Trial3	pointing/STIM_001.jpg
1756.402	0.784	1	pointing	Trial3	pointing/STIM_001.jpg
1760.299	0.785	1	pointing	Trial3	pointing/STIM_001.jpg
1764.108	1.208	1	pointing	Trial3	pointing/STIM_001.jpg
1768.682	1.239	1	pointing	Trial3	pointing/STIM_001.jpg
1773.092	0.783	1	pointing	Trial3	pointing/STIM_001.jpg
1777.328	0.708	1	pointing	Trial3	pointing/STIM_002.jpg
1780.182	0.702	1	pointing	Trial3	pointing/STIM_002.jpg
1784.333	1.194	1	pointing	Trial3	pointing/STIM_002.jpg
1787.67	0.695	1	pointing	Trial3	pointing/STIM_002.jpg
1790.993	0.702	1	pointing	Trial3	pointing/STIM_002.jpg
1794.948	0.785	1	pointing	Trial3	pointing/STIM_002.jpg
1799.621	1.17	1	pointing	Trial3	pointing/STIM_003.jpg
1804.655	0.977	1	pointing	Trial3	pointing/STIM_003.jpg
1809.584	1.027	1	pointing	Trial3	pointing/STIM_003.jpg
1813.528	1.065	1	pointing	Trial3	pointing/STIM_003.jpg
1817.14	0.896	1	pointing	Trial3	pointing/STIM_003.jpg
1820.286	0.896	1	pointing	Trial3	pointing/STIM_003.jpg
1824.531	0.749	1	pointing	Trial3	pointing/STIM_004.jpg
1827.421	1.21	1	pointing	Trial3	pointing/STIM_004.jpg
1831.519	1.112	1	pointing	Trial3	pointing/STIM_004.jpg
1834.853	0.983	1	pointing	Trial3	pointing/STIM_004.jpg
1839.626	0.986	0	pointing	Trial3	pointing/STIM_004.jpg
1843.657	1.171	1	pointing	Trial3	pointing/STIM_004.jpg
1847.105	0.978	1	pointing	Trial3	pointing/STIM_005.jpg
1852.054	1.144	1	pointing	Trial3	pointing/STIM_005.jpg
1856.795	1.154	1	pointing	Trial3	pointing/STIM_005.jpg
1860.611	1.047	1	pointing	Trial3	pointing/STIM_005.jpg
1865.283	0.899	1	pointing	Trial3	pointing/STIM_005.jpg
1868.966	0.783	1	pointing	Trial3	pointing/STIM_005.jpg
1872.979	0.704	1	pointing	Trial3	pointing/STIM_006.jpg
1877.226	1.224	1	pointing	Trial3	pointing/STIM_006.jpg
1881.76	0.916	1	pointing	Trial3	pointing/STIM_006.jpg
1886.105	0.969	1	pointing	Trial3	pointing/STIM_006.jpg
1890.607	0.741	1	pointing	Trial3	pointing/STIM_006.jpg
1894.485	0.986	1	pointing	Trial3	pointing/STIM_006.jpg
1898.442	1.025	1	pointing	Trial3	pointing/STIM_007.jpg
1902.274	0.89	1	pointing	Trial3	pointing/STIM_007.jpg
1906.447	1.122	1	pointing	Trial3	pointing/STIM_007.jpg
1910.632	0.715	1	pointing	Trial3	pointing/STIM_007.jpg
1914.889	0.757	1	pointing	Trial3	pointing/STIM_007.jpg
1918.986	0.796	1	pointing	Trial3	pointing/STIM_007.jpg
1922.436	0.975	1	pointing	Trial3	pointing/STIM_008.jpg
1925.566	0.995	1	pointing	Trial3	pointing/STIM_008.jpg
1928.667	1.244	1	pointing	Trial3	pointing/STIM_008.jpg
1933.69	1.0	1	pointing	Trial3	pointing/STIM_008.jpg
1938.265	0.838	1	pointing	Trial3	pointing/STIM_008.jpg
1942.965	0.97	1	pointing	Trial3	pointing/STIM_008.jpg
1946.912	1.034	1	pointing	Trial3	pointing/STIM_009.jpg
1950.955	0.731	1	pointing	Trial3	pointing/STIM_009.jpg
1955.007	0.798	1	pointing	Trial3	pointing/STIM_009.jpg
1958.004	0.746	1	pointing	Trial3	pointing/STIM_009.jpg
1962.434	1.0	1	pointing	Trial3	pointing/STIM_009.jpg
1965.732	0.825	1	pointing	Trial3	pointing/STIM_009.jpg
1970.202	1.238	1	pointing	Trial3	pointing/STIM_010.jpg
1974.921	1.15	1	pointing	Trial3	pointing/STIM_010.jpg
1979.515	1.0	1	pointing	Trial3	pointing/STIM_010.jpg
1982.806	1.123	1	pointing	Trial3	pointing/STIM_010.jpg
1987.844	0.938	1	pointing	Trial3	pointing/STIM_010.jpg
1991.13	0.687	1	pointing	Trial3	pointing/STIM_010.jpg
1994.18	1.113	1	pointing	Trial3	pointing/STIM_011.jpg
1999.146	1.137	0	pointing	Trial3	pointing/STIM_011.jpg
2002.385	1.239	1	pointing	Trial3	pointing/STIM_011.jpg
2006.576	0.911	1	pointing	Trial3	pointing/STIM_011.jpg
2010.154	1.06	1	pointing	Trial3	pointing/STIM_011.jpg
2013.798	1.146	1	pointing	Trial3	pointing/STIM_011.jpg
