onset	duration	accuracy_binary	trial_type	learning_stage	stimulus
0.0	0.997	1	2back	Block1	2back/STIM_000.jpg
3.025	0.603	1	2back	Block1	2back/STIM_000.jpg
7.045	0.919	0	2back	Block1	2back/STIM_000.jpg
11.141	0.597	1	2back	Block1	2back/STIM_001.jpg
13.969	0.623	0	2back	Block1	2back/STIM_001.jpg
18.233	0.73	1	2back	Block1	2back/STIM_001.jpg
22.23	0.757	1	2back	Block1	2back/STIM_002.jpg
25.07	0.91	1	2back	Block1	2back/STIM_002.jpg
29.704	0.512	0	2back	Block1	2back/STIM_002.jpg
33.489	1.175	1	2back	Block1	2back/STIM_003.jpg
36.708	0.598	1	2back	Block1	2back/STIM_003.jpg
39.334	0.5	1	2back	Block1	2back/STIM_003.jpg
42.757	0.925	1	2back	Block1	2back/STIM_004.jpg
46.671	0.596	0	2back	Block1	2back/STIM_004.jpg
50.599	0.669	1	2back	Block1	2back/STIM_004.jpg
53.77	0.925	1	2back	Block1	2back/STIM_005.jpg
58.483	0.577	1	2back	Block1	2back/STIM_005.jpg
61.737	1.019	1	2back	Block1	2back/STIM_005.jpg
65.17	0.696	1	2back	Block1	2back/STIM_006.jpg
69.688	0.729	0	2back	Block1	2back/STIM_006.jpg
72.809	1.028	0	2back	Block1	2back/STIM_006.jpg
77.307	1.042	1	2back	Block1	2back/STIM_007.jpg
82.233	1.085	0	2back	Block1	2back/STIM_007.jpg
87.248	0.488	1	2back	Block1	2back/STIM_007.jpg
91.494	1.165	1	2back	Block1	2back/STIM_008.jpg
96.355	1.042	1	2back	Block1	2back/STIM_008.jpg
99.763	0.457	1	2back	Block1	2back/STIM_008.jpg
102.632	1.085	1	2back	Block1	2back/STIM_009.jpg
106.711	0.673	1	2back	Block1	2back/STIM_009.jpg
109.678	0.591	1	2back	Block1	2back/STIM_009.jpg
113.138	1.0	0	2back	Block1	2back/STIM_010.jpg
116.348	0.661	1	2back	Block1	2back/STIM_010.jpg
120.825	0.811	1	2back	Block1	2back/STIM_010.jpg
124.706	0.817	1	2back	Block1	2back/STIM_011.jpg
128.11	0.616	1	2back	Block1	2back/STIM_011.jpg
132.269	0.534	1	2back	Block1	2back/STIM_011.jpg
135.76	0.763	1	2back	Block1	2back/STIM_012.jpg
139.558	0.484	1	2back	Block1	2back/STIM_012.jpg
142.326	0.519	1	2back	Block1	2back/STIM_012.jpg
146.604	0.912	0	2back	Block1	2back/STIM_013.jpg
150.621	0.695	1	2back	Block1	2back/STIM_013.jpg
154.335	0.816	1	2back	Block1	2back/STIM_013.jpg
157.76	1.034	1	2back	Block1	2back/STIM_014.jpg
161.899	0.616	0	2back	Block1	2back/STIM_014.jpg
166.313	0.602	1	2back	Block1	2back/STIM_014.jpg
169.133	0.704	1	2back	Block1	2back/STIM_015.jpg
173.767	0.754	1	2back	Block1	2back/STIM_015.jpg
176.718	0.692	1	2back	Block1	2back/STIM_015.jpg
179.767	0.596	1	2back	Block1	2back/STIM_016.jpg
182.955	0.913	1	2back	Block1	2back/STIM_016.jpg
186.661	0.943	1	2back	Block1	2back/STIM_016.jpg
189.77	1.041	1	2back	Block1	2back/STIM_017.jpg
193.032	0.872	1	2back	Block1	2back/STIM_017.jpg
197.054	0.642	1	2back	Block1	2back/STIM_017.jpg
200.186	0.976	1	2back	Block1	2back/STIM_018.jpg
203.969	1.073	1	2back	Block1	2back/STIM_018.jpg
209.004	0.69	1	2back	Block1	2back/STIM_018.jpg
212.558	0.567	1	2back	Block1	2back/STIM_019.jpg
217.004	0.73	1	2back	Block1	2back/STIM_019.jpg
220.363	0.458	1	2back	Block1	2back/STIM_019.jpg
224.287	0.909	1	2back	Block1	2back/STIM_020.jpg
227.564	0.534	1	2back	Block1	2back/STIM_020.jpg
231.655	0.486	1	2back	Block1	2back/STIM_020.jpg
234.423	0.566	1	2back	Block1	2back/STIM_021.jpg
237.375	0.634	1	2back	Block1	2back/STIM_021.jpg
241.129	1.022	1	2back	Block1	2back/STIM_021.jpg
245.654	0.647	1	2back	Block1	2back/STIM_022.jpg
248.496	0.908	1	2back	Block1	2back/STIM_022.jpg
252.5	0.59	1	2back	Block1	2back/STIM_022.jpg
255.285	1.111	1	2back	Block1	2back/STIM_023.jpg
259.475	0.935	1	2back	Block1	2back/STIM_023.jpg
263.891	0.569	1	2back	Block1	2back/STIM_023.jpg
268.09	1.022	1	2back	Block1	2back/STIM_024.jpg
271.947	0.695	1	2back	Block1	2back/STIM_024.jpg
275.576	0.6	0	2back	Block1	2back/STIM_024.jpg
280.155	0.606	0	2back	Block1	2back/STIM_025.jpg
284.365	0.898	1	2back	Block1	2back/STIM_025.jpg
288.187	0.79	1	2back	Block1	2back/STIM_025.jpg
291.062	0.621	1	2back	Block1	2back/STIM_026.jpg
293.937	1.067	1	2back	Block1	2back/STIM_026.jpg
298.568	1.018	1	2back	Block1	2back/STIM_026.jpg
303.248	0.771	1	2back	Block1	2back/STIM_027.jpg
306.542	0.653	1	2back	Block1	2back/STIM_027.jpg
309.584	0.774	1	2back	Block1	2back/STIM_027.jpg
313.74	0.531	1	2back	Block1	2back/STIM_028.jpg
316.672	0.932	1	2back	Block1	2back/STIM_028.jpg
321.148	0.648	1	2back	Block1	2back/STIM_028.jpg
325.314	0.748	1	2back	Block1	2back/STIM_029.jpg
329.268	0.874	1	2back	Block1	2back/STIM_029.jpg
333.483	0.748	0	2back	Block1	2back/STIM_029.jpg
337.875	0.693	0	2back	Block1	2back/STIM_030.jpg
341.925	0.732	1	2back	Block1	2back/STIM_030.jpg
346.012	0.985	1	2back	Block1	2back/STIM_030.jpg
350.882	0.897	1	2back	Block1	2back/STIM_031.jpg
353.923	0.679	1	2back	Block1	2back/STIM_031.jpg
356.683	0.657	1	2back	Block1	2back/STIM_031.jpg
359.601	0.72	1	2back	Block1	2back/STIM_032.jpg
363.479	0.69	1	2back	Block1	2back/STIM_032.jpg
366.324	0.754	1	2back	Block1	2back/STIM_032.jpg
369.673	0.647	0	2back	Block1	2back/STIM_033.jpg
373.829	0.688	1	2back	Block1	2back/STIM_033.jpg
377.147	0.814	1	2back	Block1	2back/STIM_033.jpg
380.718	0.869	1	2back	Block1	2back/STIM_034.jpg
385.307	0.689	1	2back	Block1	2back/STIM_034.jpg
389.19	0.972	1	2back	Block1	2back/STIM_034.jpg
392.45	0.534	0	2back	Block1	2back/STIM_035.jpg
396.231	0.488	0	2back	Block1	2back/STIM_035.jpg
400.106	1.047	1	2back	Block1	2back/STIM_035.jpg
403.843	0.681	0	2back	Block1	2back/STIM_036.jpg
407.126	0.734	0	2back	Block1	2back/STIM_036.jpg
410.613	0.911	0	2back	Block1	2back/STIM_036.jpg
415.383	0.881	1	2back	Block1	2back/STIM_037.jpg
419.389	0.819	0	2back	Block1	2back/STIM_037.jpg
423.043	1.042	0	2back	Block1	2back/STIM_037.jpg
426.903	0.897	1	2back	Block1	2back/STIM_038.jpg
430.602	0.524	1	2back	Block1	2back/STIM_038.jpg
434.083	0.926	1	2back	Block1	2back/STIM_038.jpg
438.407	0.532	1	2back	Block1	2back/STIM_039.jpg
441.078	0.634	1	2back	Block1	2back/STIM_039.jpg
444.395	0.513	1	2back	Block1	2back/STIM_039.jpg
448.03	0.52	1	0back	Block1	0back/STIM_000.jpg
452.055	0.429	1	0back	Block1	0back/STIM_000.jpg
454.497	0.518	1	0back	Block1	0back/STIM_000.jpg
457.67	0.586	1	0back	Block1	0back/STIM_001.jpg
461.058	0.459	1	0back	Block1	0back/STIM_001.jpg
463.578	0.596	1	0back	Block1	0back/STIM_001.jpg
466.644	0.362	1	0back	Block1	0back/STIM_002.jpg
469.556	0.651	1	0back	Block1	0back/STIM_002.jpg
472.316	0.489	1	0back	Block1	0back/STIM_002.jpg
475.818	0.584	1	0back	Block1	0back/STIM_003.jpg
479.278	0.617	1	0back	Block1	0back/STIM_003.jpg
482.32	0.518	1	0back	Block1	0back/STIM_003.jpg
485.561	0.59	0	0back	Block1	0back/STIM_004.jpg
489.526	0.466	1	0back	Block1	0back/STIM_004.jpg
493.607	0.665	0	0back	Block1	0back/STIM_004.jpg
497.399	0.485	1	0back	Block1	0back/STIM_005.jpg
500.411	0.459	0	0back	Block1	0back/STIM_005.jpg
504.818	0.524	1	0back	Block1	0back/STIM_005.jpg
509.014	0.653	1	0back	Block1	0back/STIM_006.jpg
512.177	0.54	1	0back	Block1	0back/STIM_006.jpg
515.071	0.614	1	0back	Block1	0back/STIM_006.jpg
518.644	0.415	1	0back	Block1	0back/STIM_007.jpg
522.6	0.639	1	0back	Block1	0back/STIM_007.jpg
527.221	0.454	1	0back	Block1	0back/STIM_007.jpg
530.338	0.404	1	0back	Block1	0back/STIM_008.jpg
533.987	0.548	1	0back	Block1	0back/STIM_008.jpg
538.422	0.498	1	0back	Block1	0back/STIM_008.jpg
542.301	0.588	1	0back	Block1	0back/STIM_009.jpg
545.847	0.45	1	0back	Block1	0back/STIM_009.jpg
549.874	0.653	1	0back	Block1	0back/STIM_009.jpg
553.433	0.529	0	0back	Block1	0back/STIM_010.jpg
557.69	0.517	0	0back	Block1	0back/STIM_010.jpg
560.53	0.639	0	0back	Block1	0back/STIM_010.jpg
564.072	0.499	1	0back	Block1	0back/STIM_011.jpg
567.447	0.4	1	0back	Block1	0back/STIM_011.jpg
571.489	0.341	1	0back	Block1	0back/STIM_011.jpg
575.215	0.344	1	0back	Block1	0back/STIM_012.jpg
577.746	0.565	1	0back	Block1	0back/STIM_012.jpg
582.206	0.584	1	0back	Block1	0back/STIM_012.jpg
585.507	0.67	1	0back	Block1	0back/STIM_013.jpg
588.982	0.524	0	0back	Block1	0back/STIM_013.jpg
593.307	0.601	1	0back	Block1	0back/STIM_013.jpg
597.229	0.65	1	0back	Block1	0back/STIM_014.jpg
601.417	0.527	1	0back	Block1	0back/STIM_014.jpg
605.526	0.638	1	0back	Block1	0back/STIM_014.jpg
608.375	0.415	1	0back	Block1	0back/STIM_015.jpg
611.218	0.435	0	0back	Block1	0back/STIM_015.jpg
613.904	0.676	1	0back	Block1	0back/STIM_015.jpg
618.553	0.511	1	0back	Block1	0back/STIM_016.jpg
621.846	0.478	1	0back	Block1	0back/STIM_016.jpg
626.235	0.511	1	0back	Block1	0back/STIM_016.jpg
630.52	0.504	1	0back	Block1	0back/STIM_017.jpg
634.404	0.647	1	0back	Block1	0back/STIM_017.jpg
639.027	0.659	1	0back	Block1	0back/STIM_017.jpg
643.062	0.363	1	0back	Block1	0back/STIM_018.jpg
647.013	0.6	1	0back	Block1	0back/STIM_018.jpg
650.444	0.593	1	0back	Block1	0back/STIM_018.jpg
654.867	0.49	1	0back	Block1	0back/STIM_019.jpg
658.417	0.584	1	0back	Block1	0back/STIM_019.jpg
661.839	0.56	1	0back	Block1	0back/STIM_019.jpg
665.684	0.637	0	2back	Block2	2back/STIM_000.jpg
670.253	0.62	1	2back	Block2	2back/STIM_000.jpg
673.033	0.884	1	2back	Block2	2back/STIM_000.jpg
676.75	1.004	1	2back	Block2	2back/STIM_001.jpg
680.427	0.516	0	2back	Block2	2back/STIM_001.jpg
683.189	0.882	1	2back	Block2	2back/STIM_001.jpg
687.388	0.866	0	2back	Block2	2back/STIM_002.jpg
691.233	0.642	1	2back	Block2	2back/STIM_002.jpg
694.996	0.795	1	2back	Block2	2back/STIM_002.jpg
699.432	0.716	1	2back	Block2	2back/STIM_003.jpg
703.081	0.549	1	2back	Block2	2back/STIM_003.jpg
707.512	0.403	1	2back	Block2	2back/STIM_003.jpg
711.789	0.973	1	2back	Block2	2back/STIM_004.jpg
716.714	0.89	1	2back	Block2	2back/STIM_004.jpg
720.749	0.552	1	2back	Block2	2back/STIM_004.jpg
724.037	0.468	1	2back	Block2	2back/STIM_005.jpg
727.588	0.85	1	2back	Block2	2back/STIM_005.jpg
732.234	0.543	1	2back	Block2	2back/STIM_005.jpg
735.806	0.922	1	2back	Block2	2back/STIM_006.jpg
739.723	0.579	1	2back	Block2	2back/STIM_006.jpg
742.674	0.397	1	2back	Block2	2back/STIM_006.jpg
746.64	0.834	1	2back	Block2	2back/STIM_007.jpg
750.753	0.647	1	2back	Block2	2back/STIM_007.jpg
754.106	0.818	1	2back	Block2	2back/STIM_007.jpg
758.328	0.478	1	2back	Block2	2back/STIM_008.jpg
762.653	0.552	1	2back	Block2	2back/STIM_008.jpg
767.16	0.406	0	2back	Block2	2back/STIM_008.jpg
770.537	1.0	1	2back	Block2	2back/STIM_009.jpg
774.454	0.418	1	2back	Block2	2back/STIM_009.jpg
778.559	0.639	1	2back	Block2	2back/STIM_009.jpg
782.275	0.865	1	2back	Block2	2back/STIM_010.jpg
786.974	0.643	1	2back	Block2	2back/STIM_010.jpg
789.871	0.494	1	2back	Block2	2back/STIM_010.jpg
794.023	0.906	1	2back	Block2	2back/STIM_011.jpg
797.301	0.734	0	2back	Block2	2back/STIM_011.jpg
800.845	0.662	1	2back	Block2	2back/STIM_011.jpg
803.818	0.809	1	2back	Block2	2back/STIM_012.jpg
807.447	0.782	1	2back	Block2	2back/STIM_012.jpg
811.189	0.443	1	2back	Block2	2back/STIM_012.jpg
814.745	0.552	1	2back	Block2	2back/STIM_013.jpg
817.881	0.584	1	2back	Block2	2back/STIM_013.jpg
821.822	0.854	0	2back	Block2	2back/STIM_013.jpg
825.728	0.997	1	2back	Block2	2back/STIM_014.jpg
829.051	0.596	1	2back	Block2	2back/STIM_014.jpg
832.826	0.864	1	2back	Block2	2back/STIM_014.jpg
836.979	0.778	1	2back	Block2	2back/STIM_015.jpg
840.801	0.918	1	2back	Block2	2back/STIM_015.jpg
844.137	0.735	1	2back	Block2	2back/STIM_015.jpg
847.958	0.69	1	2back	Block2	2back/STIM_016.jpg
852.103	0.84	1	2back	Block2	2back/STIM_016.jpg
855.727	0.479	1	2back	Block2	2back/STIM_016.jpg
859.628	0.955	1	2back	Block2	2back/STIM_017.jpg
862.984	0.834	1	2back	Block2	2back/STIM_017.jpg
866.999	0.633	1	2back	Block2	2back/STIM_017.jpg
869.887	0.494	1	2back	Block2	2back/STIM_018.jpg
874.147	0.928	1	2back	Block2	2back/STIM_018.jpg
877.143	0.707	1	2back	Block2	2back/STIM_018.jpg
880.921	0.439	0	2back	Block2	2back/STIM_019.jpg
884.653	0.622	1	2back	Block2	2back/STIM_019.jpg
888.652	0.727	1	2back	Block2	2back/STIM_019.jpg
891.899	0.747	1	2back	Block2	2back/STIM_020.jpg
895.888	0.514	1	2back	Block2	2back/STIM_020.jpg
899.313	0.431	1	2back	Block2	2back/STIM_020.jpg
903.605	0.623	1	2back	Block2	2back/STIM_021.jpg
906.481	0.715	1	2back	Block2	2back/STIM_021.jpg
911.114	0.516	1	2back	Block2	2back/STIM_021.jpg
914.775	0.917	1	2back	Block2	2back/STIM_022.jpg
918.714	0.901	1	2back	Block2	2back/STIM_022.jpg
922.375	0.697	0	2back	Block2	2back/STIM_022.jpg
925.344	0.479	1	2back	Block2	2back/STIM_023.jpg
929.356	0.718	1	2back	Block2	2back/STIM_023.jpg
932.417	0.838	1	2back	Block2	2back/STIM_023.jpg
935.323	0.483	0	2back	Block2	2back/STIM_024.jpg
938.124	0.612	1	2back	Block2	2back/STIM_024.jpg
942.725	0.486	1	2back	Block2	2back/STIM_024.jpg
946.269	0.496	0	2back	Block2	2back/STIM_025.jpg
949.577	0.816	1	2back	Block2	2back/STIM_025.jpg
953.824	0.814	0	2back	Block2	2back/STIM_025.jpg
957.574	0.735	1	2back	Block2	2back/STIM_026.jpg
960.379	0.762	1	2back	Block2	2back/STIM_026.jpg
964.009	0.569	1	2back	Block2	2back/STIM_026.jpg
967.792	0.928	0	2back	Block2	2back/STIM_027.jpg
970.907	0.705	0	2back	Block2	2back/STIM_027.jpg
974.286	0.499	1	2back	Block2	2back/STIM_027.jpg
977.531	0.538	1	2back	Block2	2back/STIM_028.jpg
980.424	0.825	1	2back	Block2	2back/STIM_028.jpg
984.111	0.424	1	2back	Block2	2back/STIM_028.jpg
987.355	0.433	1	2back	Block2	2back/STIM_029.jpg
991.17	0.506	1	2back	Block2	2back/STIM_029.jpg
994.858	0.87	1	2back	Block2	2back/STIM_029.jpg
998.538	0.653	1	2back	Block2	2back/STIM_030.jpg
1002.268	0.865	1	2back	Block2	2back/STIM_030.jpg
1006.587	0.504	0	2back	Block2	2back/STIM_030.jpg
1009.893	0.64	1	2back	Block2	2back/STIM_031.jpg
1014.253	0.761	1	2back	Block2	2back/STIM_031.jpg
1017.236	0.863	0	2back	Block2	2back/STIM_031.jpg
1021.603	0.941	0	2back	Block2	2back/STIM_032.jpg
1024.911	0.712	1	2back	Block2	2back/STIM_032.jpg
1029.238	0.63	1	2back	Block2	2back/STIM_032.jpg
1032.349	0.706	1	2back	Block2	2back/STIM_033.jpg
1036.913	0.698	1	2back	Block2	2back/STIM_033.jpg
1041.574	0.423	1	2back	Block2	2back/STIM_033.jpg
1045.605	0.65	1	2back	Block2	2back/STIM_034.jpg
1048.457	0.739	1	2back	Block2	2back/STIM_034.jpg
1051.303	0.488	1	2back	Block2	2back/STIM_034.jpg
1055.569	0.915	1	2back	Block2	2back/STIM_035.jpg
1060.241	0.569	1	2back	Block2	2back/STIM_035.jpg
1063.671	0.746	0	2back	Block2	2back/STIM_035.jpg
1068.323	0.893	1	2back	Block2	2back/STIM_036.jpg
1071.249	0.449	1	2back	Block2	2back/STIM_036.jpg
1074.74	0.672	0	2back	Block2	2back/STIM_036.jpg
1078.635	0.868	1	2back	Block2	2back/STIM_037.jpg
1082.431	0.681	0	2back	Block2	2back/STIM_037.jpg
1086.527	0.592	1	2back	Block2	2back/STIM_037.jpg
1089.212	0.676	1	2back	Block2	2back/STIM_038.jpg
1093.797	0.798	1	2back	Block2	2back/STIM_038.jpg
1097.517	0.584	1	2back	Block2	2back/STIM_038.jpg
1101.555	0.684	1	2back	Block2	2back/STIM_039.jpg
1105.768	0.462	0	2back	Block2	2back/STIM_039.jpg
1109.053	0.886	1	2back	Block2	2back/STIM_039.jpg
1112.018	0.59	1	0back	Block2	0back/STIM_000.jpg
1115.217	0.584	1	0back	Block2	0back/STIM_000.jpg
1119.072	0.39	1	0back	Block2	0back/STIM_000.jpg
1123.358	0.354	1	0back	Block2	0back/STIM_001.jpg
1126.35	0.438	1	0back	Block2	0back/STIM_001.jpg
1130.192	0.372	1	0back	Block2	0back/STIM_001.jpg
1133.629	0.656	1	0back	Block2	0back/STIM_002.jpg
1137.552	0.503	1	0back	Block2	0back/STIM_002.jpg
1140.41	0.532	1	0back	Block2	0back/STIM_002.jpg
1143.183	0.428	1	0back	Block2	0back/STIM_003.jpg
1146.958	0.472	1	0back	Block2	0back/STIM_003.jpg
1150.383	0.374	0	0back	Block2	0back/STIM_003.jpg
1153.53	0.555	1	0back	Block2	0back/STIM_004.jpg
1156.33	0.371	1	0back	Block2	0back/STIM_004.jpg
1158.881	0.546	1	0back	Block2	0back/STIM_004.jpg
1161.633	0.564	1	0back	Block2	0back/STIM_005.jpg
1166.015	0.43	1	0back	Block2	0back/STIM_005.jpg
1169.746	0.414	1	0back	Block2	0back/STIM_005.jpg
1172.605	0.465	1	0back	Block2	0back/STIM_006.jpg
1175.627	0.655	1	0back	Block2	0back/STIM_006.jpg
1179.064	0.496	1	0back	Block2	0back/STIM_006.jpg
1181.579	0.662	1	0back	Block2	0back/STIM_007.jpg
1185.205	0.386	1	0back	Block2	0back/STIM_007.jpg
1189.512	0.653	1	0back	Block2	0back/STIM_007.jpg
1192.271	0.411	1	0back	Block2	0back/STIM_008.jpg
1196.028	0.494	1	0back	Block2	0back/STIM_008.jpg
1198.631	0.498	1	0back	Block2	0back/STIM_008.jpg
1202.802	0.469	1	0back	Block2	0back/STIM_009.jpg
1206.599	0.65	0	0back	Block2	0back/STIM_009.jpg
1209.903	0.658	1	0back	Block2	0back/STIM_009.jpg
1213.774	0.58	1	0back	Block2	0back/STIM_010.jpg
1216.771	0.648	1	0back	Block2	0back/STIM_010.jpg
1220.812	0.588	1	0back	Block2	0back/STIM_010.jpg
1223.559	0.374	1	0back	Block2	0back/STIM_011.jpg
1227.493	0.565	1	0back	Block2	0back/STIM_011.jpg
1230.584	0.557	1	0back	Block2	0back/STIM_011.jpg
1233.414	0.523	0	0back	Block2	0back/STIM_012.jpg
1237.065	0.415	1	0back	Block2	0back/STIM_012.jpg
1239.513	0.524	1	0back	Block2	0back/STIM_012.jpg
1243.74	0.668	1	0back	Block2	0back/STIM_013.jpg
1247.844	0.391	1	0back	Block2	0back/STIM_013.jpg
1252.069	0.627	1	0back	Block2	0back/STIM_013.jpg
1256.171	0.656	1	0back	Block2	0back/STIM_014.jpg
1259.419	0.453	1	0back	Block2	0back/STIM_014.jpg
1262.821	0.363	0	0back	Block2	0back/STIM_014.jpg
1266.196	0.63	1	0back	Block2	0back/STIM_015.jpg
1268.989	0.422	1	0back	Block2	0back/STIM_015.jpg
1272.166	0.394	1	0back	Block2	0back/STIM_015.jpg
1274.781	0.663	1	0back	Block2	0back/STIM_016.jpg
1278.719	0.63	1	0back	Block2	0back/STIM_016.jpg
1282.247	0.526	0	0back	Block2	0back/STIM_016.jpg
1285.068	0.601	1	0back	Block2	0back/STIM_017.jpg
1288.883	0.591	1	0back	Block2	0back/STIM_017.jpg
1291.601	0.426	1	0back	Block2	0back/STIM_017.jpg
1295.669	0.556	1	0back	Block2	0back/STIM_018.jpg
1299.625	0.409	1	0back	Block2	0back/STIM_018.jpg
1302.344	0.657	1	0back	Block2	0back/STIM_018.jpg
1306.779	0.422	1	0back	Block2	0back/STIM_019.jpg
1310.555	0.383	1	0back	Block2	0back/STIM_019.jpg
1314.422	0.382	1	0back	Block2	0back/STIM_019.jpg
1318.369	0.729	1	2back	Block3	2back/STIM_000.jpg
1322.442	0.8	0	2back	Block3	2back/STIM_000.jpg
1325.712	0.702	1	2back	Block3	2back/STIM_000.jpg
1329.405	0.741	1	2back	Block3	2back/STIM_001.jpg
1334.097	0.743	1	2back	Block3	2back/STIM_001.jpg
1336.868	0.777	1	2back	Block3	2back/STIM_001.jpg
1340.172	0.547	1	2back	Block3	2back/STIM_002.jpg
1343.515	0.802	1	2back	Block3	2back/STIM_002.jpg
1347.933	0.486	1	2back	Block3	2back/STIM_002.jpg
1351.946	0.506	0	2back	Block3	2back/STIM_003.jpg
1356.386	0.78	1	2back	Block3	2back/STIM_003.jpg
1359.513	0.618	1	2back	Block3	2back/STIM_003.jpg
1362.772	0.724	1	2back	Block3	2back/STIM_004.jpg
1366.744	0.675	1	2back	Block3	2back/STIM_004.jpg
1369.462	0.686	1	2back	Block3	2back/STIM_004.jpg
1373.561	0.734	1	2back	Block3	2back/STIM_005.jpg
1377.095	0.792	1	2back	Block3	2back/STIM_005.jpg
1380.531	0.474	1	2back	Block3	2back/STIM_005.jpg
1384.03	0.538	1	2back	Block3	2back/STIM_006.jpg
1387.963	0.469	1	2back	Block3	2back/STIM_006.jpg
1390.989	0.602	1	2back	Block3	2back/STIM_006.jpg
1395.521	0.405	1	2back	Block3	2back/STIM_007.jpg
1399.88	0.544	1	2back	Block3	2back/STIM_007.jpg
1403.942	0.587	1	2back	Block3	2back/STIM_007.jpg
1408.091	0.783	1	2back	Block3	2back/STIM_008.jpg
1410.874	0.554	1	2back	Block3	2back/STIM_008.jpg
1413.911	0.466	1	2back	Block3	2back/STIM_008.jpg
1416.591	0.583	1	2back	Block3	2back/STIM_009.jpg
1420.842	0.556	1	2back	Block3	2back/STIM_009.jpg
1424.138	0.75	1	2back	Block3	2back/STIM_009.jpg
1427.584	0.518	1	2back	Block3	2back/STIM_010.jpg
1430.905	0.382	1	2back	Block3	2back/STIM_010.jpg
1434.662	0.581	1	2back	Block3	2back/STIM_010.jpg
1437.292	0.698	1	2back	Block3	2back/STIM_011.jpg
1441.201	0.723	1	2back	Block3	2back/STIM_011.jpg
1443.932	0.468	1	2back	Block3	2back/STIM_011.jpg
1446.601	0.785	1	2back	Block3	2back/STIM_012.jpg
1450.059	0.764	1	2back	Block3	2back/STIM_012.jpg
1454.021	0.568	1	2back	Block3	2back/STIM_012.jpg
1457.726	0.788	1	2back	Block3	2back/STIM_013.jpg
1460.697	0.657	1	2back	Block3	2back/STIM_013.jpg
1463.535	0.651	1	2back	Block3	2back/STIM_013.jpg
1467.761	0.43	1	2back	Block3	2back/STIM_014.jpg
1471.526	0.816	1	2back	Block3	2back/STIM_014.jpg
1474.875	0.542	1	2back	Block3	2back/STIM_014.jpg
1479.154	0.426	1	2back	Block3	2back/STIM_015.jpg
1482.166	0.365	1	2back	Block3	2back/STIM_015.jpg
1484.766	0.702	1	2back	Block3	2back/STIM_015.jpg
1488.113	0.498	1	2back	Block3	2back/STIM_016.jpg
1491.107	0.575	1	2back	Block3	2back/STIM_016.jpg
1495.082	0.572	1	2back	Block3	2back/STIM_016.jpg
1498.867	0.582	1	2back	Block3	2back/STIM_017.jpg
1501.618	0.454	1	2back	Block3	2back/STIM_017.jpg
1504.688	0.384	1	2back	Block3	2back/STIM_017.jpg
1507.577	0.754	1	2back	Block3	2back/STIM_018.jpg
1512.271	0.689	1	2back	Block3	2back/STIM_018.jpg
1516.485	0.7	1	2back	Block3	2back/STIM_018.jpg
1520.293	0.587	0	2back	Block3	2back/STIM_019.jpg
1523.614	0.381	1	2back	Block3	2back/STIM_019.jpg
1526.471	0.58	1	2back	Block3	2back/STIM_019.jpg
1530.486	0.709	1	2back	Block3	2back/STIM_020.jpg
1534.817	0.678	1	2back	Block3	2back/STIM_020.jpg
1539.3	0.434	1	2back	Block3	2back/STIM_020.jpg
1542.988	0.649	1	2back	Block3	2back/STIM_021.jpg
1546.615	0.648	1	2back	Block3	2back/STIM_021.jpg
1549.591	0.588	1	2back	Block3	2back/STIM_021.jpg
1553.409	0.723	0	2back	Block3	2back/STIM_022.jpg
1556.923	0.403	1	2back	Block3	2back/STIM_022.jpg
1559.48	0.485	1	2back	Block3	2back/STIM_022.jpg
1562.564	0.651	1	2back	Block3	2back/STIM_023.jpg
1565.249	0.495	1	2back	Block3	2back/STIM_023.jpg
1568.699	0.552	1	2back	Block3	2back/STIM_023.jpg
1573.161	0.576	1	2back	Block3	2back/STIM_024.jpg
1576.857	0.818	1	2back	Block3	2back/STIM_024.jpg
1580.585	0.584	1	2back	Block3	2back/STIM_024.jpg
1584.954	0.676	0	2back	Block3	2back/STIM_025.jpg
1588.413	0.724	1	2back	Block3	2back/STIM_025.jpg
1591.731	0.42	1	2back	Block3	2back/STIM_025.jpg
1594.858	0.782	1	2back	Block3	2back/STIM_026.jpg
1598.355	0.656	1	2back	Block3	2back/STIM_026.jpg
1602.839	0.369	1	2back	Block3	2back/STIM_026.jpg
1606.951	0.362	1	2back	Block3	2back/STIM_027.jpg
1611.093	0.457	1	2back	Block3	2back/STIM_027.jpg
1614.971	0.495	1	2back	Block3	2back/STIM_027.jpg
1619.154	0.432	1	2back	Block3	2back/STIM_028.jpg
1621.757	0.38	1	2back	Block3	2back/STIM_028.jpg
1625.323	0.584	1	2back	Block3	2back/STIM_028.jpg
1628.342	0.469	1	2back	Block3	2back/STIM_029.jpg
1632.155	0.776	1	2back	Block3	2back/STIM_029.jpg
1636.831	0.532	1	2back	Block3	2back/STIM_029.jpg
1641.13	0.762	1	2back	Block3	2back/STIM_030.jpg
1645.445	0.803	1	2back	Block3	2back/STIM_030.jpg
1650.208	0.671	1	2back	Block3	2back/STIM_030.jpg
1654.022	0.55	1	2back	Block3	2back/STIM_031.jpg
1658.013	0.518	1	2back	Block3	2back/STIM_031.jpg
1661.643	0.694	1	2back	Block3	2back/STIM_031.jpg
1666.031	0.564	1	2back	Block3	2back/STIM_032.jpg
1669.693	0.634	0	2back	Block3	2back/STIM_032.jpg
1673.875	0.407	1	2back	Block3	2back/STIM_032.jpg
1677.128	0.735	0	2back	Block3	2back/STIM_033.jpg
1681.861	0.53	1	2back	Block3	2back/STIM_033.jpg
1686.34	0.423	1	2back	Block3	2back/STIM_033.jpg
1689.925	0.731	1	2back	Block3	2back/STIM_034.jpg
1693.921	0.432	1	2back	Block3	2back/STIM_034.jpg
1696.593	0.808	1	2back	Block3	2back/STIM_034.jpg
1701.161	0.386	1	2back	Block3	2back/STIM_035.jpg
1704.825	0.439	1	2back	Block3	2back/STIM_035.jpg
1708.045	0.434	1	2back	Block3	2back/STIM_035.jpg
1711.454	0.629	1	2back	Block3	2back/STIM_036.jpg
1714.63	0.766	1	2back	Block3	2back/STIM_036.jpg
1718.113	0.376	1	2back	Block3	2back/STIM_036.jpg
1721.365	0.731	1	2back	Block3	2back/STIM_037.jpg
1725.386	0.563	1	2back	Block3	2back/STIM_037.jpg
1729.02	0.388	1	2back	Block3	2back/STIM_037.jpg
1732.33	0.713	1	2back	Block3	2back/STIM_038.jpg
1736.14	0.38	1	2back	Block3	2back/STIM_038.jpg
1739.972	0.532	1	2back	Block3	2back/STIM_038.jpg
1743.675	0.376	1	2back	Block3	2back/STIM_039.jpg
1747.131	0.815	1	2back	Block3	2back/STIM_039.jpg
1751.364	0.69	1	2back	Block3	2back/STIM_039.jpg
1754.677	0.476	1	0back	Block3	0back/STIM_000.jpg
1759.121	0.422	1	0back	Block3	0back/STIM_000.jpg
1761.683	0.576	1	0back	Block3	0back/STIM_000.jpg
1766.224	0.492	1	0back	Block3	0back/STIM_001.jpg
1768.91	0.403	1	0back	Block3	0back/STIM_001.jpg
1773.077	0.438	0	0back	Block3	0back/STIM_001.jpg
1775.542	0.408	1	0back	Block3	0back/STIM_002.jpg
1778.416	0.625	1	0back	Block3	0back/STIM_002.jpg
1781.696	0.382	1	0back	Block3	0back/STIM_002.jpg
1784.2	0.578	1	0back	Block3	0back/STIM_003.jpg
1787.51	0.361	1	0back	Block3	0back/STIM_003.jpg
1791.411	0.428	1	0back	Block3	0back/STIM_003.jpg
1794.008	0.591	1	0back	Block3	0back/STIM_004.jpg
1797.508	0.391	1	0back	Block3	0back/STIM_004.jpg
1800.724	0.557	1	0back	Block3	0back/STIM_004.jpg
1804.356	0.37	1	0back	Block3	0back/STIM_005.jpg
1808.339	0.368	1	0back	Block3	0back/STIM_005.jpg
1811.324	0.573	1	0back	Block3	0back/STIM_005.jpg
1815.256	0.37	0	0back	Block3	0back/STIM_006.jpg
1819.062	0.519	1	0back	Block3	0back/STIM_006.jpg
1822.598	0.346	1	0back	Block3	0back/STIM_006.jpg
1826.931	0.484	1	0back	Block3	0back/STIM_007.jpg
1830.777	0.455	0	0back	Block3	0back/STIM_007.jpg
1834.096	0.604	1	0back	Block3	0back/STIM_007.jpg
1837.967	0.578	0	0back	Block3	0back/STIM_008.jpg
1841.844	0.474	1	0back	Block3	0back/STIM_008.jpg
1844.409	0.48	1	0back	Block3	0back/STIM_008.jpg
1847.501	0.579	1	0back	Block3	0back/STIM_009.jpg
1851.476	0.635	1	0back	Block3	0back/STIM_009.jpg
1854.753	0.672	1	0back	Block3	0back/STIM_009.jpg
1858.866	0.502	1	0back	Block3	0back/STIM_010.jpg
1862.951	0.355	1	0back	Block3	0back/STIM_010.jpg
1865.314	0.458	1	0back	Block3	0back/STIM_010.jpg
1867.841	0.452	1	0back	Block3	0back/STIM_011.jpg
1871.744	0.356	1	0back	Block3	0back/STIM_011.jpg
1874.775	0.357	1	0back	Block3	0back/STIM_011.jpg
1877.499	0.346	1	0back	Block3	0back/STIM_012.jpg
1880.551	0.63	1	0back	Block3	0back/STIM_012.jpg
1885.161	0.652	1	0back	Block3	0back/STIM_012.jpg
1888.8	0.568	1	0back	Block3	0back/STIM_013.jpg
1892.022	0.61	1	0back	Block3	0back/STIM_013.jpg
1896.242	0.588	1	0back	Block3	0back/STIM_013.jpg
1899.461	0.573	1	0back	Block3	0back/STIM_014.jpg
1902.957	0.349	1	0back	Block3	0back/STIM_014.jpg
1905.346	0.343	1	0back	Block3	0back/STIM_014.jpg
1909.265	0.666	1	0back	Block3	0back/STIM_015.jpg
1913.094	0.411	1	0back	Block3	0back/STIM_015.jpg
1915.714	0.469	1	0back	Block3	0back/STIM_015.jpg
1919.594	0.351	1	0back	Block3	0back/STIM_016.jpg
1923.443	0.653	1	0back	Block3	0back/STIM_016.jpg
1926.852	0.67	1	0back	Block3	0back/STIM_016.jpg
1930.457	0.644	1	0back	Block3	0back/STIM_017.jpg
1933.298	0.644	0	0back	Block3	0back/STIM_017.jpg
1937.337	0.445	0	0back	Block3	0back/STIM_017.jpg
1940.561	0.657	1	0back	Block3	0back/STIM_018.jpg
1944.565	0.348	1	0back	Block3	0back/STIM_018.jpg
1947.137	0.362	1	0back	Block3	0back/STIM_018.jpg
1950.376	0.466	1	0back	Block3	0back/STIM_019.jpg
1954.491	0.417	1	0back	Block3	0back/STIM_019.jpg
1958.091	0.667	1	0back	Block3	0back/STIM_019.jpg
1961.597	0.515	1	2back	Block4	2back/STIM_000.jpg
1965.804	0.499	1	2back	Block4	2back/STIM_000.jpg
1969.742	0.478	1	2back	Block4	2back/STIM_000.jpg
1972.691	0.631	1	2back	Block4	2back/STIM_001.jpg
1975.845	0.654	1	2back	Block4	2back/STIM_001.jpg
1980.309	0.716	1	2back	Block4	2back/STIM_001.jpg
1984.43	0.386	1	2back	Block4	2back/STIM_002.jpg
1987.864	0.433	1	2back	Block4	2back/STIM_002.jpg
1991.713	0.531	1	2back	Block4	2back/STIM_002.jpg
1995.201	0.512	1	2back	Block4	2back/STIM_003.jpg
1998.778	0.631	1	2back	Block4	2back/STIM_003.jpg
2002.418	0.738	1	2back	Block4	2back/STIM_003.jpg
2005.235	0.516	1	2back	Block4	2back/STIM_004.jpg
2008.325	0.628	1	2back	Block4	2back/STIM_004.jpg
2012.358	0.688	1	2back	Block4	2back/STIM_004.jpg
2016.99	0.467	1	2back	Block4	2back/STIM_005.jpg
2020.252	0.548	1	2back	Block4	2back/STIM_005.jpg
2024.162	0.389	1	2back	Block4	2back/STIM_005.jpg
2026.662	0.702	1	2back	Block4	2back/STIM_006.jpg
2029.598	0.72	1	2back	Block4	2back/STIM_006.jpg
2032.848	0.525	1	2back	Block4	2back/STIM_006.jpg
2036.478	0.434	1	2back	Block4	2back/STIM_007.jpg
2039.622	0.802	1	2back	Block4	2back/STIM_007.jpg
2042.607	0.595	1	2back	Block4	2back/STIM_007.jpg
2047.058	0.476	1	2back	Block4	2back/STIM_008.jpg
2051.224	0.807	1	2back	Block4	2back/STIM_008.jpg
2055.385	0.741	1	2back	Block4	2back/STIM_008.jpg
2059.485	0.645	1	2back	Block4	2back/STIM_009.jpg
2063.377	0.534	1	2back	Block4	2back/STIM_009.jpg
2067.088	0.467	1	2back	Block4	2back/STIM_009.jpg
2071.278	0.416	1	2back	Block4	2back/STIM_010.jpg
2074.995	0.698	1	2back	Block4	2back/STIM_010.jpg
2079.173	0.452	1	2back	Block4	2back/STIM_010.jpg
2083.486	0.365	1	2back	Block4	2back/STIM_011.jpg
2085.951	0.666	1	2back	Block4	2back/STIM_011.jpg
2089.342	0.801	1	2back	Block4	2back/STIM_011.jpg
2092.95	0.674	1	2back	Block4	2back/STIM_012.jpg
2096.146	0.518	1	2back	Block4	2back/STIM_012.jpg
2098.746	0.735	1	2back	Block4	2back/STIM_012.jpg
2102.451	0.48	1	2back	Block4	2back/STIM_013.jpg
2105.631	0.476	1	2back	Block4	2back/STIM_013.jpg
2108.125	0.593	1	2back	Block4	2back/STIM_013.jpg
2110.838	0.624	1	2back	Block4	2back/STIM_014.jpg
2115.115	0.512	1	2back	Block4	2back/STIM_014.jpg
2119.12	0.461	1	2back	Block4	2back/STIM_014.jpg
2121.751	0.452	1	2back	Block4	2back/STIM_015.jpg
2125.501	0.758	1	2back	Block4	2back/STIM_015.jpg
2128.887	0.609	1	2back	Block4	2back/STIM_015.jpg
2132.3	0.624	1	2back	Block4	2back/STIM_016.jpg
2135.851	0.76	1	2back	Block4	2back/STIM_016.jpg
2139.507	0.825	1	2back	Block4	2back/STIM_016.jpg
2143.134	0.479	1	2back	Block4	2back/STIM_017.jpg
2147.424	0.372	1	2back	Block4	2back/STIM_017.jpg
2150.419	0.467	1	2back	Block4	2back/STIM_017.jpg
2154.534	0.699	1	2back	Block4	2back/STIM_018.jpg
2158.246	0.741	1	2back	Block4	2back/STIM_018.jpg
2161.864	0.748	1	2back	Block4	2back/STIM_018.jpg
2165.669	0.794	1	2back	Block4	2back/STIM_019.jpg
2170.272	0.408	1	2back	Block4	2back/STIM_019.jpg
2173.144	0.396	1	2back	Block4	2back/STIM_019.jpg
2177.213	0.614	1	2back	Block4	2back/STIM_020.jpg
2179.877	0.749	1	2back	Block4	2back/STIM_020.jpg
2184.116	0.538	1	2back	Block4	2back/STIM_020.jpg
2187.604	0.711	1	2back	Block4	2back/STIM_021.jpg
2191.843	0.661	1	2back	Block4	2back/STIM_021.jpg
2195.961	0.423	1	2back	Block4	2back/STIM_021.jpg
2199.608	0.512	1	2back	Block4	2back/STIM_022.jpg
2203.56	0.358	1	2back	Block4	2back/STIM_022.jpg
2206.476	0.602	1	2back	Block4	2back/STIM_022.jpg
2210.765	0.476	1	2back	Block4	2back/STIM_023.jpg
2213.495	0.698	1	2back	Block4	2back/STIM_023.jpg
2218.15	0.372	1	2back	Block4	2back/STIM_023.jpg
2220.986	0.662	1	2back	Block4	2back/STIM_024.jpg
2225.138	0.741	1	2back	Block4	2back/STIM_024.jpg
2228.747	0.541	1	2back	Block4	2back/STIM_024.jpg
2231.567	0.698	0	2back	Block4	2back/STIM_025.jpg
2235.378	0.506	1	2back	Block4	2back/STIM_025.jpg
2238.03	0.594	1	2back	Block4	2back/STIM_025.jpg
2241.187	0.493	1	2back	Block4	2back/STIM_026.jpg
2245.535	0.531	1	2back	Block4	2back/STIM_026.jpg
2248.948	0.376	1	2back	Block4	2back/STIM_026.jpg
2253.149	0.718	1	2back	Block4	2back/STIM_027.jpg
2255.977	0.613	0	2back	Block4	2back/STIM_027.jpg
2260.556	0.486	1	2back	Block4	2back/STIM_027.jpg
2263.952	0.751	1	2back	Block4	2back/STIM_028.jpg
2267.817	0.508	1	2back	Block4	2back/STIM_028.jpg
2271.525	0.57	0	2back	Block4	2back/STIM_028.jpg
2275.112	0.769	1	2back	Block4	2back/STIM_029.jpg
2279.63	0.802	1	2back	Block4	2back/STIM_029.jpg
2282.598	0.442	1	2back	Block4	2back/STIM_029.jpg
2286.644	0.809	1	2back	Block4	2back/STIM_030.jpg
2289.737	0.793	1	2back	Block4	2back/STIM_030.jpg
2293.394	0.404	1	2back	Block4	2back/STIM_030.jpg
2296.78	0.758	1	2back	Block4	2back/STIM_031.jpg
2301.131	0.529	1	2back	Block4	2back/STIM_031.jpg
2304.768	0.678	1	2back	Block4	2back/STIM_031.jpg
2307.508	0.444	1	2back	Block4	2back/STIM_032.jpg
2310.153	0.6	1	2back	Block4	2back/STIM_032.jpg
2314.439	0.778	1	2back	Block4	2back/STIM_032.jpg
2318.569	0.7	1	2back	Block4	2back/STIM_033.jpg
2322.884	0.37	1	2back	Block4	2back/STIM_033.jpg
2327.189	0.465	1	2back	Block4	2back/STIM_033.jpg
2330.57	0.355	1	2back	Block4	2back/STIM_034.jpg
2333.16	0.429	0	2back	Block4	2back/STIM_034.jpg
2335.646	0.613	1	2back	Block4	2back/STIM_034.jpg
2339.696	0.698	1	2back	Block4	2back/STIM_035.jpg
2344.106	0.413	1	2back	Block4	2back/STIM_035.jpg
2347.27	0.383	1	2back	Block4	2back/STIM_035.jpg
2350.03	0.804	1	2back	Block4	2back/STIM_036.jpg
2354.404	0.478	1	2back	Block4	2back/STIM_036.jpg
2358.301	0.736	1	2back	Block4	2back/STIM_036.jpg
2362.652	0.597	1	2back	Block4	2back/STIM_037.jpg
2365.394	0.517	1	2back	Block4	2back/STIM_037.jpg
2368.288	0.418	1	2back	Block4	2back/STIM_037.jpg
2372.044	0.8	1	2back	Block4	2back/STIM_038.jpg
2376.092	0.524	1	2back	Block4	2back/STIM_038.jpg
2379.148	0.63	1	2back	Block4	2back/STIM_038.jpg
2383.372	0.701	1	2back	Block4	2back/STIM_039.jpg
2387.464	0.604	1	2back	Block4	2back/STIM_039.jpg
2391.457	0.664	1	2back	Block4	2back/STIM_039.jpg
2395.324	0.467	1	0back	Block4	0back/STIM_000.jpg
2397.914	0.48	1	0back	Block4	0back/STIM_000.jpg
2401.673	0.373	1	0back	Block4	0back/STIM_000.jpg
2405.768	0.421	1	0back	Block4	0back/STIM_001.jpg
2409.861	0.486	0	0back	Block4	0back/STIM_001.jpg
2413.162	0.498	1	0back	Block4	0back/STIM_001.jpg
2416.232	0.669	0	0back	Block4	0back/STIM_002.jpg
2420.08	0.62	1	0back	Block4	0back/STIM_002.jpg
2424.202	0.641	1	0back	Block4	0back/STIM_002.jpg
2427.432	0.414	1	0back	Block4	0back/STIM_003.jpg
2430.697	0.463	1	0back	Block4	0back/STIM_003.jpg
2434.577	0.455	1	0back	Block4	0back/STIM_003.jpg
2438.412	0.396	1	0back	Block4	0back/STIM_004.jpg
2441.364	0.531	1	0back	Block4	0back/STIM_004.jpg
2444.747	0.569	1	0back	Block4	0back/STIM_004.jpg
2448.603	0.367	0	0back	Block4	0back/STIM_005.jpg
2452.893	0.617	1	0back	Block4	0back/STIM_005.jpg
2455.944	0.359	1	0back	Block4	0back/STIM_005.jpg
2460.174	0.338	1	0back	Block4	0back/STIM_006.jpg
2463.808	0.462	1	0back	Block4	0back/STIM_006.jpg
2466.306	0.413	1	0back	Block4	0back/STIM_006.jpg
2470.247	0.345	1	0back	Block4	0back/STIM_007.jpg
2472.701	0.366	1	0back	Block4	0back/STIM_007.jpg
2476.987	0.414	1	0back	Block4	0back/STIM_007.jpg
2480.367	0.366	1	0back	Block4	0back/STIM_008.jpg
2484.467	0.508	1	0back	Block4	0back/STIM_008.jpg
2488.028	0.452	1	0back	Block4	0back/STIM_008.jpg
2491.088	0.554	1	0back	Block4	0back/STIM_009.jpg
2493.767	0.671	1	0back	Block4	0back/STIM_009.jpg
2498.406	0.348	1	0back	Block4	0back/STIM_009.jpg
2502.734	0.609	1	0back	Block4	0back/STIM_010.jpg
2506.063	0.507	1	0back	Block4	0back/STIM_010.jpg
2509.715	0.539	1	0back	Block4	0back/STIM_010.jpg
2512.376	0.579	1	0back	Block4	0back/STIM_011.jpg
2516.646	0.563	1	0back	Block4	0back/STIM_011.jpg
2520.391	0.613	1	0back	Block4	0back/STIM_011.jpg
2524.023	0.474	1	0back	Block4	0back/STIM_012.jpg
2528.39	0.464	1	0back	Block4	0back/STIM_012.jpg
2531.196	0.604	1	0back	Block4	0back/STIM_012.jpg
2534.859	0.512	1	0back	Block4	0back/STIM_013.jpg
2538.989	0.458	1	0back	Block4	0back/STIM_013.jpg
2542.498	0.661	1	0back	Block4	0back/STIM_013.jpg
2545.891	0.658	1	0back	Block4	0back/STIM_014.jpg
2549.978	0.615	1	0back	Block4	0back/STIM_014.jpg
2553.437	0.422	1	0back	Block4	0back/STIM_014.jpg
2557.244	0.426	1	0back	Block4	0back/STIM_015.jpg
2560.858	0.434	1	0back	Block4	0back/STIM_015.jpg
2564.033	0.403	1	0back	Block4	0back/STIM_015.jpg
2568.049	0.554	1	0back	Block4	0back/STIM_016.jpg
2571.586	0.665	1	0back	Block4	0back/STIM_016.jpg
2575.881	0.571	1	0back	Block4	0back/STIM_016.jpg
2579.554	0.52	1	0back	Block4	0back/STIM_017.jpg
2583.028	0.533	0	0back	Block4	0back/STIM_017.jpg
2585.985	0.459	1	0back	Block4	0back/STIM_017.jpg
2589.937	0.562	1	0back	Block4	0back/STIM_018.jpg
2592.844	0.445	1	0back	Block4	0back/STIM_018.jpg
2596.68	0.347	1	0back	Block4	0back/STIM_018.jpg
2599.538	0.385	1	0back	Block4	0back/STIM_019.jpg
2602.807	0.517	1	0back	Block4	0back/STIM_019.jpg
2606.776	0.358	1	0back	Block4	0back/STIM_019.jpg
