onset	duration	response_time_ms	trial_type	learning_stage	stimulus	response_port
0.0	1.76	1760.1	study	Phase1	study/STIM_000.jpg	99
4.516	1.123	1123.2	study	Phase1	study/STIM_000.jpg	99
8.285	1.509	1509.0	study	Phase1	study/STIM_000.jpg	100
13.751	1.285	1285.0	study	Phase1	study/STIM_001.jpg	100
18.806	0.857	857.3	study	Phase1	study/STIM_001.jpg	100
22.178	1.214	1214.3	study	Phase1	study/STIM_001.jpg	99
26.741	1.518	1517.8	study	Phase1	study/STIM_002.jpg	99
31.588	0.936	935.6	study	Phase1	study/STIM_002.jpg	100
35.432	1.42	1420.4	study	Phase1	study/STIM_002.jpg	99
40.796	1.395	1394.9	study	Phase1	study/STIM_003.jpg	99
44.509	1.141	1141.3	study	Phase1	study/STIM_003.jpg	100
48.266	0.885	885.2	study	Phase1	study/STIM_003.jpg	100
51.58	1.918	1918.4	study	Phase1	study/STIM_004.jpg	100
56.129	1.322	1322.0	study	Phase1	study/STIM_004.jpg	99
60.513	1.793	1792.6	study	Phase1	study/STIM_004.jpg	99
66.176	1.028	1027.6	study	Phase1	study/STIM_005.jpg	99
69.542	1.778	1778.2	study	Phase1	study/STIM_005.jpg	99
75.07	1.497	1497.3	study	Phase1	study/STIM_005.jpg	100
79.625	1.5	1500.0	study	Phase1	study/STIM_006.jpg	99
84.27	1.306	1305.6	study	Phase1	study/STIM_006.jpg	100
89.504	1.715	1715.2	study	Phase1	study/STIM_006.jpg	99
93.993	1.959	1959.1	study	Phase1	study/STIM_007.jpg	100
98.207	1.352	1351.7	study	Phase1	study/STIM_007.jpg	99
102.655	0.835	834.7	study	Phase1	study/STIM_007.jpg	100
107.095	1.294	1293.5	study	Phase1	study/STIM_008.jpg	99
111.526	0.87	869.7	study	Phase1	study/STIM_008.jpg	100
115.03	1.173	1172.7	study	Phase1	study/STIM_008.jpg	100
119.959	1.655	1655.4	study	Phase1	study/STIM_009.jpg	100
123.621	1.036	1035.9	study	Phase1	study/STIM_009.jpg	100
128.327	1.028	1028.1	study	Phase1	study/STIM_009.jpg	99
132.209	1.927	1927.2	study	Phase1	study/STIM_010.jpg	99
137.602	1.598	1597.5	study	Phase1	study/STIM_010.jpg	100
143.168	1.786	1786.1	study	Phase1	study/STIM_010.jpg	99
147.621	1.77	1770.4	study	Phase1	study/STIM_011.jpg	99
152.959	1.165	1164.9	study	Phase1	study/STIM_011.jpg	99
156.494	1.023	1022.8	study	Phase1	study/STIM_011.jpg	99
160.938	1.231	1231.2	study	Phase1	study/STIM_012.jpg	99
165.767	1.814	1814.4	study	Phase1	study/STIM_012.jpg	99
169.951	1.262	1261.8	study	Phase1	study/STIM_012.jpg	100
174.637	1.334	1334.1	study	Phase1	study/STIM_013.jpg	100
179.126	1.565	1565.2	study	Phase1	study/STIM_013.jpg	99
183.981	1.316	1316.5	study	Phase1	study/STIM_013.jpg	99
187.417	1.114	1114.0	study	Phase1	study/STIM_014.jpg	99
192.052	1.18	1180.5	study	Phase1	study/STIM_014.jpg	99
196.228	1.013	1012.6	study	Phase1	study/STIM_014.jpg	99
200.685	0.932	931.9	study	Phase1	study/STIM_015.jpg	100
204.954	1.245	1244.8	study	Phase1	study/STIM_015.jpg	100
208.502	1.392	1392.2	study	Phase1	study/STIM_015.jpg	100
212.12	1.116	1115.6	study	Phase1	study/STIM_016.jpg	100
215.483	1.783	1782.6	study	Phase1	study/STIM_016.jpg	99
220.734	1.587	1587.4	study	Phase1	study/STIM_016.jpg	99
225.409	1.8	1800.0	study	Phase1	study/STIM_017.jpg	100
230.683	1.296	1295.6	study	Phase1	study/STIM_017.jpg	100
235.673	1.136	1136.3	study	Phase1	study/STIM_017.jpg	100
239.025	1.46	1460.2	study	Phase1	study/STIM_018.jpg	99
243.267	1.532	1532.0	study	Phase1	study/STIM_018.jpg	99
247.651	1.227	1226.6	study	Phase1	study/STIM_018.jpg	100
252.333	1.401	1400.8	study	Phase1	study/STIM_019.jpg	99
257.382	1.33	1330.1	study	Phase1	study/STIM_019.jpg	100
261.066	1.398	1397.5	study	Phase1	study/STIM_019.jpg	99
264.662	1.886	1885.8	study	Phase1	study/STIM_020.jpg	100
269.629	1.395	1395.3	study	Phase1	study/STIM_020.jpg	99
274.196	1.677	1677.0	study	Phase1	study/STIM_020.jpg	99
279.111	1.311	1310.9	study	Phase1	study/STIM_021.jpg	100
283.828	1.408	1407.6	study	Phase1	study/STIM_021.jpg	99
288.45	1.694	1694.3	study	Phase1	study/STIM_021.jpg	99
292.286	1.979	1978.7	study	Phase1	study/STIM_022.jpg	99
297.089	0.878	877.7	study	Phase1	study/STIM_022.jpg	100
301.556	1.412	1412.0	study	Phase1	study/STIM_022.jpg	99
306.225	1.643	1642.8	study	Phase1	study/STIM_023.jpg	99
310.681	1.406	1406.5	study	Phase1	study/STIM_023.jpg	100
314.629	1.406	1406.0	study	Phase1	study/STIM_023.jpg	100
318.136	1.064	1064.1	study	Phase1	study/STIM_024.jpg	100
322.298	0.974	974.2	study	Phase1	study/STIM_024.jpg	99
326.74	1.437	1436.7	study	Phase1	study/STIM_024.jpg	100
331.16	1.715	1714.6	study	Phase1	study/STIM_025.jpg	100
335.376	1.754	1754.2	study	Phase1	study/STIM_025.jpg	100
340.593	1.777	1777.0	study	Phase1	study/STIM_025.jpg	100
344.67	1.898	1898.2	study	Phase1	study/STIM_026.jpg	99
349.745	1.132	1131.8	study	Phase1	study/STIM_026.jpg	100
353.649	0.992	991.5	study	Phase1	study/STIM_026.jpg	100
357.046	1.346	1345.7	study	Phase1	study/STIM_027.jpg	99
361.73	1.535	1535.1	study	Phase1	study/STIM_027.jpg	99
365.643	1.249	1249.4	study	Phase1	study/STIM_027.jpg	100
369.298	1.562	1562.3	study	Phase1	study/STIM_028.jpg	99
373.514	1.067	1066.7	study	Phase1	study/STIM_028.jpg	99
378.342	1.745	1744.8	study	Phase1	study/STIM_028.jpg	99
383.275	1.964	1963.8	study	Phase1	study/STIM_029.jpg	99
387.329	1.243	1242.8	study	Phase1	study/STIM_029.jpg	100
391.954	1.1	1099.5	study	Phase1	study/STIM_029.jpg	99
396.923	1.443	1443.3	test	Phase1	test/STIM_000.jpg	100
400.917	1.012	1011.7	test	Phase1	test/STIM_000.jpg	100
404.405	0.718	717.6	test	Phase1	test/STIM_000.jpg	99
408.182	1.369	1368.7	test	Phase1	test/STIM_001.jpg	100
411.622	1.283	1283.2	test	Phase1	test/STIM_001.jpg	99
415.159	1.108	1107.7	test	Phase1	test/STIM_001.jpg	100
418.87	1.128	1128.2	test	Phase1	test/STIM_002.jpg	100
422.985	1.284	1283.8	test	Phase1	test/STIM_002.jpg	99
427.266	1.094	1093.6	test	Phase1	test/STIM_002.jpg	99
431.087	1.068	1068.0	test	Phase1	test/STIM_003.jpg	100
435.255	0.754	753.6	test	Phase1	test/STIM_003.jpg	99
439.042	0.98	980.5	test	Phase1	test/STIM_003.jpg	99
442.356	1.282	1281.6	test	Phase1	test/STIM_004.jpg	99
446.008	1.329	1329.3	test	Phase1	test/STIM_004.jpg	99
450.692	0.956	955.9	test	Phase1	test/STIM_004.jpg	99
453.764	0.864	863.8	test	Phase1	test/STIM_005.jpg	99
458.057	1.149	1149.1	test	Phase1	test/STIM_005.jpg	100
462.324	0.904	904.3	test	Phase1	test/STIM_005.jpg	99
465.38	0.76	760.1	test	Phase1	test/STIM_006.jpg	99
470.091	0.86	859.6	test	Phase1	test/STIM_006.jpg	100
473.684	0.694	693.6	test	Phase1	test/STIM_006.jpg	99
477.621	0.848	847.5	test	Phase1	test/STIM_007.jpg	99
481.202	0.845	844.9	test	Phase1	test/STIM_007.jpg	100
484.365	1.412	1412.3	test	Phase1	test/STIM_007.jpg	100
489.408	1.072	1072.1	test	Phase1	test/STIM_008.jpg	100
492.756	0.831	831.4	test	Phase1	test/STIM_008.jpg	99
495.855	0.876	875.6	test	Phase1	test/STIM_008.jpg	99
500.226	0.908	907.9	test	Phase1	test/STIM_009.jpg	99
504.603	1.312	1311.6	test	Phase1	test/STIM_009.jpg	99
509.396	1.113	1112.9	test	Phase1	test/STIM_009.jpg	100
513.89	1.245	1244.7	test	Phase1	test/STIM_010.jpg	100
517.42	0.956	955.6	test	Phase1	test/STIM_010.jpg	99
520.681	0.951	951.2	test	Phase1	test/STIM_010.jpg	100
524.133	1.044	1044.5	test	Phase1	test/STIM_011.jpg	100
527.406	0.955	955.4	test	Phase1	test/STIM_011.jpg	99
531.414	1.159	1159.1	test	Phase1	test/STIM_011.jpg	100
535.745	1.047	1046.6	test	Phase1	test/STIM_012.jpg	100
538.84	1.328	1328.5	test	Phase1	test/STIM_012.jpg	100
543.228	1.018	1017.6	test	Phase1	test/STIM_012.jpg	100
546.272	0.777	776.9	test	Phase1	test/STIM_013.jpg	100
549.217	0.705	704.6	test	Phase1	test/STIM_013.jpg	99
552.29	1.132	1131.5	test	Phase1	test/STIM_013.jpg	100
555.994	1.174	1174.1	test	Phase1	test/STIM_014.jpg	100
560.084	0.966	965.9	test	Phase1	test/STIM_014.jpg	100
564.91	0.961	960.7	test	Phase1	test/STIM_014.jpg	100
569.344	0.915	914.7	test	Phase1	test/STIM_015.jpg	100
573.346	1.439	1438.9	test	Phase1	test/STIM_015.jpg	99
577.605	0.722	722.1	test	Phase1	test/STIM_015.jpg	100
580.709	1.148	1147.6	test	Phase1	test/STIM_016.jpg	100
585.746	0.732	731.7	test	Phase1	test/STIM_016.jpg	100
589.579	1.4	1400.1	test	Phase1	test/STIM_016.jpg	100
593.069	0.823	823.2	test	Phase1	test/STIM_017.jpg	100
597.768	1.261	1261.3	test	Phase1	test/STIM_017.jpg	100
601.908	1.018	1017.5	test	Phase1	test/STIM_017.jpg	100
606.366	1.041	1041.4	test	Phase1	test/STIM_018.jpg	100
610.457	1.07	1070.5	test	Phase1	test/STIM_018.jpg	99
615.116	1.135	1134.7	test	Phase1	test/STIM_018.jpg	100
620.003	1.27	1269.6	test	Phase1	test/STIM_019.jpg	99
624.499	1.064	1064.2	test	Phase1	test/STIM_019.jpg	99
628.889	1.383	1383.3	test	Phase1	test/STIM_019.jpg	100
632.613	1.027	1027.4	test	Phase1	test/STIM_020.jpg	100
637.12	1.19	1190.5	test	Phase1	test/STIM_020.jpg	99
641.178	0.975	974.7	test	Phase1	test/STIM_020.jpg	100
645.985	0.957	956.6	test	Phase1	test/STIM_021.jpg	99
649.857	1.184	1184.5	test	Phase1	test/STIM_021.jpg	100
654.201	0.987	986.7	test	Phase1	test/STIM_021.jpg	100
657.256	1.375	1374.7	test	Phase1	test/STIM_022.jpg	99
661.711	0.965	965.1	test	Phase1	test/STIM_022.jpg	100
666.602	0.717	717.3	test	Phase1	test/STIM_022.jpg	99
671.018	1.023	1023.1	test	Phase1	test/STIM_023.jpg	99
674.783	1.086	1085.8	test	Phase1	test/STIM_023.jpg	100
679.049	1.007	1006.7	test	Phase1	test/STIM_023.jpg	100
683.272	0.773	773.2	test	Phase1	test/STIM_024.jpg	99
686.091	0.948	948.3	test	Phase1	test/STIM_024.jpg	99
689.204	1.198	1198.0	test	Phase1	test/STIM_024.jpg	100
693.727	0.851	850.7	test	Phase1	test/STIM_025.jpg	99
697.337	0.677	676.8	test	Phase1	test/STIM_025.jpg	100
701.449	0.855	855.0	test	Phase1	test/STIM_025.jpg	100
706.101	0.868	867.8	test	Phase1	test/STIM_026.jpg	99
710.651	1.213	1213.2	test	Phase1	test/STIM_026.jpg	99
714.972	1.206	1205.6	test	Phase1	test/STIM_026.jpg	99
719.823	0.851	850.8	test	Phase1	test/STIM_027.jpg	100
724.016	1.31	1310.0	test	Phase1	test/STIM_027.jpg	99
727.443	0.743	742.6	test	Phase1	test/STIM_027.jpg	100
731.57	1.393	1393.1	test	Phase1	test/STIM_028.jpg	99
736.099	1.324	1324.2	test	Phase1	test/STIM_028.jpg	99
741.307	1.142	1142.3	test	Phase1	test/STIM_028.jpg	99
745.896	1.216	1215.5	test	Phase1	test/STIM_029.jpg	100
749.706	1.124	1124.0	test	Phase1	test/STIM_029.jpg	99
753.233	1.3	1300.1	test	Phase1	test/STIM_029.jpg	100
758.236	1.267	1267.2	study	Phase2	study/STIM_000.jpg	99
763.187	1.375	1375.2	study	Phase2	study/STIM_000.jpg	100
767.565	1.357	1356.9	study	Phase2	study/STIM_000.jpg	99
771.458	0.774	773.7	study	Phase2	study/STIM_001.jpg	100
775.456	0.939	939.1	study	Phase2	study/STIM_001.jpg	100
778.535	0.986	986.4	study	Phase2	study/STIM_001.jpg	100
783.039	1.271	1271.1	study	Phase2	study/STIM_002.jpg	99
786.61	1.026	1025.8	study	Phase2	study/STIM_002.jpg	99
789.667	1.472	1472.1	study	Phase2	study/STIM_002.jpg	100
794.467	0.96	960.2	study	Phase2	study/STIM_003.jpg	99
799.204	0.97	970.0	study	Phase2	study/STIM_003.jpg	100
802.965	0.847	847.0	study	Phase2	study/STIM_003.jpg	100
806.962	1.6	1600.1	study	Phase2	study/STIM_004.jpg	100
811.241	1.155	1154.6	study	Phase2	study/STIM_004.jpg	100
816.359	1.167	1167.2	study	Phase2	study/STIM_004.jpg	100
820.097	1.305	1305.1	study	Phase2	study/STIM_005.jpg	100
824.418	1.555	1555.1	study	Phase2	study/STIM_005.jpg	99
828.429	0.799	799.2	study	Phase2	study/STIM_005.jpg	99
833.224	1.319	1319.2	study	Phase2	study/STIM_006.jpg	99
837.384	1.482	1482.0	study	Phase2	study/STIM_006.jpg	99
840.905	0.701	700.7	study	Phase2	study/STIM_006.jpg	99
844.447	1.675	1674.9	study	Phase2	study/STIM_007.jpg	100
850.014	1.133	1133.0	study	Phase2	study/STIM_007.jpg	99
853.733	1.128	1127.7	study	Phase2	study/STIM_007.jpg	100
858.215	0.974	973.9	study	Phase2	study/STIM_008.jpg	99
862.457	0.984	984.2	study	Phase2	study/STIM_008.jpg	100
866.202	1.189	1188.6	study	Phase2	study/STIM_008.jpg	99
870.259	0.778	777.9	study	Phase2	study/STIM_009.jpg	100
874.661	1.451	1451.0	study	Phase2	study/STIM_009.jpg	100
878.962	0.824	824.4	study	Phase2	study/STIM_009.jpg	100
882.939	1.165	1165.3	study	Phase2	study/STIM_010.jpg	99
888.013	0.835	834.6	study	Phase2	study/STIM_010.jpg	100
891.988	1.364	1364.4	study	Phase2	study/STIM_010.jpg	99
897.209	1.136	1136.2	study	Phase2	study/STIM_011.jpg	100
901.557	1.282	1282.4	study	Phase2	study/STIM_011.jpg	99
906.735	1.361	1361.0	study	Phase2	study/STIM_011.jpg	99
912.079	1.702	1701.8	study	Phase2	study/STIM_012.jpg	100
917.477	0.946	945.9	study	Phase2	study/STIM_012.jpg	99
922.132	1.138	1138.0	study	Phase2	study/STIM_012.jpg	100
926.935	1.121	1121.4	study	Phase2	study/STIM_013.jpg	100
931.111	1.133	1132.7	study	Phase2	study/STIM_013.jpg	100
935.201	1.224	1224.1	study	Phase2	study/STIM_013.jpg	99
938.645	0.799	799.2	study	Phase2	study/STIM_014.jpg	99
942.781	0.723	723.0	study	Phase2	study/STIM_014.jpg	100
945.807	1.055	1055.4	study	Phase2	study/STIM_014.jpg	100
949.968	1.334	1334.3	study	Phase2	study/STIM_015.jpg	100
954.216	1.439	1439.4	study	Phase2	study/STIM_015.jpg	100
958.897	1.311	1311.2	study	Phase2	study/STIM_015.jpg	100
962.652	1.0	999.6	study	Phase2	study/STIM_016.jpg	99
966.152	1.195	1195.0	study	Phase2	study/STIM_016.jpg	99
969.654	1.009	1009.4	study	Phase2	study/STIM_016.jpg	100
974.07	0.984	984.3	study	Phase2	study/STIM_017.jpg	99
978.988	1.272	1271.9	study	Phase2	study/STIM_017.jpg	99
983.29	0.951	951.4	study	Phase2	study/STIM_017.jpg	100
987.923	0.885	884.9	study	Phase2	study/STIM_018.jpg	99
992.075	1.128	1128.2	study	Phase2	study/STIM_018.jpg	100
995.526	1.4	1400.0	study	Phase2	study/STIM_018.jpg	100
999.646	0.866	865.9	study	Phase2	study/STIM_019.jpg	99
1003.214	1.152	1152.3	study	Phase2	study/STIM_019.jpg	99
1006.477	0.774	773.7	study	Phase2	study/STIM_019.jpg	99
1011.227	1.513	1512.6	study	Phase2	study/STIM_020.jpg	100
1015.378	0.842	841.6	study	Phase2	study/STIM_020.jpg	100
1020.034	1.499	1499.2	study	Phase2	study/STIM_020.jpg	100
1023.664	0.908	907.8	study	Phase2	study/STIM_021.jpg	100
1026.895	0.824	824.3	study	Phase2	study/STIM_021.jpg	100
1030.42	0.801	800.9	study	Phase2	study/STIM_021.jpg	100
1034.27	0.95	950.5	study	Phase2	study/STIM_022.jpg	100
1038.613	1.006	1006.4	study	Phase2	study/STIM_022.jpg	99
1043.405	1.442	1442.4	study	Phase2	study/STIM_022.jpg	99
1048.193	0.829	829.0	study	Phase2	study/STIM_023.jpg	100
1051.876	0.895	894.6	study	Phase2	study/STIM_023.jpg	99
1056.597	0.885	884.6	study	Phase2	study/STIM_023.jpg	99
1059.873	1.409	1408.9	study	Phase2	study/STIM_024.jpg	99
1063.409	0.869	868.7	study	Phase2	study/STIM_024.jpg	100
1066.783	1.494	1494.2	study	Phase2	study/STIM_024.jpg	100
1071.218	0.82	819.9	study	Phase2	study/STIM_025.jpg	99
1075.615	1.012	1011.5	study	Phase2	study/STIM_025.jpg	100
1079.082	1.336	1336.0	study	Phase2	study/STIM_025.jpg	99
1083.212	1.44	1440.4	study	Phase2	study/STIM_026.jpg	100
1087.717	0.902	901.6	study	Phase2	study/STIM_026.jpg	99
1091.483	1.041	1041.3	study	Phase2	study/STIM_026.jpg	100
1096.387	1.284	1283.5	study	Phase2	study/STIM_027.jpg	99
1101.625	1.04	1039.8	study	Phase2	study/STIM_027.jpg	100
1105.124	1.293	1292.9	study	Phase2	study/STIM_027.jpg	100
1108.728	1.19	1189.8	study	Phase2	study/STIM_028.jpg	100
1112.838	0.909	909.0	study	Phase2	study/STIM_028.jpg	99
1117.285	1.174	1173.7	study	Phase2	study/STIM_028.jpg	100
1120.853	1.59	1589.6	study	Phase2	study/STIM_029.jpg	100
1125.61	1.258	1257.6	study	Phase2	study/STIM_029.jpg	99
1128.981	0.926	926.1	study	Phase2	study/STIM_029.jpg	99
1133.045	0.995	994.8	test	Phase2	test/STIM_000.jpg	100
1136.339	0.815	814.9	test	Phase2	test/STIM_000.jpg	99
1139.642	0.84	840.4	test	Phase2	test/STIM_000.jpg	100
1143.995	0.997	996.8	test	Phase2	test/STIM_001.jpg	100
1148.018	0.886	885.8	test	Phase2	test/STIM_001.jpg	100
1152.67	0.822	822.4	test	Phase2	test/STIM_001.jpg	99
1157.383	1.272	1272.2	test	Phase2	test/STIM_002.jpg	99
1160.868	1.398	1397.6	test	Phase2	test/STIM_002.jpg	99
1164.995	0.928	927.7	test	Phase2	test/STIM_002.jpg	100
1168.125	0.889	889.2	test	Phase2	test/STIM_003.jpg	100
1172.952	1.087	1087.4	test	Phase2	test/STIM_003.jpg	100
1176.296	0.855	854.9	test	Phase2	test/STIM_003.jpg	99
1179.901	1.385	1384.8	test	Phase2	test/STIM_004.jpg	100
1184.477	1.383	1383.2	test	Phase2	test/STIM_004.jpg	100
1188.915	1.1	1100.0	test	Phase2	test/STIM_004.jpg	100
1192.852	1.33	1330.1	test	Phase2	test/STIM_005.jpg	100
1197.02	0.759	759.4	test	Phase2	test/STIM_005.jpg	100
1199.946	0.877	877.4	test	Phase2	test/STIM_005.jpg	99
1204.633	1.154	1153.6	test	Phase2	test/STIM_006.jpg	99
1208.262	0.781	781.2	test	Phase2	test/STIM_006.jpg	99
1212.839	1.318	1318.3	test	Phase2	test/STIM_006.jpg	99
1218.127	0.862	862.4	test	Phase2	test/STIM_007.jpg	99
1221.557	1.429	1429.2	test	Phase2	test/STIM_007.jpg	99
1225.717	1.041	1040.6	test	Phase2	test/STIM_007.jpg	99
1229.309	1.036	1035.9	test	Phase2	test/STIM_008.jpg	99
1233.892	1.016	1015.5	test	Phase2	test/STIM_008.jpg	99
1237.17	1.348	1347.5	test	Phase2	test/STIM_008.jpg	100
1240.651	1.253	1253.0	test	Phase2	test/STIM_009.jpg	99
1245.377	0.934	933.8	test	Phase2	test/STIM_009.jpg	100
1248.912	1.092	1092.3	test	Phase2	test/STIM_009.jpg	99
1253.347	1.026	1026.5	test	Phase2	test/STIM_010.jpg	100
1256.375	0.883	883.0	test	Phase2	test/STIM_010.jpg	100
1260.443	1.446	1445.7	test	Phase2	test/STIM_010.jpg	100
1264.652	1.234	1234.5	test	Phase2	test/STIM_011.jpg	100
1269.109	0.943	943.3	test	Phase2	test/STIM_011.jpg	100
1272.981	1.087	1086.9	test	Phase2	test/STIM_011.jpg	100
1276.941	0.914	913.6	test	Phase2	test/STIM_012.jpg	100
1280.991	0.979	978.9	test	Phase2	test/STIM_012.jpg	99
1285.02	0.796	796.4	test	Phase2	test/STIM_012.jpg	99
1289.518	1.378	1378.2	test	Phase2	test/STIM_013.jpg	99
1294.565	0.749	749.4	test	Phase2	test/STIM_013.jpg	100
1298.507	1.198	1197.8	test	Phase2	test/STIM_013.jpg	99
1303.584	1.155	1155.3	test	Phase2	test/STIM_014.jpg	100
1306.951	1.124	1124.0	test	Phase2	test/STIM_014.jpg	99
1311.809	0.679	679.3	test	Phase2	test/STIM_014.jpg	99
1314.816	1.363	1363.3	test	Phase2	test/STIM_015.jpg	100
1318.524	1.307	1307.0	test	Phase2	test/STIM_015.jpg	99
1321.954	0.694	694.4	test	Phase2	test/STIM_015.jpg	100
1326.075	1.008	1007.7	test	Phase2	test/STIM_016.jpg	100
1329.355	1.231	1230.9	test	Phase2	test/STIM_016.jpg	100
1333.256	1.123	1122.9	test	Phase2	test/STIM_016.jpg	99
1336.427	0.707	707.1	test	Phase2	test/STIM_017.jpg	100
1340.826	1.336	1336.3	test	Phase2	test/STIM_017.jpg	100
1344.254	1.255	1254.8	test	Phase2	test/STIM_017.jpg	100
1349.34	1.295	1295.0	test	Phase2	test/STIM_018.jpg	100
1353.552	1.057	1056.7	test	Phase2	test/STIM_018.jpg	99
1357.638	0.732	732.4	test	Phase2	test/STIM_018.jpg	99
1360.376	0.693	693.1	test	Phase2	test/STIM_019.jpg	99
1364.869	1.446	1445.6	test	Phase2	test/STIM_019.jpg	100
1368.566	0.684	683.6	test	Phase2	test/STIM_019.jpg	99
1371.965	1.053	1053.0	test	Phase2	test/STIM_020.jpg	100
1376.832	1.318	1318.5	test	Phase2	test/STIM_020.jpg	99
1381.01	0.838	838.0	test	Phase2	test/STIM_020.jpg	100
1384.27	0.923	922.6	test	Phase2	test/STIM_021.jpg	100
1388.935	1.01	1010.0	test	Phase2	test/STIM_021.jpg	99
1393.103	1.264	1264.2	test	Phase2	test/STIM_021.jpg	100
1398.181	0.815	815.2	test	Phase2	test/STIM_022.jpg	100
1402.096	0.926	925.5	test	Phase2	test/STIM_022.jpg	100
1406.781	0.927	926.7	test	Phase2	test/STIM_022.jpg	99
1409.833	1.085	1085.3	test	Phase2	test/STIM_023.jpg	99
1414.779	0.706	705.6	test	Phase2	test/STIM_023.jpg	100
1419.104	1.246	1246.0	test	Phase2	test/STIM_023.jpg	99
1424.234	1.351	1350.7	test	Phase2	test/STIM_024.jpg	99
1428.954	1.003	1003.2	test	Phase2	test/STIM_024.jpg	100
1433.539	1.161	1161.0	test	Phase2	test/STIM_024.jpg	99
1437.912	0.814	813.5	test	Phase2	test/STIM_025.jpg	99
1441.511	0.734	734.1	test	Phase2	test/STIM_025.jpg	100
1445.821	1.118	1118.3	test	Phase2	test/STIM_025.jpg	99
1450.842	0.818	817.6	test	Phase2	test/STIM_026.jpg	99
1454.312	0.803	803.1	test	Phase2	test/STIM_026.jpg	100
1457.685	1.066	1065.6	test	Phase2	test/STIM_026.jpg	100
1461.358	1.093	1093.4	test	Phase2	test/STIM_027.jpg	100
1465.683	1.39	1390.2	test	Phase2	test/STIM_027.jpg	100
1469.739	0.743	742.6	test	Phase2	test/STIM_027.jpg	100
1473.633	1.103	1102.9	test	Phase2	test/STIM_028.jpg	99
1477.487	1.416	1416.2	test	Phase2	test/STIM_028.jpg	99
1481.348	0.674	673.8	test	Phase2	test/STIM_028.jpg	100
1485.514	0.754	754.3	test	Phase2	test/STIM_029.jpg	100
1490.213	1.054	1054.5	test	Phase2	test/STIM_029.jpg	100
1493.548	1.022	1021.5	test	Phase2	test/STIM_029.jpg	99
1496.626	1.031	1030.9	study	Phase3	study/STIM_000.jpg	99
1500.881	1.051	1050.7	study	Phase3	study/STIM_000.jpg	100
1504.134	0.97	969.7	study	Phase3	study/STIM_000.jpg	99
1507.652	0.925	924.6	study	Phase3	study/STIM_001.jpg	99
1511.616	0.626	625.8	study	Phase3	study/STIM_001.jpg	100
1515.986	1.163	1162.9	study	Phase3	study/STIM_001.jpg	100
1519.226	0.764	764.1	study	Phase3	study/STIM_002.jpg	99
1522.296	1.212	1212.5	study	Phase3	study/STIM_002.jpg	100
1526.145	0.657	656.7	study	Phase3	study/STIM_002.jpg	99
1529.313	0.65	650.1	study	Phase3	study/STIM_003.jpg	100
1532.748	0.891	891.3	study	Phase3	study/STIM_003.jpg	99
1536.245	0.948	948.2	study	Phase3	study/STIM_003.jpg	100
1540.391	1.329	1328.7	study	Phase3	study/STIM_004.jpg	99
1545.396	0.77	770.3	study	Phase3	study/STIM_004.jpg	99
1549.567	0.854	854.4	study	Phase3	study/STIM_004.jpg	99
1553.751	0.989	989.2	study	Phase3	study/STIM_005.jpg	100
1556.754	0.877	876.6	study	Phase3	study/STIM_005.jpg	99
1561.348	1.249	1248.6	study	Phase3	study/STIM_005.jpg	100
1565.592	0.772	772.2	study	Phase3	study/STIM_006.jpg	100
1570.212	0.789	788.7	study	Phase3	study/STIM_006.jpg	100
1574.445	1.214	1214.1	study	Phase3	study/STIM_006.jpg	100
1577.809	1.002	1002.3	study	Phase3	study/STIM_007.jpg	99
1582.575	1.132	1131.6	study	Phase3	study/STIM_007.jpg	100
1585.754	0.791	790.6	study	Phase3	study/STIM_007.jpg	99
1589.606	1.082	1082.3	study	Phase3	study/STIM_008.jpg	100
1594.027	0.952	951.9	study	Phase3	study/STIM_008.jpg	100
1597.462	0.89	889.5	study	Phase3	study/STIM_008.jpg	100
1600.816	0.921	921.2	study	Phase3	study/STIM_009.jpg	99
1604.413	0.669	668.9	study	Phase3	study/STIM_009.jpg	99
1608.622	1.204	1203.9	study	Phase3	study/STIM_009.jpg	100
1613.357	0.78	779.8	study	Phase3	study/STIM_010.jpg	100
1616.236	1.202	1201.7	study	Phase3	study/STIM_010.jpg	99
1620.981	1.315	1314.8	study	Phase3	study/STIM_010.jpg	99
1624.993	1.385	1385.1	study	Phase3	study/STIM_011.jpg	100
1629.137	1.079	1078.6	study	Phase3	study/STIM_011.jpg	99
1632.572	0.752	751.7	study	Phase3	study/STIM_011.jpg	100
1635.78	1.316	1315.9	study	Phase3	study/STIM_012.jpg	99
1639.096	0.861	861.4	study	Phase3	study/STIM_012.jpg	99
1643.43	1.017	1017.4	study	Phase3	study/STIM_012.jpg	100
1647.359	1.123	1123.4	study	Phase3	study/STIM_013.jpg	99
1651.466	1.052	1051.9	study	Phase3	study/STIM_013.jpg	100
1656.419	0.889	888.7	study	Phase3	study/STIM_013.jpg	100
1660.171	1.202	1202.3	study	Phase3	study/STIM_014.jpg	100
1664.482	0.881	881.1	study	Phase3	study/STIM_014.jpg	100
1668.413	1.096	1095.8	study	Phase3	study/STIM_014.jpg	100
1673.178	1.185	1185.3	study	Phase3	study/STIM_015.jpg	99
1677.833	0.63	629.5	study	Phase3	study/STIM_015.jpg	100
1681.513	1.026	1025.7	study	Phase3	study/STIM_015.jpg	100
1686.144	0.66	660.2	study	Phase3	study/STIM_016.jpg	100
1688.823	0.81	809.8	study	Phase3	study/STIM_016.jpg	100
1692.38	1.074	1074.3	study	Phase3	study/STIM_016.jpg	99
1696.709	0.758	757.7	study	Phase3	study/STIM_017.jpg	100
1700.57	1.401	1400.9	study	Phase3	study/STIM_017.jpg	99
1705.961	1.319	1319.3	study	Phase3	study/STIM_017.jpg	99
1710.776	1.013	1012.9	study	Phase3	study/STIM_018.jpg	99
1714.925	0.697	697.3	study	Phase3	study/STIM_018.jpg	100
1718.345	1.256	1255.5	study	Phase3	study/STIM_018.jpg	99
1723.357	0.769	769.3	study	Phase3	study/STIM_019.jpg	99
1727.854	0.802	802.0	study	Phase3	study/STIM_019.jpg	99
1731.226	1.261	1260.6	study	Phase3	study/STIM_019.jpg	99
1735.819	0.913	912.7	study	Phase3	study/STIM_020.jpg	99
1738.978	0.775	775.2	study	Phase3	study/STIM_020.jpg	100
1743.652	0.988	988.1	study	Phase3	study/STIM_020.jpg	99
1747.243	0.991	990.8	study	Phase3	study/STIM_021.jpg	99
1752.137	0.83	829.8	study	Phase3	study/STIM_021.jpg	99
1755.943	0.965	965.4	study	Phase3	study/STIM_021.jpg	100
1759.898	0.832	832.5	study	Phase3	study/STIM_022.jpg	100
1763.609	0.855	854.6	study	Phase3	study/STIM_022.jpg	99
1766.704	1.358	1357.9	study	Phase3	study/STIM_022.jpg	99
1770.449	1.24	1240.2	study	Phase3	study/STIM_023.jpg	99
1774.881	1.338	1337.8	study	Phase3	study/STIM_023.jpg	100
1778.463	1.05	1050.1	study	Phase3	study/STIM_023.jpg	100
1781.917	0.703	702.7	study	Phase3	study/STIM_024.jpg	99
1786.546	1.284	1283.6	study	Phase3	study/STIM_024.jpg	99
1790.323	1.06	1059.8	study	Phase3	study/STIM_024.jpg	100
1795.051	0.953	953.3	study	Phase3	study/STIM_025.jpg	100
1799.166	0.914	914.0	study	Phase3	study/STIM_025.jpg	99
1803.071	1.009	1009.1	study	Phase3	study/STIM_025.jpg	100
1807.053	1.023	1023.1	study	Phase3	study/STIM_026.jpg	99
1810.364	1.355	1355.0	study	Phase3	study/STIM_026.jpg	100
1814.343	0.856	856.5	study	Phase3	study/STIM_026.jpg	99
1818.483	1.336	1336.4	study	Phase3	study/STIM_027.jpg	99
1823.38	0.919	918.7	study	Phase3	study/STIM_027.jpg	99
1828.081	1.002	1001.6	study	Phase3	study/STIM_027.jpg	100
1832.894	1.357	1357.3	study	Phase3	study/STIM_028.jpg	100
1836.291	0.65	649.6	study	Phase3	study/STIM_028.jpg	100
1840.644	1.307	1307.2	study	Phase3	study/STIM_028.jpg	100
1845.567	1.305	1304.9	study	Phase3	study/STIM_029.jpg	99
1850.552	0.88	879.8	study	Phase3	study/STIM_029.jpg	99
1854.066	0.745	744.9	study	Phase3	study/STIM_029.jpg	99
1858.625	1.427	1426.6	test	Phase3	test/STIM_000.jpg	100
1863.376	1.423	1423.4	test	Phase3	test/STIM_000.jpg	100
1868.48	0.9	900.2	test	Phase3	test/STIM_000.jpg	99
1873.212	0.714	714.2	test	Phase3	test/STIM_001.jpg	99
1876.938	1.372	1371.8	test	Phase3	test/STIM_001.jpg	100
1882.2	0.917	916.9	test	Phase3	test/STIM_001.jpg	100
1885.162	1.44	1440.4	test	Phase3	test/STIM_002.jpg	99
1890.46	0.981	981.1	test	Phase3	test/STIM_002.jpg	99
1894.281	0.922	921.7	test	Phase3	test/STIM_002.jpg	100
1898.745	0.831	830.7	test	Phase3	test/STIM_003.jpg	100
1902.916	1.121	1120.9	test	Phase3	test/STIM_003.jpg	99
1906.262	0.7	700.4	test	Phase3	test/STIM_003.jpg	100
1910.453	1.3	1300.5	test	Phase3	test/STIM_004.jpg	99
1914.134	1.323	1323.2	test	Phase3	test/STIM_004.jpg	100
1918.777	0.786	786.5	test	Phase3	test/STIM_004.jpg	100
1923.485	1.427	1427.0	test	Phase3	test/STIM_005.jpg	99
1927.391	0.779	778.9	test	Phase3	test/STIM_005.jpg	99
1931.413	1.009	1008.9	test	Phase3	test/STIM_005.jpg	100
1935.37	1.288	1288.0	test	Phase3	test/STIM_006.jpg	99
1938.686	1.385	1385.3	test	Phase3	test/STIM_006.jpg	100
1942.553	1.446	1446.0	test	Phase3	test/STIM_006.jpg	100
1946.641	1.377	1376.6	test	Phase3	test/STIM_007.jpg	99
1951.869	0.857	857.3	test	Phase3	test/STIM_007.jpg	100
1954.83	1.023	1023.3	test	Phase3	test/STIM_007.jpg	99
1958.487	1.227	1226.8	test	Phase3	test/STIM_008.jpg	99
1962.569	0.679	678.9	test	Phase3	test/STIM_008.jpg	100
1965.733	0.682	681.7	test	Phase3	test/STIM_008.jpg	100
1969.461	0.767	766.9	test	Phase3	test/STIM_009.jpg	99
1972.348	1.274	1274.2	test	Phase3	test/STIM_009.jpg	99
1976.848	1.046	1046.1	test	Phase3	test/STIM_009.jpg	99
1981.255	0.846	846.1	test	Phase3	test/STIM_010.jpg	100
1985.716	0.79	789.9	test	Phase3	test/STIM_010.jpg	99
1989.713	1.421	1420.7	test	Phase3	test/STIM_010.jpg	99
1994.763	1.036	1035.8	test	Phase3	test/STIM_011.jpg	99
1998.769	1.014	1013.6	test	Phase3	test/STIM_011.jpg	99
2002.489	0.975	974.8	test	Phase3	test/STIM_011.jpg	99
2006.078	1.391	1390.7	test	Phase3	test/STIM_012.jpg	100
2009.726	0.69	690.0	test	Phase3	test/STIM_012.jpg	100
2012.665	1.117	1116.8	test	Phase3	test/STIM_012.jpg	100
2016.761	0.745	745.3	test	Phase3	test/STIM_013.jpg	99
2019.918	0.742	742.5	test	Phase3	test/STIM_013.jpg	100
2022.717	1.151	1150.9	test	Phase3	test/STIM_013.jpg	99
2026.736	1.296	1296.5	test	Phase3	test/STIM_014.jpg	100
2031.516	1.219	1219.3	test	Phase3	test/STIM_014.jpg	100
2035.89	0.794	793.8	test	Phase3	test/STIM_014.jpg	100
2039.568	1.231	1230.8	test	Phase3	test/STIM_015.jpg	100
2043.295	1.27	1270.3	test	Phase3	test/STIM_015.jpg	99
2047.327	1.252	1251.7	test	Phase3	test/STIM_015.jpg	100
2052.122	0.88	879.7	test	Phase3	test/STIM_016.jpg	100
2055.189	1.255	1255.2	test	Phase3	test/STIM_016.jpg	100
2060.134	0.775	775.3	test	Phase3	test/STIM_016.jpg	99
2063.577	1.141	1140.7	test	Phase3	test/STIM_017.jpg	99
2068.48	1.226	1226.1	test	Phase3	test/STIM_017.jpg	100
2072.648	1.158	1157.5	test	Phase3	test/STIM_017.jpg	100
2077.084	0.79	789.7	test	Phase3	test/STIM_018.jpg	99
2080.794	1.293	1293.3	test	Phase3	test/STIM_018.jpg	99
2084.293	0.947	946.7	test	Phase3	test/STIM_018.jpg	99
2087.51	0.871	871.0	test	Phase3	test/STIM_019.jpg	99
2091.744	1.056	1056.2	test	Phase3	test/STIM_019.jpg	99
2095.407	0.987	987.3	test	Phase3	test/STIM_019.jpg	100
2098.431	0.893	893.3	test	Phase3	test/STIM_020.jpg	100
2101.336	0.944	944.5	test	Phase3	test/STIM_020.jpg	100
2106.109	0.769	768.9	test	Phase3	test/STIM_020.jpg	100
2109.405	1.057	1057.1	test	Phase3	test/STIM_021.jpg	100
2113.43	1.264	1263.9	test	Phase3	test/STIM_021.jpg	99
2117.353	0.934	934.4	test	Phase3	test/STIM_021.jpg	99
2120.308	1.23	1229.9	test	Phase3	test/STIM_022.jpg	100
2124.16	1.178	1178.4	test	Phase3	test/STIM_022.jpg	99
2127.667	0.885	884.7	test	Phase3	test/STIM_022.jpg	99
2130.558	1.131	1131.3	test	Phase3	test/STIM_023.jpg	100
2135.131	1.082	1081.6	test	Phase3	test/STIM_023.jpg	99
2139.633	1.098	1098.0	test	Phase3	test/STIM_023.jpg	100
2144.127	1.298	1298.4	test	Phase3	test/STIM_024.jpg	100
2149.342	1.019	1018.8	test	Phase3	test/STIM_024.jpg	100
2154.239	0.963	963.1	test	Phase3	test/STIM_024.jpg	99
2158.315	1.332	1331.7	test	Phase3	test/STIM_025.jpg	100
2163.306	0.796	796.0	test	Phase3	test/STIM_025.jpg	100
2167.004	0.874	874.3	test	Phase3	test/STIM_025.jpg	99
2169.903	0.885	884.8	test	Phase3	test/STIM_026.jpg	99
2174.546	0.691	691.2	test	Phase3	test/STIM_026.jpg	99
2178.125	1.306	1306.2	test	Phase3	test/STIM_026.jpg	99
2182.532	1.438	1438.3	test	Phase3	test/STIM_027.jpg	99
2187.739	1.353	1353.4	test	Phase3	test/STIM_027.jpg	100
2191.58	0.769	768.7	test	Phase3	test/STIM_027.jpg	99
2195.396	1.393	1393.0	test	Phase3	test/STIM_028.jpg	100
2200.765	0.98	980.4	test	Phase3	test/STIM_028.jpg	100
2205.675	1.138	1138.3	test	Phase3	test/STIM_028.jpg	99
2209.864	1.093	1093.1	test	Phase3	test/STIM_029.jpg	100
2213.767	1.08	1079.5	test	Phase3	test/STIM_029.jpg	99
2216.858	1.304	1303.9	test	Phase3	test/STIM_029.jpg	100
