onset	duration	accuracy	trial_type	learning_stage	stimulus
0.0	2.025	correct	regulate	Run1	regulate/STIM_000.jpg
5.715	1.77	correct	regulate	Run1	regulate/STIM_000.jpg
9.588	2.765	correct	regulate	Run1	regulate/STIM_000.jpg
15.172	1.493	correct	regulate	Run1	regulate/STIM_000.jpg
19.267	2.293	incorrect	regulate	Run1	regulate/STIM_001.jpg
23.696	2.648	correct	regulate	Run1	regulate/STIM_001.jpg
29.585	2.632	correct	regulate	Run1	regulate/STIM_001.jpg
34.665	2.358	correct	regulate	Run1	regulate/STIM_001.jpg
39.685	3.017	correct	regulate	Run1	regulate/STIM_002.jpg
45.6	2.326	correct	regulate	Run1	regulate/STIM_002.jpg
50.757	2.239	incorrect	regulate	Run1	regulate/STIM_002.jpg
55.941	2.664	correct	regulate	Run1	regulate/STIM_002.jpg
61.012	2.354	correct	regulate	Run1	regulate/STIM_003.jpg
66.262	3.267	correct	regulate	Run1	regulate/STIM_003.jpg
71.822	3.153	correct	regulate	Run1	regulate/STIM_003.jpg
78.031	1.427	correct	regulate	Run1	regulate/STIM_003.jpg
81.542	1.643	correct	regulate	Run1	regulate/STIM_004.jpg
86.951	2.723	incorrect	regulate	Run1	regulate/STIM_004.jpg
92.973	2.831	correct	regulate	Run1	regulate/STIM_004.jpg
98.754	2.357	correct	regulate	Run1	regulate/STIM_004.jpg
103.444	1.63	correct	regulate	Run1	regulate/STIM_005.jpg
108.891	2.557	correct	regulate	Run1	regulate/STIM_005.jpg
114.265	2.398	correct	regulate	Run1	regulate/STIM_005.jpg
119.46	2.145	correct	regulate	Run1	regulate/STIM_005.jpg
125.596	1.837	correct	regulate	Run1	regulate/STIM_006.jpg
130.76	2.342	incorrect	regulate	Run1	regulate/STIM_006.jpg
136.153	2.464	correct	regulate	Run1	regulate/STIM_006.jpg
142.536	2.828	incorrect	regulate	Run1	regulate/STIM_006.jpg
148.245	3.244	incorrect	regulate	Run1	regulate/STIM_007.jpg
153.597	2.533	correct	regulate	Run1	regulate/STIM_007.jpg
159.386	2.21	correct	regulate	Run1	regulate/STIM_007.jpg
163.939	2.561	correct	regulate	Run1	regulate/STIM_007.jpg
169.74	3.505	correct	regulate	Run1	regulate/STIM_008.jpg
176.44	3.13	correct	regulate	Run1	regulate/STIM_008.jpg
182.901	2.412	correct	regulate	Run1	regulate/STIM_008.jpg
187.574	3.07	incorrect	regulate	Run1	regulate/STIM_008.jpg
192.875	2.102	incorrect	regulate	Run1	regulate/STIM_009.jpg
197.188	2.177	correct	regulate	Run1	regulate/STIM_009.jpg
202.758	1.749	incorrect	regulate	Run1	regulate/STIM_009.jpg
207.455	2.357	correct	regulate	Run1	regulate/STIM_009.jpg
213.378	3.569	incorrect	regulate	Run1	regulate/STIM_010.jpg
220.309	1.716	correct	regulate	Run1	regulate/STIM_010.jpg
224.386	2.788	incorrect	regulate	Run1	regulate/STIM_010.jpg
229.562	2.865	correct	regulate	Run1	regulate/STIM_010.jpg
234.973	2.602	correct	regulate	Run1	regulate/STIM_011.jpg
239.916	2.811	incorrect	regulate	Run1	regulate/STIM_011.jpg
245.05	3.07	correct	regulate	Run1	regulate/STIM_011.jpg
250.324	2.723	correct	regulate	Run1	regulate/STIM_011.jpg
256.324	3.153	correct	regulate	Run1	regulate/STIM_012.jpg
262.398	3.263	incorrect	regulate	Run1	regulate/STIM_012.jpg
269.441	1.996	correct	regulate	Run1	regulate/STIM_012.jpg
273.998	1.722	correct	regulate	Run1	regulate/STIM_012.jpg
279.625	2.395	correct	regulate	Run1	regulate/STIM_013.jpg
284.436	2.714	correct	regulate	Run1	regulate/STIM_013.jpg
289.674	2.883	correct	regulate	Run1	regulate/STIM_013.jpg
295.265	1.424	correct	regulate	Run1	regulate/STIM_013.jpg
300.117	1.602	incorrect	regulate	Run1	regulate/STIM_014.jpg
304.423	3.301	incorrect	regulate	Run1	regulate/STIM_014.jpg
310.276	2.609	correct	regulate	Run1	regulate/STIM_014.jpg
315.819	1.744	correct	regulate	Run1	regulate/STIM_014.jpg
320.358	1.819	correct	regulate	Run1	regulate/STIM_015.jpg
324.626	1.624	correct	regulate	Run1	regulate/STIM_015.jpg
329.999	1.513	incorrect	regulate	Run1	regulate/STIM_015.jpg
334.663	2.613	correct	regulate	Run1	regulate/STIM_015.jpg
339.277	3.006	incorrect	regulate	Run1	regulate/STIM_016.jpg
344.957	3.071	incorrect	regulate	Run1	regulate/STIM_016.jpg
350.476	1.654	correct	regulate	Run1	regulate/STIM_016.jpg
354.935	1.854	correct	regulate	Run1	regulate/STIM_016.jpg
359.306	2.725	correct	regulate	Run1	regulate/STIM_017.jpg
364.863	2.458	correct	regulate	Run1	regulate/STIM_017.jpg
371.312	2.369	correct	regulate	Run1	regulate/STIM_017.jpg
376.081	2.957	correct	regulate	Run1	regulate/STIM_017.jpg
382.951	2.336	incorrect	regulate	Run1	regulate/STIM_018.jpg
389.202	3.208	incorrect	regulate	Run1	regulate/STIM_018.jpg
394.861	2.638	incorrect	regulate	Run1	regulate/STIM_018.jpg
399.685	2.574	incorrect	regulate	Run1	regulate/STIM_018.jpg
404.526	1.657	correct	regulate	Run1	regulate/STIM_019.jpg
409.372	2.726	incorrect	regulate	Run1	regulate/STIM_019.jpg
415.722	2.728	correct	regulate	Run1	regulate/STIM_019.jpg
421.275	2.646	incorrect	regulate	Run1	regulate/STIM_019.jpg
427.705	1.951	correct	regulate	Run1	regulate/STIM_020.jpg
432.37	3.033	correct	regulate	Run1	regulate/STIM_020.jpg
438.234	1.445	correct	regulate	Run1	regulate/STIM_020.jpg
442.741	1.763	correct	regulate	Run1	regulate/STIM_020.jpg
447.131	2.163	correct	regulate	Run1	regulate/STIM_021.jpg
452.71	2.023	incorrect	regulate	Run1	regulate/STIM_021.jpg
458.436	1.736	correct	regulate	Run1	regulate/STIM_021.jpg
462.835	1.575	correct	regulate	Run1	regulate/STIM_021.jpg
467.874	2.018	incorrect	regulate	Run1	regulate/STIM_022.jpg
473.818	3.215	incorrect	regulate	Run1	regulate/STIM_022.jpg
480.09	1.525	correct	regulate	Run1	regulate/STIM_022.jpg
483.635	2.198	correct	regulate	Run1	regulate/STIM_022.jpg
488.123	1.965	correct	regulate	Run1	regulate/STIM_023.jpg
493.038	2.068	incorrect	regulate	Run1	regulate/STIM_023.jpg
498.179	3.268	correct	regulate	Run1	regulate/STIM_023.jpg
504.728	3.142	correct	regulate	Run1	regulate/STIM_023.jpg
510.244	1.97	correct	regulate	Run1	regulate/STIM_024.jpg
515.921	2.381	correct	regulate	Run1	regulate/STIM_024.jpg
521.488	1.441	correct	regulate	Run1	regulate/STIM_024.jpg
525.932	2.276	incorrect	regulate	Run1	regulate/STIM_024.jpg
532.187	1.621	correct	regulate	Run1	regulate/STIM_025.jpg
537.184	2.077	incorrect	regulate	Run1	regulate/STIM_025.jpg
541.69	2.334	correct	regulate	Run1	regulate/STIM_025.jpg
547.188	3.004	incorrect	regulate	Run1	regulate/STIM_025.jpg
553.42	2.916	correct	regulate	Run1	regulate/STIM_026.jpg
560.271	3.049	correct	regulate	Run1	regulate/STIM_026.jpg
567.199	3.285	correct	regulate	Run1	regulate/STIM_026.jpg
572.775	1.525	correct	regulate	Run1	regulate/STIM_026.jpg
577.259	3.132	incorrect	regulate	Run1	regulate/STIM_027.jpg
582.768	1.972	correct	regulate	Run1	regulate/STIM_027.jpg
588.505	2.162	correct	regulate	Run1	regulate/STIM_027.jpg
594.273	2.791	correct	regulate	Run1	regulate/STIM_027.jpg
600.593	1.622	incorrect	regulate	Run1	regulate/STIM_028.jpg
606.129	2.205	correct	regulate	Run1	regulate/STIM_028.jpg
610.989	1.52	correct	regulate	Run1	regulate/STIM_028.jpg
615.244	1.846	correct	regulate	Run1	regulate/STIM_028.jpg
619.869	1.695	incorrect	regulate	Run1	regulate/STIM_029.jpg
625.477	3.202	correct	regulate	Run1	regulate/STIM_029.jpg
632.384	3.321	correct	regulate	Run1	regulate/STIM_029.jpg
639.289	2.433	correct	regulate	Run1	regulate/STIM_029.jpg
644.723	1.056	correct	observe	Run1	observe/STIM_000.jpg
649.159	1.262	correct	observe	Run1	observe/STIM_000.jpg
653.44	0.93	incorrect	observe	Run1	observe/STIM_000.jpg
657.839	1.28	correct	observe	Run1	observe/STIM_000.jpg
662.519	1.487	correct	observe	Run1	observe/STIM_001.jpg
666.946	1.292	correct	observe	Run1	observe/STIM_001.jpg
670.715	1.619	incorrect	observe	Run1	observe/STIM_001.jpg
675.989	1.255	correct	observe	Run1	observe/STIM_001.jpg
680.552	1.26	correct	observe	Run1	observe/STIM_002.jpg
685.473	1.272	correct	observe	Run1	observe/STIM_002.jpg
690.165	0.957	correct	observe	Run1	observe/STIM_002.jpg
694.079	1.616	correct	observe	Run1	observe/STIM_002.jpg
699.593	1.061	correct	observe	Run1	observe/STIM_003.jpg
703.025	1.064	correct	observe	Run1	observe/STIM_003.jpg
707.704	1.591	correct	observe	Run1	observe/STIM_003.jpg
711.894	1.579	correct	observe	Run1	observe/STIM_003.jpg
716.368	1.317	correct	observe	Run1	observe/STIM_004.jpg
721.0	1.072	correct	observe	Run1	observe/STIM_004.jpg
725.122	1.434	correct	observe	Run1	observe/STIM_004.jpg
728.641	1.066	correct	observe	Run1	observe/STIM_004.jpg
732.09	1.531	correct	observe	Run1	observe/STIM_005.jpg
737.216	1.308	correct	observe	Run1	observe/STIM_005.jpg
742.227	1.296	correct	observe	Run1	observe/STIM_005.jpg
745.917	1.481	correct	observe	Run1	observe/STIM_005.jpg
750.71	1.007	incorrect	observe	Run1	observe/STIM_006.jpg
754.096	1.222	incorrect	observe	Run1	observe/STIM_006.jpg
759.302	1.209	incorrect	observe	Run1	observe/STIM_006.jpg
763.862	1.668	correct	observe	Run1	observe/STIM_006.jpg
768.709	1.6	correct	observe	Run1	observe/STIM_007.jpg
774.17	1.068	incorrect	observe	Run1	observe/STIM_007.jpg
778.948	1.492	correct	observe	Run1	observe/STIM_007.jpg
784.296	1.525	correct	observe	Run1	observe/STIM_007.jpg
789.314	1.234	correct	observe	Run1	observe/STIM_008.jpg
792.629	1.044	correct	observe	Run1	observe/STIM_008.jpg
796.231	1.188	correct	observe	Run1	observe/STIM_008.jpg
800.434	1.063	correct	observe	Run1	observe/STIM_008.jpg
805.233	1.534	incorrect	observe	Run1	observe/STIM_009.jpg
810.194	1.186	correct	observe	Run1	observe/STIM_009.jpg
813.784	1.324	correct	observe	Run1	observe/STIM_009.jpg
817.981	1.15	correct	observe	Run1	observe/STIM_009.jpg
822.336	1.654	correct	observe	Run1	observe/STIM_010.jpg
827.495	1.499	correct	observe	Run1	observe/STIM_010.jpg
832.296	1.443	correct	observe	Run1	observe/STIM_010.jpg
835.895	1.446	correct	observe	Run1	observe/STIM_010.jpg
841.161	1.49	incorrect	observe	Run1	observe/STIM_011.jpg
845.519	0.883	incorrect	observe	Run1	observe/STIM_011.jpg
850.213	1.572	correct	observe	Run1	observe/STIM_011.jpg
854.378	0.926	incorrect	observe	Run1	observe/STIM_011.jpg
858.046	1.534	correct	observe	Run1	observe/STIM_012.jpg
862.909	1.694	incorrect	observe	Run1	observe/STIM_012.jpg
868.594	1.643	correct	observe	Run1	observe/STIM_012.jpg
873.224	1.301	correct	observe	Run1	observe/STIM_012.jpg
878.017	1.186	correct	observe	Run1	observe/STIM_013.jpg
881.323	1.212	correct	observe	Run1	observe/STIM_013.jpg
885.461	1.386	incorrect	observe	Run1	observe/STIM_013.jpg
889.65	1.519	incorrect	observe	Run1	observe/STIM_013.jpg
894.233	1.351	correct	observe	Run1	observe/STIM_014.jpg
897.672	1.48	incorrect	observe	Run1	observe/STIM_014.jpg
902.613	1.214	correct	observe	Run1	observe/STIM_014.jpg
907.309	1.053	correct	observe	Run1	observe/STIM_014.jpg
911.506	1.532	correct	observe	Run1	observe/STIM_015.jpg
916.742	1.18	correct	observe	Run1	observe/STIM_015.jpg
921.11	1.51	incorrect	observe	Run1	observe/STIM_015.jpg
925.307	1.096	correct	observe	Run1	observe/STIM_015.jpg
928.891	1.184	correct	observe	Run1	observe/STIM_016.jpg
932.409	1.261	correct	observe	Run1	observe/STIM_016.jpg
937.464	1.398	correct	observe	Run1	observe/STIM_016.jpg
941.474	1.479	incorrect	observe	Run1	observe/STIM_016.jpg
946.069	1.026	correct	observe	Run1	observe/STIM_017.jpg
950.985	1.167	correct	observe	Run1	observe/STIM_017.jpg
955.498	1.062	correct	observe	Run1	observe/STIM_017.jpg
958.868	1.466	correct	observe	Run1	observe/STIM_017.jpg
963.338	1.351	correct	observe	Run1	observe/STIM_018.jpg
967.425	1.318	correct	observe	Run1	observe/STIM_018.jpg
970.765	1.182	correct	observe	Run1	observe/STIM_018.jpg
974.09	1.146	correct	observe	Run1	observe/STIM_018.jpg
977.502	0.868	correct	observe	Run1	observe/STIM_019.jpg
980.782	1.598	correct	observe	Run1	observe/STIM_019.jpg
986.101	1.638	correct	observe	Run1	observe/STIM_019.jpg
991.141	1.66	correct	observe	Run1	observe/STIM_019.jpg
996.241	1.602	correct	regulate	Run2	regulate/STIM_000.jpg
1000.257	2.303	correct	regulate	Run2	regulate/STIM_000.jpg
1004.824	1.659	correct	regulate	Run2	regulate/STIM_000.jpg
1010.149	1.786	correct	regulate	Run2	regulate/STIM_000.jpg
1013.964	1.63	incorrect	regulate	Run2	regulate/STIM_001.jpg
1019.406	2.894	correct	regulate	Run2	regulate/STIM_001.jpg
1025.257	1.442	incorrect	regulate	Run2	regulate/STIM_001.jpg
1029.929	1.552	correct	regulate	Run2	regulate/STIM_001.jpg
1035.249	2.056	correct	regulate	Run2	regulate/STIM_002.jpg
1040.264	2.756	correct	regulate	Run2	regulate/STIM_002.jpg
1047.011	2.322	correct	regulate	Run2	regulate/STIM_002.jpg
1051.543	1.546	correct	regulate	Run2	regulate/STIM_002.jpg
1055.128	1.417	incorrect	regulate	Run2	regulate/STIM_003.jpg
1060.02	1.668	correct	regulate	Run2	regulate/STIM_003.jpg
1064.603	2.588	correct	regulate	Run2	regulate/STIM_003.jpg
1069.531	2.126	correct	regulate	Run2	regulate/STIM_003.jpg
1074.539	2.111	correct	regulate	Run2	regulate/STIM_004.jpg
1079.162	2.596	correct	regulate	Run2	regulate/STIM_004.jpg
1084.032	2.259	correct	regulate	Run2	regulate/STIM_004.jpg
1090.224	1.917	correct	regulate	Run2	regulate/STIM_004.jpg
1096.097	2.749	incorrect	regulate	Run2	regulate/STIM_005.jpg
1101.247	2.155	correct	regulate	Run2	regulate/STIM_005.jpg
1106.811	2.566	correct	regulate	Run2	regulate/STIM_005.jpg
1112.646	1.592	correct	regulate	Run2	regulate/STIM_005.jpg
1118.159	2.882	correct	regulate	Run2	regulate/STIM_006.jpg
1124.106	1.773	correct	regulate	Run2	regulate/STIM_006.jpg
1129.533	1.464	correct	regulate	Run2	regulate/STIM_006.jpg
1133.565	2.398	correct	regulate	Run2	regulate/STIM_006.jpg
1139.099	1.367	correct	regulate	Run2	regulate/STIM_007.jpg
1142.866	1.906	correct	regulate	Run2	regulate/STIM_007.jpg
1146.979	1.505	correct	regulate	Run2	regulate/STIM_007.jpg
1151.388	2.476	correct	regulate	Run2	regulate/STIM_007.jpg
1156.146	2.58	correct	regulate	Run2	regulate/STIM_008.jpg
1161.954	2.206	correct	regulate	Run2	regulate/STIM_008.jpg
1167.489	2.754	correct	regulate	Run2	regulate/STIM_008.jpg
1173.157	2.237	correct	regulate	Run2	regulate/STIM_008.jpg
1178.297	1.609	correct	regulate	Run2	regulate/STIM_009.jpg
1182.695	1.784	correct	regulate	Run2	regulate/STIM_009.jpg
1187.068	2.15	correct	regulate	Run2	regulate/STIM_009.jpg
1192.411	2.173	incorrect	regulate	Run2	regulate/STIM_009.jpg
1198.231	2.793	correct	regulate	Run2	regulate/STIM_010.jpg
1205.013	2.32	correct	regulate	Run2	regulate/STIM_010.jpg
1210.611	2.315	correct	regulate	Run2	regulate/STIM_010.jpg
1215.876	1.402	correct	regulate	Run2	regulate/STIM_010.jpg
1219.351	1.763	correct	regulate	Run2	regulate/STIM_011.jpg
1223.501	2.003	incorrect	regulate	Run2	regulate/STIM_011.jpg
1228.679	1.603	incorrect	regulate	Run2	regulate/STIM_011.jpg
1232.735	1.596	correct	regulate	Run2	regulate/STIM_011.jpg
1237.926	2.378	correct	regulate	Run2	regulate/STIM_012.jpg
1243.783	2.149	correct	regulate	Run2	regulate/STIM_012.jpg
1248.346	2.779	correct	regulate	Run2	regulate/STIM_012.jpg
1254.858	1.35	incorrect	regulate	Run2	regulate/STIM_012.jpg
1258.98	2.81	incorrect	regulate	Run2	regulate/STIM_013.jpg
1265.128	2.217	correct	regulate	Run2	regulate/STIM_013.jpg
1271.04	2.07	correct	regulate	Run2	regulate/STIM_013.jpg
1275.941	1.133	correct	regulate	Run2	regulate/STIM_013.jpg
1280.64	3.105	correct	regulate	Run2	regulate/STIM_014.jpg
1286.458	1.296	correct	regulate	Run2	regulate/STIM_014.jpg
1290.595	1.289	correct	regulate	Run2	regulate/STIM_014.jpg
1294.554	2.257	correct	regulate	Run2	regulate/STIM_014.jpg
1299.047	1.645	correct	regulate	Run2	regulate/STIM_015.jpg
1303.419	1.661	correct	regulate	Run2	regulate/STIM_015.jpg
1307.576	1.894	correct	regulate	Run2	regulate/STIM_015.jpg
1312.232	2.05	correct	regulate	Run2	regulate/STIM_015.jpg
1317.871	1.5	correct	regulate	Run2	regulate/STIM_016.jpg
1322.881	2.668	correct	regulate	Run2	regulate/STIM_016.jpg
1328.091	1.416	correct	regulate	Run2	regulate/STIM_016.jpg
1332.677	1.833	incorrect	regulate	Run2	regulate/STIM_016.jpg
1338.295	1.652	correct	regulate	Run2	regulate/STIM_017.jpg
1343.127	1.416	correct	regulate	Run2	regulate/STIM_017.jpg
1347.543	1.627	correct	regulate	Run2	regulate/STIM_017.jpg
1352.616	2.099	correct	regulate	Run2	regulate/STIM_017.jpg
1358.338	1.45	correct	regulate	Run2	regulate/STIM_018.jpg
1362.996	2.959	correct	regulate	Run2	regulate/STIM_018.jpg
1368.686	1.791	correct	regulate	Run2	regulate/STIM_018.jpg
1373.419	1.33	correct	regulate	Run2	regulate/STIM_018.jpg
1377.726	1.611	correct	regulate	Run2	regulate/STIM_019.jpg
1382.467	2.935	incorrect	regulate	Run2	regulate/STIM_019.jpg
1387.526	2.702	incorrect	regulate	Run2	regulate/STIM_019.jpg
1393.781	1.895	correct	regulate	Run2	regulate/STIM_019.jpg
1398.303	2.392	correct	regulate	Run2	regulate/STIM_020.jpg
1403.9	1.899	correct	regulate	Run2	regulate/STIM_020.jpg
1408.549	2.472	correct	regulate	Run2	regulate/STIM_020.jpg
1414.055	1.404	correct	regulate	Run2	regulate/STIM_020.jpg
1419.329	1.793	correct	regulate	Run2	regulate/STIM_021.jpg
1424.54	1.521	incorrect	regulate	Run2	regulate/STIM_021.jpg
1429.066	2.554	correct	regulate	Run2	regulate/STIM_021.jpg
1435.163	1.726	correct	regulate	Run2	regulate/STIM_021.jpg
1439.198	2.585	correct	regulate	Run2	regulate/STIM_022.jpg
1445.17	2.895	correct	regulate	Run2	regulate/STIM_022.jpg
1450.946	1.98	correct	regulate	Run2	regulate/STIM_022.jpg
1456.513	2.231	correct	regulate	Run2	regulate/STIM_022.jpg
1462.303	2.891	correct	regulate	Run2	regulate/STIM_023.jpg
1469.158	2.181	correct	regulate	Run2	regulate/STIM_023.jpg
1474.209	1.779	correct	regulate	Run2	regulate/STIM_023.jpg
1479.574	1.957	correct	regulate	Run2	regulate/STIM_023.jpg
1483.744	2.086	correct	regulate	Run2	regulate/STIM_024.jpg
1488.036	2.658	incorrect	regulate	Run2	regulate/STIM_024.jpg
1493.622	2.02	incorrect	regulate	Run2	regulate/STIM_024.jpg
1498.304	2.073	correct	regulate	Run2	regulate/STIM_024.jpg
1504.109	1.932	correct	regulate	Run2	regulate/STIM_025.jpg
1508.937	2.842	incorrect	regulate	Run2	regulate/STIM_025.jpg
1515.664	1.738	correct	regulate	Run2	regulate/STIM_025.jpg
1519.506	2.4	correct	regulate	Run2	regulate/STIM_025.jpg
1524.272	1.513	correct	regulate	Run2	regulate/STIM_026.jpg
1529.274	1.647	correct	regulate	Run2	regulate/STIM_026.jpg
1533.642	1.965	correct	regulate	Run2	regulate/STIM_026.jpg
1539.568	1.706	correct	regulate	Run2	regulate/STIM_026.jpg
1545.235	1.543	correct	regulate	Run2	regulate/STIM_027.jpg
1549.641	1.984	correct	regulate	Run2	regulate/STIM_027.jpg
1554.113	1.498	correct	regulate	Run2	regulate/STIM_027.jpg
1558.221	1.77	correct	regulate	Run2	regulate/STIM_027.jpg
1563.32	2.389	correct	regulate	Run2	regulate/STIM_028.jpg
1567.71	2.037	correct	regulate	Run2	regulate/STIM_028.jpg
1572.548	1.404	correct	regulate	Run2	regulate/STIM_028.jpg
1576.705	2.498	correct	regulate	Run2	regulate/STIM_028.jpg
1581.535	2.648	correct	regulate	Run2	regulate/STIM_029.jpg
1587.641	2.121	correct	regulate	Run2	regulate/STIM_029.jpg
1592.172	2.337	correct	regulate	Run2	regulate/STIM_029.jpg
1598.118	1.116	correct	regulate	Run2	regulate/STIM_029.jpg
1603.065	1.379	correct	observe	Run2	observe/STIM_000.jpg
1608.077	1.006	incorrect	observe	Run2	observe/STIM_000.jpg
1611.57	1.592	correct	observe	Run2	observe/STIM_000.jpg
1616.838	1.066	correct	observe	Run2	observe/STIM_000.jpg
1620.483	1.292	correct	observe	Run2	observe/STIM_001.jpg
1624.576	1.434	incorrect	observe	Run2	observe/STIM_001.jpg
1628.139	1.141	correct	observe	Run2	observe/STIM_001.jpg
1633.139	1.144	correct	observe	Run2	observe/STIM_001.jpg
1637.028	1.452	incorrect	observe	Run2	observe/STIM_002.jpg
1641.831	1.08	correct	observe	Run2	observe/STIM_002.jpg
1646.827	0.935	correct	observe	Run2	observe/STIM_002.jpg
1650.789	0.923	correct	observe	Run2	observe/STIM_002.jpg
1654.612	1.158	correct	observe	Run2	observe/STIM_003.jpg
1658.153	1.209	correct	observe	Run2	observe/STIM_003.jpg
1662.118	1.627	correct	observe	Run2	observe/STIM_003.jpg
1667.656	1.693	correct	observe	Run2	observe/STIM_003.jpg
1672.694	1.456	incorrect	observe	Run2	observe/STIM_004.jpg
1678.063	1.385	correct	observe	Run2	observe/STIM_004.jpg
1681.619	1.12	incorrect	observe	Run2	observe/STIM_004.jpg
1686.272	1.205	correct	observe	Run2	observe/STIM_004.jpg
1689.77	1.296	correct	observe	Run2	observe/STIM_005.jpg
1694.196	1.67	incorrect	observe	Run2	observe/STIM_005.jpg
1698.455	1.077	correct	observe	Run2	observe/STIM_005.jpg
1703.047	1.084	correct	observe	Run2	observe/STIM_005.jpg
1707.27	1.508	incorrect	observe	Run2	observe/STIM_006.jpg
1712.547	1.132	correct	observe	Run2	observe/STIM_006.jpg
1716.039	0.893	correct	observe	Run2	observe/STIM_006.jpg
1719.256	1.166	incorrect	observe	Run2	observe/STIM_006.jpg
1723.376	1.547	correct	observe	Run2	observe/STIM_007.jpg
1727.749	1.201	correct	observe	Run2	observe/STIM_007.jpg
1731.516	1.234	correct	observe	Run2	observe/STIM_007.jpg
1735.419	1.585	correct	observe	Run2	observe/STIM_007.jpg
1739.722	1.602	incorrect	observe	Run2	observe/STIM_008.jpg
1744.719	0.992	correct	observe	Run2	observe/STIM_008.jpg
1748.105	1.572	correct	observe	Run2	observe/STIM_008.jpg
1752.598	1.169	correct	observe	Run2	observe/STIM_008.jpg
1756.039	1.17	correct	observe	Run2	observe/STIM_009.jpg
1760.423	1.658	correct	observe	Run2	observe/STIM_009.jpg
1764.476	1.204	correct	observe	Run2	observe/STIM_009.jpg
1768.261	0.922	correct	observe	Run2	observe/STIM_009.jpg
1771.222	0.95	incorrect	observe	Run2	observe/STIM_010.jpg
1776.101	1.687	correct	observe	Run2	observe/STIM_010.jpg
1781.241	1.569	correct	observe	Run2	observe/STIM_010.jpg
1785.564	0.882	incorrect	observe	Run2	observe/STIM_010.jpg
1789.506	1.66	correct	observe	Run2	observe/STIM_011.jpg
1794.795	0.848	incorrect	observe	Run2	observe/STIM_011.jpg
1798.386	1.388	correct	observe	Run2	observe/STIM_011.jpg
1803.357	1.362	correct	observe	Run2	observe/STIM_011.jpg
1808.008	1.142	correct	observe	Run2	observe/STIM_012.jpg
1812.481	1.126	incorrect	observe	Run2	observe/STIM_012.jpg
1817.086	1.323	correct	observe	Run2	observe/STIM_012.jpg
1820.456	1.122	correct	observe	Run2	observe/STIM_012.jpg
1823.998	1.575	correct	observe	Run2	observe/STIM_013.jpg
1828.394	1.596	correct	observe	Run2	observe/STIM_013.jpg
1832.121	1.656	correct	observe	Run2	observe/STIM_013.jpg
1836.736	1.587	correct	observe	Run2	observe/STIM_013.jpg
1840.454	1.355	correct	observe	Run2	observe/STIM_014.jpg
1845.08	1.016	correct	observe	Run2	observe/STIM_014.jpg
1849.924	1.495	incorrect	observe	Run2	observe/STIM_014.jpg
1853.516	0.964	correct	observe	Run2	observe/STIM_014.jpg
1857.179	1.65	incorrect	observe	Run2	observe/STIM_015.jpg
1862.006	0.864	correct	observe	Run2	observe/STIM_015.jpg
1866.644	1.55	correct	observe	Run2	observe/STIM_015.jpg
1870.256	1.273	correct	observe	Run2	observe/STIM_015.jpg
1874.727	1.187	correct	observe	Run2	observe/STIM_016.jpg
1878.278	1.64	correct	observe	Run2	observe/STIM_016.jpg
1882.091	1.622	correct	observe	Run2	observe/STIM_016.jpg
1886.098	1.636	correct	observe	Run2	observe/STIM_016.jpg
1890.077	1.293	correct	observe	Run2	observe/STIM_017.jpg
1895.152	1.682	correct	observe	Run2	observe/STIM_017.jpg
1900.562	1.104	correct	observe	Run2	observe/STIM_017.jpg
1905.539	1.439	correct	observe	Run2	observe/STIM_017.jpg
1910.232	0.939	correct	observe	Run2	observe/STIM_018.jpg
1914.305	1.314	correct	observe	Run2	observe/STIM_018.jpg
1918.262	1.47	correct	observe	Run2	observe/STIM_018.jpg
1923.148	1.23	correct	observe	Run2	observe/STIM_018.jpg
1928.15	1.139	correct	observe	Run2	observe/STIM_019.jpg
1932.86	1.095	incorrect	observe	Run2	observe/STIM_019.jpg
1937.112	1.238	correct	observe	Run2	observe/STIM_019.jpg
1940.682	1.287	correct	observe	Run2	observe/STIM_019.jpg
1945.011	1.259	correct	regulate	Run3	regulate/STIM_000.jpg
1949.741	2.065	correct	regulate	Run3	regulate/STIM_000.jpg
1954.406	1.621	correct	regulate	Run3	regulate/STIM_000.jpg
1958.303	1.745	correct	regulate	Run3	regulate/STIM_000.jpg
1962.792	1.717	correct	regulate	Run3	regulate/STIM_001.jpg
1967.995	1.329	correct	regulate	Run3	regulate/STIM_001.jpg
1971.515	2.376	correct	regulate	Run3	regulate/STIM_001.jpg
1976.694	1.39	correct	regulate	Run3	regulate/STIM_001.jpg
1981.747	1.716	correct	regulate	Run3	regulate/STIM_002.jpg
1987.265	1.456	correct	regulate	Run3	regulate/STIM_002.jpg
1990.734	2.014	correct	regulate	Run3	regulate/STIM_002.jpg
1995.05	1.182	correct	regulate	Run3	regulate/STIM_002.jpg
1999.387	1.666	correct	regulate	Run3	regulate/STIM_003.jpg
2003.583	1.859	correct	regulate	Run3	regulate/STIM_003.jpg
2008.955	1.268	correct	regulate	Run3	regulate/STIM_003.jpg
2012.507	1.743	correct	regulate	Run3	regulate/STIM_003.jpg
2018.211	2.514	correct	regulate	Run3	regulate/STIM_004.jpg
2023.589	2.319	correct	regulate	Run3	regulate/STIM_004.jpg
2029.615	2.497	correct	regulate	Run3	regulate/STIM_004.jpg
2035.238	1.701	correct	regulate	Run3	regulate/STIM_004.jpg
2039.237	1.567	correct	regulate	Run3	regulate/STIM_005.jpg
2044.508	2.076	correct	regulate	Run3	regulate/STIM_005.jpg
2050.403	1.813	incorrect	regulate	Run3	regulate/STIM_005.jpg
2056.021	1.869	correct	regulate	Run3	regulate/STIM_005.jpg
2061.826	1.553	correct	regulate	Run3	regulate/STIM_006.jpg
2066.217	1.802	correct	regulate	Run3	regulate/STIM_006.jpg
2071.028	1.821	correct	regulate	Run3	regulate/STIM_006.jpg
2075.998	2.112	incorrect	regulate	Run3	regulate/STIM_006.jpg
2080.806	1.74	correct	regulate	Run3	regulate/STIM_007.jpg
2086.114	2.177	correct	regulate	Run3	regulate/STIM_007.jpg
2091.972	1.32	correct	regulate	Run3	regulate/STIM_007.jpg
2097.272	1.451	correct	regulate	Run3	regulate/STIM_007.jpg
2101.296	1.155	correct	regulate	Run3	regulate/STIM_008.jpg
2106.092	1.886	correct	regulate	Run3	regulate/STIM_008.jpg
2110.244	1.626	correct	regulate	Run3	regulate/STIM_008.jpg
2115.139	1.276	correct	regulate	Run3	regulate/STIM_008.jpg
2119.788	1.671	correct	regulate	Run3	regulate/STIM_009.jpg
2124.057	1.675	correct	regulate	Run3	regulate/STIM_009.jpg
2128.617	1.351	correct	regulate	Run3	regulate/STIM_009.jpg
2132.44	1.316	correct	regulate	Run3	regulate/STIM_009.jpg
2137.336	2.241	correct	regulate	Run3	regulate/STIM_010.jpg
2143.296	2.052	correct	regulate	Run3	regulate/STIM_010.jpg
2148.132	2.3	correct	regulate	Run3	regulate/STIM_010.jpg
2153.546	1.756	correct	regulate	Run3	regulate/STIM_010.jpg
2157.931	1.243	correct	regulate	Run3	regulate/STIM_011.jpg
2162.496	2.525	correct	regulate	Run3	regulate/STIM_011.jpg
2167.332	1.195	correct	regulate	Run3	regulate/STIM_011.jpg
2170.979	2.066	correct	regulate	Run3	regulate/STIM_011.jpg
2175.084	1.46	correct	regulate	Run3	regulate/STIM_012.jpg
2179.856	1.556	correct	regulate	Run3	regulate/STIM_012.jpg
2184.554	1.586	correct	regulate	Run3	regulate/STIM_012.jpg
2189.834	1.263	correct	regulate	Run3	regulate/STIM_012.jpg
2193.584	2.492	correct	regulate	Run3	regulate/STIM_013.jpg
2199.18	2.089	correct	regulate	Run3	regulate/STIM_013.jpg
2203.558	1.158	correct	regulate	Run3	regulate/STIM_013.jpg
2207.649	2.129	correct	regulate	Run3	regulate/STIM_013.jpg
2211.985	1.546	correct	regulate	Run3	regulate/STIM_014.jpg
2217.088	1.463	correct	regulate	Run3	regulate/STIM_014.jpg
2221.593	1.893	correct	regulate	Run3	regulate/STIM_014.jpg
2226.257	1.35	correct	regulate	Run3	regulate/STIM_014.jpg
2231.345	1.343	correct	regulate	Run3	regulate/STIM_015.jpg
2235.857	2.192	correct	regulate	Run3	regulate/STIM_015.jpg
2241.819	2.541	correct	regulate	Run3	regulate/STIM_015.jpg
2248.284	1.624	correct	regulate	Run3	regulate/STIM_015.jpg
2252.311	1.951	incorrect	regulate	Run3	regulate/STIM_016.jpg
2257.023	1.53	correct	regulate	Run3	regulate/STIM_016.jpg
2260.985	1.497	correct	regulate	Run3	regulate/STIM_016.jpg
2266.036	1.976	incorrect	regulate	Run3	regulate/STIM_016.jpg
2271.487	2.523	correct	regulate	Run3	regulate/STIM_017.jpg
2276.805	2.059	correct	regulate	Run3	regulate/STIM_017.jpg
2282.819	1.972	correct	regulate	Run3	regulate/STIM_017.jpg
2287.559	2.021	correct	regulate	Run3	regulate/STIM_017.jpg
2292.827	1.693	correct	regulate	Run3	regulate/STIM_018.jpg
2297.54	1.635	correct	regulate	Run3	regulate/STIM_018.jpg
2301.422	2.466	correct	regulate	Run3	regulate/STIM_018.jpg
2307.033	1.299	correct	regulate	Run3	regulate/STIM_018.jpg
2310.873	1.172	correct	regulate	Run3	regulate/STIM_019.jpg
2314.634	2.364	correct	regulate	Run3	regulate/STIM_019.jpg
2320.906	1.594	correct	regulate	Run3	regulate/STIM_019.jpg
2325.895	1.507	correct	regulate	Run3	regulate/STIM_019.jpg
2330.799	1.54	incorrect	regulate	Run3	regulate/STIM_020.jpg
2335.95	2.376	correct	regulate	Run3	regulate/STIM_020.jpg
2340.485	1.898	correct	regulate	Run3	regulate/STIM_020.jpg
2345.748	1.342	correct	regulate	Run3	regulate/STIM_020.jpg
2349.379	1.895	correct	regulate	Run3	regulate/STIM_021.jpg
2355.137	2.082	incorrect	regulate	Run3	regulate/STIM_021.jpg
2360.573	1.165	incorrect	regulate	Run3	regulate/STIM_021.jpg
2365.319	2.18	correct	regulate	Run3	regulate/STIM_021.jpg
2369.505	2.325	correct	regulate	Run3	regulate/STIM_022.jpg
2374.889	1.856	correct	regulate	Run3	regulate/STIM_022.jpg
2380.085	2.458	correct	regulate	Run3	regulate/STIM_022.jpg
2385.962	1.369	correct	regulate	Run3	regulate/STIM_022.jpg
2389.86	2.551	correct	regulate	Run3	regulate/STIM_023.jpg
2395.668	1.431	correct	regulate	Run3	regulate/STIM_023.jpg
2400.708	1.164	correct	regulate	Run3	regulate/STIM_023.jpg
2404.985	2.409	correct	regulate	Run3	regulate/STIM_023.jpg
2410.458	1.48	correct	regulate	Run3	regulate/STIM_024.jpg
2414.772	2.185	correct	regulate	Run3	regulate/STIM_024.jpg
2419.176	1.494	correct	regulate	Run3	regulate/STIM_024.jpg
2423.008	1.696	correct	regulate	Run3	regulate/STIM_024.jpg
2428.383	2.184	correct	regulate	Run3	regulate/STIM_025.jpg
2433.258	1.368	correct	regulate	Run3	regulate/STIM_025.jpg
2437.096	1.312	correct	regulate	Run3	regulate/STIM_025.jpg
2442.057	2.292	correct	regulate	Run3	regulate/STIM_025.jpg
2446.608	1.255	correct	regulate	Run3	regulate/STIM_026.jpg
2451.138	1.405	correct	regulate	Run3	regulate/STIM_026.jpg
2456.031	1.612	correct	regulate	Run3	regulate/STIM_026.jpg
2459.997	1.336	correct	regulate	Run3	regulate/STIM_026.jpg
2463.399	1.556	correct	regulate	Run3	regulate/STIM_027.jpg
2468.253	1.69	correct	regulate	Run3	regulate/STIM_027.jpg
2473.641	1.289	correct	regulate	Run3	regulate/STIM_027.jpg
2478.072	1.168	correct	regulate	Run3	regulate/STIM_027.jpg
2482.899	1.325	correct	regulate	Run3	regulate/STIM_028.jpg
2487.245	2.233	correct	regulate	Run3	regulate/STIM_028.jpg
2492.429	1.224	correct	regulate	Run3	regulate/STIM_028.jpg
2495.788	2.537	correct	regulate	Run3	regulate/STIM_028.jpg
2500.976	2.534	correct	regulate	Run3	regulate/STIM_029.jpg
2506.15	2.223	correct	regulate	Run3	regulate/STIM_029.jpg
2511.189	2.033	correct	regulate	Run3	regulate/STIM_029.jpg
2515.794	1.146	correct	regulate	Run3	regulate/STIM_029.jpg
2519.764	1.631	correct	observe	Run3	observe/STIM_000.jpg
2523.964	0.996	incorrect	observe	Run3	observe/STIM_000.jpg
2528.694	1.529	correct	observe	Run3	observe/STIM_000.jpg
2532.866	1.191	incorrect	observe	Run3	observe/STIM_000.jpg
2537.994	0.951	correct	observe	Run3	observe/STIM_001.jpg
2542.097	1.432	correct	observe	Run3	observe/STIM_001.jpg
2546.668	1.558	correct	observe	Run3	observe/STIM_001.jpg
2550.936	1.592	incorrect	observe	Run3	observe/STIM_001.jpg
2556.155	1.595	correct	observe	Run3	observe/STIM_002.jpg
2560.61	1.162	correct	observe	Run3	observe/STIM_002.jpg
2564.851	1.588	correct	observe	Run3	observe/STIM_002.jpg
2568.755	1.694	correct	observe	Run3	observe/STIM_002.jpg
2572.854	1.221	correct	observe	Run3	observe/STIM_003.jpg
2576.66	1.425	correct	observe	Run3	observe/STIM_003.jpg
2580.794	1.677	correct	observe	Run3	observe/STIM_003.jpg
2585.938	1.382	correct	observe	Run3	observe/STIM_003.jpg
2590.481	1.328	correct	observe	Run3	observe/STIM_004.jpg
2594.694	0.993	correct	observe	Run3	observe/STIM_004.jpg
2599.238	1.474	correct	observe	Run3	observe/STIM_004.jpg
2603.16	1.566	correct	observe	Run3	observe/STIM_004.jpg
2607.657	0.869	incorrect	observe	Run3	observe/STIM_005.jpg
2611.759	0.877	correct	observe	Run3	observe/STIM_005.jpg
2614.907	1.473	correct	observe	Run3	observe/STIM_005.jpg
2619.977	1.038	correct	observe	Run3	observe/STIM_005.jpg
2623.774	1.017	correct	observe	Run3	observe/STIM_006.jpg
2627.282	1.626	correct	observe	Run3	observe/STIM_006.jpg
2631.886	1.451	correct	observe	Run3	observe/STIM_006.jpg
2636.896	1.358	correct	observe	Run3	observe/STIM_006.jpg
2641.231	1.431	incorrect	observe	Run3	observe/STIM_007.jpg
2645.58	1.661	correct	observe	Run3	observe/STIM_007.jpg
2649.512	1.23	correct	observe	Run3	observe/STIM_007.jpg
2652.921	1.566	correct	observe	Run3	observe/STIM_007.jpg
2657.565	0.992	incorrect	observe	Run3	observe/STIM_008.jpg
2661.875	1.3	incorrect	observe	Run3	observe/STIM_008.jpg
2666.624	1.535	correct	observe	Run3	observe/STIM_008.jpg
2670.443	1.199	correct	observe	Run3	observe/STIM_008.jpg
2675.079	0.891	correct	observe	Run3	observe/STIM_009.jpg
2679.583	1.323	correct	observe	Run3	observe/STIM_009.jpg
2683.359	1.49	correct	observe	Run3	observe/STIM_009.jpg
2687.942	1.127	correct	observe	Run3	observe/STIM_009.jpg
2692.308	0.975	correct	observe	Run3	observe/STIM_010.jpg
2695.378	1.391	correct	observe	Run3	observe/STIM_010.jpg
2700.221	0.879	incorrect	observe	Run3	observe/STIM_010.jpg
2704.577	0.962	correct	observe	Run3	observe/STIM_010.jpg
2708.396	1.636	correct	observe	Run3	observe/STIM_011.jpg
2712.61	1.055	correct	observe	Run3	observe/STIM_011.jpg
2716.565	1.49	correct	observe	Run3	observe/STIM_011.jpg
2720.977	1.069	correct	observe	Run3	observe/STIM_011.jpg
2724.671	1.489	correct	observe	Run3	observe/STIM_012.jpg
2728.452	1.333	correct	observe	Run3	observe/STIM_012.jpg
2732.277	1.547	incorrect	observe	Run3	observe/STIM_012.jpg
2736.407	1.57	correct	observe	Run3	observe/STIM_012.jpg
2741.326	0.958	correct	observe	Run3	observe/STIM_013.jpg
2745.1	0.913	correct	observe	Run3	observe/STIM_013.jpg
2749.254	1.456	correct	observe	Run3	observe/STIM_013.jpg
2754.252	1.235	correct	observe	Run3	observe/STIM_013.jpg
2759.185	1.031	correct	observe	Run3	observe/STIM_014.jpg
2763.905	0.935	correct	observe	Run3	observe/STIM_014.jpg
2767.949	1.673	incorrect	observe	Run3	observe/STIM_014.jpg
2772.047	1.115	correct	observe	Run3	observe/STIM_014.jpg
2776.535	1.425	incorrect	observe	Run3	observe/STIM_015.jpg
2781.135	1.512	correct	observe	Run3	observe/STIM_015.jpg
2786.152	1.549	correct	observe	Run3	observe/STIM_015.jpg
2790.773	1.065	correct	observe	Run3	observe/STIM_015.jpg
2794.712	0.915	correct	observe	Run3	observe/STIM_016.jpg
2797.918	1.22	correct	observe	Run3	observe/STIM_016.jpg
2801.452	1.218	correct	observe	Run3	observe/STIM_016.jpg
2806.148	1.24	correct	observe	Run3	observe/STIM_016.jpg
2810.349	1.05	correct	observe	Run3	observe/STIM_017.jpg
2814.004	0.942	correct	observe	Run3	observe/STIM_017.jpg
2818.251	0.932	correct	observe	Run3	observe/STIM_017.jpg
2823.027	0.848	correct	observe	Run3	observe/STIM_017.jpg
2827.684	1.127	correct	observe	Run3	observe/STIM_018.jpg
2832.735	1.429	correct	observe	Run3	observe/STIM_018.jpg
2836.194	1.265	correct	observe	Run3	observe/STIM_018.jpg
2840.368	0.874	correct	observe	Run3	observe/STIM_018.jpg
2844.276	1.091	correct	observe	Run3	observe/STIM_019.jpg
2848.954	1.448	correct	observe	Run3	observe/STIM_019.jpg
2853.592	1.054	incorrect	observe	Run3	observe/STIM_019.jpg
2857.221	1.328	incorrect	observe	Run3	observe/STIM_019.jpg
