onset	duration	accuracy_binary	trial_type	learning_stage	stimulus
0.0	1.523	1	regulate	Run1	regulate/STIM_000.jpg
4.36	2.871	0	regulate	Run1	regulate/STIM_000.jpg
9.763	1.745	1	regulate	Run1	regulate/STIM_000.jpg
15.309	1.934	1	regulate	Run1	regulate/STIM_000.jpg
20.476	1.819	0	regulate	Run1	regulate/STIM_001.jpg
26.366	1.758	1	regulate	Run1	regulate/STIM_001.jpg
31.9	2.782	1	regulate	Run1	regulate/STIM_001.jpg
38.381	2.202	1	regulate	Run1	regulate/STIM_001.jpg
43.524	3.214	1	regulate	Run1	regulate/STIM_002.jpg
50.891	1.764	1	regulate	Run1	regulate/STIM_002.jpg
54.965	2.853	0	regulate	Run1	regulate/STIM_002.jpg
61.069	1.263	1	regulate	Run1	regulate/STIM_002.jpg
66.365	2.21	0	regulate	Run1	regulate/STIM_003.jpg
71.782	1.665	1	regulate	Run1	regulate/STIM_003.jpg
76.362	1.582	1	regulate	Run1	regulate/STIM_003.jpg
81.734	1.236	1	regulate	Run1	regulate/STIM_003.jpg
86.428	1.828	1	regulate	Run1	regulate/STIM_004.jpg
92.089	2.009	1	regulate	Run1	regulate/STIM_004.jpg
96.864	1.604	1	regulate	Run1	regulate/STIM_004.jpg
101.753	2.354	1	regulate	Run1	regulate/STIM_004.jpg
107.838	3.185	1	regulate	Run1	regulate/STIM_005.jpg
113.258	2.069	1	regulate	Run1	regulate/STIM_005.jpg
119.167	2.351	1	regulate	Run1	regulate/STIM_005.jpg
125.318	2.421	1	regulate	Run1	regulate/STIM_005.jpg
130.274	2.401	1	regulate	Run1	regulate/STIM_006.jpg
136.619	1.935	0	regulate	Run1	regulate/STIM_006.jpg
142.561	2.209	1	regulate	Run1	regulate/STIM_006.jpg
148.379	1.362	0	regulate	Run1	regulate/STIM_006.jpg
153.382	3.007	0	regulate	Run1	regulate/STIM_007.jpg
158.673	2.391	1	regulate	Run1	regulate/STIM_007.jpg
164.745	1.83	1	regulate	Run1	regulate/STIM_007.jpg
170.334	1.917	1	regulate	Run1	regulate/STIM_007.jpg
174.827	2.866	1	regulate	Run1	regulate/STIM_008.jpg
180.402	2.482	1	regulate	Run1	regulate/STIM_008.jpg
186.233	2.544	1	regulate	Run1	regulate/STIM_008.jpg
192.787	1.974	0	regulate	Run1	regulate/STIM_008.jpg
197.506	1.998	0	regulate	Run1	regulate/STIM_009.jpg
201.856	2.554	1	regulate	Run1	regulate/STIM_009.jpg
206.618	2.344	0	regulate	Run1	regulate/STIM_009.jpg
212.431	1.293	1	regulate	Run1	regulate/STIM_009.jpg
215.857	1.456	1	regulate	Run1	regulate/STIM_010.jpg
221.454	2.353	1	regulate	Run1	regulate/STIM_010.jpg
226.78	2.565	0	regulate	Run1	regulate/STIM_010.jpg
232.236	2.564	1	regulate	Run1	regulate/STIM_010.jpg
237.408	3.162	1	regulate	Run1	regulate/STIM_011.jpg
242.897	1.394	0	regulate	Run1	regulate/STIM_011.jpg
247.973	2.439	1	regulate	Run1	regulate/STIM_011.jpg
254.449	1.593	1	regulate	Run1	regulate/STIM_011.jpg
259.926	1.529	1	regulate	Run1	regulate/STIM_012.jpg
265.049	1.861	0	regulate	Run1	regulate/STIM_012.jpg
269.592	1.577	1	regulate	Run1	regulate/STIM_012.jpg
274.142	1.835	1	regulate	Run1	regulate/STIM_012.jpg
278.741	2.655	1	regulate	Run1	regulate/STIM_013.jpg
284.574	2.151	1	regulate	Run1	regulate/STIM_013.jpg
289.537	1.298	1	regulate	Run1	regulate/STIM_013.jpg
293.249	1.718	1	regulate	Run1	regulate/STIM_013.jpg
297.962	2.573	0	regulate	Run1	regulate/STIM_014.jpg
303.31	1.685	0	regulate	Run1	regulate/STIM_014.jpg
309.133	2.236	1	regulate	Run1	regulate/STIM_014.jpg
314.867	1.615	1	regulate	Run1	regulate/STIM_014.jpg
319.079	2.083	1	regulate	Run1	regulate/STIM_015.jpg
324.423	1.901	1	regulate	Run1	regulate/STIM_015.jpg
330.184	2.296	0	regulate	Run1	regulate/STIM_015.jpg
336.15	1.633	1	regulate	Run1	regulate/STIM_015.jpg
340.099	2.942	0	regulate	Run1	regulate/STIM_016.jpg
346.087	2.349	0	regulate	Run1	regulate/STIM_016.jpg
350.716	2.452	1	regulate	Run1	regulate/STIM_016.jpg
355.934	1.86	1	regulate	Run1	regulate/STIM_016.jpg
360.174	1.5	1	regulate	Run1	regulate/STIM_017.jpg
365.302	1.874	1	regulate	Run1	regulate/STIM_017.jpg
370.753	2.602	1	regulate	Run1	regulate/STIM_017.jpg
376.09	2.75	1	regulate	Run1	regulate/STIM_017.jpg
382.069	1.754	0	regulate	Run1	regulate/STIM_018.jpg
387.851	2.704	1	regulate	Run1	regulate/STIM_018.jpg
392.805	2.714	0	regulate	Run1	regulate/STIM_018.jpg
397.877	2.372	0	regulate	Run1	regulate/STIM_018.jpg
402.65	2.867	1	regulate	Run1	regulate/STIM_019.jpg
408.004	2.92	0	regulate	Run1	regulate/STIM_019.jpg
413.272	1.996	1	regulate	Run1	regulate/STIM_019.jpg
418.493	1.196	1	regulate	Run1	regulate/STIM_019.jpg
422.144	2.915	1	regulate	Run1	regulate/STIM_020.jpg
427.22	1.541	1	regulate	Run1	regulate/STIM_020.jpg
430.929	1.268	1	regulate	Run1	regulate/STIM_020.jpg
435.592	2.343	1	regulate	Run1	regulate/STIM_020.jpg
441.879	2.737	1	regulate	Run1	regulate/STIM_021.jpg
447.009	2.36	0	regulate	Run1	regulate/STIM_021.jpg
452.237	1.386	1	regulate	Run1	regulate/STIM_021.jpg
457.224	2.536	1	regulate	Run1	regulate/STIM_021.jpg
462.447	3.279	0	regulate	Run1	regulate/STIM_022.jpg
468.508	2.681	0	regulate	Run1	regulate/STIM_022.jpg
475.375	1.981	1	regulate	Run1	regulate/STIM_022.jpg
479.968	1.734	1	regulate	Run1	regulate/STIM_022.jpg
485.594	2.671	1	regulate	Run1	regulate/STIM_023.jpg
492.296	2.319	0	regulate	Run1	regulate/STIM_023.jpg
498.681	1.56	1	regulate	Run1	regulate/STIM_023.jpg
503.738	1.759	1	regulate	Run1	regulate/STIM_023.jpg
509.252	1.609	1	regulate	Run1	regulate/STIM_024.jpg
514.487	2.807	1	regulate	Run1	regulate/STIM_024.jpg
520.636	1.711	1	regulate	Run1	regulate/STIM_024.jpg
525.359	2.677	0	regulate	Run1	regulate/STIM_024.jpg
531.19	2.222	1	regulate	Run1	regulate/STIM_025.jpg
537.502	2.61	0	regulate	Run1	regulate/STIM_025.jpg
542.519	1.363	1	regulate	Run1	regulate/STIM_025.jpg
547.037	1.308	0	regulate	Run1	regulate/STIM_025.jpg
551.945	1.767	1	regulate	Run1	regulate/STIM_026.jpg
556.331	1.998	1	regulate	Run1	regulate/STIM_026.jpg
560.575	1.298	0	regulate	Run1	regulate/STIM_026.jpg
565.465	1.593	1	regulate	Run1	regulate/STIM_026.jpg
570.201	1.778	0	regulate	Run1	regulate/STIM_027.jpg
575.943	2.194	1	regulate	Run1	regulate/STIM_027.jpg
581.428	1.761	1	regulate	Run1	regulate/STIM_027.jpg
586.237	1.405	1	regulate	Run1	regulate/STIM_027.jpg
589.831	1.378	0	regulate	Run1	regulate/STIM_028.jpg
594.021	2.388	0	regulate	Run1	regulate/STIM_028.jpg
599.955	1.34	1	regulate	Run1	regulate/STIM_028.jpg
605.003	2.458	1	regulate	Run1	regulate/STIM_028.jpg
611.731	1.693	0	regulate	Run1	regulate/STIM_029.jpg
617.311	2.612	1	regulate	Run1	regulate/STIM_029.jpg
623.329	2.137	0	regulate	Run1	regulate/STIM_029.jpg
629.2	1.907	1	regulate	Run1	regulate/STIM_029.jpg
634.858	1.337	1	observe	Run1	observe/STIM_000.jpg
640.002	1.284	1	observe	Run1	observe/STIM_000.jpg
644.829	1.203	0	observe	Run1	observe/STIM_000.jpg
648.576	1.256	1	observe	Run1	observe/STIM_000.jpg
653.428	1.194	1	observe	Run1	observe/STIM_001.jpg
658.529	0.833	0	observe	Run1	observe/STIM_001.jpg
661.953	0.97	0	observe	Run1	observe/STIM_001.jpg
665.877	0.806	1	observe	Run1	observe/STIM_001.jpg
670.255	1.046	1	observe	Run1	observe/STIM_002.jpg
674.436	0.91	1	observe	Run1	observe/STIM_002.jpg
678.415	0.749	1	observe	Run1	observe/STIM_002.jpg
681.34	1.339	1	observe	Run1	observe/STIM_002.jpg
685.192	1.015	1	observe	Run1	observe/STIM_003.jpg
688.653	1.449	1	observe	Run1	observe/STIM_003.jpg
692.653	1.062	1	observe	Run1	observe/STIM_003.jpg
697.534	1.094	1	observe	Run1	observe/STIM_003.jpg
701.82	1.126	1	observe	Run1	observe/STIM_004.jpg
705.822	1.009	1	observe	Run1	observe/STIM_004.jpg
709.105	1.116	1	observe	Run1	observe/STIM_004.jpg
713.152	1.313	1	observe	Run1	observe/STIM_004.jpg
717.346	1.012	1	observe	Run1	observe/STIM_005.jpg
721.689	0.849	1	observe	Run1	observe/STIM_005.jpg
725.901	1.245	1	observe	Run1	observe/STIM_005.jpg
730.879	1.437	1	observe	Run1	observe/STIM_005.jpg
734.701	0.767	1	observe	Run1	observe/STIM_006.jpg
738.331	1.471	0	observe	Run1	observe/STIM_006.jpg
742.754	0.928	0	observe	Run1	observe/STIM_006.jpg
746.121	0.878	1	observe	Run1	observe/STIM_006.jpg
749.897	0.946	1	observe	Run1	observe/STIM_007.jpg
754.621	1.127	0	observe	Run1	observe/STIM_007.jpg
759.75	1.287	1	observe	Run1	observe/STIM_007.jpg
764.851	0.969	1	observe	Run1	observe/STIM_007.jpg
767.994	0.969	1	observe	Run1	observe/STIM_008.jpg
772.914	1.112	1	observe	Run1	observe/STIM_008.jpg
776.657	1.436	1	observe	Run1	observe/STIM_008.jpg
780.365	1.041	1	observe	Run1	observe/STIM_008.jpg
784.435	0.924	1	observe	Run1	observe/STIM_009.jpg
787.999	1.002	1	observe	Run1	observe/STIM_009.jpg
791.57	1.14	1	observe	Run1	observe/STIM_009.jpg
796.174	0.97	1	observe	Run1	observe/STIM_009.jpg
800.727	1.317	1	observe	Run1	observe/STIM_010.jpg
805.495	0.742	1	observe	Run1	observe/STIM_010.jpg
810.248	1.471	1	observe	Run1	observe/STIM_010.jpg
813.893	0.855	1	observe	Run1	observe/STIM_010.jpg
818.807	0.972	1	observe	Run1	observe/STIM_011.jpg
822.804	0.808	1	observe	Run1	observe/STIM_011.jpg
827.037	0.946	1	observe	Run1	observe/STIM_011.jpg
831.117	1.409	0	observe	Run1	observe/STIM_011.jpg
835.864	1.285	1	observe	Run1	observe/STIM_012.jpg
840.666	0.877	0	observe	Run1	observe/STIM_012.jpg
844.897	0.901	1	observe	Run1	observe/STIM_012.jpg
847.966	0.808	1	observe	Run1	observe/STIM_012.jpg
851.078	0.84	1	observe	Run1	observe/STIM_013.jpg
855.425	1.496	1	observe	Run1	observe/STIM_013.jpg
860.618	0.945	0	observe	Run1	observe/STIM_013.jpg
865.461	1.058	0	observe	Run1	observe/STIM_013.jpg
870.419	1.216	1	observe	Run1	observe/STIM_014.jpg
873.701	0.674	0	observe	Run1	observe/STIM_014.jpg
876.714	1.395	1	observe	Run1	observe/STIM_014.jpg
881.465	1.147	1	observe	Run1	observe/STIM_014.jpg
886.437	1.51	1	observe	Run1	observe/STIM_015.jpg
891.584	0.843	1	observe	Run1	observe/STIM_015.jpg
896.133	1.05	0	observe	Run1	observe/STIM_015.jpg
900.131	1.134	1	observe	Run1	observe/STIM_015.jpg
903.729	1.519	1	observe	Run1	observe/STIM_016.jpg
909.175	0.934	0	observe	Run1	observe/STIM_016.jpg
913.422	1.333	1	observe	Run1	observe/STIM_016.jpg
917.719	0.763	0	observe	Run1	observe/STIM_016.jpg
921.55	1.324	1	observe	Run1	observe/STIM_017.jpg
925.675	0.83	1	observe	Run1	observe/STIM_017.jpg
930.468	1.355	1	observe	Run1	observe/STIM_017.jpg
934.669	0.966	0	observe	Run1	observe/STIM_017.jpg
938.411	1.336	1	observe	Run1	observe/STIM_018.jpg
943.343	1.376	1	observe	Run1	observe/STIM_018.jpg
948.278	0.912	1	observe	Run1	observe/STIM_018.jpg
951.678	0.824	1	observe	Run1	observe/STIM_018.jpg
954.751	1.453	1	observe	Run1	observe/STIM_019.jpg
959.053	1.148	1	observe	Run1	observe/STIM_019.jpg
963.896	1.337	1	observe	Run1	observe/STIM_019.jpg
969.109	1.33	1	observe	Run1	observe/STIM_019.jpg
973.952	1.797	1	regulate	Run2	regulate/STIM_000.jpg
979.772	2.558	1	regulate	Run2	regulate/STIM_000.jpg
985.584	1.12	1	regulate	Run2	regulate/STIM_000.jpg
990.803	1.336	1	regulate	Run2	regulate/STIM_000.jpg
995.99	1.77	1	regulate	Run2	regulate/STIM_001.jpg
1000.725	2.433	1	regulate	Run2	regulate/STIM_001.jpg
1005.993	1.643	0	regulate	Run2	regulate/STIM_001.jpg
1011.689	1.453	1	regulate	Run2	regulate/STIM_001.jpg
1015.312	1.682	1	regulate	Run2	regulate/STIM_002.jpg
1019.833	2.348	1	regulate	Run2	regulate/STIM_002.jpg
1024.915	1.939	1	regulate	Run2	regulate/STIM_002.jpg
1029.166	1.574	1	regulate	Run2	regulate/STIM_002.jpg
1034.771	1.968	0	regulate	Run2	regulate/STIM_003.jpg
1038.825	1.653	1	regulate	Run2	regulate/STIM_003.jpg
1043.6	1.324	1	regulate	Run2	regulate/STIM_003.jpg
1047.35	1.219	1	regulate	Run2	regulate/STIM_003.jpg
1051.91	2.526	1	regulate	Run2	regulate/STIM_004.jpg
1057.861	1.195	1	regulate	Run2	regulate/STIM_004.jpg
1062.415	1.122	1	regulate	Run2	regulate/STIM_004.jpg
1066.92	1.91	1	regulate	Run2	regulate/STIM_004.jpg
1071.921	2.373	0	regulate	Run2	regulate/STIM_005.jpg
1078.403	1.371	1	regulate	Run2	regulate/STIM_005.jpg
1083.449	1.384	1	regulate	Run2	regulate/STIM_005.jpg
1088.978	1.158	1	regulate	Run2	regulate/STIM_005.jpg
1092.365	2.361	1	regulate	Run2	regulate/STIM_006.jpg
1098.197	2.369	1	regulate	Run2	regulate/STIM_006.jpg
1102.81	1.845	1	regulate	Run2	regulate/STIM_006.jpg
1106.854	1.17	1	regulate	Run2	regulate/STIM_006.jpg
1112.026	1.163	1	regulate	Run2	regulate/STIM_007.jpg
1115.324	2.306	1	regulate	Run2	regulate/STIM_007.jpg
1121.669	1.152	1	regulate	Run2	regulate/STIM_007.jpg
1124.901	2.07	1	regulate	Run2	regulate/STIM_007.jpg
1131.071	2.382	1	regulate	Run2	regulate/STIM_008.jpg
1136.64	1.383	1	regulate	Run2	regulate/STIM_008.jpg
1140.495	1.689	1	regulate	Run2	regulate/STIM_008.jpg
1144.705	1.661	1	regulate	Run2	regulate/STIM_008.jpg
1149.552	2.05	1	regulate	Run2	regulate/STIM_009.jpg
1155.396	1.204	1	regulate	Run2	regulate/STIM_009.jpg
1159.117	1.163	1	regulate	Run2	regulate/STIM_009.jpg
1162.477	1.168	1	regulate	Run2	regulate/STIM_009.jpg
1167.304	2.784	1	regulate	Run2	regulate/STIM_010.jpg
1173.027	1.632	1	regulate	Run2	regulate/STIM_010.jpg
1177.896	2.029	1	regulate	Run2	regulate/STIM_010.jpg
1182.433	2.169	1	regulate	Run2	regulate/STIM_010.jpg
1188.241	1.947	1	regulate	Run2	regulate/STIM_011.jpg
1194.098	2.465	0	regulate	Run2	regulate/STIM_011.jpg
1199.307	1.587	0	regulate	Run2	regulate/STIM_011.jpg
1203.925	1.129	1	regulate	Run2	regulate/STIM_011.jpg
1207.468	1.83	1	regulate	Run2	regulate/STIM_012.jpg
1213.075	1.526	1	regulate	Run2	regulate/STIM_012.jpg
1217.443	2.291	1	regulate	Run2	regulate/STIM_012.jpg
1223.63	1.582	1	regulate	Run2	regulate/STIM_012.jpg
1227.855	1.83	0	regulate	Run2	regulate/STIM_013.jpg
1232.431	2.448	1	regulate	Run2	regulate/STIM_013.jpg
1237.239	2.206	1	regulate	Run2	regulate/STIM_013.jpg
1242.134	0.993	1	regulate	Run2	regulate/STIM_013.jpg
1246.982	2.617	1	regulate	Run2	regulate/STIM_014.jpg
1252.337	1.262	1	regulate	Run2	regulate/STIM_014.jpg
1256.574	2.28	1	regulate	Run2	regulate/STIM_014.jpg
1262.208	2.002	1	regulate	Run2	regulate/STIM_014.jpg
1267.186	1.62	1	regulate	Run2	regulate/STIM_015.jpg
1272.48	1.152	1	regulate	Run2	regulate/STIM_015.jpg
1275.846	1.93	1	regulate	Run2	regulate/STIM_015.jpg
1281.691	1.956	1	regulate	Run2	regulate/STIM_015.jpg
1286.786	2.084	1	regulate	Run2	regulate/STIM_016.jpg
1291.749	1.18	1	regulate	Run2	regulate/STIM_016.jpg
1295.192	2.001	1	regulate	Run2	regulate/STIM_016.jpg
1300.286	1.35	1	regulate	Run2	regulate/STIM_016.jpg
1304.746	2.226	1	regulate	Run2	regulate/STIM_017.jpg
1310.304	1.731	1	regulate	Run2	regulate/STIM_017.jpg
1314.914	1.21	1	regulate	Run2	regulate/STIM_017.jpg
1318.302	1.372	1	regulate	Run2	regulate/STIM_017.jpg
1322.483	1.976	1	regulate	Run2	regulate/STIM_018.jpg
1328.29	1.489	1	regulate	Run2	regulate/STIM_018.jpg
1333.196	1.605	1	regulate	Run2	regulate/STIM_018.jpg
1338.705	1.734	1	regulate	Run2	regulate/STIM_018.jpg
1344.319	2.503	1	regulate	Run2	regulate/STIM_019.jpg
1350.12	1.672	1	regulate	Run2	regulate/STIM_019.jpg
1354.664	1.286	0	regulate	Run2	regulate/STIM_019.jpg
1358.784	1.162	1	regulate	Run2	regulate/STIM_019.jpg
1363.776	1.938	1	regulate	Run2	regulate/STIM_020.jpg
1368.033	1.169	1	regulate	Run2	regulate/STIM_020.jpg
1371.97	2.373	1	regulate	Run2	regulate/STIM_020.jpg
1376.976	1.514	1	regulate	Run2	regulate/STIM_020.jpg
1381.821	1.542	1	regulate	Run2	regulate/STIM_021.jpg
1386.332	1.576	0	regulate	Run2	regulate/STIM_021.jpg
1391.981	2.093	1	regulate	Run2	regulate/STIM_021.jpg
1397.851	1.266	1	regulate	Run2	regulate/STIM_021.jpg
1403.224	2.28	1	regulate	Run2	regulate/STIM_022.jpg
1407.74	2.202	1	regulate	Run2	regulate/STIM_022.jpg
1413.189	1.388	1	regulate	Run2	regulate/STIM_022.jpg
1417.809	2.074	1	regulate	Run2	regulate/STIM_022.jpg
1422.493	2.687	1	regulate	Run2	regulate/STIM_023.jpg
1429.072	1.595	1	regulate	Run2	regulate/STIM_023.jpg
1434.221	1.533	1	regulate	Run2	regulate/STIM_023.jpg
1437.977	1.211	1	regulate	Run2	regulate/STIM_023.jpg
1442.634	1.647	1	regulate	Run2	regulate/STIM_024.jpg
1447.773	2.109	1	regulate	Run2	regulate/STIM_024.jpg
1453.938	1.428	0	regulate	Run2	regulate/STIM_024.jpg
1459.219	1.232	1	regulate	Run2	regulate/STIM_024.jpg
1463.607	1.487	1	regulate	Run2	regulate/STIM_025.jpg
1468.322	1.088	1	regulate	Run2	regulate/STIM_025.jpg
1472.928	1.466	1	regulate	Run2	regulate/STIM_025.jpg
1478.28	1.659	1	regulate	Run2	regulate/STIM_025.jpg
1482.799	1.351	1	regulate	Run2	regulate/STIM_026.jpg
1486.38	2.051	1	regulate	Run2	regulate/STIM_026.jpg
1490.597	2.073	1	regulate	Run2	regulate/STIM_026.jpg
1494.942	2.033	1	regulate	Run2	regulate/STIM_026.jpg
1500.294	2.389	1	regulate	Run2	regulate/STIM_027.jpg
1505.081	1.511	1	regulate	Run2	regulate/STIM_027.jpg
1510.491	1.172	1	regulate	Run2	regulate/STIM_027.jpg
1515.059	1.672	1	regulate	Run2	regulate/STIM_027.jpg
1518.942	1.549	1	regulate	Run2	regulate/STIM_028.jpg
1522.882	1.254	1	regulate	Run2	regulate/STIM_028.jpg
1526.979	2.169	1	regulate	Run2	regulate/STIM_028.jpg
1532.855	0.998	1	regulate	Run2	regulate/STIM_028.jpg
1537.51	2.569	1	regulate	Run2	regulate/STIM_029.jpg
1542.767	1.603	1	regulate	Run2	regulate/STIM_029.jpg
1548.166	1.411	1	regulate	Run2	regulate/STIM_029.jpg
1553.075	1.84	0	regulate	Run2	regulate/STIM_029.jpg
1557.054	1.247	1	observe	Run2	observe/STIM_000.jpg
1561.4	1.087	0	observe	Run2	observe/STIM_000.jpg
1565.8	1.001	1	observe	Run2	observe/STIM_000.jpg
1569.871	1.04	1	observe	Run2	observe/STIM_000.jpg
1574.998	1.295	1	observe	Run2	observe/STIM_001.jpg
1579.131	1.146	1	observe	Run2	observe/STIM_001.jpg
1583.724	1.304	1	observe	Run2	observe/STIM_001.jpg
1587.345	1.356	1	observe	Run2	observe/STIM_001.jpg
1591.483	1.267	0	observe	Run2	observe/STIM_002.jpg
1595.605	1.363	1	observe	Run2	observe/STIM_002.jpg
1599.707	1.198	1	observe	Run2	observe/STIM_002.jpg
1604.405	1.118	1	observe	Run2	observe/STIM_002.jpg
1609.276	1.02	1	observe	Run2	observe/STIM_003.jpg
1613.625	1.371	1	observe	Run2	observe/STIM_003.jpg
1617.931	1.244	1	observe	Run2	observe/STIM_003.jpg
1623.108	1.073	1	observe	Run2	observe/STIM_003.jpg
1626.637	0.842	1	observe	Run2	observe/STIM_004.jpg
1629.906	1.18	1	observe	Run2	observe/STIM_004.jpg
1634.831	1.036	0	observe	Run2	observe/STIM_004.jpg
1639.585	1.418	1	observe	Run2	observe/STIM_004.jpg
1645.089	1.357	1	observe	Run2	observe/STIM_005.jpg
1649.005	1.392	0	observe	Run2	observe/STIM_005.jpg
1652.778	1.19	1	observe	Run2	observe/STIM_005.jpg
1656.46	0.94	1	observe	Run2	observe/STIM_005.jpg
1660.443	1.154	0	observe	Run2	observe/STIM_006.jpg
1665.67	1.414	1	observe	Run2	observe/STIM_006.jpg
1669.733	1.421	1	observe	Run2	observe/STIM_006.jpg
1675.004	1.075	0	observe	Run2	observe/STIM_006.jpg
1679.983	1.284	1	observe	Run2	observe/STIM_007.jpg
1684.446	0.928	1	observe	Run2	observe/STIM_007.jpg
1687.927	0.953	1	observe	Run2	observe/STIM_007.jpg
1691.593	0.993	1	observe	Run2	observe/STIM_007.jpg
1696.176	0.79	0	observe	Run2	observe/STIM_008.jpg
1699.789	1.206	1	observe	Run2	observe/STIM_008.jpg
1705.13	1.286	1	observe	Run2	observe/STIM_008.jpg
1708.973	1.065	1	observe	Run2	observe/STIM_008.jpg
1712.636	0.928	1	observe	Run2	observe/STIM_009.jpg
1717.424	0.839	1	observe	Run2	observe/STIM_009.jpg
1721.7	1.422	1	observe	Run2	observe/STIM_009.jpg
1725.536	1.283	1	observe	Run2	observe/STIM_009.jpg
1730.637	1.235	0	observe	Run2	observe/STIM_010.jpg
1735.254	1.18	1	observe	Run2	observe/STIM_010.jpg
1739.263	1.166	1	observe	Run2	observe/STIM_010.jpg
1744.508	0.897	0	observe	Run2	observe/STIM_010.jpg
1749.364	1.378	1	observe	Run2	observe/STIM_011.jpg
1754.12	1.092	0	observe	Run2	observe/STIM_011.jpg
1757.962	1.029	1	observe	Run2	observe/STIM_011.jpg
1762.984	1.162	1	observe	Run2	observe/STIM_011.jpg
1767.445	0.925	1	observe	Run2	observe/STIM_012.jpg
1771.536	1.142	0	observe	Run2	observe/STIM_012.jpg
1775.277	1.007	1	observe	Run2	observe/STIM_012.jpg
1779.77	1.01	1	observe	Run2	observe/STIM_012.jpg
1783.32	1.024	1	observe	Run2	observe/STIM_013.jpg
1787.415	0.787	1	observe	Run2	observe/STIM_013.jpg
1791.235	1.334	1	observe	Run2	observe/STIM_013.jpg
1795.23	1.213	1	observe	Run2	observe/STIM_013.jpg
1798.639	1.134	1	observe	Run2	observe/STIM_014.jpg
1802.81	0.958	1	observe	Run2	observe/STIM_014.jpg
1806.223	1.481	0	observe	Run2	observe/STIM_014.jpg
1810.518	1.398	1	observe	Run2	observe/STIM_014.jpg
1815.377	0.752	0	observe	Run2	observe/STIM_015.jpg
1819.554	0.941	1	observe	Run2	observe/STIM_015.jpg
1822.66	1.297	1	observe	Run2	observe/STIM_015.jpg
1827.768	1.108	1	observe	Run2	observe/STIM_015.jpg
1831.061	1.096	1	observe	Run2	observe/STIM_016.jpg
1835.087	1.079	1	observe	Run2	observe/STIM_016.jpg
1840.053	1.374	1	observe	Run2	observe/STIM_016.jpg
1844.754	1.186	1	observe	Run2	observe/STIM_016.jpg
1849.775	1.295	1	observe	Run2	observe/STIM_017.jpg
1855.017	0.831	1	observe	Run2	observe/STIM_017.jpg
1859.597	1.319	1	observe	Run2	observe/STIM_017.jpg
1864.232	1.194	1	observe	Run2	observe/STIM_017.jpg
1868.868	0.782	1	observe	Run2	observe/STIM_018.jpg
1872.009	0.76	1	observe	Run2	observe/STIM_018.jpg
1876.752	1.353	1	observe	Run2	observe/STIM_018.jpg
1880.558	1.02	1	observe	Run2	observe/STIM_018.jpg
1884.245	1.421	1	observe	Run2	observe/STIM_019.jpg
1889.211	0.926	0	observe	Run2	observe/STIM_019.jpg
1892.643	1.229	1	observe	Run2	observe/STIM_019.jpg
1896.325	1.059	1	observe	Run2	observe/STIM_019.jpg
1901.44	1.686	1	regulate	Run3	regulate/STIM_000.jpg
1906.03	1.528	1	regulate	Run3	regulate/STIM_000.jpg
1909.884	1.747	1	regulate	Run3	regulate/STIM_000.jpg
1915.154	1.031	1	regulate	Run3	regulate/STIM_000.jpg
1920.125	1.505	1	regulate	Run3	regulate/STIM_001.jpg
1924.526	2.235	1	regulate	Run3	regulate/STIM_001.jpg
1930.821	1.531	1	regulate	Run3	regulate/STIM_001.jpg
1936.007	2.199	1	regulate	Run3	regulate/STIM_001.jpg
1942.065	1.09	1	regulate	Run3	regulate/STIM_002.jpg
1945.502	2.202	1	regulate	Run3	regulate/STIM_002.jpg
1950.407	2.001	1	regulate	Run3	regulate/STIM_002.jpg
1954.781	1.034	1	regulate	Run3	regulate/STIM_002.jpg
1958.732	1.94	1	regulate	Run3	regulate/STIM_003.jpg
1964.198	1.743	1	regulate	Run3	regulate/STIM_003.jpg
1969.841	1.697	0	regulate	Run3	regulate/STIM_003.jpg
1973.851	1.598	1	regulate	Run3	regulate/STIM_003.jpg
1978.75	0.986	1	regulate	Run3	regulate/STIM_004.jpg
1983.285	1.8	1	regulate	Run3	regulate/STIM_004.jpg
1989.234	2.116	1	regulate	Run3	regulate/STIM_004.jpg
1994.616	1.924	1	regulate	Run3	regulate/STIM_004.jpg
1999.449	0.845	1	regulate	Run3	regulate/STIM_005.jpg
2003.553	1.063	1	regulate	Run3	regulate/STIM_005.jpg
2008.645	1.858	1	regulate	Run3	regulate/STIM_005.jpg
2014.339	1.621	1	regulate	Run3	regulate/STIM_005.jpg
2018.559	1.738	1	regulate	Run3	regulate/STIM_006.jpg
2023.155	1.859	1	regulate	Run3	regulate/STIM_006.jpg
2027.848	1.295	1	regulate	Run3	regulate/STIM_006.jpg
2033.293	1.086	0	regulate	Run3	regulate/STIM_006.jpg
2037.22	1.906	1	regulate	Run3	regulate/STIM_007.jpg
2042.84	1.729	1	regulate	Run3	regulate/STIM_007.jpg
2046.75	1.114	1	regulate	Run3	regulate/STIM_007.jpg
2051.782	1.852	1	regulate	Run3	regulate/STIM_007.jpg
2057.636	0.942	1	regulate	Run3	regulate/STIM_008.jpg
2061.906	1.19	1	regulate	Run3	regulate/STIM_008.jpg
2066.16	1.031	1	regulate	Run3	regulate/STIM_008.jpg
2070.233	1.941	1	regulate	Run3	regulate/STIM_008.jpg
2076.106	1.277	1	regulate	Run3	regulate/STIM_009.jpg
2079.755	1.992	1	regulate	Run3	regulate/STIM_009.jpg
2084.108	1.67	1	regulate	Run3	regulate/STIM_009.jpg
2089.329	2.048	1	regulate	Run3	regulate/STIM_009.jpg
2093.63	1.838	1	regulate	Run3	regulate/STIM_010.jpg
2097.637	1.121	1	regulate	Run3	regulate/STIM_010.jpg
2102.326	2.117	1	regulate	Run3	regulate/STIM_010.jpg
2106.739	1.191	1	regulate	Run3	regulate/STIM_010.jpg
2110.476	1.38	1	regulate	Run3	regulate/STIM_011.jpg
2115.195	1.867	1	regulate	Run3	regulate/STIM_011.jpg
2120.241	0.986	1	regulate	Run3	regulate/STIM_011.jpg
2124.862	1.933	1	regulate	Run3	regulate/STIM_011.jpg
2130.039	1.556	1	regulate	Run3	regulate/STIM_012.jpg
2134.73	2.062	1	regulate	Run3	regulate/STIM_012.jpg
2139.443	0.988	1	regulate	Run3	regulate/STIM_012.jpg
2143.431	0.965	1	regulate	Run3	regulate/STIM_012.jpg
2146.905	1.45	1	regulate	Run3	regulate/STIM_013.jpg
2151.649	0.957	1	regulate	Run3	regulate/STIM_013.jpg
2156.354	1.289	1	regulate	Run3	regulate/STIM_013.jpg
2161.592	1.506	1	regulate	Run3	regulate/STIM_013.jpg
2165.365	2.182	1	regulate	Run3	regulate/STIM_014.jpg
2169.683	1.387	1	regulate	Run3	regulate/STIM_014.jpg
2174.197	2.197	1	regulate	Run3	regulate/STIM_014.jpg
2178.989	1.928	1	regulate	Run3	regulate/STIM_014.jpg
2183.769	1.085	1	regulate	Run3	regulate/STIM_015.jpg
2186.982	1.578	1	regulate	Run3	regulate/STIM_015.jpg
2191.767	1.952	1	regulate	Run3	regulate/STIM_015.jpg
2196.303	1.768	1	regulate	Run3	regulate/STIM_015.jpg
2202.052	2.063	0	regulate	Run3	regulate/STIM_016.jpg
2206.941	1.897	1	regulate	Run3	regulate/STIM_016.jpg
2212.97	1.919	1	regulate	Run3	regulate/STIM_016.jpg
2217.498	1.526	1	regulate	Run3	regulate/STIM_016.jpg
2222.375	2.15	1	regulate	Run3	regulate/STIM_017.jpg
2228.168	1.959	1	regulate	Run3	regulate/STIM_017.jpg
2233.581	2.074	1	regulate	Run3	regulate/STIM_017.jpg
2238.439	1.222	1	regulate	Run3	regulate/STIM_017.jpg
2243.705	1.925	1	regulate	Run3	regulate/STIM_018.jpg
2249.145	1.377	1	regulate	Run3	regulate/STIM_018.jpg
2253.17	1.993	1	regulate	Run3	regulate/STIM_018.jpg
2257.496	2.078	1	regulate	Run3	regulate/STIM_018.jpg
2263.313	0.999	1	regulate	Run3	regulate/STIM_019.jpg
2266.652	1.358	1	regulate	Run3	regulate/STIM_019.jpg
2271.502	1.872	1	regulate	Run3	regulate/STIM_019.jpg
2277.296	2.096	1	regulate	Run3	regulate/STIM_019.jpg
2281.545	1.18	1	regulate	Run3	regulate/STIM_020.jpg
2285.348	1.198	1	regulate	Run3	regulate/STIM_020.jpg
2290.112	1.188	1	regulate	Run3	regulate/STIM_020.jpg
2293.291	2.106	1	regulate	Run3	regulate/STIM_020.jpg
2298.108	1.056	1	regulate	Run3	regulate/STIM_021.jpg
2302.389	1.946	0	regulate	Run3	regulate/STIM_021.jpg
2307.625	2.187	1	regulate	Run3	regulate/STIM_021.jpg
2312.095	2.004	1	regulate	Run3	regulate/STIM_021.jpg
2318.088	1.582	1	regulate	Run3	regulate/STIM_022.jpg
2322.561	1.213	1	regulate	Run3	regulate/STIM_022.jpg
2327.692	1.113	1	regulate	Run3	regulate/STIM_022.jpg
2332.169	2.058	1	regulate	Run3	regulate/STIM_022.jpg
2336.477	1.112	1	regulate	Run3	regulate/STIM_023.jpg
2341.246	1.82	1	regulate	Run3	regulate/STIM_023.jpg
2346.239	1.644	1	regulate	Run3	regulate/STIM_023.jpg
2351.965	2.15	1	regulate	Run3	regulate/STIM_023.jpg
2357.696	1.706	1	regulate	Run3	regulate/STIM_024.jpg
2362.879	1.702	1	regulate	Run3	regulate/STIM_024.jpg
2368.167	2.148	1	regulate	Run3	regulate/STIM_024.jpg
2372.997	1.635	1	regulate	Run3	regulate/STIM_024.jpg
2377.99	1.365	1	regulate	Run3	regulate/STIM_025.jpg
2381.673	2.295	1	regulate	Run3	regulate/STIM_025.jpg
2387.259	1.041	1	regulate	Run3	regulate/STIM_025.jpg
2391.845	1.218	1	regulate	Run3	regulate/STIM_025.jpg
2396.113	1.226	1	regulate	Run3	regulate/STIM_026.jpg
2400.619	1.916	1	regulate	Run3	regulate/STIM_026.jpg
2406.616	1.275	1	regulate	Run3	regulate/STIM_026.jpg
2411.093	1.821	1	regulate	Run3	regulate/STIM_026.jpg
2417.054	1.363	1	regulate	Run3	regulate/STIM_027.jpg
2420.724	1.21	1	regulate	Run3	regulate/STIM_027.jpg
2425.543	1.872	1	regulate	Run3	regulate/STIM_027.jpg
2430.798	1.542	1	regulate	Run3	regulate/STIM_027.jpg
2435.952	1.713	1	regulate	Run3	regulate/STIM_028.jpg
2441.725	1.239	1	regulate	Run3	regulate/STIM_028.jpg
2446.877	1.383	1	regulate	Run3	regulate/STIM_028.jpg
2451.721	1.652	1	regulate	Run3	regulate/STIM_028.jpg
2456.972	1.26	1	regulate	Run3	regulate/STIM_029.jpg
2461.093	2.175	1	regulate	Run3	regulate/STIM_029.jpg
2466.571	1.642	1	regulate	Run3	regulate/STIM_029.jpg
2471.672	1.851	1	regulate	Run3	regulate/STIM_029.jpg
2476.771	1.32	1	observe	Run3	observe/STIM_000.jpg
2480.943	0.762	0	observe	Run3	observe/STIM_000.jpg
2485.724	1.361	1	observe	Run3	observe/STIM_000.jpg
2489.819	0.954	1	observe	Run3	observe/STIM_000.jpg
2493.298	1.546	1	observe	Run3	observe/STIM_001.jpg
2498.346	0.763	1	observe	Run3	observe/STIM_001.jpg
2502.732	1.25	1	observe	Run3	observe/STIM_001.jpg
2507.305	0.788	0	observe	Run3	observe/STIM_001.jpg
2511.567	0.805	1	observe	Run3	observe/STIM_002.jpg
2514.55	0.983	1	observe	Run3	observe/STIM_002.jpg
2518.67	1.377	1	observe	Run3	observe/STIM_002.jpg
2523.901	1.354	1	observe	Run3	observe/STIM_002.jpg
2528.828	1.525	1	observe	Run3	observe/STIM_003.jpg
2533.043	0.842	1	observe	Run3	observe/STIM_003.jpg
2536.618	1.134	1	observe	Run3	observe/STIM_003.jpg
2541.531	1.247	1	observe	Run3	observe/STIM_003.jpg
2546.173	0.982	1	observe	Run3	observe/STIM_004.jpg
2550.813	0.684	1	observe	Run3	observe/STIM_004.jpg
2555.02	1.402	1	observe	Run3	observe/STIM_004.jpg
2559.1	1.338	1	observe	Run3	observe/STIM_004.jpg
2564.295	1.194	1	observe	Run3	observe/STIM_005.jpg
2567.708	0.942	1	observe	Run3	observe/STIM_005.jpg
2571.395	0.898	1	observe	Run3	observe/STIM_005.jpg
2576.109	1.204	1	observe	Run3	observe/STIM_005.jpg
2579.434	1.257	1	observe	Run3	observe/STIM_006.jpg
2584.129	1.114	1	observe	Run3	observe/STIM_006.jpg
2588.031	0.715	1	observe	Run3	observe/STIM_006.jpg
2592.323	1.245	1	observe	Run3	observe/STIM_006.jpg
2597.44	1.142	0	observe	Run3	observe/STIM_007.jpg
2602.357	1.221	1	observe	Run3	observe/STIM_007.jpg
2607.113	0.816	1	observe	Run3	observe/STIM_007.jpg
2610.157	0.842	1	observe	Run3	observe/STIM_007.jpg
2615.065	1.111	0	observe	Run3	observe/STIM_008.jpg
2619.921	0.821	1	observe	Run3	observe/STIM_008.jpg
2624.811	1.415	1	observe	Run3	observe/STIM_008.jpg
2629.921	1.32	0	observe	Run3	observe/STIM_008.jpg
2633.652	0.864	1	observe	Run3	observe/STIM_009.jpg
2637.612	1.033	1	observe	Run3	observe/STIM_009.jpg
2642.294	1.443	1	observe	Run3	observe/STIM_009.jpg
2646.824	1.191	1	observe	Run3	observe/STIM_009.jpg
2651.525	1.393	1	observe	Run3	observe/STIM_010.jpg
2656.951	1.172	1	observe	Run3	observe/STIM_010.jpg
2662.106	1.505	0	observe	Run3	observe/STIM_010.jpg
2666.242	1.344	1	observe	Run3	observe/STIM_010.jpg
2670.433	1.477	1	observe	Run3	observe/STIM_011.jpg
2675.487	1.305	1	observe	Run3	observe/STIM_011.jpg
2680.322	1.144	1	observe	Run3	observe/STIM_011.jpg
2683.766	1.297	1	observe	Run3	observe/STIM_011.jpg
2687.451	1.05	1	observe	Run3	observe/STIM_012.jpg
2691.263	1.212	1	observe	Run3	observe/STIM_012.jpg
2695.019	1.006	0	observe	Run3	observe/STIM_012.jpg
2698.998	1.248	1	observe	Run3	observe/STIM_012.jpg
2704.088	0.947	1	observe	Run3	observe/STIM_013.jpg
2707.063	0.872	1	observe	Run3	observe/STIM_013.jpg
2711.452	1.419	1	observe	Run3	observe/STIM_013.jpg
2715.288	1.497	1	observe	Run3	observe/STIM_013.jpg
2719.082	0.783	1	observe	Run3	observe/STIM_014.jpg
2723.658	0.949	1	observe	Run3	observe/STIM_014.jpg
2728.584	1.245	0	observe	Run3	observe/STIM_014.jpg
2733.596	0.817	1	observe	Run3	observe/STIM_014.jpg
2736.786	0.724	1	observe	Run3	observe/STIM_015.jpg
2741.423	1.212	1	observe	Run3	observe/STIM_015.jpg
2745.484	1.104	1	observe	Run3	observe/STIM_015.jpg
2750.146	0.697	1	observe	Run3	observe/STIM_015.jpg
2754.066	0.827	1	observe	Run3	observe/STIM_016.jpg
2757.352	1.287	1	observe	Run3	observe/STIM_016.jpg
2762.655	0.877	1	observe	Run3	observe/STIM_016.jpg
2766.713	0.829	1	observe	Run3	observe/STIM_016.jpg
2769.822	0.824	1	observe	Run3	observe/STIM_017.jpg
2773.801	0.999	1	observe	Run3	observe/STIM_017.jpg
2777.189	0.808	1	observe	Run3	observe/STIM_017.jpg
2780.698	1.042	1	observe	Run3	observe/STIM_017.jpg
2784.562	1.26	1	observe	Run3	observe/STIM_018.jpg
2789.829	1.416	1	observe	Run3	observe/STIM_018.jpg
2793.823	0.811	1	observe	Run3	observe/STIM_018.jpg
2798.497	0.977	1	observe	Run3	observe/STIM_018.jpg
2803.151	1.339	1	observe	Run3	observe/STIM_019.jpg
2808.225	1.255	1	observe	Run3	observe/STIM_019.jpg
2812.676	1.019	0	observe	Run3	observe/STIM_019.jpg
2817.669	0.951	0	observe	Run3	observe/STIM_019.jpg
