onset	duration	accuracy_binary	trial_type	learning_stage	stimulus
0.0	2.025	1	regulate	Run1	regulate/STIM_000.jpg
5.715	1.77	1	regulate	Run1	regulate/STIM_000.jpg
9.588	2.765	1	regulate	Run1	regulate/STIM_000.jpg
15.172	1.493	1	regulate	Run1	regulate/STIM_000.jpg
19.267	2.293	0	regulate	Run1	regulate/STIM_001.jpg
23.696	2.648	1	regulate	Run1	regulate/STIM_001.jpg
29.585	2.632	1	regulate	Run1	regulate/STIM_001.jpg
34.665	2.358	1	regulate	Run1	regulate/STIM_001.jpg
39.685	3.017	1	regulate	Run1	regulate/STIM_002.jpg
45.6	2.326	1	regulate	Run1	regulate/STIM_002.jpg
50.757	2.239	0	regulate	Run1	regulate/STIM_002.jpg
55.941	2.664	1	regulate	Run1	regulate/STIM_002.jpg
61.012	2.354	1	regulate	Run1	regulate/STIM_003.jpg
66.262	3.267	1	regulate	Run1	regulate/STIM_003.jpg
71.822	3.153	1	regulate	Run1	regulate/STIM_003.jpg
78.031	1.427	1	regulate	Run1	regulate/STIM_003.jpg
81.542	1.643	1	regulate	Run1	regulate/STIM_004.jpg
86.951	2.723	0	regulate	Run1	regulate/STIM_004.jpg
92.973	2.831	1	regulate	Run1	regulate/STIM_004.jpg
98.754	2.357	1	regulate	Run1	regulate/STIM_004.jpg
103.444	1.63	1	regulate	Run1	regulate/STIM_005.jpg
108.891	2.557	1	regulate	Run1	regulate/STIM_005.jpg
114.265	2.398	1	regulate	Run1	regulate/STIM_005.jpg
119.46	2.145	1	regulate	Run1	regulate/STIM_005.jpg
125.596	1.837	1	regulate	Run1	regulate/STIM_006.jpg
130.76	2.342	0	regulate	Run1	regulate/STIM_006.jpg
136.153	2.464	1	regulate	Run1	regulate/STIM_006.jpg
142.536	2.828	0	regulate	Run1	regulate/STIM_006.jpg
148.245	3.244	0	regulate	Run1	regulate/STIM_007.jpg
153.597	2.533	1	regulate	Run1	regulate/STIM_007.jpg
159.386	2.21	1	regulate	Run1	regulate/STIM_007.jpg
163.939	2.561	1	regulate	Run1	regulate/STIM_007.jpg
169.74	3.505	1	regulate	Run1	regulate/STIM_008.jpg
176.44	3.13	1	regulate	Run1	regulate/STIM_008.jpg
182.901	2.412	1	regulate	Run1	regulate/STIM_008.jpg
187.574	3.07	0	regulate	Run1	regulate/STIM_008.jpg
192.875	2.102	0	regulate	Run1	regulate/STIM_009.jpg
197.188	2.177	1	regulate	Run1	regulate/STIM_009.jpg
202.758	1.749	0	regulate	Run1	regulate/STIM_009.jpg
207.455	2.357	1	regulate	Run1	regulate/STIM_009.jpg
213.378	3.569	0	regulate	Run1	regulate/STIM_010.jpg
220.309	1.716	1	regulate	Run1	regulate/STIM_010.jpg
224.386	2.788	0	regulate	Run1	regulate/STIM_010.jpg
229.562	2.865	1	regulate	Run1	regulate/STIM_010.jpg
234.973	2.602	1	regulate	Run1	regulate/STIM_011.jpg
239.916	2.811	0	regulate	Run1	regulate/STIM_011.jpg
245.05	3.07	1	regulate	Run1	regulate/STIM_011.jpg
250.324	2.723	1	regulate	Run1	regulate/STIM_011.jpg
256.324	3.153	1	regulate	Run1	regulate/STIM_012.jpg
262.398	3.263	0	regulate	Run1	regulate/STIM_012.jpg
269.441	1.996	1	regulate	Run1	regulate/STIM_012.jpg
273.998	1.722	1	regulate	Run1	regulate/STIM_012.jpg
279.625	2.395	1	regulate	Run1	regulate/STIM_013.jpg
284.436	2.714	1	regulate	Run1	regulate/STIM_013.jpg
289.674	2.883	1	regulate	Run1	regulate/STIM_013.jpg
295.265	1.424	1	regulate	Run1	regulate/STIM_013.jpg
300.117	1.602	0	regulate	Run1	regulate/STIM_014.jpg
304.423	3.301	0	regulate	Run1	regulate/STIM_014.jpg
310.276	2.609	1	regulate	Run1	regulate/STIM_014.jpg
315.819	1.744	1	regulate	Run1	regulate/STIM_014.jpg
320.358	1.819	1	regulate	Run1	regulate/STIM_015.jpg
324.626	1.624	1	regulate	Run1	regulate/STIM_015.jpg
329.999	1.513	0	regulate	Run1	regulate/STIM_015.jpg
334.663	2.613	1	regulate	Run1	regulate/STIM_015.jpg
339.277	3.006	0	regulate	Run1	regulate/STIM_016.jpg
344.957	3.071	0	regulate	Run1	regulate/STIM_016.jpg
350.476	1.654	1	regulate	Run1	regulate/STIM_016.jpg
354.935	1.854	1	regulate	Run1	regulate/STIM_016.jpg
359.306	2.725	1	regulate	Run1	regulate/STIM_017.jpg
364.863	2.458	1	regulate	Run1	regulate/STIM_017.jpg
371.312	2.369	1	regulate	Run1	regulate/STIM_017.jpg
376.081	2.957	1	regulate	Run1	regulate/STIM_017.jpg
382.951	2.336	0	regulate	Run1	regulate/STIM_018.jpg
389.202	3.208	0	regulate	Run1	regulate/STIM_018.jpg
394.861	2.638	0	regulate	Run1	regulate/STIM_018.jpg
399.685	2.574	0	regulate	Run1	regulate/STIM_018.jpg
404.526	1.657	1	regulate	Run1	regulate/STIM_019.jpg
409.372	2.726	0	regulate	Run1	regulate/STIM_019.jpg
415.722	2.728	1	regulate	Run1	regulate/STIM_019.jpg
421.275	2.646	0	regulate	Run1	regulate/STIM_019.jpg
427.705	1.951	1	regulate	Run1	regulate/STIM_020.jpg
432.37	3.033	1	regulate	Run1	regulate/STIM_020.jpg
438.234	1.445	1	regulate	Run1	regulate/STIM_020.jpg
442.741	1.763	1	regulate	Run1	regulate/STIM_020.jpg
447.131	2.163	1	regulate	Run1	regulate/STIM_021.jpg
452.71	2.023	0	regulate	Run1	regulate/STIM_021.jpg
458.436	1.736	1	regulate	Run1	regulate/STIM_021.jpg
462.835	1.575	1	regulate	Run1	regulate/STIM_021.jpg
467.874	2.018	0	regulate	Run1	regulate/STIM_022.jpg
473.818	3.215	0	regulate	Run1	regulate/STIM_022.jpg
480.09	1.525	1	regulate	Run1	regulate/STIM_022.jpg
483.635	2.198	1	regulate	Run1	regulate/STIM_022.jpg
488.123	1.965	1	regulate	Run1	regulate/STIM_023.jpg
493.038	2.068	0	regulate	Run1	regulate/STIM_023.jpg
498.179	3.268	1	regulate	Run1	regulate/STIM_023.jpg
504.728	3.142	1	regulate	Run1	regulate/STIM_023.jpg
510.244	1.97	1	regulate	Run1	regulate/STIM_024.jpg
515.921	2.381	1	regulate	Run1	regulate/STIM_024.jpg
521.488	1.441	1	regulate	Run1	regulate/STIM_024.jpg
525.932	2.276	0	regulate	Run1	regulate/STIM_024.jpg
532.187	1.621	1	regulate	Run1	regulate/STIM_025.jpg
537.184	2.077	0	regulate	Run1	regulate/STIM_025.jpg
541.69	2.334	1	regulate	Run1	regulate/STIM_025.jpg
547.188	3.004	0	regulate	Run1	regulate/STIM_025.jpg
553.42	2.916	1	regulate	Run1	regulate/STIM_026.jpg
560.271	3.049	1	regulate	Run1	regulate/STIM_026.jpg
567.199	3.285	1	regulate	Run1	regulate/STIM_026.jpg
572.775	1.525	1	regulate	Run1	regulate/STIM_026.jpg
577.259	3.132	0	regulate	Run1	regulate/STIM_027.jpg
582.768	1.972	1	regulate	Run1	regulate/STIM_027.jpg
588.505	2.162	1	regulate	Run1	regulate/STIM_027.jpg
594.273	2.791	1	regulate	Run1	regulate/STIM_027.jpg
600.593	1.622	0	regulate	Run1	regulate/STIM_028.jpg
606.129	2.205	1	regulate	Run1	regulate/STIM_028.jpg
610.989	1.52	1	regulate	Run1	regulate/STIM_028.jpg
615.244	1.846	1	regulate	Run1	regulate/STIM_028.jpg
619.869	1.695	0	regulate	Run1	regulate/STIM_029.jpg
625.477	3.202	1	regulate	Run1	regulate/STIM_029.jpg
632.384	3.321	1	regulate	Run1	regulate/STIM_029.jpg
639.289	2.433	1	regulate	Run1	regulate/STIM_029.jpg
644.723	1.056	1	observe	Run1	observe/STIM_000.jpg
649.159	1.262	1	observe	Run1	observe/STIM_000.jpg
653.44	0.93	0	observe	Run1	observe/STIM_000.jpg
657.839	1.28	1	observe	Run1	observe/STIM_000.jpg
662.519	1.487	1	observe	Run1	observe/STIM_001.jpg
666.946	1.292	1	observe	Run1	observe/STIM_001.jpg
670.715	1.619	0	observe	Run1	observe/STIM_001.jpg
675.989	1.255	1	observe	Run1	observe/STIM_001.jpg
680.552	1.26	1	observe	Run1	observe/STIM_002.jpg
685.473	1.272	1	observe	Run1	observe/STIM_002.jpg
690.165	0.957	1	observe	Run1	observe/STIM_002.jpg
694.079	1.616	1	observe	Run1	observe/STIM_002.jpg
699.593	1.061	1	observe	Run1	observe/STIM_003.jpg
703.025	1.064	1	observe	Run1	observe/STIM_003.jpg
707.704	1.591	1	observe	Run1	observe/STIM_003.jpg
711.894	1.579	1	observe	Run1	observe/STIM_003.jpg
716.368	1.317	1	observe	Run1	observe/STIM_004.jpg
721.0	1.072	1	observe	Run1	observe/STIM_004.jpg
725.122	1.434	1	observe	Run1	observe/STIM_004.jpg
728.641	1.066	1	observe	Run1	observe/STIM_004.jpg
732.09	1.531	1	observe	Run1	observe/STIM_005.jpg
737.216	1.308	1	observe	Run1	observe/STIM_005.jpg
742.227	1.296	1	observe	Run1	observe/STIM_005.jpg
745.917	1.481	1	observe	Run1	observe/STIM_005.jpg
750.71	1.007	0	observe	Run1	observe/STIM_006.jpg
754.096	1.222	0	observe	Run1	observe/STIM_006.jpg
759.302	1.209	0	observe	Run1	observe/STIM_006.jpg
763.862	1.668	1	observe	Run1	observe/STIM_006.jpg
768.709	1.6	1	observe	Run1	observe/STIM_007.jpg
774.17	1.068	0	observe	Run1	observe/STIM_007.jpg
778.948	1.492	1	observe	Run1	observe/STIM_007.jpg
784.296	1.525	1	observe	Run1	observe/STIM_007.jpg
789.314	1.234	1	observe	Run1	observe/STIM_008.jpg
792.629	1.044	1	observe	Run1	observe/STIM_008.jpg
796.231	1.188	1	observe	Run1	observe/STIM_008.jpg
800.434	1.063	1	observe	Run1	observe/STIM_008.jpg
805.233	1.534	0	observe	Run1	observe/STIM_009.jpg
810.194	1.186	1	observe	Run1	observe/STIM_009.jpg
813.784	1.324	1	observe	Run1	observe/STIM_009.jpg
817.981	1.15	1	observe	Run1	observe/STIM_009.jpg
822.336	1.654	1	observe	Run1	observe/STIM_010.jpg
827.495	1.499	1	observe	Run1	observe/STIM_010.jpg
832.296	1.443	1	observe	Run1	observe/STIM_010.jpg
835.895	1.446	1	observe	Run1	observe/STIM_010.jpg
841.161	1.49	0	observe	Run1	observe/STIM_011.jpg
845.519	0.883	0	observe	Run1	observe/STIM_011.jpg
850.213	1.572	1	observe	Run1	observe/STIM_011.jpg
854.378	0.926	0	observe	Run1	observe/STIM_011.jpg
858.046	1.534	1	observe	Run1	observe/STIM_012.jpg
862.909	1.694	0	observe	Run1	observe/STIM_012.jpg
868.594	1.643	1	observe	Run1	observe/STIM_012.jpg
873.224	1.301	1	observe	Run1	observe/STIM_012.jpg
878.017	1.186	1	observe	Run1	observe/STIM_013.jpg
881.323	1.212	1	observe	Run1	observe/STIM_013.jpg
885.461	1.386	0	observe	Run1	observe/STIM_013.jpg
889.65	1.519	0	observe	Run1	observe/STIM_013.jpg
894.233	1.351	1	observe	Run1	observe/STIM_014.jpg
897.672	1.48	0	observe	Run1	observe/STIM_014.jpg
902.613	1.214	1	observe	Run1	observe/STIM_014.jpg
907.309	1.053	1	observe	Run1	observe/STIM_014.jpg
911.506	1.532	1	observe	Run1	observe/STIM_015.jpg
916.742	1.18	1	observe	Run1	observe/STIM_015.jpg
921.11	1.51	0	observe	Run1	observe/STIM_015.jpg
925.307	1.096	1	observe	Run1	observe/STIM_015.jpg
928.891	1.184	1	observe	Run1	observe/STIM_016.jpg
932.409	1.261	1	observe	Run1	observe/STIM_016.jpg
937.464	1.398	1	observe	Run1	observe/STIM_016.jpg
941.474	1.479	0	observe	Run1	observe/STIM_016.jpg
946.069	1.026	1	observe	Run1	observe/STIM_017.jpg
950.985	1.167	1	observe	Run1	observe/STIM_017.jpg
955.498	1.062	1	observe	Run1	observe/STIM_017.jpg
958.868	1.466	1	observe	Run1	observe/STIM_017.jpg
963.338	1.351	1	observe	Run1	observe/STIM_018.jpg
967.425	1.318	1	observe	Run1	observe/STIM_018.jpg
970.765	1.182	1	observe	Run1	observe/STIM_018.jpg
974.09	1.146	1	observe	Run1	observe/STIM_018.jpg
977.502	0.868	1	observe	Run1	observe/STIM_019.jpg
980.782	1.598	1	observe	Run1	observe/STIM_019.jpg
986.101	1.638	1	observe	Run1	observe/STIM_019.jpg
991.141	1.66	1	observe	Run1	observe/STIM_019.jpg
996.241	1.602	1	regulate	Run2	regulate/STIM_000.jpg
1000.257	2.303	1	regulate	Run2	regulate/STIM_000.jpg
1004.824	1.659	1	regulate	Run2	regulate/STIM_000.jpg
1010.149	1.786	1	regulate	Run2	regulate/STIM_000.jpg
1013.964	1.63	0	regulate	Run2	regulate/STIM_001.jpg
1019.406	2.894	1	regulate	Run2	regulate/STIM_001.jpg
1025.257	1.442	0	regulate	Run2	regulate/STIM_001.jpg
1029.929	1.552	1	regulate	Run2	regulate/STIM_001.jpg
1035.249	2.056	1	regulate	Run2	regulate/STIM_002.jpg
1040.264	2.756	1	regulate	Run2	regulate/STIM_002.jpg
1047.011	2.322	1	regulate	Run2	regulate/STIM_002.jpg
1051.543	1.546	1	regulate	Run2	regulate/STIM_002.jpg
1055.128	1.417	0	regulate	Run2	regulate/STIM_003.jpg
1060.02	1.668	1	regulate	Run2	regulate/STIM_003.jpg
1064.603	2.588	1	regulate	Run2	regulate/STIM_003.jpg
1069.531	2.126	1	regulate	Run2	regulate/STIM_003.jpg
1074.539	2.111	1	regulate	Run2	regulate/STIM_004.jpg
1079.162	2.596	1	regulate	Run2	regulate/STIM_004.jpg
1084.032	2.259	1	regulate	Run2	regulate/STIM_004.jpg
1090.224	1.917	1	regulate	Run2	regulate/STIM_004.jpg
1096.097	2.749	0	regulate	Run2	regulate/STIM_005.jpg
1101.247	2.155	1	regulate	Run2	regulate/STIM_005.jpg
1106.811	2.566	1	regulate	Run2	regulate/STIM_005.jpg
1112.646	1.592	1	regulate	Run2	regulate/STIM_005.jpg
1118.159	2.882	1	regulate	Run2	regulate/STIM_006.jpg
1124.106	1.773	1	regulate	Run2	regulate/STIM_006.jpg
1129.533	1.464	1	regulate	Run2	regulate/STIM_006.jpg
1133.565	2.398	1	regulate	Run2	regulate/STIM_006.jpg
1139.099	1.367	1	regulate	Run2	regulate/STIM_007.jpg
1142.866	1.906	1	regulate	Run2	regulate/STIM_007.jpg
1146.979	1.505	1	regulate	Run2	regulate/STIM_007.jpg
1151.388	2.476	1	regulate	Run2	regulate/STIM_007.jpg
1156.146	2.58	1	regulate	Run2	regulate/STIM_008.jpg
1161.954	2.206	1	regulate	Run2	regulate/STIM_008.jpg
1167.489	2.754	1	regulate	Run2	regulate/STIM_008.jpg
1173.157	2.237	1	regulate	Run2	regulate/STIM_008.jpg
1178.297	1.609	1	regulate	Run2	regulate/STIM_009.jpg
1182.695	1.784	1	regulate	Run2	regulate/STIM_009.jpg
1187.068	2.15	1	regulate	Run2	regulate/STIM_009.jpg
1192.411	2.173	0	regulate	Run2	regulate/STIM_009.jpg
1198.231	2.793	1	regulate	Run2	regulate/STIM_010.jpg
1205.013	2.32	1	regulate	Run2	regulate/STIM_010.jpg
1210.611	2.315	1	regulate	Run2	regulate/STIM_010.jpg
1215.876	1.402	1	regulate	Run2	regulate/STIM_010.jpg
1219.351	1.763	1	regulate	Run2	regulate/STIM_011.jpg
1223.501	2.003	0	regulate	Run2	regulate/STIM_011.jpg
1228.679	1.603	0	regulate	Run2	regulate/STIM_011.jpg
1232.735	1.596	1	regulate	Run2	regulate/STIM_011.jpg
1237.926	2.378	1	regulate	Run2	regulate/STIM_012.jpg
1243.783	2.149	1	regulate	Run2	regulate/STIM_012.jpg
1248.346	2.779	1	regulate	Run2	regulate/STIM_012.jpg
1254.858	1.35	0	regulate	Run2	regulate/STIM_012.jpg
1258.98	2.81	0	regulate	Run2	regulate/STIM_013.jpg
1265.128	2.217	1	regulate	Run2	regulate/STIM_013.jpg
1271.04	2.07	1	regulate	Run2	regulate/STIM_013.jpg
1275.941	1.133	1	regulate	Run2	regulate/STIM_013.jpg
1280.64	3.105	1	regulate	Run2	regulate/STIM_014.jpg
1286.458	1.296	1	regulate	Run2	regulate/STIM_014.jpg
1290.595	1.289	1	regulate	Run2	regulate/STIM_014.jpg
1294.554	2.257	1	regulate	Run2	regulate/STIM_014.jpg
1299.047	1.645	1	regulate	Run2	regulate/STIM_015.jpg
1303.419	1.661	1	regulate	Run2	regulate/STIM_015.jpg
1307.576	1.894	1	regulate	Run2	regulate/STIM_015.jpg
1312.232	2.05	1	regulate	Run2	regulate/STIM_015.jpg
1317.871	1.5	1	regulate	Run2	regulate/STIM_016.jpg
1322.881	2.668	1	regulate	Run2	regulate/STIM_016.jpg
1328.091	1.416	1	regulate	Run2	regulate/STIM_016.jpg
1332.677	1.833	0	regulate	Run2	regulate/STIM_016.jpg
1338.295	1.652	1	regulate	Run2	regulate/STIM_017.jpg
1343.127	1.416	1	regulate	Run2	regulate/STIM_017.jpg
1347.543	1.627	1	regulate	Run2	regulate/STIM_017.jpg
1352.616	2.099	1	regulate	Run2	regulate/STIM_017.jpg
1358.338	1.45	1	regulate	Run2	regulate/STIM_018.jpg
1362.996	2.959	1	regulate	Run2	regulate/STIM_018.jpg
1368.686	1.791	1	regulate	Run2	regulate/STIM_018.jpg
1373.419	1.33	1	regulate	Run2	regulate/STIM_018.jpg
1377.726	1.611	1	regulate	Run2	regulate/STIM_019.jpg
1382.467	2.935	0	regulate	Run2	regulate/STIM_019.jpg
1387.526	2.702	0	regulate	Run2	regulate/STIM_019.jpg
1393.781	1.895	1	regulate	Run2	regulate/STIM_019.jpg
1398.303	2.392	1	regulate	Run2	regulate/STIM_020.jpg
1403.9	1.899	1	regulate	Run2	regulate/STIM_020.jpg
1408.549	2.472	1	regulate	Run2	regulate/STIM_020.jpg
1414.055	1.404	1	regulate	Run2	regulate/STIM_020.jpg
1419.329	1.793	1	regulate	Run2	regulate/STIM_021.jpg
1424.54	1.521	0	regulate	Run2	regulate/STIM_021.jpg
1429.066	2.554	1	regulate	Run2	regulate/STIM_021.jpg
1435.163	1.726	1	regulate	Run2	regulate/STIM_021.jpg
1439.198	2.585	1	regulate	Run2	regulate/STIM_022.jpg
1445.17	2.895	1	regulate	Run2	regulate/STIM_022.jpg
1450.946	1.98	1	regulate	Run2	regulate/STIM_022.jpg
1456.513	2.231	1	regulate	Run2	regulate/STIM_022.jpg
1462.303	2.891	1	regulate	Run2	regulate/STIM_023.jpg
1469.158	2.181	1	regulate	Run2	regulate/STIM_023.jpg
1474.209	1.779	1	regulate	Run2	regulate/STIM_023.jpg
1479.574	1.957	1	regulate	Run2	regulate/STIM_023.jpg
1483.744	2.086	1	regulate	Run2	regulate/STIM_024.jpg
1488.036	2.658	0	regulate	Run2	regulate/STIM_024.jpg
1493.622	2.02	0	regulate	Run2	regulate/STIM_024.jpg
1498.304	2.073	1	regulate	Run2	regulate/STIM_024.jpg
1504.109	1.932	1	regulate	Run2	regulate/STIM_025.jpg
1508.937	2.842	0	regulate	Run2	regulate/STIM_025.jpg
1515.664	1.738	1	regulate	Run2	regulate/STIM_025.jpg
1519.506	2.4	1	regulate	Run2	regulate/STIM_025.jpg
1524.272	1.513	1	regulate	Run2	regulate/STIM_026.jpg
1529.274	1.647	1	regulate	Run2	regulate/STIM_026.jpg
1533.642	1.965	1	regulate	Run2	regulate/STIM_026.jpg
1539.568	1.706	1	regulate	Run2	regulate/STIM_026.jpg
1545.235	1.543	1	regulate	Run2	regulate/STIM_027.jpg
1549.641	1.984	1	regulate	Run2	regulate/STIM_027.jpg
1554.113	1.498	1	regulate	Run2	regulate/STIM_027.jpg
1558.221	1.77	1	regulate	Run2	regulate/STIM_027.jpg
1563.32	2.389	1	regulate	Run2	regulate/STIM_028.jpg
1567.71	2.037	1	regulate	Run2	regulate/STIM_028.jpg
1572.548	1.404	1	regulate	Run2	regulate/STIM_028.jpg
1576.705	2.498	1	regulate	Run2	regulate/STIM_028.jpg
1581.535	2.648	1	regulate	Run2	regulate/STIM_029.jpg
1587.641	2.121	1	regulate	Run2	regulate/STIM_029.jpg
1592.172	2.337	1	regulate	Run2	regulate/STIM_029.jpg
1598.118	1.116	1	regulate	Run2	regulate/STIM_029.jpg
1603.065	1.379	1	observe	Run2	observe/STIM_000.jpg
1608.077	1.006	0	observe	Run2	observe/STIM_000.jpg
1611.57	1.592	1	observe	Run2	observe/STIM_000.jpg
1616.838	1.066	1	observe	Run2	observe/STIM_000.jpg
1620.483	1.292	1	observe	Run2	observe/STIM_001.jpg
1624.576	1.434	0	observe	Run2	observe/STIM_001.jpg
1628.139	1.141	1	observe	Run2	observe/STIM_001.jpg
1633.139	1.144	1	observe	Run2	observe/STIM_001.jpg
1637.028	1.452	0	observe	Run2	observe/STIM_002.jpg
1641.831	1.08	1	observe	Run2	observe/STIM_002.jpg
1646.827	0.935	1	observe	Run2	observe/STIM_002.jpg
1650.789	0.923	1	observe	Run2	observe/STIM_002.jpg
1654.612	1.158	1	observe	Run2	observe/STIM_003.jpg
1658.153	1.209	1	observe	Run2	observe/STIM_003.jpg
1662.118	1.627	1	observe	Run2	observe/STIM_003.jpg
1667.656	1.693	1	observe	Run2	observe/STIM_003.jpg
1672.694	1.456	0	observe	Run2	observe/STIM_004.jpg
1678.063	1.385	1	observe	Run2	observe/STIM_004.jpg
1681.619	1.12	0	observe	Run2	observe/STIM_004.jpg
1686.272	1.205	1	observe	Run2	observe/STIM_004.jpg
1689.77	1.296	1	observe	Run2	observe/STIM_005.jpg
1694.196	1.67	0	observe	Run2	observe/STIM_005.jpg
1698.455	1.077	1	observe	Run2	observe/STIM_005.jpg
1703.047	1.084	1	observe	Run2	observe/STIM_005.jpg
1707.27	1.508	0	observe	Run2	observe/STIM_006.jpg
1712.547	1.132	1	observe	Run2	observe/STIM_006.jpg
1716.039	0.893	1	observe	Run2	observe/STIM_006.jpg
1719.256	1.166	0	observe	Run2	observe/STIM_006.jpg
1723.376	1.547	1	observe	Run2	observe/STIM_007.jpg
1727.749	1.201	1	observe	Run2	observe/STIM_007.jpg
1731.516	1.234	1	observe	Run2	observe/STIM_007.jpg
1735.419	1.585	1	observe	Run2	observe/STIM_007.jpg
1739.722	1.602	0	observe	Run2	observe/STIM_008.jpg
1744.719	0.992	1	observe	Run2	observe/STIM_008.jpg
1748.105	1.572	1	observe	Run2	observe/STIM_008.jpg
1752.598	1.169	1	observe	Run2	observe/STIM_008.jpg
1756.039	1.17	1	observe	Run2	observe/STIM_009.jpg
1760.423	1.658	1	observe	Run2	observe/STIM_009.jpg
1764.476	1.204	1	observe	Run2	observe/STIM_009.jpg
1768.261	0.922	1	observe	Run2	observe/STIM_009.jpg
1771.222	0.95	0	observe	Run2	observe/STIM_010.jpg
1776.101	1.687	1	observe	Run2	observe/STIM_010.jpg
1781.241	1.569	1	observe	Run2	observe/STIM_010.jpg
1785.564	0.882	0	observe	Run2	observe/STIM_010.jpg
1789.506	1.66	1	observe	Run2	observe/STIM_011.jpg
1794.795	0.848	0	observe	Run2	observe/STIM_011.jpg
1798.386	1.388	1	observe	Run2	observe/STIM_011.jpg
1803.357	1.362	1	observe	Run2	observe/STIM_011.jpg
1808.008	1.142	1	observe	Run2	observe/STIM_012.jpg
1812.481	1.126	0	observe	Run2	observe/STIM_012.jpg
1817.086	1.323	1	observe	Run2	observe/STIM_012.jpg
1820.456	1.122	1	observe	Run2	observe/STIM_012.jpg
1823.998	1.575	1	observe	Run2	observe/STIM_013.jpg
1828.394	1.596	1	observe	Run2	observe/STIM_013.jpg
1832.121	1.656	1	observe	Run2	observe/STIM_013.jpg
1836.736	1.587	1	observe	Run2	observe/STIM_013.jpg
1840.454	1.355	1	observe	Run2	observe/STIM_014.jpg
1845.08	1.016	1	observe	Run2	observe/STIM_014.jpg
1849.924	1.495	0	observe	Run2	observe/STIM_014.jpg
1853.516	0.964	1	observe	Run2	observe/STIM_014.jpg
1857.179	1.65	0	observe	Run2	observe/STIM_015.jpg
1862.006	0.864	1	observe	Run2	observe/STIM_015.jpg
1866.644	1.55	1	observe	Run2	observe/STIM_015.jpg
1870.256	1.273	1	observe	Run2	observe/STIM_015.jpg
1874.727	1.187	1	observe	Run2	observe/STIM_016.jpg
1878.278	1.64	1	observe	Run2	observe/STIM_016.jpg
1882.091	1.622	1	observe	Run2	observe/STIM_016.jpg
1886.098	1.636	1	observe	Run2	observe/STIM_016.jpg
1890.077	1.293	1	observe	Run2	observe/STIM_017.jpg
1895.152	1.682	1	observe	Run2	observe/STIM_017.jpg
1900.562	1.104	1	observe	Run2	observe/STIM_017.jpg
1905.539	1.439	1	observe	Run2	observe/STIM_017.jpg
1910.232	0.939	1	observe	Run2	observe/STIM_018.jpg
1914.305	1.314	1	observe	Run2	observe/STIM_018.jpg
1918.262	1.47	1	observe	Run2	observe/STIM_018.jpg
1923.148	1.23	1	observe	Run2	observe/STIM_018.jpg
1928.15	1.139	1	observe	Run2	observe/STIM_019.jpg
1932.86	1.095	0	observe	Run2	observe/STIM_019.jpg
1937.112	1.238	1	observe	Run2	observe/STIM_019.jpg
1940.682	1.287	1	observe	Run2	observe/STIM_019.jpg
1945.011	1.259	1	regulate	Run3	regulate/STIM_000.jpg
1949.741	2.065	1	regulate	Run3	regulate/STIM_000.jpg
1954.406	1.621	1	regulate	Run3	regulate/STIM_000.jpg
1958.303	1.745	1	regulate	Run3	regulate/STIM_000.jpg
1962.792	1.717	1	regulate	Run3	regulate/STIM_001.jpg
1967.995	1.329	1	regulate	Run3	regulate/STIM_001.jpg
1971.515	2.376	1	regulate	Run3	regulate/STIM_001.jpg
1976.694	1.39	1	regulate	Run3	regulate/STIM_001.jpg
1981.747	1.716	1	regulate	Run3	regulate/STIM_002.jpg
1987.265	1.456	1	regulate	Run3	regulate/STIM_002.jpg
1990.734	2.014	1	regulate	Run3	regulate/STIM_002.jpg
1995.05	1.182	1	regulate	Run3	regulate/STIM_002.jpg
1999.387	1.666	1	regulate	Run3	regulate/STIM_003.jpg
2003.583	1.859	1	regulate	Run3	regulate/STIM_003.jpg
2008.955	1.268	1	regulate	Run3	regulate/STIM_003.jpg
2012.507	1.743	1	regulate	Run3	regulate/STIM_003.jpg
2018.211	2.514	1	regulate	Run3	regulate/STIM_004.jpg
2023.589	2.319	1	regulate	Run3	regulate/STIM_004.jpg
2029.615	2.497	1	regulate	Run3	regulate/STIM_004.jpg
2035.238	1.701	1	regulate	Run3	regulate/STIM_004.jpg
2039.237	1.567	1	regulate	Run3	regulate/STIM_005.jpg
2044.508	2.076	1	regulate	Run3	regulate/STIM_005.jpg
2050.403	1.813	0	regulate	Run3	regulate/STIM_005.jpg
2056.021	1.869	1	regulate	Run3	regulate/STIM_005.jpg
2061.826	1.553	1	regulate	Run3	regulate/STIM_006.jpg
2066.217	1.802	1	regulate	Run3	regulate/STIM_006.jpg
2071.028	1.821	1	regulate	Run3	regulate/STIM_006.jpg
2075.998	2.112	0	regulate	Run3	regulate/STIM_006.jpg
2080.806	1.74	1	regulate	Run3	regulate/STIM_007.jpg
2086.114	2.177	1	regulate	Run3	regulate/STIM_007.jpg
2091.972	1.32	1	regulate	Run3	regulate/STIM_007.jpg
2097.272	1.451	1	regulate	Run3	regulate/STIM_007.jpg
2101.296	1.155	1	regulate	Run3	regulate/STIM_008.jpg
2106.092	1.886	1	regulate	Run3	regulate/STIM_008.jpg
2110.244	1.626	1	regulate	Run3	regulate/STIM_008.jpg
2115.139	1.276	1	regulate	Run3	regulate/STIM_008.jpg
2119.788	1.671	1	regulate	Run3	regulate/STIM_009.jpg
2124.057	1.675	1	regulate	Run3	regulate/STIM_009.jpg
2128.617	1.351	1	regulate	Run3	regulate/STIM_009.jpg
2132.44	1.316	1	regulate	Run3	regulate/STIM_009.jpg
2137.336	2.241	1	regulate	Run3	regulate/STIM_010.jpg
2143.296	2.052	1	regulate	Run3	regulate/STIM_010.jpg
2148.132	2.3	1	regulate	Run3	regulate/STIM_010.jpg
2153.546	1.756	1	regulate	Run3	regulate/STIM_010.jpg
2157.931	1.243	1	regulate	Run3	regulate/STIM_011.jpg
2162.496	2.525	1	regulate	Run3	regulate/STIM_011.jpg
2167.332	1.195	1	regulate	Run3	regulate/STIM_011.jpg
2170.979	2.066	1	regulate	Run3	regulate/STIM_011.jpg
2175.084	1.46	1	regulate	Run3	regulate/STIM_012.jpg
2179.856	1.556	1	regulate	Run3	regulate/STIM_012.jpg
2184.554	1.586	1	regulate	Run3	regulate/STIM_012.jpg
2189.834	1.263	1	regulate	Run3	regulate/STIM_012.jpg
2193.584	2.492	1	regulate	Run3	regulate/STIM_013.jpg
2199.18	2.089	1	regulate	Run3	regulate/STIM_013.jpg
2203.558	1.158	1	regulate	Run3	regulate/STIM_013.jpg
2207.649	2.129	1	regulate	Run3	regulate/STIM_013.jpg
2211.985	1.546	1	regulate	Run3	regulate/STIM_014.jpg
2217.088	1.463	1	regulate	Run3	regulate/STIM_014.jpg
2221.593	1.893	1	regulate	Run3	regulate/STIM_014.jpg
2226.257	1.35	1	regulate	Run3	regulate/STIM_014.jpg
2231.345	1.343	1	regulate	Run3	regulate/STIM_015.jpg
2235.857	2.192	1	regulate	Run3	regulate/STIM_015.jpg
2241.819	2.541	1	regulate	Run3	regulate/STIM_015.jpg
2248.284	1.624	1	regulate	Run3	regulate/STIM_015.jpg
2252.311	1.951	0	regulate	Run3	regulate/STIM_016.jpg
2257.023	1.53	1	regulate	Run3	regulate/STIM_016.jpg
2260.985	1.497	1	regulate	Run3	regulate/STIM_016.jpg
2266.036	1.976	0	regulate	Run3	regulate/STIM_016.jpg
2271.487	2.523	1	regulate	Run3	regulate/STIM_017.jpg
2276.805	2.059	1	regulate	Run3	regulate/STIM_017.jpg
2282.819	1.972	1	regulate	Run3	regulate/STIM_017.jpg
2287.559	2.021	1	regulate	Run3	regulate/STIM_017.jpg
2292.827	1.693	1	regulate	Run3	regulate/STIM_018.jpg
2297.54	1.635	1	regulate	Run3	regulate/STIM_018.jpg
2301.422	2.466	1	regulate	Run3	regulate/STIM_018.jpg
2307.033	1.299	1	regulate	Run3	regulate/STIM_018.jpg
2310.873	1.172	1	regulate	Run3	regulate/STIM_019.jpg
2314.634	2.364	1	regulate	Run3	regulate/STIM_019.jpg
2320.906	1.594	1	regulate	Run3	regulate/STIM_019.jpg
2325.895	1.507	1	regulate	Run3	regulate/STIM_019.jpg
2330.799	1.54	0	regulate	Run3	regulate/STIM_020.jpg
2335.95	2.376	1	regulate	Run3	regulate/STIM_020.jpg
2340.485	1.898	1	regulate	Run3	regulate/STIM_020.jpg
2345.748	1.342	1	regulate	Run3	regulate/STIM_020.jpg
2349.379	1.895	1	regulate	Run3	regulate/STIM_021.jpg
2355.137	2.082	0	regulate	Run3	regulate/STIM_021.jpg
2360.573	1.165	0	regulate	Run3	regulate/STIM_021.jpg
2365.319	2.18	1	regulate	Run3	regulate/STIM_021.jpg
2369.505	2.325	1	regulate	Run3	regulate/STIM_022.jpg
2374.889	1.856	1	regulate	Run3	regulate/STIM_022.jpg
2380.085	2.458	1	regulate	Run3	regulate/STIM_022.jpg
2385.962	1.369	1	regulate	Run3	regulate/STIM_022.jpg
2389.86	2.551	1	regulate	Run3	regulate/STIM_023.jpg
2395.668	1.431	1	regulate	Run3	regulate/STIM_023.jpg
2400.708	1.164	1	regulate	Run3	regulate/STIM_023.jpg
2404.985	2.409	1	regulate	Run3	regulate/STIM_023.jpg
2410.458	1.48	1	regulate	Run3	regulate/STIM_024.jpg
2414.772	2.185	1	regulate	Run3	regulate/STIM_024.jpg
2419.176	1.494	1	regulate	Run3	regulate/STIM_024.jpg
2423.008	1.696	1	regulate	Run3	regulate/STIM_024.jpg
2428.383	2.184	1	regulate	Run3	regulate/STIM_025.jpg
2433.258	1.368	1	regulate	Run3	regulate/STIM_025.jpg
2437.096	1.312	1	regulate	Run3	regulate/STIM_025.jpg
2442.057	2.292	1	regulate	Run3	regulate/STIM_025.jpg
2446.608	1.255	1	regulate	Run3	regulate/STIM_026.jpg
2451.138	1.405	1	regulate	Run3	regulate/STIM_026.jpg
2456.031	1.612	1	regulate	Run3	regulate/STIM_026.jpg
2459.997	1.336	1	regulate	Run3	regulate/STIM_026.jpg
2463.399	1.556	1	regulate	Run3	regulate/STIM_027.jpg
2468.253	1.69	1	regulate	Run3	regulate/STIM_027.jpg
2473.641	1.289	1	regulate	Run3	regulate/STIM_027.jpg
2478.072	1.168	1	regulate	Run3	regulate/STIM_027.jpg
2482.899	1.325	1	regulate	Run3	regulate/STIM_028.jpg
2487.245	2.233	1	regulate	Run3	regulate/STIM_028.jpg
2492.429	1.224	1	regulate	Run3	regulate/STIM_028.jpg
2495.788	2.537	1	regulate	Run3	regulate/STIM_028.jpg
2500.976	2.534	1	regulate	Run3	regulate/STIM_029.jpg
2506.15	2.223	1	regulate	Run3	regulate/STIM_029.jpg
2511.189	2.033	1	regulate	Run3	regulate/STIM_029.jpg
2515.794	1.146	1	regulate	Run3	regulate/STIM_029.jpg
2519.764	1.631	1	observe	Run3	observe/STIM_000.jpg
2523.964	0.996	0	observe	Run3	observe/STIM_000.jpg
2528.694	1.529	1	observe	Run3	observe/STIM_000.jpg
2532.866	1.191	0	observe	Run3	observe/STIM_000.jpg
2537.994	0.951	1	observe	Run3	observe/STIM_001.jpg
2542.097	1.432	1	observe	Run3	observe/STIM_001.jpg
2546.668	1.558	1	observe	Run3	observe/STIM_001.jpg
2550.936	1.592	0	observe	Run3	observe/STIM_001.jpg
2556.155	1.595	1	observe	Run3	observe/STIM_002.jpg
2560.61	1.162	1	observe	Run3	observe/STIM_002.jpg
2564.851	1.588	1	observe	Run3	observe/STIM_002.jpg
2568.755	1.694	1	observe	Run3	observe/STIM_002.jpg
2572.854	1.221	1	observe	Run3	observe/STIM_003.jpg
2576.66	1.425	1	observe	Run3	observe/STIM_003.jpg
2580.794	1.677	1	observe	Run3	observe/STIM_003.jpg
2585.938	1.382	1	observe	Run3	observe/STIM_003.jpg
2590.481	1.328	1	observe	Run3	observe/STIM_004.jpg
2594.694	0.993	1	observe	Run3	observe/STIM_004.jpg
2599.238	1.474	1	observe	Run3	observe/STIM_004.jpg
2603.16	1.566	1	observe	Run3	observe/STIM_004.jpg
2607.657	0.869	0	observe	Run3	observe/STIM_005.jpg
2611.759	0.877	1	observe	Run3	observe/STIM_005.jpg
2614.907	1.473	1	observe	Run3	observe/STIM_005.jpg
2619.977	1.038	1	observe	Run3	observe/STIM_005.jpg
2623.774	1.017	1	observe	Run3	observe/STIM_006.jpg
2627.282	1.626	1	observe	Run3	observe/STIM_006.jpg
2631.886	1.451	1	observe	Run3	observe/STIM_006.jpg
2636.896	1.358	1	observe	Run3	observe/STIM_006.jpg
2641.231	1.431	0	observe	Run3	observe/STIM_007.jpg
2645.58	1.661	1	observe	Run3	observe/STIM_007.jpg
2649.512	1.23	1	observe	Run3	observe/STIM_007.jpg
2652.921	1.566	1	observe	Run3	observe/STIM_007.jpg
2657.565	0.992	0	observe	Run3	observe/STIM_008.jpg
2661.875	1.3	0	observe	Run3	observe/STIM_008.jpg
2666.624	1.535	1	observe	Run3	observe/STIM_008.jpg
2670.443	1.199	1	observe	Run3	observe/STIM_008.jpg
2675.079	0.891	1	observe	Run3	observe/STIM_009.jpg
2679.583	1.323	1	observe	Run3	observe/STIM_009.jpg
2683.359	1.49	1	observe	Run3	observe/STIM_009.jpg
2687.942	1.127	1	observe	Run3	observe/STIM_009.jpg
2692.308	0.975	1	observe	Run3	observe/STIM_010.jpg
2695.378	1.391	1	observe	Run3	observe/STIM_010.jpg
2700.221	0.879	0	observe	Run3	observe/STIM_010.jpg
2704.577	0.962	1	observe	Run3	observe/STIM_010.jpg
2708.396	1.636	1	observe	Run3	observe/STIM_011.jpg
2712.61	1.055	1	observe	Run3	observe/STIM_011.jpg
2716.565	1.49	1	observe	Run3	observe/STIM_011.jpg
2720.977	1.069	1	observe	Run3	observe/STIM_011.jpg
2724.671	1.489	1	observe	Run3	observe/STIM_012.jpg
2728.452	1.333	1	observe	Run3	observe/STIM_012.jpg
2732.277	1.547	0	observe	Run3	observe/STIM_012.jpg
2736.407	1.57	1	observe	Run3	observe/STIM_012.jpg
2741.326	0.958	1	observe	Run3	observe/STIM_013.jpg
2745.1	0.913	1	observe	Run3	observe/STIM_013.jpg
2749.254	1.456	1	observe	Run3	observe/STIM_013.jpg
2754.252	1.235	1	observe	Run3	observe/STIM_013.jpg
2759.185	1.031	1	observe	Run3	observe/STIM_014.jpg
2763.905	0.935	1	observe	Run3	observe/STIM_014.jpg
2767.949	1.673	0	observe	Run3	observe/STIM_014.jpg
2772.047	1.115	1	observe	Run3	observe/STIM_014.jpg
2776.535	1.425	0	observe	Run3	observe/STIM_015.jpg
2781.135	1.512	1	observe	Run3	observe/STIM_015.jpg
2786.152	1.549	1	observe	Run3	observe/STIM_015.jpg
2790.773	1.065	1	observe	Run3	observe/STIM_015.jpg
2794.712	0.915	1	observe	Run3	observe/STIM_016.jpg
2797.918	1.22	1	observe	Run3	observe/STIM_016.jpg
2801.452	1.218	1	observe	Run3	observe/STIM_016.jpg
2806.148	1.24	1	observe	Run3	observe/STIM_016.jpg
2810.349	1.05	1	observe	Run3	observe/STIM_017.jpg
2814.004	0.942	1	observe	Run3	observe/STIM_017.jpg
2818.251	0.932	1	observe	Run3	observe/STIM_017.jpg
2823.027	0.848	1	observe	Run3	observe/STIM_017.jpg
2827.684	1.127	1	observe	Run3	observe/STIM_018.jpg
2832.735	1.429	1	observe	Run3	observe/STIM_018.jpg
2836.194	1.265	1	observe	Run3	observe/STIM_018.jpg
2840.368	0.874	1	observe	Run3	observe/STIM_018.jpg
2844.276	1.091	1	observe	Run3	observe/STIM_019.jpg
2848.954	1.448	1	observe	Run3	observe/STIM_019.jpg
2853.592	1.054	0	observe	Run3	observe/STIM_019.jpg
2857.221	1.328	0	observe	Run3	observe/STIM_019.jpg
