onset	duration	response_time_ms	trial_type	learning_stage	stimulus	response_port
0.0	0.916	916.1	study	Phase1	study/STIM_000.jpg	100
4.468	0.912	912.2	study	Phase1	study/STIM_000.jpg	99
7.674	0.62	620.3	study	Phase1	study/STIM_000.jpg	99
10.893	0.903	902.8	study	Phase1	study/STIM_001.jpg	99
15.253	1.101	1101.2	study	Phase1	study/STIM_001.jpg	99
19.774	1.177	1177.3	study	Phase1	study/STIM_001.jpg	99
23.777	0.916	916.3	study	Phase1	study/STIM_002.jpg	100
27.518	1.126	1125.7	study	Phase1	study/STIM_002.jpg	100
31.254	1.084	1083.8	study	Phase1	study/STIM_002.jpg	100
36.075	1.332	1331.5	study	Phase1	study/STIM_003.jpg	100
40.601	1.191	1191.1	study	Phase1	study/STIM_003.jpg	99
45.472	1.144	1143.7	study	Phase1	study/STIM_003.jpg	99
49.162	1.403	1403.4	study	Phase1	study/STIM_004.jpg	99
54.242	0.748	747.8	study	Phase1	study/STIM_004.jpg	100
57.839	1.234	1233.8	study	Phase1	study/STIM_004.jpg	100
61.643	1.244	1243.8	study	Phase1	study/STIM_005.jpg	100
65.706	1.023	1022.8	study	Phase1	study/STIM_005.jpg	99
70.512	0.856	856.5	study	Phase1	study/STIM_005.jpg	99
74.664	0.944	944.4	study	Phase1	study/STIM_006.jpg	100
79.36	0.872	871.5	study	Phase1	study/STIM_006.jpg	100
82.693	0.99	989.9	study	Phase1	study/STIM_006.jpg	100
85.854	1.398	1397.5	study	Phase1	study/STIM_007.jpg	99
91.231	0.656	656.3	study	Phase1	study/STIM_007.jpg	100
95.471	0.702	702.5	study	Phase1	study/STIM_007.jpg	99
99.943	1.103	1103.2	study	Phase1	study/STIM_008.jpg	99
104.857	0.71	710.1	study	Phase1	study/STIM_008.jpg	99
108.872	1.061	1060.7	study	Phase1	study/STIM_008.jpg	100
113.059	1.262	1262.3	study	Phase1	study/STIM_009.jpg	100
117.69	0.84	839.5	study	Phase1	study/STIM_009.jpg	100
121.429	1.346	1345.9	study	Phase1	study/STIM_009.jpg	100
125.536	0.82	820.4	study	Phase1	study/STIM_010.jpg	99
128.843	1.222	1222.2	study	Phase1	study/STIM_010.jpg	99
132.487	0.724	723.5	study	Phase1	study/STIM_010.jpg	99
135.933	1.033	1033.0	study	Phase1	study/STIM_011.jpg	99
139.816	0.82	819.8	study	Phase1	study/STIM_011.jpg	100
143.634	1.196	1195.9	study	Phase1	study/STIM_011.jpg	99
147.841	0.886	886.5	study	Phase1	study/STIM_012.jpg	100
151.771	0.774	773.8	study	Phase1	study/STIM_012.jpg	99
154.711	0.623	623.4	study	Phase1	study/STIM_012.jpg	100
158.009	1.476	1475.8	study	Phase1	study/STIM_013.jpg	99
163.072	0.887	887.1	study	Phase1	study/STIM_013.jpg	100
167.899	1.207	1206.9	study	Phase1	study/STIM_013.jpg	99
172.5	1.499	1498.9	study	Phase1	study/STIM_014.jpg	100
176.202	0.688	687.5	study	Phase1	study/STIM_014.jpg	99
180.205	1.166	1165.9	study	Phase1	study/STIM_014.jpg	100
185.261	1.131	1130.6	study	Phase1	study/STIM_015.jpg	99
188.461	1.4	1399.8	study	Phase1	study/STIM_015.jpg	100
192.988	1.313	1313.0	study	Phase1	study/STIM_015.jpg	99
196.741	1.448	1448.5	study	Phase1	study/STIM_016.jpg	99
200.228	0.827	826.6	study	Phase1	study/STIM_016.jpg	99
204.22	1.131	1130.6	study	Phase1	study/STIM_016.jpg	100
209.024	1.377	1377.0	study	Phase1	study/STIM_017.jpg	99
214.243	1.282	1282.2	study	Phase1	study/STIM_017.jpg	99
219.123	1.32	1320.3	study	Phase1	study/STIM_017.jpg	99
224.4	0.69	690.3	study	Phase1	study/STIM_018.jpg	99
228.638	1.264	1264.2	study	Phase1	study/STIM_018.jpg	100
232.961	1.093	1092.7	study	Phase1	study/STIM_018.jpg	99
237.043	1.168	1167.8	study	Phase1	study/STIM_019.jpg	99
240.837	1.052	1051.8	study	Phase1	study/STIM_019.jpg	99
245.263	0.75	749.6	study	Phase1	study/STIM_019.jpg	100
248.433	0.689	689.1	study	Phase1	study/STIM_020.jpg	99
251.972	0.974	973.9	study	Phase1	study/STIM_020.jpg	99
256.84	0.605	605.1	study	Phase1	study/STIM_020.jpg	99
260.919	0.813	813.4	study	Phase1	study/STIM_021.jpg	100
265.71	1.148	1147.6	study	Phase1	study/STIM_021.jpg	99
269.773	0.955	955.0	study	Phase1	study/STIM_021.jpg	99
274.561	0.738	738.2	study	Phase1	study/STIM_022.jpg	100
277.896	1.428	1427.7	study	Phase1	study/STIM_022.jpg	99
283.083	0.923	923.3	study	Phase1	study/STIM_022.jpg	100
286.579	1.432	1432.3	study	Phase1	study/STIM_023.jpg	99
291.619	0.839	839.3	study	Phase1	study/STIM_023.jpg	100
295.269	0.626	626.1	study	Phase1	study/STIM_023.jpg	99
298.995	0.796	796.4	study	Phase1	study/STIM_024.jpg	100
302.721	0.908	908.4	study	Phase1	study/STIM_024.jpg	100
306.551	0.708	707.9	study	Phase1	study/STIM_024.jpg	99
310.955	0.806	805.5	study	Phase1	study/STIM_025.jpg	99
314.598	1.406	1405.6	study	Phase1	study/STIM_025.jpg	100
319.664	0.973	972.6	study	Phase1	study/STIM_025.jpg	100
323.164	1.01	1010.5	study	Phase1	study/STIM_026.jpg	100
326.9	1.365	1364.6	study	Phase1	study/STIM_026.jpg	100
331.102	1.176	1175.6	study	Phase1	study/STIM_026.jpg	100
334.446	1.258	1258.5	study	Phase1	study/STIM_027.jpg	100
337.972	0.846	846.3	study	Phase1	study/STIM_027.jpg	100
341.539	0.795	794.8	study	Phase1	study/STIM_027.jpg	99
345.494	1.282	1282.2	study	Phase1	study/STIM_028.jpg	99
350.133	1.324	1324.0	study	Phase1	study/STIM_028.jpg	100
355.179	0.718	717.8	study	Phase1	study/STIM_028.jpg	99
358.901	0.97	969.6	study	Phase1	study/STIM_029.jpg	99
362.446	1.411	1411.3	study	Phase1	study/STIM_029.jpg	99
366.695	0.607	607.3	study	Phase1	study/STIM_029.jpg	99
370.13	0.562	562.5	test	Phase1	test/STIM_000.jpg	100
374.247	0.927	927.4	test	Phase1	test/STIM_000.jpg	100
377.989	0.923	922.9	test	Phase1	test/STIM_000.jpg	99
382.306	0.51	510.3	test	Phase1	test/STIM_001.jpg	99
385.667	0.509	509.1	test	Phase1	test/STIM_001.jpg	100
389.222	0.866	866.1	test	Phase1	test/STIM_001.jpg	99
392.45	0.861	861.3	test	Phase1	test/STIM_002.jpg	99
395.363	0.819	818.6	test	Phase1	test/STIM_002.jpg	99
398.32	0.744	744.0	test	Phase1	test/STIM_002.jpg	99
402.891	0.611	610.9	test	Phase1	test/STIM_003.jpg	100
407.299	0.696	695.7	test	Phase1	test/STIM_003.jpg	100
410.061	1.079	1078.9	test	Phase1	test/STIM_003.jpg	100
414.409	0.538	537.6	test	Phase1	test/STIM_004.jpg	100
418.036	0.669	669.0	test	Phase1	test/STIM_004.jpg	99
421.902	0.993	993.3	test	Phase1	test/STIM_004.jpg	100
426.051	0.957	957.4	test	Phase1	test/STIM_005.jpg	99
430.669	0.579	578.9	test	Phase1	test/STIM_005.jpg	99
435.134	0.696	696.4	test	Phase1	test/STIM_005.jpg	99
437.998	0.878	877.8	test	Phase1	test/STIM_006.jpg	100
440.956	0.943	942.6	test	Phase1	test/STIM_006.jpg	99
445.713	0.822	821.7	test	Phase1	test/STIM_006.jpg	100
450.287	0.736	735.6	test	Phase1	test/STIM_007.jpg	99
454.253	0.72	720.0	test	Phase1	test/STIM_007.jpg	99
457.016	0.753	752.9	test	Phase1	test/STIM_007.jpg	100
461.414	0.745	744.8	test	Phase1	test/STIM_008.jpg	100
465.083	0.641	641.4	test	Phase1	test/STIM_008.jpg	100
467.951	0.689	689.0	test	Phase1	test/STIM_008.jpg	100
471.08	0.963	963.3	test	Phase1	test/STIM_009.jpg	100
474.265	1.058	1057.9	test	Phase1	test/STIM_009.jpg	99
477.443	0.538	538.5	test	Phase1	test/STIM_009.jpg	99
481.062	0.542	542.1	test	Phase1	test/STIM_010.jpg	99
485.462	0.837	837.1	test	Phase1	test/STIM_010.jpg	99
488.799	0.58	580.4	test	Phase1	test/STIM_010.jpg	99
493.224	0.531	530.6	test	Phase1	test/STIM_011.jpg	99
496.171	0.742	741.5	test	Phase1	test/STIM_011.jpg	100
500.082	0.785	785.3	test	Phase1	test/STIM_011.jpg	100
503.952	0.735	735.3	test	Phase1	test/STIM_012.jpg	99
506.738	0.819	818.9	test	Phase1	test/STIM_012.jpg	99
510.429	0.965	965.4	test	Phase1	test/STIM_012.jpg	100
515.266	1.022	1022.5	test	Phase1	test/STIM_013.jpg	100
518.3	0.965	964.6	test	Phase1	test/STIM_013.jpg	100
521.614	1.039	1038.7	test	Phase1	test/STIM_013.jpg	100
525.595	0.97	969.5	test	Phase1	test/STIM_014.jpg	100
529.693	0.689	689.4	test	Phase1	test/STIM_014.jpg	99
533.875	0.503	502.9	test	Phase1	test/STIM_014.jpg	99
538.108	0.632	631.7	test	Phase1	test/STIM_015.jpg	100
541.914	0.647	646.6	test	Phase1	test/STIM_015.jpg	100
545.294	0.843	842.7	test	Phase1	test/STIM_015.jpg	99
548.22	0.604	603.8	test	Phase1	test/STIM_016.jpg	100
551.761	0.846	845.7	test	Phase1	test/STIM_016.jpg	100
554.787	0.786	786.4	test	Phase1	test/STIM_016.jpg	99
558.83	0.563	563.4	test	Phase1	test/STIM_017.jpg	100
563.228	0.692	692.4	test	Phase1	test/STIM_017.jpg	100
566.905	1.054	1053.8	test	Phase1	test/STIM_017.jpg	100
571.879	0.619	618.8	test	Phase1	test/STIM_018.jpg	99
576.06	0.961	961.0	test	Phase1	test/STIM_018.jpg	100
580.74	0.914	913.5	test	Phase1	test/STIM_018.jpg	99
584.572	0.776	775.6	test	Phase1	test/STIM_019.jpg	99
588.588	0.74	740.2	test	Phase1	test/STIM_019.jpg	99
591.541	1.044	1043.5	test	Phase1	test/STIM_019.jpg	99
594.796	0.763	762.9	test	Phase1	test/STIM_020.jpg	99
598.37	0.571	570.8	test	Phase1	test/STIM_020.jpg	99
602.542	0.947	946.7	test	Phase1	test/STIM_020.jpg	99
606.825	0.859	858.9	test	Phase1	test/STIM_021.jpg	100
610.632	0.66	660.2	test	Phase1	test/STIM_021.jpg	100
614.035	0.63	630.3	test	Phase1	test/STIM_021.jpg	100
618.192	0.781	780.7	test	Phase1	test/STIM_022.jpg	99
622.637	1.018	1018.4	test	Phase1	test/STIM_022.jpg	99
626.404	0.861	860.9	test	Phase1	test/STIM_022.jpg	99
630.648	0.96	960.2	test	Phase1	test/STIM_023.jpg	99
633.957	0.519	518.9	test	Phase1	test/STIM_023.jpg	100
637.014	0.774	773.8	test	Phase1	test/STIM_023.jpg	100
640.138	0.8	799.8	test	Phase1	test/STIM_024.jpg	99
644.186	0.65	649.6	test	Phase1	test/STIM_024.jpg	100
648.464	0.913	913.3	test	Phase1	test/STIM_024.jpg	99
651.624	0.633	633.3	test	Phase1	test/STIM_025.jpg	99
655.972	1.025	1024.6	test	Phase1	test/STIM_025.jpg	99
659.083	0.983	982.9	test	Phase1	test/STIM_025.jpg	99
662.18	0.746	745.9	test	Phase1	test/STIM_026.jpg	100
665.391	0.805	804.7	test	Phase1	test/STIM_026.jpg	100
669.93	1.052	1052.5	test	Phase1	test/STIM_026.jpg	99
673.803	0.892	892.0	test	Phase1	test/STIM_027.jpg	100
676.779	0.924	923.7	test	Phase1	test/STIM_027.jpg	99
679.801	0.514	514.1	test	Phase1	test/STIM_027.jpg	100
682.819	0.764	764.4	test	Phase1	test/STIM_028.jpg	100
686.519	0.548	548.1	test	Phase1	test/STIM_028.jpg	100
689.243	0.558	557.7	test	Phase1	test/STIM_028.jpg	100
692.38	0.9	899.6	test	Phase1	test/STIM_029.jpg	100
695.724	0.805	805.3	test	Phase1	test/STIM_029.jpg	99
699.224	0.808	808.3	test	Phase1	test/STIM_029.jpg	99
703.352	0.606	605.8	study	Phase2	study/STIM_000.jpg	99
707.388	0.823	823.3	study	Phase2	study/STIM_000.jpg	99
711.476	1.104	1103.6	study	Phase2	study/STIM_000.jpg	99
716.457	1.001	1000.6	study	Phase2	study/STIM_001.jpg	99
721.262	0.904	904.5	study	Phase2	study/STIM_001.jpg	99
725.25	0.878	878.1	study	Phase2	study/STIM_001.jpg	99
728.419	0.963	962.7	study	Phase2	study/STIM_002.jpg	99
732.956	1.036	1035.9	study	Phase2	study/STIM_002.jpg	100
736.688	0.608	608.5	study	Phase2	study/STIM_002.jpg	100
739.309	1.048	1048.0	study	Phase2	study/STIM_003.jpg	100
742.895	0.597	597.0	study	Phase2	study/STIM_003.jpg	100
746.076	0.785	785.0	study	Phase2	study/STIM_003.jpg	99
749.54	1.214	1214.5	study	Phase2	study/STIM_004.jpg	100
754.326	0.954	954.4	study	Phase2	study/STIM_004.jpg	99
758.916	0.876	875.5	study	Phase2	study/STIM_004.jpg	100
761.929	1.104	1104.3	study	Phase2	study/STIM_005.jpg	100
765.844	0.633	633.1	study	Phase2	study/STIM_005.jpg	100
770.073	1.022	1022.3	study	Phase2	study/STIM_005.jpg	99
773.685	1.232	1232.4	study	Phase2	study/STIM_006.jpg	99
778.511	0.538	537.7	study	Phase2	study/STIM_006.jpg	100
782.791	0.714	714.3	study	Phase2	study/STIM_006.jpg	100
786.82	0.677	677.2	study	Phase2	study/STIM_007.jpg	100
789.723	1.023	1022.8	study	Phase2	study/STIM_007.jpg	99
794.661	1.004	1004.2	study	Phase2	study/STIM_007.jpg	100
799.015	1.087	1086.8	study	Phase2	study/STIM_008.jpg	100
802.307	0.935	935.2	study	Phase2	study/STIM_008.jpg	99
807.06	0.809	809.3	study	Phase2	study/STIM_008.jpg	99
810.657	1.174	1174.1	study	Phase2	study/STIM_009.jpg	100
814.063	1.056	1056.3	study	Phase2	study/STIM_009.jpg	100
818.291	0.991	991.2	study	Phase2	study/STIM_009.jpg	99
822.344	0.796	796.1	study	Phase2	study/STIM_010.jpg	100
825.35	0.627	626.9	study	Phase2	study/STIM_010.jpg	99
828.189	0.86	859.8	study	Phase2	study/STIM_010.jpg	100
832.856	1.014	1014.5	study	Phase2	study/STIM_011.jpg	100
835.933	1.007	1006.9	study	Phase2	study/STIM_011.jpg	100
840.398	0.744	744.2	study	Phase2	study/STIM_011.jpg	100
843.762	0.682	682.1	study	Phase2	study/STIM_012.jpg	100
848.253	0.658	658.4	study	Phase2	study/STIM_012.jpg	100
851.192	0.964	963.7	study	Phase2	study/STIM_012.jpg	99
854.45	0.878	878.4	study	Phase2	study/STIM_013.jpg	100
858.106	1.04	1039.7	study	Phase2	study/STIM_013.jpg	100
863.083	0.618	618.4	study	Phase2	study/STIM_013.jpg	99
866.599	1.222	1222.5	study	Phase2	study/STIM_014.jpg	99
871.8	0.857	856.6	study	Phase2	study/STIM_014.jpg	99
875.377	1.037	1037.1	study	Phase2	study/STIM_014.jpg	99
879.74	1.03	1030.5	study	Phase2	study/STIM_015.jpg	99
882.922	1.076	1076.2	study	Phase2	study/STIM_015.jpg	99
887.696	0.884	884.0	study	Phase2	study/STIM_015.jpg	99
891.769	1.028	1028.1	study	Phase2	study/STIM_016.jpg	100
896.442	0.642	642.5	study	Phase2	study/STIM_016.jpg	99
899.906	1.042	1042.0	study	Phase2	study/STIM_016.jpg	100
903.006	0.977	976.8	study	Phase2	study/STIM_017.jpg	100
907.951	0.605	605.4	study	Phase2	study/STIM_017.jpg	99
910.647	0.638	638.1	study	Phase2	study/STIM_017.jpg	99
914.296	0.818	818.0	study	Phase2	study/STIM_018.jpg	100
917.582	0.659	658.8	study	Phase2	study/STIM_018.jpg	100
921.8	0.99	989.7	study	Phase2	study/STIM_018.jpg	99
926.558	0.923	923.0	study	Phase2	study/STIM_019.jpg	99
931.313	0.945	944.7	study	Phase2	study/STIM_019.jpg	99
935.387	1.125	1124.7	study	Phase2	study/STIM_019.jpg	100
939.074	1.247	1246.8	study	Phase2	study/STIM_020.jpg	99
942.783	1.135	1135.0	study	Phase2	study/STIM_020.jpg	100
945.997	0.922	922.3	study	Phase2	study/STIM_020.jpg	100
950.269	1.219	1218.7	study	Phase2	study/STIM_021.jpg	100
954.317	1.152	1152.4	study	Phase2	study/STIM_021.jpg	100
957.593	1.081	1081.2	study	Phase2	study/STIM_021.jpg	100
961.349	1.111	1111.4	study	Phase2	study/STIM_022.jpg	100
965.912	0.562	561.7	study	Phase2	study/STIM_022.jpg	100
970.346	0.553	553.2	study	Phase2	study/STIM_022.jpg	99
974.571	1.025	1025.1	study	Phase2	study/STIM_023.jpg	99
977.927	1.127	1127.4	study	Phase2	study/STIM_023.jpg	99
981.155	0.85	849.8	study	Phase2	study/STIM_023.jpg	100
985.669	0.815	815.1	study	Phase2	study/STIM_024.jpg	100
989.563	0.898	898.0	study	Phase2	study/STIM_024.jpg	100
993.402	1.033	1032.7	study	Phase2	study/STIM_024.jpg	99
996.784	0.893	892.9	study	Phase2	study/STIM_025.jpg	99
1000.634	1.077	1076.6	study	Phase2	study/STIM_025.jpg	99
1005.488	0.825	824.7	study	Phase2	study/STIM_025.jpg	100
1008.571	1.187	1186.6	study	Phase2	study/STIM_026.jpg	99
1011.993	0.578	578.1	study	Phase2	study/STIM_026.jpg	99
1015.636	0.514	514.5	study	Phase2	study/STIM_026.jpg	100
1018.939	1.119	1119.2	study	Phase2	study/STIM_027.jpg	99
1023.428	0.852	852.5	study	Phase2	study/STIM_027.jpg	100
1027.974	0.716	716.5	study	Phase2	study/STIM_027.jpg	99
1032.523	1.263	1262.9	study	Phase2	study/STIM_028.jpg	100
1037.782	1.117	1117.2	study	Phase2	study/STIM_028.jpg	99
1041.487	1.1	1100.1	study	Phase2	study/STIM_028.jpg	99
1045.069	0.917	916.9	study	Phase2	study/STIM_029.jpg	100
1049.892	0.919	918.9	study	Phase2	study/STIM_029.jpg	100
1053.396	1.118	1117.5	study	Phase2	study/STIM_029.jpg	99
1057.355	0.795	794.8	test	Phase2	test/STIM_000.jpg	100
1060.299	0.849	849.2	test	Phase2	test/STIM_000.jpg	100
1063.867	0.834	833.6	test	Phase2	test/STIM_000.jpg	100
1068.589	0.674	674.1	test	Phase2	test/STIM_001.jpg	100
1071.602	0.558	558.0	test	Phase2	test/STIM_001.jpg	100
1074.993	0.934	934.3	test	Phase2	test/STIM_001.jpg	99
1078.799	1.046	1046.0	test	Phase2	test/STIM_002.jpg	100
1083.435	0.594	594.5	test	Phase2	test/STIM_002.jpg	99
1086.942	0.639	639.2	test	Phase2	test/STIM_002.jpg	99
1089.682	0.852	851.9	test	Phase2	test/STIM_003.jpg	100
1092.666	0.931	931.1	test	Phase2	test/STIM_003.jpg	99
1097.044	0.986	986.4	test	Phase2	test/STIM_003.jpg	100
1100.999	0.655	654.8	test	Phase2	test/STIM_004.jpg	100
1103.655	1.066	1066.5	test	Phase2	test/STIM_004.jpg	99
1106.747	0.507	507.3	test	Phase2	test/STIM_004.jpg	99
1109.283	0.721	721.4	test	Phase2	test/STIM_005.jpg	100
1112.083	0.894	894.1	test	Phase2	test/STIM_005.jpg	99
1115.795	0.992	992.2	test	Phase2	test/STIM_005.jpg	99
1120.343	0.539	538.8	test	Phase2	test/STIM_006.jpg	100
1124.646	0.962	962.4	test	Phase2	test/STIM_006.jpg	100
1128.732	0.657	657.2	test	Phase2	test/STIM_006.jpg	100
1132.268	0.505	505.2	test	Phase2	test/STIM_007.jpg	100
1136.076	0.51	510.2	test	Phase2	test/STIM_007.jpg	99
1139.891	0.595	594.7	test	Phase2	test/STIM_007.jpg	100
1144.414	1.02	1019.9	test	Phase2	test/STIM_008.jpg	100
1148.134	0.575	574.7	test	Phase2	test/STIM_008.jpg	99
1151.304	1.053	1052.8	test	Phase2	test/STIM_008.jpg	100
1155.981	0.708	707.5	test	Phase2	test/STIM_009.jpg	100
1159.88	0.881	880.7	test	Phase2	test/STIM_009.jpg	100
1164.144	0.939	939.4	test	Phase2	test/STIM_009.jpg	100
1168.088	0.966	965.7	test	Phase2	test/STIM_010.jpg	99
1172.414	0.64	640.1	test	Phase2	test/STIM_010.jpg	99
1175.237	0.615	614.7	test	Phase2	test/STIM_010.jpg	100
1178.683	1.046	1045.5	test	Phase2	test/STIM_011.jpg	99
1182.136	0.829	828.8	test	Phase2	test/STIM_011.jpg	99
1186.253	0.749	749.2	test	Phase2	test/STIM_011.jpg	99
1189.865	0.837	837.3	test	Phase2	test/STIM_012.jpg	100
1194.111	0.886	885.5	test	Phase2	test/STIM_012.jpg	100
1197.548	0.862	861.7	test	Phase2	test/STIM_012.jpg	99
1200.675	0.97	970.1	test	Phase2	test/STIM_013.jpg	99
1204.696	1.065	1065.3	test	Phase2	test/STIM_013.jpg	100
1209.423	0.803	803.4	test	Phase2	test/STIM_013.jpg	100
1213.615	1.043	1042.8	test	Phase2	test/STIM_014.jpg	99
1217.055	0.688	687.7	test	Phase2	test/STIM_014.jpg	100
1220.886	0.616	615.6	test	Phase2	test/STIM_014.jpg	99
1225.019	0.93	929.8	test	Phase2	test/STIM_015.jpg	100
1229.814	0.683	682.6	test	Phase2	test/STIM_015.jpg	100
1233.829	1.063	1063.0	test	Phase2	test/STIM_015.jpg	100
1237.431	0.915	914.6	test	Phase2	test/STIM_016.jpg	100
1241.995	0.928	927.9	test	Phase2	test/STIM_016.jpg	100
1246.359	0.971	971.3	test	Phase2	test/STIM_016.jpg	99
1250.683	0.53	529.7	test	Phase2	test/STIM_017.jpg	100
1254.17	1.065	1065.3	test	Phase2	test/STIM_017.jpg	100
1258.451	1.084	1084.3	test	Phase2	test/STIM_017.jpg	100
1262.088	0.886	886.3	test	Phase2	test/STIM_018.jpg	100
1265.667	1.025	1024.9	test	Phase2	test/STIM_018.jpg	100
1268.898	0.684	684.1	test	Phase2	test/STIM_018.jpg	99
1272.694	0.604	603.5	test	Phase2	test/STIM_019.jpg	100
1276.452	0.537	536.8	test	Phase2	test/STIM_019.jpg	99
1280.222	0.699	698.6	test	Phase2	test/STIM_019.jpg	100
1284.739	0.707	707.1	test	Phase2	test/STIM_020.jpg	100
1289.085	0.689	688.7	test	Phase2	test/STIM_020.jpg	100
1292.136	1.058	1057.8	test	Phase2	test/STIM_020.jpg	99
1295.643	0.826	826.2	test	Phase2	test/STIM_021.jpg	100
1299.819	0.611	610.6	test	Phase2	test/STIM_021.jpg	100
1304.079	0.693	692.6	test	Phase2	test/STIM_021.jpg	99
1308.44	0.949	948.6	test	Phase2	test/STIM_022.jpg	100
1313.211	0.789	788.6	test	Phase2	test/STIM_022.jpg	99
1316.122	0.689	688.6	test	Phase2	test/STIM_022.jpg	100
1319.882	0.51	510.5	test	Phase2	test/STIM_023.jpg	100
1322.749	0.718	717.7	test	Phase2	test/STIM_023.jpg	99
1326.169	0.702	702.0	test	Phase2	test/STIM_023.jpg	100
1330.309	0.803	803.0	test	Phase2	test/STIM_024.jpg	99
1334.352	0.516	516.4	test	Phase2	test/STIM_024.jpg	100
1338.167	0.716	715.5	test	Phase2	test/STIM_024.jpg	100
1341.477	0.578	578.4	test	Phase2	test/STIM_025.jpg	99
1344.462	0.586	586.2	test	Phase2	test/STIM_025.jpg	99
1348.092	0.839	839.4	test	Phase2	test/STIM_025.jpg	100
1351.865	0.958	958.2	test	Phase2	test/STIM_026.jpg	99
1355.617	1.063	1063.1	test	Phase2	test/STIM_026.jpg	99
1359.267	0.614	614.3	test	Phase2	test/STIM_026.jpg	100
1362.421	0.529	529.3	test	Phase2	test/STIM_027.jpg	100
1365.676	0.514	514.2	test	Phase2	test/STIM_027.jpg	100
1369.781	0.743	743.0	test	Phase2	test/STIM_027.jpg	100
1373.882	0.938	937.7	test	Phase2	test/STIM_028.jpg	99
1378.495	1.056	1055.6	test	Phase2	test/STIM_028.jpg	99
1382.923	0.94	939.5	test	Phase2	test/STIM_028.jpg	99
1386.813	0.559	559.2	test	Phase2	test/STIM_029.jpg	100
1389.495	0.83	830.1	test	Phase2	test/STIM_029.jpg	100
1394.157	0.82	819.6	test	Phase2	test/STIM_029.jpg	100
1397.096	0.987	986.9	study	Phase3	study/STIM_000.jpg	100
1401.557	0.477	477.2	study	Phase3	study/STIM_000.jpg	99
1404.686	0.486	486.3	study	Phase3	study/STIM_000.jpg	100
1408.198	0.664	663.7	study	Phase3	study/STIM_001.jpg	99
1411.756	0.471	470.6	study	Phase3	study/STIM_001.jpg	99
1414.738	0.955	955.1	study	Phase3	study/STIM_001.jpg	100
1418.018	0.746	746.2	study	Phase3	study/STIM_002.jpg	99
1421.473	0.897	896.7	study	Phase3	study/STIM_002.jpg	100
1424.604	0.766	765.6	study	Phase3	study/STIM_002.jpg	99
1428.721	0.913	913.2	study	Phase3	study/STIM_003.jpg	99
1433.325	0.599	599.1	study	Phase3	study/STIM_003.jpg	100
1436.645	1.032	1032.1	study	Phase3	study/STIM_003.jpg	100
1441.596	0.919	919.0	study	Phase3	study/STIM_004.jpg	100
1445.498	0.728	728.3	study	Phase3	study/STIM_004.jpg	100
1448.814	0.998	998.4	study	Phase3	study/STIM_004.jpg	99
1453.415	0.722	722.3	study	Phase3	study/STIM_005.jpg	99
1457.503	0.688	687.9	study	Phase3	study/STIM_005.jpg	99
1461.752	0.554	553.7	study	Phase3	study/STIM_005.jpg	99
1465.69	0.801	801.3	study	Phase3	study/STIM_006.jpg	99
1468.947	0.607	606.8	study	Phase3	study/STIM_006.jpg	99
1471.591	0.925	924.8	study	Phase3	study/STIM_006.jpg	99
1476.389	1.053	1052.7	study	Phase3	study/STIM_007.jpg	99
1480.266	0.747	746.8	study	Phase3	study/STIM_007.jpg	100
1483.211	0.808	807.6	study	Phase3	study/STIM_007.jpg	100
1486.542	0.714	714.4	study	Phase3	study/STIM_008.jpg	100
1491.072	0.55	549.8	study	Phase3	study/STIM_008.jpg	99
1495.459	0.492	491.7	study	Phase3	study/STIM_008.jpg	99
1499.23	0.693	693.1	study	Phase3	study/STIM_009.jpg	100
1503.633	0.565	565.2	study	Phase3	study/STIM_009.jpg	99
1507.223	0.709	708.6	study	Phase3	study/STIM_009.jpg	100
1511.773	1.006	1005.7	study	Phase3	study/STIM_010.jpg	99
1515.383	0.564	563.5	study	Phase3	study/STIM_010.jpg	99
1518.742	0.732	732.0	study	Phase3	study/STIM_010.jpg	100
1522.5	0.539	538.7	study	Phase3	study/STIM_011.jpg	99
1526.3	0.89	889.8	study	Phase3	study/STIM_011.jpg	100
1529.428	0.647	646.8	study	Phase3	study/STIM_011.jpg	99
1533.835	0.496	496.2	study	Phase3	study/STIM_012.jpg	99
1537.618	0.79	789.6	study	Phase3	study/STIM_012.jpg	100
1541.505	1.039	1039.4	study	Phase3	study/STIM_012.jpg	100
1545.442	0.953	953.3	study	Phase3	study/STIM_013.jpg	100
1549.224	0.778	777.7	study	Phase3	study/STIM_013.jpg	100
1553.844	0.64	640.0	study	Phase3	study/STIM_013.jpg	99
1558.317	0.596	595.7	study	Phase3	study/STIM_014.jpg	100
1561.974	1.04	1040.2	study	Phase3	study/STIM_014.jpg	99
1565.91	0.81	810.4	study	Phase3	study/STIM_014.jpg	99
1570.356	0.568	567.5	study	Phase3	study/STIM_015.jpg	99
1574.606	0.873	873.1	study	Phase3	study/STIM_015.jpg	99
1578.361	0.844	844.4	study	Phase3	study/STIM_015.jpg	99
1581.451	0.619	619.3	study	Phase3	study/STIM_016.jpg	99
1585.752	0.867	866.9	study	Phase3	study/STIM_016.jpg	99
1590.271	0.888	888.4	study	Phase3	study/STIM_016.jpg	100
1593.313	0.767	766.8	study	Phase3	study/STIM_017.jpg	99
1596.495	0.66	660.2	study	Phase3	study/STIM_017.jpg	100
1600.744	0.758	757.7	study	Phase3	study/STIM_017.jpg	100
1604.363	0.602	602.5	study	Phase3	study/STIM_018.jpg	100
1607.602	0.801	801.0	study	Phase3	study/STIM_018.jpg	100
1611.271	0.998	998.0	study	Phase3	study/STIM_018.jpg	100
1614.992	0.559	558.8	study	Phase3	study/STIM_019.jpg	99
1618.206	0.846	846.1	study	Phase3	study/STIM_019.jpg	100
1622.589	0.879	879.3	study	Phase3	study/STIM_019.jpg	99
1627.037	0.965	965.0	study	Phase3	study/STIM_020.jpg	99
1631.857	0.927	927.2	study	Phase3	study/STIM_020.jpg	100
1636.596	0.82	820.2	study	Phase3	study/STIM_020.jpg	100
1640.129	0.986	985.7	study	Phase3	study/STIM_021.jpg	99
1644.062	0.783	783.4	study	Phase3	study/STIM_021.jpg	99
1648.149	0.765	764.8	study	Phase3	study/STIM_021.jpg	99
1652.628	0.854	853.7	study	Phase3	study/STIM_022.jpg	99
1656.033	0.842	841.7	study	Phase3	study/STIM_022.jpg	99
1659.642	0.944	944.3	study	Phase3	study/STIM_022.jpg	100
1663.776	0.828	828.0	study	Phase3	study/STIM_023.jpg	99
1667.864	0.566	566.5	study	Phase3	study/STIM_023.jpg	100
1671.102	0.733	733.4	study	Phase3	study/STIM_023.jpg	99
1674.783	0.833	832.6	study	Phase3	study/STIM_024.jpg	99
1678.583	0.658	657.9	study	Phase3	study/STIM_024.jpg	99
1682.618	0.672	671.6	study	Phase3	study/STIM_024.jpg	99
1686.416	0.641	640.8	study	Phase3	study/STIM_025.jpg	100
1689.337	0.675	675.1	study	Phase3	study/STIM_025.jpg	99
1693.179	0.572	571.6	study	Phase3	study/STIM_025.jpg	99
1696.29	0.838	837.8	study	Phase3	study/STIM_026.jpg	99
1700.394	0.786	786.3	study	Phase3	study/STIM_026.jpg	100
1703.24	0.54	540.5	study	Phase3	study/STIM_026.jpg	99
1705.977	0.621	621.1	study	Phase3	study/STIM_027.jpg	100
1708.828	1.016	1016.3	study	Phase3	study/STIM_027.jpg	100
1713.787	0.494	493.5	study	Phase3	study/STIM_027.jpg	99
1717.888	0.997	997.0	study	Phase3	study/STIM_028.jpg	99
1722.461	0.499	498.6	study	Phase3	study/STIM_028.jpg	100
1725.197	1.004	1004.4	study	Phase3	study/STIM_028.jpg	99
1728.401	1.014	1013.5	study	Phase3	study/STIM_029.jpg	100
1733.154	0.931	930.9	study	Phase3	study/STIM_029.jpg	100
1736.129	0.782	781.6	study	Phase3	study/STIM_029.jpg	100
1740.668	0.684	683.6	test	Phase3	test/STIM_000.jpg	99
1744.128	0.932	932.1	test	Phase3	test/STIM_000.jpg	99
1747.355	0.94	939.6	test	Phase3	test/STIM_000.jpg	100
1750.448	0.965	964.8	test	Phase3	test/STIM_001.jpg	100
1754.392	0.896	896.4	test	Phase3	test/STIM_001.jpg	100
1758.585	1.01	1010.2	test	Phase3	test/STIM_001.jpg	100
1762.915	0.862	861.6	test	Phase3	test/STIM_002.jpg	100
1766.12	0.699	698.7	test	Phase3	test/STIM_002.jpg	99
1769.67	0.74	739.9	test	Phase3	test/STIM_002.jpg	99
1772.421	0.9	899.7	test	Phase3	test/STIM_003.jpg	100
1776.074	0.702	701.5	test	Phase3	test/STIM_003.jpg	100
1779.444	0.731	731.3	test	Phase3	test/STIM_003.jpg	100
1783.52	0.768	767.7	test	Phase3	test/STIM_004.jpg	99
1787.567	0.613	613.1	test	Phase3	test/STIM_004.jpg	99
1790.339	1.056	1056.0	test	Phase3	test/STIM_004.jpg	100
1793.564	0.838	838.3	test	Phase3	test/STIM_005.jpg	99
1797.897	0.79	790.1	test	Phase3	test/STIM_005.jpg	99
1801.245	0.933	933.3	test	Phase3	test/STIM_005.jpg	100
1805.236	0.573	572.9	test	Phase3	test/STIM_006.jpg	99
1809.498	0.584	584.4	test	Phase3	test/STIM_006.jpg	100
1813.154	0.668	668.5	test	Phase3	test/STIM_006.jpg	99
1815.997	1.06	1060.5	test	Phase3	test/STIM_007.jpg	100
1819.285	1.016	1015.5	test	Phase3	test/STIM_007.jpg	99
1822.952	1.012	1012.4	test	Phase3	test/STIM_007.jpg	100
1827.661	0.777	776.9	test	Phase3	test/STIM_008.jpg	99
1831.02	0.729	729.1	test	Phase3	test/STIM_008.jpg	100
1835.644	0.854	853.5	test	Phase3	test/STIM_008.jpg	99
1838.511	1.0	1000.5	test	Phase3	test/STIM_009.jpg	99
1842.142	0.971	971.1	test	Phase3	test/STIM_009.jpg	100
1846.609	0.604	603.9	test	Phase3	test/STIM_009.jpg	100
1850.731	1.033	1033.3	test	Phase3	test/STIM_010.jpg	99
1854.788	0.984	983.8	test	Phase3	test/STIM_010.jpg	99
1858.343	0.72	719.6	test	Phase3	test/STIM_010.jpg	99
1861.07	0.682	682.5	test	Phase3	test/STIM_011.jpg	100
1864.365	0.634	633.9	test	Phase3	test/STIM_011.jpg	100
1868.49	0.779	778.6	test	Phase3	test/STIM_011.jpg	100
1871.674	1.037	1037.1	test	Phase3	test/STIM_012.jpg	99
1875.447	0.975	974.7	test	Phase3	test/STIM_012.jpg	100
1878.684	1.047	1046.7	test	Phase3	test/STIM_012.jpg	99
1881.739	0.73	729.9	test	Phase3	test/STIM_013.jpg	100
1886.195	1.042	1042.5	test	Phase3	test/STIM_013.jpg	100
1890.088	0.818	817.8	test	Phase3	test/STIM_013.jpg	99
1893.502	0.561	561.2	test	Phase3	test/STIM_014.jpg	99
1897.287	1.047	1046.9	test	Phase3	test/STIM_014.jpg	100
1901.78	0.682	682.4	test	Phase3	test/STIM_014.jpg	100
1906.356	1.048	1048.1	test	Phase3	test/STIM_015.jpg	99
1910.613	0.879	878.8	test	Phase3	test/STIM_015.jpg	100
1915.476	0.673	672.6	test	Phase3	test/STIM_015.jpg	100
1919.117	0.691	691.3	test	Phase3	test/STIM_016.jpg	100
1922.689	0.742	742.3	test	Phase3	test/STIM_016.jpg	100
1925.593	0.945	945.3	test	Phase3	test/STIM_016.jpg	99
1929.487	1.062	1061.8	test	Phase3	test/STIM_017.jpg	100
1933.939	1.044	1043.5	test	Phase3	test/STIM_017.jpg	99
1937.846	0.517	516.6	test	Phase3	test/STIM_017.jpg	100
1942.292	0.778	777.5	test	Phase3	test/STIM_018.jpg	99
1946.108	0.929	928.7	test	Phase3	test/STIM_018.jpg	99
1950.811	1.021	1021.2	test	Phase3	test/STIM_018.jpg	100
1954.077	0.896	895.5	test	Phase3	test/STIM_019.jpg	100
1957.988	0.557	556.9	test	Phase3	test/STIM_019.jpg	99
1961.181	0.989	988.8	test	Phase3	test/STIM_019.jpg	100
1966.167	0.653	652.9	test	Phase3	test/STIM_020.jpg	100
1969.706	0.551	550.9	test	Phase3	test/STIM_020.jpg	100
1973.451	0.849	848.9	test	Phase3	test/STIM_020.jpg	100
1977.186	0.813	812.6	test	Phase3	test/STIM_021.jpg	99
1981.743	0.596	596.4	test	Phase3	test/STIM_021.jpg	100
1984.653	0.57	570.3	test	Phase3	test/STIM_021.jpg	99
1987.779	0.925	925.2	test	Phase3	test/STIM_022.jpg	100
1991.976	1.046	1045.7	test	Phase3	test/STIM_022.jpg	100
1995.16	0.997	997.1	test	Phase3	test/STIM_022.jpg	100
1998.857	0.896	895.9	test	Phase3	test/STIM_023.jpg	99
2001.941	0.952	951.9	test	Phase3	test/STIM_023.jpg	100
2005.653	1.014	1013.9	test	Phase3	test/STIM_023.jpg	99
2008.802	0.8	799.6	test	Phase3	test/STIM_024.jpg	100
2012.66	0.6	599.8	test	Phase3	test/STIM_024.jpg	100
2017.108	0.888	887.6	test	Phase3	test/STIM_024.jpg	100
2021.567	0.555	555.2	test	Phase3	test/STIM_025.jpg	100
2024.874	0.584	583.6	test	Phase3	test/STIM_025.jpg	100
2029.02	0.597	596.6	test	Phase3	test/STIM_025.jpg	100
2032.187	0.53	530.5	test	Phase3	test/STIM_026.jpg	99
2036.249	0.515	515.0	test	Phase3	test/STIM_026.jpg	99
2040.205	0.85	849.7	test	Phase3	test/STIM_026.jpg	100
2043.514	0.973	972.8	test	Phase3	test/STIM_027.jpg	99
2047.708	0.556	556.0	test	Phase3	test/STIM_027.jpg	100
2051.811	0.633	633.2	test	Phase3	test/STIM_027.jpg	99
2055.638	0.823	823.0	test	Phase3	test/STIM_028.jpg	99
2059.698	0.795	795.0	test	Phase3	test/STIM_028.jpg	100
2064.341	0.815	814.8	test	Phase3	test/STIM_028.jpg	100
2067.69	1.012	1012.3	test	Phase3	test/STIM_029.jpg	100
2071.817	0.727	726.9	test	Phase3	test/STIM_029.jpg	100
2075.264	0.922	922.4	test	Phase3	test/STIM_029.jpg	100
