onset	duration	response_time_ms	trial_type	learning_stage	stimulus	response_port
0.0	3.527	3526.6	navigation	Trial1	navigation/STIM_000.jpg	100
5.911	3.879	3878.9	navigation	Trial1	navigation/STIM_000.jpg	99
11.805	3.295	3295.2	navigation	Trial1	navigation/STIM_000.jpg	100
18.048	2.782	2781.8	navigation	Trial1	navigation/STIM_000.jpg	99
23.6	3.376	3375.7	navigation	Trial1	navigation/STIM_000.jpg	100
30.837	3.226	3225.9	navigation	Trial1	navigation/STIM_000.jpg	99
37.78	3.315	3315.0	navigation	Trial1	navigation/STIM_001.jpg	99
45.021	3.448	3447.8	navigation	Trial1	navigation/STIM_001.jpg	100
50.819	3.597	3597.2	navigation	Trial1	navigation/STIM_001.jpg	100
57.341	3.029	3029.0	navigation	Trial1	navigation/STIM_001.jpg	99
63.366	1.677	1677.3	navigation	Trial1	navigation/STIM_001.jpg	100
67.218	1.533	1532.7	navigation	Trial1	navigation/STIM_001.jpg	100
72.164	1.81	1810.1	navigation	Trial1	navigation/STIM_002.jpg	99
77.621	3.963	3963.3	navigation	Trial1	navigation/STIM_002.jpg	99
84.718	2.954	2954.1	navigation	Trial1	navigation/STIM_002.jpg	100
89.732	2.217	2217.2	navigation	Trial1	navigation/STIM_002.jpg	100
94.149	2.542	2542.1	navigation	Trial1	navigation/STIM_002.jpg	100
99.494	2.192	2192.4	navigation	Trial1	navigation/STIM_002.jpg	99
104.165	2.612	2612.1	navigation	Trial1	navigation/STIM_003.jpg	100
109.253	2.224	2223.9	navigation	Trial1	navigation/STIM_003.jpg	100
114.869	2.511	2511.3	navigation	Trial1	navigation/STIM_003.jpg	100
120.929	1.812	1811.5	navigation	Trial1	navigation/STIM_003.jpg	99
125.878	2.933	2933.4	navigation	Trial1	navigation/STIM_003.jpg	100
131.89	3.117	3116.8	navigation	Trial1	navigation/STIM_003.jpg	100
138.811	3.317	3317.3	navigation	Trial1	navigation/STIM_004.jpg	100
144.3	2.827	2826.9	navigation	Trial1	navigation/STIM_004.jpg	100
150.486	2.787	2787.3	navigation	Trial1	navigation/STIM_004.jpg	100
156.219	2.201	2200.9	navigation	Trial1	navigation/STIM_004.jpg	99
161.997	2.242	2242.2	navigation	Trial1	navigation/STIM_004.jpg	100
166.299	3.127	3127.4	navigation	Trial1	navigation/STIM_004.jpg	99
172.597	3.921	3920.7	navigation	Trial1	navigation/STIM_005.jpg	99
179.237	2.201	2200.7	navigation	Trial1	navigation/STIM_005.jpg	100
184.42	2.783	2783.3	navigation	Trial1	navigation/STIM_005.jpg	99
189.439	2.56	2560.0	navigation	Trial1	navigation/STIM_005.jpg	100
195.792	2.376	2375.8	navigation	Trial1	navigation/STIM_005.jpg	99
200.774	1.521	1521.1	navigation	Trial1	navigation/STIM_005.jpg	100
205.383	3.324	3324.4	navigation	Trial1	navigation/STIM_006.jpg	100
210.933	3.953	3952.7	navigation	Trial1	navigation/STIM_006.jpg	99
218.677	2.026	2026.4	navigation	Trial1	navigation/STIM_006.jpg	100
224.666	1.991	1990.6	navigation	Trial1	navigation/STIM_006.jpg	100
230.483	1.662	1662.4	navigation	Trial1	navigation/STIM_006.jpg	99
234.834	3.115	3114.9	navigation	Trial1	navigation/STIM_006.jpg	99
241.71	1.75	1749.6	navigation	Trial1	navigation/STIM_007.jpg	100
247.315	2.927	2927.1	navigation	Trial1	navigation/STIM_007.jpg	100
254.081	2.563	2563.0	navigation	Trial1	navigation/STIM_007.jpg	99
259.38	2.557	2557.2	navigation	Trial1	navigation/STIM_007.jpg	99
264.335	1.6	1600.2	navigation	Trial1	navigation/STIM_007.jpg	100
268.762	2.794	2793.9	navigation	Trial1	navigation/STIM_007.jpg	100
274.744	2.928	2928.5	navigation	Trial1	navigation/STIM_008.jpg	99
279.998	2.221	2220.7	navigation	Trial1	navigation/STIM_008.jpg	100
285.642	3.752	3752.4	navigation	Trial1	navigation/STIM_008.jpg	100
291.542	2.757	2757.1	navigation	Trial1	navigation/STIM_008.jpg	99
297.186	2.431	2431.2	navigation	Trial1	navigation/STIM_008.jpg	99
303.362	1.748	1747.8	navigation	Trial1	navigation/STIM_008.jpg	100
307.591	2.934	2934.3	navigation	Trial1	navigation/STIM_009.jpg	100
312.677	3.957	3957.0	navigation	Trial1	navigation/STIM_009.jpg	99
320.52	3.148	3147.9	navigation	Trial1	navigation/STIM_009.jpg	99
326.782	2.674	2674.3	navigation	Trial1	navigation/STIM_009.jpg	100
332.943	1.866	1865.7	navigation	Trial1	navigation/STIM_009.jpg	99
337.866	1.931	1930.8	navigation	Trial1	navigation/STIM_009.jpg	100
342.865	3.159	3158.9	navigation	Trial1	navigation/STIM_010.jpg	100
348.802	2.506	2506.4	navigation	Trial1	navigation/STIM_010.jpg	100
355.164	3.795	3794.6	navigation	Trial1	navigation/STIM_010.jpg	100
362.674	2.316	2316.4	navigation	Trial1	navigation/STIM_010.jpg	99
368.241	3.185	3184.9	navigation	Trial1	navigation/STIM_010.jpg	99
375.079	2.352	2351.6	navigation	Trial1	navigation/STIM_010.jpg	99
380.306	4.119	4119.4	navigation	Trial1	navigation/STIM_011.jpg	100
386.498	3.699	3698.6	navigation	Trial1	navigation/STIM_011.jpg	100
393.48	3.543	3543.0	navigation	Trial1	navigation/STIM_011.jpg	100
399.437	1.932	1932.3	navigation	Trial1	navigation/STIM_011.jpg	100
403.703	2.903	2902.8	navigation	Trial1	navigation/STIM_011.jpg	99
408.927	3.228	3227.5	navigation	Trial1	navigation/STIM_011.jpg	100
415.878	0.776	775.7	pointing	Trial1	pointing/STIM_000.jpg	99
418.824	0.696	695.8	pointing	Trial1	pointing/STIM_000.jpg	100
422.965	0.799	799.1	pointing	Trial1	pointing/STIM_000.jpg	100
427.569	1.037	1037.2	pointing	Trial1	pointing/STIM_000.jpg	99
432.331	0.836	836.2	pointing	Trial1	pointing/STIM_000.jpg	100
436.172	1.252	1251.6	pointing	Trial1	pointing/STIM_000.jpg	100
439.57	1.052	1052.5	pointing	Trial1	pointing/STIM_001.jpg	99
443.124	0.72	719.7	pointing	Trial1	pointing/STIM_001.jpg	99
446.703	1.24	1239.9	pointing	Trial1	pointing/STIM_001.jpg	100
450.858	0.754	754.2	pointing	Trial1	pointing/STIM_001.jpg	100
453.87	0.953	953.4	pointing	Trial1	pointing/STIM_001.jpg	99
458.07	0.976	975.7	pointing	Trial1	pointing/STIM_001.jpg	100
461.115	0.873	872.7	pointing	Trial1	pointing/STIM_002.jpg	99
465.262	0.902	902.3	pointing	Trial1	pointing/STIM_002.jpg	100
468.304	1.035	1034.7	pointing	Trial1	pointing/STIM_002.jpg	100
471.887	1.081	1081.2	pointing	Trial1	pointing/STIM_002.jpg	100
475.688	1.014	1013.7	pointing	Trial1	pointing/STIM_002.jpg	99
479.052	0.702	701.7	pointing	Trial1	pointing/STIM_002.jpg	100
483.036	0.771	770.8	pointing	Trial1	pointing/STIM_003.jpg	99
487.545	1.043	1042.8	pointing	Trial1	pointing/STIM_003.jpg	100
491.329	0.945	945.1	pointing	Trial1	pointing/STIM_003.jpg	99
496.044	1.029	1029.3	pointing	Trial1	pointing/STIM_003.jpg	100
500.91	0.87	870.4	pointing	Trial1	pointing/STIM_003.jpg	100
504.062	0.782	781.9	pointing	Trial1	pointing/STIM_003.jpg	100
508.494	1.188	1187.8	pointing	Trial1	pointing/STIM_004.jpg	100
513.045	0.824	823.5	pointing	Trial1	pointing/STIM_004.jpg	100
516.619	1.156	1155.9	pointing	Trial1	pointing/STIM_004.jpg	99
521.445	1.123	1123.1	pointing	Trial1	pointing/STIM_004.jpg	99
524.658	0.737	737.2	pointing	Trial1	pointing/STIM_004.jpg	99
528.747	1.122	1121.7	pointing	Trial1	pointing/STIM_004.jpg	100
532.592	0.781	781.3	pointing	Trial1	pointing/STIM_005.jpg	99
536.264	0.695	695.2	pointing	Trial1	pointing/STIM_005.jpg	99
540.287	0.881	881.4	pointing	Trial1	pointing/STIM_005.jpg	100
543.422	0.71	710.2	pointing	Trial1	pointing/STIM_005.jpg	99
547.639	0.946	946.3	pointing	Trial1	pointing/STIM_005.jpg	99
552.51	0.975	975.3	pointing	Trial1	pointing/STIM_005.jpg	99
556.366	0.984	983.6	pointing	Trial1	pointing/STIM_006.jpg	100
561.327	0.899	899.0	pointing	Trial1	pointing/STIM_006.jpg	100
565.943	1.043	1042.7	pointing	Trial1	pointing/STIM_006.jpg	99
570.006	0.845	844.6	pointing	Trial1	pointing/STIM_006.jpg	100
573.059	0.88	879.9	pointing	Trial1	pointing/STIM_006.jpg	100
577.422	0.928	928.0	pointing	Trial1	pointing/STIM_006.jpg	100
581.787	0.876	876.1	pointing	Trial1	pointing/STIM_007.jpg	100
585.042	1.214	1213.5	pointing	Trial1	pointing/STIM_007.jpg	99
589.113	1.219	1218.7	pointing	Trial1	pointing/STIM_007.jpg	100
593.989	0.972	972.3	pointing	Trial1	pointing/STIM_007.jpg	99
597.816	1.102	1102.2	pointing	Trial1	pointing/STIM_007.jpg	99
602.173	1.093	1093.0	pointing	Trial1	pointing/STIM_007.jpg	99
606.886	1.089	1089.0	pointing	Trial1	pointing/STIM_008.jpg	100
611.856	1.236	1235.5	pointing	Trial1	pointing/STIM_008.jpg	99
617.079	1.124	1123.5	pointing	Trial1	pointing/STIM_008.jpg	99
621.111	0.91	909.8	pointing	Trial1	pointing/STIM_008.jpg	99
624.691	0.719	718.7	pointing	Trial1	pointing/STIM_008.jpg	100
627.615	0.916	916.2	pointing	Trial1	pointing/STIM_008.jpg	100
630.896	1.178	1178.1	pointing	Trial1	pointing/STIM_009.jpg	100
634.574	0.96	960.0	pointing	Trial1	pointing/STIM_009.jpg	99
638.587	1.102	1102.1	pointing	Trial1	pointing/STIM_009.jpg	99
642.409	0.86	860.1	pointing	Trial1	pointing/STIM_009.jpg	99
645.334	0.979	979.2	pointing	Trial1	pointing/STIM_009.jpg	100
648.831	1.271	1271.0	pointing	Trial1	pointing/STIM_009.jpg	100
653.537	1.009	1009.0	pointing	Trial1	pointing/STIM_010.jpg	100
656.711	1.056	1055.8	pointing	Trial1	pointing/STIM_010.jpg	99
661.633	1.136	1135.8	pointing	Trial1	pointing/STIM_010.jpg	100
666.1	0.962	962.1	pointing	Trial1	pointing/STIM_010.jpg	100
669.279	1.21	1210.5	pointing	Trial1	pointing/STIM_010.jpg	100
673.537	1.26	1259.7	pointing	Trial1	pointing/STIM_010.jpg	99
677.836	0.762	761.5	pointing	Trial1	pointing/STIM_011.jpg	99
681.965	1.235	1235.2	pointing	Trial1	pointing/STIM_011.jpg	100
685.816	0.753	753.2	pointing	Trial1	pointing/STIM_011.jpg	100
690.346	0.745	745.2	pointing	Trial1	pointing/STIM_011.jpg	100
695.029	0.954	954.1	pointing	Trial1	pointing/STIM_011.jpg	99
698.159	1.138	1137.5	pointing	Trial1	pointing/STIM_011.jpg	100
702.485	2.003	2003.5	navigation	Trial2	navigation/STIM_000.jpg	100
708.201	2.421	2421.4	navigation	Trial2	navigation/STIM_000.jpg	99
712.716	1.962	1961.6	navigation	Trial2	navigation/STIM_000.jpg	100
718.504	2.916	2915.9	navigation	Trial2	navigation/STIM_000.jpg	99
724.503	2.184	2184.1	navigation	Trial2	navigation/STIM_000.jpg	99
729.408	2.206	2206.1	navigation	Trial2	navigation/STIM_000.jpg	100
734.489	1.751	1751.2	navigation	Trial2	navigation/STIM_001.jpg	99
739.89	3.222	3222.0	navigation	Trial2	navigation/STIM_001.jpg	99
746.926	1.483	1483.0	navigation	Trial2	navigation/STIM_001.jpg	100
751.606	2.418	2417.8	navigation	Trial2	navigation/STIM_001.jpg	100
757.228	2.934	2934.0	navigation	Trial2	navigation/STIM_001.jpg	99
762.364	2.484	2484.1	navigation	Trial2	navigation/STIM_001.jpg	99
767.172	2.146	2146.5	navigation	Trial2	navigation/STIM_002.jpg	99
773.013	2.972	2971.7	navigation	Trial2	navigation/STIM_002.jpg	99
778.689	1.96	1960.3	navigation	Trial2	navigation/STIM_002.jpg	99
783.353	2.836	2836.1	navigation	Trial2	navigation/STIM_002.jpg	99
789.447	1.938	1938.4	navigation	Trial2	navigation/STIM_002.jpg	99
793.987	1.26	1260.0	navigation	Trial2	navigation/STIM_002.jpg	100
799.071	3.345	3344.7	navigation	Trial2	navigation/STIM_003.jpg	99
806.078	2.29	2290.1	navigation	Trial2	navigation/STIM_003.jpg	100
811.086	1.913	1912.8	navigation	Trial2	navigation/STIM_003.jpg	100
816.245	2.303	2302.6	navigation	Trial2	navigation/STIM_003.jpg	99
821.211	1.558	1558.3	navigation	Trial2	navigation/STIM_003.jpg	99
825.188	1.875	1875.0	navigation	Trial2	navigation/STIM_003.jpg	100
829.874	3.18	3179.6	navigation	Trial2	navigation/STIM_004.jpg	99
837.022	2.223	2222.7	navigation	Trial2	navigation/STIM_004.jpg	100
842.431	2.249	2249.4	navigation	Trial2	navigation/STIM_004.jpg	100
846.824	1.685	1685.1	navigation	Trial2	navigation/STIM_004.jpg	99
851.906	2.554	2554.4	navigation	Trial2	navigation/STIM_004.jpg	99
858.052	1.818	1817.8	navigation	Trial2	navigation/STIM_004.jpg	100
863.384	2.512	2512.4	navigation	Trial2	navigation/STIM_005.jpg	99
868.937	3.311	3311.3	navigation	Trial2	navigation/STIM_005.jpg	100
875.853	2.467	2467.2	navigation	Trial2	navigation/STIM_005.jpg	99
881.758	1.492	1491.7	navigation	Trial2	navigation/STIM_005.jpg	99
886.896	1.672	1672.4	navigation	Trial2	navigation/STIM_005.jpg	100
891.229	1.253	1252.7	navigation	Trial2	navigation/STIM_005.jpg	99
895.622	2.625	2624.7	navigation	Trial2	navigation/STIM_006.jpg	99
901.434	3.139	3139.2	navigation	Trial2	navigation/STIM_006.jpg	100
907.691	2.227	2227.1	navigation	Trial2	navigation/STIM_006.jpg	100
912.201	1.53	1529.8	navigation	Trial2	navigation/STIM_006.jpg	100
915.784	3.009	3008.9	navigation	Trial2	navigation/STIM_006.jpg	99
922.306	1.84	1839.5	navigation	Trial2	navigation/STIM_006.jpg	100
926.161	2.302	2301.7	navigation	Trial2	navigation/STIM_007.jpg	100
931.736	2.565	2565.4	navigation	Trial2	navigation/STIM_007.jpg	100
937.905	2.162	2162.0	navigation	Trial2	navigation/STIM_007.jpg	99
942.18	2.854	2853.6	navigation	Trial2	navigation/STIM_007.jpg	100
948.789	1.469	1469.3	navigation	Trial2	navigation/STIM_007.jpg	100
952.84	2.042	2041.9	navigation	Trial2	navigation/STIM_007.jpg	100
957.125	3.18	3179.9	navigation	Trial2	navigation/STIM_008.jpg	99
963.835	2.011	2011.2	navigation	Trial2	navigation/STIM_008.jpg	100
968.993	2.421	2420.6	navigation	Trial2	navigation/STIM_008.jpg	100
974.492	1.634	1634.4	navigation	Trial2	navigation/STIM_008.jpg	99
978.28	1.238	1237.6	navigation	Trial2	navigation/STIM_008.jpg	99
982.995	1.406	1405.7	navigation	Trial2	navigation/STIM_008.jpg	99
988.27	3.657	3656.7	navigation	Trial2	navigation/STIM_009.jpg	100
995.217	3.43	3430.1	navigation	Trial2	navigation/STIM_009.jpg	100
1002.325	2.369	2368.9	navigation	Trial2	navigation/STIM_009.jpg	99
1008.618	1.898	1897.8	navigation	Trial2	navigation/STIM_009.jpg	99
1013.703	2.961	2960.8	navigation	Trial2	navigation/STIM_009.jpg	99
1019.638	1.462	1461.5	navigation	Trial2	navigation/STIM_009.jpg	99
1023.72	1.504	1503.9	navigation	Trial2	navigation/STIM_010.jpg	100
1028.733	3.136	3136.5	navigation	Trial2	navigation/STIM_010.jpg	100
1035.777	2.064	2063.7	navigation	Trial2	navigation/STIM_010.jpg	100
1041.344	1.239	1238.6	navigation	Trial2	navigation/STIM_010.jpg	100
1044.683	2.263	2262.9	navigation	Trial2	navigation/STIM_010.jpg	99
1049.309	2.521	2520.9	navigation	Trial2	navigation/STIM_010.jpg	99
1055.668	1.469	1469.4	navigation	Trial2	navigation/STIM_011.jpg	100
1059.379	3.411	3411.1	navigation	Trial2	navigation/STIM_011.jpg	99
1066.34	1.3	1299.9	navigation	Trial2	navigation/STIM_011.jpg	99
1071.172	1.751	1750.7	navigation	Trial2	navigation/STIM_011.jpg	100
1076.338	1.796	1795.6	navigation	Trial2	navigation/STIM_011.jpg	99
1080.824	2.4	2399.5	navigation	Trial2	navigation/STIM_011.jpg	99
1085.644	0.98	979.8	pointing	Trial2	pointing/STIM_000.jpg	99
1089.582	1.273	1273.4	pointing	Trial2	pointing/STIM_000.jpg	99
1093.902	1.185	1184.8	pointing	Trial2	pointing/STIM_000.jpg	99
1098.87	1.003	1002.8	pointing	Trial2	pointing/STIM_000.jpg	100
1102.016	1.152	1152.4	pointing	Trial2	pointing/STIM_000.jpg	100
1106.13	0.849	848.8	pointing	Trial2	pointing/STIM_000.jpg	100
1109.272	1.102	1101.6	pointing	Trial2	pointing/STIM_001.jpg	99
1113.501	0.932	931.8	pointing	Trial2	pointing/STIM_001.jpg	100
1118.197	1.116	1116.3	pointing	Trial2	pointing/STIM_001.jpg	99
1122.155	0.873	873.4	pointing	Trial2	pointing/STIM_001.jpg	100
1126.894	1.016	1015.8	pointing	Trial2	pointing/STIM_001.jpg	99
1130.674	0.769	769.2	pointing	Trial2	pointing/STIM_001.jpg	99
1134.738	1.251	1251.1	pointing	Trial2	pointing/STIM_002.jpg	99
1138.337	1.248	1248.5	pointing	Trial2	pointing/STIM_002.jpg	100
1141.962	1.025	1025.0	pointing	Trial2	pointing/STIM_002.jpg	100
1146.725	1.032	1031.8	pointing	Trial2	pointing/STIM_002.jpg	100
1150.29	1.234	1233.8	pointing	Trial2	pointing/STIM_002.jpg	99
1154.969	0.962	962.5	pointing	Trial2	pointing/STIM_002.jpg	99
1158.859	1.036	1036.2	pointing	Trial2	pointing/STIM_003.jpg	99
1162.221	1.029	1028.8	pointing	Trial2	pointing/STIM_003.jpg	99
1166.654	0.757	756.9	pointing	Trial2	pointing/STIM_003.jpg	100
1169.84	1.132	1132.4	pointing	Trial2	pointing/STIM_003.jpg	99
1174.875	0.93	930.2	pointing	Trial2	pointing/STIM_003.jpg	100
1178.601	0.739	739.3	pointing	Trial2	pointing/STIM_003.jpg	99
1182.304	0.911	910.7	pointing	Trial2	pointing/STIM_004.jpg	100
1185.671	0.987	986.6	pointing	Trial2	pointing/STIM_004.jpg	100
1189.351	0.84	840.1	pointing	Trial2	pointing/STIM_004.jpg	99
1192.513	0.897	896.8	pointing	Trial2	pointing/STIM_004.jpg	99
1196.21	0.712	711.7	pointing	Trial2	pointing/STIM_004.jpg	99
1200.608	1.257	1257.3	pointing	Trial2	pointing/STIM_004.jpg	99
1205.539	0.953	952.8	pointing	Trial2	pointing/STIM_005.jpg	99
1209.292	1.056	1055.7	pointing	Trial2	pointing/STIM_005.jpg	100
1214.316	0.778	778.3	pointing	Trial2	pointing/STIM_005.jpg	100
1217.949	1.042	1042.5	pointing	Trial2	pointing/STIM_005.jpg	100
1221.055	0.989	988.9	pointing	Trial2	pointing/STIM_005.jpg	99
1224.315	0.976	975.7	pointing	Trial2	pointing/STIM_005.jpg	99
1228.459	0.824	823.6	pointing	Trial2	pointing/STIM_006.jpg	100
1233.279	1.202	1202.3	pointing	Trial2	pointing/STIM_006.jpg	100
1238.135	1.01	1009.5	pointing	Trial2	pointing/STIM_006.jpg	99
1241.64	1.272	1272.3	pointing	Trial2	pointing/STIM_006.jpg	99
1246.777	1.141	1140.9	pointing	Trial2	pointing/STIM_006.jpg	100
1251.816	0.941	940.8	pointing	Trial2	pointing/STIM_006.jpg	99
1256.074	1.07	1069.8	pointing	Trial2	pointing/STIM_007.jpg	99
1261.137	0.874	873.6	pointing	Trial2	pointing/STIM_007.jpg	100
1265.593	1.149	1149.2	pointing	Trial2	pointing/STIM_007.jpg	100
1270.577	0.953	952.9	pointing	Trial2	pointing/STIM_007.jpg	99
1273.641	0.91	909.8	pointing	Trial2	pointing/STIM_007.jpg	100
1277.322	1.287	1287.3	pointing	Trial2	pointing/STIM_007.jpg	100
1280.611	1.273	1273.2	pointing	Trial2	pointing/STIM_008.jpg	99
1284.581	1.011	1011.3	pointing	Trial2	pointing/STIM_008.jpg	99
1288.623	1.066	1066.3	pointing	Trial2	pointing/STIM_008.jpg	99
1293.508	1.126	1125.6	pointing	Trial2	pointing/STIM_008.jpg	99
1297.899	0.99	989.8	pointing	Trial2	pointing/STIM_008.jpg	100
1302.443	1.011	1011.4	pointing	Trial2	pointing/STIM_008.jpg	100
1305.906	1.007	1006.8	pointing	Trial2	pointing/STIM_009.jpg	100
1310.201	0.872	872.0	pointing	Trial2	pointing/STIM_009.jpg	100
1313.33	0.751	751.1	pointing	Trial2	pointing/STIM_009.jpg	100
1316.778	1.062	1061.5	pointing	Trial2	pointing/STIM_009.jpg	100
1321.433	1.005	1004.8	pointing	Trial2	pointing/STIM_009.jpg	100
1325.118	1.18	1180.0	pointing	Trial2	pointing/STIM_009.jpg	99
1328.533	0.789	788.9	pointing	Trial2	pointing/STIM_010.jpg	100
1331.385	0.986	986.4	pointing	Trial2	pointing/STIM_010.jpg	99
1336.043	0.774	774.4	pointing	Trial2	pointing/STIM_010.jpg	99
1340.241	1.05	1049.7	pointing	Trial2	pointing/STIM_010.jpg	99
1344.104	0.773	773.4	pointing	Trial2	pointing/STIM_010.jpg	100
1347.902	0.816	815.9	pointing	Trial2	pointing/STIM_010.jpg	100
1350.89	1.118	1118.0	pointing	Trial2	pointing/STIM_011.jpg	99
1355.942	1.059	1059.0	pointing	Trial2	pointing/STIM_011.jpg	99
1360.095	0.902	901.5	pointing	Trial2	pointing/STIM_011.jpg	100
1364.078	0.692	692.3	pointing	Trial2	pointing/STIM_011.jpg	99
1367.547	0.912	912.4	pointing	Trial2	pointing/STIM_011.jpg	99
1372.069	1.114	1113.7	pointing	Trial2	pointing/STIM_011.jpg	99
1375.396	1.673	1672.7	navigation	Trial3	navigation/STIM_000.jpg	100
1380.808	1.931	1931.3	navigation	Trial3	navigation/STIM_000.jpg	99
1386.126	2.926	2925.8	navigation	Trial3	navigation/STIM_000.jpg	100
1391.628	2.536	2536.1	navigation	Trial3	navigation/STIM_000.jpg	100
1396.904	2.887	2887.0	navigation	Trial3	navigation/STIM_000.jpg	99
1403.422	1.269	1269.3	navigation	Trial3	navigation/STIM_000.jpg	100
1408.262	2.026	2025.8	navigation	Trial3	navigation/STIM_001.jpg	100
1413.392	1.622	1621.7	navigation	Trial3	navigation/STIM_001.jpg	100
1417.575	1.621	1621.4	navigation	Trial3	navigation/STIM_001.jpg	99
1423.138	1.52	1520.5	navigation	Trial3	navigation/STIM_001.jpg	99
1426.868	1.823	1823.3	navigation	Trial3	navigation/STIM_001.jpg	99
1431.882	2.944	2944.1	navigation	Trial3	navigation/STIM_001.jpg	100
1438.254	1.541	1541.0	navigation	Trial3	navigation/STIM_002.jpg	99
1442.356	1.611	1611.4	navigation	Trial3	navigation/STIM_002.jpg	99
1446.633	1.685	1685.2	navigation	Trial3	navigation/STIM_002.jpg	100
1451.76	1.806	1806.4	navigation	Trial3	navigation/STIM_002.jpg	99
1456.093	1.926	1926.0	navigation	Trial3	navigation/STIM_002.jpg	99
1461.902	1.265	1264.6	navigation	Trial3	navigation/STIM_002.jpg	99
1465.785	2.08	2080.2	navigation	Trial3	navigation/STIM_003.jpg	100
1471.657	1.942	1941.5	navigation	Trial3	navigation/STIM_003.jpg	99
1477.302	2.924	2924.1	navigation	Trial3	navigation/STIM_003.jpg	100
1482.268	2.056	2055.7	navigation	Trial3	navigation/STIM_003.jpg	100
1487.373	2.226	2226.0	navigation	Trial3	navigation/STIM_003.jpg	100
1492.819	2.654	2654.2	navigation	Trial3	navigation/STIM_003.jpg	100
1497.82	1.853	1853.1	navigation	Trial3	navigation/STIM_004.jpg	100
1501.921	2.517	2517.0	navigation	Trial3	navigation/STIM_004.jpg	99
1507.662	1.774	1773.9	navigation	Trial3	navigation/STIM_004.jpg	99
1512.997	2.014	2014.3	navigation	Trial3	navigation/STIM_004.jpg	99
1518.878	1.952	1951.6	navigation	Trial3	navigation/STIM_004.jpg	100
1524.657	2.562	2562.1	navigation	Trial3	navigation/STIM_004.jpg	100
1530.269	2.834	2834.1	navigation	Trial3	navigation/STIM_005.jpg	100
1535.247	2.27	2270.1	navigation	Trial3	navigation/STIM_005.jpg	99
1539.809	2.042	2041.9	navigation	Trial3	navigation/STIM_005.jpg	99
1544.956	2.06	2059.5	navigation	Trial3	navigation/STIM_005.jpg	99
1550.254	1.649	1649.1	navigation	Trial3	navigation/STIM_005.jpg	100
1554.79	2.055	2055.2	navigation	Trial3	navigation/STIM_005.jpg	99
1558.938	2.509	2509.2	navigation	Trial3	navigation/STIM_006.jpg	99
1564.793	2.127	2127.2	navigation	Trial3	navigation/STIM_006.jpg	99
1569.2	2.746	2745.7	navigation	Trial3	navigation/STIM_006.jpg	99
1573.999	1.333	1333.0	navigation	Trial3	navigation/STIM_006.jpg	99
1579.17	2.02	2020.4	navigation	Trial3	navigation/STIM_006.jpg	99
1584.996	1.263	1263.1	navigation	Trial3	navigation/STIM_006.jpg	100
1588.49	1.406	1406.4	navigation	Trial3	navigation/STIM_007.jpg	99
1592.909	2.532	2531.8	navigation	Trial3	navigation/STIM_007.jpg	99
1598.815	1.578	1578.4	navigation	Trial3	navigation/STIM_007.jpg	100
1602.802	1.81	1810.0	navigation	Trial3	navigation/STIM_007.jpg	99
1607.117	2.985	2985.1	navigation	Trial3	navigation/STIM_007.jpg	99
1613.541	1.914	1914.3	navigation	Trial3	navigation/STIM_007.jpg	100
1617.94	1.779	1779.4	navigation	Trial3	navigation/STIM_008.jpg	99
1622.134	1.526	1526.1	navigation	Trial3	navigation/STIM_008.jpg	99
1626.241	2.019	2018.7	navigation	Trial3	navigation/STIM_008.jpg	99
1630.479	1.545	1545.4	navigation	Trial3	navigation/STIM_008.jpg	100
1635.702	2.538	2537.9	navigation	Trial3	navigation/STIM_008.jpg	99
1641.679	2.223	2223.2	navigation	Trial3	navigation/STIM_008.jpg	100
1646.413	2.1	2099.5	navigation	Trial3	navigation/STIM_009.jpg	100
1650.895	1.447	1446.7	navigation	Trial3	navigation/STIM_009.jpg	100
1656.173	1.397	1397.1	navigation	Trial3	navigation/STIM_009.jpg	100
1660.866	2.345	2345.0	navigation	Trial3	navigation/STIM_009.jpg	100
1665.596	1.687	1687.1	navigation	Trial3	navigation/STIM_009.jpg	100
1669.656	2.54	2539.8	navigation	Trial3	navigation/STIM_009.jpg	99
1676.158	1.285	1284.6	navigation	Trial3	navigation/STIM_010.jpg	99
1680.342	2.096	2096.5	navigation	Trial3	navigation/STIM_010.jpg	100
1686.048	2.668	2667.6	navigation	Trial3	navigation/STIM_010.jpg	100
1691.537	1.487	1486.7	navigation	Trial3	navigation/STIM_010.jpg	99
1695.961	1.944	1944.1	navigation	Trial3	navigation/STIM_010.jpg	99
1701.352	2.461	2461.0	navigation	Trial3	navigation/STIM_010.jpg	99
1706.565	1.901	1901.4	navigation	Trial3	navigation/STIM_011.jpg	100
1711.923	2.619	2618.6	navigation	Trial3	navigation/STIM_011.jpg	99
1717.145	2.017	2016.6	navigation	Trial3	navigation/STIM_011.jpg	100
1722.613	1.7	1700.0	navigation	Trial3	navigation/STIM_011.jpg	99
1727.113	1.847	1847.3	navigation	Trial3	navigation/STIM_011.jpg	100
1732.291	2.571	2571.0	navigation	Trial3	navigation/STIM_011.jpg	99
1738.431	1.154	1154.1	pointing	Trial3	pointing/STIM_000.jpg	100
1741.921	1.201	1200.8	pointing	Trial3	pointing/STIM_000.jpg	99
1745.391	1.238	1238.2	pointing	Trial3	pointing/STIM_000.jpg	100
1750.085	1.29	1289.7	pointing	Trial3	pointing/STIM_000.jpg	100
1753.969	0.796	795.5	pointing	Trial3	pointing/STIM_000.jpg	100
1757.667	1.071	1070.8	pointing	Trial3	pointing/STIM_000.jpg	99
1761.675	1.097	1096.8	pointing	Trial3	pointing/STIM_001.jpg	99
1765.563	0.761	760.7	pointing	Trial3	pointing/STIM_001.jpg	99
1770.047	0.715	714.6	pointing	Trial3	pointing/STIM_001.jpg	99
1774.107	0.864	864.1	pointing	Trial3	pointing/STIM_001.jpg	100
1777.031	0.781	781.3	pointing	Trial3	pointing/STIM_001.jpg	99
1780.85	0.858	858.1	pointing	Trial3	pointing/STIM_001.jpg	99
1785.164	1.135	1134.7	pointing	Trial3	pointing/STIM_002.jpg	100
1789.136	0.73	729.8	pointing	Trial3	pointing/STIM_002.jpg	100
1793.179	0.917	916.7	pointing	Trial3	pointing/STIM_002.jpg	99
1797.247	0.738	737.6	pointing	Trial3	pointing/STIM_002.jpg	99
1801.192	0.818	818.3	pointing	Trial3	pointing/STIM_002.jpg	100
1805.55	0.904	903.8	pointing	Trial3	pointing/STIM_002.jpg	99
1810.269	1.201	1201.3	pointing	Trial3	pointing/STIM_003.jpg	99
1815.318	1.181	1180.8	pointing	Trial3	pointing/STIM_003.jpg	100
1820.368	1.14	1140.4	pointing	Trial3	pointing/STIM_003.jpg	99
1824.353	1.158	1157.6	pointing	Trial3	pointing/STIM_003.jpg	100
1828.041	0.953	953.2	pointing	Trial3	pointing/STIM_003.jpg	100
1831.519	0.98	980.2	pointing	Trial3	pointing/STIM_003.jpg	100
1835.787	1.196	1195.6	pointing	Trial3	pointing/STIM_004.jpg	99
1840.356	1.104	1104.4	pointing	Trial3	pointing/STIM_004.jpg	100
1845.077	0.708	708.3	pointing	Trial3	pointing/STIM_004.jpg	99
1848.228	0.921	920.7	pointing	Trial3	pointing/STIM_004.jpg	100
1852.85	1.113	1112.6	pointing	Trial3	pointing/STIM_004.jpg	99
1856.804	0.88	880.2	pointing	Trial3	pointing/STIM_004.jpg	99
1860.546	0.775	774.9	pointing	Trial3	pointing/STIM_005.jpg	100
1864.836	1.276	1275.5	pointing	Trial3	pointing/STIM_005.jpg	99
1869.39	1.263	1263.4	pointing	Trial3	pointing/STIM_005.jpg	100
1874.469	0.828	827.8	pointing	Trial3	pointing/STIM_005.jpg	99
1879.067	0.968	968.3	pointing	Trial3	pointing/STIM_005.jpg	100
1883.06	1.21	1209.5	pointing	Trial3	pointing/STIM_005.jpg	99
1887.084	0.823	823.2	pointing	Trial3	pointing/STIM_006.jpg	100
1890.867	0.865	865.3	pointing	Trial3	pointing/STIM_006.jpg	100
1894.168	0.765	765.1	pointing	Trial3	pointing/STIM_006.jpg	100
1898.596	0.817	816.8	pointing	Trial3	pointing/STIM_006.jpg	99
1901.615	0.829	828.7	pointing	Trial3	pointing/STIM_006.jpg	100
1904.986	1.027	1026.9	pointing	Trial3	pointing/STIM_006.jpg	100
1908.383	1.019	1018.6	pointing	Trial3	pointing/STIM_007.jpg	99
1911.691	0.8	799.6	pointing	Trial3	pointing/STIM_007.jpg	99
1915.121	0.925	925.1	pointing	Trial3	pointing/STIM_007.jpg	99
1919.174	1.13	1129.7	pointing	Trial3	pointing/STIM_007.jpg	99
1923.492	0.892	891.9	pointing	Trial3	pointing/STIM_007.jpg	99
1927.387	0.83	829.5	pointing	Trial3	pointing/STIM_007.jpg	99
1931.605	1.108	1107.8	pointing	Trial3	pointing/STIM_008.jpg	100
1935.336	0.824	823.5	pointing	Trial3	pointing/STIM_008.jpg	100
1938.699	1.062	1061.9	pointing	Trial3	pointing/STIM_008.jpg	100
1943.393	0.783	783.2	pointing	Trial3	pointing/STIM_008.jpg	99
1946.677	1.172	1171.7	pointing	Trial3	pointing/STIM_008.jpg	100
1950.446	1.195	1195.4	pointing	Trial3	pointing/STIM_008.jpg	99
1953.667	1.103	1102.9	pointing	Trial3	pointing/STIM_009.jpg	100
1958.257	1.173	1173.3	pointing	Trial3	pointing/STIM_009.jpg	100
1963.369	0.712	711.6	pointing	Trial3	pointing/STIM_009.jpg	100
1966.614	1.013	1012.9	pointing	Trial3	pointing/STIM_009.jpg	100
1971.433	1.287	1286.9	pointing	Trial3	pointing/STIM_009.jpg	100
1974.845	0.927	927.0	pointing	Trial3	pointing/STIM_009.jpg	100
1979.115	0.701	701.0	pointing	Trial3	pointing/STIM_010.jpg	99
1983.639	0.87	870.4	pointing	Trial3	pointing/STIM_010.jpg	100
1987.213	1.072	1072.4	pointing	Trial3	pointing/STIM_010.jpg	100
1991.77	1.288	1287.7	pointing	Trial3	pointing/STIM_010.jpg	100
1996.213	1.008	1007.7	pointing	Trial3	pointing/STIM_010.jpg	99
1999.557	0.739	738.7	pointing	Trial3	pointing/STIM_010.jpg	100
2003.82	0.958	957.6	pointing	Trial3	pointing/STIM_011.jpg	100
2007.555	1.148	1147.5	pointing	Trial3	pointing/STIM_011.jpg	100
2011.047	0.848	848.1	pointing	Trial3	pointing/STIM_011.jpg	99
2015.769	0.906	905.6	pointing	Trial3	pointing/STIM_011.jpg	100
2018.773	1.286	1285.8	pointing	Trial3	pointing/STIM_011.jpg	99
2022.427	0.951	950.9	pointing	Trial3	pointing/STIM_011.jpg	99
