onset	duration	accuracy_binary	trial_type	learning_stage	stimulus
0.0	2.349	0	navigation	Trial1	navigation/STIM_000.jpg
4.955	2.65	0	navigation	Trial1	navigation/STIM_000.jpg
9.923	3.814	0	navigation	Trial1	navigation/STIM_000.jpg
17.15	3.938	0	navigation	Trial1	navigation/STIM_000.jpg
24.806	2.572	1	navigation	Trial1	navigation/STIM_000.jpg
31.287	3.417	1	navigation	Trial1	navigation/STIM_000.jpg
37.757	3.294	1	navigation	Trial1	navigation/STIM_001.jpg
43.367	2.106	0	navigation	Trial1	navigation/STIM_001.jpg
47.797	3.227	0	navigation	Trial1	navigation/STIM_001.jpg
54.034	2.767	1	navigation	Trial1	navigation/STIM_001.jpg
59.235	2.06	0	navigation	Trial1	navigation/STIM_001.jpg
63.714	2.15	1	navigation	Trial1	navigation/STIM_001.jpg
69.738	1.942	1	navigation	Trial1	navigation/STIM_002.jpg
74.175	3.121	1	navigation	Trial1	navigation/STIM_002.jpg
79.614	3.394	0	navigation	Trial1	navigation/STIM_002.jpg
85.647	3.169	1	navigation	Trial1	navigation/STIM_002.jpg
91.885	2.3	0	navigation	Trial1	navigation/STIM_002.jpg
96.825	2.559	1	navigation	Trial1	navigation/STIM_002.jpg
102.77	4.45	1	navigation	Trial1	navigation/STIM_003.jpg
110.521	2.5	1	navigation	Trial1	navigation/STIM_003.jpg
116.841	2.613	0	navigation	Trial1	navigation/STIM_003.jpg
121.941	3.322	1	navigation	Trial1	navigation/STIM_003.jpg
128.122	2.062	1	navigation	Trial1	navigation/STIM_003.jpg
133.119	2.233	1	navigation	Trial1	navigation/STIM_003.jpg
137.549	3.155	1	navigation	Trial1	navigation/STIM_004.jpg
144.175	1.819	1	navigation	Trial1	navigation/STIM_004.jpg
148.226	2.048	1	navigation	Trial1	navigation/STIM_004.jpg
153.52	2.805	1	navigation	Trial1	navigation/STIM_004.jpg
159.813	1.753	0	navigation	Trial1	navigation/STIM_004.jpg
165.314	1.421	1	navigation	Trial1	navigation/STIM_004.jpg
170.455	3.521	0	navigation	Trial1	navigation/STIM_005.jpg
176.939	3.578	1	navigation	Trial1	navigation/STIM_005.jpg
182.964	2.241	0	navigation	Trial1	navigation/STIM_005.jpg
189.165	2.118	1	navigation	Trial1	navigation/STIM_005.jpg
193.773	2.802	1	navigation	Trial1	navigation/STIM_005.jpg
199.935	1.584	1	navigation	Trial1	navigation/STIM_005.jpg
204.383	3.477	0	navigation	Trial1	navigation/STIM_006.jpg
211.534	4.182	1	navigation	Trial1	navigation/STIM_006.jpg
219.632	2.138	1	navigation	Trial1	navigation/STIM_006.jpg
225.302	1.678	0	navigation	Trial1	navigation/STIM_006.jpg
229.88	2.682	1	navigation	Trial1	navigation/STIM_006.jpg
234.646	3.484	1	navigation	Trial1	navigation/STIM_006.jpg
241.805	3.637	1	navigation	Trial1	navigation/STIM_007.jpg
249.048	2.883	0	navigation	Trial1	navigation/STIM_007.jpg
255.7	2.494	1	navigation	Trial1	navigation/STIM_007.jpg
260.968	3.262	1	navigation	Trial1	navigation/STIM_007.jpg
267.734	2.049	1	navigation	Trial1	navigation/STIM_007.jpg
271.888	3.17	0	navigation	Trial1	navigation/STIM_007.jpg
277.895	2.442	1	navigation	Trial1	navigation/STIM_008.jpg
282.822	2.056	1	navigation	Trial1	navigation/STIM_008.jpg
288.658	3.109	1	navigation	Trial1	navigation/STIM_008.jpg
294.83	1.765	1	navigation	Trial1	navigation/STIM_008.jpg
299.211	3.636	0	navigation	Trial1	navigation/STIM_008.jpg
305.344	2.914	0	navigation	Trial1	navigation/STIM_008.jpg
311.747	3.547	0	navigation	Trial1	navigation/STIM_009.jpg
318.122	2.356	0	navigation	Trial1	navigation/STIM_009.jpg
323.929	2.622	0	navigation	Trial1	navigation/STIM_009.jpg
329.751	3.696	0	navigation	Trial1	navigation/STIM_009.jpg
336.575	2.907	1	navigation	Trial1	navigation/STIM_009.jpg
342.5	2.568	1	navigation	Trial1	navigation/STIM_009.jpg
348.792	1.986	0	navigation	Trial1	navigation/STIM_010.jpg
353.578	2.661	1	navigation	Trial1	navigation/STIM_010.jpg
359.501	4.177	1	navigation	Trial1	navigation/STIM_010.jpg
365.792	2.486	1	navigation	Trial1	navigation/STIM_010.jpg
370.312	3.213	1	navigation	Trial1	navigation/STIM_010.jpg
375.891	2.635	1	navigation	Trial1	navigation/STIM_010.jpg
381.508	3.572	0	navigation	Trial1	navigation/STIM_011.jpg
388.843	2.215	0	navigation	Trial1	navigation/STIM_011.jpg
394.751	2.743	1	navigation	Trial1	navigation/STIM_011.jpg
399.629	3.014	1	navigation	Trial1	navigation/STIM_011.jpg
406.087	2.817	1	navigation	Trial1	navigation/STIM_011.jpg
410.972	1.977	1	navigation	Trial1	navigation/STIM_011.jpg
415.383	0.806	1	pointing	Trial1	pointing/STIM_000.jpg
420.101	0.981	1	pointing	Trial1	pointing/STIM_000.jpg
423.478	0.924	0	pointing	Trial1	pointing/STIM_000.jpg
426.763	1.067	1	pointing	Trial1	pointing/STIM_000.jpg
430.621	0.872	1	pointing	Trial1	pointing/STIM_000.jpg
433.77	0.937	1	pointing	Trial1	pointing/STIM_000.jpg
437.45	1.13	1	pointing	Trial1	pointing/STIM_001.jpg
441.726	0.756	1	pointing	Trial1	pointing/STIM_001.jpg
444.887	0.826	1	pointing	Trial1	pointing/STIM_001.jpg
447.793	1.399	1	pointing	Trial1	pointing/STIM_001.jpg
451.867	1.32	1	pointing	Trial1	pointing/STIM_001.jpg
456.165	1.191	1	pointing	Trial1	pointing/STIM_001.jpg
460.455	1.053	1	pointing	Trial1	pointing/STIM_002.jpg
465.048	0.76	1	pointing	Trial1	pointing/STIM_002.jpg
467.976	1.199	1	pointing	Trial1	pointing/STIM_002.jpg
472.936	0.83	1	pointing	Trial1	pointing/STIM_002.jpg
476.094	1.243	1	pointing	Trial1	pointing/STIM_002.jpg
480.033	1.312	1	pointing	Trial1	pointing/STIM_002.jpg
484.214	0.776	1	pointing	Trial1	pointing/STIM_003.jpg
487.893	0.805	1	pointing	Trial1	pointing/STIM_003.jpg
490.848	1.1	1	pointing	Trial1	pointing/STIM_003.jpg
494.17	1.233	1	pointing	Trial1	pointing/STIM_003.jpg
498.003	1.225	1	pointing	Trial1	pointing/STIM_003.jpg
502.044	1.338	1	pointing	Trial1	pointing/STIM_003.jpg
506.559	1.296	1	pointing	Trial1	pointing/STIM_004.jpg
509.99	0.782	1	pointing	Trial1	pointing/STIM_004.jpg
514.771	0.849	1	pointing	Trial1	pointing/STIM_004.jpg
519.005	1.215	1	pointing	Trial1	pointing/STIM_004.jpg
524.135	0.978	1	pointing	Trial1	pointing/STIM_004.jpg
527.169	1.403	1	pointing	Trial1	pointing/STIM_004.jpg
531.348	0.909	1	pointing	Trial1	pointing/STIM_005.jpg
535.68	0.887	1	pointing	Trial1	pointing/STIM_005.jpg
539.894	1.318	0	pointing	Trial1	pointing/STIM_005.jpg
545.152	1.185	1	pointing	Trial1	pointing/STIM_005.jpg
548.403	0.886	1	pointing	Trial1	pointing/STIM_005.jpg
551.703	1.243	1	pointing	Trial1	pointing/STIM_005.jpg
555.945	0.913	1	pointing	Trial1	pointing/STIM_006.jpg
559.364	1.104	1	pointing	Trial1	pointing/STIM_006.jpg
563.931	1.386	0	pointing	Trial1	pointing/STIM_006.jpg
567.41	0.932	1	pointing	Trial1	pointing/STIM_006.jpg
570.532	1.402	1	pointing	Trial1	pointing/STIM_006.jpg
575.674	1.336	1	pointing	Trial1	pointing/STIM_006.jpg
580.2	1.167	1	pointing	Trial1	pointing/STIM_007.jpg
584.06	0.958	1	pointing	Trial1	pointing/STIM_007.jpg
587.093	1.208	1	pointing	Trial1	pointing/STIM_007.jpg
591.528	1.021	1	pointing	Trial1	pointing/STIM_007.jpg
596.296	0.797	1	pointing	Trial1	pointing/STIM_007.jpg
599.929	1.013	1	pointing	Trial1	pointing/STIM_007.jpg
602.979	1.1	1	pointing	Trial1	pointing/STIM_008.jpg
607.78	1.162	1	pointing	Trial1	pointing/STIM_008.jpg
612.625	1.168	1	pointing	Trial1	pointing/STIM_008.jpg
616.904	0.879	1	pointing	Trial1	pointing/STIM_008.jpg
621.222	1.235	1	pointing	Trial1	pointing/STIM_008.jpg
625.333	1.407	1	pointing	Trial1	pointing/STIM_008.jpg
629.463	0.951	1	pointing	Trial1	pointing/STIM_009.jpg
634.325	0.782	1	pointing	Trial1	pointing/STIM_009.jpg
638.634	1.111	0	pointing	Trial1	pointing/STIM_009.jpg
642.162	1.208	1	pointing	Trial1	pointing/STIM_009.jpg
646.515	1.162	1	pointing	Trial1	pointing/STIM_009.jpg
650.413	1.183	1	pointing	Trial1	pointing/STIM_009.jpg
654.389	1.057	1	pointing	Trial1	pointing/STIM_010.jpg
658.983	0.94	1	pointing	Trial1	pointing/STIM_010.jpg
663.792	1.33	1	pointing	Trial1	pointing/STIM_010.jpg
667.907	1.39	1	pointing	Trial1	pointing/STIM_010.jpg
672.89	1.362	1	pointing	Trial1	pointing/STIM_010.jpg
677.592	0.923	1	pointing	Trial1	pointing/STIM_010.jpg
681.8	1.237	1	pointing	Trial1	pointing/STIM_011.jpg
687.017	1.24	1	pointing	Trial1	pointing/STIM_011.jpg
691.386	0.922	1	pointing	Trial1	pointing/STIM_011.jpg
695.706	0.853	1	pointing	Trial1	pointing/STIM_011.jpg
698.627	1.007	1	pointing	Trial1	pointing/STIM_011.jpg
702.927	0.921	1	pointing	Trial1	pointing/STIM_011.jpg
707.188	2.232	1	navigation	Trial2	navigation/STIM_000.jpg
712.76	2.734	1	navigation	Trial2	navigation/STIM_000.jpg
717.626	2.614	1	navigation	Trial2	navigation/STIM_000.jpg
723.259	3.148	1	navigation	Trial2	navigation/STIM_000.jpg
729.662	1.399	1	navigation	Trial2	navigation/STIM_000.jpg
734.36	2.057	1	navigation	Trial2	navigation/STIM_000.jpg
739.476	3.626	1	navigation	Trial2	navigation/STIM_001.jpg
746.867	2.335	1	navigation	Trial2	navigation/STIM_001.jpg
751.444	1.827	1	navigation	Trial2	navigation/STIM_001.jpg
755.809	3.026	1	navigation	Trial2	navigation/STIM_001.jpg
762.133	2.05	1	navigation	Trial2	navigation/STIM_001.jpg
767.632	1.494	1	navigation	Trial2	navigation/STIM_001.jpg
771.465	2.332	1	navigation	Trial2	navigation/STIM_002.jpg
776.187	1.99	1	navigation	Trial2	navigation/STIM_002.jpg
781.638	2.283	0	navigation	Trial2	navigation/STIM_002.jpg
786.481	3.174	1	navigation	Trial2	navigation/STIM_002.jpg
793.504	2.181	1	navigation	Trial2	navigation/STIM_002.jpg
798.646	3.21	1	navigation	Trial2	navigation/STIM_002.jpg
803.973	3.275	1	navigation	Trial2	navigation/STIM_003.jpg
810.693	3.004	0	navigation	Trial2	navigation/STIM_003.jpg
817.383	1.629	1	navigation	Trial2	navigation/STIM_003.jpg
822.368	2.099	1	navigation	Trial2	navigation/STIM_003.jpg
827.163	1.581	0	navigation	Trial2	navigation/STIM_003.jpg
832.402	2.858	1	navigation	Trial2	navigation/STIM_003.jpg
837.308	1.995	0	navigation	Trial2	navigation/STIM_004.jpg
841.407	3.57	1	navigation	Trial2	navigation/STIM_004.jpg
848.096	1.76	1	navigation	Trial2	navigation/STIM_004.jpg
852.609	2.916	1	navigation	Trial2	navigation/STIM_004.jpg
857.666	2.21	1	navigation	Trial2	navigation/STIM_004.jpg
861.993	3.029	1	navigation	Trial2	navigation/STIM_004.jpg
867.729	1.685	1	navigation	Trial2	navigation/STIM_005.jpg
872.447	3.302	1	navigation	Trial2	navigation/STIM_005.jpg
878.161	3.481	0	navigation	Trial2	navigation/STIM_005.jpg
883.692	2.433	1	navigation	Trial2	navigation/STIM_005.jpg
889.718	1.851	1	navigation	Trial2	navigation/STIM_005.jpg
894.513	3.024	0	navigation	Trial2	navigation/STIM_005.jpg
900.568	1.944	1	navigation	Trial2	navigation/STIM_006.jpg
904.841	2.09	1	navigation	Trial2	navigation/STIM_006.jpg
909.731	3.395	1	navigation	Trial2	navigation/STIM_006.jpg
915.676	1.512	1	navigation	Trial2	navigation/STIM_006.jpg
919.666	3.092	0	navigation	Trial2	navigation/STIM_006.jpg
926.518	2.176	1	navigation	Trial2	navigation/STIM_006.jpg
932.536	2.673	1	navigation	Trial2	navigation/STIM_007.jpg
938.457	2.167	1	navigation	Trial2	navigation/STIM_007.jpg
944.175	2.893	1	navigation	Trial2	navigation/STIM_007.jpg
949.775	2.398	1	navigation	Trial2	navigation/STIM_007.jpg
954.267	1.868	1	navigation	Trial2	navigation/STIM_007.jpg
959.361	2.118	1	navigation	Trial2	navigation/STIM_007.jpg
964.785	2.144	1	navigation	Trial2	navigation/STIM_008.jpg
968.956	3.336	1	navigation	Trial2	navigation/STIM_008.jpg
976.07	3.367	1	navigation	Trial2	navigation/STIM_008.jpg
981.728	1.635	1	navigation	Trial2	navigation/STIM_008.jpg
986.305	1.396	1	navigation	Trial2	navigation/STIM_008.jpg
989.729	3.091	1	navigation	Trial2	navigation/STIM_008.jpg
995.836	1.739	1	navigation	Trial2	navigation/STIM_009.jpg
1000.004	2.925	1	navigation	Trial2	navigation/STIM_009.jpg
1006.656	3.063	0	navigation	Trial2	navigation/STIM_009.jpg
1013.205	2.315	1	navigation	Trial2	navigation/STIM_009.jpg
1018.748	2.113	1	navigation	Trial2	navigation/STIM_009.jpg
1023.869	1.954	1	navigation	Trial2	navigation/STIM_009.jpg
1029.077	2.789	1	navigation	Trial2	navigation/STIM_010.jpg
1033.905	3.584	1	navigation	Trial2	navigation/STIM_010.jpg
1040.439	1.689	1	navigation	Trial2	navigation/STIM_010.jpg
1045.894	3.242	1	navigation	Trial2	navigation/STIM_010.jpg
1051.954	1.715	1	navigation	Trial2	navigation/STIM_010.jpg
1056.188	2.68	1	navigation	Trial2	navigation/STIM_010.jpg
1061.208	3.95	1	navigation	Trial2	navigation/STIM_011.jpg
1069.016	3.369	1	navigation	Trial2	navigation/STIM_011.jpg
1074.689	1.677	1	navigation	Trial2	navigation/STIM_011.jpg
1079.382	3.108	0	navigation	Trial2	navigation/STIM_011.jpg
1086.219	1.575	1	navigation	Trial2	navigation/STIM_011.jpg
1091.591	2.05	0	navigation	Trial2	navigation/STIM_011.jpg
1097.187	1.326	1	pointing	Trial2	pointing/STIM_000.jpg
1101.179	1.185	1	pointing	Trial2	pointing/STIM_000.jpg
1105.938	1.109	0	pointing	Trial2	pointing/STIM_000.jpg
1110.111	1.406	1	pointing	Trial2	pointing/STIM_000.jpg
1114.054	0.969	1	pointing	Trial2	pointing/STIM_000.jpg
1117.216	1.219	1	pointing	Trial2	pointing/STIM_000.jpg
1120.451	1.082	1	pointing	Trial2	pointing/STIM_001.jpg
1124.284	1.176	1	pointing	Trial2	pointing/STIM_001.jpg
1128.78	1.105	1	pointing	Trial2	pointing/STIM_001.jpg
1133.169	0.77	1	pointing	Trial2	pointing/STIM_001.jpg
1136.696	1.199	1	pointing	Trial2	pointing/STIM_001.jpg
1141.641	1.182	1	pointing	Trial2	pointing/STIM_001.jpg
1144.969	0.916	1	pointing	Trial2	pointing/STIM_002.jpg
1149.53	0.9	1	pointing	Trial2	pointing/STIM_002.jpg
1152.971	1.113	1	pointing	Trial2	pointing/STIM_002.jpg
1156.488	0.963	1	pointing	Trial2	pointing/STIM_002.jpg
1159.881	0.788	1	pointing	Trial2	pointing/STIM_002.jpg
1164.488	0.774	1	pointing	Trial2	pointing/STIM_002.jpg
1167.923	1.373	1	pointing	Trial2	pointing/STIM_003.jpg
1171.85	1.035	1	pointing	Trial2	pointing/STIM_003.jpg
1176.844	0.822	1	pointing	Trial2	pointing/STIM_003.jpg
1181.133	1.328	1	pointing	Trial2	pointing/STIM_003.jpg
1185.08	0.961	1	pointing	Trial2	pointing/STIM_003.jpg
1189.679	0.906	1	pointing	Trial2	pointing/STIM_003.jpg
1193.491	1.388	1	pointing	Trial2	pointing/STIM_004.jpg
1197.466	0.839	1	pointing	Trial2	pointing/STIM_004.jpg
1200.49	0.965	1	pointing	Trial2	pointing/STIM_004.jpg
1204.442	1.199	1	pointing	Trial2	pointing/STIM_004.jpg
1208.213	0.798	1	pointing	Trial2	pointing/STIM_004.jpg
1211.861	1.113	1	pointing	Trial2	pointing/STIM_004.jpg
1216.872	1.329	1	pointing	Trial2	pointing/STIM_005.jpg
1221.572	1.126	1	pointing	Trial2	pointing/STIM_005.jpg
1226.354	1.4	1	pointing	Trial2	pointing/STIM_005.jpg
1229.78	1.229	1	pointing	Trial2	pointing/STIM_005.jpg
1233.912	1.341	1	pointing	Trial2	pointing/STIM_005.jpg
1237.583	1.39	0	pointing	Trial2	pointing/STIM_005.jpg
1241.585	1.09	1	pointing	Trial2	pointing/STIM_006.jpg
1245.06	0.829	1	pointing	Trial2	pointing/STIM_006.jpg
1248.893	1.263	1	pointing	Trial2	pointing/STIM_006.jpg
1253.864	1.23	1	pointing	Trial2	pointing/STIM_006.jpg
1258.536	1.163	1	pointing	Trial2	pointing/STIM_006.jpg
1262.163	0.851	1	pointing	Trial2	pointing/STIM_006.jpg
1266.418	0.864	1	pointing	Trial2	pointing/STIM_007.jpg
1271.025	1.371	1	pointing	Trial2	pointing/STIM_007.jpg
1274.777	0.794	1	pointing	Trial2	pointing/STIM_007.jpg
1278.84	1.36	1	pointing	Trial2	pointing/STIM_007.jpg
1282.71	0.914	1	pointing	Trial2	pointing/STIM_007.jpg
1287.003	0.867	0	pointing	Trial2	pointing/STIM_007.jpg
1291.316	0.842	1	pointing	Trial2	pointing/STIM_008.jpg
1296.113	1.091	0	pointing	Trial2	pointing/STIM_008.jpg
1300.547	0.871	1	pointing	Trial2	pointing/STIM_008.jpg
1304.839	0.849	1	pointing	Trial2	pointing/STIM_008.jpg
1309.347	1.193	1	pointing	Trial2	pointing/STIM_008.jpg
1313.187	1.35	1	pointing	Trial2	pointing/STIM_008.jpg
1317.671	0.842	1	pointing	Trial2	pointing/STIM_009.jpg
1321.675	1.058	1	pointing	Trial2	pointing/STIM_009.jpg
1325.017	1.393	1	pointing	Trial2	pointing/STIM_009.jpg
1330.234	1.166	1	pointing	Trial2	pointing/STIM_009.jpg
1333.817	1.174	1	pointing	Trial2	pointing/STIM_009.jpg
1337.231	1.309	1	pointing	Trial2	pointing/STIM_009.jpg
1341.338	1.155	1	pointing	Trial2	pointing/STIM_010.jpg
1345.181	1.05	1	pointing	Trial2	pointing/STIM_010.jpg
1348.688	0.815	1	pointing	Trial2	pointing/STIM_010.jpg
1352.966	0.923	1	pointing	Trial2	pointing/STIM_010.jpg
1357.871	1.219	1	pointing	Trial2	pointing/STIM_010.jpg
1362.513	1.037	1	pointing	Trial2	pointing/STIM_010.jpg
1366.874	0.945	1	pointing	Trial2	pointing/STIM_011.jpg
1370.115	1.264	1	pointing	Trial2	pointing/STIM_011.jpg
1375.206	0.993	1	pointing	Trial2	pointing/STIM_011.jpg
1379.692	0.957	0	pointing	Trial2	pointing/STIM_011.jpg
1384.36	0.914	0	pointing	Trial2	pointing/STIM_011.jpg
1388.977	0.782	1	pointing	Trial2	pointing/STIM_011.jpg
1392.613	3.056	1	navigation	Trial3	navigation/STIM_000.jpg
1399.567	3.211	1	navigation	Trial3	navigation/STIM_000.jpg
1405.968	2.223	1	navigation	Trial3	navigation/STIM_000.jpg
1410.604	1.384	1	navigation	Trial3	navigation/STIM_000.jpg
1414.474	2.969	1	navigation	Trial3	navigation/STIM_000.jpg
1421.143	2.169	1	navigation	Trial3	navigation/STIM_000.jpg
1426.554	3.143	1	navigation	Trial3	navigation/STIM_001.jpg
1433.395	2.999	1	navigation	Trial3	navigation/STIM_001.jpg
1439.065	1.606	1	navigation	Trial3	navigation/STIM_001.jpg
1444.536	3.118	1	navigation	Trial3	navigation/STIM_001.jpg
1450.3	1.363	1	navigation	Trial3	navigation/STIM_001.jpg
1453.962	2.499	1	navigation	Trial3	navigation/STIM_001.jpg
1458.608	2.958	0	navigation	Trial3	navigation/STIM_002.jpg
1465.124	2.279	1	navigation	Trial3	navigation/STIM_002.jpg
1470.798	2.094	1	navigation	Trial3	navigation/STIM_002.jpg
1475.403	2.016	1	navigation	Trial3	navigation/STIM_002.jpg
1479.579	1.524	1	navigation	Trial3	navigation/STIM_002.jpg
1484.404	2.491	1	navigation	Trial3	navigation/STIM_002.jpg
1490.149	1.684	1	navigation	Trial3	navigation/STIM_003.jpg
1495.425	2.434	1	navigation	Trial3	navigation/STIM_003.jpg
1501.489	3.25	1	navigation	Trial3	navigation/STIM_003.jpg
1508.291	2.273	1	navigation	Trial3	navigation/STIM_003.jpg
1512.971	2.992	1	navigation	Trial3	navigation/STIM_003.jpg
1518.791	1.77	1	navigation	Trial3	navigation/STIM_003.jpg
1523.063	2.156	1	navigation	Trial3	navigation/STIM_004.jpg
1528.725	1.623	1	navigation	Trial3	navigation/STIM_004.jpg
1533.469	2.766	1	navigation	Trial3	navigation/STIM_004.jpg
1538.281	2.215	0	navigation	Trial3	navigation/STIM_004.jpg
1543.63	1.808	1	navigation	Trial3	navigation/STIM_004.jpg
1547.916	2.684	1	navigation	Trial3	navigation/STIM_004.jpg
1552.957	2.946	1	navigation	Trial3	navigation/STIM_005.jpg
1559.756	2.934	1	navigation	Trial3	navigation/STIM_005.jpg
1564.726	2.319	0	navigation	Trial3	navigation/STIM_005.jpg
1569.833	2.73	1	navigation	Trial3	navigation/STIM_005.jpg
1574.883	2.838	1	navigation	Trial3	navigation/STIM_005.jpg
1580.585	2.901	0	navigation	Trial3	navigation/STIM_005.jpg
1586.809	2.949	1	navigation	Trial3	navigation/STIM_006.jpg
1592.277	2.026	1	navigation	Trial3	navigation/STIM_006.jpg
1596.382	1.81	1	navigation	Trial3	navigation/STIM_006.jpg
1601.566	1.52	1	navigation	Trial3	navigation/STIM_006.jpg
1605.301	2.023	1	navigation	Trial3	navigation/STIM_006.jpg
1609.501	2.064	1	navigation	Trial3	navigation/STIM_006.jpg
1614.411	2.223	1	navigation	Trial3	navigation/STIM_007.jpg
1619.834	1.668	1	navigation	Trial3	navigation/STIM_007.jpg
1624.224	1.713	1	navigation	Trial3	navigation/STIM_007.jpg
1628.767	2.347	1	navigation	Trial3	navigation/STIM_007.jpg
1633.44	2.293	1	navigation	Trial3	navigation/STIM_007.jpg
1638.581	3.264	1	navigation	Trial3	navigation/STIM_007.jpg
1643.949	2.444	0	navigation	Trial3	navigation/STIM_008.jpg
1650.146	2.389	1	navigation	Trial3	navigation/STIM_008.jpg
1654.783	2.321	1	navigation	Trial3	navigation/STIM_008.jpg
1660.213	1.538	1	navigation	Trial3	navigation/STIM_008.jpg
1665.516	1.953	1	navigation	Trial3	navigation/STIM_008.jpg
1670.623	2.203	1	navigation	Trial3	navigation/STIM_008.jpg
1675.569	1.449	1	navigation	Trial3	navigation/STIM_009.jpg
1679.606	1.449	1	navigation	Trial3	navigation/STIM_009.jpg
1683.617	3.224	1	navigation	Trial3	navigation/STIM_009.jpg
1690.241	2.458	1	navigation	Trial3	navigation/STIM_009.jpg
1695.531	1.326	1	navigation	Trial3	navigation/STIM_009.jpg
1699.769	2.097	1	navigation	Trial3	navigation/STIM_009.jpg
1705.238	1.585	0	navigation	Trial3	navigation/STIM_010.jpg
1709.624	2.91	0	navigation	Trial3	navigation/STIM_010.jpg
1715.544	3.088	1	navigation	Trial3	navigation/STIM_010.jpg
1721.268	1.844	1	navigation	Trial3	navigation/STIM_010.jpg
1726.516	1.9	1	navigation	Trial3	navigation/STIM_010.jpg
1730.777	3.283	1	navigation	Trial3	navigation/STIM_010.jpg
1736.475	2.011	1	navigation	Trial3	navigation/STIM_011.jpg
1741.624	2.42	1	navigation	Trial3	navigation/STIM_011.jpg
1747.536	2.794	0	navigation	Trial3	navigation/STIM_011.jpg
1753.657	1.621	1	navigation	Trial3	navigation/STIM_011.jpg
1758.729	1.324	1	navigation	Trial3	navigation/STIM_011.jpg
1763.058	2.024	1	navigation	Trial3	navigation/STIM_011.jpg
1767.905	1.197	0	pointing	Trial3	pointing/STIM_000.jpg
1771.733	0.87	1	pointing	Trial3	pointing/STIM_000.jpg
1776.581	1.278	1	pointing	Trial3	pointing/STIM_000.jpg
1781.546	0.872	1	pointing	Trial3	pointing/STIM_000.jpg
1785.741	0.8	1	pointing	Trial3	pointing/STIM_000.jpg
1790.25	0.907	1	pointing	Trial3	pointing/STIM_000.jpg
1793.761	0.814	1	pointing	Trial3	pointing/STIM_001.jpg
1798.011	1.219	1	pointing	Trial3	pointing/STIM_001.jpg
1802.744	0.759	1	pointing	Trial3	pointing/STIM_001.jpg
1806.945	0.885	1	pointing	Trial3	pointing/STIM_001.jpg
1811.499	1.05	1	pointing	Trial3	pointing/STIM_001.jpg
1815.937	1.288	1	pointing	Trial3	pointing/STIM_001.jpg
1819.825	0.969	1	pointing	Trial3	pointing/STIM_002.jpg
1823.176	1.129	1	pointing	Trial3	pointing/STIM_002.jpg
1827.581	1.35	1	pointing	Trial3	pointing/STIM_002.jpg
1831.085	1.35	1	pointing	Trial3	pointing/STIM_002.jpg
1835.839	1.39	1	pointing	Trial3	pointing/STIM_002.jpg
1839.478	0.986	1	pointing	Trial3	pointing/STIM_002.jpg
1842.652	0.81	1	pointing	Trial3	pointing/STIM_003.jpg
1846.708	1.252	1	pointing	Trial3	pointing/STIM_003.jpg
1851.378	1.275	1	pointing	Trial3	pointing/STIM_003.jpg
1856.074	0.99	1	pointing	Trial3	pointing/STIM_003.jpg
1859.442	0.778	0	pointing	Trial3	pointing/STIM_003.jpg
1862.812	1.156	1	pointing	Trial3	pointing/STIM_003.jpg
1866.051	1.126	1	pointing	Trial3	pointing/STIM_004.jpg
1869.321	1.18	1	pointing	Trial3	pointing/STIM_004.jpg
1873.99	1.228	1	pointing	Trial3	pointing/STIM_004.jpg
1877.998	1.191	1	pointing	Trial3	pointing/STIM_004.jpg
1882.342	1.319	1	pointing	Trial3	pointing/STIM_004.jpg
1885.866	1.011	1	pointing	Trial3	pointing/STIM_004.jpg
1889.401	0.945	1	pointing	Trial3	pointing/STIM_005.jpg
1893.335	1.327	1	pointing	Trial3	pointing/STIM_005.jpg
1897.515	1.048	0	pointing	Trial3	pointing/STIM_005.jpg
1901.489	1.309	1	pointing	Trial3	pointing/STIM_005.jpg
1906.077	0.989	1	pointing	Trial3	pointing/STIM_005.jpg
1909.653	1.099	1	pointing	Trial3	pointing/STIM_005.jpg
1914.574	0.821	1	pointing	Trial3	pointing/STIM_006.jpg
1917.604	1.217	1	pointing	Trial3	pointing/STIM_006.jpg
1921.85	0.962	1	pointing	Trial3	pointing/STIM_006.jpg
1924.903	1.231	1	pointing	Trial3	pointing/STIM_006.jpg
1930.058	1.063	1	pointing	Trial3	pointing/STIM_006.jpg
1934.201	1.094	1	pointing	Trial3	pointing/STIM_006.jpg
1939.005	0.785	1	pointing	Trial3	pointing/STIM_007.jpg
1942.421	1.202	1	pointing	Trial3	pointing/STIM_007.jpg
1945.73	0.792	1	pointing	Trial3	pointing/STIM_007.jpg
1949.198	1.118	0	pointing	Trial3	pointing/STIM_007.jpg
1953.952	0.792	1	pointing	Trial3	pointing/STIM_007.jpg
1957.293	0.899	1	pointing	Trial3	pointing/STIM_007.jpg
1961.193	0.96	1	pointing	Trial3	pointing/STIM_008.jpg
1965.586	1.306	1	pointing	Trial3	pointing/STIM_008.jpg
1970.811	1.139	1	pointing	Trial3	pointing/STIM_008.jpg
1975.427	1.106	1	pointing	Trial3	pointing/STIM_008.jpg
1978.538	0.758	1	pointing	Trial3	pointing/STIM_008.jpg
1982.285	1.253	1	pointing	Trial3	pointing/STIM_008.jpg
1986.082	1.169	1	pointing	Trial3	pointing/STIM_009.jpg
1989.33	0.938	1	pointing	Trial3	pointing/STIM_009.jpg
1992.611	1.252	1	pointing	Trial3	pointing/STIM_009.jpg
1997.752	1.055	1	pointing	Trial3	pointing/STIM_009.jpg
2002.022	1.082	1	pointing	Trial3	pointing/STIM_009.jpg
2006.344	1.299	1	pointing	Trial3	pointing/STIM_009.jpg
2011.031	0.803	1	pointing	Trial3	pointing/STIM_010.jpg
2014.645	1.14	1	pointing	Trial3	pointing/STIM_010.jpg
2019.627	1.327	1	pointing	Trial3	pointing/STIM_010.jpg
2023.586	0.839	0	pointing	Trial3	pointing/STIM_010.jpg
2027.281	1.015	1	pointing	Trial3	pointing/STIM_010.jpg
2031.896	0.907	1	pointing	Trial3	pointing/STIM_010.jpg
2035.486	1.334	1	pointing	Trial3	pointing/STIM_011.jpg
2039.451	1.314	1	pointing	Trial3	pointing/STIM_011.jpg
2043.264	1.06	1	pointing	Trial3	pointing/STIM_011.jpg
2048.238	0.948	1	pointing	Trial3	pointing/STIM_011.jpg
2052.746	0.796	1	pointing	Trial3	pointing/STIM_011.jpg
2056.086	0.804	1	pointing	Trial3	pointing/STIM_011.jpg
