onset	duration	accuracy	trial_type	learning_stage	stimulus
0.0	4.927	incorrect	navigation	Trial1	navigation/STIM_000.jpg
8.043	2.182	incorrect	navigation	Trial1	navigation/STIM_000.jpg
13.594	3.65	incorrect	navigation	Trial1	navigation/STIM_000.jpg
21.167	3.608	incorrect	navigation	Trial1	navigation/STIM_000.jpg
27.899	2.675	correct	navigation	Trial1	navigation/STIM_000.jpg
34.522	2.868	correct	navigation	Trial1	navigation/STIM_000.jpg
40.9	3.778	correct	navigation	Trial1	navigation/STIM_001.jpg
47.924	4.369	incorrect	navigation	Trial1	navigation/STIM_001.jpg
54.908	3.353	incorrect	navigation	Trial1	navigation/STIM_001.jpg
61.832	3.389	correct	navigation	Trial1	navigation/STIM_001.jpg
68.307	1.709	incorrect	navigation	Trial1	navigation/STIM_001.jpg
72.169	3.766	correct	navigation	Trial1	navigation/STIM_001.jpg
78.748	2.542	correct	navigation	Trial1	navigation/STIM_002.jpg
83.3	3.901	correct	navigation	Trial1	navigation/STIM_002.jpg
90.616	2.592	correct	navigation	Trial1	navigation/STIM_002.jpg
95.855	2.215	correct	navigation	Trial1	navigation/STIM_002.jpg
100.304	2.396	incorrect	navigation	Trial1	navigation/STIM_002.jpg
106.297	3.475	correct	navigation	Trial1	navigation/STIM_002.jpg
112.389	4.505	correct	navigation	Trial1	navigation/STIM_003.jpg
120.314	2.071	correct	navigation	Trial1	navigation/STIM_003.jpg
125.651	4.102	incorrect	navigation	Trial1	navigation/STIM_003.jpg
133.424	4.245	correct	navigation	Trial1	navigation/STIM_003.jpg
140.421	2.651	correct	navigation	Trial1	navigation/STIM_003.jpg
145.677	2.676	correct	navigation	Trial1	navigation/STIM_003.jpg
150.698	2.908	correct	navigation	Trial1	navigation/STIM_004.jpg
157.187	2.12	correct	navigation	Trial1	navigation/STIM_004.jpg
163.175	4.404	correct	navigation	Trial1	navigation/STIM_004.jpg
170.563	2.689	correct	navigation	Trial1	navigation/STIM_004.jpg
175.794	2.438	incorrect	navigation	Trial1	navigation/STIM_004.jpg
182.115	2.934	correct	navigation	Trial1	navigation/STIM_004.jpg
188.701	4.778	incorrect	navigation	Trial1	navigation/STIM_005.jpg
195.624	3.619	incorrect	navigation	Trial1	navigation/STIM_005.jpg
201.716	4.474	incorrect	navigation	Trial1	navigation/STIM_005.jpg
208.9	2.492	correct	navigation	Trial1	navigation/STIM_005.jpg
215.334	2.129	correct	navigation	Trial1	navigation/STIM_005.jpg
219.447	2.785	correct	navigation	Trial1	navigation/STIM_005.jpg
225.93	4.748	incorrect	navigation	Trial1	navigation/STIM_006.jpg
233.511	3.578	correct	navigation	Trial1	navigation/STIM_006.jpg
240.299	2.42	correct	navigation	Trial1	navigation/STIM_006.jpg
245.975	4.098	incorrect	navigation	Trial1	navigation/STIM_006.jpg
253.23	1.976	correct	navigation	Trial1	navigation/STIM_006.jpg
257.304	1.938	correct	navigation	Trial1	navigation/STIM_006.jpg
262.201	3.172	correct	navigation	Trial1	navigation/STIM_007.jpg
267.446	2.441	incorrect	navigation	Trial1	navigation/STIM_007.jpg
272.487	3.616	correct	navigation	Trial1	navigation/STIM_007.jpg
278.193	3.515	correct	navigation	Trial1	navigation/STIM_007.jpg
284.818	2.183	correct	navigation	Trial1	navigation/STIM_007.jpg
289.018	3.719	correct	navigation	Trial1	navigation/STIM_007.jpg
295.269	3.506	correct	navigation	Trial1	navigation/STIM_008.jpg
301.325	2.244	correct	navigation	Trial1	navigation/STIM_008.jpg
307.33	3.376	correct	navigation	Trial1	navigation/STIM_008.jpg
314.245	2.332	correct	navigation	Trial1	navigation/STIM_008.jpg
320.17	3.876	incorrect	navigation	Trial1	navigation/STIM_008.jpg
327.482	3.24	incorrect	navigation	Trial1	navigation/STIM_008.jpg
334.469	4.441	incorrect	navigation	Trial1	navigation/STIM_009.jpg
342.213	2.37	incorrect	navigation	Trial1	navigation/STIM_009.jpg
347.703	2.44	incorrect	navigation	Trial1	navigation/STIM_009.jpg
353.148	2.007	incorrect	navigation	Trial1	navigation/STIM_009.jpg
358.523	3.999	correct	navigation	Trial1	navigation/STIM_009.jpg
365.8	2.297	correct	navigation	Trial1	navigation/STIM_009.jpg
370.973	4.593	incorrect	navigation	Trial1	navigation/STIM_010.jpg
378.064	2.086	correct	navigation	Trial1	navigation/STIM_010.jpg
382.56	2.5	correct	navigation	Trial1	navigation/STIM_010.jpg
387.721	2.475	incorrect	navigation	Trial1	navigation/STIM_010.jpg
393.699	3.332	correct	navigation	Trial1	navigation/STIM_010.jpg
399.716	2.836	correct	navigation	Trial1	navigation/STIM_010.jpg
406.474	2.847	incorrect	navigation	Trial1	navigation/STIM_011.jpg
411.78	4.648	correct	navigation	Trial1	navigation/STIM_011.jpg
419.517	4.246	correct	navigation	Trial1	navigation/STIM_011.jpg
426.874	4.06	correct	navigation	Trial1	navigation/STIM_011.jpg
434.722	3.262	correct	navigation	Trial1	navigation/STIM_011.jpg
440.407	3.353	correct	navigation	Trial1	navigation/STIM_011.jpg
446.719	1.242	correct	pointing	Trial1	pointing/STIM_000.jpg
450.645	1.48	correct	pointing	Trial1	pointing/STIM_000.jpg
455.718	1.139	incorrect	pointing	Trial1	pointing/STIM_000.jpg
459.094	1.201	correct	pointing	Trial1	pointing/STIM_000.jpg
463.111	1.469	correct	pointing	Trial1	pointing/STIM_000.jpg
468.137	1.371	correct	pointing	Trial1	pointing/STIM_000.jpg
473.455	0.892	correct	pointing	Trial1	pointing/STIM_001.jpg
476.553	1.048	incorrect	pointing	Trial1	pointing/STIM_001.jpg
481.04	1.083	correct	pointing	Trial1	pointing/STIM_001.jpg
485.073	1.138	correct	pointing	Trial1	pointing/STIM_001.jpg
489.165	1.435	correct	pointing	Trial1	pointing/STIM_001.jpg
492.665	1.491	correct	pointing	Trial1	pointing/STIM_001.jpg
497.36	1.183	correct	pointing	Trial1	pointing/STIM_002.jpg
500.897	1.435	correct	pointing	Trial1	pointing/STIM_002.jpg
506.212	1.006	correct	pointing	Trial1	pointing/STIM_002.jpg
510.29	0.984	correct	pointing	Trial1	pointing/STIM_002.jpg
514.987	1.358	correct	pointing	Trial1	pointing/STIM_002.jpg
519.912	1.302	correct	pointing	Trial1	pointing/STIM_002.jpg
523.497	1.157	correct	pointing	Trial1	pointing/STIM_003.jpg
527.34	1.132	correct	pointing	Trial1	pointing/STIM_003.jpg
532.421	1.438	correct	pointing	Trial1	pointing/STIM_003.jpg
536.223	1.494	correct	pointing	Trial1	pointing/STIM_003.jpg
541.123	1.34	incorrect	pointing	Trial1	pointing/STIM_003.jpg
544.715	1.166	correct	pointing	Trial1	pointing/STIM_003.jpg
548.55	1.357	correct	pointing	Trial1	pointing/STIM_004.jpg
552.516	1.024	correct	pointing	Trial1	pointing/STIM_004.jpg
556.242	0.972	correct	pointing	Trial1	pointing/STIM_004.jpg
560.598	1.214	correct	pointing	Trial1	pointing/STIM_004.jpg
564.21	0.955	correct	pointing	Trial1	pointing/STIM_004.jpg
568.585	0.81	correct	pointing	Trial1	pointing/STIM_004.jpg
573.328	0.969	correct	pointing	Trial1	pointing/STIM_005.jpg
578.262	0.953	correct	pointing	Trial1	pointing/STIM_005.jpg
581.935	1.289	incorrect	pointing	Trial1	pointing/STIM_005.jpg
586.851	1.472	correct	pointing	Trial1	pointing/STIM_005.jpg
591.955	0.936	correct	pointing	Trial1	pointing/STIM_005.jpg
596.76	1.441	correct	pointing	Trial1	pointing/STIM_005.jpg
601.422	1.415	correct	pointing	Trial1	pointing/STIM_006.jpg
606.138	1.389	correct	pointing	Trial1	pointing/STIM_006.jpg
610.066	1.374	incorrect	pointing	Trial1	pointing/STIM_006.jpg
614.445	0.876	correct	pointing	Trial1	pointing/STIM_006.jpg
617.426	0.991	correct	pointing	Trial1	pointing/STIM_006.jpg
621.267	1.317	correct	pointing	Trial1	pointing/STIM_006.jpg
625.17	1.091	correct	pointing	Trial1	pointing/STIM_007.jpg
628.698	1.347	correct	pointing	Trial1	pointing/STIM_007.jpg
633.986	1.409	correct	pointing	Trial1	pointing/STIM_007.jpg
637.611	1.221	correct	pointing	Trial1	pointing/STIM_007.jpg
642.38	0.913	correct	pointing	Trial1	pointing/STIM_007.jpg
647.158	1.236	correct	pointing	Trial1	pointing/STIM_007.jpg
651.04	0.849	correct	pointing	Trial1	pointing/STIM_008.jpg
653.939	0.991	correct	pointing	Trial1	pointing/STIM_008.jpg
658.785	0.886	correct	pointing	Trial1	pointing/STIM_008.jpg
663.646	1.034	correct	pointing	Trial1	pointing/STIM_008.jpg
667.068	0.83	correct	pointing	Trial1	pointing/STIM_008.jpg
670.21	1.287	correct	pointing	Trial1	pointing/STIM_008.jpg
673.974	0.92	correct	pointing	Trial1	pointing/STIM_009.jpg
676.953	0.886	correct	pointing	Trial1	pointing/STIM_009.jpg
681.646	1.137	incorrect	pointing	Trial1	pointing/STIM_009.jpg
685.807	1.307	correct	pointing	Trial1	pointing/STIM_009.jpg
689.139	1.362	correct	pointing	Trial1	pointing/STIM_009.jpg
693.688	1.497	correct	pointing	Trial1	pointing/STIM_009.jpg
697.537	1.177	correct	pointing	Trial1	pointing/STIM_010.jpg
702.189	0.93	correct	pointing	Trial1	pointing/STIM_010.jpg
706.737	0.99	correct	pointing	Trial1	pointing/STIM_010.jpg
711.01	1.185	correct	pointing	Trial1	pointing/STIM_010.jpg
715.587	1.155	correct	pointing	Trial1	pointing/STIM_010.jpg
718.779	1.101	correct	pointing	Trial1	pointing/STIM_010.jpg
722.2	1.2	correct	pointing	Trial1	pointing/STIM_011.jpg
727.038	1.418	correct	pointing	Trial1	pointing/STIM_011.jpg
732.138	1.08	correct	pointing	Trial1	pointing/STIM_011.jpg
736.637	1.023	correct	pointing	Trial1	pointing/STIM_011.jpg
741.616	1.19	correct	pointing	Trial1	pointing/STIM_011.jpg
745.455	1.517	correct	pointing	Trial1	pointing/STIM_011.jpg
750.326	3.24	correct	navigation	Trial2	navigation/STIM_000.jpg
755.908	1.999	correct	navigation	Trial2	navigation/STIM_000.jpg
761.329	2.996	correct	navigation	Trial2	navigation/STIM_000.jpg
766.479	2.916	correct	navigation	Trial2	navigation/STIM_000.jpg
771.857	3.247	correct	navigation	Trial2	navigation/STIM_000.jpg
777.549	1.832	correct	navigation	Trial2	navigation/STIM_000.jpg
781.536	2.663	correct	navigation	Trial2	navigation/STIM_001.jpg
786.352	2.772	correct	navigation	Trial2	navigation/STIM_001.jpg
791.797	2.76	correct	navigation	Trial2	navigation/STIM_001.jpg
798.084	3.101	incorrect	navigation	Trial2	navigation/STIM_001.jpg
803.312	3.285	correct	navigation	Trial2	navigation/STIM_001.jpg
808.582	2.393	correct	navigation	Trial2	navigation/STIM_001.jpg
814.818	2.982	incorrect	navigation	Trial2	navigation/STIM_002.jpg
821.236	2.564	correct	navigation	Trial2	navigation/STIM_002.jpg
827.032	2.88	incorrect	navigation	Trial2	navigation/STIM_002.jpg
832.269	2.179	correct	navigation	Trial2	navigation/STIM_002.jpg
837.095	1.843	correct	navigation	Trial2	navigation/STIM_002.jpg
842.278	2.612	correct	navigation	Trial2	navigation/STIM_002.jpg
847.583	3.739	correct	navigation	Trial2	navigation/STIM_003.jpg
855.193	2.444	incorrect	navigation	Trial2	navigation/STIM_003.jpg
861.42	1.924	correct	navigation	Trial2	navigation/STIM_003.jpg
865.343	3.538	correct	navigation	Trial2	navigation/STIM_003.jpg
871.586	1.892	incorrect	navigation	Trial2	navigation/STIM_003.jpg
875.88	1.99	correct	navigation	Trial2	navigation/STIM_003.jpg
880.802	2.768	incorrect	navigation	Trial2	navigation/STIM_004.jpg
885.691	3.339	incorrect	navigation	Trial2	navigation/STIM_004.jpg
891.297	2.749	correct	navigation	Trial2	navigation/STIM_004.jpg
897.371	2.114	correct	navigation	Trial2	navigation/STIM_004.jpg
902.535	3.194	correct	navigation	Trial2	navigation/STIM_004.jpg
908.511	2.744	correct	navigation	Trial2	navigation/STIM_004.jpg
913.297	3.467	correct	navigation	Trial2	navigation/STIM_005.jpg
920.154	2.612	correct	navigation	Trial2	navigation/STIM_005.jpg
926.212	1.543	incorrect	navigation	Trial2	navigation/STIM_005.jpg
931.613	3.263	correct	navigation	Trial2	navigation/STIM_005.jpg
938.219	2.972	correct	navigation	Trial2	navigation/STIM_005.jpg
945.125	3.162	incorrect	navigation	Trial2	navigation/STIM_005.jpg
950.249	1.796	correct	navigation	Trial2	navigation/STIM_006.jpg
954.69	3.7	correct	navigation	Trial2	navigation/STIM_006.jpg
961.0	1.585	correct	navigation	Trial2	navigation/STIM_006.jpg
965.072	1.95	correct	navigation	Trial2	navigation/STIM_006.jpg
969.998	2.076	correct	navigation	Trial2	navigation/STIM_006.jpg
974.537	2.295	correct	navigation	Trial2	navigation/STIM_006.jpg
979.518	3.792	correct	navigation	Trial2	navigation/STIM_007.jpg
985.844	3.879	correct	navigation	Trial2	navigation/STIM_007.jpg
991.811	3.162	correct	navigation	Trial2	navigation/STIM_007.jpg
998.16	3.539	correct	navigation	Trial2	navigation/STIM_007.jpg
1005.005	2.798	correct	navigation	Trial2	navigation/STIM_007.jpg
1011.721	2.221	correct	navigation	Trial2	navigation/STIM_007.jpg
1017.645	4.174	correct	navigation	Trial2	navigation/STIM_008.jpg
1024.39	3.526	correct	navigation	Trial2	navigation/STIM_008.jpg
1031.532	3.608	correct	navigation	Trial2	navigation/STIM_008.jpg
1037.556	2.892	correct	navigation	Trial2	navigation/STIM_008.jpg
1042.591	1.694	correct	navigation	Trial2	navigation/STIM_008.jpg
1048.04	3.035	correct	navigation	Trial2	navigation/STIM_008.jpg
1053.058	2.734	correct	navigation	Trial2	navigation/STIM_009.jpg
1059.348	2.505	correct	navigation	Trial2	navigation/STIM_009.jpg
1063.986	3.168	incorrect	navigation	Trial2	navigation/STIM_009.jpg
1070.647	2.482	correct	navigation	Trial2	navigation/STIM_009.jpg
1075.937	3.119	correct	navigation	Trial2	navigation/STIM_009.jpg
1081.162	2.609	correct	navigation	Trial2	navigation/STIM_009.jpg
1087.088	3.593	correct	navigation	Trial2	navigation/STIM_010.jpg
1094.546	3.56	correct	navigation	Trial2	navigation/STIM_010.jpg
1100.509	2.299	correct	navigation	Trial2	navigation/STIM_010.jpg
1105.528	1.495	correct	navigation	Trial2	navigation/STIM_010.jpg
1109.564	1.895	correct	navigation	Trial2	navigation/STIM_010.jpg
1114.266	1.673	correct	navigation	Trial2	navigation/STIM_010.jpg
1118.793	2.635	incorrect	navigation	Trial2	navigation/STIM_011.jpg
1123.911	1.879	correct	navigation	Trial2	navigation/STIM_011.jpg
1128.922	2.166	correct	navigation	Trial2	navigation/STIM_011.jpg
1133.962	2.384	incorrect	navigation	Trial2	navigation/STIM_011.jpg
1140.065	2.162	correct	navigation	Trial2	navigation/STIM_011.jpg
1144.987	2.202	incorrect	navigation	Trial2	navigation/STIM_011.jpg
1149.4	0.944	correct	pointing	Trial2	pointing/STIM_000.jpg
1153.126	1.037	correct	pointing	Trial2	pointing/STIM_000.jpg
1156.72	0.823	incorrect	pointing	Trial2	pointing/STIM_000.jpg
1160.156	1.025	correct	pointing	Trial2	pointing/STIM_000.jpg
1164.423	1.299	correct	pointing	Trial2	pointing/STIM_000.jpg
1169.151	1.007	correct	pointing	Trial2	pointing/STIM_000.jpg
1173.809	1.238	correct	pointing	Trial2	pointing/STIM_001.jpg
1177.813	1.358	correct	pointing	Trial2	pointing/STIM_001.jpg
1181.211	0.864	correct	pointing	Trial2	pointing/STIM_001.jpg
1185.039	0.954	correct	pointing	Trial2	pointing/STIM_001.jpg
1188.588	1.154	correct	pointing	Trial2	pointing/STIM_001.jpg
1193.369	1.482	correct	pointing	Trial2	pointing/STIM_001.jpg
1198.004	1.27	correct	pointing	Trial2	pointing/STIM_002.jpg
1201.399	1.429	correct	pointing	Trial2	pointing/STIM_002.jpg
1205.682	1.321	correct	pointing	Trial2	pointing/STIM_002.jpg
1210.918	0.84	correct	pointing	Trial2	pointing/STIM_002.jpg
1214.147	0.833	correct	pointing	Trial2	pointing/STIM_002.jpg
1218.592	1.271	correct	pointing	Trial2	pointing/STIM_002.jpg
1222.601	0.98	correct	pointing	Trial2	pointing/STIM_003.jpg
1226.454	1.01	correct	pointing	Trial2	pointing/STIM_003.jpg
1231.19	0.908	correct	pointing	Trial2	pointing/STIM_003.jpg
1234.729	1.222	correct	pointing	Trial2	pointing/STIM_003.jpg
1238.534	1.083	correct	pointing	Trial2	pointing/STIM_003.jpg
1242.441	1.338	correct	pointing	Trial2	pointing/STIM_003.jpg
1246.033	0.876	correct	pointing	Trial2	pointing/STIM_004.jpg
1249.352	1.278	correct	pointing	Trial2	pointing/STIM_004.jpg
1253.485	0.888	correct	pointing	Trial2	pointing/STIM_004.jpg
1256.595	0.962	correct	pointing	Trial2	pointing/STIM_004.jpg
1260.527	1.046	correct	pointing	Trial2	pointing/STIM_004.jpg
1265.42	1.079	correct	pointing	Trial2	pointing/STIM_004.jpg
1268.526	1.364	correct	pointing	Trial2	pointing/STIM_005.jpg
1271.977	1.024	correct	pointing	Trial2	pointing/STIM_005.jpg
1276.472	1.485	correct	pointing	Trial2	pointing/STIM_005.jpg
1281.257	1.517	correct	pointing	Trial2	pointing/STIM_005.jpg
1286.237	1.042	correct	pointing	Trial2	pointing/STIM_005.jpg
1289.585	1.23	incorrect	pointing	Trial2	pointing/STIM_005.jpg
1294.531	1.339	correct	pointing	Trial2	pointing/STIM_006.jpg
1298.243	1.469	correct	pointing	Trial2	pointing/STIM_006.jpg
1302.3	0.854	correct	pointing	Trial2	pointing/STIM_006.jpg
1305.295	1.053	correct	pointing	Trial2	pointing/STIM_006.jpg
1308.961	0.959	correct	pointing	Trial2	pointing/STIM_006.jpg
1312.268	1.067	correct	pointing	Trial2	pointing/STIM_006.jpg
1315.474	1.512	correct	pointing	Trial2	pointing/STIM_007.jpg
1319.046	1.29	correct	pointing	Trial2	pointing/STIM_007.jpg
1322.645	1.008	correct	pointing	Trial2	pointing/STIM_007.jpg
1326.818	1.078	correct	pointing	Trial2	pointing/STIM_007.jpg
1331.69	0.945	correct	pointing	Trial2	pointing/STIM_007.jpg
1336.222	1.385	incorrect	pointing	Trial2	pointing/STIM_007.jpg
1339.712	1.164	correct	pointing	Trial2	pointing/STIM_008.jpg
1343.834	1.13	correct	pointing	Trial2	pointing/STIM_008.jpg
1348.803	1.475	correct	pointing	Trial2	pointing/STIM_008.jpg
1353.743	1.241	correct	pointing	Trial2	pointing/STIM_008.jpg
1357.669	1.156	correct	pointing	Trial2	pointing/STIM_008.jpg
1362.309	1.472	incorrect	pointing	Trial2	pointing/STIM_008.jpg
1366.641	1.491	correct	pointing	Trial2	pointing/STIM_009.jpg
1370.68	1.457	correct	pointing	Trial2	pointing/STIM_009.jpg
1375.22	0.914	correct	pointing	Trial2	pointing/STIM_009.jpg
1379.968	1.518	correct	pointing	Trial2	pointing/STIM_009.jpg
1383.952	0.904	correct	pointing	Trial2	pointing/STIM_009.jpg
1388.324	1.135	correct	pointing	Trial2	pointing/STIM_009.jpg
1392.257	1.281	correct	pointing	Trial2	pointing/STIM_010.jpg
1396.358	1.483	correct	pointing	Trial2	pointing/STIM_010.jpg
1401.622	1.043	correct	pointing	Trial2	pointing/STIM_010.jpg
1405.453	1.366	correct	pointing	Trial2	pointing/STIM_010.jpg
1409.63	1.223	correct	pointing	Trial2	pointing/STIM_010.jpg
1413.076	1.495	correct	pointing	Trial2	pointing/STIM_010.jpg
1418.198	1.515	correct	pointing	Trial2	pointing/STIM_011.jpg
1423.16	1.368	correct	pointing	Trial2	pointing/STIM_011.jpg
1427.477	0.982	correct	pointing	Trial2	pointing/STIM_011.jpg
1431.625	1.173	incorrect	pointing	Trial2	pointing/STIM_011.jpg
1436.318	1.469	incorrect	pointing	Trial2	pointing/STIM_011.jpg
1441.215	1.484	correct	pointing	Trial2	pointing/STIM_011.jpg
1446.31	1.892	correct	navigation	Trial3	navigation/STIM_000.jpg
1451.402	3.006	incorrect	navigation	Trial3	navigation/STIM_000.jpg
1457.749	3.331	correct	navigation	Trial3	navigation/STIM_000.jpg
1463.17	1.499	correct	navigation	Trial3	navigation/STIM_000.jpg
1467.576	1.856	correct	navigation	Trial3	navigation/STIM_000.jpg
1471.624	3.17	correct	navigation	Trial3	navigation/STIM_000.jpg
1478.047	3.444	correct	navigation	Trial3	navigation/STIM_001.jpg
1484.129	2.496	incorrect	navigation	Trial3	navigation/STIM_001.jpg
1489.976	2.1	correct	navigation	Trial3	navigation/STIM_001.jpg
1495.737	2.604	correct	navigation	Trial3	navigation/STIM_001.jpg
1502.038	3.01	correct	navigation	Trial3	navigation/STIM_001.jpg
1507.445	3.535	correct	navigation	Trial3	navigation/STIM_001.jpg
1514.355	3.212	incorrect	navigation	Trial3	navigation/STIM_002.jpg
1520.43	1.948	correct	navigation	Trial3	navigation/STIM_002.jpg
1524.918	1.632	correct	navigation	Trial3	navigation/STIM_002.jpg
1529.229	2.299	correct	navigation	Trial3	navigation/STIM_002.jpg
1535.445	3.099	correct	navigation	Trial3	navigation/STIM_002.jpg
1541.167	2.75	correct	navigation	Trial3	navigation/STIM_002.jpg
1546.385	3.071	correct	navigation	Trial3	navigation/STIM_003.jpg
1552.478	2.922	correct	navigation	Trial3	navigation/STIM_003.jpg
1558.713	1.71	correct	navigation	Trial3	navigation/STIM_003.jpg
1562.931	2.069	correct	navigation	Trial3	navigation/STIM_003.jpg
1568.552	1.972	correct	navigation	Trial3	navigation/STIM_003.jpg
1574.441	1.868	correct	navigation	Trial3	navigation/STIM_003.jpg
1580.025	3.328	correct	navigation	Trial3	navigation/STIM_004.jpg
1585.432	1.454	correct	navigation	Trial3	navigation/STIM_004.jpg
1590.007	2.297	correct	navigation	Trial3	navigation/STIM_004.jpg
1594.444	1.559	incorrect	navigation	Trial3	navigation/STIM_004.jpg
1599.245	1.831	correct	navigation	Trial3	navigation/STIM_004.jpg
1604.304	3.218	correct	navigation	Trial3	navigation/STIM_004.jpg
1610.31	2.569	correct	navigation	Trial3	navigation/STIM_005.jpg
1616.251	2.136	correct	navigation	Trial3	navigation/STIM_005.jpg
1620.641	3.4	incorrect	navigation	Trial3	navigation/STIM_005.jpg
1626.316	3.352	correct	navigation	Trial3	navigation/STIM_005.jpg
1632.593	2.522	correct	navigation	Trial3	navigation/STIM_005.jpg
1637.789	2.48	incorrect	navigation	Trial3	navigation/STIM_005.jpg
1642.636	1.526	correct	navigation	Trial3	navigation/STIM_006.jpg
1647.836	1.966	correct	navigation	Trial3	navigation/STIM_006.jpg
1653.297	2.005	correct	navigation	Trial3	navigation/STIM_006.jpg
1658.064	3.36	correct	navigation	Trial3	navigation/STIM_006.jpg
1663.515	2.912	correct	navigation	Trial3	navigation/STIM_006.jpg
1668.399	1.756	correct	navigation	Trial3	navigation/STIM_006.jpg
1673.808	3.048	correct	navigation	Trial3	navigation/STIM_007.jpg
1679.406	1.48	correct	navigation	Trial3	navigation/STIM_007.jpg
1683.708	3.02	correct	navigation	Trial3	navigation/STIM_007.jpg
1689.202	2.231	correct	navigation	Trial3	navigation/STIM_007.jpg
1694.827	2.732	correct	navigation	Trial3	navigation/STIM_007.jpg
1700.431	3.221	correct	navigation	Trial3	navigation/STIM_007.jpg
1706.206	2.317	correct	navigation	Trial3	navigation/STIM_008.jpg
1711.605	3.386	correct	navigation	Trial3	navigation/STIM_008.jpg
1718.538	1.453	correct	navigation	Trial3	navigation/STIM_008.jpg
1723.809	1.71	correct	navigation	Trial3	navigation/STIM_008.jpg
1727.541	2.738	correct	navigation	Trial3	navigation/STIM_008.jpg
1733.186	2.535	incorrect	navigation	Trial3	navigation/STIM_008.jpg
1739.508	1.906	correct	navigation	Trial3	navigation/STIM_009.jpg
1744.982	2.21	correct	navigation	Trial3	navigation/STIM_009.jpg
1750.096	3.426	correct	navigation	Trial3	navigation/STIM_009.jpg
1755.649	2.659	correct	navigation	Trial3	navigation/STIM_009.jpg
1761.184	1.92	correct	navigation	Trial3	navigation/STIM_009.jpg
1765.146	2.327	correct	navigation	Trial3	navigation/STIM_009.jpg
1770.455	3.426	incorrect	navigation	Trial3	navigation/STIM_010.jpg
1777.603	2.165	correct	navigation	Trial3	navigation/STIM_010.jpg
1782.271	2.552	correct	navigation	Trial3	navigation/STIM_010.jpg
1787.641	1.716	correct	navigation	Trial3	navigation/STIM_010.jpg
1792.895	2.738	correct	navigation	Trial3	navigation/STIM_010.jpg
1799.472	1.848	correct	navigation	Trial3	navigation/STIM_010.jpg
1804.853	3.14	correct	navigation	Trial3	navigation/STIM_011.jpg
1811.028	2.391	correct	navigation	Trial3	navigation/STIM_011.jpg
1816.922	3.166	incorrect	navigation	Trial3	navigation/STIM_011.jpg
1823.87	3.369	correct	navigation	Trial3	navigation/STIM_011.jpg
1830.897	2.97	correct	navigation	Trial3	navigation/STIM_011.jpg
1836.135	3.202	correct	navigation	Trial3	navigation/STIM_011.jpg
1841.928	0.951	incorrect	pointing	Trial3	pointing/STIM_000.jpg
1846.169	0.922	correct	pointing	Trial3	pointing/STIM_000.jpg
1850.465	0.826	correct	pointing	Trial3	pointing/STIM_000.jpg
1853.857	0.819	correct	pointing	Trial3	pointing/STIM_000.jpg
1857.394	1.407	correct	pointing	Trial3	pointing/STIM_000.jpg
1861.658	1.453	correct	pointing	Trial3	pointing/STIM_000.jpg
1865.943	0.912	correct	pointing	Trial3	pointing/STIM_001.jpg
1870.415	1.226	correct	pointing	Trial3	pointing/STIM_001.jpg
1873.759	1.512	correct	pointing	Trial3	pointing/STIM_001.jpg
1878.827	1.164	correct	pointing	Trial3	pointing/STIM_001.jpg
1883.157	1.324	correct	pointing	Trial3	pointing/STIM_001.jpg
1886.785	0.884	correct	pointing	Trial3	pointing/STIM_001.jpg
1889.8	1.368	correct	pointing	Trial3	pointing/STIM_002.jpg
1894.419	1.144	correct	pointing	Trial3	pointing/STIM_002.jpg
1898.09	1.306	correct	pointing	Trial3	pointing/STIM_002.jpg
1902.786	1.0	correct	pointing	Trial3	pointing/STIM_002.jpg
1905.854	1.189	correct	pointing	Trial3	pointing/STIM_002.jpg
1909.06	1.312	correct	pointing	Trial3	pointing/STIM_002.jpg
1913.45	0.974	correct	pointing	Trial3	pointing/STIM_003.jpg
1916.834	0.98	correct	pointing	Trial3	pointing/STIM_003.jpg
1921.62	1.407	correct	pointing	Trial3	pointing/STIM_003.jpg
1926.422	1.363	correct	pointing	Trial3	pointing/STIM_003.jpg
1930.654	1.318	incorrect	pointing	Trial3	pointing/STIM_003.jpg
1934.653	1.399	correct	pointing	Trial3	pointing/STIM_003.jpg
1939.554	0.834	correct	pointing	Trial3	pointing/STIM_004.jpg
1942.961	1.239	correct	pointing	Trial3	pointing/STIM_004.jpg
1947.758	0.988	correct	pointing	Trial3	pointing/STIM_004.jpg
1952.385	1.456	correct	pointing	Trial3	pointing/STIM_004.jpg
1957.816	1.297	correct	pointing	Trial3	pointing/STIM_004.jpg
1962.603	1.338	correct	pointing	Trial3	pointing/STIM_004.jpg
1967.718	1.346	correct	pointing	Trial3	pointing/STIM_005.jpg
1971.931	1.444	correct	pointing	Trial3	pointing/STIM_005.jpg
1975.59	1.106	correct	pointing	Trial3	pointing/STIM_005.jpg
1980.398	0.947	correct	pointing	Trial3	pointing/STIM_005.jpg
1984.001	0.848	correct	pointing	Trial3	pointing/STIM_005.jpg
1986.965	1.002	correct	pointing	Trial3	pointing/STIM_005.jpg
1991.674	1.095	correct	pointing	Trial3	pointing/STIM_006.jpg
1995.928	1.09	correct	pointing	Trial3	pointing/STIM_006.jpg
1999.606	0.844	correct	pointing	Trial3	pointing/STIM_006.jpg
2003.961	0.936	correct	pointing	Trial3	pointing/STIM_006.jpg
2008.873	0.952	correct	pointing	Trial3	pointing/STIM_006.jpg
2012.937	0.922	correct	pointing	Trial3	pointing/STIM_006.jpg
2016.634	1.224	correct	pointing	Trial3	pointing/STIM_007.jpg
2021.245	1.425	correct	pointing	Trial3	pointing/STIM_007.jpg
2026.068	0.81	correct	pointing	Trial3	pointing/STIM_007.jpg
2029.46	0.992	correct	pointing	Trial3	pointing/STIM_007.jpg
2032.616	1.21	correct	pointing	Trial3	pointing/STIM_007.jpg
2037.555	1.218	correct	pointing	Trial3	pointing/STIM_007.jpg
2041.48	0.975	correct	pointing	Trial3	pointing/STIM_008.jpg
2046.335	1.208	correct	pointing	Trial3	pointing/STIM_008.jpg
2051.472	1.02	correct	pointing	Trial3	pointing/STIM_008.jpg
2054.654	1.211	correct	pointing	Trial3	pointing/STIM_008.jpg
2059.729	1.286	correct	pointing	Trial3	pointing/STIM_008.jpg
2063.285	1.004	correct	pointing	Trial3	pointing/STIM_008.jpg
2068.146	1.106	correct	pointing	Trial3	pointing/STIM_009.jpg
2072.876	1.335	correct	pointing	Trial3	pointing/STIM_009.jpg
2076.971	1.061	correct	pointing	Trial3	pointing/STIM_009.jpg
2080.766	0.856	correct	pointing	Trial3	pointing/STIM_009.jpg
2084.664	1.343	correct	pointing	Trial3	pointing/STIM_009.jpg
2089.816	0.94	correct	pointing	Trial3	pointing/STIM_009.jpg
2093.228	1.004	correct	pointing	Trial3	pointing/STIM_010.jpg
2096.709	1.168	correct	pointing	Trial3	pointing/STIM_010.jpg
2101.82	1.467	correct	pointing	Trial3	pointing/STIM_010.jpg
2106.476	0.941	incorrect	pointing	Trial3	pointing/STIM_010.jpg
2110.224	1.416	correct	pointing	Trial3	pointing/STIM_010.jpg
2115.098	0.902	correct	pointing	Trial3	pointing/STIM_010.jpg
2118.207	0.998	correct	pointing	Trial3	pointing/STIM_011.jpg
2122.962	0.922	correct	pointing	Trial3	pointing/STIM_011.jpg
2127.706	1.241	correct	pointing	Trial3	pointing/STIM_011.jpg
2131.676	1.145	correct	pointing	Trial3	pointing/STIM_011.jpg
2136.37	1.176	correct	pointing	Trial3	pointing/STIM_011.jpg
2140.27	1.163	correct	pointing	Trial3	pointing/STIM_011.jpg
