onset	duration	accuracy	trial_type	learning_stage	stimulus
0.0	2.434	incorrect	generate	Run1	generate/STIM_000.jpg
5.796	1.65	correct	generate	Run1	generate/STIM_000.jpg
10.863	1.317	correct	generate	Run1	generate/STIM_000.jpg
15.093	2.222	correct	generate	Run1	generate/STIM_000.jpg
20.476	1.041	correct	generate	Run1	generate/STIM_000.jpg
24.545	2.076	incorrect	generate	Run1	generate/STIM_001.jpg
30.209	2.085	correct	generate	Run1	generate/STIM_001.jpg
34.613	1.176	correct	generate	Run1	generate/STIM_001.jpg
39.725	1.771	incorrect	generate	Run1	generate/STIM_001.jpg
44.842	1.228	correct	generate	Run1	generate/STIM_001.jpg
50.027	1.577	correct	generate	Run1	generate/STIM_002.jpg
55.188	1.582	correct	generate	Run1	generate/STIM_002.jpg
60.686	1.324	correct	generate	Run1	generate/STIM_002.jpg
65.938	1.493	correct	generate	Run1	generate/STIM_002.jpg
70.088	1.386	correct	generate	Run1	generate/STIM_002.jpg
74.129	2.239	correct	generate	Run1	generate/STIM_003.jpg
78.398	1.798	correct	generate	Run1	generate/STIM_003.jpg
82.45	1.262	correct	generate	Run1	generate/STIM_003.jpg
86.288	1.195	correct	generate	Run1	generate/STIM_003.jpg
91.223	1.912	incorrect	generate	Run1	generate/STIM_003.jpg
95.623	1.126	correct	generate	Run1	generate/STIM_004.jpg
99.48	1.318	correct	generate	Run1	generate/STIM_004.jpg
104.669	2.189	correct	generate	Run1	generate/STIM_004.jpg
110.428	1.363	incorrect	generate	Run1	generate/STIM_004.jpg
115.611	1.042	correct	generate	Run1	generate/STIM_004.jpg
120.198	1.123	correct	generate	Run1	generate/STIM_005.jpg
124.325	1.722	correct	generate	Run1	generate/STIM_005.jpg
129.897	2.132	correct	generate	Run1	generate/STIM_005.jpg
134.573	1.322	incorrect	generate	Run1	generate/STIM_005.jpg
138.719	1.208	incorrect	generate	Run1	generate/STIM_005.jpg
143.414	1.703	correct	generate	Run1	generate/STIM_006.jpg
147.546	1.919	incorrect	generate	Run1	generate/STIM_006.jpg
152.767	2.392	correct	generate	Run1	generate/STIM_006.jpg
157.867	2.131	incorrect	generate	Run1	generate/STIM_006.jpg
163.918	1.976	incorrect	generate	Run1	generate/STIM_006.jpg
169.13	2.467	correct	generate	Run1	generate/STIM_007.jpg
173.915	2.403	correct	generate	Run1	generate/STIM_007.jpg
178.47	1.922	incorrect	generate	Run1	generate/STIM_007.jpg
183.644	1.538	correct	generate	Run1	generate/STIM_007.jpg
187.27	1.369	correct	generate	Run1	generate/STIM_007.jpg
191.701	2.451	correct	generate	Run1	generate/STIM_008.jpg
197.094	1.898	correct	generate	Run1	generate/STIM_008.jpg
201.543	1.089	correct	generate	Run1	generate/STIM_008.jpg
205.594	2.023	correct	generate	Run1	generate/STIM_008.jpg
211.125	1.537	correct	generate	Run1	generate/STIM_008.jpg
215.291	1.782	correct	generate	Run1	generate/STIM_009.jpg
219.826	1.987	correct	generate	Run1	generate/STIM_009.jpg
224.962	1.254	correct	generate	Run1	generate/STIM_009.jpg
229.917	1.898	correct	generate	Run1	generate/STIM_009.jpg
235.758	0.999	incorrect	generate	Run1	generate/STIM_009.jpg
239.03	2.353	correct	generate	Run1	generate/STIM_010.jpg
245.034	1.4	incorrect	generate	Run1	generate/STIM_010.jpg
250.351	2.223	correct	generate	Run1	generate/STIM_010.jpg
255.912	2.081	correct	generate	Run1	generate/STIM_010.jpg
260.056	1.814	incorrect	generate	Run1	generate/STIM_010.jpg
265.175	1.28	correct	generate	Run1	generate/STIM_011.jpg
268.82	2.252	correct	generate	Run1	generate/STIM_011.jpg
273.458	1.51	correct	generate	Run1	generate/STIM_011.jpg
278.086	1.509	incorrect	generate	Run1	generate/STIM_011.jpg
282.052	1.522	correct	generate	Run1	generate/STIM_011.jpg
286.427	1.414	correct	generate	Run1	generate/STIM_012.jpg
290.255	2.465	correct	generate	Run1	generate/STIM_012.jpg
295.51	2.253	correct	generate	Run1	generate/STIM_012.jpg
300.638	1.523	correct	generate	Run1	generate/STIM_012.jpg
305.741	1.928	correct	generate	Run1	generate/STIM_012.jpg
311.488	1.788	correct	generate	Run1	generate/STIM_013.jpg
316.712	1.648	correct	generate	Run1	generate/STIM_013.jpg
321.386	2.302	correct	generate	Run1	generate/STIM_013.jpg
327.534	1.796	correct	generate	Run1	generate/STIM_013.jpg
331.359	1.688	incorrect	generate	Run1	generate/STIM_013.jpg
336.209	1.608	correct	generate	Run1	generate/STIM_014.jpg
341.721	2.613	correct	generate	Run1	generate/STIM_014.jpg
347.159	2.031	incorrect	generate	Run1	generate/STIM_014.jpg
351.214	1.03	correct	generate	Run1	generate/STIM_014.jpg
354.648	0.914	incorrect	generate	Run1	generate/STIM_014.jpg
359.046	2.554	correct	generate	Run1	generate/STIM_015.jpg
365.41	2.212	correct	generate	Run1	generate/STIM_015.jpg
371.256	1.119	correct	generate	Run1	generate/STIM_015.jpg
374.377	1.128	correct	generate	Run1	generate/STIM_015.jpg
378.145	1.982	incorrect	generate	Run1	generate/STIM_015.jpg
382.315	1.34	correct	generate	Run1	generate/STIM_016.jpg
385.749	1.811	correct	generate	Run1	generate/STIM_016.jpg
391.514	1.636	correct	generate	Run1	generate/STIM_016.jpg
397.143	2.092	correct	generate	Run1	generate/STIM_016.jpg
402.572	2.052	correct	generate	Run1	generate/STIM_016.jpg
408.506	2.072	incorrect	generate	Run1	generate/STIM_017.jpg
413.539	1.649	correct	generate	Run1	generate/STIM_017.jpg
418.245	1.226	correct	generate	Run1	generate/STIM_017.jpg
422.327	1.251	correct	generate	Run1	generate/STIM_017.jpg
427.495	1.179	incorrect	generate	Run1	generate/STIM_017.jpg
432.07	1.37	correct	generate	Run1	generate/STIM_018.jpg
436.554	1.646	incorrect	generate	Run1	generate/STIM_018.jpg
441.41	1.047	correct	generate	Run1	generate/STIM_018.jpg
446.341	1.324	incorrect	generate	Run1	generate/STIM_018.jpg
450.158	1.942	incorrect	generate	Run1	generate/STIM_018.jpg
455.441	1.338	correct	generate	Run1	generate/STIM_019.jpg
459.192	1.268	correct	generate	Run1	generate/STIM_019.jpg
463.504	2.341	correct	generate	Run1	generate/STIM_019.jpg
468.572	1.603	correct	generate	Run1	generate/STIM_019.jpg
473.394	0.99	correct	generate	Run1	generate/STIM_019.jpg
478.032	2.226	incorrect	generate	Run1	generate/STIM_020.jpg
483.284	1.406	incorrect	generate	Run1	generate/STIM_020.jpg
488.478	1.005	incorrect	generate	Run1	generate/STIM_020.jpg
491.702	1.492	incorrect	generate	Run1	generate/STIM_020.jpg
495.49	1.978	correct	generate	Run1	generate/STIM_020.jpg
501.381	1.664	correct	generate	Run1	generate/STIM_021.jpg
506.336	1.622	incorrect	generate	Run1	generate/STIM_021.jpg
510.95	2.287	correct	generate	Run1	generate/STIM_021.jpg
516.34	1.973	correct	generate	Run1	generate/STIM_021.jpg
521.566	1.052	correct	generate	Run1	generate/STIM_021.jpg
525.828	1.987	correct	generate	Run1	generate/STIM_022.jpg
531.505	1.163	correct	generate	Run1	generate/STIM_022.jpg
535.748	2.418	correct	generate	Run1	generate/STIM_022.jpg
542.084	1.237	correct	generate	Run1	generate/STIM_022.jpg
547.298	2.097	correct	generate	Run1	generate/STIM_022.jpg
553.196	1.62	correct	generate	Run1	generate/STIM_023.jpg
558.263	1.892	correct	generate	Run1	generate/STIM_023.jpg
563.385	1.549	correct	generate	Run1	generate/STIM_023.jpg
568.834	1.266	correct	generate	Run1	generate/STIM_023.jpg
573.817	0.964	correct	generate	Run1	generate/STIM_023.jpg
578.212	1.65	correct	generate	Run1	generate/STIM_024.jpg
582.015	2.442	correct	generate	Run1	generate/STIM_024.jpg
587.713	1.518	incorrect	generate	Run1	generate/STIM_024.jpg
592.572	1.673	correct	generate	Run1	generate/STIM_024.jpg
596.847	1.919	correct	generate	Run1	generate/STIM_024.jpg
602.287	0.6	correct	repeat	Run1	repeat/STIM_000.jpg
605.789	0.666	correct	repeat	Run1	repeat/STIM_000.jpg
608.721	0.784	correct	repeat	Run1	repeat/STIM_000.jpg
611.639	0.658	correct	repeat	Run1	repeat/STIM_000.jpg
614.672	0.778	correct	repeat	Run1	repeat/STIM_000.jpg
619.095	0.799	correct	repeat	Run1	repeat/STIM_001.jpg
622.679	0.499	incorrect	repeat	Run1	repeat/STIM_001.jpg
626.984	0.65	incorrect	repeat	Run1	repeat/STIM_001.jpg
630.754	0.525	correct	repeat	Run1	repeat/STIM_001.jpg
633.666	0.526	correct	repeat	Run1	repeat/STIM_001.jpg
636.996	0.688	correct	repeat	Run1	repeat/STIM_002.jpg
640.06	0.607	correct	repeat	Run1	repeat/STIM_002.jpg
643.743	0.769	correct	repeat	Run1	repeat/STIM_002.jpg
647.566	0.9	correct	repeat	Run1	repeat/STIM_002.jpg
650.776	0.774	correct	repeat	Run1	repeat/STIM_002.jpg
654.477	0.632	correct	repeat	Run1	repeat/STIM_003.jpg
658.896	0.824	correct	repeat	Run1	repeat/STIM_003.jpg
662.95	0.733	correct	repeat	Run1	repeat/STIM_003.jpg
667.676	0.71	correct	repeat	Run1	repeat/STIM_003.jpg
670.841	0.747	correct	repeat	Run1	repeat/STIM_003.jpg
674.675	0.866	incorrect	repeat	Run1	repeat/STIM_004.jpg
678.545	0.542	correct	repeat	Run1	repeat/STIM_004.jpg
681.719	0.718	correct	repeat	Run1	repeat/STIM_004.jpg
686.217	0.833	correct	repeat	Run1	repeat/STIM_004.jpg
690.506	0.867	correct	repeat	Run1	repeat/STIM_004.jpg
693.69	0.506	correct	repeat	Run1	repeat/STIM_005.jpg
697.822	0.789	incorrect	repeat	Run1	repeat/STIM_005.jpg
700.685	0.796	correct	repeat	Run1	repeat/STIM_005.jpg
705.425	0.598	correct	repeat	Run1	repeat/STIM_005.jpg
708.772	0.644	correct	repeat	Run1	repeat/STIM_005.jpg
713.212	0.73	correct	repeat	Run1	repeat/STIM_006.jpg
717.099	0.675	correct	repeat	Run1	repeat/STIM_006.jpg
720.838	0.901	correct	repeat	Run1	repeat/STIM_006.jpg
725.57	0.816	correct	repeat	Run1	repeat/STIM_006.jpg
729.653	0.844	correct	repeat	Run1	repeat/STIM_006.jpg
733.284	0.837	correct	repeat	Run1	repeat/STIM_007.jpg
737.912	0.618	correct	repeat	Run1	repeat/STIM_007.jpg
741.887	0.616	correct	repeat	Run1	repeat/STIM_007.jpg
744.989	0.804	incorrect	repeat	Run1	repeat/STIM_007.jpg
747.999	0.613	correct	repeat	Run1	repeat/STIM_007.jpg
750.746	0.674	correct	repeat	Run1	repeat/STIM_008.jpg
753.636	0.78	correct	repeat	Run1	repeat/STIM_008.jpg
758.193	0.684	correct	repeat	Run1	repeat/STIM_008.jpg
762.748	0.91	correct	repeat	Run1	repeat/STIM_008.jpg
767.063	0.923	correct	repeat	Run1	repeat/STIM_008.jpg
771.776	0.782	correct	repeat	Run1	repeat/STIM_009.jpg
775.271	0.541	correct	repeat	Run1	repeat/STIM_009.jpg
779.24	0.608	correct	repeat	Run1	repeat/STIM_009.jpg
782.063	0.913	correct	repeat	Run1	repeat/STIM_009.jpg
786.453	0.904	correct	repeat	Run1	repeat/STIM_009.jpg
790.716	0.722	correct	repeat	Run1	repeat/STIM_010.jpg
794.052	0.645	correct	repeat	Run1	repeat/STIM_010.jpg
797.5	0.71	correct	repeat	Run1	repeat/STIM_010.jpg
801.077	0.752	correct	repeat	Run1	repeat/STIM_010.jpg
804.602	0.691	correct	repeat	Run1	repeat/STIM_010.jpg
809.093	0.822	correct	repeat	Run1	repeat/STIM_011.jpg
813.743	0.582	correct	repeat	Run1	repeat/STIM_011.jpg
817.208	0.559	correct	repeat	Run1	repeat/STIM_011.jpg
821.026	0.61	correct	repeat	Run1	repeat/STIM_011.jpg
824.678	0.498	correct	repeat	Run1	repeat/STIM_011.jpg
828.596	0.824	correct	repeat	Run1	repeat/STIM_012.jpg
831.591	0.71	correct	repeat	Run1	repeat/STIM_012.jpg
835.424	0.53	correct	repeat	Run1	repeat/STIM_012.jpg
839.913	0.826	incorrect	repeat	Run1	repeat/STIM_012.jpg
844.6	0.701	correct	repeat	Run1	repeat/STIM_012.jpg
848.667	0.476	correct	repeat	Run1	repeat/STIM_013.jpg
852.731	0.884	correct	repeat	Run1	repeat/STIM_013.jpg
855.634	0.649	correct	repeat	Run1	repeat/STIM_013.jpg
858.425	0.833	correct	repeat	Run1	repeat/STIM_013.jpg
861.676	0.576	correct	repeat	Run1	repeat/STIM_013.jpg
864.634	0.705	correct	repeat	Run1	repeat/STIM_014.jpg
867.402	0.551	correct	repeat	Run1	repeat/STIM_014.jpg
870.407	0.665	correct	repeat	Run1	repeat/STIM_014.jpg
874.651	0.854	incorrect	repeat	Run1	repeat/STIM_014.jpg
878.961	0.815	correct	repeat	Run1	repeat/STIM_014.jpg
882.259	1.09	incorrect	generate	Run2	generate/STIM_000.jpg
886.504	1.103	correct	generate	Run2	generate/STIM_000.jpg
891.208	1.905	correct	generate	Run2	generate/STIM_000.jpg
895.943	1.831	correct	generate	Run2	generate/STIM_000.jpg
900.813	1.398	correct	generate	Run2	generate/STIM_000.jpg
906.024	2.081	correct	generate	Run2	generate/STIM_001.jpg
910.576	1.794	correct	generate	Run2	generate/STIM_001.jpg
916.091	0.908	correct	generate	Run2	generate/STIM_001.jpg
920.599	0.815	correct	generate	Run2	generate/STIM_001.jpg
924.749	1.714	correct	generate	Run2	generate/STIM_001.jpg
929.601	1.134	correct	generate	Run2	generate/STIM_002.jpg
934.552	1.629	correct	generate	Run2	generate/STIM_002.jpg
939.083	0.912	correct	generate	Run2	generate/STIM_002.jpg
942.709	0.898	correct	generate	Run2	generate/STIM_002.jpg
947.134	1.091	correct	generate	Run2	generate/STIM_002.jpg
952.095	1.786	incorrect	generate	Run2	generate/STIM_003.jpg
956.173	0.979	incorrect	generate	Run2	generate/STIM_003.jpg
960.926	1.904	correct	generate	Run2	generate/STIM_003.jpg
965.073	1.474	correct	generate	Run2	generate/STIM_003.jpg
969.383	0.968	correct	generate	Run2	generate/STIM_003.jpg
973.451	1.6	correct	generate	Run2	generate/STIM_004.jpg
977.589	0.898	correct	generate	Run2	generate/STIM_004.jpg
982.015	1.43	correct	generate	Run2	generate/STIM_004.jpg
986.266	1.597	correct	generate	Run2	generate/STIM_004.jpg
990.23	1.591	correct	generate	Run2	generate/STIM_004.jpg
994.347	2.185	correct	generate	Run2	generate/STIM_005.jpg
999.841	1.598	correct	generate	Run2	generate/STIM_005.jpg
1004.455	1.866	incorrect	generate	Run2	generate/STIM_005.jpg
1010.182	1.09	correct	generate	Run2	generate/STIM_005.jpg
1013.85	1.614	correct	generate	Run2	generate/STIM_005.jpg
1018.26	2.151	correct	generate	Run2	generate/STIM_006.jpg
1022.498	1.76	incorrect	generate	Run2	generate/STIM_006.jpg
1027.628	1.663	incorrect	generate	Run2	generate/STIM_006.jpg
1031.791	1.271	correct	generate	Run2	generate/STIM_006.jpg
1036.207	1.256	correct	generate	Run2	generate/STIM_006.jpg
1040.659	0.965	correct	generate	Run2	generate/STIM_007.jpg
1044.798	1.721	correct	generate	Run2	generate/STIM_007.jpg
1049.231	1.238	correct	generate	Run2	generate/STIM_007.jpg
1054.346	1.584	correct	generate	Run2	generate/STIM_007.jpg
1059.481	1.613	correct	generate	Run2	generate/STIM_007.jpg
1064.065	1.382	incorrect	generate	Run2	generate/STIM_008.jpg
1067.49	1.932	correct	generate	Run2	generate/STIM_008.jpg
1072.445	1.256	correct	generate	Run2	generate/STIM_008.jpg
1076.64	1.695	correct	generate	Run2	generate/STIM_008.jpg
1081.642	1.476	correct	generate	Run2	generate/STIM_008.jpg
1086.591	1.954	incorrect	generate	Run2	generate/STIM_009.jpg
1090.788	1.776	correct	generate	Run2	generate/STIM_009.jpg
1096.28	1.221	correct	generate	Run2	generate/STIM_009.jpg
1100.974	1.439	correct	generate	Run2	generate/STIM_009.jpg
1104.67	1.751	correct	generate	Run2	generate/STIM_009.jpg
1110.318	1.151	correct	generate	Run2	generate/STIM_010.jpg
1114.17	1.018	correct	generate	Run2	generate/STIM_010.jpg
1118.131	1.203	correct	generate	Run2	generate/STIM_010.jpg
1123.1	0.832	correct	generate	Run2	generate/STIM_010.jpg
1126.489	1.08	correct	generate	Run2	generate/STIM_010.jpg
1130.274	1.443	incorrect	generate	Run2	generate/STIM_011.jpg
1135.408	1.412	correct	generate	Run2	generate/STIM_011.jpg
1139.182	1.388	correct	generate	Run2	generate/STIM_011.jpg
1143.551	0.929	correct	generate	Run2	generate/STIM_011.jpg
1148.467	1.066	correct	generate	Run2	generate/STIM_011.jpg
1152.172	2.089	correct	generate	Run2	generate/STIM_012.jpg
1157.224	1.974	incorrect	generate	Run2	generate/STIM_012.jpg
1162.078	1.523	correct	generate	Run2	generate/STIM_012.jpg
1166.214	1.627	correct	generate	Run2	generate/STIM_012.jpg
1171.536	1.417	correct	generate	Run2	generate/STIM_012.jpg
1175.394	1.454	correct	generate	Run2	generate/STIM_013.jpg
1179.425	1.677	correct	generate	Run2	generate/STIM_013.jpg
1183.502	1.222	correct	generate	Run2	generate/STIM_013.jpg
1188.532	1.5	correct	generate	Run2	generate/STIM_013.jpg
1192.125	1.901	correct	generate	Run2	generate/STIM_013.jpg
1197.954	2.221	correct	generate	Run2	generate/STIM_014.jpg
1202.654	1.443	incorrect	generate	Run2	generate/STIM_014.jpg
1206.686	1.989	correct	generate	Run2	generate/STIM_014.jpg
1212.239	1.916	correct	generate	Run2	generate/STIM_014.jpg
1217.923	1.931	correct	generate	Run2	generate/STIM_014.jpg
1222.239	1.549	correct	generate	Run2	generate/STIM_015.jpg
1226.576	0.914	incorrect	generate	Run2	generate/STIM_015.jpg
1230.37	1.64	correct	generate	Run2	generate/STIM_015.jpg
1234.085	1.045	correct	generate	Run2	generate/STIM_015.jpg
1237.551	1.451	incorrect	generate	Run2	generate/STIM_015.jpg
1241.058	1.527	correct	generate	Run2	generate/STIM_016.jpg
1244.933	1.054	incorrect	generate	Run2	generate/STIM_016.jpg
1249.845	1.654	correct	generate	Run2	generate/STIM_016.jpg
1253.865	1.218	correct	generate	Run2	generate/STIM_016.jpg
1257.315	1.861	incorrect	generate	Run2	generate/STIM_016.jpg
1262.168	1.85	correct	generate	Run2	generate/STIM_017.jpg
1267.908	1.714	correct	generate	Run2	generate/STIM_017.jpg
1273.438	1.508	incorrect	generate	Run2	generate/STIM_017.jpg
1277.217	1.346	correct	generate	Run2	generate/STIM_017.jpg
1280.797	1.861	correct	generate	Run2	generate/STIM_017.jpg
1285.966	1.367	incorrect	generate	Run2	generate/STIM_018.jpg
1290.157	1.281	correct	generate	Run2	generate/STIM_018.jpg
1293.859	1.757	correct	generate	Run2	generate/STIM_018.jpg
1298.774	1.917	correct	generate	Run2	generate/STIM_018.jpg
1304.152	0.862	incorrect	generate	Run2	generate/STIM_018.jpg
1307.377	1.583	correct	generate	Run2	generate/STIM_019.jpg
1311.408	1.892	correct	generate	Run2	generate/STIM_019.jpg
1316.344	1.384	correct	generate	Run2	generate/STIM_019.jpg
1320.343	1.835	correct	generate	Run2	generate/STIM_019.jpg
1324.521	1.762	correct	generate	Run2	generate/STIM_019.jpg
1329.802	0.972	correct	generate	Run2	generate/STIM_020.jpg
1333.834	1.954	correct	generate	Run2	generate/STIM_020.jpg
1338.413	1.157	correct	generate	Run2	generate/STIM_020.jpg
1342.361	1.046	correct	generate	Run2	generate/STIM_020.jpg
1346.536	1.42	correct	generate	Run2	generate/STIM_020.jpg
1350.096	1.608	correct	generate	Run2	generate/STIM_021.jpg
1354.339	1.418	correct	generate	Run2	generate/STIM_021.jpg
1359.348	0.95	incorrect	generate	Run2	generate/STIM_021.jpg
1362.821	1.05	incorrect	generate	Run2	generate/STIM_021.jpg
1366.85	1.396	correct	generate	Run2	generate/STIM_021.jpg
1372.032	1.609	correct	generate	Run2	generate/STIM_022.jpg
1376.198	0.985	correct	generate	Run2	generate/STIM_022.jpg
1380.283	1.515	correct	generate	Run2	generate/STIM_022.jpg
1385.335	1.942	correct	generate	Run2	generate/STIM_022.jpg
1390.227	1.495	correct	generate	Run2	generate/STIM_022.jpg
1394.559	1.894	incorrect	generate	Run2	generate/STIM_023.jpg
1399.545	1.774	correct	generate	Run2	generate/STIM_023.jpg
1403.562	1.481	correct	generate	Run2	generate/STIM_023.jpg
1407.873	1.716	correct	generate	Run2	generate/STIM_023.jpg
1411.949	1.479	correct	generate	Run2	generate/STIM_023.jpg
1416.431	1.836	correct	generate	Run2	generate/STIM_024.jpg
1421.566	2.19	correct	generate	Run2	generate/STIM_024.jpg
1426.875	0.896	correct	generate	Run2	generate/STIM_024.jpg
1431.11	1.426	correct	generate	Run2	generate/STIM_024.jpg
1434.607	0.889	correct	generate	Run2	generate/STIM_024.jpg
1439.278	0.653	correct	repeat	Run2	repeat/STIM_000.jpg
1443.93	0.742	correct	repeat	Run2	repeat/STIM_000.jpg
1447.004	0.708	correct	repeat	Run2	repeat/STIM_000.jpg
1450.121	0.891	correct	repeat	Run2	repeat/STIM_000.jpg
1454.719	0.696	correct	repeat	Run2	repeat/STIM_000.jpg
1459.415	0.59	correct	repeat	Run2	repeat/STIM_001.jpg
1462.747	0.808	correct	repeat	Run2	repeat/STIM_001.jpg
1466.692	0.663	correct	repeat	Run2	repeat/STIM_001.jpg
1469.904	0.739	correct	repeat	Run2	repeat/STIM_001.jpg
1472.969	0.538	correct	repeat	Run2	repeat/STIM_001.jpg
1476.243	0.582	correct	repeat	Run2	repeat/STIM_002.jpg
1480.396	0.623	correct	repeat	Run2	repeat/STIM_002.jpg
1483.167	0.908	correct	repeat	Run2	repeat/STIM_002.jpg
1486.545	0.624	correct	repeat	Run2	repeat/STIM_002.jpg
1489.588	0.703	correct	repeat	Run2	repeat/STIM_002.jpg
1494.118	0.553	correct	repeat	Run2	repeat/STIM_003.jpg
1496.846	0.623	correct	repeat	Run2	repeat/STIM_003.jpg
1499.664	0.66	correct	repeat	Run2	repeat/STIM_003.jpg
1503.483	0.582	correct	repeat	Run2	repeat/STIM_003.jpg
1507.701	0.849	correct	repeat	Run2	repeat/STIM_003.jpg
1511.543	0.876	correct	repeat	Run2	repeat/STIM_004.jpg
1514.821	0.637	correct	repeat	Run2	repeat/STIM_004.jpg
1517.657	0.707	correct	repeat	Run2	repeat/STIM_004.jpg
1520.444	0.628	correct	repeat	Run2	repeat/STIM_004.jpg
1523.763	0.541	correct	repeat	Run2	repeat/STIM_004.jpg
1526.457	0.464	correct	repeat	Run2	repeat/STIM_005.jpg
1529.992	0.766	incorrect	repeat	Run2	repeat/STIM_005.jpg
1533.282	0.904	correct	repeat	Run2	repeat/STIM_005.jpg
1537.789	0.717	correct	repeat	Run2	repeat/STIM_005.jpg
1542.455	0.492	correct	repeat	Run2	repeat/STIM_005.jpg
1544.996	0.659	correct	repeat	Run2	repeat/STIM_006.jpg
1549.037	0.745	correct	repeat	Run2	repeat/STIM_006.jpg
1553.281	0.539	correct	repeat	Run2	repeat/STIM_006.jpg
1557.015	0.908	correct	repeat	Run2	repeat/STIM_006.jpg
1561.432	0.822	correct	repeat	Run2	repeat/STIM_006.jpg
1565.283	0.651	correct	repeat	Run2	repeat/STIM_007.jpg
1569.225	0.755	correct	repeat	Run2	repeat/STIM_007.jpg
1572.906	0.613	correct	repeat	Run2	repeat/STIM_007.jpg
1577.483	0.772	correct	repeat	Run2	repeat/STIM_007.jpg
1580.41	0.886	correct	repeat	Run2	repeat/STIM_007.jpg
1585.087	0.585	correct	repeat	Run2	repeat/STIM_008.jpg
1589.167	0.466	correct	repeat	Run2	repeat/STIM_008.jpg
1593.414	0.626	correct	repeat	Run2	repeat/STIM_008.jpg
1596.484	0.802	incorrect	repeat	Run2	repeat/STIM_008.jpg
1600.309	0.768	correct	repeat	Run2	repeat/STIM_008.jpg
1603.876	0.64	correct	repeat	Run2	repeat/STIM_009.jpg
1608.429	0.641	correct	repeat	Run2	repeat/STIM_009.jpg
1612.586	0.675	correct	repeat	Run2	repeat/STIM_009.jpg
1617.114	0.878	correct	repeat	Run2	repeat/STIM_009.jpg
1621.242	0.649	correct	repeat	Run2	repeat/STIM_009.jpg
1624.632	0.679	incorrect	repeat	Run2	repeat/STIM_010.jpg
1628.94	0.619	correct	repeat	Run2	repeat/STIM_010.jpg
1632.656	0.58	correct	repeat	Run2	repeat/STIM_010.jpg
1635.572	0.835	correct	repeat	Run2	repeat/STIM_010.jpg
1638.516	0.647	correct	repeat	Run2	repeat/STIM_010.jpg
1643.052	0.586	correct	repeat	Run2	repeat/STIM_011.jpg
1646.881	0.762	correct	repeat	Run2	repeat/STIM_011.jpg
1649.914	0.772	correct	repeat	Run2	repeat/STIM_011.jpg
1654.585	0.682	correct	repeat	Run2	repeat/STIM_011.jpg
1657.401	0.771	correct	repeat	Run2	repeat/STIM_011.jpg
1660.363	0.604	correct	repeat	Run2	repeat/STIM_012.jpg
1663.026	0.644	correct	repeat	Run2	repeat/STIM_012.jpg
1667.003	0.541	correct	repeat	Run2	repeat/STIM_012.jpg
1671.534	0.88	correct	repeat	Run2	repeat/STIM_012.jpg
1676.345	0.849	correct	repeat	Run2	repeat/STIM_012.jpg
1680.732	0.549	correct	repeat	Run2	repeat/STIM_013.jpg
1684.377	0.468	correct	repeat	Run2	repeat/STIM_013.jpg
1687.122	0.883	correct	repeat	Run2	repeat/STIM_013.jpg
1691.154	0.865	correct	repeat	Run2	repeat/STIM_013.jpg
1695.98	0.906	incorrect	repeat	Run2	repeat/STIM_013.jpg
1700.119	0.471	correct	repeat	Run2	repeat/STIM_014.jpg
1703.132	0.604	correct	repeat	Run2	repeat/STIM_014.jpg
1706.99	0.627	correct	repeat	Run2	repeat/STIM_014.jpg
1710.947	0.784	correct	repeat	Run2	repeat/STIM_014.jpg
1713.732	0.888	correct	repeat	Run2	repeat/STIM_014.jpg
1716.779	0.845	correct	generate	Run3	generate/STIM_000.jpg
1720.421	1.297	correct	generate	Run3	generate/STIM_000.jpg
1725.477	1.03	correct	generate	Run3	generate/STIM_000.jpg
1728.851	1.237	correct	generate	Run3	generate/STIM_000.jpg
1732.504	1.729	correct	generate	Run3	generate/STIM_000.jpg
1737.465	1.436	correct	generate	Run3	generate/STIM_001.jpg
1741.798	0.902	correct	generate	Run3	generate/STIM_001.jpg
1745.491	1.448	correct	generate	Run3	generate/STIM_001.jpg
1749.367	1.072	correct	generate	Run3	generate/STIM_001.jpg
1754.044	1.067	correct	generate	Run3	generate/STIM_001.jpg
1758.664	1.142	correct	generate	Run3	generate/STIM_002.jpg
1763.057	1.461	correct	generate	Run3	generate/STIM_002.jpg
1767.443	0.905	correct	generate	Run3	generate/STIM_002.jpg
1770.499	1.706	correct	generate	Run3	generate/STIM_002.jpg
1774.646	1.307	correct	generate	Run3	generate/STIM_002.jpg
1778.274	1.494	correct	generate	Run3	generate/STIM_003.jpg
1782.877	0.99	correct	generate	Run3	generate/STIM_003.jpg
1786.859	1.185	correct	generate	Run3	generate/STIM_003.jpg
1790.07	1.853	correct	generate	Run3	generate/STIM_003.jpg
1794.336	1.801	correct	generate	Run3	generate/STIM_003.jpg
1799.138	0.959	correct	generate	Run3	generate/STIM_004.jpg
1803.982	1.939	correct	generate	Run3	generate/STIM_004.jpg
1809.844	0.852	incorrect	generate	Run3	generate/STIM_004.jpg
1814.584	0.984	correct	generate	Run3	generate/STIM_004.jpg
1819.203	0.825	correct	generate	Run3	generate/STIM_004.jpg
1823.723	1.449	correct	generate	Run3	generate/STIM_005.jpg
1827.287	1.629	correct	generate	Run3	generate/STIM_005.jpg
1832.862	1.418	correct	generate	Run3	generate/STIM_005.jpg
1837.653	1.849	correct	generate	Run3	generate/STIM_005.jpg
1842.2	1.046	correct	generate	Run3	generate/STIM_005.jpg
1845.659	0.915	correct	generate	Run3	generate/STIM_006.jpg
1849.75	1.319	correct	generate	Run3	generate/STIM_006.jpg
1854.49	1.093	correct	generate	Run3	generate/STIM_006.jpg
1857.96	1.482	correct	generate	Run3	generate/STIM_006.jpg
1862.258	1.009	correct	generate	Run3	generate/STIM_006.jpg
1866.703	1.734	correct	generate	Run3	generate/STIM_007.jpg
1871.991	0.88	incorrect	generate	Run3	generate/STIM_007.jpg
1875.389	0.788	correct	generate	Run3	generate/STIM_007.jpg
1879.09	1.582	correct	generate	Run3	generate/STIM_007.jpg
1882.804	1.41	correct	generate	Run3	generate/STIM_007.jpg
1887.17	1.136	correct	generate	Run3	generate/STIM_008.jpg
1891.716	1.326	correct	generate	Run3	generate/STIM_008.jpg
1895.188	1.57	correct	generate	Run3	generate/STIM_008.jpg
1898.927	0.82	correct	generate	Run3	generate/STIM_008.jpg
1902.376	1.323	correct	generate	Run3	generate/STIM_008.jpg
1906.748	1.304	correct	generate	Run3	generate/STIM_009.jpg
1910.301	1.801	correct	generate	Run3	generate/STIM_009.jpg
1914.824	0.991	correct	generate	Run3	generate/STIM_009.jpg
1918.0	1.291	correct	generate	Run3	generate/STIM_009.jpg
1921.535	1.794	correct	generate	Run3	generate/STIM_009.jpg
1925.535	1.78	correct	generate	Run3	generate/STIM_010.jpg
1930.721	1.877	correct	generate	Run3	generate/STIM_010.jpg
1935.489	1.08	correct	generate	Run3	generate/STIM_010.jpg
1939.397	1.544	correct	generate	Run3	generate/STIM_010.jpg
1944.213	0.781	correct	generate	Run3	generate/STIM_010.jpg
1948.29	1.64	correct	generate	Run3	generate/STIM_011.jpg
1952.168	1.243	correct	generate	Run3	generate/STIM_011.jpg
1956.484	1.346	correct	generate	Run3	generate/STIM_011.jpg
1961.297	1.587	correct	generate	Run3	generate/STIM_011.jpg
1965.701	1.817	correct	generate	Run3	generate/STIM_011.jpg
1969.802	1.339	correct	generate	Run3	generate/STIM_012.jpg
1974.883	0.779	correct	generate	Run3	generate/STIM_012.jpg
1978.686	0.829	correct	generate	Run3	generate/STIM_012.jpg
1983.019	1.182	correct	generate	Run3	generate/STIM_012.jpg
1987.682	1.31	correct	generate	Run3	generate/STIM_012.jpg
1991.78	1.944	correct	generate	Run3	generate/STIM_013.jpg
1997.588	1.768	correct	generate	Run3	generate/STIM_013.jpg
2002.991	1.878	correct	generate	Run3	generate/STIM_013.jpg
2008.867	1.449	correct	generate	Run3	generate/STIM_013.jpg
2013.233	1.367	correct	generate	Run3	generate/STIM_013.jpg
2018.408	1.907	incorrect	generate	Run3	generate/STIM_014.jpg
2023.523	1.339	correct	generate	Run3	generate/STIM_014.jpg
2027.078	1.269	correct	generate	Run3	generate/STIM_014.jpg
2032.238	1.727	correct	generate	Run3	generate/STIM_014.jpg
2036.025	1.921	incorrect	generate	Run3	generate/STIM_014.jpg
2041.746	0.985	correct	generate	Run3	generate/STIM_015.jpg
2045.75	1.927	correct	generate	Run3	generate/STIM_015.jpg
2049.816	1.318	correct	generate	Run3	generate/STIM_015.jpg
2053.795	1.433	correct	generate	Run3	generate/STIM_015.jpg
2059.163	0.922	correct	generate	Run3	generate/STIM_015.jpg
2062.115	1.832	correct	generate	Run3	generate/STIM_016.jpg
2066.672	0.89	correct	generate	Run3	generate/STIM_016.jpg
2070.92	1.032	correct	generate	Run3	generate/STIM_016.jpg
2075.814	1.452	correct	generate	Run3	generate/STIM_016.jpg
2080.914	1.616	correct	generate	Run3	generate/STIM_016.jpg
2086.402	0.878	correct	generate	Run3	generate/STIM_017.jpg
2090.2	1.772	incorrect	generate	Run3	generate/STIM_017.jpg
2094.892	1.119	incorrect	generate	Run3	generate/STIM_017.jpg
2099.889	0.947	correct	generate	Run3	generate/STIM_017.jpg
2103.944	1.112	correct	generate	Run3	generate/STIM_017.jpg
2107.303	1.509	incorrect	generate	Run3	generate/STIM_018.jpg
2111.715	1.414	correct	generate	Run3	generate/STIM_018.jpg
2115.799	1.562	correct	generate	Run3	generate/STIM_018.jpg
2120.344	0.894	correct	generate	Run3	generate/STIM_018.jpg
2123.884	0.865	correct	generate	Run3	generate/STIM_018.jpg
2126.901	0.83	correct	generate	Run3	generate/STIM_019.jpg
2129.858	1.09	correct	generate	Run3	generate/STIM_019.jpg
2133.915	0.804	correct	generate	Run3	generate/STIM_019.jpg
2136.729	1.246	correct	generate	Run3	generate/STIM_019.jpg
2141.012	1.204	correct	generate	Run3	generate/STIM_019.jpg
2145.993	1.866	correct	generate	Run3	generate/STIM_020.jpg
2150.368	1.575	correct	generate	Run3	generate/STIM_020.jpg
2154.616	1.443	incorrect	generate	Run3	generate/STIM_020.jpg
2158.476	1.543	correct	generate	Run3	generate/STIM_020.jpg
2162.697	1.378	correct	generate	Run3	generate/STIM_020.jpg
2166.776	1.456	correct	generate	Run3	generate/STIM_021.jpg
2170.32	1.233	correct	generate	Run3	generate/STIM_021.jpg
2173.58	1.16	correct	generate	Run3	generate/STIM_021.jpg
2177.754	1.648	correct	generate	Run3	generate/STIM_021.jpg
2181.656	1.599	correct	generate	Run3	generate/STIM_021.jpg
2187.139	1.191	incorrect	generate	Run3	generate/STIM_022.jpg
2192.189	1.142	correct	generate	Run3	generate/STIM_022.jpg
2197.234	1.687	correct	generate	Run3	generate/STIM_022.jpg
2202.124	1.184	correct	generate	Run3	generate/STIM_022.jpg
2205.781	1.756	correct	generate	Run3	generate/STIM_022.jpg
2211.506	1.535	correct	generate	Run3	generate/STIM_023.jpg
2216.081	1.917	correct	generate	Run3	generate/STIM_023.jpg
2220.289	1.718	correct	generate	Run3	generate/STIM_023.jpg
2224.999	1.826	correct	generate	Run3	generate/STIM_023.jpg
2229.099	1.907	correct	generate	Run3	generate/STIM_023.jpg
2233.72	1.474	correct	generate	Run3	generate/STIM_024.jpg
2239.118	1.383	correct	generate	Run3	generate/STIM_024.jpg
2242.891	1.488	correct	generate	Run3	generate/STIM_024.jpg
2247.87	1.395	incorrect	generate	Run3	generate/STIM_024.jpg
2251.687	1.345	correct	generate	Run3	generate/STIM_024.jpg
2256.631	0.896	correct	repeat	Run3	repeat/STIM_000.jpg
2260.615	0.795	correct	repeat	Run3	repeat/STIM_000.jpg
2264.506	0.611	correct	repeat	Run3	repeat/STIM_000.jpg
2268.508	0.658	correct	repeat	Run3	repeat/STIM_000.jpg
2272.306	0.879	correct	repeat	Run3	repeat/STIM_000.jpg
2275.494	0.705	correct	repeat	Run3	repeat/STIM_001.jpg
2279.051	0.888	correct	repeat	Run3	repeat/STIM_001.jpg
2283.547	0.542	correct	repeat	Run3	repeat/STIM_001.jpg
2286.489	0.838	correct	repeat	Run3	repeat/STIM_001.jpg
2290.804	0.871	correct	repeat	Run3	repeat/STIM_001.jpg
2295.46	0.62	correct	repeat	Run3	repeat/STIM_002.jpg
2299.43	0.533	correct	repeat	Run3	repeat/STIM_002.jpg
2302.691	0.548	correct	repeat	Run3	repeat/STIM_002.jpg
2305.945	0.477	incorrect	repeat	Run3	repeat/STIM_002.jpg
2309.098	0.922	correct	repeat	Run3	repeat/STIM_002.jpg
2312.407	0.885	correct	repeat	Run3	repeat/STIM_003.jpg
2315.73	0.619	incorrect	repeat	Run3	repeat/STIM_003.jpg
2320.325	0.518	correct	repeat	Run3	repeat/STIM_003.jpg
2323.166	0.726	correct	repeat	Run3	repeat/STIM_003.jpg
2327.689	0.838	correct	repeat	Run3	repeat/STIM_003.jpg
2330.724	0.753	correct	repeat	Run3	repeat/STIM_004.jpg
2334.924	0.577	incorrect	repeat	Run3	repeat/STIM_004.jpg
2339.295	0.534	incorrect	repeat	Run3	repeat/STIM_004.jpg
2343.734	0.53	correct	repeat	Run3	repeat/STIM_004.jpg
2347.899	0.759	correct	repeat	Run3	repeat/STIM_004.jpg
2351.482	0.79	correct	repeat	Run3	repeat/STIM_005.jpg
2354.326	0.638	correct	repeat	Run3	repeat/STIM_005.jpg
2357.347	0.838	correct	repeat	Run3	repeat/STIM_005.jpg
2362.047	0.756	correct	repeat	Run3	repeat/STIM_005.jpg
2365.748	0.525	correct	repeat	Run3	repeat/STIM_005.jpg
2368.684	0.546	correct	repeat	Run3	repeat/STIM_006.jpg
2372.6	0.485	correct	repeat	Run3	repeat/STIM_006.jpg
2375.72	0.669	correct	repeat	Run3	repeat/STIM_006.jpg
2378.845	0.499	correct	repeat	Run3	repeat/STIM_006.jpg
2381.565	0.766	correct	repeat	Run3	repeat/STIM_006.jpg
2386.223	0.888	correct	repeat	Run3	repeat/STIM_007.jpg
2389.542	0.73	correct	repeat	Run3	repeat/STIM_007.jpg
2392.64	0.861	correct	repeat	Run3	repeat/STIM_007.jpg
2396.892	0.85	correct	repeat	Run3	repeat/STIM_007.jpg
2400.182	0.602	correct	repeat	Run3	repeat/STIM_007.jpg
2403.042	0.786	correct	repeat	Run3	repeat/STIM_008.jpg
2406.007	0.673	correct	repeat	Run3	repeat/STIM_008.jpg
2409.444	0.473	correct	repeat	Run3	repeat/STIM_008.jpg
2412.456	0.734	correct	repeat	Run3	repeat/STIM_008.jpg
2416.99	0.828	correct	repeat	Run3	repeat/STIM_008.jpg
2421.151	0.891	correct	repeat	Run3	repeat/STIM_009.jpg
2424.424	0.92	correct	repeat	Run3	repeat/STIM_009.jpg
2429.286	0.865	incorrect	repeat	Run3	repeat/STIM_009.jpg
2433.507	0.883	correct	repeat	Run3	repeat/STIM_009.jpg
2437.0	0.802	correct	repeat	Run3	repeat/STIM_009.jpg
2440.042	0.692	correct	repeat	Run3	repeat/STIM_010.jpg
2444.045	0.902	correct	repeat	Run3	repeat/STIM_010.jpg
2448.468	0.786	correct	repeat	Run3	repeat/STIM_010.jpg
2452.455	0.477	correct	repeat	Run3	repeat/STIM_010.jpg
2456.526	0.648	correct	repeat	Run3	repeat/STIM_010.jpg
2460.108	0.745	correct	repeat	Run3	repeat/STIM_011.jpg
2462.878	0.753	correct	repeat	Run3	repeat/STIM_011.jpg
2466.336	0.569	correct	repeat	Run3	repeat/STIM_011.jpg
2469.996	0.66	correct	repeat	Run3	repeat/STIM_011.jpg
2473.647	0.795	correct	repeat	Run3	repeat/STIM_011.jpg
2477.295	0.537	correct	repeat	Run3	repeat/STIM_012.jpg
2480.265	0.612	correct	repeat	Run3	repeat/STIM_012.jpg
2482.975	0.721	correct	repeat	Run3	repeat/STIM_012.jpg
2487.403	0.507	correct	repeat	Run3	repeat/STIM_012.jpg
2490.662	0.864	correct	repeat	Run3	repeat/STIM_012.jpg
2494.176	0.807	correct	repeat	Run3	repeat/STIM_013.jpg
2498.781	0.662	correct	repeat	Run3	repeat/STIM_013.jpg
2502.221	0.477	correct	repeat	Run3	repeat/STIM_013.jpg
2505.991	0.853	correct	repeat	Run3	repeat/STIM_013.jpg
2509.313	0.737	correct	repeat	Run3	repeat/STIM_013.jpg
2513.951	0.533	correct	repeat	Run3	repeat/STIM_014.jpg
2517.747	0.76	correct	repeat	Run3	repeat/STIM_014.jpg
2522.197	0.662	correct	repeat	Run3	repeat/STIM_014.jpg
2525.834	0.547	correct	repeat	Run3	repeat/STIM_014.jpg
2529.373	0.921	correct	repeat	Run3	repeat/STIM_014.jpg
2533.17	1.833	correct	generate	Run4	generate/STIM_000.jpg
2537.391	1.506	correct	generate	Run4	generate/STIM_000.jpg
2541.505	1.589	correct	generate	Run4	generate/STIM_000.jpg
2545.6	0.868	correct	generate	Run4	generate/STIM_000.jpg
2548.695	1.849	correct	generate	Run4	generate/STIM_000.jpg
2554.38	1.886	correct	generate	Run4	generate/STIM_001.jpg
2559.075	1.065	correct	generate	Run4	generate/STIM_001.jpg
2563.935	1.719	correct	generate	Run4	generate/STIM_001.jpg
2568.002	1.325	correct	generate	Run4	generate/STIM_001.jpg
2572.083	1.607	correct	generate	Run4	generate/STIM_001.jpg
2576.906	1.732	correct	generate	Run4	generate/STIM_002.jpg
2580.647	1.212	correct	generate	Run4	generate/STIM_002.jpg
2585.186	0.853	correct	generate	Run4	generate/STIM_002.jpg
2589.287	1.297	correct	generate	Run4	generate/STIM_002.jpg
2593.033	1.632	correct	generate	Run4	generate/STIM_002.jpg
2596.792	0.794	correct	generate	Run4	generate/STIM_003.jpg
2601.273	1.642	correct	generate	Run4	generate/STIM_003.jpg
2606.397	1.63	correct	generate	Run4	generate/STIM_003.jpg
2610.924	0.856	correct	generate	Run4	generate/STIM_003.jpg
2614.837	1.247	correct	generate	Run4	generate/STIM_003.jpg
2618.303	1.35	correct	generate	Run4	generate/STIM_004.jpg
2623.222	0.86	correct	generate	Run4	generate/STIM_004.jpg
2626.555	1.046	correct	generate	Run4	generate/STIM_004.jpg
2631.557	1.924	correct	generate	Run4	generate/STIM_004.jpg
2636.602	1.702	correct	generate	Run4	generate/STIM_004.jpg
2641.827	1.721	correct	generate	Run4	generate/STIM_005.jpg
2645.921	1.53	correct	generate	Run4	generate/STIM_005.jpg
2651.386	1.116	correct	generate	Run4	generate/STIM_005.jpg
2656.02	1.31	correct	generate	Run4	generate/STIM_005.jpg
2660.008	1.293	correct	generate	Run4	generate/STIM_005.jpg
2663.557	1.613	correct	generate	Run4	generate/STIM_006.jpg
2668.742	1.093	correct	generate	Run4	generate/STIM_006.jpg
2672.156	1.285	correct	generate	Run4	generate/STIM_006.jpg
2677.214	0.872	correct	generate	Run4	generate/STIM_006.jpg
2681.718	1.77	correct	generate	Run4	generate/STIM_006.jpg
2686.259	1.013	correct	generate	Run4	generate/STIM_007.jpg
2689.301	1.506	correct	generate	Run4	generate/STIM_007.jpg
2693.51	1.475	correct	generate	Run4	generate/STIM_007.jpg
2698.703	1.679	correct	generate	Run4	generate/STIM_007.jpg
2703.171	1.491	correct	generate	Run4	generate/STIM_007.jpg
2708.642	1.942	correct	generate	Run4	generate/STIM_008.jpg
2714.393	1.757	correct	generate	Run4	generate/STIM_008.jpg
2719.336	1.07	correct	generate	Run4	generate/STIM_008.jpg
2723.741	0.829	correct	generate	Run4	generate/STIM_008.jpg
2726.78	0.97	correct	generate	Run4	generate/STIM_008.jpg
2729.92	1.442	correct	generate	Run4	generate/STIM_009.jpg
2733.365	1.746	correct	generate	Run4	generate/STIM_009.jpg
2737.907	0.927	correct	generate	Run4	generate/STIM_009.jpg
2742.465	1.406	correct	generate	Run4	generate/STIM_009.jpg
2746.387	1.835	correct	generate	Run4	generate/STIM_009.jpg
2750.416	1.039	correct	generate	Run4	generate/STIM_010.jpg
2755.208	1.735	correct	generate	Run4	generate/STIM_010.jpg
2759.12	0.903	correct	generate	Run4	generate/STIM_010.jpg
2762.835	1.78	correct	generate	Run4	generate/STIM_010.jpg
2768.523	1.818	correct	generate	Run4	generate/STIM_010.jpg
2772.856	1.437	correct	generate	Run4	generate/STIM_011.jpg
2777.127	1.153	correct	generate	Run4	generate/STIM_011.jpg
2782.06	1.723	correct	generate	Run4	generate/STIM_011.jpg
2786.878	0.847	correct	generate	Run4	generate/STIM_011.jpg
2790.341	0.782	correct	generate	Run4	generate/STIM_011.jpg
2794.021	1.272	correct	generate	Run4	generate/STIM_012.jpg
2798.275	1.67	correct	generate	Run4	generate/STIM_012.jpg
2802.947	0.797	correct	generate	Run4	generate/STIM_012.jpg
2805.973	0.923	correct	generate	Run4	generate/STIM_012.jpg
2810.11	1.266	correct	generate	Run4	generate/STIM_012.jpg
2814.381	1.359	correct	generate	Run4	generate/STIM_013.jpg
2818.651	0.953	correct	generate	Run4	generate/STIM_013.jpg
2822.067	0.814	correct	generate	Run4	generate/STIM_013.jpg
2825.353	1.284	correct	generate	Run4	generate/STIM_013.jpg
2829.395	1.278	correct	generate	Run4	generate/STIM_013.jpg
2834.351	1.794	correct	generate	Run4	generate/STIM_014.jpg
2838.447	1.258	correct	generate	Run4	generate/STIM_014.jpg
2843.314	0.865	correct	generate	Run4	generate/STIM_014.jpg
2846.346	1.487	correct	generate	Run4	generate/STIM_014.jpg
2851.616	1.064	correct	generate	Run4	generate/STIM_014.jpg
2855.672	1.749	correct	generate	Run4	generate/STIM_015.jpg
2860.561	1.788	correct	generate	Run4	generate/STIM_015.jpg
2865.538	1.521	correct	generate	Run4	generate/STIM_015.jpg
2870.795	1.429	correct	generate	Run4	generate/STIM_015.jpg
2875.135	1.104	correct	generate	Run4	generate/STIM_015.jpg
2879.257	0.852	correct	generate	Run4	generate/STIM_016.jpg
2882.15	0.917	correct	generate	Run4	generate/STIM_016.jpg
2885.872	1.03	correct	generate	Run4	generate/STIM_016.jpg
2889.982	1.507	correct	generate	Run4	generate/STIM_016.jpg
2894.11	1.005	correct	generate	Run4	generate/STIM_016.jpg
2898.548	1.692	correct	generate	Run4	generate/STIM_017.jpg
2903.492	0.953	incorrect	generate	Run4	generate/STIM_017.jpg
2906.969	1.873	correct	generate	Run4	generate/STIM_017.jpg
2911.66	1.594	correct	generate	Run4	generate/STIM_017.jpg
2916.524	1.173	correct	generate	Run4	generate/STIM_017.jpg
2919.897	0.782	correct	generate	Run4	generate/STIM_018.jpg
2924.013	0.914	correct	generate	Run4	generate/STIM_018.jpg
2928.368	1.449	correct	generate	Run4	generate/STIM_018.jpg
2933.288	1.236	correct	generate	Run4	generate/STIM_018.jpg
2937.272	1.736	correct	generate	Run4	generate/STIM_018.jpg
2942.251	1.529	correct	generate	Run4	generate/STIM_019.jpg
2946.955	0.936	correct	generate	Run4	generate/STIM_019.jpg
2951.524	1.858	incorrect	generate	Run4	generate/STIM_019.jpg
2955.84	1.824	correct	generate	Run4	generate/STIM_019.jpg
2959.777	1.224	correct	generate	Run4	generate/STIM_019.jpg
2963.54	0.84	correct	generate	Run4	generate/STIM_020.jpg
2967.133	1.238	correct	generate	Run4	generate/STIM_020.jpg
2971.793	1.814	correct	generate	Run4	generate/STIM_020.jpg
2977.194	1.109	correct	generate	Run4	generate/STIM_020.jpg
2981.783	1.887	correct	generate	Run4	generate/STIM_020.jpg
2987.026	1.7	correct	generate	Run4	generate/STIM_021.jpg
2991.049	1.136	correct	generate	Run4	generate/STIM_021.jpg
2995.972	1.157	correct	generate	Run4	generate/STIM_021.jpg
2999.394	1.182	correct	generate	Run4	generate/STIM_021.jpg
3004.43	0.896	correct	generate	Run4	generate/STIM_021.jpg
3007.986	1.5	incorrect	generate	Run4	generate/STIM_022.jpg
3012.272	1.72	correct	generate	Run4	generate/STIM_022.jpg
3016.449	1.12	correct	generate	Run4	generate/STIM_022.jpg
3021.372	1.917	correct	generate	Run4	generate/STIM_022.jpg
3027.266	1.544	correct	generate	Run4	generate/STIM_022.jpg
3031.368	0.973	correct	generate	Run4	generate/STIM_023.jpg
3035.5	1.02	correct	generate	Run4	generate/STIM_023.jpg
3040.418	1.405	correct	generate	Run4	generate/STIM_023.jpg
3045.381	0.907	correct	generate	Run4	generate/STIM_023.jpg
3048.34	1.567	correct	generate	Run4	generate/STIM_023.jpg
3052.185	1.623	correct	generate	Run4	generate/STIM_024.jpg
3057.465	1.153	correct	generate	Run4	generate/STIM_024.jpg
3062.386	1.091	correct	generate	Run4	generate/STIM_024.jpg
3066.585	1.695	correct	generate	Run4	generate/STIM_024.jpg
3071.996	1.562	correct	generate	Run4	generate/STIM_024.jpg
3077.423	0.831	incorrect	repeat	Run4	repeat/STIM_000.jpg
3081.888	0.885	correct	repeat	Run4	repeat/STIM_000.jpg
3085.381	0.926	correct	repeat	Run4	repeat/STIM_000.jpg
3089.785	0.803	correct	repeat	Run4	repeat/STIM_000.jpg
3094.436	0.742	correct	repeat	Run4	repeat/STIM_000.jpg
3098.992	0.896	correct	repeat	Run4	repeat/STIM_001.jpg
3102.588	0.505	correct	repeat	Run4	repeat/STIM_001.jpg
3107.024	0.692	incorrect	repeat	Run4	repeat/STIM_001.jpg
3111.674	0.559	correct	repeat	Run4	repeat/STIM_001.jpg
3115.406	0.592	correct	repeat	Run4	repeat/STIM_001.jpg
3119.362	0.887	correct	repeat	Run4	repeat/STIM_002.jpg
3123.381	0.609	correct	repeat	Run4	repeat/STIM_002.jpg
3126.091	0.489	correct	repeat	Run4	repeat/STIM_002.jpg
3129.163	0.553	correct	repeat	Run4	repeat/STIM_002.jpg
3133.677	0.747	correct	repeat	Run4	repeat/STIM_002.jpg
3138.013	0.566	correct	repeat	Run4	repeat/STIM_003.jpg
3140.967	0.752	correct	repeat	Run4	repeat/STIM_003.jpg
3144.316	0.843	correct	repeat	Run4	repeat/STIM_003.jpg
3148.239	0.864	incorrect	repeat	Run4	repeat/STIM_003.jpg
3151.403	0.612	correct	repeat	Run4	repeat/STIM_003.jpg
3154.813	0.82	correct	repeat	Run4	repeat/STIM_004.jpg
3158.829	0.752	incorrect	repeat	Run4	repeat/STIM_004.jpg
3163.113	0.814	correct	repeat	Run4	repeat/STIM_004.jpg
3167.61	0.691	correct	repeat	Run4	repeat/STIM_004.jpg
3172.127	0.65	correct	repeat	Run4	repeat/STIM_004.jpg
3176.158	0.798	correct	repeat	Run4	repeat/STIM_005.jpg
3179.363	0.785	correct	repeat	Run4	repeat/STIM_005.jpg
3182.251	0.842	correct	repeat	Run4	repeat/STIM_005.jpg
3185.502	0.673	correct	repeat	Run4	repeat/STIM_005.jpg
3189.852	0.592	correct	repeat	Run4	repeat/STIM_005.jpg
3192.962	0.56	correct	repeat	Run4	repeat/STIM_006.jpg
3195.525	0.672	correct	repeat	Run4	repeat/STIM_006.jpg
3199.826	0.87	correct	repeat	Run4	repeat/STIM_006.jpg
3202.873	0.668	correct	repeat	Run4	repeat/STIM_006.jpg
3206.427	0.83	correct	repeat	Run4	repeat/STIM_006.jpg
3209.351	0.642	correct	repeat	Run4	repeat/STIM_007.jpg
3212.835	0.767	correct	repeat	Run4	repeat/STIM_007.jpg
3216.294	0.582	correct	repeat	Run4	repeat/STIM_007.jpg
3219.681	0.75	correct	repeat	Run4	repeat/STIM_007.jpg
3224.348	0.572	correct	repeat	Run4	repeat/STIM_007.jpg
3227.408	0.724	correct	repeat	Run4	repeat/STIM_008.jpg
3231.053	0.592	correct	repeat	Run4	repeat/STIM_008.jpg
3234.427	0.636	correct	repeat	Run4	repeat/STIM_008.jpg
3238.318	0.491	correct	repeat	Run4	repeat/STIM_008.jpg
3241.078	0.592	correct	repeat	Run4	repeat/STIM_008.jpg
3245.084	0.802	correct	repeat	Run4	repeat/STIM_009.jpg
3248.078	0.702	correct	repeat	Run4	repeat/STIM_009.jpg
3251.82	0.521	correct	repeat	Run4	repeat/STIM_009.jpg
3254.596	0.8	correct	repeat	Run4	repeat/STIM_009.jpg
3257.752	0.531	correct	repeat	Run4	repeat/STIM_009.jpg
3261.601	0.572	correct	repeat	Run4	repeat/STIM_010.jpg
3264.606	0.674	correct	repeat	Run4	repeat/STIM_010.jpg
3269.08	0.477	correct	repeat	Run4	repeat/STIM_010.jpg
3272.988	0.681	correct	repeat	Run4	repeat/STIM_010.jpg
3276.199	0.649	correct	repeat	Run4	repeat/STIM_010.jpg
3279.008	0.764	correct	repeat	Run4	repeat/STIM_011.jpg
3282.793	0.722	correct	repeat	Run4	repeat/STIM_011.jpg
3285.516	0.722	correct	repeat	Run4	repeat/STIM_011.jpg
3289.746	0.883	correct	repeat	Run4	repeat/STIM_011.jpg
3293.782	0.72	correct	repeat	Run4	repeat/STIM_011.jpg
3296.61	0.68	correct	repeat	Run4	repeat/STIM_012.jpg
3299.473	0.86	correct	repeat	Run4	repeat/STIM_012.jpg
3302.987	0.549	correct	repeat	Run4	repeat/STIM_012.jpg
3306.994	0.523	correct	repeat	Run4	repeat/STIM_012.jpg
3311.435	0.85	correct	repeat	Run4	repeat/STIM_012.jpg
3315.672	0.521	correct	repeat	Run4	repeat/STIM_013.jpg
3319.677	0.581	correct	repeat	Run4	repeat/STIM_013.jpg
3323.469	0.578	correct	repeat	Run4	repeat/STIM_013.jpg
3327.051	0.493	correct	repeat	Run4	repeat/STIM_013.jpg
3330.561	0.563	correct	repeat	Run4	repeat/STIM_013.jpg
3334.596	0.553	correct	repeat	Run4	repeat/STIM_014.jpg
3338.702	0.812	incorrect	repeat	Run4	repeat/STIM_014.jpg
3342.033	0.875	correct	repeat	Run4	repeat/STIM_014.jpg
3346.041	0.803	correct	repeat	Run4	repeat/STIM_014.jpg
3349.015	0.531	correct	repeat	Run4	repeat/STIM_014.jpg
