onset	duration	accuracy_binary	trial_type	learning_stage	stimulus
0.0	2.434	0	generate	Run1	generate/STIM_000.jpg
5.796	1.65	1	generate	Run1	generate/STIM_000.jpg
10.863	1.317	1	generate	Run1	generate/STIM_000.jpg
15.093	2.222	1	generate	Run1	generate/STIM_000.jpg
20.476	1.041	1	generate	Run1	generate/STIM_000.jpg
24.545	2.076	0	generate	Run1	generate/STIM_001.jpg
30.209	2.085	1	generate	Run1	generate/STIM_001.jpg
34.613	1.176	1	generate	Run1	generate/STIM_001.jpg
39.725	1.771	0	generate	Run1	generate/STIM_001.jpg
44.842	1.228	1	generate	Run1	generate/STIM_001.jpg
50.027	1.577	1	generate	Run1	generate/STIM_002.jpg
55.188	1.582	1	generate	Run1	generate/STIM_002.jpg
60.686	1.324	1	generate	Run1	generate/STIM_002.jpg
65.938	1.493	1	generate	Run1	generate/STIM_002.jpg
70.088	1.386	1	generate	Run1	generate/STIM_002.jpg
74.129	2.239	1	generate	Run1	generate/STIM_003.jpg
78.398	1.798	1	generate	Run1	generate/STIM_003.jpg
82.45	1.262	1	generate	Run1	generate/STIM_003.jpg
86.288	1.195	1	generate	Run1	generate/STIM_003.jpg
91.223	1.912	0	generate	Run1	generate/STIM_003.jpg
95.623	1.126	1	generate	Run1	generate/STIM_004.jpg
99.48	1.318	1	generate	Run1	generate/STIM_004.jpg
104.669	2.189	1	generate	Run1	generate/STIM_004.jpg
110.428	1.363	0	generate	Run1	generate/STIM_004.jpg
115.611	1.042	1	generate	Run1	generate/STIM_004.jpg
120.198	1.123	1	generate	Run1	generate/STIM_005.jpg
124.325	1.722	1	generate	Run1	generate/STIM_005.jpg
129.897	2.132	1	generate	Run1	generate/STIM_005.jpg
134.573	1.322	0	generate	Run1	generate/STIM_005.jpg
138.719	1.208	0	generate	Run1	generate/STIM_005.jpg
143.414	1.703	1	generate	Run1	generate/STIM_006.jpg
147.546	1.919	0	generate	Run1	generate/STIM_006.jpg
152.767	2.392	1	generate	Run1	generate/STIM_006.jpg
157.867	2.131	0	generate	Run1	generate/STIM_006.jpg
163.918	1.976	0	generate	Run1	generate/STIM_006.jpg
169.13	2.467	1	generate	Run1	generate/STIM_007.jpg
173.915	2.403	1	generate	Run1	generate/STIM_007.jpg
178.47	1.922	0	generate	Run1	generate/STIM_007.jpg
183.644	1.538	1	generate	Run1	generate/STIM_007.jpg
187.27	1.369	1	generate	Run1	generate/STIM_007.jpg
191.701	2.451	1	generate	Run1	generate/STIM_008.jpg
197.094	1.898	1	generate	Run1	generate/STIM_008.jpg
201.543	1.089	1	generate	Run1	generate/STIM_008.jpg
205.594	2.023	1	generate	Run1	generate/STIM_008.jpg
211.125	1.537	1	generate	Run1	generate/STIM_008.jpg
215.291	1.782	1	generate	Run1	generate/STIM_009.jpg
219.826	1.987	1	generate	Run1	generate/STIM_009.jpg
224.962	1.254	1	generate	Run1	generate/STIM_009.jpg
229.917	1.898	1	generate	Run1	generate/STIM_009.jpg
235.758	0.999	0	generate	Run1	generate/STIM_009.jpg
239.03	2.353	1	generate	Run1	generate/STIM_010.jpg
245.034	1.4	0	generate	Run1	generate/STIM_010.jpg
250.351	2.223	1	generate	Run1	generate/STIM_010.jpg
255.912	2.081	1	generate	Run1	generate/STIM_010.jpg
260.056	1.814	0	generate	Run1	generate/STIM_010.jpg
265.175	1.28	1	generate	Run1	generate/STIM_011.jpg
268.82	2.252	1	generate	Run1	generate/STIM_011.jpg
273.458	1.51	1	generate	Run1	generate/STIM_011.jpg
278.086	1.509	0	generate	Run1	generate/STIM_011.jpg
282.052	1.522	1	generate	Run1	generate/STIM_011.jpg
286.427	1.414	1	generate	Run1	generate/STIM_012.jpg
290.255	2.465	1	generate	Run1	generate/STIM_012.jpg
295.51	2.253	1	generate	Run1	generate/STIM_012.jpg
300.638	1.523	1	generate	Run1	generate/STIM_012.jpg
305.741	1.928	1	generate	Run1	generate/STIM_012.jpg
311.488	1.788	1	generate	Run1	generate/STIM_013.jpg
316.712	1.648	1	generate	Run1	generate/STIM_013.jpg
321.386	2.302	1	generate	Run1	generate/STIM_013.jpg
327.534	1.796	1	generate	Run1	generate/STIM_013.jpg
331.359	1.688	0	generate	Run1	generate/STIM_013.jpg
336.209	1.608	1	generate	Run1	generate/STIM_014.jpg
341.721	2.613	1	generate	Run1	generate/STIM_014.jpg
347.159	2.031	0	generate	Run1	generate/STIM_014.jpg
351.214	1.03	1	generate	Run1	generate/STIM_014.jpg
354.648	0.914	0	generate	Run1	generate/STIM_014.jpg
359.046	2.554	1	generate	Run1	generate/STIM_015.jpg
365.41	2.212	1	generate	Run1	generate/STIM_015.jpg
371.256	1.119	1	generate	Run1	generate/STIM_015.jpg
374.377	1.128	1	generate	Run1	generate/STIM_015.jpg
378.145	1.982	0	generate	Run1	generate/STIM_015.jpg
382.315	1.34	1	generate	Run1	generate/STIM_016.jpg
385.749	1.811	1	generate	Run1	generate/STIM_016.jpg
391.514	1.636	1	generate	Run1	generate/STIM_016.jpg
397.143	2.092	1	generate	Run1	generate/STIM_016.jpg
402.572	2.052	1	generate	Run1	generate/STIM_016.jpg
408.506	2.072	0	generate	Run1	generate/STIM_017.jpg
413.539	1.649	1	generate	Run1	generate/STIM_017.jpg
418.245	1.226	1	generate	Run1	generate/STIM_017.jpg
422.327	1.251	1	generate	Run1	generate/STIM_017.jpg
427.495	1.179	0	generate	Run1	generate/STIM_017.jpg
432.07	1.37	1	generate	Run1	generate/STIM_018.jpg
436.554	1.646	0	generate	Run1	generate/STIM_018.jpg
441.41	1.047	1	generate	Run1	generate/STIM_018.jpg
446.341	1.324	0	generate	Run1	generate/STIM_018.jpg
450.158	1.942	0	generate	Run1	generate/STIM_018.jpg
455.441	1.338	1	generate	Run1	generate/STIM_019.jpg
459.192	1.268	1	generate	Run1	generate/STIM_019.jpg
463.504	2.341	1	generate	Run1	generate/STIM_019.jpg
468.572	1.603	1	generate	Run1	generate/STIM_019.jpg
473.394	0.99	1	generate	Run1	generate/STIM_019.jpg
478.032	2.226	0	generate	Run1	generate/STIM_020.jpg
483.284	1.406	0	generate	Run1	generate/STIM_020.jpg
488.478	1.005	0	generate	Run1	generate/STIM_020.jpg
491.702	1.492	0	generate	Run1	generate/STIM_020.jpg
495.49	1.978	1	generate	Run1	generate/STIM_020.jpg
501.381	1.664	1	generate	Run1	generate/STIM_021.jpg
506.336	1.622	0	generate	Run1	generate/STIM_021.jpg
510.95	2.287	1	generate	Run1	generate/STIM_021.jpg
516.34	1.973	1	generate	Run1	generate/STIM_021.jpg
521.566	1.052	1	generate	Run1	generate/STIM_021.jpg
525.828	1.987	1	generate	Run1	generate/STIM_022.jpg
531.505	1.163	1	generate	Run1	generate/STIM_022.jpg
535.748	2.418	1	generate	Run1	generate/STIM_022.jpg
542.084	1.237	1	generate	Run1	generate/STIM_022.jpg
547.298	2.097	1	generate	Run1	generate/STIM_022.jpg
553.196	1.62	1	generate	Run1	generate/STIM_023.jpg
558.263	1.892	1	generate	Run1	generate/STIM_023.jpg
563.385	1.549	1	generate	Run1	generate/STIM_023.jpg
568.834	1.266	1	generate	Run1	generate/STIM_023.jpg
573.817	0.964	1	generate	Run1	generate/STIM_023.jpg
578.212	1.65	1	generate	Run1	generate/STIM_024.jpg
582.015	2.442	1	generate	Run1	generate/STIM_024.jpg
587.713	1.518	0	generate	Run1	generate/STIM_024.jpg
592.572	1.673	1	generate	Run1	generate/STIM_024.jpg
596.847	1.919	1	generate	Run1	generate/STIM_024.jpg
602.287	0.6	1	repeat	Run1	repeat/STIM_000.jpg
605.789	0.666	1	repeat	Run1	repeat/STIM_000.jpg
608.721	0.784	1	repeat	Run1	repeat/STIM_000.jpg
611.639	0.658	1	repeat	Run1	repeat/STIM_000.jpg
614.672	0.778	1	repeat	Run1	repeat/STIM_000.jpg
619.095	0.799	1	repeat	Run1	repeat/STIM_001.jpg
622.679	0.499	0	repeat	Run1	repeat/STIM_001.jpg
626.984	0.65	0	repeat	Run1	repeat/STIM_001.jpg
630.754	0.525	1	repeat	Run1	repeat/STIM_001.jpg
633.666	0.526	1	repeat	Run1	repeat/STIM_001.jpg
636.996	0.688	1	repeat	Run1	repeat/STIM_002.jpg
640.06	0.607	1	repeat	Run1	repeat/STIM_002.jpg
643.743	0.769	1	repeat	Run1	repeat/STIM_002.jpg
647.566	0.9	1	repeat	Run1	repeat/STIM_002.jpg
650.776	0.774	1	repeat	Run1	repeat/STIM_002.jpg
654.477	0.632	1	repeat	Run1	repeat/STIM_003.jpg
658.896	0.824	1	repeat	Run1	repeat/STIM_003.jpg
662.95	0.733	1	repeat	Run1	repeat/STIM_003.jpg
667.676	0.71	1	repeat	Run1	repeat/STIM_003.jpg
670.841	0.747	1	repeat	Run1	repeat/STIM_003.jpg
674.675	0.866	0	repeat	Run1	repeat/STIM_004.jpg
678.545	0.542	1	repeat	Run1	repeat/STIM_004.jpg
681.719	0.718	1	repeat	Run1	repeat/STIM_004.jpg
686.217	0.833	1	repeat	Run1	repeat/STIM_004.jpg
690.506	0.867	1	repeat	Run1	repeat/STIM_004.jpg
693.69	0.506	1	repeat	Run1	repeat/STIM_005.jpg
697.822	0.789	0	repeat	Run1	repeat/STIM_005.jpg
700.685	0.796	1	repeat	Run1	repeat/STIM_005.jpg
705.425	0.598	1	repeat	Run1	repeat/STIM_005.jpg
708.772	0.644	1	repeat	Run1	repeat/STIM_005.jpg
713.212	0.73	1	repeat	Run1	repeat/STIM_006.jpg
717.099	0.675	1	repeat	Run1	repeat/STIM_006.jpg
720.838	0.901	1	repeat	Run1	repeat/STIM_006.jpg
725.57	0.816	1	repeat	Run1	repeat/STIM_006.jpg
729.653	0.844	1	repeat	Run1	repeat/STIM_006.jpg
733.284	0.837	1	repeat	Run1	repeat/STIM_007.jpg
737.912	0.618	1	repeat	Run1	repeat/STIM_007.jpg
741.887	0.616	1	repeat	Run1	repeat/STIM_007.jpg
744.989	0.804	0	repeat	Run1	repeat/STIM_007.jpg
747.999	0.613	1	repeat	Run1	repeat/STIM_007.jpg
750.746	0.674	1	repeat	Run1	repeat/STIM_008.jpg
753.636	0.78	1	repeat	Run1	repeat/STIM_008.jpg
758.193	0.684	1	repeat	Run1	repeat/STIM_008.jpg
762.748	0.91	1	repeat	Run1	repeat/STIM_008.jpg
767.063	0.923	1	repeat	Run1	repeat/STIM_008.jpg
771.776	0.782	1	repeat	Run1	repeat/STIM_009.jpg
775.271	0.541	1	repeat	Run1	repeat/STIM_009.jpg
779.24	0.608	1	repeat	Run1	repeat/STIM_009.jpg
782.063	0.913	1	repeat	Run1	repeat/STIM_009.jpg
786.453	0.904	1	repeat	Run1	repeat/STIM_009.jpg
790.716	0.722	1	repeat	Run1	repeat/STIM_010.jpg
794.052	0.645	1	repeat	Run1	repeat/STIM_010.jpg
797.5	0.71	1	repeat	Run1	repeat/STIM_010.jpg
801.077	0.752	1	repeat	Run1	repeat/STIM_010.jpg
804.602	0.691	1	repeat	Run1	repeat/STIM_010.jpg
809.093	0.822	1	repeat	Run1	repeat/STIM_011.jpg
813.743	0.582	1	repeat	Run1	repeat/STIM_011.jpg
817.208	0.559	1	repeat	Run1	repeat/STIM_011.jpg
821.026	0.61	1	repeat	Run1	repeat/STIM_011.jpg
824.678	0.498	1	repeat	Run1	repeat/STIM_011.jpg
828.596	0.824	1	repeat	Run1	repeat/STIM_012.jpg
831.591	0.71	1	repeat	Run1	repeat/STIM_012.jpg
835.424	0.53	1	repeat	Run1	repeat/STIM_012.jpg
839.913	0.826	0	repeat	Run1	repeat/STIM_012.jpg
844.6	0.701	1	repeat	Run1	repeat/STIM_012.jpg
848.667	0.476	1	repeat	Run1	repeat/STIM_013.jpg
852.731	0.884	1	repeat	Run1	repeat/STIM_013.jpg
855.634	0.649	1	repeat	Run1	repeat/STIM_013.jpg
858.425	0.833	1	repeat	Run1	repeat/STIM_013.jpg
861.676	0.576	1	repeat	Run1	repeat/STIM_013.jpg
864.634	0.705	1	repeat	Run1	repeat/STIM_014.jpg
867.402	0.551	1	repeat	Run1	repeat/STIM_014.jpg
870.407	0.665	1	repeat	Run1	repeat/STIM_014.jpg
874.651	0.854	0	repeat	Run1	repeat/STIM_014.jpg
878.961	0.815	1	repeat	Run1	repeat/STIM_014.jpg
882.259	1.09	0	generate	Run2	generate/STIM_000.jpg
886.504	1.103	1	generate	Run2	generate/STIM_000.jpg
891.208	1.905	1	generate	Run2	generate/STIM_000.jpg
895.943	1.831	1	generate	Run2	generate/STIM_000.jpg
900.813	1.398	1	generate	Run2	generate/STIM_000.jpg
906.024	2.081	1	generate	Run2	generate/STIM_001.jpg
910.576	1.794	1	generate	Run2	generate/STIM_001.jpg
916.091	0.908	1	generate	Run2	generate/STIM_001.jpg
920.599	0.815	1	generate	Run2	generate/STIM_001.jpg
924.749	1.714	1	generate	Run2	generate/STIM_001.jpg
929.601	1.134	1	generate	Run2	generate/STIM_002.jpg
934.552	1.629	1	generate	Run2	generate/STIM_002.jpg
939.083	0.912	1	generate	Run2	generate/STIM_002.jpg
942.709	0.898	1	generate	Run2	generate/STIM_002.jpg
947.134	1.091	1	generate	Run2	generate/STIM_002.jpg
952.095	1.786	0	generate	Run2	generate/STIM_003.jpg
956.173	0.979	0	generate	Run2	generate/STIM_003.jpg
960.926	1.904	1	generate	Run2	generate/STIM_003.jpg
965.073	1.474	1	generate	Run2	generate/STIM_003.jpg
969.383	0.968	1	generate	Run2	generate/STIM_003.jpg
973.451	1.6	1	generate	Run2	generate/STIM_004.jpg
977.589	0.898	1	generate	Run2	generate/STIM_004.jpg
982.015	1.43	1	generate	Run2	generate/STIM_004.jpg
986.266	1.597	1	generate	Run2	generate/STIM_004.jpg
990.23	1.591	1	generate	Run2	generate/STIM_004.jpg
994.347	2.185	1	generate	Run2	generate/STIM_005.jpg
999.841	1.598	1	generate	Run2	generate/STIM_005.jpg
1004.455	1.866	0	generate	Run2	generate/STIM_005.jpg
1010.182	1.09	1	generate	Run2	generate/STIM_005.jpg
1013.85	1.614	1	generate	Run2	generate/STIM_005.jpg
1018.26	2.151	1	generate	Run2	generate/STIM_006.jpg
1022.498	1.76	0	generate	Run2	generate/STIM_006.jpg
1027.628	1.663	0	generate	Run2	generate/STIM_006.jpg
1031.791	1.271	1	generate	Run2	generate/STIM_006.jpg
1036.207	1.256	1	generate	Run2	generate/STIM_006.jpg
1040.659	0.965	1	generate	Run2	generate/STIM_007.jpg
1044.798	1.721	1	generate	Run2	generate/STIM_007.jpg
1049.231	1.238	1	generate	Run2	generate/STIM_007.jpg
1054.346	1.584	1	generate	Run2	generate/STIM_007.jpg
1059.481	1.613	1	generate	Run2	generate/STIM_007.jpg
1064.065	1.382	0	generate	Run2	generate/STIM_008.jpg
1067.49	1.932	1	generate	Run2	generate/STIM_008.jpg
1072.445	1.256	1	generate	Run2	generate/STIM_008.jpg
1076.64	1.695	1	generate	Run2	generate/STIM_008.jpg
1081.642	1.476	1	generate	Run2	generate/STIM_008.jpg
1086.591	1.954	0	generate	Run2	generate/STIM_009.jpg
1090.788	1.776	1	generate	Run2	generate/STIM_009.jpg
1096.28	1.221	1	generate	Run2	generate/STIM_009.jpg
1100.974	1.439	1	generate	Run2	generate/STIM_009.jpg
1104.67	1.751	1	generate	Run2	generate/STIM_009.jpg
1110.318	1.151	1	generate	Run2	generate/STIM_010.jpg
1114.17	1.018	1	generate	Run2	generate/STIM_010.jpg
1118.131	1.203	1	generate	Run2	generate/STIM_010.jpg
1123.1	0.832	1	generate	Run2	generate/STIM_010.jpg
1126.489	1.08	1	generate	Run2	generate/STIM_010.jpg
1130.274	1.443	0	generate	Run2	generate/STIM_011.jpg
1135.408	1.412	1	generate	Run2	generate/STIM_011.jpg
1139.182	1.388	1	generate	Run2	generate/STIM_011.jpg
1143.551	0.929	1	generate	Run2	generate/STIM_011.jpg
1148.467	1.066	1	generate	Run2	generate/STIM_011.jpg
1152.172	2.089	1	generate	Run2	generate/STIM_012.jpg
1157.224	1.974	0	generate	Run2	generate/STIM_012.jpg
1162.078	1.523	1	generate	Run2	generate/STIM_012.jpg
1166.214	1.627	1	generate	Run2	generate/STIM_012.jpg
1171.536	1.417	1	generate	Run2	generate/STIM_012.jpg
1175.394	1.454	1	generate	Run2	generate/STIM_013.jpg
1179.425	1.677	1	generate	Run2	generate/STIM_013.jpg
1183.502	1.222	1	generate	Run2	generate/STIM_013.jpg
1188.532	1.5	1	generate	Run2	generate/STIM_013.jpg
1192.125	1.901	1	generate	Run2	generate/STIM_013.jpg
1197.954	2.221	1	generate	Run2	generate/STIM_014.jpg
1202.654	1.443	0	generate	Run2	generate/STIM_014.jpg
1206.686	1.989	1	generate	Run2	generate/STIM_014.jpg
1212.239	1.916	1	generate	Run2	generate/STIM_014.jpg
1217.923	1.931	1	generate	Run2	generate/STIM_014.jpg
1222.239	1.549	1	generate	Run2	generate/STIM_015.jpg
1226.576	0.914	0	generate	Run2	generate/STIM_015.jpg
1230.37	1.64	1	generate	Run2	generate/STIM_015.jpg
1234.085	1.045	1	generate	Run2	generate/STIM_015.jpg
1237.551	1.451	0	generate	Run2	generate/STIM_015.jpg
1241.058	1.527	1	generate	Run2	generate/STIM_016.jpg
1244.933	1.054	0	generate	Run2	generate/STIM_016.jpg
1249.845	1.654	1	generate	Run2	generate/STIM_016.jpg
1253.865	1.218	1	generate	Run2	generate/STIM_016.jpg
1257.315	1.861	0	generate	Run2	generate/STIM_016.jpg
1262.168	1.85	1	generate	Run2	generate/STIM_017.jpg
1267.908	1.714	1	generate	Run2	generate/STIM_017.jpg
1273.438	1.508	0	generate	Run2	generate/STIM_017.jpg
1277.217	1.346	1	generate	Run2	generate/STIM_017.jpg
1280.797	1.861	1	generate	Run2	generate/STIM_017.jpg
1285.966	1.367	0	generate	Run2	generate/STIM_018.jpg
1290.157	1.281	1	generate	Run2	generate/STIM_018.jpg
1293.859	1.757	1	generate	Run2	generate/STIM_018.jpg
1298.774	1.917	1	generate	Run2	generate/STIM_018.jpg
1304.152	0.862	0	generate	Run2	generate/STIM_018.jpg
1307.377	1.583	1	generate	Run2	generate/STIM_019.jpg
1311.408	1.892	1	generate	Run2	generate/STIM_019.jpg
1316.344	1.384	1	generate	Run2	generate/STIM_019.jpg
1320.343	1.835	1	generate	Run2	generate/STIM_019.jpg
1324.521	1.762	1	generate	Run2	generate/STIM_019.jpg
1329.802	0.972	1	generate	Run2	generate/STIM_020.jpg
1333.834	1.954	1	generate	Run2	generate/STIM_020.jpg
1338.413	1.157	1	generate	Run2	generate/STIM_020.jpg
1342.361	1.046	1	generate	Run2	generate/STIM_020.jpg
1346.536	1.42	1	generate	Run2	generate/STIM_020.jpg
1350.096	1.608	1	generate	Run2	generate/STIM_021.jpg
1354.339	1.418	1	generate	Run2	generate/STIM_021.jpg
1359.348	0.95	0	generate	Run2	generate/STIM_021.jpg
1362.821	1.05	0	generate	Run2	generate/STIM_021.jpg
1366.85	1.396	1	generate	Run2	generate/STIM_021.jpg
1372.032	1.609	1	generate	Run2	generate/STIM_022.jpg
1376.198	0.985	1	generate	Run2	generate/STIM_022.jpg
1380.283	1.515	1	generate	Run2	generate/STIM_022.jpg
1385.335	1.942	1	generate	Run2	generate/STIM_022.jpg
1390.227	1.495	1	generate	Run2	generate/STIM_022.jpg
1394.559	1.894	0	generate	Run2	generate/STIM_023.jpg
1399.545	1.774	1	generate	Run2	generate/STIM_023.jpg
1403.562	1.481	1	generate	Run2	generate/STIM_023.jpg
1407.873	1.716	1	generate	Run2	generate/STIM_023.jpg
1411.949	1.479	1	generate	Run2	generate/STIM_023.jpg
1416.431	1.836	1	generate	Run2	generate/STIM_024.jpg
1421.566	2.19	1	generate	Run2	generate/STIM_024.jpg
1426.875	0.896	1	generate	Run2	generate/STIM_024.jpg
1431.11	1.426	1	generate	Run2	generate/STIM_024.jpg
1434.607	0.889	1	generate	Run2	generate/STIM_024.jpg
1439.278	0.653	1	repeat	Run2	repeat/STIM_000.jpg
1443.93	0.742	1	repeat	Run2	repeat/STIM_000.jpg
1447.004	0.708	1	repeat	Run2	repeat/STIM_000.jpg
1450.121	0.891	1	repeat	Run2	repeat/STIM_000.jpg
1454.719	0.696	1	repeat	Run2	repeat/STIM_000.jpg
1459.415	0.59	1	repeat	Run2	repeat/STIM_001.jpg
1462.747	0.808	1	repeat	Run2	repeat/STIM_001.jpg
1466.692	0.663	1	repeat	Run2	repeat/STIM_001.jpg
1469.904	0.739	1	repeat	Run2	repeat/STIM_001.jpg
1472.969	0.538	1	repeat	Run2	repeat/STIM_001.jpg
1476.243	0.582	1	repeat	Run2	repeat/STIM_002.jpg
1480.396	0.623	1	repeat	Run2	repeat/STIM_002.jpg
1483.167	0.908	1	repeat	Run2	repeat/STIM_002.jpg
1486.545	0.624	1	repeat	Run2	repeat/STIM_002.jpg
1489.588	0.703	1	repeat	Run2	repeat/STIM_002.jpg
1494.118	0.553	1	repeat	Run2	repeat/STIM_003.jpg
1496.846	0.623	1	repeat	Run2	repeat/STIM_003.jpg
1499.664	0.66	1	repeat	Run2	repeat/STIM_003.jpg
1503.483	0.582	1	repeat	Run2	repeat/STIM_003.jpg
1507.701	0.849	1	repeat	Run2	repeat/STIM_003.jpg
1511.543	0.876	1	repeat	Run2	repeat/STIM_004.jpg
1514.821	0.637	1	repeat	Run2	repeat/STIM_004.jpg
1517.657	0.707	1	repeat	Run2	repeat/STIM_004.jpg
1520.444	0.628	1	repeat	Run2	repeat/STIM_004.jpg
1523.763	0.541	1	repeat	Run2	repeat/STIM_004.jpg
1526.457	0.464	1	repeat	Run2	repeat/STIM_005.jpg
1529.992	0.766	0	repeat	Run2	repeat/STIM_005.jpg
1533.282	0.904	1	repeat	Run2	repeat/STIM_005.jpg
1537.789	0.717	1	repeat	Run2	repeat/STIM_005.jpg
1542.455	0.492	1	repeat	Run2	repeat/STIM_005.jpg
1544.996	0.659	1	repeat	Run2	repeat/STIM_006.jpg
1549.037	0.745	1	repeat	Run2	repeat/STIM_006.jpg
1553.281	0.539	1	repeat	Run2	repeat/STIM_006.jpg
1557.015	0.908	1	repeat	Run2	repeat/STIM_006.jpg
1561.432	0.822	1	repeat	Run2	repeat/STIM_006.jpg
1565.283	0.651	1	repeat	Run2	repeat/STIM_007.jpg
1569.225	0.755	1	repeat	Run2	repeat/STIM_007.jpg
1572.906	0.613	1	repeat	Run2	repeat/STIM_007.jpg
1577.483	0.772	1	repeat	Run2	repeat/STIM_007.jpg
1580.41	0.886	1	repeat	Run2	repeat/STIM_007.jpg
1585.087	0.585	1	repeat	Run2	repeat/STIM_008.jpg
1589.167	0.466	1	repeat	Run2	repeat/STIM_008.jpg
1593.414	0.626	1	repeat	Run2	repeat/STIM_008.jpg
1596.484	0.802	0	repeat	Run2	repeat/STIM_008.jpg
1600.309	0.768	1	repeat	Run2	repeat/STIM_008.jpg
1603.876	0.64	1	repeat	Run2	repeat/STIM_009.jpg
1608.429	0.641	1	repeat	Run2	repeat/STIM_009.jpg
1612.586	0.675	1	repeat	Run2	repeat/STIM_009.jpg
1617.114	0.878	1	repeat	Run2	repeat/STIM_009.jpg
1621.242	0.649	1	repeat	Run2	repeat/STIM_009.jpg
1624.632	0.679	0	repeat	Run2	repeat/STIM_010.jpg
1628.94	0.619	1	repeat	Run2	repeat/STIM_010.jpg
1632.656	0.58	1	repeat	Run2	repeat/STIM_010.jpg
1635.572	0.835	1	repeat	Run2	repeat/STIM_010.jpg
1638.516	0.647	1	repeat	Run2	repeat/STIM_010.jpg
1643.052	0.586	1	repeat	Run2	repeat/STIM_011.jpg
1646.881	0.762	1	repeat	Run2	repeat/STIM_011.jpg
1649.914	0.772	1	repeat	Run2	repeat/STIM_011.jpg
1654.585	0.682	1	repeat	Run2	repeat/STIM_011.jpg
1657.401	0.771	1	repeat	Run2	repeat/STIM_011.jpg
1660.363	0.604	1	repeat	Run2	repeat/STIM_012.jpg
1663.026	0.644	1	repeat	Run2	repeat/STIM_012.jpg
1667.003	0.541	1	repeat	Run2	repeat/STIM_012.jpg
1671.534	0.88	1	repeat	Run2	repeat/STIM_012.jpg
1676.345	0.849	1	repeat	Run2	repeat/STIM_012.jpg
1680.732	0.549	1	repeat	Run2	repeat/STIM_013.jpg
1684.377	0.468	1	repeat	Run2	repeat/STIM_013.jpg
1687.122	0.883	1	repeat	Run2	repeat/STIM_013.jpg
1691.154	0.865	1	repeat	Run2	repeat/STIM_013.jpg
1695.98	0.906	0	repeat	Run2	repeat/STIM_013.jpg
1700.119	0.471	1	repeat	Run2	repeat/STIM_014.jpg
1703.132	0.604	1	repeat	Run2	repeat/STIM_014.jpg
1706.99	0.627	1	repeat	Run2	repeat/STIM_014.jpg
1710.947	0.784	1	repeat	Run2	repeat/STIM_014.jpg
1713.732	0.888	1	repeat	Run2	repeat/STIM_014.jpg
1716.779	0.845	1	generate	Run3	generate/STIM_000.jpg
1720.421	1.297	1	generate	Run3	generate/STIM_000.jpg
1725.477	1.03	1	generate	Run3	generate/STIM_000.jpg
1728.851	1.237	1	generate	Run3	generate/STIM_000.jpg
1732.504	1.729	1	generate	Run3	generate/STIM_000.jpg
1737.465	1.436	1	generate	Run3	generate/STIM_001.jpg
1741.798	0.902	1	generate	Run3	generate/STIM_001.jpg
1745.491	1.448	1	generate	Run3	generate/STIM_001.jpg
1749.367	1.072	1	generate	Run3	generate/STIM_001.jpg
1754.044	1.067	1	generate	Run3	generate/STIM_001.jpg
1758.664	1.142	1	generate	Run3	generate/STIM_002.jpg
1763.057	1.461	1	generate	Run3	generate/STIM_002.jpg
1767.443	0.905	1	generate	Run3	generate/STIM_002.jpg
1770.499	1.706	1	generate	Run3	generate/STIM_002.jpg
1774.646	1.307	1	generate	Run3	generate/STIM_002.jpg
1778.274	1.494	1	generate	Run3	generate/STIM_003.jpg
1782.877	0.99	1	generate	Run3	generate/STIM_003.jpg
1786.859	1.185	1	generate	Run3	generate/STIM_003.jpg
1790.07	1.853	1	generate	Run3	generate/STIM_003.jpg
1794.336	1.801	1	generate	Run3	generate/STIM_003.jpg
1799.138	0.959	1	generate	Run3	generate/STIM_004.jpg
1803.982	1.939	1	generate	Run3	generate/STIM_004.jpg
1809.844	0.852	0	generate	Run3	generate/STIM_004.jpg
1814.584	0.984	1	generate	Run3	generate/STIM_004.jpg
1819.203	0.825	1	generate	Run3	generate/STIM_004.jpg
1823.723	1.449	1	generate	Run3	generate/STIM_005.jpg
1827.287	1.629	1	generate	Run3	generate/STIM_005.jpg
1832.862	1.418	1	generate	Run3	generate/STIM_005.jpg
1837.653	1.849	1	generate	Run3	generate/STIM_005.jpg
1842.2	1.046	1	generate	Run3	generate/STIM_005.jpg
1845.659	0.915	1	generate	Run3	generate/STIM_006.jpg
1849.75	1.319	1	generate	Run3	generate/STIM_006.jpg
1854.49	1.093	1	generate	Run3	generate/STIM_006.jpg
1857.96	1.482	1	generate	Run3	generate/STIM_006.jpg
1862.258	1.009	1	generate	Run3	generate/STIM_006.jpg
1866.703	1.734	1	generate	Run3	generate/STIM_007.jpg
1871.991	0.88	0	generate	Run3	generate/STIM_007.jpg
1875.389	0.788	1	generate	Run3	generate/STIM_007.jpg
1879.09	1.582	1	generate	Run3	generate/STIM_007.jpg
1882.804	1.41	1	generate	Run3	generate/STIM_007.jpg
1887.17	1.136	1	generate	Run3	generate/STIM_008.jpg
1891.716	1.326	1	generate	Run3	generate/STIM_008.jpg
1895.188	1.57	1	generate	Run3	generate/STIM_008.jpg
1898.927	0.82	1	generate	Run3	generate/STIM_008.jpg
1902.376	1.323	1	generate	Run3	generate/STIM_008.jpg
1906.748	1.304	1	generate	Run3	generate/STIM_009.jpg
1910.301	1.801	1	generate	Run3	generate/STIM_009.jpg
1914.824	0.991	1	generate	Run3	generate/STIM_009.jpg
1918.0	1.291	1	generate	Run3	generate/STIM_009.jpg
1921.535	1.794	1	generate	Run3	generate/STIM_009.jpg
1925.535	1.78	1	generate	Run3	generate/STIM_010.jpg
1930.721	1.877	1	generate	Run3	generate/STIM_010.jpg
1935.489	1.08	1	generate	Run3	generate/STIM_010.jpg
1939.397	1.544	1	generate	Run3	generate/STIM_010.jpg
1944.213	0.781	1	generate	Run3	generate/STIM_010.jpg
1948.29	1.64	1	generate	Run3	generate/STIM_011.jpg
1952.168	1.243	1	generate	Run3	generate/STIM_011.jpg
1956.484	1.346	1	generate	Run3	generate/STIM_011.jpg
1961.297	1.587	1	generate	Run3	generate/STIM_011.jpg
1965.701	1.817	1	generate	Run3	generate/STIM_011.jpg
1969.802	1.339	1	generate	Run3	generate/STIM_012.jpg
1974.883	0.779	1	generate	Run3	generate/STIM_012.jpg
1978.686	0.829	1	generate	Run3	generate/STIM_012.jpg
1983.019	1.182	1	generate	Run3	generate/STIM_012.jpg
1987.682	1.31	1	generate	Run3	generate/STIM_012.jpg
1991.78	1.944	1	generate	Run3	generate/STIM_013.jpg
1997.588	1.768	1	generate	Run3	generate/STIM_013.jpg
2002.991	1.878	1	generate	Run3	generate/STIM_013.jpg
2008.867	1.449	1	generate	Run3	generate/STIM_013.jpg
2013.233	1.367	1	generate	Run3	generate/STIM_013.jpg
2018.408	1.907	0	generate	Run3	generate/STIM_014.jpg
2023.523	1.339	1	generate	Run3	generate/STIM_014.jpg
2027.078	1.269	1	generate	Run3	generate/STIM_014.jpg
2032.238	1.727	1	generate	Run3	generate/STIM_014.jpg
2036.025	1.921	0	generate	Run3	generate/STIM_014.jpg
2041.746	0.985	1	generate	Run3	generate/STIM_015.jpg
2045.75	1.927	1	generate	Run3	generate/STIM_015.jpg
2049.816	1.318	1	generate	Run3	generate/STIM_015.jpg
2053.795	1.433	1	generate	Run3	generate/STIM_015.jpg
2059.163	0.922	1	generate	Run3	generate/STIM_015.jpg
2062.115	1.832	1	generate	Run3	generate/STIM_016.jpg
2066.672	0.89	1	generate	Run3	generate/STIM_016.jpg
2070.92	1.032	1	generate	Run3	generate/STIM_016.jpg
2075.814	1.452	1	generate	Run3	generate/STIM_016.jpg
2080.914	1.616	1	generate	Run3	generate/STIM_016.jpg
2086.402	0.878	1	generate	Run3	generate/STIM_017.jpg
2090.2	1.772	0	generate	Run3	generate/STIM_017.jpg
2094.892	1.119	0	generate	Run3	generate/STIM_017.jpg
2099.889	0.947	1	generate	Run3	generate/STIM_017.jpg
2103.944	1.112	1	generate	Run3	generate/STIM_017.jpg
2107.303	1.509	0	generate	Run3	generate/STIM_018.jpg
2111.715	1.414	1	generate	Run3	generate/STIM_018.jpg
2115.799	1.562	1	generate	Run3	generate/STIM_018.jpg
2120.344	0.894	1	generate	Run3	generate/STIM_018.jpg
2123.884	0.865	1	generate	Run3	generate/STIM_018.jpg
2126.901	0.83	1	generate	Run3	generate/STIM_019.jpg
2129.858	1.09	1	generate	Run3	generate/STIM_019.jpg
2133.915	0.804	1	generate	Run3	generate/STIM_019.jpg
2136.729	1.246	1	generate	Run3	generate/STIM_019.jpg
2141.012	1.204	1	generate	Run3	generate/STIM_019.jpg
2145.993	1.866	1	generate	Run3	generate/STIM_020.jpg
2150.368	1.575	1	generate	Run3	generate/STIM_020.jpg
2154.616	1.443	0	generate	Run3	generate/STIM_020.jpg
2158.476	1.543	1	generate	Run3	generate/STIM_020.jpg
2162.697	1.378	1	generate	Run3	generate/STIM_020.jpg
2166.776	1.456	1	generate	Run3	generate/STIM_021.jpg
2170.32	1.233	1	generate	Run3	generate/STIM_021.jpg
2173.58	1.16	1	generate	Run3	generate/STIM_021.jpg
2177.754	1.648	1	generate	Run3	generate/STIM_021.jpg
2181.656	1.599	1	generate	Run3	generate/STIM_021.jpg
2187.139	1.191	0	generate	Run3	generate/STIM_022.jpg
2192.189	1.142	1	generate	Run3	generate/STIM_022.jpg
2197.234	1.687	1	generate	Run3	generate/STIM_022.jpg
2202.124	1.184	1	generate	Run3	generate/STIM_022.jpg
2205.781	1.756	1	generate	Run3	generate/STIM_022.jpg
2211.506	1.535	1	generate	Run3	generate/STIM_023.jpg
2216.081	1.917	1	generate	Run3	generate/STIM_023.jpg
2220.289	1.718	1	generate	Run3	generate/STIM_023.jpg
2224.999	1.826	1	generate	Run3	generate/STIM_023.jpg
2229.099	1.907	1	generate	Run3	generate/STIM_023.jpg
2233.72	1.474	1	generate	Run3	generate/STIM_024.jpg
2239.118	1.383	1	generate	Run3	generate/STIM_024.jpg
2242.891	1.488	1	generate	Run3	generate/STIM_024.jpg
2247.87	1.395	0	generate	Run3	generate/STIM_024.jpg
2251.687	1.345	1	generate	Run3	generate/STIM_024.jpg
2256.631	0.896	1	repeat	Run3	repeat/STIM_000.jpg
2260.615	0.795	1	repeat	Run3	repeat/STIM_000.jpg
2264.506	0.611	1	repeat	Run3	repeat/STIM_000.jpg
2268.508	0.658	1	repeat	Run3	repeat/STIM_000.jpg
2272.306	0.879	1	repeat	Run3	repeat/STIM_000.jpg
2275.494	0.705	1	repeat	Run3	repeat/STIM_001.jpg
2279.051	0.888	1	repeat	Run3	repeat/STIM_001.jpg
2283.547	0.542	1	repeat	Run3	repeat/STIM_001.jpg
2286.489	0.838	1	repeat	Run3	repeat/STIM_001.jpg
2290.804	0.871	1	repeat	Run3	repeat/STIM_001.jpg
2295.46	0.62	1	repeat	Run3	repeat/STIM_002.jpg
2299.43	0.533	1	repeat	Run3	repeat/STIM_002.jpg
2302.691	0.548	1	repeat	Run3	repeat/STIM_002.jpg
2305.945	0.477	0	repeat	Run3	repeat/STIM_002.jpg
2309.098	0.922	1	repeat	Run3	repeat/STIM_002.jpg
2312.407	0.885	1	repeat	Run3	repeat/STIM_003.jpg
2315.73	0.619	0	repeat	Run3	repeat/STIM_003.jpg
2320.325	0.518	1	repeat	Run3	repeat/STIM_003.jpg
2323.166	0.726	1	repeat	Run3	repeat/STIM_003.jpg
2327.689	0.838	1	repeat	Run3	repeat/STIM_003.jpg
2330.724	0.753	1	repeat	Run3	repeat/STIM_004.jpg
2334.924	0.577	0	repeat	Run3	repeat/STIM_004.jpg
2339.295	0.534	0	repeat	Run3	repeat/STIM_004.jpg
2343.734	0.53	1	repeat	Run3	repeat/STIM_004.jpg
2347.899	0.759	1	repeat	Run3	repeat/STIM_004.jpg
2351.482	0.79	1	repeat	Run3	repeat/STIM_005.jpg
2354.326	0.638	1	repeat	Run3	repeat/STIM_005.jpg
2357.347	0.838	1	repeat	Run3	repeat/STIM_005.jpg
2362.047	0.756	1	repeat	Run3	repeat/STIM_005.jpg
2365.748	0.525	1	repeat	Run3	repeat/STIM_005.jpg
2368.684	0.546	1	repeat	Run3	repeat/STIM_006.jpg
2372.6	0.485	1	repeat	Run3	repeat/STIM_006.jpg
2375.72	0.669	1	repeat	Run3	repeat/STIM_006.jpg
2378.845	0.499	1	repeat	Run3	repeat/STIM_006.jpg
2381.565	0.766	1	repeat	Run3	repeat/STIM_006.jpg
2386.223	0.888	1	repeat	Run3	repeat/STIM_007.jpg
2389.542	0.73	1	repeat	Run3	repeat/STIM_007.jpg
2392.64	0.861	1	repeat	Run3	repeat/STIM_007.jpg
2396.892	0.85	1	repeat	Run3	repeat/STIM_007.jpg
2400.182	0.602	1	repeat	Run3	repeat/STIM_007.jpg
2403.042	0.786	1	repeat	Run3	repeat/STIM_008.jpg
2406.007	0.673	1	repeat	Run3	repeat/STIM_008.jpg
2409.444	0.473	1	repeat	Run3	repeat/STIM_008.jpg
2412.456	0.734	1	repeat	Run3	repeat/STIM_008.jpg
2416.99	0.828	1	repeat	Run3	repeat/STIM_008.jpg
2421.151	0.891	1	repeat	Run3	repeat/STIM_009.jpg
2424.424	0.92	1	repeat	Run3	repeat/STIM_009.jpg
2429.286	0.865	0	repeat	Run3	repeat/STIM_009.jpg
2433.507	0.883	1	repeat	Run3	repeat/STIM_009.jpg
2437.0	0.802	1	repeat	Run3	repeat/STIM_009.jpg
2440.042	0.692	1	repeat	Run3	repeat/STIM_010.jpg
2444.045	0.902	1	repeat	Run3	repeat/STIM_010.jpg
2448.468	0.786	1	repeat	Run3	repeat/STIM_010.jpg
2452.455	0.477	1	repeat	Run3	repeat/STIM_010.jpg
2456.526	0.648	1	repeat	Run3	repeat/STIM_010.jpg
2460.108	0.745	1	repeat	Run3	repeat/STIM_011.jpg
2462.878	0.753	1	repeat	Run3	repeat/STIM_011.jpg
2466.336	0.569	1	repeat	Run3	repeat/STIM_011.jpg
2469.996	0.66	1	repeat	Run3	repeat/STIM_011.jpg
2473.647	0.795	1	repeat	Run3	repeat/STIM_011.jpg
2477.295	0.537	1	repeat	Run3	repeat/STIM_012.jpg
2480.265	0.612	1	repeat	Run3	repeat/STIM_012.jpg
2482.975	0.721	1	repeat	Run3	repeat/STIM_012.jpg
2487.403	0.507	1	repeat	Run3	repeat/STIM_012.jpg
2490.662	0.864	1	repeat	Run3	repeat/STIM_012.jpg
2494.176	0.807	1	repeat	Run3	repeat/STIM_013.jpg
2498.781	0.662	1	repeat	Run3	repeat/STIM_013.jpg
2502.221	0.477	1	repeat	Run3	repeat/STIM_013.jpg
2505.991	0.853	1	repeat	Run3	repeat/STIM_013.jpg
2509.313	0.737	1	repeat	Run3	repeat/STIM_013.jpg
2513.951	0.533	1	repeat	Run3	repeat/STIM_014.jpg
2517.747	0.76	1	repeat	Run3	repeat/STIM_014.jpg
2522.197	0.662	1	repeat	Run3	repeat/STIM_014.jpg
2525.834	0.547	1	repeat	Run3	repeat/STIM_014.jpg
2529.373	0.921	1	repeat	Run3	repeat/STIM_014.jpg
2533.17	1.833	1	generate	Run4	generate/STIM_000.jpg
2537.391	1.506	1	generate	Run4	generate/STIM_000.jpg
2541.505	1.589	1	generate	Run4	generate/STIM_000.jpg
2545.6	0.868	1	generate	Run4	generate/STIM_000.jpg
2548.695	1.849	1	generate	Run4	generate/STIM_000.jpg
2554.38	1.886	1	generate	Run4	generate/STIM_001.jpg
2559.075	1.065	1	generate	Run4	generate/STIM_001.jpg
2563.935	1.719	1	generate	Run4	generate/STIM_001.jpg
2568.002	1.325	1	generate	Run4	generate/STIM_001.jpg
2572.083	1.607	1	generate	Run4	generate/STIM_001.jpg
2576.906	1.732	1	generate	Run4	generate/STIM_002.jpg
2580.647	1.212	1	generate	Run4	generate/STIM_002.jpg
2585.186	0.853	1	generate	Run4	generate/STIM_002.jpg
2589.287	1.297	1	generate	Run4	generate/STIM_002.jpg
2593.033	1.632	1	generate	Run4	generate/STIM_002.jpg
2596.792	0.794	1	generate	Run4	generate/STIM_003.jpg
2601.273	1.642	1	generate	Run4	generate/STIM_003.jpg
2606.397	1.63	1	generate	Run4	generate/STIM_003.jpg
2610.924	0.856	1	generate	Run4	generate/STIM_003.jpg
2614.837	1.247	1	generate	Run4	generate/STIM_003.jpg
2618.303	1.35	1	generate	Run4	generate/STIM_004.jpg
2623.222	0.86	1	generate	Run4	generate/STIM_004.jpg
2626.555	1.046	1	generate	Run4	generate/STIM_004.jpg
2631.557	1.924	1	generate	Run4	generate/STIM_004.jpg
2636.602	1.702	1	generate	Run4	generate/STIM_004.jpg
2641.827	1.721	1	generate	Run4	generate/STIM_005.jpg
2645.921	1.53	1	generate	Run4	generate/STIM_005.jpg
2651.386	1.116	1	generate	Run4	generate/STIM_005.jpg
2656.02	1.31	1	generate	Run4	generate/STIM_005.jpg
2660.008	1.293	1	generate	Run4	generate/STIM_005.jpg
2663.557	1.613	1	generate	Run4	generate/STIM_006.jpg
2668.742	1.093	1	generate	Run4	generate/STIM_006.jpg
2672.156	1.285	1	generate	Run4	generate/STIM_006.jpg
2677.214	0.872	1	generate	Run4	generate/STIM_006.jpg
2681.718	1.77	1	generate	Run4	generate/STIM_006.jpg
2686.259	1.013	1	generate	Run4	generate/STIM_007.jpg
2689.301	1.506	1	generate	Run4	generate/STIM_007.jpg
2693.51	1.475	1	generate	Run4	generate/STIM_007.jpg
2698.703	1.679	1	generate	Run4	generate/STIM_007.jpg
2703.171	1.491	1	generate	Run4	generate/STIM_007.jpg
2708.642	1.942	1	generate	Run4	generate/STIM_008.jpg
2714.393	1.757	1	generate	Run4	generate/STIM_008.jpg
2719.336	1.07	1	generate	Run4	generate/STIM_008.jpg
2723.741	0.829	1	generate	Run4	generate/STIM_008.jpg
2726.78	0.97	1	generate	Run4	generate/STIM_008.jpg
2729.92	1.442	1	generate	Run4	generate/STIM_009.jpg
2733.365	1.746	1	generate	Run4	generate/STIM_009.jpg
2737.907	0.927	1	generate	Run4	generate/STIM_009.jpg
2742.465	1.406	1	generate	Run4	generate/STIM_009.jpg
2746.387	1.835	1	generate	Run4	generate/STIM_009.jpg
2750.416	1.039	1	generate	Run4	generate/STIM_010.jpg
2755.208	1.735	1	generate	Run4	generate/STIM_010.jpg
2759.12	0.903	1	generate	Run4	generate/STIM_010.jpg
2762.835	1.78	1	generate	Run4	generate/STIM_010.jpg
2768.523	1.818	1	generate	Run4	generate/STIM_010.jpg
2772.856	1.437	1	generate	Run4	generate/STIM_011.jpg
2777.127	1.153	1	generate	Run4	generate/STIM_011.jpg
2782.06	1.723	1	generate	Run4	generate/STIM_011.jpg
2786.878	0.847	1	generate	Run4	generate/STIM_011.jpg
2790.341	0.782	1	generate	Run4	generate/STIM_011.jpg
2794.021	1.272	1	generate	Run4	generate/STIM_012.jpg
2798.275	1.67	1	generate	Run4	generate/STIM_012.jpg
2802.947	0.797	1	generate	Run4	generate/STIM_012.jpg
2805.973	0.923	1	generate	Run4	generate/STIM_012.jpg
2810.11	1.266	1	generate	Run4	generate/STIM_012.jpg
2814.381	1.359	1	generate	Run4	generate/STIM_013.jpg
2818.651	0.953	1	generate	Run4	generate/STIM_013.jpg
2822.067	0.814	1	generate	Run4	generate/STIM_013.jpg
2825.353	1.284	1	generate	Run4	generate/STIM_013.jpg
2829.395	1.278	1	generate	Run4	generate/STIM_013.jpg
2834.351	1.794	1	generate	Run4	generate/STIM_014.jpg
2838.447	1.258	1	generate	Run4	generate/STIM_014.jpg
2843.314	0.865	1	generate	Run4	generate/STIM_014.jpg
2846.346	1.487	1	generate	Run4	generate/STIM_014.jpg
2851.616	1.064	1	generate	Run4	generate/STIM_014.jpg
2855.672	1.749	1	generate	Run4	generate/STIM_015.jpg
2860.561	1.788	1	generate	Run4	generate/STIM_015.jpg
2865.538	1.521	1	generate	Run4	generate/STIM_015.jpg
2870.795	1.429	1	generate	Run4	generate/STIM_015.jpg
2875.135	1.104	1	generate	Run4	generate/STIM_015.jpg
2879.257	0.852	1	generate	Run4	generate/STIM_016.jpg
2882.15	0.917	1	generate	Run4	generate/STIM_016.jpg
2885.872	1.03	1	generate	Run4	generate/STIM_016.jpg
2889.982	1.507	1	generate	Run4	generate/STIM_016.jpg
2894.11	1.005	1	generate	Run4	generate/STIM_016.jpg
2898.548	1.692	1	generate	Run4	generate/STIM_017.jpg
2903.492	0.953	0	generate	Run4	generate/STIM_017.jpg
2906.969	1.873	1	generate	Run4	generate/STIM_017.jpg
2911.66	1.594	1	generate	Run4	generate/STIM_017.jpg
2916.524	1.173	1	generate	Run4	generate/STIM_017.jpg
2919.897	0.782	1	generate	Run4	generate/STIM_018.jpg
2924.013	0.914	1	generate	Run4	generate/STIM_018.jpg
2928.368	1.449	1	generate	Run4	generate/STIM_018.jpg
2933.288	1.236	1	generate	Run4	generate/STIM_018.jpg
2937.272	1.736	1	generate	Run4	generate/STIM_018.jpg
2942.251	1.529	1	generate	Run4	generate/STIM_019.jpg
2946.955	0.936	1	generate	Run4	generate/STIM_019.jpg
2951.524	1.858	0	generate	Run4	generate/STIM_019.jpg
2955.84	1.824	1	generate	Run4	generate/STIM_019.jpg
2959.777	1.224	1	generate	Run4	generate/STIM_019.jpg
2963.54	0.84	1	generate	Run4	generate/STIM_020.jpg
2967.133	1.238	1	generate	Run4	generate/STIM_020.jpg
2971.793	1.814	1	generate	Run4	generate/STIM_020.jpg
2977.194	1.109	1	generate	Run4	generate/STIM_020.jpg
2981.783	1.887	1	generate	Run4	generate/STIM_020.jpg
2987.026	1.7	1	generate	Run4	generate/STIM_021.jpg
2991.049	1.136	1	generate	Run4	generate/STIM_021.jpg
2995.972	1.157	1	generate	Run4	generate/STIM_021.jpg
2999.394	1.182	1	generate	Run4	generate/STIM_021.jpg
3004.43	0.896	1	generate	Run4	generate/STIM_021.jpg
3007.986	1.5	0	generate	Run4	generate/STIM_022.jpg
3012.272	1.72	1	generate	Run4	generate/STIM_022.jpg
3016.449	1.12	1	generate	Run4	generate/STIM_022.jpg
3021.372	1.917	1	generate	Run4	generate/STIM_022.jpg
3027.266	1.544	1	generate	Run4	generate/STIM_022.jpg
3031.368	0.973	1	generate	Run4	generate/STIM_023.jpg
3035.5	1.02	1	generate	Run4	generate/STIM_023.jpg
3040.418	1.405	1	generate	Run4	generate/STIM_023.jpg
3045.381	0.907	1	generate	Run4	generate/STIM_023.jpg
3048.34	1.567	1	generate	Run4	generate/STIM_023.jpg
3052.185	1.623	1	generate	Run4	generate/STIM_024.jpg
3057.465	1.153	1	generate	Run4	generate/STIM_024.jpg
3062.386	1.091	1	generate	Run4	generate/STIM_024.jpg
3066.585	1.695	1	generate	Run4	generate/STIM_024.jpg
3071.996	1.562	1	generate	Run4	generate/STIM_024.jpg
3077.423	0.831	0	repeat	Run4	repeat/STIM_000.jpg
3081.888	0.885	1	repeat	Run4	repeat/STIM_000.jpg
3085.381	0.926	1	repeat	Run4	repeat/STIM_000.jpg
3089.785	0.803	1	repeat	Run4	repeat/STIM_000.jpg
3094.436	0.742	1	repeat	Run4	repeat/STIM_000.jpg
3098.992	0.896	1	repeat	Run4	repeat/STIM_001.jpg
3102.588	0.505	1	repeat	Run4	repeat/STIM_001.jpg
3107.024	0.692	0	repeat	Run4	repeat/STIM_001.jpg
3111.674	0.559	1	repeat	Run4	repeat/STIM_001.jpg
3115.406	0.592	1	repeat	Run4	repeat/STIM_001.jpg
3119.362	0.887	1	repeat	Run4	repeat/STIM_002.jpg
3123.381	0.609	1	repeat	Run4	repeat/STIM_002.jpg
3126.091	0.489	1	repeat	Run4	repeat/STIM_002.jpg
3129.163	0.553	1	repeat	Run4	repeat/STIM_002.jpg
3133.677	0.747	1	repeat	Run4	repeat/STIM_002.jpg
3138.013	0.566	1	repeat	Run4	repeat/STIM_003.jpg
3140.967	0.752	1	repeat	Run4	repeat/STIM_003.jpg
3144.316	0.843	1	repeat	Run4	repeat/STIM_003.jpg
3148.239	0.864	0	repeat	Run4	repeat/STIM_003.jpg
3151.403	0.612	1	repeat	Run4	repeat/STIM_003.jpg
3154.813	0.82	1	repeat	Run4	repeat/STIM_004.jpg
3158.829	0.752	0	repeat	Run4	repeat/STIM_004.jpg
3163.113	0.814	1	repeat	Run4	repeat/STIM_004.jpg
3167.61	0.691	1	repeat	Run4	repeat/STIM_004.jpg
3172.127	0.65	1	repeat	Run4	repeat/STIM_004.jpg
3176.158	0.798	1	repeat	Run4	repeat/STIM_005.jpg
3179.363	0.785	1	repeat	Run4	repeat/STIM_005.jpg
3182.251	0.842	1	repeat	Run4	repeat/STIM_005.jpg
3185.502	0.673	1	repeat	Run4	repeat/STIM_005.jpg
3189.852	0.592	1	repeat	Run4	repeat/STIM_005.jpg
3192.962	0.56	1	repeat	Run4	repeat/STIM_006.jpg
3195.525	0.672	1	repeat	Run4	repeat/STIM_006.jpg
3199.826	0.87	1	repeat	Run4	repeat/STIM_006.jpg
3202.873	0.668	1	repeat	Run4	repeat/STIM_006.jpg
3206.427	0.83	1	repeat	Run4	repeat/STIM_006.jpg
3209.351	0.642	1	repeat	Run4	repeat/STIM_007.jpg
3212.835	0.767	1	repeat	Run4	repeat/STIM_007.jpg
3216.294	0.582	1	repeat	Run4	repeat/STIM_007.jpg
3219.681	0.75	1	repeat	Run4	repeat/STIM_007.jpg
3224.348	0.572	1	repeat	Run4	repeat/STIM_007.jpg
3227.408	0.724	1	repeat	Run4	repeat/STIM_008.jpg
3231.053	0.592	1	repeat	Run4	repeat/STIM_008.jpg
3234.427	0.636	1	repeat	Run4	repeat/STIM_008.jpg
3238.318	0.491	1	repeat	Run4	repeat/STIM_008.jpg
3241.078	0.592	1	repeat	Run4	repeat/STIM_008.jpg
3245.084	0.802	1	repeat	Run4	repeat/STIM_009.jpg
3248.078	0.702	1	repeat	Run4	repeat/STIM_009.jpg
3251.82	0.521	1	repeat	Run4	repeat/STIM_009.jpg
3254.596	0.8	1	repeat	Run4	repeat/STIM_009.jpg
3257.752	0.531	1	repeat	Run4	repeat/STIM_009.jpg
3261.601	0.572	1	repeat	Run4	repeat/STIM_010.jpg
3264.606	0.674	1	repeat	Run4	repeat/STIM_010.jpg
3269.08	0.477	1	repeat	Run4	repeat/STIM_010.jpg
3272.988	0.681	1	repeat	Run4	repeat/STIM_010.jpg
3276.199	0.649	1	repeat	Run4	repeat/STIM_010.jpg
3279.008	0.764	1	repeat	Run4	repeat/STIM_011.jpg
3282.793	0.722	1	repeat	Run4	repeat/STIM_011.jpg
3285.516	0.722	1	repeat	Run4	repeat/STIM_011.jpg
3289.746	0.883	1	repeat	Run4	repeat/STIM_011.jpg
3293.782	0.72	1	repeat	Run4	repeat/STIM_011.jpg
3296.61	0.68	1	repeat	Run4	repeat/STIM_012.jpg
3299.473	0.86	1	repeat	Run4	repeat/STIM_012.jpg
3302.987	0.549	1	repeat	Run4	repeat/STIM_012.jpg
3306.994	0.523	1	repeat	Run4	repeat/STIM_012.jpg
3311.435	0.85	1	repeat	Run4	repeat/STIM_012.jpg
3315.672	0.521	1	repeat	Run4	repeat/STIM_013.jpg
3319.677	0.581	1	repeat	Run4	repeat/STIM_013.jpg
3323.469	0.578	1	repeat	Run4	repeat/STIM_013.jpg
3327.051	0.493	1	repeat	Run4	repeat/STIM_013.jpg
3330.561	0.563	1	repeat	Run4	repeat/STIM_013.jpg
3334.596	0.553	1	repeat	Run4	repeat/STIM_014.jpg
3338.702	0.812	0	repeat	Run4	repeat/STIM_014.jpg
3342.033	0.875	1	repeat	Run4	repeat/STIM_014.jpg
3346.041	0.803	1	repeat	Run4	repeat/STIM_014.jpg
3349.015	0.531	1	repeat	Run4	repeat/STIM_014.jpg
