onset	duration	response_time_ms	trial_type	learning_stage	stimulus	response_port
0.0	1.662	1661.7	study	Phase1	study/STIM_000.jpg	100
3.895	1.638	1637.6	study	Phase1	study/STIM_000.jpg	100
8.504	1.003	1002.8	study	Phase1	study/STIM_000.jpg	100
11.82	1.077	1077.2	study	Phase1	study/STIM_001.jpg	100
16.367	1.034	1033.6	study	Phase1	study/STIM_001.jpg	100
19.358	1.219	1219.3	study	Phase1	study/STIM_001.jpg	100
23.036	1.985	1985.2	study	Phase1	study/STIM_002.jpg	99
27.735	1.891	1890.6	study	Phase1	study/STIM_002.jpg	100
32.825	1.174	1174.3	study	Phase1	study/STIM_002.jpg	99
37.703	1.323	1322.7	study	Phase1	study/STIM_003.jpg	100
41.746	1.868	1868.4	study	Phase1	study/STIM_003.jpg	99
47.386	1.624	1623.8	study	Phase1	study/STIM_003.jpg	100
52.426	0.947	946.8	study	Phase1	study/STIM_004.jpg	99
55.99	1.299	1298.6	study	Phase1	study/STIM_004.jpg	99
60.161	1.46	1460.4	study	Phase1	study/STIM_004.jpg	100
65.423	1.741	1741.1	study	Phase1	study/STIM_005.jpg	100
69.771	0.971	971.4	study	Phase1	study/STIM_005.jpg	100
73.598	1.472	1472.2	study	Phase1	study/STIM_005.jpg	100
78.826	1.317	1317.3	study	Phase1	study/STIM_006.jpg	99
83.784	1.274	1274.4	study	Phase1	study/STIM_006.jpg	100
88.774	1.354	1353.9	study	Phase1	study/STIM_006.jpg	100
93.86	1.528	1527.6	study	Phase1	study/STIM_007.jpg	100
98.874	1.712	1712.3	study	Phase1	study/STIM_007.jpg	100
103.508	1.291	1290.6	study	Phase1	study/STIM_007.jpg	100
107.215	1.366	1366.2	study	Phase1	study/STIM_008.jpg	99
111.476	1.858	1857.6	study	Phase1	study/STIM_008.jpg	100
115.306	1.101	1100.9	study	Phase1	study/STIM_008.jpg	100
119.13	1.629	1628.9	study	Phase1	study/STIM_009.jpg	100
122.727	1.054	1054.2	study	Phase1	study/STIM_009.jpg	100
126.695	1.482	1481.7	study	Phase1	study/STIM_009.jpg	100
130.286	1.781	1781.0	study	Phase1	study/STIM_010.jpg	100
134.438	1.292	1292.0	study	Phase1	study/STIM_010.jpg	100
138.053	1.571	1571.2	study	Phase1	study/STIM_010.jpg	100
142.672	1.946	1945.5	study	Phase1	study/STIM_011.jpg	100
147.325	1.235	1235.0	study	Phase1	study/STIM_011.jpg	100
151.946	0.915	914.9	study	Phase1	study/STIM_011.jpg	100
154.977	1.162	1161.9	study	Phase1	study/STIM_012.jpg	99
159.743	1.897	1897.3	study	Phase1	study/STIM_012.jpg	99
163.738	1.081	1080.6	study	Phase1	study/STIM_012.jpg	100
166.939	1.524	1523.8	study	Phase1	study/STIM_013.jpg	100
171.675	1.694	1694.1	study	Phase1	study/STIM_013.jpg	99
176.146	1.742	1742.1	study	Phase1	study/STIM_013.jpg	100
180.629	1.262	1261.8	study	Phase1	study/STIM_014.jpg	100
185.403	1.026	1026.0	study	Phase1	study/STIM_014.jpg	99
189.599	1.548	1548.3	study	Phase1	study/STIM_014.jpg	100
193.01	1.678	1677.9	study	Phase1	study/STIM_015.jpg	100
196.878	1.886	1886.1	study	Phase1	study/STIM_015.jpg	99
201.728	1.506	1506.2	study	Phase1	study/STIM_015.jpg	100
207.004	2.001	2001.4	study	Phase1	study/STIM_016.jpg	99
212.137	1.592	1592.3	study	Phase1	study/STIM_016.jpg	100
216.444	1.344	1344.3	study	Phase1	study/STIM_016.jpg	99
220.544	1.377	1377.2	study	Phase1	study/STIM_017.jpg	100
225.353	1.28	1280.3	study	Phase1	study/STIM_017.jpg	100
228.815	1.278	1278.4	study	Phase1	study/STIM_017.jpg	99
232.851	1.513	1512.6	study	Phase1	study/STIM_018.jpg	100
236.987	1.221	1220.6	study	Phase1	study/STIM_018.jpg	99
241.247	1.511	1511.1	study	Phase1	study/STIM_018.jpg	99
245.17	1.184	1183.5	study	Phase1	study/STIM_019.jpg	100
248.327	1.298	1298.5	study	Phase1	study/STIM_019.jpg	99
252.874	1.766	1766.5	study	Phase1	study/STIM_019.jpg	100
258.245	1.624	1624.0	study	Phase1	study/STIM_020.jpg	99
262.013	1.806	1806.2	study	Phase1	study/STIM_020.jpg	100
267.448	1.59	1589.7	study	Phase1	study/STIM_020.jpg	100
271.316	1.909	1908.6	study	Phase1	study/STIM_021.jpg	99
275.725	0.9	900.2	study	Phase1	study/STIM_021.jpg	100
279.659	1.766	1766.5	study	Phase1	study/STIM_021.jpg	100
284.257	1.57	1570.1	study	Phase1	study/STIM_022.jpg	100
287.931	1.765	1765.2	study	Phase1	study/STIM_022.jpg	99
292.366	0.871	870.8	study	Phase1	study/STIM_022.jpg	99
295.947	1.174	1173.9	study	Phase1	study/STIM_023.jpg	100
299.368	1.392	1391.9	study	Phase1	study/STIM_023.jpg	100
304.315	1.623	1623.0	study	Phase1	study/STIM_023.jpg	100
308.057	1.939	1939.1	study	Phase1	study/STIM_024.jpg	100
312.309	0.936	935.6	study	Phase1	study/STIM_024.jpg	100
315.997	1.118	1118.2	study	Phase1	study/STIM_024.jpg	100
319.312	1.575	1575.2	study	Phase1	study/STIM_025.jpg	99
323.915	1.667	1666.6	study	Phase1	study/STIM_025.jpg	99
329.064	1.068	1068.1	study	Phase1	study/STIM_025.jpg	99
333.465	1.814	1813.9	study	Phase1	study/STIM_026.jpg	100
338.734	1.331	1331.4	study	Phase1	study/STIM_026.jpg	100
342.878	1.019	1018.7	study	Phase1	study/STIM_026.jpg	99
346.087	1.098	1098.1	study	Phase1	study/STIM_027.jpg	100
349.305	1.084	1084.1	study	Phase1	study/STIM_027.jpg	99
353.43	1.39	1389.5	study	Phase1	study/STIM_027.jpg	99
357.726	1.138	1138.4	study	Phase1	study/STIM_028.jpg	100
362.257	1.77	1770.1	study	Phase1	study/STIM_028.jpg	100
366.37	1.131	1130.6	study	Phase1	study/STIM_028.jpg	99
369.942	1.886	1886.3	study	Phase1	study/STIM_029.jpg	100
374.993	1.874	1873.7	study	Phase1	study/STIM_029.jpg	100
380.305	1.482	1482.4	study	Phase1	study/STIM_029.jpg	100
384.273	1.05	1049.5	test	Phase1	test/STIM_000.jpg	100
388.959	1.163	1162.9	test	Phase1	test/STIM_000.jpg	100
392.531	1.246	1246.5	test	Phase1	test/STIM_000.jpg	99
396.095	1.41	1409.5	test	Phase1	test/STIM_001.jpg	99
400.949	1.078	1078.3	test	Phase1	test/STIM_001.jpg	100
404.2	1.094	1094.4	test	Phase1	test/STIM_001.jpg	100
407.577	0.888	887.6	test	Phase1	test/STIM_002.jpg	100
412.014	1.032	1032.4	test	Phase1	test/STIM_002.jpg	100
416.789	1.258	1258.5	test	Phase1	test/STIM_002.jpg	99
420.271	0.698	698.3	test	Phase1	test/STIM_003.jpg	99
423.576	1.236	1236.1	test	Phase1	test/STIM_003.jpg	100
427.47	0.976	975.6	test	Phase1	test/STIM_003.jpg	99
432.131	1.435	1435.3	test	Phase1	test/STIM_004.jpg	99
436.43	1.2	1200.2	test	Phase1	test/STIM_004.jpg	99
440.555	1.243	1243.2	test	Phase1	test/STIM_004.jpg	100
445.664	0.707	706.7	test	Phase1	test/STIM_005.jpg	100
449.092	1.269	1269.2	test	Phase1	test/STIM_005.jpg	99
453.1	1.213	1212.8	test	Phase1	test/STIM_005.jpg	99
457.278	1.008	1007.7	test	Phase1	test/STIM_006.jpg	99
461.476	1.351	1350.6	test	Phase1	test/STIM_006.jpg	100
464.969	1.152	1151.7	test	Phase1	test/STIM_006.jpg	99
468.777	0.99	989.8	test	Phase1	test/STIM_007.jpg	99
472.026	1.17	1170.4	test	Phase1	test/STIM_007.jpg	100
476.974	1.081	1081.4	test	Phase1	test/STIM_007.jpg	100
481.238	0.905	905.2	test	Phase1	test/STIM_008.jpg	99
485.305	1.066	1066.4	test	Phase1	test/STIM_008.jpg	99
490.044	0.715	714.6	test	Phase1	test/STIM_008.jpg	99
494.368	0.698	697.8	test	Phase1	test/STIM_009.jpg	100
497.801	0.828	828.0	test	Phase1	test/STIM_009.jpg	99
502.206	1.033	1032.9	test	Phase1	test/STIM_009.jpg	99
505.746	1.434	1433.7	test	Phase1	test/STIM_010.jpg	100
509.354	1.441	1440.7	test	Phase1	test/STIM_010.jpg	100
514.062	0.786	786.2	test	Phase1	test/STIM_010.jpg	99
517.128	1.161	1160.6	test	Phase1	test/STIM_011.jpg	100
520.265	0.896	895.6	test	Phase1	test/STIM_011.jpg	99
524.661	1.17	1169.9	test	Phase1	test/STIM_011.jpg	99
529.476	1.085	1085.4	test	Phase1	test/STIM_012.jpg	100
534.319	0.675	675.4	test	Phase1	test/STIM_012.jpg	100
538.507	0.718	718.2	test	Phase1	test/STIM_012.jpg	99
543.107	0.834	833.7	test	Phase1	test/STIM_013.jpg	99
547.347	0.973	973.0	test	Phase1	test/STIM_013.jpg	100
550.347	0.817	816.8	test	Phase1	test/STIM_013.jpg	100
554.717	0.906	906.0	test	Phase1	test/STIM_014.jpg	100
558.411	0.938	938.3	test	Phase1	test/STIM_014.jpg	99
561.279	1.355	1354.9	test	Phase1	test/STIM_014.jpg	100
566.24	1.023	1022.9	test	Phase1	test/STIM_015.jpg	100
570.809	0.903	903.4	test	Phase1	test/STIM_015.jpg	99
574.835	1.04	1039.7	test	Phase1	test/STIM_015.jpg	99
578.379	0.91	910.3	test	Phase1	test/STIM_016.jpg	100
581.26	1.397	1396.6	test	Phase1	test/STIM_016.jpg	99
585.401	0.717	716.7	test	Phase1	test/STIM_016.jpg	100
588.079	1.199	1198.7	test	Phase1	test/STIM_017.jpg	100
592.468	0.985	985.0	test	Phase1	test/STIM_017.jpg	99
595.629	0.76	760.0	test	Phase1	test/STIM_017.jpg	100
599.134	0.866	865.8	test	Phase1	test/STIM_018.jpg	100
602.561	1.219	1218.8	test	Phase1	test/STIM_018.jpg	100
607.582	1.008	1008.4	test	Phase1	test/STIM_018.jpg	100
611.874	0.99	989.8	test	Phase1	test/STIM_019.jpg	99
616.655	1.058	1057.7	test	Phase1	test/STIM_019.jpg	99
621.155	1.258	1258.2	test	Phase1	test/STIM_019.jpg	99
624.414	1.433	1433.4	test	Phase1	test/STIM_020.jpg	100
628.334	1.434	1434.0	test	Phase1	test/STIM_020.jpg	100
632.281	0.909	908.9	test	Phase1	test/STIM_020.jpg	99
635.766	0.865	864.6	test	Phase1	test/STIM_021.jpg	100
639.673	1.263	1263.1	test	Phase1	test/STIM_021.jpg	99
644.318	1.373	1373.0	test	Phase1	test/STIM_021.jpg	100
649.057	1.29	1289.9	test	Phase1	test/STIM_022.jpg	99
653.641	1.365	1364.6	test	Phase1	test/STIM_022.jpg	99
657.118	0.792	791.9	test	Phase1	test/STIM_022.jpg	100
660.004	0.764	764.1	test	Phase1	test/STIM_023.jpg	100
663.234	1.041	1041.2	test	Phase1	test/STIM_023.jpg	99
666.405	0.916	916.0	test	Phase1	test/STIM_023.jpg	99
669.353	1.418	1417.7	test	Phase1	test/STIM_024.jpg	99
674.384	1.346	1346.0	test	Phase1	test/STIM_024.jpg	100
679.162	1.236	1236.1	test	Phase1	test/STIM_024.jpg	99
682.71	0.991	991.3	test	Phase1	test/STIM_025.jpg	100
686.116	1.177	1177.3	test	Phase1	test/STIM_025.jpg	99
690.102	1.173	1172.7	test	Phase1	test/STIM_025.jpg	99
693.668	1.423	1422.9	test	Phase1	test/STIM_026.jpg	100
698.299	1.336	1336.0	test	Phase1	test/STIM_026.jpg	100
701.511	0.789	788.6	test	Phase1	test/STIM_026.jpg	100
705.359	0.757	757.1	test	Phase1	test/STIM_027.jpg	99
709.695	1.031	1030.7	test	Phase1	test/STIM_027.jpg	99
713.079	1.173	1173.2	test	Phase1	test/STIM_027.jpg	100
717.877	0.907	907.3	test	Phase1	test/STIM_028.jpg	99
721.144	1.188	1188.4	test	Phase1	test/STIM_028.jpg	99
725.408	0.684	684.5	test	Phase1	test/STIM_028.jpg	99
728.643	1.342	1342.1	test	Phase1	test/STIM_029.jpg	99
732.707	1.16	1160.2	test	Phase1	test/STIM_029.jpg	99
737.023	0.744	744.2	test	Phase1	test/STIM_029.jpg	100
740.838	1.042	1042.1	study	Phase2	study/STIM_000.jpg	100
743.954	1.001	1000.7	study	Phase2	study/STIM_000.jpg	99
747.824	1.065	1064.8	study	Phase2	study/STIM_000.jpg	100
751.749	1.094	1094.3	study	Phase2	study/STIM_001.jpg	100
755.992	1.38	1380.5	study	Phase2	study/STIM_001.jpg	99
759.237	0.724	724.2	study	Phase2	study/STIM_001.jpg	99
763.149	1.665	1664.7	study	Phase2	study/STIM_002.jpg	100
767.477	1.02	1019.9	study	Phase2	study/STIM_002.jpg	100
771.15	0.681	680.7	study	Phase2	study/STIM_002.jpg	99
775.455	1.062	1061.7	study	Phase2	study/STIM_003.jpg	99
780.356	0.828	828.0	study	Phase2	study/STIM_003.jpg	100
784.717	0.879	879.4	study	Phase2	study/STIM_003.jpg	99
788.62	1.072	1071.9	study	Phase2	study/STIM_004.jpg	99
792.827	1.262	1261.5	study	Phase2	study/STIM_004.jpg	100
796.508	0.923	923.2	study	Phase2	study/STIM_004.jpg	100
799.824	1.021	1020.7	study	Phase2	study/STIM_005.jpg	99
802.961	0.954	953.9	study	Phase2	study/STIM_005.jpg	99
806.186	1.104	1104.5	study	Phase2	study/STIM_005.jpg	100
810.845	1.334	1334.5	study	Phase2	study/STIM_006.jpg	100
815.299	0.736	735.8	study	Phase2	study/STIM_006.jpg	99
819.358	1.065	1065.4	study	Phase2	study/STIM_006.jpg	100
823.657	1.028	1028.2	study	Phase2	study/STIM_007.jpg	99
827.406	1.276	1275.7	study	Phase2	study/STIM_007.jpg	99
832.122	1.113	1112.7	study	Phase2	study/STIM_007.jpg	100
836.242	1.176	1175.8	study	Phase2	study/STIM_008.jpg	100
839.352	1.076	1076.2	study	Phase2	study/STIM_008.jpg	100
843.746	0.679	678.9	study	Phase2	study/STIM_008.jpg	100
847.048	0.85	850.3	study	Phase2	study/STIM_009.jpg	100
850.236	1.024	1024.2	study	Phase2	study/STIM_009.jpg	100
854.479	1.322	1322.3	study	Phase2	study/STIM_009.jpg	99
858.288	1.254	1254.4	study	Phase2	study/STIM_010.jpg	100
862.673	1.351	1351.2	study	Phase2	study/STIM_010.jpg	99
866.081	0.809	809.1	study	Phase2	study/STIM_010.jpg	100
869.76	1.162	1162.0	study	Phase2	study/STIM_011.jpg	100
873.547	1.24	1239.9	study	Phase2	study/STIM_011.jpg	100
877.934	0.838	837.8	study	Phase2	study/STIM_011.jpg	100
882.249	1.305	1305.4	study	Phase2	study/STIM_012.jpg	100
885.449	0.821	821.3	study	Phase2	study/STIM_012.jpg	100
888.207	1.272	1272.0	study	Phase2	study/STIM_012.jpg	99
891.371	0.864	864.3	study	Phase2	study/STIM_013.jpg	100
895.524	1.074	1073.8	study	Phase2	study/STIM_013.jpg	99
899.635	1.228	1228.0	study	Phase2	study/STIM_013.jpg	99
903.182	1.22	1219.8	study	Phase2	study/STIM_014.jpg	100
907.296	0.74	740.4	study	Phase2	study/STIM_014.jpg	100
910.705	0.912	912.1	study	Phase2	study/STIM_014.jpg	100
915.066	1.156	1155.8	study	Phase2	study/STIM_015.jpg	100
919.775	0.903	903.4	study	Phase2	study/STIM_015.jpg	99
924.028	1.086	1085.8	study	Phase2	study/STIM_015.jpg	99
928.145	1.354	1353.8	study	Phase2	study/STIM_016.jpg	100
931.605	1.234	1233.8	study	Phase2	study/STIM_016.jpg	100
935.233	0.846	846.1	study	Phase2	study/STIM_016.jpg	99
939.681	0.883	883.4	study	Phase2	study/STIM_017.jpg	100
942.76	0.882	882.0	study	Phase2	study/STIM_017.jpg	99
945.571	0.833	833.2	study	Phase2	study/STIM_017.jpg	100
948.882	1.102	1101.7	study	Phase2	study/STIM_018.jpg	100
952.808	1.069	1069.0	study	Phase2	study/STIM_018.jpg	100
957.503	0.917	917.2	study	Phase2	study/STIM_018.jpg	100
961.069	0.796	795.7	study	Phase2	study/STIM_019.jpg	100
965.052	0.715	714.9	study	Phase2	study/STIM_019.jpg	100
968.311	1.346	1346.5	study	Phase2	study/STIM_019.jpg	99
972.312	0.907	906.6	study	Phase2	study/STIM_020.jpg	99
976.746	1.116	1116.2	study	Phase2	study/STIM_020.jpg	100
979.825	0.947	947.0	study	Phase2	study/STIM_020.jpg	100
984.165	1.022	1021.5	study	Phase2	study/STIM_021.jpg	100
988.317	1.064	1063.9	study	Phase2	study/STIM_021.jpg	99
991.862	0.787	786.6	study	Phase2	study/STIM_021.jpg	99
995.695	0.764	764.5	study	Phase2	study/STIM_022.jpg	100
998.7	0.943	943.1	study	Phase2	study/STIM_022.jpg	100
1002.037	1.239	1239.2	study	Phase2	study/STIM_022.jpg	99
1005.844	1.252	1252.4	study	Phase2	study/STIM_023.jpg	99
1009.149	1.205	1204.9	study	Phase2	study/STIM_023.jpg	99
1012.407	1.018	1018.2	study	Phase2	study/STIM_023.jpg	100
1016.798	0.945	944.8	study	Phase2	study/STIM_024.jpg	99
1021.542	0.91	910.0	study	Phase2	study/STIM_024.jpg	100
1025.07	1.078	1077.9	study	Phase2	study/STIM_024.jpg	99
1029.374	0.98	979.7	study	Phase2	study/STIM_025.jpg	99
1032.969	0.937	937.2	study	Phase2	study/STIM_025.jpg	100
1037.741	1.395	1394.9	study	Phase2	study/STIM_025.jpg	99
1041.902	1.416	1415.6	study	Phase2	study/STIM_026.jpg	100
1046.625	1.582	1582.1	study	Phase2	study/STIM_026.jpg	100
1051.587	0.747	747.1	study	Phase2	study/STIM_026.jpg	100
1055.814	1.251	1250.9	study	Phase2	study/STIM_027.jpg	100
1060.27	1.205	1205.2	study	Phase2	study/STIM_027.jpg	100
1063.613	1.498	1498.1	study	Phase2	study/STIM_027.jpg	99
1067.918	0.977	976.7	study	Phase2	study/STIM_028.jpg	100
1072.058	0.744	744.0	study	Phase2	study/STIM_028.jpg	99
1075.285	0.896	896.2	study	Phase2	study/STIM_028.jpg	100
1079.619	1.394	1393.8	study	Phase2	study/STIM_029.jpg	100
1084.409	1.035	1034.6	study	Phase2	study/STIM_029.jpg	99
1088.681	1.367	1366.9	study	Phase2	study/STIM_029.jpg	100
1093.096	1.227	1227.1	test	Phase2	test/STIM_000.jpg	100
1096.3	0.938	938.0	test	Phase2	test/STIM_000.jpg	99
1100.57	1.118	1117.8	test	Phase2	test/STIM_000.jpg	100
1105.267	1.078	1078.1	test	Phase2	test/STIM_001.jpg	99
1108.259	0.793	792.8	test	Phase2	test/STIM_001.jpg	99
1111.445	1.164	1163.7	test	Phase2	test/STIM_001.jpg	100
1114.654	1.426	1425.6	test	Phase2	test/STIM_002.jpg	100
1119.207	0.753	753.1	test	Phase2	test/STIM_002.jpg	99
1122.962	0.81	810.5	test	Phase2	test/STIM_002.jpg	100
1125.768	1.427	1426.8	test	Phase2	test/STIM_003.jpg	99
1129.57	0.995	995.1	test	Phase2	test/STIM_003.jpg	100
1134.186	0.945	945.0	test	Phase2	test/STIM_003.jpg	99
1137.464	0.837	836.6	test	Phase2	test/STIM_004.jpg	100
1142.063	0.903	902.9	test	Phase2	test/STIM_004.jpg	100
1145.907	1.29	1290.3	test	Phase2	test/STIM_004.jpg	99
1149.944	0.803	803.3	test	Phase2	test/STIM_005.jpg	99
1154.182	1.002	1002.5	test	Phase2	test/STIM_005.jpg	99
1158.661	1.264	1263.5	test	Phase2	test/STIM_005.jpg	99
1162.626	1.33	1330.5	test	Phase2	test/STIM_006.jpg	99
1167.143	0.907	907.1	test	Phase2	test/STIM_006.jpg	99
1170.287	0.982	981.8	test	Phase2	test/STIM_006.jpg	99
1174.96	1.094	1093.9	test	Phase2	test/STIM_007.jpg	99
1179.319	1.083	1083.0	test	Phase2	test/STIM_007.jpg	99
1183.858	0.942	942.5	test	Phase2	test/STIM_007.jpg	100
1188.676	1.17	1169.6	test	Phase2	test/STIM_008.jpg	99
1193.239	1.146	1146.5	test	Phase2	test/STIM_008.jpg	99
1198.238	1.236	1236.0	test	Phase2	test/STIM_008.jpg	99
1202.227	1.374	1374.0	test	Phase2	test/STIM_009.jpg	100
1206.952	0.736	736.3	test	Phase2	test/STIM_009.jpg	99
1210.283	1.19	1190.2	test	Phase2	test/STIM_009.jpg	99
1213.574	1.082	1081.8	test	Phase2	test/STIM_010.jpg	100
1218.098	1.06	1060.4	test	Phase2	test/STIM_010.jpg	100
1222.489	1.19	1189.9	test	Phase2	test/STIM_010.jpg	100
1226.261	1.205	1205.2	test	Phase2	test/STIM_011.jpg	100
1230.952	1.282	1281.6	test	Phase2	test/STIM_011.jpg	100
1234.34	1.439	1438.7	test	Phase2	test/STIM_011.jpg	99
1238.372	1.119	1118.7	test	Phase2	test/STIM_012.jpg	99
1242.365	1.136	1135.7	test	Phase2	test/STIM_012.jpg	99
1246.683	1.117	1117.3	test	Phase2	test/STIM_012.jpg	99
1250.765	1.348	1348.1	test	Phase2	test/STIM_013.jpg	100
1255.52	0.991	991.4	test	Phase2	test/STIM_013.jpg	100
1259.185	1.186	1186.3	test	Phase2	test/STIM_013.jpg	100
1262.85	1.022	1021.6	test	Phase2	test/STIM_014.jpg	99
1267.593	0.829	828.6	test	Phase2	test/STIM_014.jpg	99
1271.204	1.05	1049.8	test	Phase2	test/STIM_014.jpg	99
1275.183	1.316	1315.9	test	Phase2	test/STIM_015.jpg	100
1278.579	1.211	1211.0	test	Phase2	test/STIM_015.jpg	100
1283.183	0.726	726.5	test	Phase2	test/STIM_015.jpg	100
1287.373	0.958	957.5	test	Phase2	test/STIM_016.jpg	100
1291.268	0.669	669.2	test	Phase2	test/STIM_016.jpg	100
1294.896	0.916	915.8	test	Phase2	test/STIM_016.jpg	99
1298.115	0.794	794.5	test	Phase2	test/STIM_017.jpg	100
1302.368	0.851	851.4	test	Phase2	test/STIM_017.jpg	100
1306.931	1.153	1153.2	test	Phase2	test/STIM_017.jpg	100
1310.375	0.727	727.0	test	Phase2	test/STIM_018.jpg	99
1314.445	1.204	1203.6	test	Phase2	test/STIM_018.jpg	100
1318.786	0.989	989.2	test	Phase2	test/STIM_018.jpg	100
1321.98	1.302	1302.5	test	Phase2	test/STIM_019.jpg	100
1325.457	0.795	794.9	test	Phase2	test/STIM_019.jpg	99
1329.417	0.804	804.4	test	Phase2	test/STIM_019.jpg	100
1332.883	0.712	712.0	test	Phase2	test/STIM_020.jpg	99
1337.046	1.282	1282.1	test	Phase2	test/STIM_020.jpg	99
1340.332	1.362	1361.9	test	Phase2	test/STIM_020.jpg	100
1344.21	0.768	767.7	test	Phase2	test/STIM_021.jpg	100
1348.861	1.343	1342.9	test	Phase2	test/STIM_021.jpg	99
1353.749	1.163	1163.4	test	Phase2	test/STIM_021.jpg	99
1357.317	1.206	1206.0	test	Phase2	test/STIM_022.jpg	99
1362.096	1.093	1092.6	test	Phase2	test/STIM_022.jpg	99
1366.445	1.275	1275.0	test	Phase2	test/STIM_022.jpg	99
1371.069	0.935	935.0	test	Phase2	test/STIM_023.jpg	100
1374.064	1.127	1127.4	test	Phase2	test/STIM_023.jpg	99
1378.902	1.153	1152.8	test	Phase2	test/STIM_023.jpg	99
1382.428	1.198	1198.4	test	Phase2	test/STIM_024.jpg	100
1386.101	0.744	743.6	test	Phase2	test/STIM_024.jpg	100
1389.5	0.881	881.4	test	Phase2	test/STIM_024.jpg	99
1393.8	1.047	1047.0	test	Phase2	test/STIM_025.jpg	100
1397.123	0.901	901.4	test	Phase2	test/STIM_025.jpg	100
1400.926	0.688	687.7	test	Phase2	test/STIM_025.jpg	100
1404.629	0.684	683.8	test	Phase2	test/STIM_026.jpg	99
1407.386	1.231	1230.9	test	Phase2	test/STIM_026.jpg	100
1412.46	0.935	935.2	test	Phase2	test/STIM_026.jpg	100
1415.484	0.724	724.4	test	Phase2	test/STIM_027.jpg	100
1419.571	1.43	1429.5	test	Phase2	test/STIM_027.jpg	100
1424.46	0.741	741.0	test	Phase2	test/STIM_027.jpg	100
1427.229	1.283	1282.9	test	Phase2	test/STIM_028.jpg	100
1430.743	1.218	1217.9	test	Phase2	test/STIM_028.jpg	99
1435.364	0.913	912.7	test	Phase2	test/STIM_028.jpg	100
1438.562	1.311	1311.1	test	Phase2	test/STIM_029.jpg	99
1443.545	1.137	1137.3	test	Phase2	test/STIM_029.jpg	100
1448.242	1.189	1189.1	test	Phase2	test/STIM_029.jpg	100
1452.008	0.759	758.8	study	Phase3	study/STIM_000.jpg	100
1454.91	1.133	1133.2	study	Phase3	study/STIM_000.jpg	100
1459.655	1.17	1170.2	study	Phase3	study/STIM_000.jpg	99
1462.879	1.247	1246.7	study	Phase3	study/STIM_001.jpg	100
1466.087	1.403	1403.1	study	Phase3	study/STIM_001.jpg	100
1469.77	0.947	947.4	study	Phase3	study/STIM_001.jpg	100
1474.392	0.833	833.2	study	Phase3	study/STIM_002.jpg	100
1478.387	1.241	1240.9	study	Phase3	study/STIM_002.jpg	99
1482.935	0.716	715.7	study	Phase3	study/STIM_002.jpg	100
1487.416	0.69	690.2	study	Phase3	study/STIM_003.jpg	100
1491.15	0.66	660.1	study	Phase3	study/STIM_003.jpg	100
1494.123	0.999	999.2	study	Phase3	study/STIM_003.jpg	100
1497.971	1.03	1030.3	study	Phase3	study/STIM_004.jpg	99
1502.788	1.017	1016.7	study	Phase3	study/STIM_004.jpg	99
1506.218	1.119	1118.9	study	Phase3	study/STIM_004.jpg	100
1510.751	0.785	784.7	study	Phase3	study/STIM_005.jpg	99
1514.927	0.724	723.7	study	Phase3	study/STIM_005.jpg	100
1518.155	1.007	1007.2	study	Phase3	study/STIM_005.jpg	99
1521.227	1.223	1223.3	study	Phase3	study/STIM_006.jpg	100
1524.789	0.811	810.7	study	Phase3	study/STIM_006.jpg	100
1529.14	0.684	684.2	study	Phase3	study/STIM_006.jpg	99
1533.599	1.062	1061.9	study	Phase3	study/STIM_007.jpg	99
1537.091	0.711	710.8	study	Phase3	study/STIM_007.jpg	99
1541.353	0.667	667.4	study	Phase3	study/STIM_007.jpg	100
1544.986	1.306	1305.5	study	Phase3	study/STIM_008.jpg	100
1549.714	1.079	1079.0	study	Phase3	study/STIM_008.jpg	99
1554.406	0.644	644.5	study	Phase3	study/STIM_008.jpg	100
1558.479	1.314	1313.8	study	Phase3	study/STIM_009.jpg	99
1562.341	0.685	685.2	study	Phase3	study/STIM_009.jpg	99
1566.671	1.001	1001.0	study	Phase3	study/STIM_009.jpg	99
1569.774	1.111	1110.9	study	Phase3	study/STIM_010.jpg	99
1574.449	1.246	1246.1	study	Phase3	study/STIM_010.jpg	99
1579.538	1.267	1267.3	study	Phase3	study/STIM_010.jpg	100
1584.172	0.961	961.3	study	Phase3	study/STIM_011.jpg	100
1588.975	0.816	816.1	study	Phase3	study/STIM_011.jpg	99
1592.888	1.365	1364.8	study	Phase3	study/STIM_011.jpg	100
1597.553	0.653	652.9	study	Phase3	study/STIM_012.jpg	100
1600.78	0.961	961.0	study	Phase3	study/STIM_012.jpg	100
1603.778	0.756	755.7	study	Phase3	study/STIM_012.jpg	99
1607.304	0.671	671.3	study	Phase3	study/STIM_013.jpg	99
1611.027	1.258	1258.2	study	Phase3	study/STIM_013.jpg	99
1615.478	1.329	1329.2	study	Phase3	study/STIM_013.jpg	100
1618.926	1.327	1327.2	study	Phase3	study/STIM_014.jpg	99
1622.654	1.098	1098.5	study	Phase3	study/STIM_014.jpg	99
1626.598	1.261	1260.6	study	Phase3	study/STIM_014.jpg	99
1630.095	1.37	1369.9	study	Phase3	study/STIM_015.jpg	99
1633.932	1.344	1344.0	study	Phase3	study/STIM_015.jpg	100
1637.226	0.907	906.6	study	Phase3	study/STIM_015.jpg	100
1640.4	1.075	1074.8	study	Phase3	study/STIM_016.jpg	99
1644.838	0.747	747.3	study	Phase3	study/STIM_016.jpg	99
1647.508	0.821	820.9	study	Phase3	study/STIM_016.jpg	99
1650.665	1.295	1294.9	study	Phase3	study/STIM_017.jpg	99
1655.337	1.084	1084.1	study	Phase3	study/STIM_017.jpg	100
1658.86	0.866	865.6	study	Phase3	study/STIM_017.jpg	99
1662.142	1.383	1383.1	study	Phase3	study/STIM_018.jpg	99
1667.383	0.982	982.0	study	Phase3	study/STIM_018.jpg	100
1670.825	1.095	1094.7	study	Phase3	study/STIM_018.jpg	99
1673.869	0.85	849.5	study	Phase3	study/STIM_019.jpg	99
1678.596	0.727	727.4	study	Phase3	study/STIM_019.jpg	99
1681.798	1.295	1295.0	study	Phase3	study/STIM_019.jpg	99
1685.445	1.177	1177.4	study	Phase3	study/STIM_020.jpg	99
1689.442	1.181	1180.7	study	Phase3	study/STIM_020.jpg	100
1694.377	0.699	699.1	study	Phase3	study/STIM_020.jpg	99
1697.581	0.743	743.0	study	Phase3	study/STIM_021.jpg	99
1701.164	1.028	1028.3	study	Phase3	study/STIM_021.jpg	100
1704.525	1.254	1253.8	study	Phase3	study/STIM_021.jpg	100
1708.31	0.984	983.5	study	Phase3	study/STIM_022.jpg	100
1712.837	1.37	1370.0	study	Phase3	study/STIM_022.jpg	100
1717.631	0.899	898.8	study	Phase3	study/STIM_022.jpg	100
1721.637	0.944	944.0	study	Phase3	study/STIM_023.jpg	100
1725.982	1.362	1361.7	study	Phase3	study/STIM_023.jpg	99
1730.169	0.936	936.2	study	Phase3	study/STIM_023.jpg	99
1734.285	1.27	1269.6	study	Phase3	study/STIM_024.jpg	100
1739.388	1.157	1157.2	study	Phase3	study/STIM_024.jpg	99
1744.425	1.017	1017.0	study	Phase3	study/STIM_024.jpg	100
1748.918	1.303	1303.0	study	Phase3	study/STIM_025.jpg	99
1752.136	0.73	729.9	study	Phase3	study/STIM_025.jpg	100
1756.64	0.626	625.8	study	Phase3	study/STIM_025.jpg	100
1760.911	1.256	1256.4	study	Phase3	study/STIM_026.jpg	99
1765.397	1.368	1367.8	study	Phase3	study/STIM_026.jpg	99
1768.688	1.305	1305.3	study	Phase3	study/STIM_026.jpg	99
1773.153	1.376	1376.0	study	Phase3	study/STIM_027.jpg	99
1777.183	0.964	963.8	study	Phase3	study/STIM_027.jpg	99
1780.656	0.971	971.3	study	Phase3	study/STIM_027.jpg	100
1785.359	0.633	633.1	study	Phase3	study/STIM_028.jpg	99
1789.471	1.195	1194.9	study	Phase3	study/STIM_028.jpg	99
1793.364	1.34	1340.2	study	Phase3	study/STIM_028.jpg	99
1798.067	1.347	1346.6	study	Phase3	study/STIM_029.jpg	99
1803.17	1.229	1229.1	study	Phase3	study/STIM_029.jpg	99
1807.02	1.329	1329.1	study	Phase3	study/STIM_029.jpg	100
1811.077	1.258	1258.5	test	Phase3	test/STIM_000.jpg	100
1814.611	0.706	705.6	test	Phase3	test/STIM_000.jpg	100
1818.088	0.78	780.4	test	Phase3	test/STIM_000.jpg	100
1822.07	1.123	1123.0	test	Phase3	test/STIM_001.jpg	99
1825.141	1.346	1345.7	test	Phase3	test/STIM_001.jpg	100
1829.241	0.728	728.3	test	Phase3	test/STIM_001.jpg	99
1832.039	1.129	1129.2	test	Phase3	test/STIM_002.jpg	99
1836.723	1.06	1060.4	test	Phase3	test/STIM_002.jpg	100
1841.436	1.42	1420.3	test	Phase3	test/STIM_002.jpg	100
1845.62	1.317	1316.7	test	Phase3	test/STIM_003.jpg	100
1849.441	1.118	1117.9	test	Phase3	test/STIM_003.jpg	100
1853.715	1.319	1318.9	test	Phase3	test/STIM_003.jpg	99
1857.545	1.019	1018.6	test	Phase3	test/STIM_004.jpg	99
1861.922	0.916	915.6	test	Phase3	test/STIM_004.jpg	99
1866.135	1.043	1042.7	test	Phase3	test/STIM_004.jpg	100
1870.369	1.104	1104.2	test	Phase3	test/STIM_005.jpg	99
1875.135	1.346	1345.5	test	Phase3	test/STIM_005.jpg	99
1879.515	1.011	1011.1	test	Phase3	test/STIM_005.jpg	99
1883.685	1.067	1066.9	test	Phase3	test/STIM_006.jpg	100
1886.83	0.904	904.5	test	Phase3	test/STIM_006.jpg	99
1891.133	1.38	1380.0	test	Phase3	test/STIM_006.jpg	100
1895.606	0.705	704.7	test	Phase3	test/STIM_007.jpg	99
1899.292	0.699	698.9	test	Phase3	test/STIM_007.jpg	100
1902.476	1.233	1232.7	test	Phase3	test/STIM_007.jpg	100
1907.574	0.834	833.9	test	Phase3	test/STIM_008.jpg	99
1912.282	0.859	858.6	test	Phase3	test/STIM_008.jpg	99
1915.802	1.167	1167.3	test	Phase3	test/STIM_008.jpg	100
1920.264	0.683	682.8	test	Phase3	test/STIM_009.jpg	100
1923.835	1.073	1073.1	test	Phase3	test/STIM_009.jpg	100
1928.777	1.294	1293.6	test	Phase3	test/STIM_009.jpg	99
1933.504	1.009	1009.3	test	Phase3	test/STIM_010.jpg	100
1936.472	0.946	945.7	test	Phase3	test/STIM_010.jpg	100
1940.809	0.811	810.6	test	Phase3	test/STIM_010.jpg	99
1944.984	0.728	728.4	test	Phase3	test/STIM_011.jpg	100
1949.145	1.351	1351.3	test	Phase3	test/STIM_011.jpg	99
1953.412	0.746	745.7	test	Phase3	test/STIM_011.jpg	99
1956.329	0.969	968.8	test	Phase3	test/STIM_012.jpg	100
1960.618	1.061	1061.1	test	Phase3	test/STIM_012.jpg	100
1963.848	1.307	1307.3	test	Phase3	test/STIM_012.jpg	99
1967.754	1.17	1170.4	test	Phase3	test/STIM_013.jpg	100
1971.685	0.85	850.1	test	Phase3	test/STIM_013.jpg	100
1975.074	1.447	1447.0	test	Phase3	test/STIM_013.jpg	100
1979.748	0.678	678.2	test	Phase3	test/STIM_014.jpg	99
1983.362	0.962	962.0	test	Phase3	test/STIM_014.jpg	99
1986.96	0.727	727.0	test	Phase3	test/STIM_014.jpg	99
1989.78	1.255	1255.3	test	Phase3	test/STIM_015.jpg	100
1994.787	0.965	964.8	test	Phase3	test/STIM_015.jpg	99
1998.828	1.172	1172.4	test	Phase3	test/STIM_015.jpg	99
2003.438	0.701	701.2	test	Phase3	test/STIM_016.jpg	99
2006.26	0.894	893.6	test	Phase3	test/STIM_016.jpg	99
2010.353	1.224	1224.2	test	Phase3	test/STIM_016.jpg	100
2014.752	0.76	760.3	test	Phase3	test/STIM_017.jpg	100
2018.824	1.226	1226.5	test	Phase3	test/STIM_017.jpg	100
2022.442	1.392	1391.7	test	Phase3	test/STIM_017.jpg	99
2026.723	1.44	1439.9	test	Phase3	test/STIM_018.jpg	100
2030.997	1.392	1392.1	test	Phase3	test/STIM_018.jpg	100
2035.189	0.73	730.4	test	Phase3	test/STIM_018.jpg	100
2038.16	1.109	1109.3	test	Phase3	test/STIM_019.jpg	100
2041.31	1.066	1066.2	test	Phase3	test/STIM_019.jpg	100
2045.74	1.322	1321.7	test	Phase3	test/STIM_019.jpg	100
2049.708	1.202	1202.0	test	Phase3	test/STIM_020.jpg	99
2054.054	0.985	984.9	test	Phase3	test/STIM_020.jpg	100
2057.53	0.768	767.7	test	Phase3	test/STIM_020.jpg	99
2060.836	1.417	1417.3	test	Phase3	test/STIM_021.jpg	100
2065.395	1.373	1373.3	test	Phase3	test/STIM_021.jpg	99
2069.32	1.139	1139.4	test	Phase3	test/STIM_021.jpg	99
2073.717	0.703	703.4	test	Phase3	test/STIM_022.jpg	99
2077.515	0.714	714.0	test	Phase3	test/STIM_022.jpg	100
2081.911	1.334	1333.6	test	Phase3	test/STIM_022.jpg	99
2086.464	0.978	978.0	test	Phase3	test/STIM_023.jpg	100
2089.919	0.939	939.2	test	Phase3	test/STIM_023.jpg	99
2093.893	0.831	831.0	test	Phase3	test/STIM_023.jpg	99
2098.073	0.674	674.4	test	Phase3	test/STIM_024.jpg	99
2101.548	0.785	784.8	test	Phase3	test/STIM_024.jpg	99
2105.593	1.006	1005.9	test	Phase3	test/STIM_024.jpg	99
2109.266	1.176	1175.8	test	Phase3	test/STIM_025.jpg	99
2113.267	1.208	1208.5	test	Phase3	test/STIM_025.jpg	99
2117.599	0.855	854.9	test	Phase3	test/STIM_025.jpg	99
2121.385	0.834	833.6	test	Phase3	test/STIM_026.jpg	99
2126.007	0.975	975.4	test	Phase3	test/STIM_026.jpg	100
2129.235	0.973	973.0	test	Phase3	test/STIM_026.jpg	99
2132.854	1.154	1154.4	test	Phase3	test/STIM_027.jpg	100
2136.086	1.213	1212.6	test	Phase3	test/STIM_027.jpg	100
2139.227	1.098	1098.4	test	Phase3	test/STIM_027.jpg	100
2143.632	0.969	969.3	test	Phase3	test/STIM_028.jpg	99
2147.582	0.987	987.4	test	Phase3	test/STIM_028.jpg	100
2152.323	1.302	1301.7	test	Phase3	test/STIM_028.jpg	100
2156.023	0.761	760.9	test	Phase3	test/STIM_029.jpg	99
2158.795	1.194	1194.5	test	Phase3	test/STIM_029.jpg	100
2162.776	1.18	1179.7	test	Phase3	test/STIM_029.jpg	100
