onset	duration	accuracy_binary	trial_type	learning_stage	stimulus
0.0	1.662	1	study	Phase1	study/STIM_000.jpg
3.895	1.638	1	study	Phase1	study/STIM_000.jpg
8.504	1.003	0	study	Phase1	study/STIM_000.jpg
11.82	1.077	0	study	Phase1	study/STIM_001.jpg
16.367	1.034	1	study	Phase1	study/STIM_001.jpg
19.358	1.219	1	study	Phase1	study/STIM_001.jpg
23.036	1.985	1	study	Phase1	study/STIM_002.jpg
27.735	1.891	0	study	Phase1	study/STIM_002.jpg
32.825	1.174	1	study	Phase1	study/STIM_002.jpg
37.703	1.323	1	study	Phase1	study/STIM_003.jpg
41.746	1.868	1	study	Phase1	study/STIM_003.jpg
47.386	1.624	0	study	Phase1	study/STIM_003.jpg
52.426	0.947	1	study	Phase1	study/STIM_004.jpg
55.99	1.299	1	study	Phase1	study/STIM_004.jpg
60.161	1.46	1	study	Phase1	study/STIM_004.jpg
65.423	1.741	1	study	Phase1	study/STIM_005.jpg
69.771	0.971	1	study	Phase1	study/STIM_005.jpg
73.598	1.472	1	study	Phase1	study/STIM_005.jpg
78.826	1.317	1	study	Phase1	study/STIM_006.jpg
83.784	1.274	0	study	Phase1	study/STIM_006.jpg
88.774	1.354	1	study	Phase1	study/STIM_006.jpg
93.86	1.528	1	study	Phase1	study/STIM_007.jpg
98.874	1.712	1	study	Phase1	study/STIM_007.jpg
103.508	1.291	1	study	Phase1	study/STIM_007.jpg
107.215	1.366	1	study	Phase1	study/STIM_008.jpg
111.476	1.858	0	study	Phase1	study/STIM_008.jpg
115.306	1.101	1	study	Phase1	study/STIM_008.jpg
119.13	1.629	1	study	Phase1	study/STIM_009.jpg
122.727	1.054	1	study	Phase1	study/STIM_009.jpg
126.695	1.482	1	study	Phase1	study/STIM_009.jpg
130.286	1.781	1	study	Phase1	study/STIM_010.jpg
134.438	1.292	1	study	Phase1	study/STIM_010.jpg
138.053	1.571	1	study	Phase1	study/STIM_010.jpg
142.672	1.946	1	study	Phase1	study/STIM_011.jpg
147.325	1.235	1	study	Phase1	study/STIM_011.jpg
151.946	0.915	0	study	Phase1	study/STIM_011.jpg
154.977	1.162	0	study	Phase1	study/STIM_012.jpg
159.743	1.897	1	study	Phase1	study/STIM_012.jpg
163.738	1.081	1	study	Phase1	study/STIM_012.jpg
166.939	1.524	1	study	Phase1	study/STIM_013.jpg
171.675	1.694	1	study	Phase1	study/STIM_013.jpg
176.146	1.742	1	study	Phase1	study/STIM_013.jpg
180.629	1.262	1	study	Phase1	study/STIM_014.jpg
185.403	1.026	1	study	Phase1	study/STIM_014.jpg
189.599	1.548	1	study	Phase1	study/STIM_014.jpg
193.01	1.678	1	study	Phase1	study/STIM_015.jpg
196.878	1.886	1	study	Phase1	study/STIM_015.jpg
201.728	1.506	1	study	Phase1	study/STIM_015.jpg
207.004	2.001	1	study	Phase1	study/STIM_016.jpg
212.137	1.592	1	study	Phase1	study/STIM_016.jpg
216.444	1.344	1	study	Phase1	study/STIM_016.jpg
220.544	1.377	0	study	Phase1	study/STIM_017.jpg
225.353	1.28	1	study	Phase1	study/STIM_017.jpg
228.815	1.278	1	study	Phase1	study/STIM_017.jpg
232.851	1.513	1	study	Phase1	study/STIM_018.jpg
236.987	1.221	0	study	Phase1	study/STIM_018.jpg
241.247	1.511	1	study	Phase1	study/STIM_018.jpg
245.17	1.184	1	study	Phase1	study/STIM_019.jpg
248.327	1.298	1	study	Phase1	study/STIM_019.jpg
252.874	1.766	1	study	Phase1	study/STIM_019.jpg
258.245	1.624	1	study	Phase1	study/STIM_020.jpg
262.013	1.806	1	study	Phase1	study/STIM_020.jpg
267.448	1.59	1	study	Phase1	study/STIM_020.jpg
271.316	1.909	1	study	Phase1	study/STIM_021.jpg
275.725	0.9	1	study	Phase1	study/STIM_021.jpg
279.659	1.766	1	study	Phase1	study/STIM_021.jpg
284.257	1.57	0	study	Phase1	study/STIM_022.jpg
287.931	1.765	1	study	Phase1	study/STIM_022.jpg
292.366	0.871	1	study	Phase1	study/STIM_022.jpg
295.947	1.174	1	study	Phase1	study/STIM_023.jpg
299.368	1.392	1	study	Phase1	study/STIM_023.jpg
304.315	1.623	1	study	Phase1	study/STIM_023.jpg
308.057	1.939	0	study	Phase1	study/STIM_024.jpg
312.309	0.936	1	study	Phase1	study/STIM_024.jpg
315.997	1.118	1	study	Phase1	study/STIM_024.jpg
319.312	1.575	0	study	Phase1	study/STIM_025.jpg
323.915	1.667	1	study	Phase1	study/STIM_025.jpg
329.064	1.068	0	study	Phase1	study/STIM_025.jpg
333.465	1.814	1	study	Phase1	study/STIM_026.jpg
338.734	1.331	1	study	Phase1	study/STIM_026.jpg
342.878	1.019	1	study	Phase1	study/STIM_026.jpg
346.087	1.098	1	study	Phase1	study/STIM_027.jpg
349.305	1.084	1	study	Phase1	study/STIM_027.jpg
353.43	1.39	1	study	Phase1	study/STIM_027.jpg
357.726	1.138	1	study	Phase1	study/STIM_028.jpg
362.257	1.77	1	study	Phase1	study/STIM_028.jpg
366.37	1.131	1	study	Phase1	study/STIM_028.jpg
369.942	1.886	1	study	Phase1	study/STIM_029.jpg
374.993	1.874	1	study	Phase1	study/STIM_029.jpg
380.305	1.482	0	study	Phase1	study/STIM_029.jpg
384.273	1.05	1	test	Phase1	test/STIM_000.jpg
388.959	1.163	1	test	Phase1	test/STIM_000.jpg
392.531	1.246	1	test	Phase1	test/STIM_000.jpg
396.095	1.41	0	test	Phase1	test/STIM_001.jpg
400.949	1.078	1	test	Phase1	test/STIM_001.jpg
404.2	1.094	1	test	Phase1	test/STIM_001.jpg
407.577	0.888	1	test	Phase1	test/STIM_002.jpg
412.014	1.032	1	test	Phase1	test/STIM_002.jpg
416.789	1.258	1	test	Phase1	test/STIM_002.jpg
420.271	0.698	0	test	Phase1	test/STIM_003.jpg
423.576	1.236	0	test	Phase1	test/STIM_003.jpg
427.47	0.976	1	test	Phase1	test/STIM_003.jpg
432.131	1.435	1	test	Phase1	test/STIM_004.jpg
436.43	1.2	1	test	Phase1	test/STIM_004.jpg
440.555	1.243	1	test	Phase1	test/STIM_004.jpg
445.664	0.707	1	test	Phase1	test/STIM_005.jpg
449.092	1.269	1	test	Phase1	test/STIM_005.jpg
453.1	1.213	1	test	Phase1	test/STIM_005.jpg
457.278	1.008	0	test	Phase1	test/STIM_006.jpg
461.476	1.351	1	test	Phase1	test/STIM_006.jpg
464.969	1.152	0	test	Phase1	test/STIM_006.jpg
468.777	0.99	1	test	Phase1	test/STIM_007.jpg
472.026	1.17	1	test	Phase1	test/STIM_007.jpg
476.974	1.081	1	test	Phase1	test/STIM_007.jpg
481.238	0.905	1	test	Phase1	test/STIM_008.jpg
485.305	1.066	1	test	Phase1	test/STIM_008.jpg
490.044	0.715	0	test	Phase1	test/STIM_008.jpg
494.368	0.698	1	test	Phase1	test/STIM_009.jpg
497.801	0.828	1	test	Phase1	test/STIM_009.jpg
502.206	1.033	1	test	Phase1	test/STIM_009.jpg
505.746	1.434	1	test	Phase1	test/STIM_010.jpg
509.354	1.441	1	test	Phase1	test/STIM_010.jpg
514.062	0.786	1	test	Phase1	test/STIM_010.jpg
517.128	1.161	1	test	Phase1	test/STIM_011.jpg
520.265	0.896	1	test	Phase1	test/STIM_011.jpg
524.661	1.17	0	test	Phase1	test/STIM_011.jpg
529.476	1.085	1	test	Phase1	test/STIM_012.jpg
534.319	0.675	1	test	Phase1	test/STIM_012.jpg
538.507	0.718	1	test	Phase1	test/STIM_012.jpg
543.107	0.834	1	test	Phase1	test/STIM_013.jpg
547.347	0.973	1	test	Phase1	test/STIM_013.jpg
550.347	0.817	1	test	Phase1	test/STIM_013.jpg
554.717	0.906	0	test	Phase1	test/STIM_014.jpg
558.411	0.938	1	test	Phase1	test/STIM_014.jpg
561.279	1.355	0	test	Phase1	test/STIM_014.jpg
566.24	1.023	1	test	Phase1	test/STIM_015.jpg
570.809	0.903	1	test	Phase1	test/STIM_015.jpg
574.835	1.04	1	test	Phase1	test/STIM_015.jpg
578.379	0.91	1	test	Phase1	test/STIM_016.jpg
581.26	1.397	1	test	Phase1	test/STIM_016.jpg
585.401	0.717	1	test	Phase1	test/STIM_016.jpg
588.079	1.199	1	test	Phase1	test/STIM_017.jpg
592.468	0.985	1	test	Phase1	test/STIM_017.jpg
595.629	0.76	1	test	Phase1	test/STIM_017.jpg
599.134	0.866	1	test	Phase1	test/STIM_018.jpg
602.561	1.219	0	test	Phase1	test/STIM_018.jpg
607.582	1.008	0	test	Phase1	test/STIM_018.jpg
611.874	0.99	0	test	Phase1	test/STIM_019.jpg
616.655	1.058	1	test	Phase1	test/STIM_019.jpg
621.155	1.258	0	test	Phase1	test/STIM_019.jpg
624.414	1.433	1	test	Phase1	test/STIM_020.jpg
628.334	1.434	1	test	Phase1	test/STIM_020.jpg
632.281	0.909	1	test	Phase1	test/STIM_020.jpg
635.766	0.865	1	test	Phase1	test/STIM_021.jpg
639.673	1.263	1	test	Phase1	test/STIM_021.jpg
644.318	1.373	0	test	Phase1	test/STIM_021.jpg
649.057	1.29	1	test	Phase1	test/STIM_022.jpg
653.641	1.365	1	test	Phase1	test/STIM_022.jpg
657.118	0.792	0	test	Phase1	test/STIM_022.jpg
660.004	0.764	1	test	Phase1	test/STIM_023.jpg
663.234	1.041	1	test	Phase1	test/STIM_023.jpg
666.405	0.916	0	test	Phase1	test/STIM_023.jpg
669.353	1.418	1	test	Phase1	test/STIM_024.jpg
674.384	1.346	1	test	Phase1	test/STIM_024.jpg
679.162	1.236	1	test	Phase1	test/STIM_024.jpg
682.71	0.991	1	test	Phase1	test/STIM_025.jpg
686.116	1.177	1	test	Phase1	test/STIM_025.jpg
690.102	1.173	1	test	Phase1	test/STIM_025.jpg
693.668	1.423	1	test	Phase1	test/STIM_026.jpg
698.299	1.336	1	test	Phase1	test/STIM_026.jpg
701.511	0.789	1	test	Phase1	test/STIM_026.jpg
705.359	0.757	1	test	Phase1	test/STIM_027.jpg
709.695	1.031	1	test	Phase1	test/STIM_027.jpg
713.079	1.173	1	test	Phase1	test/STIM_027.jpg
717.877	0.907	0	test	Phase1	test/STIM_028.jpg
721.144	1.188	1	test	Phase1	test/STIM_028.jpg
725.408	0.684	1	test	Phase1	test/STIM_028.jpg
728.643	1.342	1	test	Phase1	test/STIM_029.jpg
732.707	1.16	1	test	Phase1	test/STIM_029.jpg
737.023	0.744	1	test	Phase1	test/STIM_029.jpg
740.838	1.042	1	study	Phase2	study/STIM_000.jpg
743.954	1.001	1	study	Phase2	study/STIM_000.jpg
747.824	1.065	1	study	Phase2	study/STIM_000.jpg
751.749	1.094	1	study	Phase2	study/STIM_001.jpg
755.992	1.38	1	study	Phase2	study/STIM_001.jpg
759.237	0.724	1	study	Phase2	study/STIM_001.jpg
763.149	1.665	1	study	Phase2	study/STIM_002.jpg
767.477	1.02	1	study	Phase2	study/STIM_002.jpg
771.15	0.681	1	study	Phase2	study/STIM_002.jpg
775.455	1.062	1	study	Phase2	study/STIM_003.jpg
780.356	0.828	1	study	Phase2	study/STIM_003.jpg
784.717	0.879	1	study	Phase2	study/STIM_003.jpg
788.62	1.072	1	study	Phase2	study/STIM_004.jpg
792.827	1.262	1	study	Phase2	study/STIM_004.jpg
796.508	0.923	0	study	Phase2	study/STIM_004.jpg
799.824	1.021	0	study	Phase2	study/STIM_005.jpg
802.961	0.954	1	study	Phase2	study/STIM_005.jpg
806.186	1.104	1	study	Phase2	study/STIM_005.jpg
810.845	1.334	1	study	Phase2	study/STIM_006.jpg
815.299	0.736	1	study	Phase2	study/STIM_006.jpg
819.358	1.065	1	study	Phase2	study/STIM_006.jpg
823.657	1.028	1	study	Phase2	study/STIM_007.jpg
827.406	1.276	1	study	Phase2	study/STIM_007.jpg
832.122	1.113	1	study	Phase2	study/STIM_007.jpg
836.242	1.176	1	study	Phase2	study/STIM_008.jpg
839.352	1.076	1	study	Phase2	study/STIM_008.jpg
843.746	0.679	1	study	Phase2	study/STIM_008.jpg
847.048	0.85	1	study	Phase2	study/STIM_009.jpg
850.236	1.024	1	study	Phase2	study/STIM_009.jpg
854.479	1.322	1	study	Phase2	study/STIM_009.jpg
858.288	1.254	1	study	Phase2	study/STIM_010.jpg
862.673	1.351	1	study	Phase2	study/STIM_010.jpg
866.081	0.809	1	study	Phase2	study/STIM_010.jpg
869.76	1.162	1	study	Phase2	study/STIM_011.jpg
873.547	1.24	1	study	Phase2	study/STIM_011.jpg
877.934	0.838	1	study	Phase2	study/STIM_011.jpg
882.249	1.305	1	study	Phase2	study/STIM_012.jpg
885.449	0.821	1	study	Phase2	study/STIM_012.jpg
888.207	1.272	1	study	Phase2	study/STIM_012.jpg
891.371	0.864	1	study	Phase2	study/STIM_013.jpg
895.524	1.074	1	study	Phase2	study/STIM_013.jpg
899.635	1.228	1	study	Phase2	study/STIM_013.jpg
903.182	1.22	1	study	Phase2	study/STIM_014.jpg
907.296	0.74	1	study	Phase2	study/STIM_014.jpg
910.705	0.912	1	study	Phase2	study/STIM_014.jpg
915.066	1.156	1	study	Phase2	study/STIM_015.jpg
919.775	0.903	1	study	Phase2	study/STIM_015.jpg
924.028	1.086	1	study	Phase2	study/STIM_015.jpg
928.145	1.354	1	study	Phase2	study/STIM_016.jpg
931.605	1.234	1	study	Phase2	study/STIM_016.jpg
935.233	0.846	1	study	Phase2	study/STIM_016.jpg
939.681	0.883	1	study	Phase2	study/STIM_017.jpg
942.76	0.882	1	study	Phase2	study/STIM_017.jpg
945.571	0.833	1	study	Phase2	study/STIM_017.jpg
948.882	1.102	0	study	Phase2	study/STIM_018.jpg
952.808	1.069	1	study	Phase2	study/STIM_018.jpg
957.503	0.917	1	study	Phase2	study/STIM_018.jpg
961.069	0.796	1	study	Phase2	study/STIM_019.jpg
965.052	0.715	1	study	Phase2	study/STIM_019.jpg
968.311	1.346	1	study	Phase2	study/STIM_019.jpg
972.312	0.907	1	study	Phase2	study/STIM_020.jpg
976.746	1.116	1	study	Phase2	study/STIM_020.jpg
979.825	0.947	1	study	Phase2	study/STIM_020.jpg
984.165	1.022	1	study	Phase2	study/STIM_021.jpg
988.317	1.064	1	study	Phase2	study/STIM_021.jpg
991.862	0.787	1	study	Phase2	study/STIM_021.jpg
995.695	0.764	0	study	Phase2	study/STIM_022.jpg
998.7	0.943	1	study	Phase2	study/STIM_022.jpg
1002.037	1.239	1	study	Phase2	study/STIM_022.jpg
1005.844	1.252	1	study	Phase2	study/STIM_023.jpg
1009.149	1.205	1	study	Phase2	study/STIM_023.jpg
1012.407	1.018	1	study	Phase2	study/STIM_023.jpg
1016.798	0.945	1	study	Phase2	study/STIM_024.jpg
1021.542	0.91	1	study	Phase2	study/STIM_024.jpg
1025.07	1.078	1	study	Phase2	study/STIM_024.jpg
1029.374	0.98	1	study	Phase2	study/STIM_025.jpg
1032.969	0.937	1	study	Phase2	study/STIM_025.jpg
1037.741	1.395	0	study	Phase2	study/STIM_025.jpg
1041.902	1.416	1	study	Phase2	study/STIM_026.jpg
1046.625	1.582	0	study	Phase2	study/STIM_026.jpg
1051.587	0.747	1	study	Phase2	study/STIM_026.jpg
1055.814	1.251	1	study	Phase2	study/STIM_027.jpg
1060.27	1.205	1	study	Phase2	study/STIM_027.jpg
1063.613	1.498	0	study	Phase2	study/STIM_027.jpg
1067.918	0.977	0	study	Phase2	study/STIM_028.jpg
1072.058	0.744	0	study	Phase2	study/STIM_028.jpg
1075.285	0.896	1	study	Phase2	study/STIM_028.jpg
1079.619	1.394	1	study	Phase2	study/STIM_029.jpg
1084.409	1.035	1	study	Phase2	study/STIM_029.jpg
1088.681	1.367	1	study	Phase2	study/STIM_029.jpg
1093.096	1.227	1	test	Phase2	test/STIM_000.jpg
1096.3	0.938	0	test	Phase2	test/STIM_000.jpg
1100.57	1.118	1	test	Phase2	test/STIM_000.jpg
1105.267	1.078	1	test	Phase2	test/STIM_001.jpg
1108.259	0.793	1	test	Phase2	test/STIM_001.jpg
1111.445	1.164	1	test	Phase2	test/STIM_001.jpg
1114.654	1.426	1	test	Phase2	test/STIM_002.jpg
1119.207	0.753	1	test	Phase2	test/STIM_002.jpg
1122.962	0.81	1	test	Phase2	test/STIM_002.jpg
1125.768	1.427	1	test	Phase2	test/STIM_003.jpg
1129.57	0.995	1	test	Phase2	test/STIM_003.jpg
1134.186	0.945	0	test	Phase2	test/STIM_003.jpg
1137.464	0.837	1	test	Phase2	test/STIM_004.jpg
1142.063	0.903	1	test	Phase2	test/STIM_004.jpg
1145.907	1.29	1	test	Phase2	test/STIM_004.jpg
1149.944	0.803	0	test	Phase2	test/STIM_005.jpg
1154.182	1.002	1	test	Phase2	test/STIM_005.jpg
1158.661	1.264	1	test	Phase2	test/STIM_005.jpg
1162.626	1.33	1	test	Phase2	test/STIM_006.jpg
1167.143	0.907	1	test	Phase2	test/STIM_006.jpg
1170.287	0.982	1	test	Phase2	test/STIM_006.jpg
1174.96	1.094	1	test	Phase2	test/STIM_007.jpg
1179.319	1.083	1	test	Phase2	test/STIM_007.jpg
1183.858	0.942	1	test	Phase2	test/STIM_007.jpg
1188.676	1.17	1	test	Phase2	test/STIM_008.jpg
1193.239	1.146	1	test	Phase2	test/STIM_008.jpg
1198.238	1.236	1	test	Phase2	test/STIM_008.jpg
1202.227	1.374	1	test	Phase2	test/STIM_009.jpg
1206.952	0.736	1	test	Phase2	test/STIM_009.jpg
1210.283	1.19	1	test	Phase2	test/STIM_009.jpg
1213.574	1.082	1	test	Phase2	test/STIM_010.jpg
1218.098	1.06	0	test	Phase2	test/STIM_010.jpg
1222.489	1.19	1	test	Phase2	test/STIM_010.jpg
1226.261	1.205	1	test	Phase2	test/STIM_011.jpg
1230.952	1.282	1	test	Phase2	test/STIM_011.jpg
1234.34	1.439	1	test	Phase2	test/STIM_011.jpg
1238.372	1.119	1	test	Phase2	test/STIM_012.jpg
1242.365	1.136	1	test	Phase2	test/STIM_012.jpg
1246.683	1.117	1	test	Phase2	test/STIM_012.jpg
1250.765	1.348	1	test	Phase2	test/STIM_013.jpg
1255.52	0.991	1	test	Phase2	test/STIM_013.jpg
1259.185	1.186	1	test	Phase2	test/STIM_013.jpg
1262.85	1.022	1	test	Phase2	test/STIM_014.jpg
1267.593	0.829	1	test	Phase2	test/STIM_014.jpg
1271.204	1.05	1	test	Phase2	test/STIM_014.jpg
1275.183	1.316	1	test	Phase2	test/STIM_015.jpg
1278.579	1.211	1	test	Phase2	test/STIM_015.jpg
1283.183	0.726	1	test	Phase2	test/STIM_015.jpg
1287.373	0.958	1	test	Phase2	test/STIM_016.jpg
1291.268	0.669	1	test	Phase2	test/STIM_016.jpg
1294.896	0.916	1	test	Phase2	test/STIM_016.jpg
1298.115	0.794	1	test	Phase2	test/STIM_017.jpg
1302.368	0.851	1	test	Phase2	test/STIM_017.jpg
1306.931	1.153	1	test	Phase2	test/STIM_017.jpg
1310.375	0.727	1	test	Phase2	test/STIM_018.jpg
1314.445	1.204	0	test	Phase2	test/STIM_018.jpg
1318.786	0.989	1	test	Phase2	test/STIM_018.jpg
1321.98	1.302	1	test	Phase2	test/STIM_019.jpg
1325.457	0.795	1	test	Phase2	test/STIM_019.jpg
1329.417	0.804	1	test	Phase2	test/STIM_019.jpg
1332.883	0.712	1	test	Phase2	test/STIM_020.jpg
1337.046	1.282	1	test	Phase2	test/STIM_020.jpg
1340.332	1.362	1	test	Phase2	test/STIM_020.jpg
1344.21	0.768	1	test	Phase2	test/STIM_021.jpg
1348.861	1.343	1	test	Phase2	test/STIM_021.jpg
1353.749	1.163	0	test	Phase2	test/STIM_021.jpg
1357.317	1.206	1	test	Phase2	test/STIM_022.jpg
1362.096	1.093	1	test	Phase2	test/STIM_022.jpg
1366.445	1.275	1	test	Phase2	test/STIM_022.jpg
1371.069	0.935	1	test	Phase2	test/STIM_023.jpg
1374.064	1.127	1	test	Phase2	test/STIM_023.jpg
1378.902	1.153	1	test	Phase2	test/STIM_023.jpg
1382.428	1.198	1	test	Phase2	test/STIM_024.jpg
1386.101	0.744	1	test	Phase2	test/STIM_024.jpg
1389.5	0.881	1	test	Phase2	test/STIM_024.jpg
1393.8	1.047	1	test	Phase2	test/STIM_025.jpg
1397.123	0.901	1	test	Phase2	test/STIM_025.jpg
1400.926	0.688	1	test	Phase2	test/STIM_025.jpg
1404.629	0.684	1	test	Phase2	test/STIM_026.jpg
1407.386	1.231	1	test	Phase2	test/STIM_026.jpg
1412.46	0.935	1	test	Phase2	test/STIM_026.jpg
1415.484	0.724	1	test	Phase2	test/STIM_027.jpg
1419.571	1.43	1	test	Phase2	test/STIM_027.jpg
1424.46	0.741	1	test	Phase2	test/STIM_027.jpg
1427.229	1.283	1	test	Phase2	test/STIM_028.jpg
1430.743	1.218	1	test	Phase2	test/STIM_028.jpg
1435.364	0.913	1	test	Phase2	test/STIM_028.jpg
1438.562	1.311	1	test	Phase2	test/STIM_029.jpg
1443.545	1.137	0	test	Phase2	test/STIM_029.jpg
1448.242	1.189	1	test	Phase2	test/STIM_029.jpg
1452.008	0.759	1	study	Phase3	study/STIM_000.jpg
1454.91	1.133	1	study	Phase3	study/STIM_000.jpg
1459.655	1.17	1	study	Phase3	study/STIM_000.jpg
1462.879	1.247	1	study	Phase3	study/STIM_001.jpg
1466.087	1.403	1	study	Phase3	study/STIM_001.jpg
1469.77	0.947	0	study	Phase3	study/STIM_001.jpg
1474.392	0.833	1	study	Phase3	study/STIM_002.jpg
1478.387	1.241	1	study	Phase3	study/STIM_002.jpg
1482.935	0.716	1	study	Phase3	study/STIM_002.jpg
1487.416	0.69	1	study	Phase3	study/STIM_003.jpg
1491.15	0.66	1	study	Phase3	study/STIM_003.jpg
1494.123	0.999	1	study	Phase3	study/STIM_003.jpg
1497.971	1.03	1	study	Phase3	study/STIM_004.jpg
1502.788	1.017	1	study	Phase3	study/STIM_004.jpg
1506.218	1.119	1	study	Phase3	study/STIM_004.jpg
1510.751	0.785	1	study	Phase3	study/STIM_005.jpg
1514.927	0.724	1	study	Phase3	study/STIM_005.jpg
1518.155	1.007	1	study	Phase3	study/STIM_005.jpg
1521.227	1.223	1	study	Phase3	study/STIM_006.jpg
1524.789	0.811	1	study	Phase3	study/STIM_006.jpg
1529.14	0.684	1	study	Phase3	study/STIM_006.jpg
1533.599	1.062	1	study	Phase3	study/STIM_007.jpg
1537.091	0.711	1	study	Phase3	study/STIM_007.jpg
1541.353	0.667	1	study	Phase3	study/STIM_007.jpg
1544.986	1.306	1	study	Phase3	study/STIM_008.jpg
1549.714	1.079	1	study	Phase3	study/STIM_008.jpg
1554.406	0.644	1	study	Phase3	study/STIM_008.jpg
1558.479	1.314	1	study	Phase3	study/STIM_009.jpg
1562.341	0.685	1	study	Phase3	study/STIM_009.jpg
1566.671	1.001	1	study	Phase3	study/STIM_009.jpg
1569.774	1.111	1	study	Phase3	study/STIM_010.jpg
1574.449	1.246	1	study	Phase3	study/STIM_010.jpg
1579.538	1.267	1	study	Phase3	study/STIM_010.jpg
1584.172	0.961	1	study	Phase3	study/STIM_011.jpg
1588.975	0.816	1	study	Phase3	study/STIM_011.jpg
1592.888	1.365	1	study	Phase3	study/STIM_011.jpg
1597.553	0.653	1	study	Phase3	study/STIM_012.jpg
1600.78	0.961	1	study	Phase3	study/STIM_012.jpg
1603.778	0.756	1	study	Phase3	study/STIM_012.jpg
1607.304	0.671	1	study	Phase3	study/STIM_013.jpg
1611.027	1.258	1	study	Phase3	study/STIM_013.jpg
1615.478	1.329	1	study	Phase3	study/STIM_013.jpg
1618.926	1.327	1	study	Phase3	study/STIM_014.jpg
1622.654	1.098	1	study	Phase3	study/STIM_014.jpg
1626.598	1.261	1	study	Phase3	study/STIM_014.jpg
1630.095	1.37	1	study	Phase3	study/STIM_015.jpg
1633.932	1.344	1	study	Phase3	study/STIM_015.jpg
1637.226	0.907	1	study	Phase3	study/STIM_015.jpg
1640.4	1.075	1	study	Phase3	study/STIM_016.jpg
1644.838	0.747	1	study	Phase3	study/STIM_016.jpg
1647.508	0.821	1	study	Phase3	study/STIM_016.jpg
1650.665	1.295	1	study	Phase3	study/STIM_017.jpg
1655.337	1.084	1	study	Phase3	study/STIM_017.jpg
1658.86	0.866	1	study	Phase3	study/STIM_017.jpg
1662.142	1.383	1	study	Phase3	study/STIM_018.jpg
1667.383	0.982	1	study	Phase3	study/STIM_018.jpg
1670.825	1.095	1	study	Phase3	study/STIM_018.jpg
1673.869	0.85	1	study	Phase3	study/STIM_019.jpg
1678.596	0.727	1	study	Phase3	study/STIM_019.jpg
1681.798	1.295	1	study	Phase3	study/STIM_019.jpg
1685.445	1.177	1	study	Phase3	study/STIM_020.jpg
1689.442	1.181	1	study	Phase3	study/STIM_020.jpg
1694.377	0.699	1	study	Phase3	study/STIM_020.jpg
1697.581	0.743	1	study	Phase3	study/STIM_021.jpg
1701.164	1.028	1	study	Phase3	study/STIM_021.jpg
1704.525	1.254	1	study	Phase3	study/STIM_021.jpg
1708.31	0.984	1	study	Phase3	study/STIM_022.jpg
1712.837	1.37	1	study	Phase3	study/STIM_022.jpg
1717.631	0.899	1	study	Phase3	study/STIM_022.jpg
1721.637	0.944	1	study	Phase3	study/STIM_023.jpg
1725.982	1.362	1	study	Phase3	study/STIM_023.jpg
1730.169	0.936	1	study	Phase3	study/STIM_023.jpg
1734.285	1.27	1	study	Phase3	study/STIM_024.jpg
1739.388	1.157	1	study	Phase3	study/STIM_024.jpg
1744.425	1.017	1	study	Phase3	study/STIM_024.jpg
1748.918	1.303	1	study	Phase3	study/STIM_025.jpg
1752.136	0.73	1	study	Phase3	study/STIM_025.jpg
1756.64	0.626	1	study	Phase3	study/STIM_025.jpg
1760.911	1.256	1	study	Phase3	study/STIM_026.jpg
1765.397	1.368	1	study	Phase3	study/STIM_026.jpg
1768.688	1.305	1	study	Phase3	study/STIM_026.jpg
1773.153	1.376	1	study	Phase3	study/STIM_027.jpg
1777.183	0.964	1	study	Phase3	study/STIM_027.jpg
1780.656	0.971	1	study	Phase3	study/STIM_027.jpg
1785.359	0.633	1	study	Phase3	study/STIM_028.jpg
1789.471	1.195	1	study	Phase3	study/STIM_028.jpg
1793.364	1.34	1	study	Phase3	study/STIM_028.jpg
1798.067	1.347	1	study	Phase3	study/STIM_029.jpg
1803.17	1.229	1	study	Phase3	study/STIM_029.jpg
1807.02	1.329	1	study	Phase3	study/STIM_029.jpg
1811.077	1.258	1	test	Phase3	test/STIM_000.jpg
1814.611	0.706	1	test	Phase3	test/STIM_000.jpg
1818.088	0.78	0	test	Phase3	test/STIM_000.jpg
1822.07	1.123	1	test	Phase3	test/STIM_001.jpg
1825.141	1.346	1	test	Phase3	test/STIM_001.jpg
1829.241	0.728	1	test	Phase3	test/STIM_001.jpg
1832.039	1.129	1	test	Phase3	test/STIM_002.jpg
1836.723	1.06	1	test	Phase3	test/STIM_002.jpg
1841.436	1.42	1	test	Phase3	test/STIM_002.jpg
1845.62	1.317	1	test	Phase3	test/STIM_003.jpg
1849.441	1.118	1	test	Phase3	test/STIM_003.jpg
1853.715	1.319	1	test	Phase3	test/STIM_003.jpg
1857.545	1.019	1	test	Phase3	test/STIM_004.jpg
1861.922	0.916	1	test	Phase3	test/STIM_004.jpg
1866.135	1.043	1	test	Phase3	test/STIM_004.jpg
1870.369	1.104	1	test	Phase3	test/STIM_005.jpg
1875.135	1.346	1	test	Phase3	test/STIM_005.jpg
1879.515	1.011	1	test	Phase3	test/STIM_005.jpg
1883.685	1.067	1	test	Phase3	test/STIM_006.jpg
1886.83	0.904	1	test	Phase3	test/STIM_006.jpg
1891.133	1.38	1	test	Phase3	test/STIM_006.jpg
1895.606	0.705	1	test	Phase3	test/STIM_007.jpg
1899.292	0.699	1	test	Phase3	test/STIM_007.jpg
1902.476	1.233	1	test	Phase3	test/STIM_007.jpg
1907.574	0.834	1	test	Phase3	test/STIM_008.jpg
1912.282	0.859	1	test	Phase3	test/STIM_008.jpg
1915.802	1.167	1	test	Phase3	test/STIM_008.jpg
1920.264	0.683	1	test	Phase3	test/STIM_009.jpg
1923.835	1.073	1	test	Phase3	test/STIM_009.jpg
1928.777	1.294	1	test	Phase3	test/STIM_009.jpg
1933.504	1.009	1	test	Phase3	test/STIM_010.jpg
1936.472	0.946	1	test	Phase3	test/STIM_010.jpg
1940.809	0.811	1	test	Phase3	test/STIM_010.jpg
1944.984	0.728	1	test	Phase3	test/STIM_011.jpg
1949.145	1.351	1	test	Phase3	test/STIM_011.jpg
1953.412	0.746	1	test	Phase3	test/STIM_011.jpg
1956.329	0.969	0	test	Phase3	test/STIM_012.jpg
1960.618	1.061	1	test	Phase3	test/STIM_012.jpg
1963.848	1.307	1	test	Phase3	test/STIM_012.jpg
1967.754	1.17	1	test	Phase3	test/STIM_013.jpg
1971.685	0.85	1	test	Phase3	test/STIM_013.jpg
1975.074	1.447	1	test	Phase3	test/STIM_013.jpg
1979.748	0.678	0	test	Phase3	test/STIM_014.jpg
1983.362	0.962	0	test	Phase3	test/STIM_014.jpg
1986.96	0.727	1	test	Phase3	test/STIM_014.jpg
1989.78	1.255	0	test	Phase3	test/STIM_015.jpg
1994.787	0.965	1	test	Phase3	test/STIM_015.jpg
1998.828	1.172	1	test	Phase3	test/STIM_015.jpg
2003.438	0.701	1	test	Phase3	test/STIM_016.jpg
2006.26	0.894	1	test	Phase3	test/STIM_016.jpg
2010.353	1.224	0	test	Phase3	test/STIM_016.jpg
2014.752	0.76	1	test	Phase3	test/STIM_017.jpg
2018.824	1.226	1	test	Phase3	test/STIM_017.jpg
2022.442	1.392	1	test	Phase3	test/STIM_017.jpg
2026.723	1.44	1	test	Phase3	test/STIM_018.jpg
2030.997	1.392	0	test	Phase3	test/STIM_018.jpg
2035.189	0.73	1	test	Phase3	test/STIM_018.jpg
2038.16	1.109	1	test	Phase3	test/STIM_019.jpg
2041.31	1.066	1	test	Phase3	test/STIM_019.jpg
2045.74	1.322	1	test	Phase3	test/STIM_019.jpg
2049.708	1.202	0	test	Phase3	test/STIM_020.jpg
2054.054	0.985	1	test	Phase3	test/STIM_020.jpg
2057.53	0.768	1	test	Phase3	test/STIM_020.jpg
2060.836	1.417	1	test	Phase3	test/STIM_021.jpg
2065.395	1.373	1	test	Phase3	test/STIM_021.jpg
2069.32	1.139	1	test	Phase3	test/STIM_021.jpg
2073.717	0.703	1	test	Phase3	test/STIM_022.jpg
2077.515	0.714	0	test	Phase3	test/STIM_022.jpg
2081.911	1.334	1	test	Phase3	test/STIM_022.jpg
2086.464	0.978	1	test	Phase3	test/STIM_023.jpg
2089.919	0.939	1	test	Phase3	test/STIM_023.jpg
2093.893	0.831	1	test	Phase3	test/STIM_023.jpg
2098.073	0.674	0	test	Phase3	test/STIM_024.jpg
2101.548	0.785	1	test	Phase3	test/STIM_024.jpg
2105.593	1.006	1	test	Phase3	test/STIM_024.jpg
2109.266	1.176	1	test	Phase3	test/STIM_025.jpg
2113.267	1.208	1	test	Phase3	test/STIM_025.jpg
2117.599	0.855	1	test	Phase3	test/STIM_025.jpg
2121.385	0.834	1	test	Phase3	test/STIM_026.jpg
2126.007	0.975	0	test	Phase3	test/STIM_026.jpg
2129.235	0.973	1	test	Phase3	test/STIM_026.jpg
2132.854	1.154	1	test	Phase3	test/STIM_027.jpg
2136.086	1.213	1	test	Phase3	test/STIM_027.jpg
2139.227	1.098	1	test	Phase3	test/STIM_027.jpg
2143.632	0.969	1	test	Phase3	test/STIM_028.jpg
2147.582	0.987	1	test	Phase3	test/STIM_028.jpg
2152.323	1.302	1	test	Phase3	test/STIM_028.jpg
2156.023	0.761	1	test	Phase3	test/STIM_029.jpg
2158.795	1.194	1	test	Phase3	test/STIM_029.jpg
2162.776	1.18	1	test	Phase3	test/STIM_029.jpg
