onset	duration	accuracy	trial_type	learning_stage	stimulus
0.0	0.936	correct	2back	Block1	2back/STIM_000.jpg
3.118	0.747	correct	2back	Block1	2back/STIM_000.jpg
6.86	0.921	correct	2back	Block1	2back/STIM_000.jpg
9.84	0.569	correct	2back	Block1	2back/STIM_001.jpg
13.3	0.609	correct	2back	Block1	2back/STIM_001.jpg
16.716	0.991	correct	2back	Block1	2back/STIM_001.jpg
21.643	0.846	correct	2back	Block1	2back/STIM_002.jpg
24.766	0.772	correct	2back	Block1	2back/STIM_002.jpg
28.239	0.54	correct	2back	Block1	2back/STIM_002.jpg
31.178	0.813	correct	2back	Block1	2back/STIM_003.jpg
35.755	0.538	correct	2back	Block1	2back/STIM_003.jpg
39.334	0.514	correct	2back	Block1	2back/STIM_003.jpg
43.279	0.612	correct	2back	Block1	2back/STIM_004.jpg
47.313	1.143	correct	2back	Block1	2back/STIM_004.jpg
50.892	0.654	correct	2back	Block1	2back/STIM_004.jpg
54.431	1.222	correct	2back	Block1	2back/STIM_005.jpg
58.149	1.019	correct	2back	Block1	2back/STIM_005.jpg
62.331	0.995	correct	2back	Block1	2back/STIM_005.jpg
65.974	1.13	correct	2back	Block1	2back/STIM_006.jpg
71.028	0.712	correct	2back	Block1	2back/STIM_006.jpg
75.197	0.565	correct	2back	Block1	2back/STIM_006.jpg
78.217	1.14	correct	2back	Block1	2back/STIM_007.jpg
82.36	0.791	correct	2back	Block1	2back/STIM_007.jpg
86.359	0.781	correct	2back	Block1	2back/STIM_007.jpg
89.719	1.134	correct	2back	Block1	2back/STIM_008.jpg
93.387	0.754	correct	2back	Block1	2back/STIM_008.jpg
96.53	1.109	correct	2back	Block1	2back/STIM_008.jpg
101.158	1.275	correct	2back	Block1	2back/STIM_009.jpg
105.831	0.806	correct	2back	Block1	2back/STIM_009.jpg
110.434	0.742	correct	2back	Block1	2back/STIM_009.jpg
115.017	0.612	correct	2back	Block1	2back/STIM_010.jpg
118.023	0.854	correct	2back	Block1	2back/STIM_010.jpg
121.776	0.923	correct	2back	Block1	2back/STIM_010.jpg
125.746	0.584	correct	2back	Block1	2back/STIM_011.jpg
130.235	1.164	correct	2back	Block1	2back/STIM_011.jpg
134.186	0.936	correct	2back	Block1	2back/STIM_011.jpg
138.358	0.631	correct	2back	Block1	2back/STIM_012.jpg
141.63	1.047	correct	2back	Block1	2back/STIM_012.jpg
145.23	0.972	correct	2back	Block1	2back/STIM_012.jpg
149.61	0.665	correct	2back	Block1	2back/STIM_013.jpg
153.139	0.876	correct	2back	Block1	2back/STIM_013.jpg
156.764	1.035	correct	2back	Block1	2back/STIM_013.jpg
160.447	1.206	correct	2back	Block1	2back/STIM_014.jpg
163.797	0.834	correct	2back	Block1	2back/STIM_014.jpg
167.327	0.845	correct	2back	Block1	2back/STIM_014.jpg
171.0	0.894	correct	2back	Block1	2back/STIM_015.jpg
174.774	0.547	correct	2back	Block1	2back/STIM_015.jpg
177.893	1.082	correct	2back	Block1	2back/STIM_015.jpg
182.552	1.267	correct	2back	Block1	2back/STIM_016.jpg
187.706	0.94	correct	2back	Block1	2back/STIM_016.jpg
191.265	1.0	correct	2back	Block1	2back/STIM_016.jpg
196.144	1.144	correct	2back	Block1	2back/STIM_017.jpg
200.433	0.564	correct	2back	Block1	2back/STIM_017.jpg
204.138	0.902	correct	2back	Block1	2back/STIM_017.jpg
208.912	1.12	correct	2back	Block1	2back/STIM_018.jpg
212.49	0.689	correct	2back	Block1	2back/STIM_018.jpg
217.106	0.928	correct	2back	Block1	2back/STIM_018.jpg
221.255	0.759	correct	2back	Block1	2back/STIM_019.jpg
225.195	0.647	correct	2back	Block1	2back/STIM_019.jpg
229.021	0.549	correct	2back	Block1	2back/STIM_019.jpg
232.839	1.123	correct	2back	Block1	2back/STIM_020.jpg
237.519	0.969	correct	2back	Block1	2back/STIM_020.jpg
242.005	0.709	correct	2back	Block1	2back/STIM_020.jpg
246.501	0.702	correct	2back	Block1	2back/STIM_021.jpg
249.328	0.624	correct	2back	Block1	2back/STIM_021.jpg
253.608	0.762	correct	2back	Block1	2back/STIM_021.jpg
258.076	0.553	correct	2back	Block1	2back/STIM_022.jpg
261.738	0.755	correct	2back	Block1	2back/STIM_022.jpg
265.752	0.663	correct	2back	Block1	2back/STIM_022.jpg
269.917	1.249	incorrect	2back	Block1	2back/STIM_023.jpg
274.697	1.032	correct	2back	Block1	2back/STIM_023.jpg
277.955	0.933	correct	2back	Block1	2back/STIM_023.jpg
281.733	0.598	correct	2back	Block1	2back/STIM_024.jpg
284.764	0.75	correct	2back	Block1	2back/STIM_024.jpg
288.348	0.96	correct	2back	Block1	2back/STIM_024.jpg
291.619	1.176	correct	2back	Block1	2back/STIM_025.jpg
296.155	1.185	correct	2back	Block1	2back/STIM_025.jpg
299.814	0.894	correct	2back	Block1	2back/STIM_025.jpg
304.081	1.122	correct	2back	Block1	2back/STIM_026.jpg
308.232	0.722	correct	2back	Block1	2back/STIM_026.jpg
311.465	1.14	correct	2back	Block1	2back/STIM_026.jpg
315.724	0.592	correct	2back	Block1	2back/STIM_027.jpg
320.299	0.592	correct	2back	Block1	2back/STIM_027.jpg
324.406	0.764	correct	2back	Block1	2back/STIM_027.jpg
328.217	1.146	incorrect	2back	Block1	2back/STIM_028.jpg
332.047	0.683	correct	2back	Block1	2back/STIM_028.jpg
336.073	0.729	correct	2back	Block1	2back/STIM_028.jpg
340.02	1.002	correct	2back	Block1	2back/STIM_029.jpg
343.792	0.691	correct	2back	Block1	2back/STIM_029.jpg
348.255	0.913	correct	2back	Block1	2back/STIM_029.jpg
351.561	1.031	correct	2back	Block1	2back/STIM_030.jpg
355.932	0.804	correct	2back	Block1	2back/STIM_030.jpg
359.049	0.946	correct	2back	Block1	2back/STIM_030.jpg
362.365	0.95	correct	2back	Block1	2back/STIM_031.jpg
365.43	1.174	correct	2back	Block1	2back/STIM_031.jpg
368.812	0.997	correct	2back	Block1	2back/STIM_031.jpg
371.945	0.612	correct	2back	Block1	2back/STIM_032.jpg
376.513	1.138	correct	2back	Block1	2back/STIM_032.jpg
380.22	0.613	correct	2back	Block1	2back/STIM_032.jpg
384.129	0.966	correct	2back	Block1	2back/STIM_033.jpg
387.505	0.761	correct	2back	Block1	2back/STIM_033.jpg
390.466	0.984	correct	2back	Block1	2back/STIM_033.jpg
394.178	0.867	correct	2back	Block1	2back/STIM_034.jpg
397.917	0.657	correct	2back	Block1	2back/STIM_034.jpg
401.162	0.796	correct	2back	Block1	2back/STIM_034.jpg
405.781	0.958	correct	2back	Block1	2back/STIM_035.jpg
408.926	0.78	correct	2back	Block1	2back/STIM_035.jpg
411.906	0.816	correct	2back	Block1	2back/STIM_035.jpg
416.028	0.891	correct	2back	Block1	2back/STIM_036.jpg
420.183	0.853	correct	2back	Block1	2back/STIM_036.jpg
424.522	0.542	correct	2back	Block1	2back/STIM_036.jpg
427.64	1.151	correct	2back	Block1	2back/STIM_037.jpg
431.038	1.222	correct	2back	Block1	2back/STIM_037.jpg
434.805	0.74	correct	2back	Block1	2back/STIM_037.jpg
437.9	1.119	correct	2back	Block1	2back/STIM_038.jpg
442.113	0.692	correct	2back	Block1	2back/STIM_038.jpg
445.086	1.022	correct	2back	Block1	2back/STIM_038.jpg
448.303	0.639	correct	2back	Block1	2back/STIM_039.jpg
452.775	1.182	correct	2back	Block1	2back/STIM_039.jpg
456.998	1.061	correct	2back	Block1	2back/STIM_039.jpg
460.165	0.596	correct	0back	Block1	0back/STIM_000.jpg
464.503	0.455	correct	0back	Block1	0back/STIM_000.jpg
467.72	0.627	correct	0back	Block1	0back/STIM_000.jpg
470.925	0.452	correct	0back	Block1	0back/STIM_001.jpg
475.357	0.534	correct	0back	Block1	0back/STIM_001.jpg
478.924	0.446	correct	0back	Block1	0back/STIM_001.jpg
482.054	0.672	correct	0back	Block1	0back/STIM_002.jpg
486.031	0.52	correct	0back	Block1	0back/STIM_002.jpg
488.956	0.513	correct	0back	Block1	0back/STIM_002.jpg
492.834	0.57	correct	0back	Block1	0back/STIM_003.jpg
496.508	0.666	correct	0back	Block1	0back/STIM_003.jpg
499.659	0.392	correct	0back	Block1	0back/STIM_003.jpg
502.499	0.403	correct	0back	Block1	0back/STIM_004.jpg
505.421	0.414	correct	0back	Block1	0back/STIM_004.jpg
509.722	0.717	correct	0back	Block1	0back/STIM_004.jpg
512.74	0.467	correct	0back	Block1	0back/STIM_005.jpg
516.282	0.647	incorrect	0back	Block1	0back/STIM_005.jpg
519.549	0.625	correct	0back	Block1	0back/STIM_005.jpg
523.081	0.416	correct	0back	Block1	0back/STIM_006.jpg
525.713	0.546	correct	0back	Block1	0back/STIM_006.jpg
528.699	0.663	correct	0back	Block1	0back/STIM_006.jpg
531.899	0.484	correct	0back	Block1	0back/STIM_007.jpg
534.854	0.4	correct	0back	Block1	0back/STIM_007.jpg
538.915	0.575	correct	0back	Block1	0back/STIM_007.jpg
542.765	0.663	correct	0back	Block1	0back/STIM_008.jpg
546.314	0.527	correct	0back	Block1	0back/STIM_008.jpg
548.88	0.642	correct	0back	Block1	0back/STIM_008.jpg
551.991	0.608	correct	0back	Block1	0back/STIM_009.jpg
555.923	0.469	correct	0back	Block1	0back/STIM_009.jpg
559.142	0.406	correct	0back	Block1	0back/STIM_009.jpg
562.86	0.696	correct	0back	Block1	0back/STIM_010.jpg
566.908	0.487	correct	0back	Block1	0back/STIM_010.jpg
569.746	0.435	correct	0back	Block1	0back/STIM_010.jpg
572.344	0.458	correct	0back	Block1	0back/STIM_011.jpg
574.978	0.484	correct	0back	Block1	0back/STIM_011.jpg
579.232	0.436	correct	0back	Block1	0back/STIM_011.jpg
581.743	0.73	correct	0back	Block1	0back/STIM_012.jpg
584.642	0.512	correct	0back	Block1	0back/STIM_012.jpg
588.798	0.582	correct	0back	Block1	0back/STIM_012.jpg
592.814	0.685	correct	0back	Block1	0back/STIM_013.jpg
597.093	0.731	correct	0back	Block1	0back/STIM_013.jpg
601.164	0.492	correct	0back	Block1	0back/STIM_013.jpg
605.507	0.701	correct	0back	Block1	0back/STIM_014.jpg
609.061	0.548	correct	0back	Block1	0back/STIM_014.jpg
612.938	0.384	correct	0back	Block1	0back/STIM_014.jpg
616.128	0.587	correct	0back	Block1	0back/STIM_015.jpg
620.494	0.675	correct	0back	Block1	0back/STIM_015.jpg
625.074	0.636	correct	0back	Block1	0back/STIM_015.jpg
629.191	0.685	correct	0back	Block1	0back/STIM_016.jpg
632.159	0.583	correct	0back	Block1	0back/STIM_016.jpg
635.147	0.668	correct	0back	Block1	0back/STIM_016.jpg
639.762	0.638	correct	0back	Block1	0back/STIM_017.jpg
642.948	0.684	correct	0back	Block1	0back/STIM_017.jpg
646.898	0.394	correct	0back	Block1	0back/STIM_017.jpg
651.183	0.557	correct	0back	Block1	0back/STIM_018.jpg
654.736	0.465	correct	0back	Block1	0back/STIM_018.jpg
657.804	0.734	correct	0back	Block1	0back/STIM_018.jpg
661.358	0.472	correct	0back	Block1	0back/STIM_019.jpg
663.988	0.596	correct	0back	Block1	0back/STIM_019.jpg
668.467	0.55	correct	0back	Block1	0back/STIM_019.jpg
672.044	0.656	correct	2back	Block2	2back/STIM_000.jpg
675.013	0.902	correct	2back	Block2	2back/STIM_000.jpg
679.76	0.701	correct	2back	Block2	2back/STIM_000.jpg
683.267	0.655	correct	2back	Block2	2back/STIM_001.jpg
686.437	0.974	correct	2back	Block2	2back/STIM_001.jpg
690.952	0.76	correct	2back	Block2	2back/STIM_001.jpg
693.969	0.817	correct	2back	Block2	2back/STIM_002.jpg
698.333	0.991	correct	2back	Block2	2back/STIM_002.jpg
701.515	0.77	correct	2back	Block2	2back/STIM_002.jpg
706.215	0.602	correct	2back	Block2	2back/STIM_003.jpg
709.71	0.476	correct	2back	Block2	2back/STIM_003.jpg
713.619	0.492	correct	2back	Block2	2back/STIM_003.jpg
717.053	0.474	correct	2back	Block2	2back/STIM_004.jpg
721.352	0.485	correct	2back	Block2	2back/STIM_004.jpg
725.773	0.623	correct	2back	Block2	2back/STIM_004.jpg
729.063	0.939	correct	2back	Block2	2back/STIM_005.jpg
733.506	0.791	correct	2back	Block2	2back/STIM_005.jpg
737.646	0.572	correct	2back	Block2	2back/STIM_005.jpg
741.741	0.548	correct	2back	Block2	2back/STIM_006.jpg
746.154	0.838	correct	2back	Block2	2back/STIM_006.jpg
750.714	0.608	correct	2back	Block2	2back/STIM_006.jpg
754.871	0.522	correct	2back	Block2	2back/STIM_007.jpg
758.676	0.868	correct	2back	Block2	2back/STIM_007.jpg
762.413	0.948	correct	2back	Block2	2back/STIM_007.jpg
766.234	0.921	correct	2back	Block2	2back/STIM_008.jpg
769.778	0.59	correct	2back	Block2	2back/STIM_008.jpg
772.531	0.622	correct	2back	Block2	2back/STIM_008.jpg
776.768	0.882	incorrect	2back	Block2	2back/STIM_009.jpg
780.298	0.612	correct	2back	Block2	2back/STIM_009.jpg
783.207	0.734	correct	2back	Block2	2back/STIM_009.jpg
787.016	0.704	correct	2back	Block2	2back/STIM_010.jpg
790.312	0.537	correct	2back	Block2	2back/STIM_010.jpg
792.862	0.577	correct	2back	Block2	2back/STIM_010.jpg
796.968	0.905	correct	2back	Block2	2back/STIM_011.jpg
800.908	0.546	correct	2back	Block2	2back/STIM_011.jpg
803.568	0.484	correct	2back	Block2	2back/STIM_011.jpg
806.343	0.64	correct	2back	Block2	2back/STIM_012.jpg
809.209	0.855	correct	2back	Block2	2back/STIM_012.jpg
813.993	0.644	correct	2back	Block2	2back/STIM_012.jpg
817.112	0.93	correct	2back	Block2	2back/STIM_013.jpg
821.091	0.601	correct	2back	Block2	2back/STIM_013.jpg
824.254	0.425	correct	2back	Block2	2back/STIM_013.jpg
827.894	0.602	correct	2back	Block2	2back/STIM_014.jpg
831.837	0.768	correct	2back	Block2	2back/STIM_014.jpg
836.288	0.626	correct	2back	Block2	2back/STIM_014.jpg
840.548	0.664	correct	2back	Block2	2back/STIM_015.jpg
843.388	0.673	correct	2back	Block2	2back/STIM_015.jpg
847.895	0.705	correct	2back	Block2	2back/STIM_015.jpg
852.183	0.905	correct	2back	Block2	2back/STIM_016.jpg
856.73	0.484	correct	2back	Block2	2back/STIM_016.jpg
860.261	0.825	correct	2back	Block2	2back/STIM_016.jpg
863.929	1.01	correct	2back	Block2	2back/STIM_017.jpg
866.996	0.743	correct	2back	Block2	2back/STIM_017.jpg
870.071	0.673	correct	2back	Block2	2back/STIM_017.jpg
873.051	0.729	correct	2back	Block2	2back/STIM_018.jpg
876.069	0.856	correct	2back	Block2	2back/STIM_018.jpg
880.442	0.927	correct	2back	Block2	2back/STIM_018.jpg
883.488	0.484	correct	2back	Block2	2back/STIM_019.jpg
886.142	0.802	correct	2back	Block2	2back/STIM_019.jpg
890.176	0.585	correct	2back	Block2	2back/STIM_019.jpg
894.034	0.555	correct	2back	Block2	2back/STIM_020.jpg
896.716	0.879	correct	2back	Block2	2back/STIM_020.jpg
901.329	0.663	correct	2back	Block2	2back/STIM_020.jpg
905.643	0.849	correct	2back	Block2	2back/STIM_021.jpg
908.734	0.912	correct	2back	Block2	2back/STIM_021.jpg
912.97	0.863	correct	2back	Block2	2back/STIM_021.jpg
917.69	0.828	correct	2back	Block2	2back/STIM_022.jpg
921.47	0.567	correct	2back	Block2	2back/STIM_022.jpg
924.734	0.739	correct	2back	Block2	2back/STIM_022.jpg
927.578	0.57	correct	2back	Block2	2back/STIM_023.jpg
930.364	0.506	incorrect	2back	Block2	2back/STIM_023.jpg
934.317	0.59	correct	2back	Block2	2back/STIM_023.jpg
938.151	0.494	correct	2back	Block2	2back/STIM_024.jpg
941.016	0.638	correct	2back	Block2	2back/STIM_024.jpg
944.675	0.833	correct	2back	Block2	2back/STIM_024.jpg
949.498	0.817	correct	2back	Block2	2back/STIM_025.jpg
953.178	0.582	correct	2back	Block2	2back/STIM_025.jpg
957.285	0.555	correct	2back	Block2	2back/STIM_025.jpg
960.859	0.805	correct	2back	Block2	2back/STIM_026.jpg
964.538	0.923	correct	2back	Block2	2back/STIM_026.jpg
969.13	0.839	correct	2back	Block2	2back/STIM_026.jpg
973.426	0.948	correct	2back	Block2	2back/STIM_027.jpg
976.622	0.868	correct	2back	Block2	2back/STIM_027.jpg
981.022	0.941	correct	2back	Block2	2back/STIM_027.jpg
984.737	0.545	correct	2back	Block2	2back/STIM_028.jpg
987.909	1.022	correct	2back	Block2	2back/STIM_028.jpg
991.413	0.731	correct	2back	Block2	2back/STIM_028.jpg
994.962	0.89	correct	2back	Block2	2back/STIM_029.jpg
998.688	0.881	correct	2back	Block2	2back/STIM_029.jpg
1003.191	0.811	correct	2back	Block2	2back/STIM_029.jpg
1006.867	0.562	correct	2back	Block2	2back/STIM_030.jpg
1010.247	0.494	correct	2back	Block2	2back/STIM_030.jpg
1014.739	0.928	correct	2back	Block2	2back/STIM_030.jpg
1018.441	0.498	correct	2back	Block2	2back/STIM_031.jpg
1022.926	0.606	correct	2back	Block2	2back/STIM_031.jpg
1027.312	0.658	correct	2back	Block2	2back/STIM_031.jpg
1031.367	0.528	correct	2back	Block2	2back/STIM_032.jpg
1033.921	0.659	correct	2back	Block2	2back/STIM_032.jpg
1036.641	0.883	correct	2back	Block2	2back/STIM_032.jpg
1039.841	0.521	correct	2back	Block2	2back/STIM_033.jpg
1043.468	0.902	correct	2back	Block2	2back/STIM_033.jpg
1047.112	0.426	correct	2back	Block2	2back/STIM_033.jpg
1051.16	0.71	correct	2back	Block2	2back/STIM_034.jpg
1055.426	0.94	correct	2back	Block2	2back/STIM_034.jpg
1060.243	0.53	correct	2back	Block2	2back/STIM_034.jpg
1064.709	0.694	correct	2back	Block2	2back/STIM_035.jpg
1067.45	0.628	correct	2back	Block2	2back/STIM_035.jpg
1071.422	0.622	correct	2back	Block2	2back/STIM_035.jpg
1075.102	0.946	correct	2back	Block2	2back/STIM_036.jpg
1078.52	0.592	correct	2back	Block2	2back/STIM_036.jpg
1081.211	0.744	correct	2back	Block2	2back/STIM_036.jpg
1084.14	0.545	correct	2back	Block2	2back/STIM_037.jpg
1087.582	0.648	correct	2back	Block2	2back/STIM_037.jpg
1091.783	0.884	correct	2back	Block2	2back/STIM_037.jpg
1095.99	0.683	correct	2back	Block2	2back/STIM_038.jpg
1098.933	0.806	correct	2back	Block2	2back/STIM_038.jpg
1102.919	0.512	correct	2back	Block2	2back/STIM_038.jpg
1106.479	0.97	correct	2back	Block2	2back/STIM_039.jpg
1110.196	0.883	correct	2back	Block2	2back/STIM_039.jpg
1113.899	0.677	correct	2back	Block2	2back/STIM_039.jpg
1118.01	0.383	correct	0back	Block2	0back/STIM_000.jpg
1121.99	0.373	correct	0back	Block2	0back/STIM_000.jpg
1126.261	0.523	correct	0back	Block2	0back/STIM_000.jpg
1129.566	0.578	correct	0back	Block2	0back/STIM_001.jpg
1133.446	0.7	correct	0back	Block2	0back/STIM_001.jpg
1137.332	0.704	correct	0back	Block2	0back/STIM_001.jpg
1142.005	0.589	correct	0back	Block2	0back/STIM_002.jpg
1145.506	0.564	correct	0back	Block2	0back/STIM_002.jpg
1149.219	0.5	correct	0back	Block2	0back/STIM_002.jpg
1153.435	0.703	correct	0back	Block2	0back/STIM_003.jpg
1156.885	0.607	correct	0back	Block2	0back/STIM_003.jpg
1161.267	0.68	correct	0back	Block2	0back/STIM_003.jpg
1165.142	0.62	correct	0back	Block2	0back/STIM_004.jpg
1169.003	0.393	correct	0back	Block2	0back/STIM_004.jpg
1172.052	0.441	correct	0back	Block2	0back/STIM_004.jpg
1176.23	0.51	correct	0back	Block2	0back/STIM_005.jpg
1179.238	0.731	correct	0back	Block2	0back/STIM_005.jpg
1183.597	0.707	correct	0back	Block2	0back/STIM_005.jpg
1186.899	0.583	correct	0back	Block2	0back/STIM_006.jpg
1191.471	0.71	correct	0back	Block2	0back/STIM_006.jpg
1194.955	0.57	correct	0back	Block2	0back/STIM_006.jpg
1198.962	0.692	correct	0back	Block2	0back/STIM_007.jpg
1201.829	0.622	correct	0back	Block2	0back/STIM_007.jpg
1205.824	0.589	correct	0back	Block2	0back/STIM_007.jpg
1208.921	0.525	correct	0back	Block2	0back/STIM_008.jpg
1213.365	0.505	correct	0back	Block2	0back/STIM_008.jpg
1216.346	0.386	correct	0back	Block2	0back/STIM_008.jpg
1220.721	0.678	incorrect	0back	Block2	0back/STIM_009.jpg
1223.493	0.578	correct	0back	Block2	0back/STIM_009.jpg
1226.266	0.576	correct	0back	Block2	0back/STIM_009.jpg
1229.627	0.423	incorrect	0back	Block2	0back/STIM_010.jpg
1232.449	0.582	correct	0back	Block2	0back/STIM_010.jpg
1235.91	0.584	correct	0back	Block2	0back/STIM_010.jpg
1238.793	0.705	correct	0back	Block2	0back/STIM_011.jpg
1241.545	0.654	correct	0back	Block2	0back/STIM_011.jpg
1245.356	0.577	correct	0back	Block2	0back/STIM_011.jpg
1248.353	0.467	correct	0back	Block2	0back/STIM_012.jpg
1251.992	0.661	correct	0back	Block2	0back/STIM_012.jpg
1256.378	0.442	correct	0back	Block2	0back/STIM_012.jpg
1260.664	0.625	correct	0back	Block2	0back/STIM_013.jpg
1264.282	0.37	correct	0back	Block2	0back/STIM_013.jpg
1267.658	0.61	correct	0back	Block2	0back/STIM_013.jpg
1271.605	0.504	correct	0back	Block2	0back/STIM_014.jpg
1275.819	0.679	correct	0back	Block2	0back/STIM_014.jpg
1279.239	0.372	correct	0back	Block2	0back/STIM_014.jpg
1282.637	0.395	correct	0back	Block2	0back/STIM_015.jpg
1286.874	0.707	correct	0back	Block2	0back/STIM_015.jpg
1291.267	0.55	correct	0back	Block2	0back/STIM_015.jpg
1294.196	0.631	correct	0back	Block2	0back/STIM_016.jpg
1297.925	0.602	correct	0back	Block2	0back/STIM_016.jpg
1302.342	0.588	correct	0back	Block2	0back/STIM_016.jpg
1305.259	0.42	correct	0back	Block2	0back/STIM_017.jpg
1308.605	0.526	correct	0back	Block2	0back/STIM_017.jpg
1311.958	0.492	incorrect	0back	Block2	0back/STIM_017.jpg
1314.77	0.622	correct	0back	Block2	0back/STIM_018.jpg
1319.181	0.59	correct	0back	Block2	0back/STIM_018.jpg
1322.848	0.58	correct	0back	Block2	0back/STIM_018.jpg
1327.276	0.529	correct	0back	Block2	0back/STIM_019.jpg
1329.895	0.692	correct	0back	Block2	0back/STIM_019.jpg
1334.247	0.413	correct	0back	Block2	0back/STIM_019.jpg
1338.396	0.472	correct	2back	Block3	2back/STIM_000.jpg
1341.797	0.401	correct	2back	Block3	2back/STIM_000.jpg
1344.535	0.776	correct	2back	Block3	2back/STIM_000.jpg
1349.065	0.433	incorrect	2back	Block3	2back/STIM_001.jpg
1352.369	0.62	correct	2back	Block3	2back/STIM_001.jpg
1355.079	0.417	correct	2back	Block3	2back/STIM_001.jpg
1357.879	0.595	correct	2back	Block3	2back/STIM_002.jpg
1361.901	0.694	correct	2back	Block3	2back/STIM_002.jpg
1365.247	0.414	correct	2back	Block3	2back/STIM_002.jpg
1368.283	0.794	correct	2back	Block3	2back/STIM_003.jpg
1372.264	0.654	correct	2back	Block3	2back/STIM_003.jpg
1375.614	0.668	correct	2back	Block3	2back/STIM_003.jpg
1378.952	0.751	correct	2back	Block3	2back/STIM_004.jpg
1382.845	0.803	correct	2back	Block3	2back/STIM_004.jpg
1386.18	0.633	correct	2back	Block3	2back/STIM_004.jpg
1390.474	0.895	correct	2back	Block3	2back/STIM_005.jpg
1394.913	0.491	correct	2back	Block3	2back/STIM_005.jpg
1398.842	0.54	correct	2back	Block3	2back/STIM_005.jpg
1402.106	0.563	correct	2back	Block3	2back/STIM_006.jpg
1405.909	0.625	correct	2back	Block3	2back/STIM_006.jpg
1409.558	0.404	correct	2back	Block3	2back/STIM_006.jpg
1413.555	0.566	correct	2back	Block3	2back/STIM_007.jpg
1416.395	0.657	correct	2back	Block3	2back/STIM_007.jpg
1419.263	0.717	correct	2back	Block3	2back/STIM_007.jpg
1423.181	0.898	correct	2back	Block3	2back/STIM_008.jpg
1427.323	0.656	correct	2back	Block3	2back/STIM_008.jpg
1430.264	0.805	correct	2back	Block3	2back/STIM_008.jpg
1433.749	0.424	correct	2back	Block3	2back/STIM_009.jpg
1436.336	0.87	correct	2back	Block3	2back/STIM_009.jpg
1441.152	0.397	correct	2back	Block3	2back/STIM_009.jpg
1445.346	0.691	correct	2back	Block3	2back/STIM_010.jpg
1449.522	0.606	correct	2back	Block3	2back/STIM_010.jpg
1452.477	0.403	correct	2back	Block3	2back/STIM_010.jpg
1456.136	0.558	correct	2back	Block3	2back/STIM_011.jpg
1458.986	0.488	correct	2back	Block3	2back/STIM_011.jpg
1461.833	0.604	correct	2back	Block3	2back/STIM_011.jpg
1465.816	0.486	correct	2back	Block3	2back/STIM_012.jpg
1468.694	0.702	correct	2back	Block3	2back/STIM_012.jpg
1472.293	0.586	correct	2back	Block3	2back/STIM_012.jpg
1475.928	0.546	correct	2back	Block3	2back/STIM_013.jpg
1479.049	0.716	correct	2back	Block3	2back/STIM_013.jpg
1482.806	0.388	correct	2back	Block3	2back/STIM_013.jpg
1485.222	0.71	correct	2back	Block3	2back/STIM_014.jpg
1488.775	0.469	correct	2back	Block3	2back/STIM_014.jpg
1493.065	0.582	correct	2back	Block3	2back/STIM_014.jpg
1497.068	0.54	correct	2back	Block3	2back/STIM_015.jpg
1499.841	0.588	correct	2back	Block3	2back/STIM_015.jpg
1502.48	0.884	correct	2back	Block3	2back/STIM_015.jpg
1507.339	0.534	correct	2back	Block3	2back/STIM_016.jpg
1511.743	0.57	correct	2back	Block3	2back/STIM_016.jpg
1515.606	0.742	correct	2back	Block3	2back/STIM_016.jpg
1518.609	0.742	correct	2back	Block3	2back/STIM_017.jpg
1521.791	0.694	correct	2back	Block3	2back/STIM_017.jpg
1525.913	0.595	correct	2back	Block3	2back/STIM_017.jpg
1529.555	0.488	correct	2back	Block3	2back/STIM_018.jpg
1532.504	0.864	correct	2back	Block3	2back/STIM_018.jpg
1535.803	0.876	correct	2back	Block3	2back/STIM_018.jpg
1538.703	0.816	correct	2back	Block3	2back/STIM_019.jpg
1541.603	0.667	correct	2back	Block3	2back/STIM_019.jpg
1544.773	0.47	correct	2back	Block3	2back/STIM_019.jpg
1547.258	0.872	correct	2back	Block3	2back/STIM_020.jpg
1550.199	0.838	correct	2back	Block3	2back/STIM_020.jpg
1553.194	0.418	correct	2back	Block3	2back/STIM_020.jpg
1556.26	0.56	correct	2back	Block3	2back/STIM_021.jpg
1560.545	0.588	correct	2back	Block3	2back/STIM_021.jpg
1564.874	0.448	correct	2back	Block3	2back/STIM_021.jpg
1568.821	0.635	correct	2back	Block3	2back/STIM_022.jpg
1571.65	0.629	correct	2back	Block3	2back/STIM_022.jpg
1574.476	0.475	correct	2back	Block3	2back/STIM_022.jpg
1578.271	0.804	correct	2back	Block3	2back/STIM_023.jpg
1582.138	0.796	correct	2back	Block3	2back/STIM_023.jpg
1586.082	0.401	correct	2back	Block3	2back/STIM_023.jpg
1589.057	0.429	correct	2back	Block3	2back/STIM_024.jpg
1591.66	0.411	correct	2back	Block3	2back/STIM_024.jpg
1595.618	0.544	correct	2back	Block3	2back/STIM_024.jpg
1599.715	0.536	correct	2back	Block3	2back/STIM_025.jpg
1602.584	0.504	correct	2back	Block3	2back/STIM_025.jpg
1605.548	0.58	correct	2back	Block3	2back/STIM_025.jpg
1610.098	0.805	correct	2back	Block3	2back/STIM_026.jpg
1613.85	0.587	correct	2back	Block3	2back/STIM_026.jpg
1616.836	0.856	correct	2back	Block3	2back/STIM_026.jpg
1619.867	0.595	correct	2back	Block3	2back/STIM_027.jpg
1624.459	0.605	correct	2back	Block3	2back/STIM_027.jpg
1629.055	0.546	incorrect	2back	Block3	2back/STIM_027.jpg
1632.487	0.6	correct	2back	Block3	2back/STIM_028.jpg
1636.12	0.818	correct	2back	Block3	2back/STIM_028.jpg
1640.059	0.667	correct	2back	Block3	2back/STIM_028.jpg
1643.287	0.48	correct	2back	Block3	2back/STIM_029.jpg
1646.962	0.526	correct	2back	Block3	2back/STIM_029.jpg
1650.116	0.579	correct	2back	Block3	2back/STIM_029.jpg
1654.255	0.657	correct	2back	Block3	2back/STIM_030.jpg
1657.383	0.811	correct	2back	Block3	2back/STIM_030.jpg
1660.286	0.452	correct	2back	Block3	2back/STIM_030.jpg
1664.517	0.644	correct	2back	Block3	2back/STIM_031.jpg
1668.514	0.831	correct	2back	Block3	2back/STIM_031.jpg
1672.439	0.553	correct	2back	Block3	2back/STIM_031.jpg
1675.52	0.731	correct	2back	Block3	2back/STIM_032.jpg
1679.153	0.598	correct	2back	Block3	2back/STIM_032.jpg
1682.075	0.807	correct	2back	Block3	2back/STIM_032.jpg
1686.566	0.849	correct	2back	Block3	2back/STIM_033.jpg
1691.006	0.404	correct	2back	Block3	2back/STIM_033.jpg
1695.117	0.458	correct	2back	Block3	2back/STIM_033.jpg
1697.829	0.501	correct	2back	Block3	2back/STIM_034.jpg
1700.37	0.616	correct	2back	Block3	2back/STIM_034.jpg
1704.914	0.604	correct	2back	Block3	2back/STIM_034.jpg
1708.625	0.45	correct	2back	Block3	2back/STIM_035.jpg
1711.693	0.494	correct	2back	Block3	2back/STIM_035.jpg
1714.51	0.857	correct	2back	Block3	2back/STIM_035.jpg
1718.272	0.406	correct	2back	Block3	2back/STIM_036.jpg
1721.902	0.786	correct	2back	Block3	2back/STIM_036.jpg
1726.52	0.411	correct	2back	Block3	2back/STIM_036.jpg
1730.028	0.676	correct	2back	Block3	2back/STIM_037.jpg
1734.03	0.722	correct	2back	Block3	2back/STIM_037.jpg
1738.498	0.792	correct	2back	Block3	2back/STIM_037.jpg
1742.232	0.663	incorrect	2back	Block3	2back/STIM_038.jpg
1746.243	0.412	correct	2back	Block3	2back/STIM_038.jpg
1750.578	0.658	correct	2back	Block3	2back/STIM_038.jpg
1754.369	0.766	correct	2back	Block3	2back/STIM_039.jpg
1758.979	0.436	correct	2back	Block3	2back/STIM_039.jpg
1762.293	0.7	correct	2back	Block3	2back/STIM_039.jpg
1766.396	0.67	correct	0back	Block3	0back/STIM_000.jpg
1769.62	0.554	incorrect	0back	Block3	0back/STIM_000.jpg
1773.59	0.704	correct	0back	Block3	0back/STIM_000.jpg
1777.705	0.492	correct	0back	Block3	0back/STIM_001.jpg
1781.149	0.503	correct	0back	Block3	0back/STIM_001.jpg
1783.758	0.445	correct	0back	Block3	0back/STIM_001.jpg
1786.963	0.648	correct	0back	Block3	0back/STIM_002.jpg
1790.699	0.453	correct	0back	Block3	0back/STIM_002.jpg
1793.73	0.735	correct	0back	Block3	0back/STIM_002.jpg
1797.97	0.594	correct	0back	Block3	0back/STIM_003.jpg
1800.7	0.507	correct	0back	Block3	0back/STIM_003.jpg
1804.59	0.688	correct	0back	Block3	0back/STIM_003.jpg
1809.105	0.596	correct	0back	Block3	0back/STIM_004.jpg
1812.292	0.463	correct	0back	Block3	0back/STIM_004.jpg
1815.131	0.458	correct	0back	Block3	0back/STIM_004.jpg
1817.645	0.517	correct	0back	Block3	0back/STIM_005.jpg
1821.523	0.711	correct	0back	Block3	0back/STIM_005.jpg
1826.085	0.526	correct	0back	Block3	0back/STIM_005.jpg
1828.869	0.532	correct	0back	Block3	0back/STIM_006.jpg
1832.356	0.481	correct	0back	Block3	0back/STIM_006.jpg
1836.069	0.397	correct	0back	Block3	0back/STIM_006.jpg
1838.813	0.512	correct	0back	Block3	0back/STIM_007.jpg
1842.385	0.566	correct	0back	Block3	0back/STIM_007.jpg
1846.446	0.571	correct	0back	Block3	0back/STIM_007.jpg
1849.111	0.393	correct	0back	Block3	0back/STIM_008.jpg
1852.18	0.526	correct	0back	Block3	0back/STIM_008.jpg
1855.098	0.684	correct	0back	Block3	0back/STIM_008.jpg
1858.181	0.409	correct	0back	Block3	0back/STIM_009.jpg
1861.65	0.514	correct	0back	Block3	0back/STIM_009.jpg
1865.738	0.632	correct	0back	Block3	0back/STIM_009.jpg
1870.286	0.589	correct	0back	Block3	0back/STIM_010.jpg
1874.382	0.665	correct	0back	Block3	0back/STIM_010.jpg
1877.209	0.426	correct	0back	Block3	0back/STIM_010.jpg
1880.061	0.416	correct	0back	Block3	0back/STIM_011.jpg
1884.212	0.401	correct	0back	Block3	0back/STIM_011.jpg
1887.909	0.499	correct	0back	Block3	0back/STIM_011.jpg
1890.466	0.48	incorrect	0back	Block3	0back/STIM_012.jpg
1894.198	0.445	correct	0back	Block3	0back/STIM_012.jpg
1897.225	0.398	correct	0back	Block3	0back/STIM_012.jpg
1901.422	0.537	correct	0back	Block3	0back/STIM_013.jpg
1905.114	0.371	correct	0back	Block3	0back/STIM_013.jpg
1909.091	0.721	correct	0back	Block3	0back/STIM_013.jpg
1911.938	0.485	correct	0back	Block3	0back/STIM_014.jpg
1916.16	0.535	correct	0back	Block3	0back/STIM_014.jpg
1919.26	0.507	correct	0back	Block3	0back/STIM_014.jpg
1922.018	0.501	correct	0back	Block3	0back/STIM_015.jpg
1924.954	0.634	correct	0back	Block3	0back/STIM_015.jpg
1927.79	0.495	correct	0back	Block3	0back/STIM_015.jpg
1930.792	0.48	correct	0back	Block3	0back/STIM_016.jpg
1934.709	0.548	correct	0back	Block3	0back/STIM_016.jpg
1937.573	0.374	correct	0back	Block3	0back/STIM_016.jpg
1941.306	0.474	correct	0back	Block3	0back/STIM_017.jpg
1944.377	0.506	correct	0back	Block3	0back/STIM_017.jpg
1948.059	0.64	correct	0back	Block3	0back/STIM_017.jpg
1952.354	0.667	correct	0back	Block3	0back/STIM_018.jpg
1955.823	0.534	correct	0back	Block3	0back/STIM_018.jpg
1959.04	0.579	correct	0back	Block3	0back/STIM_018.jpg
1961.935	0.575	correct	0back	Block3	0back/STIM_019.jpg
1965.129	0.639	correct	0back	Block3	0back/STIM_019.jpg
1967.975	0.498	correct	0back	Block3	0back/STIM_019.jpg
1970.631	0.557	correct	2back	Block4	2back/STIM_000.jpg
1973.899	0.578	correct	2back	Block4	2back/STIM_000.jpg
1977.004	0.42	correct	2back	Block4	2back/STIM_000.jpg
1979.838	0.852	correct	2back	Block4	2back/STIM_001.jpg
1984.365	0.672	correct	2back	Block4	2back/STIM_001.jpg
1988.935	0.606	correct	2back	Block4	2back/STIM_001.jpg
1992.835	0.612	correct	2back	Block4	2back/STIM_002.jpg
1996.896	0.586	correct	2back	Block4	2back/STIM_002.jpg
1999.904	0.484	correct	2back	Block4	2back/STIM_002.jpg
2004.168	0.566	correct	2back	Block4	2back/STIM_003.jpg
2007.832	0.78	correct	2back	Block4	2back/STIM_003.jpg
2012.231	0.471	correct	2back	Block4	2back/STIM_003.jpg
2015.724	0.488	correct	2back	Block4	2back/STIM_004.jpg
2018.291	0.784	correct	2back	Block4	2back/STIM_004.jpg
2021.843	0.658	correct	2back	Block4	2back/STIM_004.jpg
2026.341	0.601	correct	2back	Block4	2back/STIM_005.jpg
2029.29	0.66	correct	2back	Block4	2back/STIM_005.jpg
2033.428	0.674	correct	2back	Block4	2back/STIM_005.jpg
2036.288	0.882	correct	2back	Block4	2back/STIM_006.jpg
2039.335	0.421	correct	2back	Block4	2back/STIM_006.jpg
2041.772	0.842	correct	2back	Block4	2back/STIM_006.jpg
2045.862	0.893	correct	2back	Block4	2back/STIM_007.jpg
2049.922	0.4	correct	2back	Block4	2back/STIM_007.jpg
2052.43	0.647	correct	2back	Block4	2back/STIM_007.jpg
2056.227	0.69	correct	2back	Block4	2back/STIM_008.jpg
2059.918	0.561	correct	2back	Block4	2back/STIM_008.jpg
2063.734	0.779	correct	2back	Block4	2back/STIM_008.jpg
2068.489	0.508	correct	2back	Block4	2back/STIM_009.jpg
2071.461	0.731	correct	2back	Block4	2back/STIM_009.jpg
2075.066	0.878	correct	2back	Block4	2back/STIM_009.jpg
2078.652	0.416	correct	2back	Block4	2back/STIM_010.jpg
2081.882	0.64	correct	2back	Block4	2back/STIM_010.jpg
2086.237	0.461	correct	2back	Block4	2back/STIM_010.jpg
2090.215	0.531	correct	2back	Block4	2back/STIM_011.jpg
2093.441	0.893	correct	2back	Block4	2back/STIM_011.jpg
2097.369	0.706	correct	2back	Block4	2back/STIM_011.jpg
2100.641	0.803	correct	2back	Block4	2back/STIM_012.jpg
2103.97	0.801	correct	2back	Block4	2back/STIM_012.jpg
2107.66	0.397	correct	2back	Block4	2back/STIM_012.jpg
2111.47	0.762	correct	2back	Block4	2back/STIM_013.jpg
2115.479	0.793	correct	2back	Block4	2back/STIM_013.jpg
2119.086	0.63	correct	2back	Block4	2back/STIM_013.jpg
2122.916	0.696	correct	2back	Block4	2back/STIM_014.jpg
2126.375	0.887	correct	2back	Block4	2back/STIM_014.jpg
2131.021	0.516	correct	2back	Block4	2back/STIM_014.jpg
2134.484	0.876	correct	2back	Block4	2back/STIM_015.jpg
2137.956	0.389	correct	2back	Block4	2back/STIM_015.jpg
2140.864	0.811	correct	2back	Block4	2back/STIM_015.jpg
2143.75	0.776	correct	2back	Block4	2back/STIM_016.jpg
2148.237	0.592	correct	2back	Block4	2back/STIM_016.jpg
2152.554	0.834	correct	2back	Block4	2back/STIM_016.jpg
2156.108	0.65	correct	2back	Block4	2back/STIM_017.jpg
2160.584	0.833	correct	2back	Block4	2back/STIM_017.jpg
2164.354	0.496	correct	2back	Block4	2back/STIM_017.jpg
2167.062	0.59	correct	2back	Block4	2back/STIM_018.jpg
2169.659	0.508	correct	2back	Block4	2back/STIM_018.jpg
2173.912	0.814	correct	2back	Block4	2back/STIM_018.jpg
2178.281	0.639	correct	2back	Block4	2back/STIM_019.jpg
2181.238	0.401	correct	2back	Block4	2back/STIM_019.jpg
2184.55	0.569	correct	2back	Block4	2back/STIM_019.jpg
2188.628	0.854	correct	2back	Block4	2back/STIM_020.jpg
2191.617	0.809	correct	2back	Block4	2back/STIM_020.jpg
2196.285	0.518	correct	2back	Block4	2back/STIM_020.jpg
2199.795	0.486	correct	2back	Block4	2back/STIM_021.jpg
2202.487	0.617	correct	2back	Block4	2back/STIM_021.jpg
2207.104	0.462	correct	2back	Block4	2back/STIM_021.jpg
2210.627	0.775	correct	2back	Block4	2back/STIM_022.jpg
2215.046	0.697	incorrect	2back	Block4	2back/STIM_022.jpg
2218.78	0.585	correct	2back	Block4	2back/STIM_022.jpg
2221.53	0.394	correct	2back	Block4	2back/STIM_023.jpg
2224.565	0.853	correct	2back	Block4	2back/STIM_023.jpg
2228.056	0.694	correct	2back	Block4	2back/STIM_023.jpg
2231.604	0.841	correct	2back	Block4	2back/STIM_024.jpg
2235.197	0.638	correct	2back	Block4	2back/STIM_024.jpg
2239.699	0.845	correct	2back	Block4	2back/STIM_024.jpg
2244.012	0.83	correct	2back	Block4	2back/STIM_025.jpg
2247.277	0.427	correct	2back	Block4	2back/STIM_025.jpg
2250.534	0.414	correct	2back	Block4	2back/STIM_025.jpg
2253.2	0.593	correct	2back	Block4	2back/STIM_026.jpg
2256.853	0.574	correct	2back	Block4	2back/STIM_026.jpg
2260.354	0.89	correct	2back	Block4	2back/STIM_026.jpg
2263.831	0.807	correct	2back	Block4	2back/STIM_027.jpg
2268.342	0.618	correct	2back	Block4	2back/STIM_027.jpg
2272.009	0.554	correct	2back	Block4	2back/STIM_027.jpg
2274.741	0.898	correct	2back	Block4	2back/STIM_028.jpg
2278.251	0.72	correct	2back	Block4	2back/STIM_028.jpg
2282.334	0.623	correct	2back	Block4	2back/STIM_028.jpg
2285.48	0.766	correct	2back	Block4	2back/STIM_029.jpg
2288.479	0.464	correct	2back	Block4	2back/STIM_029.jpg
2291.647	0.872	correct	2back	Block4	2back/STIM_029.jpg
2296.176	0.825	correct	2back	Block4	2back/STIM_030.jpg
2299.286	0.517	correct	2back	Block4	2back/STIM_030.jpg
2303.284	0.632	correct	2back	Block4	2back/STIM_030.jpg
2306.263	0.835	correct	2back	Block4	2back/STIM_031.jpg
2310.457	0.582	correct	2back	Block4	2back/STIM_031.jpg
2313.575	0.558	correct	2back	Block4	2back/STIM_031.jpg
2318.019	0.854	correct	2back	Block4	2back/STIM_032.jpg
2322.68	0.578	correct	2back	Block4	2back/STIM_032.jpg
2326.843	0.463	correct	2back	Block4	2back/STIM_032.jpg
2329.732	0.69	correct	2back	Block4	2back/STIM_033.jpg
2334.138	0.698	correct	2back	Block4	2back/STIM_033.jpg
2338.168	0.446	correct	2back	Block4	2back/STIM_033.jpg
2341.901	0.887	correct	2back	Block4	2back/STIM_034.jpg
2346.468	0.707	correct	2back	Block4	2back/STIM_034.jpg
2350.649	0.591	correct	2back	Block4	2back/STIM_034.jpg
2353.832	0.44	correct	2back	Block4	2back/STIM_035.jpg
2357.676	0.655	correct	2back	Block4	2back/STIM_035.jpg
2361.231	0.402	correct	2back	Block4	2back/STIM_035.jpg
2364.282	0.758	correct	2back	Block4	2back/STIM_036.jpg
2367.273	0.405	correct	2back	Block4	2back/STIM_036.jpg
2370.801	0.827	correct	2back	Block4	2back/STIM_036.jpg
2375.371	0.738	correct	2back	Block4	2back/STIM_037.jpg
2378.444	0.518	correct	2back	Block4	2back/STIM_037.jpg
2382.056	0.721	correct	2back	Block4	2back/STIM_037.jpg
2386.767	0.436	correct	2back	Block4	2back/STIM_038.jpg
2390.984	0.515	correct	2back	Block4	2back/STIM_038.jpg
2393.746	0.884	correct	2back	Block4	2back/STIM_038.jpg
2397.579	0.828	correct	2back	Block4	2back/STIM_039.jpg
2402.096	0.559	correct	2back	Block4	2back/STIM_039.jpg
2406.163	0.773	correct	2back	Block4	2back/STIM_039.jpg
2409.477	0.604	correct	0back	Block4	0back/STIM_000.jpg
2412.691	0.635	correct	0back	Block4	0back/STIM_000.jpg
2417.149	0.721	correct	0back	Block4	0back/STIM_000.jpg
2420.213	0.585	correct	0back	Block4	0back/STIM_001.jpg
2423.343	0.627	incorrect	0back	Block4	0back/STIM_001.jpg
2427.87	0.489	correct	0back	Block4	0back/STIM_001.jpg
2432.129	0.554	correct	0back	Block4	0back/STIM_002.jpg
2435.115	0.625	correct	0back	Block4	0back/STIM_002.jpg
2439.435	0.416	correct	0back	Block4	0back/STIM_002.jpg
2442.363	0.482	correct	0back	Block4	0back/STIM_003.jpg
2446.618	0.492	correct	0back	Block4	0back/STIM_003.jpg
2450.111	0.593	correct	0back	Block4	0back/STIM_003.jpg
2453.945	0.632	correct	0back	Block4	0back/STIM_004.jpg
2458.398	0.53	correct	0back	Block4	0back/STIM_004.jpg
2461.183	0.627	correct	0back	Block4	0back/STIM_004.jpg
2464.349	0.424	correct	0back	Block4	0back/STIM_005.jpg
2468.011	0.448	correct	0back	Block4	0back/STIM_005.jpg
2472.272	0.724	correct	0back	Block4	0back/STIM_005.jpg
2476.624	0.706	correct	0back	Block4	0back/STIM_006.jpg
2479.741	0.379	correct	0back	Block4	0back/STIM_006.jpg
2484.049	0.719	correct	0back	Block4	0back/STIM_006.jpg
2488.628	0.608	correct	0back	Block4	0back/STIM_007.jpg
2491.319	0.562	correct	0back	Block4	0back/STIM_007.jpg
2494.29	0.509	correct	0back	Block4	0back/STIM_007.jpg
2497.8	0.619	correct	0back	Block4	0back/STIM_008.jpg
2500.911	0.687	correct	0back	Block4	0back/STIM_008.jpg
2505.346	0.654	correct	0back	Block4	0back/STIM_008.jpg
2508.942	0.489	correct	0back	Block4	0back/STIM_009.jpg
2513.4	0.664	correct	0back	Block4	0back/STIM_009.jpg
2517.655	0.537	correct	0back	Block4	0back/STIM_009.jpg
2520.495	0.411	correct	0back	Block4	0back/STIM_010.jpg
2523.39	0.688	correct	0back	Block4	0back/STIM_010.jpg
2526.64	0.585	correct	0back	Block4	0back/STIM_010.jpg
2529.684	0.394	correct	0back	Block4	0back/STIM_011.jpg
2533.084	0.609	correct	0back	Block4	0back/STIM_011.jpg
2535.937	0.562	correct	0back	Block4	0back/STIM_011.jpg
2540.311	0.49	correct	0back	Block4	0back/STIM_012.jpg
2544.352	0.449	correct	0back	Block4	0back/STIM_012.jpg
2547.563	0.434	correct	0back	Block4	0back/STIM_012.jpg
2551.292	0.49	correct	0back	Block4	0back/STIM_013.jpg
2555.27	0.399	correct	0back	Block4	0back/STIM_013.jpg
2558.985	0.374	correct	0back	Block4	0back/STIM_013.jpg
2563.14	0.569	correct	0back	Block4	0back/STIM_014.jpg
2567.038	0.504	correct	0back	Block4	0back/STIM_014.jpg
2571.116	0.396	correct	0back	Block4	0back/STIM_014.jpg
2574.968	0.52	correct	0back	Block4	0back/STIM_015.jpg
2577.729	0.439	correct	0back	Block4	0back/STIM_015.jpg
2581.176	0.578	correct	0back	Block4	0back/STIM_015.jpg
2585.484	0.441	correct	0back	Block4	0back/STIM_016.jpg
2588.89	0.384	correct	0back	Block4	0back/STIM_016.jpg
2593.187	0.644	correct	0back	Block4	0back/STIM_016.jpg
2597.813	0.553	correct	0back	Block4	0back/STIM_017.jpg
2602.298	0.64	correct	0back	Block4	0back/STIM_017.jpg
2605.227	0.539	correct	0back	Block4	0back/STIM_017.jpg
2608.04	0.542	correct	0back	Block4	0back/STIM_018.jpg
2612.113	0.388	correct	0back	Block4	0back/STIM_018.jpg
2615.962	0.655	correct	0back	Block4	0back/STIM_018.jpg
2619.377	0.631	correct	0back	Block4	0back/STIM_019.jpg
2623.189	0.726	correct	0back	Block4	0back/STIM_019.jpg
2627.143	0.601	correct	0back	Block4	0back/STIM_019.jpg
