onset	duration	accuracy	trial_type	learning_stage	stimulus
0.0	0.835	correct	2back	Block1	2back/STIM_000.jpg
3.17	0.531	correct	2back	Block1	2back/STIM_000.jpg
6.704	1.076	correct	2back	Block1	2back/STIM_000.jpg
11.516	0.857	correct	2back	Block1	2back/STIM_001.jpg
16.287	1.048	correct	2back	Block1	2back/STIM_001.jpg
20.396	0.602	correct	2back	Block1	2back/STIM_001.jpg
25.039	1.114	correct	2back	Block1	2back/STIM_002.jpg
29.642	0.817	correct	2back	Block1	2back/STIM_002.jpg
33.75	0.56	correct	2back	Block1	2back/STIM_002.jpg
37.986	0.574	correct	2back	Block1	2back/STIM_003.jpg
42.417	0.742	correct	2back	Block1	2back/STIM_003.jpg
47.226	0.548	correct	2back	Block1	2back/STIM_003.jpg
50.073	0.903	correct	2back	Block1	2back/STIM_004.jpg
54.767	0.823	correct	2back	Block1	2back/STIM_004.jpg
58.181	0.574	correct	2back	Block1	2back/STIM_004.jpg
62.44	1.015	incorrect	2back	Block1	2back/STIM_005.jpg
66.085	0.608	correct	2back	Block1	2back/STIM_005.jpg
69.436	0.785	correct	2back	Block1	2back/STIM_005.jpg
72.984	1.076	correct	2back	Block1	2back/STIM_006.jpg
78.091	0.618	correct	2back	Block1	2back/STIM_006.jpg
80.861	0.66	correct	2back	Block1	2back/STIM_006.jpg
84.974	0.709	correct	2back	Block1	2back/STIM_007.jpg
89.772	0.912	correct	2back	Block1	2back/STIM_007.jpg
94.39	0.805	correct	2back	Block1	2back/STIM_007.jpg
98.423	0.786	correct	2back	Block1	2back/STIM_008.jpg
102.152	0.869	correct	2back	Block1	2back/STIM_008.jpg
105.945	0.798	correct	2back	Block1	2back/STIM_008.jpg
109.274	1.198	correct	2back	Block1	2back/STIM_009.jpg
113.154	1.083	correct	2back	Block1	2back/STIM_009.jpg
116.952	0.638	correct	2back	Block1	2back/STIM_009.jpg
121.647	0.556	correct	2back	Block1	2back/STIM_010.jpg
125.577	0.832	correct	2back	Block1	2back/STIM_010.jpg
128.559	0.887	correct	2back	Block1	2back/STIM_010.jpg
132.187	0.696	correct	2back	Block1	2back/STIM_011.jpg
135.946	0.661	correct	2back	Block1	2back/STIM_011.jpg
139.128	0.905	incorrect	2back	Block1	2back/STIM_011.jpg
142.578	0.784	correct	2back	Block1	2back/STIM_012.jpg
147.036	0.712	correct	2back	Block1	2back/STIM_012.jpg
150.678	0.55	correct	2back	Block1	2back/STIM_012.jpg
153.745	0.735	correct	2back	Block1	2back/STIM_013.jpg
157.213	0.902	correct	2back	Block1	2back/STIM_013.jpg
160.602	0.92	correct	2back	Block1	2back/STIM_013.jpg
164.373	1.088	correct	2back	Block1	2back/STIM_014.jpg
168.34	0.8	correct	2back	Block1	2back/STIM_014.jpg
171.774	0.726	correct	2back	Block1	2back/STIM_014.jpg
175.239	0.762	correct	2back	Block1	2back/STIM_015.jpg
179.982	0.641	incorrect	2back	Block1	2back/STIM_015.jpg
183.568	0.576	correct	2back	Block1	2back/STIM_015.jpg
186.375	0.74	correct	2back	Block1	2back/STIM_016.jpg
189.288	0.79	correct	2back	Block1	2back/STIM_016.jpg
194.196	0.613	correct	2back	Block1	2back/STIM_016.jpg
197.947	1.066	correct	2back	Block1	2back/STIM_017.jpg
201.624	0.671	correct	2back	Block1	2back/STIM_017.jpg
204.519	0.63	incorrect	2back	Block1	2back/STIM_017.jpg
208.07	1.16	correct	2back	Block1	2back/STIM_018.jpg
212.719	0.596	correct	2back	Block1	2back/STIM_018.jpg
216.744	0.592	correct	2back	Block1	2back/STIM_018.jpg
221.343	0.806	incorrect	2back	Block1	2back/STIM_019.jpg
225.661	0.696	correct	2back	Block1	2back/STIM_019.jpg
229.765	0.603	correct	2back	Block1	2back/STIM_019.jpg
232.841	1.055	correct	2back	Block1	2back/STIM_020.jpg
238.049	0.503	correct	2back	Block1	2back/STIM_020.jpg
241.398	1.063	correct	2back	Block1	2back/STIM_020.jpg
246.25	0.628	correct	2back	Block1	2back/STIM_021.jpg
250.649	0.831	incorrect	2back	Block1	2back/STIM_021.jpg
255.318	0.789	correct	2back	Block1	2back/STIM_021.jpg
258.769	0.873	correct	2back	Block1	2back/STIM_022.jpg
262.233	0.701	incorrect	2back	Block1	2back/STIM_022.jpg
265.896	0.47	correct	2back	Block1	2back/STIM_022.jpg
269.006	0.683	incorrect	2back	Block1	2back/STIM_023.jpg
272.564	0.931	correct	2back	Block1	2back/STIM_023.jpg
276.662	0.82	correct	2back	Block1	2back/STIM_023.jpg
279.908	0.658	correct	2back	Block1	2back/STIM_024.jpg
283.152	0.994	correct	2back	Block1	2back/STIM_024.jpg
288.005	0.982	correct	2back	Block1	2back/STIM_024.jpg
292.026	0.634	correct	2back	Block1	2back/STIM_025.jpg
296.455	0.661	correct	2back	Block1	2back/STIM_025.jpg
300.931	0.651	incorrect	2back	Block1	2back/STIM_025.jpg
305.314	0.812	correct	2back	Block1	2back/STIM_026.jpg
308.98	0.886	incorrect	2back	Block1	2back/STIM_026.jpg
313.229	1.0	correct	2back	Block1	2back/STIM_026.jpg
316.956	1.157	correct	2back	Block1	2back/STIM_027.jpg
322.178	0.69	correct	2back	Block1	2back/STIM_027.jpg
326.471	0.785	incorrect	2back	Block1	2back/STIM_027.jpg
330.195	0.517	incorrect	2back	Block1	2back/STIM_028.jpg
334.048	0.959	correct	2back	Block1	2back/STIM_028.jpg
338.91	0.999	correct	2back	Block1	2back/STIM_028.jpg
342.748	0.93	correct	2back	Block1	2back/STIM_029.jpg
347.429	0.492	correct	2back	Block1	2back/STIM_029.jpg
350.257	0.501	correct	2back	Block1	2back/STIM_029.jpg
353.597	0.986	correct	2back	Block1	2back/STIM_030.jpg
358.266	1.093	incorrect	2back	Block1	2back/STIM_030.jpg
362.724	0.574	correct	2back	Block1	2back/STIM_030.jpg
365.702	0.602	correct	2back	Block1	2back/STIM_031.jpg
369.469	0.779	incorrect	2back	Block1	2back/STIM_031.jpg
372.954	0.952	incorrect	2back	Block1	2back/STIM_031.jpg
377.152	1.063	correct	2back	Block1	2back/STIM_032.jpg
381.144	0.797	correct	2back	Block1	2back/STIM_032.jpg
385.808	0.703	correct	2back	Block1	2back/STIM_032.jpg
389.36	0.535	correct	2back	Block1	2back/STIM_033.jpg
393.927	0.522	correct	2back	Block1	2back/STIM_033.jpg
397.388	1.043	incorrect	2back	Block1	2back/STIM_033.jpg
401.966	1.059	correct	2back	Block1	2back/STIM_034.jpg
405.986	0.854	correct	2back	Block1	2back/STIM_034.jpg
410.185	0.614	correct	2back	Block1	2back/STIM_034.jpg
414.478	0.59	correct	2back	Block1	2back/STIM_035.jpg
418.609	0.984	incorrect	2back	Block1	2back/STIM_035.jpg
422.093	0.656	correct	2back	Block1	2back/STIM_035.jpg
426.519	1.073	correct	2back	Block1	2back/STIM_036.jpg
431.151	0.966	incorrect	2back	Block1	2back/STIM_036.jpg
435.338	0.629	incorrect	2back	Block1	2back/STIM_036.jpg
438.696	0.891	incorrect	2back	Block1	2back/STIM_037.jpg
442.971	1.008	correct	2back	Block1	2back/STIM_037.jpg
447.068	0.903	correct	2back	Block1	2back/STIM_037.jpg
450.21	0.85	correct	2back	Block1	2back/STIM_038.jpg
453.521	0.718	incorrect	2back	Block1	2back/STIM_038.jpg
457.011	0.894	correct	2back	Block1	2back/STIM_038.jpg
461.632	0.797	correct	2back	Block1	2back/STIM_039.jpg
464.83	0.51	correct	2back	Block1	2back/STIM_039.jpg
468.434	0.63	correct	2back	Block1	2back/STIM_039.jpg
472.114	0.609	correct	0back	Block1	0back/STIM_000.jpg
474.97	0.545	correct	0back	Block1	0back/STIM_000.jpg
478.602	0.627	correct	0back	Block1	0back/STIM_000.jpg
483.318	0.634	correct	0back	Block1	0back/STIM_001.jpg
486.354	0.641	correct	0back	Block1	0back/STIM_001.jpg
489.68	0.357	correct	0back	Block1	0back/STIM_001.jpg
492.968	0.418	correct	0back	Block1	0back/STIM_002.jpg
496.929	0.354	correct	0back	Block1	0back/STIM_002.jpg
501.006	0.659	correct	0back	Block1	0back/STIM_002.jpg
505.295	0.551	correct	0back	Block1	0back/STIM_003.jpg
508.418	0.412	correct	0back	Block1	0back/STIM_003.jpg
512.101	0.504	correct	0back	Block1	0back/STIM_003.jpg
515.752	0.495	correct	0back	Block1	0back/STIM_004.jpg
519.177	0.484	correct	0back	Block1	0back/STIM_004.jpg
522.678	0.56	correct	0back	Block1	0back/STIM_004.jpg
527.092	0.457	correct	0back	Block1	0back/STIM_005.jpg
530.241	0.604	incorrect	0back	Block1	0back/STIM_005.jpg
533.535	0.397	correct	0back	Block1	0back/STIM_005.jpg
537.893	0.658	correct	0back	Block1	0back/STIM_006.jpg
541.681	0.523	correct	0back	Block1	0back/STIM_006.jpg
544.308	0.388	correct	0back	Block1	0back/STIM_006.jpg
548.278	0.523	correct	0back	Block1	0back/STIM_007.jpg
552.132	0.612	correct	0back	Block1	0back/STIM_007.jpg
556.128	0.642	correct	0back	Block1	0back/STIM_007.jpg
560.083	0.406	correct	0back	Block1	0back/STIM_008.jpg
563.632	0.493	correct	0back	Block1	0back/STIM_008.jpg
567.168	0.634	correct	0back	Block1	0back/STIM_008.jpg
569.936	0.651	correct	0back	Block1	0back/STIM_009.jpg
573.727	0.616	correct	0back	Block1	0back/STIM_009.jpg
577.059	0.606	correct	0back	Block1	0back/STIM_009.jpg
579.79	0.575	correct	0back	Block1	0back/STIM_010.jpg
583.984	0.576	correct	0back	Block1	0back/STIM_010.jpg
587.346	0.43	correct	0back	Block1	0back/STIM_010.jpg
591.66	0.517	correct	0back	Block1	0back/STIM_011.jpg
596.09	0.39	correct	0back	Block1	0back/STIM_011.jpg
599.742	0.495	correct	0back	Block1	0back/STIM_011.jpg
602.481	0.374	correct	0back	Block1	0back/STIM_012.jpg
606.51	0.62	correct	0back	Block1	0back/STIM_012.jpg
610.07	0.515	correct	0back	Block1	0back/STIM_012.jpg
614.094	0.484	correct	0back	Block1	0back/STIM_013.jpg
618.593	0.391	correct	0back	Block1	0back/STIM_013.jpg
622.591	0.559	correct	0back	Block1	0back/STIM_013.jpg
625.63	0.68	correct	0back	Block1	0back/STIM_014.jpg
628.817	0.6	correct	0back	Block1	0back/STIM_014.jpg
633.277	0.377	correct	0back	Block1	0back/STIM_014.jpg
636.742	0.382	correct	0back	Block1	0back/STIM_015.jpg
640.913	0.577	correct	0back	Block1	0back/STIM_015.jpg
644.109	0.673	correct	0back	Block1	0back/STIM_015.jpg
647.144	0.437	correct	0back	Block1	0back/STIM_016.jpg
650.312	0.613	correct	0back	Block1	0back/STIM_016.jpg
654.199	0.379	correct	0back	Block1	0back/STIM_016.jpg
657.336	0.423	correct	0back	Block1	0back/STIM_017.jpg
660.697	0.598	correct	0back	Block1	0back/STIM_017.jpg
665.182	0.509	correct	0back	Block1	0back/STIM_017.jpg
668.057	0.428	correct	0back	Block1	0back/STIM_018.jpg
671.198	0.55	correct	0back	Block1	0back/STIM_018.jpg
673.95	0.542	correct	0back	Block1	0back/STIM_018.jpg
677.874	0.582	correct	0back	Block1	0back/STIM_019.jpg
681.579	0.467	correct	0back	Block1	0back/STIM_019.jpg
685.111	0.47	correct	0back	Block1	0back/STIM_019.jpg
688.152	0.753	incorrect	2back	Block2	2back/STIM_000.jpg
691.968	0.762	correct	2back	Block2	2back/STIM_000.jpg
696.694	0.575	correct	2back	Block2	2back/STIM_000.jpg
700.725	0.572	correct	2back	Block2	2back/STIM_001.jpg
705.039	0.766	correct	2back	Block2	2back/STIM_001.jpg
708.192	0.813	incorrect	2back	Block2	2back/STIM_001.jpg
712.91	0.729	correct	2back	Block2	2back/STIM_002.jpg
716.994	0.651	correct	2back	Block2	2back/STIM_002.jpg
719.829	0.447	correct	2back	Block2	2back/STIM_002.jpg
723.468	0.955	correct	2back	Block2	2back/STIM_003.jpg
726.677	0.587	correct	2back	Block2	2back/STIM_003.jpg
730.612	0.757	correct	2back	Block2	2back/STIM_003.jpg
734.133	0.748	correct	2back	Block2	2back/STIM_004.jpg
737.039	0.423	correct	2back	Block2	2back/STIM_004.jpg
741.286	0.482	correct	2back	Block2	2back/STIM_004.jpg
745.604	0.514	correct	2back	Block2	2back/STIM_005.jpg
748.331	0.479	correct	2back	Block2	2back/STIM_005.jpg
751.831	0.688	correct	2back	Block2	2back/STIM_005.jpg
756.045	0.965	correct	2back	Block2	2back/STIM_006.jpg
759.547	0.862	correct	2back	Block2	2back/STIM_006.jpg
762.592	0.392	correct	2back	Block2	2back/STIM_006.jpg
765.207	0.959	correct	2back	Block2	2back/STIM_007.jpg
769.942	0.941	correct	2back	Block2	2back/STIM_007.jpg
774.721	0.503	correct	2back	Block2	2back/STIM_007.jpg
777.681	0.441	correct	2back	Block2	2back/STIM_008.jpg
781.273	0.753	incorrect	2back	Block2	2back/STIM_008.jpg
785.944	0.425	correct	2back	Block2	2back/STIM_008.jpg
789.415	0.973	incorrect	2back	Block2	2back/STIM_009.jpg
792.756	0.909	correct	2back	Block2	2back/STIM_009.jpg
797.272	0.451	correct	2back	Block2	2back/STIM_009.jpg
800.421	0.495	correct	2back	Block2	2back/STIM_010.jpg
804.37	0.599	correct	2back	Block2	2back/STIM_010.jpg
807.672	0.537	correct	2back	Block2	2back/STIM_010.jpg
811.11	0.939	correct	2back	Block2	2back/STIM_011.jpg
815.379	0.636	correct	2back	Block2	2back/STIM_011.jpg
819.055	0.574	correct	2back	Block2	2back/STIM_011.jpg
822.773	0.776	correct	2back	Block2	2back/STIM_012.jpg
825.829	0.721	correct	2back	Block2	2back/STIM_012.jpg
829.015	0.722	correct	2back	Block2	2back/STIM_012.jpg
832.869	0.904	correct	2back	Block2	2back/STIM_013.jpg
836.776	0.648	correct	2back	Block2	2back/STIM_013.jpg
840.286	0.455	correct	2back	Block2	2back/STIM_013.jpg
844.703	0.539	correct	2back	Block2	2back/STIM_014.jpg
849.3	0.47	correct	2back	Block2	2back/STIM_014.jpg
853.025	0.632	correct	2back	Block2	2back/STIM_014.jpg
855.88	0.55	incorrect	2back	Block2	2back/STIM_015.jpg
859.374	0.501	correct	2back	Block2	2back/STIM_015.jpg
863.549	0.693	correct	2back	Block2	2back/STIM_015.jpg
868.095	0.856	correct	2back	Block2	2back/STIM_016.jpg
871.379	0.931	correct	2back	Block2	2back/STIM_016.jpg
875.873	0.677	correct	2back	Block2	2back/STIM_016.jpg
879.856	0.848	correct	2back	Block2	2back/STIM_017.jpg
883.024	0.482	correct	2back	Block2	2back/STIM_017.jpg
885.928	0.422	correct	2back	Block2	2back/STIM_017.jpg
890.028	0.754	correct	2back	Block2	2back/STIM_018.jpg
893.668	0.672	incorrect	2back	Block2	2back/STIM_018.jpg
898.317	0.758	correct	2back	Block2	2back/STIM_018.jpg
902.175	0.698	correct	2back	Block2	2back/STIM_019.jpg
906.67	0.642	correct	2back	Block2	2back/STIM_019.jpg
911.188	0.689	correct	2back	Block2	2back/STIM_019.jpg
915.692	0.977	correct	2back	Block2	2back/STIM_020.jpg
920.231	0.707	correct	2back	Block2	2back/STIM_020.jpg
923.452	0.83	correct	2back	Block2	2back/STIM_020.jpg
927.548	0.679	correct	2back	Block2	2back/STIM_021.jpg
930.468	0.519	correct	2back	Block2	2back/STIM_021.jpg
934.943	0.718	incorrect	2back	Block2	2back/STIM_021.jpg
938.272	0.918	correct	2back	Block2	2back/STIM_022.jpg
943.299	0.958	correct	2back	Block2	2back/STIM_022.jpg
946.489	0.734	correct	2back	Block2	2back/STIM_022.jpg
950.722	0.746	correct	2back	Block2	2back/STIM_023.jpg
953.899	0.453	incorrect	2back	Block2	2back/STIM_023.jpg
958.09	0.766	correct	2back	Block2	2back/STIM_023.jpg
960.995	0.442	correct	2back	Block2	2back/STIM_024.jpg
963.735	0.462	correct	2back	Block2	2back/STIM_024.jpg
967.516	0.61	correct	2back	Block2	2back/STIM_024.jpg
970.902	0.981	correct	2back	Block2	2back/STIM_025.jpg
974.338	0.929	correct	2back	Block2	2back/STIM_025.jpg
978.195	0.546	incorrect	2back	Block2	2back/STIM_025.jpg
982.758	0.581	correct	2back	Block2	2back/STIM_026.jpg
986.808	0.516	correct	2back	Block2	2back/STIM_026.jpg
990.009	0.434	correct	2back	Block2	2back/STIM_026.jpg
992.601	0.941	correct	2back	Block2	2back/STIM_027.jpg
997.094	0.491	correct	2back	Block2	2back/STIM_027.jpg
1001.366	0.846	correct	2back	Block2	2back/STIM_027.jpg
1005.331	0.917	correct	2back	Block2	2back/STIM_028.jpg
1009.961	0.787	correct	2back	Block2	2back/STIM_028.jpg
1013.545	0.529	correct	2back	Block2	2back/STIM_028.jpg
1016.661	0.892	correct	2back	Block2	2back/STIM_029.jpg
1020.015	0.935	correct	2back	Block2	2back/STIM_029.jpg
1025.072	0.867	correct	2back	Block2	2back/STIM_029.jpg
1028.828	0.927	correct	2back	Block2	2back/STIM_030.jpg
1032.897	0.689	incorrect	2back	Block2	2back/STIM_030.jpg
1036.223	0.636	correct	2back	Block2	2back/STIM_030.jpg
1040.636	0.811	correct	2back	Block2	2back/STIM_031.jpg
1044.464	0.76	correct	2back	Block2	2back/STIM_031.jpg
1048.907	0.45	correct	2back	Block2	2back/STIM_031.jpg
1053.07	0.656	correct	2back	Block2	2back/STIM_032.jpg
1056.027	0.828	correct	2back	Block2	2back/STIM_032.jpg
1059.384	0.848	correct	2back	Block2	2back/STIM_032.jpg
1063.645	0.749	correct	2back	Block2	2back/STIM_033.jpg
1066.842	0.539	correct	2back	Block2	2back/STIM_033.jpg
1071.237	0.434	correct	2back	Block2	2back/STIM_033.jpg
1074.554	0.677	correct	2back	Block2	2back/STIM_034.jpg
1079.086	0.93	correct	2back	Block2	2back/STIM_034.jpg
1083.715	0.588	correct	2back	Block2	2back/STIM_034.jpg
1087.627	0.731	correct	2back	Block2	2back/STIM_035.jpg
1092.313	0.719	correct	2back	Block2	2back/STIM_035.jpg
1095.559	0.604	correct	2back	Block2	2back/STIM_035.jpg
1099.373	0.768	incorrect	2back	Block2	2back/STIM_036.jpg
1103.829	0.925	correct	2back	Block2	2back/STIM_036.jpg
1106.915	0.441	correct	2back	Block2	2back/STIM_036.jpg
1111.138	0.663	incorrect	2back	Block2	2back/STIM_037.jpg
1114.83	0.424	correct	2back	Block2	2back/STIM_037.jpg
1117.603	0.832	correct	2back	Block2	2back/STIM_037.jpg
1122.173	0.474	correct	2back	Block2	2back/STIM_038.jpg
1125.818	0.622	correct	2back	Block2	2back/STIM_038.jpg
1130.432	0.42	incorrect	2back	Block2	2back/STIM_038.jpg
1134.174	0.886	correct	2back	Block2	2back/STIM_039.jpg
1138.687	0.853	correct	2back	Block2	2back/STIM_039.jpg
1141.696	0.724	correct	2back	Block2	2back/STIM_039.jpg
1145.239	0.66	correct	0back	Block2	0back/STIM_000.jpg
1149.421	0.445	correct	0back	Block2	0back/STIM_000.jpg
1152.533	0.515	correct	0back	Block2	0back/STIM_000.jpg
1155.197	0.493	correct	0back	Block2	0back/STIM_001.jpg
1158.898	0.489	correct	0back	Block2	0back/STIM_001.jpg
1163.287	0.604	correct	0back	Block2	0back/STIM_001.jpg
1166.631	0.517	correct	0back	Block2	0back/STIM_002.jpg
1170.211	0.408	correct	0back	Block2	0back/STIM_002.jpg
1174.494	0.353	correct	0back	Block2	0back/STIM_002.jpg
1177.386	0.546	correct	0back	Block2	0back/STIM_003.jpg
1180.889	0.573	correct	0back	Block2	0back/STIM_003.jpg
1183.654	0.63	incorrect	0back	Block2	0back/STIM_003.jpg
1186.489	0.545	correct	0back	Block2	0back/STIM_004.jpg
1189.811	0.527	correct	0back	Block2	0back/STIM_004.jpg
1193.689	0.477	correct	0back	Block2	0back/STIM_004.jpg
1196.975	0.478	correct	0back	Block2	0back/STIM_005.jpg
1200.525	0.651	correct	0back	Block2	0back/STIM_005.jpg
1205.076	0.571	correct	0back	Block2	0back/STIM_005.jpg
1208.308	0.667	correct	0back	Block2	0back/STIM_006.jpg
1212.489	0.387	correct	0back	Block2	0back/STIM_006.jpg
1215.576	0.554	correct	0back	Block2	0back/STIM_006.jpg
1219.98	0.356	correct	0back	Block2	0back/STIM_007.jpg
1222.8	0.467	correct	0back	Block2	0back/STIM_007.jpg
1226.264	0.638	correct	0back	Block2	0back/STIM_007.jpg
1230.789	0.538	correct	0back	Block2	0back/STIM_008.jpg
1234.934	0.658	correct	0back	Block2	0back/STIM_008.jpg
1238.548	0.487	correct	0back	Block2	0back/STIM_008.jpg
1243.061	0.522	incorrect	0back	Block2	0back/STIM_009.jpg
1247.22	0.685	correct	0back	Block2	0back/STIM_009.jpg
1250.183	0.346	correct	0back	Block2	0back/STIM_009.jpg
1253.089	0.655	incorrect	0back	Block2	0back/STIM_010.jpg
1257.64	0.61	correct	0back	Block2	0back/STIM_010.jpg
1261.735	0.517	correct	0back	Block2	0back/STIM_010.jpg
1264.491	0.416	correct	0back	Block2	0back/STIM_011.jpg
1267.386	0.409	correct	0back	Block2	0back/STIM_011.jpg
1270.466	0.62	correct	0back	Block2	0back/STIM_011.jpg
1274.58	0.566	correct	0back	Block2	0back/STIM_012.jpg
1278.991	0.423	correct	0back	Block2	0back/STIM_012.jpg
1282.112	0.468	correct	0back	Block2	0back/STIM_012.jpg
1286.302	0.644	correct	0back	Block2	0back/STIM_013.jpg
1289.922	0.52	correct	0back	Block2	0back/STIM_013.jpg
1292.807	0.658	correct	0back	Block2	0back/STIM_013.jpg
1297.516	0.363	correct	0back	Block2	0back/STIM_014.jpg
1300.762	0.56	correct	0back	Block2	0back/STIM_014.jpg
1305.057	0.571	correct	0back	Block2	0back/STIM_014.jpg
1309.532	0.404	correct	0back	Block2	0back/STIM_015.jpg
1313.332	0.465	correct	0back	Block2	0back/STIM_015.jpg
1316.085	0.542	correct	0back	Block2	0back/STIM_015.jpg
1319.547	0.495	correct	0back	Block2	0back/STIM_016.jpg
1322.814	0.507	correct	0back	Block2	0back/STIM_016.jpg
1327.214	0.445	correct	0back	Block2	0back/STIM_016.jpg
1330.12	0.602	correct	0back	Block2	0back/STIM_017.jpg
1333.17	0.56	correct	0back	Block2	0back/STIM_017.jpg
1337.63	0.558	incorrect	0back	Block2	0back/STIM_017.jpg
1340.807	0.398	correct	0back	Block2	0back/STIM_018.jpg
1344.004	0.626	correct	0back	Block2	0back/STIM_018.jpg
1346.838	0.456	correct	0back	Block2	0back/STIM_018.jpg
1349.783	0.676	correct	0back	Block2	0back/STIM_019.jpg
1353.63	0.532	correct	0back	Block2	0back/STIM_019.jpg
1357.076	0.608	correct	0back	Block2	0back/STIM_019.jpg
1360.685	0.568	correct	2back	Block3	2back/STIM_000.jpg
1364.131	0.714	correct	2back	Block3	2back/STIM_000.jpg
1367.032	0.558	correct	2back	Block3	2back/STIM_000.jpg
1369.818	0.763	incorrect	2back	Block3	2back/STIM_001.jpg
1374.377	0.526	incorrect	2back	Block3	2back/STIM_001.jpg
1377.192	0.453	correct	2back	Block3	2back/STIM_001.jpg
1380.911	0.569	correct	2back	Block3	2back/STIM_002.jpg
1384.542	0.613	correct	2back	Block3	2back/STIM_002.jpg
1389.222	0.688	correct	2back	Block3	2back/STIM_002.jpg
1392.785	0.603	correct	2back	Block3	2back/STIM_003.jpg
1396.538	0.801	correct	2back	Block3	2back/STIM_003.jpg
1400.137	0.611	correct	2back	Block3	2back/STIM_003.jpg
1403.254	0.804	correct	2back	Block3	2back/STIM_004.jpg
1407.089	0.645	correct	2back	Block3	2back/STIM_004.jpg
1410.351	0.39	correct	2back	Block3	2back/STIM_004.jpg
1414.064	0.545	correct	2back	Block3	2back/STIM_005.jpg
1417.892	0.786	correct	2back	Block3	2back/STIM_005.jpg
1420.849	0.778	correct	2back	Block3	2back/STIM_005.jpg
1425.7	0.757	correct	2back	Block3	2back/STIM_006.jpg
1429.097	0.68	correct	2back	Block3	2back/STIM_006.jpg
1432.82	0.688	correct	2back	Block3	2back/STIM_006.jpg
1437.281	0.643	correct	2back	Block3	2back/STIM_007.jpg
1441.401	0.763	correct	2back	Block3	2back/STIM_007.jpg
1444.293	0.467	correct	2back	Block3	2back/STIM_007.jpg
1448.42	0.613	correct	2back	Block3	2back/STIM_008.jpg
1451.786	0.591	correct	2back	Block3	2back/STIM_008.jpg
1455.356	0.416	correct	2back	Block3	2back/STIM_008.jpg
1459.778	0.827	incorrect	2back	Block3	2back/STIM_009.jpg
1463.733	0.761	correct	2back	Block3	2back/STIM_009.jpg
1468.292	0.547	correct	2back	Block3	2back/STIM_009.jpg
1471.158	0.553	correct	2back	Block3	2back/STIM_010.jpg
1475.167	0.708	correct	2back	Block3	2back/STIM_010.jpg
1478.35	0.564	correct	2back	Block3	2back/STIM_010.jpg
1481.748	0.377	correct	2back	Block3	2back/STIM_011.jpg
1485.187	0.798	correct	2back	Block3	2back/STIM_011.jpg
1488.421	0.638	correct	2back	Block3	2back/STIM_011.jpg
1492.29	0.662	correct	2back	Block3	2back/STIM_012.jpg
1496.684	0.615	correct	2back	Block3	2back/STIM_012.jpg
1501.14	0.472	correct	2back	Block3	2back/STIM_012.jpg
1504.484	0.384	correct	2back	Block3	2back/STIM_013.jpg
1506.974	0.532	correct	2back	Block3	2back/STIM_013.jpg
1510.732	0.798	correct	2back	Block3	2back/STIM_013.jpg
1514.137	0.801	correct	2back	Block3	2back/STIM_014.jpg
1517.93	0.57	correct	2back	Block3	2back/STIM_014.jpg
1521.407	0.592	correct	2back	Block3	2back/STIM_014.jpg
1524.42	0.516	correct	2back	Block3	2back/STIM_015.jpg
1528.248	0.729	correct	2back	Block3	2back/STIM_015.jpg
1531.606	0.789	correct	2back	Block3	2back/STIM_015.jpg
1536.182	0.474	correct	2back	Block3	2back/STIM_016.jpg
1539.706	0.494	correct	2back	Block3	2back/STIM_016.jpg
1543.855	0.505	correct	2back	Block3	2back/STIM_016.jpg
1546.962	0.722	correct	2back	Block3	2back/STIM_017.jpg
1550.227	0.669	correct	2back	Block3	2back/STIM_017.jpg
1553.891	0.784	correct	2back	Block3	2back/STIM_017.jpg
1558.271	0.543	correct	2back	Block3	2back/STIM_018.jpg
1562.395	0.401	correct	2back	Block3	2back/STIM_018.jpg
1566.081	0.625	correct	2back	Block3	2back/STIM_018.jpg
1569.17	0.785	correct	2back	Block3	2back/STIM_019.jpg
1573.042	0.421	correct	2back	Block3	2back/STIM_019.jpg
1576.948	0.778	correct	2back	Block3	2back/STIM_019.jpg
1581.491	0.548	correct	2back	Block3	2back/STIM_020.jpg
1585.891	0.509	correct	2back	Block3	2back/STIM_020.jpg
1590.249	0.477	correct	2back	Block3	2back/STIM_020.jpg
1594.33	0.651	correct	2back	Block3	2back/STIM_021.jpg
1597.358	0.687	correct	2back	Block3	2back/STIM_021.jpg
1601.975	0.588	correct	2back	Block3	2back/STIM_021.jpg
1605.728	0.562	correct	2back	Block3	2back/STIM_022.jpg
1609.771	0.528	correct	2back	Block3	2back/STIM_022.jpg
1613.643	0.563	correct	2back	Block3	2back/STIM_022.jpg
1617.852	0.814	correct	2back	Block3	2back/STIM_023.jpg
1620.868	0.543	correct	2back	Block3	2back/STIM_023.jpg
1623.942	0.833	correct	2back	Block3	2back/STIM_023.jpg
1627.894	0.537	correct	2back	Block3	2back/STIM_024.jpg
1632.103	0.442	correct	2back	Block3	2back/STIM_024.jpg
1636.305	0.403	correct	2back	Block3	2back/STIM_024.jpg
1639.963	0.788	correct	2back	Block3	2back/STIM_025.jpg
1643.848	0.765	correct	2back	Block3	2back/STIM_025.jpg
1648.094	0.388	correct	2back	Block3	2back/STIM_025.jpg
1652.265	0.654	correct	2back	Block3	2back/STIM_026.jpg
1655.92	0.612	correct	2back	Block3	2back/STIM_026.jpg
1659.578	0.712	correct	2back	Block3	2back/STIM_026.jpg
1663.198	0.702	correct	2back	Block3	2back/STIM_027.jpg
1667.743	0.687	correct	2back	Block3	2back/STIM_027.jpg
1672.411	0.418	incorrect	2back	Block3	2back/STIM_027.jpg
1675.54	0.797	correct	2back	Block3	2back/STIM_028.jpg
1678.721	0.758	correct	2back	Block3	2back/STIM_028.jpg
1682.202	0.371	correct	2back	Block3	2back/STIM_028.jpg
1685.168	0.743	correct	2back	Block3	2back/STIM_029.jpg
1689.303	0.51	correct	2back	Block3	2back/STIM_029.jpg
1693.136	0.463	correct	2back	Block3	2back/STIM_029.jpg
1696.973	0.553	correct	2back	Block3	2back/STIM_030.jpg
1701.457	0.464	correct	2back	Block3	2back/STIM_030.jpg
1704.597	0.568	correct	2back	Block3	2back/STIM_030.jpg
1709.137	0.773	correct	2back	Block3	2back/STIM_031.jpg
1713.765	0.784	correct	2back	Block3	2back/STIM_031.jpg
1717.847	0.722	correct	2back	Block3	2back/STIM_031.jpg
1722.119	0.827	correct	2back	Block3	2back/STIM_032.jpg
1726.856	0.654	correct	2back	Block3	2back/STIM_032.jpg
1730.261	0.534	correct	2back	Block3	2back/STIM_032.jpg
1733.591	0.39	correct	2back	Block3	2back/STIM_033.jpg
1738.017	0.74	correct	2back	Block3	2back/STIM_033.jpg
1741.735	0.673	correct	2back	Block3	2back/STIM_033.jpg
1746.04	0.832	correct	2back	Block3	2back/STIM_034.jpg
1749.256	0.829	correct	2back	Block3	2back/STIM_034.jpg
1752.335	0.425	correct	2back	Block3	2back/STIM_034.jpg
1755.883	0.706	correct	2back	Block3	2back/STIM_035.jpg
1760.666	0.53	correct	2back	Block3	2back/STIM_035.jpg
1763.334	0.7	correct	2back	Block3	2back/STIM_035.jpg
1766.852	0.749	correct	2back	Block3	2back/STIM_036.jpg
1770.734	0.363	correct	2back	Block3	2back/STIM_036.jpg
1774.931	0.474	correct	2back	Block3	2back/STIM_036.jpg
1778.268	0.684	correct	2back	Block3	2back/STIM_037.jpg
1781.417	0.824	correct	2back	Block3	2back/STIM_037.jpg
1785.194	0.834	correct	2back	Block3	2back/STIM_037.jpg
1789.871	0.745	incorrect	2back	Block3	2back/STIM_038.jpg
1794.504	0.777	correct	2back	Block3	2back/STIM_038.jpg
1799.052	0.69	correct	2back	Block3	2back/STIM_038.jpg
1803.165	0.673	correct	2back	Block3	2back/STIM_039.jpg
1807.847	0.39	correct	2back	Block3	2back/STIM_039.jpg
1811.252	0.521	correct	2back	Block3	2back/STIM_039.jpg
1814.943	0.356	correct	0back	Block3	0back/STIM_000.jpg
1817.699	0.513	incorrect	0back	Block3	0back/STIM_000.jpg
1820.785	0.392	correct	0back	Block3	0back/STIM_000.jpg
1823.759	0.44	correct	0back	Block3	0back/STIM_001.jpg
1827.988	0.484	correct	0back	Block3	0back/STIM_001.jpg
1831.724	0.548	correct	0back	Block3	0back/STIM_001.jpg
1835.187	0.619	correct	0back	Block3	0back/STIM_002.jpg
1839.139	0.623	correct	0back	Block3	0back/STIM_002.jpg
1843.671	0.457	correct	0back	Block3	0back/STIM_002.jpg
1847.312	0.645	correct	0back	Block3	0back/STIM_003.jpg
1851.16	0.348	correct	0back	Block3	0back/STIM_003.jpg
1855.414	0.412	correct	0back	Block3	0back/STIM_003.jpg
1859.166	0.554	correct	0back	Block3	0back/STIM_004.jpg
1863.654	0.405	correct	0back	Block3	0back/STIM_004.jpg
1867.11	0.614	correct	0back	Block3	0back/STIM_004.jpg
1871.358	0.513	correct	0back	Block3	0back/STIM_005.jpg
1875.362	0.441	correct	0back	Block3	0back/STIM_005.jpg
1879.538	0.392	correct	0back	Block3	0back/STIM_005.jpg
1882.67	0.362	correct	0back	Block3	0back/STIM_006.jpg
1885.414	0.359	correct	0back	Block3	0back/STIM_006.jpg
1889.661	0.386	correct	0back	Block3	0back/STIM_006.jpg
1892.706	0.541	correct	0back	Block3	0back/STIM_007.jpg
1896.983	0.444	correct	0back	Block3	0back/STIM_007.jpg
1901.051	0.418	correct	0back	Block3	0back/STIM_007.jpg
1903.549	0.675	correct	0back	Block3	0back/STIM_008.jpg
1906.591	0.516	correct	0back	Block3	0back/STIM_008.jpg
1910.912	0.418	correct	0back	Block3	0back/STIM_008.jpg
1914.629	0.566	correct	0back	Block3	0back/STIM_009.jpg
1918.947	0.665	correct	0back	Block3	0back/STIM_009.jpg
1921.733	0.615	correct	0back	Block3	0back/STIM_009.jpg
1924.619	0.439	correct	0back	Block3	0back/STIM_010.jpg
1927.579	0.599	correct	0back	Block3	0back/STIM_010.jpg
1930.911	0.578	correct	0back	Block3	0back/STIM_010.jpg
1933.732	0.526	correct	0back	Block3	0back/STIM_011.jpg
1936.708	0.624	correct	0back	Block3	0back/STIM_011.jpg
1940.56	0.687	correct	0back	Block3	0back/STIM_011.jpg
1944.787	0.452	incorrect	0back	Block3	0back/STIM_012.jpg
1948.339	0.618	correct	0back	Block3	0back/STIM_012.jpg
1951.997	0.652	correct	0back	Block3	0back/STIM_012.jpg
1956.67	0.625	correct	0back	Block3	0back/STIM_013.jpg
1960.295	0.417	correct	0back	Block3	0back/STIM_013.jpg
1964.668	0.482	correct	0back	Block3	0back/STIM_013.jpg
1968.527	0.367	correct	0back	Block3	0back/STIM_014.jpg
1972.896	0.409	correct	0back	Block3	0back/STIM_014.jpg
1976.829	0.618	correct	0back	Block3	0back/STIM_014.jpg
1981.26	0.611	correct	0back	Block3	0back/STIM_015.jpg
1985.029	0.664	incorrect	0back	Block3	0back/STIM_015.jpg
1987.951	0.522	correct	0back	Block3	0back/STIM_015.jpg
1991.102	0.611	correct	0back	Block3	0back/STIM_016.jpg
1995.246	0.663	correct	0back	Block3	0back/STIM_016.jpg
1999.854	0.442	incorrect	0back	Block3	0back/STIM_016.jpg
2002.523	0.451	correct	0back	Block3	0back/STIM_017.jpg
2005.119	0.623	correct	0back	Block3	0back/STIM_017.jpg
2009.335	0.645	correct	0back	Block3	0back/STIM_017.jpg
2013.337	0.623	correct	0back	Block3	0back/STIM_018.jpg
2017.919	0.507	correct	0back	Block3	0back/STIM_018.jpg
2021.687	0.597	correct	0back	Block3	0back/STIM_018.jpg
2024.609	0.612	correct	0back	Block3	0back/STIM_019.jpg
2028.982	0.674	correct	0back	Block3	0back/STIM_019.jpg
2032.278	0.388	correct	0back	Block3	0back/STIM_019.jpg
2035.331	0.75	correct	2back	Block4	2back/STIM_000.jpg
2038.325	0.826	correct	2back	Block4	2back/STIM_000.jpg
2042.198	0.696	correct	2back	Block4	2back/STIM_000.jpg
2046.106	0.785	correct	2back	Block4	2back/STIM_001.jpg
2050.53	0.51	correct	2back	Block4	2back/STIM_001.jpg
2054.944	0.654	correct	2back	Block4	2back/STIM_001.jpg
2057.799	0.787	correct	2back	Block4	2back/STIM_002.jpg
2061.814	0.701	correct	2back	Block4	2back/STIM_002.jpg
2064.999	0.364	correct	2back	Block4	2back/STIM_002.jpg
2068.037	0.835	correct	2back	Block4	2back/STIM_003.jpg
2072.838	0.573	correct	2back	Block4	2back/STIM_003.jpg
2075.803	0.659	correct	2back	Block4	2back/STIM_003.jpg
2078.918	0.606	correct	2back	Block4	2back/STIM_004.jpg
2081.878	0.447	correct	2back	Block4	2back/STIM_004.jpg
2085.209	0.795	correct	2back	Block4	2back/STIM_004.jpg
2088.898	0.499	correct	2back	Block4	2back/STIM_005.jpg
2093.36	0.409	correct	2back	Block4	2back/STIM_005.jpg
2096.937	0.595	correct	2back	Block4	2back/STIM_005.jpg
2100.8	0.473	correct	2back	Block4	2back/STIM_006.jpg
2105.168	0.643	correct	2back	Block4	2back/STIM_006.jpg
2109.063	0.465	correct	2back	Block4	2back/STIM_006.jpg
2113.505	0.827	correct	2back	Block4	2back/STIM_007.jpg
2117.527	0.505	correct	2back	Block4	2back/STIM_007.jpg
2121.05	0.385	correct	2back	Block4	2back/STIM_007.jpg
2123.641	0.452	correct	2back	Block4	2back/STIM_008.jpg
2127.742	0.572	correct	2back	Block4	2back/STIM_008.jpg
2131.351	0.67	correct	2back	Block4	2back/STIM_008.jpg
2136.111	0.781	correct	2back	Block4	2back/STIM_009.jpg
2140.758	0.687	incorrect	2back	Block4	2back/STIM_009.jpg
2143.998	0.576	correct	2back	Block4	2back/STIM_009.jpg
2148.571	0.477	correct	2back	Block4	2back/STIM_010.jpg
2152.761	0.692	correct	2back	Block4	2back/STIM_010.jpg
2155.635	0.702	correct	2back	Block4	2back/STIM_010.jpg
2158.748	0.789	correct	2back	Block4	2back/STIM_011.jpg
2163.47	0.561	correct	2back	Block4	2back/STIM_011.jpg
2167.66	0.399	correct	2back	Block4	2back/STIM_011.jpg
2170.227	0.631	correct	2back	Block4	2back/STIM_012.jpg
2172.962	0.594	correct	2back	Block4	2back/STIM_012.jpg
2176.994	0.588	correct	2back	Block4	2back/STIM_012.jpg
2181.652	0.627	correct	2back	Block4	2back/STIM_013.jpg
2185.62	0.729	correct	2back	Block4	2back/STIM_013.jpg
2189.128	0.413	correct	2back	Block4	2back/STIM_013.jpg
2192.402	0.449	correct	2back	Block4	2back/STIM_014.jpg
2196.796	0.524	correct	2back	Block4	2back/STIM_014.jpg
2200.446	0.807	correct	2back	Block4	2back/STIM_014.jpg
2203.885	0.831	correct	2back	Block4	2back/STIM_015.jpg
2207.384	0.473	correct	2back	Block4	2back/STIM_015.jpg
2210.427	0.648	correct	2back	Block4	2back/STIM_015.jpg
2213.763	0.752	correct	2back	Block4	2back/STIM_016.jpg
2217.801	0.442	correct	2back	Block4	2back/STIM_016.jpg
2222.208	0.488	correct	2back	Block4	2back/STIM_016.jpg
2226.565	0.59	correct	2back	Block4	2back/STIM_017.jpg
2231.042	0.744	correct	2back	Block4	2back/STIM_017.jpg
2234.779	0.616	correct	2back	Block4	2back/STIM_017.jpg
2239.069	0.548	correct	2back	Block4	2back/STIM_018.jpg
2243.139	0.487	correct	2back	Block4	2back/STIM_018.jpg
2245.752	0.523	correct	2back	Block4	2back/STIM_018.jpg
2248.998	0.585	correct	2back	Block4	2back/STIM_019.jpg
2252.788	0.454	correct	2back	Block4	2back/STIM_019.jpg
2256.842	0.548	correct	2back	Block4	2back/STIM_019.jpg
2260.441	0.427	correct	2back	Block4	2back/STIM_020.jpg
2264.554	0.603	correct	2back	Block4	2back/STIM_020.jpg
2268.62	0.653	correct	2back	Block4	2back/STIM_020.jpg
2272.532	0.765	correct	2back	Block4	2back/STIM_021.jpg
2276.219	0.54	correct	2back	Block4	2back/STIM_021.jpg
2280.063	0.674	correct	2back	Block4	2back/STIM_021.jpg
2284.455	0.372	correct	2back	Block4	2back/STIM_022.jpg
2287.301	0.674	incorrect	2back	Block4	2back/STIM_022.jpg
2290.574	0.426	correct	2back	Block4	2back/STIM_022.jpg
2294.33	0.746	correct	2back	Block4	2back/STIM_023.jpg
2298.966	0.389	correct	2back	Block4	2back/STIM_023.jpg
2303.212	0.755	correct	2back	Block4	2back/STIM_023.jpg
2306.358	0.367	correct	2back	Block4	2back/STIM_024.jpg
2310.472	0.436	incorrect	2back	Block4	2back/STIM_024.jpg
2314.874	0.632	correct	2back	Block4	2back/STIM_024.jpg
2318.597	0.688	correct	2back	Block4	2back/STIM_025.jpg
2322.384	0.609	correct	2back	Block4	2back/STIM_025.jpg
2325.367	0.488	correct	2back	Block4	2back/STIM_025.jpg
2328.278	0.498	correct	2back	Block4	2back/STIM_026.jpg
2331.613	0.446	correct	2back	Block4	2back/STIM_026.jpg
2335.496	0.822	correct	2back	Block4	2back/STIM_026.jpg
2338.961	0.61	correct	2back	Block4	2back/STIM_027.jpg
2343.129	0.453	correct	2back	Block4	2back/STIM_027.jpg
2346.284	0.801	correct	2back	Block4	2back/STIM_027.jpg
2350.102	0.578	correct	2back	Block4	2back/STIM_028.jpg
2354.258	0.364	correct	2back	Block4	2back/STIM_028.jpg
2357.954	0.436	correct	2back	Block4	2back/STIM_028.jpg
2360.529	0.643	correct	2back	Block4	2back/STIM_029.jpg
2363.499	0.597	correct	2back	Block4	2back/STIM_029.jpg
2366.732	0.57	correct	2back	Block4	2back/STIM_029.jpg
2369.978	0.808	correct	2back	Block4	2back/STIM_030.jpg
2373.986	0.44	correct	2back	Block4	2back/STIM_030.jpg
2376.634	0.42	correct	2back	Block4	2back/STIM_030.jpg
2380.667	0.6	correct	2back	Block4	2back/STIM_031.jpg
2383.471	0.786	correct	2back	Block4	2back/STIM_031.jpg
2387.728	0.406	correct	2back	Block4	2back/STIM_031.jpg
2390.766	0.469	correct	2back	Block4	2back/STIM_032.jpg
2395.166	0.707	correct	2back	Block4	2back/STIM_032.jpg
2398.718	0.695	correct	2back	Block4	2back/STIM_032.jpg
2403.016	0.434	correct	2back	Block4	2back/STIM_033.jpg
2407.235	0.436	correct	2back	Block4	2back/STIM_033.jpg
2410.955	0.398	correct	2back	Block4	2back/STIM_033.jpg
2413.745	0.532	correct	2back	Block4	2back/STIM_034.jpg
2417.399	0.395	correct	2back	Block4	2back/STIM_034.jpg
2420.467	0.829	correct	2back	Block4	2back/STIM_034.jpg
2424.887	0.795	correct	2back	Block4	2back/STIM_035.jpg
2428.128	0.674	correct	2back	Block4	2back/STIM_035.jpg
2431.729	0.628	correct	2back	Block4	2back/STIM_035.jpg
2436.062	0.444	correct	2back	Block4	2back/STIM_036.jpg
2439.888	0.72	correct	2back	Block4	2back/STIM_036.jpg
2444.166	0.457	correct	2back	Block4	2back/STIM_036.jpg
2448.417	0.451	correct	2back	Block4	2back/STIM_037.jpg
2451.048	0.456	correct	2back	Block4	2back/STIM_037.jpg
2454.264	0.841	correct	2back	Block4	2back/STIM_037.jpg
2457.972	0.362	correct	2back	Block4	2back/STIM_038.jpg
2461.464	0.604	correct	2back	Block4	2back/STIM_038.jpg
2466.057	0.572	correct	2back	Block4	2back/STIM_038.jpg
2469.499	0.75	correct	2back	Block4	2back/STIM_039.jpg
2473.151	0.65	correct	2back	Block4	2back/STIM_039.jpg
2476.652	0.667	correct	2back	Block4	2back/STIM_039.jpg
2480.743	0.554	correct	0back	Block4	0back/STIM_000.jpg
2483.746	0.637	correct	0back	Block4	0back/STIM_000.jpg
2487.699	0.456	incorrect	0back	Block4	0back/STIM_000.jpg
2491.208	0.348	correct	0back	Block4	0back/STIM_001.jpg
2494.792	0.406	incorrect	0back	Block4	0back/STIM_001.jpg
2497.659	0.441	correct	0back	Block4	0back/STIM_001.jpg
2500.928	0.375	correct	0back	Block4	0back/STIM_002.jpg
2504.788	0.468	correct	0back	Block4	0back/STIM_002.jpg
2508.618	0.562	correct	0back	Block4	0back/STIM_002.jpg
2513.152	0.491	correct	0back	Block4	0back/STIM_003.jpg
2517.628	0.674	correct	0back	Block4	0back/STIM_003.jpg
2522.108	0.434	correct	0back	Block4	0back/STIM_003.jpg
2525.171	0.481	correct	0back	Block4	0back/STIM_004.jpg
2529.362	0.632	correct	0back	Block4	0back/STIM_004.jpg
2534.046	0.39	correct	0back	Block4	0back/STIM_004.jpg
2537.947	0.674	correct	0back	Block4	0back/STIM_005.jpg
2540.928	0.564	correct	0back	Block4	0back/STIM_005.jpg
2544.168	0.406	correct	0back	Block4	0back/STIM_005.jpg
2547.691	0.643	correct	0back	Block4	0back/STIM_006.jpg
2551.845	0.462	correct	0back	Block4	0back/STIM_006.jpg
2555.564	0.511	correct	0back	Block4	0back/STIM_006.jpg
2558.328	0.379	correct	0back	Block4	0back/STIM_007.jpg
2562.673	0.433	correct	0back	Block4	0back/STIM_007.jpg
2565.8	0.38	correct	0back	Block4	0back/STIM_007.jpg
2569.535	0.667	correct	0back	Block4	0back/STIM_008.jpg
2572.736	0.533	correct	0back	Block4	0back/STIM_008.jpg
2576.187	0.385	correct	0back	Block4	0back/STIM_008.jpg
2580.194	0.365	correct	0back	Block4	0back/STIM_009.jpg
2583.561	0.489	correct	0back	Block4	0back/STIM_009.jpg
2587.996	0.524	correct	0back	Block4	0back/STIM_009.jpg
2591.767	0.406	correct	0back	Block4	0back/STIM_010.jpg
2594.373	0.547	correct	0back	Block4	0back/STIM_010.jpg
2598.104	0.51	correct	0back	Block4	0back/STIM_010.jpg
2601.025	0.542	correct	0back	Block4	0back/STIM_011.jpg
2605.547	0.484	correct	0back	Block4	0back/STIM_011.jpg
2608.976	0.594	correct	0back	Block4	0back/STIM_011.jpg
2612.637	0.547	correct	0back	Block4	0back/STIM_012.jpg
2616.234	0.457	correct	0back	Block4	0back/STIM_012.jpg
2619.589	0.578	correct	0back	Block4	0back/STIM_012.jpg
2622.31	0.545	correct	0back	Block4	0back/STIM_013.jpg
2625.294	0.424	correct	0back	Block4	0back/STIM_013.jpg
2629.273	0.678	correct	0back	Block4	0back/STIM_013.jpg
2633.786	0.581	correct	0back	Block4	0back/STIM_014.jpg
2637.889	0.526	correct	0back	Block4	0back/STIM_014.jpg
2641.409	0.619	correct	0back	Block4	0back/STIM_014.jpg
2644.181	0.664	correct	0back	Block4	0back/STIM_015.jpg
2647.936	0.66	correct	0back	Block4	0back/STIM_015.jpg
2650.728	0.397	correct	0back	Block4	0back/STIM_015.jpg
2653.203	0.384	correct	0back	Block4	0back/STIM_016.jpg
2657.436	0.516	correct	0back	Block4	0back/STIM_016.jpg
2660.362	0.671	correct	0back	Block4	0back/STIM_016.jpg
2664.556	0.384	correct	0back	Block4	0back/STIM_017.jpg
2668.44	0.666	correct	0back	Block4	0back/STIM_017.jpg
2672.711	0.461	correct	0back	Block4	0back/STIM_017.jpg
2676.441	0.481	correct	0back	Block4	0back/STIM_018.jpg
2680.921	0.63	correct	0back	Block4	0back/STIM_018.jpg
2684.056	0.48	correct	0back	Block4	0back/STIM_018.jpg
2688.013	0.49	incorrect	0back	Block4	0back/STIM_019.jpg
2691.004	0.496	correct	0back	Block4	0back/STIM_019.jpg
2695.427	0.399	correct	0back	Block4	0back/STIM_019.jpg
