onset	duration	response_time_ms	trial_type	learning_stage	stimulus	response_port
0.0	0.936	935.5	2back	Block1	2back/STIM_000.jpg	99
3.118	0.747	747.3	2back	Block1	2back/STIM_000.jpg	100
6.86	0.921	921.2	2back	Block1	2back/STIM_000.jpg	100
9.84	0.569	568.9	2back	Block1	2back/STIM_001.jpg	100
13.3	0.609	609.2	2back	Block1	2back/STIM_001.jpg	100
16.716	0.991	991.0	2back	Block1	2back/STIM_001.jpg	100
21.643	0.846	845.6	2back	Block1	2back/STIM_002.jpg	100
24.766	0.772	772.2	2back	Block1	2back/STIM_002.jpg	100
28.239	0.54	540.5	2back	Block1	2back/STIM_002.jpg	99
31.178	0.813	812.8	2back	Block1	2back/STIM_003.jpg	100
35.755	0.538	538.2	2back	Block1	2back/STIM_003.jpg	99
39.334	0.514	513.9	2back	Block1	2back/STIM_003.jpg	99
43.279	0.612	611.7	2back	Block1	2back/STIM_004.jpg	99
47.313	1.143	1143.2	2back	Block1	2back/STIM_004.jpg	100
50.892	0.654	654.4	2back	Block1	2back/STIM_004.jpg	99
54.431	1.222	1221.7	2back	Block1	2back/STIM_005.jpg	100
58.149	1.019	1019.2	2back	Block1	2back/STIM_005.jpg	99
62.331	0.995	995.2	2back	Block1	2back/STIM_005.jpg	100
65.974	1.13	1129.9	2back	Block1	2back/STIM_006.jpg	99
71.028	0.712	711.6	2back	Block1	2back/STIM_006.jpg	100
75.197	0.565	564.6	2back	Block1	2back/STIM_006.jpg	100
78.217	1.14	1140.1	2back	Block1	2back/STIM_007.jpg	100
82.36	0.791	791.2	2back	Block1	2back/STIM_007.jpg	100
86.359	0.781	780.6	2back	Block1	2back/STIM_007.jpg	100
89.719	1.134	1134.5	2back	Block1	2back/STIM_008.jpg	100
93.387	0.754	753.9	2back	Block1	2back/STIM_008.jpg	100
96.53	1.109	1109.0	2back	Block1	2back/STIM_008.jpg	100
101.158	1.275	1274.9	2back	Block1	2back/STIM_009.jpg	99
105.831	0.806	806.5	2back	Block1	2back/STIM_009.jpg	99
110.434	0.742	741.7	2back	Block1	2back/STIM_009.jpg	99
115.017	0.612	611.8	2back	Block1	2back/STIM_010.jpg	100
118.023	0.854	853.8	2back	Block1	2back/STIM_010.jpg	99
121.776	0.923	922.9	2back	Block1	2back/STIM_010.jpg	99
125.746	0.584	584.1	2back	Block1	2back/STIM_011.jpg	100
130.235	1.164	1164.5	2back	Block1	2back/STIM_011.jpg	100
134.186	0.936	936.3	2back	Block1	2back/STIM_011.jpg	100
138.358	0.631	631.2	2back	Block1	2back/STIM_012.jpg	99
141.63	1.047	1047.0	2back	Block1	2back/STIM_012.jpg	99
145.23	0.972	972.4	2back	Block1	2back/STIM_012.jpg	99
149.61	0.665	664.6	2back	Block1	2back/STIM_013.jpg	99
153.139	0.876	875.9	2back	Block1	2back/STIM_013.jpg	100
156.764	1.035	1034.8	2back	Block1	2back/STIM_013.jpg	99
160.447	1.206	1205.8	2back	Block1	2back/STIM_014.jpg	99
163.797	0.834	834.0	2back	Block1	2back/STIM_014.jpg	100
167.327	0.845	845.2	2back	Block1	2back/STIM_014.jpg	100
171.0	0.894	894.0	2back	Block1	2back/STIM_015.jpg	100
174.774	0.547	547.4	2back	Block1	2back/STIM_015.jpg	100
177.893	1.082	1081.7	2back	Block1	2back/STIM_015.jpg	100
182.552	1.267	1267.2	2back	Block1	2back/STIM_016.jpg	99
187.706	0.94	940.5	2back	Block1	2back/STIM_016.jpg	100
191.265	1.0	999.5	2back	Block1	2back/STIM_016.jpg	99
196.144	1.144	1143.8	2back	Block1	2back/STIM_017.jpg	100
200.433	0.564	563.9	2back	Block1	2back/STIM_017.jpg	99
204.138	0.902	902.0	2back	Block1	2back/STIM_017.jpg	100
208.912	1.12	1120.1	2back	Block1	2back/STIM_018.jpg	99
212.49	0.689	689.0	2back	Block1	2back/STIM_018.jpg	100
217.106	0.928	928.0	2back	Block1	2back/STIM_018.jpg	99
221.255	0.759	758.9	2back	Block1	2back/STIM_019.jpg	99
225.195	0.647	646.7	2back	Block1	2back/STIM_019.jpg	100
229.021	0.549	549.0	2back	Block1	2back/STIM_019.jpg	100
232.839	1.123	1122.6	2back	Block1	2back/STIM_020.jpg	100
237.519	0.969	968.7	2back	Block1	2back/STIM_020.jpg	99
242.005	0.709	708.9	2back	Block1	2back/STIM_020.jpg	99
246.501	0.702	701.5	2back	Block1	2back/STIM_021.jpg	100
249.328	0.624	624.5	2back	Block1	2back/STIM_021.jpg	100
253.608	0.762	761.7	2back	Block1	2back/STIM_021.jpg	99
258.076	0.553	553.2	2back	Block1	2back/STIM_022.jpg	99
261.738	0.755	754.6	2back	Block1	2back/STIM_022.jpg	100
265.752	0.663	663.3	2back	Block1	2back/STIM_022.jpg	99
269.917	1.249	1248.9	2back	Block1	2back/STIM_023.jpg	99
274.697	1.032	1032.3	2back	Block1	2back/STIM_023.jpg	100
277.955	0.933	933.2	2back	Block1	2back/STIM_023.jpg	99
281.733	0.598	597.9	2back	Block1	2back/STIM_024.jpg	100
284.764	0.75	749.7	2back	Block1	2back/STIM_024.jpg	99
288.348	0.96	960.2	2back	Block1	2back/STIM_024.jpg	99
291.619	1.176	1175.9	2back	Block1	2back/STIM_025.jpg	99
296.155	1.185	1185.2	2back	Block1	2back/STIM_025.jpg	100
299.814	0.894	893.6	2back	Block1	2back/STIM_025.jpg	100
304.081	1.122	1121.7	2back	Block1	2back/STIM_026.jpg	100
308.232	0.722	721.9	2back	Block1	2back/STIM_026.jpg	99
311.465	1.14	1139.7	2back	Block1	2back/STIM_026.jpg	100
315.724	0.592	592.3	2back	Block1	2back/STIM_027.jpg	99
320.299	0.592	591.9	2back	Block1	2back/STIM_027.jpg	99
324.406	0.764	763.8	2back	Block1	2back/STIM_027.jpg	100
328.217	1.146	1146.0	2back	Block1	2back/STIM_028.jpg	100
332.047	0.683	683.1	2back	Block1	2back/STIM_028.jpg	99
336.073	0.729	728.6	2back	Block1	2back/STIM_028.jpg	100
340.02	1.002	1002.1	2back	Block1	2back/STIM_029.jpg	99
343.792	0.691	690.6	2back	Block1	2back/STIM_029.jpg	100
348.255	0.913	913.0	2back	Block1	2back/STIM_029.jpg	100
351.561	1.031	1030.6	2back	Block1	2back/STIM_030.jpg	100
355.932	0.804	804.1	2back	Block1	2back/STIM_030.jpg	100
359.049	0.946	946.1	2back	Block1	2back/STIM_030.jpg	100
362.365	0.95	949.5	2back	Block1	2back/STIM_031.jpg	99
365.43	1.174	1174.5	2back	Block1	2back/STIM_031.jpg	99
368.812	0.997	996.7	2back	Block1	2back/STIM_031.jpg	100
371.945	0.612	611.7	2back	Block1	2back/STIM_032.jpg	100
376.513	1.138	1138.0	2back	Block1	2back/STIM_032.jpg	99
380.22	0.613	613.1	2back	Block1	2back/STIM_032.jpg	99
384.129	0.966	966.1	2back	Block1	2back/STIM_033.jpg	100
387.505	0.761	760.9	2back	Block1	2back/STIM_033.jpg	99
390.466	0.984	984.3	2back	Block1	2back/STIM_033.jpg	99
394.178	0.867	866.7	2back	Block1	2back/STIM_034.jpg	99
397.917	0.657	657.2	2back	Block1	2back/STIM_034.jpg	99
401.162	0.796	795.5	2back	Block1	2back/STIM_034.jpg	100
405.781	0.958	958.2	2back	Block1	2back/STIM_035.jpg	99
408.926	0.78	780.3	2back	Block1	2back/STIM_035.jpg	100
411.906	0.816	815.9	2back	Block1	2back/STIM_035.jpg	99
416.028	0.891	891.0	2back	Block1	2back/STIM_036.jpg	99
420.183	0.853	852.9	2back	Block1	2back/STIM_036.jpg	99
424.522	0.542	541.6	2back	Block1	2back/STIM_036.jpg	99
427.64	1.151	1150.7	2back	Block1	2back/STIM_037.jpg	99
431.038	1.222	1222.4	2back	Block1	2back/STIM_037.jpg	99
434.805	0.74	740.0	2back	Block1	2back/STIM_037.jpg	99
437.9	1.119	1118.7	2back	Block1	2back/STIM_038.jpg	100
442.113	0.692	691.8	2back	Block1	2back/STIM_038.jpg	99
445.086	1.022	1022.2	2back	Block1	2back/STIM_038.jpg	100
448.303	0.639	639.4	2back	Block1	2back/STIM_039.jpg	100
452.775	1.182	1182.3	2back	Block1	2back/STIM_039.jpg	100
456.998	1.061	1060.8	2back	Block1	2back/STIM_039.jpg	99
460.165	0.596	596.1	0back	Block1	0back/STIM_000.jpg	100
464.503	0.455	454.7	0back	Block1	0back/STIM_000.jpg	100
467.72	0.627	627.1	0back	Block1	0back/STIM_000.jpg	99
470.925	0.452	452.2	0back	Block1	0back/STIM_001.jpg	100
475.357	0.534	533.5	0back	Block1	0back/STIM_001.jpg	99
478.924	0.446	446.2	0back	Block1	0back/STIM_001.jpg	100
482.054	0.672	672.5	0back	Block1	0back/STIM_002.jpg	99
486.031	0.52	520.4	0back	Block1	0back/STIM_002.jpg	100
488.956	0.513	512.7	0back	Block1	0back/STIM_002.jpg	100
492.834	0.57	569.9	0back	Block1	0back/STIM_003.jpg	100
496.508	0.666	665.8	0back	Block1	0back/STIM_003.jpg	99
499.659	0.392	392.4	0back	Block1	0back/STIM_003.jpg	100
502.499	0.403	403.2	0back	Block1	0back/STIM_004.jpg	100
505.421	0.414	413.8	0back	Block1	0back/STIM_004.jpg	100
509.722	0.717	716.8	0back	Block1	0back/STIM_004.jpg	99
512.74	0.467	467.3	0back	Block1	0back/STIM_005.jpg	100
516.282	0.647	646.8	0back	Block1	0back/STIM_005.jpg	99
519.549	0.625	624.7	0back	Block1	0back/STIM_005.jpg	99
523.081	0.416	415.9	0back	Block1	0back/STIM_006.jpg	100
525.713	0.546	546.4	0back	Block1	0back/STIM_006.jpg	99
528.699	0.663	663.4	0back	Block1	0back/STIM_006.jpg	99
531.899	0.484	484.0	0back	Block1	0back/STIM_007.jpg	100
534.854	0.4	399.6	0back	Block1	0back/STIM_007.jpg	100
538.915	0.575	574.7	0back	Block1	0back/STIM_007.jpg	100
542.765	0.663	663.4	0back	Block1	0back/STIM_008.jpg	100
546.314	0.527	527.1	0back	Block1	0back/STIM_008.jpg	100
548.88	0.642	641.9	0back	Block1	0back/STIM_008.jpg	100
551.991	0.608	607.8	0back	Block1	0back/STIM_009.jpg	100
555.923	0.469	468.7	0back	Block1	0back/STIM_009.jpg	99
559.142	0.406	406.0	0back	Block1	0back/STIM_009.jpg	100
562.86	0.696	696.3	0back	Block1	0back/STIM_010.jpg	99
566.908	0.487	487.2	0back	Block1	0back/STIM_010.jpg	100
569.746	0.435	435.0	0back	Block1	0back/STIM_010.jpg	99
572.344	0.458	458.1	0back	Block1	0back/STIM_011.jpg	99
574.978	0.484	484.3	0back	Block1	0back/STIM_011.jpg	99
579.232	0.436	435.6	0back	Block1	0back/STIM_011.jpg	100
581.743	0.73	730.0	0back	Block1	0back/STIM_012.jpg	100
584.642	0.512	511.9	0back	Block1	0back/STIM_012.jpg	99
588.798	0.582	582.0	0back	Block1	0back/STIM_012.jpg	99
592.814	0.685	684.9	0back	Block1	0back/STIM_013.jpg	99
597.093	0.731	731.4	0back	Block1	0back/STIM_013.jpg	99
601.164	0.492	491.6	0back	Block1	0back/STIM_013.jpg	100
605.507	0.701	700.6	0back	Block1	0back/STIM_014.jpg	100
609.061	0.548	548.0	0back	Block1	0back/STIM_014.jpg	100
612.938	0.384	384.1	0back	Block1	0back/STIM_014.jpg	100
616.128	0.587	587.3	0back	Block1	0back/STIM_015.jpg	99
620.494	0.675	675.2	0back	Block1	0back/STIM_015.jpg	100
625.074	0.636	636.2	0back	Block1	0back/STIM_015.jpg	100
629.191	0.685	684.8	0back	Block1	0back/STIM_016.jpg	99
632.159	0.583	583.3	0back	Block1	0back/STIM_016.jpg	100
635.147	0.668	668.2	0back	Block1	0back/STIM_016.jpg	99
639.762	0.638	638.2	0back	Block1	0back/STIM_017.jpg	100
642.948	0.684	684.1	0back	Block1	0back/STIM_017.jpg	99
646.898	0.394	394.1	0back	Block1	0back/STIM_017.jpg	99
651.183	0.557	556.8	0back	Block1	0back/STIM_018.jpg	99
654.736	0.465	465.3	0back	Block1	0back/STIM_018.jpg	100
657.804	0.734	734.0	0back	Block1	0back/STIM_018.jpg	99
661.358	0.472	471.8	0back	Block1	0back/STIM_019.jpg	99
663.988	0.596	596.1	0back	Block1	0back/STIM_019.jpg	100
668.467	0.55	549.5	0back	Block1	0back/STIM_019.jpg	100
672.044	0.656	655.7	2back	Block2	2back/STIM_000.jpg	99
675.013	0.902	902.1	2back	Block2	2back/STIM_000.jpg	99
679.76	0.701	701.2	2back	Block2	2back/STIM_000.jpg	99
683.267	0.655	655.4	2back	Block2	2back/STIM_001.jpg	99
686.437	0.974	973.5	2back	Block2	2back/STIM_001.jpg	100
690.952	0.76	760.5	2back	Block2	2back/STIM_001.jpg	100
693.969	0.817	817.1	2back	Block2	2back/STIM_002.jpg	100
698.333	0.991	991.1	2back	Block2	2back/STIM_002.jpg	99
701.515	0.77	770.4	2back	Block2	2back/STIM_002.jpg	100
706.215	0.602	601.7	2back	Block2	2back/STIM_003.jpg	99
709.71	0.476	476.4	2back	Block2	2back/STIM_003.jpg	100
713.619	0.492	491.5	2back	Block2	2back/STIM_003.jpg	99
717.053	0.474	474.4	2back	Block2	2back/STIM_004.jpg	100
721.352	0.485	484.6	2back	Block2	2back/STIM_004.jpg	100
725.773	0.623	622.8	2back	Block2	2back/STIM_004.jpg	99
729.063	0.939	938.8	2back	Block2	2back/STIM_005.jpg	99
733.506	0.791	790.6	2back	Block2	2back/STIM_005.jpg	100
737.646	0.572	572.1	2back	Block2	2back/STIM_005.jpg	99
741.741	0.548	548.2	2back	Block2	2back/STIM_006.jpg	99
746.154	0.838	838.3	2back	Block2	2back/STIM_006.jpg	100
750.714	0.608	607.8	2back	Block2	2back/STIM_006.jpg	100
754.871	0.522	522.4	2back	Block2	2back/STIM_007.jpg	99
758.676	0.868	868.5	2back	Block2	2back/STIM_007.jpg	99
762.413	0.948	948.2	2back	Block2	2back/STIM_007.jpg	100
766.234	0.921	920.8	2back	Block2	2back/STIM_008.jpg	99
769.778	0.59	590.0	2back	Block2	2back/STIM_008.jpg	99
772.531	0.622	621.8	2back	Block2	2back/STIM_008.jpg	100
776.768	0.882	882.3	2back	Block2	2back/STIM_009.jpg	100
780.298	0.612	612.2	2back	Block2	2back/STIM_009.jpg	100
783.207	0.734	733.6	2back	Block2	2back/STIM_009.jpg	99
787.016	0.704	704.0	2back	Block2	2back/STIM_010.jpg	99
790.312	0.537	536.7	2back	Block2	2back/STIM_010.jpg	99
792.862	0.577	577.4	2back	Block2	2back/STIM_010.jpg	100
796.968	0.905	905.3	2back	Block2	2back/STIM_011.jpg	99
800.908	0.546	545.5	2back	Block2	2back/STIM_011.jpg	100
803.568	0.484	484.1	2back	Block2	2back/STIM_011.jpg	100
806.343	0.64	640.0	2back	Block2	2back/STIM_012.jpg	99
809.209	0.855	854.8	2back	Block2	2back/STIM_012.jpg	100
813.993	0.644	644.3	2back	Block2	2back/STIM_012.jpg	100
817.112	0.93	929.8	2back	Block2	2back/STIM_013.jpg	100
821.091	0.601	601.4	2back	Block2	2back/STIM_013.jpg	99
824.254	0.425	424.6	2back	Block2	2back/STIM_013.jpg	99
827.894	0.602	601.6	2back	Block2	2back/STIM_014.jpg	99
831.837	0.768	767.8	2back	Block2	2back/STIM_014.jpg	100
836.288	0.626	625.6	2back	Block2	2back/STIM_014.jpg	99
840.548	0.664	663.5	2back	Block2	2back/STIM_015.jpg	99
843.388	0.673	672.6	2back	Block2	2back/STIM_015.jpg	100
847.895	0.705	704.6	2back	Block2	2back/STIM_015.jpg	100
852.183	0.905	905.1	2back	Block2	2back/STIM_016.jpg	99
856.73	0.484	483.5	2back	Block2	2back/STIM_016.jpg	100
860.261	0.825	825.4	2back	Block2	2back/STIM_016.jpg	99
863.929	1.01	1009.6	2back	Block2	2back/STIM_017.jpg	100
866.996	0.743	742.7	2back	Block2	2back/STIM_017.jpg	100
870.071	0.673	672.7	2back	Block2	2back/STIM_017.jpg	99
873.051	0.729	729.2	2back	Block2	2back/STIM_018.jpg	99
876.069	0.856	856.1	2back	Block2	2back/STIM_018.jpg	100
880.442	0.927	927.4	2back	Block2	2back/STIM_018.jpg	99
883.488	0.484	484.5	2back	Block2	2back/STIM_019.jpg	99
886.142	0.802	802.4	2back	Block2	2back/STIM_019.jpg	100
890.176	0.585	584.8	2back	Block2	2back/STIM_019.jpg	99
894.034	0.555	554.9	2back	Block2	2back/STIM_020.jpg	100
896.716	0.879	878.8	2back	Block2	2back/STIM_020.jpg	99
901.329	0.663	663.4	2back	Block2	2back/STIM_020.jpg	99
905.643	0.849	849.3	2back	Block2	2back/STIM_021.jpg	99
908.734	0.912	912.5	2back	Block2	2back/STIM_021.jpg	100
912.97	0.863	863.4	2back	Block2	2back/STIM_021.jpg	99
917.69	0.828	827.7	2back	Block2	2back/STIM_022.jpg	99
921.47	0.567	566.7	2back	Block2	2back/STIM_022.jpg	100
924.734	0.739	738.8	2back	Block2	2back/STIM_022.jpg	100
927.578	0.57	569.7	2back	Block2	2back/STIM_023.jpg	99
930.364	0.506	505.7	2back	Block2	2back/STIM_023.jpg	100
934.317	0.59	590.5	2back	Block2	2back/STIM_023.jpg	100
938.151	0.494	494.5	2back	Block2	2back/STIM_024.jpg	99
941.016	0.638	638.3	2back	Block2	2back/STIM_024.jpg	100
944.675	0.833	832.8	2back	Block2	2back/STIM_024.jpg	100
949.498	0.817	816.9	2back	Block2	2back/STIM_025.jpg	100
953.178	0.582	582.0	2back	Block2	2back/STIM_025.jpg	99
957.285	0.555	555.1	2back	Block2	2back/STIM_025.jpg	100
960.859	0.805	805.0	2back	Block2	2back/STIM_026.jpg	99
964.538	0.923	923.1	2back	Block2	2back/STIM_026.jpg	99
969.13	0.839	839.3	2back	Block2	2back/STIM_026.jpg	100
973.426	0.948	948.5	2back	Block2	2back/STIM_027.jpg	100
976.622	0.868	867.8	2back	Block2	2back/STIM_027.jpg	100
981.022	0.941	940.9	2back	Block2	2back/STIM_027.jpg	100
984.737	0.545	545.2	2back	Block2	2back/STIM_028.jpg	100
987.909	1.022	1022.5	2back	Block2	2back/STIM_028.jpg	100
991.413	0.731	731.1	2back	Block2	2back/STIM_028.jpg	100
994.962	0.89	890.0	2back	Block2	2back/STIM_029.jpg	100
998.688	0.881	881.3	2back	Block2	2back/STIM_029.jpg	99
1003.191	0.811	811.4	2back	Block2	2back/STIM_029.jpg	99
1006.867	0.562	562.1	2back	Block2	2back/STIM_030.jpg	100
1010.247	0.494	493.8	2back	Block2	2back/STIM_030.jpg	99
1014.739	0.928	927.9	2back	Block2	2back/STIM_030.jpg	100
1018.441	0.498	498.3	2back	Block2	2back/STIM_031.jpg	99
1022.926	0.606	605.5	2back	Block2	2back/STIM_031.jpg	99
1027.312	0.658	657.5	2back	Block2	2back/STIM_031.jpg	99
1031.367	0.528	528.4	2back	Block2	2back/STIM_032.jpg	99
1033.921	0.659	659.4	2back	Block2	2back/STIM_032.jpg	99
1036.641	0.883	883.0	2back	Block2	2back/STIM_032.jpg	99
1039.841	0.521	521.0	2back	Block2	2back/STIM_033.jpg	99
1043.468	0.902	902.3	2back	Block2	2back/STIM_033.jpg	99
1047.112	0.426	425.5	2back	Block2	2back/STIM_033.jpg	100
1051.16	0.71	709.7	2back	Block2	2back/STIM_034.jpg	99
1055.426	0.94	940.4	2back	Block2	2back/STIM_034.jpg	99
1060.243	0.53	529.9	2back	Block2	2back/STIM_034.jpg	100
1064.709	0.694	694.2	2back	Block2	2back/STIM_035.jpg	100
1067.45	0.628	627.8	2back	Block2	2back/STIM_035.jpg	100
1071.422	0.622	622.2	2back	Block2	2back/STIM_035.jpg	99
1075.102	0.946	946.1	2back	Block2	2back/STIM_036.jpg	99
1078.52	0.592	591.5	2back	Block2	2back/STIM_036.jpg	99
1081.211	0.744	743.9	2back	Block2	2back/STIM_036.jpg	99
1084.14	0.545	544.9	2back	Block2	2back/STIM_037.jpg	100
1087.582	0.648	647.6	2back	Block2	2back/STIM_037.jpg	99
1091.783	0.884	884.5	2back	Block2	2back/STIM_037.jpg	100
1095.99	0.683	683.2	2back	Block2	2back/STIM_038.jpg	99
1098.933	0.806	806.4	2back	Block2	2back/STIM_038.jpg	100
1102.919	0.512	512.2	2back	Block2	2back/STIM_038.jpg	100
1106.479	0.97	969.8	2back	Block2	2back/STIM_039.jpg	100
1110.196	0.883	882.7	2back	Block2	2back/STIM_039.jpg	99
1113.899	0.677	676.7	2back	Block2	2back/STIM_039.jpg	100
1118.01	0.383	383.2	0back	Block2	0back/STIM_000.jpg	99
1121.99	0.373	373.1	0back	Block2	0back/STIM_000.jpg	100
1126.261	0.523	522.7	0back	Block2	0back/STIM_000.jpg	100
1129.566	0.578	578.2	0back	Block2	0back/STIM_001.jpg	100
1133.446	0.7	699.9	0back	Block2	0back/STIM_001.jpg	100
1137.332	0.704	703.8	0back	Block2	0back/STIM_001.jpg	99
1142.005	0.589	589.4	0back	Block2	0back/STIM_002.jpg	99
1145.506	0.564	564.5	0back	Block2	0back/STIM_002.jpg	99
1149.219	0.5	500.2	0back	Block2	0back/STIM_002.jpg	99
1153.435	0.703	703.3	0back	Block2	0back/STIM_003.jpg	99
1156.885	0.607	606.9	0back	Block2	0back/STIM_003.jpg	100
1161.267	0.68	679.9	0back	Block2	0back/STIM_003.jpg	99
1165.142	0.62	620.2	0back	Block2	0back/STIM_004.jpg	99
1169.003	0.393	393.1	0back	Block2	0back/STIM_004.jpg	99
1172.052	0.441	440.9	0back	Block2	0back/STIM_004.jpg	99
1176.23	0.51	509.9	0back	Block2	0back/STIM_005.jpg	99
1179.238	0.731	731.3	0back	Block2	0back/STIM_005.jpg	100
1183.597	0.707	707.3	0back	Block2	0back/STIM_005.jpg	99
1186.899	0.583	582.6	0back	Block2	0back/STIM_006.jpg	99
1191.471	0.71	709.8	0back	Block2	0back/STIM_006.jpg	100
1194.955	0.57	570.5	0back	Block2	0back/STIM_006.jpg	100
1198.962	0.692	692.1	0back	Block2	0back/STIM_007.jpg	99
1201.829	0.622	621.7	0back	Block2	0back/STIM_007.jpg	99
1205.824	0.589	589.0	0back	Block2	0back/STIM_007.jpg	99
1208.921	0.525	525.0	0back	Block2	0back/STIM_008.jpg	99
1213.365	0.505	505.0	0back	Block2	0back/STIM_008.jpg	100
1216.346	0.386	386.1	0back	Block2	0back/STIM_008.jpg	100
1220.721	0.678	677.7	0back	Block2	0back/STIM_009.jpg	99
1223.493	0.578	578.2	0back	Block2	0back/STIM_009.jpg	100
1226.266	0.576	575.8	0back	Block2	0back/STIM_009.jpg	99
1229.627	0.423	422.8	0back	Block2	0back/STIM_010.jpg	100
1232.449	0.582	581.9	0back	Block2	0back/STIM_010.jpg	99
1235.91	0.584	584.0	0back	Block2	0back/STIM_010.jpg	99
1238.793	0.705	705.3	0back	Block2	0back/STIM_011.jpg	100
1241.545	0.654	654.2	0back	Block2	0back/STIM_011.jpg	100
1245.356	0.577	576.7	0back	Block2	0back/STIM_011.jpg	99
1248.353	0.467	466.9	0back	Block2	0back/STIM_012.jpg	100
1251.992	0.661	660.7	0back	Block2	0back/STIM_012.jpg	100
1256.378	0.442	441.6	0back	Block2	0back/STIM_012.jpg	99
1260.664	0.625	624.7	0back	Block2	0back/STIM_013.jpg	99
1264.282	0.37	370.5	0back	Block2	0back/STIM_013.jpg	100
1267.658	0.61	610.1	0back	Block2	0back/STIM_013.jpg	99
1271.605	0.504	503.7	0back	Block2	0back/STIM_014.jpg	100
1275.819	0.679	679.0	0back	Block2	0back/STIM_014.jpg	100
1279.239	0.372	372.0	0back	Block2	0back/STIM_014.jpg	100
1282.637	0.395	394.9	0back	Block2	0back/STIM_015.jpg	100
1286.874	0.707	707.2	0back	Block2	0back/STIM_015.jpg	99
1291.267	0.55	549.9	0back	Block2	0back/STIM_015.jpg	99
1294.196	0.631	631.2	0back	Block2	0back/STIM_016.jpg	100
1297.925	0.602	602.4	0back	Block2	0back/STIM_016.jpg	99
1302.342	0.588	588.3	0back	Block2	0back/STIM_016.jpg	100
1305.259	0.42	420.1	0back	Block2	0back/STIM_017.jpg	100
1308.605	0.526	526.4	0back	Block2	0back/STIM_017.jpg	99
1311.958	0.492	492.1	0back	Block2	0back/STIM_017.jpg	99
1314.77	0.622	622.5	0back	Block2	0back/STIM_018.jpg	100
1319.181	0.59	590.3	0back	Block2	0back/STIM_018.jpg	99
1322.848	0.58	580.1	0back	Block2	0back/STIM_018.jpg	99
1327.276	0.529	528.9	0back	Block2	0back/STIM_019.jpg	100
1329.895	0.692	692.5	0back	Block2	0back/STIM_019.jpg	100
1334.247	0.413	412.9	0back	Block2	0back/STIM_019.jpg	99
1338.396	0.472	471.7	2back	Block3	2back/STIM_000.jpg	99
1341.797	0.401	401.4	2back	Block3	2back/STIM_000.jpg	100
1344.535	0.776	776.2	2back	Block3	2back/STIM_000.jpg	100
1349.065	0.433	432.6	2back	Block3	2back/STIM_001.jpg	99
1352.369	0.62	620.0	2back	Block3	2back/STIM_001.jpg	99
1355.079	0.417	416.9	2back	Block3	2back/STIM_001.jpg	99
1357.879	0.595	594.8	2back	Block3	2back/STIM_002.jpg	99
1361.901	0.694	694.2	2back	Block3	2back/STIM_002.jpg	99
1365.247	0.414	414.1	2back	Block3	2back/STIM_002.jpg	99
1368.283	0.794	793.6	2back	Block3	2back/STIM_003.jpg	100
1372.264	0.654	653.6	2back	Block3	2back/STIM_003.jpg	99
1375.614	0.668	668.3	2back	Block3	2back/STIM_003.jpg	99
1378.952	0.751	751.3	2back	Block3	2back/STIM_004.jpg	100
1382.845	0.803	802.6	2back	Block3	2back/STIM_004.jpg	99
1386.18	0.633	632.6	2back	Block3	2back/STIM_004.jpg	99
1390.474	0.895	894.7	2back	Block3	2back/STIM_005.jpg	99
1394.913	0.491	491.2	2back	Block3	2back/STIM_005.jpg	100
1398.842	0.54	539.9	2back	Block3	2back/STIM_005.jpg	100
1402.106	0.563	562.8	2back	Block3	2back/STIM_006.jpg	100
1405.909	0.625	624.8	2back	Block3	2back/STIM_006.jpg	100
1409.558	0.404	404.3	2back	Block3	2back/STIM_006.jpg	100
1413.555	0.566	565.8	2back	Block3	2back/STIM_007.jpg	100
1416.395	0.657	656.8	2back	Block3	2back/STIM_007.jpg	99
1419.263	0.717	717.1	2back	Block3	2back/STIM_007.jpg	99
1423.181	0.898	898.2	2back	Block3	2back/STIM_008.jpg	100
1427.323	0.656	656.4	2back	Block3	2back/STIM_008.jpg	99
1430.264	0.805	805.0	2back	Block3	2back/STIM_008.jpg	100
1433.749	0.424	423.7	2back	Block3	2back/STIM_009.jpg	100
1436.336	0.87	869.7	2back	Block3	2back/STIM_009.jpg	100
1441.152	0.397	397.4	2back	Block3	2back/STIM_009.jpg	99
1445.346	0.691	690.8	2back	Block3	2back/STIM_010.jpg	99
1449.522	0.606	605.9	2back	Block3	2back/STIM_010.jpg	99
1452.477	0.403	403.4	2back	Block3	2back/STIM_010.jpg	100
1456.136	0.558	557.7	2back	Block3	2back/STIM_011.jpg	100
1458.986	0.488	487.6	2back	Block3	2back/STIM_011.jpg	100
1461.833	0.604	603.6	2back	Block3	2back/STIM_011.jpg	100
1465.816	0.486	486.4	2back	Block3	2back/STIM_012.jpg	100
1468.694	0.702	702.3	2back	Block3	2back/STIM_012.jpg	100
1472.293	0.586	585.5	2back	Block3	2back/STIM_012.jpg	99
1475.928	0.546	546.3	2back	Block3	2back/STIM_013.jpg	99
1479.049	0.716	716.0	2back	Block3	2back/STIM_013.jpg	99
1482.806	0.388	388.3	2back	Block3	2back/STIM_013.jpg	99
1485.222	0.71	710.0	2back	Block3	2back/STIM_014.jpg	100
1488.775	0.469	468.6	2back	Block3	2back/STIM_014.jpg	100
1493.065	0.582	582.3	2back	Block3	2back/STIM_014.jpg	100
1497.068	0.54	539.5	2back	Block3	2back/STIM_015.jpg	100
1499.841	0.588	587.8	2back	Block3	2back/STIM_015.jpg	99
1502.48	0.884	883.9	2back	Block3	2back/STIM_015.jpg	100
1507.339	0.534	533.5	2back	Block3	2back/STIM_016.jpg	100
1511.743	0.57	569.8	2back	Block3	2back/STIM_016.jpg	99
1515.606	0.742	741.6	2back	Block3	2back/STIM_016.jpg	99
1518.609	0.742	742.1	2back	Block3	2back/STIM_017.jpg	99
1521.791	0.694	693.9	2back	Block3	2back/STIM_017.jpg	99
1525.913	0.595	594.6	2back	Block3	2back/STIM_017.jpg	100
1529.555	0.488	488.4	2back	Block3	2back/STIM_018.jpg	99
1532.504	0.864	863.5	2back	Block3	2back/STIM_018.jpg	100
1535.803	0.876	875.9	2back	Block3	2back/STIM_018.jpg	100
1538.703	0.816	816.2	2back	Block3	2back/STIM_019.jpg	99
1541.603	0.667	666.9	2back	Block3	2back/STIM_019.jpg	100
1544.773	0.47	469.5	2back	Block3	2back/STIM_019.jpg	99
1547.258	0.872	872.3	2back	Block3	2back/STIM_020.jpg	100
1550.199	0.838	838.2	2back	Block3	2back/STIM_020.jpg	99
1553.194	0.418	417.5	2back	Block3	2back/STIM_020.jpg	99
1556.26	0.56	559.8	2back	Block3	2back/STIM_021.jpg	99
1560.545	0.588	587.6	2back	Block3	2back/STIM_021.jpg	99
1564.874	0.448	447.8	2back	Block3	2back/STIM_021.jpg	100
1568.821	0.635	635.3	2back	Block3	2back/STIM_022.jpg	100
1571.65	0.629	629.3	2back	Block3	2back/STIM_022.jpg	100
1574.476	0.475	474.9	2back	Block3	2back/STIM_022.jpg	100
1578.271	0.804	803.6	2back	Block3	2back/STIM_023.jpg	100
1582.138	0.796	795.7	2back	Block3	2back/STIM_023.jpg	99
1586.082	0.401	401.0	2back	Block3	2back/STIM_023.jpg	99
1589.057	0.429	429.2	2back	Block3	2back/STIM_024.jpg	99
1591.66	0.411	411.2	2back	Block3	2back/STIM_024.jpg	100
1595.618	0.544	543.9	2back	Block3	2back/STIM_024.jpg	99
1599.715	0.536	535.9	2back	Block3	2back/STIM_025.jpg	100
1602.584	0.504	504.1	2back	Block3	2back/STIM_025.jpg	99
1605.548	0.58	580.0	2back	Block3	2back/STIM_025.jpg	100
1610.098	0.805	804.7	2back	Block3	2back/STIM_026.jpg	99
1613.85	0.587	587.4	2back	Block3	2back/STIM_026.jpg	99
1616.836	0.856	855.8	2back	Block3	2back/STIM_026.jpg	100
1619.867	0.595	595.1	2back	Block3	2back/STIM_027.jpg	99
1624.459	0.605	605.1	2back	Block3	2back/STIM_027.jpg	99
1629.055	0.546	546.1	2back	Block3	2back/STIM_027.jpg	99
1632.487	0.6	599.6	2back	Block3	2back/STIM_028.jpg	99
1636.12	0.818	817.8	2back	Block3	2back/STIM_028.jpg	99
1640.059	0.667	667.2	2back	Block3	2back/STIM_028.jpg	99
1643.287	0.48	479.9	2back	Block3	2back/STIM_029.jpg	100
1646.962	0.526	525.6	2back	Block3	2back/STIM_029.jpg	99
1650.116	0.579	578.7	2back	Block3	2back/STIM_029.jpg	100
1654.255	0.657	657.0	2back	Block3	2back/STIM_030.jpg	100
1657.383	0.811	810.9	2back	Block3	2back/STIM_030.jpg	99
1660.286	0.452	452.4	2back	Block3	2back/STIM_030.jpg	100
1664.517	0.644	643.7	2back	Block3	2back/STIM_031.jpg	99
1668.514	0.831	831.3	2back	Block3	2back/STIM_031.jpg	100
1672.439	0.553	553.0	2back	Block3	2back/STIM_031.jpg	99
1675.52	0.731	730.7	2back	Block3	2back/STIM_032.jpg	99
1679.153	0.598	597.9	2back	Block3	2back/STIM_032.jpg	100
1682.075	0.807	807.0	2back	Block3	2back/STIM_032.jpg	99
1686.566	0.849	848.9	2back	Block3	2back/STIM_033.jpg	99
1691.006	0.404	403.9	2back	Block3	2back/STIM_033.jpg	100
1695.117	0.458	458.2	2back	Block3	2back/STIM_033.jpg	100
1697.829	0.501	501.3	2back	Block3	2back/STIM_034.jpg	100
1700.37	0.616	615.7	2back	Block3	2back/STIM_034.jpg	100
1704.914	0.604	604.2	2back	Block3	2back/STIM_034.jpg	100
1708.625	0.45	450.4	2back	Block3	2back/STIM_035.jpg	99
1711.693	0.494	494.3	2back	Block3	2back/STIM_035.jpg	100
1714.51	0.857	857.0	2back	Block3	2back/STIM_035.jpg	99
1718.272	0.406	406.4	2back	Block3	2back/STIM_036.jpg	100
1721.902	0.786	785.8	2back	Block3	2back/STIM_036.jpg	99
1726.52	0.411	410.6	2back	Block3	2back/STIM_036.jpg	99
1730.028	0.676	675.7	2back	Block3	2back/STIM_037.jpg	100
1734.03	0.722	721.8	2back	Block3	2back/STIM_037.jpg	100
1738.498	0.792	791.8	2back	Block3	2back/STIM_037.jpg	100
1742.232	0.663	662.6	2back	Block3	2back/STIM_038.jpg	99
1746.243	0.412	412.2	2back	Block3	2back/STIM_038.jpg	100
1750.578	0.658	657.7	2back	Block3	2back/STIM_038.jpg	100
1754.369	0.766	766.2	2back	Block3	2back/STIM_039.jpg	100
1758.979	0.436	436.5	2back	Block3	2back/STIM_039.jpg	99
1762.293	0.7	699.8	2back	Block3	2back/STIM_039.jpg	99
1766.396	0.67	670.3	0back	Block3	0back/STIM_000.jpg	99
1769.62	0.554	554.4	0back	Block3	0back/STIM_000.jpg	99
1773.59	0.704	704.0	0back	Block3	0back/STIM_000.jpg	99
1777.705	0.492	491.6	0back	Block3	0back/STIM_001.jpg	100
1781.149	0.503	502.9	0back	Block3	0back/STIM_001.jpg	100
1783.758	0.445	445.3	0back	Block3	0back/STIM_001.jpg	99
1786.963	0.648	647.5	0back	Block3	0back/STIM_002.jpg	100
1790.699	0.453	453.4	0back	Block3	0back/STIM_002.jpg	100
1793.73	0.735	735.1	0back	Block3	0back/STIM_002.jpg	100
1797.97	0.594	593.5	0back	Block3	0back/STIM_003.jpg	100
1800.7	0.507	506.7	0back	Block3	0back/STIM_003.jpg	100
1804.59	0.688	688.4	0back	Block3	0back/STIM_003.jpg	100
1809.105	0.596	596.5	0back	Block3	0back/STIM_004.jpg	99
1812.292	0.463	463.1	0back	Block3	0back/STIM_004.jpg	100
1815.131	0.458	458.2	0back	Block3	0back/STIM_004.jpg	99
1817.645	0.517	516.8	0back	Block3	0back/STIM_005.jpg	100
1821.523	0.711	711.4	0back	Block3	0back/STIM_005.jpg	99
1826.085	0.526	526.3	0back	Block3	0back/STIM_005.jpg	100
1828.869	0.532	532.1	0back	Block3	0back/STIM_006.jpg	100
1832.356	0.481	480.7	0back	Block3	0back/STIM_006.jpg	99
1836.069	0.397	397.1	0back	Block3	0back/STIM_006.jpg	99
1838.813	0.512	512.0	0back	Block3	0back/STIM_007.jpg	99
1842.385	0.566	566.5	0back	Block3	0back/STIM_007.jpg	99
1846.446	0.571	571.1	0back	Block3	0back/STIM_007.jpg	99
1849.111	0.393	393.4	0back	Block3	0back/STIM_008.jpg	100
1852.18	0.526	525.6	0back	Block3	0back/STIM_008.jpg	100
1855.098	0.684	684.0	0back	Block3	0back/STIM_008.jpg	100
1858.181	0.409	409.0	0back	Block3	0back/STIM_009.jpg	99
1861.65	0.514	513.8	0back	Block3	0back/STIM_009.jpg	100
1865.738	0.632	632.0	0back	Block3	0back/STIM_009.jpg	100
1870.286	0.589	589.3	0back	Block3	0back/STIM_010.jpg	99
1874.382	0.665	665.4	0back	Block3	0back/STIM_010.jpg	99
1877.209	0.426	425.6	0back	Block3	0back/STIM_010.jpg	100
1880.061	0.416	416.5	0back	Block3	0back/STIM_011.jpg	99
1884.212	0.401	400.7	0back	Block3	0back/STIM_011.jpg	99
1887.909	0.499	498.8	0back	Block3	0back/STIM_011.jpg	100
1890.466	0.48	479.5	0back	Block3	0back/STIM_012.jpg	99
1894.198	0.445	444.7	0back	Block3	0back/STIM_012.jpg	99
1897.225	0.398	398.2	0back	Block3	0back/STIM_012.jpg	99
1901.422	0.537	536.8	0back	Block3	0back/STIM_013.jpg	100
1905.114	0.371	370.8	0back	Block3	0back/STIM_013.jpg	100
1909.091	0.721	720.9	0back	Block3	0back/STIM_013.jpg	99
1911.938	0.485	485.4	0back	Block3	0back/STIM_014.jpg	100
1916.16	0.535	535.3	0back	Block3	0back/STIM_014.jpg	99
1919.26	0.507	507.1	0back	Block3	0back/STIM_014.jpg	99
1922.018	0.501	500.8	0back	Block3	0back/STIM_015.jpg	100
1924.954	0.634	633.8	0back	Block3	0back/STIM_015.jpg	99
1927.79	0.495	495.4	0back	Block3	0back/STIM_015.jpg	99
1930.792	0.48	480.1	0back	Block3	0back/STIM_016.jpg	99
1934.709	0.548	548.0	0back	Block3	0back/STIM_016.jpg	99
1937.573	0.374	373.7	0back	Block3	0back/STIM_016.jpg	99
1941.306	0.474	474.3	0back	Block3	0back/STIM_017.jpg	99
1944.377	0.506	506.3	0back	Block3	0back/STIM_017.jpg	100
1948.059	0.64	639.6	0back	Block3	0back/STIM_017.jpg	100
1952.354	0.667	667.0	0back	Block3	0back/STIM_018.jpg	99
1955.823	0.534	534.5	0back	Block3	0back/STIM_018.jpg	99
1959.04	0.579	578.9	0back	Block3	0back/STIM_018.jpg	100
1961.935	0.575	575.2	0back	Block3	0back/STIM_019.jpg	99
1965.129	0.639	638.9	0back	Block3	0back/STIM_019.jpg	99
1967.975	0.498	497.9	0back	Block3	0back/STIM_019.jpg	99
1970.631	0.557	556.9	2back	Block4	2back/STIM_000.jpg	100
1973.899	0.578	577.8	2back	Block4	2back/STIM_000.jpg	99
1977.004	0.42	419.9	2back	Block4	2back/STIM_000.jpg	100
1979.838	0.852	851.5	2back	Block4	2back/STIM_001.jpg	99
1984.365	0.672	671.9	2back	Block4	2back/STIM_001.jpg	100
1988.935	0.606	605.5	2back	Block4	2back/STIM_001.jpg	100
1992.835	0.612	612.5	2back	Block4	2back/STIM_002.jpg	99
1996.896	0.586	586.3	2back	Block4	2back/STIM_002.jpg	99
1999.904	0.484	484.2	2back	Block4	2back/STIM_002.jpg	99
2004.168	0.566	565.7	2back	Block4	2back/STIM_003.jpg	100
2007.832	0.78	779.7	2back	Block4	2back/STIM_003.jpg	100
2012.231	0.471	470.6	2back	Block4	2back/STIM_003.jpg	100
2015.724	0.488	488.5	2back	Block4	2back/STIM_004.jpg	99
2018.291	0.784	783.9	2back	Block4	2back/STIM_004.jpg	100
2021.843	0.658	658.1	2back	Block4	2back/STIM_004.jpg	99
2026.341	0.601	601.4	2back	Block4	2back/STIM_005.jpg	99
2029.29	0.66	660.0	2back	Block4	2back/STIM_005.jpg	99
2033.428	0.674	674.2	2back	Block4	2back/STIM_005.jpg	99
2036.288	0.882	881.9	2back	Block4	2back/STIM_006.jpg	100
2039.335	0.421	420.6	2back	Block4	2back/STIM_006.jpg	99
2041.772	0.842	842.4	2back	Block4	2back/STIM_006.jpg	99
2045.862	0.893	892.9	2back	Block4	2back/STIM_007.jpg	100
2049.922	0.4	399.7	2back	Block4	2back/STIM_007.jpg	100
2052.43	0.647	647.4	2back	Block4	2back/STIM_007.jpg	99
2056.227	0.69	689.7	2back	Block4	2back/STIM_008.jpg	100
2059.918	0.561	560.7	2back	Block4	2back/STIM_008.jpg	100
2063.734	0.779	778.8	2back	Block4	2back/STIM_008.jpg	99
2068.489	0.508	508.4	2back	Block4	2back/STIM_009.jpg	100
2071.461	0.731	731.4	2back	Block4	2back/STIM_009.jpg	100
2075.066	0.878	878.5	2back	Block4	2back/STIM_009.jpg	100
2078.652	0.416	415.6	2back	Block4	2back/STIM_010.jpg	99
2081.882	0.64	639.6	2back	Block4	2back/STIM_010.jpg	100
2086.237	0.461	461.1	2back	Block4	2back/STIM_010.jpg	99
2090.215	0.531	531.2	2back	Block4	2back/STIM_011.jpg	99
2093.441	0.893	893.0	2back	Block4	2back/STIM_011.jpg	99
2097.369	0.706	705.6	2back	Block4	2back/STIM_011.jpg	100
2100.641	0.803	802.6	2back	Block4	2back/STIM_012.jpg	99
2103.97	0.801	800.6	2back	Block4	2back/STIM_012.jpg	100
2107.66	0.397	396.6	2back	Block4	2back/STIM_012.jpg	99
2111.47	0.762	761.7	2back	Block4	2back/STIM_013.jpg	100
2115.479	0.793	793.1	2back	Block4	2back/STIM_013.jpg	99
2119.086	0.63	630.4	2back	Block4	2back/STIM_013.jpg	100
2122.916	0.696	696.3	2back	Block4	2back/STIM_014.jpg	99
2126.375	0.887	887.3	2back	Block4	2back/STIM_014.jpg	99
2131.021	0.516	515.9	2back	Block4	2back/STIM_014.jpg	99
2134.484	0.876	876.4	2back	Block4	2back/STIM_015.jpg	99
2137.956	0.389	389.4	2back	Block4	2back/STIM_015.jpg	99
2140.864	0.811	811.2	2back	Block4	2back/STIM_015.jpg	99
2143.75	0.776	776.4	2back	Block4	2back/STIM_016.jpg	99
2148.237	0.592	591.8	2back	Block4	2back/STIM_016.jpg	100
2152.554	0.834	833.7	2back	Block4	2back/STIM_016.jpg	99
2156.108	0.65	650.4	2back	Block4	2back/STIM_017.jpg	100
2160.584	0.833	833.3	2back	Block4	2back/STIM_017.jpg	100
2164.354	0.496	496.0	2back	Block4	2back/STIM_017.jpg	100
2167.062	0.59	589.6	2back	Block4	2back/STIM_018.jpg	100
2169.659	0.508	508.4	2back	Block4	2back/STIM_018.jpg	99
2173.912	0.814	813.8	2back	Block4	2back/STIM_018.jpg	100
2178.281	0.639	639.0	2back	Block4	2back/STIM_019.jpg	99
2181.238	0.401	401.1	2back	Block4	2back/STIM_019.jpg	100
2184.55	0.569	569.4	2back	Block4	2back/STIM_019.jpg	99
2188.628	0.854	854.5	2back	Block4	2back/STIM_020.jpg	100
2191.617	0.809	809.0	2back	Block4	2back/STIM_020.jpg	100
2196.285	0.518	518.1	2back	Block4	2back/STIM_020.jpg	100
2199.795	0.486	486.4	2back	Block4	2back/STIM_021.jpg	100
2202.487	0.617	617.2	2back	Block4	2back/STIM_021.jpg	100
2207.104	0.462	462.0	2back	Block4	2back/STIM_021.jpg	100
2210.627	0.775	775.3	2back	Block4	2back/STIM_022.jpg	100
2215.046	0.697	697.3	2back	Block4	2back/STIM_022.jpg	99
2218.78	0.585	585.4	2back	Block4	2back/STIM_022.jpg	99
2221.53	0.394	393.7	2back	Block4	2back/STIM_023.jpg	99
2224.565	0.853	853.1	2back	Block4	2back/STIM_023.jpg	100
2228.056	0.694	694.3	2back	Block4	2back/STIM_023.jpg	99
2231.604	0.841	840.8	2back	Block4	2back/STIM_024.jpg	99
2235.197	0.638	638.4	2back	Block4	2back/STIM_024.jpg	99
2239.699	0.845	844.8	2back	Block4	2back/STIM_024.jpg	100
2244.012	0.83	830.5	2back	Block4	2back/STIM_025.jpg	100
2247.277	0.427	426.6	2back	Block4	2back/STIM_025.jpg	100
2250.534	0.414	414.3	2back	Block4	2back/STIM_025.jpg	99
2253.2	0.593	592.8	2back	Block4	2back/STIM_026.jpg	99
2256.853	0.574	573.8	2back	Block4	2back/STIM_026.jpg	99
2260.354	0.89	890.4	2back	Block4	2back/STIM_026.jpg	100
2263.831	0.807	806.8	2back	Block4	2back/STIM_027.jpg	100
2268.342	0.618	618.4	2back	Block4	2back/STIM_027.jpg	99
2272.009	0.554	553.6	2back	Block4	2back/STIM_027.jpg	100
2274.741	0.898	898.0	2back	Block4	2back/STIM_028.jpg	99
2278.251	0.72	720.3	2back	Block4	2back/STIM_028.jpg	100
2282.334	0.623	623.4	2back	Block4	2back/STIM_028.jpg	100
2285.48	0.766	765.6	2back	Block4	2back/STIM_029.jpg	100
2288.479	0.464	463.8	2back	Block4	2back/STIM_029.jpg	99
2291.647	0.872	872.1	2back	Block4	2back/STIM_029.jpg	99
2296.176	0.825	825.1	2back	Block4	2back/STIM_030.jpg	99
2299.286	0.517	517.4	2back	Block4	2back/STIM_030.jpg	99
2303.284	0.632	631.6	2back	Block4	2back/STIM_030.jpg	99
2306.263	0.835	835.4	2back	Block4	2back/STIM_031.jpg	100
2310.457	0.582	581.5	2back	Block4	2back/STIM_031.jpg	100
2313.575	0.558	558.0	2back	Block4	2back/STIM_031.jpg	100
2318.019	0.854	853.9	2back	Block4	2back/STIM_032.jpg	100
2322.68	0.578	578.4	2back	Block4	2back/STIM_032.jpg	100
2326.843	0.463	462.8	2back	Block4	2back/STIM_032.jpg	99
2329.732	0.69	689.5	2back	Block4	2back/STIM_033.jpg	99
2334.138	0.698	698.2	2back	Block4	2back/STIM_033.jpg	100
2338.168	0.446	446.2	2back	Block4	2back/STIM_033.jpg	99
2341.901	0.887	887.0	2back	Block4	2back/STIM_034.jpg	99
2346.468	0.707	706.8	2back	Block4	2back/STIM_034.jpg	100
2350.649	0.591	591.1	2back	Block4	2back/STIM_034.jpg	100
2353.832	0.44	439.5	2back	Block4	2back/STIM_035.jpg	99
2357.676	0.655	655.4	2back	Block4	2back/STIM_035.jpg	99
2361.231	0.402	402.3	2back	Block4	2back/STIM_035.jpg	99
2364.282	0.758	757.6	2back	Block4	2back/STIM_036.jpg	100
2367.273	0.405	404.9	2back	Block4	2back/STIM_036.jpg	100
2370.801	0.827	826.8	2back	Block4	2back/STIM_036.jpg	100
2375.371	0.738	738.1	2back	Block4	2back/STIM_037.jpg	99
2378.444	0.518	518.1	2back	Block4	2back/STIM_037.jpg	100
2382.056	0.721	721.3	2back	Block4	2back/STIM_037.jpg	99
2386.767	0.436	435.8	2back	Block4	2back/STIM_038.jpg	100
2390.984	0.515	514.9	2back	Block4	2back/STIM_038.jpg	100
2393.746	0.884	883.5	2back	Block4	2back/STIM_038.jpg	100
2397.579	0.828	828.2	2back	Block4	2back/STIM_039.jpg	100
2402.096	0.559	558.6	2back	Block4	2back/STIM_039.jpg	100
2406.163	0.773	773.3	2back	Block4	2back/STIM_039.jpg	100
2409.477	0.604	604.4	0back	Block4	0back/STIM_000.jpg	100
2412.691	0.635	635.4	0back	Block4	0back/STIM_000.jpg	100
2417.149	0.721	720.9	0back	Block4	0back/STIM_000.jpg	100
2420.213	0.585	584.6	0back	Block4	0back/STIM_001.jpg	99
2423.343	0.627	627.0	0back	Block4	0back/STIM_001.jpg	99
2427.87	0.489	489.4	0back	Block4	0back/STIM_001.jpg	99
2432.129	0.554	554.1	0back	Block4	0back/STIM_002.jpg	99
2435.115	0.625	624.9	0back	Block4	0back/STIM_002.jpg	100
2439.435	0.416	415.7	0back	Block4	0back/STIM_002.jpg	99
2442.363	0.482	482.0	0back	Block4	0back/STIM_003.jpg	99
2446.618	0.492	492.1	0back	Block4	0back/STIM_003.jpg	100
2450.111	0.593	593.3	0back	Block4	0back/STIM_003.jpg	100
2453.945	0.632	632.1	0back	Block4	0back/STIM_004.jpg	99
2458.398	0.53	530.5	0back	Block4	0back/STIM_004.jpg	99
2461.183	0.627	627.4	0back	Block4	0back/STIM_004.jpg	100
2464.349	0.424	423.9	0back	Block4	0back/STIM_005.jpg	99
2468.011	0.448	448.2	0back	Block4	0back/STIM_005.jpg	99
2472.272	0.724	724.4	0back	Block4	0back/STIM_005.jpg	99
2476.624	0.706	705.9	0back	Block4	0back/STIM_006.jpg	100
2479.741	0.379	379.0	0back	Block4	0back/STIM_006.jpg	99
2484.049	0.719	718.8	0back	Block4	0back/STIM_006.jpg	99
2488.628	0.608	608.4	0back	Block4	0back/STIM_007.jpg	100
2491.319	0.562	562.3	0back	Block4	0back/STIM_007.jpg	100
2494.29	0.509	509.0	0back	Block4	0back/STIM_007.jpg	100
2497.8	0.619	618.6	0back	Block4	0back/STIM_008.jpg	100
2500.911	0.687	687.3	0back	Block4	0back/STIM_008.jpg	99
2505.346	0.654	654.5	0back	Block4	0back/STIM_008.jpg	99
2508.942	0.489	489.3	0back	Block4	0back/STIM_009.jpg	100
2513.4	0.664	664.0	0back	Block4	0back/STIM_009.jpg	100
2517.655	0.537	536.6	0back	Block4	0back/STIM_009.jpg	100
2520.495	0.411	411.0	0back	Block4	0back/STIM_010.jpg	100
2523.39	0.688	688.0	0back	Block4	0back/STIM_010.jpg	100
2526.64	0.585	584.7	0back	Block4	0back/STIM_010.jpg	100
2529.684	0.394	393.8	0back	Block4	0back/STIM_011.jpg	100
2533.084	0.609	609.4	0back	Block4	0back/STIM_011.jpg	100
2535.937	0.562	561.8	0back	Block4	0back/STIM_011.jpg	99
2540.311	0.49	490.0	0back	Block4	0back/STIM_012.jpg	99
2544.352	0.449	449.4	0back	Block4	0back/STIM_012.jpg	99
2547.563	0.434	434.5	0back	Block4	0back/STIM_012.jpg	100
2551.292	0.49	489.6	0back	Block4	0back/STIM_013.jpg	100
2555.27	0.399	399.4	0back	Block4	0back/STIM_013.jpg	100
2558.985	0.374	374.4	0back	Block4	0back/STIM_013.jpg	99
2563.14	0.569	569.2	0back	Block4	0back/STIM_014.jpg	99
2567.038	0.504	503.7	0back	Block4	0back/STIM_014.jpg	100
2571.116	0.396	396.3	0back	Block4	0back/STIM_014.jpg	99
2574.968	0.52	520.5	0back	Block4	0back/STIM_015.jpg	99
2577.729	0.439	439.0	0back	Block4	0back/STIM_015.jpg	99
2581.176	0.578	578.3	0back	Block4	0back/STIM_015.jpg	100
2585.484	0.441	440.6	0back	Block4	0back/STIM_016.jpg	100
2588.89	0.384	384.4	0back	Block4	0back/STIM_016.jpg	99
2593.187	0.644	643.5	0back	Block4	0back/STIM_016.jpg	99
2597.813	0.553	552.6	0back	Block4	0back/STIM_017.jpg	99
2602.298	0.64	640.4	0back	Block4	0back/STIM_017.jpg	100
2605.227	0.539	539.1	0back	Block4	0back/STIM_017.jpg	100
2608.04	0.542	542.2	0back	Block4	0back/STIM_018.jpg	100
2612.113	0.388	387.5	0back	Block4	0back/STIM_018.jpg	99
2615.962	0.655	655.1	0back	Block4	0back/STIM_018.jpg	100
2619.377	0.631	631.0	0back	Block4	0back/STIM_019.jpg	100
2623.189	0.726	725.5	0back	Block4	0back/STIM_019.jpg	99
2627.143	0.601	601.0	0back	Block4	0back/STIM_019.jpg	100
