onset	duration	response_time_ms	trial_type	learning_stage	stimulus	response_port
0.0	0.629	629.0	incongruent	Block1	incongruent/STIM_000.jpg	99
2.639	0.455	454.6	incongruent	Block1	incongruent/STIM_000.jpg	99
5.432	0.747	746.8	incongruent	Block1	incongruent/STIM_000.jpg	99
10.153	0.445	444.6	incongruent	Block1	incongruent/STIM_000.jpg	100
13.995	0.639	639.1	incongruent	Block1	incongruent/STIM_000.jpg	100
17.504	0.619	619.2	incongruent	Block1	incongruent/STIM_001.jpg	100
22.011	0.657	656.8	incongruent	Block1	incongruent/STIM_001.jpg	99
25.866	0.664	664.4	incongruent	Block1	incongruent/STIM_001.jpg	99
29.443	0.511	510.7	incongruent	Block1	incongruent/STIM_001.jpg	99
33.729	0.342	342.3	incongruent	Block1	incongruent/STIM_001.jpg	99
37.921	0.586	586.0	incongruent	Block1	incongruent/STIM_002.jpg	100
41.457	0.71	710.3	incongruent	Block1	incongruent/STIM_002.jpg	100
45.24	0.768	767.6	incongruent	Block1	incongruent/STIM_002.jpg	99
48.902	0.663	663.0	incongruent	Block1	incongruent/STIM_002.jpg	100
53.091	0.492	492.4	incongruent	Block1	incongruent/STIM_002.jpg	100
56.886	0.797	797.1	incongruent	Block1	incongruent/STIM_003.jpg	99
59.865	0.672	671.5	incongruent	Block1	incongruent/STIM_003.jpg	99
63.968	0.573	572.6	incongruent	Block1	incongruent/STIM_003.jpg	99
67.23	0.521	521.0	incongruent	Block1	incongruent/STIM_003.jpg	99
70.931	0.666	665.8	incongruent	Block1	incongruent/STIM_003.jpg	99
75.004	0.565	564.9	incongruent	Block1	incongruent/STIM_004.jpg	100
77.914	0.582	582.4	incongruent	Block1	incongruent/STIM_004.jpg	100
80.588	0.477	477.3	incongruent	Block1	incongruent/STIM_004.jpg	99
84.191	0.585	584.7	incongruent	Block1	incongruent/STIM_004.jpg	99
88.7	0.328	328.1	incongruent	Block1	incongruent/STIM_004.jpg	99
92.954	0.766	766.3	incongruent	Block1	incongruent/STIM_005.jpg	100
97.021	0.43	429.5	incongruent	Block1	incongruent/STIM_005.jpg	99
100.71	0.781	781.0	incongruent	Block1	incongruent/STIM_005.jpg	100
104.621	0.508	508.4	incongruent	Block1	incongruent/STIM_005.jpg	99
108.81	0.677	677.1	incongruent	Block1	incongruent/STIM_005.jpg	100
112.056	0.579	579.2	incongruent	Block1	incongruent/STIM_006.jpg	99
116.417	0.426	425.5	incongruent	Block1	incongruent/STIM_006.jpg	100
119.326	0.733	733.1	incongruent	Block1	incongruent/STIM_006.jpg	100
122.179	0.657	657.2	incongruent	Block1	incongruent/STIM_006.jpg	99
125.772	0.615	615.4	incongruent	Block1	incongruent/STIM_006.jpg	100
130.144	0.546	545.5	incongruent	Block1	incongruent/STIM_007.jpg	99
134.16	0.732	731.5	incongruent	Block1	incongruent/STIM_007.jpg	100
136.921	0.738	738.2	incongruent	Block1	incongruent/STIM_007.jpg	100
141.166	0.683	683.2	incongruent	Block1	incongruent/STIM_007.jpg	100
145.641	0.439	439.0	incongruent	Block1	incongruent/STIM_007.jpg	100
149.824	0.67	670.1	incongruent	Block1	incongruent/STIM_008.jpg	100
153.055	0.7	699.6	incongruent	Block1	incongruent/STIM_008.jpg	99
157.397	0.696	696.0	incongruent	Block1	incongruent/STIM_008.jpg	99
161.573	0.468	468.0	incongruent	Block1	incongruent/STIM_008.jpg	99
165.962	0.594	593.7	incongruent	Block1	incongruent/STIM_008.jpg	99
169.019	0.446	445.6	incongruent	Block1	incongruent/STIM_009.jpg	99
173.125	0.426	425.5	incongruent	Block1	incongruent/STIM_009.jpg	100
177.022	0.716	715.7	incongruent	Block1	incongruent/STIM_009.jpg	100
181.708	0.399	398.7	incongruent	Block1	incongruent/STIM_009.jpg	100
184.305	0.34	340.5	incongruent	Block1	incongruent/STIM_009.jpg	100
186.919	0.632	632.0	incongruent	Block1	incongruent/STIM_010.jpg	99
190.481	0.67	670.2	incongruent	Block1	incongruent/STIM_010.jpg	99
194.054	0.781	781.3	incongruent	Block1	incongruent/STIM_010.jpg	100
197.145	0.555	555.1	incongruent	Block1	incongruent/STIM_010.jpg	99
200.84	0.499	499.2	incongruent	Block1	incongruent/STIM_010.jpg	100
203.701	0.421	420.9	incongruent	Block1	incongruent/STIM_011.jpg	100
206.207	0.68	680.0	incongruent	Block1	incongruent/STIM_011.jpg	99
209.805	0.432	432.2	incongruent	Block1	incongruent/STIM_011.jpg	100
213.416	0.646	645.7	incongruent	Block1	incongruent/STIM_011.jpg	100
216.546	0.615	615.0	incongruent	Block1	incongruent/STIM_011.jpg	100
220.603	0.544	544.3	incongruent	Block1	incongruent/STIM_012.jpg	100
224.106	0.516	515.6	incongruent	Block1	incongruent/STIM_012.jpg	99
227.402	0.382	381.9	incongruent	Block1	incongruent/STIM_012.jpg	100
231.246	0.456	455.6	incongruent	Block1	incongruent/STIM_012.jpg	100
234.489	0.544	544.1	incongruent	Block1	incongruent/STIM_012.jpg	100
238.268	0.614	614.5	incongruent	Block1	incongruent/STIM_013.jpg	99
241.392	0.41	410.1	incongruent	Block1	incongruent/STIM_013.jpg	99
244.406	0.648	648.5	incongruent	Block1	incongruent/STIM_013.jpg	100
248.691	0.682	682.0	incongruent	Block1	incongruent/STIM_013.jpg	100
253.269	0.477	476.6	incongruent	Block1	incongruent/STIM_013.jpg	100
256.654	0.819	818.8	incongruent	Block1	incongruent/STIM_014.jpg	99
259.523	0.498	498.1	incongruent	Block1	incongruent/STIM_014.jpg	100
263.571	0.586	585.8	incongruent	Block1	incongruent/STIM_014.jpg	99
266.447	0.379	378.6	incongruent	Block1	incongruent/STIM_014.jpg	99
270.429	0.388	388.2	incongruent	Block1	incongruent/STIM_014.jpg	99
272.892	0.766	765.8	incongruent	Block1	incongruent/STIM_015.jpg	100
275.821	0.524	524.2	incongruent	Block1	incongruent/STIM_015.jpg	99
279.581	0.713	712.6	incongruent	Block1	incongruent/STIM_015.jpg	99
283.213	0.378	377.6	incongruent	Block1	incongruent/STIM_015.jpg	99
287.294	0.672	671.5	incongruent	Block1	incongruent/STIM_015.jpg	99
290.361	0.776	775.6	incongruent	Block1	incongruent/STIM_016.jpg	100
293.216	0.527	526.9	incongruent	Block1	incongruent/STIM_016.jpg	99
295.992	0.652	652.5	incongruent	Block1	incongruent/STIM_016.jpg	100
299.507	0.351	351.2	incongruent	Block1	incongruent/STIM_016.jpg	99
303.191	0.65	650.1	incongruent	Block1	incongruent/STIM_016.jpg	99
307.761	0.412	412.5	incongruent	Block1	incongruent/STIM_017.jpg	99
311.89	0.465	465.0	incongruent	Block1	incongruent/STIM_017.jpg	99
315.046	0.392	391.8	incongruent	Block1	incongruent/STIM_017.jpg	99
318.005	0.412	411.6	incongruent	Block1	incongruent/STIM_017.jpg	99
320.996	0.602	602.5	incongruent	Block1	incongruent/STIM_017.jpg	100
323.644	0.852	852.1	incongruent	Block1	incongruent/STIM_018.jpg	100
326.969	0.824	824.2	incongruent	Block1	incongruent/STIM_018.jpg	99
330.737	0.509	509.4	incongruent	Block1	incongruent/STIM_018.jpg	100
334.495	0.353	352.7	incongruent	Block1	incongruent/STIM_018.jpg	99
337.763	0.545	545.4	incongruent	Block1	incongruent/STIM_018.jpg	99
341.039	0.839	839.1	incongruent	Block1	incongruent/STIM_019.jpg	99
343.958	0.705	705.4	incongruent	Block1	incongruent/STIM_019.jpg	100
347.429	0.68	680.2	incongruent	Block1	incongruent/STIM_019.jpg	100
350.797	0.49	490.3	incongruent	Block1	incongruent/STIM_019.jpg	99
354.023	0.399	399.2	incongruent	Block1	incongruent/STIM_019.jpg	99
357.374	0.851	851.4	incongruent	Block1	incongruent/STIM_020.jpg	100
361.681	0.456	456.4	incongruent	Block1	incongruent/STIM_020.jpg	99
365.568	0.428	428.2	incongruent	Block1	incongruent/STIM_020.jpg	100
368.316	0.35	350.5	incongruent	Block1	incongruent/STIM_020.jpg	99
371.96	0.355	354.9	incongruent	Block1	incongruent/STIM_020.jpg	100
375.802	0.625	625.0	incongruent	Block1	incongruent/STIM_021.jpg	100
380.085	0.755	755.3	incongruent	Block1	incongruent/STIM_021.jpg	99
384.508	0.743	742.9	incongruent	Block1	incongruent/STIM_021.jpg	100
389.179	0.467	467.1	incongruent	Block1	incongruent/STIM_021.jpg	100
392.436	0.521	521.0	incongruent	Block1	incongruent/STIM_021.jpg	100
396.609	0.536	536.5	incongruent	Block1	incongruent/STIM_022.jpg	99
399.239	0.648	647.6	incongruent	Block1	incongruent/STIM_022.jpg	99
403.429	0.564	563.5	incongruent	Block1	incongruent/STIM_022.jpg	99
407.11	0.593	592.7	incongruent	Block1	incongruent/STIM_022.jpg	100
410.523	0.524	524.3	incongruent	Block1	incongruent/STIM_022.jpg	99
415.025	0.693	693.3	incongruent	Block1	incongruent/STIM_023.jpg	100
417.994	0.393	392.9	incongruent	Block1	incongruent/STIM_023.jpg	100
421.809	0.779	779.1	incongruent	Block1	incongruent/STIM_023.jpg	99
425.145	0.619	619.1	incongruent	Block1	incongruent/STIM_023.jpg	99
429.707	0.394	393.6	incongruent	Block1	incongruent/STIM_023.jpg	99
433.378	0.759	758.9	incongruent	Block1	incongruent/STIM_024.jpg	99
436.337	0.682	682.3	incongruent	Block1	incongruent/STIM_024.jpg	100
440.41	0.388	388.2	incongruent	Block1	incongruent/STIM_024.jpg	100
443.721	0.349	348.7	incongruent	Block1	incongruent/STIM_024.jpg	100
446.119	0.338	338.0	incongruent	Block1	incongruent/STIM_024.jpg	100
448.858	0.866	865.5	incongruent	Block1	incongruent/STIM_025.jpg	100
453.659	0.729	729.4	incongruent	Block1	incongruent/STIM_025.jpg	99
458.371	0.468	468.5	incongruent	Block1	incongruent/STIM_025.jpg	100
462.304	0.535	535.0	incongruent	Block1	incongruent/STIM_025.jpg	99
466.658	0.358	357.7	incongruent	Block1	incongruent/STIM_025.jpg	100
470.092	0.561	560.7	incongruent	Block1	incongruent/STIM_026.jpg	100
473.096	0.587	586.8	incongruent	Block1	incongruent/STIM_026.jpg	100
476.15	0.472	472.1	incongruent	Block1	incongruent/STIM_026.jpg	100
479.093	0.588	588.0	incongruent	Block1	incongruent/STIM_026.jpg	100
482.485	0.414	413.6	incongruent	Block1	incongruent/STIM_026.jpg	100
485.223	0.823	822.6	incongruent	Block1	incongruent/STIM_027.jpg	99
489.187	0.816	816.4	incongruent	Block1	incongruent/STIM_027.jpg	100
492.439	0.768	768.4	incongruent	Block1	incongruent/STIM_027.jpg	99
495.723	0.594	593.9	incongruent	Block1	incongruent/STIM_027.jpg	99
498.897	0.328	327.5	incongruent	Block1	incongruent/STIM_027.jpg	99
501.905	0.467	467.4	incongruent	Block1	incongruent/STIM_028.jpg	100
505.668	0.777	776.9	incongruent	Block1	incongruent/STIM_028.jpg	100
509.398	0.486	486.3	incongruent	Block1	incongruent/STIM_028.jpg	100
512.565	0.449	448.8	incongruent	Block1	incongruent/STIM_028.jpg	99
516.563	0.487	487.2	incongruent	Block1	incongruent/STIM_028.jpg	100
520.283	0.414	413.6	incongruent	Block1	incongruent/STIM_029.jpg	100
523.517	0.581	580.8	incongruent	Block1	incongruent/STIM_029.jpg	100
527.934	0.715	715.3	incongruent	Block1	incongruent/STIM_029.jpg	99
531.187	0.508	508.2	incongruent	Block1	incongruent/STIM_029.jpg	99
533.983	0.431	431.2	incongruent	Block1	incongruent/STIM_029.jpg	99
537.934	0.433	433.2	congruent	Block1	congruent/STIM_000.jpg	99
540.617	0.357	356.9	congruent	Block1	congruent/STIM_000.jpg	99
544.578	0.312	311.5	congruent	Block1	congruent/STIM_000.jpg	99
547.808	0.388	388.1	congruent	Block1	congruent/STIM_000.jpg	100
551.92	0.501	500.8	congruent	Block1	congruent/STIM_000.jpg	100
554.446	0.428	427.6	congruent	Block1	congruent/STIM_001.jpg	100
557.41	0.463	463.3	congruent	Block1	congruent/STIM_001.jpg	99
560.019	0.421	420.8	congruent	Block1	congruent/STIM_001.jpg	100
564.34	0.312	312.5	congruent	Block1	congruent/STIM_001.jpg	99
567.036	0.414	414.3	congruent	Block1	congruent/STIM_001.jpg	99
570.644	0.509	509.3	congruent	Block1	congruent/STIM_002.jpg	100
573.519	0.327	326.9	congruent	Block1	congruent/STIM_002.jpg	99
576.097	0.401	401.3	congruent	Block1	congruent/STIM_002.jpg	99
580.244	0.393	393.4	congruent	Block1	congruent/STIM_002.jpg	100
583.407	0.455	454.6	congruent	Block1	congruent/STIM_002.jpg	100
587.744	0.418	417.8	congruent	Block1	congruent/STIM_003.jpg	99
590.907	0.313	313.2	congruent	Block1	congruent/STIM_003.jpg	100
593.961	0.364	363.9	congruent	Block1	congruent/STIM_003.jpg	100
596.813	0.355	354.9	congruent	Block1	congruent/STIM_003.jpg	100
600.062	0.345	345.4	congruent	Block1	congruent/STIM_003.jpg	100
603.369	0.405	405.1	congruent	Block1	congruent/STIM_004.jpg	100
606.682	0.395	394.7	congruent	Block1	congruent/STIM_004.jpg	99
609.183	0.384	383.5	congruent	Block1	congruent/STIM_004.jpg	99
612.969	0.419	418.7	congruent	Block1	congruent/STIM_004.jpg	100
615.575	0.495	495.4	congruent	Block1	congruent/STIM_004.jpg	99
619.944	0.299	298.9	congruent	Block1	congruent/STIM_005.jpg	100
623.188	0.518	518.3	congruent	Block1	congruent/STIM_005.jpg	100
626.466	0.444	443.6	congruent	Block1	congruent/STIM_005.jpg	100
629.535	0.464	464.0	congruent	Block1	congruent/STIM_005.jpg	100
632.188	0.352	352.4	congruent	Block1	congruent/STIM_005.jpg	99
635.986	0.302	302.5	congruent	Block1	congruent/STIM_006.jpg	99
639.912	0.436	435.7	congruent	Block1	congruent/STIM_006.jpg	100
643.645	0.371	370.8	congruent	Block1	congruent/STIM_006.jpg	100
646.858	0.489	488.6	congruent	Block1	congruent/STIM_006.jpg	99
650.332	0.421	421.0	congruent	Block1	congruent/STIM_006.jpg	99
654.1	0.473	473.0	congruent	Block1	congruent/STIM_007.jpg	99
657.329	0.332	331.8	congruent	Block1	congruent/STIM_007.jpg	100
659.973	0.343	343.3	congruent	Block1	congruent/STIM_007.jpg	100
664.11	0.359	358.7	congruent	Block1	congruent/STIM_007.jpg	100
668.454	0.469	469.1	congruent	Block1	congruent/STIM_007.jpg	100
671.873	0.397	397.4	congruent	Block1	congruent/STIM_008.jpg	100
674.309	0.394	394.4	congruent	Block1	congruent/STIM_008.jpg	99
676.792	0.351	350.7	congruent	Block1	congruent/STIM_008.jpg	100
679.786	0.46	460.0	congruent	Block1	congruent/STIM_008.jpg	100
683.761	0.313	313.4	congruent	Block1	congruent/STIM_008.jpg	99
686.736	0.473	473.4	congruent	Block1	congruent/STIM_009.jpg	100
690.675	0.374	374.5	congruent	Block1	congruent/STIM_009.jpg	99
693.241	0.48	479.8	congruent	Block1	congruent/STIM_009.jpg	99
696.674	0.344	343.7	congruent	Block1	congruent/STIM_009.jpg	99
700.009	0.344	344.5	congruent	Block1	congruent/STIM_009.jpg	99
702.51	0.326	325.5	congruent	Block1	congruent/STIM_010.jpg	100
706.574	0.464	463.9	congruent	Block1	congruent/STIM_010.jpg	99
710.726	0.485	484.7	congruent	Block1	congruent/STIM_010.jpg	99
713.226	0.358	358.2	congruent	Block1	congruent/STIM_010.jpg	100
716.714	0.472	472.2	congruent	Block1	congruent/STIM_010.jpg	100
719.497	0.314	314.3	congruent	Block1	congruent/STIM_011.jpg	99
722.508	0.495	495.4	congruent	Block1	congruent/STIM_011.jpg	100
726.613	0.484	484.5	congruent	Block1	congruent/STIM_011.jpg	99
730.061	0.378	378.4	congruent	Block1	congruent/STIM_011.jpg	100
733.753	0.311	311.2	congruent	Block1	congruent/STIM_011.jpg	100
737.441	0.501	500.6	congruent	Block1	congruent/STIM_012.jpg	99
741.86	0.349	349.3	congruent	Block1	congruent/STIM_012.jpg	100
745.533	0.444	444.3	congruent	Block1	congruent/STIM_012.jpg	100
749.739	0.324	324.3	congruent	Block1	congruent/STIM_012.jpg	100
753.626	0.37	369.9	congruent	Block1	congruent/STIM_012.jpg	99
756.951	0.299	298.8	congruent	Block1	congruent/STIM_013.jpg	100
759.337	0.332	332.5	congruent	Block1	congruent/STIM_013.jpg	100
761.959	0.321	320.7	congruent	Block1	congruent/STIM_013.jpg	99
765.422	0.498	497.8	congruent	Block1	congruent/STIM_013.jpg	100
768.176	0.359	359.4	congruent	Block1	congruent/STIM_013.jpg	99
770.702	0.494	494.0	congruent	Block1	congruent/STIM_014.jpg	100
774.481	0.504	503.6	congruent	Block1	congruent/STIM_014.jpg	99
777.528	0.49	490.5	congruent	Block1	congruent/STIM_014.jpg	100
780.878	0.386	386.0	congruent	Block1	congruent/STIM_014.jpg	99
785.233	0.414	414.1	congruent	Block1	congruent/STIM_014.jpg	99
788.22	0.293	293.1	congruent	Block1	congruent/STIM_015.jpg	100
790.851	0.307	306.6	congruent	Block1	congruent/STIM_015.jpg	100
794.251	0.395	394.9	congruent	Block1	congruent/STIM_015.jpg	99
798.045	0.298	297.7	congruent	Block1	congruent/STIM_015.jpg	99
801.926	0.359	359.3	congruent	Block1	congruent/STIM_015.jpg	99
804.315	0.434	433.8	congruent	Block1	congruent/STIM_016.jpg	100
806.955	0.352	351.7	congruent	Block1	congruent/STIM_016.jpg	99
811.305	0.351	351.3	congruent	Block1	congruent/STIM_016.jpg	99
813.824	0.344	344.1	congruent	Block1	congruent/STIM_016.jpg	100
817.16	0.348	347.5	congruent	Block1	congruent/STIM_016.jpg	99
819.803	0.358	357.8	congruent	Block1	congruent/STIM_017.jpg	100
823.614	0.382	381.5	congruent	Block1	congruent/STIM_017.jpg	100
827.95	0.469	469.0	congruent	Block1	congruent/STIM_017.jpg	100
830.799	0.347	346.7	congruent	Block1	congruent/STIM_017.jpg	99
833.186	0.479	479.4	congruent	Block1	congruent/STIM_017.jpg	99
836.689	0.34	340.2	congruent	Block1	congruent/STIM_018.jpg	99
840.172	0.446	446.1	congruent	Block1	congruent/STIM_018.jpg	99
843.984	0.327	326.7	congruent	Block1	congruent/STIM_018.jpg	99
847.807	0.457	457.4	congruent	Block1	congruent/STIM_018.jpg	99
851.717	0.515	515.3	congruent	Block1	congruent/STIM_018.jpg	100
856.173	0.481	480.9	congruent	Block1	congruent/STIM_019.jpg	100
860.153	0.425	425.1	congruent	Block1	congruent/STIM_019.jpg	100
863.374	0.334	333.5	congruent	Block1	congruent/STIM_019.jpg	100
867.416	0.506	505.7	congruent	Block1	congruent/STIM_019.jpg	100
870.325	0.512	512.3	congruent	Block1	congruent/STIM_019.jpg	99
873.059	0.296	296.3	congruent	Block1	congruent/STIM_020.jpg	100
876.175	0.305	304.8	congruent	Block1	congruent/STIM_020.jpg	99
878.995	0.39	389.5	congruent	Block1	congruent/STIM_020.jpg	99
882.986	0.337	336.7	congruent	Block1	congruent/STIM_020.jpg	100
886.917	0.324	324.4	congruent	Block1	congruent/STIM_020.jpg	100
891.099	0.494	493.5	congruent	Block1	congruent/STIM_021.jpg	99
894.478	0.477	476.8	congruent	Block1	congruent/STIM_021.jpg	100
898.704	0.521	521.4	congruent	Block1	congruent/STIM_021.jpg	99
901.505	0.43	430.3	congruent	Block1	congruent/STIM_021.jpg	100
905.6	0.52	520.1	congruent	Block1	congruent/STIM_021.jpg	100
909.466	0.35	350.3	congruent	Block1	congruent/STIM_022.jpg	100
913.729	0.446	446.4	congruent	Block1	congruent/STIM_022.jpg	100
916.749	0.493	493.4	congruent	Block1	congruent/STIM_022.jpg	99
921.045	0.301	301.2	congruent	Block1	congruent/STIM_022.jpg	99
923.87	0.378	377.5	congruent	Block1	congruent/STIM_022.jpg	99
926.937	0.315	315.2	congruent	Block1	congruent/STIM_023.jpg	99
930.282	0.428	427.6	congruent	Block1	congruent/STIM_023.jpg	100
932.88	0.426	425.7	congruent	Block1	congruent/STIM_023.jpg	100
937.03	0.43	430.5	congruent	Block1	congruent/STIM_023.jpg	100
940.083	0.455	455.3	congruent	Block1	congruent/STIM_023.jpg	100
944.019	0.366	365.9	congruent	Block1	congruent/STIM_024.jpg	100
947.75	0.322	321.5	congruent	Block1	congruent/STIM_024.jpg	99
950.358	0.468	468.0	congruent	Block1	congruent/STIM_024.jpg	100
953.433	0.34	340.3	congruent	Block1	congruent/STIM_024.jpg	99
957.707	0.351	350.7	congruent	Block1	congruent/STIM_024.jpg	99
960.11	0.373	372.8	congruent	Block1	congruent/STIM_025.jpg	99
964.463	0.381	380.9	congruent	Block1	congruent/STIM_025.jpg	100
968.803	0.519	518.8	congruent	Block1	congruent/STIM_025.jpg	100
971.891	0.362	362.4	congruent	Block1	congruent/STIM_025.jpg	99
974.653	0.397	396.8	congruent	Block1	congruent/STIM_025.jpg	100
977.771	0.342	341.7	congruent	Block1	congruent/STIM_026.jpg	99
980.334	0.456	455.7	congruent	Block1	congruent/STIM_026.jpg	100
982.813	0.413	413.0	congruent	Block1	congruent/STIM_026.jpg	99
986.104	0.335	335.2	congruent	Block1	congruent/STIM_026.jpg	100
989.237	0.407	407.3	congruent	Block1	congruent/STIM_026.jpg	100
993.355	0.443	442.9	congruent	Block1	congruent/STIM_027.jpg	99
997.51	0.444	443.8	congruent	Block1	congruent/STIM_027.jpg	99
1001.451	0.476	476.4	congruent	Block1	congruent/STIM_027.jpg	100
1004.396	0.303	303.3	congruent	Block1	congruent/STIM_027.jpg	99
1008.633	0.352	351.9	congruent	Block1	congruent/STIM_027.jpg	99
1011.223	0.388	387.8	congruent	Block1	congruent/STIM_028.jpg	100
1015.419	0.437	436.7	congruent	Block1	congruent/STIM_028.jpg	99
1019.16	0.486	485.5	congruent	Block1	congruent/STIM_028.jpg	99
1023.151	0.337	336.6	congruent	Block1	congruent/STIM_028.jpg	99
1026.188	0.294	294.1	congruent	Block1	congruent/STIM_028.jpg	100
1029.452	0.505	505.0	congruent	Block1	congruent/STIM_029.jpg	99
1032.942	0.437	437.2	congruent	Block1	congruent/STIM_029.jpg	99
1035.846	0.412	411.9	congruent	Block1	congruent/STIM_029.jpg	100
1039.372	0.351	351.1	congruent	Block1	congruent/STIM_029.jpg	100
1042.731	0.36	360.1	congruent	Block1	congruent/STIM_029.jpg	99
1045.498	0.546	545.9	incongruent	Block2	incongruent/STIM_000.jpg	99
1049.376	0.419	419.4	incongruent	Block2	incongruent/STIM_000.jpg	99
1052.932	0.499	499.1	incongruent	Block2	incongruent/STIM_000.jpg	100
1055.511	0.55	550.3	incongruent	Block2	incongruent/STIM_000.jpg	99
1059.17	0.504	504.1	incongruent	Block2	incongruent/STIM_000.jpg	100
1062.282	0.668	667.5	incongruent	Block2	incongruent/STIM_001.jpg	99
1065.157	0.377	377.1	incongruent	Block2	incongruent/STIM_001.jpg	100
1067.773	0.612	611.8	incongruent	Block2	incongruent/STIM_001.jpg	100
1071.192	0.368	368.3	incongruent	Block2	incongruent/STIM_001.jpg	100
1075.529	0.383	383.0	incongruent	Block2	incongruent/STIM_001.jpg	99
1079.295	0.606	605.9	incongruent	Block2	incongruent/STIM_002.jpg	99
1081.909	0.593	593.3	incongruent	Block2	incongruent/STIM_002.jpg	99
1085.334	0.523	523.1	incongruent	Block2	incongruent/STIM_002.jpg	100
1087.873	0.352	352.2	incongruent	Block2	incongruent/STIM_002.jpg	99
1092.045	0.49	490.1	incongruent	Block2	incongruent/STIM_002.jpg	99
1095.933	0.552	552.3	incongruent	Block2	incongruent/STIM_003.jpg	100
1099.378	0.634	633.5	incongruent	Block2	incongruent/STIM_003.jpg	100
1103.967	0.623	623.3	incongruent	Block2	incongruent/STIM_003.jpg	100
1106.934	0.584	584.5	incongruent	Block2	incongruent/STIM_003.jpg	99
1109.574	0.316	315.7	incongruent	Block2	incongruent/STIM_003.jpg	99
1113.489	0.695	695.1	incongruent	Block2	incongruent/STIM_004.jpg	99
1117.341	0.63	629.7	incongruent	Block2	incongruent/STIM_004.jpg	99
1121.042	0.332	332.0	incongruent	Block2	incongruent/STIM_004.jpg	100
1125.167	0.594	593.5	incongruent	Block2	incongruent/STIM_004.jpg	100
1128.007	0.565	565.3	incongruent	Block2	incongruent/STIM_004.jpg	100
1131.517	0.472	472.1	incongruent	Block2	incongruent/STIM_005.jpg	100
1135.74	0.668	668.5	incongruent	Block2	incongruent/STIM_005.jpg	99
1140.381	0.433	433.4	incongruent	Block2	incongruent/STIM_005.jpg	99
1142.976	0.39	389.5	incongruent	Block2	incongruent/STIM_005.jpg	99
1145.947	0.368	368.2	incongruent	Block2	incongruent/STIM_005.jpg	99
1149.48	0.456	455.9	incongruent	Block2	incongruent/STIM_006.jpg	100
1152.907	0.662	662.4	incongruent	Block2	incongruent/STIM_006.jpg	99
1156.956	0.419	419.1	incongruent	Block2	incongruent/STIM_006.jpg	99
1160.541	0.566	565.8	incongruent	Block2	incongruent/STIM_006.jpg	100
1164.031	0.43	430.5	incongruent	Block2	incongruent/STIM_006.jpg	100
1167.03	0.462	461.5	incongruent	Block2	incongruent/STIM_007.jpg	99
1170.163	0.402	401.5	incongruent	Block2	incongruent/STIM_007.jpg	99
1173.439	0.583	583.2	incongruent	Block2	incongruent/STIM_007.jpg	99
1177.114	0.374	374.0	incongruent	Block2	incongruent/STIM_007.jpg	100
1181.313	0.472	472.5	incongruent	Block2	incongruent/STIM_007.jpg	100
1185.484	0.534	534.0	incongruent	Block2	incongruent/STIM_008.jpg	100
1189.004	0.462	461.6	incongruent	Block2	incongruent/STIM_008.jpg	100
1192.578	0.459	459.4	incongruent	Block2	incongruent/STIM_008.jpg	99
1196.605	0.604	604.0	incongruent	Block2	incongruent/STIM_008.jpg	100
1199.326	0.488	488.2	incongruent	Block2	incongruent/STIM_008.jpg	99
1203.721	0.659	658.7	incongruent	Block2	incongruent/STIM_009.jpg	100
1206.841	0.681	681.0	incongruent	Block2	incongruent/STIM_009.jpg	99
1209.638	0.486	485.5	incongruent	Block2	incongruent/STIM_009.jpg	99
1212.642	0.388	387.9	incongruent	Block2	incongruent/STIM_009.jpg	99
1215.843	0.607	607.1	incongruent	Block2	incongruent/STIM_009.jpg	99
1220.202	0.706	705.8	incongruent	Block2	incongruent/STIM_010.jpg	99
1223.049	0.443	443.2	incongruent	Block2	incongruent/STIM_010.jpg	99
1225.542	0.554	553.9	incongruent	Block2	incongruent/STIM_010.jpg	99
1229.588	0.443	443.4	incongruent	Block2	incongruent/STIM_010.jpg	99
1233.736	0.587	586.8	incongruent	Block2	incongruent/STIM_010.jpg	100
1238.121	0.425	425.0	incongruent	Block2	incongruent/STIM_011.jpg	100
1241.401	0.386	385.9	incongruent	Block2	incongruent/STIM_011.jpg	99
1245.393	0.351	351.4	incongruent	Block2	incongruent/STIM_011.jpg	99
1248.259	0.348	347.9	incongruent	Block2	incongruent/STIM_011.jpg	99
1252.43	0.568	567.9	incongruent	Block2	incongruent/STIM_011.jpg	99
1255.902	0.708	708.0	incongruent	Block2	incongruent/STIM_012.jpg	100
1258.794	0.328	328.4	incongruent	Block2	incongruent/STIM_012.jpg	100
1261.641	0.481	480.9	incongruent	Block2	incongruent/STIM_012.jpg	100
1264.732	0.559	559.0	incongruent	Block2	incongruent/STIM_012.jpg	99
1267.438	0.314	314.5	incongruent	Block2	incongruent/STIM_012.jpg	100
1270.242	0.608	608.5	incongruent	Block2	incongruent/STIM_013.jpg	99
1273.833	0.516	516.5	incongruent	Block2	incongruent/STIM_013.jpg	99
1276.626	0.478	478.4	incongruent	Block2	incongruent/STIM_013.jpg	100
1280.499	0.608	607.6	incongruent	Block2	incongruent/STIM_013.jpg	100
1284.958	0.317	317.3	incongruent	Block2	incongruent/STIM_013.jpg	99
1289.133	0.738	738.4	incongruent	Block2	incongruent/STIM_014.jpg	100
1292.798	0.527	527.4	incongruent	Block2	incongruent/STIM_014.jpg	99
1297.042	0.638	638.2	incongruent	Block2	incongruent/STIM_014.jpg	100
1300.927	0.408	407.7	incongruent	Block2	incongruent/STIM_014.jpg	99
1304.547	0.52	520.1	incongruent	Block2	incongruent/STIM_014.jpg	100
1308.338	0.56	560.2	incongruent	Block2	incongruent/STIM_015.jpg	99
1312.018	0.495	494.9	incongruent	Block2	incongruent/STIM_015.jpg	100
1316.382	0.637	636.7	incongruent	Block2	incongruent/STIM_015.jpg	100
1319.755	0.436	435.9	incongruent	Block2	incongruent/STIM_015.jpg	100
1322.311	0.356	355.6	incongruent	Block2	incongruent/STIM_015.jpg	100
1324.755	0.714	713.5	incongruent	Block2	incongruent/STIM_016.jpg	99
1328.249	0.424	423.5	incongruent	Block2	incongruent/STIM_016.jpg	99
1332.008	0.332	331.5	incongruent	Block2	incongruent/STIM_016.jpg	100
1334.665	0.397	397.3	incongruent	Block2	incongruent/STIM_016.jpg	100
1338.823	0.534	534.3	incongruent	Block2	incongruent/STIM_016.jpg	100
1342.195	0.553	553.2	incongruent	Block2	incongruent/STIM_017.jpg	100
1345.332	0.512	512.1	incongruent	Block2	incongruent/STIM_017.jpg	99
1348.054	0.404	404.5	incongruent	Block2	incongruent/STIM_017.jpg	99
1351.781	0.468	468.0	incongruent	Block2	incongruent/STIM_017.jpg	100
1355.859	0.476	476.1	incongruent	Block2	incongruent/STIM_017.jpg	99
1359.571	0.414	414.0	incongruent	Block2	incongruent/STIM_018.jpg	99
1362.192	0.629	628.8	incongruent	Block2	incongruent/STIM_018.jpg	100
1366.044	0.452	452.2	incongruent	Block2	incongruent/STIM_018.jpg	100
1368.798	0.441	440.6	incongruent	Block2	incongruent/STIM_018.jpg	99
1372.673	0.313	313.0	incongruent	Block2	incongruent/STIM_018.jpg	100
1376.291	0.463	462.9	incongruent	Block2	incongruent/STIM_019.jpg	99
1379.923	0.605	605.3	incongruent	Block2	incongruent/STIM_019.jpg	100
1384.335	0.517	517.1	incongruent	Block2	incongruent/STIM_019.jpg	100
1388.282	0.549	548.6	incongruent	Block2	incongruent/STIM_019.jpg	100
1392.111	0.332	332.2	incongruent	Block2	incongruent/STIM_019.jpg	100
1396.105	0.736	736.0	incongruent	Block2	incongruent/STIM_020.jpg	99
1399.308	0.461	461.0	incongruent	Block2	incongruent/STIM_020.jpg	100
1402.445	0.445	445.1	incongruent	Block2	incongruent/STIM_020.jpg	99
1405.604	0.352	351.8	incongruent	Block2	incongruent/STIM_020.jpg	99
1409.192	0.425	425.2	incongruent	Block2	incongruent/STIM_020.jpg	100
1411.939	0.526	525.7	incongruent	Block2	incongruent/STIM_021.jpg	99
1416.316	0.627	626.6	incongruent	Block2	incongruent/STIM_021.jpg	99
1419.902	0.528	528.3	incongruent	Block2	incongruent/STIM_021.jpg	99
1423.32	0.588	587.7	incongruent	Block2	incongruent/STIM_021.jpg	99
1426.662	0.412	411.8	incongruent	Block2	incongruent/STIM_021.jpg	100
1430.468	0.527	527.4	incongruent	Block2	incongruent/STIM_022.jpg	100
1434.824	0.585	585.2	incongruent	Block2	incongruent/STIM_022.jpg	100
1438.729	0.366	366.3	incongruent	Block2	incongruent/STIM_022.jpg	100
1441.994	0.573	573.1	incongruent	Block2	incongruent/STIM_022.jpg	100
1445.295	0.539	538.7	incongruent	Block2	incongruent/STIM_022.jpg	99
1448.033	0.676	676.2	incongruent	Block2	incongruent/STIM_023.jpg	99
1451.433	0.626	626.5	incongruent	Block2	incongruent/STIM_023.jpg	100
1455.203	0.44	440.2	incongruent	Block2	incongruent/STIM_023.jpg	100
1459.524	0.531	531.3	incongruent	Block2	incongruent/STIM_023.jpg	100
1463.655	0.478	478.3	incongruent	Block2	incongruent/STIM_023.jpg	99
1466.417	0.534	534.2	incongruent	Block2	incongruent/STIM_024.jpg	99
1469.091	0.533	532.8	incongruent	Block2	incongruent/STIM_024.jpg	99
1472.442	0.551	551.1	incongruent	Block2	incongruent/STIM_024.jpg	99
1475.173	0.345	345.2	incongruent	Block2	incongruent/STIM_024.jpg	99
1477.524	0.496	496.3	incongruent	Block2	incongruent/STIM_024.jpg	99
1480.653	0.455	454.7	incongruent	Block2	incongruent/STIM_025.jpg	100
1484.011	0.676	675.7	incongruent	Block2	incongruent/STIM_025.jpg	99
1488.466	0.348	347.5	incongruent	Block2	incongruent/STIM_025.jpg	99
1491.854	0.392	392.4	incongruent	Block2	incongruent/STIM_025.jpg	99
1495.524	0.49	490.3	incongruent	Block2	incongruent/STIM_025.jpg	99
1499.6	0.476	476.0	incongruent	Block2	incongruent/STIM_026.jpg	99
1503.6	0.413	413.2	incongruent	Block2	incongruent/STIM_026.jpg	99
1506.85	0.624	623.8	incongruent	Block2	incongruent/STIM_026.jpg	100
1510.6	0.317	317.0	incongruent	Block2	incongruent/STIM_026.jpg	100
1513.494	0.393	393.2	incongruent	Block2	incongruent/STIM_026.jpg	100
1517.698	0.642	641.6	incongruent	Block2	incongruent/STIM_027.jpg	100
1522.207	0.661	661.3	incongruent	Block2	incongruent/STIM_027.jpg	100
1525.772	0.597	596.7	incongruent	Block2	incongruent/STIM_027.jpg	99
1529.24	0.505	505.5	incongruent	Block2	incongruent/STIM_027.jpg	99
1532.884	0.334	334.2	incongruent	Block2	incongruent/STIM_027.jpg	100
1536.541	0.6	599.7	incongruent	Block2	incongruent/STIM_028.jpg	100
1540.181	0.364	364.3	incongruent	Block2	incongruent/STIM_028.jpg	100
1544.532	0.322	322.2	incongruent	Block2	incongruent/STIM_028.jpg	99
1548.837	0.541	540.6	incongruent	Block2	incongruent/STIM_028.jpg	99
1552.335	0.343	343.0	incongruent	Block2	incongruent/STIM_028.jpg	99
1555.678	0.609	608.6	incongruent	Block2	incongruent/STIM_029.jpg	100
1559.254	0.619	618.6	incongruent	Block2	incongruent/STIM_029.jpg	100
1563.781	0.434	434.2	incongruent	Block2	incongruent/STIM_029.jpg	100
1567.345	0.506	505.8	incongruent	Block2	incongruent/STIM_029.jpg	100
1570.104	0.301	301.0	incongruent	Block2	incongruent/STIM_029.jpg	99
1574.197	0.313	313.2	congruent	Block2	congruent/STIM_000.jpg	99
1577.142	0.403	403.2	congruent	Block2	congruent/STIM_000.jpg	99
1579.708	0.451	450.7	congruent	Block2	congruent/STIM_000.jpg	99
1582.924	0.434	433.6	congruent	Block2	congruent/STIM_000.jpg	99
1585.855	0.349	349.3	congruent	Block2	congruent/STIM_000.jpg	99
1588.718	0.426	425.8	congruent	Block2	congruent/STIM_001.jpg	99
1591.907	0.484	484.4	congruent	Block2	congruent/STIM_001.jpg	100
1595.573	0.463	463.0	congruent	Block2	congruent/STIM_001.jpg	100
1598.909	0.329	329.1	congruent	Block2	congruent/STIM_001.jpg	100
1603.095	0.316	315.8	congruent	Block2	congruent/STIM_001.jpg	100
1606.001	0.426	425.9	congruent	Block2	congruent/STIM_002.jpg	100
1609.161	0.474	474.0	congruent	Block2	congruent/STIM_002.jpg	100
1613.083	0.377	377.1	congruent	Block2	congruent/STIM_002.jpg	100
1616.051	0.334	333.7	congruent	Block2	congruent/STIM_002.jpg	99
1620.221	0.346	345.5	congruent	Block2	congruent/STIM_002.jpg	100
1624.013	0.421	421.4	congruent	Block2	congruent/STIM_003.jpg	99
1628.415	0.4	400.4	congruent	Block2	congruent/STIM_003.jpg	100
1632.609	0.497	496.7	congruent	Block2	congruent/STIM_003.jpg	99
1636.862	0.388	388.5	congruent	Block2	congruent/STIM_003.jpg	100
1641.056	0.518	518.2	congruent	Block2	congruent/STIM_003.jpg	100
1645.035	0.329	329.3	congruent	Block2	congruent/STIM_004.jpg	100
1647.981	0.463	463.2	congruent	Block2	congruent/STIM_004.jpg	99
1651.337	0.337	336.9	congruent	Block2	congruent/STIM_004.jpg	100
1654.371	0.31	310.5	congruent	Block2	congruent/STIM_004.jpg	100
1656.702	0.34	339.5	congruent	Block2	congruent/STIM_004.jpg	99
1660.35	0.321	320.9	congruent	Block2	congruent/STIM_005.jpg	99
1664.576	0.419	419.3	congruent	Block2	congruent/STIM_005.jpg	99
1667.635	0.312	312.1	congruent	Block2	congruent/STIM_005.jpg	100
1671.172	0.385	385.1	congruent	Block2	congruent/STIM_005.jpg	100
1675.315	0.411	411.0	congruent	Block2	congruent/STIM_005.jpg	99
1679.291	0.378	377.5	congruent	Block2	congruent/STIM_006.jpg	100
1682.125	0.3	300.4	congruent	Block2	congruent/STIM_006.jpg	99
1685.374	0.448	447.8	congruent	Block2	congruent/STIM_006.jpg	99
1688.078	0.478	478.4	congruent	Block2	congruent/STIM_006.jpg	99
1692.089	0.348	348.0	congruent	Block2	congruent/STIM_006.jpg	99
1695.057	0.39	389.8	congruent	Block2	congruent/STIM_007.jpg	100
1698.353	0.317	316.8	congruent	Block2	congruent/STIM_007.jpg	100
1700.702	0.44	440.5	congruent	Block2	congruent/STIM_007.jpg	100
1703.679	0.456	455.8	congruent	Block2	congruent/STIM_007.jpg	100
1707.535	0.5	500.2	congruent	Block2	congruent/STIM_007.jpg	99
1711.192	0.477	477.1	congruent	Block2	congruent/STIM_008.jpg	100
1715.096	0.416	415.8	congruent	Block2	congruent/STIM_008.jpg	99
1719.255	0.33	329.8	congruent	Block2	congruent/STIM_008.jpg	99
1722.218	0.395	394.7	congruent	Block2	congruent/STIM_008.jpg	100
1726.161	0.432	431.5	congruent	Block2	congruent/STIM_008.jpg	99
1728.875	0.358	357.5	congruent	Block2	congruent/STIM_009.jpg	99
1732.414	0.324	324.0	congruent	Block2	congruent/STIM_009.jpg	100
1736.704	0.311	311.0	congruent	Block2	congruent/STIM_009.jpg	100
1740.805	0.312	311.7	congruent	Block2	congruent/STIM_009.jpg	99
1744.363	0.514	513.6	congruent	Block2	congruent/STIM_009.jpg	99
1748.529	0.464	463.9	congruent	Block2	congruent/STIM_010.jpg	99
1751.627	0.349	348.8	congruent	Block2	congruent/STIM_010.jpg	99
1755.328	0.416	416.0	congruent	Block2	congruent/STIM_010.jpg	99
1759.446	0.345	345.0	congruent	Block2	congruent/STIM_010.jpg	99
1763.041	0.452	452.2	congruent	Block2	congruent/STIM_010.jpg	99
1765.516	0.442	442.4	congruent	Block2	congruent/STIM_011.jpg	99
1768.14	0.424	423.5	congruent	Block2	congruent/STIM_011.jpg	99
1771.762	0.484	483.9	congruent	Block2	congruent/STIM_011.jpg	100
1775.552	0.399	398.6	congruent	Block2	congruent/STIM_011.jpg	100
1778.266	0.404	404.0	congruent	Block2	congruent/STIM_011.jpg	99
1780.929	0.462	461.9	congruent	Block2	congruent/STIM_012.jpg	99
1785.073	0.305	304.7	congruent	Block2	congruent/STIM_012.jpg	100
1788.835	0.474	473.5	congruent	Block2	congruent/STIM_012.jpg	100
1793.075	0.467	466.9	congruent	Block2	congruent/STIM_012.jpg	99
1797.342	0.342	342.4	congruent	Block2	congruent/STIM_012.jpg	100
1800.608	0.367	366.8	congruent	Block2	congruent/STIM_013.jpg	99
1804.96	0.396	396.4	congruent	Block2	congruent/STIM_013.jpg	99
1807.622	0.433	432.8	congruent	Block2	congruent/STIM_013.jpg	99
1811.265	0.51	509.9	congruent	Block2	congruent/STIM_013.jpg	99
1814.658	0.491	490.6	congruent	Block2	congruent/STIM_013.jpg	99
1818.404	0.484	483.8	congruent	Block2	congruent/STIM_014.jpg	100
1821.844	0.49	489.7	congruent	Block2	congruent/STIM_014.jpg	100
1825.219	0.407	406.6	congruent	Block2	congruent/STIM_014.jpg	100
1828.739	0.302	302.0	congruent	Block2	congruent/STIM_014.jpg	100
1831.274	0.317	316.8	congruent	Block2	congruent/STIM_014.jpg	100
1833.91	0.428	428.3	congruent	Block2	congruent/STIM_015.jpg	99
1838.246	0.413	413.1	congruent	Block2	congruent/STIM_015.jpg	99
1841.53	0.338	337.6	congruent	Block2	congruent/STIM_015.jpg	99
1844.434	0.488	488.4	congruent	Block2	congruent/STIM_015.jpg	99
1847.152	0.448	448.3	congruent	Block2	congruent/STIM_015.jpg	100
1851.254	0.301	300.6	congruent	Block2	congruent/STIM_016.jpg	99
1854.91	0.358	357.6	congruent	Block2	congruent/STIM_016.jpg	99
1858.655	0.503	503.5	congruent	Block2	congruent/STIM_016.jpg	100
1862.722	0.404	404.1	congruent	Block2	congruent/STIM_016.jpg	99
1866.361	0.31	310.5	congruent	Block2	congruent/STIM_016.jpg	99
1870.045	0.465	464.7	congruent	Block2	congruent/STIM_017.jpg	100
1873.756	0.295	294.7	congruent	Block2	congruent/STIM_017.jpg	100
1877.601	0.344	344.2	congruent	Block2	congruent/STIM_017.jpg	100
1880.706	0.394	393.5	congruent	Block2	congruent/STIM_017.jpg	99
1884.097	0.425	424.7	congruent	Block2	congruent/STIM_017.jpg	100
1886.854	0.379	378.6	congruent	Block2	congruent/STIM_018.jpg	100
1889.374	0.302	301.9	congruent	Block2	congruent/STIM_018.jpg	99
1892.495	0.312	311.8	congruent	Block2	congruent/STIM_018.jpg	99
1895.713	0.332	332.5	congruent	Block2	congruent/STIM_018.jpg	100
1898.43	0.364	363.7	congruent	Block2	congruent/STIM_018.jpg	100
1902.631	0.326	325.9	congruent	Block2	congruent/STIM_019.jpg	99
1906.383	0.497	497.4	congruent	Block2	congruent/STIM_019.jpg	99
1909.098	0.347	347.1	congruent	Block2	congruent/STIM_019.jpg	99
1912.199	0.318	317.9	congruent	Block2	congruent/STIM_019.jpg	100
1915.466	0.4	399.9	congruent	Block2	congruent/STIM_019.jpg	99
1918.103	0.378	378.4	congruent	Block2	congruent/STIM_020.jpg	99
1921.54	0.422	421.6	congruent	Block2	congruent/STIM_020.jpg	99
1924.055	0.446	446.3	congruent	Block2	congruent/STIM_020.jpg	100
1927.15	0.389	389.0	congruent	Block2	congruent/STIM_020.jpg	100
1930.445	0.364	364.4	congruent	Block2	congruent/STIM_020.jpg	100
1934.491	0.489	489.0	congruent	Block2	congruent/STIM_021.jpg	100
1937.28	0.392	391.9	congruent	Block2	congruent/STIM_021.jpg	99
1939.739	0.46	460.2	congruent	Block2	congruent/STIM_021.jpg	99
1943.773	0.462	461.6	congruent	Block2	congruent/STIM_021.jpg	99
1947.731	0.464	464.2	congruent	Block2	congruent/STIM_021.jpg	100
1951.737	0.339	339.3	congruent	Block2	congruent/STIM_022.jpg	99
1954.709	0.406	406.4	congruent	Block2	congruent/STIM_022.jpg	99
1958.226	0.319	319.3	congruent	Block2	congruent/STIM_022.jpg	99
1961.667	0.473	472.7	congruent	Block2	congruent/STIM_022.jpg	100
1964.876	0.344	344.5	congruent	Block2	congruent/STIM_022.jpg	99
1967.654	0.398	397.9	congruent	Block2	congruent/STIM_023.jpg	99
1970.56	0.376	376.5	congruent	Block2	congruent/STIM_023.jpg	99
1972.989	0.311	311.2	congruent	Block2	congruent/STIM_023.jpg	99
1976.681	0.374	373.6	congruent	Block2	congruent/STIM_023.jpg	99
1979.932	0.454	453.9	congruent	Block2	congruent/STIM_023.jpg	99
1984.146	0.455	455.3	congruent	Block2	congruent/STIM_024.jpg	100
1986.88	0.47	469.7	congruent	Block2	congruent/STIM_024.jpg	99
1990.717	0.344	343.9	congruent	Block2	congruent/STIM_024.jpg	99
1994.662	0.355	355.2	congruent	Block2	congruent/STIM_024.jpg	99
1998.667	0.512	512.1	congruent	Block2	congruent/STIM_024.jpg	99
2001.22	0.485	484.8	congruent	Block2	congruent/STIM_025.jpg	100
2005.165	0.442	442.2	congruent	Block2	congruent/STIM_025.jpg	100
2008.144	0.332	331.6	congruent	Block2	congruent/STIM_025.jpg	99
2011.249	0.296	295.7	congruent	Block2	congruent/STIM_025.jpg	99
2014.428	0.3	299.8	congruent	Block2	congruent/STIM_025.jpg	99
2018.302	0.435	434.6	congruent	Block2	congruent/STIM_026.jpg	99
2021.762	0.399	398.6	congruent	Block2	congruent/STIM_026.jpg	100
2025.444	0.43	430.3	congruent	Block2	congruent/STIM_026.jpg	100
2029.414	0.365	365.0	congruent	Block2	congruent/STIM_026.jpg	99
2031.873	0.298	298.5	congruent	Block2	congruent/STIM_026.jpg	100
2035.398	0.406	406.4	congruent	Block2	congruent/STIM_027.jpg	99
2038.698	0.479	478.8	congruent	Block2	congruent/STIM_027.jpg	100
2041.261	0.321	321.3	congruent	Block2	congruent/STIM_027.jpg	99
2044.61	0.336	335.5	congruent	Block2	congruent/STIM_027.jpg	100
2047.617	0.512	512.0	congruent	Block2	congruent/STIM_027.jpg	100
2050.216	0.368	368.0	congruent	Block2	congruent/STIM_028.jpg	100
2053.698	0.319	319.4	congruent	Block2	congruent/STIM_028.jpg	100
2056.189	0.43	430.5	congruent	Block2	congruent/STIM_028.jpg	100
2060.386	0.485	484.9	congruent	Block2	congruent/STIM_028.jpg	99
2064.087	0.39	389.5	congruent	Block2	congruent/STIM_028.jpg	99
2067.81	0.341	340.8	congruent	Block2	congruent/STIM_029.jpg	99
2071.044	0.466	466.4	congruent	Block2	congruent/STIM_029.jpg	99
2074.635	0.52	520.0	congruent	Block2	congruent/STIM_029.jpg	100
2079.131	0.463	463.4	congruent	Block2	congruent/STIM_029.jpg	100
2082.937	0.38	379.6	congruent	Block2	congruent/STIM_029.jpg	100
2087.243	0.45	449.8	incongruent	Block3	incongruent/STIM_000.jpg	99
2090.466	0.341	340.6	incongruent	Block3	incongruent/STIM_000.jpg	99
2093.994	0.36	359.8	incongruent	Block3	incongruent/STIM_000.jpg	99
2096.801	0.604	604.4	incongruent	Block3	incongruent/STIM_000.jpg	100
2100.601	0.404	403.6	incongruent	Block3	incongruent/STIM_000.jpg	100
2104.637	0.45	449.6	incongruent	Block3	incongruent/STIM_001.jpg	99
2108.122	0.61	610.5	incongruent	Block3	incongruent/STIM_001.jpg	100
2112.265	0.558	557.9	incongruent	Block3	incongruent/STIM_001.jpg	99
2114.89	0.305	305.4	incongruent	Block3	incongruent/STIM_001.jpg	99
2117.724	0.357	356.9	incongruent	Block3	incongruent/STIM_001.jpg	100
2121.878	0.356	356.3	incongruent	Block3	incongruent/STIM_002.jpg	99
2124.707	0.406	405.8	incongruent	Block3	incongruent/STIM_002.jpg	100
2127.52	0.41	410.0	incongruent	Block3	incongruent/STIM_002.jpg	100
2131.403	0.498	498.1	incongruent	Block3	incongruent/STIM_002.jpg	99
2135.716	0.373	373.3	incongruent	Block3	incongruent/STIM_002.jpg	100
2139.927	0.504	503.8	incongruent	Block3	incongruent/STIM_003.jpg	100
2144.254	0.568	568.3	incongruent	Block3	incongruent/STIM_003.jpg	100
2148.319	0.493	493.0	incongruent	Block3	incongruent/STIM_003.jpg	99
2152.417	0.344	343.5	incongruent	Block3	incongruent/STIM_003.jpg	100
2154.972	0.412	411.9	incongruent	Block3	incongruent/STIM_003.jpg	100
2157.575	0.467	467.2	incongruent	Block3	incongruent/STIM_004.jpg	99
2160.425	0.492	492.1	incongruent	Block3	incongruent/STIM_004.jpg	100
2164.231	0.405	404.7	incongruent	Block3	incongruent/STIM_004.jpg	100
2167.233	0.362	361.6	incongruent	Block3	incongruent/STIM_004.jpg	99
2169.826	0.515	515.3	incongruent	Block3	incongruent/STIM_004.jpg	100
2172.628	0.387	386.8	incongruent	Block3	incongruent/STIM_005.jpg	100
2175.467	0.571	571.3	incongruent	Block3	incongruent/STIM_005.jpg	99
2178.329	0.492	492.0	incongruent	Block3	incongruent/STIM_005.jpg	99
2182.61	0.45	449.5	incongruent	Block3	incongruent/STIM_005.jpg	100
2186.775	0.302	302.5	incongruent	Block3	incongruent/STIM_005.jpg	99
2190.027	0.547	546.7	incongruent	Block3	incongruent/STIM_006.jpg	99
2192.638	0.525	525.1	incongruent	Block3	incongruent/STIM_006.jpg	99
2195.898	0.357	356.7	incongruent	Block3	incongruent/STIM_006.jpg	99
2198.86	0.611	610.6	incongruent	Block3	incongruent/STIM_006.jpg	99
2202.826	0.356	355.5	incongruent	Block3	incongruent/STIM_006.jpg	99
2206.433	0.383	383.3	incongruent	Block3	incongruent/STIM_007.jpg	100
2208.912	0.412	412.1	incongruent	Block3	incongruent/STIM_007.jpg	99
2211.929	0.291	290.9	incongruent	Block3	incongruent/STIM_007.jpg	99
2215.59	0.53	530.3	incongruent	Block3	incongruent/STIM_007.jpg	100
2219.675	0.415	414.9	incongruent	Block3	incongruent/STIM_007.jpg	99
2223.919	0.471	470.9	incongruent	Block3	incongruent/STIM_008.jpg	100
2227.392	0.462	462.2	incongruent	Block3	incongruent/STIM_008.jpg	100
2231.605	0.356	355.5	incongruent	Block3	incongruent/STIM_008.jpg	100
2235.54	0.329	329.4	incongruent	Block3	incongruent/STIM_008.jpg	100
2238.427	0.573	573.2	incongruent	Block3	incongruent/STIM_008.jpg	100
2241.237	0.403	403.2	incongruent	Block3	incongruent/STIM_009.jpg	99
2244.675	0.372	372.5	incongruent	Block3	incongruent/STIM_009.jpg	100
2248.535	0.302	302.5	incongruent	Block3	incongruent/STIM_009.jpg	99
2252.606	0.578	578.5	incongruent	Block3	incongruent/STIM_009.jpg	100
2256.344	0.478	477.7	incongruent	Block3	incongruent/STIM_009.jpg	99
2260.778	0.348	348.2	incongruent	Block3	incongruent/STIM_010.jpg	99
2263.439	0.424	424.5	incongruent	Block3	incongruent/STIM_010.jpg	99
2266.332	0.483	483.4	incongruent	Block3	incongruent/STIM_010.jpg	100
2269.759	0.432	432.5	incongruent	Block3	incongruent/STIM_010.jpg	99
2273.776	0.453	453.4	incongruent	Block3	incongruent/STIM_010.jpg	100
2277.023	0.58	580.3	incongruent	Block3	incongruent/STIM_011.jpg	99
2280.886	0.408	407.8	incongruent	Block3	incongruent/STIM_011.jpg	100
2283.454	0.551	551.0	incongruent	Block3	incongruent/STIM_011.jpg	99
2286.928	0.582	581.5	incongruent	Block3	incongruent/STIM_011.jpg	100
2290.829	0.311	310.8	incongruent	Block3	incongruent/STIM_011.jpg	99
2295.055	0.404	403.6	incongruent	Block3	incongruent/STIM_012.jpg	100
2297.985	0.342	342.2	incongruent	Block3	incongruent/STIM_012.jpg	100
2301.555	0.384	384.2	incongruent	Block3	incongruent/STIM_012.jpg	100
2305.729	0.507	506.9	incongruent	Block3	incongruent/STIM_012.jpg	100
2308.716	0.411	410.7	incongruent	Block3	incongruent/STIM_012.jpg	99
2312.518	0.592	592.5	incongruent	Block3	incongruent/STIM_013.jpg	100
2316.282	0.287	286.9	incongruent	Block3	incongruent/STIM_013.jpg	99
2320.273	0.363	362.8	incongruent	Block3	incongruent/STIM_013.jpg	100
2322.899	0.411	410.8	incongruent	Block3	incongruent/STIM_013.jpg	99
2325.598	0.574	574.3	incongruent	Block3	incongruent/STIM_013.jpg	99
2329.972	0.49	490.4	incongruent	Block3	incongruent/STIM_014.jpg	99
2334.335	0.459	458.8	incongruent	Block3	incongruent/STIM_014.jpg	100
2337.814	0.515	514.8	incongruent	Block3	incongruent/STIM_014.jpg	100
2341.275	0.351	351.2	incongruent	Block3	incongruent/STIM_014.jpg	99
2345.189	0.558	557.7	incongruent	Block3	incongruent/STIM_014.jpg	99
2349.344	0.61	610.3	incongruent	Block3	incongruent/STIM_015.jpg	100
2352.402	0.345	345.3	incongruent	Block3	incongruent/STIM_015.jpg	99
2355.013	0.509	509.3	incongruent	Block3	incongruent/STIM_015.jpg	100
2357.673	0.555	554.6	incongruent	Block3	incongruent/STIM_015.jpg	100
2361.228	0.481	480.6	incongruent	Block3	incongruent/STIM_015.jpg	99
2365.158	0.479	479.2	incongruent	Block3	incongruent/STIM_016.jpg	100
2368.917	0.57	569.6	incongruent	Block3	incongruent/STIM_016.jpg	99
2373.02	0.377	377.1	incongruent	Block3	incongruent/STIM_016.jpg	99
2376.782	0.43	429.6	incongruent	Block3	incongruent/STIM_016.jpg	100
2380.173	0.43	429.9	incongruent	Block3	incongruent/STIM_016.jpg	100
2382.767	0.289	289.3	incongruent	Block3	incongruent/STIM_017.jpg	99
2385.204	0.53	529.7	incongruent	Block3	incongruent/STIM_017.jpg	100
2388.678	0.39	390.1	incongruent	Block3	incongruent/STIM_017.jpg	100
2392.838	0.533	533.4	incongruent	Block3	incongruent/STIM_017.jpg	100
2396.926	0.556	556.0	incongruent	Block3	incongruent/STIM_017.jpg	100
2399.973	0.343	342.9	incongruent	Block3	incongruent/STIM_018.jpg	100
2403.945	0.382	382.2	incongruent	Block3	incongruent/STIM_018.jpg	99
2407.114	0.293	292.8	incongruent	Block3	incongruent/STIM_018.jpg	99
2411.08	0.605	605.3	incongruent	Block3	incongruent/STIM_018.jpg	99
2415.289	0.309	309.3	incongruent	Block3	incongruent/STIM_018.jpg	100
2419.15	0.551	550.8	incongruent	Block3	incongruent/STIM_019.jpg	99
2422.235	0.323	322.6	incongruent	Block3	incongruent/STIM_019.jpg	100
2424.806	0.608	608.1	incongruent	Block3	incongruent/STIM_019.jpg	99
2427.493	0.508	507.9	incongruent	Block3	incongruent/STIM_019.jpg	100
2431.114	0.304	303.7	incongruent	Block3	incongruent/STIM_019.jpg	99
2434.53	0.515	514.9	incongruent	Block3	incongruent/STIM_020.jpg	99
2438.713	0.444	444.1	incongruent	Block3	incongruent/STIM_020.jpg	100
2441.315	0.575	575.4	incongruent	Block3	incongruent/STIM_020.jpg	99
2444.164	0.494	493.5	incongruent	Block3	incongruent/STIM_020.jpg	99
2446.709	0.59	589.7	incongruent	Block3	incongruent/STIM_020.jpg	99
2450.383	0.305	304.7	incongruent	Block3	incongruent/STIM_021.jpg	100
2453.417	0.389	389.4	incongruent	Block3	incongruent/STIM_021.jpg	100
2457.194	0.557	556.9	incongruent	Block3	incongruent/STIM_021.jpg	100
2460.003	0.566	566.4	incongruent	Block3	incongruent/STIM_021.jpg	100
2464.497	0.367	366.8	incongruent	Block3	incongruent/STIM_021.jpg	99
2467.01	0.505	505.1	incongruent	Block3	incongruent/STIM_022.jpg	100
2471.321	0.342	342.1	incongruent	Block3	incongruent/STIM_022.jpg	99
2474.051	0.552	551.7	incongruent	Block3	incongruent/STIM_022.jpg	99
2478.082	0.307	306.6	incongruent	Block3	incongruent/STIM_022.jpg	99
2481.257	0.484	484.4	incongruent	Block3	incongruent/STIM_022.jpg	100
2484.162	0.507	507.0	incongruent	Block3	incongruent/STIM_023.jpg	99
2486.9	0.414	414.4	incongruent	Block3	incongruent/STIM_023.jpg	99
2491.011	0.434	434.5	incongruent	Block3	incongruent/STIM_023.jpg	100
2493.855	0.534	534.4	incongruent	Block3	incongruent/STIM_023.jpg	99
2498.027	0.525	525.3	incongruent	Block3	incongruent/STIM_023.jpg	99
2502.276	0.331	331.3	incongruent	Block3	incongruent/STIM_024.jpg	99
2504.908	0.321	320.6	incongruent	Block3	incongruent/STIM_024.jpg	99
2507.844	0.299	298.7	incongruent	Block3	incongruent/STIM_024.jpg	100
2510.74	0.45	450.2	incongruent	Block3	incongruent/STIM_024.jpg	100
2514.226	0.405	404.8	incongruent	Block3	incongruent/STIM_024.jpg	99
2517.052	0.594	594.0	incongruent	Block3	incongruent/STIM_025.jpg	100
2520.498	0.594	593.5	incongruent	Block3	incongruent/STIM_025.jpg	100
2523.482	0.357	357.4	incongruent	Block3	incongruent/STIM_025.jpg	99
2527.368	0.436	436.0	incongruent	Block3	incongruent/STIM_025.jpg	99
2531.712	0.342	342.1	incongruent	Block3	incongruent/STIM_025.jpg	99
2534.326	0.359	359.0	incongruent	Block3	incongruent/STIM_026.jpg	99
2537.584	0.326	325.9	incongruent	Block3	incongruent/STIM_026.jpg	99
2540.307	0.544	544.5	incongruent	Block3	incongruent/STIM_026.jpg	100
2543.853	0.33	329.8	incongruent	Block3	incongruent/STIM_026.jpg	99
2546.575	0.485	485.4	incongruent	Block3	incongruent/STIM_026.jpg	100
2550.241	0.484	483.9	incongruent	Block3	incongruent/STIM_027.jpg	100
2553.543	0.551	551.3	incongruent	Block3	incongruent/STIM_027.jpg	99
2556.664	0.569	569.3	incongruent	Block3	incongruent/STIM_027.jpg	99
2561.056	0.594	594.1	incongruent	Block3	incongruent/STIM_027.jpg	99
2564.317	0.448	447.6	incongruent	Block3	incongruent/STIM_027.jpg	100
2567.766	0.348	347.5	incongruent	Block3	incongruent/STIM_028.jpg	99
2570.243	0.605	605.0	incongruent	Block3	incongruent/STIM_028.jpg	100
2574.22	0.417	417.4	incongruent	Block3	incongruent/STIM_028.jpg	99
2578.005	0.485	485.1	incongruent	Block3	incongruent/STIM_028.jpg	99
2581.328	0.47	470.0	incongruent	Block3	incongruent/STIM_028.jpg	100
2584.828	0.522	521.8	incongruent	Block3	incongruent/STIM_029.jpg	99
2588.69	0.518	517.8	incongruent	Block3	incongruent/STIM_029.jpg	99
2591.729	0.484	483.8	incongruent	Block3	incongruent/STIM_029.jpg	100
2596.143	0.342	342.4	incongruent	Block3	incongruent/STIM_029.jpg	99
2599.1	0.473	473.4	incongruent	Block3	incongruent/STIM_029.jpg	100
2601.645	0.451	450.6	congruent	Block3	congruent/STIM_000.jpg	99
2605.925	0.513	512.7	congruent	Block3	congruent/STIM_000.jpg	99
2609.488	0.465	465.2	congruent	Block3	congruent/STIM_000.jpg	100
2612.851	0.374	373.9	congruent	Block3	congruent/STIM_000.jpg	100
2615.79	0.398	397.9	congruent	Block3	congruent/STIM_000.jpg	99
2619.752	0.349	349.4	congruent	Block3	congruent/STIM_001.jpg	100
2622.926	0.447	447.3	congruent	Block3	congruent/STIM_001.jpg	100
2626.227	0.512	512.5	congruent	Block3	congruent/STIM_001.jpg	99
2629.489	0.386	386.4	congruent	Block3	congruent/STIM_001.jpg	100
2632.194	0.324	324.1	congruent	Block3	congruent/STIM_001.jpg	100
2635.647	0.519	519.0	congruent	Block3	congruent/STIM_002.jpg	100
2638.871	0.355	355.4	congruent	Block3	congruent/STIM_002.jpg	99
2641.341	0.478	477.7	congruent	Block3	congruent/STIM_002.jpg	100
2644.978	0.352	351.5	congruent	Block3	congruent/STIM_002.jpg	99
2649.179	0.296	295.9	congruent	Block3	congruent/STIM_002.jpg	99
2652.013	0.356	355.7	congruent	Block3	congruent/STIM_003.jpg	100
2655.132	0.467	467.0	congruent	Block3	congruent/STIM_003.jpg	99
2659.059	0.452	451.6	congruent	Block3	congruent/STIM_003.jpg	99
2661.527	0.468	468.4	congruent	Block3	congruent/STIM_003.jpg	99
2664.416	0.324	323.5	congruent	Block3	congruent/STIM_003.jpg	99
2667.018	0.296	296.2	congruent	Block3	congruent/STIM_004.jpg	99
2670.39	0.445	445.1	congruent	Block3	congruent/STIM_004.jpg	100
2673.148	0.494	493.5	congruent	Block3	congruent/STIM_004.jpg	99
2677.632	0.408	407.7	congruent	Block3	congruent/STIM_004.jpg	99
2680.074	0.33	330.1	congruent	Block3	congruent/STIM_004.jpg	99
2683.453	0.435	435.0	congruent	Block3	congruent/STIM_005.jpg	99
2686.446	0.339	339.3	congruent	Block3	congruent/STIM_005.jpg	100
2688.789	0.505	505.1	congruent	Block3	congruent/STIM_005.jpg	100
2692.538	0.468	467.5	congruent	Block3	congruent/STIM_005.jpg	100
2696.706	0.503	503.0	congruent	Block3	congruent/STIM_005.jpg	99
2699.583	0.291	291.2	congruent	Block3	congruent/STIM_006.jpg	99
2703.199	0.441	440.9	congruent	Block3	congruent/STIM_006.jpg	99
2706.185	0.39	389.8	congruent	Block3	congruent/STIM_006.jpg	99
2709.342	0.302	302.1	congruent	Block3	congruent/STIM_006.jpg	100
2712.626	0.395	395.1	congruent	Block3	congruent/STIM_006.jpg	99
2715.126	0.356	355.5	congruent	Block3	congruent/STIM_007.jpg	99
2718.216	0.334	333.7	congruent	Block3	congruent/STIM_007.jpg	99
2721.735	0.358	358.3	congruent	Block3	congruent/STIM_007.jpg	99
2724.864	0.409	408.8	congruent	Block3	congruent/STIM_007.jpg	100
2728.64	0.422	422.5	congruent	Block3	congruent/STIM_007.jpg	99
2731.94	0.308	307.7	congruent	Block3	congruent/STIM_008.jpg	100
2734.301	0.446	446.0	congruent	Block3	congruent/STIM_008.jpg	100
2736.762	0.437	437.2	congruent	Block3	congruent/STIM_008.jpg	100
2740.634	0.451	450.9	congruent	Block3	congruent/STIM_008.jpg	99
2743.296	0.388	387.5	congruent	Block3	congruent/STIM_008.jpg	100
2747.621	0.426	426.5	congruent	Block3	congruent/STIM_009.jpg	100
2750.956	0.387	387.3	congruent	Block3	congruent/STIM_009.jpg	100
2755.046	0.507	506.8	congruent	Block3	congruent/STIM_009.jpg	100
2759.43	0.473	473.1	congruent	Block3	congruent/STIM_009.jpg	99
2762.687	0.511	511.4	congruent	Block3	congruent/STIM_009.jpg	100
2766.531	0.345	344.6	congruent	Block3	congruent/STIM_010.jpg	99
2769.532	0.482	482.4	congruent	Block3	congruent/STIM_010.jpg	100
2772.893	0.461	460.9	congruent	Block3	congruent/STIM_010.jpg	100
2775.709	0.314	314.0	congruent	Block3	congruent/STIM_010.jpg	100
2779.5	0.359	358.9	congruent	Block3	congruent/STIM_010.jpg	99
2782.031	0.358	357.6	congruent	Block3	congruent/STIM_011.jpg	100
2786.074	0.453	452.8	congruent	Block3	congruent/STIM_011.jpg	100
2789.885	0.5	500.2	congruent	Block3	congruent/STIM_011.jpg	100
2793.502	0.485	485.3	congruent	Block3	congruent/STIM_011.jpg	99
2797.172	0.424	424.5	congruent	Block3	congruent/STIM_011.jpg	99
2799.75	0.327	327.3	congruent	Block3	congruent/STIM_012.jpg	100
2802.174	0.328	328.5	congruent	Block3	congruent/STIM_012.jpg	100
2804.623	0.47	470.1	congruent	Block3	congruent/STIM_012.jpg	99
2808.844	0.475	474.9	congruent	Block3	congruent/STIM_012.jpg	99
2812.361	0.46	459.7	congruent	Block3	congruent/STIM_012.jpg	99
2815.785	0.32	320.2	congruent	Block3	congruent/STIM_013.jpg	99
2819.994	0.474	474.5	congruent	Block3	congruent/STIM_013.jpg	99
2824.375	0.452	451.5	congruent	Block3	congruent/STIM_013.jpg	100
2828.497	0.439	438.8	congruent	Block3	congruent/STIM_013.jpg	99
2832.302	0.461	461.4	congruent	Block3	congruent/STIM_013.jpg	100
2834.769	0.411	411.1	congruent	Block3	congruent/STIM_014.jpg	99
2837.701	0.35	350.3	congruent	Block3	congruent/STIM_014.jpg	100
2840.222	0.417	417.2	congruent	Block3	congruent/STIM_014.jpg	100
2844.102	0.506	506.5	congruent	Block3	congruent/STIM_014.jpg	99
2847.201	0.404	403.8	congruent	Block3	congruent/STIM_014.jpg	100
2850.566	0.425	424.8	congruent	Block3	congruent/STIM_015.jpg	99
2853.724	0.301	301.1	congruent	Block3	congruent/STIM_015.jpg	100
2856.07	0.377	376.8	congruent	Block3	congruent/STIM_015.jpg	100
2858.655	0.299	298.7	congruent	Block3	congruent/STIM_015.jpg	99
2862.348	0.421	421.2	congruent	Block3	congruent/STIM_015.jpg	100
2865.348	0.431	431.0	congruent	Block3	congruent/STIM_016.jpg	100
2868.614	0.305	305.0	congruent	Block3	congruent/STIM_016.jpg	100
2872.532	0.464	464.0	congruent	Block3	congruent/STIM_016.jpg	100
2876.284	0.365	364.9	congruent	Block3	congruent/STIM_016.jpg	99
2880.389	0.433	433.0	congruent	Block3	congruent/STIM_016.jpg	100
2883.54	0.454	454.2	congruent	Block3	congruent/STIM_017.jpg	99
2886.0	0.407	406.8	congruent	Block3	congruent/STIM_017.jpg	99
2888.733	0.508	508.5	congruent	Block3	congruent/STIM_017.jpg	100
2891.884	0.312	311.9	congruent	Block3	congruent/STIM_017.jpg	99
2895.864	0.335	334.9	congruent	Block3	congruent/STIM_017.jpg	100
2898.873	0.385	385.3	congruent	Block3	congruent/STIM_018.jpg	99
2902.672	0.498	498.2	congruent	Block3	congruent/STIM_018.jpg	99
2905.917	0.361	361.2	congruent	Block3	congruent/STIM_018.jpg	100
2909.563	0.414	414.3	congruent	Block3	congruent/STIM_018.jpg	99
2912.141	0.399	399.0	congruent	Block3	congruent/STIM_018.jpg	100
2916.261	0.478	478.3	congruent	Block3	congruent/STIM_019.jpg	99
2919.136	0.309	309.1	congruent	Block3	congruent/STIM_019.jpg	99
2922.754	0.304	304.0	congruent	Block3	congruent/STIM_019.jpg	99
2926.119	0.472	471.7	congruent	Block3	congruent/STIM_019.jpg	99
2929.508	0.412	411.7	congruent	Block3	congruent/STIM_019.jpg	99
2932.207	0.304	304.0	congruent	Block3	congruent/STIM_020.jpg	100
2935.19	0.317	317.2	congruent	Block3	congruent/STIM_020.jpg	100
2937.899	0.306	306.3	congruent	Block3	congruent/STIM_020.jpg	100
2940.274	0.459	459.3	congruent	Block3	congruent/STIM_020.jpg	99
2943.44	0.418	417.9	congruent	Block3	congruent/STIM_020.jpg	100
2947.728	0.503	502.8	congruent	Block3	congruent/STIM_021.jpg	99
2951.37	0.402	402.1	congruent	Block3	congruent/STIM_021.jpg	100
2955.06	0.428	427.9	congruent	Block3	congruent/STIM_021.jpg	100
2958.74	0.339	338.6	congruent	Block3	congruent/STIM_021.jpg	100
2961.824	0.458	457.9	congruent	Block3	congruent/STIM_021.jpg	99
2965.4	0.387	387.0	congruent	Block3	congruent/STIM_022.jpg	100
2967.985	0.402	402.3	congruent	Block3	congruent/STIM_022.jpg	99
2971.565	0.523	522.6	congruent	Block3	congruent/STIM_022.jpg	99
2974.986	0.403	402.6	congruent	Block3	congruent/STIM_022.jpg	100
2978.597	0.515	514.6	congruent	Block3	congruent/STIM_022.jpg	100
2982.3	0.478	477.9	congruent	Block3	congruent/STIM_023.jpg	99
2984.979	0.418	418.4	congruent	Block3	congruent/STIM_023.jpg	99
2989.007	0.441	440.7	congruent	Block3	congruent/STIM_023.jpg	100
2991.787	0.485	484.9	congruent	Block3	congruent/STIM_023.jpg	99
2994.605	0.482	481.6	congruent	Block3	congruent/STIM_023.jpg	99
2998.041	0.521	520.9	congruent	Block3	congruent/STIM_024.jpg	100
3001.556	0.454	453.8	congruent	Block3	congruent/STIM_024.jpg	100
3005.235	0.476	476.2	congruent	Block3	congruent/STIM_024.jpg	99
3008.168	0.322	321.5	congruent	Block3	congruent/STIM_024.jpg	100
3011.104	0.386	385.5	congruent	Block3	congruent/STIM_024.jpg	100
3015.393	0.422	422.2	congruent	Block3	congruent/STIM_025.jpg	100
3018.589	0.299	299.1	congruent	Block3	congruent/STIM_025.jpg	100
3021.054	0.355	354.8	congruent	Block3	congruent/STIM_025.jpg	100
3023.974	0.379	379.0	congruent	Block3	congruent/STIM_025.jpg	99
3026.509	0.504	503.6	congruent	Block3	congruent/STIM_025.jpg	100
3029.914	0.325	324.9	congruent	Block3	congruent/STIM_026.jpg	99
3033.475	0.415	415.1	congruent	Block3	congruent/STIM_026.jpg	100
3037.483	0.419	418.9	congruent	Block3	congruent/STIM_026.jpg	100
3040.941	0.36	360.2	congruent	Block3	congruent/STIM_026.jpg	100
3043.691	0.519	519.1	congruent	Block3	congruent/STIM_026.jpg	100
3047.298	0.347	346.6	congruent	Block3	congruent/STIM_027.jpg	100
3050.809	0.493	493.2	congruent	Block3	congruent/STIM_027.jpg	99
3053.36	0.347	347.3	congruent	Block3	congruent/STIM_027.jpg	99
3056.331	0.417	417.3	congruent	Block3	congruent/STIM_027.jpg	99
3059.608	0.333	333.4	congruent	Block3	congruent/STIM_027.jpg	100
3062.076	0.302	302.0	congruent	Block3	congruent/STIM_028.jpg	100
3064.674	0.418	418.0	congruent	Block3	congruent/STIM_028.jpg	100
3069.078	0.418	418.4	congruent	Block3	congruent/STIM_028.jpg	99
3071.922	0.475	475.4	congruent	Block3	congruent/STIM_028.jpg	99
3074.435	0.522	522.5	congruent	Block3	congruent/STIM_028.jpg	100
3078.502	0.301	301.1	congruent	Block3	congruent/STIM_029.jpg	100
3081.125	0.311	310.8	congruent	Block3	congruent/STIM_029.jpg	99
3083.819	0.385	384.7	congruent	Block3	congruent/STIM_029.jpg	100
3087.857	0.465	465.4	congruent	Block3	congruent/STIM_029.jpg	100
3091.115	0.416	415.8	congruent	Block3	congruent/STIM_029.jpg	100
