onset	duration	response_time_ms	trial_type	learning_stage	stimulus	response_port
0.0	1.141	1140.8	incongruent	Block1	incongruent/STIM_000.jpg	99
4.204	0.752	751.8	incongruent	Block1	incongruent/STIM_000.jpg	99
7.759	0.751	751.3	incongruent	Block1	incongruent/STIM_000.jpg	99
11.419	0.648	648.3	incongruent	Block1	incongruent/STIM_000.jpg	100
15.097	0.925	925.4	incongruent	Block1	incongruent/STIM_000.jpg	100
19.428	1.609	1608.9	incongruent	Block1	incongruent/STIM_001.jpg	100
24.665	0.912	911.9	incongruent	Block1	incongruent/STIM_001.jpg	99
27.542	1.418	1418.0	incongruent	Block1	incongruent/STIM_001.jpg	99
31.137	1.026	1025.6	incongruent	Block1	incongruent/STIM_001.jpg	99
35.114	0.63	629.8	incongruent	Block1	incongruent/STIM_001.jpg	99
39.375	0.974	973.7	incongruent	Block1	incongruent/STIM_002.jpg	100
42.999	0.936	935.9	incongruent	Block1	incongruent/STIM_002.jpg	100
47.672	0.703	702.7	incongruent	Block1	incongruent/STIM_002.jpg	99
51.841	1.196	1195.5	incongruent	Block1	incongruent/STIM_002.jpg	100
56.183	0.839	839.4	incongruent	Block1	incongruent/STIM_002.jpg	100
59.993	1.285	1285.4	incongruent	Block1	incongruent/STIM_003.jpg	99
64.91	1.47	1469.5	incongruent	Block1	incongruent/STIM_003.jpg	99
68.516	0.717	716.9	incongruent	Block1	incongruent/STIM_003.jpg	99
73.041	1.335	1334.9	incongruent	Block1	incongruent/STIM_003.jpg	99
76.731	0.676	676.3	incongruent	Block1	incongruent/STIM_003.jpg	99
79.724	0.947	946.6	incongruent	Block1	incongruent/STIM_004.jpg	100
83.748	1.194	1194.4	incongruent	Block1	incongruent/STIM_004.jpg	100
87.93	1.444	1444.2	incongruent	Block1	incongruent/STIM_004.jpg	99
92.836	1.091	1090.7	incongruent	Block1	incongruent/STIM_004.jpg	99
96.004	0.947	947.3	incongruent	Block1	incongruent/STIM_004.jpg	99
99.622	1.35	1349.8	incongruent	Block1	incongruent/STIM_005.jpg	100
104.793	0.87	869.8	incongruent	Block1	incongruent/STIM_005.jpg	99
109.354	0.799	798.8	incongruent	Block1	incongruent/STIM_005.jpg	100
112.97	0.689	688.8	incongruent	Block1	incongruent/STIM_005.jpg	99
115.729	0.725	724.9	incongruent	Block1	incongruent/STIM_005.jpg	100
119.566	0.866	866.5	incongruent	Block1	incongruent/STIM_006.jpg	99
122.611	1.316	1315.5	incongruent	Block1	incongruent/STIM_006.jpg	100
126.132	1.251	1250.9	incongruent	Block1	incongruent/STIM_006.jpg	100
130.578	0.947	947.0	incongruent	Block1	incongruent/STIM_006.jpg	99
133.626	1.281	1280.7	incongruent	Block1	incongruent/STIM_006.jpg	100
137.401	1.13	1129.6	incongruent	Block1	incongruent/STIM_007.jpg	99
142.371	1.441	1441.0	incongruent	Block1	incongruent/STIM_007.jpg	100
146.631	1.198	1197.9	incongruent	Block1	incongruent/STIM_007.jpg	100
150.845	0.859	858.9	incongruent	Block1	incongruent/STIM_007.jpg	100
155.373	1.268	1268.1	incongruent	Block1	incongruent/STIM_007.jpg	100
159.364	0.956	956.0	incongruent	Block1	incongruent/STIM_008.jpg	100
162.308	0.948	948.3	incongruent	Block1	incongruent/STIM_008.jpg	99
166.236	1.2	1200.5	incongruent	Block1	incongruent/STIM_008.jpg	99
169.559	0.861	861.4	incongruent	Block1	incongruent/STIM_008.jpg	99
172.549	0.686	685.8	incongruent	Block1	incongruent/STIM_008.jpg	99
177.174	1.123	1123.1	incongruent	Block1	incongruent/STIM_009.jpg	99
181.826	1.358	1358.4	incongruent	Block1	incongruent/STIM_009.jpg	100
186.873	0.733	732.8	incongruent	Block1	incongruent/STIM_009.jpg	100
190.865	1.122	1122.5	incongruent	Block1	incongruent/STIM_009.jpg	100
194.67	1.185	1184.7	incongruent	Block1	incongruent/STIM_009.jpg	100
199.074	0.961	961.3	incongruent	Block1	incongruent/STIM_010.jpg	99
203.144	0.775	774.7	incongruent	Block1	incongruent/STIM_010.jpg	99
206.254	1.337	1336.7	incongruent	Block1	incongruent/STIM_010.jpg	100
210.8	0.873	873.4	incongruent	Block1	incongruent/STIM_010.jpg	99
214.355	1.22	1219.5	incongruent	Block1	incongruent/STIM_010.jpg	100
218.26	1.589	1588.7	incongruent	Block1	incongruent/STIM_011.jpg	100
223.02	1.338	1337.8	incongruent	Block1	incongruent/STIM_011.jpg	99
227.222	0.9	899.6	incongruent	Block1	incongruent/STIM_011.jpg	100
231.18	1.227	1226.8	incongruent	Block1	incongruent/STIM_011.jpg	100
234.439	1.288	1287.6	incongruent	Block1	incongruent/STIM_011.jpg	100
239.458	0.999	999.4	incongruent	Block1	incongruent/STIM_012.jpg	100
243.235	1.499	1499.3	incongruent	Block1	incongruent/STIM_012.jpg	99
248.431	1.145	1144.6	incongruent	Block1	incongruent/STIM_012.jpg	100
252.974	0.67	669.6	incongruent	Block1	incongruent/STIM_012.jpg	100
256.623	0.982	981.5	incongruent	Block1	incongruent/STIM_012.jpg	100
260.105	1.48	1480.2	incongruent	Block1	incongruent/STIM_013.jpg	99
265.058	0.936	935.6	incongruent	Block1	incongruent/STIM_013.jpg	99
268.177	1.45	1450.2	incongruent	Block1	incongruent/STIM_013.jpg	100
273.064	0.782	781.5	incongruent	Block1	incongruent/STIM_013.jpg	100
277.692	1.136	1135.7	incongruent	Block1	incongruent/STIM_013.jpg	100
281.146	1.55	1549.5	incongruent	Block1	incongruent/STIM_014.jpg	99
284.595	1.42	1419.9	incongruent	Block1	incongruent/STIM_014.jpg	100
288.295	0.973	973.2	incongruent	Block1	incongruent/STIM_014.jpg	99
292.179	1.169	1168.6	incongruent	Block1	incongruent/STIM_014.jpg	99
296.806	0.791	790.6	incongruent	Block1	incongruent/STIM_014.jpg	99
300.985	1.203	1203.3	incongruent	Block1	incongruent/STIM_015.jpg	100
305.255	1.308	1307.9	incongruent	Block1	incongruent/STIM_015.jpg	99
309.242	1.41	1410.2	incongruent	Block1	incongruent/STIM_015.jpg	99
313.139	0.984	983.5	incongruent	Block1	incongruent/STIM_015.jpg	99
317.95	0.653	652.8	incongruent	Block1	incongruent/STIM_015.jpg	99
321.293	0.984	984.4	incongruent	Block1	incongruent/STIM_016.jpg	100
324.292	0.859	858.8	incongruent	Block1	incongruent/STIM_016.jpg	99
327.158	0.97	969.6	incongruent	Block1	incongruent/STIM_016.jpg	100
331.459	1.344	1344.2	incongruent	Block1	incongruent/STIM_016.jpg	99
335.1	1.142	1142.1	incongruent	Block1	incongruent/STIM_016.jpg	99
338.912	0.908	907.6	incongruent	Block1	incongruent/STIM_017.jpg	99
343.395	1.119	1119.2	incongruent	Block1	incongruent/STIM_017.jpg	99
347.722	1.226	1226.3	incongruent	Block1	incongruent/STIM_017.jpg	99
351.093	1.298	1297.9	incongruent	Block1	incongruent/STIM_017.jpg	99
355.228	0.941	940.7	incongruent	Block1	incongruent/STIM_017.jpg	100
359.271	1.49	1490.3	incongruent	Block1	incongruent/STIM_018.jpg	100
364.051	1.214	1214.5	incongruent	Block1	incongruent/STIM_018.jpg	99
368.784	0.92	919.6	incongruent	Block1	incongruent/STIM_018.jpg	100
373.225	1.069	1069.4	incongruent	Block1	incongruent/STIM_018.jpg	99
376.379	1.059	1058.7	incongruent	Block1	incongruent/STIM_018.jpg	99
380.142	1.321	1321.3	incongruent	Block1	incongruent/STIM_019.jpg	99
385.156	1.304	1303.8	incongruent	Block1	incongruent/STIM_019.jpg	100
388.771	1.294	1293.8	incongruent	Block1	incongruent/STIM_019.jpg	100
393.168	0.95	949.7	incongruent	Block1	incongruent/STIM_019.jpg	99
397.156	0.857	856.6	incongruent	Block1	incongruent/STIM_019.jpg	99
400.511	1.575	1575.2	incongruent	Block1	incongruent/STIM_020.jpg	100
405.82	1.325	1324.7	incongruent	Block1	incongruent/STIM_020.jpg	99
409.071	1.398	1397.8	incongruent	Block1	incongruent/STIM_020.jpg	100
414.278	0.665	665.3	incongruent	Block1	incongruent/STIM_020.jpg	99
417.366	1.041	1040.7	incongruent	Block1	incongruent/STIM_020.jpg	100
420.696	1.41	1409.9	incongruent	Block1	incongruent/STIM_021.jpg	100
424.275	1.388	1387.7	incongruent	Block1	incongruent/STIM_021.jpg	99
428.525	0.978	978.5	incongruent	Block1	incongruent/STIM_021.jpg	100
431.846	1.332	1331.8	incongruent	Block1	incongruent/STIM_021.jpg	100
436.464	0.876	875.9	incongruent	Block1	incongruent/STIM_021.jpg	100
440.484	1.284	1283.5	incongruent	Block1	incongruent/STIM_022.jpg	99
443.898	1.162	1162.4	incongruent	Block1	incongruent/STIM_022.jpg	99
447.755	1.458	1458.4	incongruent	Block1	incongruent/STIM_022.jpg	99
452.099	1.373	1372.6	incongruent	Block1	incongruent/STIM_022.jpg	100
457.261	1.147	1146.8	incongruent	Block1	incongruent/STIM_022.jpg	99
462.131	1.567	1567.0	incongruent	Block1	incongruent/STIM_023.jpg	100
466.635	1.063	1062.6	incongruent	Block1	incongruent/STIM_023.jpg	100
469.746	0.737	736.7	incongruent	Block1	incongruent/STIM_023.jpg	99
473.218	0.814	813.5	incongruent	Block1	incongruent/STIM_023.jpg	99
477.921	0.723	723.2	incongruent	Block1	incongruent/STIM_023.jpg	99
482.248	0.8	799.6	incongruent	Block1	incongruent/STIM_024.jpg	99
486.395	0.965	965.1	incongruent	Block1	incongruent/STIM_024.jpg	100
491.185	1.322	1321.9	incongruent	Block1	incongruent/STIM_024.jpg	100
494.752	1.106	1106.3	incongruent	Block1	incongruent/STIM_024.jpg	100
499.434	0.761	760.7	incongruent	Block1	incongruent/STIM_024.jpg	100
504.088	1.51	1509.5	incongruent	Block1	incongruent/STIM_025.jpg	100
508.816	1.239	1239.1	incongruent	Block1	incongruent/STIM_025.jpg	99
511.97	0.701	701.4	incongruent	Block1	incongruent/STIM_025.jpg	100
516.584	1.341	1341.4	incongruent	Block1	incongruent/STIM_025.jpg	99
520.675	1.243	1243.4	incongruent	Block1	incongruent/STIM_025.jpg	100
523.961	1.122	1122.3	incongruent	Block1	incongruent/STIM_026.jpg	100
528.488	0.983	983.4	incongruent	Block1	incongruent/STIM_026.jpg	100
531.858	1.181	1180.7	incongruent	Block1	incongruent/STIM_026.jpg	100
535.798	1.286	1285.9	incongruent	Block1	incongruent/STIM_026.jpg	100
540.823	0.79	790.1	incongruent	Block1	incongruent/STIM_026.jpg	100
544.274	1.298	1298.0	incongruent	Block1	incongruent/STIM_027.jpg	99
547.59	0.996	996.5	incongruent	Block1	incongruent/STIM_027.jpg	100
551.702	1.468	1467.5	incongruent	Block1	incongruent/STIM_027.jpg	99
555.323	0.673	672.8	incongruent	Block1	incongruent/STIM_027.jpg	99
559.67	0.654	654.4	incongruent	Block1	incongruent/STIM_027.jpg	99
562.914	1.259	1259.3	incongruent	Block1	incongruent/STIM_028.jpg	100
567.889	0.971	971.4	incongruent	Block1	incongruent/STIM_028.jpg	100
571.801	0.826	825.8	incongruent	Block1	incongruent/STIM_028.jpg	100
575.034	1.367	1366.8	incongruent	Block1	incongruent/STIM_028.jpg	99
578.905	0.729	729.1	incongruent	Block1	incongruent/STIM_028.jpg	100
581.933	0.842	842.4	incongruent	Block1	incongruent/STIM_029.jpg	100
585.912	0.804	803.5	incongruent	Block1	incongruent/STIM_029.jpg	100
589.328	1.386	1386.5	incongruent	Block1	incongruent/STIM_029.jpg	99
593.086	1.286	1286.1	incongruent	Block1	incongruent/STIM_029.jpg	99
597.85	1.036	1036.2	incongruent	Block1	incongruent/STIM_029.jpg	99
602.743	0.781	781.1	congruent	Block1	congruent/STIM_000.jpg	99
606.471	0.705	705.1	congruent	Block1	congruent/STIM_000.jpg	99
609.733	0.948	947.9	congruent	Block1	congruent/STIM_000.jpg	99
613.216	0.939	938.7	congruent	Block1	congruent/STIM_000.jpg	100
616.197	0.934	933.6	congruent	Block1	congruent/STIM_000.jpg	100
619.671	0.907	907.3	congruent	Block1	congruent/STIM_001.jpg	100
622.791	0.697	697.0	congruent	Block1	congruent/STIM_001.jpg	99
625.497	0.917	916.8	congruent	Block1	congruent/STIM_001.jpg	100
629.26	0.657	657.4	congruent	Block1	congruent/STIM_001.jpg	99
631.974	0.646	646.3	congruent	Block1	congruent/STIM_001.jpg	99
634.686	0.929	929.2	congruent	Block1	congruent/STIM_002.jpg	100
637.989	0.852	851.8	congruent	Block1	congruent/STIM_002.jpg	99
641.16	0.905	905.0	congruent	Block1	congruent/STIM_002.jpg	99
645.089	0.847	846.9	congruent	Block1	congruent/STIM_002.jpg	100
649.016	0.604	603.6	congruent	Block1	congruent/STIM_002.jpg	100
652.733	0.649	649.3	congruent	Block1	congruent/STIM_003.jpg	99
656.944	0.662	662.5	congruent	Block1	congruent/STIM_003.jpg	100
660.488	0.815	815.1	congruent	Block1	congruent/STIM_003.jpg	100
665.214	0.963	962.8	congruent	Block1	congruent/STIM_003.jpg	100
668.19	0.563	563.4	congruent	Block1	congruent/STIM_003.jpg	100
670.932	0.841	840.7	congruent	Block1	congruent/STIM_004.jpg	100
675.119	0.668	667.8	congruent	Block1	congruent/STIM_004.jpg	99
679.732	0.914	914.2	congruent	Block1	congruent/STIM_004.jpg	99
682.947	0.699	699.4	congruent	Block1	congruent/STIM_004.jpg	100
687.55	0.77	769.8	congruent	Block1	congruent/STIM_004.jpg	99
690.624	0.766	765.7	congruent	Block1	congruent/STIM_005.jpg	100
695.015	0.559	559.2	congruent	Block1	congruent/STIM_005.jpg	100
698.547	0.779	779.0	congruent	Block1	congruent/STIM_005.jpg	100
703.183	0.857	857.2	congruent	Block1	congruent/STIM_005.jpg	100
706.383	0.971	970.9	congruent	Block1	congruent/STIM_005.jpg	99
710.944	0.545	544.9	congruent	Block1	congruent/STIM_006.jpg	99
714.354	0.791	790.6	congruent	Block1	congruent/STIM_006.jpg	100
718.653	0.604	604.3	congruent	Block1	congruent/STIM_006.jpg	100
722.859	0.592	592.3	congruent	Block1	congruent/STIM_006.jpg	99
725.978	0.808	807.7	congruent	Block1	congruent/STIM_006.jpg	99
729.112	0.629	629.1	congruent	Block1	congruent/STIM_007.jpg	99
732.849	0.735	735.4	congruent	Block1	congruent/STIM_007.jpg	100
737.142	0.799	798.6	congruent	Block1	congruent/STIM_007.jpg	100
740.178	0.895	895.4	congruent	Block1	congruent/STIM_007.jpg	100
744.954	0.904	904.1	congruent	Block1	congruent/STIM_007.jpg	100
748.987	0.656	655.5	congruent	Block1	congruent/STIM_008.jpg	100
752.506	0.954	953.6	congruent	Block1	congruent/STIM_008.jpg	99
756.98	0.964	963.8	congruent	Block1	congruent/STIM_008.jpg	100
760.567	0.934	934.0	congruent	Block1	congruent/STIM_008.jpg	100
763.65	0.58	579.9	congruent	Block1	congruent/STIM_008.jpg	99
768.131	0.813	812.9	congruent	Block1	congruent/STIM_009.jpg	100
772.079	0.553	553.3	congruent	Block1	congruent/STIM_009.jpg	99
775.596	0.899	898.7	congruent	Block1	congruent/STIM_009.jpg	99
779.536	0.924	923.5	congruent	Block1	congruent/STIM_009.jpg	99
783.835	0.68	679.6	congruent	Block1	congruent/STIM_009.jpg	99
786.672	0.592	592.0	congruent	Block1	congruent/STIM_010.jpg	100
789.872	0.804	803.7	congruent	Block1	congruent/STIM_010.jpg	99
793.157	0.717	717.4	congruent	Block1	congruent/STIM_010.jpg	99
796.043	0.816	815.8	congruent	Block1	congruent/STIM_010.jpg	100
799.261	0.855	855.3	congruent	Block1	congruent/STIM_010.jpg	100
803.567	0.6	600.5	congruent	Block1	congruent/STIM_011.jpg	99
807.354	0.809	809.4	congruent	Block1	congruent/STIM_011.jpg	100
810.723	0.648	648.2	congruent	Block1	congruent/STIM_011.jpg	99
814.488	0.568	567.9	congruent	Block1	congruent/STIM_011.jpg	100
818.106	0.546	545.8	congruent	Block1	congruent/STIM_011.jpg	100
820.737	0.766	765.7	congruent	Block1	congruent/STIM_012.jpg	99
825.073	0.574	573.7	congruent	Block1	congruent/STIM_012.jpg	100
828.625	0.622	622.3	congruent	Block1	congruent/STIM_012.jpg	100
831.587	0.883	883.2	congruent	Block1	congruent/STIM_012.jpg	100
835.813	0.92	919.5	congruent	Block1	congruent/STIM_012.jpg	99
839.046	0.904	904.0	congruent	Block1	congruent/STIM_013.jpg	100
843.253	0.576	575.7	congruent	Block1	congruent/STIM_013.jpg	100
847.473	0.834	834.5	congruent	Block1	congruent/STIM_013.jpg	99
851.688	0.752	751.5	congruent	Block1	congruent/STIM_013.jpg	100
855.243	0.694	694.5	congruent	Block1	congruent/STIM_013.jpg	99
858.364	0.949	949.2	congruent	Block1	congruent/STIM_014.jpg	100
862.377	0.73	730.2	congruent	Block1	congruent/STIM_014.jpg	99
866.453	0.863	863.4	congruent	Block1	congruent/STIM_014.jpg	100
869.577	0.919	919.3	congruent	Block1	congruent/STIM_014.jpg	99
873.065	0.794	793.6	congruent	Block1	congruent/STIM_014.jpg	99
877.36	0.883	883.0	congruent	Block1	congruent/STIM_015.jpg	100
880.711	0.807	806.7	congruent	Block1	congruent/STIM_015.jpg	100
883.928	0.918	917.8	congruent	Block1	congruent/STIM_015.jpg	99
888.647	0.658	658.4	congruent	Block1	congruent/STIM_015.jpg	99
891.738	0.709	708.9	congruent	Block1	congruent/STIM_015.jpg	99
894.656	0.764	764.3	congruent	Block1	congruent/STIM_016.jpg	100
898.69	0.882	881.8	congruent	Block1	congruent/STIM_016.jpg	99
903.241	0.922	922.2	congruent	Block1	congruent/STIM_016.jpg	99
906.413	0.674	674.3	congruent	Block1	congruent/STIM_016.jpg	100
909.417	0.81	810.2	congruent	Block1	congruent/STIM_016.jpg	99
913.682	0.954	954.0	congruent	Block1	congruent/STIM_017.jpg	100
916.957	0.899	899.3	congruent	Block1	congruent/STIM_017.jpg	100
921.395	0.902	902.4	congruent	Block1	congruent/STIM_017.jpg	100
924.733	0.894	893.5	congruent	Block1	congruent/STIM_017.jpg	99
928.75	0.772	771.6	congruent	Block1	congruent/STIM_017.jpg	99
932.438	0.567	567.1	congruent	Block1	congruent/STIM_018.jpg	99
936.751	0.878	877.6	congruent	Block1	congruent/STIM_018.jpg	99
940.886	0.896	896.4	congruent	Block1	congruent/STIM_018.jpg	99
945.086	0.753	752.8	congruent	Block1	congruent/STIM_018.jpg	99
948.981	0.781	780.9	congruent	Block1	congruent/STIM_018.jpg	100
952.83	0.93	929.8	congruent	Block1	congruent/STIM_019.jpg	100
956.396	0.649	648.8	congruent	Block1	congruent/STIM_019.jpg	100
959.443	0.567	567.0	congruent	Block1	congruent/STIM_019.jpg	100
963.476	0.634	634.2	congruent	Block1	congruent/STIM_019.jpg	100
967.097	0.602	602.4	congruent	Block1	congruent/STIM_019.jpg	99
971.611	0.701	701.2	congruent	Block1	congruent/STIM_020.jpg	100
975.968	0.959	959.4	congruent	Block1	congruent/STIM_020.jpg	99
979.489	0.602	601.5	congruent	Block1	congruent/STIM_020.jpg	99
982.687	0.602	601.9	congruent	Block1	congruent/STIM_020.jpg	100
986.362	0.553	553.3	congruent	Block1	congruent/STIM_020.jpg	100
990.802	0.728	728.3	congruent	Block1	congruent/STIM_021.jpg	99
993.738	0.696	695.7	congruent	Block1	congruent/STIM_021.jpg	100
997.644	0.785	785.4	congruent	Block1	congruent/STIM_021.jpg	99
1001.026	0.675	674.9	congruent	Block1	congruent/STIM_021.jpg	100
1004.82	0.896	896.2	congruent	Block1	congruent/STIM_021.jpg	100
1008.207	0.859	859.0	congruent	Block1	congruent/STIM_022.jpg	100
1011.13	0.892	891.5	congruent	Block1	congruent/STIM_022.jpg	100
1015.247	0.91	910.0	congruent	Block1	congruent/STIM_022.jpg	99
1018.408	0.735	735.3	congruent	Block1	congruent/STIM_022.jpg	99
1021.124	0.659	658.6	congruent	Block1	congruent/STIM_022.jpg	99
1025.294	0.945	945.1	congruent	Block1	congruent/STIM_023.jpg	99
1028.447	0.576	575.8	congruent	Block1	congruent/STIM_023.jpg	100
1032.259	0.813	812.8	congruent	Block1	congruent/STIM_023.jpg	100
1036.0	0.561	561.0	congruent	Block1	congruent/STIM_023.jpg	100
1039.346	0.789	788.9	congruent	Block1	congruent/STIM_023.jpg	100
1043.37	0.732	731.6	congruent	Block1	congruent/STIM_024.jpg	100
1047.558	0.966	965.7	congruent	Block1	congruent/STIM_024.jpg	99
1050.599	0.879	879.2	congruent	Block1	congruent/STIM_024.jpg	100
1054.577	0.892	891.5	congruent	Block1	congruent/STIM_024.jpg	99
1059.067	0.629	628.6	congruent	Block1	congruent/STIM_024.jpg	99
1062.731	0.678	677.6	congruent	Block1	congruent/STIM_025.jpg	99
1066.893	0.549	549.2	congruent	Block1	congruent/STIM_025.jpg	100
1071.351	0.765	765.1	congruent	Block1	congruent/STIM_025.jpg	100
1075.156	0.952	952.3	congruent	Block1	congruent/STIM_025.jpg	99
1079.335	0.608	608.5	congruent	Block1	congruent/STIM_025.jpg	100
1083.869	0.862	862.0	congruent	Block1	congruent/STIM_026.jpg	99
1088.626	0.747	747.0	congruent	Block1	congruent/STIM_026.jpg	100
1092.798	0.613	612.8	congruent	Block1	congruent/STIM_026.jpg	99
1095.658	0.911	910.7	congruent	Block1	congruent/STIM_026.jpg	100
1099.779	0.859	859.4	congruent	Block1	congruent/STIM_026.jpg	100
1104.433	0.588	588.4	congruent	Block1	congruent/STIM_027.jpg	99
1108.764	0.922	921.5	congruent	Block1	congruent/STIM_027.jpg	99
1112.922	0.709	709.0	congruent	Block1	congruent/STIM_027.jpg	100
1115.615	0.673	673.1	congruent	Block1	congruent/STIM_027.jpg	99
1119.908	0.736	736.5	congruent	Block1	congruent/STIM_027.jpg	99
1122.749	0.806	806.5	congruent	Block1	congruent/STIM_028.jpg	100
1127.328	0.902	901.5	congruent	Block1	congruent/STIM_028.jpg	99
1131.353	0.898	898.0	congruent	Block1	congruent/STIM_028.jpg	99
1136.092	0.873	873.1	congruent	Block1	congruent/STIM_028.jpg	99
1139.649	0.787	786.6	congruent	Block1	congruent/STIM_028.jpg	100
1143.954	0.601	601.4	congruent	Block1	congruent/STIM_029.jpg	99
1147.365	0.896	895.8	congruent	Block1	congruent/STIM_029.jpg	99
1152.092	0.691	690.8	congruent	Block1	congruent/STIM_029.jpg	100
1156.461	0.624	624.5	congruent	Block1	congruent/STIM_029.jpg	100
1160.269	0.792	791.9	congruent	Block1	congruent/STIM_029.jpg	99
1163.871	0.923	922.9	incongruent	Block2	incongruent/STIM_000.jpg	99
1167.197	1.248	1248.3	incongruent	Block2	incongruent/STIM_000.jpg	99
1171.384	1.141	1140.7	incongruent	Block2	incongruent/STIM_000.jpg	100
1176.312	0.665	664.7	incongruent	Block2	incongruent/STIM_000.jpg	99
1179.973	0.7	700.2	incongruent	Block2	incongruent/STIM_000.jpg	100
1184.156	0.706	706.1	incongruent	Block2	incongruent/STIM_001.jpg	99
1188.565	1.276	1276.5	incongruent	Block2	incongruent/STIM_001.jpg	100
1193.616	0.913	913.0	incongruent	Block2	incongruent/STIM_001.jpg	100
1197.362	0.78	779.8	incongruent	Block2	incongruent/STIM_001.jpg	100
1201.135	0.906	906.2	incongruent	Block2	incongruent/STIM_001.jpg	99
1205.317	0.688	688.3	incongruent	Block2	incongruent/STIM_002.jpg	99
1208.141	0.775	775.0	incongruent	Block2	incongruent/STIM_002.jpg	99
1210.882	0.782	781.7	incongruent	Block2	incongruent/STIM_002.jpg	100
1214.266	1.092	1091.7	incongruent	Block2	incongruent/STIM_002.jpg	99
1219.255	0.677	676.8	incongruent	Block2	incongruent/STIM_002.jpg	99
1222.257	1.216	1215.7	incongruent	Block2	incongruent/STIM_003.jpg	100
1226.778	0.959	958.6	incongruent	Block2	incongruent/STIM_003.jpg	100
1229.958	1.12	1119.6	incongruent	Block2	incongruent/STIM_003.jpg	100
1234.361	0.865	865.0	incongruent	Block2	incongruent/STIM_003.jpg	99
1238.692	0.957	956.8	incongruent	Block2	incongruent/STIM_003.jpg	99
1242.107	0.876	875.9	incongruent	Block2	incongruent/STIM_004.jpg	99
1245.838	1.108	1108.2	incongruent	Block2	incongruent/STIM_004.jpg	99
1250.802	1.164	1164.0	incongruent	Block2	incongruent/STIM_004.jpg	100
1255.296	1.043	1042.9	incongruent	Block2	incongruent/STIM_004.jpg	100
1259.904	0.621	620.7	incongruent	Block2	incongruent/STIM_004.jpg	100
1262.948	0.679	679.4	incongruent	Block2	incongruent/STIM_005.jpg	100
1265.821	1.074	1073.6	incongruent	Block2	incongruent/STIM_005.jpg	99
1270.696	0.739	738.7	incongruent	Block2	incongruent/STIM_005.jpg	99
1273.566	0.534	534.1	incongruent	Block2	incongruent/STIM_005.jpg	99
1277.993	0.93	930.4	incongruent	Block2	incongruent/STIM_005.jpg	99
1282.092	0.847	847.4	incongruent	Block2	incongruent/STIM_006.jpg	100
1286.829	1.18	1180.3	incongruent	Block2	incongruent/STIM_006.jpg	99
1291.164	1.043	1042.8	incongruent	Block2	incongruent/STIM_006.jpg	99
1294.672	0.995	994.6	incongruent	Block2	incongruent/STIM_006.jpg	100
1297.857	0.954	954.4	incongruent	Block2	incongruent/STIM_006.jpg	100
1301.608	1.171	1171.0	incongruent	Block2	incongruent/STIM_007.jpg	99
1304.97	0.899	899.3	incongruent	Block2	incongruent/STIM_007.jpg	99
1309.573	0.993	993.2	incongruent	Block2	incongruent/STIM_007.jpg	99
1312.54	1.04	1040.4	incongruent	Block2	incongruent/STIM_007.jpg	100
1316.514	0.583	583.4	incongruent	Block2	incongruent/STIM_007.jpg	100
1320.125	1.186	1185.7	incongruent	Block2	incongruent/STIM_008.jpg	100
1323.534	1.222	1222.0	incongruent	Block2	incongruent/STIM_008.jpg	100
1327.925	0.835	834.6	incongruent	Block2	incongruent/STIM_008.jpg	99
1331.572	1.083	1082.6	incongruent	Block2	incongruent/STIM_008.jpg	100
1335.097	0.825	825.2	incongruent	Block2	incongruent/STIM_008.jpg	99
1339.164	0.864	864.0	incongruent	Block2	incongruent/STIM_009.jpg	100
1342.797	0.859	859.0	incongruent	Block2	incongruent/STIM_009.jpg	99
1346.694	1.014	1014.4	incongruent	Block2	incongruent/STIM_009.jpg	99
1350.539	0.757	756.7	incongruent	Block2	incongruent/STIM_009.jpg	99
1353.274	1.047	1047.1	incongruent	Block2	incongruent/STIM_009.jpg	99
1356.816	1.037	1036.9	incongruent	Block2	incongruent/STIM_010.jpg	99
1361.296	0.635	635.1	incongruent	Block2	incongruent/STIM_010.jpg	99
1365.266	0.892	891.7	incongruent	Block2	incongruent/STIM_010.jpg	99
1368.764	1.018	1018.5	incongruent	Block2	incongruent/STIM_010.jpg	99
1373.506	1.083	1082.7	incongruent	Block2	incongruent/STIM_010.jpg	100
1378.251	1.164	1164.1	incongruent	Block2	incongruent/STIM_011.jpg	100
1381.678	0.714	714.5	incongruent	Block2	incongruent/STIM_011.jpg	99
1385.447	0.822	821.5	incongruent	Block2	incongruent/STIM_011.jpg	99
1389.243	0.795	795.0	incongruent	Block2	incongruent/STIM_011.jpg	99
1393.635	0.818	818.2	incongruent	Block2	incongruent/STIM_011.jpg	99
1398.089	1.153	1152.9	incongruent	Block2	incongruent/STIM_012.jpg	100
1402.449	0.891	890.6	incongruent	Block2	incongruent/STIM_012.jpg	100
1405.584	0.86	859.9	incongruent	Block2	incongruent/STIM_012.jpg	100
1409.589	1.049	1048.6	incongruent	Block2	incongruent/STIM_012.jpg	99
1413.228	1.079	1079.3	incongruent	Block2	incongruent/STIM_012.jpg	100
1417.052	0.913	912.9	incongruent	Block2	incongruent/STIM_013.jpg	99
1419.896	0.804	804.2	incongruent	Block2	incongruent/STIM_013.jpg	99
1423.511	0.888	888.4	incongruent	Block2	incongruent/STIM_013.jpg	100
1426.786	1.011	1010.7	incongruent	Block2	incongruent/STIM_013.jpg	100
1430.336	0.582	582.3	incongruent	Block2	incongruent/STIM_013.jpg	99
1433.571	0.822	822.0	incongruent	Block2	incongruent/STIM_014.jpg	100
1437.666	0.976	976.2	incongruent	Block2	incongruent/STIM_014.jpg	99
1441.924	0.933	932.8	incongruent	Block2	incongruent/STIM_014.jpg	100
1446.044	1.039	1038.9	incongruent	Block2	incongruent/STIM_014.jpg	99
1449.021	0.8	799.7	incongruent	Block2	incongruent/STIM_014.jpg	100
1452.404	0.747	747.2	incongruent	Block2	incongruent/STIM_015.jpg	99
1455.907	0.626	626.5	incongruent	Block2	incongruent/STIM_015.jpg	100
1459.73	1.074	1073.5	incongruent	Block2	incongruent/STIM_015.jpg	100
1463.559	0.903	903.0	incongruent	Block2	incongruent/STIM_015.jpg	100
1466.811	0.936	935.5	incongruent	Block2	incongruent/STIM_015.jpg	100
1469.857	0.684	683.7	incongruent	Block2	incongruent/STIM_016.jpg	99
1473.78	0.769	769.3	incongruent	Block2	incongruent/STIM_016.jpg	99
1477.073	0.825	824.6	incongruent	Block2	incongruent/STIM_016.jpg	100
1480.141	0.988	987.9	incongruent	Block2	incongruent/STIM_016.jpg	100
1484.227	0.873	872.8	incongruent	Block2	incongruent/STIM_016.jpg	100
1487.134	1.38	1380.5	incongruent	Block2	incongruent/STIM_017.jpg	100
1491.802	0.665	665.4	incongruent	Block2	incongruent/STIM_017.jpg	99
1496.224	1.2	1200.2	incongruent	Block2	incongruent/STIM_017.jpg	99
1501.304	1.088	1088.5	incongruent	Block2	incongruent/STIM_017.jpg	100
1505.957	0.583	583.2	incongruent	Block2	incongruent/STIM_017.jpg	99
1510.407	1.06	1059.7	incongruent	Block2	incongruent/STIM_018.jpg	99
1515.319	1.113	1112.8	incongruent	Block2	incongruent/STIM_018.jpg	100
1519.095	0.95	949.9	incongruent	Block2	incongruent/STIM_018.jpg	100
1522.164	1.08	1080.5	incongruent	Block2	incongruent/STIM_018.jpg	99
1526.961	0.673	673.4	incongruent	Block2	incongruent/STIM_018.jpg	100
1529.753	1.077	1076.8	incongruent	Block2	incongruent/STIM_019.jpg	99
1533.056	1.047	1047.3	incongruent	Block2	incongruent/STIM_019.jpg	100
1537.585	0.83	830.0	incongruent	Block2	incongruent/STIM_019.jpg	100
1541.488	0.913	912.9	incongruent	Block2	incongruent/STIM_019.jpg	100
1545.357	0.538	538.5	incongruent	Block2	incongruent/STIM_019.jpg	100
1548.541	1.248	1248.2	incongruent	Block2	incongruent/STIM_020.jpg	99
1552.989	0.977	976.7	incongruent	Block2	incongruent/STIM_020.jpg	100
1556.331	0.78	779.9	incongruent	Block2	incongruent/STIM_020.jpg	99
1559.499	1.01	1009.9	incongruent	Block2	incongruent/STIM_020.jpg	99
1563.837	1.136	1135.8	incongruent	Block2	incongruent/STIM_020.jpg	100
1568.423	1.246	1246.0	incongruent	Block2	incongruent/STIM_021.jpg	99
1573.235	1.065	1065.2	incongruent	Block2	incongruent/STIM_021.jpg	99
1577.152	1.168	1167.7	incongruent	Block2	incongruent/STIM_021.jpg	99
1580.758	0.763	763.0	incongruent	Block2	incongruent/STIM_021.jpg	99
1584.499	0.841	841.2	incongruent	Block2	incongruent/STIM_021.jpg	100
1588.828	0.856	856.5	incongruent	Block2	incongruent/STIM_022.jpg	100
1593.382	0.674	673.6	incongruent	Block2	incongruent/STIM_022.jpg	100
1597.772	1.099	1098.7	incongruent	Block2	incongruent/STIM_022.jpg	100
1602.507	0.665	665.0	incongruent	Block2	incongruent/STIM_022.jpg	100
1606.701	1.048	1047.9	incongruent	Block2	incongruent/STIM_022.jpg	99
1611.492	0.76	759.9	incongruent	Block2	incongruent/STIM_023.jpg	99
1615.459	1.092	1092.0	incongruent	Block2	incongruent/STIM_023.jpg	100
1620.349	0.6	599.8	incongruent	Block2	incongruent/STIM_023.jpg	100
1623.576	0.734	733.5	incongruent	Block2	incongruent/STIM_023.jpg	100
1627.216	1.098	1097.8	incongruent	Block2	incongruent/STIM_023.jpg	99
1630.464	0.942	941.6	incongruent	Block2	incongruent/STIM_024.jpg	99
1635.056	0.846	845.6	incongruent	Block2	incongruent/STIM_024.jpg	99
1637.935	0.93	929.9	incongruent	Block2	incongruent/STIM_024.jpg	99
1640.952	0.906	906.4	incongruent	Block2	incongruent/STIM_024.jpg	99
1645.288	1.11	1109.5	incongruent	Block2	incongruent/STIM_024.jpg	99
1649.112	1.168	1167.7	incongruent	Block2	incongruent/STIM_025.jpg	100
1653.61	1.014	1014.2	incongruent	Block2	incongruent/STIM_025.jpg	99
1656.84	0.882	881.8	incongruent	Block2	incongruent/STIM_025.jpg	99
1661.139	1.038	1037.8	incongruent	Block2	incongruent/STIM_025.jpg	99
1665.266	0.929	928.9	incongruent	Block2	incongruent/STIM_025.jpg	99
1668.248	0.928	927.9	incongruent	Block2	incongruent/STIM_026.jpg	99
1672.012	1.118	1118.3	incongruent	Block2	incongruent/STIM_026.jpg	99
1675.72	0.805	804.9	incongruent	Block2	incongruent/STIM_026.jpg	100
1679.349	0.89	889.7	incongruent	Block2	incongruent/STIM_026.jpg	100
1683.461	1.072	1072.2	incongruent	Block2	incongruent/STIM_026.jpg	100
1687.359	0.982	982.5	incongruent	Block2	incongruent/STIM_027.jpg	100
1690.346	0.775	775.0	incongruent	Block2	incongruent/STIM_027.jpg	100
1694.007	0.823	822.6	incongruent	Block2	incongruent/STIM_027.jpg	99
1696.875	0.76	759.6	incongruent	Block2	incongruent/STIM_027.jpg	99
1699.58	0.759	759.4	incongruent	Block2	incongruent/STIM_027.jpg	100
1703.914	0.722	722.5	incongruent	Block2	incongruent/STIM_028.jpg	100
1708.257	0.647	647.3	incongruent	Block2	incongruent/STIM_028.jpg	100
1712.757	1.14	1139.8	incongruent	Block2	incongruent/STIM_028.jpg	99
1717.003	0.649	648.9	incongruent	Block2	incongruent/STIM_028.jpg	99
1720.296	0.663	662.8	incongruent	Block2	incongruent/STIM_028.jpg	99
1723.936	0.668	668.4	incongruent	Block2	incongruent/STIM_029.jpg	100
1726.905	1.081	1080.8	incongruent	Block2	incongruent/STIM_029.jpg	100
1731.035	1.086	1086.3	incongruent	Block2	incongruent/STIM_029.jpg	100
1734.983	0.865	865.1	incongruent	Block2	incongruent/STIM_029.jpg	100
1738.852	0.781	781.3	incongruent	Block2	incongruent/STIM_029.jpg	99
1742.979	0.844	844.0	congruent	Block2	congruent/STIM_000.jpg	99
1746.293	0.757	757.0	congruent	Block2	congruent/STIM_000.jpg	99
1750.601	0.852	852.1	congruent	Block2	congruent/STIM_000.jpg	99
1754.687	0.755	755.1	congruent	Block2	congruent/STIM_000.jpg	99
1758.048	0.813	813.1	congruent	Block2	congruent/STIM_000.jpg	99
1761.547	0.768	768.5	congruent	Block2	congruent/STIM_001.jpg	99
1765.171	0.812	812.3	congruent	Block2	congruent/STIM_001.jpg	100
1768.53	0.582	581.5	congruent	Block2	congruent/STIM_001.jpg	100
1771.872	0.673	673.0	congruent	Block2	congruent/STIM_001.jpg	100
1774.929	0.561	561.3	congruent	Block2	congruent/STIM_001.jpg	100
1778.227	0.951	951.1	congruent	Block2	congruent/STIM_002.jpg	100
1783.089	0.778	777.9	congruent	Block2	congruent/STIM_002.jpg	100
1787.029	0.87	869.8	congruent	Block2	congruent/STIM_002.jpg	100
1790.36	0.711	711.3	congruent	Block2	congruent/STIM_002.jpg	99
1794.196	0.723	722.8	congruent	Block2	congruent/STIM_002.jpg	100
1797.504	0.65	650.2	congruent	Block2	congruent/STIM_003.jpg	99
1801.425	0.638	638.4	congruent	Block2	congruent/STIM_003.jpg	100
1804.533	0.812	812.3	congruent	Block2	congruent/STIM_003.jpg	99
1808.933	0.559	558.8	congruent	Block2	congruent/STIM_003.jpg	100
1812.795	0.943	943.2	congruent	Block2	congruent/STIM_003.jpg	100
1815.835	0.673	672.6	congruent	Block2	congruent/STIM_004.jpg	100
1820.087	0.628	628.0	congruent	Block2	congruent/STIM_004.jpg	99
1822.709	0.787	786.6	congruent	Block2	congruent/STIM_004.jpg	100
1827.193	0.839	839.2	congruent	Block2	congruent/STIM_004.jpg	100
1830.662	0.828	828.0	congruent	Block2	congruent/STIM_004.jpg	99
1835.278	0.75	749.5	congruent	Block2	congruent/STIM_005.jpg	99
1839.177	0.762	762.1	congruent	Block2	congruent/STIM_005.jpg	99
1841.961	0.71	709.9	congruent	Block2	congruent/STIM_005.jpg	100
1845.194	0.855	854.6	congruent	Block2	congruent/STIM_005.jpg	100
1849.15	0.816	816.0	congruent	Block2	congruent/STIM_005.jpg	99
1852.539	0.813	812.7	congruent	Block2	congruent/STIM_006.jpg	100
1856.581	0.666	665.8	congruent	Block2	congruent/STIM_006.jpg	99
1859.413	0.885	885.1	congruent	Block2	congruent/STIM_006.jpg	99
1862.804	0.604	604.5	congruent	Block2	congruent/STIM_006.jpg	99
1866.261	0.924	924.4	congruent	Block2	congruent/STIM_006.jpg	99
1870.032	0.922	922.2	congruent	Block2	congruent/STIM_007.jpg	100
1872.933	0.763	762.6	congruent	Block2	congruent/STIM_007.jpg	100
1877.417	0.636	636.2	congruent	Block2	congruent/STIM_007.jpg	100
1881.762	0.612	611.7	congruent	Block2	congruent/STIM_007.jpg	100
1885.436	0.574	574.4	congruent	Block2	congruent/STIM_007.jpg	99
1888.386	0.578	578.2	congruent	Block2	congruent/STIM_008.jpg	100
1892.395	0.923	923.2	congruent	Block2	congruent/STIM_008.jpg	99
1895.416	0.614	614.3	congruent	Block2	congruent/STIM_008.jpg	99
1899.853	0.678	677.9	congruent	Block2	congruent/STIM_008.jpg	100
1903.074	0.86	860.1	congruent	Block2	congruent/STIM_008.jpg	99
1906.905	0.934	934.4	congruent	Block2	congruent/STIM_009.jpg	99
1909.89	0.562	562.2	congruent	Block2	congruent/STIM_009.jpg	100
1914.119	0.551	551.0	congruent	Block2	congruent/STIM_009.jpg	100
1917.602	0.618	618.3	congruent	Block2	congruent/STIM_009.jpg	99
1920.309	0.78	780.0	congruent	Block2	congruent/STIM_009.jpg	99
1923.496	0.655	654.7	congruent	Block2	congruent/STIM_010.jpg	99
1927.172	0.929	929.2	congruent	Block2	congruent/STIM_010.jpg	99
1931.297	0.69	689.9	congruent	Block2	congruent/STIM_010.jpg	99
1934.942	0.759	759.2	congruent	Block2	congruent/STIM_010.jpg	99
1938.477	0.627	627.3	congruent	Block2	congruent/STIM_010.jpg	99
1942.575	0.558	557.5	congruent	Block2	congruent/STIM_011.jpg	99
1946.328	0.749	749.3	congruent	Block2	congruent/STIM_011.jpg	99
1950.549	0.876	875.5	congruent	Block2	congruent/STIM_011.jpg	100
1954.209	0.723	723.1	congruent	Block2	congruent/STIM_011.jpg	100
1958.626	0.75	749.5	congruent	Block2	congruent/STIM_011.jpg	99
1961.445	0.753	753.1	congruent	Block2	congruent/STIM_012.jpg	99
1965.463	0.73	729.7	congruent	Block2	congruent/STIM_012.jpg	100
1969.151	0.899	899.4	congruent	Block2	congruent/STIM_012.jpg	100
1971.988	0.962	962.1	congruent	Block2	congruent/STIM_012.jpg	99
1975.501	0.767	767.0	congruent	Block2	congruent/STIM_012.jpg	100
1979.684	0.96	959.9	congruent	Block2	congruent/STIM_013.jpg	99
1984.015	0.851	850.8	congruent	Block2	congruent/STIM_013.jpg	99
1986.903	0.913	913.1	congruent	Block2	congruent/STIM_013.jpg	99
1991.363	0.952	952.3	congruent	Block2	congruent/STIM_013.jpg	99
1994.693	0.918	918.1	congruent	Block2	congruent/STIM_013.jpg	99
1997.537	0.814	813.9	congruent	Block2	congruent/STIM_014.jpg	100
2001.852	0.578	578.4	congruent	Block2	congruent/STIM_014.jpg	100
2004.966	0.78	779.6	congruent	Block2	congruent/STIM_014.jpg	100
2007.788	0.824	824.4	congruent	Block2	congruent/STIM_014.jpg	100
2011.375	0.791	790.7	congruent	Block2	congruent/STIM_014.jpg	100
2014.533	0.794	794.5	congruent	Block2	congruent/STIM_015.jpg	99
2018.665	0.61	609.6	congruent	Block2	congruent/STIM_015.jpg	99
2021.463	0.739	738.6	congruent	Block2	congruent/STIM_015.jpg	99
2025.707	0.892	891.5	congruent	Block2	congruent/STIM_015.jpg	99
2029.026	0.584	584.3	congruent	Block2	congruent/STIM_015.jpg	100
2032.371	0.809	808.6	congruent	Block2	congruent/STIM_016.jpg	99
2035.934	0.687	686.6	congruent	Block2	congruent/STIM_016.jpg	99
2039.674	0.607	607.2	congruent	Block2	congruent/STIM_016.jpg	100
2043.533	0.651	650.7	congruent	Block2	congruent/STIM_016.jpg	99
2046.582	0.592	592.1	congruent	Block2	congruent/STIM_016.jpg	99
2049.324	0.619	618.7	congruent	Block2	congruent/STIM_017.jpg	100
2053.32	0.614	614.5	congruent	Block2	congruent/STIM_017.jpg	100
2056.822	0.658	658.3	congruent	Block2	congruent/STIM_017.jpg	100
2060.77	0.793	792.8	congruent	Block2	congruent/STIM_017.jpg	99
2064.758	0.646	646.1	congruent	Block2	congruent/STIM_017.jpg	100
2069.18	0.898	898.3	congruent	Block2	congruent/STIM_018.jpg	100
2073.291	0.831	830.9	congruent	Block2	congruent/STIM_018.jpg	99
2077.462	0.636	636.5	congruent	Block2	congruent/STIM_018.jpg	99
2080.077	0.933	933.4	congruent	Block2	congruent/STIM_018.jpg	100
2084.118	0.869	869.0	congruent	Block2	congruent/STIM_018.jpg	100
2087.426	0.907	907.4	congruent	Block2	congruent/STIM_019.jpg	99
2091.967	0.772	772.3	congruent	Block2	congruent/STIM_019.jpg	99
2095.25	0.845	845.1	congruent	Block2	congruent/STIM_019.jpg	99
2098.415	0.551	551.2	congruent	Block2	congruent/STIM_019.jpg	100
2102.162	0.897	896.8	congruent	Block2	congruent/STIM_019.jpg	99
2106.292	0.946	946.0	congruent	Block2	congruent/STIM_020.jpg	99
2109.611	0.779	779.1	congruent	Block2	congruent/STIM_020.jpg	99
2113.741	0.916	915.5	congruent	Block2	congruent/STIM_020.jpg	100
2117.062	0.628	627.5	congruent	Block2	congruent/STIM_020.jpg	100
2121.351	0.91	910.0	congruent	Block2	congruent/STIM_020.jpg	100
2125.918	0.923	923.0	congruent	Block2	congruent/STIM_021.jpg	100
2129.243	0.683	682.8	congruent	Block2	congruent/STIM_021.jpg	99
2132.646	0.57	569.8	congruent	Block2	congruent/STIM_021.jpg	99
2135.735	0.776	775.5	congruent	Block2	congruent/STIM_021.jpg	99
2139.619	0.857	857.0	congruent	Block2	congruent/STIM_021.jpg	100
2143.167	0.686	685.5	congruent	Block2	congruent/STIM_022.jpg	99
2147.145	0.824	823.8	congruent	Block2	congruent/STIM_022.jpg	99
2150.142	0.787	787.4	congruent	Block2	congruent/STIM_022.jpg	99
2154.75	0.745	745.3	congruent	Block2	congruent/STIM_022.jpg	100
2158.941	0.91	910.0	congruent	Block2	congruent/STIM_022.jpg	99
2162.366	0.77	770.0	congruent	Block2	congruent/STIM_023.jpg	99
2166.829	0.844	843.5	congruent	Block2	congruent/STIM_023.jpg	99
2169.819	0.962	962.1	congruent	Block2	congruent/STIM_023.jpg	99
2174.292	0.894	893.7	congruent	Block2	congruent/STIM_023.jpg	99
2177.678	0.941	940.7	congruent	Block2	congruent/STIM_023.jpg	99
2182.008	0.577	577.4	congruent	Block2	congruent/STIM_024.jpg	100
2184.797	0.548	548.0	congruent	Block2	congruent/STIM_024.jpg	99
2187.915	0.569	569.0	congruent	Block2	congruent/STIM_024.jpg	99
2192.282	0.656	656.1	congruent	Block2	congruent/STIM_024.jpg	99
2196.654	0.552	551.8	congruent	Block2	congruent/STIM_024.jpg	99
2200.558	0.622	621.6	congruent	Block2	congruent/STIM_025.jpg	100
2203.976	0.881	881.0	congruent	Block2	congruent/STIM_025.jpg	100
2206.963	0.666	665.7	congruent	Block2	congruent/STIM_025.jpg	99
2210.27	0.79	790.2	congruent	Block2	congruent/STIM_025.jpg	99
2213.195	0.76	760.1	congruent	Block2	congruent/STIM_025.jpg	99
2216.52	0.618	618.2	congruent	Block2	congruent/STIM_026.jpg	99
2220.742	0.719	719.4	congruent	Block2	congruent/STIM_026.jpg	100
2223.987	0.644	643.8	congruent	Block2	congruent/STIM_026.jpg	100
2227.827	0.645	644.8	congruent	Block2	congruent/STIM_026.jpg	99
2232.05	0.807	806.7	congruent	Block2	congruent/STIM_026.jpg	100
2235.081	0.965	965.0	congruent	Block2	congruent/STIM_027.jpg	99
2239.805	0.573	573.4	congruent	Block2	congruent/STIM_027.jpg	100
2243.277	0.658	657.7	congruent	Block2	congruent/STIM_027.jpg	99
2246.746	0.626	626.4	congruent	Block2	congruent/STIM_027.jpg	100
2249.394	0.639	638.9	congruent	Block2	congruent/STIM_027.jpg	100
2252.226	0.833	832.8	congruent	Block2	congruent/STIM_028.jpg	100
2255.493	0.767	767.2	congruent	Block2	congruent/STIM_028.jpg	100
2259.531	0.79	790.0	congruent	Block2	congruent/STIM_028.jpg	100
2263.315	0.912	912.5	congruent	Block2	congruent/STIM_028.jpg	99
2267.018	0.776	775.5	congruent	Block2	congruent/STIM_028.jpg	99
2271.151	0.553	552.6	congruent	Block2	congruent/STIM_029.jpg	99
2273.88	0.746	746.3	congruent	Block2	congruent/STIM_029.jpg	99
2277.034	0.721	721.0	congruent	Block2	congruent/STIM_029.jpg	100
2280.339	0.62	619.8	congruent	Block2	congruent/STIM_029.jpg	100
2283.474	0.786	786.2	congruent	Block2	congruent/STIM_029.jpg	100
2287.499	0.546	546.4	incongruent	Block3	incongruent/STIM_000.jpg	99
2291.366	0.598	598.2	incongruent	Block3	incongruent/STIM_000.jpg	99
2294.257	0.663	663.1	incongruent	Block3	incongruent/STIM_000.jpg	99
2298.71	0.632	632.2	incongruent	Block3	incongruent/STIM_000.jpg	100
2303.047	1.097	1097.3	incongruent	Block3	incongruent/STIM_000.jpg	100
2307.934	0.853	852.9	incongruent	Block3	incongruent/STIM_001.jpg	99
2311.712	0.636	636.2	incongruent	Block3	incongruent/STIM_001.jpg	100
2315.678	1.003	1002.8	incongruent	Block3	incongruent/STIM_001.jpg	99
2318.663	1.073	1072.7	incongruent	Block3	incongruent/STIM_001.jpg	99
2322.116	0.793	792.8	incongruent	Block3	incongruent/STIM_001.jpg	100
2326.18	0.585	584.8	incongruent	Block3	incongruent/STIM_002.jpg	99
2328.997	0.586	585.5	incongruent	Block3	incongruent/STIM_002.jpg	100
2331.993	0.575	574.8	incongruent	Block3	incongruent/STIM_002.jpg	100
2335.438	0.896	895.9	incongruent	Block3	incongruent/STIM_002.jpg	99
2339.551	0.719	718.7	incongruent	Block3	incongruent/STIM_002.jpg	100
2343.308	0.991	990.6	incongruent	Block3	incongruent/STIM_003.jpg	100
2346.79	0.948	948.4	incongruent	Block3	incongruent/STIM_003.jpg	100
2350.747	0.952	951.8	incongruent	Block3	incongruent/STIM_003.jpg	99
2354.955	1.122	1121.5	incongruent	Block3	incongruent/STIM_003.jpg	100
2358.424	0.566	566.3	incongruent	Block3	incongruent/STIM_003.jpg	100
2361.265	0.906	906.0	incongruent	Block3	incongruent/STIM_004.jpg	99
2364.103	0.736	736.1	incongruent	Block3	incongruent/STIM_004.jpg	100
2366.876	1.086	1085.8	incongruent	Block3	incongruent/STIM_004.jpg	100
2370.76	0.688	688.1	incongruent	Block3	incongruent/STIM_004.jpg	99
2374.444	0.956	956.5	incongruent	Block3	incongruent/STIM_004.jpg	100
2377.559	1.12	1119.8	incongruent	Block3	incongruent/STIM_005.jpg	100
2381.133	0.674	674.4	incongruent	Block3	incongruent/STIM_005.jpg	99
2384.668	1.008	1007.8	incongruent	Block3	incongruent/STIM_005.jpg	99
2387.779	0.961	960.8	incongruent	Block3	incongruent/STIM_005.jpg	100
2392.304	0.657	656.8	incongruent	Block3	incongruent/STIM_005.jpg	99
2395.851	0.909	908.7	incongruent	Block3	incongruent/STIM_006.jpg	99
2400.276	0.841	841.1	incongruent	Block3	incongruent/STIM_006.jpg	99
2403.861	0.738	738.2	incongruent	Block3	incongruent/STIM_006.jpg	99
2406.796	0.919	919.0	incongruent	Block3	incongruent/STIM_006.jpg	99
2409.958	0.947	947.3	incongruent	Block3	incongruent/STIM_006.jpg	99
2413.401	0.785	784.9	incongruent	Block3	incongruent/STIM_007.jpg	100
2416.579	1.077	1077.4	incongruent	Block3	incongruent/STIM_007.jpg	99
2419.585	0.576	576.3	incongruent	Block3	incongruent/STIM_007.jpg	99
2423.043	0.963	963.2	incongruent	Block3	incongruent/STIM_007.jpg	100
2427.047	1.124	1123.7	incongruent	Block3	incongruent/STIM_007.jpg	99
2431.549	0.653	652.6	incongruent	Block3	incongruent/STIM_008.jpg	100
2435.737	0.971	971.4	incongruent	Block3	incongruent/STIM_008.jpg	100
2439.149	0.552	551.6	incongruent	Block3	incongruent/STIM_008.jpg	100
2442.984	0.771	770.6	incongruent	Block3	incongruent/STIM_008.jpg	100
2447.301	0.746	746.0	incongruent	Block3	incongruent/STIM_008.jpg	100
2451.665	1.055	1054.6	incongruent	Block3	incongruent/STIM_009.jpg	99
2455.262	0.632	632.2	incongruent	Block3	incongruent/STIM_009.jpg	100
2458.94	1.109	1109.1	incongruent	Block3	incongruent/STIM_009.jpg	99
2462.703	0.788	788.5	incongruent	Block3	incongruent/STIM_009.jpg	100
2466.462	0.655	655.1	incongruent	Block3	incongruent/STIM_009.jpg	99
2469.097	1.03	1030.2	incongruent	Block3	incongruent/STIM_010.jpg	99
2473.41	0.609	609.2	incongruent	Block3	incongruent/STIM_010.jpg	99
2477.054	0.955	955.3	incongruent	Block3	incongruent/STIM_010.jpg	100
2480.818	1.004	1004.5	incongruent	Block3	incongruent/STIM_010.jpg	99
2483.944	0.686	685.5	incongruent	Block3	incongruent/STIM_010.jpg	100
2488.509	0.661	660.9	incongruent	Block3	incongruent/STIM_011.jpg	99
2492.076	0.645	644.7	incongruent	Block3	incongruent/STIM_011.jpg	100
2494.875	0.752	751.6	incongruent	Block3	incongruent/STIM_011.jpg	99
2497.948	0.947	946.7	incongruent	Block3	incongruent/STIM_011.jpg	100
2500.911	0.939	939.0	incongruent	Block3	incongruent/STIM_011.jpg	99
2505.259	1.059	1059.2	incongruent	Block3	incongruent/STIM_012.jpg	100
2509.68	1.055	1055.1	incongruent	Block3	incongruent/STIM_012.jpg	100
2513.349	0.561	560.8	incongruent	Block3	incongruent/STIM_012.jpg	100
2517.049	0.776	776.1	incongruent	Block3	incongruent/STIM_012.jpg	100
2520.746	1.041	1040.8	incongruent	Block3	incongruent/STIM_012.jpg	99
2524.331	0.942	941.6	incongruent	Block3	incongruent/STIM_013.jpg	100
2529.167	0.663	663.4	incongruent	Block3	incongruent/STIM_013.jpg	99
2532.435	0.582	581.7	incongruent	Block3	incongruent/STIM_013.jpg	100
2536.277	0.548	548.2	incongruent	Block3	incongruent/STIM_013.jpg	99
2538.933	0.587	587.1	incongruent	Block3	incongruent/STIM_013.jpg	99
2541.59	0.601	600.6	incongruent	Block3	incongruent/STIM_014.jpg	99
2544.549	1.002	1002.1	incongruent	Block3	incongruent/STIM_014.jpg	100
2547.797	0.708	707.6	incongruent	Block3	incongruent/STIM_014.jpg	100
2551.665	0.713	712.6	incongruent	Block3	incongruent/STIM_014.jpg	99
2555.53	0.616	615.9	incongruent	Block3	incongruent/STIM_014.jpg	99
2559.511	1.065	1065.1	incongruent	Block3	incongruent/STIM_015.jpg	100
2562.839	0.706	706.3	incongruent	Block3	incongruent/STIM_015.jpg	99
2567.215	0.926	926.4	incongruent	Block3	incongruent/STIM_015.jpg	100
2570.708	0.896	895.6	incongruent	Block3	incongruent/STIM_015.jpg	100
2573.829	0.705	705.0	incongruent	Block3	incongruent/STIM_015.jpg	99
2577.557	1.108	1107.5	incongruent	Block3	incongruent/STIM_016.jpg	100
2581.034	0.955	954.6	incongruent	Block3	incongruent/STIM_016.jpg	99
2583.948	1.051	1051.0	incongruent	Block3	incongruent/STIM_016.jpg	99
2587.638	1.089	1088.6	incongruent	Block3	incongruent/STIM_016.jpg	100
2592.421	0.572	572.4	incongruent	Block3	incongruent/STIM_016.jpg	100
2596.127	0.766	765.6	incongruent	Block3	incongruent/STIM_017.jpg	99
2599.7	1.07	1070.4	incongruent	Block3	incongruent/STIM_017.jpg	100
2602.969	0.679	679.3	incongruent	Block3	incongruent/STIM_017.jpg	100
2607.266	0.925	925.1	incongruent	Block3	incongruent/STIM_017.jpg	100
2611.16	0.604	604.4	incongruent	Block3	incongruent/STIM_017.jpg	100
2615.082	0.584	584.4	incongruent	Block3	incongruent/STIM_018.jpg	100
2619.157	0.606	605.9	incongruent	Block3	incongruent/STIM_018.jpg	99
2622.275	0.588	588.0	incongruent	Block3	incongruent/STIM_018.jpg	99
2626.233	1.088	1087.6	incongruent	Block3	incongruent/STIM_018.jpg	99
2630.971	1.089	1089.0	incongruent	Block3	incongruent/STIM_018.jpg	100
2634.357	0.826	825.8	incongruent	Block3	incongruent/STIM_019.jpg	99
2637.519	0.705	705.3	incongruent	Block3	incongruent/STIM_019.jpg	100
2641.873	0.591	591.1	incongruent	Block3	incongruent/STIM_019.jpg	99
2644.943	0.948	947.9	incongruent	Block3	incongruent/STIM_019.jpg	100
2649.372	0.974	973.8	incongruent	Block3	incongruent/STIM_019.jpg	99
2653.412	0.743	743.3	incongruent	Block3	incongruent/STIM_020.jpg	99
2656.602	1.092	1091.5	incongruent	Block3	incongruent/STIM_020.jpg	100
2661.128	0.815	814.9	incongruent	Block3	incongruent/STIM_020.jpg	99
2664.447	0.906	905.7	incongruent	Block3	incongruent/STIM_020.jpg	99
2668.438	0.961	960.6	incongruent	Block3	incongruent/STIM_020.jpg	99
2671.922	0.868	868.5	incongruent	Block3	incongruent/STIM_021.jpg	100
2676.434	0.738	737.5	incongruent	Block3	incongruent/STIM_021.jpg	100
2680.957	0.797	796.7	incongruent	Block3	incongruent/STIM_021.jpg	100
2684.298	1.042	1042.4	incongruent	Block3	incongruent/STIM_021.jpg	100
2687.925	0.671	670.6	incongruent	Block3	incongruent/STIM_021.jpg	99
2691.937	0.955	954.7	incongruent	Block3	incongruent/STIM_022.jpg	100
2695.802	0.691	691.2	incongruent	Block3	incongruent/STIM_022.jpg	99
2700.291	1.039	1038.8	incongruent	Block3	incongruent/STIM_022.jpg	99
2703.386	0.959	958.6	incongruent	Block3	incongruent/STIM_022.jpg	99
2708.26	0.542	541.7	incongruent	Block3	incongruent/STIM_022.jpg	100
2712.567	0.834	833.7	incongruent	Block3	incongruent/STIM_023.jpg	99
2717.241	0.682	681.9	incongruent	Block3	incongruent/STIM_023.jpg	99
2721.536	0.852	851.7	incongruent	Block3	incongruent/STIM_023.jpg	100
2724.795	0.995	994.6	incongruent	Block3	incongruent/STIM_023.jpg	99
2728.277	0.994	994.2	incongruent	Block3	incongruent/STIM_023.jpg	99
2732.322	0.721	721.0	incongruent	Block3	incongruent/STIM_024.jpg	99
2736.817	0.972	971.5	incongruent	Block3	incongruent/STIM_024.jpg	99
2741.331	0.802	802.0	incongruent	Block3	incongruent/STIM_024.jpg	100
2744.421	0.606	605.8	incongruent	Block3	incongruent/STIM_024.jpg	100
2748.356	1.112	1111.6	incongruent	Block3	incongruent/STIM_024.jpg	99
2751.583	0.739	739.3	incongruent	Block3	incongruent/STIM_025.jpg	100
2755.422	0.84	840.1	incongruent	Block3	incongruent/STIM_025.jpg	100
2758.584	1.143	1142.7	incongruent	Block3	incongruent/STIM_025.jpg	99
2762.869	0.7	700.5	incongruent	Block3	incongruent/STIM_025.jpg	99
2766.622	1.11	1110.1	incongruent	Block3	incongruent/STIM_025.jpg	99
2770.292	0.775	774.7	incongruent	Block3	incongruent/STIM_026.jpg	99
2774.937	0.874	874.4	incongruent	Block3	incongruent/STIM_026.jpg	99
2778.388	0.955	955.1	incongruent	Block3	incongruent/STIM_026.jpg	100
2782.43	0.94	939.5	incongruent	Block3	incongruent/STIM_026.jpg	99
2785.42	0.579	579.3	incongruent	Block3	incongruent/STIM_026.jpg	100
2789.71	0.822	822.5	incongruent	Block3	incongruent/STIM_027.jpg	100
2794.155	1.005	1004.7	incongruent	Block3	incongruent/STIM_027.jpg	99
2798.398	1.014	1014.3	incongruent	Block3	incongruent/STIM_027.jpg	99
2801.657	0.724	724.3	incongruent	Block3	incongruent/STIM_027.jpg	99
2806.034	0.655	654.7	incongruent	Block3	incongruent/STIM_027.jpg	100
2810.403	0.652	651.7	incongruent	Block3	incongruent/STIM_028.jpg	99
2814.971	1.008	1008.2	incongruent	Block3	incongruent/STIM_028.jpg	100
2819.168	0.711	711.3	incongruent	Block3	incongruent/STIM_028.jpg	99
2823.715	0.899	898.6	incongruent	Block3	incongruent/STIM_028.jpg	99
2828.499	0.644	643.8	incongruent	Block3	incongruent/STIM_028.jpg	100
2831.948	1.066	1066.3	incongruent	Block3	incongruent/STIM_029.jpg	99
2836.377	0.969	968.8	incongruent	Block3	incongruent/STIM_029.jpg	99
2840.727	1.1	1099.8	incongruent	Block3	incongruent/STIM_029.jpg	100
2843.972	0.9	900.0	incongruent	Block3	incongruent/STIM_029.jpg	99
2847.412	1.037	1036.6	incongruent	Block3	incongruent/STIM_029.jpg	100
2852.094	0.73	729.7	congruent	Block3	congruent/STIM_000.jpg	99
2855.265	0.715	714.6	congruent	Block3	congruent/STIM_000.jpg	99
2858.113	0.811	810.6	congruent	Block3	congruent/STIM_000.jpg	100
2862.053	0.932	931.9	congruent	Block3	congruent/STIM_000.jpg	100
2866.212	0.903	902.7	congruent	Block3	congruent/STIM_000.jpg	99
2869.624	0.776	775.5	congruent	Block3	congruent/STIM_001.jpg	100
2872.533	0.6	599.6	congruent	Block3	congruent/STIM_001.jpg	100
2875.424	0.899	898.7	congruent	Block3	congruent/STIM_001.jpg	99
2879.629	0.845	844.6	congruent	Block3	congruent/STIM_001.jpg	100
2882.571	0.906	905.6	congruent	Block3	congruent/STIM_001.jpg	100
2885.791	0.575	575.3	congruent	Block3	congruent/STIM_002.jpg	100
2889.089	0.971	971.4	congruent	Block3	congruent/STIM_002.jpg	99
2893.812	0.797	797.3	congruent	Block3	congruent/STIM_002.jpg	100
2898.382	0.854	854.5	congruent	Block3	congruent/STIM_002.jpg	99
2901.234	0.764	763.9	congruent	Block3	congruent/STIM_002.jpg	99
2905.029	0.933	932.8	congruent	Block3	congruent/STIM_003.jpg	100
2909.743	0.593	592.8	congruent	Block3	congruent/STIM_003.jpg	99
2913.482	0.625	624.9	congruent	Block3	congruent/STIM_003.jpg	99
2916.445	0.544	544.4	congruent	Block3	congruent/STIM_003.jpg	99
2919.553	0.546	545.7	congruent	Block3	congruent/STIM_003.jpg	99
2922.521	0.561	560.9	congruent	Block3	congruent/STIM_004.jpg	99
2926.191	0.689	688.7	congruent	Block3	congruent/STIM_004.jpg	100
2929.496	0.656	656.4	congruent	Block3	congruent/STIM_004.jpg	99
2933.432	0.729	728.7	congruent	Block3	congruent/STIM_004.jpg	99
2937.674	0.591	590.6	congruent	Block3	congruent/STIM_004.jpg	99
2941.649	0.706	706.4	congruent	Block3	congruent/STIM_005.jpg	99
2945.02	0.863	863.3	congruent	Block3	congruent/STIM_005.jpg	100
2949.715	0.708	707.7	congruent	Block3	congruent/STIM_005.jpg	100
2953.006	0.965	965.1	congruent	Block3	congruent/STIM_005.jpg	100
2957.287	0.803	803.0	congruent	Block3	congruent/STIM_005.jpg	99
2961.507	0.671	671.0	congruent	Block3	congruent/STIM_006.jpg	99
2966.122	0.668	668.2	congruent	Block3	congruent/STIM_006.jpg	99
2969.509	0.805	805.1	congruent	Block3	congruent/STIM_006.jpg	99
2974.118	0.827	827.0	congruent	Block3	congruent/STIM_006.jpg	100
2978.411	0.554	554.0	congruent	Block3	congruent/STIM_006.jpg	99
2982.349	0.908	907.6	congruent	Block3	congruent/STIM_007.jpg	99
2985.646	0.646	646.4	congruent	Block3	congruent/STIM_007.jpg	99
2988.701	0.666	666.3	congruent	Block3	congruent/STIM_007.jpg	99
2992.199	0.577	577.3	congruent	Block3	congruent/STIM_007.jpg	100
2996.025	0.83	830.0	congruent	Block3	congruent/STIM_007.jpg	99
3000.177	0.615	614.9	congruent	Block3	congruent/STIM_008.jpg	100
3004.188	0.979	979.3	congruent	Block3	congruent/STIM_008.jpg	100
3007.746	0.723	723.1	congruent	Block3	congruent/STIM_008.jpg	100
3010.886	0.603	602.7	congruent	Block3	congruent/STIM_008.jpg	99
3014.304	0.564	564.2	congruent	Block3	congruent/STIM_008.jpg	100
3018.281	0.86	859.8	congruent	Block3	congruent/STIM_009.jpg	100
3022.687	0.736	736.5	congruent	Block3	congruent/STIM_009.jpg	100
3026.886	0.884	883.7	congruent	Block3	congruent/STIM_009.jpg	100
3031.672	0.702	702.5	congruent	Block3	congruent/STIM_009.jpg	99
3035.755	0.954	954.4	congruent	Block3	congruent/STIM_009.jpg	100
3040.243	0.83	829.5	congruent	Block3	congruent/STIM_010.jpg	99
3044.449	0.771	771.0	congruent	Block3	congruent/STIM_010.jpg	100
3048.518	0.927	927.4	congruent	Block3	congruent/STIM_010.jpg	100
3051.717	0.94	939.9	congruent	Block3	congruent/STIM_010.jpg	100
3056.438	0.584	583.6	congruent	Block3	congruent/STIM_010.jpg	99
3059.1	0.804	804.1	congruent	Block3	congruent/STIM_011.jpg	100
3061.858	0.867	867.3	congruent	Block3	congruent/STIM_011.jpg	100
3064.949	0.703	702.7	congruent	Block3	congruent/STIM_011.jpg	100
3069.183	0.978	977.9	congruent	Block3	congruent/STIM_011.jpg	99
3072.264	0.798	798.0	congruent	Block3	congruent/STIM_011.jpg	99
3075.209	0.741	741.0	congruent	Block3	congruent/STIM_012.jpg	100
3078.164	0.576	575.8	congruent	Block3	congruent/STIM_012.jpg	100
3081.071	0.55	550.0	congruent	Block3	congruent/STIM_012.jpg	99
3084.221	0.73	730.2	congruent	Block3	congruent/STIM_012.jpg	99
3088.808	0.83	829.5	congruent	Block3	congruent/STIM_012.jpg	99
3092.873	0.87	870.4	congruent	Block3	congruent/STIM_013.jpg	99
3096.464	0.724	723.7	congruent	Block3	congruent/STIM_013.jpg	99
3100.394	0.771	771.0	congruent	Block3	congruent/STIM_013.jpg	100
3104.329	0.691	690.9	congruent	Block3	congruent/STIM_013.jpg	99
3107.29	0.599	599.2	congruent	Block3	congruent/STIM_013.jpg	100
3109.918	0.943	943.2	congruent	Block3	congruent/STIM_014.jpg	99
3113.255	0.746	746.1	congruent	Block3	congruent/STIM_014.jpg	100
3115.957	0.57	569.9	congruent	Block3	congruent/STIM_014.jpg	100
3119.892	0.814	814.4	congruent	Block3	congruent/STIM_014.jpg	99
3124.343	0.774	774.2	congruent	Block3	congruent/STIM_014.jpg	100
3127.932	0.552	551.7	congruent	Block3	congruent/STIM_015.jpg	99
3131.71	0.901	900.6	congruent	Block3	congruent/STIM_015.jpg	100
3136.372	0.939	938.8	congruent	Block3	congruent/STIM_015.jpg	100
3139.865	0.878	878.1	congruent	Block3	congruent/STIM_015.jpg	99
3143.817	0.684	684.2	congruent	Block3	congruent/STIM_015.jpg	100
3147.326	0.676	675.8	congruent	Block3	congruent/STIM_016.jpg	100
3150.125	0.655	654.8	congruent	Block3	congruent/STIM_016.jpg	100
3153.063	0.775	775.3	congruent	Block3	congruent/STIM_016.jpg	100
3156.085	0.749	749.3	congruent	Block3	congruent/STIM_016.jpg	99
3159.01	0.566	565.6	congruent	Block3	congruent/STIM_016.jpg	100
3162.672	0.55	550.1	congruent	Block3	congruent/STIM_017.jpg	99
3166.525	0.758	758.0	congruent	Block3	congruent/STIM_017.jpg	99
3170.88	0.584	584.4	congruent	Block3	congruent/STIM_017.jpg	100
3173.911	0.695	695.0	congruent	Block3	congruent/STIM_017.jpg	99
3178.378	0.748	747.7	congruent	Block3	congruent/STIM_017.jpg	100
3181.252	0.595	594.9	congruent	Block3	congruent/STIM_018.jpg	99
3185.478	0.912	912.4	congruent	Block3	congruent/STIM_018.jpg	99
3189.406	0.817	816.7	congruent	Block3	congruent/STIM_018.jpg	100
3193.376	0.921	921.3	congruent	Block3	congruent/STIM_018.jpg	99
3197.664	0.574	573.8	congruent	Block3	congruent/STIM_018.jpg	100
3201.814	0.943	943.0	congruent	Block3	congruent/STIM_019.jpg	99
3206.634	0.884	883.5	congruent	Block3	congruent/STIM_019.jpg	99
3210.072	0.882	882.5	congruent	Block3	congruent/STIM_019.jpg	99
3214.803	0.697	696.8	congruent	Block3	congruent/STIM_019.jpg	99
3219.253	0.777	776.7	congruent	Block3	congruent/STIM_019.jpg	99
3223.026	0.894	893.8	congruent	Block3	congruent/STIM_020.jpg	100
3227.78	0.862	861.9	congruent	Block3	congruent/STIM_020.jpg	100
3231.473	0.929	929.0	congruent	Block3	congruent/STIM_020.jpg	100
3235.64	0.685	685.0	congruent	Block3	congruent/STIM_020.jpg	99
3240.232	0.875	875.3	congruent	Block3	congruent/STIM_020.jpg	100
3243.296	0.753	753.2	congruent	Block3	congruent/STIM_021.jpg	99
3246.945	0.711	710.8	congruent	Block3	congruent/STIM_021.jpg	100
3249.875	0.578	578.4	congruent	Block3	congruent/STIM_021.jpg	100
3252.974	0.858	858.4	congruent	Block3	congruent/STIM_021.jpg	100
3257.603	0.622	622.4	congruent	Block3	congruent/STIM_021.jpg	99
3260.807	0.753	753.2	congruent	Block3	congruent/STIM_022.jpg	100
3264.4	0.546	545.9	congruent	Block3	congruent/STIM_022.jpg	99
3267.74	0.776	776.5	congruent	Block3	congruent/STIM_022.jpg	99
3271.769	0.948	948.5	congruent	Block3	congruent/STIM_022.jpg	100
3275.823	0.92	919.8	congruent	Block3	congruent/STIM_022.jpg	100
3279.847	0.941	941.4	congruent	Block3	congruent/STIM_023.jpg	99
3283.977	0.627	627.4	congruent	Block3	congruent/STIM_023.jpg	99
3288.28	0.712	711.5	congruent	Block3	congruent/STIM_023.jpg	100
3292.761	0.889	889.3	congruent	Block3	congruent/STIM_023.jpg	99
3296.505	0.755	755.2	congruent	Block3	congruent/STIM_023.jpg	99
3299.814	0.745	744.8	congruent	Block3	congruent/STIM_024.jpg	100
3302.685	0.663	663.0	congruent	Block3	congruent/STIM_024.jpg	100
3306.139	0.953	953.1	congruent	Block3	congruent/STIM_024.jpg	99
3309.671	0.632	632.3	congruent	Block3	congruent/STIM_024.jpg	100
3312.717	0.563	562.9	congruent	Block3	congruent/STIM_024.jpg	100
3315.805	0.661	661.0	congruent	Block3	congruent/STIM_025.jpg	100
3320.375	0.554	553.8	congruent	Block3	congruent/STIM_025.jpg	100
3322.952	0.604	604.5	congruent	Block3	congruent/STIM_025.jpg	100
3326.737	0.636	636.3	congruent	Block3	congruent/STIM_025.jpg	99
3330.29	0.868	867.7	congruent	Block3	congruent/STIM_025.jpg	100
3334.217	0.718	718.4	congruent	Block3	congruent/STIM_026.jpg	99
3338.392	0.809	809.4	congruent	Block3	congruent/STIM_026.jpg	100
3342.412	0.972	972.1	congruent	Block3	congruent/STIM_026.jpg	100
3345.972	0.61	609.8	congruent	Block3	congruent/STIM_026.jpg	100
3349.406	0.624	624.3	congruent	Block3	congruent/STIM_026.jpg	100
3353.819	0.595	595.0	congruent	Block3	congruent/STIM_027.jpg	100
3356.645	0.963	962.6	congruent	Block3	congruent/STIM_027.jpg	99
3359.943	0.688	688.0	congruent	Block3	congruent/STIM_027.jpg	99
3362.716	0.635	634.6	congruent	Block3	congruent/STIM_027.jpg	99
3365.527	0.868	868.1	congruent	Block3	congruent/STIM_027.jpg	100
3369.69	0.584	584.2	congruent	Block3	congruent/STIM_028.jpg	100
3373.617	0.823	823.1	congruent	Block3	congruent/STIM_028.jpg	100
3378.175	0.892	892.2	congruent	Block3	congruent/STIM_028.jpg	99
3381.795	0.555	555.1	congruent	Block3	congruent/STIM_028.jpg	99
3384.755	0.897	896.6	congruent	Block3	congruent/STIM_028.jpg	100
3389.439	0.732	732.1	congruent	Block3	congruent/STIM_029.jpg	100
3393.168	0.592	592.0	congruent	Block3	congruent/STIM_029.jpg	99
3397.453	0.654	653.5	congruent	Block3	congruent/STIM_029.jpg	100
3400.826	0.96	959.6	congruent	Block3	congruent/STIM_029.jpg	100
3404.393	0.904	904.0	congruent	Block3	congruent/STIM_029.jpg	100
