onset	duration	accuracy	trial_type	learning_stage	stimulus
0.0	1.141	correct	incongruent	Block1	incongruent/STIM_000.jpg
4.204	0.752	correct	incongruent	Block1	incongruent/STIM_000.jpg
7.759	0.751	correct	incongruent	Block1	incongruent/STIM_000.jpg
11.419	0.648	correct	incongruent	Block1	incongruent/STIM_000.jpg
15.097	0.925	correct	incongruent	Block1	incongruent/STIM_000.jpg
19.428	1.609	correct	incongruent	Block1	incongruent/STIM_001.jpg
24.665	0.912	correct	incongruent	Block1	incongruent/STIM_001.jpg
27.542	1.418	correct	incongruent	Block1	incongruent/STIM_001.jpg
31.137	1.026	correct	incongruent	Block1	incongruent/STIM_001.jpg
35.114	0.63	correct	incongruent	Block1	incongruent/STIM_001.jpg
39.375	0.974	correct	incongruent	Block1	incongruent/STIM_002.jpg
42.999	0.936	correct	incongruent	Block1	incongruent/STIM_002.jpg
47.672	0.703	incorrect	incongruent	Block1	incongruent/STIM_002.jpg
51.841	1.196	correct	incongruent	Block1	incongruent/STIM_002.jpg
56.183	0.839	incorrect	incongruent	Block1	incongruent/STIM_002.jpg
59.993	1.285	correct	incongruent	Block1	incongruent/STIM_003.jpg
64.91	1.47	incorrect	incongruent	Block1	incongruent/STIM_003.jpg
68.516	0.717	correct	incongruent	Block1	incongruent/STIM_003.jpg
73.041	1.335	correct	incongruent	Block1	incongruent/STIM_003.jpg
76.731	0.676	incorrect	incongruent	Block1	incongruent/STIM_003.jpg
79.724	0.947	correct	incongruent	Block1	incongruent/STIM_004.jpg
83.748	1.194	correct	incongruent	Block1	incongruent/STIM_004.jpg
87.93	1.444	correct	incongruent	Block1	incongruent/STIM_004.jpg
92.836	1.091	correct	incongruent	Block1	incongruent/STIM_004.jpg
96.004	0.947	correct	incongruent	Block1	incongruent/STIM_004.jpg
99.622	1.35	correct	incongruent	Block1	incongruent/STIM_005.jpg
104.793	0.87	correct	incongruent	Block1	incongruent/STIM_005.jpg
109.354	0.799	correct	incongruent	Block1	incongruent/STIM_005.jpg
112.97	0.689	correct	incongruent	Block1	incongruent/STIM_005.jpg
115.729	0.725	correct	incongruent	Block1	incongruent/STIM_005.jpg
119.566	0.866	incorrect	incongruent	Block1	incongruent/STIM_006.jpg
122.611	1.316	correct	incongruent	Block1	incongruent/STIM_006.jpg
126.132	1.251	correct	incongruent	Block1	incongruent/STIM_006.jpg
130.578	0.947	correct	incongruent	Block1	incongruent/STIM_006.jpg
133.626	1.281	correct	incongruent	Block1	incongruent/STIM_006.jpg
137.401	1.13	correct	incongruent	Block1	incongruent/STIM_007.jpg
142.371	1.441	correct	incongruent	Block1	incongruent/STIM_007.jpg
146.631	1.198	correct	incongruent	Block1	incongruent/STIM_007.jpg
150.845	0.859	correct	incongruent	Block1	incongruent/STIM_007.jpg
155.373	1.268	correct	incongruent	Block1	incongruent/STIM_007.jpg
159.364	0.956	correct	incongruent	Block1	incongruent/STIM_008.jpg
162.308	0.948	correct	incongruent	Block1	incongruent/STIM_008.jpg
166.236	1.2	incorrect	incongruent	Block1	incongruent/STIM_008.jpg
169.559	0.861	correct	incongruent	Block1	incongruent/STIM_008.jpg
172.549	0.686	correct	incongruent	Block1	incongruent/STIM_008.jpg
177.174	1.123	correct	incongruent	Block1	incongruent/STIM_009.jpg
181.826	1.358	correct	incongruent	Block1	incongruent/STIM_009.jpg
186.873	0.733	correct	incongruent	Block1	incongruent/STIM_009.jpg
190.865	1.122	correct	incongruent	Block1	incongruent/STIM_009.jpg
194.67	1.185	correct	incongruent	Block1	incongruent/STIM_009.jpg
199.074	0.961	correct	incongruent	Block1	incongruent/STIM_010.jpg
203.144	0.775	correct	incongruent	Block1	incongruent/STIM_010.jpg
206.254	1.337	correct	incongruent	Block1	incongruent/STIM_010.jpg
210.8	0.873	correct	incongruent	Block1	incongruent/STIM_010.jpg
214.355	1.22	correct	incongruent	Block1	incongruent/STIM_010.jpg
218.26	1.589	incorrect	incongruent	Block1	incongruent/STIM_011.jpg
223.02	1.338	correct	incongruent	Block1	incongruent/STIM_011.jpg
227.222	0.9	correct	incongruent	Block1	incongruent/STIM_011.jpg
231.18	1.227	correct	incongruent	Block1	incongruent/STIM_011.jpg
234.439	1.288	correct	incongruent	Block1	incongruent/STIM_011.jpg
239.458	0.999	correct	incongruent	Block1	incongruent/STIM_012.jpg
243.235	1.499	correct	incongruent	Block1	incongruent/STIM_012.jpg
248.431	1.145	correct	incongruent	Block1	incongruent/STIM_012.jpg
252.974	0.67	correct	incongruent	Block1	incongruent/STIM_012.jpg
256.623	0.982	correct	incongruent	Block1	incongruent/STIM_012.jpg
260.105	1.48	correct	incongruent	Block1	incongruent/STIM_013.jpg
265.058	0.936	correct	incongruent	Block1	incongruent/STIM_013.jpg
268.177	1.45	correct	incongruent	Block1	incongruent/STIM_013.jpg
273.064	0.782	correct	incongruent	Block1	incongruent/STIM_013.jpg
277.692	1.136	correct	incongruent	Block1	incongruent/STIM_013.jpg
281.146	1.55	correct	incongruent	Block1	incongruent/STIM_014.jpg
284.595	1.42	incorrect	incongruent	Block1	incongruent/STIM_014.jpg
288.295	0.973	correct	incongruent	Block1	incongruent/STIM_014.jpg
292.179	1.169	correct	incongruent	Block1	incongruent/STIM_014.jpg
296.806	0.791	correct	incongruent	Block1	incongruent/STIM_014.jpg
300.985	1.203	incorrect	incongruent	Block1	incongruent/STIM_015.jpg
305.255	1.308	correct	incongruent	Block1	incongruent/STIM_015.jpg
309.242	1.41	correct	incongruent	Block1	incongruent/STIM_015.jpg
313.139	0.984	correct	incongruent	Block1	incongruent/STIM_015.jpg
317.95	0.653	correct	incongruent	Block1	incongruent/STIM_015.jpg
321.293	0.984	correct	incongruent	Block1	incongruent/STIM_016.jpg
324.292	0.859	correct	incongruent	Block1	incongruent/STIM_016.jpg
327.158	0.97	correct	incongruent	Block1	incongruent/STIM_016.jpg
331.459	1.344	correct	incongruent	Block1	incongruent/STIM_016.jpg
335.1	1.142	correct	incongruent	Block1	incongruent/STIM_016.jpg
338.912	0.908	incorrect	incongruent	Block1	incongruent/STIM_017.jpg
343.395	1.119	correct	incongruent	Block1	incongruent/STIM_017.jpg
347.722	1.226	correct	incongruent	Block1	incongruent/STIM_017.jpg
351.093	1.298	correct	incongruent	Block1	incongruent/STIM_017.jpg
355.228	0.941	correct	incongruent	Block1	incongruent/STIM_017.jpg
359.271	1.49	incorrect	incongruent	Block1	incongruent/STIM_018.jpg
364.051	1.214	incorrect	incongruent	Block1	incongruent/STIM_018.jpg
368.784	0.92	correct	incongruent	Block1	incongruent/STIM_018.jpg
373.225	1.069	correct	incongruent	Block1	incongruent/STIM_018.jpg
376.379	1.059	correct	incongruent	Block1	incongruent/STIM_018.jpg
380.142	1.321	correct	incongruent	Block1	incongruent/STIM_019.jpg
385.156	1.304	correct	incongruent	Block1	incongruent/STIM_019.jpg
388.771	1.294	correct	incongruent	Block1	incongruent/STIM_019.jpg
393.168	0.95	correct	incongruent	Block1	incongruent/STIM_019.jpg
397.156	0.857	correct	incongruent	Block1	incongruent/STIM_019.jpg
400.511	1.575	correct	incongruent	Block1	incongruent/STIM_020.jpg
405.82	1.325	correct	incongruent	Block1	incongruent/STIM_020.jpg
409.071	1.398	correct	incongruent	Block1	incongruent/STIM_020.jpg
414.278	0.665	correct	incongruent	Block1	incongruent/STIM_020.jpg
417.366	1.041	correct	incongruent	Block1	incongruent/STIM_020.jpg
420.696	1.41	correct	incongruent	Block1	incongruent/STIM_021.jpg
424.275	1.388	correct	incongruent	Block1	incongruent/STIM_021.jpg
428.525	0.978	correct	incongruent	Block1	incongruent/STIM_021.jpg
431.846	1.332	correct	incongruent	Block1	incongruent/STIM_021.jpg
436.464	0.876	correct	incongruent	Block1	incongruent/STIM_021.jpg
440.484	1.284	correct	incongruent	Block1	incongruent/STIM_022.jpg
443.898	1.162	incorrect	incongruent	Block1	incongruent/STIM_022.jpg
447.755	1.458	correct	incongruent	Block1	incongruent/STIM_022.jpg
452.099	1.373	correct	incongruent	Block1	incongruent/STIM_022.jpg
457.261	1.147	correct	incongruent	Block1	incongruent/STIM_022.jpg
462.131	1.567	correct	incongruent	Block1	incongruent/STIM_023.jpg
466.635	1.063	incorrect	incongruent	Block1	incongruent/STIM_023.jpg
469.746	0.737	incorrect	incongruent	Block1	incongruent/STIM_023.jpg
473.218	0.814	correct	incongruent	Block1	incongruent/STIM_023.jpg
477.921	0.723	correct	incongruent	Block1	incongruent/STIM_023.jpg
482.248	0.8	correct	incongruent	Block1	incongruent/STIM_024.jpg
486.395	0.965	correct	incongruent	Block1	incongruent/STIM_024.jpg
491.185	1.322	correct	incongruent	Block1	incongruent/STIM_024.jpg
494.752	1.106	correct	incongruent	Block1	incongruent/STIM_024.jpg
499.434	0.761	correct	incongruent	Block1	incongruent/STIM_024.jpg
504.088	1.51	correct	incongruent	Block1	incongruent/STIM_025.jpg
508.816	1.239	correct	incongruent	Block1	incongruent/STIM_025.jpg
511.97	0.701	incorrect	incongruent	Block1	incongruent/STIM_025.jpg
516.584	1.341	correct	incongruent	Block1	incongruent/STIM_025.jpg
520.675	1.243	correct	incongruent	Block1	incongruent/STIM_025.jpg
523.961	1.122	correct	incongruent	Block1	incongruent/STIM_026.jpg
528.488	0.983	correct	incongruent	Block1	incongruent/STIM_026.jpg
531.858	1.181	correct	incongruent	Block1	incongruent/STIM_026.jpg
535.798	1.286	correct	incongruent	Block1	incongruent/STIM_026.jpg
540.823	0.79	correct	incongruent	Block1	incongruent/STIM_026.jpg
544.274	1.298	incorrect	incongruent	Block1	incongruent/STIM_027.jpg
547.59	0.996	correct	incongruent	Block1	incongruent/STIM_027.jpg
551.702	1.468	correct	incongruent	Block1	incongruent/STIM_027.jpg
555.323	0.673	correct	incongruent	Block1	incongruent/STIM_027.jpg
559.67	0.654	correct	incongruent	Block1	incongruent/STIM_027.jpg
562.914	1.259	correct	incongruent	Block1	incongruent/STIM_028.jpg
567.889	0.971	correct	incongruent	Block1	incongruent/STIM_028.jpg
571.801	0.826	correct	incongruent	Block1	incongruent/STIM_028.jpg
575.034	1.367	correct	incongruent	Block1	incongruent/STIM_028.jpg
578.905	0.729	correct	incongruent	Block1	incongruent/STIM_028.jpg
581.933	0.842	correct	incongruent	Block1	incongruent/STIM_029.jpg
585.912	0.804	incorrect	incongruent	Block1	incongruent/STIM_029.jpg
589.328	1.386	correct	incongruent	Block1	incongruent/STIM_029.jpg
593.086	1.286	correct	incongruent	Block1	incongruent/STIM_029.jpg
597.85	1.036	incorrect	incongruent	Block1	incongruent/STIM_029.jpg
602.743	0.781	correct	congruent	Block1	congruent/STIM_000.jpg
606.471	0.705	correct	congruent	Block1	congruent/STIM_000.jpg
609.733	0.948	correct	congruent	Block1	congruent/STIM_000.jpg
613.216	0.939	correct	congruent	Block1	congruent/STIM_000.jpg
616.197	0.934	correct	congruent	Block1	congruent/STIM_000.jpg
619.671	0.907	correct	congruent	Block1	congruent/STIM_001.jpg
622.791	0.697	correct	congruent	Block1	congruent/STIM_001.jpg
625.497	0.917	correct	congruent	Block1	congruent/STIM_001.jpg
629.26	0.657	correct	congruent	Block1	congruent/STIM_001.jpg
631.974	0.646	correct	congruent	Block1	congruent/STIM_001.jpg
634.686	0.929	correct	congruent	Block1	congruent/STIM_002.jpg
637.989	0.852	correct	congruent	Block1	congruent/STIM_002.jpg
641.16	0.905	correct	congruent	Block1	congruent/STIM_002.jpg
645.089	0.847	correct	congruent	Block1	congruent/STIM_002.jpg
649.016	0.604	correct	congruent	Block1	congruent/STIM_002.jpg
652.733	0.649	correct	congruent	Block1	congruent/STIM_003.jpg
656.944	0.662	correct	congruent	Block1	congruent/STIM_003.jpg
660.488	0.815	correct	congruent	Block1	congruent/STIM_003.jpg
665.214	0.963	correct	congruent	Block1	congruent/STIM_003.jpg
668.19	0.563	correct	congruent	Block1	congruent/STIM_003.jpg
670.932	0.841	correct	congruent	Block1	congruent/STIM_004.jpg
675.119	0.668	correct	congruent	Block1	congruent/STIM_004.jpg
679.732	0.914	correct	congruent	Block1	congruent/STIM_004.jpg
682.947	0.699	correct	congruent	Block1	congruent/STIM_004.jpg
687.55	0.77	correct	congruent	Block1	congruent/STIM_004.jpg
690.624	0.766	incorrect	congruent	Block1	congruent/STIM_005.jpg
695.015	0.559	correct	congruent	Block1	congruent/STIM_005.jpg
698.547	0.779	correct	congruent	Block1	congruent/STIM_005.jpg
703.183	0.857	correct	congruent	Block1	congruent/STIM_005.jpg
706.383	0.971	correct	congruent	Block1	congruent/STIM_005.jpg
710.944	0.545	correct	congruent	Block1	congruent/STIM_006.jpg
714.354	0.791	correct	congruent	Block1	congruent/STIM_006.jpg
718.653	0.604	correct	congruent	Block1	congruent/STIM_006.jpg
722.859	0.592	correct	congruent	Block1	congruent/STIM_006.jpg
725.978	0.808	correct	congruent	Block1	congruent/STIM_006.jpg
729.112	0.629	correct	congruent	Block1	congruent/STIM_007.jpg
732.849	0.735	correct	congruent	Block1	congruent/STIM_007.jpg
737.142	0.799	correct	congruent	Block1	congruent/STIM_007.jpg
740.178	0.895	correct	congruent	Block1	congruent/STIM_007.jpg
744.954	0.904	correct	congruent	Block1	congruent/STIM_007.jpg
748.987	0.656	correct	congruent	Block1	congruent/STIM_008.jpg
752.506	0.954	correct	congruent	Block1	congruent/STIM_008.jpg
756.98	0.964	correct	congruent	Block1	congruent/STIM_008.jpg
760.567	0.934	correct	congruent	Block1	congruent/STIM_008.jpg
763.65	0.58	correct	congruent	Block1	congruent/STIM_008.jpg
768.131	0.813	correct	congruent	Block1	congruent/STIM_009.jpg
772.079	0.553	correct	congruent	Block1	congruent/STIM_009.jpg
775.596	0.899	correct	congruent	Block1	congruent/STIM_009.jpg
779.536	0.924	correct	congruent	Block1	congruent/STIM_009.jpg
783.835	0.68	correct	congruent	Block1	congruent/STIM_009.jpg
786.672	0.592	correct	congruent	Block1	congruent/STIM_010.jpg
789.872	0.804	incorrect	congruent	Block1	congruent/STIM_010.jpg
793.157	0.717	correct	congruent	Block1	congruent/STIM_010.jpg
796.043	0.816	incorrect	congruent	Block1	congruent/STIM_010.jpg
799.261	0.855	correct	congruent	Block1	congruent/STIM_010.jpg
803.567	0.6	correct	congruent	Block1	congruent/STIM_011.jpg
807.354	0.809	correct	congruent	Block1	congruent/STIM_011.jpg
810.723	0.648	correct	congruent	Block1	congruent/STIM_011.jpg
814.488	0.568	correct	congruent	Block1	congruent/STIM_011.jpg
818.106	0.546	correct	congruent	Block1	congruent/STIM_011.jpg
820.737	0.766	correct	congruent	Block1	congruent/STIM_012.jpg
825.073	0.574	correct	congruent	Block1	congruent/STIM_012.jpg
828.625	0.622	correct	congruent	Block1	congruent/STIM_012.jpg
831.587	0.883	correct	congruent	Block1	congruent/STIM_012.jpg
835.813	0.92	correct	congruent	Block1	congruent/STIM_012.jpg
839.046	0.904	correct	congruent	Block1	congruent/STIM_013.jpg
843.253	0.576	correct	congruent	Block1	congruent/STIM_013.jpg
847.473	0.834	correct	congruent	Block1	congruent/STIM_013.jpg
851.688	0.752	correct	congruent	Block1	congruent/STIM_013.jpg
855.243	0.694	correct	congruent	Block1	congruent/STIM_013.jpg
858.364	0.949	correct	congruent	Block1	congruent/STIM_014.jpg
862.377	0.73	incorrect	congruent	Block1	congruent/STIM_014.jpg
866.453	0.863	correct	congruent	Block1	congruent/STIM_014.jpg
869.577	0.919	correct	congruent	Block1	congruent/STIM_014.jpg
873.065	0.794	correct	congruent	Block1	congruent/STIM_014.jpg
877.36	0.883	correct	congruent	Block1	congruent/STIM_015.jpg
880.711	0.807	correct	congruent	Block1	congruent/STIM_015.jpg
883.928	0.918	correct	congruent	Block1	congruent/STIM_015.jpg
888.647	0.658	correct	congruent	Block1	congruent/STIM_015.jpg
891.738	0.709	correct	congruent	Block1	congruent/STIM_015.jpg
894.656	0.764	correct	congruent	Block1	congruent/STIM_016.jpg
898.69	0.882	correct	congruent	Block1	congruent/STIM_016.jpg
903.241	0.922	correct	congruent	Block1	congruent/STIM_016.jpg
906.413	0.674	correct	congruent	Block1	congruent/STIM_016.jpg
909.417	0.81	correct	congruent	Block1	congruent/STIM_016.jpg
913.682	0.954	correct	congruent	Block1	congruent/STIM_017.jpg
916.957	0.899	correct	congruent	Block1	congruent/STIM_017.jpg
921.395	0.902	correct	congruent	Block1	congruent/STIM_017.jpg
924.733	0.894	correct	congruent	Block1	congruent/STIM_017.jpg
928.75	0.772	correct	congruent	Block1	congruent/STIM_017.jpg
932.438	0.567	correct	congruent	Block1	congruent/STIM_018.jpg
936.751	0.878	correct	congruent	Block1	congruent/STIM_018.jpg
940.886	0.896	incorrect	congruent	Block1	congruent/STIM_018.jpg
945.086	0.753	correct	congruent	Block1	congruent/STIM_018.jpg
948.981	0.781	correct	congruent	Block1	congruent/STIM_018.jpg
952.83	0.93	correct	congruent	Block1	congruent/STIM_019.jpg
956.396	0.649	correct	congruent	Block1	congruent/STIM_019.jpg
959.443	0.567	correct	congruent	Block1	congruent/STIM_019.jpg
963.476	0.634	correct	congruent	Block1	congruent/STIM_019.jpg
967.097	0.602	correct	congruent	Block1	congruent/STIM_019.jpg
971.611	0.701	correct	congruent	Block1	congruent/STIM_020.jpg
975.968	0.959	correct	congruent	Block1	congruent/STIM_020.jpg
979.489	0.602	correct	congruent	Block1	congruent/STIM_020.jpg
982.687	0.602	correct	congruent	Block1	congruent/STIM_020.jpg
986.362	0.553	correct	congruent	Block1	congruent/STIM_020.jpg
990.802	0.728	correct	congruent	Block1	congruent/STIM_021.jpg
993.738	0.696	correct	congruent	Block1	congruent/STIM_021.jpg
997.644	0.785	correct	congruent	Block1	congruent/STIM_021.jpg
1001.026	0.675	correct	congruent	Block1	congruent/STIM_021.jpg
1004.82	0.896	correct	congruent	Block1	congruent/STIM_021.jpg
1008.207	0.859	correct	congruent	Block1	congruent/STIM_022.jpg
1011.13	0.892	correct	congruent	Block1	congruent/STIM_022.jpg
1015.247	0.91	correct	congruent	Block1	congruent/STIM_022.jpg
1018.408	0.735	correct	congruent	Block1	congruent/STIM_022.jpg
1021.124	0.659	correct	congruent	Block1	congruent/STIM_022.jpg
1025.294	0.945	correct	congruent	Block1	congruent/STIM_023.jpg
1028.447	0.576	correct	congruent	Block1	congruent/STIM_023.jpg
1032.259	0.813	correct	congruent	Block1	congruent/STIM_023.jpg
1036.0	0.561	correct	congruent	Block1	congruent/STIM_023.jpg
1039.346	0.789	correct	congruent	Block1	congruent/STIM_023.jpg
1043.37	0.732	correct	congruent	Block1	congruent/STIM_024.jpg
1047.558	0.966	correct	congruent	Block1	congruent/STIM_024.jpg
1050.599	0.879	correct	congruent	Block1	congruent/STIM_024.jpg
1054.577	0.892	correct	congruent	Block1	congruent/STIM_024.jpg
1059.067	0.629	correct	congruent	Block1	congruent/STIM_024.jpg
1062.731	0.678	correct	congruent	Block1	congruent/STIM_025.jpg
1066.893	0.549	correct	congruent	Block1	congruent/STIM_025.jpg
1071.351	0.765	correct	congruent	Block1	congruent/STIM_025.jpg
1075.156	0.952	correct	congruent	Block1	congruent/STIM_025.jpg
1079.335	0.608	correct	congruent	Block1	congruent/STIM_025.jpg
1083.869	0.862	correct	congruent	Block1	congruent/STIM_026.jpg
1088.626	0.747	correct	congruent	Block1	congruent/STIM_026.jpg
1092.798	0.613	correct	congruent	Block1	congruent/STIM_026.jpg
1095.658	0.911	correct	congruent	Block1	congruent/STIM_026.jpg
1099.779	0.859	correct	congruent	Block1	congruent/STIM_026.jpg
1104.433	0.588	correct	congruent	Block1	congruent/STIM_027.jpg
1108.764	0.922	correct	congruent	Block1	congruent/STIM_027.jpg
1112.922	0.709	correct	congruent	Block1	congruent/STIM_027.jpg
1115.615	0.673	correct	congruent	Block1	congruent/STIM_027.jpg
1119.908	0.736	correct	congruent	Block1	congruent/STIM_027.jpg
1122.749	0.806	correct	congruent	Block1	congruent/STIM_028.jpg
1127.328	0.902	incorrect	congruent	Block1	congruent/STIM_028.jpg
1131.353	0.898	correct	congruent	Block1	congruent/STIM_028.jpg
1136.092	0.873	correct	congruent	Block1	congruent/STIM_028.jpg
1139.649	0.787	correct	congruent	Block1	congruent/STIM_028.jpg
1143.954	0.601	correct	congruent	Block1	congruent/STIM_029.jpg
1147.365	0.896	correct	congruent	Block1	congruent/STIM_029.jpg
1152.092	0.691	correct	congruent	Block1	congruent/STIM_029.jpg
1156.461	0.624	correct	congruent	Block1	congruent/STIM_029.jpg
1160.269	0.792	correct	congruent	Block1	congruent/STIM_029.jpg
1163.871	0.923	correct	incongruent	Block2	incongruent/STIM_000.jpg
1167.197	1.248	correct	incongruent	Block2	incongruent/STIM_000.jpg
1171.384	1.141	correct	incongruent	Block2	incongruent/STIM_000.jpg
1176.312	0.665	correct	incongruent	Block2	incongruent/STIM_000.jpg
1179.973	0.7	correct	incongruent	Block2	incongruent/STIM_000.jpg
1184.156	0.706	correct	incongruent	Block2	incongruent/STIM_001.jpg
1188.565	1.276	correct	incongruent	Block2	incongruent/STIM_001.jpg
1193.616	0.913	correct	incongruent	Block2	incongruent/STIM_001.jpg
1197.362	0.78	correct	incongruent	Block2	incongruent/STIM_001.jpg
1201.135	0.906	correct	incongruent	Block2	incongruent/STIM_001.jpg
1205.317	0.688	correct	incongruent	Block2	incongruent/STIM_002.jpg
1208.141	0.775	correct	incongruent	Block2	incongruent/STIM_002.jpg
1210.882	0.782	correct	incongruent	Block2	incongruent/STIM_002.jpg
1214.266	1.092	correct	incongruent	Block2	incongruent/STIM_002.jpg
1219.255	0.677	correct	incongruent	Block2	incongruent/STIM_002.jpg
1222.257	1.216	correct	incongruent	Block2	incongruent/STIM_003.jpg
1226.778	0.959	correct	incongruent	Block2	incongruent/STIM_003.jpg
1229.958	1.12	correct	incongruent	Block2	incongruent/STIM_003.jpg
1234.361	0.865	correct	incongruent	Block2	incongruent/STIM_003.jpg
1238.692	0.957	correct	incongruent	Block2	incongruent/STIM_003.jpg
1242.107	0.876	correct	incongruent	Block2	incongruent/STIM_004.jpg
1245.838	1.108	correct	incongruent	Block2	incongruent/STIM_004.jpg
1250.802	1.164	correct	incongruent	Block2	incongruent/STIM_004.jpg
1255.296	1.043	correct	incongruent	Block2	incongruent/STIM_004.jpg
1259.904	0.621	correct	incongruent	Block2	incongruent/STIM_004.jpg
1262.948	0.679	correct	incongruent	Block2	incongruent/STIM_005.jpg
1265.821	1.074	correct	incongruent	Block2	incongruent/STIM_005.jpg
1270.696	0.739	incorrect	incongruent	Block2	incongruent/STIM_005.jpg
1273.566	0.534	correct	incongruent	Block2	incongruent/STIM_005.jpg
1277.993	0.93	correct	incongruent	Block2	incongruent/STIM_005.jpg
1282.092	0.847	correct	incongruent	Block2	incongruent/STIM_006.jpg
1286.829	1.18	correct	incongruent	Block2	incongruent/STIM_006.jpg
1291.164	1.043	correct	incongruent	Block2	incongruent/STIM_006.jpg
1294.672	0.995	correct	incongruent	Block2	incongruent/STIM_006.jpg
1297.857	0.954	correct	incongruent	Block2	incongruent/STIM_006.jpg
1301.608	1.171	correct	incongruent	Block2	incongruent/STIM_007.jpg
1304.97	0.899	correct	incongruent	Block2	incongruent/STIM_007.jpg
1309.573	0.993	correct	incongruent	Block2	incongruent/STIM_007.jpg
1312.54	1.04	correct	incongruent	Block2	incongruent/STIM_007.jpg
1316.514	0.583	correct	incongruent	Block2	incongruent/STIM_007.jpg
1320.125	1.186	correct	incongruent	Block2	incongruent/STIM_008.jpg
1323.534	1.222	correct	incongruent	Block2	incongruent/STIM_008.jpg
1327.925	0.835	correct	incongruent	Block2	incongruent/STIM_008.jpg
1331.572	1.083	correct	incongruent	Block2	incongruent/STIM_008.jpg
1335.097	0.825	correct	incongruent	Block2	incongruent/STIM_008.jpg
1339.164	0.864	correct	incongruent	Block2	incongruent/STIM_009.jpg
1342.797	0.859	correct	incongruent	Block2	incongruent/STIM_009.jpg
1346.694	1.014	correct	incongruent	Block2	incongruent/STIM_009.jpg
1350.539	0.757	correct	incongruent	Block2	incongruent/STIM_009.jpg
1353.274	1.047	correct	incongruent	Block2	incongruent/STIM_009.jpg
1356.816	1.037	correct	incongruent	Block2	incongruent/STIM_010.jpg
1361.296	0.635	correct	incongruent	Block2	incongruent/STIM_010.jpg
1365.266	0.892	correct	incongruent	Block2	incongruent/STIM_010.jpg
1368.764	1.018	correct	incongruent	Block2	incongruent/STIM_010.jpg
1373.506	1.083	correct	incongruent	Block2	incongruent/STIM_010.jpg
1378.251	1.164	correct	incongruent	Block2	incongruent/STIM_011.jpg
1381.678	0.714	correct	incongruent	Block2	incongruent/STIM_011.jpg
1385.447	0.822	correct	incongruent	Block2	incongruent/STIM_011.jpg
1389.243	0.795	correct	incongruent	Block2	incongruent/STIM_011.jpg
1393.635	0.818	correct	incongruent	Block2	incongruent/STIM_011.jpg
1398.089	1.153	correct	incongruent	Block2	incongruent/STIM_012.jpg
1402.449	0.891	incorrect	incongruent	Block2	incongruent/STIM_012.jpg
1405.584	0.86	correct	incongruent	Block2	incongruent/STIM_012.jpg
1409.589	1.049	correct	incongruent	Block2	incongruent/STIM_012.jpg
1413.228	1.079	correct	incongruent	Block2	incongruent/STIM_012.jpg
1417.052	0.913	correct	incongruent	Block2	incongruent/STIM_013.jpg
1419.896	0.804	correct	incongruent	Block2	incongruent/STIM_013.jpg
1423.511	0.888	correct	incongruent	Block2	incongruent/STIM_013.jpg
1426.786	1.011	correct	incongruent	Block2	incongruent/STIM_013.jpg
1430.336	0.582	correct	incongruent	Block2	incongruent/STIM_013.jpg
1433.571	0.822	incorrect	incongruent	Block2	incongruent/STIM_014.jpg
1437.666	0.976	correct	incongruent	Block2	incongruent/STIM_014.jpg
1441.924	0.933	correct	incongruent	Block2	incongruent/STIM_014.jpg
1446.044	1.039	correct	incongruent	Block2	incongruent/STIM_014.jpg
1449.021	0.8	correct	incongruent	Block2	incongruent/STIM_014.jpg
1452.404	0.747	correct	incongruent	Block2	incongruent/STIM_015.jpg
1455.907	0.626	correct	incongruent	Block2	incongruent/STIM_015.jpg
1459.73	1.074	correct	incongruent	Block2	incongruent/STIM_015.jpg
1463.559	0.903	correct	incongruent	Block2	incongruent/STIM_015.jpg
1466.811	0.936	correct	incongruent	Block2	incongruent/STIM_015.jpg
1469.857	0.684	correct	incongruent	Block2	incongruent/STIM_016.jpg
1473.78	0.769	correct	incongruent	Block2	incongruent/STIM_016.jpg
1477.073	0.825	correct	incongruent	Block2	incongruent/STIM_016.jpg
1480.141	0.988	correct	incongruent	Block2	incongruent/STIM_016.jpg
1484.227	0.873	correct	incongruent	Block2	incongruent/STIM_016.jpg
1487.134	1.38	correct	incongruent	Block2	incongruent/STIM_017.jpg
1491.802	0.665	correct	incongruent	Block2	incongruent/STIM_017.jpg
1496.224	1.2	correct	incongruent	Block2	incongruent/STIM_017.jpg
1501.304	1.088	correct	incongruent	Block2	incongruent/STIM_017.jpg
1505.957	0.583	correct	incongruent	Block2	incongruent/STIM_017.jpg
1510.407	1.06	correct	incongruent	Block2	incongruent/STIM_018.jpg
1515.319	1.113	correct	incongruent	Block2	incongruent/STIM_018.jpg
1519.095	0.95	correct	incongruent	Block2	incongruent/STIM_018.jpg
1522.164	1.08	correct	incongruent	Block2	incongruent/STIM_018.jpg
1526.961	0.673	correct	incongruent	Block2	incongruent/STIM_018.jpg
1529.753	1.077	correct	incongruent	Block2	incongruent/STIM_019.jpg
1533.056	1.047	correct	incongruent	Block2	incongruent/STIM_019.jpg
1537.585	0.83	correct	incongruent	Block2	incongruent/STIM_019.jpg
1541.488	0.913	correct	incongruent	Block2	incongruent/STIM_019.jpg
1545.357	0.538	correct	incongruent	Block2	incongruent/STIM_019.jpg
1548.541	1.248	correct	incongruent	Block2	incongruent/STIM_020.jpg
1552.989	0.977	correct	incongruent	Block2	incongruent/STIM_020.jpg
1556.331	0.78	correct	incongruent	Block2	incongruent/STIM_020.jpg
1559.499	1.01	correct	incongruent	Block2	incongruent/STIM_020.jpg
1563.837	1.136	correct	incongruent	Block2	incongruent/STIM_020.jpg
1568.423	1.246	correct	incongruent	Block2	incongruent/STIM_021.jpg
1573.235	1.065	correct	incongruent	Block2	incongruent/STIM_021.jpg
1577.152	1.168	correct	incongruent	Block2	incongruent/STIM_021.jpg
1580.758	0.763	correct	incongruent	Block2	incongruent/STIM_021.jpg
1584.499	0.841	correct	incongruent	Block2	incongruent/STIM_021.jpg
1588.828	0.856	correct	incongruent	Block2	incongruent/STIM_022.jpg
1593.382	0.674	incorrect	incongruent	Block2	incongruent/STIM_022.jpg
1597.772	1.099	correct	incongruent	Block2	incongruent/STIM_022.jpg
1602.507	0.665	correct	incongruent	Block2	incongruent/STIM_022.jpg
1606.701	1.048	correct	incongruent	Block2	incongruent/STIM_022.jpg
1611.492	0.76	correct	incongruent	Block2	incongruent/STIM_023.jpg
1615.459	1.092	correct	incongruent	Block2	incongruent/STIM_023.jpg
1620.349	0.6	correct	incongruent	Block2	incongruent/STIM_023.jpg
1623.576	0.734	correct	incongruent	Block2	incongruent/STIM_023.jpg
1627.216	1.098	correct	incongruent	Block2	incongruent/STIM_023.jpg
1630.464	0.942	correct	incongruent	Block2	incongruent/STIM_024.jpg
1635.056	0.846	correct	incongruent	Block2	incongruent/STIM_024.jpg
1637.935	0.93	correct	incongruent	Block2	incongruent/STIM_024.jpg
1640.952	0.906	correct	incongruent	Block2	incongruent/STIM_024.jpg
1645.288	1.11	correct	incongruent	Block2	incongruent/STIM_024.jpg
1649.112	1.168	correct	incongruent	Block2	incongruent/STIM_025.jpg
1653.61	1.014	correct	incongruent	Block2	incongruent/STIM_025.jpg
1656.84	0.882	correct	incongruent	Block2	incongruent/STIM_025.jpg
1661.139	1.038	correct	incongruent	Block2	incongruent/STIM_025.jpg
1665.266	0.929	correct	incongruent	Block2	incongruent/STIM_025.jpg
1668.248	0.928	correct	incongruent	Block2	incongruent/STIM_026.jpg
1672.012	1.118	correct	incongruent	Block2	incongruent/STIM_026.jpg
1675.72	0.805	correct	incongruent	Block2	incongruent/STIM_026.jpg
1679.349	0.89	correct	incongruent	Block2	incongruent/STIM_026.jpg
1683.461	1.072	correct	incongruent	Block2	incongruent/STIM_026.jpg
1687.359	0.982	correct	incongruent	Block2	incongruent/STIM_027.jpg
1690.346	0.775	correct	incongruent	Block2	incongruent/STIM_027.jpg
1694.007	0.823	correct	incongruent	Block2	incongruent/STIM_027.jpg
1696.875	0.76	correct	incongruent	Block2	incongruent/STIM_027.jpg
1699.58	0.759	correct	incongruent	Block2	incongruent/STIM_027.jpg
1703.914	0.722	correct	incongruent	Block2	incongruent/STIM_028.jpg
1708.257	0.647	correct	incongruent	Block2	incongruent/STIM_028.jpg
1712.757	1.14	correct	incongruent	Block2	incongruent/STIM_028.jpg
1717.003	0.649	correct	incongruent	Block2	incongruent/STIM_028.jpg
1720.296	0.663	correct	incongruent	Block2	incongruent/STIM_028.jpg
1723.936	0.668	correct	incongruent	Block2	incongruent/STIM_029.jpg
1726.905	1.081	correct	incongruent	Block2	incongruent/STIM_029.jpg
1731.035	1.086	correct	incongruent	Block2	incongruent/STIM_029.jpg
1734.983	0.865	correct	incongruent	Block2	incongruent/STIM_029.jpg
1738.852	0.781	correct	incongruent	Block2	incongruent/STIM_029.jpg
1742.979	0.844	correct	congruent	Block2	congruent/STIM_000.jpg
1746.293	0.757	correct	congruent	Block2	congruent/STIM_000.jpg
1750.601	0.852	correct	congruent	Block2	congruent/STIM_000.jpg
1754.687	0.755	correct	congruent	Block2	congruent/STIM_000.jpg
1758.048	0.813	correct	congruent	Block2	congruent/STIM_000.jpg
1761.547	0.768	correct	congruent	Block2	congruent/STIM_001.jpg
1765.171	0.812	correct	congruent	Block2	congruent/STIM_001.jpg
1768.53	0.582	incorrect	congruent	Block2	congruent/STIM_001.jpg
1771.872	0.673	correct	congruent	Block2	congruent/STIM_001.jpg
1774.929	0.561	correct	congruent	Block2	congruent/STIM_001.jpg
1778.227	0.951	incorrect	congruent	Block2	congruent/STIM_002.jpg
1783.089	0.778	correct	congruent	Block2	congruent/STIM_002.jpg
1787.029	0.87	correct	congruent	Block2	congruent/STIM_002.jpg
1790.36	0.711	correct	congruent	Block2	congruent/STIM_002.jpg
1794.196	0.723	correct	congruent	Block2	congruent/STIM_002.jpg
1797.504	0.65	correct	congruent	Block2	congruent/STIM_003.jpg
1801.425	0.638	correct	congruent	Block2	congruent/STIM_003.jpg
1804.533	0.812	correct	congruent	Block2	congruent/STIM_003.jpg
1808.933	0.559	correct	congruent	Block2	congruent/STIM_003.jpg
1812.795	0.943	correct	congruent	Block2	congruent/STIM_003.jpg
1815.835	0.673	correct	congruent	Block2	congruent/STIM_004.jpg
1820.087	0.628	correct	congruent	Block2	congruent/STIM_004.jpg
1822.709	0.787	correct	congruent	Block2	congruent/STIM_004.jpg
1827.193	0.839	correct	congruent	Block2	congruent/STIM_004.jpg
1830.662	0.828	correct	congruent	Block2	congruent/STIM_004.jpg
1835.278	0.75	correct	congruent	Block2	congruent/STIM_005.jpg
1839.177	0.762	correct	congruent	Block2	congruent/STIM_005.jpg
1841.961	0.71	correct	congruent	Block2	congruent/STIM_005.jpg
1845.194	0.855	correct	congruent	Block2	congruent/STIM_005.jpg
1849.15	0.816	correct	congruent	Block2	congruent/STIM_005.jpg
1852.539	0.813	correct	congruent	Block2	congruent/STIM_006.jpg
1856.581	0.666	correct	congruent	Block2	congruent/STIM_006.jpg
1859.413	0.885	correct	congruent	Block2	congruent/STIM_006.jpg
1862.804	0.604	correct	congruent	Block2	congruent/STIM_006.jpg
1866.261	0.924	correct	congruent	Block2	congruent/STIM_006.jpg
1870.032	0.922	correct	congruent	Block2	congruent/STIM_007.jpg
1872.933	0.763	correct	congruent	Block2	congruent/STIM_007.jpg
1877.417	0.636	correct	congruent	Block2	congruent/STIM_007.jpg
1881.762	0.612	correct	congruent	Block2	congruent/STIM_007.jpg
1885.436	0.574	correct	congruent	Block2	congruent/STIM_007.jpg
1888.386	0.578	correct	congruent	Block2	congruent/STIM_008.jpg
1892.395	0.923	correct	congruent	Block2	congruent/STIM_008.jpg
1895.416	0.614	correct	congruent	Block2	congruent/STIM_008.jpg
1899.853	0.678	correct	congruent	Block2	congruent/STIM_008.jpg
1903.074	0.86	correct	congruent	Block2	congruent/STIM_008.jpg
1906.905	0.934	correct	congruent	Block2	congruent/STIM_009.jpg
1909.89	0.562	correct	congruent	Block2	congruent/STIM_009.jpg
1914.119	0.551	correct	congruent	Block2	congruent/STIM_009.jpg
1917.602	0.618	correct	congruent	Block2	congruent/STIM_009.jpg
1920.309	0.78	correct	congruent	Block2	congruent/STIM_009.jpg
1923.496	0.655	correct	congruent	Block2	congruent/STIM_010.jpg
1927.172	0.929	correct	congruent	Block2	congruent/STIM_010.jpg
1931.297	0.69	correct	congruent	Block2	congruent/STIM_010.jpg
1934.942	0.759	correct	congruent	Block2	congruent/STIM_010.jpg
1938.477	0.627	correct	congruent	Block2	congruent/STIM_010.jpg
1942.575	0.558	correct	congruent	Block2	congruent/STIM_011.jpg
1946.328	0.749	correct	congruent	Block2	congruent/STIM_011.jpg
1950.549	0.876	correct	congruent	Block2	congruent/STIM_011.jpg
1954.209	0.723	correct	congruent	Block2	congruent/STIM_011.jpg
1958.626	0.75	correct	congruent	Block2	congruent/STIM_011.jpg
1961.445	0.753	correct	congruent	Block2	congruent/STIM_012.jpg
1965.463	0.73	correct	congruent	Block2	congruent/STIM_012.jpg
1969.151	0.899	correct	congruent	Block2	congruent/STIM_012.jpg
1971.988	0.962	correct	congruent	Block2	congruent/STIM_012.jpg
1975.501	0.767	correct	congruent	Block2	congruent/STIM_012.jpg
1979.684	0.96	correct	congruent	Block2	congruent/STIM_013.jpg
1984.015	0.851	correct	congruent	Block2	congruent/STIM_013.jpg
1986.903	0.913	correct	congruent	Block2	congruent/STIM_013.jpg
1991.363	0.952	correct	congruent	Block2	congruent/STIM_013.jpg
1994.693	0.918	correct	congruent	Block2	congruent/STIM_013.jpg
1997.537	0.814	correct	congruent	Block2	congruent/STIM_014.jpg
2001.852	0.578	correct	congruent	Block2	congruent/STIM_014.jpg
2004.966	0.78	correct	congruent	Block2	congruent/STIM_014.jpg
2007.788	0.824	correct	congruent	Block2	congruent/STIM_014.jpg
2011.375	0.791	correct	congruent	Block2	congruent/STIM_014.jpg
2014.533	0.794	correct	congruent	Block2	congruent/STIM_015.jpg
2018.665	0.61	correct	congruent	Block2	congruent/STIM_015.jpg
2021.463	0.739	incorrect	congruent	Block2	congruent/STIM_015.jpg
2025.707	0.892	correct	congruent	Block2	congruent/STIM_015.jpg
2029.026	0.584	correct	congruent	Block2	congruent/STIM_015.jpg
2032.371	0.809	correct	congruent	Block2	congruent/STIM_016.jpg
2035.934	0.687	correct	congruent	Block2	congruent/STIM_016.jpg
2039.674	0.607	correct	congruent	Block2	congruent/STIM_016.jpg
2043.533	0.651	correct	congruent	Block2	congruent/STIM_016.jpg
2046.582	0.592	correct	congruent	Block2	congruent/STIM_016.jpg
2049.324	0.619	correct	congruent	Block2	congruent/STIM_017.jpg
2053.32	0.614	correct	congruent	Block2	congruent/STIM_017.jpg
2056.822	0.658	correct	congruent	Block2	congruent/STIM_017.jpg
2060.77	0.793	correct	congruent	Block2	congruent/STIM_017.jpg
2064.758	0.646	correct	congruent	Block2	congruent/STIM_017.jpg
2069.18	0.898	correct	congruent	Block2	congruent/STIM_018.jpg
2073.291	0.831	correct	congruent	Block2	congruent/STIM_018.jpg
2077.462	0.636	correct	congruent	Block2	congruent/STIM_018.jpg
2080.077	0.933	correct	congruent	Block2	congruent/STIM_018.jpg
2084.118	0.869	correct	congruent	Block2	congruent/STIM_018.jpg
2087.426	0.907	correct	congruent	Block2	congruent/STIM_019.jpg
2091.967	0.772	correct	congruent	Block2	congruent/STIM_019.jpg
2095.25	0.845	correct	congruent	Block2	congruent/STIM_019.jpg
2098.415	0.551	correct	congruent	Block2	congruent/STIM_019.jpg
2102.162	0.897	correct	congruent	Block2	congruent/STIM_019.jpg
2106.292	0.946	correct	congruent	Block2	congruent/STIM_020.jpg
2109.611	0.779	correct	congruent	Block2	congruent/STIM_020.jpg
2113.741	0.916	correct	congruent	Block2	congruent/STIM_020.jpg
2117.062	0.628	correct	congruent	Block2	congruent/STIM_020.jpg
2121.351	0.91	correct	congruent	Block2	congruent/STIM_020.jpg
2125.918	0.923	correct	congruent	Block2	congruent/STIM_021.jpg
2129.243	0.683	correct	congruent	Block2	congruent/STIM_021.jpg
2132.646	0.57	correct	congruent	Block2	congruent/STIM_021.jpg
2135.735	0.776	correct	congruent	Block2	congruent/STIM_021.jpg
2139.619	0.857	correct	congruent	Block2	congruent/STIM_021.jpg
2143.167	0.686	correct	congruent	Block2	congruent/STIM_022.jpg
2147.145	0.824	correct	congruent	Block2	congruent/STIM_022.jpg
2150.142	0.787	correct	congruent	Block2	congruent/STIM_022.jpg
2154.75	0.745	correct	congruent	Block2	congruent/STIM_022.jpg
2158.941	0.91	correct	congruent	Block2	congruent/STIM_022.jpg
2162.366	0.77	correct	congruent	Block2	congruent/STIM_023.jpg
2166.829	0.844	correct	congruent	Block2	congruent/STIM_023.jpg
2169.819	0.962	correct	congruent	Block2	congruent/STIM_023.jpg
2174.292	0.894	correct	congruent	Block2	congruent/STIM_023.jpg
2177.678	0.941	correct	congruent	Block2	congruent/STIM_023.jpg
2182.008	0.577	correct	congruent	Block2	congruent/STIM_024.jpg
2184.797	0.548	correct	congruent	Block2	congruent/STIM_024.jpg
2187.915	0.569	correct	congruent	Block2	congruent/STIM_024.jpg
2192.282	0.656	correct	congruent	Block2	congruent/STIM_024.jpg
2196.654	0.552	correct	congruent	Block2	congruent/STIM_024.jpg
2200.558	0.622	correct	congruent	Block2	congruent/STIM_025.jpg
2203.976	0.881	correct	congruent	Block2	congruent/STIM_025.jpg
2206.963	0.666	correct	congruent	Block2	congruent/STIM_025.jpg
2210.27	0.79	correct	congruent	Block2	congruent/STIM_025.jpg
2213.195	0.76	correct	congruent	Block2	congruent/STIM_025.jpg
2216.52	0.618	correct	congruent	Block2	congruent/STIM_026.jpg
2220.742	0.719	correct	congruent	Block2	congruent/STIM_026.jpg
2223.987	0.644	correct	congruent	Block2	congruent/STIM_026.jpg
2227.827	0.645	correct	congruent	Block2	congruent/STIM_026.jpg
2232.05	0.807	correct	congruent	Block2	congruent/STIM_026.jpg
2235.081	0.965	correct	congruent	Block2	congruent/STIM_027.jpg
2239.805	0.573	correct	congruent	Block2	congruent/STIM_027.jpg
2243.277	0.658	correct	congruent	Block2	congruent/STIM_027.jpg
2246.746	0.626	correct	congruent	Block2	congruent/STIM_027.jpg
2249.394	0.639	correct	congruent	Block2	congruent/STIM_027.jpg
2252.226	0.833	correct	congruent	Block2	congruent/STIM_028.jpg
2255.493	0.767	correct	congruent	Block2	congruent/STIM_028.jpg
2259.531	0.79	correct	congruent	Block2	congruent/STIM_028.jpg
2263.315	0.912	correct	congruent	Block2	congruent/STIM_028.jpg
2267.018	0.776	correct	congruent	Block2	congruent/STIM_028.jpg
2271.151	0.553	correct	congruent	Block2	congruent/STIM_029.jpg
2273.88	0.746	correct	congruent	Block2	congruent/STIM_029.jpg
2277.034	0.721	correct	congruent	Block2	congruent/STIM_029.jpg
2280.339	0.62	incorrect	congruent	Block2	congruent/STIM_029.jpg
2283.474	0.786	correct	congruent	Block2	congruent/STIM_029.jpg
2287.499	0.546	correct	incongruent	Block3	incongruent/STIM_000.jpg
2291.366	0.598	correct	incongruent	Block3	incongruent/STIM_000.jpg
2294.257	0.663	correct	incongruent	Block3	incongruent/STIM_000.jpg
2298.71	0.632	correct	incongruent	Block3	incongruent/STIM_000.jpg
2303.047	1.097	correct	incongruent	Block3	incongruent/STIM_000.jpg
2307.934	0.853	correct	incongruent	Block3	incongruent/STIM_001.jpg
2311.712	0.636	correct	incongruent	Block3	incongruent/STIM_001.jpg
2315.678	1.003	correct	incongruent	Block3	incongruent/STIM_001.jpg
2318.663	1.073	correct	incongruent	Block3	incongruent/STIM_001.jpg
2322.116	0.793	correct	incongruent	Block3	incongruent/STIM_001.jpg
2326.18	0.585	correct	incongruent	Block3	incongruent/STIM_002.jpg
2328.997	0.586	correct	incongruent	Block3	incongruent/STIM_002.jpg
2331.993	0.575	correct	incongruent	Block3	incongruent/STIM_002.jpg
2335.438	0.896	correct	incongruent	Block3	incongruent/STIM_002.jpg
2339.551	0.719	correct	incongruent	Block3	incongruent/STIM_002.jpg
2343.308	0.991	correct	incongruent	Block3	incongruent/STIM_003.jpg
2346.79	0.948	correct	incongruent	Block3	incongruent/STIM_003.jpg
2350.747	0.952	correct	incongruent	Block3	incongruent/STIM_003.jpg
2354.955	1.122	correct	incongruent	Block3	incongruent/STIM_003.jpg
2358.424	0.566	correct	incongruent	Block3	incongruent/STIM_003.jpg
2361.265	0.906	correct	incongruent	Block3	incongruent/STIM_004.jpg
2364.103	0.736	correct	incongruent	Block3	incongruent/STIM_004.jpg
2366.876	1.086	correct	incongruent	Block3	incongruent/STIM_004.jpg
2370.76	0.688	correct	incongruent	Block3	incongruent/STIM_004.jpg
2374.444	0.956	correct	incongruent	Block3	incongruent/STIM_004.jpg
2377.559	1.12	correct	incongruent	Block3	incongruent/STIM_005.jpg
2381.133	0.674	correct	incongruent	Block3	incongruent/STIM_005.jpg
2384.668	1.008	correct	incongruent	Block3	incongruent/STIM_005.jpg
2387.779	0.961	correct	incongruent	Block3	incongruent/STIM_005.jpg
2392.304	0.657	correct	incongruent	Block3	incongruent/STIM_005.jpg
2395.851	0.909	correct	incongruent	Block3	incongruent/STIM_006.jpg
2400.276	0.841	correct	incongruent	Block3	incongruent/STIM_006.jpg
2403.861	0.738	correct	incongruent	Block3	incongruent/STIM_006.jpg
2406.796	0.919	correct	incongruent	Block3	incongruent/STIM_006.jpg
2409.958	0.947	correct	incongruent	Block3	incongruent/STIM_006.jpg
2413.401	0.785	correct	incongruent	Block3	incongruent/STIM_007.jpg
2416.579	1.077	correct	incongruent	Block3	incongruent/STIM_007.jpg
2419.585	0.576	correct	incongruent	Block3	incongruent/STIM_007.jpg
2423.043	0.963	correct	incongruent	Block3	incongruent/STIM_007.jpg
2427.047	1.124	correct	incongruent	Block3	incongruent/STIM_007.jpg
2431.549	0.653	correct	incongruent	Block3	incongruent/STIM_008.jpg
2435.737	0.971	correct	incongruent	Block3	incongruent/STIM_008.jpg
2439.149	0.552	correct	incongruent	Block3	incongruent/STIM_008.jpg
2442.984	0.771	correct	incongruent	Block3	incongruent/STIM_008.jpg
2447.301	0.746	correct	incongruent	Block3	incongruent/STIM_008.jpg
2451.665	1.055	correct	incongruent	Block3	incongruent/STIM_009.jpg
2455.262	0.632	correct	incongruent	Block3	incongruent/STIM_009.jpg
2458.94	1.109	correct	incongruent	Block3	incongruent/STIM_009.jpg
2462.703	0.788	correct	incongruent	Block3	incongruent/STIM_009.jpg
2466.462	0.655	correct	incongruent	Block3	incongruent/STIM_009.jpg
2469.097	1.03	correct	incongruent	Block3	incongruent/STIM_010.jpg
2473.41	0.609	correct	incongruent	Block3	incongruent/STIM_010.jpg
2477.054	0.955	correct	incongruent	Block3	incongruent/STIM_010.jpg
2480.818	1.004	correct	incongruent	Block3	incongruent/STIM_010.jpg
2483.944	0.686	correct	incongruent	Block3	incongruent/STIM_010.jpg
2488.509	0.661	correct	incongruent	Block3	incongruent/STIM_011.jpg
2492.076	0.645	correct	incongruent	Block3	incongruent/STIM_011.jpg
2494.875	0.752	correct	incongruent	Block3	incongruent/STIM_011.jpg
2497.948	0.947	correct	incongruent	Block3	incongruent/STIM_011.jpg
2500.911	0.939	correct	incongruent	Block3	incongruent/STIM_011.jpg
2505.259	1.059	correct	incongruent	Block3	incongruent/STIM_012.jpg
2509.68	1.055	incorrect	incongruent	Block3	incongruent/STIM_012.jpg
2513.349	0.561	correct	incongruent	Block3	incongruent/STIM_012.jpg
2517.049	0.776	correct	incongruent	Block3	incongruent/STIM_012.jpg
2520.746	1.041	correct	incongruent	Block3	incongruent/STIM_012.jpg
2524.331	0.942	correct	incongruent	Block3	incongruent/STIM_013.jpg
2529.167	0.663	correct	incongruent	Block3	incongruent/STIM_013.jpg
2532.435	0.582	correct	incongruent	Block3	incongruent/STIM_013.jpg
2536.277	0.548	correct	incongruent	Block3	incongruent/STIM_013.jpg
2538.933	0.587	correct	incongruent	Block3	incongruent/STIM_013.jpg
2541.59	0.601	correct	incongruent	Block3	incongruent/STIM_014.jpg
2544.549	1.002	correct	incongruent	Block3	incongruent/STIM_014.jpg
2547.797	0.708	correct	incongruent	Block3	incongruent/STIM_014.jpg
2551.665	0.713	correct	incongruent	Block3	incongruent/STIM_014.jpg
2555.53	0.616	correct	incongruent	Block3	incongruent/STIM_014.jpg
2559.511	1.065	correct	incongruent	Block3	incongruent/STIM_015.jpg
2562.839	0.706	correct	incongruent	Block3	incongruent/STIM_015.jpg
2567.215	0.926	correct	incongruent	Block3	incongruent/STIM_015.jpg
2570.708	0.896	correct	incongruent	Block3	incongruent/STIM_015.jpg
2573.829	0.705	correct	incongruent	Block3	incongruent/STIM_015.jpg
2577.557	1.108	correct	incongruent	Block3	incongruent/STIM_016.jpg
2581.034	0.955	correct	incongruent	Block3	incongruent/STIM_016.jpg
2583.948	1.051	incorrect	incongruent	Block3	incongruent/STIM_016.jpg
2587.638	1.089	correct	incongruent	Block3	incongruent/STIM_016.jpg
2592.421	0.572	correct	incongruent	Block3	incongruent/STIM_016.jpg
2596.127	0.766	correct	incongruent	Block3	incongruent/STIM_017.jpg
2599.7	1.07	correct	incongruent	Block3	incongruent/STIM_017.jpg
2602.969	0.679	correct	incongruent	Block3	incongruent/STIM_017.jpg
2607.266	0.925	correct	incongruent	Block3	incongruent/STIM_017.jpg
2611.16	0.604	correct	incongruent	Block3	incongruent/STIM_017.jpg
2615.082	0.584	correct	incongruent	Block3	incongruent/STIM_018.jpg
2619.157	0.606	correct	incongruent	Block3	incongruent/STIM_018.jpg
2622.275	0.588	incorrect	incongruent	Block3	incongruent/STIM_018.jpg
2626.233	1.088	correct	incongruent	Block3	incongruent/STIM_018.jpg
2630.971	1.089	correct	incongruent	Block3	incongruent/STIM_018.jpg
2634.357	0.826	correct	incongruent	Block3	incongruent/STIM_019.jpg
2637.519	0.705	correct	incongruent	Block3	incongruent/STIM_019.jpg
2641.873	0.591	correct	incongruent	Block3	incongruent/STIM_019.jpg
2644.943	0.948	correct	incongruent	Block3	incongruent/STIM_019.jpg
2649.372	0.974	correct	incongruent	Block3	incongruent/STIM_019.jpg
2653.412	0.743	correct	incongruent	Block3	incongruent/STIM_020.jpg
2656.602	1.092	correct	incongruent	Block3	incongruent/STIM_020.jpg
2661.128	0.815	correct	incongruent	Block3	incongruent/STIM_020.jpg
2664.447	0.906	correct	incongruent	Block3	incongruent/STIM_020.jpg
2668.438	0.961	correct	incongruent	Block3	incongruent/STIM_020.jpg
2671.922	0.868	correct	incongruent	Block3	incongruent/STIM_021.jpg
2676.434	0.738	correct	incongruent	Block3	incongruent/STIM_021.jpg
2680.957	0.797	correct	incongruent	Block3	incongruent/STIM_021.jpg
2684.298	1.042	correct	incongruent	Block3	incongruent/STIM_021.jpg
2687.925	0.671	correct	incongruent	Block3	incongruent/STIM_021.jpg
2691.937	0.955	correct	incongruent	Block3	incongruent/STIM_022.jpg
2695.802	0.691	correct	incongruent	Block3	incongruent/STIM_022.jpg
2700.291	1.039	correct	incongruent	Block3	incongruent/STIM_022.jpg
2703.386	0.959	correct	incongruent	Block3	incongruent/STIM_022.jpg
2708.26	0.542	correct	incongruent	Block3	incongruent/STIM_022.jpg
2712.567	0.834	correct	incongruent	Block3	incongruent/STIM_023.jpg
2717.241	0.682	correct	incongruent	Block3	incongruent/STIM_023.jpg
2721.536	0.852	correct	incongruent	Block3	incongruent/STIM_023.jpg
2724.795	0.995	correct	incongruent	Block3	incongruent/STIM_023.jpg
2728.277	0.994	correct	incongruent	Block3	incongruent/STIM_023.jpg
2732.322	0.721	correct	incongruent	Block3	incongruent/STIM_024.jpg
2736.817	0.972	correct	incongruent	Block3	incongruent/STIM_024.jpg
2741.331	0.802	correct	incongruent	Block3	incongruent/STIM_024.jpg
2744.421	0.606	correct	incongruent	Block3	incongruent/STIM_024.jpg
2748.356	1.112	correct	incongruent	Block3	incongruent/STIM_024.jpg
2751.583	0.739	correct	incongruent	Block3	incongruent/STIM_025.jpg
2755.422	0.84	correct	incongruent	Block3	incongruent/STIM_025.jpg
2758.584	1.143	correct	incongruent	Block3	incongruent/STIM_025.jpg
2762.869	0.7	correct	incongruent	Block3	incongruent/STIM_025.jpg
2766.622	1.11	correct	incongruent	Block3	incongruent/STIM_025.jpg
2770.292	0.775	correct	incongruent	Block3	incongruent/STIM_026.jpg
2774.937	0.874	correct	incongruent	Block3	incongruent/STIM_026.jpg
2778.388	0.955	correct	incongruent	Block3	incongruent/STIM_026.jpg
2782.43	0.94	correct	incongruent	Block3	incongruent/STIM_026.jpg
2785.42	0.579	correct	incongruent	Block3	incongruent/STIM_026.jpg
2789.71	0.822	correct	incongruent	Block3	incongruent/STIM_027.jpg
2794.155	1.005	correct	incongruent	Block3	incongruent/STIM_027.jpg
2798.398	1.014	correct	incongruent	Block3	incongruent/STIM_027.jpg
2801.657	0.724	correct	incongruent	Block3	incongruent/STIM_027.jpg
2806.034	0.655	correct	incongruent	Block3	incongruent/STIM_027.jpg
2810.403	0.652	correct	incongruent	Block3	incongruent/STIM_028.jpg
2814.971	1.008	correct	incongruent	Block3	incongruent/STIM_028.jpg
2819.168	0.711	correct	incongruent	Block3	incongruent/STIM_028.jpg
2823.715	0.899	correct	incongruent	Block3	incongruent/STIM_028.jpg
2828.499	0.644	correct	incongruent	Block3	incongruent/STIM_028.jpg
2831.948	1.066	correct	incongruent	Block3	incongruent/STIM_029.jpg
2836.377	0.969	correct	incongruent	Block3	incongruent/STIM_029.jpg
2840.727	1.1	correct	incongruent	Block3	incongruent/STIM_029.jpg
2843.972	0.9	correct	incongruent	Block3	incongruent/STIM_029.jpg
2847.412	1.037	correct	incongruent	Block3	incongruent/STIM_029.jpg
2852.094	0.73	correct	congruent	Block3	congruent/STIM_000.jpg
2855.265	0.715	correct	congruent	Block3	congruent/STIM_000.jpg
2858.113	0.811	correct	congruent	Block3	congruent/STIM_000.jpg
2862.053	0.932	correct	congruent	Block3	congruent/STIM_000.jpg
2866.212	0.903	correct	congruent	Block3	congruent/STIM_000.jpg
2869.624	0.776	correct	congruent	Block3	congruent/STIM_001.jpg
2872.533	0.6	correct	congruent	Block3	congruent/STIM_001.jpg
2875.424	0.899	correct	congruent	Block3	congruent/STIM_001.jpg
2879.629	0.845	correct	congruent	Block3	congruent/STIM_001.jpg
2882.571	0.906	correct	congruent	Block3	congruent/STIM_001.jpg
2885.791	0.575	correct	congruent	Block3	congruent/STIM_002.jpg
2889.089	0.971	correct	congruent	Block3	congruent/STIM_002.jpg
2893.812	0.797	correct	congruent	Block3	congruent/STIM_002.jpg
2898.382	0.854	correct	congruent	Block3	congruent/STIM_002.jpg
2901.234	0.764	correct	congruent	Block3	congruent/STIM_002.jpg
2905.029	0.933	correct	congruent	Block3	congruent/STIM_003.jpg
2909.743	0.593	correct	congruent	Block3	congruent/STIM_003.jpg
2913.482	0.625	correct	congruent	Block3	congruent/STIM_003.jpg
2916.445	0.544	correct	congruent	Block3	congruent/STIM_003.jpg
2919.553	0.546	correct	congruent	Block3	congruent/STIM_003.jpg
2922.521	0.561	correct	congruent	Block3	congruent/STIM_004.jpg
2926.191	0.689	correct	congruent	Block3	congruent/STIM_004.jpg
2929.496	0.656	correct	congruent	Block3	congruent/STIM_004.jpg
2933.432	0.729	correct	congruent	Block3	congruent/STIM_004.jpg
2937.674	0.591	correct	congruent	Block3	congruent/STIM_004.jpg
2941.649	0.706	correct	congruent	Block3	congruent/STIM_005.jpg
2945.02	0.863	correct	congruent	Block3	congruent/STIM_005.jpg
2949.715	0.708	correct	congruent	Block3	congruent/STIM_005.jpg
2953.006	0.965	correct	congruent	Block3	congruent/STIM_005.jpg
2957.287	0.803	correct	congruent	Block3	congruent/STIM_005.jpg
2961.507	0.671	correct	congruent	Block3	congruent/STIM_006.jpg
2966.122	0.668	correct	congruent	Block3	congruent/STIM_006.jpg
2969.509	0.805	correct	congruent	Block3	congruent/STIM_006.jpg
2974.118	0.827	correct	congruent	Block3	congruent/STIM_006.jpg
2978.411	0.554	correct	congruent	Block3	congruent/STIM_006.jpg
2982.349	0.908	correct	congruent	Block3	congruent/STIM_007.jpg
2985.646	0.646	correct	congruent	Block3	congruent/STIM_007.jpg
2988.701	0.666	correct	congruent	Block3	congruent/STIM_007.jpg
2992.199	0.577	correct	congruent	Block3	congruent/STIM_007.jpg
2996.025	0.83	correct	congruent	Block3	congruent/STIM_007.jpg
3000.177	0.615	correct	congruent	Block3	congruent/STIM_008.jpg
3004.188	0.979	correct	congruent	Block3	congruent/STIM_008.jpg
3007.746	0.723	correct	congruent	Block3	congruent/STIM_008.jpg
3010.886	0.603	correct	congruent	Block3	congruent/STIM_008.jpg
3014.304	0.564	correct	congruent	Block3	congruent/STIM_008.jpg
3018.281	0.86	correct	congruent	Block3	congruent/STIM_009.jpg
3022.687	0.736	incorrect	congruent	Block3	congruent/STIM_009.jpg
3026.886	0.884	correct	congruent	Block3	congruent/STIM_009.jpg
3031.672	0.702	correct	congruent	Block3	congruent/STIM_009.jpg
3035.755	0.954	correct	congruent	Block3	congruent/STIM_009.jpg
3040.243	0.83	correct	congruent	Block3	congruent/STIM_010.jpg
3044.449	0.771	correct	congruent	Block3	congruent/STIM_010.jpg
3048.518	0.927	correct	congruent	Block3	congruent/STIM_010.jpg
3051.717	0.94	correct	congruent	Block3	congruent/STIM_010.jpg
3056.438	0.584	correct	congruent	Block3	congruent/STIM_010.jpg
3059.1	0.804	correct	congruent	Block3	congruent/STIM_011.jpg
3061.858	0.867	correct	congruent	Block3	congruent/STIM_011.jpg
3064.949	0.703	correct	congruent	Block3	congruent/STIM_011.jpg
3069.183	0.978	correct	congruent	Block3	congruent/STIM_011.jpg
3072.264	0.798	correct	congruent	Block3	congruent/STIM_011.jpg
3075.209	0.741	correct	congruent	Block3	congruent/STIM_012.jpg
3078.164	0.576	correct	congruent	Block3	congruent/STIM_012.jpg
3081.071	0.55	correct	congruent	Block3	congruent/STIM_012.jpg
3084.221	0.73	correct	congruent	Block3	congruent/STIM_012.jpg
3088.808	0.83	correct	congruent	Block3	congruent/STIM_012.jpg
3092.873	0.87	correct	congruent	Block3	congruent/STIM_013.jpg
3096.464	0.724	correct	congruent	Block3	congruent/STIM_013.jpg
3100.394	0.771	correct	congruent	Block3	congruent/STIM_013.jpg
3104.329	0.691	correct	congruent	Block3	congruent/STIM_013.jpg
3107.29	0.599	correct	congruent	Block3	congruent/STIM_013.jpg
3109.918	0.943	correct	congruent	Block3	congruent/STIM_014.jpg
3113.255	0.746	correct	congruent	Block3	congruent/STIM_014.jpg
3115.957	0.57	correct	congruent	Block3	congruent/STIM_014.jpg
3119.892	0.814	correct	congruent	Block3	congruent/STIM_014.jpg
3124.343	0.774	correct	congruent	Block3	congruent/STIM_014.jpg
3127.932	0.552	correct	congruent	Block3	congruent/STIM_015.jpg
3131.71	0.901	correct	congruent	Block3	congruent/STIM_015.jpg
3136.372	0.939	correct	congruent	Block3	congruent/STIM_015.jpg
3139.865	0.878	correct	congruent	Block3	congruent/STIM_015.jpg
3143.817	0.684	correct	congruent	Block3	congruent/STIM_015.jpg
3147.326	0.676	correct	congruent	Block3	congruent/STIM_016.jpg
3150.125	0.655	incorrect	congruent	Block3	congruent/STIM_016.jpg
3153.063	0.775	correct	congruent	Block3	congruent/STIM_016.jpg
3156.085	0.749	correct	congruent	Block3	congruent/STIM_016.jpg
3159.01	0.566	correct	congruent	Block3	congruent/STIM_016.jpg
3162.672	0.55	correct	congruent	Block3	congruent/STIM_017.jpg
3166.525	0.758	correct	congruent	Block3	congruent/STIM_017.jpg
3170.88	0.584	correct	congruent	Block3	congruent/STIM_017.jpg
3173.911	0.695	correct	congruent	Block3	congruent/STIM_017.jpg
3178.378	0.748	correct	congruent	Block3	congruent/STIM_017.jpg
3181.252	0.595	correct	congruent	Block3	congruent/STIM_018.jpg
3185.478	0.912	correct	congruent	Block3	congruent/STIM_018.jpg
3189.406	0.817	correct	congruent	Block3	congruent/STIM_018.jpg
3193.376	0.921	correct	congruent	Block3	congruent/STIM_018.jpg
3197.664	0.574	correct	congruent	Block3	congruent/STIM_018.jpg
3201.814	0.943	correct	congruent	Block3	congruent/STIM_019.jpg
3206.634	0.884	correct	congruent	Block3	congruent/STIM_019.jpg
3210.072	0.882	correct	congruent	Block3	congruent/STIM_019.jpg
3214.803	0.697	correct	congruent	Block3	congruent/STIM_019.jpg
3219.253	0.777	correct	congruent	Block3	congruent/STIM_019.jpg
3223.026	0.894	correct	congruent	Block3	congruent/STIM_020.jpg
3227.78	0.862	correct	congruent	Block3	congruent/STIM_020.jpg
3231.473	0.929	correct	congruent	Block3	congruent/STIM_020.jpg
3235.64	0.685	correct	congruent	Block3	congruent/STIM_020.jpg
3240.232	0.875	correct	congruent	Block3	congruent/STIM_020.jpg
3243.296	0.753	correct	congruent	Block3	congruent/STIM_021.jpg
3246.945	0.711	correct	congruent	Block3	congruent/STIM_021.jpg
3249.875	0.578	correct	congruent	Block3	congruent/STIM_021.jpg
3252.974	0.858	incorrect	congruent	Block3	congruent/STIM_021.jpg
3257.603	0.622	correct	congruent	Block3	congruent/STIM_021.jpg
3260.807	0.753	correct	congruent	Block3	congruent/STIM_022.jpg
3264.4	0.546	correct	congruent	Block3	congruent/STIM_022.jpg
3267.74	0.776	correct	congruent	Block3	congruent/STIM_022.jpg
3271.769	0.948	correct	congruent	Block3	congruent/STIM_022.jpg
3275.823	0.92	correct	congruent	Block3	congruent/STIM_022.jpg
3279.847	0.941	correct	congruent	Block3	congruent/STIM_023.jpg
3283.977	0.627	correct	congruent	Block3	congruent/STIM_023.jpg
3288.28	0.712	correct	congruent	Block3	congruent/STIM_023.jpg
3292.761	0.889	correct	congruent	Block3	congruent/STIM_023.jpg
3296.505	0.755	correct	congruent	Block3	congruent/STIM_023.jpg
3299.814	0.745	correct	congruent	Block3	congruent/STIM_024.jpg
3302.685	0.663	correct	congruent	Block3	congruent/STIM_024.jpg
3306.139	0.953	correct	congruent	Block3	congruent/STIM_024.jpg
3309.671	0.632	correct	congruent	Block3	congruent/STIM_024.jpg
3312.717	0.563	correct	congruent	Block3	congruent/STIM_024.jpg
3315.805	0.661	correct	congruent	Block3	congruent/STIM_025.jpg
3320.375	0.554	incorrect	congruent	Block3	congruent/STIM_025.jpg
3322.952	0.604	correct	congruent	Block3	congruent/STIM_025.jpg
3326.737	0.636	correct	congruent	Block3	congruent/STIM_025.jpg
3330.29	0.868	correct	congruent	Block3	congruent/STIM_025.jpg
3334.217	0.718	correct	congruent	Block3	congruent/STIM_026.jpg
3338.392	0.809	correct	congruent	Block3	congruent/STIM_026.jpg
3342.412	0.972	correct	congruent	Block3	congruent/STIM_026.jpg
3345.972	0.61	correct	congruent	Block3	congruent/STIM_026.jpg
3349.406	0.624	correct	congruent	Block3	congruent/STIM_026.jpg
3353.819	0.595	correct	congruent	Block3	congruent/STIM_027.jpg
3356.645	0.963	correct	congruent	Block3	congruent/STIM_027.jpg
3359.943	0.688	incorrect	congruent	Block3	congruent/STIM_027.jpg
3362.716	0.635	incorrect	congruent	Block3	congruent/STIM_027.jpg
3365.527	0.868	correct	congruent	Block3	congruent/STIM_027.jpg
3369.69	0.584	correct	congruent	Block3	congruent/STIM_028.jpg
3373.617	0.823	correct	congruent	Block3	congruent/STIM_028.jpg
3378.175	0.892	correct	congruent	Block3	congruent/STIM_028.jpg
3381.795	0.555	correct	congruent	Block3	congruent/STIM_028.jpg
3384.755	0.897	correct	congruent	Block3	congruent/STIM_028.jpg
3389.439	0.732	incorrect	congruent	Block3	congruent/STIM_029.jpg
3393.168	0.592	correct	congruent	Block3	congruent/STIM_029.jpg
3397.453	0.654	correct	congruent	Block3	congruent/STIM_029.jpg
3400.826	0.96	correct	congruent	Block3	congruent/STIM_029.jpg
3404.393	0.904	correct	congruent	Block3	congruent/STIM_029.jpg
