onset	duration	accuracy_binary	trial_type	learning_stage	stimulus
0.0	2.122	1	generate	Run1	generate/STIM_000.jpg
5.274	2.116	1	generate	Run1	generate/STIM_000.jpg
9.791	2.589	1	generate	Run1	generate/STIM_000.jpg
14.783	1.693	1	generate	Run1	generate/STIM_000.jpg
19.734	1.285	1	generate	Run1	generate/STIM_000.jpg
24.631	2.787	1	generate	Run1	generate/STIM_001.jpg
30.637	1.632	1	generate	Run1	generate/STIM_001.jpg
35.53	1.889	1	generate	Run1	generate/STIM_001.jpg
39.918	2.165	1	generate	Run1	generate/STIM_001.jpg
45.252	1.524	1	generate	Run1	generate/STIM_001.jpg
49.526	1.65	1	generate	Run1	generate/STIM_002.jpg
54.148	2.396	1	generate	Run1	generate/STIM_002.jpg
60.462	2.324	1	generate	Run1	generate/STIM_002.jpg
65.997	2.351	0	generate	Run1	generate/STIM_002.jpg
70.759	1.999	1	generate	Run1	generate/STIM_002.jpg
76.627	2.39	1	generate	Run1	generate/STIM_003.jpg
81.736	1.577	1	generate	Run1	generate/STIM_003.jpg
86.303	2.266	1	generate	Run1	generate/STIM_003.jpg
92.077	1.983	1	generate	Run1	generate/STIM_003.jpg
96.319	1.588	1	generate	Run1	generate/STIM_003.jpg
100.984	1.729	0	generate	Run1	generate/STIM_004.jpg
104.867	2.354	0	generate	Run1	generate/STIM_004.jpg
109.62	2.443	1	generate	Run1	generate/STIM_004.jpg
116.019	1.845	1	generate	Run1	generate/STIM_004.jpg
120.864	2.621	1	generate	Run1	generate/STIM_004.jpg
126.291	3.404	1	generate	Run1	generate/STIM_005.jpg
132.784	1.43	1	generate	Run1	generate/STIM_005.jpg
137.486	2.988	1	generate	Run1	generate/STIM_005.jpg
143.124	1.418	1	generate	Run1	generate/STIM_005.jpg
148.169	1.715	1	generate	Run1	generate/STIM_005.jpg
153.525	2.774	1	generate	Run1	generate/STIM_006.jpg
158.916	2.246	1	generate	Run1	generate/STIM_006.jpg
164.504	2.79	1	generate	Run1	generate/STIM_006.jpg
170.575	1.884	1	generate	Run1	generate/STIM_006.jpg
175.062	1.121	1	generate	Run1	generate/STIM_006.jpg
180.151	2.947	1	generate	Run1	generate/STIM_007.jpg
186.995	3.099	0	generate	Run1	generate/STIM_007.jpg
192.833	1.713	1	generate	Run1	generate/STIM_007.jpg
197.44	2.056	1	generate	Run1	generate/STIM_007.jpg
201.885	2.668	1	generate	Run1	generate/STIM_007.jpg
207.002	1.642	1	generate	Run1	generate/STIM_008.jpg
212.057	2.132	1	generate	Run1	generate/STIM_008.jpg
217.967	1.347	1	generate	Run1	generate/STIM_008.jpg
222.384	2.582	1	generate	Run1	generate/STIM_008.jpg
227.1	1.894	1	generate	Run1	generate/STIM_008.jpg
231.294	3.37	1	generate	Run1	generate/STIM_009.jpg
237.412	3.138	1	generate	Run1	generate/STIM_009.jpg
242.759	1.838	1	generate	Run1	generate/STIM_009.jpg
248.123	1.451	1	generate	Run1	generate/STIM_009.jpg
253.565	1.451	1	generate	Run1	generate/STIM_009.jpg
257.402	2.158	1	generate	Run1	generate/STIM_010.jpg
262.981	3.266	1	generate	Run1	generate/STIM_010.jpg
268.681	2.139	1	generate	Run1	generate/STIM_010.jpg
273.133	1.823	1	generate	Run1	generate/STIM_010.jpg
278.034	1.919	1	generate	Run1	generate/STIM_010.jpg
282.548	2.466	1	generate	Run1	generate/STIM_011.jpg
287.665	1.972	1	generate	Run1	generate/STIM_011.jpg
293.416	2.492	1	generate	Run1	generate/STIM_011.jpg
298.559	2.454	1	generate	Run1	generate/STIM_011.jpg
303.982	2.697	1	generate	Run1	generate/STIM_011.jpg
310.266	3.119	1	generate	Run1	generate/STIM_012.jpg
316.703	2.188	1	generate	Run1	generate/STIM_012.jpg
321.231	1.34	0	generate	Run1	generate/STIM_012.jpg
325.279	1.69	1	generate	Run1	generate/STIM_012.jpg
329.976	1.659	1	generate	Run1	generate/STIM_012.jpg
333.989	2.232	1	generate	Run1	generate/STIM_013.jpg
339.773	1.625	1	generate	Run1	generate/STIM_013.jpg
344.738	2.192	1	generate	Run1	generate/STIM_013.jpg
350.164	2.47	1	generate	Run1	generate/STIM_013.jpg
355.667	2.053	1	generate	Run1	generate/STIM_013.jpg
360.605	1.698	1	generate	Run1	generate/STIM_014.jpg
365.665	1.658	1	generate	Run1	generate/STIM_014.jpg
370.619	1.945	1	generate	Run1	generate/STIM_014.jpg
374.902	2.327	0	generate	Run1	generate/STIM_014.jpg
380.872	1.59	1	generate	Run1	generate/STIM_014.jpg
384.825	2.617	1	generate	Run1	generate/STIM_015.jpg
390.868	1.926	1	generate	Run1	generate/STIM_015.jpg
395.983	2.83	1	generate	Run1	generate/STIM_015.jpg
400.833	2.689	1	generate	Run1	generate/STIM_015.jpg
405.799	2.555	1	generate	Run1	generate/STIM_015.jpg
412.032	3.387	1	generate	Run1	generate/STIM_016.jpg
417.925	3.225	1	generate	Run1	generate/STIM_016.jpg
423.527	2.164	1	generate	Run1	generate/STIM_016.jpg
429.454	1.358	1	generate	Run1	generate/STIM_016.jpg
433.362	1.442	1	generate	Run1	generate/STIM_016.jpg
436.827	3.19	1	generate	Run1	generate/STIM_017.jpg
443.298	2.194	1	generate	Run1	generate/STIM_017.jpg
448.622	1.385	1	generate	Run1	generate/STIM_017.jpg
453.458	2.267	1	generate	Run1	generate/STIM_017.jpg
457.943	1.481	1	generate	Run1	generate/STIM_017.jpg
462.779	1.683	1	generate	Run1	generate/STIM_018.jpg
467.1	2.902	1	generate	Run1	generate/STIM_018.jpg
473.558	1.513	1	generate	Run1	generate/STIM_018.jpg
477.6	1.365	1	generate	Run1	generate/STIM_018.jpg
481.085	1.76	0	generate	Run1	generate/STIM_018.jpg
485.696	2.787	1	generate	Run1	generate/STIM_019.jpg
491.459	2.831	1	generate	Run1	generate/STIM_019.jpg
497.52	2.608	1	generate	Run1	generate/STIM_019.jpg
503.998	2.138	1	generate	Run1	generate/STIM_019.jpg
508.169	2.21	1	generate	Run1	generate/STIM_019.jpg
513.287	1.499	0	generate	Run1	generate/STIM_020.jpg
518.704	1.489	1	generate	Run1	generate/STIM_020.jpg
523.807	2.476	1	generate	Run1	generate/STIM_020.jpg
528.72	2.294	1	generate	Run1	generate/STIM_020.jpg
534.256	1.626	1	generate	Run1	generate/STIM_020.jpg
538.062	1.746	0	generate	Run1	generate/STIM_021.jpg
543.339	1.484	1	generate	Run1	generate/STIM_021.jpg
548.185	1.748	1	generate	Run1	generate/STIM_021.jpg
553.872	2.1	1	generate	Run1	generate/STIM_021.jpg
558.254	1.37	0	generate	Run1	generate/STIM_021.jpg
563.025	2.642	1	generate	Run1	generate/STIM_022.jpg
568.403	2.649	1	generate	Run1	generate/STIM_022.jpg
574.418	2.19	1	generate	Run1	generate/STIM_022.jpg
579.184	1.27	1	generate	Run1	generate/STIM_022.jpg
583.122	2.339	1	generate	Run1	generate/STIM_022.jpg
587.746	2.681	1	generate	Run1	generate/STIM_023.jpg
594.002	1.944	1	generate	Run1	generate/STIM_023.jpg
599.322	2.062	1	generate	Run1	generate/STIM_023.jpg
603.957	2.716	1	generate	Run1	generate/STIM_023.jpg
609.321	1.26	1	generate	Run1	generate/STIM_023.jpg
613.527	2.118	1	generate	Run1	generate/STIM_024.jpg
618.417	2.047	1	generate	Run1	generate/STIM_024.jpg
622.519	2.208	1	generate	Run1	generate/STIM_024.jpg
627.344	2.051	1	generate	Run1	generate/STIM_024.jpg
632.639	2.032	0	generate	Run1	generate/STIM_024.jpg
637.467	0.979	1	repeat	Run1	repeat/STIM_000.jpg
641.228	0.772	1	repeat	Run1	repeat/STIM_000.jpg
645.631	0.714	1	repeat	Run1	repeat/STIM_000.jpg
648.482	1.131	1	repeat	Run1	repeat/STIM_000.jpg
652.428	0.609	1	repeat	Run1	repeat/STIM_000.jpg
656.112	0.603	1	repeat	Run1	repeat/STIM_001.jpg
659.673	0.829	1	repeat	Run1	repeat/STIM_001.jpg
663.602	0.941	1	repeat	Run1	repeat/STIM_001.jpg
666.958	0.806	1	repeat	Run1	repeat/STIM_001.jpg
670.265	0.578	1	repeat	Run1	repeat/STIM_001.jpg
673.411	1.017	1	repeat	Run1	repeat/STIM_002.jpg
677.714	0.742	1	repeat	Run1	repeat/STIM_002.jpg
680.9	1.114	1	repeat	Run1	repeat/STIM_002.jpg
685.028	1.053	1	repeat	Run1	repeat/STIM_002.jpg
689.429	1.024	1	repeat	Run1	repeat/STIM_002.jpg
694.283	0.749	1	repeat	Run1	repeat/STIM_003.jpg
697.919	0.963	1	repeat	Run1	repeat/STIM_003.jpg
702.478	0.976	1	repeat	Run1	repeat/STIM_003.jpg
706.827	0.981	1	repeat	Run1	repeat/STIM_003.jpg
711.149	0.725	1	repeat	Run1	repeat/STIM_003.jpg
713.93	0.783	1	repeat	Run1	repeat/STIM_004.jpg
717.929	1.107	1	repeat	Run1	repeat/STIM_004.jpg
721.637	0.597	1	repeat	Run1	repeat/STIM_004.jpg
724.3	1.039	1	repeat	Run1	repeat/STIM_004.jpg
727.574	0.6	1	repeat	Run1	repeat/STIM_004.jpg
731.991	0.804	1	repeat	Run1	repeat/STIM_005.jpg
736.484	0.635	1	repeat	Run1	repeat/STIM_005.jpg
739.558	1.133	1	repeat	Run1	repeat/STIM_005.jpg
743.279	0.792	1	repeat	Run1	repeat/STIM_005.jpg
747.576	1.029	1	repeat	Run1	repeat/STIM_005.jpg
752.382	1.123	1	repeat	Run1	repeat/STIM_006.jpg
755.822	0.786	1	repeat	Run1	repeat/STIM_006.jpg
759.857	1.036	1	repeat	Run1	repeat/STIM_006.jpg
763.767	0.851	1	repeat	Run1	repeat/STIM_006.jpg
768.444	0.881	1	repeat	Run1	repeat/STIM_006.jpg
773.09	0.584	1	repeat	Run1	repeat/STIM_007.jpg
776.588	0.894	1	repeat	Run1	repeat/STIM_007.jpg
780.038	0.836	1	repeat	Run1	repeat/STIM_007.jpg
784.699	1.136	1	repeat	Run1	repeat/STIM_007.jpg
788.434	0.702	1	repeat	Run1	repeat/STIM_007.jpg
792.395	1.092	1	repeat	Run1	repeat/STIM_008.jpg
797.256	0.654	1	repeat	Run1	repeat/STIM_008.jpg
801.657	0.671	1	repeat	Run1	repeat/STIM_008.jpg
806.259	0.912	1	repeat	Run1	repeat/STIM_008.jpg
810.301	0.858	1	repeat	Run1	repeat/STIM_008.jpg
813.752	0.922	1	repeat	Run1	repeat/STIM_009.jpg
817.334	0.852	1	repeat	Run1	repeat/STIM_009.jpg
821.262	1.118	1	repeat	Run1	repeat/STIM_009.jpg
825.615	0.926	1	repeat	Run1	repeat/STIM_009.jpg
829.774	0.98	1	repeat	Run1	repeat/STIM_009.jpg
834.733	0.889	1	repeat	Run1	repeat/STIM_010.jpg
837.838	0.811	1	repeat	Run1	repeat/STIM_010.jpg
842.218	0.655	1	repeat	Run1	repeat/STIM_010.jpg
845.829	1.026	1	repeat	Run1	repeat/STIM_010.jpg
848.917	0.8	1	repeat	Run1	repeat/STIM_010.jpg
851.841	0.982	1	repeat	Run1	repeat/STIM_011.jpg
856.102	1.029	1	repeat	Run1	repeat/STIM_011.jpg
859.23	0.665	1	repeat	Run1	repeat/STIM_011.jpg
861.973	0.75	1	repeat	Run1	repeat/STIM_011.jpg
866.352	0.912	1	repeat	Run1	repeat/STIM_011.jpg
871.087	0.602	1	repeat	Run1	repeat/STIM_012.jpg
875.448	0.927	1	repeat	Run1	repeat/STIM_012.jpg
878.504	0.789	1	repeat	Run1	repeat/STIM_012.jpg
882.495	0.687	1	repeat	Run1	repeat/STIM_012.jpg
885.443	0.976	1	repeat	Run1	repeat/STIM_012.jpg
889.846	0.796	1	repeat	Run1	repeat/STIM_013.jpg
894.083	0.678	1	repeat	Run1	repeat/STIM_013.jpg
896.766	0.882	1	repeat	Run1	repeat/STIM_013.jpg
901.458	0.649	1	repeat	Run1	repeat/STIM_013.jpg
905.038	0.728	1	repeat	Run1	repeat/STIM_013.jpg
909.049	1.058	1	repeat	Run1	repeat/STIM_014.jpg
912.971	0.886	1	repeat	Run1	repeat/STIM_014.jpg
917.155	0.925	1	repeat	Run1	repeat/STIM_014.jpg
920.337	1.031	1	repeat	Run1	repeat/STIM_014.jpg
924.437	1.142	1	repeat	Run1	repeat/STIM_014.jpg
928.294	2.134	1	generate	Run2	generate/STIM_000.jpg
933.926	1.789	1	generate	Run2	generate/STIM_000.jpg
938.855	1.058	1	generate	Run2	generate/STIM_000.jpg
943.323	1.867	1	generate	Run2	generate/STIM_000.jpg
947.515	2.14	1	generate	Run2	generate/STIM_000.jpg
952.014	2.612	1	generate	Run2	generate/STIM_001.jpg
958.163	2.244	1	generate	Run2	generate/STIM_001.jpg
963.65	2.563	1	generate	Run2	generate/STIM_001.jpg
968.311	1.892	0	generate	Run2	generate/STIM_001.jpg
973.814	1.968	1	generate	Run2	generate/STIM_001.jpg
978.246	1.311	1	generate	Run2	generate/STIM_002.jpg
982.215	1.891	1	generate	Run2	generate/STIM_002.jpg
987.05	2.024	1	generate	Run2	generate/STIM_002.jpg
991.723	1.598	1	generate	Run2	generate/STIM_002.jpg
995.409	2.202	1	generate	Run2	generate/STIM_002.jpg
1001.484	1.698	1	generate	Run2	generate/STIM_003.jpg
1005.998	1.826	1	generate	Run2	generate/STIM_003.jpg
1010.092	1.18	1	generate	Run2	generate/STIM_003.jpg
1015.117	2.026	1	generate	Run2	generate/STIM_003.jpg
1020.117	1.306	1	generate	Run2	generate/STIM_003.jpg
1024.376	1.644	1	generate	Run2	generate/STIM_004.jpg
1029.595	1.644	1	generate	Run2	generate/STIM_004.jpg
1033.27	2.477	1	generate	Run2	generate/STIM_004.jpg
1038.775	1.799	1	generate	Run2	generate/STIM_004.jpg
1044.458	2.074	1	generate	Run2	generate/STIM_004.jpg
1049.447	2.553	1	generate	Run2	generate/STIM_005.jpg
1055.873	1.618	1	generate	Run2	generate/STIM_005.jpg
1059.777	2.158	1	generate	Run2	generate/STIM_005.jpg
1065.398	1.246	0	generate	Run2	generate/STIM_005.jpg
1069.357	2.117	1	generate	Run2	generate/STIM_005.jpg
1073.725	1.215	1	generate	Run2	generate/STIM_006.jpg
1077.459	1.621	1	generate	Run2	generate/STIM_006.jpg
1082.158	1.684	1	generate	Run2	generate/STIM_006.jpg
1087.81	1.498	1	generate	Run2	generate/STIM_006.jpg
1091.676	1.024	1	generate	Run2	generate/STIM_006.jpg
1095.336	1.944	1	generate	Run2	generate/STIM_007.jpg
1100.036	1.482	1	generate	Run2	generate/STIM_007.jpg
1104.957	2.087	1	generate	Run2	generate/STIM_007.jpg
1109.887	2.097	1	generate	Run2	generate/STIM_007.jpg
1115.444	2.112	1	generate	Run2	generate/STIM_007.jpg
1120.056	2.101	1	generate	Run2	generate/STIM_008.jpg
1126.123	1.235	1	generate	Run2	generate/STIM_008.jpg
1129.964	1.956	1	generate	Run2	generate/STIM_008.jpg
1134.027	2.091	1	generate	Run2	generate/STIM_008.jpg
1139.424	2.324	1	generate	Run2	generate/STIM_008.jpg
1144.78	1.911	1	generate	Run2	generate/STIM_009.jpg
1149.177	1.143	1	generate	Run2	generate/STIM_009.jpg
1153.518	2.147	1	generate	Run2	generate/STIM_009.jpg
1159.125	1.16	0	generate	Run2	generate/STIM_009.jpg
1163.777	2.008	1	generate	Run2	generate/STIM_009.jpg
1168.091	1.992	1	generate	Run2	generate/STIM_010.jpg
1173.508	1.374	1	generate	Run2	generate/STIM_010.jpg
1178.804	2.318	1	generate	Run2	generate/STIM_010.jpg
1184.928	1.241	1	generate	Run2	generate/STIM_010.jpg
1189.021	2.076	0	generate	Run2	generate/STIM_010.jpg
1193.286	1.385	1	generate	Run2	generate/STIM_011.jpg
1198.253	1.462	1	generate	Run2	generate/STIM_011.jpg
1203.578	1.57	1	generate	Run2	generate/STIM_011.jpg
1208.19	1.577	1	generate	Run2	generate/STIM_011.jpg
1212.917	1.537	1	generate	Run2	generate/STIM_011.jpg
1216.68	1.405	1	generate	Run2	generate/STIM_012.jpg
1221.663	2.651	1	generate	Run2	generate/STIM_012.jpg
1227.658	1.344	0	generate	Run2	generate/STIM_012.jpg
1232.635	1.296	1	generate	Run2	generate/STIM_012.jpg
1235.989	2.142	1	generate	Run2	generate/STIM_012.jpg
1241.015	2.435	1	generate	Run2	generate/STIM_013.jpg
1246.299	1.241	1	generate	Run2	generate/STIM_013.jpg
1249.863	1.191	1	generate	Run2	generate/STIM_013.jpg
1254.281	1.467	1	generate	Run2	generate/STIM_013.jpg
1258.174	1.784	1	generate	Run2	generate/STIM_013.jpg
1262.989	2.764	1	generate	Run2	generate/STIM_014.jpg
1269.215	2.537	1	generate	Run2	generate/STIM_014.jpg
1273.895	2.193	1	generate	Run2	generate/STIM_014.jpg
1279.606	1.655	1	generate	Run2	generate/STIM_014.jpg
1285.007	1.001	1	generate	Run2	generate/STIM_014.jpg
1289.679	2.787	1	generate	Run2	generate/STIM_015.jpg
1295.779	2.715	1	generate	Run2	generate/STIM_015.jpg
1300.793	1.445	1	generate	Run2	generate/STIM_015.jpg
1304.797	1.737	1	generate	Run2	generate/STIM_015.jpg
1310.216	2.123	1	generate	Run2	generate/STIM_015.jpg
1315.48	2.119	1	generate	Run2	generate/STIM_016.jpg
1319.809	1.659	1	generate	Run2	generate/STIM_016.jpg
1323.537	1.387	1	generate	Run2	generate/STIM_016.jpg
1328.177	1.142	1	generate	Run2	generate/STIM_016.jpg
1331.331	1.34	1	generate	Run2	generate/STIM_016.jpg
1336.107	1.866	1	generate	Run2	generate/STIM_017.jpg
1340.438	2.716	1	generate	Run2	generate/STIM_017.jpg
1345.382	1.284	1	generate	Run2	generate/STIM_017.jpg
1348.882	2.128	1	generate	Run2	generate/STIM_017.jpg
1354.249	1.162	1	generate	Run2	generate/STIM_017.jpg
1358.995	1.507	1	generate	Run2	generate/STIM_018.jpg
1362.73	2.346	1	generate	Run2	generate/STIM_018.jpg
1369.057	1.337	1	generate	Run2	generate/STIM_018.jpg
1374.157	2.024	1	generate	Run2	generate/STIM_018.jpg
1379.903	1.423	1	generate	Run2	generate/STIM_018.jpg
1383.564	2.274	1	generate	Run2	generate/STIM_019.jpg
1389.046	1.584	1	generate	Run2	generate/STIM_019.jpg
1393.337	2.446	1	generate	Run2	generate/STIM_019.jpg
1399.042	1.506	1	generate	Run2	generate/STIM_019.jpg
1403.757	1.255	1	generate	Run2	generate/STIM_019.jpg
1407.488	1.818	1	generate	Run2	generate/STIM_020.jpg
1412.6	2.25	1	generate	Run2	generate/STIM_020.jpg
1417.376	1.154	1	generate	Run2	generate/STIM_020.jpg
1421.458	2.387	1	generate	Run2	generate/STIM_020.jpg
1427.681	2.107	1	generate	Run2	generate/STIM_020.jpg
1433.783	1.687	1	generate	Run2	generate/STIM_021.jpg
1437.641	1.694	1	generate	Run2	generate/STIM_021.jpg
1442.911	1.198	0	generate	Run2	generate/STIM_021.jpg
1446.922	1.73	1	generate	Run2	generate/STIM_021.jpg
1452.464	1.888	1	generate	Run2	generate/STIM_021.jpg
1458.082	1.385	1	generate	Run2	generate/STIM_022.jpg
1462.756	2.055	1	generate	Run2	generate/STIM_022.jpg
1466.914	2.103	1	generate	Run2	generate/STIM_022.jpg
1472.09	1.591	1	generate	Run2	generate/STIM_022.jpg
1475.709	1.905	1	generate	Run2	generate/STIM_022.jpg
1480.471	2.823	1	generate	Run2	generate/STIM_023.jpg
1487.035	2.067	1	generate	Run2	generate/STIM_023.jpg
1491.413	1.601	0	generate	Run2	generate/STIM_023.jpg
1496.322	1.841	1	generate	Run2	generate/STIM_023.jpg
1500.281	1.767	1	generate	Run2	generate/STIM_023.jpg
1505.224	1.622	1	generate	Run2	generate/STIM_024.jpg
1510.575	2.605	1	generate	Run2	generate/STIM_024.jpg
1516.549	1.621	1	generate	Run2	generate/STIM_024.jpg
1521.263	1.901	1	generate	Run2	generate/STIM_024.jpg
1526.166	1.914	1	generate	Run2	generate/STIM_024.jpg
1531.634	0.684	0	repeat	Run2	repeat/STIM_000.jpg
1535.268	0.91	1	repeat	Run2	repeat/STIM_000.jpg
1539.897	1.121	1	repeat	Run2	repeat/STIM_000.jpg
1544.977	1.147	1	repeat	Run2	repeat/STIM_000.jpg
1548.794	0.835	1	repeat	Run2	repeat/STIM_000.jpg
1552.044	0.888	1	repeat	Run2	repeat/STIM_001.jpg
1556.513	0.904	1	repeat	Run2	repeat/STIM_001.jpg
1560.463	0.799	1	repeat	Run2	repeat/STIM_001.jpg
1565.182	0.633	1	repeat	Run2	repeat/STIM_001.jpg
1569.568	0.662	1	repeat	Run2	repeat/STIM_001.jpg
1572.582	0.913	1	repeat	Run2	repeat/STIM_002.jpg
1577.374	0.978	1	repeat	Run2	repeat/STIM_002.jpg
1581.46	0.728	1	repeat	Run2	repeat/STIM_002.jpg
1585.877	0.942	1	repeat	Run2	repeat/STIM_002.jpg
1590.788	0.859	1	repeat	Run2	repeat/STIM_002.jpg
1593.81	1.029	0	repeat	Run2	repeat/STIM_003.jpg
1598.606	0.856	1	repeat	Run2	repeat/STIM_003.jpg
1603.425	0.654	1	repeat	Run2	repeat/STIM_003.jpg
1607.015	0.966	1	repeat	Run2	repeat/STIM_003.jpg
1610.703	0.958	1	repeat	Run2	repeat/STIM_003.jpg
1614.384	0.871	1	repeat	Run2	repeat/STIM_004.jpg
1617.668	1.124	1	repeat	Run2	repeat/STIM_004.jpg
1621.375	0.641	1	repeat	Run2	repeat/STIM_004.jpg
1625.018	0.778	1	repeat	Run2	repeat/STIM_004.jpg
1628.522	0.686	1	repeat	Run2	repeat/STIM_004.jpg
1632.67	0.774	1	repeat	Run2	repeat/STIM_005.jpg
1635.469	0.698	0	repeat	Run2	repeat/STIM_005.jpg
1640.027	0.756	1	repeat	Run2	repeat/STIM_005.jpg
1643.801	0.819	1	repeat	Run2	repeat/STIM_005.jpg
1647.575	0.627	1	repeat	Run2	repeat/STIM_005.jpg
1650.928	0.596	1	repeat	Run2	repeat/STIM_006.jpg
1653.895	0.577	1	repeat	Run2	repeat/STIM_006.jpg
1657.493	0.856	0	repeat	Run2	repeat/STIM_006.jpg
1660.541	1.144	1	repeat	Run2	repeat/STIM_006.jpg
1664.742	0.895	1	repeat	Run2	repeat/STIM_006.jpg
1669.138	0.699	1	repeat	Run2	repeat/STIM_007.jpg
1673.325	1.094	1	repeat	Run2	repeat/STIM_007.jpg
1676.698	0.948	1	repeat	Run2	repeat/STIM_007.jpg
1680.965	0.824	1	repeat	Run2	repeat/STIM_007.jpg
1685.494	0.776	1	repeat	Run2	repeat/STIM_007.jpg
1689.846	0.728	1	repeat	Run2	repeat/STIM_008.jpg
1693.592	0.75	1	repeat	Run2	repeat/STIM_008.jpg
1697.016	0.885	1	repeat	Run2	repeat/STIM_008.jpg
1700.845	0.945	1	repeat	Run2	repeat/STIM_008.jpg
1704.074	1.004	1	repeat	Run2	repeat/STIM_008.jpg
1708.147	1.093	1	repeat	Run2	repeat/STIM_009.jpg
1711.879	0.588	1	repeat	Run2	repeat/STIM_009.jpg
1716.131	0.582	1	repeat	Run2	repeat/STIM_009.jpg
1720.637	0.659	1	repeat	Run2	repeat/STIM_009.jpg
1723.831	0.735	1	repeat	Run2	repeat/STIM_009.jpg
1728.219	1.095	1	repeat	Run2	repeat/STIM_010.jpg
1732.669	0.882	1	repeat	Run2	repeat/STIM_010.jpg
1736.723	0.868	1	repeat	Run2	repeat/STIM_010.jpg
1741.566	1.152	1	repeat	Run2	repeat/STIM_010.jpg
1745.319	0.898	1	repeat	Run2	repeat/STIM_010.jpg
1748.228	1.127	1	repeat	Run2	repeat/STIM_011.jpg
1752.578	0.833	1	repeat	Run2	repeat/STIM_011.jpg
1756.733	0.581	1	repeat	Run2	repeat/STIM_011.jpg
1759.909	0.971	1	repeat	Run2	repeat/STIM_011.jpg
1762.946	1.114	1	repeat	Run2	repeat/STIM_011.jpg
1767.398	0.753	1	repeat	Run2	repeat/STIM_012.jpg
1770.774	0.604	1	repeat	Run2	repeat/STIM_012.jpg
1774.807	0.578	1	repeat	Run2	repeat/STIM_012.jpg
1777.842	0.872	1	repeat	Run2	repeat/STIM_012.jpg
1782.256	1.095	1	repeat	Run2	repeat/STIM_012.jpg
1786.492	1.139	1	repeat	Run2	repeat/STIM_013.jpg
1790.603	0.686	1	repeat	Run2	repeat/STIM_013.jpg
1793.965	0.88	1	repeat	Run2	repeat/STIM_013.jpg
1797.569	0.727	1	repeat	Run2	repeat/STIM_013.jpg
1801.16	1.125	1	repeat	Run2	repeat/STIM_013.jpg
1804.612	0.739	0	repeat	Run2	repeat/STIM_014.jpg
1808.981	1.024	1	repeat	Run2	repeat/STIM_014.jpg
1813.434	0.928	1	repeat	Run2	repeat/STIM_014.jpg
1817.099	0.81	1	repeat	Run2	repeat/STIM_014.jpg
1821.245	0.713	1	repeat	Run2	repeat/STIM_014.jpg
1825.009	1.597	1	generate	Run3	generate/STIM_000.jpg
1828.991	1.813	1	generate	Run3	generate/STIM_000.jpg
1834.554	1.957	1	generate	Run3	generate/STIM_000.jpg
1838.934	2.108	1	generate	Run3	generate/STIM_000.jpg
1844.232	1.047	1	generate	Run3	generate/STIM_000.jpg
1847.971	1.575	1	generate	Run3	generate/STIM_001.jpg
1852.389	2.151	1	generate	Run3	generate/STIM_001.jpg
1857.293	2.184	1	generate	Run3	generate/STIM_001.jpg
1862.788	1.707	1	generate	Run3	generate/STIM_001.jpg
1867.793	1.126	1	generate	Run3	generate/STIM_001.jpg
1872.094	2.13	1	generate	Run3	generate/STIM_002.jpg
1877.651	1.398	1	generate	Run3	generate/STIM_002.jpg
1882.995	1.977	1	generate	Run3	generate/STIM_002.jpg
1888.896	1.01	1	generate	Run3	generate/STIM_002.jpg
1893.212	2.133	1	generate	Run3	generate/STIM_002.jpg
1898.35	1.803	1	generate	Run3	generate/STIM_003.jpg
1902.926	1.084	1	generate	Run3	generate/STIM_003.jpg
1906.983	2.33	1	generate	Run3	generate/STIM_003.jpg
1912.674	1.691	1	generate	Run3	generate/STIM_003.jpg
1917.409	2.398	1	generate	Run3	generate/STIM_003.jpg
1922.785	2.2	1	generate	Run3	generate/STIM_004.jpg
1927.416	1.778	1	generate	Run3	generate/STIM_004.jpg
1932.637	1.998	1	generate	Run3	generate/STIM_004.jpg
1938.392	1.45	1	generate	Run3	generate/STIM_004.jpg
1943.588	1.448	1	generate	Run3	generate/STIM_004.jpg
1948.661	1.62	1	generate	Run3	generate/STIM_005.jpg
1953.564	2.024	1	generate	Run3	generate/STIM_005.jpg
1959.433	1.402	1	generate	Run3	generate/STIM_005.jpg
1964.614	1.543	1	generate	Run3	generate/STIM_005.jpg
1970.143	1.86	1	generate	Run3	generate/STIM_005.jpg
1974.347	1.596	1	generate	Run3	generate/STIM_006.jpg
1978.212	1.372	1	generate	Run3	generate/STIM_006.jpg
1982.513	1.258	1	generate	Run3	generate/STIM_006.jpg
1987.753	1.425	1	generate	Run3	generate/STIM_006.jpg
1993.063	1.896	1	generate	Run3	generate/STIM_006.jpg
1997.318	1.667	1	generate	Run3	generate/STIM_007.jpg
2002.954	1.053	1	generate	Run3	generate/STIM_007.jpg
2007.885	1.561	1	generate	Run3	generate/STIM_007.jpg
2012.824	1.641	1	generate	Run3	generate/STIM_007.jpg
2017.275	1.297	1	generate	Run3	generate/STIM_007.jpg
2022.118	2.383	1	generate	Run3	generate/STIM_008.jpg
2028.401	1.192	1	generate	Run3	generate/STIM_008.jpg
2031.936	2.012	1	generate	Run3	generate/STIM_008.jpg
2037.237	2.122	1	generate	Run3	generate/STIM_008.jpg
2041.407	1.4	1	generate	Run3	generate/STIM_008.jpg
2045.965	1.257	1	generate	Run3	generate/STIM_009.jpg
2049.631	2.372	1	generate	Run3	generate/STIM_009.jpg
2055.296	1.414	1	generate	Run3	generate/STIM_009.jpg
2059.518	2.228	1	generate	Run3	generate/STIM_009.jpg
2065.475	1.046	1	generate	Run3	generate/STIM_009.jpg
2069.375	1.22	0	generate	Run3	generate/STIM_010.jpg
2074.164	1.193	1	generate	Run3	generate/STIM_010.jpg
2077.551	1.461	1	generate	Run3	generate/STIM_010.jpg
2082.433	1.293	1	generate	Run3	generate/STIM_010.jpg
2085.895	2.085	1	generate	Run3	generate/STIM_010.jpg
2090.893	1.999	1	generate	Run3	generate/STIM_011.jpg
2096.696	1.255	1	generate	Run3	generate/STIM_011.jpg
2101.685	1.517	1	generate	Run3	generate/STIM_011.jpg
2106.628	1.357	1	generate	Run3	generate/STIM_011.jpg
2111.36	1.526	1	generate	Run3	generate/STIM_011.jpg
2115.433	0.987	1	generate	Run3	generate/STIM_012.jpg
2120.108	1.033	1	generate	Run3	generate/STIM_012.jpg
2123.479	1.288	1	generate	Run3	generate/STIM_012.jpg
2128.664	1.555	1	generate	Run3	generate/STIM_012.jpg
2132.554	1.134	1	generate	Run3	generate/STIM_012.jpg
2136.916	2.301	1	generate	Run3	generate/STIM_013.jpg
2141.271	2.153	1	generate	Run3	generate/STIM_013.jpg
2146.862	1.634	1	generate	Run3	generate/STIM_013.jpg
2151.443	1.773	1	generate	Run3	generate/STIM_013.jpg
2157.026	1.667	1	generate	Run3	generate/STIM_013.jpg
2161.475	1.061	1	generate	Run3	generate/STIM_014.jpg
2165.581	0.998	1	generate	Run3	generate/STIM_014.jpg
2169.648	2.121	1	generate	Run3	generate/STIM_014.jpg
2175.598	1.676	1	generate	Run3	generate/STIM_014.jpg
2180.628	2.262	1	generate	Run3	generate/STIM_014.jpg
2186.49	1.137	1	generate	Run3	generate/STIM_015.jpg
2190.806	1.611	1	generate	Run3	generate/STIM_015.jpg
2194.622	2.009	1	generate	Run3	generate/STIM_015.jpg
2199.237	1.27	1	generate	Run3	generate/STIM_015.jpg
2202.839	1.904	1	generate	Run3	generate/STIM_015.jpg
2208.705	1.939	0	generate	Run3	generate/STIM_016.jpg
2212.672	2.186	1	generate	Run3	generate/STIM_016.jpg
2217.075	2.302	1	generate	Run3	generate/STIM_016.jpg
2221.784	1.617	1	generate	Run3	generate/STIM_016.jpg
2227.106	1.676	1	generate	Run3	generate/STIM_016.jpg
2231.351	1.88	1	generate	Run3	generate/STIM_017.jpg
2235.585	2.142	1	generate	Run3	generate/STIM_017.jpg
2239.991	1.674	1	generate	Run3	generate/STIM_017.jpg
2244.475	2.043	1	generate	Run3	generate/STIM_017.jpg
2250.435	1.018	1	generate	Run3	generate/STIM_017.jpg
2254.292	2.286	1	generate	Run3	generate/STIM_018.jpg
2259.829	0.986	1	generate	Run3	generate/STIM_018.jpg
2263.918	1.781	1	generate	Run3	generate/STIM_018.jpg
2269.649	1.663	1	generate	Run3	generate/STIM_018.jpg
2273.522	1.382	1	generate	Run3	generate/STIM_018.jpg
2278.401	1.63	1	generate	Run3	generate/STIM_019.jpg
2284.004	2.204	1	generate	Run3	generate/STIM_019.jpg
2290.156	2.287	1	generate	Run3	generate/STIM_019.jpg
2295.488	1.953	1	generate	Run3	generate/STIM_019.jpg
2300.566	1.111	1	generate	Run3	generate/STIM_019.jpg
2303.85	2.267	1	generate	Run3	generate/STIM_020.jpg
2309.059	1.865	1	generate	Run3	generate/STIM_020.jpg
2313.165	2.321	1	generate	Run3	generate/STIM_020.jpg
2319.102	2.11	1	generate	Run3	generate/STIM_020.jpg
2323.923	1.278	1	generate	Run3	generate/STIM_020.jpg
2328.88	1.784	1	generate	Run3	generate/STIM_021.jpg
2334.422	1.395	1	generate	Run3	generate/STIM_021.jpg
2339.226	2.3	1	generate	Run3	generate/STIM_021.jpg
2343.855	1.833	1	generate	Run3	generate/STIM_021.jpg
2349.645	1.794	1	generate	Run3	generate/STIM_021.jpg
2354.059	2.005	1	generate	Run3	generate/STIM_022.jpg
2359.36	2.336	1	generate	Run3	generate/STIM_022.jpg
2364.557	1.507	1	generate	Run3	generate/STIM_022.jpg
2369.077	1.773	1	generate	Run3	generate/STIM_022.jpg
2374.342	2.325	1	generate	Run3	generate/STIM_022.jpg
2379.738	1.911	1	generate	Run3	generate/STIM_023.jpg
2383.74	2.172	1	generate	Run3	generate/STIM_023.jpg
2389.795	0.982	1	generate	Run3	generate/STIM_023.jpg
2393.733	1.642	1	generate	Run3	generate/STIM_023.jpg
2399.359	1.16	1	generate	Run3	generate/STIM_023.jpg
2404.297	1.455	1	generate	Run3	generate/STIM_024.jpg
2408.67	2.167	1	generate	Run3	generate/STIM_024.jpg
2412.89	1.458	1	generate	Run3	generate/STIM_024.jpg
2417.306	1.358	1	generate	Run3	generate/STIM_024.jpg
2422.456	1.843	1	generate	Run3	generate/STIM_024.jpg
2427.017	0.89	1	repeat	Run3	repeat/STIM_000.jpg
2431.282	0.938	1	repeat	Run3	repeat/STIM_000.jpg
2434.561	0.945	1	repeat	Run3	repeat/STIM_000.jpg
2438.917	0.586	1	repeat	Run3	repeat/STIM_000.jpg
2441.861	0.899	1	repeat	Run3	repeat/STIM_000.jpg
2445.461	0.632	1	repeat	Run3	repeat/STIM_001.jpg
2449.103	0.668	1	repeat	Run3	repeat/STIM_001.jpg
2453.119	0.942	1	repeat	Run3	repeat/STIM_001.jpg
2457.135	0.628	1	repeat	Run3	repeat/STIM_001.jpg
2460.561	0.785	1	repeat	Run3	repeat/STIM_001.jpg
2464.436	0.921	1	repeat	Run3	repeat/STIM_002.jpg
2468.858	0.676	1	repeat	Run3	repeat/STIM_002.jpg
2473.232	0.805	1	repeat	Run3	repeat/STIM_002.jpg
2476.562	0.612	1	repeat	Run3	repeat/STIM_002.jpg
2479.918	1.035	1	repeat	Run3	repeat/STIM_002.jpg
2483.286	0.98	1	repeat	Run3	repeat/STIM_003.jpg
2487.915	0.848	1	repeat	Run3	repeat/STIM_003.jpg
2491.214	0.936	1	repeat	Run3	repeat/STIM_003.jpg
2494.698	0.977	1	repeat	Run3	repeat/STIM_003.jpg
2499.234	0.658	1	repeat	Run3	repeat/STIM_003.jpg
2502.399	0.615	1	repeat	Run3	repeat/STIM_004.jpg
2506.973	0.739	1	repeat	Run3	repeat/STIM_004.jpg
2509.717	0.695	1	repeat	Run3	repeat/STIM_004.jpg
2514.021	0.735	1	repeat	Run3	repeat/STIM_004.jpg
2517.032	1.04	1	repeat	Run3	repeat/STIM_004.jpg
2520.567	0.804	1	repeat	Run3	repeat/STIM_005.jpg
2523.74	0.954	1	repeat	Run3	repeat/STIM_005.jpg
2528.133	0.975	1	repeat	Run3	repeat/STIM_005.jpg
2531.873	1.006	1	repeat	Run3	repeat/STIM_005.jpg
2536.867	0.974	1	repeat	Run3	repeat/STIM_005.jpg
2540.149	0.722	0	repeat	Run3	repeat/STIM_006.jpg
2543.905	1.072	1	repeat	Run3	repeat/STIM_006.jpg
2547.372	0.611	1	repeat	Run3	repeat/STIM_006.jpg
2550.569	1.096	1	repeat	Run3	repeat/STIM_006.jpg
2554.734	1.023	1	repeat	Run3	repeat/STIM_006.jpg
2559.594	1.093	1	repeat	Run3	repeat/STIM_007.jpg
2563.36	1.086	1	repeat	Run3	repeat/STIM_007.jpg
2568.284	0.864	1	repeat	Run3	repeat/STIM_007.jpg
2572.83	1.07	1	repeat	Run3	repeat/STIM_007.jpg
2577.867	0.716	1	repeat	Run3	repeat/STIM_007.jpg
2581.288	0.764	1	repeat	Run3	repeat/STIM_008.jpg
2585.587	0.657	1	repeat	Run3	repeat/STIM_008.jpg
2589.004	0.89	1	repeat	Run3	repeat/STIM_008.jpg
2593.145	0.586	1	repeat	Run3	repeat/STIM_008.jpg
2597.098	0.812	1	repeat	Run3	repeat/STIM_008.jpg
2600.036	0.699	1	repeat	Run3	repeat/STIM_009.jpg
2602.955	0.864	1	repeat	Run3	repeat/STIM_009.jpg
2606.617	0.829	1	repeat	Run3	repeat/STIM_009.jpg
2609.557	0.959	1	repeat	Run3	repeat/STIM_009.jpg
2612.793	1.024	1	repeat	Run3	repeat/STIM_009.jpg
2616.089	0.843	1	repeat	Run3	repeat/STIM_010.jpg
2619.208	0.58	1	repeat	Run3	repeat/STIM_010.jpg
2622.734	0.685	1	repeat	Run3	repeat/STIM_010.jpg
2626.292	1.04	1	repeat	Run3	repeat/STIM_010.jpg
2630.192	0.778	1	repeat	Run3	repeat/STIM_010.jpg
2633.827	0.794	1	repeat	Run3	repeat/STIM_011.jpg
2637.19	1.066	1	repeat	Run3	repeat/STIM_011.jpg
2641.117	0.936	1	repeat	Run3	repeat/STIM_011.jpg
2645.817	0.652	1	repeat	Run3	repeat/STIM_011.jpg
2649.549	0.985	1	repeat	Run3	repeat/STIM_011.jpg
2654.503	0.848	1	repeat	Run3	repeat/STIM_012.jpg
2658.269	0.774	1	repeat	Run3	repeat/STIM_012.jpg
2662.988	0.709	1	repeat	Run3	repeat/STIM_012.jpg
2666.211	1.141	1	repeat	Run3	repeat/STIM_012.jpg
2670.564	0.837	1	repeat	Run3	repeat/STIM_012.jpg
2673.595	0.838	1	repeat	Run3	repeat/STIM_013.jpg
2678.038	1.086	1	repeat	Run3	repeat/STIM_013.jpg
2682.842	0.906	1	repeat	Run3	repeat/STIM_013.jpg
2687.223	0.609	1	repeat	Run3	repeat/STIM_013.jpg
2691.65	0.6	1	repeat	Run3	repeat/STIM_013.jpg
2695.146	1.118	1	repeat	Run3	repeat/STIM_014.jpg
2699.633	0.759	1	repeat	Run3	repeat/STIM_014.jpg
2702.744	0.888	1	repeat	Run3	repeat/STIM_014.jpg
2705.891	1.109	1	repeat	Run3	repeat/STIM_014.jpg
2709.176	0.865	1	repeat	Run3	repeat/STIM_014.jpg
2712.226	1.975	1	generate	Run4	generate/STIM_000.jpg
2718.154	1.919	1	generate	Run4	generate/STIM_000.jpg
2723.251	1.552	1	generate	Run4	generate/STIM_000.jpg
2727.415	1.029	1	generate	Run4	generate/STIM_000.jpg
2731.14	1.233	1	generate	Run4	generate/STIM_000.jpg
2734.968	1.822	1	generate	Run4	generate/STIM_001.jpg
2739.858	1.222	1	generate	Run4	generate/STIM_001.jpg
2744.777	0.985	1	generate	Run4	generate/STIM_001.jpg
2748.927	1.949	1	generate	Run4	generate/STIM_001.jpg
2753.523	1.291	1	generate	Run4	generate/STIM_001.jpg
2758.083	1.277	1	generate	Run4	generate/STIM_002.jpg
2762.711	1.724	1	generate	Run4	generate/STIM_002.jpg
2767.879	1.402	1	generate	Run4	generate/STIM_002.jpg
2771.926	1.963	1	generate	Run4	generate/STIM_002.jpg
2777.03	1.561	1	generate	Run4	generate/STIM_002.jpg
2781.649	1.325	1	generate	Run4	generate/STIM_003.jpg
2785.226	1.607	1	generate	Run4	generate/STIM_003.jpg
2790.703	1.572	1	generate	Run4	generate/STIM_003.jpg
2794.505	1.457	1	generate	Run4	generate/STIM_003.jpg
2799.909	1.781	1	generate	Run4	generate/STIM_003.jpg
2805.095	1.513	1	generate	Run4	generate/STIM_004.jpg
2808.726	1.476	1	generate	Run4	generate/STIM_004.jpg
2812.65	1.936	1	generate	Run4	generate/STIM_004.jpg
2817.74	1.899	1	generate	Run4	generate/STIM_004.jpg
2822.11	2.118	1	generate	Run4	generate/STIM_004.jpg
2826.675	1.539	1	generate	Run4	generate/STIM_005.jpg
2831.57	1.988	1	generate	Run4	generate/STIM_005.jpg
2837.139	1.587	1	generate	Run4	generate/STIM_005.jpg
2842.642	1.864	1	generate	Run4	generate/STIM_005.jpg
2846.831	1.425	1	generate	Run4	generate/STIM_005.jpg
2852.023	1.648	1	generate	Run4	generate/STIM_006.jpg
2855.745	1.418	1	generate	Run4	generate/STIM_006.jpg
2859.648	1.148	1	generate	Run4	generate/STIM_006.jpg
2863.427	1.823	1	generate	Run4	generate/STIM_006.jpg
2868.319	1.013	1	generate	Run4	generate/STIM_006.jpg
2872.398	2.113	1	generate	Run4	generate/STIM_007.jpg
2877.693	1.515	1	generate	Run4	generate/STIM_007.jpg
2882.79	1.832	1	generate	Run4	generate/STIM_007.jpg
2888.391	2.196	1	generate	Run4	generate/STIM_007.jpg
2893.042	1.229	1	generate	Run4	generate/STIM_007.jpg
2898.202	1.001	1	generate	Run4	generate/STIM_008.jpg
2902.024	2.196	1	generate	Run4	generate/STIM_008.jpg
2906.412	2.199	1	generate	Run4	generate/STIM_008.jpg
2911.143	2.015	1	generate	Run4	generate/STIM_008.jpg
2916.061	1.148	1	generate	Run4	generate/STIM_008.jpg
2920.639	1.83	1	generate	Run4	generate/STIM_009.jpg
2925.068	1.555	1	generate	Run4	generate/STIM_009.jpg
2929.254	1.974	1	generate	Run4	generate/STIM_009.jpg
2933.955	1.719	1	generate	Run4	generate/STIM_009.jpg
2939.231	1.582	1	generate	Run4	generate/STIM_009.jpg
2944.608	1.37	1	generate	Run4	generate/STIM_010.jpg
2948.033	1.488	1	generate	Run4	generate/STIM_010.jpg
2952.423	2.255	0	generate	Run4	generate/STIM_010.jpg
2957.417	2.303	1	generate	Run4	generate/STIM_010.jpg
2962.54	1.791	1	generate	Run4	generate/STIM_010.jpg
2967.912	1.403	1	generate	Run4	generate/STIM_011.jpg
2972.942	1.496	1	generate	Run4	generate/STIM_011.jpg
2977.072	1.381	1	generate	Run4	generate/STIM_011.jpg
2982.265	1.371	1	generate	Run4	generate/STIM_011.jpg
2986.651	1.387	1	generate	Run4	generate/STIM_011.jpg
2991.633	1.262	0	generate	Run4	generate/STIM_012.jpg
2996.12	1.118	1	generate	Run4	generate/STIM_012.jpg
3000.993	1.4	1	generate	Run4	generate/STIM_012.jpg
3004.725	2.154	1	generate	Run4	generate/STIM_012.jpg
3008.944	2.234	1	generate	Run4	generate/STIM_012.jpg
3014.793	2.05	1	generate	Run4	generate/STIM_013.jpg
3018.923	1.119	1	generate	Run4	generate/STIM_013.jpg
3023.356	2.085	1	generate	Run4	generate/STIM_013.jpg
3028.865	1.713	1	generate	Run4	generate/STIM_013.jpg
3034.388	1.272	1	generate	Run4	generate/STIM_013.jpg
3038.953	1.839	1	generate	Run4	generate/STIM_014.jpg
3044.725	1.89	1	generate	Run4	generate/STIM_014.jpg
3050.54	2.119	1	generate	Run4	generate/STIM_014.jpg
3056.186	2.025	1	generate	Run4	generate/STIM_014.jpg
3061.454	1.788	1	generate	Run4	generate/STIM_014.jpg
3065.459	2.384	1	generate	Run4	generate/STIM_015.jpg
3070.005	1.64	1	generate	Run4	generate/STIM_015.jpg
3074.746	1.643	1	generate	Run4	generate/STIM_015.jpg
3080.144	1.774	1	generate	Run4	generate/STIM_015.jpg
3084.496	1.119	1	generate	Run4	generate/STIM_015.jpg
3088.536	1.715	1	generate	Run4	generate/STIM_016.jpg
3092.39	1.115	1	generate	Run4	generate/STIM_016.jpg
3097.083	1.161	1	generate	Run4	generate/STIM_016.jpg
3100.862	1.502	1	generate	Run4	generate/STIM_016.jpg
3105.482	1.836	1	generate	Run4	generate/STIM_016.jpg
3109.695	1.428	1	generate	Run4	generate/STIM_017.jpg
3113.219	1.36	1	generate	Run4	generate/STIM_017.jpg
3118.289	2.165	1	generate	Run4	generate/STIM_017.jpg
3122.462	1.867	1	generate	Run4	generate/STIM_017.jpg
3127.676	1.039	1	generate	Run4	generate/STIM_017.jpg
3132.002	1.953	1	generate	Run4	generate/STIM_018.jpg
3136.72	1.331	1	generate	Run4	generate/STIM_018.jpg
3140.182	1.993	1	generate	Run4	generate/STIM_018.jpg
3144.601	1.882	1	generate	Run4	generate/STIM_018.jpg
3148.68	2.006	1	generate	Run4	generate/STIM_018.jpg
3153.189	1.215	1	generate	Run4	generate/STIM_019.jpg
3157.208	1.257	1	generate	Run4	generate/STIM_019.jpg
3162.038	2.198	1	generate	Run4	generate/STIM_019.jpg
3167.1	1.975	1	generate	Run4	generate/STIM_019.jpg
3171.723	2.076	1	generate	Run4	generate/STIM_019.jpg
3176.504	2.046	1	generate	Run4	generate/STIM_020.jpg
3181.978	1.577	1	generate	Run4	generate/STIM_020.jpg
3186.964	1.625	1	generate	Run4	generate/STIM_020.jpg
3192.081	1.377	1	generate	Run4	generate/STIM_020.jpg
3195.544	1.318	1	generate	Run4	generate/STIM_020.jpg
3200.466	1.009	1	generate	Run4	generate/STIM_021.jpg
3204.503	1.598	1	generate	Run4	generate/STIM_021.jpg
3209.076	1.611	1	generate	Run4	generate/STIM_021.jpg
3213.291	1.284	1	generate	Run4	generate/STIM_021.jpg
3218.138	1.298	1	generate	Run4	generate/STIM_021.jpg
3222.62	1.513	1	generate	Run4	generate/STIM_022.jpg
3226.381	1.004	1	generate	Run4	generate/STIM_022.jpg
3231.037	1.092	1	generate	Run4	generate/STIM_022.jpg
3235.145	1.607	1	generate	Run4	generate/STIM_022.jpg
3240.369	1.144	1	generate	Run4	generate/STIM_022.jpg
3243.91	1.275	1	generate	Run4	generate/STIM_023.jpg
3247.959	1.779	1	generate	Run4	generate/STIM_023.jpg
3252.85	1.175	1	generate	Run4	generate/STIM_023.jpg
3257.862	1.071	1	generate	Run4	generate/STIM_023.jpg
3261.558	1.571	1	generate	Run4	generate/STIM_023.jpg
3265.199	2.346	1	generate	Run4	generate/STIM_024.jpg
3270.417	1.434	1	generate	Run4	generate/STIM_024.jpg
3274.222	2.3	1	generate	Run4	generate/STIM_024.jpg
3278.657	2.076	1	generate	Run4	generate/STIM_024.jpg
3283.441	1.693	1	generate	Run4	generate/STIM_024.jpg
3288.233	0.892	1	repeat	Run4	repeat/STIM_000.jpg
3291.17	0.697	1	repeat	Run4	repeat/STIM_000.jpg
3295.13	1.082	1	repeat	Run4	repeat/STIM_000.jpg
3299.27	1.143	1	repeat	Run4	repeat/STIM_000.jpg
3304.273	0.913	1	repeat	Run4	repeat/STIM_000.jpg
3308.727	0.94	1	repeat	Run4	repeat/STIM_001.jpg
3312.103	1.006	1	repeat	Run4	repeat/STIM_001.jpg
3315.482	0.629	1	repeat	Run4	repeat/STIM_001.jpg
3318.479	0.695	1	repeat	Run4	repeat/STIM_001.jpg
3321.873	0.988	0	repeat	Run4	repeat/STIM_001.jpg
3326.782	0.807	1	repeat	Run4	repeat/STIM_002.jpg
3330.575	0.678	1	repeat	Run4	repeat/STIM_002.jpg
3334.597	1.118	1	repeat	Run4	repeat/STIM_002.jpg
3338.037	0.849	1	repeat	Run4	repeat/STIM_002.jpg
3341.445	1.108	1	repeat	Run4	repeat/STIM_002.jpg
3345.734	1.109	1	repeat	Run4	repeat/STIM_003.jpg
3350.545	0.819	1	repeat	Run4	repeat/STIM_003.jpg
3353.594	0.715	1	repeat	Run4	repeat/STIM_003.jpg
3357.269	0.805	1	repeat	Run4	repeat/STIM_003.jpg
3360.83	0.8	1	repeat	Run4	repeat/STIM_003.jpg
3365.233	0.747	1	repeat	Run4	repeat/STIM_004.jpg
3368.187	1.016	1	repeat	Run4	repeat/STIM_004.jpg
3371.616	0.786	1	repeat	Run4	repeat/STIM_004.jpg
3376.203	0.618	1	repeat	Run4	repeat/STIM_004.jpg
3378.835	1.125	1	repeat	Run4	repeat/STIM_004.jpg
3382.551	0.842	1	repeat	Run4	repeat/STIM_005.jpg
3386.24	0.723	1	repeat	Run4	repeat/STIM_005.jpg
3390.32	0.914	1	repeat	Run4	repeat/STIM_005.jpg
3394.338	0.899	1	repeat	Run4	repeat/STIM_005.jpg
3397.503	0.586	1	repeat	Run4	repeat/STIM_005.jpg
3401.485	0.933	1	repeat	Run4	repeat/STIM_006.jpg
3405.027	0.735	1	repeat	Run4	repeat/STIM_006.jpg
3408.816	1.092	1	repeat	Run4	repeat/STIM_006.jpg
3413.822	1.008	1	repeat	Run4	repeat/STIM_006.jpg
3417.977	0.789	1	repeat	Run4	repeat/STIM_006.jpg
3422.102	0.647	1	repeat	Run4	repeat/STIM_007.jpg
3426.689	0.816	1	repeat	Run4	repeat/STIM_007.jpg
3429.708	0.611	1	repeat	Run4	repeat/STIM_007.jpg
3432.762	0.654	1	repeat	Run4	repeat/STIM_007.jpg
3435.495	0.918	1	repeat	Run4	repeat/STIM_007.jpg
3438.728	0.881	1	repeat	Run4	repeat/STIM_008.jpg
3442.926	0.989	1	repeat	Run4	repeat/STIM_008.jpg
3447.903	1.11	1	repeat	Run4	repeat/STIM_008.jpg
3451.07	1.018	1	repeat	Run4	repeat/STIM_008.jpg
3455.132	0.591	1	repeat	Run4	repeat/STIM_008.jpg
3457.881	1.038	1	repeat	Run4	repeat/STIM_009.jpg
3462.18	0.95	1	repeat	Run4	repeat/STIM_009.jpg
3466.163	0.778	1	repeat	Run4	repeat/STIM_009.jpg
3469.027	0.722	1	repeat	Run4	repeat/STIM_009.jpg
3471.793	0.939	1	repeat	Run4	repeat/STIM_009.jpg
3475.289	0.81	1	repeat	Run4	repeat/STIM_010.jpg
3479.441	1.119	1	repeat	Run4	repeat/STIM_010.jpg
3483.002	1.011	1	repeat	Run4	repeat/STIM_010.jpg
3486.267	0.652	1	repeat	Run4	repeat/STIM_010.jpg
3490.612	0.902	1	repeat	Run4	repeat/STIM_010.jpg
3494.957	1.032	1	repeat	Run4	repeat/STIM_011.jpg
3498.647	0.986	1	repeat	Run4	repeat/STIM_011.jpg
3503.204	0.939	1	repeat	Run4	repeat/STIM_011.jpg
3507.897	0.652	1	repeat	Run4	repeat/STIM_011.jpg
3510.894	0.754	1	repeat	Run4	repeat/STIM_011.jpg
3513.724	0.857	1	repeat	Run4	repeat/STIM_012.jpg
3518.275	0.613	1	repeat	Run4	repeat/STIM_012.jpg
3521.498	0.583	1	repeat	Run4	repeat/STIM_012.jpg
3524.173	0.665	1	repeat	Run4	repeat/STIM_012.jpg
3527.966	0.964	1	repeat	Run4	repeat/STIM_012.jpg
3531.169	0.841	1	repeat	Run4	repeat/STIM_013.jpg
3535.543	0.714	1	repeat	Run4	repeat/STIM_013.jpg
3539.825	0.773	1	repeat	Run4	repeat/STIM_013.jpg
3544.151	0.915	1	repeat	Run4	repeat/STIM_013.jpg
3548.487	1.148	1	repeat	Run4	repeat/STIM_013.jpg
3552.999	0.886	0	repeat	Run4	repeat/STIM_014.jpg
3556.512	0.886	1	repeat	Run4	repeat/STIM_014.jpg
3559.692	0.693	1	repeat	Run4	repeat/STIM_014.jpg
3562.962	0.648	1	repeat	Run4	repeat/STIM_014.jpg
3567.113	1.099	1	repeat	Run4	repeat/STIM_014.jpg
