onset	duration	response_time_ms	trial_type	learning_stage	stimulus	response_port
0.0	1.139	1139.4	generate	Run1	generate/STIM_000.jpg	100
4.039	1.821	1820.6	generate	Run1	generate/STIM_000.jpg	100
9.553	1.445	1444.9	generate	Run1	generate/STIM_000.jpg	100
13.905	1.891	1890.8	generate	Run1	generate/STIM_000.jpg	99
19.562	1.176	1176.5	generate	Run1	generate/STIM_000.jpg	99
23.772	1.184	1183.6	generate	Run1	generate/STIM_001.jpg	99
29.006	1.407	1407.4	generate	Run1	generate/STIM_001.jpg	99
33.168	1.249	1248.9	generate	Run1	generate/STIM_001.jpg	99
38.006	2.284	2283.8	generate	Run1	generate/STIM_001.jpg	100
43.977	1.019	1018.8	generate	Run1	generate/STIM_001.jpg	100
47.914	2.246	2245.6	generate	Run1	generate/STIM_002.jpg	99
52.681	2.057	2056.9	generate	Run1	generate/STIM_002.jpg	100
58.238	1.22	1219.6	generate	Run1	generate/STIM_002.jpg	99
61.774	1.674	1673.8	generate	Run1	generate/STIM_002.jpg	100
66.685	1.083	1082.7	generate	Run1	generate/STIM_002.jpg	100
71.667	2.642	2641.8	generate	Run1	generate/STIM_003.jpg	100
76.815	1.728	1728.1	generate	Run1	generate/STIM_003.jpg	100
82.601	1.222	1222.5	generate	Run1	generate/STIM_003.jpg	100
86.92	1.705	1705.1	generate	Run1	generate/STIM_003.jpg	100
91.027	1.051	1051.1	generate	Run1	generate/STIM_003.jpg	100
94.274	2.44	2440.1	generate	Run1	generate/STIM_004.jpg	100
99.337	2.522	2521.9	generate	Run1	generate/STIM_004.jpg	99
104.363	2.06	2060.0	generate	Run1	generate/STIM_004.jpg	99
109.15	2.077	2077.1	generate	Run1	generate/STIM_004.jpg	99
113.63	1.01	1009.8	generate	Run1	generate/STIM_004.jpg	100
116.847	2.242	2242.0	generate	Run1	generate/STIM_005.jpg	100
121.695	2.245	2244.7	generate	Run1	generate/STIM_005.jpg	100
126.354	1.608	1607.5	generate	Run1	generate/STIM_005.jpg	100
131.545	0.986	986.1	generate	Run1	generate/STIM_005.jpg	100
134.643	1.133	1133.3	generate	Run1	generate/STIM_005.jpg	100
138.99	1.874	1873.9	generate	Run1	generate/STIM_006.jpg	100
143.89	1.081	1081.1	generate	Run1	generate/STIM_006.jpg	100
147.19	1.976	1975.7	generate	Run1	generate/STIM_006.jpg	100
151.834	2.287	2286.9	generate	Run1	generate/STIM_006.jpg	99
157.583	2.04	2040.4	generate	Run1	generate/STIM_006.jpg	99
163.733	1.76	1760.5	generate	Run1	generate/STIM_007.jpg	99
168.519	1.789	1788.7	generate	Run1	generate/STIM_007.jpg	100
172.778	2.288	2288.4	generate	Run1	generate/STIM_007.jpg	99
178.199	1.242	1241.5	generate	Run1	generate/STIM_007.jpg	99
183.333	1.095	1094.8	generate	Run1	generate/STIM_007.jpg	99
188.179	2.703	2703.4	generate	Run1	generate/STIM_008.jpg	99
193.493	2.273	2272.9	generate	Run1	generate/STIM_008.jpg	99
198.564	1.626	1625.8	generate	Run1	generate/STIM_008.jpg	99
204.2	1.718	1717.9	generate	Run1	generate/STIM_008.jpg	99
209.464	1.421	1420.8	generate	Run1	generate/STIM_008.jpg	99
214.034	1.174	1173.6	generate	Run1	generate/STIM_009.jpg	99
217.431	1.305	1304.9	generate	Run1	generate/STIM_009.jpg	99
222.746	2.244	2243.9	generate	Run1	generate/STIM_009.jpg	100
228.718	1.652	1652.2	generate	Run1	generate/STIM_009.jpg	100
232.772	1.481	1481.0	generate	Run1	generate/STIM_009.jpg	100
237.32	1.668	1668.4	generate	Run1	generate/STIM_010.jpg	99
242.921	1.882	1881.7	generate	Run1	generate/STIM_010.jpg	99
248.766	1.91	1910.5	generate	Run1	generate/STIM_010.jpg	99
253.499	1.996	1995.6	generate	Run1	generate/STIM_010.jpg	100
258.0	1.269	1269.4	generate	Run1	generate/STIM_010.jpg	100
262.524	1.971	1970.9	generate	Run1	generate/STIM_011.jpg	99
268.66	1.517	1517.0	generate	Run1	generate/STIM_011.jpg	100
274.103	1.468	1467.8	generate	Run1	generate/STIM_011.jpg	100
278.759	0.931	930.6	generate	Run1	generate/STIM_011.jpg	100
282.946	1.478	1477.7	generate	Run1	generate/STIM_011.jpg	100
287.969	2.437	2436.6	generate	Run1	generate/STIM_012.jpg	100
294.593	1.04	1039.9	generate	Run1	generate/STIM_012.jpg	100
299.329	1.766	1765.9	generate	Run1	generate/STIM_012.jpg	99
305.164	1.663	1663.4	generate	Run1	generate/STIM_012.jpg	100
310.285	0.894	893.5	generate	Run1	generate/STIM_012.jpg	100
314.66	2.357	2357.0	generate	Run1	generate/STIM_013.jpg	99
319.802	2.064	2064.3	generate	Run1	generate/STIM_013.jpg	99
324.285	2.419	2418.9	generate	Run1	generate/STIM_013.jpg	100
329.988	1.689	1688.9	generate	Run1	generate/STIM_013.jpg	99
335.047	2.051	2050.8	generate	Run1	generate/STIM_013.jpg	99
340.838	2.574	2574.3	generate	Run1	generate/STIM_014.jpg	100
346.997	1.192	1191.5	generate	Run1	generate/STIM_014.jpg	99
351.137	1.039	1038.8	generate	Run1	generate/STIM_014.jpg	100
355.169	1.248	1247.5	generate	Run1	generate/STIM_014.jpg	99
359.896	1.348	1347.9	generate	Run1	generate/STIM_014.jpg	99
364.677	1.586	1586.1	generate	Run1	generate/STIM_015.jpg	100
368.644	1.937	1937.1	generate	Run1	generate/STIM_015.jpg	99
373.253	2.131	2130.8	generate	Run1	generate/STIM_015.jpg	100
379.363	1.727	1726.9	generate	Run1	generate/STIM_015.jpg	99
383.551	1.044	1043.5	generate	Run1	generate/STIM_015.jpg	100
386.806	2.072	2072.3	generate	Run1	generate/STIM_016.jpg	100
392.247	1.684	1684.4	generate	Run1	generate/STIM_016.jpg	100
397.051	2.321	2321.2	generate	Run1	generate/STIM_016.jpg	99
403.522	1.058	1058.4	generate	Run1	generate/STIM_016.jpg	99
407.042	0.959	959.4	generate	Run1	generate/STIM_016.jpg	100
411.952	1.54	1540.4	generate	Run1	generate/STIM_017.jpg	99
416.593	1.646	1646.2	generate	Run1	generate/STIM_017.jpg	100
422.053	1.86	1860.0	generate	Run1	generate/STIM_017.jpg	100
427.318	1.573	1573.1	generate	Run1	generate/STIM_017.jpg	100
432.354	1.642	1641.6	generate	Run1	generate/STIM_017.jpg	99
436.545	2.307	2307.4	generate	Run1	generate/STIM_018.jpg	100
441.219	1.175	1174.8	generate	Run1	generate/STIM_018.jpg	99
444.553	2.246	2245.6	generate	Run1	generate/STIM_018.jpg	100
449.981	0.983	983.2	generate	Run1	generate/STIM_018.jpg	100
454.59	1.333	1333.3	generate	Run1	generate/STIM_018.jpg	99
458.941	1.24	1239.8	generate	Run1	generate/STIM_019.jpg	99
463.834	1.514	1513.7	generate	Run1	generate/STIM_019.jpg	100
468.169	1.591	1591.1	generate	Run1	generate/STIM_019.jpg	99
472.542	1.78	1779.8	generate	Run1	generate/STIM_019.jpg	100
477.572	1.93	1930.0	generate	Run1	generate/STIM_019.jpg	99
482.882	2.54	2540.3	generate	Run1	generate/STIM_020.jpg	99
489.508	2.455	2455.3	generate	Run1	generate/STIM_020.jpg	99
494.884	0.988	988.5	generate	Run1	generate/STIM_020.jpg	99
499.417	1.414	1413.6	generate	Run1	generate/STIM_020.jpg	100
503.018	1.516	1516.4	generate	Run1	generate/STIM_020.jpg	99
506.868	2.7	2700.4	generate	Run1	generate/STIM_021.jpg	99
513.801	1.517	1516.6	generate	Run1	generate/STIM_021.jpg	100
518.488	1.002	1001.7	generate	Run1	generate/STIM_021.jpg	100
522.393	2.112	2111.6	generate	Run1	generate/STIM_021.jpg	100
528.156	1.573	1573.4	generate	Run1	generate/STIM_021.jpg	99
533.026	1.104	1104.1	generate	Run1	generate/STIM_022.jpg	100
536.809	2.102	2101.7	generate	Run1	generate/STIM_022.jpg	99
542.971	2.342	2342.4	generate	Run1	generate/STIM_022.jpg	99
547.805	2.091	2091.0	generate	Run1	generate/STIM_022.jpg	99
552.259	1.105	1104.9	generate	Run1	generate/STIM_022.jpg	100
555.754	2.575	2574.7	generate	Run1	generate/STIM_023.jpg	99
560.631	2.17	2169.6	generate	Run1	generate/STIM_023.jpg	99
566.756	2.368	2368.1	generate	Run1	generate/STIM_023.jpg	100
572.929	1.92	1920.0	generate	Run1	generate/STIM_023.jpg	99
578.466	1.513	1513.0	generate	Run1	generate/STIM_023.jpg	99
583.652	2.33	2330.4	generate	Run1	generate/STIM_024.jpg	99
588.497	1.24	1239.5	generate	Run1	generate/STIM_024.jpg	100
592.213	1.39	1390.4	generate	Run1	generate/STIM_024.jpg	99
596.365	2.037	2037.4	generate	Run1	generate/STIM_024.jpg	99
602.316	1.207	1206.7	generate	Run1	generate/STIM_024.jpg	100
607.418	0.816	816.2	repeat	Run1	repeat/STIM_000.jpg	99
610.696	0.721	721.1	repeat	Run1	repeat/STIM_000.jpg	99
614.593	0.567	566.8	repeat	Run1	repeat/STIM_000.jpg	100
618.836	0.721	720.8	repeat	Run1	repeat/STIM_000.jpg	99
623.359	0.623	623.1	repeat	Run1	repeat/STIM_000.jpg	100
627.728	0.728	728.0	repeat	Run1	repeat/STIM_001.jpg	99
632.248	0.599	598.8	repeat	Run1	repeat/STIM_001.jpg	99
636.063	0.806	806.3	repeat	Run1	repeat/STIM_001.jpg	100
639.276	0.825	825.0	repeat	Run1	repeat/STIM_001.jpg	99
644.18	0.561	560.9	repeat	Run1	repeat/STIM_001.jpg	100
647.918	0.576	575.6	repeat	Run1	repeat/STIM_002.jpg	99
651.108	0.832	832.5	repeat	Run1	repeat/STIM_002.jpg	100
655.712	0.66	660.0	repeat	Run1	repeat/STIM_002.jpg	100
658.692	0.7	700.3	repeat	Run1	repeat/STIM_002.jpg	100
663.316	0.762	762.0	repeat	Run1	repeat/STIM_002.jpg	99
667.311	0.774	774.5	repeat	Run1	repeat/STIM_003.jpg	100
670.591	0.477	476.7	repeat	Run1	repeat/STIM_003.jpg	100
674.825	0.603	602.7	repeat	Run1	repeat/STIM_003.jpg	100
678.338	0.835	834.7	repeat	Run1	repeat/STIM_003.jpg	99
683.25	0.593	592.9	repeat	Run1	repeat/STIM_003.jpg	99
686.108	0.891	890.7	repeat	Run1	repeat/STIM_004.jpg	99
689.869	0.623	623.0	repeat	Run1	repeat/STIM_004.jpg	99
692.744	0.536	536.1	repeat	Run1	repeat/STIM_004.jpg	100
696.732	0.806	805.5	repeat	Run1	repeat/STIM_004.jpg	99
701.084	0.644	643.6	repeat	Run1	repeat/STIM_004.jpg	100
705.689	0.712	712.1	repeat	Run1	repeat/STIM_005.jpg	100
708.662	0.769	769.4	repeat	Run1	repeat/STIM_005.jpg	100
712.476	0.519	519.3	repeat	Run1	repeat/STIM_005.jpg	100
715.241	0.558	558.4	repeat	Run1	repeat/STIM_005.jpg	99
718.905	0.648	648.4	repeat	Run1	repeat/STIM_005.jpg	100
721.758	0.712	712.0	repeat	Run1	repeat/STIM_006.jpg	99
726.052	0.522	522.3	repeat	Run1	repeat/STIM_006.jpg	100
728.644	0.772	772.4	repeat	Run1	repeat/STIM_006.jpg	100
731.731	0.64	639.6	repeat	Run1	repeat/STIM_006.jpg	99
735.264	0.478	478.1	repeat	Run1	repeat/STIM_006.jpg	100
739.136	0.77	770.4	repeat	Run1	repeat/STIM_007.jpg	99
743.321	0.733	733.3	repeat	Run1	repeat/STIM_007.jpg	100
747.288	0.496	496.4	repeat	Run1	repeat/STIM_007.jpg	99
750.174	0.543	542.6	repeat	Run1	repeat/STIM_007.jpg	99
752.822	0.733	733.4	repeat	Run1	repeat/STIM_007.jpg	100
756.244	0.532	531.9	repeat	Run1	repeat/STIM_008.jpg	99
759.692	0.893	892.8	repeat	Run1	repeat/STIM_008.jpg	99
763.477	0.824	823.7	repeat	Run1	repeat/STIM_008.jpg	100
768.078	0.517	516.7	repeat	Run1	repeat/STIM_008.jpg	100
771.14	0.61	609.7	repeat	Run1	repeat/STIM_008.jpg	99
774.562	0.723	722.9	repeat	Run1	repeat/STIM_009.jpg	100
779.12	0.513	512.7	repeat	Run1	repeat/STIM_009.jpg	99
783.276	0.821	820.8	repeat	Run1	repeat/STIM_009.jpg	99
786.908	0.623	622.6	repeat	Run1	repeat/STIM_009.jpg	100
789.908	0.528	528.0	repeat	Run1	repeat/STIM_009.jpg	99
794.408	0.696	695.6	repeat	Run1	repeat/STIM_010.jpg	99
798.762	0.551	551.1	repeat	Run1	repeat/STIM_010.jpg	100
802.98	0.705	705.2	repeat	Run1	repeat/STIM_010.jpg	99
806.011	0.725	724.8	repeat	Run1	repeat/STIM_010.jpg	99
809.769	0.661	661.3	repeat	Run1	repeat/STIM_010.jpg	99
813.578	0.564	563.9	repeat	Run1	repeat/STIM_011.jpg	100
817.657	0.527	527.4	repeat	Run1	repeat/STIM_011.jpg	99
820.772	0.764	763.7	repeat	Run1	repeat/STIM_011.jpg	100
825.212	0.501	501.2	repeat	Run1	repeat/STIM_011.jpg	99
829.202	0.47	469.9	repeat	Run1	repeat/STIM_011.jpg	99
833.323	0.868	867.7	repeat	Run1	repeat/STIM_012.jpg	100
837.631	0.572	571.9	repeat	Run1	repeat/STIM_012.jpg	99
841.372	0.512	511.8	repeat	Run1	repeat/STIM_012.jpg	99
844.802	0.592	592.2	repeat	Run1	repeat/STIM_012.jpg	100
848.238	0.676	676.2	repeat	Run1	repeat/STIM_012.jpg	99
852.702	0.582	581.8	repeat	Run1	repeat/STIM_013.jpg	100
856.347	0.9	900.2	repeat	Run1	repeat/STIM_013.jpg	99
859.894	0.552	551.6	repeat	Run1	repeat/STIM_013.jpg	100
862.859	0.647	646.8	repeat	Run1	repeat/STIM_013.jpg	99
866.917	0.866	866.4	repeat	Run1	repeat/STIM_013.jpg	99
871.641	0.575	574.7	repeat	Run1	repeat/STIM_014.jpg	99
874.982	0.636	636.5	repeat	Run1	repeat/STIM_014.jpg	99
879.489	0.862	862.2	repeat	Run1	repeat/STIM_014.jpg	99
882.93	0.699	699.1	repeat	Run1	repeat/STIM_014.jpg	99
887.674	0.764	763.7	repeat	Run1	repeat/STIM_014.jpg	99
892.26	1.954	1954.1	generate	Run2	generate/STIM_000.jpg	100
897.22	0.889	888.9	generate	Run2	generate/STIM_000.jpg	99
900.888	0.953	952.7	generate	Run2	generate/STIM_000.jpg	100
905.024	1.185	1184.6	generate	Run2	generate/STIM_000.jpg	99
909.374	1.194	1194.0	generate	Run2	generate/STIM_000.jpg	100
913.719	2.137	2137.2	generate	Run2	generate/STIM_001.jpg	99
918.808	1.521	1520.9	generate	Run2	generate/STIM_001.jpg	100
923.674	1.596	1596.4	generate	Run2	generate/STIM_001.jpg	99
929.44	1.746	1746.3	generate	Run2	generate/STIM_001.jpg	100
935.064	1.577	1577.0	generate	Run2	generate/STIM_001.jpg	99
940.038	2.267	2267.3	generate	Run2	generate/STIM_002.jpg	100
945.519	1.921	1920.9	generate	Run2	generate/STIM_002.jpg	100
950.361	1.09	1090.1	generate	Run2	generate/STIM_002.jpg	99
953.607	1.263	1263.4	generate	Run2	generate/STIM_002.jpg	99
957.281	1.142	1142.5	generate	Run2	generate/STIM_002.jpg	99
962.23	1.093	1093.0	generate	Run2	generate/STIM_003.jpg	100
966.939	1.542	1541.8	generate	Run2	generate/STIM_003.jpg	99
972.088	1.366	1365.6	generate	Run2	generate/STIM_003.jpg	100
975.644	1.868	1867.5	generate	Run2	generate/STIM_003.jpg	99
981.024	1.419	1419.4	generate	Run2	generate/STIM_003.jpg	99
986.407	2.271	2270.6	generate	Run2	generate/STIM_004.jpg	99
991.389	0.886	885.5	generate	Run2	generate/STIM_004.jpg	99
995.418	1.831	1831.1	generate	Run2	generate/STIM_004.jpg	99
1001.22	0.984	984.3	generate	Run2	generate/STIM_004.jpg	99
1004.706	1.547	1547.0	generate	Run2	generate/STIM_004.jpg	100
1009.073	1.083	1083.1	generate	Run2	generate/STIM_005.jpg	100
1013.386	1.923	1922.6	generate	Run2	generate/STIM_005.jpg	99
1019.275	1.202	1201.7	generate	Run2	generate/STIM_005.jpg	99
1023.168	1.472	1471.7	generate	Run2	generate/STIM_005.jpg	99
1028.593	0.856	856.1	generate	Run2	generate/STIM_005.jpg	100
1032.512	1.64	1640.5	generate	Run2	generate/STIM_006.jpg	100
1037.412	1.423	1423.3	generate	Run2	generate/STIM_006.jpg	100
1042.441	1.738	1737.8	generate	Run2	generate/STIM_006.jpg	100
1047.202	1.842	1841.5	generate	Run2	generate/STIM_006.jpg	100
1052.478	0.852	852.0	generate	Run2	generate/STIM_006.jpg	99
1055.587	1.618	1618.3	generate	Run2	generate/STIM_007.jpg	100
1060.674	2.056	2056.1	generate	Run2	generate/STIM_007.jpg	99
1066.58	1.343	1342.9	generate	Run2	generate/STIM_007.jpg	100
1071.142	1.741	1740.9	generate	Run2	generate/STIM_007.jpg	100
1076.711	1.2	1200.4	generate	Run2	generate/STIM_007.jpg	100
1080.654	1.498	1498.2	generate	Run2	generate/STIM_008.jpg	100
1086.216	1.146	1146.3	generate	Run2	generate/STIM_008.jpg	100
1089.53	1.662	1662.5	generate	Run2	generate/STIM_008.jpg	99
1095.172	1.636	1636.4	generate	Run2	generate/STIM_008.jpg	100
1099.924	1.514	1514.5	generate	Run2	generate/STIM_008.jpg	100
1104.112	2.157	2156.9	generate	Run2	generate/STIM_009.jpg	99
1110.161	0.907	906.8	generate	Run2	generate/STIM_009.jpg	100
1113.914	1.731	1730.9	generate	Run2	generate/STIM_009.jpg	99
1119.27	1.571	1570.9	generate	Run2	generate/STIM_009.jpg	99
1123.199	0.94	939.5	generate	Run2	generate/STIM_009.jpg	99
1127.326	2.134	2133.7	generate	Run2	generate/STIM_010.jpg	99
1132.506	1.967	1966.8	generate	Run2	generate/STIM_010.jpg	100
1137.11	0.899	898.8	generate	Run2	generate/STIM_010.jpg	100
1141.402	1.353	1353.1	generate	Run2	generate/STIM_010.jpg	100
1146.059	1.582	1582.3	generate	Run2	generate/STIM_010.jpg	100
1150.955	0.975	975.4	generate	Run2	generate/STIM_011.jpg	100
1155.339	1.185	1185.3	generate	Run2	generate/STIM_011.jpg	100
1158.665	1.878	1877.7	generate	Run2	generate/STIM_011.jpg	100
1164.708	0.847	846.9	generate	Run2	generate/STIM_011.jpg	100
1168.514	0.847	847.0	generate	Run2	generate/STIM_011.jpg	99
1172.26	2.049	2049.4	generate	Run2	generate/STIM_012.jpg	99
1178.132	1.57	1570.0	generate	Run2	generate/STIM_012.jpg	100
1182.613	1.127	1126.9	generate	Run2	generate/STIM_012.jpg	100
1187.602	1.192	1192.5	generate	Run2	generate/STIM_012.jpg	99
1191.533	0.882	882.2	generate	Run2	generate/STIM_012.jpg	99
1195.754	0.946	945.9	generate	Run2	generate/STIM_013.jpg	99
1200.706	1.686	1685.7	generate	Run2	generate/STIM_013.jpg	99
1205.815	1.923	1922.8	generate	Run2	generate/STIM_013.jpg	99
1211.89	1.148	1147.6	generate	Run2	generate/STIM_013.jpg	99
1215.489	0.933	932.9	generate	Run2	generate/STIM_013.jpg	99
1219.134	1.628	1627.5	generate	Run2	generate/STIM_014.jpg	99
1223.359	1.857	1856.7	generate	Run2	generate/STIM_014.jpg	100
1228.934	1.532	1531.6	generate	Run2	generate/STIM_014.jpg	99
1233.6	1.892	1891.5	generate	Run2	generate/STIM_014.jpg	99
1238.459	1.669	1668.9	generate	Run2	generate/STIM_014.jpg	99
1242.785	1.91	1910.0	generate	Run2	generate/STIM_015.jpg	99
1248.201	0.915	914.8	generate	Run2	generate/STIM_015.jpg	100
1251.41	1.781	1781.4	generate	Run2	generate/STIM_015.jpg	100
1255.798	1.24	1240.3	generate	Run2	generate/STIM_015.jpg	100
1260.498	1.289	1289.0	generate	Run2	generate/STIM_015.jpg	100
1264.874	1.922	1921.9	generate	Run2	generate/STIM_016.jpg	100
1269.217	1.627	1627.4	generate	Run2	generate/STIM_016.jpg	100
1273.798	1.168	1168.1	generate	Run2	generate/STIM_016.jpg	100
1277.655	1.437	1437.4	generate	Run2	generate/STIM_016.jpg	99
1282.664	1.171	1171.0	generate	Run2	generate/STIM_016.jpg	99
1287.361	2.184	2184.1	generate	Run2	generate/STIM_017.jpg	100
1292.154	1.721	1721.1	generate	Run2	generate/STIM_017.jpg	100
1297.02	1.414	1413.5	generate	Run2	generate/STIM_017.jpg	99
1301.141	1.564	1563.8	generate	Run2	generate/STIM_017.jpg	99
1306.856	1.447	1446.7	generate	Run2	generate/STIM_017.jpg	100
1311.264	1.502	1501.8	generate	Run2	generate/STIM_018.jpg	100
1314.959	2.104	2104.5	generate	Run2	generate/STIM_018.jpg	99
1319.575	1.565	1564.8	generate	Run2	generate/STIM_018.jpg	100
1324.251	0.998	997.7	generate	Run2	generate/STIM_018.jpg	100
1327.683	1.303	1302.9	generate	Run2	generate/STIM_018.jpg	100
1332.436	1.808	1808.1	generate	Run2	generate/STIM_019.jpg	100
1336.577	1.268	1268.2	generate	Run2	generate/STIM_019.jpg	99
1341.125	0.968	967.5	generate	Run2	generate/STIM_019.jpg	100
1344.977	1.416	1415.5	generate	Run2	generate/STIM_019.jpg	100
1349.091	1.881	1880.9	generate	Run2	generate/STIM_019.jpg	99
1353.326	1.264	1264.3	generate	Run2	generate/STIM_020.jpg	99
1357.507	1.999	1999.0	generate	Run2	generate/STIM_020.jpg	100
1361.737	1.322	1321.8	generate	Run2	generate/STIM_020.jpg	99
1366.663	1.744	1743.9	generate	Run2	generate/STIM_020.jpg	100
1371.857	1.657	1656.8	generate	Run2	generate/STIM_020.jpg	99
1377.483	1.229	1228.6	generate	Run2	generate/STIM_021.jpg	100
1381.671	1.757	1757.2	generate	Run2	generate/STIM_021.jpg	99
1386.473	1.726	1725.5	generate	Run2	generate/STIM_021.jpg	99
1390.522	1.26	1259.8	generate	Run2	generate/STIM_021.jpg	100
1394.177	1.366	1366.5	generate	Run2	generate/STIM_021.jpg	99
1397.743	1.767	1766.9	generate	Run2	generate/STIM_022.jpg	99
1402.302	1.216	1215.8	generate	Run2	generate/STIM_022.jpg	100
1405.652	0.934	934.3	generate	Run2	generate/STIM_022.jpg	99
1409.887	1.04	1039.8	generate	Run2	generate/STIM_022.jpg	99
1414.293	1.346	1345.6	generate	Run2	generate/STIM_022.jpg	99
1418.253	1.048	1048.1	generate	Run2	generate/STIM_023.jpg	100
1421.593	1.866	1866.3	generate	Run2	generate/STIM_023.jpg	99
1427.194	2.02	2019.6	generate	Run2	generate/STIM_023.jpg	100
1432.872	1.024	1023.5	generate	Run2	generate/STIM_023.jpg	100
1436.276	1.091	1090.9	generate	Run2	generate/STIM_023.jpg	100
1440.562	1.212	1212.4	generate	Run2	generate/STIM_024.jpg	99
1445.338	1.806	1806.2	generate	Run2	generate/STIM_024.jpg	100
1450.412	1.833	1833.4	generate	Run2	generate/STIM_024.jpg	100
1455.429	1.578	1578.4	generate	Run2	generate/STIM_024.jpg	99
1459.92	0.812	811.6	generate	Run2	generate/STIM_024.jpg	100
1464.166	0.795	794.7	repeat	Run2	repeat/STIM_000.jpg	99
1468.885	0.471	471.1	repeat	Run2	repeat/STIM_000.jpg	100
1472.397	0.816	815.8	repeat	Run2	repeat/STIM_000.jpg	99
1475.394	0.654	653.5	repeat	Run2	repeat/STIM_000.jpg	100
1478.164	0.574	574.1	repeat	Run2	repeat/STIM_000.jpg	99
1482.485	0.574	574.3	repeat	Run2	repeat/STIM_001.jpg	99
1486.395	0.724	723.5	repeat	Run2	repeat/STIM_001.jpg	99
1490.74	0.764	763.6	repeat	Run2	repeat/STIM_001.jpg	100
1493.681	0.496	495.6	repeat	Run2	repeat/STIM_001.jpg	100
1496.907	0.793	793.0	repeat	Run2	repeat/STIM_001.jpg	99
1500.767	0.719	719.4	repeat	Run2	repeat/STIM_002.jpg	99
1505.26	0.589	588.6	repeat	Run2	repeat/STIM_002.jpg	99
1509.773	0.599	599.3	repeat	Run2	repeat/STIM_002.jpg	100
1513.952	0.861	860.8	repeat	Run2	repeat/STIM_002.jpg	100
1518.086	0.524	523.9	repeat	Run2	repeat/STIM_002.jpg	99
1521.589	0.697	696.6	repeat	Run2	repeat/STIM_003.jpg	100
1524.531	0.889	888.6	repeat	Run2	repeat/STIM_003.jpg	99
1529.005	0.457	457.4	repeat	Run2	repeat/STIM_003.jpg	99
1532.603	0.685	685.2	repeat	Run2	repeat/STIM_003.jpg	100
1536.103	0.456	456.2	repeat	Run2	repeat/STIM_003.jpg	100
1539.804	0.682	681.5	repeat	Run2	repeat/STIM_004.jpg	99
1544.255	0.841	841.3	repeat	Run2	repeat/STIM_004.jpg	99
1549.101	0.517	516.7	repeat	Run2	repeat/STIM_004.jpg	99
1552.967	0.556	555.8	repeat	Run2	repeat/STIM_004.jpg	99
1556.395	0.585	584.6	repeat	Run2	repeat/STIM_004.jpg	100
1560.059	0.649	649.2	repeat	Run2	repeat/STIM_005.jpg	100
1562.856	0.684	684.4	repeat	Run2	repeat/STIM_005.jpg	100
1567.205	0.78	780.4	repeat	Run2	repeat/STIM_005.jpg	99
1570.296	0.688	687.9	repeat	Run2	repeat/STIM_005.jpg	99
1574.544	0.747	747.2	repeat	Run2	repeat/STIM_005.jpg	99
1577.429	0.733	733.0	repeat	Run2	repeat/STIM_006.jpg	99
1580.493	0.498	498.1	repeat	Run2	repeat/STIM_006.jpg	99
1584.747	0.852	852.1	repeat	Run2	repeat/STIM_006.jpg	99
1589.032	0.548	548.1	repeat	Run2	repeat/STIM_006.jpg	99
1592.974	0.665	665.2	repeat	Run2	repeat/STIM_006.jpg	100
1597.323	0.495	495.0	repeat	Run2	repeat/STIM_007.jpg	99
1600.814	0.546	546.5	repeat	Run2	repeat/STIM_007.jpg	100
1604.428	0.51	510.3	repeat	Run2	repeat/STIM_007.jpg	100
1608.397	0.604	603.9	repeat	Run2	repeat/STIM_007.jpg	99
1612.812	0.757	757.4	repeat	Run2	repeat/STIM_007.jpg	99
1616.776	0.573	572.7	repeat	Run2	repeat/STIM_008.jpg	99
1621.158	0.484	483.8	repeat	Run2	repeat/STIM_008.jpg	100
1625.244	0.882	881.8	repeat	Run2	repeat/STIM_008.jpg	100
1629.072	0.737	736.8	repeat	Run2	repeat/STIM_008.jpg	100
1633.571	0.528	527.5	repeat	Run2	repeat/STIM_008.jpg	99
1638.142	0.808	808.4	repeat	Run2	repeat/STIM_009.jpg	99
1642.6	0.883	882.7	repeat	Run2	repeat/STIM_009.jpg	99
1645.901	0.81	809.7	repeat	Run2	repeat/STIM_009.jpg	100
1649.822	0.847	847.1	repeat	Run2	repeat/STIM_009.jpg	100
1652.825	0.821	820.8	repeat	Run2	repeat/STIM_009.jpg	99
1655.759	0.802	802.4	repeat	Run2	repeat/STIM_010.jpg	100
1659.712	0.818	818.4	repeat	Run2	repeat/STIM_010.jpg	100
1663.897	0.828	828.2	repeat	Run2	repeat/STIM_010.jpg	99
1668.728	0.67	670.0	repeat	Run2	repeat/STIM_010.jpg	100
1672.431	0.729	729.3	repeat	Run2	repeat/STIM_010.jpg	100
1675.252	0.518	517.9	repeat	Run2	repeat/STIM_011.jpg	100
1678.651	0.698	697.5	repeat	Run2	repeat/STIM_011.jpg	99
1681.69	0.856	855.6	repeat	Run2	repeat/STIM_011.jpg	100
1685.905	0.672	672.1	repeat	Run2	repeat/STIM_011.jpg	100
1688.959	0.894	893.5	repeat	Run2	repeat/STIM_011.jpg	100
1693.091	0.693	693.2	repeat	Run2	repeat/STIM_012.jpg	100
1696.304	0.53	530.5	repeat	Run2	repeat/STIM_012.jpg	99
1699.083	0.696	696.4	repeat	Run2	repeat/STIM_012.jpg	99
1702.671	0.663	662.7	repeat	Run2	repeat/STIM_012.jpg	100
1706.572	0.871	871.1	repeat	Run2	repeat/STIM_012.jpg	99
1711.467	0.884	883.8	repeat	Run2	repeat/STIM_013.jpg	100
1716.261	0.748	748.1	repeat	Run2	repeat/STIM_013.jpg	100
1720.269	0.572	572.5	repeat	Run2	repeat/STIM_013.jpg	100
1722.929	0.778	778.4	repeat	Run2	repeat/STIM_013.jpg	99
1727.65	0.473	473.3	repeat	Run2	repeat/STIM_013.jpg	100
1730.347	0.571	570.6	repeat	Run2	repeat/STIM_014.jpg	100
1734.367	0.542	541.8	repeat	Run2	repeat/STIM_014.jpg	99
1737.668	0.788	788.2	repeat	Run2	repeat/STIM_014.jpg	99
1740.797	0.505	505.5	repeat	Run2	repeat/STIM_014.jpg	100
1744.4	0.803	803.3	repeat	Run2	repeat/STIM_014.jpg	100
1749.284	1.608	1608.2	generate	Run3	generate/STIM_000.jpg	99
1754.472	0.809	809.0	generate	Run3	generate/STIM_000.jpg	100
1757.849	1.086	1085.8	generate	Run3	generate/STIM_000.jpg	99
1762.221	1.853	1853.1	generate	Run3	generate/STIM_000.jpg	100
1767.666	1.819	1819.4	generate	Run3	generate/STIM_000.jpg	100
1772.953	1.845	1845.3	generate	Run3	generate/STIM_001.jpg	99
1777.05	1.008	1007.9	generate	Run3	generate/STIM_001.jpg	100
1782.005	1.241	1241.2	generate	Run3	generate/STIM_001.jpg	100
1785.704	1.89	1890.4	generate	Run3	generate/STIM_001.jpg	100
1791.336	1.812	1811.6	generate	Run3	generate/STIM_001.jpg	100
1797.331	1.033	1032.7	generate	Run3	generate/STIM_002.jpg	100
1801.216	1.721	1721.2	generate	Run3	generate/STIM_002.jpg	100
1805.961	0.767	767.1	generate	Run3	generate/STIM_002.jpg	99
1810.555	1.788	1787.6	generate	Run3	generate/STIM_002.jpg	100
1815.368	1.284	1283.8	generate	Run3	generate/STIM_002.jpg	100
1820.129	1.063	1062.8	generate	Run3	generate/STIM_003.jpg	100
1824.874	1.762	1762.1	generate	Run3	generate/STIM_003.jpg	100
1830.499	1.363	1363.0	generate	Run3	generate/STIM_003.jpg	99
1834.743	1.212	1212.5	generate	Run3	generate/STIM_003.jpg	100
1838.756	1.848	1848.5	generate	Run3	generate/STIM_003.jpg	99
1843.283	1.657	1656.9	generate	Run3	generate/STIM_004.jpg	100
1847.549	1.124	1124.1	generate	Run3	generate/STIM_004.jpg	99
1850.857	0.814	814.1	generate	Run3	generate/STIM_004.jpg	100
1853.837	1.206	1206.4	generate	Run3	generate/STIM_004.jpg	100
1857.983	0.878	878.2	generate	Run3	generate/STIM_004.jpg	99
1862.042	1.612	1611.8	generate	Run3	generate/STIM_005.jpg	100
1866.816	0.891	891.0	generate	Run3	generate/STIM_005.jpg	99
1870.709	1.014	1014.0	generate	Run3	generate/STIM_005.jpg	99
1874.709	1.8	1799.7	generate	Run3	generate/STIM_005.jpg	100
1880.44	1.732	1732.1	generate	Run3	generate/STIM_005.jpg	99
1884.537	0.918	918.3	generate	Run3	generate/STIM_006.jpg	100
1889.272	1.155	1155.4	generate	Run3	generate/STIM_006.jpg	100
1893.049	1.805	1804.8	generate	Run3	generate/STIM_006.jpg	99
1898.177	1.566	1565.8	generate	Run3	generate/STIM_006.jpg	100
1903.749	1.498	1498.4	generate	Run3	generate/STIM_006.jpg	99
1908.502	1.342	1342.1	generate	Run3	generate/STIM_007.jpg	99
1913.746	1.101	1101.2	generate	Run3	generate/STIM_007.jpg	99
1917.73	1.893	1893.0	generate	Run3	generate/STIM_007.jpg	99
1923.596	0.769	768.8	generate	Run3	generate/STIM_007.jpg	99
1927.768	0.912	912.1	generate	Run3	generate/STIM_007.jpg	99
1931.517	1.479	1478.9	generate	Run3	generate/STIM_008.jpg	100
1936.282	1.296	1296.2	generate	Run3	generate/STIM_008.jpg	100
1940.606	1.83	1830.2	generate	Run3	generate/STIM_008.jpg	100
1946.278	1.79	1790.4	generate	Run3	generate/STIM_008.jpg	100
1951.947	1.62	1619.9	generate	Run3	generate/STIM_008.jpg	99
1956.656	1.222	1221.7	generate	Run3	generate/STIM_009.jpg	100
1961.092	1.51	1509.7	generate	Run3	generate/STIM_009.jpg	100
1966.224	1.485	1484.9	generate	Run3	generate/STIM_009.jpg	100
1969.925	1.194	1193.7	generate	Run3	generate/STIM_009.jpg	100
1974.588	1.609	1608.7	generate	Run3	generate/STIM_009.jpg	100
1979.116	1.283	1282.6	generate	Run3	generate/STIM_010.jpg	99
1984.134	1.752	1752.1	generate	Run3	generate/STIM_010.jpg	100
1989.812	1.792	1791.5	generate	Run3	generate/STIM_010.jpg	100
1994.68	0.98	979.9	generate	Run3	generate/STIM_010.jpg	100
1997.87	1.198	1198.0	generate	Run3	generate/STIM_010.jpg	100
2003.174	1.51	1510.5	generate	Run3	generate/STIM_011.jpg	99
2007.135	0.853	852.6	generate	Run3	generate/STIM_011.jpg	99
2010.416	0.788	788.2	generate	Run3	generate/STIM_011.jpg	99
2014.212	1.501	1500.9	generate	Run3	generate/STIM_011.jpg	100
2018.184	0.975	975.3	generate	Run3	generate/STIM_011.jpg	99
2022.539	1.381	1380.7	generate	Run3	generate/STIM_012.jpg	100
2026.368	1.158	1158.4	generate	Run3	generate/STIM_012.jpg	100
2029.679	1.11	1110.4	generate	Run3	generate/STIM_012.jpg	100
2034.073	1.239	1238.6	generate	Run3	generate/STIM_012.jpg	100
2039.292	1.125	1124.8	generate	Run3	generate/STIM_012.jpg	99
2043.241	1.287	1287.0	generate	Run3	generate/STIM_013.jpg	100
2047.629	0.841	840.7	generate	Run3	generate/STIM_013.jpg	99
2051.901	0.822	821.7	generate	Run3	generate/STIM_013.jpg	99
2055.204	1.79	1790.0	generate	Run3	generate/STIM_013.jpg	100
2059.222	0.785	785.0	generate	Run3	generate/STIM_013.jpg	99
2064.064	1.806	1805.8	generate	Run3	generate/STIM_014.jpg	99
2069.394	1.26	1260.4	generate	Run3	generate/STIM_014.jpg	99
2073.95	1.728	1728.3	generate	Run3	generate/STIM_014.jpg	100
2078.095	1.074	1073.8	generate	Run3	generate/STIM_014.jpg	100
2081.725	1.631	1630.7	generate	Run3	generate/STIM_014.jpg	100
2085.54	1.391	1391.3	generate	Run3	generate/STIM_015.jpg	100
2089.195	1.674	1674.0	generate	Run3	generate/STIM_015.jpg	100
2094.364	1.61	1609.6	generate	Run3	generate/STIM_015.jpg	99
2099.094	1.788	1788.2	generate	Run3	generate/STIM_015.jpg	99
2104.119	1.719	1718.6	generate	Run3	generate/STIM_015.jpg	100
2108.551	0.872	872.5	generate	Run3	generate/STIM_016.jpg	100
2113.422	1.824	1823.7	generate	Run3	generate/STIM_016.jpg	99
2118.808	1.572	1572.3	generate	Run3	generate/STIM_016.jpg	100
2124.522	1.331	1331.2	generate	Run3	generate/STIM_016.jpg	100
2129.849	1.34	1340.1	generate	Run3	generate/STIM_016.jpg	100
2134.717	1.46	1460.0	generate	Run3	generate/STIM_017.jpg	100
2139.398	0.924	924.4	generate	Run3	generate/STIM_017.jpg	99
2144.009	0.977	977.1	generate	Run3	generate/STIM_017.jpg	100
2148.902	1.632	1632.4	generate	Run3	generate/STIM_017.jpg	100
2153.859	1.845	1845.4	generate	Run3	generate/STIM_017.jpg	99
2158.535	1.068	1068.0	generate	Run3	generate/STIM_018.jpg	100
2163.443	1.701	1700.6	generate	Run3	generate/STIM_018.jpg	99
2167.509	1.28	1280.2	generate	Run3	generate/STIM_018.jpg	100
2172.854	0.866	866.3	generate	Run3	generate/STIM_018.jpg	99
2176.581	1.021	1021.2	generate	Run3	generate/STIM_018.jpg	99
2181.013	1.247	1247.0	generate	Run3	generate/STIM_019.jpg	99
2186.171	1.523	1523.0	generate	Run3	generate/STIM_019.jpg	100
2190.082	1.157	1157.0	generate	Run3	generate/STIM_019.jpg	99
2193.95	1.14	1139.8	generate	Run3	generate/STIM_019.jpg	99
2197.59	1.588	1588.1	generate	Run3	generate/STIM_019.jpg	99
2201.391	1.135	1135.2	generate	Run3	generate/STIM_020.jpg	99
2204.83	1.738	1738.0	generate	Run3	generate/STIM_020.jpg	100
2209.829	1.145	1145.3	generate	Run3	generate/STIM_020.jpg	100
2215.01	1.812	1811.7	generate	Run3	generate/STIM_020.jpg	100
2219.088	1.377	1377.0	generate	Run3	generate/STIM_020.jpg	100
2223.609	1.017	1017.3	generate	Run3	generate/STIM_021.jpg	100
2226.818	1.359	1359.1	generate	Run3	generate/STIM_021.jpg	99
2230.622	1.82	1820.3	generate	Run3	generate/STIM_021.jpg	100
2235.296	0.95	949.6	generate	Run3	generate/STIM_021.jpg	100
2239.081	0.826	826.4	generate	Run3	generate/STIM_021.jpg	99
2242.107	1.167	1167.4	generate	Run3	generate/STIM_022.jpg	99
2247.124	1.485	1484.8	generate	Run3	generate/STIM_022.jpg	99
2251.115	1.068	1068.5	generate	Run3	generate/STIM_022.jpg	99
2256.219	0.868	867.7	generate	Run3	generate/STIM_022.jpg	100
2260.507	1.781	1781.2	generate	Run3	generate/STIM_022.jpg	100
2265.503	0.778	778.3	generate	Run3	generate/STIM_023.jpg	99
2269.041	1.437	1436.6	generate	Run3	generate/STIM_023.jpg	100
2273.39	1.552	1552.0	generate	Run3	generate/STIM_023.jpg	99
2278.303	1.504	1503.8	generate	Run3	generate/STIM_023.jpg	100
2283.453	1.271	1270.8	generate	Run3	generate/STIM_023.jpg	100
2287.19	1.769	1769.1	generate	Run3	generate/STIM_024.jpg	100
2292.857	1.05	1049.7	generate	Run3	generate/STIM_024.jpg	100
2296.523	0.945	945.4	generate	Run3	generate/STIM_024.jpg	99
2299.597	1.764	1763.5	generate	Run3	generate/STIM_024.jpg	99
2304.934	0.803	803.1	generate	Run3	generate/STIM_024.jpg	100
2309.708	0.719	719.4	repeat	Run3	repeat/STIM_000.jpg	99
2313.232	0.796	796.1	repeat	Run3	repeat/STIM_000.jpg	100
2316.154	0.9	899.8	repeat	Run3	repeat/STIM_000.jpg	100
2320.225	0.675	674.9	repeat	Run3	repeat/STIM_000.jpg	100
2324.028	0.88	880.3	repeat	Run3	repeat/STIM_000.jpg	100
2327.168	0.616	616.4	repeat	Run3	repeat/STIM_001.jpg	99
2330.413	0.835	834.6	repeat	Run3	repeat/STIM_001.jpg	99
2333.915	0.693	693.4	repeat	Run3	repeat/STIM_001.jpg	99
2337.648	0.833	833.0	repeat	Run3	repeat/STIM_001.jpg	100
2341.719	0.802	802.2	repeat	Run3	repeat/STIM_001.jpg	100
2346.338	0.765	765.0	repeat	Run3	repeat/STIM_002.jpg	99
2349.597	0.631	631.1	repeat	Run3	repeat/STIM_002.jpg	99
2353.021	0.709	708.9	repeat	Run3	repeat/STIM_002.jpg	100
2357.383	0.533	532.7	repeat	Run3	repeat/STIM_002.jpg	99
2361.531	0.608	607.8	repeat	Run3	repeat/STIM_002.jpg	99
2364.513	0.689	688.9	repeat	Run3	repeat/STIM_003.jpg	100
2368.857	0.805	805.4	repeat	Run3	repeat/STIM_003.jpg	99
2372.959	0.609	608.7	repeat	Run3	repeat/STIM_003.jpg	100
2377.365	0.688	687.5	repeat	Run3	repeat/STIM_003.jpg	100
2382.085	0.575	574.6	repeat	Run3	repeat/STIM_003.jpg	100
2386.702	0.77	770.2	repeat	Run3	repeat/STIM_004.jpg	100
2391.018	0.532	531.5	repeat	Run3	repeat/STIM_004.jpg	100
2394.834	0.572	572.5	repeat	Run3	repeat/STIM_004.jpg	99
2398.496	0.563	563.3	repeat	Run3	repeat/STIM_004.jpg	100
2402.791	0.693	692.9	repeat	Run3	repeat/STIM_004.jpg	99
2407.059	0.531	530.9	repeat	Run3	repeat/STIM_005.jpg	100
2410.386	0.757	756.8	repeat	Run3	repeat/STIM_005.jpg	100
2414.147	0.459	459.0	repeat	Run3	repeat/STIM_005.jpg	99
2417.514	0.665	665.0	repeat	Run3	repeat/STIM_005.jpg	100
2421.339	0.824	823.8	repeat	Run3	repeat/STIM_005.jpg	100
2426.016	0.651	650.9	repeat	Run3	repeat/STIM_006.jpg	99
2429.77	0.476	476.3	repeat	Run3	repeat/STIM_006.jpg	100
2434.148	0.846	845.5	repeat	Run3	repeat/STIM_006.jpg	100
2437.905	0.585	584.6	repeat	Run3	repeat/STIM_006.jpg	100
2440.995	0.782	782.2	repeat	Run3	repeat/STIM_006.jpg	99
2444.531	0.524	523.6	repeat	Run3	repeat/STIM_007.jpg	100
2447.803	0.77	770.3	repeat	Run3	repeat/STIM_007.jpg	100
2451.591	0.774	774.3	repeat	Run3	repeat/STIM_007.jpg	100
2456.243	0.7	699.6	repeat	Run3	repeat/STIM_007.jpg	99
2460.732	0.798	797.6	repeat	Run3	repeat/STIM_007.jpg	99
2464.147	0.753	752.6	repeat	Run3	repeat/STIM_008.jpg	99
2468.773	0.609	608.7	repeat	Run3	repeat/STIM_008.jpg	100
2473.059	0.89	889.6	repeat	Run3	repeat/STIM_008.jpg	100
2477.053	0.844	844.4	repeat	Run3	repeat/STIM_008.jpg	100
2481.693	0.827	826.7	repeat	Run3	repeat/STIM_008.jpg	99
2486.173	0.611	611.0	repeat	Run3	repeat/STIM_009.jpg	99
2490.509	0.662	661.8	repeat	Run3	repeat/STIM_009.jpg	99
2494.705	0.535	535.3	repeat	Run3	repeat/STIM_009.jpg	100
2497.495	0.458	457.7	repeat	Run3	repeat/STIM_009.jpg	100
2500.867	0.799	799.4	repeat	Run3	repeat/STIM_009.jpg	99
2505.316	0.733	733.4	repeat	Run3	repeat/STIM_010.jpg	99
2508.887	0.858	858.4	repeat	Run3	repeat/STIM_010.jpg	100
2512.77	0.6	600.2	repeat	Run3	repeat/STIM_010.jpg	99
2517.18	0.683	683.1	repeat	Run3	repeat/STIM_010.jpg	100
2520.089	0.681	681.1	repeat	Run3	repeat/STIM_010.jpg	99
2523.743	0.675	675.1	repeat	Run3	repeat/STIM_011.jpg	99
2527.454	0.655	655.3	repeat	Run3	repeat/STIM_011.jpg	99
2531.52	0.618	617.5	repeat	Run3	repeat/STIM_011.jpg	99
2534.986	0.629	628.6	repeat	Run3	repeat/STIM_011.jpg	100
2539.037	0.89	890.4	repeat	Run3	repeat/STIM_011.jpg	100
2543.24	0.531	531.1	repeat	Run3	repeat/STIM_012.jpg	99
2546.157	0.676	676.5	repeat	Run3	repeat/STIM_012.jpg	99
2549.76	0.692	691.9	repeat	Run3	repeat/STIM_012.jpg	100
2552.852	0.552	552.0	repeat	Run3	repeat/STIM_012.jpg	99
2556.187	0.876	875.7	repeat	Run3	repeat/STIM_012.jpg	100
2559.739	0.758	757.7	repeat	Run3	repeat/STIM_013.jpg	100
2564.343	0.786	785.8	repeat	Run3	repeat/STIM_013.jpg	99
2567.549	0.616	616.5	repeat	Run3	repeat/STIM_013.jpg	100
2570.402	0.823	823.0	repeat	Run3	repeat/STIM_013.jpg	99
2574.357	0.569	568.9	repeat	Run3	repeat/STIM_013.jpg	100
2578.344	0.619	619.4	repeat	Run3	repeat/STIM_014.jpg	99
2581.471	0.586	586.4	repeat	Run3	repeat/STIM_014.jpg	100
2586.023	0.534	534.3	repeat	Run3	repeat/STIM_014.jpg	99
2589.164	0.842	842.1	repeat	Run3	repeat/STIM_014.jpg	100
2592.861	0.886	886.5	repeat	Run3	repeat/STIM_014.jpg	100
2597.69	1.636	1636.2	generate	Run4	generate/STIM_000.jpg	100
2602.901	1.066	1066.3	generate	Run4	generate/STIM_000.jpg	100
2607.969	1.136	1136.0	generate	Run4	generate/STIM_000.jpg	100
2611.607	1.811	1810.9	generate	Run4	generate/STIM_000.jpg	99
2616.848	1.779	1779.3	generate	Run4	generate/STIM_000.jpg	99
2620.84	0.763	763.0	generate	Run4	generate/STIM_001.jpg	100
2624.802	0.875	874.8	generate	Run4	generate/STIM_001.jpg	100
2628.808	1.547	1547.1	generate	Run4	generate/STIM_001.jpg	99
2633.299	1.482	1482.4	generate	Run4	generate/STIM_001.jpg	99
2638.219	1.712	1711.9	generate	Run4	generate/STIM_001.jpg	99
2643.215	0.921	920.8	generate	Run4	generate/STIM_002.jpg	100
2646.552	0.817	817.0	generate	Run4	generate/STIM_002.jpg	100
2651.301	1.683	1683.0	generate	Run4	generate/STIM_002.jpg	99
2655.623	0.994	994.4	generate	Run4	generate/STIM_002.jpg	99
2659.664	1.241	1241.0	generate	Run4	generate/STIM_002.jpg	99
2664.451	0.93	930.5	generate	Run4	generate/STIM_003.jpg	99
2669.475	1.133	1132.7	generate	Run4	generate/STIM_003.jpg	99
2672.765	1.117	1117.2	generate	Run4	generate/STIM_003.jpg	99
2676.823	0.936	936.4	generate	Run4	generate/STIM_003.jpg	100
2681.003	0.766	766.0	generate	Run4	generate/STIM_003.jpg	99
2683.93	1.824	1823.5	generate	Run4	generate/STIM_004.jpg	99
2688.748	1.354	1354.5	generate	Run4	generate/STIM_004.jpg	99
2693.584	1.445	1445.4	generate	Run4	generate/STIM_004.jpg	100
2697.537	1.64	1639.7	generate	Run4	generate/STIM_004.jpg	100
2703.272	1.89	1890.5	generate	Run4	generate/STIM_004.jpg	100
2709.34	1.318	1318.3	generate	Run4	generate/STIM_005.jpg	99
2713.085	1.733	1732.7	generate	Run4	generate/STIM_005.jpg	100
2717.341	1.419	1418.8	generate	Run4	generate/STIM_005.jpg	99
2722.248	1.102	1102.4	generate	Run4	generate/STIM_005.jpg	99
2725.525	0.842	841.9	generate	Run4	generate/STIM_005.jpg	100
2728.979	1.792	1791.9	generate	Run4	generate/STIM_006.jpg	99
2734.202	1.104	1103.9	generate	Run4	generate/STIM_006.jpg	100
2739.004	0.809	808.6	generate	Run4	generate/STIM_006.jpg	100
2743.63	1.332	1332.5	generate	Run4	generate/STIM_006.jpg	100
2748.189	1.52	1520.2	generate	Run4	generate/STIM_006.jpg	100
2751.94	1.412	1411.6	generate	Run4	generate/STIM_007.jpg	99
2756.015	1.661	1660.9	generate	Run4	generate/STIM_007.jpg	99
2761.603	0.797	797.1	generate	Run4	generate/STIM_007.jpg	100
2765.34	1.005	1004.8	generate	Run4	generate/STIM_007.jpg	99
2770.396	0.919	919.2	generate	Run4	generate/STIM_007.jpg	100
2774.52	1.642	1641.5	generate	Run4	generate/STIM_008.jpg	99
2779.579	1.833	1833.2	generate	Run4	generate/STIM_008.jpg	100
2783.769	1.041	1040.6	generate	Run4	generate/STIM_008.jpg	99
2787.229	1.356	1355.5	generate	Run4	generate/STIM_008.jpg	99
2792.623	0.81	809.6	generate	Run4	generate/STIM_008.jpg	100
2797.138	1.793	1792.7	generate	Run4	generate/STIM_009.jpg	100
2801.209	0.789	788.9	generate	Run4	generate/STIM_009.jpg	99
2805.799	0.764	763.9	generate	Run4	generate/STIM_009.jpg	99
2810.359	1.474	1474.4	generate	Run4	generate/STIM_009.jpg	100
2814.579	0.789	788.9	generate	Run4	generate/STIM_009.jpg	100
2818.822	1.875	1875.0	generate	Run4	generate/STIM_010.jpg	100
2823.124	1.612	1611.6	generate	Run4	generate/STIM_010.jpg	100
2827.728	1.596	1595.5	generate	Run4	generate/STIM_010.jpg	99
2832.74	1.834	1834.4	generate	Run4	generate/STIM_010.jpg	99
2838.652	1.567	1566.9	generate	Run4	generate/STIM_010.jpg	99
2842.559	1.108	1108.2	generate	Run4	generate/STIM_011.jpg	100
2846.097	1.034	1033.9	generate	Run4	generate/STIM_011.jpg	100
2850.568	1.657	1656.7	generate	Run4	generate/STIM_011.jpg	99
2856.025	0.837	837.2	generate	Run4	generate/STIM_011.jpg	100
2859.167	1.856	1855.7	generate	Run4	generate/STIM_011.jpg	99
2863.648	1.242	1241.8	generate	Run4	generate/STIM_012.jpg	100
2868.356	1.099	1099.0	generate	Run4	generate/STIM_012.jpg	99
2871.746	0.899	898.9	generate	Run4	generate/STIM_012.jpg	99
2875.714	1.386	1385.7	generate	Run4	generate/STIM_012.jpg	100
2881.248	1.246	1245.7	generate	Run4	generate/STIM_012.jpg	99
2885.453	1.4	1400.2	generate	Run4	generate/STIM_013.jpg	100
2890.98	1.836	1836.5	generate	Run4	generate/STIM_013.jpg	99
2895.132	1.391	1390.7	generate	Run4	generate/STIM_013.jpg	99
2899.948	0.808	808.1	generate	Run4	generate/STIM_013.jpg	100
2903.561	1.449	1448.7	generate	Run4	generate/STIM_013.jpg	100
2908.313	1.846	1845.7	generate	Run4	generate/STIM_014.jpg	100
2913.996	1.549	1549.4	generate	Run4	generate/STIM_014.jpg	99
2919.657	1.334	1333.6	generate	Run4	generate/STIM_014.jpg	100
2924.567	1.35	1349.7	generate	Run4	generate/STIM_014.jpg	100
2930.007	0.98	979.5	generate	Run4	generate/STIM_014.jpg	99
2934.071	0.967	967.0	generate	Run4	generate/STIM_015.jpg	99
2937.921	1.047	1047.2	generate	Run4	generate/STIM_015.jpg	100
2942.773	0.881	881.0	generate	Run4	generate/STIM_015.jpg	100
2946.369	1.026	1026.2	generate	Run4	generate/STIM_015.jpg	100
2950.926	0.972	972.5	generate	Run4	generate/STIM_015.jpg	99
2955.227	1.059	1059.1	generate	Run4	generate/STIM_016.jpg	99
2959.846	0.813	813.3	generate	Run4	generate/STIM_016.jpg	99
2964.505	1.23	1230.4	generate	Run4	generate/STIM_016.jpg	99
2967.944	1.734	1733.8	generate	Run4	generate/STIM_016.jpg	100
2973.706	1.648	1647.6	generate	Run4	generate/STIM_016.jpg	99
2977.576	0.814	814.3	generate	Run4	generate/STIM_017.jpg	100
2981.833	1.414	1414.5	generate	Run4	generate/STIM_017.jpg	100
2986.572	1.143	1143.1	generate	Run4	generate/STIM_017.jpg	100
2990.825	1.643	1642.7	generate	Run4	generate/STIM_017.jpg	99
2995.606	1.136	1136.1	generate	Run4	generate/STIM_017.jpg	100
3000.342	1.374	1374.2	generate	Run4	generate/STIM_018.jpg	100
3005.47	1.29	1289.5	generate	Run4	generate/STIM_018.jpg	99
3010.154	1.654	1653.6	generate	Run4	generate/STIM_018.jpg	100
3014.805	1.754	1754.2	generate	Run4	generate/STIM_018.jpg	99
3020.472	1.408	1407.6	generate	Run4	generate/STIM_018.jpg	99
3025.785	1.353	1353.4	generate	Run4	generate/STIM_019.jpg	99
3029.472	0.818	817.6	generate	Run4	generate/STIM_019.jpg	99
3033.376	1.755	1755.2	generate	Run4	generate/STIM_019.jpg	100
3038.104	0.882	881.5	generate	Run4	generate/STIM_019.jpg	100
3042.984	1.158	1157.9	generate	Run4	generate/STIM_019.jpg	100
3047.117	1.459	1459.2	generate	Run4	generate/STIM_020.jpg	100
3052.405	1.857	1857.0	generate	Run4	generate/STIM_020.jpg	100
3057.163	1.873	1873.3	generate	Run4	generate/STIM_020.jpg	99
3062.56	1.826	1825.9	generate	Run4	generate/STIM_020.jpg	99
3068.158	1.751	1751.2	generate	Run4	generate/STIM_020.jpg	99
3072.884	1.661	1660.6	generate	Run4	generate/STIM_021.jpg	100
3078.542	1.548	1548.1	generate	Run4	generate/STIM_021.jpg	99
3082.34	1.538	1537.8	generate	Run4	generate/STIM_021.jpg	99
3086.615	1.267	1266.6	generate	Run4	generate/STIM_021.jpg	100
3090.769	0.793	792.7	generate	Run4	generate/STIM_021.jpg	99
3094.328	1.735	1734.8	generate	Run4	generate/STIM_022.jpg	100
3099.058	1.528	1528.2	generate	Run4	generate/STIM_022.jpg	99
3104.147	1.642	1641.9	generate	Run4	generate/STIM_022.jpg	99
3108.779	1.809	1809.1	generate	Run4	generate/STIM_022.jpg	100
3113.706	1.79	1790.1	generate	Run4	generate/STIM_022.jpg	100
3118.668	1.402	1401.6	generate	Run4	generate/STIM_023.jpg	99
3122.91	1.376	1376.1	generate	Run4	generate/STIM_023.jpg	99
3128.416	1.09	1090.1	generate	Run4	generate/STIM_023.jpg	99
3132.304	1.613	1613.3	generate	Run4	generate/STIM_023.jpg	100
3138.074	1.093	1093.2	generate	Run4	generate/STIM_023.jpg	99
3142.094	1.239	1239.3	generate	Run4	generate/STIM_024.jpg	100
3146.473	1.362	1362.5	generate	Run4	generate/STIM_024.jpg	100
3151.621	1.679	1678.7	generate	Run4	generate/STIM_024.jpg	99
3156.488	1.815	1815.3	generate	Run4	generate/STIM_024.jpg	100
3162.002	1.183	1183.0	generate	Run4	generate/STIM_024.jpg	100
3165.816	0.719	719.1	repeat	Run4	repeat/STIM_000.jpg	99
3169.422	0.479	479.4	repeat	Run4	repeat/STIM_000.jpg	99
3172.396	0.646	646.3	repeat	Run4	repeat/STIM_000.jpg	100
3176.646	0.566	565.5	repeat	Run4	repeat/STIM_000.jpg	100
3179.353	0.73	729.8	repeat	Run4	repeat/STIM_000.jpg	99
3182.478	0.616	616.2	repeat	Run4	repeat/STIM_001.jpg	100
3186.058	0.473	472.6	repeat	Run4	repeat/STIM_001.jpg	100
3188.88	0.488	487.8	repeat	Run4	repeat/STIM_001.jpg	99
3192.783	0.677	676.6	repeat	Run4	repeat/STIM_001.jpg	99
3197.023	0.719	718.9	repeat	Run4	repeat/STIM_001.jpg	99
3201.711	0.883	883.1	repeat	Run4	repeat/STIM_002.jpg	99
3204.778	0.865	864.8	repeat	Run4	repeat/STIM_002.jpg	99
3209.618	0.622	621.7	repeat	Run4	repeat/STIM_002.jpg	100
3213.706	0.836	835.7	repeat	Run4	repeat/STIM_002.jpg	99
3218.568	0.839	839.2	repeat	Run4	repeat/STIM_002.jpg	99
3222.385	0.604	603.8	repeat	Run4	repeat/STIM_003.jpg	99
3225.475	0.846	846.5	repeat	Run4	repeat/STIM_003.jpg	100
3228.457	0.534	534.3	repeat	Run4	repeat/STIM_003.jpg	100
3231.888	0.754	754.5	repeat	Run4	repeat/STIM_003.jpg	100
3235.451	0.78	779.8	repeat	Run4	repeat/STIM_003.jpg	99
3240.148	0.855	855.2	repeat	Run4	repeat/STIM_004.jpg	99
3243.885	0.714	714.3	repeat	Run4	repeat/STIM_004.jpg	99
3248.509	0.47	470.2	repeat	Run4	repeat/STIM_004.jpg	100
3252.69	0.823	822.6	repeat	Run4	repeat/STIM_004.jpg	100
3257.366	0.779	778.9	repeat	Run4	repeat/STIM_004.jpg	99
3262.193	0.587	587.0	repeat	Run4	repeat/STIM_005.jpg	99
3265.388	0.845	845.3	repeat	Run4	repeat/STIM_005.jpg	100
3268.568	0.477	477.0	repeat	Run4	repeat/STIM_005.jpg	100
3272.798	0.517	516.7	repeat	Run4	repeat/STIM_005.jpg	100
3275.8	0.822	822.5	repeat	Run4	repeat/STIM_005.jpg	99
3279.271	0.584	583.6	repeat	Run4	repeat/STIM_006.jpg	99
3282.281	0.746	745.9	repeat	Run4	repeat/STIM_006.jpg	100
3285.638	0.834	834.5	repeat	Run4	repeat/STIM_006.jpg	99
3289.496	0.785	784.7	repeat	Run4	repeat/STIM_006.jpg	99
3293.553	0.67	669.6	repeat	Run4	repeat/STIM_006.jpg	100
3296.906	0.522	522.1	repeat	Run4	repeat/STIM_007.jpg	99
3299.567	0.843	843.4	repeat	Run4	repeat/STIM_007.jpg	99
3302.532	0.892	891.9	repeat	Run4	repeat/STIM_007.jpg	100
3306.817	0.787	786.9	repeat	Run4	repeat/STIM_007.jpg	99
3310.94	0.852	851.5	repeat	Run4	repeat/STIM_007.jpg	100
3314.413	0.878	878.0	repeat	Run4	repeat/STIM_008.jpg	100
3318.316	0.509	508.6	repeat	Run4	repeat/STIM_008.jpg	100
3321.542	0.597	596.9	repeat	Run4	repeat/STIM_008.jpg	100
3325.421	0.509	509.0	repeat	Run4	repeat/STIM_008.jpg	99
3328.524	0.782	781.7	repeat	Run4	repeat/STIM_008.jpg	99
3331.716	0.824	824.5	repeat	Run4	repeat/STIM_009.jpg	100
3335.532	0.75	750.4	repeat	Run4	repeat/STIM_009.jpg	99
3339.954	0.652	651.5	repeat	Run4	repeat/STIM_009.jpg	100
3343.256	0.46	459.7	repeat	Run4	repeat/STIM_009.jpg	100
3347.226	0.529	529.4	repeat	Run4	repeat/STIM_009.jpg	99
3351.252	0.61	609.6	repeat	Run4	repeat/STIM_010.jpg	99
3354.009	0.558	558.4	repeat	Run4	repeat/STIM_010.jpg	99
3357.017	0.58	579.8	repeat	Run4	repeat/STIM_010.jpg	99
3360.484	0.635	635.4	repeat	Run4	repeat/STIM_010.jpg	100
3363.97	0.767	767.3	repeat	Run4	repeat/STIM_010.jpg	100
3368.64	0.893	893.0	repeat	Run4	repeat/STIM_011.jpg	100
3373.556	0.718	717.7	repeat	Run4	repeat/STIM_011.jpg	99
3377.393	0.64	639.6	repeat	Run4	repeat/STIM_011.jpg	99
3381.67	0.48	479.9	repeat	Run4	repeat/STIM_011.jpg	100
3385.619	0.769	769.3	repeat	Run4	repeat/STIM_011.jpg	99
3388.627	0.759	758.9	repeat	Run4	repeat/STIM_012.jpg	99
3392.335	0.572	571.7	repeat	Run4	repeat/STIM_012.jpg	100
3395.941	0.512	511.7	repeat	Run4	repeat/STIM_012.jpg	99
3400.004	0.627	627.4	repeat	Run4	repeat/STIM_012.jpg	99
3403.893	0.787	787.3	repeat	Run4	repeat/STIM_012.jpg	100
3408.232	0.67	670.3	repeat	Run4	repeat/STIM_013.jpg	99
3411.438	0.545	544.8	repeat	Run4	repeat/STIM_013.jpg	99
3414.687	0.652	652.1	repeat	Run4	repeat/STIM_013.jpg	100
3419.189	0.655	655.2	repeat	Run4	repeat/STIM_013.jpg	99
3423.674	0.493	493.4	repeat	Run4	repeat/STIM_013.jpg	99
3426.601	0.588	587.9	repeat	Run4	repeat/STIM_014.jpg	100
3429.978	0.777	777.1	repeat	Run4	repeat/STIM_014.jpg	99
3434.483	0.9	899.6	repeat	Run4	repeat/STIM_014.jpg	99
3438.307	0.481	480.7	repeat	Run4	repeat/STIM_014.jpg	99
3441.224	0.629	629.1	repeat	Run4	repeat/STIM_014.jpg	99
