onset	duration	response_time_ms	trial_type	learning_stage	stimulus	response_port
0.0	2.122	2121.6	generate	Run1	generate/STIM_000.jpg	100
5.274	2.116	2116.5	generate	Run1	generate/STIM_000.jpg	100
9.791	2.589	2589.3	generate	Run1	generate/STIM_000.jpg	100
14.783	1.693	1693.2	generate	Run1	generate/STIM_000.jpg	99
19.734	1.285	1285.3	generate	Run1	generate/STIM_000.jpg	99
24.631	2.787	2787.0	generate	Run1	generate/STIM_001.jpg	99
30.637	1.632	1631.6	generate	Run1	generate/STIM_001.jpg	99
35.53	1.889	1889.1	generate	Run1	generate/STIM_001.jpg	99
39.918	2.165	2164.6	generate	Run1	generate/STIM_001.jpg	100
45.252	1.524	1523.8	generate	Run1	generate/STIM_001.jpg	100
49.526	1.65	1650.0	generate	Run1	generate/STIM_002.jpg	99
54.148	2.396	2395.5	generate	Run1	generate/STIM_002.jpg	100
60.462	2.324	2323.7	generate	Run1	generate/STIM_002.jpg	99
65.997	2.351	2350.6	generate	Run1	generate/STIM_002.jpg	100
70.759	1.999	1998.8	generate	Run1	generate/STIM_002.jpg	100
76.627	2.39	2390.0	generate	Run1	generate/STIM_003.jpg	100
81.736	1.577	1577.1	generate	Run1	generate/STIM_003.jpg	100
86.303	2.266	2266.3	generate	Run1	generate/STIM_003.jpg	100
92.077	1.983	1983.0	generate	Run1	generate/STIM_003.jpg	100
96.319	1.588	1587.5	generate	Run1	generate/STIM_003.jpg	100
100.984	1.729	1729.0	generate	Run1	generate/STIM_004.jpg	100
104.867	2.354	2354.0	generate	Run1	generate/STIM_004.jpg	99
109.62	2.443	2443.3	generate	Run1	generate/STIM_004.jpg	99
116.019	1.845	1844.7	generate	Run1	generate/STIM_004.jpg	99
120.864	2.621	2620.6	generate	Run1	generate/STIM_004.jpg	100
126.291	3.404	3404.2	generate	Run1	generate/STIM_005.jpg	100
132.784	1.43	1430.1	generate	Run1	generate/STIM_005.jpg	100
137.486	2.988	2988.3	generate	Run1	generate/STIM_005.jpg	100
143.124	1.418	1417.7	generate	Run1	generate/STIM_005.jpg	100
148.169	1.715	1714.9	generate	Run1	generate/STIM_005.jpg	100
153.525	2.774	2774.4	generate	Run1	generate/STIM_006.jpg	100
158.916	2.246	2245.8	generate	Run1	generate/STIM_006.jpg	100
164.504	2.79	2790.4	generate	Run1	generate/STIM_006.jpg	100
170.575	1.884	1884.0	generate	Run1	generate/STIM_006.jpg	99
175.062	1.121	1121.2	generate	Run1	generate/STIM_006.jpg	99
180.151	2.947	2946.9	generate	Run1	generate/STIM_007.jpg	99
186.995	3.099	3099.0	generate	Run1	generate/STIM_007.jpg	100
192.833	1.713	1712.6	generate	Run1	generate/STIM_007.jpg	99
197.44	2.056	2056.0	generate	Run1	generate/STIM_007.jpg	99
201.885	2.668	2667.7	generate	Run1	generate/STIM_007.jpg	99
207.002	1.642	1642.5	generate	Run1	generate/STIM_008.jpg	99
212.057	2.132	2131.5	generate	Run1	generate/STIM_008.jpg	99
217.967	1.347	1346.9	generate	Run1	generate/STIM_008.jpg	99
222.384	2.582	2581.9	generate	Run1	generate/STIM_008.jpg	99
227.1	1.894	1893.8	generate	Run1	generate/STIM_008.jpg	99
231.294	3.37	3369.5	generate	Run1	generate/STIM_009.jpg	99
237.412	3.138	3138.4	generate	Run1	generate/STIM_009.jpg	99
242.759	1.838	1838.3	generate	Run1	generate/STIM_009.jpg	100
248.123	1.451	1450.6	generate	Run1	generate/STIM_009.jpg	100
253.565	1.451	1450.9	generate	Run1	generate/STIM_009.jpg	100
257.402	2.158	2157.8	generate	Run1	generate/STIM_010.jpg	99
262.981	3.266	3265.7	generate	Run1	generate/STIM_010.jpg	99
268.681	2.139	2138.8	generate	Run1	generate/STIM_010.jpg	99
273.133	1.823	1822.8	generate	Run1	generate/STIM_010.jpg	100
278.034	1.919	1919.4	generate	Run1	generate/STIM_010.jpg	100
282.548	2.466	2466.1	generate	Run1	generate/STIM_011.jpg	99
287.665	1.972	1971.5	generate	Run1	generate/STIM_011.jpg	100
293.416	2.492	2492.4	generate	Run1	generate/STIM_011.jpg	100
298.559	2.454	2453.6	generate	Run1	generate/STIM_011.jpg	100
303.982	2.697	2696.8	generate	Run1	generate/STIM_011.jpg	100
310.266	3.119	3119.4	generate	Run1	generate/STIM_012.jpg	100
316.703	2.188	2188.5	generate	Run1	generate/STIM_012.jpg	100
321.231	1.34	1339.5	generate	Run1	generate/STIM_012.jpg	99
325.279	1.69	1690.2	generate	Run1	generate/STIM_012.jpg	100
329.976	1.659	1659.1	generate	Run1	generate/STIM_012.jpg	100
333.989	2.232	2232.3	generate	Run1	generate/STIM_013.jpg	99
339.773	1.625	1625.1	generate	Run1	generate/STIM_013.jpg	99
344.738	2.192	2191.8	generate	Run1	generate/STIM_013.jpg	100
350.164	2.47	2469.5	generate	Run1	generate/STIM_013.jpg	99
355.667	2.053	2052.7	generate	Run1	generate/STIM_013.jpg	99
360.605	1.698	1697.8	generate	Run1	generate/STIM_014.jpg	100
365.665	1.658	1657.6	generate	Run1	generate/STIM_014.jpg	99
370.619	1.945	1945.3	generate	Run1	generate/STIM_014.jpg	100
374.902	2.327	2326.8	generate	Run1	generate/STIM_014.jpg	99
380.872	1.59	1589.8	generate	Run1	generate/STIM_014.jpg	99
384.825	2.617	2616.8	generate	Run1	generate/STIM_015.jpg	100
390.868	1.926	1925.5	generate	Run1	generate/STIM_015.jpg	99
395.983	2.83	2829.7	generate	Run1	generate/STIM_015.jpg	100
400.833	2.689	2689.2	generate	Run1	generate/STIM_015.jpg	99
405.799	2.555	2554.9	generate	Run1	generate/STIM_015.jpg	100
412.032	3.387	3386.9	generate	Run1	generate/STIM_016.jpg	100
417.925	3.225	3224.8	generate	Run1	generate/STIM_016.jpg	100
423.527	2.164	2164.1	generate	Run1	generate/STIM_016.jpg	99
429.454	1.358	1357.6	generate	Run1	generate/STIM_016.jpg	99
433.362	1.442	1442.0	generate	Run1	generate/STIM_016.jpg	100
436.827	3.19	3189.9	generate	Run1	generate/STIM_017.jpg	99
443.298	2.194	2194.0	generate	Run1	generate/STIM_017.jpg	100
448.622	1.385	1385.1	generate	Run1	generate/STIM_017.jpg	100
453.458	2.267	2267.1	generate	Run1	generate/STIM_017.jpg	100
457.943	1.481	1480.8	generate	Run1	generate/STIM_017.jpg	99
462.779	1.683	1683.2	generate	Run1	generate/STIM_018.jpg	100
467.1	2.902	2901.9	generate	Run1	generate/STIM_018.jpg	99
473.558	1.513	1512.8	generate	Run1	generate/STIM_018.jpg	100
477.6	1.365	1365.2	generate	Run1	generate/STIM_018.jpg	100
481.085	1.76	1760.2	generate	Run1	generate/STIM_018.jpg	99
485.696	2.787	2786.8	generate	Run1	generate/STIM_019.jpg	99
491.459	2.831	2830.6	generate	Run1	generate/STIM_019.jpg	100
497.52	2.608	2608.5	generate	Run1	generate/STIM_019.jpg	99
503.998	2.138	2138.0	generate	Run1	generate/STIM_019.jpg	100
508.169	2.21	2210.4	generate	Run1	generate/STIM_019.jpg	99
513.287	1.499	1499.4	generate	Run1	generate/STIM_020.jpg	99
518.704	1.489	1489.4	generate	Run1	generate/STIM_020.jpg	99
523.807	2.476	2475.6	generate	Run1	generate/STIM_020.jpg	99
528.72	2.294	2293.7	generate	Run1	generate/STIM_020.jpg	100
534.256	1.626	1626.3	generate	Run1	generate/STIM_020.jpg	99
538.062	1.746	1746.5	generate	Run1	generate/STIM_021.jpg	99
543.339	1.484	1483.6	generate	Run1	generate/STIM_021.jpg	100
548.185	1.748	1747.9	generate	Run1	generate/STIM_021.jpg	100
553.872	2.1	2099.8	generate	Run1	generate/STIM_021.jpg	100
558.254	1.37	1370.1	generate	Run1	generate/STIM_021.jpg	99
563.025	2.642	2642.0	generate	Run1	generate/STIM_022.jpg	100
568.403	2.649	2649.1	generate	Run1	generate/STIM_022.jpg	99
574.418	2.19	2189.9	generate	Run1	generate/STIM_022.jpg	99
579.184	1.27	1269.9	generate	Run1	generate/STIM_022.jpg	99
583.122	2.339	2339.4	generate	Run1	generate/STIM_022.jpg	100
587.746	2.681	2680.6	generate	Run1	generate/STIM_023.jpg	99
594.002	1.944	1943.6	generate	Run1	generate/STIM_023.jpg	99
599.322	2.062	2061.6	generate	Run1	generate/STIM_023.jpg	100
603.957	2.716	2715.8	generate	Run1	generate/STIM_023.jpg	99
609.321	1.26	1259.8	generate	Run1	generate/STIM_023.jpg	99
613.527	2.118	2118.0	generate	Run1	generate/STIM_024.jpg	99
618.417	2.047	2047.2	generate	Run1	generate/STIM_024.jpg	100
622.519	2.208	2208.1	generate	Run1	generate/STIM_024.jpg	99
627.344	2.051	2050.8	generate	Run1	generate/STIM_024.jpg	99
632.639	2.032	2032.3	generate	Run1	generate/STIM_024.jpg	100
637.467	0.979	978.7	repeat	Run1	repeat/STIM_000.jpg	99
641.228	0.772	771.8	repeat	Run1	repeat/STIM_000.jpg	99
645.631	0.714	713.7	repeat	Run1	repeat/STIM_000.jpg	100
648.482	1.131	1130.6	repeat	Run1	repeat/STIM_000.jpg	99
652.428	0.609	609.3	repeat	Run1	repeat/STIM_000.jpg	100
656.112	0.603	602.7	repeat	Run1	repeat/STIM_001.jpg	99
659.673	0.829	828.8	repeat	Run1	repeat/STIM_001.jpg	99
663.602	0.941	940.7	repeat	Run1	repeat/STIM_001.jpg	100
666.958	0.806	806.4	repeat	Run1	repeat/STIM_001.jpg	99
670.265	0.578	577.9	repeat	Run1	repeat/STIM_001.jpg	100
673.411	1.017	1016.8	repeat	Run1	repeat/STIM_002.jpg	99
677.714	0.742	741.9	repeat	Run1	repeat/STIM_002.jpg	100
680.9	1.114	1114.5	repeat	Run1	repeat/STIM_002.jpg	100
685.028	1.053	1052.9	repeat	Run1	repeat/STIM_002.jpg	100
689.429	1.024	1023.8	repeat	Run1	repeat/STIM_002.jpg	99
694.283	0.749	748.6	repeat	Run1	repeat/STIM_003.jpg	100
697.919	0.963	963.4	repeat	Run1	repeat/STIM_003.jpg	100
702.478	0.976	976.5	repeat	Run1	repeat/STIM_003.jpg	100
706.827	0.981	981.0	repeat	Run1	repeat/STIM_003.jpg	99
711.149	0.725	724.9	repeat	Run1	repeat/STIM_003.jpg	99
713.93	0.783	783.3	repeat	Run1	repeat/STIM_004.jpg	99
717.929	1.107	1107.4	repeat	Run1	repeat/STIM_004.jpg	99
721.637	0.597	596.8	repeat	Run1	repeat/STIM_004.jpg	100
724.3	1.039	1038.9	repeat	Run1	repeat/STIM_004.jpg	99
727.574	0.6	600.2	repeat	Run1	repeat/STIM_004.jpg	100
731.991	0.804	804.1	repeat	Run1	repeat/STIM_005.jpg	100
736.484	0.635	634.9	repeat	Run1	repeat/STIM_005.jpg	100
739.558	1.133	1133.1	repeat	Run1	repeat/STIM_005.jpg	100
743.279	0.792	791.9	repeat	Run1	repeat/STIM_005.jpg	99
747.576	1.029	1029.2	repeat	Run1	repeat/STIM_005.jpg	100
752.382	1.123	1122.7	repeat	Run1	repeat/STIM_006.jpg	99
755.822	0.786	786.4	repeat	Run1	repeat/STIM_006.jpg	100
759.857	1.036	1035.7	repeat	Run1	repeat/STIM_006.jpg	100
763.767	0.851	850.7	repeat	Run1	repeat/STIM_006.jpg	99
768.444	0.881	880.6	repeat	Run1	repeat/STIM_006.jpg	100
773.09	0.584	584.2	repeat	Run1	repeat/STIM_007.jpg	99
776.588	0.894	893.6	repeat	Run1	repeat/STIM_007.jpg	100
780.038	0.836	836.2	repeat	Run1	repeat/STIM_007.jpg	99
784.699	1.136	1135.8	repeat	Run1	repeat/STIM_007.jpg	99
788.434	0.702	702.2	repeat	Run1	repeat/STIM_007.jpg	100
792.395	1.092	1091.5	repeat	Run1	repeat/STIM_008.jpg	99
797.256	0.654	653.5	repeat	Run1	repeat/STIM_008.jpg	99
801.657	0.671	670.6	repeat	Run1	repeat/STIM_008.jpg	100
806.259	0.912	911.8	repeat	Run1	repeat/STIM_008.jpg	100
810.301	0.858	857.9	repeat	Run1	repeat/STIM_008.jpg	99
813.752	0.922	922.2	repeat	Run1	repeat/STIM_009.jpg	100
817.334	0.852	851.9	repeat	Run1	repeat/STIM_009.jpg	99
821.262	1.118	1118.4	repeat	Run1	repeat/STIM_009.jpg	99
825.615	0.926	926.3	repeat	Run1	repeat/STIM_009.jpg	100
829.774	0.98	980.3	repeat	Run1	repeat/STIM_009.jpg	99
834.733	0.889	888.8	repeat	Run1	repeat/STIM_010.jpg	99
837.838	0.811	810.6	repeat	Run1	repeat/STIM_010.jpg	100
842.218	0.655	654.8	repeat	Run1	repeat/STIM_010.jpg	99
845.829	1.026	1026.1	repeat	Run1	repeat/STIM_010.jpg	99
848.917	0.8	800.2	repeat	Run1	repeat/STIM_010.jpg	99
851.841	0.982	982.0	repeat	Run1	repeat/STIM_011.jpg	100
856.102	1.029	1028.8	repeat	Run1	repeat/STIM_011.jpg	99
859.23	0.665	665.2	repeat	Run1	repeat/STIM_011.jpg	100
861.973	0.75	750.5	repeat	Run1	repeat/STIM_011.jpg	99
866.352	0.912	912.1	repeat	Run1	repeat/STIM_011.jpg	99
871.087	0.602	601.9	repeat	Run1	repeat/STIM_012.jpg	100
875.448	0.927	926.7	repeat	Run1	repeat/STIM_012.jpg	99
878.504	0.789	789.3	repeat	Run1	repeat/STIM_012.jpg	99
882.495	0.687	687.0	repeat	Run1	repeat/STIM_012.jpg	100
885.443	0.976	976.0	repeat	Run1	repeat/STIM_012.jpg	99
889.846	0.796	795.6	repeat	Run1	repeat/STIM_013.jpg	100
894.083	0.678	677.5	repeat	Run1	repeat/STIM_013.jpg	99
896.766	0.882	882.1	repeat	Run1	repeat/STIM_013.jpg	100
901.458	0.649	649.3	repeat	Run1	repeat/STIM_013.jpg	99
905.038	0.728	727.9	repeat	Run1	repeat/STIM_013.jpg	99
909.049	1.058	1058.1	repeat	Run1	repeat/STIM_014.jpg	99
912.971	0.886	885.7	repeat	Run1	repeat/STIM_014.jpg	99
917.155	0.925	925.0	repeat	Run1	repeat/STIM_014.jpg	99
920.337	1.031	1030.7	repeat	Run1	repeat/STIM_014.jpg	99
924.437	1.142	1142.5	repeat	Run1	repeat/STIM_014.jpg	99
928.294	2.134	2133.7	generate	Run2	generate/STIM_000.jpg	100
933.926	1.789	1788.7	generate	Run2	generate/STIM_000.jpg	99
938.855	1.058	1057.8	generate	Run2	generate/STIM_000.jpg	100
943.323	1.867	1867.2	generate	Run2	generate/STIM_000.jpg	99
947.515	2.14	2139.6	generate	Run2	generate/STIM_000.jpg	100
952.014	2.612	2612.3	generate	Run2	generate/STIM_001.jpg	99
958.163	2.244	2244.0	generate	Run2	generate/STIM_001.jpg	100
963.65	2.563	2562.9	generate	Run2	generate/STIM_001.jpg	99
968.311	1.892	1892.5	generate	Run2	generate/STIM_001.jpg	100
973.814	1.968	1967.5	generate	Run2	generate/STIM_001.jpg	99
978.246	1.311	1311.2	generate	Run2	generate/STIM_002.jpg	100
982.215	1.891	1890.7	generate	Run2	generate/STIM_002.jpg	100
987.05	2.024	2023.8	generate	Run2	generate/STIM_002.jpg	99
991.723	1.598	1598.4	generate	Run2	generate/STIM_002.jpg	99
995.409	2.202	2202.1	generate	Run2	generate/STIM_002.jpg	99
1001.484	1.698	1697.6	generate	Run2	generate/STIM_003.jpg	100
1005.998	1.826	1826.5	generate	Run2	generate/STIM_003.jpg	99
1010.092	1.18	1179.5	generate	Run2	generate/STIM_003.jpg	100
1015.117	2.026	2025.7	generate	Run2	generate/STIM_003.jpg	99
1020.117	1.306	1306.4	generate	Run2	generate/STIM_003.jpg	99
1024.376	1.644	1644.4	generate	Run2	generate/STIM_004.jpg	99
1029.595	1.644	1644.2	generate	Run2	generate/STIM_004.jpg	99
1033.27	2.477	2476.9	generate	Run2	generate/STIM_004.jpg	99
1038.775	1.799	1799.0	generate	Run2	generate/STIM_004.jpg	99
1044.458	2.074	2073.5	generate	Run2	generate/STIM_004.jpg	100
1049.447	2.553	2553.0	generate	Run2	generate/STIM_005.jpg	100
1055.873	1.618	1617.5	generate	Run2	generate/STIM_005.jpg	99
1059.777	2.158	2158.1	generate	Run2	generate/STIM_005.jpg	99
1065.398	1.246	1246.3	generate	Run2	generate/STIM_005.jpg	99
1069.357	2.117	2117.1	generate	Run2	generate/STIM_005.jpg	100
1073.725	1.215	1215.0	generate	Run2	generate/STIM_006.jpg	100
1077.459	1.621	1620.7	generate	Run2	generate/STIM_006.jpg	100
1082.158	1.684	1683.5	generate	Run2	generate/STIM_006.jpg	100
1087.81	1.498	1498.0	generate	Run2	generate/STIM_006.jpg	100
1091.676	1.024	1023.5	generate	Run2	generate/STIM_006.jpg	99
1095.336	1.944	1943.9	generate	Run2	generate/STIM_007.jpg	100
1100.036	1.482	1482.0	generate	Run2	generate/STIM_007.jpg	99
1104.957	2.087	2086.6	generate	Run2	generate/STIM_007.jpg	100
1109.887	2.097	2096.8	generate	Run2	generate/STIM_007.jpg	100
1115.444	2.112	2111.9	generate	Run2	generate/STIM_007.jpg	100
1120.056	2.101	2101.1	generate	Run2	generate/STIM_008.jpg	100
1126.123	1.235	1234.9	generate	Run2	generate/STIM_008.jpg	100
1129.964	1.956	1955.8	generate	Run2	generate/STIM_008.jpg	99
1134.027	2.091	2090.8	generate	Run2	generate/STIM_008.jpg	100
1139.424	2.324	2323.6	generate	Run2	generate/STIM_008.jpg	100
1144.78	1.911	1911.0	generate	Run2	generate/STIM_009.jpg	99
1149.177	1.143	1142.6	generate	Run2	generate/STIM_009.jpg	100
1153.518	2.147	2146.7	generate	Run2	generate/STIM_009.jpg	99
1159.125	1.16	1160.4	generate	Run2	generate/STIM_009.jpg	99
1163.777	2.008	2008.2	generate	Run2	generate/STIM_009.jpg	99
1168.091	1.992	1991.7	generate	Run2	generate/STIM_010.jpg	99
1173.508	1.374	1374.0	generate	Run2	generate/STIM_010.jpg	100
1178.804	2.318	2318.3	generate	Run2	generate/STIM_010.jpg	100
1184.928	1.241	1241.3	generate	Run2	generate/STIM_010.jpg	100
1189.021	2.076	2075.7	generate	Run2	generate/STIM_010.jpg	100
1193.286	1.385	1384.7	generate	Run2	generate/STIM_011.jpg	100
1198.253	1.462	1461.5	generate	Run2	generate/STIM_011.jpg	100
1203.578	1.57	1569.5	generate	Run2	generate/STIM_011.jpg	100
1208.19	1.577	1576.9	generate	Run2	generate/STIM_011.jpg	100
1212.917	1.537	1537.0	generate	Run2	generate/STIM_011.jpg	99
1216.68	1.405	1405.2	generate	Run2	generate/STIM_012.jpg	99
1221.663	2.651	2651.0	generate	Run2	generate/STIM_012.jpg	100
1227.658	1.344	1343.5	generate	Run2	generate/STIM_012.jpg	100
1232.635	1.296	1295.8	generate	Run2	generate/STIM_012.jpg	99
1235.989	2.142	2141.8	generate	Run2	generate/STIM_012.jpg	99
1241.015	2.435	2434.6	generate	Run2	generate/STIM_013.jpg	99
1246.299	1.241	1241.1	generate	Run2	generate/STIM_013.jpg	99
1249.863	1.191	1190.8	generate	Run2	generate/STIM_013.jpg	99
1254.281	1.467	1466.8	generate	Run2	generate/STIM_013.jpg	99
1258.174	1.784	1783.6	generate	Run2	generate/STIM_013.jpg	99
1262.989	2.764	2763.8	generate	Run2	generate/STIM_014.jpg	99
1269.215	2.537	2536.9	generate	Run2	generate/STIM_014.jpg	100
1273.895	2.193	2192.6	generate	Run2	generate/STIM_014.jpg	99
1279.606	1.655	1654.6	generate	Run2	generate/STIM_014.jpg	99
1285.007	1.001	1001.2	generate	Run2	generate/STIM_014.jpg	99
1289.679	2.787	2787.1	generate	Run2	generate/STIM_015.jpg	99
1295.779	2.715	2714.6	generate	Run2	generate/STIM_015.jpg	100
1300.793	1.445	1445.2	generate	Run2	generate/STIM_015.jpg	100
1304.797	1.737	1737.0	generate	Run2	generate/STIM_015.jpg	100
1310.216	2.123	2123.1	generate	Run2	generate/STIM_015.jpg	100
1315.48	2.119	2118.8	generate	Run2	generate/STIM_016.jpg	100
1319.809	1.659	1659.4	generate	Run2	generate/STIM_016.jpg	100
1323.537	1.387	1387.0	generate	Run2	generate/STIM_016.jpg	100
1328.177	1.142	1142.5	generate	Run2	generate/STIM_016.jpg	99
1331.331	1.34	1339.9	generate	Run2	generate/STIM_016.jpg	99
1336.107	1.866	1865.8	generate	Run2	generate/STIM_017.jpg	100
1340.438	2.716	2715.5	generate	Run2	generate/STIM_017.jpg	100
1345.382	1.284	1284.3	generate	Run2	generate/STIM_017.jpg	99
1348.882	2.128	2128.2	generate	Run2	generate/STIM_017.jpg	99
1354.249	1.162	1161.8	generate	Run2	generate/STIM_017.jpg	100
1358.995	1.507	1507.2	generate	Run2	generate/STIM_018.jpg	100
1362.73	2.346	2346.4	generate	Run2	generate/STIM_018.jpg	99
1369.057	1.337	1337.4	generate	Run2	generate/STIM_018.jpg	100
1374.157	2.024	2024.3	generate	Run2	generate/STIM_018.jpg	100
1379.903	1.423	1422.8	generate	Run2	generate/STIM_018.jpg	100
1383.564	2.274	2274.4	generate	Run2	generate/STIM_019.jpg	100
1389.046	1.584	1583.5	generate	Run2	generate/STIM_019.jpg	99
1393.337	2.446	2446.2	generate	Run2	generate/STIM_019.jpg	100
1399.042	1.506	1506.5	generate	Run2	generate/STIM_019.jpg	100
1403.757	1.255	1255.3	generate	Run2	generate/STIM_019.jpg	99
1407.488	1.818	1817.9	generate	Run2	generate/STIM_020.jpg	99
1412.6	2.25	2250.5	generate	Run2	generate/STIM_020.jpg	100
1417.376	1.154	1154.4	generate	Run2	generate/STIM_020.jpg	99
1421.458	2.387	2386.8	generate	Run2	generate/STIM_020.jpg	100
1427.681	2.107	2107.4	generate	Run2	generate/STIM_020.jpg	99
1433.783	1.687	1687.3	generate	Run2	generate/STIM_021.jpg	100
1437.641	1.694	1694.5	generate	Run2	generate/STIM_021.jpg	99
1442.911	1.198	1198.1	generate	Run2	generate/STIM_021.jpg	99
1446.922	1.73	1730.0	generate	Run2	generate/STIM_021.jpg	100
1452.464	1.888	1888.5	generate	Run2	generate/STIM_021.jpg	99
1458.082	1.385	1384.6	generate	Run2	generate/STIM_022.jpg	99
1462.756	2.055	2055.3	generate	Run2	generate/STIM_022.jpg	100
1466.914	2.103	2103.4	generate	Run2	generate/STIM_022.jpg	99
1472.09	1.591	1591.3	generate	Run2	generate/STIM_022.jpg	99
1475.709	1.905	1904.7	generate	Run2	generate/STIM_022.jpg	99
1480.471	2.823	2822.8	generate	Run2	generate/STIM_023.jpg	100
1487.035	2.067	2067.1	generate	Run2	generate/STIM_023.jpg	99
1491.413	1.601	1601.4	generate	Run2	generate/STIM_023.jpg	100
1496.322	1.841	1840.9	generate	Run2	generate/STIM_023.jpg	100
1500.281	1.767	1767.2	generate	Run2	generate/STIM_023.jpg	100
1505.224	1.622	1622.5	generate	Run2	generate/STIM_024.jpg	99
1510.575	2.605	2605.1	generate	Run2	generate/STIM_024.jpg	100
1516.549	1.621	1621.0	generate	Run2	generate/STIM_024.jpg	100
1521.263	1.901	1901.0	generate	Run2	generate/STIM_024.jpg	99
1526.166	1.914	1913.6	generate	Run2	generate/STIM_024.jpg	100
1531.634	0.684	683.6	repeat	Run2	repeat/STIM_000.jpg	99
1535.268	0.91	910.2	repeat	Run2	repeat/STIM_000.jpg	100
1539.897	1.121	1121.3	repeat	Run2	repeat/STIM_000.jpg	99
1544.977	1.147	1146.6	repeat	Run2	repeat/STIM_000.jpg	100
1548.794	0.835	835.4	repeat	Run2	repeat/STIM_000.jpg	99
1552.044	0.888	887.8	repeat	Run2	repeat/STIM_001.jpg	99
1556.513	0.904	903.5	repeat	Run2	repeat/STIM_001.jpg	99
1560.463	0.799	799.2	repeat	Run2	repeat/STIM_001.jpg	100
1565.182	0.633	632.7	repeat	Run2	repeat/STIM_001.jpg	100
1569.568	0.662	661.8	repeat	Run2	repeat/STIM_001.jpg	99
1572.582	0.913	913.3	repeat	Run2	repeat/STIM_002.jpg	99
1577.374	0.978	977.8	repeat	Run2	repeat/STIM_002.jpg	99
1581.46	0.728	727.6	repeat	Run2	repeat/STIM_002.jpg	100
1585.877	0.942	942.5	repeat	Run2	repeat/STIM_002.jpg	100
1590.788	0.859	858.9	repeat	Run2	repeat/STIM_002.jpg	99
1593.81	1.029	1029.1	repeat	Run2	repeat/STIM_003.jpg	100
1598.606	0.856	856.0	repeat	Run2	repeat/STIM_003.jpg	99
1603.425	0.654	654.4	repeat	Run2	repeat/STIM_003.jpg	99
1607.015	0.966	966.0	repeat	Run2	repeat/STIM_003.jpg	100
1610.703	0.958	958.2	repeat	Run2	repeat/STIM_003.jpg	100
1614.384	0.871	871.3	repeat	Run2	repeat/STIM_004.jpg	99
1617.668	1.124	1123.9	repeat	Run2	repeat/STIM_004.jpg	99
1621.375	0.641	640.8	repeat	Run2	repeat/STIM_004.jpg	99
1625.018	0.778	778.2	repeat	Run2	repeat/STIM_004.jpg	99
1628.522	0.686	686.4	repeat	Run2	repeat/STIM_004.jpg	100
1632.67	0.774	773.5	repeat	Run2	repeat/STIM_005.jpg	100
1635.469	0.698	698.0	repeat	Run2	repeat/STIM_005.jpg	100
1640.027	0.756	755.9	repeat	Run2	repeat/STIM_005.jpg	99
1643.801	0.819	818.7	repeat	Run2	repeat/STIM_005.jpg	99
1647.575	0.627	626.9	repeat	Run2	repeat/STIM_005.jpg	99
1650.928	0.596	596.2	repeat	Run2	repeat/STIM_006.jpg	99
1653.895	0.577	576.8	repeat	Run2	repeat/STIM_006.jpg	99
1657.493	0.856	856.5	repeat	Run2	repeat/STIM_006.jpg	99
1660.541	1.144	1144.1	repeat	Run2	repeat/STIM_006.jpg	99
1664.742	0.895	895.1	repeat	Run2	repeat/STIM_006.jpg	100
1669.138	0.699	699.1	repeat	Run2	repeat/STIM_007.jpg	99
1673.325	1.094	1094.2	repeat	Run2	repeat/STIM_007.jpg	100
1676.698	0.948	948.0	repeat	Run2	repeat/STIM_007.jpg	100
1680.965	0.824	824.1	repeat	Run2	repeat/STIM_007.jpg	99
1685.494	0.776	776.0	repeat	Run2	repeat/STIM_007.jpg	99
1689.846	0.728	727.7	repeat	Run2	repeat/STIM_008.jpg	99
1693.592	0.75	749.6	repeat	Run2	repeat/STIM_008.jpg	100
1697.016	0.885	885.4	repeat	Run2	repeat/STIM_008.jpg	100
1700.845	0.945	944.7	repeat	Run2	repeat/STIM_008.jpg	100
1704.074	1.004	1004.0	repeat	Run2	repeat/STIM_008.jpg	99
1708.147	1.093	1092.6	repeat	Run2	repeat/STIM_009.jpg	99
1711.879	0.588	587.6	repeat	Run2	repeat/STIM_009.jpg	99
1716.131	0.582	581.7	repeat	Run2	repeat/STIM_009.jpg	100
1720.637	0.659	658.8	repeat	Run2	repeat/STIM_009.jpg	100
1723.831	0.735	734.6	repeat	Run2	repeat/STIM_009.jpg	99
1728.219	1.095	1095.3	repeat	Run2	repeat/STIM_010.jpg	100
1732.669	0.882	882.2	repeat	Run2	repeat/STIM_010.jpg	100
1736.723	0.868	868.1	repeat	Run2	repeat/STIM_010.jpg	99
1741.566	1.152	1151.5	repeat	Run2	repeat/STIM_010.jpg	100
1745.319	0.898	897.8	repeat	Run2	repeat/STIM_010.jpg	100
1748.228	1.127	1126.7	repeat	Run2	repeat/STIM_011.jpg	100
1752.578	0.833	832.6	repeat	Run2	repeat/STIM_011.jpg	99
1756.733	0.581	581.2	repeat	Run2	repeat/STIM_011.jpg	100
1759.909	0.971	970.9	repeat	Run2	repeat/STIM_011.jpg	100
1762.946	1.114	1114.2	repeat	Run2	repeat/STIM_011.jpg	100
1767.398	0.753	753.0	repeat	Run2	repeat/STIM_012.jpg	100
1770.774	0.604	603.9	repeat	Run2	repeat/STIM_012.jpg	99
1774.807	0.578	578.1	repeat	Run2	repeat/STIM_012.jpg	99
1777.842	0.872	872.0	repeat	Run2	repeat/STIM_012.jpg	100
1782.256	1.095	1095.3	repeat	Run2	repeat/STIM_012.jpg	99
1786.492	1.139	1139.4	repeat	Run2	repeat/STIM_013.jpg	100
1790.603	0.686	686.3	repeat	Run2	repeat/STIM_013.jpg	100
1793.965	0.88	880.5	repeat	Run2	repeat/STIM_013.jpg	100
1797.569	0.727	726.6	repeat	Run2	repeat/STIM_013.jpg	99
1801.16	1.125	1125.0	repeat	Run2	repeat/STIM_013.jpg	100
1804.612	0.739	739.1	repeat	Run2	repeat/STIM_014.jpg	100
1808.981	1.024	1023.6	repeat	Run2	repeat/STIM_014.jpg	99
1813.434	0.928	927.9	repeat	Run2	repeat/STIM_014.jpg	99
1817.099	0.81	810.5	repeat	Run2	repeat/STIM_014.jpg	100
1821.245	0.713	712.6	repeat	Run2	repeat/STIM_014.jpg	100
1825.009	1.597	1597.2	generate	Run3	generate/STIM_000.jpg	99
1828.991	1.813	1812.6	generate	Run3	generate/STIM_000.jpg	100
1834.554	1.957	1957.1	generate	Run3	generate/STIM_000.jpg	99
1838.934	2.108	2108.5	generate	Run3	generate/STIM_000.jpg	100
1844.232	1.047	1046.6	generate	Run3	generate/STIM_000.jpg	100
1847.971	1.575	1574.6	generate	Run3	generate/STIM_001.jpg	99
1852.389	2.151	2151.3	generate	Run3	generate/STIM_001.jpg	100
1857.293	2.184	2183.8	generate	Run3	generate/STIM_001.jpg	100
1862.788	1.707	1707.1	generate	Run3	generate/STIM_001.jpg	100
1867.793	1.126	1126.5	generate	Run3	generate/STIM_001.jpg	100
1872.094	2.13	2130.5	generate	Run3	generate/STIM_002.jpg	100
1877.651	1.398	1398.3	generate	Run3	generate/STIM_002.jpg	100
1882.995	1.977	1977.0	generate	Run3	generate/STIM_002.jpg	99
1888.896	1.01	1010.5	generate	Run3	generate/STIM_002.jpg	100
1893.212	2.133	2133.2	generate	Run3	generate/STIM_002.jpg	100
1898.35	1.803	1803.0	generate	Run3	generate/STIM_003.jpg	100
1902.926	1.084	1083.5	generate	Run3	generate/STIM_003.jpg	100
1906.983	2.33	2330.1	generate	Run3	generate/STIM_003.jpg	99
1912.674	1.691	1691.0	generate	Run3	generate/STIM_003.jpg	100
1917.409	2.398	2398.4	generate	Run3	generate/STIM_003.jpg	99
1922.785	2.2	2199.8	generate	Run3	generate/STIM_004.jpg	100
1927.416	1.778	1777.8	generate	Run3	generate/STIM_004.jpg	99
1932.637	1.998	1998.5	generate	Run3	generate/STIM_004.jpg	100
1938.392	1.45	1450.1	generate	Run3	generate/STIM_004.jpg	100
1943.588	1.448	1448.4	generate	Run3	generate/STIM_004.jpg	99
1948.661	1.62	1620.0	generate	Run3	generate/STIM_005.jpg	100
1953.564	2.024	2023.9	generate	Run3	generate/STIM_005.jpg	99
1959.433	1.402	1401.9	generate	Run3	generate/STIM_005.jpg	99
1964.614	1.543	1543.1	generate	Run3	generate/STIM_005.jpg	100
1970.143	1.86	1860.5	generate	Run3	generate/STIM_005.jpg	99
1974.347	1.596	1596.5	generate	Run3	generate/STIM_006.jpg	100
1978.212	1.372	1372.5	generate	Run3	generate/STIM_006.jpg	100
1982.513	1.258	1257.9	generate	Run3	generate/STIM_006.jpg	99
1987.753	1.425	1425.2	generate	Run3	generate/STIM_006.jpg	100
1993.063	1.896	1895.7	generate	Run3	generate/STIM_006.jpg	99
1997.318	1.667	1666.9	generate	Run3	generate/STIM_007.jpg	99
2002.954	1.053	1053.2	generate	Run3	generate/STIM_007.jpg	99
2007.885	1.561	1561.1	generate	Run3	generate/STIM_007.jpg	99
2012.824	1.641	1641.1	generate	Run3	generate/STIM_007.jpg	99
2017.275	1.297	1297.3	generate	Run3	generate/STIM_007.jpg	99
2022.118	2.383	2383.2	generate	Run3	generate/STIM_008.jpg	100
2028.401	1.192	1192.5	generate	Run3	generate/STIM_008.jpg	100
2031.936	2.012	2012.0	generate	Run3	generate/STIM_008.jpg	100
2037.237	2.122	2121.5	generate	Run3	generate/STIM_008.jpg	100
2041.407	1.4	1399.6	generate	Run3	generate/STIM_008.jpg	99
2045.965	1.257	1256.6	generate	Run3	generate/STIM_009.jpg	100
2049.631	2.372	2371.6	generate	Run3	generate/STIM_009.jpg	100
2055.296	1.414	1413.6	generate	Run3	generate/STIM_009.jpg	100
2059.518	2.228	2228.2	generate	Run3	generate/STIM_009.jpg	100
2065.475	1.046	1045.7	generate	Run3	generate/STIM_009.jpg	100
2069.375	1.22	1219.6	generate	Run3	generate/STIM_010.jpg	99
2074.164	1.193	1193.0	generate	Run3	generate/STIM_010.jpg	100
2077.551	1.461	1461.3	generate	Run3	generate/STIM_010.jpg	100
2082.433	1.293	1293.0	generate	Run3	generate/STIM_010.jpg	100
2085.895	2.085	2085.1	generate	Run3	generate/STIM_010.jpg	100
2090.893	1.999	1999.1	generate	Run3	generate/STIM_011.jpg	99
2096.696	1.255	1254.8	generate	Run3	generate/STIM_011.jpg	99
2101.685	1.517	1517.2	generate	Run3	generate/STIM_011.jpg	99
2106.628	1.357	1357.1	generate	Run3	generate/STIM_011.jpg	100
2111.36	1.526	1526.4	generate	Run3	generate/STIM_011.jpg	99
2115.433	0.987	987.1	generate	Run3	generate/STIM_012.jpg	100
2120.108	1.033	1032.8	generate	Run3	generate/STIM_012.jpg	100
2123.479	1.288	1288.1	generate	Run3	generate/STIM_012.jpg	100
2128.664	1.555	1554.9	generate	Run3	generate/STIM_012.jpg	100
2132.554	1.134	1134.3	generate	Run3	generate/STIM_012.jpg	99
2136.916	2.301	2301.1	generate	Run3	generate/STIM_013.jpg	100
2141.271	2.153	2153.1	generate	Run3	generate/STIM_013.jpg	99
2146.862	1.634	1633.5	generate	Run3	generate/STIM_013.jpg	99
2151.443	1.773	1773.1	generate	Run3	generate/STIM_013.jpg	100
2157.026	1.667	1667.1	generate	Run3	generate/STIM_013.jpg	99
2161.475	1.061	1060.6	generate	Run3	generate/STIM_014.jpg	99
2165.581	0.998	998.2	generate	Run3	generate/STIM_014.jpg	99
2169.648	2.121	2120.8	generate	Run3	generate/STIM_014.jpg	100
2175.598	1.676	1676.2	generate	Run3	generate/STIM_014.jpg	100
2180.628	2.262	2261.9	generate	Run3	generate/STIM_014.jpg	100
2186.49	1.137	1137.2	generate	Run3	generate/STIM_015.jpg	100
2190.806	1.611	1610.8	generate	Run3	generate/STIM_015.jpg	100
2194.622	2.009	2009.3	generate	Run3	generate/STIM_015.jpg	99
2199.237	1.27	1269.8	generate	Run3	generate/STIM_015.jpg	99
2202.839	1.904	1904.2	generate	Run3	generate/STIM_015.jpg	100
2208.705	1.939	1939.3	generate	Run3	generate/STIM_016.jpg	100
2212.672	2.186	2185.5	generate	Run3	generate/STIM_016.jpg	99
2217.075	2.302	2302.4	generate	Run3	generate/STIM_016.jpg	100
2221.784	1.617	1617.0	generate	Run3	generate/STIM_016.jpg	100
2227.106	1.676	1675.5	generate	Run3	generate/STIM_016.jpg	100
2231.351	1.88	1880.1	generate	Run3	generate/STIM_017.jpg	100
2235.585	2.142	2141.7	generate	Run3	generate/STIM_017.jpg	99
2239.991	1.674	1673.9	generate	Run3	generate/STIM_017.jpg	100
2244.475	2.043	2042.9	generate	Run3	generate/STIM_017.jpg	100
2250.435	1.018	1018.2	generate	Run3	generate/STIM_017.jpg	99
2254.292	2.286	2286.2	generate	Run3	generate/STIM_018.jpg	100
2259.829	0.986	985.6	generate	Run3	generate/STIM_018.jpg	99
2263.918	1.781	1780.7	generate	Run3	generate/STIM_018.jpg	100
2269.649	1.663	1662.9	generate	Run3	generate/STIM_018.jpg	99
2273.522	1.382	1382.4	generate	Run3	generate/STIM_018.jpg	99
2278.401	1.63	1630.0	generate	Run3	generate/STIM_019.jpg	99
2284.004	2.204	2203.8	generate	Run3	generate/STIM_019.jpg	100
2290.156	2.287	2286.7	generate	Run3	generate/STIM_019.jpg	99
2295.488	1.953	1953.0	generate	Run3	generate/STIM_019.jpg	99
2300.566	1.111	1110.7	generate	Run3	generate/STIM_019.jpg	99
2303.85	2.267	2266.7	generate	Run3	generate/STIM_020.jpg	99
2309.059	1.865	1865.2	generate	Run3	generate/STIM_020.jpg	100
2313.165	2.321	2321.4	generate	Run3	generate/STIM_020.jpg	100
2319.102	2.11	2110.0	generate	Run3	generate/STIM_020.jpg	100
2323.923	1.278	1278.2	generate	Run3	generate/STIM_020.jpg	100
2328.88	1.784	1784.3	generate	Run3	generate/STIM_021.jpg	100
2334.422	1.395	1395.0	generate	Run3	generate/STIM_021.jpg	99
2339.226	2.3	2299.7	generate	Run3	generate/STIM_021.jpg	100
2343.855	1.833	1833.0	generate	Run3	generate/STIM_021.jpg	100
2349.645	1.794	1794.1	generate	Run3	generate/STIM_021.jpg	99
2354.059	2.005	2004.7	generate	Run3	generate/STIM_022.jpg	99
2359.36	2.336	2336.1	generate	Run3	generate/STIM_022.jpg	99
2364.557	1.507	1506.7	generate	Run3	generate/STIM_022.jpg	99
2369.077	1.773	1773.0	generate	Run3	generate/STIM_022.jpg	100
2374.342	2.325	2325.4	generate	Run3	generate/STIM_022.jpg	100
2379.738	1.911	1911.0	generate	Run3	generate/STIM_023.jpg	99
2383.74	2.172	2172.3	generate	Run3	generate/STIM_023.jpg	100
2389.795	0.982	981.9	generate	Run3	generate/STIM_023.jpg	99
2393.733	1.642	1641.6	generate	Run3	generate/STIM_023.jpg	100
2399.359	1.16	1159.6	generate	Run3	generate/STIM_023.jpg	100
2404.297	1.455	1455.1	generate	Run3	generate/STIM_024.jpg	100
2408.67	2.167	2167.2	generate	Run3	generate/STIM_024.jpg	100
2412.89	1.458	1457.6	generate	Run3	generate/STIM_024.jpg	99
2417.306	1.358	1357.8	generate	Run3	generate/STIM_024.jpg	99
2422.456	1.843	1843.2	generate	Run3	generate/STIM_024.jpg	100
2427.017	0.89	890.1	repeat	Run3	repeat/STIM_000.jpg	99
2431.282	0.938	937.7	repeat	Run3	repeat/STIM_000.jpg	100
2434.561	0.945	945.1	repeat	Run3	repeat/STIM_000.jpg	100
2438.917	0.586	586.3	repeat	Run3	repeat/STIM_000.jpg	100
2441.861	0.899	898.6	repeat	Run3	repeat/STIM_000.jpg	100
2445.461	0.632	632.0	repeat	Run3	repeat/STIM_001.jpg	99
2449.103	0.668	667.5	repeat	Run3	repeat/STIM_001.jpg	99
2453.119	0.942	941.8	repeat	Run3	repeat/STIM_001.jpg	99
2457.135	0.628	628.2	repeat	Run3	repeat/STIM_001.jpg	100
2460.561	0.785	785.2	repeat	Run3	repeat/STIM_001.jpg	100
2464.436	0.921	921.4	repeat	Run3	repeat/STIM_002.jpg	99
2468.858	0.676	675.6	repeat	Run3	repeat/STIM_002.jpg	99
2473.232	0.805	804.7	repeat	Run3	repeat/STIM_002.jpg	100
2476.562	0.612	612.0	repeat	Run3	repeat/STIM_002.jpg	99
2479.918	1.035	1034.6	repeat	Run3	repeat/STIM_002.jpg	99
2483.286	0.98	980.5	repeat	Run3	repeat/STIM_003.jpg	100
2487.915	0.848	847.8	repeat	Run3	repeat/STIM_003.jpg	99
2491.214	0.936	935.6	repeat	Run3	repeat/STIM_003.jpg	100
2494.698	0.977	976.8	repeat	Run3	repeat/STIM_003.jpg	100
2499.234	0.658	658.0	repeat	Run3	repeat/STIM_003.jpg	100
2502.399	0.615	615.1	repeat	Run3	repeat/STIM_004.jpg	100
2506.973	0.739	738.9	repeat	Run3	repeat/STIM_004.jpg	100
2509.717	0.695	695.1	repeat	Run3	repeat/STIM_004.jpg	99
2514.021	0.735	735.0	repeat	Run3	repeat/STIM_004.jpg	100
2517.032	1.04	1039.9	repeat	Run3	repeat/STIM_004.jpg	99
2520.567	0.804	804.5	repeat	Run3	repeat/STIM_005.jpg	100
2523.74	0.954	954.4	repeat	Run3	repeat/STIM_005.jpg	100
2528.133	0.975	975.2	repeat	Run3	repeat/STIM_005.jpg	99
2531.873	1.006	1005.5	repeat	Run3	repeat/STIM_005.jpg	100
2536.867	0.974	974.0	repeat	Run3	repeat/STIM_005.jpg	100
2540.149	0.722	722.3	repeat	Run3	repeat/STIM_006.jpg	99
2543.905	1.072	1072.5	repeat	Run3	repeat/STIM_006.jpg	100
2547.372	0.611	611.0	repeat	Run3	repeat/STIM_006.jpg	100
2550.569	1.096	1095.9	repeat	Run3	repeat/STIM_006.jpg	100
2554.734	1.023	1022.7	repeat	Run3	repeat/STIM_006.jpg	99
2559.594	1.093	1092.9	repeat	Run3	repeat/STIM_007.jpg	100
2563.36	1.086	1086.0	repeat	Run3	repeat/STIM_007.jpg	100
2568.284	0.864	863.9	repeat	Run3	repeat/STIM_007.jpg	100
2572.83	1.07	1069.9	repeat	Run3	repeat/STIM_007.jpg	99
2577.867	0.716	716.2	repeat	Run3	repeat/STIM_007.jpg	99
2581.288	0.764	763.8	repeat	Run3	repeat/STIM_008.jpg	99
2585.587	0.657	657.1	repeat	Run3	repeat/STIM_008.jpg	100
2589.004	0.89	889.8	repeat	Run3	repeat/STIM_008.jpg	100
2593.145	0.586	585.7	repeat	Run3	repeat/STIM_008.jpg	100
2597.098	0.812	812.2	repeat	Run3	repeat/STIM_008.jpg	99
2600.036	0.699	699.3	repeat	Run3	repeat/STIM_009.jpg	99
2602.955	0.864	864.0	repeat	Run3	repeat/STIM_009.jpg	99
2606.617	0.829	828.7	repeat	Run3	repeat/STIM_009.jpg	100
2609.557	0.959	958.8	repeat	Run3	repeat/STIM_009.jpg	100
2612.793	1.024	1023.5	repeat	Run3	repeat/STIM_009.jpg	99
2616.089	0.843	842.9	repeat	Run3	repeat/STIM_010.jpg	99
2619.208	0.58	580.4	repeat	Run3	repeat/STIM_010.jpg	100
2622.734	0.685	685.3	repeat	Run3	repeat/STIM_010.jpg	99
2626.292	1.04	1039.8	repeat	Run3	repeat/STIM_010.jpg	100
2630.192	0.778	777.6	repeat	Run3	repeat/STIM_010.jpg	99
2633.827	0.794	794.1	repeat	Run3	repeat/STIM_011.jpg	99
2637.19	1.066	1065.9	repeat	Run3	repeat/STIM_011.jpg	99
2641.117	0.936	936.0	repeat	Run3	repeat/STIM_011.jpg	99
2645.817	0.652	652.0	repeat	Run3	repeat/STIM_011.jpg	100
2649.549	0.985	984.6	repeat	Run3	repeat/STIM_011.jpg	100
2654.503	0.848	848.0	repeat	Run3	repeat/STIM_012.jpg	99
2658.269	0.774	773.7	repeat	Run3	repeat/STIM_012.jpg	99
2662.988	0.709	709.3	repeat	Run3	repeat/STIM_012.jpg	100
2666.211	1.141	1141.4	repeat	Run3	repeat/STIM_012.jpg	99
2670.564	0.837	836.8	repeat	Run3	repeat/STIM_012.jpg	100
2673.595	0.838	837.7	repeat	Run3	repeat/STIM_013.jpg	100
2678.038	1.086	1085.7	repeat	Run3	repeat/STIM_013.jpg	99
2682.842	0.906	905.5	repeat	Run3	repeat/STIM_013.jpg	100
2687.223	0.609	609.1	repeat	Run3	repeat/STIM_013.jpg	99
2691.65	0.6	600.5	repeat	Run3	repeat/STIM_013.jpg	100
2695.146	1.118	1118.3	repeat	Run3	repeat/STIM_014.jpg	99
2699.633	0.759	758.9	repeat	Run3	repeat/STIM_014.jpg	100
2702.744	0.888	888.0	repeat	Run3	repeat/STIM_014.jpg	99
2705.891	1.109	1108.8	repeat	Run3	repeat/STIM_014.jpg	100
2709.176	0.865	865.0	repeat	Run3	repeat/STIM_014.jpg	100
2712.226	1.975	1975.4	generate	Run4	generate/STIM_000.jpg	100
2718.154	1.919	1918.9	generate	Run4	generate/STIM_000.jpg	100
2723.251	1.552	1551.6	generate	Run4	generate/STIM_000.jpg	100
2727.415	1.029	1028.9	generate	Run4	generate/STIM_000.jpg	99
2731.14	1.233	1233.1	generate	Run4	generate/STIM_000.jpg	99
2734.968	1.822	1822.4	generate	Run4	generate/STIM_001.jpg	100
2739.858	1.222	1221.6	generate	Run4	generate/STIM_001.jpg	100
2744.777	0.985	984.7	generate	Run4	generate/STIM_001.jpg	99
2748.927	1.949	1948.7	generate	Run4	generate/STIM_001.jpg	99
2753.523	1.291	1290.9	generate	Run4	generate/STIM_001.jpg	99
2758.083	1.277	1277.4	generate	Run4	generate/STIM_002.jpg	100
2762.711	1.724	1724.1	generate	Run4	generate/STIM_002.jpg	100
2767.879	1.402	1402.0	generate	Run4	generate/STIM_002.jpg	99
2771.926	1.963	1962.6	generate	Run4	generate/STIM_002.jpg	99
2777.03	1.561	1561.2	generate	Run4	generate/STIM_002.jpg	99
2781.649	1.325	1324.9	generate	Run4	generate/STIM_003.jpg	99
2785.226	1.607	1607.0	generate	Run4	generate/STIM_003.jpg	99
2790.703	1.572	1572.4	generate	Run4	generate/STIM_003.jpg	99
2794.505	1.457	1456.6	generate	Run4	generate/STIM_003.jpg	100
2799.909	1.781	1781.0	generate	Run4	generate/STIM_003.jpg	99
2805.095	1.513	1513.0	generate	Run4	generate/STIM_004.jpg	99
2808.726	1.476	1475.8	generate	Run4	generate/STIM_004.jpg	99
2812.65	1.936	1936.1	generate	Run4	generate/STIM_004.jpg	100
2817.74	1.899	1899.1	generate	Run4	generate/STIM_004.jpg	100
2822.11	2.118	2118.5	generate	Run4	generate/STIM_004.jpg	100
2826.675	1.539	1538.9	generate	Run4	generate/STIM_005.jpg	99
2831.57	1.988	1988.0	generate	Run4	generate/STIM_005.jpg	100
2837.139	1.587	1586.6	generate	Run4	generate/STIM_005.jpg	99
2842.642	1.864	1863.5	generate	Run4	generate/STIM_005.jpg	99
2846.831	1.425	1424.8	generate	Run4	generate/STIM_005.jpg	100
2852.023	1.648	1648.3	generate	Run4	generate/STIM_006.jpg	99
2855.745	1.418	1418.1	generate	Run4	generate/STIM_006.jpg	100
2859.648	1.148	1147.6	generate	Run4	generate/STIM_006.jpg	100
2863.427	1.823	1822.6	generate	Run4	generate/STIM_006.jpg	100
2868.319	1.013	1013.3	generate	Run4	generate/STIM_006.jpg	100
2872.398	2.113	2113.2	generate	Run4	generate/STIM_007.jpg	99
2877.693	1.515	1515.3	generate	Run4	generate/STIM_007.jpg	99
2882.79	1.832	1832.5	generate	Run4	generate/STIM_007.jpg	100
2888.391	2.196	2196.4	generate	Run4	generate/STIM_007.jpg	99
2893.042	1.229	1228.7	generate	Run4	generate/STIM_007.jpg	100
2898.202	1.001	1000.9	generate	Run4	generate/STIM_008.jpg	99
2902.024	2.196	2195.7	generate	Run4	generate/STIM_008.jpg	100
2906.412	2.199	2199.0	generate	Run4	generate/STIM_008.jpg	99
2911.143	2.015	2015.3	generate	Run4	generate/STIM_008.jpg	99
2916.061	1.148	1148.1	generate	Run4	generate/STIM_008.jpg	100
2920.639	1.83	1830.2	generate	Run4	generate/STIM_009.jpg	100
2925.068	1.555	1555.0	generate	Run4	generate/STIM_009.jpg	99
2929.254	1.974	1973.9	generate	Run4	generate/STIM_009.jpg	99
2933.955	1.719	1718.9	generate	Run4	generate/STIM_009.jpg	100
2939.231	1.582	1581.6	generate	Run4	generate/STIM_009.jpg	100
2944.608	1.37	1369.7	generate	Run4	generate/STIM_010.jpg	100
2948.033	1.488	1488.3	generate	Run4	generate/STIM_010.jpg	100
2952.423	2.255	2254.7	generate	Run4	generate/STIM_010.jpg	99
2957.417	2.303	2303.2	generate	Run4	generate/STIM_010.jpg	99
2962.54	1.791	1790.6	generate	Run4	generate/STIM_010.jpg	99
2967.912	1.403	1402.9	generate	Run4	generate/STIM_011.jpg	100
2972.942	1.496	1495.7	generate	Run4	generate/STIM_011.jpg	100
2977.072	1.381	1381.0	generate	Run4	generate/STIM_011.jpg	99
2982.265	1.371	1371.0	generate	Run4	generate/STIM_011.jpg	100
2986.651	1.387	1387.1	generate	Run4	generate/STIM_011.jpg	99
2991.633	1.262	1261.6	generate	Run4	generate/STIM_012.jpg	100
2996.12	1.118	1118.3	generate	Run4	generate/STIM_012.jpg	99
3000.993	1.4	1400.2	generate	Run4	generate/STIM_012.jpg	99
3004.725	2.154	2154.3	generate	Run4	generate/STIM_012.jpg	100
3008.944	2.234	2234.5	generate	Run4	generate/STIM_012.jpg	99
3014.793	2.05	2050.4	generate	Run4	generate/STIM_013.jpg	100
3018.923	1.119	1119.3	generate	Run4	generate/STIM_013.jpg	99
3023.356	2.085	2085.4	generate	Run4	generate/STIM_013.jpg	99
3028.865	1.713	1712.6	generate	Run4	generate/STIM_013.jpg	100
3034.388	1.272	1271.6	generate	Run4	generate/STIM_013.jpg	100
3038.953	1.839	1839.2	generate	Run4	generate/STIM_014.jpg	100
3044.725	1.89	1890.5	generate	Run4	generate/STIM_014.jpg	99
3050.54	2.119	2119.0	generate	Run4	generate/STIM_014.jpg	100
3056.186	2.025	2024.9	generate	Run4	generate/STIM_014.jpg	100
3061.454	1.788	1788.5	generate	Run4	generate/STIM_014.jpg	99
3065.459	2.384	2383.6	generate	Run4	generate/STIM_015.jpg	99
3070.005	1.64	1640.4	generate	Run4	generate/STIM_015.jpg	100
3074.746	1.643	1643.2	generate	Run4	generate/STIM_015.jpg	100
3080.144	1.774	1774.1	generate	Run4	generate/STIM_015.jpg	100
3084.496	1.119	1118.9	generate	Run4	generate/STIM_015.jpg	99
3088.536	1.715	1714.8	generate	Run4	generate/STIM_016.jpg	99
3092.39	1.115	1114.8	generate	Run4	generate/STIM_016.jpg	99
3097.083	1.161	1161.1	generate	Run4	generate/STIM_016.jpg	99
3100.862	1.502	1502.0	generate	Run4	generate/STIM_016.jpg	100
3105.482	1.836	1836.1	generate	Run4	generate/STIM_016.jpg	99
3109.695	1.428	1427.8	generate	Run4	generate/STIM_017.jpg	100
3113.219	1.36	1360.5	generate	Run4	generate/STIM_017.jpg	100
3118.289	2.165	2165.1	generate	Run4	generate/STIM_017.jpg	100
3122.462	1.867	1866.9	generate	Run4	generate/STIM_017.jpg	99
3127.676	1.039	1039.3	generate	Run4	generate/STIM_017.jpg	100
3132.002	1.953	1953.3	generate	Run4	generate/STIM_018.jpg	100
3136.72	1.331	1330.9	generate	Run4	generate/STIM_018.jpg	99
3140.182	1.993	1992.8	generate	Run4	generate/STIM_018.jpg	100
3144.601	1.882	1882.1	generate	Run4	generate/STIM_018.jpg	99
3148.68	2.006	2006.3	generate	Run4	generate/STIM_018.jpg	99
3153.189	1.215	1215.3	generate	Run4	generate/STIM_019.jpg	99
3157.208	1.257	1257.4	generate	Run4	generate/STIM_019.jpg	99
3162.038	2.198	2198.2	generate	Run4	generate/STIM_019.jpg	100
3167.1	1.975	1975.0	generate	Run4	generate/STIM_019.jpg	100
3171.723	2.076	2076.4	generate	Run4	generate/STIM_019.jpg	100
3176.504	2.046	2046.0	generate	Run4	generate/STIM_020.jpg	100
3181.978	1.577	1577.1	generate	Run4	generate/STIM_020.jpg	100
3186.964	1.625	1625.0	generate	Run4	generate/STIM_020.jpg	99
3192.081	1.377	1376.6	generate	Run4	generate/STIM_020.jpg	99
3195.544	1.318	1317.9	generate	Run4	generate/STIM_020.jpg	99
3200.466	1.009	1009.1	generate	Run4	generate/STIM_021.jpg	100
3204.503	1.598	1598.1	generate	Run4	generate/STIM_021.jpg	99
3209.076	1.611	1611.1	generate	Run4	generate/STIM_021.jpg	99
3213.291	1.284	1284.0	generate	Run4	generate/STIM_021.jpg	100
3218.138	1.298	1298.5	generate	Run4	generate/STIM_021.jpg	99
3222.62	1.513	1512.8	generate	Run4	generate/STIM_022.jpg	100
3226.381	1.004	1003.6	generate	Run4	generate/STIM_022.jpg	99
3231.037	1.092	1091.7	generate	Run4	generate/STIM_022.jpg	99
3235.145	1.607	1607.0	generate	Run4	generate/STIM_022.jpg	100
3240.369	1.144	1143.9	generate	Run4	generate/STIM_022.jpg	100
3243.91	1.275	1274.8	generate	Run4	generate/STIM_023.jpg	99
3247.959	1.779	1778.9	generate	Run4	generate/STIM_023.jpg	99
3252.85	1.175	1175.4	generate	Run4	generate/STIM_023.jpg	99
3257.862	1.071	1070.8	generate	Run4	generate/STIM_023.jpg	100
3261.558	1.571	1571.0	generate	Run4	generate/STIM_023.jpg	99
3265.199	2.346	2346.2	generate	Run4	generate/STIM_024.jpg	100
3270.417	1.434	1434.2	generate	Run4	generate/STIM_024.jpg	100
3274.222	2.3	2300.4	generate	Run4	generate/STIM_024.jpg	99
3278.657	2.076	2075.9	generate	Run4	generate/STIM_024.jpg	100
3283.441	1.693	1693.2	generate	Run4	generate/STIM_024.jpg	100
3288.233	0.892	891.5	repeat	Run4	repeat/STIM_000.jpg	99
3291.17	0.697	697.1	repeat	Run4	repeat/STIM_000.jpg	99
3295.13	1.082	1082.3	repeat	Run4	repeat/STIM_000.jpg	100
3299.27	1.143	1143.4	repeat	Run4	repeat/STIM_000.jpg	100
3304.273	0.913	913.2	repeat	Run4	repeat/STIM_000.jpg	99
3308.727	0.94	939.9	repeat	Run4	repeat/STIM_001.jpg	100
3312.103	1.006	1006.2	repeat	Run4	repeat/STIM_001.jpg	100
3315.482	0.629	629.4	repeat	Run4	repeat/STIM_001.jpg	99
3318.479	0.695	695.2	repeat	Run4	repeat/STIM_001.jpg	99
3321.873	0.988	987.9	repeat	Run4	repeat/STIM_001.jpg	99
3326.782	0.807	807.4	repeat	Run4	repeat/STIM_002.jpg	99
3330.575	0.678	677.9	repeat	Run4	repeat/STIM_002.jpg	99
3334.597	1.118	1118.0	repeat	Run4	repeat/STIM_002.jpg	100
3338.037	0.849	849.4	repeat	Run4	repeat/STIM_002.jpg	99
3341.445	1.108	1107.8	repeat	Run4	repeat/STIM_002.jpg	99
3345.734	1.109	1108.8	repeat	Run4	repeat/STIM_003.jpg	99
3350.545	0.819	819.2	repeat	Run4	repeat/STIM_003.jpg	100
3353.594	0.715	714.9	repeat	Run4	repeat/STIM_003.jpg	100
3357.269	0.805	805.4	repeat	Run4	repeat/STIM_003.jpg	100
3360.83	0.8	799.5	repeat	Run4	repeat/STIM_003.jpg	99
3365.233	0.747	747.3	repeat	Run4	repeat/STIM_004.jpg	99
3368.187	1.016	1016.1	repeat	Run4	repeat/STIM_004.jpg	99
3371.616	0.786	786.3	repeat	Run4	repeat/STIM_004.jpg	100
3376.203	0.618	618.1	repeat	Run4	repeat/STIM_004.jpg	100
3378.835	1.125	1125.4	repeat	Run4	repeat/STIM_004.jpg	99
3382.551	0.842	841.9	repeat	Run4	repeat/STIM_005.jpg	99
3386.24	0.723	723.2	repeat	Run4	repeat/STIM_005.jpg	100
3390.32	0.914	914.1	repeat	Run4	repeat/STIM_005.jpg	100
3394.338	0.899	899.0	repeat	Run4	repeat/STIM_005.jpg	100
3397.503	0.586	586.3	repeat	Run4	repeat/STIM_005.jpg	99
3401.485	0.933	933.0	repeat	Run4	repeat/STIM_006.jpg	99
3405.027	0.735	735.2	repeat	Run4	repeat/STIM_006.jpg	100
3408.816	1.092	1092.5	repeat	Run4	repeat/STIM_006.jpg	99
3413.822	1.008	1008.3	repeat	Run4	repeat/STIM_006.jpg	99
3417.977	0.789	788.7	repeat	Run4	repeat/STIM_006.jpg	100
3422.102	0.647	647.2	repeat	Run4	repeat/STIM_007.jpg	99
3426.689	0.816	815.5	repeat	Run4	repeat/STIM_007.jpg	99
3429.708	0.611	611.4	repeat	Run4	repeat/STIM_007.jpg	100
3432.762	0.654	654.5	repeat	Run4	repeat/STIM_007.jpg	99
3435.495	0.918	918.1	repeat	Run4	repeat/STIM_007.jpg	100
3438.728	0.881	880.8	repeat	Run4	repeat/STIM_008.jpg	100
3442.926	0.989	989.0	repeat	Run4	repeat/STIM_008.jpg	100
3447.903	1.11	1110.2	repeat	Run4	repeat/STIM_008.jpg	100
3451.07	1.018	1018.5	repeat	Run4	repeat/STIM_008.jpg	99
3455.132	0.591	590.7	repeat	Run4	repeat/STIM_008.jpg	99
3457.881	1.038	1037.9	repeat	Run4	repeat/STIM_009.jpg	100
3462.18	0.95	949.7	repeat	Run4	repeat/STIM_009.jpg	99
3466.163	0.778	777.7	repeat	Run4	repeat/STIM_009.jpg	100
3469.027	0.722	721.5	repeat	Run4	repeat/STIM_009.jpg	100
3471.793	0.939	938.8	repeat	Run4	repeat/STIM_009.jpg	99
3475.289	0.81	810.1	repeat	Run4	repeat/STIM_010.jpg	99
3479.441	1.119	1118.8	repeat	Run4	repeat/STIM_010.jpg	99
3483.002	1.011	1010.8	repeat	Run4	repeat/STIM_010.jpg	99
3486.267	0.652	652.3	repeat	Run4	repeat/STIM_010.jpg	100
3490.612	0.902	901.8	repeat	Run4	repeat/STIM_010.jpg	100
3494.957	1.032	1032.0	repeat	Run4	repeat/STIM_011.jpg	100
3498.647	0.986	985.8	repeat	Run4	repeat/STIM_011.jpg	99
3503.204	0.939	939.2	repeat	Run4	repeat/STIM_011.jpg	99
3507.897	0.652	651.7	repeat	Run4	repeat/STIM_011.jpg	100
3510.894	0.754	753.9	repeat	Run4	repeat/STIM_011.jpg	99
3513.724	0.857	857.2	repeat	Run4	repeat/STIM_012.jpg	99
3518.275	0.613	613.4	repeat	Run4	repeat/STIM_012.jpg	100
3521.498	0.583	583.2	repeat	Run4	repeat/STIM_012.jpg	99
3524.173	0.665	664.8	repeat	Run4	repeat/STIM_012.jpg	99
3527.966	0.964	964.1	repeat	Run4	repeat/STIM_012.jpg	100
3531.169	0.841	840.8	repeat	Run4	repeat/STIM_013.jpg	99
3535.543	0.714	714.1	repeat	Run4	repeat/STIM_013.jpg	99
3539.825	0.773	772.8	repeat	Run4	repeat/STIM_013.jpg	100
3544.151	0.915	915.4	repeat	Run4	repeat/STIM_013.jpg	99
3548.487	1.148	1147.9	repeat	Run4	repeat/STIM_013.jpg	99
3552.999	0.886	885.8	repeat	Run4	repeat/STIM_014.jpg	100
3556.512	0.886	886.0	repeat	Run4	repeat/STIM_014.jpg	99
3559.692	0.693	693.0	repeat	Run4	repeat/STIM_014.jpg	99
3562.962	0.648	647.5	repeat	Run4	repeat/STIM_014.jpg	99
3567.113	1.099	1098.6	repeat	Run4	repeat/STIM_014.jpg	99
