onset	duration	accuracy_binary	trial_type	learning_stage	stimulus
0.0	5.094	1	navigation	Trial1	navigation/STIM_000.jpg
8.513	4.974	0	navigation	Trial1	navigation/STIM_000.jpg
16.216	2.167	1	navigation	Trial1	navigation/STIM_000.jpg
21.971	1.987	1	navigation	Trial1	navigation/STIM_000.jpg
27.709	2.274	1	navigation	Trial1	navigation/STIM_000.jpg
33.329	2.279	1	navigation	Trial1	navigation/STIM_000.jpg
38.085	5.585	1	navigation	Trial1	navigation/STIM_001.jpg
47.518	3.432	0	navigation	Trial1	navigation/STIM_001.jpg
54.833	4.095	1	navigation	Trial1	navigation/STIM_001.jpg
62.721	4.488	1	navigation	Trial1	navigation/STIM_001.jpg
70.758	3.916	1	navigation	Trial1	navigation/STIM_001.jpg
77.637	4.029	0	navigation	Trial1	navigation/STIM_001.jpg
84.825	2.416	1	navigation	Trial1	navigation/STIM_002.jpg
89.343	5.158	1	navigation	Trial1	navigation/STIM_002.jpg
97.989	3.661	0	navigation	Trial1	navigation/STIM_002.jpg
105.411	2.644	1	navigation	Trial1	navigation/STIM_002.jpg
110.584	1.831	1	navigation	Trial1	navigation/STIM_002.jpg
115.891	1.739	1	navigation	Trial1	navigation/STIM_002.jpg
120.621	5.143	0	navigation	Trial1	navigation/STIM_003.jpg
128.992	3.961	0	navigation	Trial1	navigation/STIM_003.jpg
136.398	2.117	1	navigation	Trial1	navigation/STIM_003.jpg
142.121	2.804	1	navigation	Trial1	navigation/STIM_003.jpg
148.38	4.296	1	navigation	Trial1	navigation/STIM_003.jpg
155.185	3.126	0	navigation	Trial1	navigation/STIM_003.jpg
161.814	5.05	1	navigation	Trial1	navigation/STIM_004.jpg
169.159	5.108	0	navigation	Trial1	navigation/STIM_004.jpg
177.304	4.863	1	navigation	Trial1	navigation/STIM_004.jpg
185.83	3.468	0	navigation	Trial1	navigation/STIM_004.jpg
192.148	3.184	1	navigation	Trial1	navigation/STIM_004.jpg
198.461	3.661	1	navigation	Trial1	navigation/STIM_004.jpg
205.386	3.864	1	navigation	Trial1	navigation/STIM_005.jpg
211.693	3.752	1	navigation	Trial1	navigation/STIM_005.jpg
218.56	2.644	0	navigation	Trial1	navigation/STIM_005.jpg
223.444	2.772	1	navigation	Trial1	navigation/STIM_005.jpg
229.061	2.51	1	navigation	Trial1	navigation/STIM_005.jpg
235.554	2.959	1	navigation	Trial1	navigation/STIM_005.jpg
242.394	4.24	0	navigation	Trial1	navigation/STIM_006.jpg
249.601	3.263	1	navigation	Trial1	navigation/STIM_006.jpg
255.919	4.828	0	navigation	Trial1	navigation/STIM_006.jpg
263.835	4.63	1	navigation	Trial1	navigation/STIM_006.jpg
271.152	2.08	1	navigation	Trial1	navigation/STIM_006.jpg
275.359	2.14	1	navigation	Trial1	navigation/STIM_006.jpg
280.932	5.625	1	navigation	Trial1	navigation/STIM_007.jpg
290.333	3.405	1	navigation	Trial1	navigation/STIM_007.jpg
296.736	2.72	1	navigation	Trial1	navigation/STIM_007.jpg
302.952	4.197	1	navigation	Trial1	navigation/STIM_007.jpg
310.099	3.871	1	navigation	Trial1	navigation/STIM_007.jpg
316.368	3.121	1	navigation	Trial1	navigation/STIM_007.jpg
323.138	3.342	1	navigation	Trial1	navigation/STIM_008.jpg
328.711	2.91	1	navigation	Trial1	navigation/STIM_008.jpg
334.609	2.642	0	navigation	Trial1	navigation/STIM_008.jpg
340.072	3.277	0	navigation	Trial1	navigation/STIM_008.jpg
345.633	2.374	1	navigation	Trial1	navigation/STIM_008.jpg
350.654	3.352	1	navigation	Trial1	navigation/STIM_008.jpg
357.613	2.288	1	navigation	Trial1	navigation/STIM_009.jpg
363.607	4.51	1	navigation	Trial1	navigation/STIM_009.jpg
371.549	4.751	1	navigation	Trial1	navigation/STIM_009.jpg
378.816	2.614	1	navigation	Trial1	navigation/STIM_009.jpg
383.934	2.513	1	navigation	Trial1	navigation/STIM_009.jpg
389.066	2.545	1	navigation	Trial1	navigation/STIM_009.jpg
395.168	2.757	1	navigation	Trial1	navigation/STIM_010.jpg
401.481	5.215	1	navigation	Trial1	navigation/STIM_010.jpg
410.435	4.932	0	navigation	Trial1	navigation/STIM_010.jpg
418.874	1.935	1	navigation	Trial1	navigation/STIM_010.jpg
423.76	3.426	1	navigation	Trial1	navigation/STIM_010.jpg
429.938	3.89	1	navigation	Trial1	navigation/STIM_010.jpg
436.014	3.004	0	navigation	Trial1	navigation/STIM_011.jpg
441.749	3.714	1	navigation	Trial1	navigation/STIM_011.jpg
447.499	2.825	1	navigation	Trial1	navigation/STIM_011.jpg
453.957	3.308	0	navigation	Trial1	navigation/STIM_011.jpg
460.837	3.457	1	navigation	Trial1	navigation/STIM_011.jpg
467.029	4.113	1	navigation	Trial1	navigation/STIM_011.jpg
473.271	1.231	1	pointing	Trial1	pointing/STIM_000.jpg
477.729	1.542	1	pointing	Trial1	pointing/STIM_000.jpg
482.499	1.411	1	pointing	Trial1	pointing/STIM_000.jpg
487.385	1.276	1	pointing	Trial1	pointing/STIM_000.jpg
491.156	1.592	1	pointing	Trial1	pointing/STIM_000.jpg
495.207	1.488	1	pointing	Trial1	pointing/STIM_000.jpg
499.02	1.243	1	pointing	Trial1	pointing/STIM_001.jpg
503.156	1.089	1	pointing	Trial1	pointing/STIM_001.jpg
508.033	1.607	1	pointing	Trial1	pointing/STIM_001.jpg
512.866	1.682	1	pointing	Trial1	pointing/STIM_001.jpg
516.931	0.919	1	pointing	Trial1	pointing/STIM_001.jpg
519.901	1.403	1	pointing	Trial1	pointing/STIM_001.jpg
524.86	1.537	1	pointing	Trial1	pointing/STIM_002.jpg
530.113	1.052	1	pointing	Trial1	pointing/STIM_002.jpg
533.503	1.373	1	pointing	Trial1	pointing/STIM_002.jpg
538.069	1.685	1	pointing	Trial1	pointing/STIM_002.jpg
542.089	1.071	1	pointing	Trial1	pointing/STIM_002.jpg
545.716	1.56	1	pointing	Trial1	pointing/STIM_002.jpg
551.174	1.111	1	pointing	Trial1	pointing/STIM_003.jpg
555.494	1.101	1	pointing	Trial1	pointing/STIM_003.jpg
559.35	1.53	1	pointing	Trial1	pointing/STIM_003.jpg
563.452	1.294	1	pointing	Trial1	pointing/STIM_003.jpg
567.823	1.254	1	pointing	Trial1	pointing/STIM_003.jpg
571.573	1.426	1	pointing	Trial1	pointing/STIM_003.jpg
576.39	0.975	1	pointing	Trial1	pointing/STIM_004.jpg
579.474	1.405	1	pointing	Trial1	pointing/STIM_004.jpg
583.126	0.963	1	pointing	Trial1	pointing/STIM_004.jpg
586.648	1.249	1	pointing	Trial1	pointing/STIM_004.jpg
590.612	1.086	1	pointing	Trial1	pointing/STIM_004.jpg
594.21	1.132	1	pointing	Trial1	pointing/STIM_004.jpg
598.206	1.108	1	pointing	Trial1	pointing/STIM_005.jpg
601.965	1.44	1	pointing	Trial1	pointing/STIM_005.jpg
606.647	1.019	1	pointing	Trial1	pointing/STIM_005.jpg
609.938	1.677	1	pointing	Trial1	pointing/STIM_005.jpg
615.007	1.608	1	pointing	Trial1	pointing/STIM_005.jpg
620.045	1.102	1	pointing	Trial1	pointing/STIM_005.jpg
623.828	0.967	1	pointing	Trial1	pointing/STIM_006.jpg
627.177	1.521	1	pointing	Trial1	pointing/STIM_006.jpg
631.976	1.13	1	pointing	Trial1	pointing/STIM_006.jpg
635.138	1.001	1	pointing	Trial1	pointing/STIM_006.jpg
638.265	1.47	1	pointing	Trial1	pointing/STIM_006.jpg
642.536	1.181	1	pointing	Trial1	pointing/STIM_006.jpg
647.666	0.924	1	pointing	Trial1	pointing/STIM_007.jpg
652.46	1.348	1	pointing	Trial1	pointing/STIM_007.jpg
657.35	0.955	1	pointing	Trial1	pointing/STIM_007.jpg
660.573	1.579	1	pointing	Trial1	pointing/STIM_007.jpg
665.174	1.068	1	pointing	Trial1	pointing/STIM_007.jpg
669.993	1.011	1	pointing	Trial1	pointing/STIM_007.jpg
674.498	1.632	1	pointing	Trial1	pointing/STIM_008.jpg
680.066	0.979	1	pointing	Trial1	pointing/STIM_008.jpg
683.214	0.965	1	pointing	Trial1	pointing/STIM_008.jpg
686.293	1.106	1	pointing	Trial1	pointing/STIM_008.jpg
689.857	1.305	1	pointing	Trial1	pointing/STIM_008.jpg
693.237	1.191	1	pointing	Trial1	pointing/STIM_008.jpg
697.532	1.265	1	pointing	Trial1	pointing/STIM_009.jpg
702.327	1.09	0	pointing	Trial1	pointing/STIM_009.jpg
705.45	1.5	1	pointing	Trial1	pointing/STIM_009.jpg
710.748	1.542	1	pointing	Trial1	pointing/STIM_009.jpg
716.151	1.546	1	pointing	Trial1	pointing/STIM_009.jpg
721.154	1.484	1	pointing	Trial1	pointing/STIM_009.jpg
725.011	1.0	1	pointing	Trial1	pointing/STIM_010.jpg
728.29	1.266	1	pointing	Trial1	pointing/STIM_010.jpg
733.13	1.056	1	pointing	Trial1	pointing/STIM_010.jpg
737.887	1.102	1	pointing	Trial1	pointing/STIM_010.jpg
741.906	1.02	1	pointing	Trial1	pointing/STIM_010.jpg
746.467	1.65	1	pointing	Trial1	pointing/STIM_010.jpg
751.079	1.692	1	pointing	Trial1	pointing/STIM_011.jpg
755.086	1.491	1	pointing	Trial1	pointing/STIM_011.jpg
758.917	1.605	1	pointing	Trial1	pointing/STIM_011.jpg
764.343	0.935	1	pointing	Trial1	pointing/STIM_011.jpg
767.454	1.632	1	pointing	Trial1	pointing/STIM_011.jpg
771.95	0.986	1	pointing	Trial1	pointing/STIM_011.jpg
775.571	4.169	1	navigation	Trial2	navigation/STIM_000.jpg
782.879	2.027	1	navigation	Trial2	navigation/STIM_000.jpg
788.123	3.721	1	navigation	Trial2	navigation/STIM_000.jpg
795.701	2.864	1	navigation	Trial2	navigation/STIM_000.jpg
801.45	3.098	1	navigation	Trial2	navigation/STIM_000.jpg
807.369	3.904	0	navigation	Trial2	navigation/STIM_000.jpg
813.493	3.072	1	navigation	Trial2	navigation/STIM_001.jpg
819.489	3.001	1	navigation	Trial2	navigation/STIM_001.jpg
825.687	4.184	1	navigation	Trial2	navigation/STIM_001.jpg
832.905	2.735	1	navigation	Trial2	navigation/STIM_001.jpg
839.137	3.042	1	navigation	Trial2	navigation/STIM_001.jpg
845.805	2.682	1	navigation	Trial2	navigation/STIM_001.jpg
850.726	3.727	0	navigation	Trial2	navigation/STIM_002.jpg
856.914	3.141	1	navigation	Trial2	navigation/STIM_002.jpg
862.908	2.739	1	navigation	Trial2	navigation/STIM_002.jpg
867.819	3.703	1	navigation	Trial2	navigation/STIM_002.jpg
875.108	3.942	1	navigation	Trial2	navigation/STIM_002.jpg
881.912	3.497	1	navigation	Trial2	navigation/STIM_002.jpg
887.583	2.081	1	navigation	Trial2	navigation/STIM_003.jpg
892.248	3.788	1	navigation	Trial2	navigation/STIM_003.jpg
899.631	1.997	1	navigation	Trial2	navigation/STIM_003.jpg
904.244	2.456	1	navigation	Trial2	navigation/STIM_003.jpg
908.721	2.019	0	navigation	Trial2	navigation/STIM_003.jpg
914.05	2.22	1	navigation	Trial2	navigation/STIM_003.jpg
920.145	4.159	1	navigation	Trial2	navigation/STIM_004.jpg
927.137	2.515	1	navigation	Trial2	navigation/STIM_004.jpg
932.723	3.254	1	navigation	Trial2	navigation/STIM_004.jpg
938.287	3.222	1	navigation	Trial2	navigation/STIM_004.jpg
945.358	1.858	1	navigation	Trial2	navigation/STIM_004.jpg
950.22	3.73	1	navigation	Trial2	navigation/STIM_004.jpg
956.971	4.132	1	navigation	Trial2	navigation/STIM_005.jpg
964.528	3.727	1	navigation	Trial2	navigation/STIM_005.jpg
970.583	2.52	0	navigation	Trial2	navigation/STIM_005.jpg
975.215	1.848	1	navigation	Trial2	navigation/STIM_005.jpg
980.988	3.078	1	navigation	Trial2	navigation/STIM_005.jpg
987.06	2.609	1	navigation	Trial2	navigation/STIM_005.jpg
991.737	3.751	0	navigation	Trial2	navigation/STIM_006.jpg
997.676	2.032	1	navigation	Trial2	navigation/STIM_006.jpg
1002.285	2.497	1	navigation	Trial2	navigation/STIM_006.jpg
1008.733	1.732	1	navigation	Trial2	navigation/STIM_006.jpg
1012.576	1.753	1	navigation	Trial2	navigation/STIM_006.jpg
1017.945	3.456	1	navigation	Trial2	navigation/STIM_006.jpg
1023.649	4.69	1	navigation	Trial2	navigation/STIM_007.jpg
1030.807	2.202	1	navigation	Trial2	navigation/STIM_007.jpg
1035.105	2.515	1	navigation	Trial2	navigation/STIM_007.jpg
1040.04	3.326	1	navigation	Trial2	navigation/STIM_007.jpg
1045.655	3.618	1	navigation	Trial2	navigation/STIM_007.jpg
1052.104	2.934	1	navigation	Trial2	navigation/STIM_007.jpg
1057.786	3.762	1	navigation	Trial2	navigation/STIM_008.jpg
1064.458	2.832	1	navigation	Trial2	navigation/STIM_008.jpg
1069.98	2.326	1	navigation	Trial2	navigation/STIM_008.jpg
1074.476	2.177	1	navigation	Trial2	navigation/STIM_008.jpg
1079.882	1.893	1	navigation	Trial2	navigation/STIM_008.jpg
1085.481	3.874	1	navigation	Trial2	navigation/STIM_008.jpg
1092.534	3.654	0	navigation	Trial2	navigation/STIM_009.jpg
1098.425	3.341	1	navigation	Trial2	navigation/STIM_009.jpg
1105.374	3.102	0	navigation	Trial2	navigation/STIM_009.jpg
1112.043	3.05	1	navigation	Trial2	navigation/STIM_009.jpg
1117.806	3.089	1	navigation	Trial2	navigation/STIM_009.jpg
1124.482	1.961	1	navigation	Trial2	navigation/STIM_009.jpg
1129.521	2.437	1	navigation	Trial2	navigation/STIM_010.jpg
1134.416	3.834	1	navigation	Trial2	navigation/STIM_010.jpg
1141.758	2.909	1	navigation	Trial2	navigation/STIM_010.jpg
1147.009	2.204	1	navigation	Trial2	navigation/STIM_010.jpg
1152.963	2.112	1	navigation	Trial2	navigation/STIM_010.jpg
1158.192	1.945	1	navigation	Trial2	navigation/STIM_010.jpg
1162.351	2.905	1	navigation	Trial2	navigation/STIM_011.jpg
1168.722	3.541	0	navigation	Trial2	navigation/STIM_011.jpg
1174.92	2.69	1	navigation	Trial2	navigation/STIM_011.jpg
1181.373	1.968	1	navigation	Trial2	navigation/STIM_011.jpg
1185.751	3.5	1	navigation	Trial2	navigation/STIM_011.jpg
1192.727	2.053	1	navigation	Trial2	navigation/STIM_011.jpg
1198.025	1.108	1	pointing	Trial2	pointing/STIM_000.jpg
1201.197	1.457	1	pointing	Trial2	pointing/STIM_000.jpg
1206.115	1.062	1	pointing	Trial2	pointing/STIM_000.jpg
1209.88	1.325	1	pointing	Trial2	pointing/STIM_000.jpg
1214.096	1.029	1	pointing	Trial2	pointing/STIM_000.jpg
1217.333	1.259	1	pointing	Trial2	pointing/STIM_000.jpg
1221.591	1.167	1	pointing	Trial2	pointing/STIM_001.jpg
1226.313	1.466	1	pointing	Trial2	pointing/STIM_001.jpg
1230.674	1.169	1	pointing	Trial2	pointing/STIM_001.jpg
1233.921	1.162	1	pointing	Trial2	pointing/STIM_001.jpg
1237.193	1.021	1	pointing	Trial2	pointing/STIM_001.jpg
1240.559	1.288	1	pointing	Trial2	pointing/STIM_001.jpg
1244.65	1.446	1	pointing	Trial2	pointing/STIM_002.jpg
1250.074	1.203	1	pointing	Trial2	pointing/STIM_002.jpg
1255.189	1.376	1	pointing	Trial2	pointing/STIM_002.jpg
1259.862	0.924	1	pointing	Trial2	pointing/STIM_002.jpg
1263.165	1.227	1	pointing	Trial2	pointing/STIM_002.jpg
1267.86	1.075	1	pointing	Trial2	pointing/STIM_002.jpg
1271.782	1.152	1	pointing	Trial2	pointing/STIM_003.jpg
1275.488	1.389	1	pointing	Trial2	pointing/STIM_003.jpg
1279.163	1.346	1	pointing	Trial2	pointing/STIM_003.jpg
1284.342	1.565	1	pointing	Trial2	pointing/STIM_003.jpg
1288.021	1.662	1	pointing	Trial2	pointing/STIM_003.jpg
1293.511	1.479	1	pointing	Trial2	pointing/STIM_003.jpg
1297.762	1.335	1	pointing	Trial2	pointing/STIM_004.jpg
1301.944	1.599	1	pointing	Trial2	pointing/STIM_004.jpg
1307.462	1.334	1	pointing	Trial2	pointing/STIM_004.jpg
1311.927	1.333	1	pointing	Trial2	pointing/STIM_004.jpg
1316.328	1.121	1	pointing	Trial2	pointing/STIM_004.jpg
1319.498	1.459	1	pointing	Trial2	pointing/STIM_004.jpg
1323.275	1.577	1	pointing	Trial2	pointing/STIM_005.jpg
1327.111	1.373	1	pointing	Trial2	pointing/STIM_005.jpg
1331.824	1.389	1	pointing	Trial2	pointing/STIM_005.jpg
1335.798	0.944	1	pointing	Trial2	pointing/STIM_005.jpg
1340.245	1.39	1	pointing	Trial2	pointing/STIM_005.jpg
1345.253	1.352	1	pointing	Trial2	pointing/STIM_005.jpg
1350.583	1.291	1	pointing	Trial2	pointing/STIM_006.jpg
1354.444	1.356	1	pointing	Trial2	pointing/STIM_006.jpg
1357.997	1.096	1	pointing	Trial2	pointing/STIM_006.jpg
1362.059	1.003	1	pointing	Trial2	pointing/STIM_006.jpg
1366.796	1.124	1	pointing	Trial2	pointing/STIM_006.jpg
1371.123	1.136	1	pointing	Trial2	pointing/STIM_006.jpg
1374.815	1.381	1	pointing	Trial2	pointing/STIM_007.jpg
1378.255	1.252	1	pointing	Trial2	pointing/STIM_007.jpg
1381.72	1.301	1	pointing	Trial2	pointing/STIM_007.jpg
1386.812	0.953	1	pointing	Trial2	pointing/STIM_007.jpg
1391.337	0.907	1	pointing	Trial2	pointing/STIM_007.jpg
1394.923	1.541	1	pointing	Trial2	pointing/STIM_007.jpg
1400.288	1.052	1	pointing	Trial2	pointing/STIM_008.jpg
1404.046	1.522	1	pointing	Trial2	pointing/STIM_008.jpg
1408.082	1.647	1	pointing	Trial2	pointing/STIM_008.jpg
1412.705	1.259	1	pointing	Trial2	pointing/STIM_008.jpg
1417.532	1.431	1	pointing	Trial2	pointing/STIM_008.jpg
1421.347	1.5	1	pointing	Trial2	pointing/STIM_008.jpg
1426.489	1.333	1	pointing	Trial2	pointing/STIM_009.jpg
1431.271	0.911	1	pointing	Trial2	pointing/STIM_009.jpg
1435.17	1.385	1	pointing	Trial2	pointing/STIM_009.jpg
1439.724	1.126	0	pointing	Trial2	pointing/STIM_009.jpg
1443.621	1.322	1	pointing	Trial2	pointing/STIM_009.jpg
1447.677	1.46	1	pointing	Trial2	pointing/STIM_009.jpg
1452.258	0.96	0	pointing	Trial2	pointing/STIM_010.jpg
1455.622	1.203	1	pointing	Trial2	pointing/STIM_010.jpg
1459.664	1.088	1	pointing	Trial2	pointing/STIM_010.jpg
1462.98	0.937	1	pointing	Trial2	pointing/STIM_010.jpg
1466.208	1.198	1	pointing	Trial2	pointing/STIM_010.jpg
1469.714	0.965	1	pointing	Trial2	pointing/STIM_010.jpg
1473.278	1.458	1	pointing	Trial2	pointing/STIM_011.jpg
1478.56	1.213	1	pointing	Trial2	pointing/STIM_011.jpg
1483.582	1.504	1	pointing	Trial2	pointing/STIM_011.jpg
1487.189	1.514	1	pointing	Trial2	pointing/STIM_011.jpg
1492.234	1.058	1	pointing	Trial2	pointing/STIM_011.jpg
1496.795	0.965	1	pointing	Trial2	pointing/STIM_011.jpg
1500.914	2.491	1	navigation	Trial3	navigation/STIM_000.jpg
1506.81	2.942	1	navigation	Trial3	navigation/STIM_000.jpg
1513.068	2.933	1	navigation	Trial3	navigation/STIM_000.jpg
1519.135	3.292	1	navigation	Trial3	navigation/STIM_000.jpg
1524.823	2.844	1	navigation	Trial3	navigation/STIM_000.jpg
1531.301	2.495	1	navigation	Trial3	navigation/STIM_000.jpg
1537.345	2.769	1	navigation	Trial3	navigation/STIM_001.jpg
1542.688	1.972	1	navigation	Trial3	navigation/STIM_001.jpg
1547.126	3.831	1	navigation	Trial3	navigation/STIM_001.jpg
1554.583	3.736	1	navigation	Trial3	navigation/STIM_001.jpg
1561.745	2.684	0	navigation	Trial3	navigation/STIM_001.jpg
1567.313	2.762	1	navigation	Trial3	navigation/STIM_001.jpg
1572.933	2.925	1	navigation	Trial3	navigation/STIM_002.jpg
1579.571	2.047	1	navigation	Trial3	navigation/STIM_002.jpg
1584.541	2.901	1	navigation	Trial3	navigation/STIM_002.jpg
1590.637	2.326	1	navigation	Trial3	navigation/STIM_002.jpg
1595.921	2.178	1	navigation	Trial3	navigation/STIM_002.jpg
1601.857	2.654	1	navigation	Trial3	navigation/STIM_002.jpg
1608.471	2.409	1	navigation	Trial3	navigation/STIM_003.jpg
1614.414	1.627	1	navigation	Trial3	navigation/STIM_003.jpg
1619.215	1.876	1	navigation	Trial3	navigation/STIM_003.jpg
1624.85	3.134	1	navigation	Trial3	navigation/STIM_003.jpg
1630.782	1.722	1	navigation	Trial3	navigation/STIM_003.jpg
1636.448	3.737	1	navigation	Trial3	navigation/STIM_003.jpg
1642.4	3.682	1	navigation	Trial3	navigation/STIM_004.jpg
1648.264	2.7	1	navigation	Trial3	navigation/STIM_004.jpg
1654.369	2.221	1	navigation	Trial3	navigation/STIM_004.jpg
1658.842	3.153	1	navigation	Trial3	navigation/STIM_004.jpg
1665.524	3.688	1	navigation	Trial3	navigation/STIM_004.jpg
1671.445	1.965	1	navigation	Trial3	navigation/STIM_004.jpg
1676.673	3.791	1	navigation	Trial3	navigation/STIM_005.jpg
1684.222	2.226	1	navigation	Trial3	navigation/STIM_005.jpg
1689.836	3.326	1	navigation	Trial3	navigation/STIM_005.jpg
1696.719	2.555	1	navigation	Trial3	navigation/STIM_005.jpg
1702.061	2.0	1	navigation	Trial3	navigation/STIM_005.jpg
1707.12	2.83	1	navigation	Trial3	navigation/STIM_005.jpg
1713.661	2.586	1	navigation	Trial3	navigation/STIM_006.jpg
1718.616	2.137	1	navigation	Trial3	navigation/STIM_006.jpg
1722.977	2.262	1	navigation	Trial3	navigation/STIM_006.jpg
1728.833	2.747	1	navigation	Trial3	navigation/STIM_006.jpg
1734.551	2.367	1	navigation	Trial3	navigation/STIM_006.jpg
1739.781	2.232	1	navigation	Trial3	navigation/STIM_006.jpg
1744.309	3.329	1	navigation	Trial3	navigation/STIM_007.jpg
1751.02	2.925	1	navigation	Trial3	navigation/STIM_007.jpg
1756.295	3.35	1	navigation	Trial3	navigation/STIM_007.jpg
1762.842	3.265	1	navigation	Trial3	navigation/STIM_007.jpg
1769.768	1.598	1	navigation	Trial3	navigation/STIM_007.jpg
1775.055	3.647	1	navigation	Trial3	navigation/STIM_007.jpg
1781.03	2.05	1	navigation	Trial3	navigation/STIM_008.jpg
1786.002	2.719	1	navigation	Trial3	navigation/STIM_008.jpg
1790.827	2.919	1	navigation	Trial3	navigation/STIM_008.jpg
1795.95	3.342	1	navigation	Trial3	navigation/STIM_008.jpg
1803.049	3.209	1	navigation	Trial3	navigation/STIM_008.jpg
1810.1	2.268	1	navigation	Trial3	navigation/STIM_008.jpg
1815.416	2.104	1	navigation	Trial3	navigation/STIM_009.jpg
1820.004	2.104	1	navigation	Trial3	navigation/STIM_009.jpg
1825.753	2.462	1	navigation	Trial3	navigation/STIM_009.jpg
1831.205	2.479	1	navigation	Trial3	navigation/STIM_009.jpg
1836.63	2.608	1	navigation	Trial3	navigation/STIM_009.jpg
1841.922	3.531	1	navigation	Trial3	navigation/STIM_009.jpg
1848.139	2.096	1	navigation	Trial3	navigation/STIM_010.jpg
1853.306	3.838	1	navigation	Trial3	navigation/STIM_010.jpg
1859.876	3.059	1	navigation	Trial3	navigation/STIM_010.jpg
1866.246	3.01	1	navigation	Trial3	navigation/STIM_010.jpg
1872.672	3.32	1	navigation	Trial3	navigation/STIM_010.jpg
1879.616	3.144	1	navigation	Trial3	navigation/STIM_010.jpg
1886.253	2.204	1	navigation	Trial3	navigation/STIM_011.jpg
1891.078	2.969	1	navigation	Trial3	navigation/STIM_011.jpg
1896.106	1.586	1	navigation	Trial3	navigation/STIM_011.jpg
1900.665	3.735	1	navigation	Trial3	navigation/STIM_011.jpg
1907.089	2.836	1	navigation	Trial3	navigation/STIM_011.jpg
1913.303	3.752	1	navigation	Trial3	navigation/STIM_011.jpg
1920.863	1.683	1	pointing	Trial3	pointing/STIM_000.jpg
1925.494	1.572	1	pointing	Trial3	pointing/STIM_000.jpg
1930.962	1.595	1	pointing	Trial3	pointing/STIM_000.jpg
1936.212	1.046	1	pointing	Trial3	pointing/STIM_000.jpg
1940.517	1.059	1	pointing	Trial3	pointing/STIM_000.jpg
1944.053	0.953	1	pointing	Trial3	pointing/STIM_000.jpg
1948.701	1.208	1	pointing	Trial3	pointing/STIM_001.jpg
1953.865	1.498	1	pointing	Trial3	pointing/STIM_001.jpg
1958.805	1.224	1	pointing	Trial3	pointing/STIM_001.jpg
1962.468	1.341	1	pointing	Trial3	pointing/STIM_001.jpg
1966.859	1.217	1	pointing	Trial3	pointing/STIM_001.jpg
1970.747	1.687	1	pointing	Trial3	pointing/STIM_001.jpg
1975.321	1.426	1	pointing	Trial3	pointing/STIM_002.jpg
1980.652	1.36	1	pointing	Trial3	pointing/STIM_002.jpg
1985.348	1.471	1	pointing	Trial3	pointing/STIM_002.jpg
1988.954	1.194	1	pointing	Trial3	pointing/STIM_002.jpg
1993.979	1.496	1	pointing	Trial3	pointing/STIM_002.jpg
1998.505	1.647	1	pointing	Trial3	pointing/STIM_002.jpg
2002.739	1.268	1	pointing	Trial3	pointing/STIM_003.jpg
2007.458	1.189	1	pointing	Trial3	pointing/STIM_003.jpg
2011.598	1.309	1	pointing	Trial3	pointing/STIM_003.jpg
2015.382	0.97	1	pointing	Trial3	pointing/STIM_003.jpg
2019.961	1.265	1	pointing	Trial3	pointing/STIM_003.jpg
2024.75	0.932	1	pointing	Trial3	pointing/STIM_003.jpg
2028.959	1.2	1	pointing	Trial3	pointing/STIM_004.jpg
2032.507	1.594	1	pointing	Trial3	pointing/STIM_004.jpg
2036.181	1.38	1	pointing	Trial3	pointing/STIM_004.jpg
2040.574	1.446	1	pointing	Trial3	pointing/STIM_004.jpg
2045.893	0.94	1	pointing	Trial3	pointing/STIM_004.jpg
2049.601	1.192	1	pointing	Trial3	pointing/STIM_004.jpg
2053.851	1.369	0	pointing	Trial3	pointing/STIM_005.jpg
2058.185	1.271	1	pointing	Trial3	pointing/STIM_005.jpg
2062.925	1.459	1	pointing	Trial3	pointing/STIM_005.jpg
2066.932	0.942	1	pointing	Trial3	pointing/STIM_005.jpg
2071.813	1.436	1	pointing	Trial3	pointing/STIM_005.jpg
2076.189	1.093	1	pointing	Trial3	pointing/STIM_005.jpg
2080.586	1.231	1	pointing	Trial3	pointing/STIM_006.jpg
2085.785	1.69	1	pointing	Trial3	pointing/STIM_006.jpg
2090.967	1.047	1	pointing	Trial3	pointing/STIM_006.jpg
2095.74	1.521	1	pointing	Trial3	pointing/STIM_006.jpg
2101.179	1.235	1	pointing	Trial3	pointing/STIM_006.jpg
2104.772	0.977	1	pointing	Trial3	pointing/STIM_006.jpg
2108.911	1.239	1	pointing	Trial3	pointing/STIM_007.jpg
2113.534	1.495	1	pointing	Trial3	pointing/STIM_007.jpg
2118.233	1.032	1	pointing	Trial3	pointing/STIM_007.jpg
2123.078	0.969	1	pointing	Trial3	pointing/STIM_007.jpg
2127.28	1.293	1	pointing	Trial3	pointing/STIM_007.jpg
2131.8	1.017	1	pointing	Trial3	pointing/STIM_007.jpg
2134.919	0.93	1	pointing	Trial3	pointing/STIM_008.jpg
2139.052	1.09	1	pointing	Trial3	pointing/STIM_008.jpg
2142.484	1.573	1	pointing	Trial3	pointing/STIM_008.jpg
2147.235	1.264	1	pointing	Trial3	pointing/STIM_008.jpg
2150.951	1.484	1	pointing	Trial3	pointing/STIM_008.jpg
2154.444	1.276	1	pointing	Trial3	pointing/STIM_008.jpg
2159.108	1.258	1	pointing	Trial3	pointing/STIM_009.jpg
2164.192	1.03	1	pointing	Trial3	pointing/STIM_009.jpg
2168.974	1.462	1	pointing	Trial3	pointing/STIM_009.jpg
2174.388	0.925	1	pointing	Trial3	pointing/STIM_009.jpg
2177.807	1.521	1	pointing	Trial3	pointing/STIM_009.jpg
2182.167	1.675	1	pointing	Trial3	pointing/STIM_009.jpg
2187.311	1.532	1	pointing	Trial3	pointing/STIM_010.jpg
2192.792	1.59	1	pointing	Trial3	pointing/STIM_010.jpg
2197.904	1.416	1	pointing	Trial3	pointing/STIM_010.jpg
2202.566	1.475	1	pointing	Trial3	pointing/STIM_010.jpg
2206.741	0.968	1	pointing	Trial3	pointing/STIM_010.jpg
2211.164	1.213	1	pointing	Trial3	pointing/STIM_010.jpg
2215.346	1.437	1	pointing	Trial3	pointing/STIM_011.jpg
2220.53	1.522	1	pointing	Trial3	pointing/STIM_011.jpg
2225.734	1.436	1	pointing	Trial3	pointing/STIM_011.jpg
2230.922	0.978	1	pointing	Trial3	pointing/STIM_011.jpg
2234.794	1.159	1	pointing	Trial3	pointing/STIM_011.jpg
2238.89	1.463	1	pointing	Trial3	pointing/STIM_011.jpg
