onset	duration	response_time_ms	trial_type	learning_stage	stimulus	response_port
0.0	1.228	1227.6	incongruent	Block1	incongruent/STIM_000.jpg	100
3.61	0.946	945.9	incongruent	Block1	incongruent/STIM_000.jpg	99
6.777	1.262	1262.2	incongruent	Block1	incongruent/STIM_000.jpg	100
10.741	1.212	1211.7	incongruent	Block1	incongruent/STIM_000.jpg	100
15.183	1.244	1243.5	incongruent	Block1	incongruent/STIM_000.jpg	100
19.944	0.786	785.8	incongruent	Block1	incongruent/STIM_001.jpg	100
22.766	1.142	1141.5	incongruent	Block1	incongruent/STIM_001.jpg	99
27.29	1.106	1106.2	incongruent	Block1	incongruent/STIM_001.jpg	99
31.255	0.677	676.6	incongruent	Block1	incongruent/STIM_001.jpg	100
35.909	1.171	1171.2	incongruent	Block1	incongruent/STIM_001.jpg	100
39.394	1.186	1186.0	incongruent	Block1	incongruent/STIM_002.jpg	99
44.197	0.799	799.2	incongruent	Block1	incongruent/STIM_002.jpg	100
48.923	0.923	923.1	incongruent	Block1	incongruent/STIM_002.jpg	99
52.1	1.341	1340.8	incongruent	Block1	incongruent/STIM_002.jpg	99
55.457	0.909	909.3	incongruent	Block1	incongruent/STIM_002.jpg	100
58.498	1.234	1233.6	incongruent	Block1	incongruent/STIM_003.jpg	100
62.862	1.294	1294.3	incongruent	Block1	incongruent/STIM_003.jpg	100
67.25	1.139	1138.7	incongruent	Block1	incongruent/STIM_003.jpg	100
71.156	1.252	1251.6	incongruent	Block1	incongruent/STIM_003.jpg	100
74.832	1.08	1080.5	incongruent	Block1	incongruent/STIM_003.jpg	100
78.558	0.996	996.2	incongruent	Block1	incongruent/STIM_004.jpg	99
81.944	1.318	1317.9	incongruent	Block1	incongruent/STIM_004.jpg	99
85.859	1.325	1324.8	incongruent	Block1	incongruent/STIM_004.jpg	100
90.981	0.701	700.9	incongruent	Block1	incongruent/STIM_004.jpg	100
95.129	1.129	1128.6	incongruent	Block1	incongruent/STIM_004.jpg	100
100.007	1.414	1414.2	incongruent	Block1	incongruent/STIM_005.jpg	100
103.822	1.086	1085.5	incongruent	Block1	incongruent/STIM_005.jpg	99
108.238	1.132	1132.2	incongruent	Block1	incongruent/STIM_005.jpg	99
113.092	1.138	1137.5	incongruent	Block1	incongruent/STIM_005.jpg	100
117.396	0.79	790.5	incongruent	Block1	incongruent/STIM_005.jpg	99
121.888	1.573	1573.4	incongruent	Block1	incongruent/STIM_006.jpg	100
125.636	1.143	1142.6	incongruent	Block1	incongruent/STIM_006.jpg	100
129.012	1.155	1155.4	incongruent	Block1	incongruent/STIM_006.jpg	99
132.986	1.003	1003.4	incongruent	Block1	incongruent/STIM_006.jpg	99
137.809	0.657	657.4	incongruent	Block1	incongruent/STIM_006.jpg	100
141.688	1.564	1564.2	incongruent	Block1	incongruent/STIM_007.jpg	100
146.049	0.766	765.8	incongruent	Block1	incongruent/STIM_007.jpg	99
150.245	0.879	879.3	incongruent	Block1	incongruent/STIM_007.jpg	99
153.836	0.876	875.8	incongruent	Block1	incongruent/STIM_007.jpg	100
157.22	1.129	1128.8	incongruent	Block1	incongruent/STIM_007.jpg	100
160.865	1.052	1051.8	incongruent	Block1	incongruent/STIM_008.jpg	99
163.994	1.336	1335.9	incongruent	Block1	incongruent/STIM_008.jpg	100
168.664	0.786	786.2	incongruent	Block1	incongruent/STIM_008.jpg	99
172.255	0.794	794.3	incongruent	Block1	incongruent/STIM_008.jpg	99
176.164	1.112	1111.7	incongruent	Block1	incongruent/STIM_008.jpg	100
179.897	1.34	1339.5	incongruent	Block1	incongruent/STIM_009.jpg	99
184.317	1.488	1487.9	incongruent	Block1	incongruent/STIM_009.jpg	99
188.973	0.929	928.9	incongruent	Block1	incongruent/STIM_009.jpg	99
192.544	0.955	954.6	incongruent	Block1	incongruent/STIM_009.jpg	99
196.991	0.771	770.8	incongruent	Block1	incongruent/STIM_009.jpg	99
200.016	1.579	1579.0	incongruent	Block1	incongruent/STIM_010.jpg	100
205.128	1.194	1193.8	incongruent	Block1	incongruent/STIM_010.jpg	100
209.601	1.324	1323.5	incongruent	Block1	incongruent/STIM_010.jpg	100
214.587	1.18	1179.8	incongruent	Block1	incongruent/STIM_010.jpg	100
218.508	1.184	1184.4	incongruent	Block1	incongruent/STIM_010.jpg	100
222.874	1.31	1309.5	incongruent	Block1	incongruent/STIM_011.jpg	100
227.525	1.038	1038.0	incongruent	Block1	incongruent/STIM_011.jpg	100
231.726	1.294	1294.5	incongruent	Block1	incongruent/STIM_011.jpg	100
236.716	0.987	987.2	incongruent	Block1	incongruent/STIM_011.jpg	100
240.372	1.206	1206.5	incongruent	Block1	incongruent/STIM_011.jpg	99
245.099	1.051	1050.7	incongruent	Block1	incongruent/STIM_012.jpg	100
249.007	1.41	1410.0	incongruent	Block1	incongruent/STIM_012.jpg	100
253.745	1.236	1235.7	incongruent	Block1	incongruent/STIM_012.jpg	99
257.889	0.725	725.3	incongruent	Block1	incongruent/STIM_012.jpg	99
262.463	0.959	958.6	incongruent	Block1	incongruent/STIM_012.jpg	100
267.327	0.968	967.7	incongruent	Block1	incongruent/STIM_013.jpg	100
271.352	0.891	890.9	incongruent	Block1	incongruent/STIM_013.jpg	99
275.549	0.995	994.8	incongruent	Block1	incongruent/STIM_013.jpg	99
280.442	1.155	1155.2	incongruent	Block1	incongruent/STIM_013.jpg	100
285.154	1.243	1242.7	incongruent	Block1	incongruent/STIM_013.jpg	100
289.033	1.575	1574.9	incongruent	Block1	incongruent/STIM_014.jpg	100
294.218	1.461	1460.8	incongruent	Block1	incongruent/STIM_014.jpg	99
299.366	1.207	1206.6	incongruent	Block1	incongruent/STIM_014.jpg	99
304.275	1.328	1327.5	incongruent	Block1	incongruent/STIM_014.jpg	100
307.913	0.704	703.5	incongruent	Block1	incongruent/STIM_014.jpg	99
311.586	1.395	1394.7	incongruent	Block1	incongruent/STIM_015.jpg	99
316.947	1.352	1352.0	incongruent	Block1	incongruent/STIM_015.jpg	100
320.911	1.305	1305.2	incongruent	Block1	incongruent/STIM_015.jpg	99
325.239	1.173	1173.4	incongruent	Block1	incongruent/STIM_015.jpg	100
329.48	0.731	730.8	incongruent	Block1	incongruent/STIM_015.jpg	100
333.931	1.25	1250.1	incongruent	Block1	incongruent/STIM_016.jpg	100
338.974	0.787	787.3	incongruent	Block1	incongruent/STIM_016.jpg	99
342.509	1.368	1368.3	incongruent	Block1	incongruent/STIM_016.jpg	100
346.439	0.837	836.6	incongruent	Block1	incongruent/STIM_016.jpg	100
349.877	0.972	972.2	incongruent	Block1	incongruent/STIM_016.jpg	100
353.197	0.788	787.9	incongruent	Block1	incongruent/STIM_017.jpg	99
357.633	1.386	1386.1	incongruent	Block1	incongruent/STIM_017.jpg	99
362.172	1.202	1202.2	incongruent	Block1	incongruent/STIM_017.jpg	100
365.818	1.306	1305.5	incongruent	Block1	incongruent/STIM_017.jpg	99
369.556	0.85	850.0	incongruent	Block1	incongruent/STIM_017.jpg	99
373.533	1.302	1302.3	incongruent	Block1	incongruent/STIM_018.jpg	99
377.871	1.327	1327.0	incongruent	Block1	incongruent/STIM_018.jpg	100
381.627	1.245	1244.6	incongruent	Block1	incongruent/STIM_018.jpg	100
385.395	0.878	877.9	incongruent	Block1	incongruent/STIM_018.jpg	100
389.859	0.738	738.5	incongruent	Block1	incongruent/STIM_018.jpg	100
393.673	1.059	1059.2	incongruent	Block1	incongruent/STIM_019.jpg	100
397.756	1.468	1467.9	incongruent	Block1	incongruent/STIM_019.jpg	99
403.04	0.822	822.1	incongruent	Block1	incongruent/STIM_019.jpg	100
407.124	1.077	1076.7	incongruent	Block1	incongruent/STIM_019.jpg	99
410.504	0.867	867.4	incongruent	Block1	incongruent/STIM_019.jpg	100
415.056	1.018	1017.7	incongruent	Block1	incongruent/STIM_020.jpg	100
419.642	0.891	891.1	incongruent	Block1	incongruent/STIM_020.jpg	100
424.235	0.772	771.6	incongruent	Block1	incongruent/STIM_020.jpg	99
428.094	1.018	1018.3	incongruent	Block1	incongruent/STIM_020.jpg	100
432.455	0.985	985.4	incongruent	Block1	incongruent/STIM_020.jpg	100
436.796	1.332	1331.5	incongruent	Block1	incongruent/STIM_021.jpg	100
440.723	0.795	795.4	incongruent	Block1	incongruent/STIM_021.jpg	99
444.73	1.122	1121.6	incongruent	Block1	incongruent/STIM_021.jpg	99
449.542	0.687	686.8	incongruent	Block1	incongruent/STIM_021.jpg	100
453.82	0.615	614.7	incongruent	Block1	incongruent/STIM_021.jpg	99
458.042	1.004	1003.9	incongruent	Block1	incongruent/STIM_022.jpg	99
461.638	1.01	1010.4	incongruent	Block1	incongruent/STIM_022.jpg	100
464.69	0.811	811.2	incongruent	Block1	incongruent/STIM_022.jpg	100
468.549	0.738	738.4	incongruent	Block1	incongruent/STIM_022.jpg	99
473.149	1.112	1111.8	incongruent	Block1	incongruent/STIM_022.jpg	99
477.904	0.959	959.4	incongruent	Block1	incongruent/STIM_023.jpg	100
482.274	1.449	1449.1	incongruent	Block1	incongruent/STIM_023.jpg	99
487.674	1.125	1125.4	incongruent	Block1	incongruent/STIM_023.jpg	99
491.868	0.925	924.8	incongruent	Block1	incongruent/STIM_023.jpg	100
496.73	0.885	884.8	incongruent	Block1	incongruent/STIM_023.jpg	99
500.411	0.855	855.4	incongruent	Block1	incongruent/STIM_024.jpg	99
503.79	1.103	1103.3	incongruent	Block1	incongruent/STIM_024.jpg	99
507.82	0.709	709.3	incongruent	Block1	incongruent/STIM_024.jpg	99
511.356	0.852	852.1	incongruent	Block1	incongruent/STIM_024.jpg	99
515.164	0.856	856.2	incongruent	Block1	incongruent/STIM_024.jpg	100
520.006	1.235	1235.2	incongruent	Block1	incongruent/STIM_025.jpg	99
524.025	1.348	1347.7	incongruent	Block1	incongruent/STIM_025.jpg	100
528.083	0.959	959.1	incongruent	Block1	incongruent/STIM_025.jpg	100
532.412	1.024	1024.0	incongruent	Block1	incongruent/STIM_025.jpg	99
535.652	0.631	631.0	incongruent	Block1	incongruent/STIM_025.jpg	100
538.796	1.074	1073.8	incongruent	Block1	incongruent/STIM_026.jpg	99
542.705	0.945	944.8	incongruent	Block1	incongruent/STIM_026.jpg	100
547.476	0.854	854.0	incongruent	Block1	incongruent/STIM_026.jpg	100
550.642	0.957	957.1	incongruent	Block1	incongruent/STIM_026.jpg	99
553.61	1.037	1036.6	incongruent	Block1	incongruent/STIM_026.jpg	100
557.797	1.406	1405.6	incongruent	Block1	incongruent/STIM_027.jpg	100
562.672	1.105	1105.4	incongruent	Block1	incongruent/STIM_027.jpg	100
566.368	0.806	805.5	incongruent	Block1	incongruent/STIM_027.jpg	100
569.218	0.642	641.5	incongruent	Block1	incongruent/STIM_027.jpg	99
573.804	1.078	1078.1	incongruent	Block1	incongruent/STIM_027.jpg	99
578.681	1.132	1131.7	incongruent	Block1	incongruent/STIM_028.jpg	100
583.256	0.9	899.8	incongruent	Block1	incongruent/STIM_028.jpg	99
586.282	1.185	1185.4	incongruent	Block1	incongruent/STIM_028.jpg	100
590.569	0.964	964.2	incongruent	Block1	incongruent/STIM_028.jpg	100
594.898	0.612	611.7	incongruent	Block1	incongruent/STIM_028.jpg	99
598.013	1.385	1384.9	incongruent	Block1	incongruent/STIM_029.jpg	99
601.538	1.468	1467.5	incongruent	Block1	incongruent/STIM_029.jpg	100
605.949	0.88	880.0	incongruent	Block1	incongruent/STIM_029.jpg	99
609.46	0.991	991.4	incongruent	Block1	incongruent/STIM_029.jpg	99
613.624	0.84	840.2	incongruent	Block1	incongruent/STIM_029.jpg	99
617.321	0.771	771.0	congruent	Block1	congruent/STIM_000.jpg	100
620.583	0.76	759.7	congruent	Block1	congruent/STIM_000.jpg	100
625.103	0.872	871.5	congruent	Block1	congruent/STIM_000.jpg	99
628.948	0.618	618.3	congruent	Block1	congruent/STIM_000.jpg	100
631.736	0.724	724.3	congruent	Block1	congruent/STIM_000.jpg	100
635.838	0.853	852.6	congruent	Block1	congruent/STIM_001.jpg	99
639.706	0.73	730.5	congruent	Block1	congruent/STIM_001.jpg	100
643.343	0.891	891.1	congruent	Block1	congruent/STIM_001.jpg	99
647.204	0.584	583.7	congruent	Block1	congruent/STIM_001.jpg	99
650.423	0.916	916.3	congruent	Block1	congruent/STIM_001.jpg	100
654.72	0.662	662.2	congruent	Block1	congruent/STIM_002.jpg	99
658.878	0.94	939.5	congruent	Block1	congruent/STIM_002.jpg	100
662.246	0.551	551.2	congruent	Block1	congruent/STIM_002.jpg	99
665.229	0.696	696.0	congruent	Block1	congruent/STIM_002.jpg	99
669.758	0.928	928.4	congruent	Block1	congruent/STIM_002.jpg	99
674.644	0.835	835.1	congruent	Block1	congruent/STIM_003.jpg	99
677.538	0.808	807.8	congruent	Block1	congruent/STIM_003.jpg	99
681.309	0.566	565.5	congruent	Block1	congruent/STIM_003.jpg	99
685.627	0.806	805.8	congruent	Block1	congruent/STIM_003.jpg	100
688.86	0.86	859.8	congruent	Block1	congruent/STIM_003.jpg	99
693.302	0.676	676.2	congruent	Block1	congruent/STIM_004.jpg	99
696.363	0.593	593.3	congruent	Block1	congruent/STIM_004.jpg	100
699.877	0.829	828.7	congruent	Block1	congruent/STIM_004.jpg	99
703.693	0.848	848.3	congruent	Block1	congruent/STIM_004.jpg	99
708.299	0.63	629.8	congruent	Block1	congruent/STIM_004.jpg	99
711.044	0.846	846.1	congruent	Block1	congruent/STIM_005.jpg	99
714.055	0.622	622.4	congruent	Block1	congruent/STIM_005.jpg	99
717.695	0.583	583.0	congruent	Block1	congruent/STIM_005.jpg	100
720.848	0.826	826.4	congruent	Block1	congruent/STIM_005.jpg	99
723.778	0.782	781.8	congruent	Block1	congruent/STIM_005.jpg	99
727.597	0.94	940.0	congruent	Block1	congruent/STIM_006.jpg	99
730.75	0.66	659.5	congruent	Block1	congruent/STIM_006.jpg	100
733.892	0.916	916.4	congruent	Block1	congruent/STIM_006.jpg	100
738.601	0.834	834.3	congruent	Block1	congruent/STIM_006.jpg	100
741.933	0.538	538.3	congruent	Block1	congruent/STIM_006.jpg	99
746.032	0.812	812.3	congruent	Block1	congruent/STIM_007.jpg	99
748.906	0.833	833.2	congruent	Block1	congruent/STIM_007.jpg	100
752.612	0.94	940.1	congruent	Block1	congruent/STIM_007.jpg	99
756.244	0.732	731.8	congruent	Block1	congruent/STIM_007.jpg	99
760.001	0.817	816.7	congruent	Block1	congruent/STIM_007.jpg	99
763.598	0.679	678.7	congruent	Block1	congruent/STIM_008.jpg	100
767.098	0.772	772.3	congruent	Block1	congruent/STIM_008.jpg	100
770.288	0.82	819.8	congruent	Block1	congruent/STIM_008.jpg	100
774.696	0.843	843.4	congruent	Block1	congruent/STIM_008.jpg	99
777.714	0.867	867.2	congruent	Block1	congruent/STIM_008.jpg	99
781.044	0.95	949.5	congruent	Block1	congruent/STIM_009.jpg	99
784.87	0.528	528.0	congruent	Block1	congruent/STIM_009.jpg	100
787.554	0.642	642.3	congruent	Block1	congruent/STIM_009.jpg	100
791.466	0.606	606.5	congruent	Block1	congruent/STIM_009.jpg	100
794.706	0.664	664.1	congruent	Block1	congruent/STIM_009.jpg	100
798.646	0.559	558.6	congruent	Block1	congruent/STIM_010.jpg	99
802.06	0.638	637.7	congruent	Block1	congruent/STIM_010.jpg	100
806.213	0.912	912.1	congruent	Block1	congruent/STIM_010.jpg	100
809.139	0.788	788.5	congruent	Block1	congruent/STIM_010.jpg	99
812.944	0.946	946.0	congruent	Block1	congruent/STIM_010.jpg	100
816.958	0.766	766.1	congruent	Block1	congruent/STIM_011.jpg	99
820.803	0.676	676.5	congruent	Block1	congruent/STIM_011.jpg	99
823.578	0.589	588.8	congruent	Block1	congruent/STIM_011.jpg	100
827.465	0.597	596.6	congruent	Block1	congruent/STIM_011.jpg	99
831.572	0.544	543.9	congruent	Block1	congruent/STIM_011.jpg	99
834.939	0.925	924.6	congruent	Block1	congruent/STIM_012.jpg	99
838.922	0.637	636.9	congruent	Block1	congruent/STIM_012.jpg	99
843.019	0.878	877.8	congruent	Block1	congruent/STIM_012.jpg	100
847.691	0.704	704.1	congruent	Block1	congruent/STIM_012.jpg	100
851.372	0.58	580.5	congruent	Block1	congruent/STIM_012.jpg	99
854.747	0.669	669.2	congruent	Block1	congruent/STIM_013.jpg	100
858.185	0.556	555.5	congruent	Block1	congruent/STIM_013.jpg	100
861.238	0.67	670.2	congruent	Block1	congruent/STIM_013.jpg	100
865.827	0.693	693.3	congruent	Block1	congruent/STIM_013.jpg	99
869.741	0.833	832.7	congruent	Block1	congruent/STIM_013.jpg	100
874.005	0.629	629.1	congruent	Block1	congruent/STIM_014.jpg	99
878.437	0.824	823.8	congruent	Block1	congruent/STIM_014.jpg	100
881.966	0.641	640.6	congruent	Block1	congruent/STIM_014.jpg	99
885.143	0.715	715.0	congruent	Block1	congruent/STIM_014.jpg	99
888.805	0.888	888.1	congruent	Block1	congruent/STIM_014.jpg	100
892.351	0.788	788.5	congruent	Block1	congruent/STIM_015.jpg	99
895.762	0.547	546.6	congruent	Block1	congruent/STIM_015.jpg	99
900.075	0.615	614.8	congruent	Block1	congruent/STIM_015.jpg	100
904.072	0.923	923.2	congruent	Block1	congruent/STIM_015.jpg	100
908.394	0.63	629.5	congruent	Block1	congruent/STIM_015.jpg	100
912.576	0.865	864.7	congruent	Block1	congruent/STIM_016.jpg	99
916.589	0.941	941.3	congruent	Block1	congruent/STIM_016.jpg	99
920.317	0.568	568.2	congruent	Block1	congruent/STIM_016.jpg	99
924.676	0.708	708.0	congruent	Block1	congruent/STIM_016.jpg	99
927.782	0.672	672.0	congruent	Block1	congruent/STIM_016.jpg	100
930.655	0.642	641.5	congruent	Block1	congruent/STIM_017.jpg	99
933.471	0.942	941.6	congruent	Block1	congruent/STIM_017.jpg	100
937.475	0.643	642.7	congruent	Block1	congruent/STIM_017.jpg	99
941.661	0.836	835.7	congruent	Block1	congruent/STIM_017.jpg	99
946.139	0.681	681.2	congruent	Block1	congruent/STIM_017.jpg	100
949.325	0.752	752.4	congruent	Block1	congruent/STIM_018.jpg	100
953.454	0.583	583.2	congruent	Block1	congruent/STIM_018.jpg	100
956.432	0.801	801.2	congruent	Block1	congruent/STIM_018.jpg	100
961.221	0.918	917.5	congruent	Block1	congruent/STIM_018.jpg	99
964.938	0.864	863.5	congruent	Block1	congruent/STIM_018.jpg	100
968.612	0.648	647.7	congruent	Block1	congruent/STIM_019.jpg	99
973.106	0.834	833.9	congruent	Block1	congruent/STIM_019.jpg	100
977.696	0.78	779.7	congruent	Block1	congruent/STIM_019.jpg	100
981.792	0.903	902.8	congruent	Block1	congruent/STIM_019.jpg	100
985.944	0.547	546.7	congruent	Block1	congruent/STIM_019.jpg	99
989.087	0.726	726.1	congruent	Block1	congruent/STIM_020.jpg	99
992.295	0.864	864.4	congruent	Block1	congruent/STIM_020.jpg	100
997.091	0.799	799.3	congruent	Block1	congruent/STIM_020.jpg	99
1000.326	0.859	859.2	congruent	Block1	congruent/STIM_020.jpg	100
1004.414	0.568	568.3	congruent	Block1	congruent/STIM_020.jpg	99
1008.189	0.665	665.3	congruent	Block1	congruent/STIM_021.jpg	99
1011.821	0.852	851.7	congruent	Block1	congruent/STIM_021.jpg	100
1015.904	0.649	648.8	congruent	Block1	congruent/STIM_021.jpg	99
1019.134	0.683	683.1	congruent	Block1	congruent/STIM_021.jpg	99
1023.375	0.87	869.9	congruent	Block1	congruent/STIM_021.jpg	99
1027.679	0.796	796.1	congruent	Block1	congruent/STIM_022.jpg	99
1031.096	0.56	559.6	congruent	Block1	congruent/STIM_022.jpg	100
1034.245	0.923	923.2	congruent	Block1	congruent/STIM_022.jpg	100
1037.984	0.587	586.7	congruent	Block1	congruent/STIM_022.jpg	100
1042.289	0.865	865.2	congruent	Block1	congruent/STIM_022.jpg	99
1046.352	0.656	656.5	congruent	Block1	congruent/STIM_023.jpg	99
1049.273	0.688	687.7	congruent	Block1	congruent/STIM_023.jpg	99
1052.879	0.708	708.1	congruent	Block1	congruent/STIM_023.jpg	99
1056.397	0.766	765.9	congruent	Block1	congruent/STIM_023.jpg	99
1059.977	0.762	762.5	congruent	Block1	congruent/STIM_023.jpg	100
1063.604	0.66	660.5	congruent	Block1	congruent/STIM_024.jpg	100
1066.519	0.92	920.1	congruent	Block1	congruent/STIM_024.jpg	100
1070.05	0.891	890.8	congruent	Block1	congruent/STIM_024.jpg	100
1073.663	0.584	583.9	congruent	Block1	congruent/STIM_024.jpg	100
1076.314	0.886	885.6	congruent	Block1	congruent/STIM_024.jpg	99
1079.414	0.863	863.1	congruent	Block1	congruent/STIM_025.jpg	100
1082.716	0.924	923.9	congruent	Block1	congruent/STIM_025.jpg	100
1085.712	0.631	631.3	congruent	Block1	congruent/STIM_025.jpg	100
1089.762	0.888	887.7	congruent	Block1	congruent/STIM_025.jpg	100
1093.062	0.664	663.5	congruent	Block1	congruent/STIM_025.jpg	99
1096.15	0.642	642.4	congruent	Block1	congruent/STIM_026.jpg	99
1100.342	0.806	805.8	congruent	Block1	congruent/STIM_026.jpg	100
1104.39	0.934	934.1	congruent	Block1	congruent/STIM_026.jpg	100
1107.563	0.616	616.2	congruent	Block1	congruent/STIM_026.jpg	99
1112.02	0.749	749.3	congruent	Block1	congruent/STIM_026.jpg	99
1115.015	0.634	634.0	congruent	Block1	congruent/STIM_027.jpg	99
1117.739	0.646	645.8	congruent	Block1	congruent/STIM_027.jpg	99
1121.199	0.652	652.3	congruent	Block1	congruent/STIM_027.jpg	100
1124.61	0.908	908.2	congruent	Block1	congruent/STIM_027.jpg	99
1128.568	0.789	788.9	congruent	Block1	congruent/STIM_027.jpg	100
1131.724	0.758	758.2	congruent	Block1	congruent/STIM_028.jpg	99
1134.822	0.702	701.9	congruent	Block1	congruent/STIM_028.jpg	99
1138.528	0.751	751.1	congruent	Block1	congruent/STIM_028.jpg	100
1142.041	0.646	646.4	congruent	Block1	congruent/STIM_028.jpg	100
1146.358	0.654	653.9	congruent	Block1	congruent/STIM_028.jpg	99
1149.464	0.889	889.3	congruent	Block1	congruent/STIM_029.jpg	99
1153.37	0.652	651.7	congruent	Block1	congruent/STIM_029.jpg	99
1156.92	0.724	724.4	congruent	Block1	congruent/STIM_029.jpg	100
1160.546	0.593	592.7	congruent	Block1	congruent/STIM_029.jpg	100
1163.755	0.588	588.5	congruent	Block1	congruent/STIM_029.jpg	99
1166.917	0.864	864.3	incongruent	Block2	incongruent/STIM_000.jpg	100
1171.235	0.748	748.4	incongruent	Block2	incongruent/STIM_000.jpg	99
1174.117	1.147	1147.4	incongruent	Block2	incongruent/STIM_000.jpg	100
1177.509	0.727	727.0	incongruent	Block2	incongruent/STIM_000.jpg	99
1180.468	1.028	1027.9	incongruent	Block2	incongruent/STIM_000.jpg	99
1183.644	1.317	1317.1	incongruent	Block2	incongruent/STIM_001.jpg	99
1187.795	1.002	1002.1	incongruent	Block2	incongruent/STIM_001.jpg	100
1192.219	0.849	848.7	incongruent	Block2	incongruent/STIM_001.jpg	100
1196.256	1.021	1020.6	incongruent	Block2	incongruent/STIM_001.jpg	100
1200.387	0.705	705.1	incongruent	Block2	incongruent/STIM_001.jpg	99
1204.401	0.646	646.5	incongruent	Block2	incongruent/STIM_002.jpg	100
1207.635	0.658	658.5	incongruent	Block2	incongruent/STIM_002.jpg	99
1210.964	0.628	628.3	incongruent	Block2	incongruent/STIM_002.jpg	100
1214.606	0.541	541.4	incongruent	Block2	incongruent/STIM_002.jpg	100
1218.056	0.891	891.2	incongruent	Block2	incongruent/STIM_002.jpg	99
1222.066	1.079	1079.1	incongruent	Block2	incongruent/STIM_003.jpg	99
1225.218	0.662	662.2	incongruent	Block2	incongruent/STIM_003.jpg	99
1227.912	0.569	569.0	incongruent	Block2	incongruent/STIM_003.jpg	100
1232.183	0.534	533.8	incongruent	Block2	incongruent/STIM_003.jpg	100
1235.534	1.041	1040.8	incongruent	Block2	incongruent/STIM_003.jpg	99
1239.655	0.647	647.2	incongruent	Block2	incongruent/STIM_004.jpg	99
1242.575	0.79	790.0	incongruent	Block2	incongruent/STIM_004.jpg	99
1246.539	0.56	560.4	incongruent	Block2	incongruent/STIM_004.jpg	100
1249.583	0.579	579.1	incongruent	Block2	incongruent/STIM_004.jpg	99
1254.078	1.061	1060.9	incongruent	Block2	incongruent/STIM_004.jpg	100
1258.224	0.74	740.3	incongruent	Block2	incongruent/STIM_005.jpg	99
1262.753	1.156	1156.3	incongruent	Block2	incongruent/STIM_005.jpg	99
1266.057	1.007	1007.0	incongruent	Block2	incongruent/STIM_005.jpg	99
1269.338	1.105	1104.9	incongruent	Block2	incongruent/STIM_005.jpg	100
1273.27	1.077	1076.8	incongruent	Block2	incongruent/STIM_005.jpg	99
1276.813	1.258	1257.5	incongruent	Block2	incongruent/STIM_006.jpg	99
1281.838	1.208	1207.9	incongruent	Block2	incongruent/STIM_006.jpg	99
1286.451	0.626	626.2	incongruent	Block2	incongruent/STIM_006.jpg	99
1289.651	1.104	1103.5	incongruent	Block2	incongruent/STIM_006.jpg	99
1293.197	0.617	616.8	incongruent	Block2	incongruent/STIM_006.jpg	99
1297.533	1.228	1228.2	incongruent	Block2	incongruent/STIM_007.jpg	99
1302.694	1.258	1258.3	incongruent	Block2	incongruent/STIM_007.jpg	100
1306.811	0.564	563.9	incongruent	Block2	incongruent/STIM_007.jpg	100
1310.798	0.616	615.8	incongruent	Block2	incongruent/STIM_007.jpg	100
1315.267	0.552	552.5	incongruent	Block2	incongruent/STIM_007.jpg	99
1318.192	1.112	1112.2	incongruent	Block2	incongruent/STIM_008.jpg	99
1321.575	0.907	906.7	incongruent	Block2	incongruent/STIM_008.jpg	99
1325.81	0.949	948.9	incongruent	Block2	incongruent/STIM_008.jpg	99
1328.898	1.077	1077.0	incongruent	Block2	incongruent/STIM_008.jpg	99
1333.638	0.708	708.2	incongruent	Block2	incongruent/STIM_008.jpg	99
1338.039	1.155	1154.7	incongruent	Block2	incongruent/STIM_009.jpg	100
1342.667	1.06	1060.4	incongruent	Block2	incongruent/STIM_009.jpg	99
1345.744	0.691	690.7	incongruent	Block2	incongruent/STIM_009.jpg	100
1349.582	1.098	1098.4	incongruent	Block2	incongruent/STIM_009.jpg	99
1353.874	0.561	561.3	incongruent	Block2	incongruent/STIM_009.jpg	99
1357.019	1.179	1179.2	incongruent	Block2	incongruent/STIM_010.jpg	100
1361.523	0.837	837.0	incongruent	Block2	incongruent/STIM_010.jpg	100
1365.994	0.815	814.6	incongruent	Block2	incongruent/STIM_010.jpg	100
1369.294	0.601	601.1	incongruent	Block2	incongruent/STIM_010.jpg	99
1372.046	0.977	976.7	incongruent	Block2	incongruent/STIM_010.jpg	99
1376.15	0.756	755.9	incongruent	Block2	incongruent/STIM_011.jpg	99
1379.043	0.931	931.2	incongruent	Block2	incongruent/STIM_011.jpg	99
1383.493	1.014	1014.1	incongruent	Block2	incongruent/STIM_011.jpg	99
1386.993	0.637	637.3	incongruent	Block2	incongruent/STIM_011.jpg	99
1390.765	0.871	870.7	incongruent	Block2	incongruent/STIM_011.jpg	100
1394.373	0.99	989.8	incongruent	Block2	incongruent/STIM_012.jpg	100
1399.2	0.719	719.4	incongruent	Block2	incongruent/STIM_012.jpg	100
1403.606	0.652	652.5	incongruent	Block2	incongruent/STIM_012.jpg	99
1406.587	0.801	801.1	incongruent	Block2	incongruent/STIM_012.jpg	99
1411.16	0.679	678.6	incongruent	Block2	incongruent/STIM_012.jpg	99
1413.907	1.266	1265.9	incongruent	Block2	incongruent/STIM_013.jpg	99
1417.256	1.183	1182.9	incongruent	Block2	incongruent/STIM_013.jpg	100
1422.118	0.773	773.4	incongruent	Block2	incongruent/STIM_013.jpg	99
1425.257	1.049	1049.2	incongruent	Block2	incongruent/STIM_013.jpg	99
1428.727	0.904	903.8	incongruent	Block2	incongruent/STIM_013.jpg	99
1433.037	0.749	748.7	incongruent	Block2	incongruent/STIM_014.jpg	99
1436.742	1.127	1127.1	incongruent	Block2	incongruent/STIM_014.jpg	100
1440.229	0.653	653.2	incongruent	Block2	incongruent/STIM_014.jpg	100
1443.431	1.004	1003.5	incongruent	Block2	incongruent/STIM_014.jpg	99
1447.885	0.954	953.7	incongruent	Block2	incongruent/STIM_014.jpg	100
1450.882	1.215	1214.9	incongruent	Block2	incongruent/STIM_015.jpg	99
1455.413	0.804	803.7	incongruent	Block2	incongruent/STIM_015.jpg	99
1458.403	0.865	865.4	incongruent	Block2	incongruent/STIM_015.jpg	99
1462.965	1.074	1073.9	incongruent	Block2	incongruent/STIM_015.jpg	99
1467.094	0.98	979.9	incongruent	Block2	incongruent/STIM_015.jpg	100
1472.025	1.245	1245.3	incongruent	Block2	incongruent/STIM_016.jpg	100
1475.319	1.174	1173.7	incongruent	Block2	incongruent/STIM_016.jpg	100
1480.382	1.172	1172.2	incongruent	Block2	incongruent/STIM_016.jpg	99
1483.983	0.918	917.8	incongruent	Block2	incongruent/STIM_016.jpg	100
1487.233	0.724	724.0	incongruent	Block2	incongruent/STIM_016.jpg	99
1490.166	0.795	794.8	incongruent	Block2	incongruent/STIM_017.jpg	99
1494.828	0.867	866.7	incongruent	Block2	incongruent/STIM_017.jpg	99
1498.463	0.812	812.4	incongruent	Block2	incongruent/STIM_017.jpg	99
1501.279	1.024	1023.8	incongruent	Block2	incongruent/STIM_017.jpg	100
1504.428	1.027	1026.8	incongruent	Block2	incongruent/STIM_017.jpg	100
1509.29	0.76	760.3	incongruent	Block2	incongruent/STIM_018.jpg	100
1513.969	1.144	1144.0	incongruent	Block2	incongruent/STIM_018.jpg	99
1518.36	1.098	1097.8	incongruent	Block2	incongruent/STIM_018.jpg	99
1522.95	0.546	545.8	incongruent	Block2	incongruent/STIM_018.jpg	100
1526.555	0.705	704.8	incongruent	Block2	incongruent/STIM_018.jpg	99
1530.411	0.63	630.2	incongruent	Block2	incongruent/STIM_019.jpg	99
1533.445	0.877	877.1	incongruent	Block2	incongruent/STIM_019.jpg	100
1538.105	0.736	736.4	incongruent	Block2	incongruent/STIM_019.jpg	100
1541.405	0.766	765.8	incongruent	Block2	incongruent/STIM_019.jpg	100
1545.551	0.757	756.9	incongruent	Block2	incongruent/STIM_019.jpg	99
1549.822	1.242	1241.7	incongruent	Block2	incongruent/STIM_020.jpg	99
1553.29	1.18	1179.9	incongruent	Block2	incongruent/STIM_020.jpg	100
1557.102	1.149	1149.3	incongruent	Block2	incongruent/STIM_020.jpg	99
1561.046	1.047	1047.2	incongruent	Block2	incongruent/STIM_020.jpg	99
1565.065	1.006	1005.6	incongruent	Block2	incongruent/STIM_020.jpg	99
1569.004	0.705	704.7	incongruent	Block2	incongruent/STIM_021.jpg	100
1572.447	0.794	793.5	incongruent	Block2	incongruent/STIM_021.jpg	99
1576.913	1.158	1157.6	incongruent	Block2	incongruent/STIM_021.jpg	99
1580.655	0.866	865.5	incongruent	Block2	incongruent/STIM_021.jpg	100
1584.912	0.76	760.1	incongruent	Block2	incongruent/STIM_021.jpg	100
1587.906	0.936	935.7	incongruent	Block2	incongruent/STIM_022.jpg	100
1591.123	0.602	602.3	incongruent	Block2	incongruent/STIM_022.jpg	100
1594.204	0.823	823.1	incongruent	Block2	incongruent/STIM_022.jpg	100
1598.988	0.698	697.6	incongruent	Block2	incongruent/STIM_022.jpg	100
1602.412	0.556	555.9	incongruent	Block2	incongruent/STIM_022.jpg	99
1606.372	1.26	1259.5	incongruent	Block2	incongruent/STIM_023.jpg	99
1609.73	1.165	1164.8	incongruent	Block2	incongruent/STIM_023.jpg	100
1614.61	0.584	584.2	incongruent	Block2	incongruent/STIM_023.jpg	100
1618.77	0.652	652.5	incongruent	Block2	incongruent/STIM_023.jpg	100
1621.894	0.819	818.8	incongruent	Block2	incongruent/STIM_023.jpg	99
1626.573	1.024	1023.5	incongruent	Block2	incongruent/STIM_024.jpg	99
1630.619	0.842	841.6	incongruent	Block2	incongruent/STIM_024.jpg	100
1635.32	1.081	1081.4	incongruent	Block2	incongruent/STIM_024.jpg	99
1639.964	0.989	988.6	incongruent	Block2	incongruent/STIM_024.jpg	99
1643.365	0.547	547.0	incongruent	Block2	incongruent/STIM_024.jpg	100
1647.885	0.832	832.5	incongruent	Block2	incongruent/STIM_025.jpg	100
1650.885	1.013	1012.8	incongruent	Block2	incongruent/STIM_025.jpg	99
1655.632	1.051	1050.9	incongruent	Block2	incongruent/STIM_025.jpg	99
1659.916	0.615	614.7	incongruent	Block2	incongruent/STIM_025.jpg	99
1664.285	0.795	794.7	incongruent	Block2	incongruent/STIM_025.jpg	100
1667.905	0.918	918.2	incongruent	Block2	incongruent/STIM_026.jpg	99
1670.93	0.642	642.4	incongruent	Block2	incongruent/STIM_026.jpg	99
1674.695	1.052	1052.1	incongruent	Block2	incongruent/STIM_026.jpg	99
1679.497	1.097	1097.0	incongruent	Block2	incongruent/STIM_026.jpg	99
1682.97	0.694	694.3	incongruent	Block2	incongruent/STIM_026.jpg	99
1685.755	0.652	652.2	incongruent	Block2	incongruent/STIM_027.jpg	99
1689.596	0.783	783.4	incongruent	Block2	incongruent/STIM_027.jpg	100
1692.583	0.555	555.1	incongruent	Block2	incongruent/STIM_027.jpg	100
1696.932	0.77	770.2	incongruent	Block2	incongruent/STIM_027.jpg	99
1699.993	0.676	676.0	incongruent	Block2	incongruent/STIM_027.jpg	100
1703.22	1.03	1029.5	incongruent	Block2	incongruent/STIM_028.jpg	99
1706.639	0.955	954.6	incongruent	Block2	incongruent/STIM_028.jpg	100
1710.258	1.068	1067.7	incongruent	Block2	incongruent/STIM_028.jpg	99
1714.948	0.558	558.0	incongruent	Block2	incongruent/STIM_028.jpg	100
1718.961	0.522	522.4	incongruent	Block2	incongruent/STIM_028.jpg	99
1722.949	1.132	1132.3	incongruent	Block2	incongruent/STIM_029.jpg	100
1727.628	0.759	758.9	incongruent	Block2	incongruent/STIM_029.jpg	99
1730.404	1.08	1080.0	incongruent	Block2	incongruent/STIM_029.jpg	100
1735.146	0.67	670.0	incongruent	Block2	incongruent/STIM_029.jpg	99
1739.772	0.736	735.8	incongruent	Block2	incongruent/STIM_029.jpg	99
1743.156	0.802	801.6	congruent	Block2	congruent/STIM_000.jpg	100
1747.549	0.847	846.9	congruent	Block2	congruent/STIM_000.jpg	99
1751.366	0.926	926.3	congruent	Block2	congruent/STIM_000.jpg	100
1755.576	0.701	700.6	congruent	Block2	congruent/STIM_000.jpg	99
1759.323	0.808	808.5	congruent	Block2	congruent/STIM_000.jpg	99
1763.829	0.654	654.3	congruent	Block2	congruent/STIM_001.jpg	99
1767.522	0.868	868.3	congruent	Block2	congruent/STIM_001.jpg	100
1771.739	0.77	769.9	congruent	Block2	congruent/STIM_001.jpg	99
1776.338	0.775	775.1	congruent	Block2	congruent/STIM_001.jpg	99
1779.465	0.778	778.5	congruent	Block2	congruent/STIM_001.jpg	99
1783.401	0.664	663.8	congruent	Block2	congruent/STIM_002.jpg	99
1787.777	0.931	930.7	congruent	Block2	congruent/STIM_002.jpg	99
1792.211	0.758	758.4	congruent	Block2	congruent/STIM_002.jpg	100
1796.649	0.93	929.7	congruent	Block2	congruent/STIM_002.jpg	99
1799.712	0.835	835.4	congruent	Block2	congruent/STIM_002.jpg	100
1803.374	0.862	862.2	congruent	Block2	congruent/STIM_003.jpg	99
1807.925	0.832	831.8	congruent	Block2	congruent/STIM_003.jpg	99
1812.351	0.753	753.0	congruent	Block2	congruent/STIM_003.jpg	99
1816.819	0.731	731.1	congruent	Block2	congruent/STIM_003.jpg	100
1820.953	0.715	715.0	congruent	Block2	congruent/STIM_003.jpg	99
1823.887	0.578	577.8	congruent	Block2	congruent/STIM_004.jpg	100
1826.54	0.762	762.5	congruent	Block2	congruent/STIM_004.jpg	100
1829.879	0.664	664.2	congruent	Block2	congruent/STIM_004.jpg	100
1833.017	0.935	935.2	congruent	Block2	congruent/STIM_004.jpg	100
1836.82	0.887	886.8	congruent	Block2	congruent/STIM_004.jpg	100
1839.944	0.725	724.6	congruent	Block2	congruent/STIM_005.jpg	99
1844.236	0.92	919.5	congruent	Block2	congruent/STIM_005.jpg	99
1848.14	0.644	643.6	congruent	Block2	congruent/STIM_005.jpg	99
1851.027	0.725	724.7	congruent	Block2	congruent/STIM_005.jpg	100
1855.211	0.726	726.0	congruent	Block2	congruent/STIM_005.jpg	99
1858.523	0.686	686.2	congruent	Block2	congruent/STIM_006.jpg	100
1861.867	0.88	879.6	congruent	Block2	congruent/STIM_006.jpg	99
1866.325	0.618	618.5	congruent	Block2	congruent/STIM_006.jpg	99
1869.732	0.565	564.9	congruent	Block2	congruent/STIM_006.jpg	99
1874.188	0.77	770.4	congruent	Block2	congruent/STIM_006.jpg	99
1878.086	0.723	723.1	congruent	Block2	congruent/STIM_007.jpg	99
1881.382	0.794	793.8	congruent	Block2	congruent/STIM_007.jpg	100
1885.498	0.674	673.5	congruent	Block2	congruent/STIM_007.jpg	99
1888.237	0.827	827.2	congruent	Block2	congruent/STIM_007.jpg	99
1892.446	0.853	853.4	congruent	Block2	congruent/STIM_007.jpg	100
1897.216	0.588	588.4	congruent	Block2	congruent/STIM_008.jpg	100
1901.457	0.697	697.3	congruent	Block2	congruent/STIM_008.jpg	99
1904.367	0.672	671.6	congruent	Block2	congruent/STIM_008.jpg	99
1908.658	0.815	815.2	congruent	Block2	congruent/STIM_008.jpg	100
1912.89	0.867	866.8	congruent	Block2	congruent/STIM_008.jpg	100
1916.453	0.828	827.7	congruent	Block2	congruent/STIM_009.jpg	100
1920.3	0.553	552.7	congruent	Block2	congruent/STIM_009.jpg	99
1924.734	0.695	694.8	congruent	Block2	congruent/STIM_009.jpg	99
1928.744	0.732	731.8	congruent	Block2	congruent/STIM_009.jpg	100
1932.465	0.594	593.5	congruent	Block2	congruent/STIM_009.jpg	99
1936.201	0.598	597.7	congruent	Block2	congruent/STIM_010.jpg	99
1938.862	0.881	880.8	congruent	Block2	congruent/STIM_010.jpg	99
1942.563	0.67	670.4	congruent	Block2	congruent/STIM_010.jpg	100
1946.637	0.735	735.0	congruent	Block2	congruent/STIM_010.jpg	99
1949.403	0.703	702.6	congruent	Block2	congruent/STIM_010.jpg	99
1952.25	0.566	566.0	congruent	Block2	congruent/STIM_011.jpg	100
1956.808	0.553	553.0	congruent	Block2	congruent/STIM_011.jpg	99
1960.81	0.942	941.9	congruent	Block2	congruent/STIM_011.jpg	99
1965.233	0.572	572.1	congruent	Block2	congruent/STIM_011.jpg	100
1967.935	0.898	897.8	congruent	Block2	congruent/STIM_011.jpg	99
1971.304	0.754	753.9	congruent	Block2	congruent/STIM_012.jpg	99
1975.605	0.708	708.5	congruent	Block2	congruent/STIM_012.jpg	99
1979.405	0.756	756.2	congruent	Block2	congruent/STIM_012.jpg	100
1982.192	0.699	699.4	congruent	Block2	congruent/STIM_012.jpg	99
1985.437	0.728	727.9	congruent	Block2	congruent/STIM_012.jpg	100
1988.465	0.622	621.5	congruent	Block2	congruent/STIM_013.jpg	99
1992.27	0.533	533.2	congruent	Block2	congruent/STIM_013.jpg	100
1995.342	0.626	626.3	congruent	Block2	congruent/STIM_013.jpg	100
1998.711	0.65	649.5	congruent	Block2	congruent/STIM_013.jpg	100
2003.092	0.803	803.1	congruent	Block2	congruent/STIM_013.jpg	99
2007.26	0.745	745.4	congruent	Block2	congruent/STIM_014.jpg	100
2011.146	0.704	703.6	congruent	Block2	congruent/STIM_014.jpg	99
2014.775	0.756	756.2	congruent	Block2	congruent/STIM_014.jpg	99
2018.767	0.591	590.6	congruent	Block2	congruent/STIM_014.jpg	99
2022.83	0.674	673.8	congruent	Block2	congruent/STIM_014.jpg	99
2027.112	0.736	735.9	congruent	Block2	congruent/STIM_015.jpg	99
2029.985	0.91	909.9	congruent	Block2	congruent/STIM_015.jpg	99
2034.399	0.754	754.0	congruent	Block2	congruent/STIM_015.jpg	99
2038.175	0.675	675.0	congruent	Block2	congruent/STIM_015.jpg	100
2042.388	0.577	577.3	congruent	Block2	congruent/STIM_015.jpg	100
2045.61	0.833	833.1	congruent	Block2	congruent/STIM_016.jpg	99
2049.719	0.865	865.4	congruent	Block2	congruent/STIM_016.jpg	99
2053.709	0.587	586.6	congruent	Block2	congruent/STIM_016.jpg	99
2056.728	0.829	829.0	congruent	Block2	congruent/STIM_016.jpg	100
2061.537	0.791	790.8	congruent	Block2	congruent/STIM_016.jpg	99
2065.121	0.598	597.7	congruent	Block2	congruent/STIM_017.jpg	99
2068.6	0.601	601.1	congruent	Block2	congruent/STIM_017.jpg	100
2072.05	0.89	890.4	congruent	Block2	congruent/STIM_017.jpg	100
2075.644	0.63	629.9	congruent	Block2	congruent/STIM_017.jpg	99
2079.008	0.898	897.9	congruent	Block2	congruent/STIM_017.jpg	99
2082.506	0.646	646.5	congruent	Block2	congruent/STIM_018.jpg	99
2087.12	0.627	627.2	congruent	Block2	congruent/STIM_018.jpg	100
2091.666	0.936	935.6	congruent	Block2	congruent/STIM_018.jpg	100
2094.889	0.622	622.3	congruent	Block2	congruent/STIM_018.jpg	99
2099.283	0.799	799.2	congruent	Block2	congruent/STIM_018.jpg	99
2102.351	0.835	835.3	congruent	Block2	congruent/STIM_019.jpg	99
2105.989	0.714	714.2	congruent	Block2	congruent/STIM_019.jpg	100
2108.835	0.659	658.9	congruent	Block2	congruent/STIM_019.jpg	99
2112.127	0.618	617.7	congruent	Block2	congruent/STIM_019.jpg	100
2116.236	0.796	796.1	congruent	Block2	congruent/STIM_019.jpg	100
2119.035	0.835	835.4	congruent	Block2	congruent/STIM_020.jpg	100
2123.322	0.922	921.8	congruent	Block2	congruent/STIM_020.jpg	99
2127.691	0.758	758.4	congruent	Block2	congruent/STIM_020.jpg	99
2130.824	0.888	888.1	congruent	Block2	congruent/STIM_020.jpg	100
2134.945	0.767	766.6	congruent	Block2	congruent/STIM_020.jpg	100
2139.626	0.59	590.1	congruent	Block2	congruent/STIM_021.jpg	99
2142.415	0.851	850.6	congruent	Block2	congruent/STIM_021.jpg	100
2145.352	0.53	529.7	congruent	Block2	congruent/STIM_021.jpg	99
2148.868	0.815	815.2	congruent	Block2	congruent/STIM_021.jpg	100
2152.717	0.528	528.0	congruent	Block2	congruent/STIM_021.jpg	100
2156.377	0.774	774.4	congruent	Block2	congruent/STIM_022.jpg	100
2159.471	0.754	754.4	congruent	Block2	congruent/STIM_022.jpg	100
2163.539	0.801	800.8	congruent	Block2	congruent/STIM_022.jpg	100
2168.326	0.696	696.4	congruent	Block2	congruent/STIM_022.jpg	100
2172.902	0.592	591.5	congruent	Block2	congruent/STIM_022.jpg	99
2176.465	0.602	602.3	congruent	Block2	congruent/STIM_023.jpg	99
2180.575	0.742	742.4	congruent	Block2	congruent/STIM_023.jpg	100
2184.759	0.669	669.3	congruent	Block2	congruent/STIM_023.jpg	99
2189.003	0.771	771.3	congruent	Block2	congruent/STIM_023.jpg	99
2192.558	0.798	798.2	congruent	Block2	congruent/STIM_023.jpg	100
2196.787	0.9	899.7	congruent	Block2	congruent/STIM_024.jpg	100
2200.213	0.686	686.2	congruent	Block2	congruent/STIM_024.jpg	99
2203.178	0.604	604.5	congruent	Block2	congruent/STIM_024.jpg	99
2207.688	0.69	690.5	congruent	Block2	congruent/STIM_024.jpg	100
2211.767	0.834	834.3	congruent	Block2	congruent/STIM_024.jpg	99
2216.345	0.553	552.9	congruent	Block2	congruent/STIM_025.jpg	99
2219.416	0.762	762.0	congruent	Block2	congruent/STIM_025.jpg	99
2223.589	0.664	663.6	congruent	Block2	congruent/STIM_025.jpg	99
2227.485	0.632	631.9	congruent	Block2	congruent/STIM_025.jpg	100
2231.577	0.558	557.8	congruent	Block2	congruent/STIM_025.jpg	100
2234.858	0.882	881.5	congruent	Block2	congruent/STIM_026.jpg	99
2238.235	0.786	785.5	congruent	Block2	congruent/STIM_026.jpg	100
2242.015	0.743	743.1	congruent	Block2	congruent/STIM_026.jpg	100
2246.293	0.885	885.1	congruent	Block2	congruent/STIM_026.jpg	100
2251.086	0.855	855.2	congruent	Block2	congruent/STIM_026.jpg	99
2255.008	0.749	749.3	congruent	Block2	congruent/STIM_027.jpg	100
2258.322	0.912	912.4	congruent	Block2	congruent/STIM_027.jpg	99
2261.739	0.837	837.4	congruent	Block2	congruent/STIM_027.jpg	99
2265.815	0.935	935.4	congruent	Block2	congruent/STIM_027.jpg	99
2268.757	0.578	577.9	congruent	Block2	congruent/STIM_027.jpg	99
2271.467	0.705	705.1	congruent	Block2	congruent/STIM_028.jpg	100
2274.933	0.644	643.7	congruent	Block2	congruent/STIM_028.jpg	100
2278.543	0.81	809.6	congruent	Block2	congruent/STIM_028.jpg	100
2283.301	0.7	699.5	congruent	Block2	congruent/STIM_028.jpg	100
2286.476	0.582	581.9	congruent	Block2	congruent/STIM_028.jpg	100
2290.737	0.609	609.1	congruent	Block2	congruent/STIM_029.jpg	100
2293.565	0.922	921.9	congruent	Block2	congruent/STIM_029.jpg	100
2296.795	0.788	788.2	congruent	Block2	congruent/STIM_029.jpg	100
2299.953	0.753	752.7	congruent	Block2	congruent/STIM_029.jpg	100
2303.965	0.598	598.1	congruent	Block2	congruent/STIM_029.jpg	99
2308.389	0.606	606.0	incongruent	Block3	incongruent/STIM_000.jpg	100
2312.461	1.002	1001.8	incongruent	Block3	incongruent/STIM_000.jpg	100
2317.165	1.021	1021.3	incongruent	Block3	incongruent/STIM_000.jpg	100
2321.244	1.074	1074.1	incongruent	Block3	incongruent/STIM_000.jpg	100
2324.644	0.651	650.9	incongruent	Block3	incongruent/STIM_000.jpg	100
2328.435	0.742	742.3	incongruent	Block3	incongruent/STIM_001.jpg	99
2332.264	0.79	789.8	incongruent	Block3	incongruent/STIM_001.jpg	99
2336.027	0.611	610.7	incongruent	Block3	incongruent/STIM_001.jpg	100
2339.242	0.948	948.4	incongruent	Block3	incongruent/STIM_001.jpg	99
2344.001	0.757	756.7	incongruent	Block3	incongruent/STIM_001.jpg	99
2348.397	0.54	539.8	incongruent	Block3	incongruent/STIM_002.jpg	100
2351.851	0.968	967.9	incongruent	Block3	incongruent/STIM_002.jpg	100
2356.535	0.775	775.3	incongruent	Block3	incongruent/STIM_002.jpg	99
2361.279	1.055	1055.4	incongruent	Block3	incongruent/STIM_002.jpg	99
2364.428	0.581	580.6	incongruent	Block3	incongruent/STIM_002.jpg	100
2368.455	1.036	1036.5	incongruent	Block3	incongruent/STIM_003.jpg	100
2373.24	0.766	766.5	incongruent	Block3	incongruent/STIM_003.jpg	100
2377.021	0.824	824.4	incongruent	Block3	incongruent/STIM_003.jpg	99
2380.719	0.926	926.0	incongruent	Block3	incongruent/STIM_003.jpg	99
2384.645	0.632	632.4	incongruent	Block3	incongruent/STIM_003.jpg	99
2389.256	0.797	796.9	incongruent	Block3	incongruent/STIM_004.jpg	100
2392.898	0.981	981.0	incongruent	Block3	incongruent/STIM_004.jpg	99
2396.162	0.734	733.9	incongruent	Block3	incongruent/STIM_004.jpg	100
2399.074	0.665	664.9	incongruent	Block3	incongruent/STIM_004.jpg	100
2401.868	0.548	547.8	incongruent	Block3	incongruent/STIM_004.jpg	100
2404.815	0.834	834.1	incongruent	Block3	incongruent/STIM_005.jpg	99
2408.189	0.913	912.9	incongruent	Block3	incongruent/STIM_005.jpg	100
2412.749	0.634	634.3	incongruent	Block3	incongruent/STIM_005.jpg	99
2417.138	0.964	964.2	incongruent	Block3	incongruent/STIM_005.jpg	100
2420.918	1.072	1071.6	incongruent	Block3	incongruent/STIM_005.jpg	100
2424.848	1.009	1009.1	incongruent	Block3	incongruent/STIM_006.jpg	100
2428.873	0.605	604.6	incongruent	Block3	incongruent/STIM_006.jpg	99
2432.433	0.586	586.2	incongruent	Block3	incongruent/STIM_006.jpg	100
2436.007	0.637	637.2	incongruent	Block3	incongruent/STIM_006.jpg	99
2439.039	0.644	643.5	incongruent	Block3	incongruent/STIM_006.jpg	100
2443.427	0.66	660.1	incongruent	Block3	incongruent/STIM_007.jpg	100
2446.354	0.794	794.5	incongruent	Block3	incongruent/STIM_007.jpg	99
2450.335	0.774	774.1	incongruent	Block3	incongruent/STIM_007.jpg	100
2455.103	0.84	840.3	incongruent	Block3	incongruent/STIM_007.jpg	100
2458.941	0.889	888.6	incongruent	Block3	incongruent/STIM_007.jpg	99
2462.84	0.607	607.3	incongruent	Block3	incongruent/STIM_008.jpg	100
2466.24	0.585	585.3	incongruent	Block3	incongruent/STIM_008.jpg	100
2469.471	0.551	550.6	incongruent	Block3	incongruent/STIM_008.jpg	100
2473.295	1.072	1071.6	incongruent	Block3	incongruent/STIM_008.jpg	99
2477.075	0.573	572.8	incongruent	Block3	incongruent/STIM_008.jpg	99
2479.903	1.017	1016.7	incongruent	Block3	incongruent/STIM_009.jpg	99
2484.134	1.072	1071.9	incongruent	Block3	incongruent/STIM_009.jpg	100
2487.579	0.583	582.9	incongruent	Block3	incongruent/STIM_009.jpg	99
2492.104	1.105	1104.8	incongruent	Block3	incongruent/STIM_009.jpg	99
2495.963	1.076	1076.5	incongruent	Block3	incongruent/STIM_009.jpg	100
2499.301	0.911	911.4	incongruent	Block3	incongruent/STIM_010.jpg	100
2502.487	0.941	941.2	incongruent	Block3	incongruent/STIM_010.jpg	100
2506.367	0.896	896.0	incongruent	Block3	incongruent/STIM_010.jpg	99
2510.669	0.871	870.6	incongruent	Block3	incongruent/STIM_010.jpg	100
2514.19	1.012	1011.6	incongruent	Block3	incongruent/STIM_010.jpg	99
2518.449	0.729	729.2	incongruent	Block3	incongruent/STIM_011.jpg	100
2521.785	0.929	929.1	incongruent	Block3	incongruent/STIM_011.jpg	100
2525.459	0.609	608.9	incongruent	Block3	incongruent/STIM_011.jpg	99
2528.325	0.522	521.9	incongruent	Block3	incongruent/STIM_011.jpg	99
2531.37	0.524	523.6	incongruent	Block3	incongruent/STIM_011.jpg	100
2534.565	0.796	796.2	incongruent	Block3	incongruent/STIM_012.jpg	99
2538.585	0.938	938.1	incongruent	Block3	incongruent/STIM_012.jpg	100
2543.292	0.728	727.6	incongruent	Block3	incongruent/STIM_012.jpg	99
2547.867	0.635	634.9	incongruent	Block3	incongruent/STIM_012.jpg	99
2551.19	0.992	991.6	incongruent	Block3	incongruent/STIM_012.jpg	99
2555.596	0.658	658.2	incongruent	Block3	incongruent/STIM_013.jpg	100
2559.342	0.61	610.5	incongruent	Block3	incongruent/STIM_013.jpg	100
2563.415	0.613	612.8	incongruent	Block3	incongruent/STIM_013.jpg	99
2567.639	1.077	1076.6	incongruent	Block3	incongruent/STIM_013.jpg	100
2571.688	0.63	630.2	incongruent	Block3	incongruent/STIM_013.jpg	100
2575.348	0.592	592.4	incongruent	Block3	incongruent/STIM_014.jpg	99
2578.777	0.73	730.3	incongruent	Block3	incongruent/STIM_014.jpg	99
2581.558	0.723	723.4	incongruent	Block3	incongruent/STIM_014.jpg	99
2584.349	0.765	765.2	incongruent	Block3	incongruent/STIM_014.jpg	99
2587.865	0.528	528.1	incongruent	Block3	incongruent/STIM_014.jpg	99
2591.524	0.686	685.6	incongruent	Block3	incongruent/STIM_015.jpg	100
2595.371	0.781	780.9	incongruent	Block3	incongruent/STIM_015.jpg	100
2599.04	1.034	1033.8	incongruent	Block3	incongruent/STIM_015.jpg	99
2602.626	0.526	526.3	incongruent	Block3	incongruent/STIM_015.jpg	99
2606.774	0.987	986.9	incongruent	Block3	incongruent/STIM_015.jpg	100
2611.039	0.656	655.8	incongruent	Block3	incongruent/STIM_016.jpg	100
2615.58	0.794	793.5	incongruent	Block3	incongruent/STIM_016.jpg	100
2619.619	0.545	545.2	incongruent	Block3	incongruent/STIM_016.jpg	99
2623.537	0.558	558.1	incongruent	Block3	incongruent/STIM_016.jpg	99
2627.106	0.568	567.9	incongruent	Block3	incongruent/STIM_016.jpg	100
2630.461	0.926	925.5	incongruent	Block3	incongruent/STIM_017.jpg	100
2633.43	0.764	763.7	incongruent	Block3	incongruent/STIM_017.jpg	100
2637.956	1.099	1098.7	incongruent	Block3	incongruent/STIM_017.jpg	99
2641.1	0.825	825.4	incongruent	Block3	incongruent/STIM_017.jpg	100
2645.762	0.884	883.6	incongruent	Block3	incongruent/STIM_017.jpg	100
2649.8	0.709	709.4	incongruent	Block3	incongruent/STIM_018.jpg	99
2653.614	0.873	872.7	incongruent	Block3	incongruent/STIM_018.jpg	100
2656.801	0.8	800.4	incongruent	Block3	incongruent/STIM_018.jpg	99
2660.593	0.915	915.3	incongruent	Block3	incongruent/STIM_018.jpg	99
2663.969	0.998	998.2	incongruent	Block3	incongruent/STIM_018.jpg	100
2667.032	0.612	611.5	incongruent	Block3	incongruent/STIM_019.jpg	99
2669.992	0.603	603.1	incongruent	Block3	incongruent/STIM_019.jpg	100
2673.638	0.66	659.9	incongruent	Block3	incongruent/STIM_019.jpg	99
2676.319	0.565	564.8	incongruent	Block3	incongruent/STIM_019.jpg	99
2679.26	0.655	654.9	incongruent	Block3	incongruent/STIM_019.jpg	99
2682.619	1.048	1047.6	incongruent	Block3	incongruent/STIM_020.jpg	100
2685.695	0.935	935.1	incongruent	Block3	incongruent/STIM_020.jpg	100
2689.263	1.061	1060.6	incongruent	Block3	incongruent/STIM_020.jpg	99
2693.202	0.889	888.9	incongruent	Block3	incongruent/STIM_020.jpg	99
2697.364	0.922	921.7	incongruent	Block3	incongruent/STIM_020.jpg	100
2700.377	1.089	1088.6	incongruent	Block3	incongruent/STIM_021.jpg	100
2705.252	0.745	744.6	incongruent	Block3	incongruent/STIM_021.jpg	100
2708.224	0.78	780.2	incongruent	Block3	incongruent/STIM_021.jpg	99
2711.399	0.782	782.5	incongruent	Block3	incongruent/STIM_021.jpg	100
2715.468	0.616	615.5	incongruent	Block3	incongruent/STIM_021.jpg	99
2718.448	0.675	675.2	incongruent	Block3	incongruent/STIM_022.jpg	100
2721.841	0.751	750.7	incongruent	Block3	incongruent/STIM_022.jpg	99
2726.363	0.634	633.6	incongruent	Block3	incongruent/STIM_022.jpg	99
2729.489	0.567	567.3	incongruent	Block3	incongruent/STIM_022.jpg	99
2732.57	0.712	711.8	incongruent	Block3	incongruent/STIM_022.jpg	100
2736.486	0.872	872.5	incongruent	Block3	incongruent/STIM_023.jpg	99
2740.803	0.924	924.5	incongruent	Block3	incongruent/STIM_023.jpg	99
2744.165	1.036	1036.0	incongruent	Block3	incongruent/STIM_023.jpg	100
2747.843	1.04	1040.3	incongruent	Block3	incongruent/STIM_023.jpg	100
2751.878	0.659	658.9	incongruent	Block3	incongruent/STIM_023.jpg	99
2755.221	0.672	671.5	incongruent	Block3	incongruent/STIM_024.jpg	100
2758.339	0.709	709.0	incongruent	Block3	incongruent/STIM_024.jpg	100
2761.077	0.953	953.4	incongruent	Block3	incongruent/STIM_024.jpg	99
2764.359	0.951	951.2	incongruent	Block3	incongruent/STIM_024.jpg	99
2768.838	0.689	688.8	incongruent	Block3	incongruent/STIM_024.jpg	100
2771.531	0.735	735.2	incongruent	Block3	incongruent/STIM_025.jpg	100
2774.935	1.052	1052.3	incongruent	Block3	incongruent/STIM_025.jpg	99
2779.308	0.778	777.8	incongruent	Block3	incongruent/STIM_025.jpg	100
2782.915	0.518	518.1	incongruent	Block3	incongruent/STIM_025.jpg	100
2786.504	1.066	1065.5	incongruent	Block3	incongruent/STIM_025.jpg	100
2791.484	0.601	600.8	incongruent	Block3	incongruent/STIM_026.jpg	100
2795.662	0.899	898.7	incongruent	Block3	incongruent/STIM_026.jpg	100
2799.251	0.749	748.9	incongruent	Block3	incongruent/STIM_026.jpg	99
2803.712	0.812	811.8	incongruent	Block3	incongruent/STIM_026.jpg	100
2808.4	0.836	835.6	incongruent	Block3	incongruent/STIM_026.jpg	99
2812.106	0.745	745.0	incongruent	Block3	incongruent/STIM_027.jpg	99
2816.414	0.869	868.8	incongruent	Block3	incongruent/STIM_027.jpg	99
2821.018	0.548	547.5	incongruent	Block3	incongruent/STIM_027.jpg	100
2823.608	0.974	973.5	incongruent	Block3	incongruent/STIM_027.jpg	100
2828.084	0.68	680.1	incongruent	Block3	incongruent/STIM_027.jpg	99
2830.981	1.042	1041.5	incongruent	Block3	incongruent/STIM_028.jpg	99
2834.342	0.549	548.6	incongruent	Block3	incongruent/STIM_028.jpg	100
2837.087	0.639	639.0	incongruent	Block3	incongruent/STIM_028.jpg	99
2841.046	0.602	602.3	incongruent	Block3	incongruent/STIM_028.jpg	100
2843.989	0.722	722.1	incongruent	Block3	incongruent/STIM_028.jpg	100
2848.172	1.108	1108.1	incongruent	Block3	incongruent/STIM_029.jpg	100
2851.49	1.096	1095.5	incongruent	Block3	incongruent/STIM_029.jpg	100
2854.795	0.955	954.7	incongruent	Block3	incongruent/STIM_029.jpg	99
2858.036	0.608	608.1	incongruent	Block3	incongruent/STIM_029.jpg	100
2862.475	1.023	1022.6	incongruent	Block3	incongruent/STIM_029.jpg	100
2866.283	0.715	714.9	congruent	Block3	congruent/STIM_000.jpg	99
2870.001	0.884	883.7	congruent	Block3	congruent/STIM_000.jpg	99
2873.026	0.934	933.9	congruent	Block3	congruent/STIM_000.jpg	99
2877.616	0.548	548.4	congruent	Block3	congruent/STIM_000.jpg	100
2881.122	0.945	945.4	congruent	Block3	congruent/STIM_000.jpg	100
2885.821	0.792	792.5	congruent	Block3	congruent/STIM_001.jpg	99
2890.242	0.628	627.6	congruent	Block3	congruent/STIM_001.jpg	100
2894.839	0.776	775.7	congruent	Block3	congruent/STIM_001.jpg	99
2897.749	0.917	916.7	congruent	Block3	congruent/STIM_001.jpg	100
2902.497	0.876	876.5	congruent	Block3	congruent/STIM_001.jpg	100
2905.495	0.541	541.3	congruent	Block3	congruent/STIM_002.jpg	100
2909.581	0.666	666.0	congruent	Block3	congruent/STIM_002.jpg	99
2912.448	0.714	714.3	congruent	Block3	congruent/STIM_002.jpg	100
2915.368	0.532	531.9	congruent	Block3	congruent/STIM_002.jpg	99
2919.545	0.738	737.6	congruent	Block3	congruent/STIM_002.jpg	99
2923.866	0.542	541.8	congruent	Block3	congruent/STIM_003.jpg	99
2927.673	0.902	902.3	congruent	Block3	congruent/STIM_003.jpg	99
2931.559	0.703	702.6	congruent	Block3	congruent/STIM_003.jpg	100
2935.249	0.923	922.8	congruent	Block3	congruent/STIM_003.jpg	99
2939.767	0.62	620.3	congruent	Block3	congruent/STIM_003.jpg	100
2944.016	0.554	554.1	congruent	Block3	congruent/STIM_004.jpg	99
2946.73	0.625	624.8	congruent	Block3	congruent/STIM_004.jpg	100
2951.342	0.933	933.3	congruent	Block3	congruent/STIM_004.jpg	99
2954.754	0.867	866.7	congruent	Block3	congruent/STIM_004.jpg	99
2959.44	0.669	669.1	congruent	Block3	congruent/STIM_004.jpg	100
2963.688	0.721	721.0	congruent	Block3	congruent/STIM_005.jpg	99
2966.534	0.723	722.7	congruent	Block3	congruent/STIM_005.jpg	100
2969.604	0.716	715.7	congruent	Block3	congruent/STIM_005.jpg	99
2972.804	0.662	661.8	congruent	Block3	congruent/STIM_005.jpg	100
2977.322	0.535	535.1	congruent	Block3	congruent/STIM_005.jpg	99
2980.112	0.895	895.3	congruent	Block3	congruent/STIM_006.jpg	99
2983.666	0.888	888.4	congruent	Block3	congruent/STIM_006.jpg	100
2988.465	0.696	696.1	congruent	Block3	congruent/STIM_006.jpg	100
2991.824	0.926	926.5	congruent	Block3	congruent/STIM_006.jpg	100
2996.054	0.627	627.4	congruent	Block3	congruent/STIM_006.jpg	99
3000.093	0.575	574.7	congruent	Block3	congruent/STIM_007.jpg	100
3004.231	0.868	867.7	congruent	Block3	congruent/STIM_007.jpg	100
3007.715	0.948	948.2	congruent	Block3	congruent/STIM_007.jpg	100
3011.271	0.578	578.2	congruent	Block3	congruent/STIM_007.jpg	99
3015.084	0.659	658.7	congruent	Block3	congruent/STIM_007.jpg	99
3019.611	0.884	883.6	congruent	Block3	congruent/STIM_008.jpg	99
3023.171	0.913	912.7	congruent	Block3	congruent/STIM_008.jpg	100
3026.254	0.562	561.6	congruent	Block3	congruent/STIM_008.jpg	100
3028.85	0.885	884.7	congruent	Block3	congruent/STIM_008.jpg	99
3032.119	0.659	658.8	congruent	Block3	congruent/STIM_008.jpg	100
3036.275	0.912	912.0	congruent	Block3	congruent/STIM_009.jpg	100
3040.005	0.839	839.2	congruent	Block3	congruent/STIM_009.jpg	100
3044.638	0.605	605.2	congruent	Block3	congruent/STIM_009.jpg	99
3047.956	0.853	853.4	congruent	Block3	congruent/STIM_009.jpg	99
3052.487	0.794	793.7	congruent	Block3	congruent/STIM_009.jpg	99
3055.437	0.692	691.9	congruent	Block3	congruent/STIM_010.jpg	100
3058.384	0.543	543.2	congruent	Block3	congruent/STIM_010.jpg	99
3061.165	0.569	568.6	congruent	Block3	congruent/STIM_010.jpg	99
3065.49	0.912	912.2	congruent	Block3	congruent/STIM_010.jpg	99
3068.419	0.652	651.6	congruent	Block3	congruent/STIM_010.jpg	99
3072.772	0.874	873.8	congruent	Block3	congruent/STIM_011.jpg	99
3077.202	0.706	705.7	congruent	Block3	congruent/STIM_011.jpg	100
3081.58	0.712	711.9	congruent	Block3	congruent/STIM_011.jpg	99
3085.654	0.809	809.0	congruent	Block3	congruent/STIM_011.jpg	100
3088.6	0.622	621.7	congruent	Block3	congruent/STIM_011.jpg	100
3092.43	0.692	691.9	congruent	Block3	congruent/STIM_012.jpg	99
3095.848	0.604	603.9	congruent	Block3	congruent/STIM_012.jpg	100
3100.061	0.882	882.5	congruent	Block3	congruent/STIM_012.jpg	99
3104.532	0.582	582.5	congruent	Block3	congruent/STIM_012.jpg	100
3107.304	0.716	715.6	congruent	Block3	congruent/STIM_012.jpg	99
3110.11	0.625	625.0	congruent	Block3	congruent/STIM_013.jpg	99
3114.06	0.902	902.3	congruent	Block3	congruent/STIM_013.jpg	100
3118.322	0.601	600.6	congruent	Block3	congruent/STIM_013.jpg	99
3122.606	0.773	772.8	congruent	Block3	congruent/STIM_013.jpg	99
3126.993	0.591	591.0	congruent	Block3	congruent/STIM_013.jpg	100
3130.896	0.662	661.8	congruent	Block3	congruent/STIM_014.jpg	100
3134.587	0.871	870.7	congruent	Block3	congruent/STIM_014.jpg	99
3139.068	0.785	785.0	congruent	Block3	congruent/STIM_014.jpg	99
3142.982	0.536	536.2	congruent	Block3	congruent/STIM_014.jpg	99
3145.532	0.678	677.8	congruent	Block3	congruent/STIM_014.jpg	99
3148.42	0.843	842.6	congruent	Block3	congruent/STIM_015.jpg	99
3153.061	0.947	947.3	congruent	Block3	congruent/STIM_015.jpg	100
3157.943	0.65	649.7	congruent	Block3	congruent/STIM_015.jpg	99
3161.354	0.587	586.8	congruent	Block3	congruent/STIM_015.jpg	99
3165.829	0.622	622.4	congruent	Block3	congruent/STIM_015.jpg	99
3170.305	0.717	717.2	congruent	Block3	congruent/STIM_016.jpg	100
3173.428	0.81	809.7	congruent	Block3	congruent/STIM_016.jpg	99
3176.652	0.544	543.5	congruent	Block3	congruent/STIM_016.jpg	99
3180.373	0.729	729.1	congruent	Block3	congruent/STIM_016.jpg	99
3184.894	0.672	671.6	congruent	Block3	congruent/STIM_016.jpg	99
3188.901	0.533	532.7	congruent	Block3	congruent/STIM_017.jpg	99
3193.255	0.582	582.3	congruent	Block3	congruent/STIM_017.jpg	99
3197.704	0.622	621.5	congruent	Block3	congruent/STIM_017.jpg	100
3200.436	0.79	790.0	congruent	Block3	congruent/STIM_017.jpg	99
3204.916	0.932	932.4	congruent	Block3	congruent/STIM_017.jpg	99
3208.548	0.666	666.4	congruent	Block3	congruent/STIM_018.jpg	99
3211.523	0.613	613.2	congruent	Block3	congruent/STIM_018.jpg	100
3214.82	0.764	764.4	congruent	Block3	congruent/STIM_018.jpg	99
3219.233	0.839	839.1	congruent	Block3	congruent/STIM_018.jpg	99
3223.23	0.927	926.7	congruent	Block3	congruent/STIM_018.jpg	99
3227.594	0.863	862.9	congruent	Block3	congruent/STIM_019.jpg	99
3231.586	0.879	878.9	congruent	Block3	congruent/STIM_019.jpg	99
3236.439	0.653	653.1	congruent	Block3	congruent/STIM_019.jpg	99
3239.29	0.899	898.7	congruent	Block3	congruent/STIM_019.jpg	100
3244.026	0.947	947.0	congruent	Block3	congruent/STIM_019.jpg	99
3247.302	0.857	857.4	congruent	Block3	congruent/STIM_020.jpg	100
3250.865	0.861	861.2	congruent	Block3	congruent/STIM_020.jpg	99
3255.582	0.689	689.1	congruent	Block3	congruent/STIM_020.jpg	100
3259.219	0.811	811.0	congruent	Block3	congruent/STIM_020.jpg	100
3262.922	0.554	554.3	congruent	Block3	congruent/STIM_020.jpg	100
3266.698	0.694	694.3	congruent	Block3	congruent/STIM_021.jpg	99
3269.946	0.748	747.9	congruent	Block3	congruent/STIM_021.jpg	100
3273.948	0.912	912.1	congruent	Block3	congruent/STIM_021.jpg	99
3277.127	0.868	868.5	congruent	Block3	congruent/STIM_021.jpg	99
3281.286	0.573	572.6	congruent	Block3	congruent/STIM_021.jpg	99
3285.357	0.802	802.2	congruent	Block3	congruent/STIM_022.jpg	100
3288.942	0.554	554.2	congruent	Block3	congruent/STIM_022.jpg	99
3292.457	0.798	797.5	congruent	Block3	congruent/STIM_022.jpg	99
3296.464	0.723	723.2	congruent	Block3	congruent/STIM_022.jpg	100
3299.802	0.661	660.9	congruent	Block3	congruent/STIM_022.jpg	99
3303.764	0.629	628.9	congruent	Block3	congruent/STIM_023.jpg	100
3307.898	0.761	760.9	congruent	Block3	congruent/STIM_023.jpg	99
3311.655	0.899	899.3	congruent	Block3	congruent/STIM_023.jpg	100
3316.233	0.682	682.4	congruent	Block3	congruent/STIM_023.jpg	100
3319.436	0.866	866.2	congruent	Block3	congruent/STIM_023.jpg	99
3323.009	0.555	554.7	congruent	Block3	congruent/STIM_024.jpg	99
3326.619	0.935	935.2	congruent	Block3	congruent/STIM_024.jpg	100
3330.691	0.608	608.0	congruent	Block3	congruent/STIM_024.jpg	99
3334.428	0.768	767.9	congruent	Block3	congruent/STIM_024.jpg	99
3338.805	0.755	754.6	congruent	Block3	congruent/STIM_024.jpg	100
3343.525	0.862	862.5	congruent	Block3	congruent/STIM_025.jpg	99
3347.409	0.792	792.2	congruent	Block3	congruent/STIM_025.jpg	100
3350.78	0.694	693.9	congruent	Block3	congruent/STIM_025.jpg	99
3354.677	0.533	532.7	congruent	Block3	congruent/STIM_025.jpg	100
3359.019	0.597	596.7	congruent	Block3	congruent/STIM_025.jpg	100
3362.181	0.629	628.8	congruent	Block3	congruent/STIM_026.jpg	100
3366.028	0.949	948.7	congruent	Block3	congruent/STIM_026.jpg	99
3369.532	0.582	582.3	congruent	Block3	congruent/STIM_026.jpg	99
3373.116	0.904	904.3	congruent	Block3	congruent/STIM_026.jpg	99
3377.775	0.808	808.1	congruent	Block3	congruent/STIM_026.jpg	100
3380.886	0.546	546.5	congruent	Block3	congruent/STIM_027.jpg	100
3384.571	0.832	832.5	congruent	Block3	congruent/STIM_027.jpg	100
3388.274	0.666	665.7	congruent	Block3	congruent/STIM_027.jpg	100
3391.862	0.632	632.5	congruent	Block3	congruent/STIM_027.jpg	99
3395.595	0.8	800.0	congruent	Block3	congruent/STIM_027.jpg	100
3398.473	0.841	841.2	congruent	Block3	congruent/STIM_028.jpg	99
3402.799	0.748	747.9	congruent	Block3	congruent/STIM_028.jpg	100
3406.202	0.821	821.3	congruent	Block3	congruent/STIM_028.jpg	100
3410.87	0.887	886.8	congruent	Block3	congruent/STIM_028.jpg	99
3414.149	0.61	609.7	congruent	Block3	congruent/STIM_028.jpg	100
3417.619	0.591	591.2	congruent	Block3	congruent/STIM_029.jpg	99
3420.393	0.685	684.9	congruent	Block3	congruent/STIM_029.jpg	100
3424.821	0.652	651.7	congruent	Block3	congruent/STIM_029.jpg	100
3427.589	0.612	611.8	congruent	Block3	congruent/STIM_029.jpg	100
3431.517	0.563	563.0	congruent	Block3	congruent/STIM_029.jpg	99
