onset	duration	accuracy	trial_type	learning_stage	stimulus
0.0	0.969	correct	incongruent	Block1	incongruent/STIM_000.jpg
3.68	0.882	incorrect	incongruent	Block1	incongruent/STIM_000.jpg
8.104	1.087	correct	incongruent	Block1	incongruent/STIM_000.jpg
11.476	0.537	correct	incongruent	Block1	incongruent/STIM_000.jpg
15.739	0.988	correct	incongruent	Block1	incongruent/STIM_000.jpg
19.948	1.306	incorrect	incongruent	Block1	incongruent/STIM_001.jpg
24.113	0.662	correct	incongruent	Block1	incongruent/STIM_001.jpg
27.243	0.903	correct	incongruent	Block1	incongruent/STIM_001.jpg
32.192	0.761	correct	incongruent	Block1	incongruent/STIM_001.jpg
35.651	0.703	correct	incongruent	Block1	incongruent/STIM_001.jpg
39.1	1.352	correct	incongruent	Block1	incongruent/STIM_002.jpg
43.093	0.793	incorrect	incongruent	Block1	incongruent/STIM_002.jpg
47.939	1.142	correct	incongruent	Block1	incongruent/STIM_002.jpg
52.7	0.835	correct	incongruent	Block1	incongruent/STIM_002.jpg
57.317	0.782	correct	incongruent	Block1	incongruent/STIM_002.jpg
60.705	1.116	correct	incongruent	Block1	incongruent/STIM_003.jpg
64.306	1.351	correct	incongruent	Block1	incongruent/STIM_003.jpg
67.926	0.658	correct	incongruent	Block1	incongruent/STIM_003.jpg
71.101	0.958	correct	incongruent	Block1	incongruent/STIM_003.jpg
74.379	0.973	correct	incongruent	Block1	incongruent/STIM_003.jpg
78.511	1.263	correct	incongruent	Block1	incongruent/STIM_004.jpg
82.271	0.814	correct	incongruent	Block1	incongruent/STIM_004.jpg
85.4	1.075	correct	incongruent	Block1	incongruent/STIM_004.jpg
90.235	0.968	correct	incongruent	Block1	incongruent/STIM_004.jpg
94.441	0.852	correct	incongruent	Block1	incongruent/STIM_004.jpg
97.759	0.729	correct	incongruent	Block1	incongruent/STIM_005.jpg
101.757	1.222	correct	incongruent	Block1	incongruent/STIM_005.jpg
105.67	1.309	correct	incongruent	Block1	incongruent/STIM_005.jpg
110.777	0.869	correct	incongruent	Block1	incongruent/STIM_005.jpg
115.692	1.019	correct	incongruent	Block1	incongruent/STIM_005.jpg
120.403	0.91	correct	incongruent	Block1	incongruent/STIM_006.jpg
124.064	1.105	correct	incongruent	Block1	incongruent/STIM_006.jpg
127.228	0.882	incorrect	incongruent	Block1	incongruent/STIM_006.jpg
131.987	1.042	correct	incongruent	Block1	incongruent/STIM_006.jpg
137.029	0.748	correct	incongruent	Block1	incongruent/STIM_006.jpg
141.301	1.165	correct	incongruent	Block1	incongruent/STIM_007.jpg
145.316	0.875	correct	incongruent	Block1	incongruent/STIM_007.jpg
149.998	1.139	incorrect	incongruent	Block1	incongruent/STIM_007.jpg
154.71	0.878	correct	incongruent	Block1	incongruent/STIM_007.jpg
157.89	1.118	correct	incongruent	Block1	incongruent/STIM_007.jpg
161.914	0.844	incorrect	incongruent	Block1	incongruent/STIM_008.jpg
164.917	0.661	correct	incongruent	Block1	incongruent/STIM_008.jpg
168.72	0.715	correct	incongruent	Block1	incongruent/STIM_008.jpg
173.333	0.696	correct	incongruent	Block1	incongruent/STIM_008.jpg
176.266	0.928	correct	incongruent	Block1	incongruent/STIM_008.jpg
181.261	0.772	correct	incongruent	Block1	incongruent/STIM_009.jpg
186.039	1.024	correct	incongruent	Block1	incongruent/STIM_009.jpg
189.604	0.782	correct	incongruent	Block1	incongruent/STIM_009.jpg
193.705	0.72	correct	incongruent	Block1	incongruent/STIM_009.jpg
197.879	0.869	correct	incongruent	Block1	incongruent/STIM_009.jpg
201.978	1.197	correct	incongruent	Block1	incongruent/STIM_010.jpg
207.2	1.153	correct	incongruent	Block1	incongruent/STIM_010.jpg
212.401	1.035	correct	incongruent	Block1	incongruent/STIM_010.jpg
216.948	0.838	correct	incongruent	Block1	incongruent/STIM_010.jpg
221.139	0.965	correct	incongruent	Block1	incongruent/STIM_010.jpg
225.277	1.338	correct	incongruent	Block1	incongruent/STIM_011.jpg
229.677	1.178	correct	incongruent	Block1	incongruent/STIM_011.jpg
233.029	0.542	correct	incongruent	Block1	incongruent/STIM_011.jpg
235.712	0.703	correct	incongruent	Block1	incongruent/STIM_011.jpg
239.188	0.713	correct	incongruent	Block1	incongruent/STIM_011.jpg
242.296	1.101	correct	incongruent	Block1	incongruent/STIM_012.jpg
245.533	1.218	incorrect	incongruent	Block1	incongruent/STIM_012.jpg
250.149	1.161	correct	incongruent	Block1	incongruent/STIM_012.jpg
255.214	1.198	correct	incongruent	Block1	incongruent/STIM_012.jpg
258.625	0.515	correct	incongruent	Block1	incongruent/STIM_012.jpg
261.614	0.933	incorrect	incongruent	Block1	incongruent/STIM_013.jpg
266.259	0.77	correct	incongruent	Block1	incongruent/STIM_013.jpg
269.834	0.906	correct	incongruent	Block1	incongruent/STIM_013.jpg
273.961	0.995	correct	incongruent	Block1	incongruent/STIM_013.jpg
278.511	0.634	correct	incongruent	Block1	incongruent/STIM_013.jpg
282.887	1.255	correct	incongruent	Block1	incongruent/STIM_014.jpg
286.984	1.237	correct	incongruent	Block1	incongruent/STIM_014.jpg
290.74	0.71	correct	incongruent	Block1	incongruent/STIM_014.jpg
293.924	0.892	correct	incongruent	Block1	incongruent/STIM_014.jpg
297.749	1.105	correct	incongruent	Block1	incongruent/STIM_014.jpg
302.293	1.166	correct	incongruent	Block1	incongruent/STIM_015.jpg
305.81	0.818	correct	incongruent	Block1	incongruent/STIM_015.jpg
310.346	1.036	correct	incongruent	Block1	incongruent/STIM_015.jpg
315.175	0.684	correct	incongruent	Block1	incongruent/STIM_015.jpg
317.813	0.464	correct	incongruent	Block1	incongruent/STIM_015.jpg
322.372	0.724	correct	incongruent	Block1	incongruent/STIM_016.jpg
326.45	1.141	correct	incongruent	Block1	incongruent/STIM_016.jpg
330.769	0.761	correct	incongruent	Block1	incongruent/STIM_016.jpg
333.73	0.606	correct	incongruent	Block1	incongruent/STIM_016.jpg
337.656	0.972	correct	incongruent	Block1	incongruent/STIM_016.jpg
341.129	0.912	correct	incongruent	Block1	incongruent/STIM_017.jpg
345.47	0.829	correct	incongruent	Block1	incongruent/STIM_017.jpg
348.689	0.648	correct	incongruent	Block1	incongruent/STIM_017.jpg
352.728	0.623	incorrect	incongruent	Block1	incongruent/STIM_017.jpg
356.351	0.853	correct	incongruent	Block1	incongruent/STIM_017.jpg
360.645	1.274	correct	incongruent	Block1	incongruent/STIM_018.jpg
365.248	0.715	correct	incongruent	Block1	incongruent/STIM_018.jpg
369.794	0.763	correct	incongruent	Block1	incongruent/STIM_018.jpg
373.341	0.591	correct	incongruent	Block1	incongruent/STIM_018.jpg
377.56	1.093	correct	incongruent	Block1	incongruent/STIM_018.jpg
382.175	1.078	correct	incongruent	Block1	incongruent/STIM_019.jpg
386.21	0.653	correct	incongruent	Block1	incongruent/STIM_019.jpg
390.029	1.018	correct	incongruent	Block1	incongruent/STIM_019.jpg
394.446	0.676	correct	incongruent	Block1	incongruent/STIM_019.jpg
398.062	1.066	correct	incongruent	Block1	incongruent/STIM_019.jpg
402.976	0.802	correct	incongruent	Block1	incongruent/STIM_020.jpg
407.25	0.605	correct	incongruent	Block1	incongruent/STIM_020.jpg
411.216	0.99	correct	incongruent	Block1	incongruent/STIM_020.jpg
414.378	0.591	correct	incongruent	Block1	incongruent/STIM_020.jpg
418.957	0.981	correct	incongruent	Block1	incongruent/STIM_020.jpg
423.713	0.704	correct	incongruent	Block1	incongruent/STIM_021.jpg
427.81	1.084	correct	incongruent	Block1	incongruent/STIM_021.jpg
431.128	0.962	correct	incongruent	Block1	incongruent/STIM_021.jpg
435.27	0.966	correct	incongruent	Block1	incongruent/STIM_021.jpg
438.448	0.703	correct	incongruent	Block1	incongruent/STIM_021.jpg
442.067	1.24	correct	incongruent	Block1	incongruent/STIM_022.jpg
447.09	0.881	correct	incongruent	Block1	incongruent/STIM_022.jpg
450.838	0.76	correct	incongruent	Block1	incongruent/STIM_022.jpg
454.707	0.865	correct	incongruent	Block1	incongruent/STIM_022.jpg
459.531	0.553	correct	incongruent	Block1	incongruent/STIM_022.jpg
463.33	0.996	correct	incongruent	Block1	incongruent/STIM_023.jpg
466.561	1.18	correct	incongruent	Block1	incongruent/STIM_023.jpg
470.778	1.009	correct	incongruent	Block1	incongruent/STIM_023.jpg
474.829	0.822	correct	incongruent	Block1	incongruent/STIM_023.jpg
478.354	0.769	correct	incongruent	Block1	incongruent/STIM_023.jpg
482.923	0.749	correct	incongruent	Block1	incongruent/STIM_024.jpg
487.137	1.161	correct	incongruent	Block1	incongruent/STIM_024.jpg
491.158	0.834	correct	incongruent	Block1	incongruent/STIM_024.jpg
494.215	1.09	correct	incongruent	Block1	incongruent/STIM_024.jpg
498.998	0.762	correct	incongruent	Block1	incongruent/STIM_024.jpg
502.366	0.943	correct	incongruent	Block1	incongruent/STIM_025.jpg
506.12	0.836	correct	incongruent	Block1	incongruent/STIM_025.jpg
509.851	1.122	correct	incongruent	Block1	incongruent/STIM_025.jpg
514.342	0.602	correct	incongruent	Block1	incongruent/STIM_025.jpg
517.849	0.985	correct	incongruent	Block1	incongruent/STIM_025.jpg
522.359	0.851	correct	incongruent	Block1	incongruent/STIM_026.jpg
525.313	0.927	correct	incongruent	Block1	incongruent/STIM_026.jpg
529.591	0.644	correct	incongruent	Block1	incongruent/STIM_026.jpg
532.495	0.809	correct	incongruent	Block1	incongruent/STIM_026.jpg
536.646	0.908	correct	incongruent	Block1	incongruent/STIM_026.jpg
540.425	0.788	incorrect	incongruent	Block1	incongruent/STIM_027.jpg
544.005	1.3	correct	incongruent	Block1	incongruent/STIM_027.jpg
548.483	1.21	correct	incongruent	Block1	incongruent/STIM_027.jpg
551.826	0.627	correct	incongruent	Block1	incongruent/STIM_027.jpg
555.562	0.932	correct	incongruent	Block1	incongruent/STIM_027.jpg
558.897	0.995	incorrect	incongruent	Block1	incongruent/STIM_028.jpg
562.652	1.127	correct	incongruent	Block1	incongruent/STIM_028.jpg
567.621	0.725	correct	incongruent	Block1	incongruent/STIM_028.jpg
570.616	1.195	incorrect	incongruent	Block1	incongruent/STIM_028.jpg
575.778	0.587	correct	incongruent	Block1	incongruent/STIM_028.jpg
578.521	0.892	correct	incongruent	Block1	incongruent/STIM_029.jpg
581.621	0.676	correct	incongruent	Block1	incongruent/STIM_029.jpg
585.948	1.007	correct	incongruent	Block1	incongruent/STIM_029.jpg
589.689	1.026	correct	incongruent	Block1	incongruent/STIM_029.jpg
594.039	0.894	correct	incongruent	Block1	incongruent/STIM_029.jpg
598.401	0.698	correct	congruent	Block1	congruent/STIM_000.jpg
601.6	0.824	correct	congruent	Block1	congruent/STIM_000.jpg
605.203	0.773	correct	congruent	Block1	congruent/STIM_000.jpg
609.579	0.699	correct	congruent	Block1	congruent/STIM_000.jpg
612.449	0.572	correct	congruent	Block1	congruent/STIM_000.jpg
615.592	0.552	correct	congruent	Block1	congruent/STIM_001.jpg
618.914	0.533	incorrect	congruent	Block1	congruent/STIM_001.jpg
622.967	0.628	correct	congruent	Block1	congruent/STIM_001.jpg
627.107	0.722	correct	congruent	Block1	congruent/STIM_001.jpg
631.45	0.663	correct	congruent	Block1	congruent/STIM_001.jpg
634.327	0.611	correct	congruent	Block1	congruent/STIM_002.jpg
638.449	0.653	correct	congruent	Block1	congruent/STIM_002.jpg
641.95	0.512	correct	congruent	Block1	congruent/STIM_002.jpg
645.059	0.542	correct	congruent	Block1	congruent/STIM_002.jpg
647.894	0.612	correct	congruent	Block1	congruent/STIM_002.jpg
651.701	0.779	correct	congruent	Block1	congruent/STIM_003.jpg
656.326	0.842	correct	congruent	Block1	congruent/STIM_003.jpg
661.025	0.646	correct	congruent	Block1	congruent/STIM_003.jpg
664.144	0.752	correct	congruent	Block1	congruent/STIM_003.jpg
668.428	0.585	correct	congruent	Block1	congruent/STIM_003.jpg
671.925	0.669	correct	congruent	Block1	congruent/STIM_004.jpg
675.584	0.453	correct	congruent	Block1	congruent/STIM_004.jpg
678.284	0.353	correct	congruent	Block1	congruent/STIM_004.jpg
681.015	0.633	correct	congruent	Block1	congruent/STIM_004.jpg
683.911	0.583	incorrect	congruent	Block1	congruent/STIM_004.jpg
687.228	0.606	correct	congruent	Block1	congruent/STIM_005.jpg
691.758	0.704	correct	congruent	Block1	congruent/STIM_005.jpg
695.965	0.559	correct	congruent	Block1	congruent/STIM_005.jpg
700.532	0.772	correct	congruent	Block1	congruent/STIM_005.jpg
703.801	0.604	correct	congruent	Block1	congruent/STIM_005.jpg
707.385	0.783	incorrect	congruent	Block1	congruent/STIM_006.jpg
710.136	0.656	correct	congruent	Block1	congruent/STIM_006.jpg
713.214	0.528	correct	congruent	Block1	congruent/STIM_006.jpg
717.786	0.732	correct	congruent	Block1	congruent/STIM_006.jpg
722.225	0.641	correct	congruent	Block1	congruent/STIM_006.jpg
726.311	0.758	correct	congruent	Block1	congruent/STIM_007.jpg
729.576	0.589	correct	congruent	Block1	congruent/STIM_007.jpg
732.313	0.815	correct	congruent	Block1	congruent/STIM_007.jpg
737.016	0.728	correct	congruent	Block1	congruent/STIM_007.jpg
739.705	0.602	correct	congruent	Block1	congruent/STIM_007.jpg
742.695	0.836	correct	congruent	Block1	congruent/STIM_008.jpg
746.06	0.758	correct	congruent	Block1	congruent/STIM_008.jpg
749.159	0.579	correct	congruent	Block1	congruent/STIM_008.jpg
753.027	0.501	correct	congruent	Block1	congruent/STIM_008.jpg
756.212	0.75	correct	congruent	Block1	congruent/STIM_008.jpg
759.593	0.822	correct	congruent	Block1	congruent/STIM_009.jpg
764.103	0.664	correct	congruent	Block1	congruent/STIM_009.jpg
768.245	0.708	correct	congruent	Block1	congruent/STIM_009.jpg
772.776	0.639	correct	congruent	Block1	congruent/STIM_009.jpg
777.201	0.774	correct	congruent	Block1	congruent/STIM_009.jpg
780.644	0.78	correct	congruent	Block1	congruent/STIM_010.jpg
785.067	0.72	correct	congruent	Block1	congruent/STIM_010.jpg
788.803	0.539	correct	congruent	Block1	congruent/STIM_010.jpg
792.072	0.739	correct	congruent	Block1	congruent/STIM_010.jpg
794.933	0.552	correct	congruent	Block1	congruent/STIM_010.jpg
798.133	0.741	correct	congruent	Block1	congruent/STIM_011.jpg
801.007	0.84	correct	congruent	Block1	congruent/STIM_011.jpg
804.23	0.556	incorrect	congruent	Block1	congruent/STIM_011.jpg
808.643	0.802	correct	congruent	Block1	congruent/STIM_011.jpg
811.653	0.544	correct	congruent	Block1	congruent/STIM_011.jpg
815.179	0.572	correct	congruent	Block1	congruent/STIM_012.jpg
819.384	0.625	correct	congruent	Block1	congruent/STIM_012.jpg
823.641	0.784	correct	congruent	Block1	congruent/STIM_012.jpg
827.13	0.772	correct	congruent	Block1	congruent/STIM_012.jpg
831.254	0.763	correct	congruent	Block1	congruent/STIM_012.jpg
834.53	0.513	correct	congruent	Block1	congruent/STIM_013.jpg
839.019	0.534	correct	congruent	Block1	congruent/STIM_013.jpg
842.3	0.568	correct	congruent	Block1	congruent/STIM_013.jpg
845.386	0.633	correct	congruent	Block1	congruent/STIM_013.jpg
849.162	0.501	correct	congruent	Block1	congruent/STIM_013.jpg
852.702	0.697	correct	congruent	Block1	congruent/STIM_014.jpg
856.828	0.775	correct	congruent	Block1	congruent/STIM_014.jpg
859.706	0.583	correct	congruent	Block1	congruent/STIM_014.jpg
863.938	0.857	correct	congruent	Block1	congruent/STIM_014.jpg
867.226	0.736	correct	congruent	Block1	congruent/STIM_014.jpg
871.861	0.751	correct	congruent	Block1	congruent/STIM_015.jpg
875.032	0.78	correct	congruent	Block1	congruent/STIM_015.jpg
879.687	0.573	correct	congruent	Block1	congruent/STIM_015.jpg
883.294	0.502	correct	congruent	Block1	congruent/STIM_015.jpg
886.652	0.684	correct	congruent	Block1	congruent/STIM_015.jpg
890.979	0.582	correct	congruent	Block1	congruent/STIM_016.jpg
893.84	0.826	correct	congruent	Block1	congruent/STIM_016.jpg
898.616	0.576	correct	congruent	Block1	congruent/STIM_016.jpg
901.442	0.58	correct	congruent	Block1	congruent/STIM_016.jpg
905.19	0.53	correct	congruent	Block1	congruent/STIM_016.jpg
909.446	0.896	correct	congruent	Block1	congruent/STIM_017.jpg
912.717	0.819	correct	congruent	Block1	congruent/STIM_017.jpg
917.571	0.579	correct	congruent	Block1	congruent/STIM_017.jpg
921.077	0.817	correct	congruent	Block1	congruent/STIM_017.jpg
924.899	0.514	correct	congruent	Block1	congruent/STIM_017.jpg
928.302	0.772	correct	congruent	Block1	congruent/STIM_018.jpg
933.169	0.58	correct	congruent	Block1	congruent/STIM_018.jpg
937.194	0.879	correct	congruent	Block1	congruent/STIM_018.jpg
941.474	0.649	correct	congruent	Block1	congruent/STIM_018.jpg
946.123	0.567	correct	congruent	Block1	congruent/STIM_018.jpg
949.251	0.668	correct	congruent	Block1	congruent/STIM_019.jpg
953.745	0.667	correct	congruent	Block1	congruent/STIM_019.jpg
957.205	0.466	correct	congruent	Block1	congruent/STIM_019.jpg
960.977	0.685	correct	congruent	Block1	congruent/STIM_019.jpg
965.638	0.794	correct	congruent	Block1	congruent/STIM_019.jpg
969.032	0.729	correct	congruent	Block1	congruent/STIM_020.jpg
972.23	0.465	correct	congruent	Block1	congruent/STIM_020.jpg
975.382	0.618	correct	congruent	Block1	congruent/STIM_020.jpg
978.15	0.731	correct	congruent	Block1	congruent/STIM_020.jpg
981.996	0.929	correct	congruent	Block1	congruent/STIM_020.jpg
985.625	0.578	correct	congruent	Block1	congruent/STIM_021.jpg
989.611	0.457	correct	congruent	Block1	congruent/STIM_021.jpg
993.746	0.459	correct	congruent	Block1	congruent/STIM_021.jpg
996.597	0.796	correct	congruent	Block1	congruent/STIM_021.jpg
1000.74	0.817	correct	congruent	Block1	congruent/STIM_021.jpg
1003.974	0.798	correct	congruent	Block1	congruent/STIM_022.jpg
1007.721	0.718	correct	congruent	Block1	congruent/STIM_022.jpg
1011.549	0.738	correct	congruent	Block1	congruent/STIM_022.jpg
1015.263	0.794	correct	congruent	Block1	congruent/STIM_022.jpg
1019.366	0.651	correct	congruent	Block1	congruent/STIM_022.jpg
1023.439	0.738	correct	congruent	Block1	congruent/STIM_023.jpg
1027.506	0.738	correct	congruent	Block1	congruent/STIM_023.jpg
1032.223	0.809	correct	congruent	Block1	congruent/STIM_023.jpg
1036.84	0.772	correct	congruent	Block1	congruent/STIM_023.jpg
1039.664	0.86	incorrect	congruent	Block1	congruent/STIM_023.jpg
1044.174	0.727	incorrect	congruent	Block1	congruent/STIM_024.jpg
1048.597	0.697	correct	congruent	Block1	congruent/STIM_024.jpg
1052.521	0.642	correct	congruent	Block1	congruent/STIM_024.jpg
1055.709	0.68	correct	congruent	Block1	congruent/STIM_024.jpg
1058.486	0.875	correct	congruent	Block1	congruent/STIM_024.jpg
1062.907	0.735	correct	congruent	Block1	congruent/STIM_025.jpg
1067.298	0.755	correct	congruent	Block1	congruent/STIM_025.jpg
1072.018	0.828	correct	congruent	Block1	congruent/STIM_025.jpg
1075.824	0.801	correct	congruent	Block1	congruent/STIM_025.jpg
1080.376	0.607	correct	congruent	Block1	congruent/STIM_025.jpg
1083.752	0.591	correct	congruent	Block1	congruent/STIM_026.jpg
1086.588	0.575	correct	congruent	Block1	congruent/STIM_026.jpg
1090.819	0.785	correct	congruent	Block1	congruent/STIM_026.jpg
1094.751	0.845	correct	congruent	Block1	congruent/STIM_026.jpg
1098.303	0.72	correct	congruent	Block1	congruent/STIM_026.jpg
1102.83	0.518	correct	congruent	Block1	congruent/STIM_027.jpg
1106.515	0.549	correct	congruent	Block1	congruent/STIM_027.jpg
1110.763	0.595	incorrect	congruent	Block1	congruent/STIM_027.jpg
1114.17	0.531	correct	congruent	Block1	congruent/STIM_027.jpg
1117.785	0.665	correct	congruent	Block1	congruent/STIM_027.jpg
1120.843	0.709	correct	congruent	Block1	congruent/STIM_028.jpg
1125.276	0.468	correct	congruent	Block1	congruent/STIM_028.jpg
1129.091	0.451	correct	congruent	Block1	congruent/STIM_028.jpg
1131.993	0.76	correct	congruent	Block1	congruent/STIM_028.jpg
1136.074	0.757	correct	congruent	Block1	congruent/STIM_028.jpg
1139.172	0.507	correct	congruent	Block1	congruent/STIM_029.jpg
1142.264	0.576	correct	congruent	Block1	congruent/STIM_029.jpg
1145.512	0.852	correct	congruent	Block1	congruent/STIM_029.jpg
1148.554	0.682	correct	congruent	Block1	congruent/STIM_029.jpg
1151.443	0.605	correct	congruent	Block1	congruent/STIM_029.jpg
1154.571	0.95	correct	incongruent	Block2	incongruent/STIM_000.jpg
1159.161	0.92	correct	incongruent	Block2	incongruent/STIM_000.jpg
1163.972	0.917	correct	incongruent	Block2	incongruent/STIM_000.jpg
1167.095	0.665	correct	incongruent	Block2	incongruent/STIM_000.jpg
1171.116	0.902	correct	incongruent	Block2	incongruent/STIM_000.jpg
1174.646	0.724	correct	incongruent	Block2	incongruent/STIM_001.jpg
1178.073	1.154	incorrect	incongruent	Block2	incongruent/STIM_001.jpg
1182.793	0.995	correct	incongruent	Block2	incongruent/STIM_001.jpg
1187.766	0.571	incorrect	incongruent	Block2	incongruent/STIM_001.jpg
1190.766	0.545	correct	incongruent	Block2	incongruent/STIM_001.jpg
1194.599	0.776	correct	incongruent	Block2	incongruent/STIM_002.jpg
1198.801	0.894	correct	incongruent	Block2	incongruent/STIM_002.jpg
1203.036	0.822	correct	incongruent	Block2	incongruent/STIM_002.jpg
1206.538	0.637	correct	incongruent	Block2	incongruent/STIM_002.jpg
1210.108	0.496	correct	incongruent	Block2	incongruent/STIM_002.jpg
1214.262	0.745	correct	incongruent	Block2	incongruent/STIM_003.jpg
1217.371	0.755	correct	incongruent	Block2	incongruent/STIM_003.jpg
1221.094	0.888	correct	incongruent	Block2	incongruent/STIM_003.jpg
1225.713	0.911	correct	incongruent	Block2	incongruent/STIM_003.jpg
1230.53	0.814	correct	incongruent	Block2	incongruent/STIM_003.jpg
1234.017	0.87	incorrect	incongruent	Block2	incongruent/STIM_004.jpg
1237.937	0.93	correct	incongruent	Block2	incongruent/STIM_004.jpg
1241.253	0.669	correct	incongruent	Block2	incongruent/STIM_004.jpg
1245.38	0.808	correct	incongruent	Block2	incongruent/STIM_004.jpg
1248.503	0.57	correct	incongruent	Block2	incongruent/STIM_004.jpg
1252.814	0.79	correct	incongruent	Block2	incongruent/STIM_005.jpg
1257.017	0.59	correct	incongruent	Block2	incongruent/STIM_005.jpg
1261.13	0.558	correct	incongruent	Block2	incongruent/STIM_005.jpg
1264.315	0.803	correct	incongruent	Block2	incongruent/STIM_005.jpg
1268.718	0.607	correct	incongruent	Block2	incongruent/STIM_005.jpg
1273.084	0.803	correct	incongruent	Block2	incongruent/STIM_006.jpg
1277.282	0.556	correct	incongruent	Block2	incongruent/STIM_006.jpg
1281.235	0.807	correct	incongruent	Block2	incongruent/STIM_006.jpg
1284.495	0.615	correct	incongruent	Block2	incongruent/STIM_006.jpg
1288.298	0.96	correct	incongruent	Block2	incongruent/STIM_006.jpg
1292.64	0.719	correct	incongruent	Block2	incongruent/STIM_007.jpg
1295.978	1.007	correct	incongruent	Block2	incongruent/STIM_007.jpg
1300.36	0.641	correct	incongruent	Block2	incongruent/STIM_007.jpg
1304.61	0.797	correct	incongruent	Block2	incongruent/STIM_007.jpg
1308.144	0.656	correct	incongruent	Block2	incongruent/STIM_007.jpg
1312.134	1.085	correct	incongruent	Block2	incongruent/STIM_008.jpg
1316.481	0.634	correct	incongruent	Block2	incongruent/STIM_008.jpg
1320.799	1.025	correct	incongruent	Block2	incongruent/STIM_008.jpg
1323.945	0.807	incorrect	incongruent	Block2	incongruent/STIM_008.jpg
1327.516	0.483	correct	incongruent	Block2	incongruent/STIM_008.jpg
1331.346	0.966	correct	incongruent	Block2	incongruent/STIM_009.jpg
1335.274	0.954	correct	incongruent	Block2	incongruent/STIM_009.jpg
1338.543	0.762	correct	incongruent	Block2	incongruent/STIM_009.jpg
1343.319	0.525	correct	incongruent	Block2	incongruent/STIM_009.jpg
1346.536	0.481	correct	incongruent	Block2	incongruent/STIM_009.jpg
1349.678	0.614	incorrect	incongruent	Block2	incongruent/STIM_010.jpg
1353.87	0.867	correct	incongruent	Block2	incongruent/STIM_010.jpg
1357.195	0.484	correct	incongruent	Block2	incongruent/STIM_010.jpg
1359.976	0.676	correct	incongruent	Block2	incongruent/STIM_010.jpg
1363.272	0.665	correct	incongruent	Block2	incongruent/STIM_010.jpg
1366.009	0.88	correct	incongruent	Block2	incongruent/STIM_011.jpg
1369.174	0.978	incorrect	incongruent	Block2	incongruent/STIM_011.jpg
1373.901	0.783	correct	incongruent	Block2	incongruent/STIM_011.jpg
1378.108	1.016	correct	incongruent	Block2	incongruent/STIM_011.jpg
1381.834	0.972	correct	incongruent	Block2	incongruent/STIM_011.jpg
1385.58	1.152	correct	incongruent	Block2	incongruent/STIM_012.jpg
1388.894	0.917	correct	incongruent	Block2	incongruent/STIM_012.jpg
1392.962	0.722	correct	incongruent	Block2	incongruent/STIM_012.jpg
1396.494	1.018	correct	incongruent	Block2	incongruent/STIM_012.jpg
1400.532	0.489	correct	incongruent	Block2	incongruent/STIM_012.jpg
1404.562	0.922	correct	incongruent	Block2	incongruent/STIM_013.jpg
1409.035	0.616	correct	incongruent	Block2	incongruent/STIM_013.jpg
1412.379	0.743	correct	incongruent	Block2	incongruent/STIM_013.jpg
1415.967	0.998	correct	incongruent	Block2	incongruent/STIM_013.jpg
1419.286	0.503	correct	incongruent	Block2	incongruent/STIM_013.jpg
1423.715	1.147	correct	incongruent	Block2	incongruent/STIM_014.jpg
1427.001	0.572	correct	incongruent	Block2	incongruent/STIM_014.jpg
1431.403	0.866	correct	incongruent	Block2	incongruent/STIM_014.jpg
1436.14	0.931	correct	incongruent	Block2	incongruent/STIM_014.jpg
1440.483	0.875	correct	incongruent	Block2	incongruent/STIM_014.jpg
1443.861	0.816	correct	incongruent	Block2	incongruent/STIM_015.jpg
1447.721	0.661	correct	incongruent	Block2	incongruent/STIM_015.jpg
1451.675	1.041	correct	incongruent	Block2	incongruent/STIM_015.jpg
1455.018	0.96	correct	incongruent	Block2	incongruent/STIM_015.jpg
1459.524	0.885	correct	incongruent	Block2	incongruent/STIM_015.jpg
1464.03	1.164	correct	incongruent	Block2	incongruent/STIM_016.jpg
1467.789	0.728	correct	incongruent	Block2	incongruent/STIM_016.jpg
1472.243	0.798	correct	incongruent	Block2	incongruent/STIM_016.jpg
1475.279	0.604	correct	incongruent	Block2	incongruent/STIM_016.jpg
1479.221	0.588	correct	incongruent	Block2	incongruent/STIM_016.jpg
1482.73	0.863	correct	incongruent	Block2	incongruent/STIM_017.jpg
1486.6	0.935	incorrect	incongruent	Block2	incongruent/STIM_017.jpg
1490.651	0.684	incorrect	incongruent	Block2	incongruent/STIM_017.jpg
1493.444	0.63	correct	incongruent	Block2	incongruent/STIM_017.jpg
1496.981	0.825	incorrect	incongruent	Block2	incongruent/STIM_017.jpg
1500.19	0.897	correct	incongruent	Block2	incongruent/STIM_018.jpg
1503.454	0.654	correct	incongruent	Block2	incongruent/STIM_018.jpg
1506.884	0.856	correct	incongruent	Block2	incongruent/STIM_018.jpg
1511.622	0.872	incorrect	incongruent	Block2	incongruent/STIM_018.jpg
1515.371	0.709	correct	incongruent	Block2	incongruent/STIM_018.jpg
1518.16	1.104	correct	incongruent	Block2	incongruent/STIM_019.jpg
1521.653	0.565	correct	incongruent	Block2	incongruent/STIM_019.jpg
1525.954	0.989	correct	incongruent	Block2	incongruent/STIM_019.jpg
1529.432	0.493	correct	incongruent	Block2	incongruent/STIM_019.jpg
1532.51	0.604	correct	incongruent	Block2	incongruent/STIM_019.jpg
1535.974	1.109	correct	incongruent	Block2	incongruent/STIM_020.jpg
1539.243	0.883	correct	incongruent	Block2	incongruent/STIM_020.jpg
1543.749	0.996	correct	incongruent	Block2	incongruent/STIM_020.jpg
1548.662	0.776	correct	incongruent	Block2	incongruent/STIM_020.jpg
1553.01	0.634	correct	incongruent	Block2	incongruent/STIM_020.jpg
1557.152	0.851	correct	incongruent	Block2	incongruent/STIM_021.jpg
1560.35	0.813	correct	incongruent	Block2	incongruent/STIM_021.jpg
1563.664	0.673	incorrect	incongruent	Block2	incongruent/STIM_021.jpg
1567.857	0.691	correct	incongruent	Block2	incongruent/STIM_021.jpg
1572.568	0.603	correct	incongruent	Block2	incongruent/STIM_021.jpg
1576.761	1.006	correct	incongruent	Block2	incongruent/STIM_022.jpg
1581.179	0.667	correct	incongruent	Block2	incongruent/STIM_022.jpg
1585.446	0.998	correct	incongruent	Block2	incongruent/STIM_022.jpg
1588.552	0.904	correct	incongruent	Block2	incongruent/STIM_022.jpg
1591.841	0.866	correct	incongruent	Block2	incongruent/STIM_022.jpg
1595.679	0.725	correct	incongruent	Block2	incongruent/STIM_023.jpg
1599.723	1.05	correct	incongruent	Block2	incongruent/STIM_023.jpg
1602.996	0.84	incorrect	incongruent	Block2	incongruent/STIM_023.jpg
1606.342	0.585	correct	incongruent	Block2	incongruent/STIM_023.jpg
1610.968	0.77	correct	incongruent	Block2	incongruent/STIM_023.jpg
1615.306	0.797	correct	incongruent	Block2	incongruent/STIM_024.jpg
1620.058	1.182	correct	incongruent	Block2	incongruent/STIM_024.jpg
1623.737	0.77	correct	incongruent	Block2	incongruent/STIM_024.jpg
1627.983	0.929	correct	incongruent	Block2	incongruent/STIM_024.jpg
1632.653	0.629	correct	incongruent	Block2	incongruent/STIM_024.jpg
1636.281	0.738	correct	incongruent	Block2	incongruent/STIM_025.jpg
1639.564	0.981	correct	incongruent	Block2	incongruent/STIM_025.jpg
1643.078	0.658	correct	incongruent	Block2	incongruent/STIM_025.jpg
1646.017	0.808	correct	incongruent	Block2	incongruent/STIM_025.jpg
1650.244	0.878	correct	incongruent	Block2	incongruent/STIM_025.jpg
1654.826	0.812	correct	incongruent	Block2	incongruent/STIM_026.jpg
1659.587	0.488	correct	incongruent	Block2	incongruent/STIM_026.jpg
1663.724	0.822	correct	incongruent	Block2	incongruent/STIM_026.jpg
1668.424	0.807	correct	incongruent	Block2	incongruent/STIM_026.jpg
1671.747	0.423	correct	incongruent	Block2	incongruent/STIM_026.jpg
1675.573	0.81	incorrect	incongruent	Block2	incongruent/STIM_027.jpg
1679.094	0.995	correct	incongruent	Block2	incongruent/STIM_027.jpg
1682.87	0.721	correct	incongruent	Block2	incongruent/STIM_027.jpg
1686.461	0.867	correct	incongruent	Block2	incongruent/STIM_027.jpg
1690.915	0.497	correct	incongruent	Block2	incongruent/STIM_027.jpg
1694.344	1.15	correct	incongruent	Block2	incongruent/STIM_028.jpg
1698.817	0.898	correct	incongruent	Block2	incongruent/STIM_028.jpg
1703.227	0.991	correct	incongruent	Block2	incongruent/STIM_028.jpg
1706.813	0.746	correct	incongruent	Block2	incongruent/STIM_028.jpg
1711.31	0.738	correct	incongruent	Block2	incongruent/STIM_028.jpg
1714.173	0.912	correct	incongruent	Block2	incongruent/STIM_029.jpg
1718.618	0.728	correct	incongruent	Block2	incongruent/STIM_029.jpg
1721.922	0.56	correct	incongruent	Block2	incongruent/STIM_029.jpg
1725.065	0.424	correct	incongruent	Block2	incongruent/STIM_029.jpg
1728.941	0.863	correct	incongruent	Block2	incongruent/STIM_029.jpg
1733.145	0.575	correct	congruent	Block2	congruent/STIM_000.jpg
1735.823	0.481	correct	congruent	Block2	congruent/STIM_000.jpg
1740.13	0.614	correct	congruent	Block2	congruent/STIM_000.jpg
1743.865	0.701	correct	congruent	Block2	congruent/STIM_000.jpg
1746.762	0.768	correct	congruent	Block2	congruent/STIM_000.jpg
1749.937	0.634	correct	congruent	Block2	congruent/STIM_001.jpg
1753.228	0.484	correct	congruent	Block2	congruent/STIM_001.jpg
1757.659	0.6	correct	congruent	Block2	congruent/STIM_001.jpg
1761.246	0.578	correct	congruent	Block2	congruent/STIM_001.jpg
1765.209	0.774	correct	congruent	Block2	congruent/STIM_001.jpg
1768.547	0.651	correct	congruent	Block2	congruent/STIM_002.jpg
1772.748	0.589	correct	congruent	Block2	congruent/STIM_002.jpg
1777.167	0.606	correct	congruent	Block2	congruent/STIM_002.jpg
1780.951	0.759	correct	congruent	Block2	congruent/STIM_002.jpg
1784.607	0.773	correct	congruent	Block2	congruent/STIM_002.jpg
1787.683	0.809	correct	congruent	Block2	congruent/STIM_003.jpg
1791.554	0.774	correct	congruent	Block2	congruent/STIM_003.jpg
1795.116	0.517	incorrect	congruent	Block2	congruent/STIM_003.jpg
1798.108	0.803	correct	congruent	Block2	congruent/STIM_003.jpg
1801.227	0.509	correct	congruent	Block2	congruent/STIM_003.jpg
1804.176	0.544	correct	congruent	Block2	congruent/STIM_004.jpg
1807.46	0.758	incorrect	congruent	Block2	congruent/STIM_004.jpg
1812.009	0.62	correct	congruent	Block2	congruent/STIM_004.jpg
1815.167	0.65	correct	congruent	Block2	congruent/STIM_004.jpg
1819.407	0.697	correct	congruent	Block2	congruent/STIM_004.jpg
1822.331	0.63	correct	congruent	Block2	congruent/STIM_005.jpg
1825.296	0.549	incorrect	congruent	Block2	congruent/STIM_005.jpg
1829.596	0.76	correct	congruent	Block2	congruent/STIM_005.jpg
1833.332	0.649	correct	congruent	Block2	congruent/STIM_005.jpg
1836.769	0.544	correct	congruent	Block2	congruent/STIM_005.jpg
1841.217	0.685	correct	congruent	Block2	congruent/STIM_006.jpg
1845.811	0.57	correct	congruent	Block2	congruent/STIM_006.jpg
1848.446	0.595	correct	congruent	Block2	congruent/STIM_006.jpg
1852.754	0.884	correct	congruent	Block2	congruent/STIM_006.jpg
1855.948	0.762	correct	congruent	Block2	congruent/STIM_006.jpg
1860.483	0.65	correct	congruent	Block2	congruent/STIM_007.jpg
1863.083	0.814	correct	congruent	Block2	congruent/STIM_007.jpg
1866.149	0.662	correct	congruent	Block2	congruent/STIM_007.jpg
1869.133	0.677	correct	congruent	Block2	congruent/STIM_007.jpg
1873.349	0.854	correct	congruent	Block2	congruent/STIM_007.jpg
1876.337	0.462	correct	congruent	Block2	congruent/STIM_008.jpg
1879.633	0.614	correct	congruent	Block2	congruent/STIM_008.jpg
1884.067	0.602	correct	congruent	Block2	congruent/STIM_008.jpg
1886.976	0.565	correct	congruent	Block2	congruent/STIM_008.jpg
1890.439	0.715	correct	congruent	Block2	congruent/STIM_008.jpg
1894.489	0.753	correct	congruent	Block2	congruent/STIM_009.jpg
1898.838	0.617	incorrect	congruent	Block2	congruent/STIM_009.jpg
1902.478	0.681	correct	congruent	Block2	congruent/STIM_009.jpg
1906.509	0.764	correct	congruent	Block2	congruent/STIM_009.jpg
1910.27	0.679	correct	congruent	Block2	congruent/STIM_009.jpg
1914.128	0.539	correct	congruent	Block2	congruent/STIM_010.jpg
1917.556	0.504	incorrect	congruent	Block2	congruent/STIM_010.jpg
1921.203	0.676	incorrect	congruent	Block2	congruent/STIM_010.jpg
1925.358	0.631	correct	congruent	Block2	congruent/STIM_010.jpg
1929.36	0.732	incorrect	congruent	Block2	congruent/STIM_010.jpg
1933.972	0.446	correct	congruent	Block2	congruent/STIM_011.jpg
1936.998	0.618	incorrect	congruent	Block2	congruent/STIM_011.jpg
1941.03	0.677	correct	congruent	Block2	congruent/STIM_011.jpg
1943.997	0.444	correct	congruent	Block2	congruent/STIM_011.jpg
1947.715	0.565	correct	congruent	Block2	congruent/STIM_011.jpg
1951.99	0.828	correct	congruent	Block2	congruent/STIM_012.jpg
1956.16	0.688	correct	congruent	Block2	congruent/STIM_012.jpg
1960.356	0.441	correct	congruent	Block2	congruent/STIM_012.jpg
1963.46	0.753	incorrect	congruent	Block2	congruent/STIM_012.jpg
1966.565	0.476	incorrect	congruent	Block2	congruent/STIM_012.jpg
1969.226	0.759	correct	congruent	Block2	congruent/STIM_013.jpg
1973.609	0.627	correct	congruent	Block2	congruent/STIM_013.jpg
1977.233	0.554	incorrect	congruent	Block2	congruent/STIM_013.jpg
1980.877	0.718	correct	congruent	Block2	congruent/STIM_013.jpg
1985.16	0.767	correct	congruent	Block2	congruent/STIM_013.jpg
1988.935	0.709	correct	congruent	Block2	congruent/STIM_014.jpg
1992.513	0.639	correct	congruent	Block2	congruent/STIM_014.jpg
1996.778	0.55	incorrect	congruent	Block2	congruent/STIM_014.jpg
2001.247	0.621	correct	congruent	Block2	congruent/STIM_014.jpg
2004.635	0.784	correct	congruent	Block2	congruent/STIM_014.jpg
2008.339	0.872	correct	congruent	Block2	congruent/STIM_015.jpg
2011.662	0.529	correct	congruent	Block2	congruent/STIM_015.jpg
2015.823	0.573	incorrect	congruent	Block2	congruent/STIM_015.jpg
2018.551	0.748	correct	congruent	Block2	congruent/STIM_015.jpg
2021.488	0.794	correct	congruent	Block2	congruent/STIM_015.jpg
2024.365	0.764	correct	congruent	Block2	congruent/STIM_016.jpg
2029.17	0.518	correct	congruent	Block2	congruent/STIM_016.jpg
2033.699	0.696	correct	congruent	Block2	congruent/STIM_016.jpg
2037.128	0.505	correct	congruent	Block2	congruent/STIM_016.jpg
2041.046	0.76	correct	congruent	Block2	congruent/STIM_016.jpg
2045.003	0.468	correct	congruent	Block2	congruent/STIM_017.jpg
2048.132	0.522	incorrect	congruent	Block2	congruent/STIM_017.jpg
2050.868	0.529	correct	congruent	Block2	congruent/STIM_017.jpg
2055.113	0.5	correct	congruent	Block2	congruent/STIM_017.jpg
2059.061	0.675	correct	congruent	Block2	congruent/STIM_017.jpg
2063.51	0.721	correct	congruent	Block2	congruent/STIM_018.jpg
2066.468	0.507	correct	congruent	Block2	congruent/STIM_018.jpg
2069.121	0.48	correct	congruent	Block2	congruent/STIM_018.jpg
2071.703	0.643	correct	congruent	Block2	congruent/STIM_018.jpg
2074.836	0.684	correct	congruent	Block2	congruent/STIM_018.jpg
2079.002	0.709	correct	congruent	Block2	congruent/STIM_019.jpg
2082.442	0.628	correct	congruent	Block2	congruent/STIM_019.jpg
2086.18	0.583	correct	congruent	Block2	congruent/STIM_019.jpg
2089.836	0.543	correct	congruent	Block2	congruent/STIM_019.jpg
2094.336	0.435	correct	congruent	Block2	congruent/STIM_019.jpg
2098.031	0.565	correct	congruent	Block2	congruent/STIM_020.jpg
2101.389	0.538	correct	congruent	Block2	congruent/STIM_020.jpg
2104.12	0.689	correct	congruent	Block2	congruent/STIM_020.jpg
2108.094	0.805	correct	congruent	Block2	congruent/STIM_020.jpg
2111.207	0.757	correct	congruent	Block2	congruent/STIM_020.jpg
2114.166	0.787	correct	congruent	Block2	congruent/STIM_021.jpg
2117.628	0.646	correct	congruent	Block2	congruent/STIM_021.jpg
2122.025	0.747	correct	congruent	Block2	congruent/STIM_021.jpg
2125.815	0.689	correct	congruent	Block2	congruent/STIM_021.jpg
2128.694	0.75	correct	congruent	Block2	congruent/STIM_021.jpg
2133.487	0.634	correct	congruent	Block2	congruent/STIM_022.jpg
2136.488	0.804	correct	congruent	Block2	congruent/STIM_022.jpg
2140.243	0.663	correct	congruent	Block2	congruent/STIM_022.jpg
2143.176	0.824	correct	congruent	Block2	congruent/STIM_022.jpg
2146.563	0.898	correct	congruent	Block2	congruent/STIM_022.jpg
2151.346	0.549	correct	congruent	Block2	congruent/STIM_023.jpg
2154.048	0.703	correct	congruent	Block2	congruent/STIM_023.jpg
2157.788	0.881	correct	congruent	Block2	congruent/STIM_023.jpg
2162.312	0.513	correct	congruent	Block2	congruent/STIM_023.jpg
2166.509	0.749	correct	congruent	Block2	congruent/STIM_023.jpg
2170.219	0.664	correct	congruent	Block2	congruent/STIM_024.jpg
2174.801	0.712	correct	congruent	Block2	congruent/STIM_024.jpg
2178.702	0.666	correct	congruent	Block2	congruent/STIM_024.jpg
2183.206	0.768	correct	congruent	Block2	congruent/STIM_024.jpg
2187.911	0.779	correct	congruent	Block2	congruent/STIM_024.jpg
2190.787	0.537	incorrect	congruent	Block2	congruent/STIM_025.jpg
2193.4	0.721	correct	congruent	Block2	congruent/STIM_025.jpg
2196.202	0.503	correct	congruent	Block2	congruent/STIM_025.jpg
2199.492	0.453	correct	congruent	Block2	congruent/STIM_025.jpg
2203.342	0.788	correct	congruent	Block2	congruent/STIM_025.jpg
2207.56	0.588	correct	congruent	Block2	congruent/STIM_026.jpg
2210.94	0.566	correct	congruent	Block2	congruent/STIM_026.jpg
2214.161	0.648	incorrect	congruent	Block2	congruent/STIM_026.jpg
2217.619	0.778	correct	congruent	Block2	congruent/STIM_026.jpg
2222.376	0.515	correct	congruent	Block2	congruent/STIM_026.jpg
2226.333	0.662	correct	congruent	Block2	congruent/STIM_027.jpg
2229.289	0.699	incorrect	congruent	Block2	congruent/STIM_027.jpg
2232.757	0.615	correct	congruent	Block2	congruent/STIM_027.jpg
2235.595	0.583	correct	congruent	Block2	congruent/STIM_027.jpg
2238.871	0.878	correct	congruent	Block2	congruent/STIM_027.jpg
2243.287	0.762	correct	congruent	Block2	congruent/STIM_028.jpg
2247.106	0.448	correct	congruent	Block2	congruent/STIM_028.jpg
2250.626	0.551	correct	congruent	Block2	congruent/STIM_028.jpg
2253.982	0.637	correct	congruent	Block2	congruent/STIM_028.jpg
2257.744	0.436	correct	congruent	Block2	congruent/STIM_028.jpg
2260.354	0.618	correct	congruent	Block2	congruent/STIM_029.jpg
2263.248	0.667	correct	congruent	Block2	congruent/STIM_029.jpg
2266.451	0.52	correct	congruent	Block2	congruent/STIM_029.jpg
2269.356	0.765	correct	congruent	Block2	congruent/STIM_029.jpg
2272.552	0.7	correct	congruent	Block2	congruent/STIM_029.jpg
2277.197	0.987	correct	incongruent	Block3	incongruent/STIM_000.jpg
2281.377	0.534	correct	incongruent	Block3	incongruent/STIM_000.jpg
2284.077	0.712	correct	incongruent	Block3	incongruent/STIM_000.jpg
2288.289	0.932	correct	incongruent	Block3	incongruent/STIM_000.jpg
2292.794	0.958	correct	incongruent	Block3	incongruent/STIM_000.jpg
2297.195	0.595	correct	incongruent	Block3	incongruent/STIM_001.jpg
2300.213	0.626	correct	incongruent	Block3	incongruent/STIM_001.jpg
2304.042	0.615	correct	incongruent	Block3	incongruent/STIM_001.jpg
2308.061	0.893	correct	incongruent	Block3	incongruent/STIM_001.jpg
2312.853	0.803	correct	incongruent	Block3	incongruent/STIM_001.jpg
2317.054	0.829	correct	incongruent	Block3	incongruent/STIM_002.jpg
2319.994	0.585	correct	incongruent	Block3	incongruent/STIM_002.jpg
2323.826	0.614	correct	incongruent	Block3	incongruent/STIM_002.jpg
2327.849	0.691	correct	incongruent	Block3	incongruent/STIM_002.jpg
2332.035	0.933	correct	incongruent	Block3	incongruent/STIM_002.jpg
2335.902	0.714	correct	incongruent	Block3	incongruent/STIM_003.jpg
2339.038	0.515	correct	incongruent	Block3	incongruent/STIM_003.jpg
2341.913	0.494	correct	incongruent	Block3	incongruent/STIM_003.jpg
2346.13	0.582	correct	incongruent	Block3	incongruent/STIM_003.jpg
2350.626	0.62	correct	incongruent	Block3	incongruent/STIM_003.jpg
2354.037	0.52	correct	incongruent	Block3	incongruent/STIM_004.jpg
2357.453	0.89	correct	incongruent	Block3	incongruent/STIM_004.jpg
2362.144	0.773	correct	incongruent	Block3	incongruent/STIM_004.jpg
2365.903	0.522	correct	incongruent	Block3	incongruent/STIM_004.jpg
2370.003	0.87	correct	incongruent	Block3	incongruent/STIM_004.jpg
2373.664	0.732	correct	incongruent	Block3	incongruent/STIM_005.jpg
2376.844	0.47	correct	incongruent	Block3	incongruent/STIM_005.jpg
2379.994	0.592	correct	incongruent	Block3	incongruent/STIM_005.jpg
2383.742	0.755	correct	incongruent	Block3	incongruent/STIM_005.jpg
2387.873	0.847	correct	incongruent	Block3	incongruent/STIM_005.jpg
2390.805	0.744	correct	incongruent	Block3	incongruent/STIM_006.jpg
2395.542	0.959	correct	incongruent	Block3	incongruent/STIM_006.jpg
2399.811	0.518	correct	incongruent	Block3	incongruent/STIM_006.jpg
2402.989	0.799	correct	incongruent	Block3	incongruent/STIM_006.jpg
2406.288	0.806	correct	incongruent	Block3	incongruent/STIM_006.jpg
2409.399	0.846	correct	incongruent	Block3	incongruent/STIM_007.jpg
2412.542	0.572	correct	incongruent	Block3	incongruent/STIM_007.jpg
2415.706	0.936	correct	incongruent	Block3	incongruent/STIM_007.jpg
2418.942	0.778	correct	incongruent	Block3	incongruent/STIM_007.jpg
2423.4	0.648	correct	incongruent	Block3	incongruent/STIM_007.jpg
2427.733	0.654	correct	incongruent	Block3	incongruent/STIM_008.jpg
2430.91	0.841	correct	incongruent	Block3	incongruent/STIM_008.jpg
2434.837	1.006	correct	incongruent	Block3	incongruent/STIM_008.jpg
2437.913	0.99	correct	incongruent	Block3	incongruent/STIM_008.jpg
2441.351	0.591	correct	incongruent	Block3	incongruent/STIM_008.jpg
2445.459	0.8	correct	incongruent	Block3	incongruent/STIM_009.jpg
2449.428	0.785	correct	incongruent	Block3	incongruent/STIM_009.jpg
2453.928	0.678	correct	incongruent	Block3	incongruent/STIM_009.jpg
2457.635	0.918	correct	incongruent	Block3	incongruent/STIM_009.jpg
2460.72	0.591	correct	incongruent	Block3	incongruent/STIM_009.jpg
2463.656	0.635	correct	incongruent	Block3	incongruent/STIM_010.jpg
2466.736	0.782	correct	incongruent	Block3	incongruent/STIM_010.jpg
2469.838	0.488	correct	incongruent	Block3	incongruent/STIM_010.jpg
2474.359	0.554	correct	incongruent	Block3	incongruent/STIM_010.jpg
2477.249	0.878	correct	incongruent	Block3	incongruent/STIM_010.jpg
2480.967	0.773	correct	incongruent	Block3	incongruent/STIM_011.jpg
2484.465	0.664	correct	incongruent	Block3	incongruent/STIM_011.jpg
2488.602	0.698	correct	incongruent	Block3	incongruent/STIM_011.jpg
2492.597	0.781	correct	incongruent	Block3	incongruent/STIM_011.jpg
2495.722	0.473	correct	incongruent	Block3	incongruent/STIM_011.jpg
2498.514	1.082	correct	incongruent	Block3	incongruent/STIM_012.jpg
2501.633	0.514	correct	incongruent	Block3	incongruent/STIM_012.jpg
2506.197	0.498	correct	incongruent	Block3	incongruent/STIM_012.jpg
2509.283	0.441	correct	incongruent	Block3	incongruent/STIM_012.jpg
2512.899	0.472	incorrect	incongruent	Block3	incongruent/STIM_012.jpg
2517.053	0.695	correct	incongruent	Block3	incongruent/STIM_013.jpg
2521.074	0.82	correct	incongruent	Block3	incongruent/STIM_013.jpg
2525.65	0.662	correct	incongruent	Block3	incongruent/STIM_013.jpg
2529.504	0.619	correct	incongruent	Block3	incongruent/STIM_013.jpg
2533.609	0.643	correct	incongruent	Block3	incongruent/STIM_013.jpg
2537.782	0.722	correct	incongruent	Block3	incongruent/STIM_014.jpg
2541.305	0.697	correct	incongruent	Block3	incongruent/STIM_014.jpg
2545.449	0.774	correct	incongruent	Block3	incongruent/STIM_014.jpg
2548.335	0.681	correct	incongruent	Block3	incongruent/STIM_014.jpg
2551.394	0.86	incorrect	incongruent	Block3	incongruent/STIM_014.jpg
2554.862	0.871	correct	incongruent	Block3	incongruent/STIM_015.jpg
2558.714	0.538	correct	incongruent	Block3	incongruent/STIM_015.jpg
2563.11	0.714	correct	incongruent	Block3	incongruent/STIM_015.jpg
2566.314	0.664	correct	incongruent	Block3	incongruent/STIM_015.jpg
2569.91	0.388	correct	incongruent	Block3	incongruent/STIM_015.jpg
2574.099	0.748	correct	incongruent	Block3	incongruent/STIM_016.jpg
2577.237	0.72	correct	incongruent	Block3	incongruent/STIM_016.jpg
2580.164	0.529	correct	incongruent	Block3	incongruent/STIM_016.jpg
2584.004	0.933	correct	incongruent	Block3	incongruent/STIM_016.jpg
2588.539	0.673	correct	incongruent	Block3	incongruent/STIM_016.jpg
2592.731	0.773	correct	incongruent	Block3	incongruent/STIM_017.jpg
2596.318	0.942	correct	incongruent	Block3	incongruent/STIM_017.jpg
2600.005	0.788	correct	incongruent	Block3	incongruent/STIM_017.jpg
2604.662	0.609	correct	incongruent	Block3	incongruent/STIM_017.jpg
2609.307	0.576	correct	incongruent	Block3	incongruent/STIM_017.jpg
2612.141	0.792	correct	incongruent	Block3	incongruent/STIM_018.jpg
2616.137	0.854	correct	incongruent	Block3	incongruent/STIM_018.jpg
2620.504	0.863	correct	incongruent	Block3	incongruent/STIM_018.jpg
2624.089	0.988	correct	incongruent	Block3	incongruent/STIM_018.jpg
2627.215	0.499	correct	incongruent	Block3	incongruent/STIM_018.jpg
2629.931	0.46	correct	incongruent	Block3	incongruent/STIM_019.jpg
2633.15	0.691	correct	incongruent	Block3	incongruent/STIM_019.jpg
2637.859	0.474	correct	incongruent	Block3	incongruent/STIM_019.jpg
2641.146	0.935	correct	incongruent	Block3	incongruent/STIM_019.jpg
2644.103	0.657	correct	incongruent	Block3	incongruent/STIM_019.jpg
2647.549	0.609	correct	incongruent	Block3	incongruent/STIM_020.jpg
2651.397	0.458	correct	incongruent	Block3	incongruent/STIM_020.jpg
2655.213	0.94	correct	incongruent	Block3	incongruent/STIM_020.jpg
2660.172	0.999	correct	incongruent	Block3	incongruent/STIM_020.jpg
2664.004	0.796	correct	incongruent	Block3	incongruent/STIM_020.jpg
2667.199	0.566	correct	incongruent	Block3	incongruent/STIM_021.jpg
2670.854	0.972	correct	incongruent	Block3	incongruent/STIM_021.jpg
2674.766	0.953	correct	incongruent	Block3	incongruent/STIM_021.jpg
2677.909	0.918	correct	incongruent	Block3	incongruent/STIM_021.jpg
2682.86	0.923	correct	incongruent	Block3	incongruent/STIM_021.jpg
2687.577	0.87	correct	incongruent	Block3	incongruent/STIM_022.jpg
2690.731	0.962	correct	incongruent	Block3	incongruent/STIM_022.jpg
2694.374	0.953	correct	incongruent	Block3	incongruent/STIM_022.jpg
2698.67	0.823	correct	incongruent	Block3	incongruent/STIM_022.jpg
2702.545	0.505	correct	incongruent	Block3	incongruent/STIM_022.jpg
2707.168	1.01	correct	incongruent	Block3	incongruent/STIM_023.jpg
2710.493	0.779	correct	incongruent	Block3	incongruent/STIM_023.jpg
2714.578	0.822	correct	incongruent	Block3	incongruent/STIM_023.jpg
2717.855	0.79	correct	incongruent	Block3	incongruent/STIM_023.jpg
2721.36	0.829	correct	incongruent	Block3	incongruent/STIM_023.jpg
2726.132	1.009	correct	incongruent	Block3	incongruent/STIM_024.jpg
2730.791	0.975	correct	incongruent	Block3	incongruent/STIM_024.jpg
2735.752	0.656	correct	incongruent	Block3	incongruent/STIM_024.jpg
2739.614	0.726	correct	incongruent	Block3	incongruent/STIM_024.jpg
2742.815	1.0	correct	incongruent	Block3	incongruent/STIM_024.jpg
2746.426	0.826	correct	incongruent	Block3	incongruent/STIM_025.jpg
2751.044	0.58	correct	incongruent	Block3	incongruent/STIM_025.jpg
2754.828	0.784	correct	incongruent	Block3	incongruent/STIM_025.jpg
2758.494	0.904	correct	incongruent	Block3	incongruent/STIM_025.jpg
2762.075	0.544	incorrect	incongruent	Block3	incongruent/STIM_025.jpg
2764.888	0.792	correct	incongruent	Block3	incongruent/STIM_026.jpg
2769.453	0.631	correct	incongruent	Block3	incongruent/STIM_026.jpg
2773.195	0.9	correct	incongruent	Block3	incongruent/STIM_026.jpg
2776.886	0.68	correct	incongruent	Block3	incongruent/STIM_026.jpg
2781.426	0.671	correct	incongruent	Block3	incongruent/STIM_026.jpg
2785.092	0.647	correct	incongruent	Block3	incongruent/STIM_027.jpg
2787.923	0.722	correct	incongruent	Block3	incongruent/STIM_027.jpg
2792.138	0.731	correct	incongruent	Block3	incongruent/STIM_027.jpg
2796.696	0.542	correct	incongruent	Block3	incongruent/STIM_027.jpg
2799.95	0.7	correct	incongruent	Block3	incongruent/STIM_027.jpg
2803.338	0.952	correct	incongruent	Block3	incongruent/STIM_028.jpg
2806.93	0.718	correct	incongruent	Block3	incongruent/STIM_028.jpg
2810.276	0.968	correct	incongruent	Block3	incongruent/STIM_028.jpg
2814.577	0.571	correct	incongruent	Block3	incongruent/STIM_028.jpg
2817.888	0.796	correct	incongruent	Block3	incongruent/STIM_028.jpg
2820.791	0.57	correct	incongruent	Block3	incongruent/STIM_029.jpg
2824.921	0.989	correct	incongruent	Block3	incongruent/STIM_029.jpg
2829.562	0.54	correct	incongruent	Block3	incongruent/STIM_029.jpg
2832.477	0.854	correct	incongruent	Block3	incongruent/STIM_029.jpg
2836.283	0.978	correct	incongruent	Block3	incongruent/STIM_029.jpg
2840.248	0.476	correct	congruent	Block3	congruent/STIM_000.jpg
2844.476	0.618	correct	congruent	Block3	congruent/STIM_000.jpg
2849.237	0.654	correct	congruent	Block3	congruent/STIM_000.jpg
2853.448	0.822	correct	congruent	Block3	congruent/STIM_000.jpg
2857.147	0.48	incorrect	congruent	Block3	congruent/STIM_000.jpg
2859.681	0.725	correct	congruent	Block3	congruent/STIM_001.jpg
2862.815	0.554	correct	congruent	Block3	congruent/STIM_001.jpg
2865.753	0.666	correct	congruent	Block3	congruent/STIM_001.jpg
2869.491	0.675	correct	congruent	Block3	congruent/STIM_001.jpg
2872.867	0.717	correct	congruent	Block3	congruent/STIM_001.jpg
2876.694	0.656	correct	congruent	Block3	congruent/STIM_002.jpg
2879.47	0.495	correct	congruent	Block3	congruent/STIM_002.jpg
2883.642	0.466	correct	congruent	Block3	congruent/STIM_002.jpg
2887.008	0.581	correct	congruent	Block3	congruent/STIM_002.jpg
2891.603	0.693	correct	congruent	Block3	congruent/STIM_002.jpg
2896.181	0.667	correct	congruent	Block3	congruent/STIM_003.jpg
2899.245	0.895	correct	congruent	Block3	congruent/STIM_003.jpg
2903.497	0.66	correct	congruent	Block3	congruent/STIM_003.jpg
2906.487	0.704	correct	congruent	Block3	congruent/STIM_003.jpg
2909.978	0.902	correct	congruent	Block3	congruent/STIM_003.jpg
2913.413	0.71	correct	congruent	Block3	congruent/STIM_004.jpg
2918.062	0.71	correct	congruent	Block3	congruent/STIM_004.jpg
2921.629	0.5	correct	congruent	Block3	congruent/STIM_004.jpg
2926.074	0.606	correct	congruent	Block3	congruent/STIM_004.jpg
2930.611	0.547	correct	congruent	Block3	congruent/STIM_004.jpg
2933.367	0.774	correct	congruent	Block3	congruent/STIM_005.jpg
2938.078	0.664	correct	congruent	Block3	congruent/STIM_005.jpg
2942.431	0.729	correct	congruent	Block3	congruent/STIM_005.jpg
2945.346	0.452	correct	congruent	Block3	congruent/STIM_005.jpg
2949.227	0.768	correct	congruent	Block3	congruent/STIM_005.jpg
2952.316	0.878	correct	congruent	Block3	congruent/STIM_006.jpg
2955.416	0.85	correct	congruent	Block3	congruent/STIM_006.jpg
2958.679	0.866	correct	congruent	Block3	congruent/STIM_006.jpg
2962.04	0.693	correct	congruent	Block3	congruent/STIM_006.jpg
2966.438	0.62	correct	congruent	Block3	congruent/STIM_006.jpg
2970.49	0.592	correct	congruent	Block3	congruent/STIM_007.jpg
2974.677	0.798	correct	congruent	Block3	congruent/STIM_007.jpg
2978.486	0.59	correct	congruent	Block3	congruent/STIM_007.jpg
2981.236	0.821	correct	congruent	Block3	congruent/STIM_007.jpg
2985.699	0.534	correct	congruent	Block3	congruent/STIM_007.jpg
2988.426	0.77	correct	congruent	Block3	congruent/STIM_008.jpg
2991.401	0.633	correct	congruent	Block3	congruent/STIM_008.jpg
2995.203	0.502	correct	congruent	Block3	congruent/STIM_008.jpg
2999.551	0.876	correct	congruent	Block3	congruent/STIM_008.jpg
3003.141	0.65	correct	congruent	Block3	congruent/STIM_008.jpg
3006.497	0.652	correct	congruent	Block3	congruent/STIM_009.jpg
3009.948	0.702	correct	congruent	Block3	congruent/STIM_009.jpg
3013.124	0.648	correct	congruent	Block3	congruent/STIM_009.jpg
3015.81	0.466	correct	congruent	Block3	congruent/STIM_009.jpg
3019.377	0.529	correct	congruent	Block3	congruent/STIM_009.jpg
3022.147	0.611	correct	congruent	Block3	congruent/STIM_010.jpg
3026.14	0.782	correct	congruent	Block3	congruent/STIM_010.jpg
3029.243	0.568	correct	congruent	Block3	congruent/STIM_010.jpg
3032.986	0.773	correct	congruent	Block3	congruent/STIM_010.jpg
3035.932	0.578	correct	congruent	Block3	congruent/STIM_010.jpg
3039.896	0.53	correct	congruent	Block3	congruent/STIM_011.jpg
3044.013	0.683	correct	congruent	Block3	congruent/STIM_011.jpg
3048.412	0.762	correct	congruent	Block3	congruent/STIM_011.jpg
3052.678	0.443	correct	congruent	Block3	congruent/STIM_011.jpg
3056.121	0.681	correct	congruent	Block3	congruent/STIM_011.jpg
3060.016	0.553	correct	congruent	Block3	congruent/STIM_012.jpg
3062.621	0.541	incorrect	congruent	Block3	congruent/STIM_012.jpg
3066.673	0.726	correct	congruent	Block3	congruent/STIM_012.jpg
3070.355	0.779	correct	congruent	Block3	congruent/STIM_012.jpg
3075.12	0.498	correct	congruent	Block3	congruent/STIM_012.jpg
3078.013	0.846	correct	congruent	Block3	congruent/STIM_013.jpg
3082.063	0.665	correct	congruent	Block3	congruent/STIM_013.jpg
3085.391	0.677	correct	congruent	Block3	congruent/STIM_013.jpg
3090.098	0.675	correct	congruent	Block3	congruent/STIM_013.jpg
3094.56	0.559	correct	congruent	Block3	congruent/STIM_013.jpg
3098.369	0.724	correct	congruent	Block3	congruent/STIM_014.jpg
3101.527	0.656	correct	congruent	Block3	congruent/STIM_014.jpg
3105.664	0.616	correct	congruent	Block3	congruent/STIM_014.jpg
3110.203	0.678	correct	congruent	Block3	congruent/STIM_014.jpg
3114.757	0.831	correct	congruent	Block3	congruent/STIM_014.jpg
3119.463	0.63	correct	congruent	Block3	congruent/STIM_015.jpg
3122.854	0.466	correct	congruent	Block3	congruent/STIM_015.jpg
3126.045	0.708	correct	congruent	Block3	congruent/STIM_015.jpg
3130.203	0.634	correct	congruent	Block3	congruent/STIM_015.jpg
3134.692	0.606	correct	congruent	Block3	congruent/STIM_015.jpg
3138.063	0.861	correct	congruent	Block3	congruent/STIM_016.jpg
3141.714	0.549	correct	congruent	Block3	congruent/STIM_016.jpg
3146.1	0.678	correct	congruent	Block3	congruent/STIM_016.jpg
3150.068	0.634	correct	congruent	Block3	congruent/STIM_016.jpg
3153.46	0.847	correct	congruent	Block3	congruent/STIM_016.jpg
3157.346	0.611	correct	congruent	Block3	congruent/STIM_017.jpg
3161.411	0.544	correct	congruent	Block3	congruent/STIM_017.jpg
3164.637	0.775	correct	congruent	Block3	congruent/STIM_017.jpg
3168.283	0.576	correct	congruent	Block3	congruent/STIM_017.jpg
3172.391	0.623	correct	congruent	Block3	congruent/STIM_017.jpg
3176.613	0.678	correct	congruent	Block3	congruent/STIM_018.jpg
3180.255	0.728	correct	congruent	Block3	congruent/STIM_018.jpg
3183.098	0.726	correct	congruent	Block3	congruent/STIM_018.jpg
3186.529	0.942	correct	congruent	Block3	congruent/STIM_018.jpg
3190.494	0.579	correct	congruent	Block3	congruent/STIM_018.jpg
3194.119	0.794	correct	congruent	Block3	congruent/STIM_019.jpg
3198.093	0.835	correct	congruent	Block3	congruent/STIM_019.jpg
3201.522	0.669	correct	congruent	Block3	congruent/STIM_019.jpg
3205.982	0.632	correct	congruent	Block3	congruent/STIM_019.jpg
3208.828	0.657	correct	congruent	Block3	congruent/STIM_019.jpg
3213.301	0.479	correct	congruent	Block3	congruent/STIM_020.jpg
3217.546	0.584	correct	congruent	Block3	congruent/STIM_020.jpg
3221.829	0.61	correct	congruent	Block3	congruent/STIM_020.jpg
3224.965	0.812	correct	congruent	Block3	congruent/STIM_020.jpg
3228.6	0.529	correct	congruent	Block3	congruent/STIM_020.jpg
3233.059	0.773	correct	congruent	Block3	congruent/STIM_021.jpg
3236.864	0.546	correct	congruent	Block3	congruent/STIM_021.jpg
3241.413	0.562	correct	congruent	Block3	congruent/STIM_021.jpg
3245.923	0.784	correct	congruent	Block3	congruent/STIM_021.jpg
3249.753	0.506	correct	congruent	Block3	congruent/STIM_021.jpg
3253.325	0.669	correct	congruent	Block3	congruent/STIM_022.jpg
3257.575	0.532	correct	congruent	Block3	congruent/STIM_022.jpg
3261.379	0.637	correct	congruent	Block3	congruent/STIM_022.jpg
3264.463	0.433	correct	congruent	Block3	congruent/STIM_022.jpg
3268.251	0.858	correct	congruent	Block3	congruent/STIM_022.jpg
3271.169	0.56	correct	congruent	Block3	congruent/STIM_023.jpg
3273.986	0.832	correct	congruent	Block3	congruent/STIM_023.jpg
3278.475	0.781	correct	congruent	Block3	congruent/STIM_023.jpg
3282.839	0.628	correct	congruent	Block3	congruent/STIM_023.jpg
3286.868	0.56	correct	congruent	Block3	congruent/STIM_023.jpg
3289.669	0.854	correct	congruent	Block3	congruent/STIM_024.jpg
3293.94	0.766	correct	congruent	Block3	congruent/STIM_024.jpg
3297.01	0.435	correct	congruent	Block3	congruent/STIM_024.jpg
3300.773	0.461	incorrect	congruent	Block3	congruent/STIM_024.jpg
3304.896	0.782	correct	congruent	Block3	congruent/STIM_024.jpg
3307.789	0.652	correct	congruent	Block3	congruent/STIM_025.jpg
3311.371	0.664	correct	congruent	Block3	congruent/STIM_025.jpg
3315.904	0.796	correct	congruent	Block3	congruent/STIM_025.jpg
3319.022	0.641	correct	congruent	Block3	congruent/STIM_025.jpg
3322.825	0.671	correct	congruent	Block3	congruent/STIM_025.jpg
3325.47	0.66	correct	congruent	Block3	congruent/STIM_026.jpg
3329.904	0.554	correct	congruent	Block3	congruent/STIM_026.jpg
3332.646	0.765	correct	congruent	Block3	congruent/STIM_026.jpg
3336.204	0.667	correct	congruent	Block3	congruent/STIM_026.jpg
3340.768	0.707	correct	congruent	Block3	congruent/STIM_026.jpg
3343.856	0.774	correct	congruent	Block3	congruent/STIM_027.jpg
3347.66	0.654	correct	congruent	Block3	congruent/STIM_027.jpg
3351.416	0.759	correct	congruent	Block3	congruent/STIM_027.jpg
3356.015	0.921	correct	congruent	Block3	congruent/STIM_027.jpg
3360.227	0.637	correct	congruent	Block3	congruent/STIM_027.jpg
3363.529	0.471	correct	congruent	Block3	congruent/STIM_028.jpg
3366.067	0.46	correct	congruent	Block3	congruent/STIM_028.jpg
3368.721	0.946	correct	congruent	Block3	congruent/STIM_028.jpg
3373.003	0.52	correct	congruent	Block3	congruent/STIM_028.jpg
3376.159	0.596	incorrect	congruent	Block3	congruent/STIM_028.jpg
3378.954	0.588	correct	congruent	Block3	congruent/STIM_029.jpg
3382.55	0.647	correct	congruent	Block3	congruent/STIM_029.jpg
3385.746	0.611	correct	congruent	Block3	congruent/STIM_029.jpg
3389.206	0.703	correct	congruent	Block3	congruent/STIM_029.jpg
3392.245	0.71	correct	congruent	Block3	congruent/STIM_029.jpg
