onset	duration	accuracy	trial_type	learning_stage	stimulus
0.0	0.914	correct	incongruent	Block1	incongruent/STIM_000.jpg
4.654	0.982	correct	incongruent	Block1	incongruent/STIM_000.jpg
9.469	0.852	correct	incongruent	Block1	incongruent/STIM_000.jpg
13.516	1.026	correct	incongruent	Block1	incongruent/STIM_000.jpg
16.62	0.787	correct	incongruent	Block1	incongruent/STIM_000.jpg
20.137	1.049	correct	incongruent	Block1	incongruent/STIM_001.jpg
24.426	0.958	correct	incongruent	Block1	incongruent/STIM_001.jpg
27.997	0.921	correct	incongruent	Block1	incongruent/STIM_001.jpg
32.907	0.955	correct	incongruent	Block1	incongruent/STIM_001.jpg
36.158	1.128	correct	incongruent	Block1	incongruent/STIM_001.jpg
40.822	1.307	correct	incongruent	Block1	incongruent/STIM_002.jpg
44.759	1.101	correct	incongruent	Block1	incongruent/STIM_002.jpg
48.303	0.654	correct	incongruent	Block1	incongruent/STIM_002.jpg
51.891	0.739	correct	incongruent	Block1	incongruent/STIM_002.jpg
55.852	1.112	correct	incongruent	Block1	incongruent/STIM_002.jpg
60.468	0.871	correct	incongruent	Block1	incongruent/STIM_003.jpg
64.855	0.775	correct	incongruent	Block1	incongruent/STIM_003.jpg
69.572	1.184	correct	incongruent	Block1	incongruent/STIM_003.jpg
73.734	0.928	correct	incongruent	Block1	incongruent/STIM_003.jpg
78.435	0.604	correct	incongruent	Block1	incongruent/STIM_003.jpg
81.284	1.39	correct	incongruent	Block1	incongruent/STIM_004.jpg
85.376	0.717	correct	incongruent	Block1	incongruent/STIM_004.jpg
88.331	1.166	correct	incongruent	Block1	incongruent/STIM_004.jpg
93.375	0.743	correct	incongruent	Block1	incongruent/STIM_004.jpg
97.533	1.008	correct	incongruent	Block1	incongruent/STIM_004.jpg
101.44	0.811	correct	incongruent	Block1	incongruent/STIM_005.jpg
104.708	1.255	correct	incongruent	Block1	incongruent/STIM_005.jpg
108.186	1.097	correct	incongruent	Block1	incongruent/STIM_005.jpg
112.488	0.568	correct	incongruent	Block1	incongruent/STIM_005.jpg
116.949	0.781	correct	incongruent	Block1	incongruent/STIM_005.jpg
121.238	1.16	correct	incongruent	Block1	incongruent/STIM_006.jpg
125.112	1.312	correct	incongruent	Block1	incongruent/STIM_006.jpg
128.699	1.089	correct	incongruent	Block1	incongruent/STIM_006.jpg
132.801	1.185	correct	incongruent	Block1	incongruent/STIM_006.jpg
137.968	0.842	correct	incongruent	Block1	incongruent/STIM_006.jpg
141.261	1.301	correct	incongruent	Block1	incongruent/STIM_007.jpg
144.657	0.894	correct	incongruent	Block1	incongruent/STIM_007.jpg
148.581	1.076	correct	incongruent	Block1	incongruent/STIM_007.jpg
153.456	0.928	correct	incongruent	Block1	incongruent/STIM_007.jpg
157.202	0.778	correct	incongruent	Block1	incongruent/STIM_007.jpg
160.839	1.205	correct	incongruent	Block1	incongruent/STIM_008.jpg
165.743	0.855	correct	incongruent	Block1	incongruent/STIM_008.jpg
169.94	1.128	correct	incongruent	Block1	incongruent/STIM_008.jpg
174.649	0.626	correct	incongruent	Block1	incongruent/STIM_008.jpg
178.845	1.01	correct	incongruent	Block1	incongruent/STIM_008.jpg
183.681	0.985	correct	incongruent	Block1	incongruent/STIM_009.jpg
187.593	0.741	correct	incongruent	Block1	incongruent/STIM_009.jpg
191.83	1.144	correct	incongruent	Block1	incongruent/STIM_009.jpg
196.338	0.869	correct	incongruent	Block1	incongruent/STIM_009.jpg
200.269	0.783	correct	incongruent	Block1	incongruent/STIM_009.jpg
204.044	0.785	correct	incongruent	Block1	incongruent/STIM_010.jpg
208.048	0.742	correct	incongruent	Block1	incongruent/STIM_010.jpg
212.086	1.266	correct	incongruent	Block1	incongruent/STIM_010.jpg
215.733	1.145	correct	incongruent	Block1	incongruent/STIM_010.jpg
220.813	0.876	correct	incongruent	Block1	incongruent/STIM_010.jpg
223.784	0.701	correct	incongruent	Block1	incongruent/STIM_011.jpg
227.146	0.969	correct	incongruent	Block1	incongruent/STIM_011.jpg
231.06	0.963	correct	incongruent	Block1	incongruent/STIM_011.jpg
235.34	0.782	correct	incongruent	Block1	incongruent/STIM_011.jpg
238.263	0.837	correct	incongruent	Block1	incongruent/STIM_011.jpg
242.922	0.671	correct	incongruent	Block1	incongruent/STIM_012.jpg
246.274	1.272	correct	incongruent	Block1	incongruent/STIM_012.jpg
250.356	1.274	correct	incongruent	Block1	incongruent/STIM_012.jpg
254.302	1.071	correct	incongruent	Block1	incongruent/STIM_012.jpg
257.627	0.854	correct	incongruent	Block1	incongruent/STIM_012.jpg
261.895	1.398	correct	incongruent	Block1	incongruent/STIM_013.jpg
266.731	1.334	correct	incongruent	Block1	incongruent/STIM_013.jpg
271.275	0.776	correct	incongruent	Block1	incongruent/STIM_013.jpg
275.978	1.048	correct	incongruent	Block1	incongruent/STIM_013.jpg
279.054	1.071	correct	incongruent	Block1	incongruent/STIM_013.jpg
284.073	1.025	correct	incongruent	Block1	incongruent/STIM_014.jpg
287.8	0.711	correct	incongruent	Block1	incongruent/STIM_014.jpg
292.193	0.627	correct	incongruent	Block1	incongruent/STIM_014.jpg
296.475	0.89	correct	incongruent	Block1	incongruent/STIM_014.jpg
300.227	0.887	correct	incongruent	Block1	incongruent/STIM_014.jpg
303.93	0.699	correct	incongruent	Block1	incongruent/STIM_015.jpg
308.428	1.038	correct	incongruent	Block1	incongruent/STIM_015.jpg
313.452	0.738	correct	incongruent	Block1	incongruent/STIM_015.jpg
316.71	0.646	incorrect	incongruent	Block1	incongruent/STIM_015.jpg
321.14	1.088	correct	incongruent	Block1	incongruent/STIM_015.jpg
325.364	0.95	correct	incongruent	Block1	incongruent/STIM_016.jpg
329.529	0.968	correct	incongruent	Block1	incongruent/STIM_016.jpg
332.763	0.729	correct	incongruent	Block1	incongruent/STIM_016.jpg
335.814	0.566	correct	incongruent	Block1	incongruent/STIM_016.jpg
338.385	0.625	correct	incongruent	Block1	incongruent/STIM_016.jpg
341.102	1.215	correct	incongruent	Block1	incongruent/STIM_017.jpg
346.225	0.762	correct	incongruent	Block1	incongruent/STIM_017.jpg
350.683	1.26	correct	incongruent	Block1	incongruent/STIM_017.jpg
355.635	1.172	incorrect	incongruent	Block1	incongruent/STIM_017.jpg
359.019	0.93	correct	incongruent	Block1	incongruent/STIM_017.jpg
363.523	1.236	correct	incongruent	Block1	incongruent/STIM_018.jpg
368.171	1.119	correct	incongruent	Block1	incongruent/STIM_018.jpg
372.676	1.108	correct	incongruent	Block1	incongruent/STIM_018.jpg
375.886	0.726	correct	incongruent	Block1	incongruent/STIM_018.jpg
380.372	0.661	correct	incongruent	Block1	incongruent/STIM_018.jpg
384.767	0.678	correct	incongruent	Block1	incongruent/STIM_019.jpg
387.995	0.901	incorrect	incongruent	Block1	incongruent/STIM_019.jpg
391.327	1.254	incorrect	incongruent	Block1	incongruent/STIM_019.jpg
396.444	0.622	correct	incongruent	Block1	incongruent/STIM_019.jpg
401.007	1.06	correct	incongruent	Block1	incongruent/STIM_019.jpg
405.347	1.208	correct	incongruent	Block1	incongruent/STIM_020.jpg
410.198	0.936	correct	incongruent	Block1	incongruent/STIM_020.jpg
414.564	0.665	correct	incongruent	Block1	incongruent/STIM_020.jpg
418.374	1.17	correct	incongruent	Block1	incongruent/STIM_020.jpg
421.605	1.063	correct	incongruent	Block1	incongruent/STIM_020.jpg
425.624	0.694	correct	incongruent	Block1	incongruent/STIM_021.jpg
428.958	0.862	correct	incongruent	Block1	incongruent/STIM_021.jpg
433.064	1.219	correct	incongruent	Block1	incongruent/STIM_021.jpg
437.645	0.882	correct	incongruent	Block1	incongruent/STIM_021.jpg
441.564	0.719	correct	incongruent	Block1	incongruent/STIM_021.jpg
445.125	1.212	correct	incongruent	Block1	incongruent/STIM_022.jpg
448.696	1.134	correct	incongruent	Block1	incongruent/STIM_022.jpg
452.61	0.94	correct	incongruent	Block1	incongruent/STIM_022.jpg
457.092	1.174	correct	incongruent	Block1	incongruent/STIM_022.jpg
461.07	0.566	correct	incongruent	Block1	incongruent/STIM_022.jpg
464.031	1.177	correct	incongruent	Block1	incongruent/STIM_023.jpg
469.128	1.316	correct	incongruent	Block1	incongruent/STIM_023.jpg
472.918	0.842	correct	incongruent	Block1	incongruent/STIM_023.jpg
476.316	0.776	correct	incongruent	Block1	incongruent/STIM_023.jpg
480.312	0.756	correct	incongruent	Block1	incongruent/STIM_023.jpg
484.561	1.111	correct	incongruent	Block1	incongruent/STIM_024.jpg
488.946	0.814	correct	incongruent	Block1	incongruent/STIM_024.jpg
493.495	0.647	correct	incongruent	Block1	incongruent/STIM_024.jpg
498.074	1.164	correct	incongruent	Block1	incongruent/STIM_024.jpg
502.743	0.819	correct	incongruent	Block1	incongruent/STIM_024.jpg
506.31	0.806	correct	incongruent	Block1	incongruent/STIM_025.jpg
510.567	1.337	correct	incongruent	Block1	incongruent/STIM_025.jpg
514.94	0.958	correct	incongruent	Block1	incongruent/STIM_025.jpg
517.919	1.054	correct	incongruent	Block1	incongruent/STIM_025.jpg
522.179	0.629	correct	incongruent	Block1	incongruent/STIM_025.jpg
525.104	1.346	correct	incongruent	Block1	incongruent/STIM_026.jpg
528.677	0.676	correct	incongruent	Block1	incongruent/STIM_026.jpg
533.263	1.232	correct	incongruent	Block1	incongruent/STIM_026.jpg
536.721	1.165	incorrect	incongruent	Block1	incongruent/STIM_026.jpg
540.778	0.536	correct	incongruent	Block1	incongruent/STIM_026.jpg
543.686	1.311	correct	incongruent	Block1	incongruent/STIM_027.jpg
548.697	1.322	correct	incongruent	Block1	incongruent/STIM_027.jpg
553.594	0.721	correct	incongruent	Block1	incongruent/STIM_027.jpg
558.083	1.099	correct	incongruent	Block1	incongruent/STIM_027.jpg
561.438	1.078	correct	incongruent	Block1	incongruent/STIM_027.jpg
564.625	1.139	correct	incongruent	Block1	incongruent/STIM_028.jpg
568.75	1.082	incorrect	incongruent	Block1	incongruent/STIM_028.jpg
572.693	0.925	correct	incongruent	Block1	incongruent/STIM_028.jpg
577.219	1.063	correct	incongruent	Block1	incongruent/STIM_028.jpg
580.704	1.067	correct	incongruent	Block1	incongruent/STIM_028.jpg
585.666	0.907	correct	incongruent	Block1	incongruent/STIM_029.jpg
590.426	1.189	correct	incongruent	Block1	incongruent/STIM_029.jpg
594.804	0.952	correct	incongruent	Block1	incongruent/STIM_029.jpg
599.61	0.85	correct	incongruent	Block1	incongruent/STIM_029.jpg
603.338	0.706	correct	incongruent	Block1	incongruent/STIM_029.jpg
606.09	0.711	correct	congruent	Block1	congruent/STIM_000.jpg
609.434	0.805	correct	congruent	Block1	congruent/STIM_000.jpg
613.931	0.811	correct	congruent	Block1	congruent/STIM_000.jpg
617.478	0.838	correct	congruent	Block1	congruent/STIM_000.jpg
621.546	0.572	correct	congruent	Block1	congruent/STIM_000.jpg
624.311	0.496	correct	congruent	Block1	congruent/STIM_001.jpg
628.111	0.813	correct	congruent	Block1	congruent/STIM_001.jpg
631.159	0.683	correct	congruent	Block1	congruent/STIM_001.jpg
635.743	0.725	correct	congruent	Block1	congruent/STIM_001.jpg
639.869	0.682	correct	congruent	Block1	congruent/STIM_001.jpg
643.958	0.668	correct	congruent	Block1	congruent/STIM_002.jpg
648.487	0.797	correct	congruent	Block1	congruent/STIM_002.jpg
652.494	0.648	correct	congruent	Block1	congruent/STIM_002.jpg
656.714	0.759	correct	congruent	Block1	congruent/STIM_002.jpg
661.057	0.595	correct	congruent	Block1	congruent/STIM_002.jpg
664.098	0.713	correct	congruent	Block1	congruent/STIM_003.jpg
667.829	0.67	correct	congruent	Block1	congruent/STIM_003.jpg
670.563	0.845	correct	congruent	Block1	congruent/STIM_003.jpg
674.366	0.657	correct	congruent	Block1	congruent/STIM_003.jpg
678.158	0.729	correct	congruent	Block1	congruent/STIM_003.jpg
682.711	0.83	correct	congruent	Block1	congruent/STIM_004.jpg
687.342	0.582	correct	congruent	Block1	congruent/STIM_004.jpg
690.705	0.651	correct	congruent	Block1	congruent/STIM_004.jpg
695.289	0.477	correct	congruent	Block1	congruent/STIM_004.jpg
697.981	0.7	correct	congruent	Block1	congruent/STIM_004.jpg
701.285	0.828	correct	congruent	Block1	congruent/STIM_005.jpg
705.846	0.478	correct	congruent	Block1	congruent/STIM_005.jpg
709.698	0.714	correct	congruent	Block1	congruent/STIM_005.jpg
713.926	0.813	correct	congruent	Block1	congruent/STIM_005.jpg
717.745	0.528	correct	congruent	Block1	congruent/STIM_005.jpg
720.762	0.491	correct	congruent	Block1	congruent/STIM_006.jpg
723.464	0.789	correct	congruent	Block1	congruent/STIM_006.jpg
727.519	0.492	correct	congruent	Block1	congruent/STIM_006.jpg
731.852	0.639	correct	congruent	Block1	congruent/STIM_006.jpg
735.773	0.661	correct	congruent	Block1	congruent/STIM_006.jpg
739.516	0.547	correct	congruent	Block1	congruent/STIM_007.jpg
743.489	0.609	correct	congruent	Block1	congruent/STIM_007.jpg
747.209	0.501	correct	congruent	Block1	congruent/STIM_007.jpg
750.865	0.619	correct	congruent	Block1	congruent/STIM_007.jpg
754.336	0.641	correct	congruent	Block1	congruent/STIM_007.jpg
757.205	0.824	correct	congruent	Block1	congruent/STIM_008.jpg
760.151	0.742	correct	congruent	Block1	congruent/STIM_008.jpg
763.389	0.825	correct	congruent	Block1	congruent/STIM_008.jpg
768.076	0.496	correct	congruent	Block1	congruent/STIM_008.jpg
770.94	0.54	correct	congruent	Block1	congruent/STIM_008.jpg
775.054	0.641	correct	congruent	Block1	congruent/STIM_009.jpg
779.101	0.552	correct	congruent	Block1	congruent/STIM_009.jpg
782.226	0.809	correct	congruent	Block1	congruent/STIM_009.jpg
785.666	0.775	correct	congruent	Block1	congruent/STIM_009.jpg
789.922	0.676	correct	congruent	Block1	congruent/STIM_009.jpg
792.966	0.71	correct	congruent	Block1	congruent/STIM_010.jpg
796.914	0.57	correct	congruent	Block1	congruent/STIM_010.jpg
799.903	0.561	correct	congruent	Block1	congruent/STIM_010.jpg
804.325	0.485	correct	congruent	Block1	congruent/STIM_010.jpg
808.741	0.575	correct	congruent	Block1	congruent/STIM_010.jpg
813.259	0.671	correct	congruent	Block1	congruent/STIM_011.jpg
817.29	0.485	correct	congruent	Block1	congruent/STIM_011.jpg
820.297	0.514	correct	congruent	Block1	congruent/STIM_011.jpg
823.542	0.815	incorrect	congruent	Block1	congruent/STIM_011.jpg
826.511	0.804	correct	congruent	Block1	congruent/STIM_011.jpg
829.812	0.587	correct	congruent	Block1	congruent/STIM_012.jpg
832.49	0.75	correct	congruent	Block1	congruent/STIM_012.jpg
835.706	0.541	correct	congruent	Block1	congruent/STIM_012.jpg
839.05	0.491	correct	congruent	Block1	congruent/STIM_012.jpg
842.796	0.722	correct	congruent	Block1	congruent/STIM_012.jpg
846.238	0.495	correct	congruent	Block1	congruent/STIM_013.jpg
850.184	0.744	correct	congruent	Block1	congruent/STIM_013.jpg
853.208	0.517	correct	congruent	Block1	congruent/STIM_013.jpg
856.046	0.569	correct	congruent	Block1	congruent/STIM_013.jpg
859.469	0.633	correct	congruent	Block1	congruent/STIM_013.jpg
863.981	0.727	correct	congruent	Block1	congruent/STIM_014.jpg
867.783	0.794	correct	congruent	Block1	congruent/STIM_014.jpg
871.502	0.623	correct	congruent	Block1	congruent/STIM_014.jpg
875.098	0.648	correct	congruent	Block1	congruent/STIM_014.jpg
877.843	0.799	correct	congruent	Block1	congruent/STIM_014.jpg
880.82	0.813	correct	congruent	Block1	congruent/STIM_015.jpg
885.242	0.622	correct	congruent	Block1	congruent/STIM_015.jpg
889.401	0.578	correct	congruent	Block1	congruent/STIM_015.jpg
892.418	0.568	correct	congruent	Block1	congruent/STIM_015.jpg
896.812	0.824	correct	congruent	Block1	congruent/STIM_015.jpg
899.746	0.676	correct	congruent	Block1	congruent/STIM_016.jpg
902.574	0.481	correct	congruent	Block1	congruent/STIM_016.jpg
905.247	0.643	correct	congruent	Block1	congruent/STIM_016.jpg
908.742	0.743	correct	congruent	Block1	congruent/STIM_016.jpg
913.27	0.735	correct	congruent	Block1	congruent/STIM_016.jpg
917.654	0.741	correct	congruent	Block1	congruent/STIM_017.jpg
922.121	0.646	correct	congruent	Block1	congruent/STIM_017.jpg
924.989	0.678	correct	congruent	Block1	congruent/STIM_017.jpg
927.749	0.727	correct	congruent	Block1	congruent/STIM_017.jpg
931.649	0.735	correct	congruent	Block1	congruent/STIM_017.jpg
935.764	0.829	correct	congruent	Block1	congruent/STIM_018.jpg
940.136	0.562	correct	congruent	Block1	congruent/STIM_018.jpg
944.323	0.798	correct	congruent	Block1	congruent/STIM_018.jpg
948.067	0.506	correct	congruent	Block1	congruent/STIM_018.jpg
951.635	0.608	correct	congruent	Block1	congruent/STIM_018.jpg
956.2	0.52	correct	congruent	Block1	congruent/STIM_019.jpg
960.505	0.545	correct	congruent	Block1	congruent/STIM_019.jpg
964.396	0.726	correct	congruent	Block1	congruent/STIM_019.jpg
967.776	0.631	correct	congruent	Block1	congruent/STIM_019.jpg
971.507	0.773	correct	congruent	Block1	congruent/STIM_019.jpg
976.042	0.85	correct	congruent	Block1	congruent/STIM_020.jpg
980.378	0.776	correct	congruent	Block1	congruent/STIM_020.jpg
985.0	0.682	correct	congruent	Block1	congruent/STIM_020.jpg
989.027	0.702	correct	congruent	Block1	congruent/STIM_020.jpg
993.013	0.789	correct	congruent	Block1	congruent/STIM_020.jpg
997.121	0.485	correct	congruent	Block1	congruent/STIM_021.jpg
1000.237	0.602	correct	congruent	Block1	congruent/STIM_021.jpg
1003.622	0.63	correct	congruent	Block1	congruent/STIM_021.jpg
1006.584	0.752	correct	congruent	Block1	congruent/STIM_021.jpg
1011.125	0.706	correct	congruent	Block1	congruent/STIM_021.jpg
1014.035	0.584	incorrect	congruent	Block1	congruent/STIM_022.jpg
1017.74	0.703	correct	congruent	Block1	congruent/STIM_022.jpg
1020.996	0.727	correct	congruent	Block1	congruent/STIM_022.jpg
1023.883	0.601	correct	congruent	Block1	congruent/STIM_022.jpg
1027.622	0.567	correct	congruent	Block1	congruent/STIM_022.jpg
1032.184	0.501	correct	congruent	Block1	congruent/STIM_023.jpg
1035.188	0.661	correct	congruent	Block1	congruent/STIM_023.jpg
1039.457	0.474	correct	congruent	Block1	congruent/STIM_023.jpg
1043.233	0.772	correct	congruent	Block1	congruent/STIM_023.jpg
1046.405	0.548	correct	congruent	Block1	congruent/STIM_023.jpg
1050.89	0.574	correct	congruent	Block1	congruent/STIM_024.jpg
1054.064	0.737	correct	congruent	Block1	congruent/STIM_024.jpg
1057.943	0.641	correct	congruent	Block1	congruent/STIM_024.jpg
1061.941	0.818	correct	congruent	Block1	congruent/STIM_024.jpg
1065.528	0.488	correct	congruent	Block1	congruent/STIM_024.jpg
1069.841	0.765	correct	congruent	Block1	congruent/STIM_025.jpg
1074.252	0.48	correct	congruent	Block1	congruent/STIM_025.jpg
1078.682	0.506	correct	congruent	Block1	congruent/STIM_025.jpg
1081.929	0.831	correct	congruent	Block1	congruent/STIM_025.jpg
1085.452	0.629	correct	congruent	Block1	congruent/STIM_025.jpg
1090.071	0.621	correct	congruent	Block1	congruent/STIM_026.jpg
1094.18	0.848	correct	congruent	Block1	congruent/STIM_026.jpg
1098.334	0.517	correct	congruent	Block1	congruent/STIM_026.jpg
1101.194	0.599	correct	congruent	Block1	congruent/STIM_026.jpg
1104.437	0.817	correct	congruent	Block1	congruent/STIM_026.jpg
1107.585	0.692	correct	congruent	Block1	congruent/STIM_027.jpg
1112.059	0.569	correct	congruent	Block1	congruent/STIM_027.jpg
1114.861	0.559	correct	congruent	Block1	congruent/STIM_027.jpg
1117.965	0.814	correct	congruent	Block1	congruent/STIM_027.jpg
1120.87	0.536	correct	congruent	Block1	congruent/STIM_027.jpg
1124.886	0.477	correct	congruent	Block1	congruent/STIM_028.jpg
1127.531	0.507	correct	congruent	Block1	congruent/STIM_028.jpg
1131.511	0.5	correct	congruent	Block1	congruent/STIM_028.jpg
1135.291	0.651	correct	congruent	Block1	congruent/STIM_028.jpg
1138.228	0.611	correct	congruent	Block1	congruent/STIM_028.jpg
1142.667	0.562	correct	congruent	Block1	congruent/STIM_029.jpg
1146.741	0.694	correct	congruent	Block1	congruent/STIM_029.jpg
1149.927	0.766	correct	congruent	Block1	congruent/STIM_029.jpg
1154.544	0.557	correct	congruent	Block1	congruent/STIM_029.jpg
1157.649	0.628	correct	congruent	Block1	congruent/STIM_029.jpg
1160.607	0.964	correct	incongruent	Block2	incongruent/STIM_000.jpg
1164.232	0.749	correct	incongruent	Block2	incongruent/STIM_000.jpg
1168.868	1.055	correct	incongruent	Block2	incongruent/STIM_000.jpg
1172.802	0.968	correct	incongruent	Block2	incongruent/STIM_000.jpg
1176.422	0.498	correct	incongruent	Block2	incongruent/STIM_000.jpg
1179.371	0.904	correct	incongruent	Block2	incongruent/STIM_001.jpg
1183.455	0.988	correct	incongruent	Block2	incongruent/STIM_001.jpg
1186.869	0.59	correct	incongruent	Block2	incongruent/STIM_001.jpg
1189.993	0.794	correct	incongruent	Block2	incongruent/STIM_001.jpg
1194.446	0.531	correct	incongruent	Block2	incongruent/STIM_001.jpg
1198.208	1.126	correct	incongruent	Block2	incongruent/STIM_002.jpg
1202.043	1.072	correct	incongruent	Block2	incongruent/STIM_002.jpg
1205.177	0.529	correct	incongruent	Block2	incongruent/STIM_002.jpg
1209.203	0.636	correct	incongruent	Block2	incongruent/STIM_002.jpg
1213.261	0.784	correct	incongruent	Block2	incongruent/STIM_002.jpg
1218.001	1.116	correct	incongruent	Block2	incongruent/STIM_003.jpg
1222.953	1.13	correct	incongruent	Block2	incongruent/STIM_003.jpg
1226.143	0.662	correct	incongruent	Block2	incongruent/STIM_003.jpg
1229.668	0.672	correct	incongruent	Block2	incongruent/STIM_003.jpg
1233.252	0.763	correct	incongruent	Block2	incongruent/STIM_003.jpg
1236.401	0.956	correct	incongruent	Block2	incongruent/STIM_004.jpg
1239.507	0.992	correct	incongruent	Block2	incongruent/STIM_004.jpg
1242.825	0.947	correct	incongruent	Block2	incongruent/STIM_004.jpg
1247.594	0.599	correct	incongruent	Block2	incongruent/STIM_004.jpg
1252.093	0.467	correct	incongruent	Block2	incongruent/STIM_004.jpg
1254.748	0.596	correct	incongruent	Block2	incongruent/STIM_005.jpg
1257.795	1.124	correct	incongruent	Block2	incongruent/STIM_005.jpg
1262.364	0.552	correct	incongruent	Block2	incongruent/STIM_005.jpg
1266.026	0.556	correct	incongruent	Block2	incongruent/STIM_005.jpg
1269.771	0.472	correct	incongruent	Block2	incongruent/STIM_005.jpg
1272.456	0.793	correct	incongruent	Block2	incongruent/STIM_006.jpg
1275.306	0.753	correct	incongruent	Block2	incongruent/STIM_006.jpg
1279.295	0.95	correct	incongruent	Block2	incongruent/STIM_006.jpg
1283.758	0.831	correct	incongruent	Block2	incongruent/STIM_006.jpg
1286.972	0.892	correct	incongruent	Block2	incongruent/STIM_006.jpg
1290.236	0.697	correct	incongruent	Block2	incongruent/STIM_007.jpg
1294.553	0.862	correct	incongruent	Block2	incongruent/STIM_007.jpg
1299.25	0.532	correct	incongruent	Block2	incongruent/STIM_007.jpg
1302.263	0.688	correct	incongruent	Block2	incongruent/STIM_007.jpg
1306.883	0.987	correct	incongruent	Block2	incongruent/STIM_007.jpg
1310.517	0.893	correct	incongruent	Block2	incongruent/STIM_008.jpg
1313.793	0.586	correct	incongruent	Block2	incongruent/STIM_008.jpg
1318.219	0.519	correct	incongruent	Block2	incongruent/STIM_008.jpg
1322.054	0.649	correct	incongruent	Block2	incongruent/STIM_008.jpg
1325.351	0.749	correct	incongruent	Block2	incongruent/STIM_008.jpg
1328.848	0.873	correct	incongruent	Block2	incongruent/STIM_009.jpg
1333.258	0.729	correct	incongruent	Block2	incongruent/STIM_009.jpg
1336.175	0.63	correct	incongruent	Block2	incongruent/STIM_009.jpg
1340.749	0.522	correct	incongruent	Block2	incongruent/STIM_009.jpg
1344.369	0.925	correct	incongruent	Block2	incongruent/STIM_009.jpg
1347.905	0.706	correct	incongruent	Block2	incongruent/STIM_010.jpg
1351.48	0.774	correct	incongruent	Block2	incongruent/STIM_010.jpg
1355.845	0.53	correct	incongruent	Block2	incongruent/STIM_010.jpg
1358.431	0.557	correct	incongruent	Block2	incongruent/STIM_010.jpg
1361.645	0.481	correct	incongruent	Block2	incongruent/STIM_010.jpg
1365.416	0.935	correct	incongruent	Block2	incongruent/STIM_011.jpg
1368.634	0.899	correct	incongruent	Block2	incongruent/STIM_011.jpg
1371.572	0.686	correct	incongruent	Block2	incongruent/STIM_011.jpg
1375.783	0.528	correct	incongruent	Block2	incongruent/STIM_011.jpg
1379.863	0.843	correct	incongruent	Block2	incongruent/STIM_011.jpg
1383.518	0.657	correct	incongruent	Block2	incongruent/STIM_012.jpg
1387.662	0.858	correct	incongruent	Block2	incongruent/STIM_012.jpg
1392.144	0.774	correct	incongruent	Block2	incongruent/STIM_012.jpg
1396.852	0.725	correct	incongruent	Block2	incongruent/STIM_012.jpg
1401.428	0.798	correct	incongruent	Block2	incongruent/STIM_012.jpg
1405.993	0.743	correct	incongruent	Block2	incongruent/STIM_013.jpg
1409.379	0.76	incorrect	incongruent	Block2	incongruent/STIM_013.jpg
1412.783	0.973	correct	incongruent	Block2	incongruent/STIM_013.jpg
1417.36	0.623	correct	incongruent	Block2	incongruent/STIM_013.jpg
1420.371	0.71	correct	incongruent	Block2	incongruent/STIM_013.jpg
1423.294	0.616	correct	incongruent	Block2	incongruent/STIM_014.jpg
1427.505	0.607	incorrect	incongruent	Block2	incongruent/STIM_014.jpg
1431.408	0.744	correct	incongruent	Block2	incongruent/STIM_014.jpg
1435.144	0.68	correct	incongruent	Block2	incongruent/STIM_014.jpg
1439.313	0.958	correct	incongruent	Block2	incongruent/STIM_014.jpg
1442.934	0.799	correct	incongruent	Block2	incongruent/STIM_015.jpg
1447.499	0.754	correct	incongruent	Block2	incongruent/STIM_015.jpg
1450.318	0.623	correct	incongruent	Block2	incongruent/STIM_015.jpg
1453.951	0.971	correct	incongruent	Block2	incongruent/STIM_015.jpg
1457.99	0.543	correct	incongruent	Block2	incongruent/STIM_015.jpg
1462.243	1.016	correct	incongruent	Block2	incongruent/STIM_016.jpg
1465.743	0.896	correct	incongruent	Block2	incongruent/STIM_016.jpg
1470.46	0.672	correct	incongruent	Block2	incongruent/STIM_016.jpg
1474.472	0.694	correct	incongruent	Block2	incongruent/STIM_016.jpg
1477.683	0.478	correct	incongruent	Block2	incongruent/STIM_016.jpg
1481.361	0.594	correct	incongruent	Block2	incongruent/STIM_017.jpg
1485.76	0.982	correct	incongruent	Block2	incongruent/STIM_017.jpg
1490.3	0.635	correct	incongruent	Block2	incongruent/STIM_017.jpg
1492.975	0.665	correct	incongruent	Block2	incongruent/STIM_017.jpg
1496.734	0.582	correct	incongruent	Block2	incongruent/STIM_017.jpg
1500.248	0.942	correct	incongruent	Block2	incongruent/STIM_018.jpg
1504.571	0.905	correct	incongruent	Block2	incongruent/STIM_018.jpg
1509.147	0.684	correct	incongruent	Block2	incongruent/STIM_018.jpg
1511.89	0.506	correct	incongruent	Block2	incongruent/STIM_018.jpg
1514.424	0.805	correct	incongruent	Block2	incongruent/STIM_018.jpg
1519.125	0.608	correct	incongruent	Block2	incongruent/STIM_019.jpg
1522.611	1.102	correct	incongruent	Block2	incongruent/STIM_019.jpg
1527.011	0.636	correct	incongruent	Block2	incongruent/STIM_019.jpg
1531.303	0.676	incorrect	incongruent	Block2	incongruent/STIM_019.jpg
1534.266	0.539	correct	incongruent	Block2	incongruent/STIM_019.jpg
1537.997	0.888	correct	incongruent	Block2	incongruent/STIM_020.jpg
1540.958	1.045	correct	incongruent	Block2	incongruent/STIM_020.jpg
1544.379	1.0	correct	incongruent	Block2	incongruent/STIM_020.jpg
1548.826	0.977	correct	incongruent	Block2	incongruent/STIM_020.jpg
1552.743	0.746	correct	incongruent	Block2	incongruent/STIM_020.jpg
1556.286	0.718	correct	incongruent	Block2	incongruent/STIM_021.jpg
1559.007	0.96	correct	incongruent	Block2	incongruent/STIM_021.jpg
1562.085	0.721	correct	incongruent	Block2	incongruent/STIM_021.jpg
1564.912	0.947	correct	incongruent	Block2	incongruent/STIM_021.jpg
1568.248	0.646	correct	incongruent	Block2	incongruent/STIM_021.jpg
1571.495	0.571	correct	incongruent	Block2	incongruent/STIM_022.jpg
1575.75	0.621	correct	incongruent	Block2	incongruent/STIM_022.jpg
1579.011	1.051	correct	incongruent	Block2	incongruent/STIM_022.jpg
1582.72	0.8	correct	incongruent	Block2	incongruent/STIM_022.jpg
1586.031	0.554	correct	incongruent	Block2	incongruent/STIM_022.jpg
1590.576	0.747	correct	incongruent	Block2	incongruent/STIM_023.jpg
1594.905	0.684	correct	incongruent	Block2	incongruent/STIM_023.jpg
1597.59	0.91	correct	incongruent	Block2	incongruent/STIM_023.jpg
1601.825	0.909	correct	incongruent	Block2	incongruent/STIM_023.jpg
1606.113	0.63	correct	incongruent	Block2	incongruent/STIM_023.jpg
1610.479	1.172	correct	incongruent	Block2	incongruent/STIM_024.jpg
1614.88	0.751	correct	incongruent	Block2	incongruent/STIM_024.jpg
1619.183	0.846	correct	incongruent	Block2	incongruent/STIM_024.jpg
1622.438	0.887	correct	incongruent	Block2	incongruent/STIM_024.jpg
1626.853	0.936	correct	incongruent	Block2	incongruent/STIM_024.jpg
1631.452	0.822	correct	incongruent	Block2	incongruent/STIM_025.jpg
1634.943	0.704	correct	incongruent	Block2	incongruent/STIM_025.jpg
1638.723	0.595	correct	incongruent	Block2	incongruent/STIM_025.jpg
1641.438	0.708	correct	incongruent	Block2	incongruent/STIM_025.jpg
1645.287	0.729	correct	incongruent	Block2	incongruent/STIM_025.jpg
1648.741	0.657	correct	incongruent	Block2	incongruent/STIM_026.jpg
1652.598	1.116	correct	incongruent	Block2	incongruent/STIM_026.jpg
1656.081	0.662	correct	incongruent	Block2	incongruent/STIM_026.jpg
1659.643	0.742	correct	incongruent	Block2	incongruent/STIM_026.jpg
1663.128	0.598	correct	incongruent	Block2	incongruent/STIM_026.jpg
1667.524	1.119	correct	incongruent	Block2	incongruent/STIM_027.jpg
1671.056	0.92	correct	incongruent	Block2	incongruent/STIM_027.jpg
1674.236	0.59	correct	incongruent	Block2	incongruent/STIM_027.jpg
1677.61	0.985	correct	incongruent	Block2	incongruent/STIM_027.jpg
1682.478	0.674	correct	incongruent	Block2	incongruent/STIM_027.jpg
1686.071	1.047	correct	incongruent	Block2	incongruent/STIM_028.jpg
1690.768	1.1	correct	incongruent	Block2	incongruent/STIM_028.jpg
1694.847	0.69	correct	incongruent	Block2	incongruent/STIM_028.jpg
1697.95	0.529	correct	incongruent	Block2	incongruent/STIM_028.jpg
1700.977	0.682	correct	incongruent	Block2	incongruent/STIM_028.jpg
1703.726	0.952	correct	incongruent	Block2	incongruent/STIM_029.jpg
1706.722	1.05	correct	incongruent	Block2	incongruent/STIM_029.jpg
1710.672	0.563	correct	incongruent	Block2	incongruent/STIM_029.jpg
1713.44	0.795	correct	incongruent	Block2	incongruent/STIM_029.jpg
1717.471	0.959	correct	incongruent	Block2	incongruent/STIM_029.jpg
1720.46	0.478	correct	congruent	Block2	congruent/STIM_000.jpg
1723.185	0.521	correct	congruent	Block2	congruent/STIM_000.jpg
1726.06	0.803	correct	congruent	Block2	congruent/STIM_000.jpg
1729.944	0.827	correct	congruent	Block2	congruent/STIM_000.jpg
1733.617	0.737	correct	congruent	Block2	congruent/STIM_000.jpg
1736.415	0.768	correct	congruent	Block2	congruent/STIM_001.jpg
1739.634	0.62	correct	congruent	Block2	congruent/STIM_001.jpg
1742.347	0.555	correct	congruent	Block2	congruent/STIM_001.jpg
1746.49	0.487	correct	congruent	Block2	congruent/STIM_001.jpg
1749.807	0.589	correct	congruent	Block2	congruent/STIM_001.jpg
1752.602	0.516	correct	congruent	Block2	congruent/STIM_002.jpg
1756.995	0.611	correct	congruent	Block2	congruent/STIM_002.jpg
1761.54	0.594	correct	congruent	Block2	congruent/STIM_002.jpg
1764.894	0.634	correct	congruent	Block2	congruent/STIM_002.jpg
1768.545	0.728	correct	congruent	Block2	congruent/STIM_002.jpg
1771.817	0.77	correct	congruent	Block2	congruent/STIM_003.jpg
1776.394	0.521	correct	congruent	Block2	congruent/STIM_003.jpg
1779.855	0.663	correct	congruent	Block2	congruent/STIM_003.jpg
1784.47	0.516	correct	congruent	Block2	congruent/STIM_003.jpg
1787.048	0.499	correct	congruent	Block2	congruent/STIM_003.jpg
1789.794	0.845	correct	congruent	Block2	congruent/STIM_004.jpg
1794.146	0.473	correct	congruent	Block2	congruent/STIM_004.jpg
1797.22	0.54	correct	congruent	Block2	congruent/STIM_004.jpg
1801.033	0.499	correct	congruent	Block2	congruent/STIM_004.jpg
1804.99	0.552	correct	congruent	Block2	congruent/STIM_004.jpg
1809.149	0.475	correct	congruent	Block2	congruent/STIM_005.jpg
1811.985	0.774	correct	congruent	Block2	congruent/STIM_005.jpg
1816.158	0.757	correct	congruent	Block2	congruent/STIM_005.jpg
1819.041	0.658	correct	congruent	Block2	congruent/STIM_005.jpg
1822.885	0.754	correct	congruent	Block2	congruent/STIM_005.jpg
1827.386	0.581	correct	congruent	Block2	congruent/STIM_006.jpg
1830.486	0.767	correct	congruent	Block2	congruent/STIM_006.jpg
1835.155	0.488	correct	congruent	Block2	congruent/STIM_006.jpg
1839.57	0.606	correct	congruent	Block2	congruent/STIM_006.jpg
1843.575	0.57	correct	congruent	Block2	congruent/STIM_006.jpg
1847.301	0.542	correct	congruent	Block2	congruent/STIM_007.jpg
1850.791	0.543	correct	congruent	Block2	congruent/STIM_007.jpg
1853.526	0.842	correct	congruent	Block2	congruent/STIM_007.jpg
1857.471	0.822	correct	congruent	Block2	congruent/STIM_007.jpg
1862.237	0.662	correct	congruent	Block2	congruent/STIM_007.jpg
1865.588	0.697	correct	congruent	Block2	congruent/STIM_008.jpg
1868.605	0.761	correct	congruent	Block2	congruent/STIM_008.jpg
1873.295	0.802	correct	congruent	Block2	congruent/STIM_008.jpg
1877.163	0.698	correct	congruent	Block2	congruent/STIM_008.jpg
1880.904	0.658	correct	congruent	Block2	congruent/STIM_008.jpg
1885.408	0.599	correct	congruent	Block2	congruent/STIM_009.jpg
1889.705	0.574	correct	congruent	Block2	congruent/STIM_009.jpg
1893.878	0.59	correct	congruent	Block2	congruent/STIM_009.jpg
1897.349	0.475	correct	congruent	Block2	congruent/STIM_009.jpg
1900.617	0.518	correct	congruent	Block2	congruent/STIM_009.jpg
1904.859	0.631	correct	congruent	Block2	congruent/STIM_010.jpg
1909.455	0.614	correct	congruent	Block2	congruent/STIM_010.jpg
1913.571	0.671	correct	congruent	Block2	congruent/STIM_010.jpg
1917.493	0.536	correct	congruent	Block2	congruent/STIM_010.jpg
1921.886	0.835	correct	congruent	Block2	congruent/STIM_010.jpg
1926.407	0.817	correct	congruent	Block2	congruent/STIM_011.jpg
1931.177	0.639	correct	congruent	Block2	congruent/STIM_011.jpg
1934.557	0.727	correct	congruent	Block2	congruent/STIM_011.jpg
1939.195	0.596	correct	congruent	Block2	congruent/STIM_011.jpg
1943.132	0.599	correct	congruent	Block2	congruent/STIM_011.jpg
1946.525	0.547	correct	congruent	Block2	congruent/STIM_012.jpg
1950.967	0.518	correct	congruent	Block2	congruent/STIM_012.jpg
1954.135	0.82	correct	congruent	Block2	congruent/STIM_012.jpg
1957.442	0.772	correct	congruent	Block2	congruent/STIM_012.jpg
1961.853	0.717	correct	congruent	Block2	congruent/STIM_012.jpg
1965.338	0.651	correct	congruent	Block2	congruent/STIM_013.jpg
1969.14	0.803	correct	congruent	Block2	congruent/STIM_013.jpg
1973.652	0.49	correct	congruent	Block2	congruent/STIM_013.jpg
1977.643	0.505	correct	congruent	Block2	congruent/STIM_013.jpg
1980.204	0.786	correct	congruent	Block2	congruent/STIM_013.jpg
1984.904	0.768	correct	congruent	Block2	congruent/STIM_014.jpg
1987.949	0.486	correct	congruent	Block2	congruent/STIM_014.jpg
1990.673	0.512	correct	congruent	Block2	congruent/STIM_014.jpg
1994.43	0.745	correct	congruent	Block2	congruent/STIM_014.jpg
1998.586	0.529	correct	congruent	Block2	congruent/STIM_014.jpg
2001.599	0.734	correct	congruent	Block2	congruent/STIM_015.jpg
2006.243	0.652	correct	congruent	Block2	congruent/STIM_015.jpg
2009.799	0.85	correct	congruent	Block2	congruent/STIM_015.jpg
2013.651	0.566	correct	congruent	Block2	congruent/STIM_015.jpg
2016.353	0.777	correct	congruent	Block2	congruent/STIM_015.jpg
2019.283	0.784	correct	congruent	Block2	congruent/STIM_016.jpg
2022.919	0.767	correct	congruent	Block2	congruent/STIM_016.jpg
2027.004	0.576	correct	congruent	Block2	congruent/STIM_016.jpg
2030.839	0.794	correct	congruent	Block2	congruent/STIM_016.jpg
2034.59	0.691	correct	congruent	Block2	congruent/STIM_016.jpg
2038.189	0.502	correct	congruent	Block2	congruent/STIM_017.jpg
2041.008	0.828	correct	congruent	Block2	congruent/STIM_017.jpg
2045.406	0.551	correct	congruent	Block2	congruent/STIM_017.jpg
2049.629	0.643	correct	congruent	Block2	congruent/STIM_017.jpg
2053.721	0.479	correct	congruent	Block2	congruent/STIM_017.jpg
2057.948	0.598	correct	congruent	Block2	congruent/STIM_018.jpg
2061.232	0.57	correct	congruent	Block2	congruent/STIM_018.jpg
2064.702	0.58	incorrect	congruent	Block2	congruent/STIM_018.jpg
2069.211	0.786	correct	congruent	Block2	congruent/STIM_018.jpg
2073.061	0.65	correct	congruent	Block2	congruent/STIM_018.jpg
2076.765	0.683	correct	congruent	Block2	congruent/STIM_019.jpg
2080.876	0.795	correct	congruent	Block2	congruent/STIM_019.jpg
2083.949	0.537	correct	congruent	Block2	congruent/STIM_019.jpg
2088.196	0.802	correct	congruent	Block2	congruent/STIM_019.jpg
2091.864	0.739	correct	congruent	Block2	congruent/STIM_019.jpg
2095.755	0.522	correct	congruent	Block2	congruent/STIM_020.jpg
2099.532	0.727	incorrect	congruent	Block2	congruent/STIM_020.jpg
2102.277	0.62	correct	congruent	Block2	congruent/STIM_020.jpg
2105.39	0.507	correct	congruent	Block2	congruent/STIM_020.jpg
2108.861	0.484	correct	congruent	Block2	congruent/STIM_020.jpg
2112.614	0.726	correct	congruent	Block2	congruent/STIM_021.jpg
2117.271	0.723	correct	congruent	Block2	congruent/STIM_021.jpg
2120.108	0.703	correct	congruent	Block2	congruent/STIM_021.jpg
2124.712	0.54	correct	congruent	Block2	congruent/STIM_021.jpg
2128.968	0.719	correct	congruent	Block2	congruent/STIM_021.jpg
2132.37	0.651	correct	congruent	Block2	congruent/STIM_022.jpg
2136.347	0.59	correct	congruent	Block2	congruent/STIM_022.jpg
2140.607	0.552	correct	congruent	Block2	congruent/STIM_022.jpg
2143.961	0.539	correct	congruent	Block2	congruent/STIM_022.jpg
2148.431	0.766	correct	congruent	Block2	congruent/STIM_022.jpg
2151.321	0.795	correct	congruent	Block2	congruent/STIM_023.jpg
2154.126	0.82	correct	congruent	Block2	congruent/STIM_023.jpg
2157.814	0.735	correct	congruent	Block2	congruent/STIM_023.jpg
2160.693	0.634	correct	congruent	Block2	congruent/STIM_023.jpg
2164.055	0.714	correct	congruent	Block2	congruent/STIM_023.jpg
2167.652	0.535	correct	congruent	Block2	congruent/STIM_024.jpg
2171.294	0.827	correct	congruent	Block2	congruent/STIM_024.jpg
2174.875	0.675	correct	congruent	Block2	congruent/STIM_024.jpg
2178.976	0.673	correct	congruent	Block2	congruent/STIM_024.jpg
2181.913	0.764	correct	congruent	Block2	congruent/STIM_024.jpg
2186.34	0.768	correct	congruent	Block2	congruent/STIM_025.jpg
2189.319	0.65	correct	congruent	Block2	congruent/STIM_025.jpg
2192.641	0.604	correct	congruent	Block2	congruent/STIM_025.jpg
2195.707	0.722	correct	congruent	Block2	congruent/STIM_025.jpg
2199.444	0.495	correct	congruent	Block2	congruent/STIM_025.jpg
2203.314	0.497	correct	congruent	Block2	congruent/STIM_026.jpg
2207.729	0.714	correct	congruent	Block2	congruent/STIM_026.jpg
2211.173	0.808	correct	congruent	Block2	congruent/STIM_026.jpg
2214.425	0.574	correct	congruent	Block2	congruent/STIM_026.jpg
2218.228	0.822	correct	congruent	Block2	congruent/STIM_026.jpg
2222.552	0.763	incorrect	congruent	Block2	congruent/STIM_027.jpg
2225.832	0.788	correct	congruent	Block2	congruent/STIM_027.jpg
2229.166	0.49	correct	congruent	Block2	congruent/STIM_027.jpg
2232.571	0.569	correct	congruent	Block2	congruent/STIM_027.jpg
2235.77	0.621	correct	congruent	Block2	congruent/STIM_027.jpg
2239.639	0.677	correct	congruent	Block2	congruent/STIM_028.jpg
2243.535	0.772	correct	congruent	Block2	congruent/STIM_028.jpg
2247.904	0.736	correct	congruent	Block2	congruent/STIM_028.jpg
2251.076	0.539	correct	congruent	Block2	congruent/STIM_028.jpg
2254.077	0.696	correct	congruent	Block2	congruent/STIM_028.jpg
2258.702	0.629	correct	congruent	Block2	congruent/STIM_029.jpg
2262.186	0.74	correct	congruent	Block2	congruent/STIM_029.jpg
2266.16	0.601	correct	congruent	Block2	congruent/STIM_029.jpg
2270.642	0.675	correct	congruent	Block2	congruent/STIM_029.jpg
2274.985	0.835	correct	congruent	Block2	congruent/STIM_029.jpg
2279.404	0.836	correct	incongruent	Block3	incongruent/STIM_000.jpg
2283.361	0.815	correct	incongruent	Block3	incongruent/STIM_000.jpg
2286.333	0.463	correct	incongruent	Block3	incongruent/STIM_000.jpg
2290.678	0.624	correct	incongruent	Block3	incongruent/STIM_000.jpg
2295.218	0.567	correct	incongruent	Block3	incongruent/STIM_000.jpg
2299.466	0.8	correct	incongruent	Block3	incongruent/STIM_001.jpg
2304.066	0.673	correct	incongruent	Block3	incongruent/STIM_001.jpg
2307.641	0.893	correct	incongruent	Block3	incongruent/STIM_001.jpg
2311.272	0.539	correct	incongruent	Block3	incongruent/STIM_001.jpg
2314.838	0.475	correct	incongruent	Block3	incongruent/STIM_001.jpg
2318.335	0.805	correct	incongruent	Block3	incongruent/STIM_002.jpg
2321.465	0.932	correct	incongruent	Block3	incongruent/STIM_002.jpg
2324.478	0.77	correct	incongruent	Block3	incongruent/STIM_002.jpg
2329.102	0.463	correct	incongruent	Block3	incongruent/STIM_002.jpg
2332.863	0.5	correct	incongruent	Block3	incongruent/STIM_002.jpg
2337.252	0.506	correct	incongruent	Block3	incongruent/STIM_003.jpg
2340.397	0.769	correct	incongruent	Block3	incongruent/STIM_003.jpg
2343.38	0.944	correct	incongruent	Block3	incongruent/STIM_003.jpg
2347.513	0.573	correct	incongruent	Block3	incongruent/STIM_003.jpg
2351.473	0.776	correct	incongruent	Block3	incongruent/STIM_003.jpg
2355.758	0.778	correct	incongruent	Block3	incongruent/STIM_004.jpg
2358.796	0.63	correct	incongruent	Block3	incongruent/STIM_004.jpg
2362.576	0.933	correct	incongruent	Block3	incongruent/STIM_004.jpg
2367.116	0.829	correct	incongruent	Block3	incongruent/STIM_004.jpg
2371.734	0.563	correct	incongruent	Block3	incongruent/STIM_004.jpg
2374.681	0.55	correct	incongruent	Block3	incongruent/STIM_005.jpg
2377.24	0.654	correct	incongruent	Block3	incongruent/STIM_005.jpg
2380.879	0.748	correct	incongruent	Block3	incongruent/STIM_005.jpg
2385.368	0.653	correct	incongruent	Block3	incongruent/STIM_005.jpg
2388.189	0.775	correct	incongruent	Block3	incongruent/STIM_005.jpg
2391.972	0.912	correct	incongruent	Block3	incongruent/STIM_006.jpg
2395.699	0.986	correct	incongruent	Block3	incongruent/STIM_006.jpg
2399.504	0.918	correct	incongruent	Block3	incongruent/STIM_006.jpg
2404.223	0.797	correct	incongruent	Block3	incongruent/STIM_006.jpg
2408.163	0.614	correct	incongruent	Block3	incongruent/STIM_006.jpg
2412.399	0.553	correct	incongruent	Block3	incongruent/STIM_007.jpg
2415.218	0.842	correct	incongruent	Block3	incongruent/STIM_007.jpg
2418.981	0.644	correct	incongruent	Block3	incongruent/STIM_007.jpg
2423.119	0.625	incorrect	incongruent	Block3	incongruent/STIM_007.jpg
2426.356	0.73	correct	incongruent	Block3	incongruent/STIM_007.jpg
2429.163	0.879	correct	incongruent	Block3	incongruent/STIM_008.jpg
2432.119	0.671	correct	incongruent	Block3	incongruent/STIM_008.jpg
2435.276	0.478	correct	incongruent	Block3	incongruent/STIM_008.jpg
2438.125	0.729	correct	incongruent	Block3	incongruent/STIM_008.jpg
2442.19	0.543	correct	incongruent	Block3	incongruent/STIM_008.jpg
2445.463	0.48	correct	incongruent	Block3	incongruent/STIM_009.jpg
2448.713	0.747	correct	incongruent	Block3	incongruent/STIM_009.jpg
2453.046	0.91	correct	incongruent	Block3	incongruent/STIM_009.jpg
2456.054	0.545	correct	incongruent	Block3	incongruent/STIM_009.jpg
2458.625	0.569	correct	incongruent	Block3	incongruent/STIM_009.jpg
2462.549	0.636	correct	incongruent	Block3	incongruent/STIM_010.jpg
2466.934	0.838	correct	incongruent	Block3	incongruent/STIM_010.jpg
2470.893	0.678	correct	incongruent	Block3	incongruent/STIM_010.jpg
2474.039	0.611	correct	incongruent	Block3	incongruent/STIM_010.jpg
2478.156	0.683	correct	incongruent	Block3	incongruent/STIM_010.jpg
2482.193	0.639	correct	incongruent	Block3	incongruent/STIM_011.jpg
2485.779	0.93	correct	incongruent	Block3	incongruent/STIM_011.jpg
2488.726	0.971	correct	incongruent	Block3	incongruent/STIM_011.jpg
2492.101	0.935	correct	incongruent	Block3	incongruent/STIM_011.jpg
2496.938	0.587	correct	incongruent	Block3	incongruent/STIM_011.jpg
2501.265	0.986	correct	incongruent	Block3	incongruent/STIM_012.jpg
2505.608	0.782	correct	incongruent	Block3	incongruent/STIM_012.jpg
2509.361	0.896	correct	incongruent	Block3	incongruent/STIM_012.jpg
2512.954	0.91	correct	incongruent	Block3	incongruent/STIM_012.jpg
2517.591	0.711	correct	incongruent	Block3	incongruent/STIM_012.jpg
2520.618	0.86	correct	incongruent	Block3	incongruent/STIM_013.jpg
2524.208	0.534	correct	incongruent	Block3	incongruent/STIM_013.jpg
2528.191	0.707	correct	incongruent	Block3	incongruent/STIM_013.jpg
2531.204	0.768	correct	incongruent	Block3	incongruent/STIM_013.jpg
2534.885	0.689	correct	incongruent	Block3	incongruent/STIM_013.jpg
2537.742	0.595	correct	incongruent	Block3	incongruent/STIM_014.jpg
2541.956	0.902	correct	incongruent	Block3	incongruent/STIM_014.jpg
2545.65	0.845	correct	incongruent	Block3	incongruent/STIM_014.jpg
2550.198	0.56	correct	incongruent	Block3	incongruent/STIM_014.jpg
2553.942	0.934	correct	incongruent	Block3	incongruent/STIM_014.jpg
2558.681	0.529	correct	incongruent	Block3	incongruent/STIM_015.jpg
2561.395	0.899	correct	incongruent	Block3	incongruent/STIM_015.jpg
2564.948	0.79	correct	incongruent	Block3	incongruent/STIM_015.jpg
2569.128	0.468	correct	incongruent	Block3	incongruent/STIM_015.jpg
2573.202	0.532	correct	incongruent	Block3	incongruent/STIM_015.jpg
2576.403	0.556	correct	incongruent	Block3	incongruent/STIM_016.jpg
2579.276	0.617	correct	incongruent	Block3	incongruent/STIM_016.jpg
2582.639	0.693	correct	incongruent	Block3	incongruent/STIM_016.jpg
2587.085	0.678	correct	incongruent	Block3	incongruent/STIM_016.jpg
2591.595	0.764	incorrect	incongruent	Block3	incongruent/STIM_016.jpg
2595.742	0.612	correct	incongruent	Block3	incongruent/STIM_017.jpg
2598.826	0.733	correct	incongruent	Block3	incongruent/STIM_017.jpg
2603.284	0.67	correct	incongruent	Block3	incongruent/STIM_017.jpg
2607.666	0.955	correct	incongruent	Block3	incongruent/STIM_017.jpg
2611.813	0.842	correct	incongruent	Block3	incongruent/STIM_017.jpg
2615.205	0.73	correct	incongruent	Block3	incongruent/STIM_018.jpg
2618.85	0.676	correct	incongruent	Block3	incongruent/STIM_018.jpg
2621.864	0.633	correct	incongruent	Block3	incongruent/STIM_018.jpg
2625.967	0.969	correct	incongruent	Block3	incongruent/STIM_018.jpg
2629.067	0.527	correct	incongruent	Block3	incongruent/STIM_018.jpg
2633.387	0.866	correct	incongruent	Block3	incongruent/STIM_019.jpg
2637.502	0.513	correct	incongruent	Block3	incongruent/STIM_019.jpg
2640.184	0.907	correct	incongruent	Block3	incongruent/STIM_019.jpg
2643.76	0.49	correct	incongruent	Block3	incongruent/STIM_019.jpg
2646.843	0.764	correct	incongruent	Block3	incongruent/STIM_019.jpg
2650.443	0.812	correct	incongruent	Block3	incongruent/STIM_020.jpg
2654.421	0.519	correct	incongruent	Block3	incongruent/STIM_020.jpg
2657.966	0.958	correct	incongruent	Block3	incongruent/STIM_020.jpg
2661.188	0.617	correct	incongruent	Block3	incongruent/STIM_020.jpg
2665.08	0.864	correct	incongruent	Block3	incongruent/STIM_020.jpg
2668.339	0.562	correct	incongruent	Block3	incongruent/STIM_021.jpg
2672.504	0.511	incorrect	incongruent	Block3	incongruent/STIM_021.jpg
2676.812	0.834	correct	incongruent	Block3	incongruent/STIM_021.jpg
2679.742	0.952	correct	incongruent	Block3	incongruent/STIM_021.jpg
2684.382	0.506	correct	incongruent	Block3	incongruent/STIM_021.jpg
2686.92	0.899	correct	incongruent	Block3	incongruent/STIM_022.jpg
2691.454	0.81	correct	incongruent	Block3	incongruent/STIM_022.jpg
2694.613	0.922	correct	incongruent	Block3	incongruent/STIM_022.jpg
2697.865	0.962	correct	incongruent	Block3	incongruent/STIM_022.jpg
2702.402	0.787	correct	incongruent	Block3	incongruent/STIM_022.jpg
2706.635	0.513	correct	incongruent	Block3	incongruent/STIM_023.jpg
2710.541	0.838	correct	incongruent	Block3	incongruent/STIM_023.jpg
2713.815	0.795	correct	incongruent	Block3	incongruent/STIM_023.jpg
2718.22	0.696	correct	incongruent	Block3	incongruent/STIM_023.jpg
2722.42	0.982	correct	incongruent	Block3	incongruent/STIM_023.jpg
2725.585	0.606	correct	incongruent	Block3	incongruent/STIM_024.jpg
2729.972	0.484	correct	incongruent	Block3	incongruent/STIM_024.jpg
2734.079	0.722	correct	incongruent	Block3	incongruent/STIM_024.jpg
2738.511	0.681	correct	incongruent	Block3	incongruent/STIM_024.jpg
2742.958	0.869	correct	incongruent	Block3	incongruent/STIM_024.jpg
2747.522	0.913	correct	incongruent	Block3	incongruent/STIM_025.jpg
2752.324	0.726	correct	incongruent	Block3	incongruent/STIM_025.jpg
2756.175	0.848	correct	incongruent	Block3	incongruent/STIM_025.jpg
2760.923	0.568	correct	incongruent	Block3	incongruent/STIM_025.jpg
2763.507	0.758	correct	incongruent	Block3	incongruent/STIM_025.jpg
2768.189	0.464	correct	incongruent	Block3	incongruent/STIM_026.jpg
2771.651	0.81	correct	incongruent	Block3	incongruent/STIM_026.jpg
2775.83	0.668	correct	incongruent	Block3	incongruent/STIM_026.jpg
2780.396	0.508	correct	incongruent	Block3	incongruent/STIM_026.jpg
2784.572	0.741	correct	incongruent	Block3	incongruent/STIM_026.jpg
2788.113	0.87	correct	incongruent	Block3	incongruent/STIM_027.jpg
2791.05	0.538	correct	incongruent	Block3	incongruent/STIM_027.jpg
2795.044	0.622	correct	incongruent	Block3	incongruent/STIM_027.jpg
2798.004	0.984	correct	incongruent	Block3	incongruent/STIM_027.jpg
2802.972	0.538	correct	incongruent	Block3	incongruent/STIM_027.jpg
2806.769	0.748	correct	incongruent	Block3	incongruent/STIM_028.jpg
2811.287	0.679	correct	incongruent	Block3	incongruent/STIM_028.jpg
2815.627	0.695	correct	incongruent	Block3	incongruent/STIM_028.jpg
2819.79	0.472	correct	incongruent	Block3	incongruent/STIM_028.jpg
2822.46	0.495	correct	incongruent	Block3	incongruent/STIM_028.jpg
2826.436	0.951	correct	incongruent	Block3	incongruent/STIM_029.jpg
2831.27	0.51	correct	incongruent	Block3	incongruent/STIM_029.jpg
2835.757	0.754	correct	incongruent	Block3	incongruent/STIM_029.jpg
2840.075	0.525	correct	incongruent	Block3	incongruent/STIM_029.jpg
2843.415	0.933	correct	incongruent	Block3	incongruent/STIM_029.jpg
2846.988	0.679	incorrect	congruent	Block3	congruent/STIM_000.jpg
2849.787	0.661	correct	congruent	Block3	congruent/STIM_000.jpg
2853.626	0.496	correct	congruent	Block3	congruent/STIM_000.jpg
2856.935	0.734	correct	congruent	Block3	congruent/STIM_000.jpg
2859.717	0.828	correct	congruent	Block3	congruent/STIM_000.jpg
2862.984	0.53	correct	congruent	Block3	congruent/STIM_001.jpg
2865.783	0.764	correct	congruent	Block3	congruent/STIM_001.jpg
2870.366	0.799	correct	congruent	Block3	congruent/STIM_001.jpg
2874.595	0.693	correct	congruent	Block3	congruent/STIM_001.jpg
2878.927	0.714	correct	congruent	Block3	congruent/STIM_001.jpg
2881.844	0.814	correct	congruent	Block3	congruent/STIM_002.jpg
2884.98	0.784	correct	congruent	Block3	congruent/STIM_002.jpg
2888.372	0.676	correct	congruent	Block3	congruent/STIM_002.jpg
2892.883	0.612	correct	congruent	Block3	congruent/STIM_002.jpg
2897.101	0.478	correct	congruent	Block3	congruent/STIM_002.jpg
2899.957	0.503	correct	congruent	Block3	congruent/STIM_003.jpg
2903.187	0.754	correct	congruent	Block3	congruent/STIM_003.jpg
2907.192	0.762	correct	congruent	Block3	congruent/STIM_003.jpg
2911.326	0.717	correct	congruent	Block3	congruent/STIM_003.jpg
2915.906	0.511	correct	congruent	Block3	congruent/STIM_003.jpg
2918.685	0.815	correct	congruent	Block3	congruent/STIM_004.jpg
2923.267	0.788	correct	congruent	Block3	congruent/STIM_004.jpg
2927.814	0.478	correct	congruent	Block3	congruent/STIM_004.jpg
2931.142	0.599	correct	congruent	Block3	congruent/STIM_004.jpg
2935.667	0.534	correct	congruent	Block3	congruent/STIM_004.jpg
2938.653	0.821	correct	congruent	Block3	congruent/STIM_005.jpg
2942.282	0.484	correct	congruent	Block3	congruent/STIM_005.jpg
2945.097	0.574	correct	congruent	Block3	congruent/STIM_005.jpg
2948.708	0.763	correct	congruent	Block3	congruent/STIM_005.jpg
2953.075	0.66	correct	congruent	Block3	congruent/STIM_005.jpg
2957.054	0.538	correct	congruent	Block3	congruent/STIM_006.jpg
2961.369	0.775	correct	congruent	Block3	congruent/STIM_006.jpg
2965.269	0.591	correct	congruent	Block3	congruent/STIM_006.jpg
2969.341	0.534	correct	congruent	Block3	congruent/STIM_006.jpg
2971.906	0.517	correct	congruent	Block3	congruent/STIM_006.jpg
2975.619	0.78	correct	congruent	Block3	congruent/STIM_007.jpg
2980.39	0.63	correct	congruent	Block3	congruent/STIM_007.jpg
2983.966	0.73	correct	congruent	Block3	congruent/STIM_007.jpg
2987.207	0.623	correct	congruent	Block3	congruent/STIM_007.jpg
2991.179	0.501	correct	congruent	Block3	congruent/STIM_007.jpg
2994.731	0.65	correct	congruent	Block3	congruent/STIM_008.jpg
2998.874	0.686	correct	congruent	Block3	congruent/STIM_008.jpg
3002.741	0.711	correct	congruent	Block3	congruent/STIM_008.jpg
3006.971	0.588	correct	congruent	Block3	congruent/STIM_008.jpg
3010.852	0.688	correct	congruent	Block3	congruent/STIM_008.jpg
3015.191	0.677	correct	congruent	Block3	congruent/STIM_009.jpg
3019.441	0.505	correct	congruent	Block3	congruent/STIM_009.jpg
3022.174	0.56	correct	congruent	Block3	congruent/STIM_009.jpg
3026.377	0.796	correct	congruent	Block3	congruent/STIM_009.jpg
3031.088	0.567	correct	congruent	Block3	congruent/STIM_009.jpg
3033.83	0.641	correct	congruent	Block3	congruent/STIM_010.jpg
3037.148	0.815	incorrect	congruent	Block3	congruent/STIM_010.jpg
3041.958	0.499	correct	congruent	Block3	congruent/STIM_010.jpg
3045.703	0.648	correct	congruent	Block3	congruent/STIM_010.jpg
3050.282	0.737	correct	congruent	Block3	congruent/STIM_010.jpg
3054.578	0.556	correct	congruent	Block3	congruent/STIM_011.jpg
3057.911	0.678	correct	congruent	Block3	congruent/STIM_011.jpg
3061.834	0.489	correct	congruent	Block3	congruent/STIM_011.jpg
3064.509	0.763	correct	congruent	Block3	congruent/STIM_011.jpg
3068.026	0.845	correct	congruent	Block3	congruent/STIM_011.jpg
3072.188	0.523	correct	congruent	Block3	congruent/STIM_012.jpg
3076.491	0.627	correct	congruent	Block3	congruent/STIM_012.jpg
3080.08	0.773	correct	congruent	Block3	congruent/STIM_012.jpg
3083.325	0.67	correct	congruent	Block3	congruent/STIM_012.jpg
3086.569	0.617	correct	congruent	Block3	congruent/STIM_012.jpg
3089.685	0.842	correct	congruent	Block3	congruent/STIM_013.jpg
3093.837	0.652	correct	congruent	Block3	congruent/STIM_013.jpg
3097.382	0.52	correct	congruent	Block3	congruent/STIM_013.jpg
3101.185	0.579	correct	congruent	Block3	congruent/STIM_013.jpg
3103.791	0.636	correct	congruent	Block3	congruent/STIM_013.jpg
3108.222	0.567	correct	congruent	Block3	congruent/STIM_014.jpg
3111.183	0.668	correct	congruent	Block3	congruent/STIM_014.jpg
3114.548	0.584	correct	congruent	Block3	congruent/STIM_014.jpg
3117.581	0.546	correct	congruent	Block3	congruent/STIM_014.jpg
3121.016	0.635	correct	congruent	Block3	congruent/STIM_014.jpg
3124.223	0.674	correct	congruent	Block3	congruent/STIM_015.jpg
3127.719	0.561	correct	congruent	Block3	congruent/STIM_015.jpg
3130.76	0.583	correct	congruent	Block3	congruent/STIM_015.jpg
3133.5	0.549	correct	congruent	Block3	congruent/STIM_015.jpg
3136.583	0.511	correct	congruent	Block3	congruent/STIM_015.jpg
3139.217	0.622	correct	congruent	Block3	congruent/STIM_016.jpg
3142.851	0.791	incorrect	congruent	Block3	congruent/STIM_016.jpg
3145.659	0.479	correct	congruent	Block3	congruent/STIM_016.jpg
3149.454	0.836	correct	congruent	Block3	congruent/STIM_016.jpg
3154.044	0.783	correct	congruent	Block3	congruent/STIM_016.jpg
3157.471	0.698	correct	congruent	Block3	congruent/STIM_017.jpg
3162.064	0.694	correct	congruent	Block3	congruent/STIM_017.jpg
3166.554	0.511	correct	congruent	Block3	congruent/STIM_017.jpg
3170.548	0.774	correct	congruent	Block3	congruent/STIM_017.jpg
3174.668	0.481	correct	congruent	Block3	congruent/STIM_017.jpg
3177.276	0.668	incorrect	congruent	Block3	congruent/STIM_018.jpg
3181.44	0.5	correct	congruent	Block3	congruent/STIM_018.jpg
3185.588	0.492	correct	congruent	Block3	congruent/STIM_018.jpg
3188.502	0.827	correct	congruent	Block3	congruent/STIM_018.jpg
3192.137	0.68	correct	congruent	Block3	congruent/STIM_018.jpg
3195.54	0.645	correct	congruent	Block3	congruent/STIM_019.jpg
3198.919	0.815	correct	congruent	Block3	congruent/STIM_019.jpg
3202.442	0.651	correct	congruent	Block3	congruent/STIM_019.jpg
3205.886	0.767	correct	congruent	Block3	congruent/STIM_019.jpg
3209.389	0.59	correct	congruent	Block3	congruent/STIM_019.jpg
3212.782	0.585	correct	congruent	Block3	congruent/STIM_020.jpg
3215.841	0.558	correct	congruent	Block3	congruent/STIM_020.jpg
3219.443	0.582	correct	congruent	Block3	congruent/STIM_020.jpg
3222.859	0.598	correct	congruent	Block3	congruent/STIM_020.jpg
3226.905	0.539	correct	congruent	Block3	congruent/STIM_020.jpg
3229.694	0.667	correct	congruent	Block3	congruent/STIM_021.jpg
3232.802	0.579	correct	congruent	Block3	congruent/STIM_021.jpg
3236.872	0.615	correct	congruent	Block3	congruent/STIM_021.jpg
3240.156	0.67	correct	congruent	Block3	congruent/STIM_021.jpg
3243.514	0.587	correct	congruent	Block3	congruent/STIM_021.jpg
3247.508	0.646	correct	congruent	Block3	congruent/STIM_022.jpg
3251.039	0.533	correct	congruent	Block3	congruent/STIM_022.jpg
3254.477	0.542	correct	congruent	Block3	congruent/STIM_022.jpg
3257.804	0.828	correct	congruent	Block3	congruent/STIM_022.jpg
3261.293	0.729	correct	congruent	Block3	congruent/STIM_022.jpg
3264.104	0.546	correct	congruent	Block3	congruent/STIM_023.jpg
3268.594	0.584	correct	congruent	Block3	congruent/STIM_023.jpg
3272.322	0.683	correct	congruent	Block3	congruent/STIM_023.jpg
3276.147	0.827	correct	congruent	Block3	congruent/STIM_023.jpg
3279.045	0.49	correct	congruent	Block3	congruent/STIM_023.jpg
3282.086	0.63	correct	congruent	Block3	congruent/STIM_024.jpg
3285.038	0.738	correct	congruent	Block3	congruent/STIM_024.jpg
3288.459	0.673	correct	congruent	Block3	congruent/STIM_024.jpg
3291.899	0.521	correct	congruent	Block3	congruent/STIM_024.jpg
3295.522	0.794	correct	congruent	Block3	congruent/STIM_024.jpg
3298.413	0.554	correct	congruent	Block3	congruent/STIM_025.jpg
3301.459	0.61	correct	congruent	Block3	congruent/STIM_025.jpg
3304.174	0.683	correct	congruent	Block3	congruent/STIM_025.jpg
3307.443	0.55	correct	congruent	Block3	congruent/STIM_025.jpg
3310.231	0.759	correct	congruent	Block3	congruent/STIM_025.jpg
3313.251	0.566	correct	congruent	Block3	congruent/STIM_026.jpg
3315.981	0.532	correct	congruent	Block3	congruent/STIM_026.jpg
3318.765	0.725	correct	congruent	Block3	congruent/STIM_026.jpg
3323.456	0.751	correct	congruent	Block3	congruent/STIM_026.jpg
3328.114	0.62	correct	congruent	Block3	congruent/STIM_026.jpg
3332.093	0.74	correct	congruent	Block3	congruent/STIM_027.jpg
3336.445	0.583	correct	congruent	Block3	congruent/STIM_027.jpg
3340.795	0.53	correct	congruent	Block3	congruent/STIM_027.jpg
3344.88	0.756	correct	congruent	Block3	congruent/STIM_027.jpg
3349.334	0.708	correct	congruent	Block3	congruent/STIM_027.jpg
3352.674	0.747	correct	congruent	Block3	congruent/STIM_028.jpg
3356.512	0.764	correct	congruent	Block3	congruent/STIM_028.jpg
3360.206	0.842	correct	congruent	Block3	congruent/STIM_028.jpg
3364.753	0.714	correct	congruent	Block3	congruent/STIM_028.jpg
3368.582	0.834	correct	congruent	Block3	congruent/STIM_028.jpg
3373.354	0.748	correct	congruent	Block3	congruent/STIM_029.jpg
3377.732	0.694	correct	congruent	Block3	congruent/STIM_029.jpg
3381.116	0.531	correct	congruent	Block3	congruent/STIM_029.jpg
3383.675	0.54	correct	congruent	Block3	congruent/STIM_029.jpg
3387.907	0.599	correct	congruent	Block3	congruent/STIM_029.jpg
