onset	duration	response_time_ms	trial_type	learning_stage	stimulus	response_port
0.0	0.914	914.0	incongruent	Block1	incongruent/STIM_000.jpg	100
4.654	0.982	982.1	incongruent	Block1	incongruent/STIM_000.jpg	99
9.469	0.852	852.0	incongruent	Block1	incongruent/STIM_000.jpg	100
13.516	1.026	1026.3	incongruent	Block1	incongruent/STIM_000.jpg	99
16.62	0.787	787.1	incongruent	Block1	incongruent/STIM_000.jpg	99
20.137	1.049	1049.3	incongruent	Block1	incongruent/STIM_001.jpg	99
24.426	0.958	957.5	incongruent	Block1	incongruent/STIM_001.jpg	100
27.997	0.921	920.8	incongruent	Block1	incongruent/STIM_001.jpg	100
32.907	0.955	954.9	incongruent	Block1	incongruent/STIM_001.jpg	99
36.158	1.128	1128.3	incongruent	Block1	incongruent/STIM_001.jpg	99
40.822	1.307	1306.6	incongruent	Block1	incongruent/STIM_002.jpg	100
44.759	1.101	1101.4	incongruent	Block1	incongruent/STIM_002.jpg	100
48.303	0.654	653.9	incongruent	Block1	incongruent/STIM_002.jpg	100
51.891	0.739	739.4	incongruent	Block1	incongruent/STIM_002.jpg	100
55.852	1.112	1112.3	incongruent	Block1	incongruent/STIM_002.jpg	100
60.468	0.871	871.4	incongruent	Block1	incongruent/STIM_003.jpg	100
64.855	0.775	775.1	incongruent	Block1	incongruent/STIM_003.jpg	100
69.572	1.184	1183.8	incongruent	Block1	incongruent/STIM_003.jpg	99
73.734	0.928	927.6	incongruent	Block1	incongruent/STIM_003.jpg	100
78.435	0.604	603.5	incongruent	Block1	incongruent/STIM_003.jpg	100
81.284	1.39	1389.5	incongruent	Block1	incongruent/STIM_004.jpg	100
85.376	0.717	717.4	incongruent	Block1	incongruent/STIM_004.jpg	100
88.331	1.166	1165.8	incongruent	Block1	incongruent/STIM_004.jpg	99
93.375	0.743	742.9	incongruent	Block1	incongruent/STIM_004.jpg	100
97.533	1.008	1007.9	incongruent	Block1	incongruent/STIM_004.jpg	99
101.44	0.811	810.8	incongruent	Block1	incongruent/STIM_005.jpg	100
104.708	1.255	1255.2	incongruent	Block1	incongruent/STIM_005.jpg	100
108.186	1.097	1097.2	incongruent	Block1	incongruent/STIM_005.jpg	100
112.488	0.568	568.2	incongruent	Block1	incongruent/STIM_005.jpg	99
116.949	0.781	781.0	incongruent	Block1	incongruent/STIM_005.jpg	99
121.238	1.16	1159.6	incongruent	Block1	incongruent/STIM_006.jpg	100
125.112	1.312	1312.1	incongruent	Block1	incongruent/STIM_006.jpg	99
128.699	1.089	1088.6	incongruent	Block1	incongruent/STIM_006.jpg	100
132.801	1.185	1184.9	incongruent	Block1	incongruent/STIM_006.jpg	100
137.968	0.842	842.2	incongruent	Block1	incongruent/STIM_006.jpg	99
141.261	1.301	1301.3	incongruent	Block1	incongruent/STIM_007.jpg	99
144.657	0.894	894.0	incongruent	Block1	incongruent/STIM_007.jpg	100
148.581	1.076	1076.2	incongruent	Block1	incongruent/STIM_007.jpg	99
153.456	0.928	927.8	incongruent	Block1	incongruent/STIM_007.jpg	99
157.202	0.778	778.5	incongruent	Block1	incongruent/STIM_007.jpg	99
160.839	1.205	1205.2	incongruent	Block1	incongruent/STIM_008.jpg	99
165.743	0.855	855.4	incongruent	Block1	incongruent/STIM_008.jpg	99
169.94	1.128	1128.1	incongruent	Block1	incongruent/STIM_008.jpg	99
174.649	0.626	625.9	incongruent	Block1	incongruent/STIM_008.jpg	100
178.845	1.01	1010.5	incongruent	Block1	incongruent/STIM_008.jpg	100
183.681	0.985	984.7	incongruent	Block1	incongruent/STIM_009.jpg	99
187.593	0.741	740.6	incongruent	Block1	incongruent/STIM_009.jpg	100
191.83	1.144	1143.9	incongruent	Block1	incongruent/STIM_009.jpg	100
196.338	0.869	869.3	incongruent	Block1	incongruent/STIM_009.jpg	100
200.269	0.783	783.0	incongruent	Block1	incongruent/STIM_009.jpg	99
204.044	0.785	785.2	incongruent	Block1	incongruent/STIM_010.jpg	99
208.048	0.742	742.3	incongruent	Block1	incongruent/STIM_010.jpg	100
212.086	1.266	1266.3	incongruent	Block1	incongruent/STIM_010.jpg	100
215.733	1.145	1145.2	incongruent	Block1	incongruent/STIM_010.jpg	100
220.813	0.876	876.3	incongruent	Block1	incongruent/STIM_010.jpg	100
223.784	0.701	700.7	incongruent	Block1	incongruent/STIM_011.jpg	99
227.146	0.969	969.0	incongruent	Block1	incongruent/STIM_011.jpg	100
231.06	0.963	963.1	incongruent	Block1	incongruent/STIM_011.jpg	100
235.34	0.782	782.4	incongruent	Block1	incongruent/STIM_011.jpg	99
238.263	0.837	836.7	incongruent	Block1	incongruent/STIM_011.jpg	100
242.922	0.671	671.2	incongruent	Block1	incongruent/STIM_012.jpg	99
246.274	1.272	1271.7	incongruent	Block1	incongruent/STIM_012.jpg	100
250.356	1.274	1273.7	incongruent	Block1	incongruent/STIM_012.jpg	100
254.302	1.071	1071.2	incongruent	Block1	incongruent/STIM_012.jpg	99
257.627	0.854	854.1	incongruent	Block1	incongruent/STIM_012.jpg	99
261.895	1.398	1398.4	incongruent	Block1	incongruent/STIM_013.jpg	99
266.731	1.334	1334.4	incongruent	Block1	incongruent/STIM_013.jpg	99
271.275	0.776	776.1	incongruent	Block1	incongruent/STIM_013.jpg	100
275.978	1.048	1047.5	incongruent	Block1	incongruent/STIM_013.jpg	99
279.054	1.071	1070.8	incongruent	Block1	incongruent/STIM_013.jpg	100
284.073	1.025	1025.2	incongruent	Block1	incongruent/STIM_014.jpg	99
287.8	0.711	711.0	incongruent	Block1	incongruent/STIM_014.jpg	99
292.193	0.627	627.3	incongruent	Block1	incongruent/STIM_014.jpg	100
296.475	0.89	889.6	incongruent	Block1	incongruent/STIM_014.jpg	99
300.227	0.887	887.3	incongruent	Block1	incongruent/STIM_014.jpg	99
303.93	0.699	699.3	incongruent	Block1	incongruent/STIM_015.jpg	100
308.428	1.038	1038.5	incongruent	Block1	incongruent/STIM_015.jpg	100
313.452	0.738	738.1	incongruent	Block1	incongruent/STIM_015.jpg	100
316.71	0.646	645.7	incongruent	Block1	incongruent/STIM_015.jpg	100
321.14	1.088	1087.6	incongruent	Block1	incongruent/STIM_015.jpg	99
325.364	0.95	949.7	incongruent	Block1	incongruent/STIM_016.jpg	99
329.529	0.968	968.1	incongruent	Block1	incongruent/STIM_016.jpg	100
332.763	0.729	729.2	incongruent	Block1	incongruent/STIM_016.jpg	99
335.814	0.566	566.3	incongruent	Block1	incongruent/STIM_016.jpg	99
338.385	0.625	624.8	incongruent	Block1	incongruent/STIM_016.jpg	100
341.102	1.215	1214.6	incongruent	Block1	incongruent/STIM_017.jpg	100
346.225	0.762	761.9	incongruent	Block1	incongruent/STIM_017.jpg	100
350.683	1.26	1259.9	incongruent	Block1	incongruent/STIM_017.jpg	99
355.635	1.172	1171.6	incongruent	Block1	incongruent/STIM_017.jpg	100
359.019	0.93	930.5	incongruent	Block1	incongruent/STIM_017.jpg	100
363.523	1.236	1236.5	incongruent	Block1	incongruent/STIM_018.jpg	100
368.171	1.119	1119.2	incongruent	Block1	incongruent/STIM_018.jpg	99
372.676	1.108	1108.4	incongruent	Block1	incongruent/STIM_018.jpg	100
375.886	0.726	726.4	incongruent	Block1	incongruent/STIM_018.jpg	100
380.372	0.661	661.0	incongruent	Block1	incongruent/STIM_018.jpg	100
384.767	0.678	678.4	incongruent	Block1	incongruent/STIM_019.jpg	100
387.995	0.901	900.6	incongruent	Block1	incongruent/STIM_019.jpg	100
391.327	1.254	1254.0	incongruent	Block1	incongruent/STIM_019.jpg	100
396.444	0.622	621.7	incongruent	Block1	incongruent/STIM_019.jpg	100
401.007	1.06	1059.9	incongruent	Block1	incongruent/STIM_019.jpg	99
405.347	1.208	1208.3	incongruent	Block1	incongruent/STIM_020.jpg	99
410.198	0.936	936.2	incongruent	Block1	incongruent/STIM_020.jpg	99
414.564	0.665	665.4	incongruent	Block1	incongruent/STIM_020.jpg	99
418.374	1.17	1170.1	incongruent	Block1	incongruent/STIM_020.jpg	100
421.605	1.063	1063.1	incongruent	Block1	incongruent/STIM_020.jpg	100
425.624	0.694	693.5	incongruent	Block1	incongruent/STIM_021.jpg	100
428.958	0.862	862.0	incongruent	Block1	incongruent/STIM_021.jpg	99
433.064	1.219	1218.6	incongruent	Block1	incongruent/STIM_021.jpg	99
437.645	0.882	882.3	incongruent	Block1	incongruent/STIM_021.jpg	99
441.564	0.719	718.6	incongruent	Block1	incongruent/STIM_021.jpg	100
445.125	1.212	1212.2	incongruent	Block1	incongruent/STIM_022.jpg	100
448.696	1.134	1134.0	incongruent	Block1	incongruent/STIM_022.jpg	100
452.61	0.94	939.7	incongruent	Block1	incongruent/STIM_022.jpg	100
457.092	1.174	1173.6	incongruent	Block1	incongruent/STIM_022.jpg	100
461.07	0.566	566.3	incongruent	Block1	incongruent/STIM_022.jpg	99
464.031	1.177	1177.4	incongruent	Block1	incongruent/STIM_023.jpg	99
469.128	1.316	1316.5	incongruent	Block1	incongruent/STIM_023.jpg	99
472.918	0.842	842.4	incongruent	Block1	incongruent/STIM_023.jpg	99
476.316	0.776	775.8	incongruent	Block1	incongruent/STIM_023.jpg	99
480.312	0.756	756.4	incongruent	Block1	incongruent/STIM_023.jpg	99
484.561	1.111	1111.1	incongruent	Block1	incongruent/STIM_024.jpg	99
488.946	0.814	813.5	incongruent	Block1	incongruent/STIM_024.jpg	100
493.495	0.647	647.4	incongruent	Block1	incongruent/STIM_024.jpg	99
498.074	1.164	1164.5	incongruent	Block1	incongruent/STIM_024.jpg	100
502.743	0.819	819.0	incongruent	Block1	incongruent/STIM_024.jpg	99
506.31	0.806	806.0	incongruent	Block1	incongruent/STIM_025.jpg	100
510.567	1.337	1337.0	incongruent	Block1	incongruent/STIM_025.jpg	100
514.94	0.958	957.7	incongruent	Block1	incongruent/STIM_025.jpg	100
517.919	1.054	1054.0	incongruent	Block1	incongruent/STIM_025.jpg	100
522.179	0.629	629.4	incongruent	Block1	incongruent/STIM_025.jpg	100
525.104	1.346	1346.5	incongruent	Block1	incongruent/STIM_026.jpg	100
528.677	0.676	676.3	incongruent	Block1	incongruent/STIM_026.jpg	99
533.263	1.232	1232.1	incongruent	Block1	incongruent/STIM_026.jpg	99
536.721	1.165	1165.1	incongruent	Block1	incongruent/STIM_026.jpg	100
540.778	0.536	535.6	incongruent	Block1	incongruent/STIM_026.jpg	99
543.686	1.311	1310.8	incongruent	Block1	incongruent/STIM_027.jpg	100
548.697	1.322	1322.4	incongruent	Block1	incongruent/STIM_027.jpg	99
553.594	0.721	720.9	incongruent	Block1	incongruent/STIM_027.jpg	99
558.083	1.099	1098.6	incongruent	Block1	incongruent/STIM_027.jpg	99
561.438	1.078	1077.6	incongruent	Block1	incongruent/STIM_027.jpg	100
564.625	1.139	1139.0	incongruent	Block1	incongruent/STIM_028.jpg	99
568.75	1.082	1082.5	incongruent	Block1	incongruent/STIM_028.jpg	100
572.693	0.925	924.6	incongruent	Block1	incongruent/STIM_028.jpg	99
577.219	1.063	1062.9	incongruent	Block1	incongruent/STIM_028.jpg	99
580.704	1.067	1067.4	incongruent	Block1	incongruent/STIM_028.jpg	100
585.666	0.907	907.2	incongruent	Block1	incongruent/STIM_029.jpg	100
590.426	1.189	1189.1	incongruent	Block1	incongruent/STIM_029.jpg	99
594.804	0.952	952.3	incongruent	Block1	incongruent/STIM_029.jpg	99
599.61	0.85	850.4	incongruent	Block1	incongruent/STIM_029.jpg	99
603.338	0.706	706.3	incongruent	Block1	incongruent/STIM_029.jpg	99
606.09	0.711	710.9	congruent	Block1	congruent/STIM_000.jpg	99
609.434	0.805	805.3	congruent	Block1	congruent/STIM_000.jpg	100
613.931	0.811	811.3	congruent	Block1	congruent/STIM_000.jpg	100
617.478	0.838	838.0	congruent	Block1	congruent/STIM_000.jpg	100
621.546	0.572	572.2	congruent	Block1	congruent/STIM_000.jpg	99
624.311	0.496	495.5	congruent	Block1	congruent/STIM_001.jpg	100
628.111	0.813	812.6	congruent	Block1	congruent/STIM_001.jpg	99
631.159	0.683	682.7	congruent	Block1	congruent/STIM_001.jpg	100
635.743	0.725	724.9	congruent	Block1	congruent/STIM_001.jpg	99
639.869	0.682	682.4	congruent	Block1	congruent/STIM_001.jpg	100
643.958	0.668	667.8	congruent	Block1	congruent/STIM_002.jpg	100
648.487	0.797	796.6	congruent	Block1	congruent/STIM_002.jpg	100
652.494	0.648	647.6	congruent	Block1	congruent/STIM_002.jpg	100
656.714	0.759	758.9	congruent	Block1	congruent/STIM_002.jpg	100
661.057	0.595	594.9	congruent	Block1	congruent/STIM_002.jpg	99
664.098	0.713	712.8	congruent	Block1	congruent/STIM_003.jpg	100
667.829	0.67	670.5	congruent	Block1	congruent/STIM_003.jpg	99
670.563	0.845	845.0	congruent	Block1	congruent/STIM_003.jpg	99
674.366	0.657	657.3	congruent	Block1	congruent/STIM_003.jpg	100
678.158	0.729	728.9	congruent	Block1	congruent/STIM_003.jpg	100
682.711	0.83	830.0	congruent	Block1	congruent/STIM_004.jpg	100
687.342	0.582	581.5	congruent	Block1	congruent/STIM_004.jpg	100
690.705	0.651	650.8	congruent	Block1	congruent/STIM_004.jpg	99
695.289	0.477	477.1	congruent	Block1	congruent/STIM_004.jpg	100
697.981	0.7	699.5	congruent	Block1	congruent/STIM_004.jpg	100
701.285	0.828	827.9	congruent	Block1	congruent/STIM_005.jpg	99
705.846	0.478	477.8	congruent	Block1	congruent/STIM_005.jpg	100
709.698	0.714	714.0	congruent	Block1	congruent/STIM_005.jpg	99
713.926	0.813	813.2	congruent	Block1	congruent/STIM_005.jpg	99
717.745	0.528	528.0	congruent	Block1	congruent/STIM_005.jpg	99
720.762	0.491	490.6	congruent	Block1	congruent/STIM_006.jpg	99
723.464	0.789	788.9	congruent	Block1	congruent/STIM_006.jpg	100
727.519	0.492	492.3	congruent	Block1	congruent/STIM_006.jpg	100
731.852	0.639	638.9	congruent	Block1	congruent/STIM_006.jpg	99
735.773	0.661	661.0	congruent	Block1	congruent/STIM_006.jpg	100
739.516	0.547	547.1	congruent	Block1	congruent/STIM_007.jpg	99
743.489	0.609	608.7	congruent	Block1	congruent/STIM_007.jpg	99
747.209	0.501	500.8	congruent	Block1	congruent/STIM_007.jpg	100
750.865	0.619	619.4	congruent	Block1	congruent/STIM_007.jpg	99
754.336	0.641	641.4	congruent	Block1	congruent/STIM_007.jpg	100
757.205	0.824	823.6	congruent	Block1	congruent/STIM_008.jpg	99
760.151	0.742	741.9	congruent	Block1	congruent/STIM_008.jpg	100
763.389	0.825	825.3	congruent	Block1	congruent/STIM_008.jpg	99
768.076	0.496	496.2	congruent	Block1	congruent/STIM_008.jpg	100
770.94	0.54	539.8	congruent	Block1	congruent/STIM_008.jpg	99
775.054	0.641	641.0	congruent	Block1	congruent/STIM_009.jpg	100
779.101	0.552	552.3	congruent	Block1	congruent/STIM_009.jpg	99
782.226	0.809	809.3	congruent	Block1	congruent/STIM_009.jpg	100
785.666	0.775	774.8	congruent	Block1	congruent/STIM_009.jpg	100
789.922	0.676	675.9	congruent	Block1	congruent/STIM_009.jpg	100
792.966	0.71	710.0	congruent	Block1	congruent/STIM_010.jpg	99
796.914	0.57	570.1	congruent	Block1	congruent/STIM_010.jpg	100
799.903	0.561	561.3	congruent	Block1	congruent/STIM_010.jpg	100
804.325	0.485	484.8	congruent	Block1	congruent/STIM_010.jpg	99
808.741	0.575	575.0	congruent	Block1	congruent/STIM_010.jpg	99
813.259	0.671	670.9	congruent	Block1	congruent/STIM_011.jpg	99
817.29	0.485	485.2	congruent	Block1	congruent/STIM_011.jpg	100
820.297	0.514	514.5	congruent	Block1	congruent/STIM_011.jpg	100
823.542	0.815	815.0	congruent	Block1	congruent/STIM_011.jpg	100
826.511	0.804	804.4	congruent	Block1	congruent/STIM_011.jpg	99
829.812	0.587	586.9	congruent	Block1	congruent/STIM_012.jpg	99
832.49	0.75	750.5	congruent	Block1	congruent/STIM_012.jpg	100
835.706	0.541	541.3	congruent	Block1	congruent/STIM_012.jpg	100
839.05	0.491	491.1	congruent	Block1	congruent/STIM_012.jpg	100
842.796	0.722	721.9	congruent	Block1	congruent/STIM_012.jpg	100
846.238	0.495	495.3	congruent	Block1	congruent/STIM_013.jpg	100
850.184	0.744	743.5	congruent	Block1	congruent/STIM_013.jpg	100
853.208	0.517	517.4	congruent	Block1	congruent/STIM_013.jpg	100
856.046	0.569	569.2	congruent	Block1	congruent/STIM_013.jpg	99
859.469	0.633	633.2	congruent	Block1	congruent/STIM_013.jpg	99
863.981	0.727	727.0	congruent	Block1	congruent/STIM_014.jpg	100
867.783	0.794	794.1	congruent	Block1	congruent/STIM_014.jpg	100
871.502	0.623	622.7	congruent	Block1	congruent/STIM_014.jpg	99
875.098	0.648	648.0	congruent	Block1	congruent/STIM_014.jpg	99
877.843	0.799	798.6	congruent	Block1	congruent/STIM_014.jpg	99
880.82	0.813	813.3	congruent	Block1	congruent/STIM_015.jpg	99
885.242	0.622	621.9	congruent	Block1	congruent/STIM_015.jpg	99
889.401	0.578	577.9	congruent	Block1	congruent/STIM_015.jpg	100
892.418	0.568	567.9	congruent	Block1	congruent/STIM_015.jpg	99
896.812	0.824	824.3	congruent	Block1	congruent/STIM_015.jpg	100
899.746	0.676	676.0	congruent	Block1	congruent/STIM_016.jpg	99
902.574	0.481	480.8	congruent	Block1	congruent/STIM_016.jpg	99
905.247	0.643	643.0	congruent	Block1	congruent/STIM_016.jpg	100
908.742	0.743	743.3	congruent	Block1	congruent/STIM_016.jpg	99
913.27	0.735	734.6	congruent	Block1	congruent/STIM_016.jpg	100
917.654	0.741	740.9	congruent	Block1	congruent/STIM_017.jpg	99
922.121	0.646	646.0	congruent	Block1	congruent/STIM_017.jpg	99
924.989	0.678	677.8	congruent	Block1	congruent/STIM_017.jpg	100
927.749	0.727	727.4	congruent	Block1	congruent/STIM_017.jpg	99
931.649	0.735	735.4	congruent	Block1	congruent/STIM_017.jpg	100
935.764	0.829	829.0	congruent	Block1	congruent/STIM_018.jpg	100
940.136	0.562	562.0	congruent	Block1	congruent/STIM_018.jpg	100
944.323	0.798	797.6	congruent	Block1	congruent/STIM_018.jpg	100
948.067	0.506	505.7	congruent	Block1	congruent/STIM_018.jpg	100
951.635	0.608	607.8	congruent	Block1	congruent/STIM_018.jpg	100
956.2	0.52	520.4	congruent	Block1	congruent/STIM_019.jpg	99
960.505	0.545	544.8	congruent	Block1	congruent/STIM_019.jpg	100
964.396	0.726	726.1	congruent	Block1	congruent/STIM_019.jpg	99
967.776	0.631	631.1	congruent	Block1	congruent/STIM_019.jpg	99
971.507	0.773	773.4	congruent	Block1	congruent/STIM_019.jpg	100
976.042	0.85	849.5	congruent	Block1	congruent/STIM_020.jpg	100
980.378	0.776	776.4	congruent	Block1	congruent/STIM_020.jpg	99
985.0	0.682	681.7	congruent	Block1	congruent/STIM_020.jpg	99
989.027	0.702	701.8	congruent	Block1	congruent/STIM_020.jpg	99
993.013	0.789	788.7	congruent	Block1	congruent/STIM_020.jpg	100
997.121	0.485	484.7	congruent	Block1	congruent/STIM_021.jpg	99
1000.237	0.602	602.3	congruent	Block1	congruent/STIM_021.jpg	100
1003.622	0.63	629.5	congruent	Block1	congruent/STIM_021.jpg	100
1006.584	0.752	752.0	congruent	Block1	congruent/STIM_021.jpg	99
1011.125	0.706	706.1	congruent	Block1	congruent/STIM_021.jpg	99
1014.035	0.584	584.1	congruent	Block1	congruent/STIM_022.jpg	100
1017.74	0.703	702.7	congruent	Block1	congruent/STIM_022.jpg	99
1020.996	0.727	726.9	congruent	Block1	congruent/STIM_022.jpg	100
1023.883	0.601	601.3	congruent	Block1	congruent/STIM_022.jpg	100
1027.622	0.567	567.1	congruent	Block1	congruent/STIM_022.jpg	99
1032.184	0.501	501.1	congruent	Block1	congruent/STIM_023.jpg	100
1035.188	0.661	660.9	congruent	Block1	congruent/STIM_023.jpg	100
1039.457	0.474	474.1	congruent	Block1	congruent/STIM_023.jpg	99
1043.233	0.772	772.4	congruent	Block1	congruent/STIM_023.jpg	99
1046.405	0.548	548.0	congruent	Block1	congruent/STIM_023.jpg	99
1050.89	0.574	574.1	congruent	Block1	congruent/STIM_024.jpg	99
1054.064	0.737	736.8	congruent	Block1	congruent/STIM_024.jpg	100
1057.943	0.641	640.9	congruent	Block1	congruent/STIM_024.jpg	99
1061.941	0.818	817.6	congruent	Block1	congruent/STIM_024.jpg	100
1065.528	0.488	488.3	congruent	Block1	congruent/STIM_024.jpg	100
1069.841	0.765	765.2	congruent	Block1	congruent/STIM_025.jpg	100
1074.252	0.48	480.1	congruent	Block1	congruent/STIM_025.jpg	99
1078.682	0.506	506.1	congruent	Block1	congruent/STIM_025.jpg	99
1081.929	0.831	830.7	congruent	Block1	congruent/STIM_025.jpg	100
1085.452	0.629	629.2	congruent	Block1	congruent/STIM_025.jpg	99
1090.071	0.621	621.3	congruent	Block1	congruent/STIM_026.jpg	99
1094.18	0.848	847.6	congruent	Block1	congruent/STIM_026.jpg	100
1098.334	0.517	516.7	congruent	Block1	congruent/STIM_026.jpg	100
1101.194	0.599	598.7	congruent	Block1	congruent/STIM_026.jpg	100
1104.437	0.817	817.0	congruent	Block1	congruent/STIM_026.jpg	100
1107.585	0.692	692.3	congruent	Block1	congruent/STIM_027.jpg	99
1112.059	0.569	569.2	congruent	Block1	congruent/STIM_027.jpg	99
1114.861	0.559	559.0	congruent	Block1	congruent/STIM_027.jpg	100
1117.965	0.814	813.5	congruent	Block1	congruent/STIM_027.jpg	99
1120.87	0.536	536.5	congruent	Block1	congruent/STIM_027.jpg	99
1124.886	0.477	476.8	congruent	Block1	congruent/STIM_028.jpg	99
1127.531	0.507	507.0	congruent	Block1	congruent/STIM_028.jpg	99
1131.511	0.5	499.7	congruent	Block1	congruent/STIM_028.jpg	99
1135.291	0.651	651.0	congruent	Block1	congruent/STIM_028.jpg	99
1138.228	0.611	610.6	congruent	Block1	congruent/STIM_028.jpg	100
1142.667	0.562	562.3	congruent	Block1	congruent/STIM_029.jpg	100
1146.741	0.694	694.5	congruent	Block1	congruent/STIM_029.jpg	100
1149.927	0.766	766.0	congruent	Block1	congruent/STIM_029.jpg	99
1154.544	0.557	557.4	congruent	Block1	congruent/STIM_029.jpg	99
1157.649	0.628	628.1	congruent	Block1	congruent/STIM_029.jpg	99
1160.607	0.964	964.5	incongruent	Block2	incongruent/STIM_000.jpg	100
1164.232	0.749	748.8	incongruent	Block2	incongruent/STIM_000.jpg	100
1168.868	1.055	1055.4	incongruent	Block2	incongruent/STIM_000.jpg	100
1172.802	0.968	967.9	incongruent	Block2	incongruent/STIM_000.jpg	100
1176.422	0.498	497.9	incongruent	Block2	incongruent/STIM_000.jpg	100
1179.371	0.904	903.8	incongruent	Block2	incongruent/STIM_001.jpg	100
1183.455	0.988	988.5	incongruent	Block2	incongruent/STIM_001.jpg	100
1186.869	0.59	589.8	incongruent	Block2	incongruent/STIM_001.jpg	99
1189.993	0.794	794.5	incongruent	Block2	incongruent/STIM_001.jpg	100
1194.446	0.531	531.2	incongruent	Block2	incongruent/STIM_001.jpg	99
1198.208	1.126	1126.4	incongruent	Block2	incongruent/STIM_002.jpg	100
1202.043	1.072	1071.6	incongruent	Block2	incongruent/STIM_002.jpg	100
1205.177	0.529	528.6	incongruent	Block2	incongruent/STIM_002.jpg	100
1209.203	0.636	636.2	incongruent	Block2	incongruent/STIM_002.jpg	100
1213.261	0.784	783.8	incongruent	Block2	incongruent/STIM_002.jpg	100
1218.001	1.116	1116.3	incongruent	Block2	incongruent/STIM_003.jpg	100
1222.953	1.13	1130.4	incongruent	Block2	incongruent/STIM_003.jpg	99
1226.143	0.662	661.9	incongruent	Block2	incongruent/STIM_003.jpg	100
1229.668	0.672	672.4	incongruent	Block2	incongruent/STIM_003.jpg	100
1233.252	0.763	763.4	incongruent	Block2	incongruent/STIM_003.jpg	99
1236.401	0.956	956.5	incongruent	Block2	incongruent/STIM_004.jpg	99
1239.507	0.992	992.4	incongruent	Block2	incongruent/STIM_004.jpg	99
1242.825	0.947	947.2	incongruent	Block2	incongruent/STIM_004.jpg	100
1247.594	0.599	598.7	incongruent	Block2	incongruent/STIM_004.jpg	99
1252.093	0.467	467.3	incongruent	Block2	incongruent/STIM_004.jpg	99
1254.748	0.596	596.3	incongruent	Block2	incongruent/STIM_005.jpg	99
1257.795	1.124	1123.9	incongruent	Block2	incongruent/STIM_005.jpg	99
1262.364	0.552	552.2	incongruent	Block2	incongruent/STIM_005.jpg	99
1266.026	0.556	556.0	incongruent	Block2	incongruent/STIM_005.jpg	100
1269.771	0.472	472.1	incongruent	Block2	incongruent/STIM_005.jpg	99
1272.456	0.793	793.1	incongruent	Block2	incongruent/STIM_006.jpg	99
1275.306	0.753	753.4	incongruent	Block2	incongruent/STIM_006.jpg	100
1279.295	0.95	949.5	incongruent	Block2	incongruent/STIM_006.jpg	100
1283.758	0.831	831.1	incongruent	Block2	incongruent/STIM_006.jpg	100
1286.972	0.892	891.6	incongruent	Block2	incongruent/STIM_006.jpg	99
1290.236	0.697	696.7	incongruent	Block2	incongruent/STIM_007.jpg	100
1294.553	0.862	862.1	incongruent	Block2	incongruent/STIM_007.jpg	99
1299.25	0.532	532.5	incongruent	Block2	incongruent/STIM_007.jpg	99
1302.263	0.688	688.0	incongruent	Block2	incongruent/STIM_007.jpg	99
1306.883	0.987	987.1	incongruent	Block2	incongruent/STIM_007.jpg	100
1310.517	0.893	893.1	incongruent	Block2	incongruent/STIM_008.jpg	100
1313.793	0.586	586.3	incongruent	Block2	incongruent/STIM_008.jpg	99
1318.219	0.519	519.2	incongruent	Block2	incongruent/STIM_008.jpg	100
1322.054	0.649	649.4	incongruent	Block2	incongruent/STIM_008.jpg	100
1325.351	0.749	749.2	incongruent	Block2	incongruent/STIM_008.jpg	100
1328.848	0.873	872.7	incongruent	Block2	incongruent/STIM_009.jpg	99
1333.258	0.729	729.3	incongruent	Block2	incongruent/STIM_009.jpg	100
1336.175	0.63	630.4	incongruent	Block2	incongruent/STIM_009.jpg	99
1340.749	0.522	521.5	incongruent	Block2	incongruent/STIM_009.jpg	99
1344.369	0.925	924.6	incongruent	Block2	incongruent/STIM_009.jpg	100
1347.905	0.706	705.8	incongruent	Block2	incongruent/STIM_010.jpg	100
1351.48	0.774	773.6	incongruent	Block2	incongruent/STIM_010.jpg	100
1355.845	0.53	530.0	incongruent	Block2	incongruent/STIM_010.jpg	99
1358.431	0.557	557.0	incongruent	Block2	incongruent/STIM_010.jpg	99
1361.645	0.481	480.8	incongruent	Block2	incongruent/STIM_010.jpg	99
1365.416	0.935	934.6	incongruent	Block2	incongruent/STIM_011.jpg	99
1368.634	0.899	899.3	incongruent	Block2	incongruent/STIM_011.jpg	100
1371.572	0.686	685.7	incongruent	Block2	incongruent/STIM_011.jpg	100
1375.783	0.528	528.4	incongruent	Block2	incongruent/STIM_011.jpg	99
1379.863	0.843	842.7	incongruent	Block2	incongruent/STIM_011.jpg	100
1383.518	0.657	656.8	incongruent	Block2	incongruent/STIM_012.jpg	99
1387.662	0.858	858.1	incongruent	Block2	incongruent/STIM_012.jpg	99
1392.144	0.774	774.0	incongruent	Block2	incongruent/STIM_012.jpg	99
1396.852	0.725	724.9	incongruent	Block2	incongruent/STIM_012.jpg	100
1401.428	0.798	798.5	incongruent	Block2	incongruent/STIM_012.jpg	100
1405.993	0.743	743.0	incongruent	Block2	incongruent/STIM_013.jpg	100
1409.379	0.76	760.0	incongruent	Block2	incongruent/STIM_013.jpg	100
1412.783	0.973	972.9	incongruent	Block2	incongruent/STIM_013.jpg	100
1417.36	0.623	623.0	incongruent	Block2	incongruent/STIM_013.jpg	100
1420.371	0.71	709.7	incongruent	Block2	incongruent/STIM_013.jpg	100
1423.294	0.616	616.1	incongruent	Block2	incongruent/STIM_014.jpg	100
1427.505	0.607	606.7	incongruent	Block2	incongruent/STIM_014.jpg	99
1431.408	0.744	744.2	incongruent	Block2	incongruent/STIM_014.jpg	100
1435.144	0.68	679.5	incongruent	Block2	incongruent/STIM_014.jpg	100
1439.313	0.958	958.5	incongruent	Block2	incongruent/STIM_014.jpg	100
1442.934	0.799	798.8	incongruent	Block2	incongruent/STIM_015.jpg	100
1447.499	0.754	753.7	incongruent	Block2	incongruent/STIM_015.jpg	99
1450.318	0.623	623.0	incongruent	Block2	incongruent/STIM_015.jpg	99
1453.951	0.971	971.1	incongruent	Block2	incongruent/STIM_015.jpg	100
1457.99	0.543	543.0	incongruent	Block2	incongruent/STIM_015.jpg	100
1462.243	1.016	1016.0	incongruent	Block2	incongruent/STIM_016.jpg	99
1465.743	0.896	895.7	incongruent	Block2	incongruent/STIM_016.jpg	99
1470.46	0.672	672.4	incongruent	Block2	incongruent/STIM_016.jpg	100
1474.472	0.694	694.2	incongruent	Block2	incongruent/STIM_016.jpg	100
1477.683	0.478	478.5	incongruent	Block2	incongruent/STIM_016.jpg	99
1481.361	0.594	594.0	incongruent	Block2	incongruent/STIM_017.jpg	100
1485.76	0.982	982.5	incongruent	Block2	incongruent/STIM_017.jpg	100
1490.3	0.635	634.9	incongruent	Block2	incongruent/STIM_017.jpg	100
1492.975	0.665	664.9	incongruent	Block2	incongruent/STIM_017.jpg	99
1496.734	0.582	582.0	incongruent	Block2	incongruent/STIM_017.jpg	99
1500.248	0.942	941.6	incongruent	Block2	incongruent/STIM_018.jpg	99
1504.571	0.905	904.8	incongruent	Block2	incongruent/STIM_018.jpg	100
1509.147	0.684	683.7	incongruent	Block2	incongruent/STIM_018.jpg	99
1511.89	0.506	506.1	incongruent	Block2	incongruent/STIM_018.jpg	99
1514.424	0.805	805.1	incongruent	Block2	incongruent/STIM_018.jpg	100
1519.125	0.608	607.7	incongruent	Block2	incongruent/STIM_019.jpg	99
1522.611	1.102	1102.3	incongruent	Block2	incongruent/STIM_019.jpg	100
1527.011	0.636	635.8	incongruent	Block2	incongruent/STIM_019.jpg	99
1531.303	0.676	676.4	incongruent	Block2	incongruent/STIM_019.jpg	100
1534.266	0.539	538.8	incongruent	Block2	incongruent/STIM_019.jpg	100
1537.997	0.888	888.3	incongruent	Block2	incongruent/STIM_020.jpg	100
1540.958	1.045	1044.8	incongruent	Block2	incongruent/STIM_020.jpg	99
1544.379	1.0	1000.2	incongruent	Block2	incongruent/STIM_020.jpg	100
1548.826	0.977	977.3	incongruent	Block2	incongruent/STIM_020.jpg	99
1552.743	0.746	745.6	incongruent	Block2	incongruent/STIM_020.jpg	99
1556.286	0.718	718.3	incongruent	Block2	incongruent/STIM_021.jpg	100
1559.007	0.96	960.1	incongruent	Block2	incongruent/STIM_021.jpg	100
1562.085	0.721	720.9	incongruent	Block2	incongruent/STIM_021.jpg	100
1564.912	0.947	946.8	incongruent	Block2	incongruent/STIM_021.jpg	100
1568.248	0.646	645.8	incongruent	Block2	incongruent/STIM_021.jpg	100
1571.495	0.571	571.0	incongruent	Block2	incongruent/STIM_022.jpg	99
1575.75	0.621	621.2	incongruent	Block2	incongruent/STIM_022.jpg	99
1579.011	1.051	1050.8	incongruent	Block2	incongruent/STIM_022.jpg	99
1582.72	0.8	800.4	incongruent	Block2	incongruent/STIM_022.jpg	99
1586.031	0.554	554.1	incongruent	Block2	incongruent/STIM_022.jpg	100
1590.576	0.747	747.1	incongruent	Block2	incongruent/STIM_023.jpg	99
1594.905	0.684	683.9	incongruent	Block2	incongruent/STIM_023.jpg	99
1597.59	0.91	910.0	incongruent	Block2	incongruent/STIM_023.jpg	99
1601.825	0.909	909.3	incongruent	Block2	incongruent/STIM_023.jpg	100
1606.113	0.63	630.5	incongruent	Block2	incongruent/STIM_023.jpg	99
1610.479	1.172	1172.2	incongruent	Block2	incongruent/STIM_024.jpg	100
1614.88	0.751	751.4	incongruent	Block2	incongruent/STIM_024.jpg	100
1619.183	0.846	846.3	incongruent	Block2	incongruent/STIM_024.jpg	100
1622.438	0.887	887.3	incongruent	Block2	incongruent/STIM_024.jpg	99
1626.853	0.936	936.5	incongruent	Block2	incongruent/STIM_024.jpg	99
1631.452	0.822	821.9	incongruent	Block2	incongruent/STIM_025.jpg	100
1634.943	0.704	703.7	incongruent	Block2	incongruent/STIM_025.jpg	99
1638.723	0.595	594.9	incongruent	Block2	incongruent/STIM_025.jpg	99
1641.438	0.708	708.1	incongruent	Block2	incongruent/STIM_025.jpg	99
1645.287	0.729	728.9	incongruent	Block2	incongruent/STIM_025.jpg	99
1648.741	0.657	657.1	incongruent	Block2	incongruent/STIM_026.jpg	100
1652.598	1.116	1115.6	incongruent	Block2	incongruent/STIM_026.jpg	99
1656.081	0.662	662.2	incongruent	Block2	incongruent/STIM_026.jpg	100
1659.643	0.742	742.1	incongruent	Block2	incongruent/STIM_026.jpg	99
1663.128	0.598	597.8	incongruent	Block2	incongruent/STIM_026.jpg	100
1667.524	1.119	1118.9	incongruent	Block2	incongruent/STIM_027.jpg	99
1671.056	0.92	920.0	incongruent	Block2	incongruent/STIM_027.jpg	99
1674.236	0.59	589.6	incongruent	Block2	incongruent/STIM_027.jpg	99
1677.61	0.985	984.7	incongruent	Block2	incongruent/STIM_027.jpg	100
1682.478	0.674	674.1	incongruent	Block2	incongruent/STIM_027.jpg	100
1686.071	1.047	1047.4	incongruent	Block2	incongruent/STIM_028.jpg	100
1690.768	1.1	1100.2	incongruent	Block2	incongruent/STIM_028.jpg	99
1694.847	0.69	690.5	incongruent	Block2	incongruent/STIM_028.jpg	99
1697.95	0.529	528.9	incongruent	Block2	incongruent/STIM_028.jpg	99
1700.977	0.682	681.7	incongruent	Block2	incongruent/STIM_028.jpg	100
1703.726	0.952	952.4	incongruent	Block2	incongruent/STIM_029.jpg	99
1706.722	1.05	1050.1	incongruent	Block2	incongruent/STIM_029.jpg	99
1710.672	0.563	562.8	incongruent	Block2	incongruent/STIM_029.jpg	99
1713.44	0.795	795.4	incongruent	Block2	incongruent/STIM_029.jpg	99
1717.471	0.959	959.3	incongruent	Block2	incongruent/STIM_029.jpg	100
1720.46	0.478	477.6	congruent	Block2	congruent/STIM_000.jpg	100
1723.185	0.521	521.2	congruent	Block2	congruent/STIM_000.jpg	99
1726.06	0.803	802.7	congruent	Block2	congruent/STIM_000.jpg	100
1729.944	0.827	827.4	congruent	Block2	congruent/STIM_000.jpg	99
1733.617	0.737	737.4	congruent	Block2	congruent/STIM_000.jpg	99
1736.415	0.768	768.0	congruent	Block2	congruent/STIM_001.jpg	100
1739.634	0.62	620.3	congruent	Block2	congruent/STIM_001.jpg	100
1742.347	0.555	555.2	congruent	Block2	congruent/STIM_001.jpg	100
1746.49	0.487	487.3	congruent	Block2	congruent/STIM_001.jpg	100
1749.807	0.589	588.8	congruent	Block2	congruent/STIM_001.jpg	99
1752.602	0.516	516.1	congruent	Block2	congruent/STIM_002.jpg	99
1756.995	0.611	610.9	congruent	Block2	congruent/STIM_002.jpg	99
1761.54	0.594	593.6	congruent	Block2	congruent/STIM_002.jpg	100
1764.894	0.634	634.5	congruent	Block2	congruent/STIM_002.jpg	100
1768.545	0.728	728.4	congruent	Block2	congruent/STIM_002.jpg	99
1771.817	0.77	770.3	congruent	Block2	congruent/STIM_003.jpg	100
1776.394	0.521	520.6	congruent	Block2	congruent/STIM_003.jpg	100
1779.855	0.663	663.4	congruent	Block2	congruent/STIM_003.jpg	99
1784.47	0.516	516.2	congruent	Block2	congruent/STIM_003.jpg	99
1787.048	0.499	499.1	congruent	Block2	congruent/STIM_003.jpg	99
1789.794	0.845	844.9	congruent	Block2	congruent/STIM_004.jpg	99
1794.146	0.473	473.2	congruent	Block2	congruent/STIM_004.jpg	99
1797.22	0.54	539.8	congruent	Block2	congruent/STIM_004.jpg	100
1801.033	0.499	499.0	congruent	Block2	congruent/STIM_004.jpg	100
1804.99	0.552	552.2	congruent	Block2	congruent/STIM_004.jpg	100
1809.149	0.475	474.6	congruent	Block2	congruent/STIM_005.jpg	99
1811.985	0.774	773.5	congruent	Block2	congruent/STIM_005.jpg	100
1816.158	0.757	757.2	congruent	Block2	congruent/STIM_005.jpg	100
1819.041	0.658	658.1	congruent	Block2	congruent/STIM_005.jpg	99
1822.885	0.754	754.5	congruent	Block2	congruent/STIM_005.jpg	99
1827.386	0.581	580.9	congruent	Block2	congruent/STIM_006.jpg	99
1830.486	0.767	766.6	congruent	Block2	congruent/STIM_006.jpg	99
1835.155	0.488	487.5	congruent	Block2	congruent/STIM_006.jpg	99
1839.57	0.606	605.5	congruent	Block2	congruent/STIM_006.jpg	99
1843.575	0.57	569.9	congruent	Block2	congruent/STIM_006.jpg	100
1847.301	0.542	542.1	congruent	Block2	congruent/STIM_007.jpg	99
1850.791	0.543	543.1	congruent	Block2	congruent/STIM_007.jpg	99
1853.526	0.842	841.6	congruent	Block2	congruent/STIM_007.jpg	100
1857.471	0.822	822.1	congruent	Block2	congruent/STIM_007.jpg	99
1862.237	0.662	662.1	congruent	Block2	congruent/STIM_007.jpg	100
1865.588	0.697	696.9	congruent	Block2	congruent/STIM_008.jpg	99
1868.605	0.761	760.7	congruent	Block2	congruent/STIM_008.jpg	99
1873.295	0.802	801.6	congruent	Block2	congruent/STIM_008.jpg	99
1877.163	0.698	698.1	congruent	Block2	congruent/STIM_008.jpg	100
1880.904	0.658	657.6	congruent	Block2	congruent/STIM_008.jpg	100
1885.408	0.599	599.2	congruent	Block2	congruent/STIM_009.jpg	99
1889.705	0.574	573.8	congruent	Block2	congruent/STIM_009.jpg	100
1893.878	0.59	589.5	congruent	Block2	congruent/STIM_009.jpg	100
1897.349	0.475	474.6	congruent	Block2	congruent/STIM_009.jpg	100
1900.617	0.518	517.6	congruent	Block2	congruent/STIM_009.jpg	100
1904.859	0.631	631.3	congruent	Block2	congruent/STIM_010.jpg	100
1909.455	0.614	613.8	congruent	Block2	congruent/STIM_010.jpg	99
1913.571	0.671	670.6	congruent	Block2	congruent/STIM_010.jpg	99
1917.493	0.536	536.1	congruent	Block2	congruent/STIM_010.jpg	99
1921.886	0.835	835.3	congruent	Block2	congruent/STIM_010.jpg	99
1926.407	0.817	817.0	congruent	Block2	congruent/STIM_011.jpg	100
1931.177	0.639	639.0	congruent	Block2	congruent/STIM_011.jpg	100
1934.557	0.727	727.4	congruent	Block2	congruent/STIM_011.jpg	99
1939.195	0.596	596.3	congruent	Block2	congruent/STIM_011.jpg	100
1943.132	0.599	599.2	congruent	Block2	congruent/STIM_011.jpg	100
1946.525	0.547	547.0	congruent	Block2	congruent/STIM_012.jpg	100
1950.967	0.518	517.5	congruent	Block2	congruent/STIM_012.jpg	100
1954.135	0.82	820.2	congruent	Block2	congruent/STIM_012.jpg	99
1957.442	0.772	772.5	congruent	Block2	congruent/STIM_012.jpg	99
1961.853	0.717	717.4	congruent	Block2	congruent/STIM_012.jpg	99
1965.338	0.651	650.6	congruent	Block2	congruent/STIM_013.jpg	100
1969.14	0.803	802.9	congruent	Block2	congruent/STIM_013.jpg	100
1973.652	0.49	490.0	congruent	Block2	congruent/STIM_013.jpg	100
1977.643	0.505	504.6	congruent	Block2	congruent/STIM_013.jpg	99
1980.204	0.786	786.3	congruent	Block2	congruent/STIM_013.jpg	100
1984.904	0.768	767.6	congruent	Block2	congruent/STIM_014.jpg	100
1987.949	0.486	485.6	congruent	Block2	congruent/STIM_014.jpg	99
1990.673	0.512	512.2	congruent	Block2	congruent/STIM_014.jpg	99
1994.43	0.745	744.7	congruent	Block2	congruent/STIM_014.jpg	100
1998.586	0.529	529.0	congruent	Block2	congruent/STIM_014.jpg	99
2001.599	0.734	733.9	congruent	Block2	congruent/STIM_015.jpg	99
2006.243	0.652	651.7	congruent	Block2	congruent/STIM_015.jpg	99
2009.799	0.85	849.6	congruent	Block2	congruent/STIM_015.jpg	99
2013.651	0.566	565.6	congruent	Block2	congruent/STIM_015.jpg	99
2016.353	0.777	776.6	congruent	Block2	congruent/STIM_015.jpg	99
2019.283	0.784	783.6	congruent	Block2	congruent/STIM_016.jpg	100
2022.919	0.767	766.9	congruent	Block2	congruent/STIM_016.jpg	99
2027.004	0.576	576.1	congruent	Block2	congruent/STIM_016.jpg	99
2030.839	0.794	794.3	congruent	Block2	congruent/STIM_016.jpg	99
2034.59	0.691	691.1	congruent	Block2	congruent/STIM_016.jpg	99
2038.189	0.502	502.1	congruent	Block2	congruent/STIM_017.jpg	99
2041.008	0.828	827.7	congruent	Block2	congruent/STIM_017.jpg	100
2045.406	0.551	551.4	congruent	Block2	congruent/STIM_017.jpg	99
2049.629	0.643	643.3	congruent	Block2	congruent/STIM_017.jpg	99
2053.721	0.479	479.2	congruent	Block2	congruent/STIM_017.jpg	100
2057.948	0.598	597.6	congruent	Block2	congruent/STIM_018.jpg	99
2061.232	0.57	570.5	congruent	Block2	congruent/STIM_018.jpg	99
2064.702	0.58	579.6	congruent	Block2	congruent/STIM_018.jpg	100
2069.211	0.786	785.5	congruent	Block2	congruent/STIM_018.jpg	100
2073.061	0.65	649.9	congruent	Block2	congruent/STIM_018.jpg	100
2076.765	0.683	682.7	congruent	Block2	congruent/STIM_019.jpg	100
2080.876	0.795	794.6	congruent	Block2	congruent/STIM_019.jpg	100
2083.949	0.537	536.9	congruent	Block2	congruent/STIM_019.jpg	99
2088.196	0.802	802.5	congruent	Block2	congruent/STIM_019.jpg	100
2091.864	0.739	739.4	congruent	Block2	congruent/STIM_019.jpg	100
2095.755	0.522	521.6	congruent	Block2	congruent/STIM_020.jpg	100
2099.532	0.727	726.6	congruent	Block2	congruent/STIM_020.jpg	99
2102.277	0.62	619.9	congruent	Block2	congruent/STIM_020.jpg	100
2105.39	0.507	507.3	congruent	Block2	congruent/STIM_020.jpg	99
2108.861	0.484	484.5	congruent	Block2	congruent/STIM_020.jpg	99
2112.614	0.726	726.4	congruent	Block2	congruent/STIM_021.jpg	100
2117.271	0.723	722.8	congruent	Block2	congruent/STIM_021.jpg	99
2120.108	0.703	703.0	congruent	Block2	congruent/STIM_021.jpg	99
2124.712	0.54	540.0	congruent	Block2	congruent/STIM_021.jpg	100
2128.968	0.719	719.3	congruent	Block2	congruent/STIM_021.jpg	99
2132.37	0.651	651.0	congruent	Block2	congruent/STIM_022.jpg	99
2136.347	0.59	590.1	congruent	Block2	congruent/STIM_022.jpg	99
2140.607	0.552	551.8	congruent	Block2	congruent/STIM_022.jpg	100
2143.961	0.539	539.0	congruent	Block2	congruent/STIM_022.jpg	100
2148.431	0.766	766.0	congruent	Block2	congruent/STIM_022.jpg	100
2151.321	0.795	794.7	congruent	Block2	congruent/STIM_023.jpg	99
2154.126	0.82	820.5	congruent	Block2	congruent/STIM_023.jpg	99
2157.814	0.735	734.8	congruent	Block2	congruent/STIM_023.jpg	99
2160.693	0.634	633.5	congruent	Block2	congruent/STIM_023.jpg	99
2164.055	0.714	714.0	congruent	Block2	congruent/STIM_023.jpg	99
2167.652	0.535	535.0	congruent	Block2	congruent/STIM_024.jpg	100
2171.294	0.827	827.3	congruent	Block2	congruent/STIM_024.jpg	100
2174.875	0.675	675.1	congruent	Block2	congruent/STIM_024.jpg	99
2178.976	0.673	673.3	congruent	Block2	congruent/STIM_024.jpg	99
2181.913	0.764	764.0	congruent	Block2	congruent/STIM_024.jpg	99
2186.34	0.768	768.3	congruent	Block2	congruent/STIM_025.jpg	99
2189.319	0.65	649.5	congruent	Block2	congruent/STIM_025.jpg	100
2192.641	0.604	603.9	congruent	Block2	congruent/STIM_025.jpg	99
2195.707	0.722	722.2	congruent	Block2	congruent/STIM_025.jpg	100
2199.444	0.495	495.4	congruent	Block2	congruent/STIM_025.jpg	100
2203.314	0.497	497.0	congruent	Block2	congruent/STIM_026.jpg	100
2207.729	0.714	713.9	congruent	Block2	congruent/STIM_026.jpg	99
2211.173	0.808	807.8	congruent	Block2	congruent/STIM_026.jpg	99
2214.425	0.574	574.3	congruent	Block2	congruent/STIM_026.jpg	99
2218.228	0.822	821.8	congruent	Block2	congruent/STIM_026.jpg	100
2222.552	0.763	762.8	congruent	Block2	congruent/STIM_027.jpg	99
2225.832	0.788	787.7	congruent	Block2	congruent/STIM_027.jpg	99
2229.166	0.49	490.2	congruent	Block2	congruent/STIM_027.jpg	99
2232.571	0.569	568.6	congruent	Block2	congruent/STIM_027.jpg	100
2235.77	0.621	621.3	congruent	Block2	congruent/STIM_027.jpg	100
2239.639	0.677	677.3	congruent	Block2	congruent/STIM_028.jpg	99
2243.535	0.772	771.9	congruent	Block2	congruent/STIM_028.jpg	100
2247.904	0.736	735.7	congruent	Block2	congruent/STIM_028.jpg	99
2251.076	0.539	538.6	congruent	Block2	congruent/STIM_028.jpg	100
2254.077	0.696	696.0	congruent	Block2	congruent/STIM_028.jpg	100
2258.702	0.629	629.3	congruent	Block2	congruent/STIM_029.jpg	100
2262.186	0.74	739.9	congruent	Block2	congruent/STIM_029.jpg	100
2266.16	0.601	601.0	congruent	Block2	congruent/STIM_029.jpg	99
2270.642	0.675	674.7	congruent	Block2	congruent/STIM_029.jpg	100
2274.985	0.835	835.1	congruent	Block2	congruent/STIM_029.jpg	100
2279.404	0.836	835.9	incongruent	Block3	incongruent/STIM_000.jpg	99
2283.361	0.815	814.9	incongruent	Block3	incongruent/STIM_000.jpg	100
2286.333	0.463	462.7	incongruent	Block3	incongruent/STIM_000.jpg	100
2290.678	0.624	623.8	incongruent	Block3	incongruent/STIM_000.jpg	99
2295.218	0.567	567.1	incongruent	Block3	incongruent/STIM_000.jpg	99
2299.466	0.8	799.6	incongruent	Block3	incongruent/STIM_001.jpg	100
2304.066	0.673	673.4	incongruent	Block3	incongruent/STIM_001.jpg	100
2307.641	0.893	893.2	incongruent	Block3	incongruent/STIM_001.jpg	100
2311.272	0.539	539.4	incongruent	Block3	incongruent/STIM_001.jpg	99
2314.838	0.475	474.7	incongruent	Block3	incongruent/STIM_001.jpg	100
2318.335	0.805	805.0	incongruent	Block3	incongruent/STIM_002.jpg	100
2321.465	0.932	932.0	incongruent	Block3	incongruent/STIM_002.jpg	99
2324.478	0.77	770.2	incongruent	Block3	incongruent/STIM_002.jpg	99
2329.102	0.463	463.0	incongruent	Block3	incongruent/STIM_002.jpg	99
2332.863	0.5	500.2	incongruent	Block3	incongruent/STIM_002.jpg	100
2337.252	0.506	505.6	incongruent	Block3	incongruent/STIM_003.jpg	99
2340.397	0.769	768.6	incongruent	Block3	incongruent/STIM_003.jpg	99
2343.38	0.944	944.2	incongruent	Block3	incongruent/STIM_003.jpg	99
2347.513	0.573	573.2	incongruent	Block3	incongruent/STIM_003.jpg	99
2351.473	0.776	776.4	incongruent	Block3	incongruent/STIM_003.jpg	99
2355.758	0.778	778.0	incongruent	Block3	incongruent/STIM_004.jpg	99
2358.796	0.63	630.2	incongruent	Block3	incongruent/STIM_004.jpg	99
2362.576	0.933	933.4	incongruent	Block3	incongruent/STIM_004.jpg	99
2367.116	0.829	828.8	incongruent	Block3	incongruent/STIM_004.jpg	100
2371.734	0.563	562.8	incongruent	Block3	incongruent/STIM_004.jpg	100
2374.681	0.55	549.7	incongruent	Block3	incongruent/STIM_005.jpg	100
2377.24	0.654	653.9	incongruent	Block3	incongruent/STIM_005.jpg	100
2380.879	0.748	748.2	incongruent	Block3	incongruent/STIM_005.jpg	99
2385.368	0.653	653.4	incongruent	Block3	incongruent/STIM_005.jpg	99
2388.189	0.775	775.0	incongruent	Block3	incongruent/STIM_005.jpg	100
2391.972	0.912	911.8	incongruent	Block3	incongruent/STIM_006.jpg	99
2395.699	0.986	986.3	incongruent	Block3	incongruent/STIM_006.jpg	100
2399.504	0.918	918.4	incongruent	Block3	incongruent/STIM_006.jpg	99
2404.223	0.797	796.6	incongruent	Block3	incongruent/STIM_006.jpg	100
2408.163	0.614	614.5	incongruent	Block3	incongruent/STIM_006.jpg	100
2412.399	0.553	553.2	incongruent	Block3	incongruent/STIM_007.jpg	100
2415.218	0.842	842.2	incongruent	Block3	incongruent/STIM_007.jpg	99
2418.981	0.644	643.8	incongruent	Block3	incongruent/STIM_007.jpg	100
2423.119	0.625	625.3	incongruent	Block3	incongruent/STIM_007.jpg	99
2426.356	0.73	730.2	incongruent	Block3	incongruent/STIM_007.jpg	99
2429.163	0.879	879.1	incongruent	Block3	incongruent/STIM_008.jpg	100
2432.119	0.671	671.1	incongruent	Block3	incongruent/STIM_008.jpg	100
2435.276	0.478	477.8	incongruent	Block3	incongruent/STIM_008.jpg	99
2438.125	0.729	728.8	incongruent	Block3	incongruent/STIM_008.jpg	99
2442.19	0.543	542.9	incongruent	Block3	incongruent/STIM_008.jpg	99
2445.463	0.48	479.5	incongruent	Block3	incongruent/STIM_009.jpg	99
2448.713	0.747	746.7	incongruent	Block3	incongruent/STIM_009.jpg	100
2453.046	0.91	909.5	incongruent	Block3	incongruent/STIM_009.jpg	99
2456.054	0.545	544.9	incongruent	Block3	incongruent/STIM_009.jpg	99
2458.625	0.569	568.6	incongruent	Block3	incongruent/STIM_009.jpg	100
2462.549	0.636	636.5	incongruent	Block3	incongruent/STIM_010.jpg	99
2466.934	0.838	838.2	incongruent	Block3	incongruent/STIM_010.jpg	99
2470.893	0.678	677.5	incongruent	Block3	incongruent/STIM_010.jpg	100
2474.039	0.611	610.9	incongruent	Block3	incongruent/STIM_010.jpg	99
2478.156	0.683	683.2	incongruent	Block3	incongruent/STIM_010.jpg	100
2482.193	0.639	639.1	incongruent	Block3	incongruent/STIM_011.jpg	99
2485.779	0.93	929.7	incongruent	Block3	incongruent/STIM_011.jpg	100
2488.726	0.971	970.9	incongruent	Block3	incongruent/STIM_011.jpg	100
2492.101	0.935	934.7	incongruent	Block3	incongruent/STIM_011.jpg	99
2496.938	0.587	587.1	incongruent	Block3	incongruent/STIM_011.jpg	99
2501.265	0.986	985.9	incongruent	Block3	incongruent/STIM_012.jpg	99
2505.608	0.782	782.5	incongruent	Block3	incongruent/STIM_012.jpg	99
2509.361	0.896	895.9	incongruent	Block3	incongruent/STIM_012.jpg	100
2512.954	0.91	910.3	incongruent	Block3	incongruent/STIM_012.jpg	100
2517.591	0.711	711.0	incongruent	Block3	incongruent/STIM_012.jpg	99
2520.618	0.86	860.5	incongruent	Block3	incongruent/STIM_013.jpg	99
2524.208	0.534	534.3	incongruent	Block3	incongruent/STIM_013.jpg	100
2528.191	0.707	706.9	incongruent	Block3	incongruent/STIM_013.jpg	100
2531.204	0.768	767.8	incongruent	Block3	incongruent/STIM_013.jpg	99
2534.885	0.689	688.7	incongruent	Block3	incongruent/STIM_013.jpg	99
2537.742	0.595	595.1	incongruent	Block3	incongruent/STIM_014.jpg	99
2541.956	0.902	901.8	incongruent	Block3	incongruent/STIM_014.jpg	99
2545.65	0.845	844.7	incongruent	Block3	incongruent/STIM_014.jpg	100
2550.198	0.56	559.8	incongruent	Block3	incongruent/STIM_014.jpg	100
2553.942	0.934	934.4	incongruent	Block3	incongruent/STIM_014.jpg	99
2558.681	0.529	529.0	incongruent	Block3	incongruent/STIM_015.jpg	100
2561.395	0.899	898.7	incongruent	Block3	incongruent/STIM_015.jpg	99
2564.948	0.79	790.2	incongruent	Block3	incongruent/STIM_015.jpg	100
2569.128	0.468	467.6	incongruent	Block3	incongruent/STIM_015.jpg	100
2573.202	0.532	532.4	incongruent	Block3	incongruent/STIM_015.jpg	100
2576.403	0.556	555.9	incongruent	Block3	incongruent/STIM_016.jpg	99
2579.276	0.617	616.8	incongruent	Block3	incongruent/STIM_016.jpg	100
2582.639	0.693	693.3	incongruent	Block3	incongruent/STIM_016.jpg	99
2587.085	0.678	677.7	incongruent	Block3	incongruent/STIM_016.jpg	100
2591.595	0.764	764.0	incongruent	Block3	incongruent/STIM_016.jpg	100
2595.742	0.612	611.6	incongruent	Block3	incongruent/STIM_017.jpg	99
2598.826	0.733	733.4	incongruent	Block3	incongruent/STIM_017.jpg	99
2603.284	0.67	670.2	incongruent	Block3	incongruent/STIM_017.jpg	100
2607.666	0.955	955.1	incongruent	Block3	incongruent/STIM_017.jpg	99
2611.813	0.842	842.0	incongruent	Block3	incongruent/STIM_017.jpg	100
2615.205	0.73	729.8	incongruent	Block3	incongruent/STIM_018.jpg	99
2618.85	0.676	675.8	incongruent	Block3	incongruent/STIM_018.jpg	99
2621.864	0.633	633.4	incongruent	Block3	incongruent/STIM_018.jpg	99
2625.967	0.969	969.3	incongruent	Block3	incongruent/STIM_018.jpg	100
2629.067	0.527	527.4	incongruent	Block3	incongruent/STIM_018.jpg	100
2633.387	0.866	866.1	incongruent	Block3	incongruent/STIM_019.jpg	100
2637.502	0.513	512.8	incongruent	Block3	incongruent/STIM_019.jpg	99
2640.184	0.907	906.6	incongruent	Block3	incongruent/STIM_019.jpg	100
2643.76	0.49	490.4	incongruent	Block3	incongruent/STIM_019.jpg	99
2646.843	0.764	763.9	incongruent	Block3	incongruent/STIM_019.jpg	99
2650.443	0.812	811.6	incongruent	Block3	incongruent/STIM_020.jpg	100
2654.421	0.519	519.4	incongruent	Block3	incongruent/STIM_020.jpg	100
2657.966	0.958	958.3	incongruent	Block3	incongruent/STIM_020.jpg	100
2661.188	0.617	617.4	incongruent	Block3	incongruent/STIM_020.jpg	100
2665.08	0.864	864.3	incongruent	Block3	incongruent/STIM_020.jpg	99
2668.339	0.562	561.8	incongruent	Block3	incongruent/STIM_021.jpg	99
2672.504	0.511	511.5	incongruent	Block3	incongruent/STIM_021.jpg	99
2676.812	0.834	834.1	incongruent	Block3	incongruent/STIM_021.jpg	99
2679.742	0.952	952.0	incongruent	Block3	incongruent/STIM_021.jpg	100
2684.382	0.506	506.0	incongruent	Block3	incongruent/STIM_021.jpg	99
2686.92	0.899	899.0	incongruent	Block3	incongruent/STIM_022.jpg	99
2691.454	0.81	810.5	incongruent	Block3	incongruent/STIM_022.jpg	99
2694.613	0.922	922.0	incongruent	Block3	incongruent/STIM_022.jpg	100
2697.865	0.962	961.7	incongruent	Block3	incongruent/STIM_022.jpg	100
2702.402	0.787	787.0	incongruent	Block3	incongruent/STIM_022.jpg	99
2706.635	0.513	513.3	incongruent	Block3	incongruent/STIM_023.jpg	99
2710.541	0.838	838.3	incongruent	Block3	incongruent/STIM_023.jpg	100
2713.815	0.795	794.7	incongruent	Block3	incongruent/STIM_023.jpg	99
2718.22	0.696	695.9	incongruent	Block3	incongruent/STIM_023.jpg	100
2722.42	0.982	982.1	incongruent	Block3	incongruent/STIM_023.jpg	100
2725.585	0.606	606.0	incongruent	Block3	incongruent/STIM_024.jpg	100
2729.972	0.484	483.7	incongruent	Block3	incongruent/STIM_024.jpg	100
2734.079	0.722	722.3	incongruent	Block3	incongruent/STIM_024.jpg	100
2738.511	0.681	681.4	incongruent	Block3	incongruent/STIM_024.jpg	99
2742.958	0.869	868.6	incongruent	Block3	incongruent/STIM_024.jpg	100
2747.522	0.913	912.6	incongruent	Block3	incongruent/STIM_025.jpg	99
2752.324	0.726	726.1	incongruent	Block3	incongruent/STIM_025.jpg	99
2756.175	0.848	848.2	incongruent	Block3	incongruent/STIM_025.jpg	100
2760.923	0.568	568.4	incongruent	Block3	incongruent/STIM_025.jpg	100
2763.507	0.758	758.3	incongruent	Block3	incongruent/STIM_025.jpg	99
2768.189	0.464	464.3	incongruent	Block3	incongruent/STIM_026.jpg	100
2771.651	0.81	810.0	incongruent	Block3	incongruent/STIM_026.jpg	100
2775.83	0.668	668.1	incongruent	Block3	incongruent/STIM_026.jpg	100
2780.396	0.508	507.8	incongruent	Block3	incongruent/STIM_026.jpg	100
2784.572	0.741	741.0	incongruent	Block3	incongruent/STIM_026.jpg	100
2788.113	0.87	870.4	incongruent	Block3	incongruent/STIM_027.jpg	100
2791.05	0.538	538.5	incongruent	Block3	incongruent/STIM_027.jpg	100
2795.044	0.622	621.5	incongruent	Block3	incongruent/STIM_027.jpg	99
2798.004	0.984	984.5	incongruent	Block3	incongruent/STIM_027.jpg	100
2802.972	0.538	537.8	incongruent	Block3	incongruent/STIM_027.jpg	100
2806.769	0.748	748.4	incongruent	Block3	incongruent/STIM_028.jpg	100
2811.287	0.679	678.7	incongruent	Block3	incongruent/STIM_028.jpg	100
2815.627	0.695	694.8	incongruent	Block3	incongruent/STIM_028.jpg	100
2819.79	0.472	471.6	incongruent	Block3	incongruent/STIM_028.jpg	100
2822.46	0.495	495.4	incongruent	Block3	incongruent/STIM_028.jpg	100
2826.436	0.951	951.0	incongruent	Block3	incongruent/STIM_029.jpg	99
2831.27	0.51	509.8	incongruent	Block3	incongruent/STIM_029.jpg	100
2835.757	0.754	753.9	incongruent	Block3	incongruent/STIM_029.jpg	100
2840.075	0.525	524.7	incongruent	Block3	incongruent/STIM_029.jpg	99
2843.415	0.933	933.0	incongruent	Block3	incongruent/STIM_029.jpg	99
2846.988	0.679	678.9	congruent	Block3	congruent/STIM_000.jpg	100
2849.787	0.661	661.4	congruent	Block3	congruent/STIM_000.jpg	100
2853.626	0.496	495.7	congruent	Block3	congruent/STIM_000.jpg	99
2856.935	0.734	734.3	congruent	Block3	congruent/STIM_000.jpg	99
2859.717	0.828	828.5	congruent	Block3	congruent/STIM_000.jpg	100
2862.984	0.53	530.2	congruent	Block3	congruent/STIM_001.jpg	100
2865.783	0.764	764.0	congruent	Block3	congruent/STIM_001.jpg	99
2870.366	0.799	798.7	congruent	Block3	congruent/STIM_001.jpg	100
2874.595	0.693	692.7	congruent	Block3	congruent/STIM_001.jpg	100
2878.927	0.714	714.1	congruent	Block3	congruent/STIM_001.jpg	99
2881.844	0.814	813.8	congruent	Block3	congruent/STIM_002.jpg	100
2884.98	0.784	784.2	congruent	Block3	congruent/STIM_002.jpg	99
2888.372	0.676	676.1	congruent	Block3	congruent/STIM_002.jpg	100
2892.883	0.612	612.5	congruent	Block3	congruent/STIM_002.jpg	99
2897.101	0.478	478.1	congruent	Block3	congruent/STIM_002.jpg	100
2899.957	0.503	502.8	congruent	Block3	congruent/STIM_003.jpg	100
2903.187	0.754	753.9	congruent	Block3	congruent/STIM_003.jpg	100
2907.192	0.762	762.5	congruent	Block3	congruent/STIM_003.jpg	100
2911.326	0.717	717.3	congruent	Block3	congruent/STIM_003.jpg	99
2915.906	0.511	510.8	congruent	Block3	congruent/STIM_003.jpg	99
2918.685	0.815	814.9	congruent	Block3	congruent/STIM_004.jpg	100
2923.267	0.788	788.4	congruent	Block3	congruent/STIM_004.jpg	100
2927.814	0.478	477.6	congruent	Block3	congruent/STIM_004.jpg	99
2931.142	0.599	598.8	congruent	Block3	congruent/STIM_004.jpg	100
2935.667	0.534	533.5	congruent	Block3	congruent/STIM_004.jpg	100
2938.653	0.821	821.2	congruent	Block3	congruent/STIM_005.jpg	100
2942.282	0.484	484.4	congruent	Block3	congruent/STIM_005.jpg	100
2945.097	0.574	573.8	congruent	Block3	congruent/STIM_005.jpg	100
2948.708	0.763	763.4	congruent	Block3	congruent/STIM_005.jpg	99
2953.075	0.66	659.6	congruent	Block3	congruent/STIM_005.jpg	99
2957.054	0.538	538.5	congruent	Block3	congruent/STIM_006.jpg	100
2961.369	0.775	775.4	congruent	Block3	congruent/STIM_006.jpg	99
2965.269	0.591	591.3	congruent	Block3	congruent/STIM_006.jpg	99
2969.341	0.534	534.5	congruent	Block3	congruent/STIM_006.jpg	100
2971.906	0.517	517.2	congruent	Block3	congruent/STIM_006.jpg	100
2975.619	0.78	780.5	congruent	Block3	congruent/STIM_007.jpg	99
2980.39	0.63	630.2	congruent	Block3	congruent/STIM_007.jpg	100
2983.966	0.73	729.6	congruent	Block3	congruent/STIM_007.jpg	100
2987.207	0.623	623.2	congruent	Block3	congruent/STIM_007.jpg	100
2991.179	0.501	501.2	congruent	Block3	congruent/STIM_007.jpg	99
2994.731	0.65	650.5	congruent	Block3	congruent/STIM_008.jpg	99
2998.874	0.686	686.1	congruent	Block3	congruent/STIM_008.jpg	100
3002.741	0.711	710.7	congruent	Block3	congruent/STIM_008.jpg	99
3006.971	0.588	588.2	congruent	Block3	congruent/STIM_008.jpg	100
3010.852	0.688	687.8	congruent	Block3	congruent/STIM_008.jpg	100
3015.191	0.677	677.1	congruent	Block3	congruent/STIM_009.jpg	99
3019.441	0.505	505.1	congruent	Block3	congruent/STIM_009.jpg	99
3022.174	0.56	559.8	congruent	Block3	congruent/STIM_009.jpg	99
3026.377	0.796	796.1	congruent	Block3	congruent/STIM_009.jpg	99
3031.088	0.567	566.7	congruent	Block3	congruent/STIM_009.jpg	99
3033.83	0.641	641.0	congruent	Block3	congruent/STIM_010.jpg	100
3037.148	0.815	815.2	congruent	Block3	congruent/STIM_010.jpg	99
3041.958	0.499	499.0	congruent	Block3	congruent/STIM_010.jpg	99
3045.703	0.648	648.0	congruent	Block3	congruent/STIM_010.jpg	99
3050.282	0.737	737.0	congruent	Block3	congruent/STIM_010.jpg	100
3054.578	0.556	555.8	congruent	Block3	congruent/STIM_011.jpg	99
3057.911	0.678	678.0	congruent	Block3	congruent/STIM_011.jpg	100
3061.834	0.489	488.8	congruent	Block3	congruent/STIM_011.jpg	99
3064.509	0.763	763.1	congruent	Block3	congruent/STIM_011.jpg	100
3068.026	0.845	845.1	congruent	Block3	congruent/STIM_011.jpg	100
3072.188	0.523	522.9	congruent	Block3	congruent/STIM_012.jpg	100
3076.491	0.627	627.3	congruent	Block3	congruent/STIM_012.jpg	100
3080.08	0.773	773.3	congruent	Block3	congruent/STIM_012.jpg	99
3083.325	0.67	669.5	congruent	Block3	congruent/STIM_012.jpg	99
3086.569	0.617	617.2	congruent	Block3	congruent/STIM_012.jpg	99
3089.685	0.842	842.0	congruent	Block3	congruent/STIM_013.jpg	99
3093.837	0.652	652.3	congruent	Block3	congruent/STIM_013.jpg	99
3097.382	0.52	520.0	congruent	Block3	congruent/STIM_013.jpg	99
3101.185	0.579	578.7	congruent	Block3	congruent/STIM_013.jpg	100
3103.791	0.636	636.0	congruent	Block3	congruent/STIM_013.jpg	100
3108.222	0.567	566.6	congruent	Block3	congruent/STIM_014.jpg	99
3111.183	0.668	667.5	congruent	Block3	congruent/STIM_014.jpg	99
3114.548	0.584	583.8	congruent	Block3	congruent/STIM_014.jpg	99
3117.581	0.546	545.9	congruent	Block3	congruent/STIM_014.jpg	99
3121.016	0.635	634.7	congruent	Block3	congruent/STIM_014.jpg	99
3124.223	0.674	673.5	congruent	Block3	congruent/STIM_015.jpg	99
3127.719	0.561	560.7	congruent	Block3	congruent/STIM_015.jpg	100
3130.76	0.583	583.0	congruent	Block3	congruent/STIM_015.jpg	99
3133.5	0.549	549.2	congruent	Block3	congruent/STIM_015.jpg	100
3136.583	0.511	511.0	congruent	Block3	congruent/STIM_015.jpg	100
3139.217	0.622	622.2	congruent	Block3	congruent/STIM_016.jpg	99
3142.851	0.791	790.9	congruent	Block3	congruent/STIM_016.jpg	100
3145.659	0.479	478.6	congruent	Block3	congruent/STIM_016.jpg	99
3149.454	0.836	836.1	congruent	Block3	congruent/STIM_016.jpg	100
3154.044	0.783	783.0	congruent	Block3	congruent/STIM_016.jpg	100
3157.471	0.698	698.3	congruent	Block3	congruent/STIM_017.jpg	99
3162.064	0.694	694.0	congruent	Block3	congruent/STIM_017.jpg	99
3166.554	0.511	510.9	congruent	Block3	congruent/STIM_017.jpg	100
3170.548	0.774	773.8	congruent	Block3	congruent/STIM_017.jpg	100
3174.668	0.481	481.0	congruent	Block3	congruent/STIM_017.jpg	100
3177.276	0.668	668.3	congruent	Block3	congruent/STIM_018.jpg	100
3181.44	0.5	499.5	congruent	Block3	congruent/STIM_018.jpg	100
3185.588	0.492	492.2	congruent	Block3	congruent/STIM_018.jpg	100
3188.502	0.827	827.1	congruent	Block3	congruent/STIM_018.jpg	99
3192.137	0.68	680.4	congruent	Block3	congruent/STIM_018.jpg	100
3195.54	0.645	645.3	congruent	Block3	congruent/STIM_019.jpg	99
3198.919	0.815	815.3	congruent	Block3	congruent/STIM_019.jpg	100
3202.442	0.651	650.6	congruent	Block3	congruent/STIM_019.jpg	99
3205.886	0.767	766.8	congruent	Block3	congruent/STIM_019.jpg	99
3209.389	0.59	589.8	congruent	Block3	congruent/STIM_019.jpg	100
3212.782	0.585	584.6	congruent	Block3	congruent/STIM_020.jpg	99
3215.841	0.558	558.0	congruent	Block3	congruent/STIM_020.jpg	99
3219.443	0.582	581.7	congruent	Block3	congruent/STIM_020.jpg	99
3222.859	0.598	598.3	congruent	Block3	congruent/STIM_020.jpg	99
3226.905	0.539	539.1	congruent	Block3	congruent/STIM_020.jpg	100
3229.694	0.667	667.0	congruent	Block3	congruent/STIM_021.jpg	100
3232.802	0.579	579.3	congruent	Block3	congruent/STIM_021.jpg	100
3236.872	0.615	614.8	congruent	Block3	congruent/STIM_021.jpg	99
3240.156	0.67	670.2	congruent	Block3	congruent/STIM_021.jpg	99
3243.514	0.587	586.8	congruent	Block3	congruent/STIM_021.jpg	100
3247.508	0.646	645.5	congruent	Block3	congruent/STIM_022.jpg	100
3251.039	0.533	532.8	congruent	Block3	congruent/STIM_022.jpg	100
3254.477	0.542	542.2	congruent	Block3	congruent/STIM_022.jpg	100
3257.804	0.828	828.2	congruent	Block3	congruent/STIM_022.jpg	100
3261.293	0.729	729.1	congruent	Block3	congruent/STIM_022.jpg	99
3264.104	0.546	545.9	congruent	Block3	congruent/STIM_023.jpg	100
3268.594	0.584	583.5	congruent	Block3	congruent/STIM_023.jpg	99
3272.322	0.683	682.6	congruent	Block3	congruent/STIM_023.jpg	100
3276.147	0.827	827.2	congruent	Block3	congruent/STIM_023.jpg	99
3279.045	0.49	490.2	congruent	Block3	congruent/STIM_023.jpg	99
3282.086	0.63	629.6	congruent	Block3	congruent/STIM_024.jpg	100
3285.038	0.738	738.0	congruent	Block3	congruent/STIM_024.jpg	100
3288.459	0.673	673.2	congruent	Block3	congruent/STIM_024.jpg	99
3291.899	0.521	521.0	congruent	Block3	congruent/STIM_024.jpg	99
3295.522	0.794	793.6	congruent	Block3	congruent/STIM_024.jpg	100
3298.413	0.554	553.8	congruent	Block3	congruent/STIM_025.jpg	100
3301.459	0.61	609.9	congruent	Block3	congruent/STIM_025.jpg	99
3304.174	0.683	682.7	congruent	Block3	congruent/STIM_025.jpg	100
3307.443	0.55	550.1	congruent	Block3	congruent/STIM_025.jpg	100
3310.231	0.759	758.7	congruent	Block3	congruent/STIM_025.jpg	100
3313.251	0.566	565.7	congruent	Block3	congruent/STIM_026.jpg	100
3315.981	0.532	532.5	congruent	Block3	congruent/STIM_026.jpg	99
3318.765	0.725	725.1	congruent	Block3	congruent/STIM_026.jpg	99
3323.456	0.751	750.7	congruent	Block3	congruent/STIM_026.jpg	99
3328.114	0.62	620.4	congruent	Block3	congruent/STIM_026.jpg	100
3332.093	0.74	739.9	congruent	Block3	congruent/STIM_027.jpg	100
3336.445	0.583	583.1	congruent	Block3	congruent/STIM_027.jpg	100
3340.795	0.53	529.7	congruent	Block3	congruent/STIM_027.jpg	99
3344.88	0.756	756.1	congruent	Block3	congruent/STIM_027.jpg	100
3349.334	0.708	708.1	congruent	Block3	congruent/STIM_027.jpg	100
3352.674	0.747	747.0	congruent	Block3	congruent/STIM_028.jpg	100
3356.512	0.764	764.3	congruent	Block3	congruent/STIM_028.jpg	99
3360.206	0.842	842.0	congruent	Block3	congruent/STIM_028.jpg	99
3364.753	0.714	713.5	congruent	Block3	congruent/STIM_028.jpg	99
3368.582	0.834	834.4	congruent	Block3	congruent/STIM_028.jpg	99
3373.354	0.748	748.2	congruent	Block3	congruent/STIM_029.jpg	100
3377.732	0.694	693.5	congruent	Block3	congruent/STIM_029.jpg	99
3381.116	0.531	530.8	congruent	Block3	congruent/STIM_029.jpg	100
3383.675	0.54	540.4	congruent	Block3	congruent/STIM_029.jpg	100
3387.907	0.599	598.8	congruent	Block3	congruent/STIM_029.jpg	100
