onset	duration	response_time_ms	trial_type	learning_stage	stimulus	response_port
0.0	1.153	1153.3	incongruent	Block1	incongruent/STIM_000.jpg	100
4.213	0.823	823.0	incongruent	Block1	incongruent/STIM_000.jpg	99
8.59	0.671	671.1	incongruent	Block1	incongruent/STIM_000.jpg	100
12.436	0.787	787.2	incongruent	Block1	incongruent/STIM_000.jpg	99
16.785	1.046	1046.5	incongruent	Block1	incongruent/STIM_000.jpg	99
20.967	0.788	787.9	incongruent	Block1	incongruent/STIM_001.jpg	99
25.347	0.931	931.1	incongruent	Block1	incongruent/STIM_001.jpg	100
29.641	1.078	1078.1	incongruent	Block1	incongruent/STIM_001.jpg	100
34.331	0.892	892.1	incongruent	Block1	incongruent/STIM_001.jpg	99
38.852	0.797	796.9	incongruent	Block1	incongruent/STIM_001.jpg	99
41.916	1.055	1054.8	incongruent	Block1	incongruent/STIM_002.jpg	100
46.032	1.207	1207.3	incongruent	Block1	incongruent/STIM_002.jpg	100
49.481	0.629	629.2	incongruent	Block1	incongruent/STIM_002.jpg	100
53.461	0.93	929.9	incongruent	Block1	incongruent/STIM_002.jpg	100
56.484	0.976	976.4	incongruent	Block1	incongruent/STIM_002.jpg	100
60.551	1.201	1201.3	incongruent	Block1	incongruent/STIM_003.jpg	100
65.023	1.142	1142.4	incongruent	Block1	incongruent/STIM_003.jpg	100
68.569	0.76	759.5	incongruent	Block1	incongruent/STIM_003.jpg	99
73.131	1.082	1081.8	incongruent	Block1	incongruent/STIM_003.jpg	100
77.263	0.858	858.0	incongruent	Block1	incongruent/STIM_003.jpg	100
81.033	0.764	763.9	incongruent	Block1	incongruent/STIM_004.jpg	100
84.258	0.752	751.7	incongruent	Block1	incongruent/STIM_004.jpg	100
87.496	1.142	1142.0	incongruent	Block1	incongruent/STIM_004.jpg	99
91.896	0.751	751.1	incongruent	Block1	incongruent/STIM_004.jpg	100
94.635	0.541	541.3	incongruent	Block1	incongruent/STIM_004.jpg	99
98.267	0.918	917.8	incongruent	Block1	incongruent/STIM_005.jpg	100
102.565	1.386	1386.3	incongruent	Block1	incongruent/STIM_005.jpg	100
107.471	1.013	1013.2	incongruent	Block1	incongruent/STIM_005.jpg	100
111.168	0.669	668.7	incongruent	Block1	incongruent/STIM_005.jpg	99
115.438	0.724	724.0	incongruent	Block1	incongruent/STIM_005.jpg	99
119.158	0.571	570.7	incongruent	Block1	incongruent/STIM_006.jpg	100
122.618	0.717	717.4	incongruent	Block1	incongruent/STIM_006.jpg	99
126.393	0.898	898.4	incongruent	Block1	incongruent/STIM_006.jpg	100
130.196	0.664	663.9	incongruent	Block1	incongruent/STIM_006.jpg	100
133.42	0.596	595.6	incongruent	Block1	incongruent/STIM_006.jpg	99
136.527	1.074	1074.5	incongruent	Block1	incongruent/STIM_007.jpg	99
140.367	1.055	1055.1	incongruent	Block1	incongruent/STIM_007.jpg	100
145.369	0.8	799.5	incongruent	Block1	incongruent/STIM_007.jpg	99
148.662	0.838	837.9	incongruent	Block1	incongruent/STIM_007.jpg	99
153.429	0.59	590.1	incongruent	Block1	incongruent/STIM_007.jpg	99
156.614	0.997	996.6	incongruent	Block1	incongruent/STIM_008.jpg	99
161.318	1.114	1113.9	incongruent	Block1	incongruent/STIM_008.jpg	99
165.546	0.608	607.7	incongruent	Block1	incongruent/STIM_008.jpg	99
169.118	0.774	774.1	incongruent	Block1	incongruent/STIM_008.jpg	100
173.313	0.918	917.8	incongruent	Block1	incongruent/STIM_008.jpg	100
177.102	0.898	897.5	incongruent	Block1	incongruent/STIM_009.jpg	99
180.391	0.962	961.7	incongruent	Block1	incongruent/STIM_009.jpg	100
183.47	0.955	954.6	incongruent	Block1	incongruent/STIM_009.jpg	100
188.041	0.965	964.7	incongruent	Block1	incongruent/STIM_009.jpg	100
191.719	0.743	742.8	incongruent	Block1	incongruent/STIM_009.jpg	99
195.579	0.741	740.9	incongruent	Block1	incongruent/STIM_010.jpg	99
198.481	0.881	881.3	incongruent	Block1	incongruent/STIM_010.jpg	100
202.51	0.628	628.3	incongruent	Block1	incongruent/STIM_010.jpg	100
207.151	0.951	951.1	incongruent	Block1	incongruent/STIM_010.jpg	100
210.667	0.978	978.5	incongruent	Block1	incongruent/STIM_010.jpg	100
215.496	1.174	1173.8	incongruent	Block1	incongruent/STIM_011.jpg	99
219.904	0.949	949.2	incongruent	Block1	incongruent/STIM_011.jpg	100
223.263	1.038	1037.8	incongruent	Block1	incongruent/STIM_011.jpg	100
226.459	0.544	544.2	incongruent	Block1	incongruent/STIM_011.jpg	99
230.235	0.607	606.9	incongruent	Block1	incongruent/STIM_011.jpg	100
233.422	1.42	1420.4	incongruent	Block1	incongruent/STIM_012.jpg	99
237.973	0.915	915.3	incongruent	Block1	incongruent/STIM_012.jpg	100
242.266	0.841	841.4	incongruent	Block1	incongruent/STIM_012.jpg	100
246.799	0.695	695.2	incongruent	Block1	incongruent/STIM_012.jpg	99
249.705	1.053	1053.2	incongruent	Block1	incongruent/STIM_012.jpg	99
254.724	1.002	1002.1	incongruent	Block1	incongruent/STIM_013.jpg	99
259.205	0.925	925.3	incongruent	Block1	incongruent/STIM_013.jpg	99
263.503	0.553	552.7	incongruent	Block1	incongruent/STIM_013.jpg	100
266.712	0.627	627.4	incongruent	Block1	incongruent/STIM_013.jpg	99
271.041	1.02	1020.1	incongruent	Block1	incongruent/STIM_013.jpg	100
275.657	1.022	1021.6	incongruent	Block1	incongruent/STIM_014.jpg	99
278.713	1.233	1233.1	incongruent	Block1	incongruent/STIM_014.jpg	99
282.612	0.956	956.2	incongruent	Block1	incongruent/STIM_014.jpg	100
285.673	0.984	983.6	incongruent	Block1	incongruent/STIM_014.jpg	99
288.85	0.935	934.8	incongruent	Block1	incongruent/STIM_014.jpg	99
292.297	1.171	1170.6	incongruent	Block1	incongruent/STIM_015.jpg	100
295.885	0.981	981.0	incongruent	Block1	incongruent/STIM_015.jpg	100
299.209	0.782	782.4	incongruent	Block1	incongruent/STIM_015.jpg	100
304.023	0.68	680.3	incongruent	Block1	incongruent/STIM_015.jpg	100
307.787	1.01	1010.2	incongruent	Block1	incongruent/STIM_015.jpg	99
311.051	0.84	839.6	incongruent	Block1	incongruent/STIM_016.jpg	99
314.267	1.226	1226.3	incongruent	Block1	incongruent/STIM_016.jpg	100
319.401	1.061	1061.3	incongruent	Block1	incongruent/STIM_016.jpg	99
324.217	1.109	1109.1	incongruent	Block1	incongruent/STIM_016.jpg	99
329.304	0.99	990.5	incongruent	Block1	incongruent/STIM_016.jpg	100
333.199	1.163	1163.3	incongruent	Block1	incongruent/STIM_017.jpg	100
337.716	0.76	759.5	incongruent	Block1	incongruent/STIM_017.jpg	100
342.53	0.918	917.5	incongruent	Block1	incongruent/STIM_017.jpg	99
346.939	0.798	798.2	incongruent	Block1	incongruent/STIM_017.jpg	100
351.558	0.724	723.5	incongruent	Block1	incongruent/STIM_017.jpg	100
354.417	1.067	1067.4	incongruent	Block1	incongruent/STIM_018.jpg	100
359.16	1.006	1006.4	incongruent	Block1	incongruent/STIM_018.jpg	99
363.88	0.916	915.6	incongruent	Block1	incongruent/STIM_018.jpg	100
366.988	1.098	1098.2	incongruent	Block1	incongruent/STIM_018.jpg	100
371.605	0.854	854.4	incongruent	Block1	incongruent/STIM_018.jpg	100
375.204	1.241	1241.3	incongruent	Block1	incongruent/STIM_019.jpg	100
379.737	1.178	1178.4	incongruent	Block1	incongruent/STIM_019.jpg	100
383.105	1.149	1148.9	incongruent	Block1	incongruent/STIM_019.jpg	100
387.928	0.85	850.4	incongruent	Block1	incongruent/STIM_019.jpg	100
391.435	0.833	833.0	incongruent	Block1	incongruent/STIM_019.jpg	99
395.612	1.01	1010.3	incongruent	Block1	incongruent/STIM_020.jpg	99
398.85	0.922	922.3	incongruent	Block1	incongruent/STIM_020.jpg	99
402.784	0.997	996.9	incongruent	Block1	incongruent/STIM_020.jpg	99
406.66	0.616	615.7	incongruent	Block1	incongruent/STIM_020.jpg	100
409.885	1.069	1069.1	incongruent	Block1	incongruent/STIM_020.jpg	100
413.222	1.41	1409.6	incongruent	Block1	incongruent/STIM_021.jpg	100
416.753	0.594	593.8	incongruent	Block1	incongruent/STIM_021.jpg	99
420.565	0.781	781.4	incongruent	Block1	incongruent/STIM_021.jpg	99
424.974	1.047	1047.3	incongruent	Block1	incongruent/STIM_021.jpg	99
428.98	0.52	519.9	incongruent	Block1	incongruent/STIM_021.jpg	100
432.289	0.761	760.7	incongruent	Block1	incongruent/STIM_022.jpg	100
436.659	0.887	887.1	incongruent	Block1	incongruent/STIM_022.jpg	100
441.428	1.015	1014.9	incongruent	Block1	incongruent/STIM_022.jpg	100
444.736	1.212	1211.5	incongruent	Block1	incongruent/STIM_022.jpg	100
448.476	0.932	932.1	incongruent	Block1	incongruent/STIM_022.jpg	99
453.073	1.205	1204.9	incongruent	Block1	incongruent/STIM_023.jpg	99
457.497	1.291	1290.7	incongruent	Block1	incongruent/STIM_023.jpg	99
460.945	0.597	596.6	incongruent	Block1	incongruent/STIM_023.jpg	99
465.554	0.52	519.7	incongruent	Block1	incongruent/STIM_023.jpg	99
469.934	0.671	670.6	incongruent	Block1	incongruent/STIM_023.jpg	99
473.543	1.398	1398.5	incongruent	Block1	incongruent/STIM_024.jpg	99
478.418	1.319	1319.2	incongruent	Block1	incongruent/STIM_024.jpg	100
483.746	0.761	761.4	incongruent	Block1	incongruent/STIM_024.jpg	99
487.896	1.142	1142.3	incongruent	Block1	incongruent/STIM_024.jpg	100
492.874	0.982	982.1	incongruent	Block1	incongruent/STIM_024.jpg	99
497.313	1.216	1216.1	incongruent	Block1	incongruent/STIM_025.jpg	100
502.478	0.964	964.1	incongruent	Block1	incongruent/STIM_025.jpg	100
506.792	0.916	916.0	incongruent	Block1	incongruent/STIM_025.jpg	100
510.648	1.02	1019.7	incongruent	Block1	incongruent/STIM_025.jpg	100
515.309	0.564	563.8	incongruent	Block1	incongruent/STIM_025.jpg	100
519.08	1.037	1037.1	incongruent	Block1	incongruent/STIM_026.jpg	100
523.202	0.907	907.1	incongruent	Block1	incongruent/STIM_026.jpg	99
526.397	0.915	915.4	incongruent	Block1	incongruent/STIM_026.jpg	99
530.158	1.088	1088.0	incongruent	Block1	incongruent/STIM_026.jpg	100
533.619	0.804	804.1	incongruent	Block1	incongruent/STIM_026.jpg	99
536.825	1.045	1045.1	incongruent	Block1	incongruent/STIM_027.jpg	100
541.554	1.216	1215.6	incongruent	Block1	incongruent/STIM_027.jpg	99
545.857	0.544	544.5	incongruent	Block1	incongruent/STIM_027.jpg	99
549.909	0.684	683.8	incongruent	Block1	incongruent/STIM_027.jpg	99
553.724	1.016	1015.7	incongruent	Block1	incongruent/STIM_027.jpg	100
557.968	1.176	1176.4	incongruent	Block1	incongruent/STIM_028.jpg	99
562.448	0.746	745.5	incongruent	Block1	incongruent/STIM_028.jpg	100
565.453	1.14	1140.4	incongruent	Block1	incongruent/STIM_028.jpg	99
570.187	0.939	938.9	incongruent	Block1	incongruent/STIM_028.jpg	99
574.499	1.098	1097.5	incongruent	Block1	incongruent/STIM_028.jpg	100
578.091	1.345	1344.8	incongruent	Block1	incongruent/STIM_029.jpg	100
582.473	0.842	841.8	incongruent	Block1	incongruent/STIM_029.jpg	99
586.755	0.983	983.3	incongruent	Block1	incongruent/STIM_029.jpg	99
591.671	0.742	741.6	incongruent	Block1	incongruent/STIM_029.jpg	99
594.66	0.775	775.3	incongruent	Block1	incongruent/STIM_029.jpg	99
599.171	0.631	630.9	congruent	Block1	congruent/STIM_000.jpg	99
602.981	0.777	777.2	congruent	Block1	congruent/STIM_000.jpg	100
606.01	0.492	492.2	congruent	Block1	congruent/STIM_000.jpg	100
609.142	0.519	519.4	congruent	Block1	congruent/STIM_000.jpg	100
612.886	0.54	540.2	congruent	Block1	congruent/STIM_000.jpg	99
617.041	0.478	477.6	congruent	Block1	congruent/STIM_001.jpg	100
621.233	0.559	558.7	congruent	Block1	congruent/STIM_001.jpg	99
625.426	0.442	442.4	congruent	Block1	congruent/STIM_001.jpg	100
629.025	0.562	562.4	congruent	Block1	congruent/STIM_001.jpg	99
633.607	0.573	573.0	congruent	Block1	congruent/STIM_001.jpg	100
636.692	0.673	673.0	congruent	Block1	congruent/STIM_002.jpg	100
640.28	0.521	521.3	congruent	Block1	congruent/STIM_002.jpg	100
643.414	0.642	641.6	congruent	Block1	congruent/STIM_002.jpg	100
647.866	0.512	511.7	congruent	Block1	congruent/STIM_002.jpg	100
650.854	0.752	751.7	congruent	Block1	congruent/STIM_002.jpg	99
654.809	0.61	610.1	congruent	Block1	congruent/STIM_003.jpg	100
658.834	0.569	568.7	congruent	Block1	congruent/STIM_003.jpg	99
663.16	0.546	545.7	congruent	Block1	congruent/STIM_003.jpg	99
665.909	0.479	478.6	congruent	Block1	congruent/STIM_003.jpg	100
670.445	0.582	582.2	congruent	Block1	congruent/STIM_003.jpg	100
673.142	0.907	907.3	congruent	Block1	congruent/STIM_004.jpg	100
676.488	0.685	684.7	congruent	Block1	congruent/STIM_004.jpg	100
680.126	0.712	711.9	congruent	Block1	congruent/STIM_004.jpg	99
684.539	0.737	736.6	congruent	Block1	congruent/STIM_004.jpg	100
689.015	0.867	866.8	congruent	Block1	congruent/STIM_004.jpg	100
692.095	0.814	813.9	congruent	Block1	congruent/STIM_005.jpg	99
695.418	0.739	739.0	congruent	Block1	congruent/STIM_005.jpg	100
699.536	0.785	784.9	congruent	Block1	congruent/STIM_005.jpg	99
703.506	0.662	662.0	congruent	Block1	congruent/STIM_005.jpg	99
706.833	0.504	503.9	congruent	Block1	congruent/STIM_005.jpg	99
710.501	0.474	474.3	congruent	Block1	congruent/STIM_006.jpg	99
713.305	0.771	771.0	congruent	Block1	congruent/STIM_006.jpg	100
717.521	0.75	750.2	congruent	Block1	congruent/STIM_006.jpg	100
720.927	0.517	517.1	congruent	Block1	congruent/STIM_006.jpg	99
723.984	0.54	539.5	congruent	Block1	congruent/STIM_006.jpg	100
727.057	0.595	595.4	congruent	Block1	congruent/STIM_007.jpg	99
730.351	0.551	551.2	congruent	Block1	congruent/STIM_007.jpg	99
734.281	0.512	511.6	congruent	Block1	congruent/STIM_007.jpg	100
738.2	0.855	854.9	congruent	Block1	congruent/STIM_007.jpg	99
742.83	0.88	880.0	congruent	Block1	congruent/STIM_007.jpg	100
745.892	0.676	675.8	congruent	Block1	congruent/STIM_008.jpg	99
749.214	0.743	742.7	congruent	Block1	congruent/STIM_008.jpg	100
753.019	0.667	667.3	congruent	Block1	congruent/STIM_008.jpg	99
756.837	0.6	599.6	congruent	Block1	congruent/STIM_008.jpg	100
760.346	0.433	432.6	congruent	Block1	congruent/STIM_008.jpg	99
762.89	0.625	624.9	congruent	Block1	congruent/STIM_009.jpg	100
766.075	0.896	896.4	congruent	Block1	congruent/STIM_009.jpg	99
769.172	0.598	598.0	congruent	Block1	congruent/STIM_009.jpg	100
772.517	0.488	487.8	congruent	Block1	congruent/STIM_009.jpg	100
776.778	0.735	735.1	congruent	Block1	congruent/STIM_009.jpg	100
781.533	0.805	805.1	congruent	Block1	congruent/STIM_010.jpg	99
785.413	0.579	579.2	congruent	Block1	congruent/STIM_010.jpg	100
789.713	0.778	778.4	congruent	Block1	congruent/STIM_010.jpg	100
793.157	0.843	843.3	congruent	Block1	congruent/STIM_010.jpg	99
796.968	0.685	685.1	congruent	Block1	congruent/STIM_010.jpg	99
800.296	0.809	808.9	congruent	Block1	congruent/STIM_011.jpg	99
805.073	0.721	721.1	congruent	Block1	congruent/STIM_011.jpg	100
808.0	0.719	719.4	congruent	Block1	congruent/STIM_011.jpg	100
811.141	0.833	832.8	congruent	Block1	congruent/STIM_011.jpg	100
814.414	0.72	720.1	congruent	Block1	congruent/STIM_011.jpg	99
817.732	0.689	688.7	congruent	Block1	congruent/STIM_012.jpg	99
821.634	0.66	660.5	congruent	Block1	congruent/STIM_012.jpg	100
825.864	0.547	546.8	congruent	Block1	congruent/STIM_012.jpg	100
829.286	0.533	533.1	congruent	Block1	congruent/STIM_012.jpg	100
832.37	0.76	760.1	congruent	Block1	congruent/STIM_012.jpg	100
835.301	0.787	787.0	congruent	Block1	congruent/STIM_013.jpg	100
839.448	0.52	519.6	congruent	Block1	congruent/STIM_013.jpg	100
843.599	0.471	471.3	congruent	Block1	congruent/STIM_013.jpg	100
847.406	0.901	901.4	congruent	Block1	congruent/STIM_013.jpg	99
852.173	0.814	813.5	congruent	Block1	congruent/STIM_013.jpg	99
856.663	0.584	583.7	congruent	Block1	congruent/STIM_014.jpg	100
861.277	0.576	576.0	congruent	Block1	congruent/STIM_014.jpg	100
865.051	0.553	553.1	congruent	Block1	congruent/STIM_014.jpg	99
868.777	0.777	777.3	congruent	Block1	congruent/STIM_014.jpg	99
872.405	0.549	549.1	congruent	Block1	congruent/STIM_014.jpg	99
875.918	0.791	791.3	congruent	Block1	congruent/STIM_015.jpg	99
880.667	0.709	708.6	congruent	Block1	congruent/STIM_015.jpg	99
883.603	0.568	568.5	congruent	Block1	congruent/STIM_015.jpg	100
886.384	0.786	786.4	congruent	Block1	congruent/STIM_015.jpg	99
889.191	0.593	593.3	congruent	Block1	congruent/STIM_015.jpg	100
892.615	0.548	547.9	congruent	Block1	congruent/STIM_016.jpg	99
896.529	0.44	439.5	congruent	Block1	congruent/STIM_016.jpg	99
899.878	0.537	536.7	congruent	Block1	congruent/STIM_016.jpg	100
902.955	0.678	678.5	congruent	Block1	congruent/STIM_016.jpg	99
907.52	0.804	804.4	congruent	Block1	congruent/STIM_016.jpg	100
910.659	0.826	825.9	congruent	Block1	congruent/STIM_017.jpg	99
914.279	0.871	871.4	congruent	Block1	congruent/STIM_017.jpg	99
917.8	0.644	643.7	congruent	Block1	congruent/STIM_017.jpg	100
922.471	0.602	601.7	congruent	Block1	congruent/STIM_017.jpg	99
925.571	0.843	842.8	congruent	Block1	congruent/STIM_017.jpg	100
929.341	0.617	617.1	congruent	Block1	congruent/STIM_018.jpg	100
933.505	0.422	421.7	congruent	Block1	congruent/STIM_018.jpg	100
937.561	0.606	606.1	congruent	Block1	congruent/STIM_018.jpg	100
940.397	0.739	738.9	congruent	Block1	congruent/STIM_018.jpg	100
944.911	0.824	823.6	congruent	Block1	congruent/STIM_018.jpg	100
947.896	0.553	552.6	congruent	Block1	congruent/STIM_019.jpg	99
952.358	0.533	533.4	congruent	Block1	congruent/STIM_019.jpg	100
955.717	0.568	568.5	congruent	Block1	congruent/STIM_019.jpg	99
958.832	0.887	887.4	congruent	Block1	congruent/STIM_019.jpg	99
962.288	0.732	731.8	congruent	Block1	congruent/STIM_019.jpg	100
966.534	0.581	581.3	congruent	Block1	congruent/STIM_020.jpg	100
969.35	0.426	425.8	congruent	Block1	congruent/STIM_020.jpg	99
973.268	0.853	852.6	congruent	Block1	congruent/STIM_020.jpg	99
976.387	0.528	527.5	congruent	Block1	congruent/STIM_020.jpg	99
980.625	0.79	790.1	congruent	Block1	congruent/STIM_020.jpg	100
984.956	0.762	762.3	congruent	Block1	congruent/STIM_021.jpg	99
989.587	0.726	725.5	congruent	Block1	congruent/STIM_021.jpg	100
994.232	0.852	851.8	congruent	Block1	congruent/STIM_021.jpg	100
998.691	0.487	487.2	congruent	Block1	congruent/STIM_021.jpg	99
1002.257	0.552	551.8	congruent	Block1	congruent/STIM_021.jpg	99
1005.397	0.611	610.9	congruent	Block1	congruent/STIM_022.jpg	100
1009.985	0.467	467.0	congruent	Block1	congruent/STIM_022.jpg	99
1014.119	0.593	593.0	congruent	Block1	congruent/STIM_022.jpg	100
1017.54	0.643	643.4	congruent	Block1	congruent/STIM_022.jpg	100
1021.505	0.731	731.0	congruent	Block1	congruent/STIM_022.jpg	99
1024.768	0.628	628.4	congruent	Block1	congruent/STIM_023.jpg	100
1028.33	0.61	610.3	congruent	Block1	congruent/STIM_023.jpg	100
1031.767	0.501	501.2	congruent	Block1	congruent/STIM_023.jpg	99
1035.196	0.837	837.2	congruent	Block1	congruent/STIM_023.jpg	99
1039.51	0.526	526.2	congruent	Block1	congruent/STIM_023.jpg	99
1043.364	0.756	756.2	congruent	Block1	congruent/STIM_024.jpg	99
1047.864	0.868	868.5	congruent	Block1	congruent/STIM_024.jpg	100
1051.246	0.671	670.6	congruent	Block1	congruent/STIM_024.jpg	99
1054.453	0.585	584.8	congruent	Block1	congruent/STIM_024.jpg	100
1057.922	0.825	824.8	congruent	Block1	congruent/STIM_024.jpg	100
1061.569	0.557	556.7	congruent	Block1	congruent/STIM_025.jpg	100
1064.564	0.61	610.1	congruent	Block1	congruent/STIM_025.jpg	99
1068.785	0.796	796.0	congruent	Block1	congruent/STIM_025.jpg	99
1073.536	0.473	472.8	congruent	Block1	congruent/STIM_025.jpg	100
1076.542	0.452	451.6	congruent	Block1	congruent/STIM_025.jpg	99
1079.469	0.417	417.3	congruent	Block1	congruent/STIM_026.jpg	99
1082.228	0.573	572.8	congruent	Block1	congruent/STIM_026.jpg	100
1085.805	0.621	621.2	congruent	Block1	congruent/STIM_026.jpg	100
1089.434	0.58	580.1	congruent	Block1	congruent/STIM_026.jpg	100
1093.373	0.596	595.6	congruent	Block1	congruent/STIM_026.jpg	100
1097.162	0.533	533.2	congruent	Block1	congruent/STIM_027.jpg	99
1101.752	0.799	798.9	congruent	Block1	congruent/STIM_027.jpg	99
1105.563	0.716	715.5	congruent	Block1	congruent/STIM_027.jpg	100
1109.19	0.704	703.6	congruent	Block1	congruent/STIM_027.jpg	99
1113.164	0.844	843.6	congruent	Block1	congruent/STIM_027.jpg	99
1116.182	0.851	851.4	congruent	Block1	congruent/STIM_028.jpg	99
1119.787	0.696	695.8	congruent	Block1	congruent/STIM_028.jpg	99
1124.054	0.574	574.2	congruent	Block1	congruent/STIM_028.jpg	99
1128.021	0.753	752.9	congruent	Block1	congruent/STIM_028.jpg	99
1132.283	0.838	837.6	congruent	Block1	congruent/STIM_028.jpg	100
1135.501	0.597	597.3	congruent	Block1	congruent/STIM_029.jpg	100
1138.558	0.672	672.3	congruent	Block1	congruent/STIM_029.jpg	100
1142.501	0.723	722.7	congruent	Block1	congruent/STIM_029.jpg	99
1146.449	0.516	516.2	congruent	Block1	congruent/STIM_029.jpg	99
1149.891	0.547	546.7	congruent	Block1	congruent/STIM_029.jpg	99
1152.728	0.666	666.0	incongruent	Block2	incongruent/STIM_000.jpg	100
1157.324	0.943	942.8	incongruent	Block2	incongruent/STIM_000.jpg	100
1160.814	0.887	886.9	incongruent	Block2	incongruent/STIM_000.jpg	100
1164.889	0.605	605.2	incongruent	Block2	incongruent/STIM_000.jpg	100
1168.488	0.482	482.0	incongruent	Block2	incongruent/STIM_000.jpg	100
1172.42	0.738	737.5	incongruent	Block2	incongruent/STIM_001.jpg	100
1177.097	0.82	819.5	incongruent	Block2	incongruent/STIM_001.jpg	100
1181.84	0.763	762.8	incongruent	Block2	incongruent/STIM_001.jpg	99
1184.658	1.024	1024.3	incongruent	Block2	incongruent/STIM_001.jpg	100
1188.544	0.533	533.3	incongruent	Block2	incongruent/STIM_001.jpg	99
1191.879	1.021	1020.9	incongruent	Block2	incongruent/STIM_002.jpg	100
1195.458	0.649	649.1	incongruent	Block2	incongruent/STIM_002.jpg	100
1198.375	0.891	891.3	incongruent	Block2	incongruent/STIM_002.jpg	100
1202.116	0.746	745.5	incongruent	Block2	incongruent/STIM_002.jpg	100
1205.326	0.807	806.8	incongruent	Block2	incongruent/STIM_002.jpg	100
1209.433	0.68	679.8	incongruent	Block2	incongruent/STIM_003.jpg	100
1213.958	0.982	981.8	incongruent	Block2	incongruent/STIM_003.jpg	99
1217.996	0.597	597.0	incongruent	Block2	incongruent/STIM_003.jpg	100
1221.46	0.65	650.5	incongruent	Block2	incongruent/STIM_003.jpg	100
1224.275	0.946	946.0	incongruent	Block2	incongruent/STIM_003.jpg	99
1228.214	0.678	677.7	incongruent	Block2	incongruent/STIM_004.jpg	99
1231.011	0.795	794.6	incongruent	Block2	incongruent/STIM_004.jpg	99
1235.382	0.665	665.0	incongruent	Block2	incongruent/STIM_004.jpg	100
1238.251	0.883	883.4	incongruent	Block2	incongruent/STIM_004.jpg	99
1242.327	0.554	553.8	incongruent	Block2	incongruent/STIM_004.jpg	99
1245.269	1.116	1116.3	incongruent	Block2	incongruent/STIM_005.jpg	99
1249.583	0.786	786.3	incongruent	Block2	incongruent/STIM_005.jpg	99
1254.352	0.878	877.9	incongruent	Block2	incongruent/STIM_005.jpg	99
1258.191	0.845	845.3	incongruent	Block2	incongruent/STIM_005.jpg	100
1262.632	0.957	956.6	incongruent	Block2	incongruent/STIM_005.jpg	99
1266.356	0.848	847.5	incongruent	Block2	incongruent/STIM_006.jpg	99
1270.29	0.626	626.2	incongruent	Block2	incongruent/STIM_006.jpg	100
1273.024	0.531	530.8	incongruent	Block2	incongruent/STIM_006.jpg	100
1277.054	1.068	1068.2	incongruent	Block2	incongruent/STIM_006.jpg	100
1281.417	0.583	583.2	incongruent	Block2	incongruent/STIM_006.jpg	99
1285.636	0.55	550.5	incongruent	Block2	incongruent/STIM_007.jpg	100
1289.603	1.119	1119.1	incongruent	Block2	incongruent/STIM_007.jpg	99
1292.957	0.741	741.1	incongruent	Block2	incongruent/STIM_007.jpg	99
1296.486	0.962	962.3	incongruent	Block2	incongruent/STIM_007.jpg	99
1300.938	0.553	552.6	incongruent	Block2	incongruent/STIM_007.jpg	100
1305.251	0.872	872.2	incongruent	Block2	incongruent/STIM_008.jpg	100
1309.139	0.964	964.5	incongruent	Block2	incongruent/STIM_008.jpg	99
1313.444	0.672	671.8	incongruent	Block2	incongruent/STIM_008.jpg	100
1316.299	0.898	897.8	incongruent	Block2	incongruent/STIM_008.jpg	100
1320.596	0.659	659.1	incongruent	Block2	incongruent/STIM_008.jpg	100
1325.159	0.664	663.8	incongruent	Block2	incongruent/STIM_009.jpg	99
1328.622	0.767	766.9	incongruent	Block2	incongruent/STIM_009.jpg	100
1332.93	0.709	709.0	incongruent	Block2	incongruent/STIM_009.jpg	99
1336.988	0.902	902.2	incongruent	Block2	incongruent/STIM_009.jpg	99
1340.729	0.683	683.0	incongruent	Block2	incongruent/STIM_009.jpg	100
1343.843	0.725	725.2	incongruent	Block2	incongruent/STIM_010.jpg	100
1347.301	0.973	973.3	incongruent	Block2	incongruent/STIM_010.jpg	100
1351.376	0.65	650.1	incongruent	Block2	incongruent/STIM_010.jpg	99
1355.894	0.826	825.6	incongruent	Block2	incongruent/STIM_010.jpg	99
1359.991	0.925	925.4	incongruent	Block2	incongruent/STIM_010.jpg	99
1364.914	0.519	519.0	incongruent	Block2	incongruent/STIM_011.jpg	99
1368.933	0.845	845.4	incongruent	Block2	incongruent/STIM_011.jpg	100
1373.625	0.942	941.8	incongruent	Block2	incongruent/STIM_011.jpg	100
1378.473	0.632	631.6	incongruent	Block2	incongruent/STIM_011.jpg	99
1382.161	0.591	591.4	incongruent	Block2	incongruent/STIM_011.jpg	100
1384.982	1.108	1108.5	incongruent	Block2	incongruent/STIM_012.jpg	99
1390.005	0.856	855.6	incongruent	Block2	incongruent/STIM_012.jpg	99
1393.475	0.703	703.2	incongruent	Block2	incongruent/STIM_012.jpg	99
1396.367	0.698	697.5	incongruent	Block2	incongruent/STIM_012.jpg	100
1401.116	0.723	722.7	incongruent	Block2	incongruent/STIM_012.jpg	100
1404.79	0.862	861.9	incongruent	Block2	incongruent/STIM_013.jpg	100
1408.124	0.665	665.0	incongruent	Block2	incongruent/STIM_013.jpg	100
1412.706	0.596	596.0	incongruent	Block2	incongruent/STIM_013.jpg	100
1415.947	0.788	788.3	incongruent	Block2	incongruent/STIM_013.jpg	100
1419.156	0.763	763.0	incongruent	Block2	incongruent/STIM_013.jpg	100
1423.958	0.894	894.0	incongruent	Block2	incongruent/STIM_014.jpg	100
1428.532	0.509	509.1	incongruent	Block2	incongruent/STIM_014.jpg	99
1431.882	0.587	586.7	incongruent	Block2	incongruent/STIM_014.jpg	100
1435.741	0.928	927.6	incongruent	Block2	incongruent/STIM_014.jpg	100
1438.945	0.742	741.7	incongruent	Block2	incongruent/STIM_014.jpg	100
1443.502	0.714	713.5	incongruent	Block2	incongruent/STIM_015.jpg	100
1447.376	0.857	856.7	incongruent	Block2	incongruent/STIM_015.jpg	99
1450.458	0.857	857.1	incongruent	Block2	incongruent/STIM_015.jpg	99
1453.465	0.83	830.2	incongruent	Block2	incongruent/STIM_015.jpg	100
1457.864	0.909	908.8	incongruent	Block2	incongruent/STIM_015.jpg	100
1462.394	0.671	671.2	incongruent	Block2	incongruent/STIM_016.jpg	99
1466.033	0.652	651.5	incongruent	Block2	incongruent/STIM_016.jpg	99
1469.312	0.966	965.7	incongruent	Block2	incongruent/STIM_016.jpg	100
1473.648	0.811	811.1	incongruent	Block2	incongruent/STIM_016.jpg	100
1476.662	1.02	1020.2	incongruent	Block2	incongruent/STIM_016.jpg	99
1480.823	0.75	749.6	incongruent	Block2	incongruent/STIM_017.jpg	100
1484.461	1.011	1010.6	incongruent	Block2	incongruent/STIM_017.jpg	100
1488.07	0.712	711.8	incongruent	Block2	incongruent/STIM_017.jpg	100
1492.608	0.81	810.0	incongruent	Block2	incongruent/STIM_017.jpg	99
1495.864	0.836	836.3	incongruent	Block2	incongruent/STIM_017.jpg	99
1500.15	0.679	679.0	incongruent	Block2	incongruent/STIM_018.jpg	99
1503.272	0.919	918.9	incongruent	Block2	incongruent/STIM_018.jpg	100
1507.553	0.981	980.8	incongruent	Block2	incongruent/STIM_018.jpg	99
1511.251	0.463	462.7	incongruent	Block2	incongruent/STIM_018.jpg	99
1515.601	0.649	649.2	incongruent	Block2	incongruent/STIM_018.jpg	100
1518.327	0.872	871.7	incongruent	Block2	incongruent/STIM_019.jpg	99
1522.866	0.886	885.7	incongruent	Block2	incongruent/STIM_019.jpg	100
1526.286	0.838	838.2	incongruent	Block2	incongruent/STIM_019.jpg	99
1530.176	0.723	722.8	incongruent	Block2	incongruent/STIM_019.jpg	100
1533.878	0.499	499.0	incongruent	Block2	incongruent/STIM_019.jpg	100
1537.102	0.949	949.3	incongruent	Block2	incongruent/STIM_020.jpg	100
1541.956	0.54	539.8	incongruent	Block2	incongruent/STIM_020.jpg	99
1545.814	0.466	465.9	incongruent	Block2	incongruent/STIM_020.jpg	100
1550.018	0.574	574.5	incongruent	Block2	incongruent/STIM_020.jpg	99
1553.406	0.864	863.9	incongruent	Block2	incongruent/STIM_020.jpg	99
1557.142	0.624	623.8	incongruent	Block2	incongruent/STIM_021.jpg	100
1560.342	0.863	863.4	incongruent	Block2	incongruent/STIM_021.jpg	100
1564.684	0.808	807.9	incongruent	Block2	incongruent/STIM_021.jpg	100
1568.934	0.667	666.8	incongruent	Block2	incongruent/STIM_021.jpg	100
1573.362	0.925	925.3	incongruent	Block2	incongruent/STIM_021.jpg	100
1576.751	0.941	941.1	incongruent	Block2	incongruent/STIM_022.jpg	99
1580.683	0.837	837.1	incongruent	Block2	incongruent/STIM_022.jpg	99
1584.168	0.69	690.1	incongruent	Block2	incongruent/STIM_022.jpg	99
1588.866	0.772	772.5	incongruent	Block2	incongruent/STIM_022.jpg	99
1593.67	0.776	776.5	incongruent	Block2	incongruent/STIM_022.jpg	100
1598.397	0.995	995.4	incongruent	Block2	incongruent/STIM_023.jpg	99
1602.511	0.635	635.3	incongruent	Block2	incongruent/STIM_023.jpg	99
1606.344	0.951	950.9	incongruent	Block2	incongruent/STIM_023.jpg	99
1609.895	0.714	714.1	incongruent	Block2	incongruent/STIM_023.jpg	100
1614.415	0.865	865.0	incongruent	Block2	incongruent/STIM_023.jpg	99
1618.156	0.712	711.7	incongruent	Block2	incongruent/STIM_024.jpg	100
1622.154	0.701	700.8	incongruent	Block2	incongruent/STIM_024.jpg	100
1626.667	0.553	553.0	incongruent	Block2	incongruent/STIM_024.jpg	100
1631.032	0.748	748.2	incongruent	Block2	incongruent/STIM_024.jpg	99
1634.512	0.678	677.8	incongruent	Block2	incongruent/STIM_024.jpg	99
1637.728	0.952	951.5	incongruent	Block2	incongruent/STIM_025.jpg	100
1642.492	0.968	967.8	incongruent	Block2	incongruent/STIM_025.jpg	99
1647.008	0.669	669.3	incongruent	Block2	incongruent/STIM_025.jpg	99
1650.117	0.99	990.5	incongruent	Block2	incongruent/STIM_025.jpg	99
1654.382	0.489	489.1	incongruent	Block2	incongruent/STIM_025.jpg	99
1658.459	0.787	787.2	incongruent	Block2	incongruent/STIM_026.jpg	100
1662.942	0.838	838.2	incongruent	Block2	incongruent/STIM_026.jpg	99
1666.167	0.798	798.2	incongruent	Block2	incongruent/STIM_026.jpg	100
1669.436	0.659	659.1	incongruent	Block2	incongruent/STIM_026.jpg	99
1673.673	0.527	527.1	incongruent	Block2	incongruent/STIM_026.jpg	100
1676.407	0.872	872.2	incongruent	Block2	incongruent/STIM_027.jpg	99
1680.292	0.79	790.5	incongruent	Block2	incongruent/STIM_027.jpg	99
1684.916	0.637	637.1	incongruent	Block2	incongruent/STIM_027.jpg	99
1688.524	0.818	817.9	incongruent	Block2	incongruent/STIM_027.jpg	100
1691.683	0.842	841.9	incongruent	Block2	incongruent/STIM_027.jpg	100
1696.044	0.886	885.5	incongruent	Block2	incongruent/STIM_028.jpg	100
1699.657	0.944	944.3	incongruent	Block2	incongruent/STIM_028.jpg	99
1703.442	0.828	827.8	incongruent	Block2	incongruent/STIM_028.jpg	99
1707.865	0.901	900.9	incongruent	Block2	incongruent/STIM_028.jpg	99
1711.874	0.754	754.2	incongruent	Block2	incongruent/STIM_028.jpg	100
1716.037	0.71	710.0	incongruent	Block2	incongruent/STIM_029.jpg	99
1719.668	0.914	914.5	incongruent	Block2	incongruent/STIM_029.jpg	99
1723.567	0.685	685.2	incongruent	Block2	incongruent/STIM_029.jpg	99
1726.954	0.837	837.1	incongruent	Block2	incongruent/STIM_029.jpg	99
1731.578	0.734	733.8	incongruent	Block2	incongruent/STIM_029.jpg	100
1735.387	0.837	837.3	congruent	Block2	congruent/STIM_000.jpg	100
1740.098	0.584	584.2	congruent	Block2	congruent/STIM_000.jpg	99
1742.937	0.724	724.1	congruent	Block2	congruent/STIM_000.jpg	100
1747.321	0.66	660.2	congruent	Block2	congruent/STIM_000.jpg	99
1751.531	0.543	542.8	congruent	Block2	congruent/STIM_000.jpg	99
1754.704	0.671	670.7	congruent	Block2	congruent/STIM_001.jpg	100
1759.208	0.849	848.7	congruent	Block2	congruent/STIM_001.jpg	100
1762.687	0.514	514.0	congruent	Block2	congruent/STIM_001.jpg	100
1765.606	0.808	808.3	congruent	Block2	congruent/STIM_001.jpg	100
1769.784	0.633	632.9	congruent	Block2	congruent/STIM_001.jpg	99
1772.732	0.546	546.2	congruent	Block2	congruent/STIM_002.jpg	99
1775.56	0.53	530.3	congruent	Block2	congruent/STIM_002.jpg	99
1779.863	0.671	671.2	congruent	Block2	congruent/STIM_002.jpg	100
1784.189	0.65	650.4	congruent	Block2	congruent/STIM_002.jpg	100
1788.746	0.604	603.5	congruent	Block2	congruent/STIM_002.jpg	99
1792.459	0.784	783.5	congruent	Block2	congruent/STIM_003.jpg	100
1795.842	0.713	712.8	congruent	Block2	congruent/STIM_003.jpg	100
1800.146	0.561	561.4	congruent	Block2	congruent/STIM_003.jpg	99
1803.597	0.488	488.0	congruent	Block2	congruent/STIM_003.jpg	99
1807.219	0.843	842.8	congruent	Block2	congruent/STIM_003.jpg	99
1810.384	0.871	870.6	congruent	Block2	congruent/STIM_004.jpg	99
1815.122	0.628	628.3	congruent	Block2	congruent/STIM_004.jpg	99
1818.376	0.674	674.3	congruent	Block2	congruent/STIM_004.jpg	100
1822.471	0.648	648.5	congruent	Block2	congruent/STIM_004.jpg	100
1826.298	0.651	651.0	congruent	Block2	congruent/STIM_004.jpg	100
1830.908	0.761	761.2	congruent	Block2	congruent/STIM_005.jpg	99
1833.687	0.808	807.7	congruent	Block2	congruent/STIM_005.jpg	100
1837.039	0.507	507.3	congruent	Block2	congruent/STIM_005.jpg	100
1840.798	0.702	701.7	congruent	Block2	congruent/STIM_005.jpg	99
1844.296	0.594	594.1	congruent	Block2	congruent/STIM_005.jpg	99
1848.516	0.71	710.1	congruent	Block2	congruent/STIM_006.jpg	99
1852.888	0.548	547.6	congruent	Block2	congruent/STIM_006.jpg	99
1856.805	0.522	522.2	congruent	Block2	congruent/STIM_006.jpg	99
1860.613	0.768	768.2	congruent	Block2	congruent/STIM_006.jpg	99
1864.303	0.7	700.2	congruent	Block2	congruent/STIM_006.jpg	100
1867.339	0.546	545.6	congruent	Block2	congruent/STIM_007.jpg	99
1871.721	0.859	858.7	congruent	Block2	congruent/STIM_007.jpg	99
1875.198	0.73	730.1	congruent	Block2	congruent/STIM_007.jpg	100
1879.463	0.586	586.1	congruent	Block2	congruent/STIM_007.jpg	99
1882.782	0.666	665.5	congruent	Block2	congruent/STIM_007.jpg	100
1886.869	0.562	562.4	congruent	Block2	congruent/STIM_008.jpg	99
1890.019	0.792	791.6	congruent	Block2	congruent/STIM_008.jpg	99
1894.363	0.745	744.9	congruent	Block2	congruent/STIM_008.jpg	99
1897.854	0.823	823.2	congruent	Block2	congruent/STIM_008.jpg	100
1901.746	0.66	659.7	congruent	Block2	congruent/STIM_008.jpg	100
1905.769	0.725	725.3	congruent	Block2	congruent/STIM_009.jpg	99
1909.188	0.595	594.8	congruent	Block2	congruent/STIM_009.jpg	100
1912.705	0.491	491.2	congruent	Block2	congruent/STIM_009.jpg	100
1916.59	0.681	681.4	congruent	Block2	congruent/STIM_009.jpg	100
1919.547	0.675	675.3	congruent	Block2	congruent/STIM_009.jpg	100
1923.058	0.77	769.8	congruent	Block2	congruent/STIM_010.jpg	100
1927.584	0.432	432.2	congruent	Block2	congruent/STIM_010.jpg	99
1930.37	0.499	499.2	congruent	Block2	congruent/STIM_010.jpg	99
1934.932	0.516	516.3	congruent	Block2	congruent/STIM_010.jpg	99
1939.117	0.838	838.4	congruent	Block2	congruent/STIM_010.jpg	99
1942.199	0.668	668.1	congruent	Block2	congruent/STIM_011.jpg	100
1946.359	0.678	677.9	congruent	Block2	congruent/STIM_011.jpg	100
1949.096	0.452	452.3	congruent	Block2	congruent/STIM_011.jpg	99
1952.376	0.617	617.0	congruent	Block2	congruent/STIM_011.jpg	100
1956.342	0.841	841.1	congruent	Block2	congruent/STIM_011.jpg	100
1961.22	0.767	767.0	congruent	Block2	congruent/STIM_012.jpg	100
1964.492	0.722	721.6	congruent	Block2	congruent/STIM_012.jpg	100
1968.922	0.381	381.4	congruent	Block2	congruent/STIM_012.jpg	99
1972.281	0.465	465.1	congruent	Block2	congruent/STIM_012.jpg	99
1975.541	0.608	608.2	congruent	Block2	congruent/STIM_012.jpg	99
1979.06	0.782	781.5	congruent	Block2	congruent/STIM_013.jpg	100
1983.634	0.791	790.9	congruent	Block2	congruent/STIM_013.jpg	100
1986.515	0.583	583.3	congruent	Block2	congruent/STIM_013.jpg	100
1989.74	0.537	537.1	congruent	Block2	congruent/STIM_013.jpg	99
1993.485	0.623	623.0	congruent	Block2	congruent/STIM_013.jpg	100
1998.044	0.634	633.8	congruent	Block2	congruent/STIM_014.jpg	100
2002.431	0.7	700.1	congruent	Block2	congruent/STIM_014.jpg	99
2006.481	0.64	639.6	congruent	Block2	congruent/STIM_014.jpg	99
2009.512	0.57	570.5	congruent	Block2	congruent/STIM_014.jpg	100
2013.329	0.755	755.3	congruent	Block2	congruent/STIM_014.jpg	99
2016.875	0.526	525.8	congruent	Block2	congruent/STIM_015.jpg	99
2020.281	0.748	748.4	congruent	Block2	congruent/STIM_015.jpg	99
2024.109	0.506	506.0	congruent	Block2	congruent/STIM_015.jpg	99
2027.929	0.468	467.8	congruent	Block2	congruent/STIM_015.jpg	99
2031.216	0.71	709.9	congruent	Block2	congruent/STIM_015.jpg	99
2034.437	0.535	534.7	congruent	Block2	congruent/STIM_016.jpg	100
2037.793	0.8	800.2	congruent	Block2	congruent/STIM_016.jpg	99
2042.402	0.517	517.4	congruent	Block2	congruent/STIM_016.jpg	99
2045.661	0.766	766.4	congruent	Block2	congruent/STIM_016.jpg	99
2050.235	0.573	573.3	congruent	Block2	congruent/STIM_016.jpg	99
2053.669	0.911	910.6	congruent	Block2	congruent/STIM_017.jpg	99
2056.881	0.636	635.5	congruent	Block2	congruent/STIM_017.jpg	100
2060.951	0.798	798.1	congruent	Block2	congruent/STIM_017.jpg	99
2064.575	0.443	443.0	congruent	Block2	congruent/STIM_017.jpg	99
2068.402	0.562	562.1	congruent	Block2	congruent/STIM_017.jpg	100
2071.088	0.558	558.5	congruent	Block2	congruent/STIM_018.jpg	99
2073.836	0.717	716.9	congruent	Block2	congruent/STIM_018.jpg	99
2077.399	0.698	698.2	congruent	Block2	congruent/STIM_018.jpg	100
2080.897	0.618	617.5	congruent	Block2	congruent/STIM_018.jpg	100
2083.726	0.799	798.9	congruent	Block2	congruent/STIM_018.jpg	100
2087.679	0.675	675.3	congruent	Block2	congruent/STIM_019.jpg	100
2091.337	0.778	778.5	congruent	Block2	congruent/STIM_019.jpg	100
2094.506	0.697	697.4	congruent	Block2	congruent/STIM_019.jpg	99
2098.674	0.576	576.5	congruent	Block2	congruent/STIM_019.jpg	100
2102.546	0.636	635.5	congruent	Block2	congruent/STIM_019.jpg	100
2105.326	0.712	711.9	congruent	Block2	congruent/STIM_020.jpg	100
2108.589	0.632	631.7	congruent	Block2	congruent/STIM_020.jpg	99
2112.439	0.38	379.5	congruent	Block2	congruent/STIM_020.jpg	100
2115.256	0.606	605.8	congruent	Block2	congruent/STIM_020.jpg	99
2119.769	0.766	765.6	congruent	Block2	congruent/STIM_020.jpg	99
2123.247	0.591	591.4	congruent	Block2	congruent/STIM_021.jpg	100
2126.569	0.698	697.7	congruent	Block2	congruent/STIM_021.jpg	99
2130.758	0.522	521.6	congruent	Block2	congruent/STIM_021.jpg	99
2134.536	0.714	713.5	congruent	Block2	congruent/STIM_021.jpg	100
2137.552	0.554	553.9	congruent	Block2	congruent/STIM_021.jpg	99
2140.567	0.605	605.0	congruent	Block2	congruent/STIM_022.jpg	99
2144.661	0.771	770.8	congruent	Block2	congruent/STIM_022.jpg	99
2148.456	0.779	779.4	congruent	Block2	congruent/STIM_022.jpg	100
2152.302	0.696	695.6	congruent	Block2	congruent/STIM_022.jpg	100
2156.528	0.73	729.6	congruent	Block2	congruent/STIM_022.jpg	100
2159.926	0.889	889.1	congruent	Block2	congruent/STIM_023.jpg	99
2164.017	0.675	675.0	congruent	Block2	congruent/STIM_023.jpg	99
2167.748	0.455	455.4	congruent	Block2	congruent/STIM_023.jpg	99
2171.628	0.754	754.0	congruent	Block2	congruent/STIM_023.jpg	99
2175.348	0.673	673.4	congruent	Block2	congruent/STIM_023.jpg	99
2179.525	0.504	503.8	congruent	Block2	congruent/STIM_024.jpg	100
2183.756	0.529	528.6	congruent	Block2	congruent/STIM_024.jpg	100
2187.777	0.701	701.3	congruent	Block2	congruent/STIM_024.jpg	99
2191.958	0.407	407.4	congruent	Block2	congruent/STIM_024.jpg	99
2194.565	0.536	535.7	congruent	Block2	congruent/STIM_024.jpg	99
2197.469	0.574	574.2	congruent	Block2	congruent/STIM_025.jpg	99
2200.161	0.663	663.2	congruent	Block2	congruent/STIM_025.jpg	100
2203.326	0.643	643.1	congruent	Block2	congruent/STIM_025.jpg	99
2207.123	0.622	622.3	congruent	Block2	congruent/STIM_025.jpg	100
2209.819	0.534	534.2	congruent	Block2	congruent/STIM_025.jpg	100
2213.482	0.533	533.2	congruent	Block2	congruent/STIM_026.jpg	100
2216.335	0.644	643.8	congruent	Block2	congruent/STIM_026.jpg	99
2219.396	0.592	591.6	congruent	Block2	congruent/STIM_026.jpg	99
2222.111	0.561	560.6	congruent	Block2	congruent/STIM_026.jpg	99
2226.495	0.749	748.7	congruent	Block2	congruent/STIM_026.jpg	100
2231.305	0.549	549.1	congruent	Block2	congruent/STIM_027.jpg	99
2235.016	0.559	558.8	congruent	Block2	congruent/STIM_027.jpg	99
2239.182	0.672	672.4	congruent	Block2	congruent/STIM_027.jpg	99
2243.019	0.643	643.4	congruent	Block2	congruent/STIM_027.jpg	100
2247.551	0.639	638.7	congruent	Block2	congruent/STIM_027.jpg	100
2251.351	0.782	781.6	congruent	Block2	congruent/STIM_028.jpg	99
2254.333	0.528	528.3	congruent	Block2	congruent/STIM_028.jpg	100
2257.026	0.78	780.1	congruent	Block2	congruent/STIM_028.jpg	99
2260.144	0.73	730.5	congruent	Block2	congruent/STIM_028.jpg	100
2263.718	0.537	537.0	congruent	Block2	congruent/STIM_028.jpg	100
2267.131	0.445	445.0	congruent	Block2	congruent/STIM_029.jpg	100
2270.845	0.596	596.2	congruent	Block2	congruent/STIM_029.jpg	100
2274.451	0.555	554.9	congruent	Block2	congruent/STIM_029.jpg	99
2278.8	0.398	397.6	congruent	Block2	congruent/STIM_029.jpg	100
2283.308	0.621	621.4	congruent	Block2	congruent/STIM_029.jpg	100
2286.353	0.839	838.6	incongruent	Block3	incongruent/STIM_000.jpg	99
2291.165	0.485	485.4	incongruent	Block3	incongruent/STIM_000.jpg	100
2295.072	0.854	854.3	incongruent	Block3	incongruent/STIM_000.jpg	100
2299.439	0.426	425.7	incongruent	Block3	incongruent/STIM_000.jpg	99
2303.797	0.708	708.3	incongruent	Block3	incongruent/STIM_000.jpg	99
2308.179	0.582	582.3	incongruent	Block3	incongruent/STIM_001.jpg	100
2311.904	0.544	544.3	incongruent	Block3	incongruent/STIM_001.jpg	100
2314.83	0.917	917.4	incongruent	Block3	incongruent/STIM_001.jpg	100
2318.146	0.637	636.9	incongruent	Block3	incongruent/STIM_001.jpg	99
2322.644	0.801	800.8	incongruent	Block3	incongruent/STIM_001.jpg	100
2325.751	0.444	444.4	incongruent	Block3	incongruent/STIM_002.jpg	100
2329.259	0.56	559.5	incongruent	Block3	incongruent/STIM_002.jpg	99
2332.236	0.74	740.3	incongruent	Block3	incongruent/STIM_002.jpg	99
2336.025	0.561	560.6	incongruent	Block3	incongruent/STIM_002.jpg	99
2338.812	0.883	883.1	incongruent	Block3	incongruent/STIM_002.jpg	100
2342.351	0.823	822.6	incongruent	Block3	incongruent/STIM_003.jpg	99
2346.28	0.505	505.1	incongruent	Block3	incongruent/STIM_003.jpg	99
2350.334	0.509	509.3	incongruent	Block3	incongruent/STIM_003.jpg	99
2354.295	0.643	643.3	incongruent	Block3	incongruent/STIM_003.jpg	99
2357.428	0.818	818.3	incongruent	Block3	incongruent/STIM_003.jpg	99
2361.783	0.539	539.4	incongruent	Block3	incongruent/STIM_004.jpg	99
2365.141	0.798	797.6	incongruent	Block3	incongruent/STIM_004.jpg	99
2369.459	0.533	533.2	incongruent	Block3	incongruent/STIM_004.jpg	99
2373.003	1.005	1004.6	incongruent	Block3	incongruent/STIM_004.jpg	100
2377.574	0.504	504.0	incongruent	Block3	incongruent/STIM_004.jpg	100
2381.05	0.777	776.9	incongruent	Block3	incongruent/STIM_005.jpg	100
2385.68	0.564	564.3	incongruent	Block3	incongruent/STIM_005.jpg	100
2389.055	0.673	673.2	incongruent	Block3	incongruent/STIM_005.jpg	99
2393.337	0.772	772.0	incongruent	Block3	incongruent/STIM_005.jpg	99
2396.381	0.944	944.4	incongruent	Block3	incongruent/STIM_005.jpg	100
2400.055	0.823	823.0	incongruent	Block3	incongruent/STIM_006.jpg	99
2403.935	0.878	877.7	incongruent	Block3	incongruent/STIM_006.jpg	100
2407.605	0.754	754.1	incongruent	Block3	incongruent/STIM_006.jpg	99
2411.847	1.011	1011.2	incongruent	Block3	incongruent/STIM_006.jpg	100
2416.439	0.613	612.7	incongruent	Block3	incongruent/STIM_006.jpg	100
2420.695	0.648	648.0	incongruent	Block3	incongruent/STIM_007.jpg	100
2424.22	0.75	749.8	incongruent	Block3	incongruent/STIM_007.jpg	99
2427.756	1.037	1037.3	incongruent	Block3	incongruent/STIM_007.jpg	100
2431.184	0.657	657.0	incongruent	Block3	incongruent/STIM_007.jpg	99
2434.036	0.516	516.2	incongruent	Block3	incongruent/STIM_007.jpg	99
2437.96	0.781	781.1	incongruent	Block3	incongruent/STIM_008.jpg	100
2442.621	0.556	555.9	incongruent	Block3	incongruent/STIM_008.jpg	100
2446.515	0.774	773.8	incongruent	Block3	incongruent/STIM_008.jpg	99
2450.46	0.693	692.6	incongruent	Block3	incongruent/STIM_008.jpg	99
2454.763	0.714	714.1	incongruent	Block3	incongruent/STIM_008.jpg	99
2458.104	0.683	683.4	incongruent	Block3	incongruent/STIM_009.jpg	99
2461.506	0.958	957.9	incongruent	Block3	incongruent/STIM_009.jpg	100
2464.86	0.525	525.4	incongruent	Block3	incongruent/STIM_009.jpg	99
2469.224	0.66	660.0	incongruent	Block3	incongruent/STIM_009.jpg	99
2472.486	0.756	756.0	incongruent	Block3	incongruent/STIM_009.jpg	100
2476.391	0.794	794.4	incongruent	Block3	incongruent/STIM_010.jpg	99
2480.962	0.573	572.9	incongruent	Block3	incongruent/STIM_010.jpg	99
2484.071	0.826	825.7	incongruent	Block3	incongruent/STIM_010.jpg	100
2487.742	0.472	471.9	incongruent	Block3	incongruent/STIM_010.jpg	99
2491.017	0.937	937.1	incongruent	Block3	incongruent/STIM_010.jpg	100
2494.343	0.876	876.0	incongruent	Block3	incongruent/STIM_011.jpg	99
2498.041	0.672	671.7	incongruent	Block3	incongruent/STIM_011.jpg	100
2500.806	0.606	606.0	incongruent	Block3	incongruent/STIM_011.jpg	100
2505.364	0.94	939.9	incongruent	Block3	incongruent/STIM_011.jpg	99
2508.452	0.804	803.6	incongruent	Block3	incongruent/STIM_011.jpg	99
2512.887	0.518	517.6	incongruent	Block3	incongruent/STIM_012.jpg	99
2515.597	0.878	878.4	incongruent	Block3	incongruent/STIM_012.jpg	99
2518.889	0.767	766.7	incongruent	Block3	incongruent/STIM_012.jpg	100
2523.577	0.462	462.3	incongruent	Block3	incongruent/STIM_012.jpg	100
2527.72	0.547	546.9	incongruent	Block3	incongruent/STIM_012.jpg	99
2531.521	0.73	730.5	incongruent	Block3	incongruent/STIM_013.jpg	99
2535.958	0.776	776.5	incongruent	Block3	incongruent/STIM_013.jpg	100
2540.292	0.554	553.5	incongruent	Block3	incongruent/STIM_013.jpg	100
2543.316	0.707	706.8	incongruent	Block3	incongruent/STIM_013.jpg	99
2547.49	0.914	913.6	incongruent	Block3	incongruent/STIM_013.jpg	99
2552.031	0.857	857.3	incongruent	Block3	incongruent/STIM_014.jpg	99
2556.453	1.004	1003.7	incongruent	Block3	incongruent/STIM_014.jpg	99
2560.664	0.887	887.1	incongruent	Block3	incongruent/STIM_014.jpg	100
2563.821	0.882	882.1	incongruent	Block3	incongruent/STIM_014.jpg	100
2568.672	0.663	663.4	incongruent	Block3	incongruent/STIM_014.jpg	99
2572.855	0.651	650.8	incongruent	Block3	incongruent/STIM_015.jpg	100
2576.764	0.732	732.4	incongruent	Block3	incongruent/STIM_015.jpg	99
2580.114	0.766	766.0	incongruent	Block3	incongruent/STIM_015.jpg	100
2584.692	0.423	423.3	incongruent	Block3	incongruent/STIM_015.jpg	100
2588.138	0.572	572.5	incongruent	Block3	incongruent/STIM_015.jpg	100
2591.121	0.66	660.4	incongruent	Block3	incongruent/STIM_016.jpg	99
2594.322	0.8	799.6	incongruent	Block3	incongruent/STIM_016.jpg	100
2597.332	0.602	602.5	incongruent	Block3	incongruent/STIM_016.jpg	99
2599.934	0.632	632.2	incongruent	Block3	incongruent/STIM_016.jpg	100
2603.362	0.578	577.7	incongruent	Block3	incongruent/STIM_016.jpg	100
2606.689	0.896	896.2	incongruent	Block3	incongruent/STIM_017.jpg	99
2610.885	0.709	709.3	incongruent	Block3	incongruent/STIM_017.jpg	99
2613.919	0.941	941.3	incongruent	Block3	incongruent/STIM_017.jpg	100
2618.18	0.592	591.7	incongruent	Block3	incongruent/STIM_017.jpg	99
2622.302	0.706	705.6	incongruent	Block3	incongruent/STIM_017.jpg	100
2625.339	0.71	710.0	incongruent	Block3	incongruent/STIM_018.jpg	99
2628.866	0.469	469.1	incongruent	Block3	incongruent/STIM_018.jpg	99
2632.785	0.864	864.1	incongruent	Block3	incongruent/STIM_018.jpg	99
2637.582	0.77	769.7	incongruent	Block3	incongruent/STIM_018.jpg	100
2642.235	0.75	749.7	incongruent	Block3	incongruent/STIM_018.jpg	100
2646.88	0.747	747.1	incongruent	Block3	incongruent/STIM_019.jpg	100
2651.61	0.572	572.3	incongruent	Block3	incongruent/STIM_019.jpg	99
2655.509	0.76	760.0	incongruent	Block3	incongruent/STIM_019.jpg	100
2659.353	0.592	592.4	incongruent	Block3	incongruent/STIM_019.jpg	99
2663.333	0.575	575.3	incongruent	Block3	incongruent/STIM_019.jpg	99
2666.325	1.031	1031.2	incongruent	Block3	incongruent/STIM_020.jpg	100
2670.132	0.502	501.8	incongruent	Block3	incongruent/STIM_020.jpg	100
2673.655	0.456	456.5	incongruent	Block3	incongruent/STIM_020.jpg	100
2677.52	0.6	599.7	incongruent	Block3	incongruent/STIM_020.jpg	100
2680.897	0.702	701.5	incongruent	Block3	incongruent/STIM_020.jpg	99
2684.441	0.71	709.8	incongruent	Block3	incongruent/STIM_021.jpg	99
2688.061	0.879	878.6	incongruent	Block3	incongruent/STIM_021.jpg	99
2691.748	0.848	847.6	incongruent	Block3	incongruent/STIM_021.jpg	99
2695.867	0.782	782.3	incongruent	Block3	incongruent/STIM_021.jpg	100
2699.41	0.419	418.7	incongruent	Block3	incongruent/STIM_021.jpg	99
2702.502	0.692	692.3	incongruent	Block3	incongruent/STIM_022.jpg	99
2705.935	0.681	680.7	incongruent	Block3	incongruent/STIM_022.jpg	99
2710.091	0.834	833.7	incongruent	Block3	incongruent/STIM_022.jpg	100
2713.553	0.82	819.9	incongruent	Block3	incongruent/STIM_022.jpg	100
2716.691	0.912	911.5	incongruent	Block3	incongruent/STIM_022.jpg	99
2721.088	0.783	782.7	incongruent	Block3	incongruent/STIM_023.jpg	99
2724.743	0.538	538.0	incongruent	Block3	incongruent/STIM_023.jpg	100
2727.755	0.56	559.5	incongruent	Block3	incongruent/STIM_023.jpg	99
2731.313	0.743	743.3	incongruent	Block3	incongruent/STIM_023.jpg	100
2734.665	0.558	557.9	incongruent	Block3	incongruent/STIM_023.jpg	100
2738.692	0.969	969.4	incongruent	Block3	incongruent/STIM_024.jpg	100
2742.698	0.811	811.0	incongruent	Block3	incongruent/STIM_024.jpg	100
2746.704	0.968	967.6	incongruent	Block3	incongruent/STIM_024.jpg	100
2751.689	0.752	751.7	incongruent	Block3	incongruent/STIM_024.jpg	99
2755.089	0.756	756.3	incongruent	Block3	incongruent/STIM_024.jpg	100
2758.256	0.58	579.8	incongruent	Block3	incongruent/STIM_025.jpg	99
2761.844	0.759	759.4	incongruent	Block3	incongruent/STIM_025.jpg	99
2765.367	0.776	776.5	incongruent	Block3	incongruent/STIM_025.jpg	100
2769.711	0.74	739.8	incongruent	Block3	incongruent/STIM_025.jpg	100
2772.94	0.737	736.7	incongruent	Block3	incongruent/STIM_025.jpg	99
2776.794	0.639	638.9	incongruent	Block3	incongruent/STIM_026.jpg	100
2779.483	0.554	554.3	incongruent	Block3	incongruent/STIM_026.jpg	100
2782.824	0.957	957.1	incongruent	Block3	incongruent/STIM_026.jpg	100
2786.066	0.597	597.0	incongruent	Block3	incongruent/STIM_026.jpg	100
2790.64	0.863	863.0	incongruent	Block3	incongruent/STIM_026.jpg	100
2795.217	0.795	794.8	incongruent	Block3	incongruent/STIM_027.jpg	100
2798.535	0.946	945.6	incongruent	Block3	incongruent/STIM_027.jpg	100
2803.163	0.967	966.9	incongruent	Block3	incongruent/STIM_027.jpg	99
2806.787	0.686	685.5	incongruent	Block3	incongruent/STIM_027.jpg	100
2810.162	0.917	917.1	incongruent	Block3	incongruent/STIM_027.jpg	100
2813.732	0.579	579.4	incongruent	Block3	incongruent/STIM_028.jpg	100
2817.745	0.807	806.6	incongruent	Block3	incongruent/STIM_028.jpg	100
2821.473	0.465	465.3	incongruent	Block3	incongruent/STIM_028.jpg	100
2825.859	0.556	556.2	incongruent	Block3	incongruent/STIM_028.jpg	100
2829.427	0.606	605.5	incongruent	Block3	incongruent/STIM_028.jpg	100
2832.883	0.887	886.6	incongruent	Block3	incongruent/STIM_029.jpg	99
2837.566	0.963	962.7	incongruent	Block3	incongruent/STIM_029.jpg	100
2841.948	0.57	569.9	incongruent	Block3	incongruent/STIM_029.jpg	100
2845.91	0.59	589.8	incongruent	Block3	incongruent/STIM_029.jpg	99
2850.201	0.66	659.7	incongruent	Block3	incongruent/STIM_029.jpg	99
2854.281	0.611	610.6	congruent	Block3	congruent/STIM_000.jpg	100
2858.593	0.626	625.5	congruent	Block3	congruent/STIM_000.jpg	100
2862.768	0.812	812.3	congruent	Block3	congruent/STIM_000.jpg	99
2867.54	0.77	770.1	congruent	Block3	congruent/STIM_000.jpg	99
2871.091	0.758	758.3	congruent	Block3	congruent/STIM_000.jpg	100
2874.722	0.642	642.5	congruent	Block3	congruent/STIM_001.jpg	100
2879.439	0.774	774.4	congruent	Block3	congruent/STIM_001.jpg	99
2882.66	0.67	670.1	congruent	Block3	congruent/STIM_001.jpg	100
2887.204	0.7	700.4	congruent	Block3	congruent/STIM_001.jpg	100
2891.851	0.718	718.2	congruent	Block3	congruent/STIM_001.jpg	99
2895.422	0.792	792.0	congruent	Block3	congruent/STIM_002.jpg	100
2899.179	0.717	717.2	congruent	Block3	congruent/STIM_002.jpg	99
2902.747	0.562	561.6	congruent	Block3	congruent/STIM_002.jpg	100
2906.063	0.732	731.5	congruent	Block3	congruent/STIM_002.jpg	99
2909.574	0.625	624.6	congruent	Block3	congruent/STIM_002.jpg	100
2913.906	0.755	754.8	congruent	Block3	congruent/STIM_003.jpg	100
2916.93	0.83	829.7	congruent	Block3	congruent/STIM_003.jpg	100
2921.525	0.424	424.4	congruent	Block3	congruent/STIM_003.jpg	100
2924.407	0.645	644.7	congruent	Block3	congruent/STIM_003.jpg	99
2927.862	0.75	750.2	congruent	Block3	congruent/STIM_003.jpg	99
2931.355	0.689	689.3	congruent	Block3	congruent/STIM_004.jpg	100
2934.43	0.857	857.4	congruent	Block3	congruent/STIM_004.jpg	100
2938.327	0.675	675.2	congruent	Block3	congruent/STIM_004.jpg	99
2942.6	0.457	457.2	congruent	Block3	congruent/STIM_004.jpg	100
2946.805	0.468	467.7	congruent	Block3	congruent/STIM_004.jpg	100
2951.174	0.642	641.7	congruent	Block3	congruent/STIM_005.jpg	100
2955.758	0.6	599.6	congruent	Block3	congruent/STIM_005.jpg	100
2959.863	0.659	659.0	congruent	Block3	congruent/STIM_005.jpg	100
2963.853	0.503	502.7	congruent	Block3	congruent/STIM_005.jpg	99
2968.152	0.514	514.3	congruent	Block3	congruent/STIM_005.jpg	99
2972.743	0.746	746.1	congruent	Block3	congruent/STIM_006.jpg	100
2976.976	0.578	577.5	congruent	Block3	congruent/STIM_006.jpg	99
2980.87	0.727	726.9	congruent	Block3	congruent/STIM_006.jpg	99
2985.299	0.814	813.8	congruent	Block3	congruent/STIM_006.jpg	100
2989.377	0.782	782.3	congruent	Block3	congruent/STIM_006.jpg	100
2993.69	0.725	724.7	congruent	Block3	congruent/STIM_007.jpg	99
2997.513	0.689	689.2	congruent	Block3	congruent/STIM_007.jpg	100
3002.152	0.86	859.7	congruent	Block3	congruent/STIM_007.jpg	100
3005.498	0.718	717.5	congruent	Block3	congruent/STIM_007.jpg	100
3008.373	0.778	778.1	congruent	Block3	congruent/STIM_007.jpg	99
3011.603	0.517	517.0	congruent	Block3	congruent/STIM_008.jpg	99
3016.075	0.635	634.8	congruent	Block3	congruent/STIM_008.jpg	100
3019.677	0.796	796.4	congruent	Block3	congruent/STIM_008.jpg	99
3022.841	0.625	625.2	congruent	Block3	congruent/STIM_008.jpg	100
3026.464	0.467	467.1	congruent	Block3	congruent/STIM_008.jpg	100
3030.229	0.593	592.6	congruent	Block3	congruent/STIM_009.jpg	99
3034.258	0.684	683.7	congruent	Block3	congruent/STIM_009.jpg	99
3036.936	0.669	668.8	congruent	Block3	congruent/STIM_009.jpg	99
3040.344	0.489	489.1	congruent	Block3	congruent/STIM_009.jpg	99
3043.421	0.626	626.1	congruent	Block3	congruent/STIM_009.jpg	99
3046.86	0.86	860.2	congruent	Block3	congruent/STIM_010.jpg	100
3050.12	0.803	803.3	congruent	Block3	congruent/STIM_010.jpg	99
3054.239	0.726	726.5	congruent	Block3	congruent/STIM_010.jpg	99
3058.342	0.475	475.4	congruent	Block3	congruent/STIM_010.jpg	99
3061.799	0.674	673.5	congruent	Block3	congruent/STIM_010.jpg	100
3065.611	0.561	560.7	congruent	Block3	congruent/STIM_011.jpg	99
3069.931	0.475	474.9	congruent	Block3	congruent/STIM_011.jpg	100
3073.335	0.583	582.8	congruent	Block3	congruent/STIM_011.jpg	99
3077.133	0.809	808.9	congruent	Block3	congruent/STIM_011.jpg	100
3082.028	0.384	384.5	congruent	Block3	congruent/STIM_011.jpg	100
3084.841	0.542	542.2	congruent	Block3	congruent/STIM_012.jpg	100
3089.195	0.502	501.9	congruent	Block3	congruent/STIM_012.jpg	100
3093.463	0.719	718.8	congruent	Block3	congruent/STIM_012.jpg	99
3097.916	0.681	680.8	congruent	Block3	congruent/STIM_012.jpg	99
3102.592	0.755	755.2	congruent	Block3	congruent/STIM_012.jpg	99
3106.474	0.745	745.4	congruent	Block3	congruent/STIM_013.jpg	99
3110.93	0.663	662.6	congruent	Block3	congruent/STIM_013.jpg	99
3114.083	0.666	665.9	congruent	Block3	congruent/STIM_013.jpg	99
3117.574	0.733	733.4	congruent	Block3	congruent/STIM_013.jpg	100
3121.702	0.645	645.0	congruent	Block3	congruent/STIM_013.jpg	100
3125.7	0.774	773.5	congruent	Block3	congruent/STIM_014.jpg	99
3129.931	0.744	743.9	congruent	Block3	congruent/STIM_014.jpg	99
3134.361	0.823	822.9	congruent	Block3	congruent/STIM_014.jpg	99
3137.281	0.591	590.8	congruent	Block3	congruent/STIM_014.jpg	99
3140.205	0.812	812.5	congruent	Block3	congruent/STIM_014.jpg	99
3144.537	0.536	536.5	congruent	Block3	congruent/STIM_015.jpg	99
3147.975	0.623	623.4	congruent	Block3	congruent/STIM_015.jpg	100
3152.175	0.629	629.2	congruent	Block3	congruent/STIM_015.jpg	99
3155.204	0.704	704.1	congruent	Block3	congruent/STIM_015.jpg	100
3159.227	0.75	749.6	congruent	Block3	congruent/STIM_015.jpg	100
3163.114	0.614	614.1	congruent	Block3	congruent/STIM_016.jpg	99
3167.649	0.816	816.3	congruent	Block3	congruent/STIM_016.jpg	100
3172.164	0.837	836.6	congruent	Block3	congruent/STIM_016.jpg	99
3176.84	0.516	515.9	congruent	Block3	congruent/STIM_016.jpg	100
3179.616	0.684	683.9	congruent	Block3	congruent/STIM_016.jpg	100
3184.055	0.604	603.6	congruent	Block3	congruent/STIM_017.jpg	99
3187.161	0.791	791.3	congruent	Block3	congruent/STIM_017.jpg	99
3190.145	0.54	540.4	congruent	Block3	congruent/STIM_017.jpg	100
3193.942	0.778	778.4	congruent	Block3	congruent/STIM_017.jpg	100
3197.897	0.692	692.5	congruent	Block3	congruent/STIM_017.jpg	100
3201.696	0.59	589.5	congruent	Block3	congruent/STIM_018.jpg	100
3205.202	0.933	933.2	congruent	Block3	congruent/STIM_018.jpg	100
3208.416	0.541	540.8	congruent	Block3	congruent/STIM_018.jpg	100
3211.924	0.684	684.1	congruent	Block3	congruent/STIM_018.jpg	99
3215.439	0.445	445.0	congruent	Block3	congruent/STIM_018.jpg	100
3219.046	0.618	617.7	congruent	Block3	congruent/STIM_019.jpg	99
3222.726	0.729	729.0	congruent	Block3	congruent/STIM_019.jpg	100
3225.863	0.724	723.6	congruent	Block3	congruent/STIM_019.jpg	99
3230.544	0.596	596.3	congruent	Block3	congruent/STIM_019.jpg	99
3235.041	0.884	883.5	congruent	Block3	congruent/STIM_019.jpg	100
3238.025	0.79	790.4	congruent	Block3	congruent/STIM_020.jpg	99
3241.7	0.826	826.3	congruent	Block3	congruent/STIM_020.jpg	99
3244.862	0.443	442.6	congruent	Block3	congruent/STIM_020.jpg	99
3248.159	0.522	522.0	congruent	Block3	congruent/STIM_020.jpg	99
3250.835	0.617	617.3	congruent	Block3	congruent/STIM_020.jpg	100
3254.572	0.685	685.1	congruent	Block3	congruent/STIM_021.jpg	100
3259.231	0.809	808.8	congruent	Block3	congruent/STIM_021.jpg	100
3263.316	0.717	716.6	congruent	Block3	congruent/STIM_021.jpg	99
3267.843	0.611	611.0	congruent	Block3	congruent/STIM_021.jpg	99
3271.772	0.702	701.9	congruent	Block3	congruent/STIM_021.jpg	100
3275.172	0.567	567.1	congruent	Block3	congruent/STIM_022.jpg	100
3278.26	0.77	769.9	congruent	Block3	congruent/STIM_022.jpg	100
3281.126	0.738	738.3	congruent	Block3	congruent/STIM_022.jpg	100
3284.95	0.771	770.9	congruent	Block3	congruent/STIM_022.jpg	100
3288.195	0.451	451.3	congruent	Block3	congruent/STIM_022.jpg	99
3290.855	0.526	526.3	congruent	Block3	congruent/STIM_023.jpg	100
3293.919	0.614	614.1	congruent	Block3	congruent/STIM_023.jpg	99
3298.29	0.661	660.7	congruent	Block3	congruent/STIM_023.jpg	100
3301.598	0.671	670.6	congruent	Block3	congruent/STIM_023.jpg	99
3305.926	0.605	605.0	congruent	Block3	congruent/STIM_023.jpg	99
3309.011	0.454	453.9	congruent	Block3	congruent/STIM_024.jpg	100
3312.019	0.578	577.9	congruent	Block3	congruent/STIM_024.jpg	100
3315.405	0.496	496.5	congruent	Block3	congruent/STIM_024.jpg	99
3319.495	0.536	536.1	congruent	Block3	congruent/STIM_024.jpg	99
3322.859	0.713	713.3	congruent	Block3	congruent/STIM_024.jpg	100
3326.096	0.819	819.0	congruent	Block3	congruent/STIM_025.jpg	100
3328.97	0.782	781.6	congruent	Block3	congruent/STIM_025.jpg	99
3332.194	0.52	519.5	congruent	Block3	congruent/STIM_025.jpg	100
3336.802	0.742	742.5	congruent	Block3	congruent/STIM_025.jpg	100
3339.621	0.542	541.8	congruent	Block3	congruent/STIM_025.jpg	100
3343.292	0.816	815.5	congruent	Block3	congruent/STIM_026.jpg	100
3346.792	0.397	397.1	congruent	Block3	congruent/STIM_026.jpg	99
3350.851	0.656	655.6	congruent	Block3	congruent/STIM_026.jpg	99
3355.303	0.71	709.6	congruent	Block3	congruent/STIM_026.jpg	99
3358.282	0.816	816.2	congruent	Block3	congruent/STIM_026.jpg	100
3361.459	0.897	896.7	congruent	Block3	congruent/STIM_027.jpg	100
3365.485	0.592	591.8	congruent	Block3	congruent/STIM_027.jpg	100
3368.747	0.814	813.5	congruent	Block3	congruent/STIM_027.jpg	99
3372.167	0.814	814.1	congruent	Block3	congruent/STIM_027.jpg	100
3375.96	0.478	477.7	congruent	Block3	congruent/STIM_027.jpg	100
3380.33	0.591	591.1	congruent	Block3	congruent/STIM_028.jpg	100
3383.474	0.716	716.5	congruent	Block3	congruent/STIM_028.jpg	99
3388.243	0.624	624.1	congruent	Block3	congruent/STIM_028.jpg	99
3392.137	0.802	801.9	congruent	Block3	congruent/STIM_028.jpg	99
3396.078	0.483	483.1	congruent	Block3	congruent/STIM_028.jpg	99
3399.866	0.609	608.9	congruent	Block3	congruent/STIM_029.jpg	100
3404.008	0.592	591.7	congruent	Block3	congruent/STIM_029.jpg	99
3407.504	0.715	714.8	congruent	Block3	congruent/STIM_029.jpg	100
3411.159	0.52	519.8	congruent	Block3	congruent/STIM_029.jpg	100
3413.82	0.658	658.5	congruent	Block3	congruent/STIM_029.jpg	100
