onset	duration	accuracy_binary	trial_type	learning_stage	stimulus
0.0	1.153	1	incongruent	Block1	incongruent/STIM_000.jpg
4.213	0.823	1	incongruent	Block1	incongruent/STIM_000.jpg
8.59	0.671	1	incongruent	Block1	incongruent/STIM_000.jpg
12.436	0.787	1	incongruent	Block1	incongruent/STIM_000.jpg
16.785	1.046	1	incongruent	Block1	incongruent/STIM_000.jpg
20.967	0.788	1	incongruent	Block1	incongruent/STIM_001.jpg
25.347	0.931	1	incongruent	Block1	incongruent/STIM_001.jpg
29.641	1.078	1	incongruent	Block1	incongruent/STIM_001.jpg
34.331	0.892	1	incongruent	Block1	incongruent/STIM_001.jpg
38.852	0.797	1	incongruent	Block1	incongruent/STIM_001.jpg
41.916	1.055	1	incongruent	Block1	incongruent/STIM_002.jpg
46.032	1.207	1	incongruent	Block1	incongruent/STIM_002.jpg
49.481	0.629	1	incongruent	Block1	incongruent/STIM_002.jpg
53.461	0.93	1	incongruent	Block1	incongruent/STIM_002.jpg
56.484	0.976	1	incongruent	Block1	incongruent/STIM_002.jpg
60.551	1.201	1	incongruent	Block1	incongruent/STIM_003.jpg
65.023	1.142	1	incongruent	Block1	incongruent/STIM_003.jpg
68.569	0.76	1	incongruent	Block1	incongruent/STIM_003.jpg
73.131	1.082	1	incongruent	Block1	incongruent/STIM_003.jpg
77.263	0.858	1	incongruent	Block1	incongruent/STIM_003.jpg
81.033	0.764	1	incongruent	Block1	incongruent/STIM_004.jpg
84.258	0.752	1	incongruent	Block1	incongruent/STIM_004.jpg
87.496	1.142	1	incongruent	Block1	incongruent/STIM_004.jpg
91.896	0.751	1	incongruent	Block1	incongruent/STIM_004.jpg
94.635	0.541	1	incongruent	Block1	incongruent/STIM_004.jpg
98.267	0.918	1	incongruent	Block1	incongruent/STIM_005.jpg
102.565	1.386	1	incongruent	Block1	incongruent/STIM_005.jpg
107.471	1.013	1	incongruent	Block1	incongruent/STIM_005.jpg
111.168	0.669	1	incongruent	Block1	incongruent/STIM_005.jpg
115.438	0.724	1	incongruent	Block1	incongruent/STIM_005.jpg
119.158	0.571	1	incongruent	Block1	incongruent/STIM_006.jpg
122.618	0.717	1	incongruent	Block1	incongruent/STIM_006.jpg
126.393	0.898	1	incongruent	Block1	incongruent/STIM_006.jpg
130.196	0.664	1	incongruent	Block1	incongruent/STIM_006.jpg
133.42	0.596	1	incongruent	Block1	incongruent/STIM_006.jpg
136.527	1.074	1	incongruent	Block1	incongruent/STIM_007.jpg
140.367	1.055	1	incongruent	Block1	incongruent/STIM_007.jpg
145.369	0.8	1	incongruent	Block1	incongruent/STIM_007.jpg
148.662	0.838	1	incongruent	Block1	incongruent/STIM_007.jpg
153.429	0.59	1	incongruent	Block1	incongruent/STIM_007.jpg
156.614	0.997	1	incongruent	Block1	incongruent/STIM_008.jpg
161.318	1.114	1	incongruent	Block1	incongruent/STIM_008.jpg
165.546	0.608	1	incongruent	Block1	incongruent/STIM_008.jpg
169.118	0.774	1	incongruent	Block1	incongruent/STIM_008.jpg
173.313	0.918	1	incongruent	Block1	incongruent/STIM_008.jpg
177.102	0.898	1	incongruent	Block1	incongruent/STIM_009.jpg
180.391	0.962	1	incongruent	Block1	incongruent/STIM_009.jpg
183.47	0.955	1	incongruent	Block1	incongruent/STIM_009.jpg
188.041	0.965	1	incongruent	Block1	incongruent/STIM_009.jpg
191.719	0.743	1	incongruent	Block1	incongruent/STIM_009.jpg
195.579	0.741	0	incongruent	Block1	incongruent/STIM_010.jpg
198.481	0.881	1	incongruent	Block1	incongruent/STIM_010.jpg
202.51	0.628	1	incongruent	Block1	incongruent/STIM_010.jpg
207.151	0.951	1	incongruent	Block1	incongruent/STIM_010.jpg
210.667	0.978	1	incongruent	Block1	incongruent/STIM_010.jpg
215.496	1.174	1	incongruent	Block1	incongruent/STIM_011.jpg
219.904	0.949	1	incongruent	Block1	incongruent/STIM_011.jpg
223.263	1.038	1	incongruent	Block1	incongruent/STIM_011.jpg
226.459	0.544	1	incongruent	Block1	incongruent/STIM_011.jpg
230.235	0.607	1	incongruent	Block1	incongruent/STIM_011.jpg
233.422	1.42	1	incongruent	Block1	incongruent/STIM_012.jpg
237.973	0.915	1	incongruent	Block1	incongruent/STIM_012.jpg
242.266	0.841	1	incongruent	Block1	incongruent/STIM_012.jpg
246.799	0.695	1	incongruent	Block1	incongruent/STIM_012.jpg
249.705	1.053	1	incongruent	Block1	incongruent/STIM_012.jpg
254.724	1.002	1	incongruent	Block1	incongruent/STIM_013.jpg
259.205	0.925	1	incongruent	Block1	incongruent/STIM_013.jpg
263.503	0.553	1	incongruent	Block1	incongruent/STIM_013.jpg
266.712	0.627	1	incongruent	Block1	incongruent/STIM_013.jpg
271.041	1.02	1	incongruent	Block1	incongruent/STIM_013.jpg
275.657	1.022	1	incongruent	Block1	incongruent/STIM_014.jpg
278.713	1.233	1	incongruent	Block1	incongruent/STIM_014.jpg
282.612	0.956	1	incongruent	Block1	incongruent/STIM_014.jpg
285.673	0.984	1	incongruent	Block1	incongruent/STIM_014.jpg
288.85	0.935	1	incongruent	Block1	incongruent/STIM_014.jpg
292.297	1.171	1	incongruent	Block1	incongruent/STIM_015.jpg
295.885	0.981	1	incongruent	Block1	incongruent/STIM_015.jpg
299.209	0.782	1	incongruent	Block1	incongruent/STIM_015.jpg
304.023	0.68	1	incongruent	Block1	incongruent/STIM_015.jpg
307.787	1.01	1	incongruent	Block1	incongruent/STIM_015.jpg
311.051	0.84	1	incongruent	Block1	incongruent/STIM_016.jpg
314.267	1.226	1	incongruent	Block1	incongruent/STIM_016.jpg
319.401	1.061	1	incongruent	Block1	incongruent/STIM_016.jpg
324.217	1.109	1	incongruent	Block1	incongruent/STIM_016.jpg
329.304	0.99	1	incongruent	Block1	incongruent/STIM_016.jpg
333.199	1.163	1	incongruent	Block1	incongruent/STIM_017.jpg
337.716	0.76	1	incongruent	Block1	incongruent/STIM_017.jpg
342.53	0.918	1	incongruent	Block1	incongruent/STIM_017.jpg
346.939	0.798	1	incongruent	Block1	incongruent/STIM_017.jpg
351.558	0.724	1	incongruent	Block1	incongruent/STIM_017.jpg
354.417	1.067	1	incongruent	Block1	incongruent/STIM_018.jpg
359.16	1.006	1	incongruent	Block1	incongruent/STIM_018.jpg
363.88	0.916	1	incongruent	Block1	incongruent/STIM_018.jpg
366.988	1.098	1	incongruent	Block1	incongruent/STIM_018.jpg
371.605	0.854	1	incongruent	Block1	incongruent/STIM_018.jpg
375.204	1.241	1	incongruent	Block1	incongruent/STIM_019.jpg
379.737	1.178	0	incongruent	Block1	incongruent/STIM_019.jpg
383.105	1.149	0	incongruent	Block1	incongruent/STIM_019.jpg
387.928	0.85	0	incongruent	Block1	incongruent/STIM_019.jpg
391.435	0.833	1	incongruent	Block1	incongruent/STIM_019.jpg
395.612	1.01	1	incongruent	Block1	incongruent/STIM_020.jpg
398.85	0.922	1	incongruent	Block1	incongruent/STIM_020.jpg
402.784	0.997	0	incongruent	Block1	incongruent/STIM_020.jpg
406.66	0.616	1	incongruent	Block1	incongruent/STIM_020.jpg
409.885	1.069	1	incongruent	Block1	incongruent/STIM_020.jpg
413.222	1.41	1	incongruent	Block1	incongruent/STIM_021.jpg
416.753	0.594	1	incongruent	Block1	incongruent/STIM_021.jpg
420.565	0.781	1	incongruent	Block1	incongruent/STIM_021.jpg
424.974	1.047	1	incongruent	Block1	incongruent/STIM_021.jpg
428.98	0.52	1	incongruent	Block1	incongruent/STIM_021.jpg
432.289	0.761	1	incongruent	Block1	incongruent/STIM_022.jpg
436.659	0.887	1	incongruent	Block1	incongruent/STIM_022.jpg
441.428	1.015	1	incongruent	Block1	incongruent/STIM_022.jpg
444.736	1.212	0	incongruent	Block1	incongruent/STIM_022.jpg
448.476	0.932	1	incongruent	Block1	incongruent/STIM_022.jpg
453.073	1.205	1	incongruent	Block1	incongruent/STIM_023.jpg
457.497	1.291	1	incongruent	Block1	incongruent/STIM_023.jpg
460.945	0.597	1	incongruent	Block1	incongruent/STIM_023.jpg
465.554	0.52	1	incongruent	Block1	incongruent/STIM_023.jpg
469.934	0.671	1	incongruent	Block1	incongruent/STIM_023.jpg
473.543	1.398	1	incongruent	Block1	incongruent/STIM_024.jpg
478.418	1.319	1	incongruent	Block1	incongruent/STIM_024.jpg
483.746	0.761	1	incongruent	Block1	incongruent/STIM_024.jpg
487.896	1.142	1	incongruent	Block1	incongruent/STIM_024.jpg
492.874	0.982	1	incongruent	Block1	incongruent/STIM_024.jpg
497.313	1.216	0	incongruent	Block1	incongruent/STIM_025.jpg
502.478	0.964	0	incongruent	Block1	incongruent/STIM_025.jpg
506.792	0.916	1	incongruent	Block1	incongruent/STIM_025.jpg
510.648	1.02	1	incongruent	Block1	incongruent/STIM_025.jpg
515.309	0.564	1	incongruent	Block1	incongruent/STIM_025.jpg
519.08	1.037	1	incongruent	Block1	incongruent/STIM_026.jpg
523.202	0.907	1	incongruent	Block1	incongruent/STIM_026.jpg
526.397	0.915	1	incongruent	Block1	incongruent/STIM_026.jpg
530.158	1.088	1	incongruent	Block1	incongruent/STIM_026.jpg
533.619	0.804	1	incongruent	Block1	incongruent/STIM_026.jpg
536.825	1.045	1	incongruent	Block1	incongruent/STIM_027.jpg
541.554	1.216	1	incongruent	Block1	incongruent/STIM_027.jpg
545.857	0.544	1	incongruent	Block1	incongruent/STIM_027.jpg
549.909	0.684	1	incongruent	Block1	incongruent/STIM_027.jpg
553.724	1.016	1	incongruent	Block1	incongruent/STIM_027.jpg
557.968	1.176	1	incongruent	Block1	incongruent/STIM_028.jpg
562.448	0.746	0	incongruent	Block1	incongruent/STIM_028.jpg
565.453	1.14	0	incongruent	Block1	incongruent/STIM_028.jpg
570.187	0.939	1	incongruent	Block1	incongruent/STIM_028.jpg
574.499	1.098	1	incongruent	Block1	incongruent/STIM_028.jpg
578.091	1.345	1	incongruent	Block1	incongruent/STIM_029.jpg
582.473	0.842	1	incongruent	Block1	incongruent/STIM_029.jpg
586.755	0.983	1	incongruent	Block1	incongruent/STIM_029.jpg
591.671	0.742	1	incongruent	Block1	incongruent/STIM_029.jpg
594.66	0.775	1	incongruent	Block1	incongruent/STIM_029.jpg
599.171	0.631	1	congruent	Block1	congruent/STIM_000.jpg
602.981	0.777	1	congruent	Block1	congruent/STIM_000.jpg
606.01	0.492	1	congruent	Block1	congruent/STIM_000.jpg
609.142	0.519	1	congruent	Block1	congruent/STIM_000.jpg
612.886	0.54	0	congruent	Block1	congruent/STIM_000.jpg
617.041	0.478	1	congruent	Block1	congruent/STIM_001.jpg
621.233	0.559	1	congruent	Block1	congruent/STIM_001.jpg
625.426	0.442	1	congruent	Block1	congruent/STIM_001.jpg
629.025	0.562	1	congruent	Block1	congruent/STIM_001.jpg
633.607	0.573	1	congruent	Block1	congruent/STIM_001.jpg
636.692	0.673	1	congruent	Block1	congruent/STIM_002.jpg
640.28	0.521	1	congruent	Block1	congruent/STIM_002.jpg
643.414	0.642	1	congruent	Block1	congruent/STIM_002.jpg
647.866	0.512	1	congruent	Block1	congruent/STIM_002.jpg
650.854	0.752	1	congruent	Block1	congruent/STIM_002.jpg
654.809	0.61	1	congruent	Block1	congruent/STIM_003.jpg
658.834	0.569	1	congruent	Block1	congruent/STIM_003.jpg
663.16	0.546	1	congruent	Block1	congruent/STIM_003.jpg
665.909	0.479	1	congruent	Block1	congruent/STIM_003.jpg
670.445	0.582	1	congruent	Block1	congruent/STIM_003.jpg
673.142	0.907	1	congruent	Block1	congruent/STIM_004.jpg
676.488	0.685	1	congruent	Block1	congruent/STIM_004.jpg
680.126	0.712	1	congruent	Block1	congruent/STIM_004.jpg
684.539	0.737	1	congruent	Block1	congruent/STIM_004.jpg
689.015	0.867	0	congruent	Block1	congruent/STIM_004.jpg
692.095	0.814	1	congruent	Block1	congruent/STIM_005.jpg
695.418	0.739	1	congruent	Block1	congruent/STIM_005.jpg
699.536	0.785	1	congruent	Block1	congruent/STIM_005.jpg
703.506	0.662	1	congruent	Block1	congruent/STIM_005.jpg
706.833	0.504	1	congruent	Block1	congruent/STIM_005.jpg
710.501	0.474	1	congruent	Block1	congruent/STIM_006.jpg
713.305	0.771	1	congruent	Block1	congruent/STIM_006.jpg
717.521	0.75	1	congruent	Block1	congruent/STIM_006.jpg
720.927	0.517	1	congruent	Block1	congruent/STIM_006.jpg
723.984	0.54	1	congruent	Block1	congruent/STIM_006.jpg
727.057	0.595	1	congruent	Block1	congruent/STIM_007.jpg
730.351	0.551	1	congruent	Block1	congruent/STIM_007.jpg
734.281	0.512	1	congruent	Block1	congruent/STIM_007.jpg
738.2	0.855	1	congruent	Block1	congruent/STIM_007.jpg
742.83	0.88	1	congruent	Block1	congruent/STIM_007.jpg
745.892	0.676	1	congruent	Block1	congruent/STIM_008.jpg
749.214	0.743	1	congruent	Block1	congruent/STIM_008.jpg
753.019	0.667	1	congruent	Block1	congruent/STIM_008.jpg
756.837	0.6	1	congruent	Block1	congruent/STIM_008.jpg
760.346	0.433	1	congruent	Block1	congruent/STIM_008.jpg
762.89	0.625	1	congruent	Block1	congruent/STIM_009.jpg
766.075	0.896	1	congruent	Block1	congruent/STIM_009.jpg
769.172	0.598	1	congruent	Block1	congruent/STIM_009.jpg
772.517	0.488	1	congruent	Block1	congruent/STIM_009.jpg
776.778	0.735	1	congruent	Block1	congruent/STIM_009.jpg
781.533	0.805	1	congruent	Block1	congruent/STIM_010.jpg
785.413	0.579	1	congruent	Block1	congruent/STIM_010.jpg
789.713	0.778	1	congruent	Block1	congruent/STIM_010.jpg
793.157	0.843	1	congruent	Block1	congruent/STIM_010.jpg
796.968	0.685	1	congruent	Block1	congruent/STIM_010.jpg
800.296	0.809	1	congruent	Block1	congruent/STIM_011.jpg
805.073	0.721	1	congruent	Block1	congruent/STIM_011.jpg
808.0	0.719	1	congruent	Block1	congruent/STIM_011.jpg
811.141	0.833	0	congruent	Block1	congruent/STIM_011.jpg
814.414	0.72	1	congruent	Block1	congruent/STIM_011.jpg
817.732	0.689	1	congruent	Block1	congruent/STIM_012.jpg
821.634	0.66	1	congruent	Block1	congruent/STIM_012.jpg
825.864	0.547	1	congruent	Block1	congruent/STIM_012.jpg
829.286	0.533	1	congruent	Block1	congruent/STIM_012.jpg
832.37	0.76	1	congruent	Block1	congruent/STIM_012.jpg
835.301	0.787	1	congruent	Block1	congruent/STIM_013.jpg
839.448	0.52	1	congruent	Block1	congruent/STIM_013.jpg
843.599	0.471	1	congruent	Block1	congruent/STIM_013.jpg
847.406	0.901	1	congruent	Block1	congruent/STIM_013.jpg
852.173	0.814	1	congruent	Block1	congruent/STIM_013.jpg
856.663	0.584	1	congruent	Block1	congruent/STIM_014.jpg
861.277	0.576	1	congruent	Block1	congruent/STIM_014.jpg
865.051	0.553	0	congruent	Block1	congruent/STIM_014.jpg
868.777	0.777	1	congruent	Block1	congruent/STIM_014.jpg
872.405	0.549	1	congruent	Block1	congruent/STIM_014.jpg
875.918	0.791	0	congruent	Block1	congruent/STIM_015.jpg
880.667	0.709	1	congruent	Block1	congruent/STIM_015.jpg
883.603	0.568	1	congruent	Block1	congruent/STIM_015.jpg
886.384	0.786	1	congruent	Block1	congruent/STIM_015.jpg
889.191	0.593	1	congruent	Block1	congruent/STIM_015.jpg
892.615	0.548	1	congruent	Block1	congruent/STIM_016.jpg
896.529	0.44	1	congruent	Block1	congruent/STIM_016.jpg
899.878	0.537	1	congruent	Block1	congruent/STIM_016.jpg
902.955	0.678	0	congruent	Block1	congruent/STIM_016.jpg
907.52	0.804	1	congruent	Block1	congruent/STIM_016.jpg
910.659	0.826	1	congruent	Block1	congruent/STIM_017.jpg
914.279	0.871	1	congruent	Block1	congruent/STIM_017.jpg
917.8	0.644	1	congruent	Block1	congruent/STIM_017.jpg
922.471	0.602	1	congruent	Block1	congruent/STIM_017.jpg
925.571	0.843	1	congruent	Block1	congruent/STIM_017.jpg
929.341	0.617	1	congruent	Block1	congruent/STIM_018.jpg
933.505	0.422	1	congruent	Block1	congruent/STIM_018.jpg
937.561	0.606	1	congruent	Block1	congruent/STIM_018.jpg
940.397	0.739	1	congruent	Block1	congruent/STIM_018.jpg
944.911	0.824	1	congruent	Block1	congruent/STIM_018.jpg
947.896	0.553	1	congruent	Block1	congruent/STIM_019.jpg
952.358	0.533	1	congruent	Block1	congruent/STIM_019.jpg
955.717	0.568	1	congruent	Block1	congruent/STIM_019.jpg
958.832	0.887	1	congruent	Block1	congruent/STIM_019.jpg
962.288	0.732	1	congruent	Block1	congruent/STIM_019.jpg
966.534	0.581	1	congruent	Block1	congruent/STIM_020.jpg
969.35	0.426	1	congruent	Block1	congruent/STIM_020.jpg
973.268	0.853	1	congruent	Block1	congruent/STIM_020.jpg
976.387	0.528	1	congruent	Block1	congruent/STIM_020.jpg
980.625	0.79	1	congruent	Block1	congruent/STIM_020.jpg
984.956	0.762	1	congruent	Block1	congruent/STIM_021.jpg
989.587	0.726	1	congruent	Block1	congruent/STIM_021.jpg
994.232	0.852	1	congruent	Block1	congruent/STIM_021.jpg
998.691	0.487	1	congruent	Block1	congruent/STIM_021.jpg
1002.257	0.552	1	congruent	Block1	congruent/STIM_021.jpg
1005.397	0.611	0	congruent	Block1	congruent/STIM_022.jpg
1009.985	0.467	1	congruent	Block1	congruent/STIM_022.jpg
1014.119	0.593	1	congruent	Block1	congruent/STIM_022.jpg
1017.54	0.643	1	congruent	Block1	congruent/STIM_022.jpg
1021.505	0.731	1	congruent	Block1	congruent/STIM_022.jpg
1024.768	0.628	1	congruent	Block1	congruent/STIM_023.jpg
1028.33	0.61	1	congruent	Block1	congruent/STIM_023.jpg
1031.767	0.501	1	congruent	Block1	congruent/STIM_023.jpg
1035.196	0.837	1	congruent	Block1	congruent/STIM_023.jpg
1039.51	0.526	1	congruent	Block1	congruent/STIM_023.jpg
1043.364	0.756	1	congruent	Block1	congruent/STIM_024.jpg
1047.864	0.868	1	congruent	Block1	congruent/STIM_024.jpg
1051.246	0.671	1	congruent	Block1	congruent/STIM_024.jpg
1054.453	0.585	1	congruent	Block1	congruent/STIM_024.jpg
1057.922	0.825	1	congruent	Block1	congruent/STIM_024.jpg
1061.569	0.557	1	congruent	Block1	congruent/STIM_025.jpg
1064.564	0.61	1	congruent	Block1	congruent/STIM_025.jpg
1068.785	0.796	1	congruent	Block1	congruent/STIM_025.jpg
1073.536	0.473	1	congruent	Block1	congruent/STIM_025.jpg
1076.542	0.452	1	congruent	Block1	congruent/STIM_025.jpg
1079.469	0.417	1	congruent	Block1	congruent/STIM_026.jpg
1082.228	0.573	1	congruent	Block1	congruent/STIM_026.jpg
1085.805	0.621	1	congruent	Block1	congruent/STIM_026.jpg
1089.434	0.58	1	congruent	Block1	congruent/STIM_026.jpg
1093.373	0.596	1	congruent	Block1	congruent/STIM_026.jpg
1097.162	0.533	1	congruent	Block1	congruent/STIM_027.jpg
1101.752	0.799	1	congruent	Block1	congruent/STIM_027.jpg
1105.563	0.716	1	congruent	Block1	congruent/STIM_027.jpg
1109.19	0.704	1	congruent	Block1	congruent/STIM_027.jpg
1113.164	0.844	1	congruent	Block1	congruent/STIM_027.jpg
1116.182	0.851	1	congruent	Block1	congruent/STIM_028.jpg
1119.787	0.696	1	congruent	Block1	congruent/STIM_028.jpg
1124.054	0.574	1	congruent	Block1	congruent/STIM_028.jpg
1128.021	0.753	1	congruent	Block1	congruent/STIM_028.jpg
1132.283	0.838	1	congruent	Block1	congruent/STIM_028.jpg
1135.501	0.597	1	congruent	Block1	congruent/STIM_029.jpg
1138.558	0.672	1	congruent	Block1	congruent/STIM_029.jpg
1142.501	0.723	1	congruent	Block1	congruent/STIM_029.jpg
1146.449	0.516	1	congruent	Block1	congruent/STIM_029.jpg
1149.891	0.547	1	congruent	Block1	congruent/STIM_029.jpg
1152.728	0.666	1	incongruent	Block2	incongruent/STIM_000.jpg
1157.324	0.943	1	incongruent	Block2	incongruent/STIM_000.jpg
1160.814	0.887	1	incongruent	Block2	incongruent/STIM_000.jpg
1164.889	0.605	1	incongruent	Block2	incongruent/STIM_000.jpg
1168.488	0.482	1	incongruent	Block2	incongruent/STIM_000.jpg
1172.42	0.738	1	incongruent	Block2	incongruent/STIM_001.jpg
1177.097	0.82	1	incongruent	Block2	incongruent/STIM_001.jpg
1181.84	0.763	1	incongruent	Block2	incongruent/STIM_001.jpg
1184.658	1.024	1	incongruent	Block2	incongruent/STIM_001.jpg
1188.544	0.533	1	incongruent	Block2	incongruent/STIM_001.jpg
1191.879	1.021	1	incongruent	Block2	incongruent/STIM_002.jpg
1195.458	0.649	1	incongruent	Block2	incongruent/STIM_002.jpg
1198.375	0.891	1	incongruent	Block2	incongruent/STIM_002.jpg
1202.116	0.746	0	incongruent	Block2	incongruent/STIM_002.jpg
1205.326	0.807	1	incongruent	Block2	incongruent/STIM_002.jpg
1209.433	0.68	1	incongruent	Block2	incongruent/STIM_003.jpg
1213.958	0.982	1	incongruent	Block2	incongruent/STIM_003.jpg
1217.996	0.597	1	incongruent	Block2	incongruent/STIM_003.jpg
1221.46	0.65	1	incongruent	Block2	incongruent/STIM_003.jpg
1224.275	0.946	1	incongruent	Block2	incongruent/STIM_003.jpg
1228.214	0.678	1	incongruent	Block2	incongruent/STIM_004.jpg
1231.011	0.795	1	incongruent	Block2	incongruent/STIM_004.jpg
1235.382	0.665	1	incongruent	Block2	incongruent/STIM_004.jpg
1238.251	0.883	1	incongruent	Block2	incongruent/STIM_004.jpg
1242.327	0.554	1	incongruent	Block2	incongruent/STIM_004.jpg
1245.269	1.116	1	incongruent	Block2	incongruent/STIM_005.jpg
1249.583	0.786	1	incongruent	Block2	incongruent/STIM_005.jpg
1254.352	0.878	1	incongruent	Block2	incongruent/STIM_005.jpg
1258.191	0.845	1	incongruent	Block2	incongruent/STIM_005.jpg
1262.632	0.957	1	incongruent	Block2	incongruent/STIM_005.jpg
1266.356	0.848	1	incongruent	Block2	incongruent/STIM_006.jpg
1270.29	0.626	1	incongruent	Block2	incongruent/STIM_006.jpg
1273.024	0.531	1	incongruent	Block2	incongruent/STIM_006.jpg
1277.054	1.068	1	incongruent	Block2	incongruent/STIM_006.jpg
1281.417	0.583	1	incongruent	Block2	incongruent/STIM_006.jpg
1285.636	0.55	1	incongruent	Block2	incongruent/STIM_007.jpg
1289.603	1.119	1	incongruent	Block2	incongruent/STIM_007.jpg
1292.957	0.741	1	incongruent	Block2	incongruent/STIM_007.jpg
1296.486	0.962	1	incongruent	Block2	incongruent/STIM_007.jpg
1300.938	0.553	1	incongruent	Block2	incongruent/STIM_007.jpg
1305.251	0.872	1	incongruent	Block2	incongruent/STIM_008.jpg
1309.139	0.964	1	incongruent	Block2	incongruent/STIM_008.jpg
1313.444	0.672	1	incongruent	Block2	incongruent/STIM_008.jpg
1316.299	0.898	1	incongruent	Block2	incongruent/STIM_008.jpg
1320.596	0.659	1	incongruent	Block2	incongruent/STIM_008.jpg
1325.159	0.664	1	incongruent	Block2	incongruent/STIM_009.jpg
1328.622	0.767	1	incongruent	Block2	incongruent/STIM_009.jpg
1332.93	0.709	1	incongruent	Block2	incongruent/STIM_009.jpg
1336.988	0.902	1	incongruent	Block2	incongruent/STIM_009.jpg
1340.729	0.683	1	incongruent	Block2	incongruent/STIM_009.jpg
1343.843	0.725	1	incongruent	Block2	incongruent/STIM_010.jpg
1347.301	0.973	1	incongruent	Block2	incongruent/STIM_010.jpg
1351.376	0.65	1	incongruent	Block2	incongruent/STIM_010.jpg
1355.894	0.826	1	incongruent	Block2	incongruent/STIM_010.jpg
1359.991	0.925	1	incongruent	Block2	incongruent/STIM_010.jpg
1364.914	0.519	1	incongruent	Block2	incongruent/STIM_011.jpg
1368.933	0.845	1	incongruent	Block2	incongruent/STIM_011.jpg
1373.625	0.942	1	incongruent	Block2	incongruent/STIM_011.jpg
1378.473	0.632	1	incongruent	Block2	incongruent/STIM_011.jpg
1382.161	0.591	1	incongruent	Block2	incongruent/STIM_011.jpg
1384.982	1.108	0	incongruent	Block2	incongruent/STIM_012.jpg
1390.005	0.856	1	incongruent	Block2	incongruent/STIM_012.jpg
1393.475	0.703	1	incongruent	Block2	incongruent/STIM_012.jpg
1396.367	0.698	1	incongruent	Block2	incongruent/STIM_012.jpg
1401.116	0.723	1	incongruent	Block2	incongruent/STIM_012.jpg
1404.79	0.862	1	incongruent	Block2	incongruent/STIM_013.jpg
1408.124	0.665	0	incongruent	Block2	incongruent/STIM_013.jpg
1412.706	0.596	1	incongruent	Block2	incongruent/STIM_013.jpg
1415.947	0.788	1	incongruent	Block2	incongruent/STIM_013.jpg
1419.156	0.763	1	incongruent	Block2	incongruent/STIM_013.jpg
1423.958	0.894	1	incongruent	Block2	incongruent/STIM_014.jpg
1428.532	0.509	0	incongruent	Block2	incongruent/STIM_014.jpg
1431.882	0.587	1	incongruent	Block2	incongruent/STIM_014.jpg
1435.741	0.928	1	incongruent	Block2	incongruent/STIM_014.jpg
1438.945	0.742	1	incongruent	Block2	incongruent/STIM_014.jpg
1443.502	0.714	1	incongruent	Block2	incongruent/STIM_015.jpg
1447.376	0.857	1	incongruent	Block2	incongruent/STIM_015.jpg
1450.458	0.857	1	incongruent	Block2	incongruent/STIM_015.jpg
1453.465	0.83	1	incongruent	Block2	incongruent/STIM_015.jpg
1457.864	0.909	1	incongruent	Block2	incongruent/STIM_015.jpg
1462.394	0.671	1	incongruent	Block2	incongruent/STIM_016.jpg
1466.033	0.652	1	incongruent	Block2	incongruent/STIM_016.jpg
1469.312	0.966	1	incongruent	Block2	incongruent/STIM_016.jpg
1473.648	0.811	1	incongruent	Block2	incongruent/STIM_016.jpg
1476.662	1.02	1	incongruent	Block2	incongruent/STIM_016.jpg
1480.823	0.75	1	incongruent	Block2	incongruent/STIM_017.jpg
1484.461	1.011	1	incongruent	Block2	incongruent/STIM_017.jpg
1488.07	0.712	1	incongruent	Block2	incongruent/STIM_017.jpg
1492.608	0.81	1	incongruent	Block2	incongruent/STIM_017.jpg
1495.864	0.836	1	incongruent	Block2	incongruent/STIM_017.jpg
1500.15	0.679	1	incongruent	Block2	incongruent/STIM_018.jpg
1503.272	0.919	1	incongruent	Block2	incongruent/STIM_018.jpg
1507.553	0.981	1	incongruent	Block2	incongruent/STIM_018.jpg
1511.251	0.463	1	incongruent	Block2	incongruent/STIM_018.jpg
1515.601	0.649	1	incongruent	Block2	incongruent/STIM_018.jpg
1518.327	0.872	1	incongruent	Block2	incongruent/STIM_019.jpg
1522.866	0.886	1	incongruent	Block2	incongruent/STIM_019.jpg
1526.286	0.838	1	incongruent	Block2	incongruent/STIM_019.jpg
1530.176	0.723	0	incongruent	Block2	incongruent/STIM_019.jpg
1533.878	0.499	1	incongruent	Block2	incongruent/STIM_019.jpg
1537.102	0.949	1	incongruent	Block2	incongruent/STIM_020.jpg
1541.956	0.54	1	incongruent	Block2	incongruent/STIM_020.jpg
1545.814	0.466	1	incongruent	Block2	incongruent/STIM_020.jpg
1550.018	0.574	1	incongruent	Block2	incongruent/STIM_020.jpg
1553.406	0.864	1	incongruent	Block2	incongruent/STIM_020.jpg
1557.142	0.624	1	incongruent	Block2	incongruent/STIM_021.jpg
1560.342	0.863	1	incongruent	Block2	incongruent/STIM_021.jpg
1564.684	0.808	0	incongruent	Block2	incongruent/STIM_021.jpg
1568.934	0.667	1	incongruent	Block2	incongruent/STIM_021.jpg
1573.362	0.925	1	incongruent	Block2	incongruent/STIM_021.jpg
1576.751	0.941	1	incongruent	Block2	incongruent/STIM_022.jpg
1580.683	0.837	1	incongruent	Block2	incongruent/STIM_022.jpg
1584.168	0.69	1	incongruent	Block2	incongruent/STIM_022.jpg
1588.866	0.772	1	incongruent	Block2	incongruent/STIM_022.jpg
1593.67	0.776	1	incongruent	Block2	incongruent/STIM_022.jpg
1598.397	0.995	1	incongruent	Block2	incongruent/STIM_023.jpg
1602.511	0.635	1	incongruent	Block2	incongruent/STIM_023.jpg
1606.344	0.951	1	incongruent	Block2	incongruent/STIM_023.jpg
1609.895	0.714	1	incongruent	Block2	incongruent/STIM_023.jpg
1614.415	0.865	1	incongruent	Block2	incongruent/STIM_023.jpg
1618.156	0.712	1	incongruent	Block2	incongruent/STIM_024.jpg
1622.154	0.701	1	incongruent	Block2	incongruent/STIM_024.jpg
1626.667	0.553	1	incongruent	Block2	incongruent/STIM_024.jpg
1631.032	0.748	1	incongruent	Block2	incongruent/STIM_024.jpg
1634.512	0.678	1	incongruent	Block2	incongruent/STIM_024.jpg
1637.728	0.952	1	incongruent	Block2	incongruent/STIM_025.jpg
1642.492	0.968	1	incongruent	Block2	incongruent/STIM_025.jpg
1647.008	0.669	1	incongruent	Block2	incongruent/STIM_025.jpg
1650.117	0.99	1	incongruent	Block2	incongruent/STIM_025.jpg
1654.382	0.489	1	incongruent	Block2	incongruent/STIM_025.jpg
1658.459	0.787	1	incongruent	Block2	incongruent/STIM_026.jpg
1662.942	0.838	1	incongruent	Block2	incongruent/STIM_026.jpg
1666.167	0.798	1	incongruent	Block2	incongruent/STIM_026.jpg
1669.436	0.659	1	incongruent	Block2	incongruent/STIM_026.jpg
1673.673	0.527	1	incongruent	Block2	incongruent/STIM_026.jpg
1676.407	0.872	1	incongruent	Block2	incongruent/STIM_027.jpg
1680.292	0.79	1	incongruent	Block2	incongruent/STIM_027.jpg
1684.916	0.637	1	incongruent	Block2	incongruent/STIM_027.jpg
1688.524	0.818	1	incongruent	Block2	incongruent/STIM_027.jpg
1691.683	0.842	1	incongruent	Block2	incongruent/STIM_027.jpg
1696.044	0.886	1	incongruent	Block2	incongruent/STIM_028.jpg
1699.657	0.944	1	incongruent	Block2	incongruent/STIM_028.jpg
1703.442	0.828	1	incongruent	Block2	incongruent/STIM_028.jpg
1707.865	0.901	1	incongruent	Block2	incongruent/STIM_028.jpg
1711.874	0.754	1	incongruent	Block2	incongruent/STIM_028.jpg
1716.037	0.71	1	incongruent	Block2	incongruent/STIM_029.jpg
1719.668	0.914	1	incongruent	Block2	incongruent/STIM_029.jpg
1723.567	0.685	1	incongruent	Block2	incongruent/STIM_029.jpg
1726.954	0.837	1	incongruent	Block2	incongruent/STIM_029.jpg
1731.578	0.734	1	incongruent	Block2	incongruent/STIM_029.jpg
1735.387	0.837	1	congruent	Block2	congruent/STIM_000.jpg
1740.098	0.584	1	congruent	Block2	congruent/STIM_000.jpg
1742.937	0.724	1	congruent	Block2	congruent/STIM_000.jpg
1747.321	0.66	1	congruent	Block2	congruent/STIM_000.jpg
1751.531	0.543	1	congruent	Block2	congruent/STIM_000.jpg
1754.704	0.671	1	congruent	Block2	congruent/STIM_001.jpg
1759.208	0.849	1	congruent	Block2	congruent/STIM_001.jpg
1762.687	0.514	1	congruent	Block2	congruent/STIM_001.jpg
1765.606	0.808	1	congruent	Block2	congruent/STIM_001.jpg
1769.784	0.633	1	congruent	Block2	congruent/STIM_001.jpg
1772.732	0.546	1	congruent	Block2	congruent/STIM_002.jpg
1775.56	0.53	1	congruent	Block2	congruent/STIM_002.jpg
1779.863	0.671	1	congruent	Block2	congruent/STIM_002.jpg
1784.189	0.65	1	congruent	Block2	congruent/STIM_002.jpg
1788.746	0.604	1	congruent	Block2	congruent/STIM_002.jpg
1792.459	0.784	1	congruent	Block2	congruent/STIM_003.jpg
1795.842	0.713	1	congruent	Block2	congruent/STIM_003.jpg
1800.146	0.561	1	congruent	Block2	congruent/STIM_003.jpg
1803.597	0.488	1	congruent	Block2	congruent/STIM_003.jpg
1807.219	0.843	1	congruent	Block2	congruent/STIM_003.jpg
1810.384	0.871	1	congruent	Block2	congruent/STIM_004.jpg
1815.122	0.628	1	congruent	Block2	congruent/STIM_004.jpg
1818.376	0.674	1	congruent	Block2	congruent/STIM_004.jpg
1822.471	0.648	1	congruent	Block2	congruent/STIM_004.jpg
1826.298	0.651	1	congruent	Block2	congruent/STIM_004.jpg
1830.908	0.761	1	congruent	Block2	congruent/STIM_005.jpg
1833.687	0.808	1	congruent	Block2	congruent/STIM_005.jpg
1837.039	0.507	1	congruent	Block2	congruent/STIM_005.jpg
1840.798	0.702	1	congruent	Block2	congruent/STIM_005.jpg
1844.296	0.594	1	congruent	Block2	congruent/STIM_005.jpg
1848.516	0.71	1	congruent	Block2	congruent/STIM_006.jpg
1852.888	0.548	1	congruent	Block2	congruent/STIM_006.jpg
1856.805	0.522	1	congruent	Block2	congruent/STIM_006.jpg
1860.613	0.768	1	congruent	Block2	congruent/STIM_006.jpg
1864.303	0.7	1	congruent	Block2	congruent/STIM_006.jpg
1867.339	0.546	1	congruent	Block2	congruent/STIM_007.jpg
1871.721	0.859	1	congruent	Block2	congruent/STIM_007.jpg
1875.198	0.73	1	congruent	Block2	congruent/STIM_007.jpg
1879.463	0.586	1	congruent	Block2	congruent/STIM_007.jpg
1882.782	0.666	1	congruent	Block2	congruent/STIM_007.jpg
1886.869	0.562	1	congruent	Block2	congruent/STIM_008.jpg
1890.019	0.792	1	congruent	Block2	congruent/STIM_008.jpg
1894.363	0.745	1	congruent	Block2	congruent/STIM_008.jpg
1897.854	0.823	1	congruent	Block2	congruent/STIM_008.jpg
1901.746	0.66	1	congruent	Block2	congruent/STIM_008.jpg
1905.769	0.725	1	congruent	Block2	congruent/STIM_009.jpg
1909.188	0.595	1	congruent	Block2	congruent/STIM_009.jpg
1912.705	0.491	1	congruent	Block2	congruent/STIM_009.jpg
1916.59	0.681	1	congruent	Block2	congruent/STIM_009.jpg
1919.547	0.675	1	congruent	Block2	congruent/STIM_009.jpg
1923.058	0.77	1	congruent	Block2	congruent/STIM_010.jpg
1927.584	0.432	1	congruent	Block2	congruent/STIM_010.jpg
1930.37	0.499	1	congruent	Block2	congruent/STIM_010.jpg
1934.932	0.516	1	congruent	Block2	congruent/STIM_010.jpg
1939.117	0.838	1	congruent	Block2	congruent/STIM_010.jpg
1942.199	0.668	1	congruent	Block2	congruent/STIM_011.jpg
1946.359	0.678	0	congruent	Block2	congruent/STIM_011.jpg
1949.096	0.452	1	congruent	Block2	congruent/STIM_011.jpg
1952.376	0.617	1	congruent	Block2	congruent/STIM_011.jpg
1956.342	0.841	1	congruent	Block2	congruent/STIM_011.jpg
1961.22	0.767	1	congruent	Block2	congruent/STIM_012.jpg
1964.492	0.722	1	congruent	Block2	congruent/STIM_012.jpg
1968.922	0.381	1	congruent	Block2	congruent/STIM_012.jpg
1972.281	0.465	1	congruent	Block2	congruent/STIM_012.jpg
1975.541	0.608	1	congruent	Block2	congruent/STIM_012.jpg
1979.06	0.782	1	congruent	Block2	congruent/STIM_013.jpg
1983.634	0.791	1	congruent	Block2	congruent/STIM_013.jpg
1986.515	0.583	1	congruent	Block2	congruent/STIM_013.jpg
1989.74	0.537	1	congruent	Block2	congruent/STIM_013.jpg
1993.485	0.623	1	congruent	Block2	congruent/STIM_013.jpg
1998.044	0.634	1	congruent	Block2	congruent/STIM_014.jpg
2002.431	0.7	1	congruent	Block2	congruent/STIM_014.jpg
2006.481	0.64	1	congruent	Block2	congruent/STIM_014.jpg
2009.512	0.57	1	congruent	Block2	congruent/STIM_014.jpg
2013.329	0.755	1	congruent	Block2	congruent/STIM_014.jpg
2016.875	0.526	1	congruent	Block2	congruent/STIM_015.jpg
2020.281	0.748	1	congruent	Block2	congruent/STIM_015.jpg
2024.109	0.506	1	congruent	Block2	congruent/STIM_015.jpg
2027.929	0.468	1	congruent	Block2	congruent/STIM_015.jpg
2031.216	0.71	1	congruent	Block2	congruent/STIM_015.jpg
2034.437	0.535	1	congruent	Block2	congruent/STIM_016.jpg
2037.793	0.8	1	congruent	Block2	congruent/STIM_016.jpg
2042.402	0.517	1	congruent	Block2	congruent/STIM_016.jpg
2045.661	0.766	1	congruent	Block2	congruent/STIM_016.jpg
2050.235	0.573	1	congruent	Block2	congruent/STIM_016.jpg
2053.669	0.911	1	congruent	Block2	congruent/STIM_017.jpg
2056.881	0.636	1	congruent	Block2	congruent/STIM_017.jpg
2060.951	0.798	1	congruent	Block2	congruent/STIM_017.jpg
2064.575	0.443	1	congruent	Block2	congruent/STIM_017.jpg
2068.402	0.562	1	congruent	Block2	congruent/STIM_017.jpg
2071.088	0.558	1	congruent	Block2	congruent/STIM_018.jpg
2073.836	0.717	1	congruent	Block2	congruent/STIM_018.jpg
2077.399	0.698	0	congruent	Block2	congruent/STIM_018.jpg
2080.897	0.618	1	congruent	Block2	congruent/STIM_018.jpg
2083.726	0.799	1	congruent	Block2	congruent/STIM_018.jpg
2087.679	0.675	1	congruent	Block2	congruent/STIM_019.jpg
2091.337	0.778	1	congruent	Block2	congruent/STIM_019.jpg
2094.506	0.697	1	congruent	Block2	congruent/STIM_019.jpg
2098.674	0.576	1	congruent	Block2	congruent/STIM_019.jpg
2102.546	0.636	1	congruent	Block2	congruent/STIM_019.jpg
2105.326	0.712	1	congruent	Block2	congruent/STIM_020.jpg
2108.589	0.632	1	congruent	Block2	congruent/STIM_020.jpg
2112.439	0.38	1	congruent	Block2	congruent/STIM_020.jpg
2115.256	0.606	1	congruent	Block2	congruent/STIM_020.jpg
2119.769	0.766	1	congruent	Block2	congruent/STIM_020.jpg
2123.247	0.591	1	congruent	Block2	congruent/STIM_021.jpg
2126.569	0.698	1	congruent	Block2	congruent/STIM_021.jpg
2130.758	0.522	1	congruent	Block2	congruent/STIM_021.jpg
2134.536	0.714	1	congruent	Block2	congruent/STIM_021.jpg
2137.552	0.554	1	congruent	Block2	congruent/STIM_021.jpg
2140.567	0.605	1	congruent	Block2	congruent/STIM_022.jpg
2144.661	0.771	1	congruent	Block2	congruent/STIM_022.jpg
2148.456	0.779	1	congruent	Block2	congruent/STIM_022.jpg
2152.302	0.696	1	congruent	Block2	congruent/STIM_022.jpg
2156.528	0.73	1	congruent	Block2	congruent/STIM_022.jpg
2159.926	0.889	1	congruent	Block2	congruent/STIM_023.jpg
2164.017	0.675	1	congruent	Block2	congruent/STIM_023.jpg
2167.748	0.455	1	congruent	Block2	congruent/STIM_023.jpg
2171.628	0.754	1	congruent	Block2	congruent/STIM_023.jpg
2175.348	0.673	1	congruent	Block2	congruent/STIM_023.jpg
2179.525	0.504	1	congruent	Block2	congruent/STIM_024.jpg
2183.756	0.529	1	congruent	Block2	congruent/STIM_024.jpg
2187.777	0.701	1	congruent	Block2	congruent/STIM_024.jpg
2191.958	0.407	1	congruent	Block2	congruent/STIM_024.jpg
2194.565	0.536	1	congruent	Block2	congruent/STIM_024.jpg
2197.469	0.574	1	congruent	Block2	congruent/STIM_025.jpg
2200.161	0.663	1	congruent	Block2	congruent/STIM_025.jpg
2203.326	0.643	1	congruent	Block2	congruent/STIM_025.jpg
2207.123	0.622	1	congruent	Block2	congruent/STIM_025.jpg
2209.819	0.534	1	congruent	Block2	congruent/STIM_025.jpg
2213.482	0.533	1	congruent	Block2	congruent/STIM_026.jpg
2216.335	0.644	1	congruent	Block2	congruent/STIM_026.jpg
2219.396	0.592	1	congruent	Block2	congruent/STIM_026.jpg
2222.111	0.561	1	congruent	Block2	congruent/STIM_026.jpg
2226.495	0.749	1	congruent	Block2	congruent/STIM_026.jpg
2231.305	0.549	1	congruent	Block2	congruent/STIM_027.jpg
2235.016	0.559	1	congruent	Block2	congruent/STIM_027.jpg
2239.182	0.672	1	congruent	Block2	congruent/STIM_027.jpg
2243.019	0.643	1	congruent	Block2	congruent/STIM_027.jpg
2247.551	0.639	1	congruent	Block2	congruent/STIM_027.jpg
2251.351	0.782	1	congruent	Block2	congruent/STIM_028.jpg
2254.333	0.528	1	congruent	Block2	congruent/STIM_028.jpg
2257.026	0.78	1	congruent	Block2	congruent/STIM_028.jpg
2260.144	0.73	1	congruent	Block2	congruent/STIM_028.jpg
2263.718	0.537	1	congruent	Block2	congruent/STIM_028.jpg
2267.131	0.445	1	congruent	Block2	congruent/STIM_029.jpg
2270.845	0.596	1	congruent	Block2	congruent/STIM_029.jpg
2274.451	0.555	1	congruent	Block2	congruent/STIM_029.jpg
2278.8	0.398	1	congruent	Block2	congruent/STIM_029.jpg
2283.308	0.621	1	congruent	Block2	congruent/STIM_029.jpg
2286.353	0.839	1	incongruent	Block3	incongruent/STIM_000.jpg
2291.165	0.485	1	incongruent	Block3	incongruent/STIM_000.jpg
2295.072	0.854	1	incongruent	Block3	incongruent/STIM_000.jpg
2299.439	0.426	1	incongruent	Block3	incongruent/STIM_000.jpg
2303.797	0.708	1	incongruent	Block3	incongruent/STIM_000.jpg
2308.179	0.582	1	incongruent	Block3	incongruent/STIM_001.jpg
2311.904	0.544	1	incongruent	Block3	incongruent/STIM_001.jpg
2314.83	0.917	1	incongruent	Block3	incongruent/STIM_001.jpg
2318.146	0.637	1	incongruent	Block3	incongruent/STIM_001.jpg
2322.644	0.801	1	incongruent	Block3	incongruent/STIM_001.jpg
2325.751	0.444	1	incongruent	Block3	incongruent/STIM_002.jpg
2329.259	0.56	1	incongruent	Block3	incongruent/STIM_002.jpg
2332.236	0.74	1	incongruent	Block3	incongruent/STIM_002.jpg
2336.025	0.561	1	incongruent	Block3	incongruent/STIM_002.jpg
2338.812	0.883	1	incongruent	Block3	incongruent/STIM_002.jpg
2342.351	0.823	1	incongruent	Block3	incongruent/STIM_003.jpg
2346.28	0.505	1	incongruent	Block3	incongruent/STIM_003.jpg
2350.334	0.509	1	incongruent	Block3	incongruent/STIM_003.jpg
2354.295	0.643	1	incongruent	Block3	incongruent/STIM_003.jpg
2357.428	0.818	1	incongruent	Block3	incongruent/STIM_003.jpg
2361.783	0.539	1	incongruent	Block3	incongruent/STIM_004.jpg
2365.141	0.798	1	incongruent	Block3	incongruent/STIM_004.jpg
2369.459	0.533	1	incongruent	Block3	incongruent/STIM_004.jpg
2373.003	1.005	1	incongruent	Block3	incongruent/STIM_004.jpg
2377.574	0.504	1	incongruent	Block3	incongruent/STIM_004.jpg
2381.05	0.777	1	incongruent	Block3	incongruent/STIM_005.jpg
2385.68	0.564	1	incongruent	Block3	incongruent/STIM_005.jpg
2389.055	0.673	1	incongruent	Block3	incongruent/STIM_005.jpg
2393.337	0.772	1	incongruent	Block3	incongruent/STIM_005.jpg
2396.381	0.944	1	incongruent	Block3	incongruent/STIM_005.jpg
2400.055	0.823	1	incongruent	Block3	incongruent/STIM_006.jpg
2403.935	0.878	1	incongruent	Block3	incongruent/STIM_006.jpg
2407.605	0.754	1	incongruent	Block3	incongruent/STIM_006.jpg
2411.847	1.011	1	incongruent	Block3	incongruent/STIM_006.jpg
2416.439	0.613	1	incongruent	Block3	incongruent/STIM_006.jpg
2420.695	0.648	1	incongruent	Block3	incongruent/STIM_007.jpg
2424.22	0.75	1	incongruent	Block3	incongruent/STIM_007.jpg
2427.756	1.037	1	incongruent	Block3	incongruent/STIM_007.jpg
2431.184	0.657	0	incongruent	Block3	incongruent/STIM_007.jpg
2434.036	0.516	1	incongruent	Block3	incongruent/STIM_007.jpg
2437.96	0.781	1	incongruent	Block3	incongruent/STIM_008.jpg
2442.621	0.556	1	incongruent	Block3	incongruent/STIM_008.jpg
2446.515	0.774	1	incongruent	Block3	incongruent/STIM_008.jpg
2450.46	0.693	1	incongruent	Block3	incongruent/STIM_008.jpg
2454.763	0.714	1	incongruent	Block3	incongruent/STIM_008.jpg
2458.104	0.683	1	incongruent	Block3	incongruent/STIM_009.jpg
2461.506	0.958	1	incongruent	Block3	incongruent/STIM_009.jpg
2464.86	0.525	1	incongruent	Block3	incongruent/STIM_009.jpg
2469.224	0.66	1	incongruent	Block3	incongruent/STIM_009.jpg
2472.486	0.756	1	incongruent	Block3	incongruent/STIM_009.jpg
2476.391	0.794	1	incongruent	Block3	incongruent/STIM_010.jpg
2480.962	0.573	1	incongruent	Block3	incongruent/STIM_010.jpg
2484.071	0.826	1	incongruent	Block3	incongruent/STIM_010.jpg
2487.742	0.472	1	incongruent	Block3	incongruent/STIM_010.jpg
2491.017	0.937	1	incongruent	Block3	incongruent/STIM_010.jpg
2494.343	0.876	1	incongruent	Block3	incongruent/STIM_011.jpg
2498.041	0.672	1	incongruent	Block3	incongruent/STIM_011.jpg
2500.806	0.606	1	incongruent	Block3	incongruent/STIM_011.jpg
2505.364	0.94	1	incongruent	Block3	incongruent/STIM_011.jpg
2508.452	0.804	1	incongruent	Block3	incongruent/STIM_011.jpg
2512.887	0.518	1	incongruent	Block3	incongruent/STIM_012.jpg
2515.597	0.878	1	incongruent	Block3	incongruent/STIM_012.jpg
2518.889	0.767	1	incongruent	Block3	incongruent/STIM_012.jpg
2523.577	0.462	1	incongruent	Block3	incongruent/STIM_012.jpg
2527.72	0.547	1	incongruent	Block3	incongruent/STIM_012.jpg
2531.521	0.73	1	incongruent	Block3	incongruent/STIM_013.jpg
2535.958	0.776	1	incongruent	Block3	incongruent/STIM_013.jpg
2540.292	0.554	1	incongruent	Block3	incongruent/STIM_013.jpg
2543.316	0.707	1	incongruent	Block3	incongruent/STIM_013.jpg
2547.49	0.914	1	incongruent	Block3	incongruent/STIM_013.jpg
2552.031	0.857	1	incongruent	Block3	incongruent/STIM_014.jpg
2556.453	1.004	1	incongruent	Block3	incongruent/STIM_014.jpg
2560.664	0.887	1	incongruent	Block3	incongruent/STIM_014.jpg
2563.821	0.882	1	incongruent	Block3	incongruent/STIM_014.jpg
2568.672	0.663	1	incongruent	Block3	incongruent/STIM_014.jpg
2572.855	0.651	1	incongruent	Block3	incongruent/STIM_015.jpg
2576.764	0.732	1	incongruent	Block3	incongruent/STIM_015.jpg
2580.114	0.766	1	incongruent	Block3	incongruent/STIM_015.jpg
2584.692	0.423	1	incongruent	Block3	incongruent/STIM_015.jpg
2588.138	0.572	1	incongruent	Block3	incongruent/STIM_015.jpg
2591.121	0.66	1	incongruent	Block3	incongruent/STIM_016.jpg
2594.322	0.8	1	incongruent	Block3	incongruent/STIM_016.jpg
2597.332	0.602	1	incongruent	Block3	incongruent/STIM_016.jpg
2599.934	0.632	1	incongruent	Block3	incongruent/STIM_016.jpg
2603.362	0.578	0	incongruent	Block3	incongruent/STIM_016.jpg
2606.689	0.896	1	incongruent	Block3	incongruent/STIM_017.jpg
2610.885	0.709	1	incongruent	Block3	incongruent/STIM_017.jpg
2613.919	0.941	1	incongruent	Block3	incongruent/STIM_017.jpg
2618.18	0.592	1	incongruent	Block3	incongruent/STIM_017.jpg
2622.302	0.706	1	incongruent	Block3	incongruent/STIM_017.jpg
2625.339	0.71	1	incongruent	Block3	incongruent/STIM_018.jpg
2628.866	0.469	1	incongruent	Block3	incongruent/STIM_018.jpg
2632.785	0.864	1	incongruent	Block3	incongruent/STIM_018.jpg
2637.582	0.77	1	incongruent	Block3	incongruent/STIM_018.jpg
2642.235	0.75	1	incongruent	Block3	incongruent/STIM_018.jpg
2646.88	0.747	1	incongruent	Block3	incongruent/STIM_019.jpg
2651.61	0.572	1	incongruent	Block3	incongruent/STIM_019.jpg
2655.509	0.76	1	incongruent	Block3	incongruent/STIM_019.jpg
2659.353	0.592	1	incongruent	Block3	incongruent/STIM_019.jpg
2663.333	0.575	1	incongruent	Block3	incongruent/STIM_019.jpg
2666.325	1.031	1	incongruent	Block3	incongruent/STIM_020.jpg
2670.132	0.502	1	incongruent	Block3	incongruent/STIM_020.jpg
2673.655	0.456	1	incongruent	Block3	incongruent/STIM_020.jpg
2677.52	0.6	1	incongruent	Block3	incongruent/STIM_020.jpg
2680.897	0.702	1	incongruent	Block3	incongruent/STIM_020.jpg
2684.441	0.71	1	incongruent	Block3	incongruent/STIM_021.jpg
2688.061	0.879	0	incongruent	Block3	incongruent/STIM_021.jpg
2691.748	0.848	1	incongruent	Block3	incongruent/STIM_021.jpg
2695.867	0.782	1	incongruent	Block3	incongruent/STIM_021.jpg
2699.41	0.419	1	incongruent	Block3	incongruent/STIM_021.jpg
2702.502	0.692	1	incongruent	Block3	incongruent/STIM_022.jpg
2705.935	0.681	1	incongruent	Block3	incongruent/STIM_022.jpg
2710.091	0.834	1	incongruent	Block3	incongruent/STIM_022.jpg
2713.553	0.82	1	incongruent	Block3	incongruent/STIM_022.jpg
2716.691	0.912	1	incongruent	Block3	incongruent/STIM_022.jpg
2721.088	0.783	0	incongruent	Block3	incongruent/STIM_023.jpg
2724.743	0.538	1	incongruent	Block3	incongruent/STIM_023.jpg
2727.755	0.56	1	incongruent	Block3	incongruent/STIM_023.jpg
2731.313	0.743	1	incongruent	Block3	incongruent/STIM_023.jpg
2734.665	0.558	1	incongruent	Block3	incongruent/STIM_023.jpg
2738.692	0.969	1	incongruent	Block3	incongruent/STIM_024.jpg
2742.698	0.811	1	incongruent	Block3	incongruent/STIM_024.jpg
2746.704	0.968	1	incongruent	Block3	incongruent/STIM_024.jpg
2751.689	0.752	1	incongruent	Block3	incongruent/STIM_024.jpg
2755.089	0.756	1	incongruent	Block3	incongruent/STIM_024.jpg
2758.256	0.58	1	incongruent	Block3	incongruent/STIM_025.jpg
2761.844	0.759	1	incongruent	Block3	incongruent/STIM_025.jpg
2765.367	0.776	1	incongruent	Block3	incongruent/STIM_025.jpg
2769.711	0.74	1	incongruent	Block3	incongruent/STIM_025.jpg
2772.94	0.737	1	incongruent	Block3	incongruent/STIM_025.jpg
2776.794	0.639	1	incongruent	Block3	incongruent/STIM_026.jpg
2779.483	0.554	1	incongruent	Block3	incongruent/STIM_026.jpg
2782.824	0.957	1	incongruent	Block3	incongruent/STIM_026.jpg
2786.066	0.597	1	incongruent	Block3	incongruent/STIM_026.jpg
2790.64	0.863	1	incongruent	Block3	incongruent/STIM_026.jpg
2795.217	0.795	1	incongruent	Block3	incongruent/STIM_027.jpg
2798.535	0.946	1	incongruent	Block3	incongruent/STIM_027.jpg
2803.163	0.967	1	incongruent	Block3	incongruent/STIM_027.jpg
2806.787	0.686	1	incongruent	Block3	incongruent/STIM_027.jpg
2810.162	0.917	1	incongruent	Block3	incongruent/STIM_027.jpg
2813.732	0.579	1	incongruent	Block3	incongruent/STIM_028.jpg
2817.745	0.807	1	incongruent	Block3	incongruent/STIM_028.jpg
2821.473	0.465	1	incongruent	Block3	incongruent/STIM_028.jpg
2825.859	0.556	1	incongruent	Block3	incongruent/STIM_028.jpg
2829.427	0.606	1	incongruent	Block3	incongruent/STIM_028.jpg
2832.883	0.887	1	incongruent	Block3	incongruent/STIM_029.jpg
2837.566	0.963	1	incongruent	Block3	incongruent/STIM_029.jpg
2841.948	0.57	1	incongruent	Block3	incongruent/STIM_029.jpg
2845.91	0.59	1	incongruent	Block3	incongruent/STIM_029.jpg
2850.201	0.66	1	incongruent	Block3	incongruent/STIM_029.jpg
2854.281	0.611	0	congruent	Block3	congruent/STIM_000.jpg
2858.593	0.626	1	congruent	Block3	congruent/STIM_000.jpg
2862.768	0.812	0	congruent	Block3	congruent/STIM_000.jpg
2867.54	0.77	1	congruent	Block3	congruent/STIM_000.jpg
2871.091	0.758	1	congruent	Block3	congruent/STIM_000.jpg
2874.722	0.642	1	congruent	Block3	congruent/STIM_001.jpg
2879.439	0.774	1	congruent	Block3	congruent/STIM_001.jpg
2882.66	0.67	1	congruent	Block3	congruent/STIM_001.jpg
2887.204	0.7	1	congruent	Block3	congruent/STIM_001.jpg
2891.851	0.718	1	congruent	Block3	congruent/STIM_001.jpg
2895.422	0.792	1	congruent	Block3	congruent/STIM_002.jpg
2899.179	0.717	1	congruent	Block3	congruent/STIM_002.jpg
2902.747	0.562	1	congruent	Block3	congruent/STIM_002.jpg
2906.063	0.732	1	congruent	Block3	congruent/STIM_002.jpg
2909.574	0.625	1	congruent	Block3	congruent/STIM_002.jpg
2913.906	0.755	1	congruent	Block3	congruent/STIM_003.jpg
2916.93	0.83	1	congruent	Block3	congruent/STIM_003.jpg
2921.525	0.424	1	congruent	Block3	congruent/STIM_003.jpg
2924.407	0.645	1	congruent	Block3	congruent/STIM_003.jpg
2927.862	0.75	1	congruent	Block3	congruent/STIM_003.jpg
2931.355	0.689	1	congruent	Block3	congruent/STIM_004.jpg
2934.43	0.857	1	congruent	Block3	congruent/STIM_004.jpg
2938.327	0.675	1	congruent	Block3	congruent/STIM_004.jpg
2942.6	0.457	1	congruent	Block3	congruent/STIM_004.jpg
2946.805	0.468	1	congruent	Block3	congruent/STIM_004.jpg
2951.174	0.642	1	congruent	Block3	congruent/STIM_005.jpg
2955.758	0.6	1	congruent	Block3	congruent/STIM_005.jpg
2959.863	0.659	1	congruent	Block3	congruent/STIM_005.jpg
2963.853	0.503	1	congruent	Block3	congruent/STIM_005.jpg
2968.152	0.514	1	congruent	Block3	congruent/STIM_005.jpg
2972.743	0.746	1	congruent	Block3	congruent/STIM_006.jpg
2976.976	0.578	1	congruent	Block3	congruent/STIM_006.jpg
2980.87	0.727	1	congruent	Block3	congruent/STIM_006.jpg
2985.299	0.814	1	congruent	Block3	congruent/STIM_006.jpg
2989.377	0.782	1	congruent	Block3	congruent/STIM_006.jpg
2993.69	0.725	1	congruent	Block3	congruent/STIM_007.jpg
2997.513	0.689	1	congruent	Block3	congruent/STIM_007.jpg
3002.152	0.86	1	congruent	Block3	congruent/STIM_007.jpg
3005.498	0.718	1	congruent	Block3	congruent/STIM_007.jpg
3008.373	0.778	1	congruent	Block3	congruent/STIM_007.jpg
3011.603	0.517	1	congruent	Block3	congruent/STIM_008.jpg
3016.075	0.635	1	congruent	Block3	congruent/STIM_008.jpg
3019.677	0.796	1	congruent	Block3	congruent/STIM_008.jpg
3022.841	0.625	0	congruent	Block3	congruent/STIM_008.jpg
3026.464	0.467	1	congruent	Block3	congruent/STIM_008.jpg
3030.229	0.593	1	congruent	Block3	congruent/STIM_009.jpg
3034.258	0.684	1	congruent	Block3	congruent/STIM_009.jpg
3036.936	0.669	1	congruent	Block3	congruent/STIM_009.jpg
3040.344	0.489	1	congruent	Block3	congruent/STIM_009.jpg
3043.421	0.626	1	congruent	Block3	congruent/STIM_009.jpg
3046.86	0.86	1	congruent	Block3	congruent/STIM_010.jpg
3050.12	0.803	1	congruent	Block3	congruent/STIM_010.jpg
3054.239	0.726	1	congruent	Block3	congruent/STIM_010.jpg
3058.342	0.475	1	congruent	Block3	congruent/STIM_010.jpg
3061.799	0.674	1	congruent	Block3	congruent/STIM_010.jpg
3065.611	0.561	1	congruent	Block3	congruent/STIM_011.jpg
3069.931	0.475	1	congruent	Block3	congruent/STIM_011.jpg
3073.335	0.583	1	congruent	Block3	congruent/STIM_011.jpg
3077.133	0.809	1	congruent	Block3	congruent/STIM_011.jpg
3082.028	0.384	1	congruent	Block3	congruent/STIM_011.jpg
3084.841	0.542	1	congruent	Block3	congruent/STIM_012.jpg
3089.195	0.502	1	congruent	Block3	congruent/STIM_012.jpg
3093.463	0.719	1	congruent	Block3	congruent/STIM_012.jpg
3097.916	0.681	1	congruent	Block3	congruent/STIM_012.jpg
3102.592	0.755	1	congruent	Block3	congruent/STIM_012.jpg
3106.474	0.745	1	congruent	Block3	congruent/STIM_013.jpg
3110.93	0.663	1	congruent	Block3	congruent/STIM_013.jpg
3114.083	0.666	1	congruent	Block3	congruent/STIM_013.jpg
3117.574	0.733	1	congruent	Block3	congruent/STIM_013.jpg
3121.702	0.645	1	congruent	Block3	congruent/STIM_013.jpg
3125.7	0.774	1	congruent	Block3	congruent/STIM_014.jpg
3129.931	0.744	1	congruent	Block3	congruent/STIM_014.jpg
3134.361	0.823	1	congruent	Block3	congruent/STIM_014.jpg
3137.281	0.591	1	congruent	Block3	congruent/STIM_014.jpg
3140.205	0.812	1	congruent	Block3	congruent/STIM_014.jpg
3144.537	0.536	1	congruent	Block3	congruent/STIM_015.jpg
3147.975	0.623	1	congruent	Block3	congruent/STIM_015.jpg
3152.175	0.629	1	congruent	Block3	congruent/STIM_015.jpg
3155.204	0.704	1	congruent	Block3	congruent/STIM_015.jpg
3159.227	0.75	1	congruent	Block3	congruent/STIM_015.jpg
3163.114	0.614	1	congruent	Block3	congruent/STIM_016.jpg
3167.649	0.816	0	congruent	Block3	congruent/STIM_016.jpg
3172.164	0.837	1	congruent	Block3	congruent/STIM_016.jpg
3176.84	0.516	1	congruent	Block3	congruent/STIM_016.jpg
3179.616	0.684	1	congruent	Block3	congruent/STIM_016.jpg
3184.055	0.604	1	congruent	Block3	congruent/STIM_017.jpg
3187.161	0.791	1	congruent	Block3	congruent/STIM_017.jpg
3190.145	0.54	1	congruent	Block3	congruent/STIM_017.jpg
3193.942	0.778	1	congruent	Block3	congruent/STIM_017.jpg
3197.897	0.692	1	congruent	Block3	congruent/STIM_017.jpg
3201.696	0.59	1	congruent	Block3	congruent/STIM_018.jpg
3205.202	0.933	1	congruent	Block3	congruent/STIM_018.jpg
3208.416	0.541	1	congruent	Block3	congruent/STIM_018.jpg
3211.924	0.684	1	congruent	Block3	congruent/STIM_018.jpg
3215.439	0.445	1	congruent	Block3	congruent/STIM_018.jpg
3219.046	0.618	1	congruent	Block3	congruent/STIM_019.jpg
3222.726	0.729	1	congruent	Block3	congruent/STIM_019.jpg
3225.863	0.724	1	congruent	Block3	congruent/STIM_019.jpg
3230.544	0.596	1	congruent	Block3	congruent/STIM_019.jpg
3235.041	0.884	1	congruent	Block3	congruent/STIM_019.jpg
3238.025	0.79	1	congruent	Block3	congruent/STIM_020.jpg
3241.7	0.826	1	congruent	Block3	congruent/STIM_020.jpg
3244.862	0.443	1	congruent	Block3	congruent/STIM_020.jpg
3248.159	0.522	1	congruent	Block3	congruent/STIM_020.jpg
3250.835	0.617	1	congruent	Block3	congruent/STIM_020.jpg
3254.572	0.685	1	congruent	Block3	congruent/STIM_021.jpg
3259.231	0.809	1	congruent	Block3	congruent/STIM_021.jpg
3263.316	0.717	1	congruent	Block3	congruent/STIM_021.jpg
3267.843	0.611	1	congruent	Block3	congruent/STIM_021.jpg
3271.772	0.702	1	congruent	Block3	congruent/STIM_021.jpg
3275.172	0.567	1	congruent	Block3	congruent/STIM_022.jpg
3278.26	0.77	1	congruent	Block3	congruent/STIM_022.jpg
3281.126	0.738	1	congruent	Block3	congruent/STIM_022.jpg
3284.95	0.771	1	congruent	Block3	congruent/STIM_022.jpg
3288.195	0.451	1	congruent	Block3	congruent/STIM_022.jpg
3290.855	0.526	1	congruent	Block3	congruent/STIM_023.jpg
3293.919	0.614	1	congruent	Block3	congruent/STIM_023.jpg
3298.29	0.661	1	congruent	Block3	congruent/STIM_023.jpg
3301.598	0.671	1	congruent	Block3	congruent/STIM_023.jpg
3305.926	0.605	1	congruent	Block3	congruent/STIM_023.jpg
3309.011	0.454	1	congruent	Block3	congruent/STIM_024.jpg
3312.019	0.578	1	congruent	Block3	congruent/STIM_024.jpg
3315.405	0.496	1	congruent	Block3	congruent/STIM_024.jpg
3319.495	0.536	1	congruent	Block3	congruent/STIM_024.jpg
3322.859	0.713	1	congruent	Block3	congruent/STIM_024.jpg
3326.096	0.819	1	congruent	Block3	congruent/STIM_025.jpg
3328.97	0.782	1	congruent	Block3	congruent/STIM_025.jpg
3332.194	0.52	1	congruent	Block3	congruent/STIM_025.jpg
3336.802	0.742	1	congruent	Block3	congruent/STIM_025.jpg
3339.621	0.542	1	congruent	Block3	congruent/STIM_025.jpg
3343.292	0.816	1	congruent	Block3	congruent/STIM_026.jpg
3346.792	0.397	1	congruent	Block3	congruent/STIM_026.jpg
3350.851	0.656	1	congruent	Block3	congruent/STIM_026.jpg
3355.303	0.71	1	congruent	Block3	congruent/STIM_026.jpg
3358.282	0.816	1	congruent	Block3	congruent/STIM_026.jpg
3361.459	0.897	1	congruent	Block3	congruent/STIM_027.jpg
3365.485	0.592	1	congruent	Block3	congruent/STIM_027.jpg
3368.747	0.814	1	congruent	Block3	congruent/STIM_027.jpg
3372.167	0.814	1	congruent	Block3	congruent/STIM_027.jpg
3375.96	0.478	1	congruent	Block3	congruent/STIM_027.jpg
3380.33	0.591	1	congruent	Block3	congruent/STIM_028.jpg
3383.474	0.716	1	congruent	Block3	congruent/STIM_028.jpg
3388.243	0.624	1	congruent	Block3	congruent/STIM_028.jpg
3392.137	0.802	1	congruent	Block3	congruent/STIM_028.jpg
3396.078	0.483	1	congruent	Block3	congruent/STIM_028.jpg
3399.866	0.609	1	congruent	Block3	congruent/STIM_029.jpg
3404.008	0.592	1	congruent	Block3	congruent/STIM_029.jpg
3407.504	0.715	1	congruent	Block3	congruent/STIM_029.jpg
3411.159	0.52	1	congruent	Block3	congruent/STIM_029.jpg
3413.82	0.658	1	congruent	Block3	congruent/STIM_029.jpg
