onset	duration	response_time_ms	trial_type	learning_stage	stimulus	response_port
0.0	1.451	1450.8	2back	Block1	2back/STIM_000.jpg	99
4.16	1.517	1516.8	2back	Block1	2back/STIM_000.jpg	99
8.454	0.727	727.1	2back	Block1	2back/STIM_000.jpg	99
11.898	1.603	1602.6	2back	Block1	2back/STIM_001.jpg	99
17.301	1.127	1127.1	2back	Block1	2back/STIM_001.jpg	100
21.446	0.894	893.9	2back	Block1	2back/STIM_001.jpg	99
25.502	1.349	1349.0	2back	Block1	2back/STIM_002.jpg	99
29.693	1.366	1365.5	2back	Block1	2back/STIM_002.jpg	100
33.226	0.913	912.6	2back	Block1	2back/STIM_002.jpg	99
37.59	1.163	1162.6	2back	Block1	2back/STIM_003.jpg	100
41.61	1.627	1627.3	2back	Block1	2back/STIM_003.jpg	99
47.163	1.084	1084.3	2back	Block1	2back/STIM_003.jpg	99
51.715	1.242	1242.5	2back	Block1	2back/STIM_004.jpg	100
56.39	0.99	990.1	2back	Block1	2back/STIM_004.jpg	100
60.634	0.769	769.1	2back	Block1	2back/STIM_004.jpg	100
63.567	1.275	1274.7	2back	Block1	2back/STIM_005.jpg	99
68.599	1.169	1168.8	2back	Block1	2back/STIM_005.jpg	99
72.543	1.339	1339.0	2back	Block1	2back/STIM_005.jpg	100
76.974	1.363	1362.8	2back	Block1	2back/STIM_006.jpg	100
80.831	1.491	1491.2	2back	Block1	2back/STIM_006.jpg	99
86.32	1.435	1435.3	2back	Block1	2back/STIM_006.jpg	99
91.54	1.717	1716.6	2back	Block1	2back/STIM_007.jpg	100
95.877	0.982	982.3	2back	Block1	2back/STIM_007.jpg	100
99.049	1.129	1128.6	2back	Block1	2back/STIM_007.jpg	99
102.629	1.079	1078.9	2back	Block1	2back/STIM_008.jpg	100
106.231	0.87	869.5	2back	Block1	2back/STIM_008.jpg	99
109.262	1.455	1455.1	2back	Block1	2back/STIM_008.jpg	99
114.224	1.457	1456.8	2back	Block1	2back/STIM_009.jpg	100
118.032	0.772	772.4	2back	Block1	2back/STIM_009.jpg	99
121.065	0.893	893.3	2back	Block1	2back/STIM_009.jpg	100
125.405	0.807	807.0	2back	Block1	2back/STIM_010.jpg	100
129.763	1.424	1423.9	2back	Block1	2back/STIM_010.jpg	99
133.55	1.156	1155.9	2back	Block1	2back/STIM_010.jpg	99
138.621	0.87	869.5	2back	Block1	2back/STIM_011.jpg	100
142.017	1.592	1592.4	2back	Block1	2back/STIM_011.jpg	99
146.968	0.74	739.5	2back	Block1	2back/STIM_011.jpg	99
151.28	1.066	1065.5	2back	Block1	2back/STIM_012.jpg	100
156.133	1.276	1275.6	2back	Block1	2back/STIM_012.jpg	99
159.661	1.101	1101.1	2back	Block1	2back/STIM_012.jpg	100
164.244	1.664	1663.6	2back	Block1	2back/STIM_013.jpg	100
169.413	1.458	1458.2	2back	Block1	2back/STIM_013.jpg	100
173.774	1.435	1435.1	2back	Block1	2back/STIM_013.jpg	99
178.991	0.901	900.9	2back	Block1	2back/STIM_014.jpg	99
183.233	0.798	797.6	2back	Block1	2back/STIM_014.jpg	100
188.006	1.369	1368.9	2back	Block1	2back/STIM_014.jpg	100
192.213	1.371	1371.1	2back	Block1	2back/STIM_015.jpg	100
197.034	1.176	1176.0	2back	Block1	2back/STIM_015.jpg	100
200.968	1.534	1534.0	2back	Block1	2back/STIM_015.jpg	99
205.908	1.507	1507.1	2back	Block1	2back/STIM_016.jpg	100
209.71	1.588	1587.8	2back	Block1	2back/STIM_016.jpg	99
214.594	1.259	1259.3	2back	Block1	2back/STIM_016.jpg	100
219.491	0.911	911.2	2back	Block1	2back/STIM_017.jpg	100
223.16	1.306	1305.6	2back	Block1	2back/STIM_017.jpg	99
227.585	0.84	840.1	2back	Block1	2back/STIM_017.jpg	100
231.849	1.474	1474.4	2back	Block1	2back/STIM_018.jpg	99
237.107	0.806	805.5	2back	Block1	2back/STIM_018.jpg	99
241.391	0.916	915.8	2back	Block1	2back/STIM_018.jpg	100
244.444	1.03	1030.0	2back	Block1	2back/STIM_019.jpg	100
248.753	0.868	868.4	2back	Block1	2back/STIM_019.jpg	99
252.104	0.847	847.2	2back	Block1	2back/STIM_019.jpg	99
255.904	1.68	1680.3	2back	Block1	2back/STIM_020.jpg	99
261.145	1.488	1488.2	2back	Block1	2back/STIM_020.jpg	99
265.517	1.357	1357.2	2back	Block1	2back/STIM_020.jpg	99
269.947	0.844	843.8	2back	Block1	2back/STIM_021.jpg	99
274.022	1.54	1539.6	2back	Block1	2back/STIM_021.jpg	99
277.812	0.8	800.2	2back	Block1	2back/STIM_021.jpg	99
281.796	1.602	1601.8	2back	Block1	2back/STIM_022.jpg	100
286.906	1.437	1437.1	2back	Block1	2back/STIM_022.jpg	99
290.476	0.769	769.4	2back	Block1	2back/STIM_022.jpg	100
293.897	0.89	889.7	2back	Block1	2back/STIM_023.jpg	99
297.677	1.027	1026.6	2back	Block1	2back/STIM_023.jpg	100
302.323	1.147	1147.2	2back	Block1	2back/STIM_023.jpg	99
306.045	0.865	865.3	2back	Block1	2back/STIM_024.jpg	100
308.996	1.354	1354.4	2back	Block1	2back/STIM_024.jpg	100
313.6	0.917	917.4	2back	Block1	2back/STIM_024.jpg	100
317.55	1.7	1699.5	2back	Block1	2back/STIM_025.jpg	99
322.932	1.573	1573.3	2back	Block1	2back/STIM_025.jpg	99
326.571	0.988	987.8	2back	Block1	2back/STIM_025.jpg	100
330.497	1.16	1160.3	2back	Block1	2back/STIM_026.jpg	100
335.355	1.075	1075.2	2back	Block1	2back/STIM_026.jpg	100
339.504	1.436	1436.2	2back	Block1	2back/STIM_026.jpg	100
343.781	0.863	862.9	2back	Block1	2back/STIM_027.jpg	99
347.543	1.244	1244.0	2back	Block1	2back/STIM_027.jpg	99
352.657	1.218	1217.5	2back	Block1	2back/STIM_027.jpg	99
356.653	1.559	1558.9	2back	Block1	2back/STIM_028.jpg	99
360.716	1.159	1159.4	2back	Block1	2back/STIM_028.jpg	99
363.985	1.372	1372.0	2back	Block1	2back/STIM_028.jpg	100
368.086	0.782	781.6	2back	Block1	2back/STIM_029.jpg	100
372.527	0.967	966.9	2back	Block1	2back/STIM_029.jpg	100
377.114	0.698	698.3	2back	Block1	2back/STIM_029.jpg	99
379.837	1.443	1443.1	2back	Block1	2back/STIM_030.jpg	99
384.918	1.514	1513.6	2back	Block1	2back/STIM_030.jpg	99
388.876	1.407	1407.0	2back	Block1	2back/STIM_030.jpg	100
393.709	1.21	1210.2	2back	Block1	2back/STIM_031.jpg	99
398.515	1.466	1466.3	2back	Block1	2back/STIM_031.jpg	99
403.214	1.496	1495.6	2back	Block1	2back/STIM_031.jpg	99
408.542	1.617	1617.3	2back	Block1	2back/STIM_032.jpg	100
413.531	0.985	984.9	2back	Block1	2back/STIM_032.jpg	99
417.784	1.321	1320.7	2back	Block1	2back/STIM_032.jpg	99
423.061	1.236	1236.3	2back	Block1	2back/STIM_033.jpg	99
426.976	1.32	1320.0	2back	Block1	2back/STIM_033.jpg	99
431.636	1.317	1317.4	2back	Block1	2back/STIM_033.jpg	100
435.734	1.422	1421.7	2back	Block1	2back/STIM_034.jpg	100
440.209	1.3	1300.3	2back	Block1	2back/STIM_034.jpg	100
443.646	0.712	711.5	2back	Block1	2back/STIM_034.jpg	100
447.839	1.262	1262.3	2back	Block1	2back/STIM_035.jpg	99
451.436	1.334	1334.2	2back	Block1	2back/STIM_035.jpg	100
455.642	1.448	1447.9	2back	Block1	2back/STIM_035.jpg	99
460.971	1.055	1054.9	2back	Block1	2back/STIM_036.jpg	100
465.215	0.917	917.2	2back	Block1	2back/STIM_036.jpg	99
468.927	1.203	1202.8	2back	Block1	2back/STIM_036.jpg	99
473.377	1.291	1290.9	2back	Block1	2back/STIM_037.jpg	100
478.555	1.302	1301.6	2back	Block1	2back/STIM_037.jpg	99
483.616	1.184	1184.2	2back	Block1	2back/STIM_037.jpg	99
488.681	1.15	1149.8	2back	Block1	2back/STIM_038.jpg	99
492.128	1.233	1233.3	2back	Block1	2back/STIM_038.jpg	99
497.04	1.437	1436.8	2back	Block1	2back/STIM_038.jpg	100
500.504	0.839	838.8	2back	Block1	2back/STIM_039.jpg	100
503.628	0.856	856.5	2back	Block1	2back/STIM_039.jpg	100
507.735	0.705	704.9	2back	Block1	2back/STIM_039.jpg	99
512.406	0.527	526.6	0back	Block1	0back/STIM_000.jpg	100
515.409	0.583	582.8	0back	Block1	0back/STIM_000.jpg	99
519.926	0.676	675.8	0back	Block1	0back/STIM_000.jpg	100
523.774	0.62	619.8	0back	Block1	0back/STIM_001.jpg	99
526.479	0.675	675.4	0back	Block1	0back/STIM_001.jpg	99
530.904	0.855	855.4	0back	Block1	0back/STIM_001.jpg	99
533.85	0.671	671.2	0back	Block1	0back/STIM_002.jpg	100
537.944	0.797	796.7	0back	Block1	0back/STIM_002.jpg	99
542.094	0.826	826.1	0back	Block1	0back/STIM_002.jpg	100
546.305	0.621	621.4	0back	Block1	0back/STIM_003.jpg	99
550.212	0.554	553.8	0back	Block1	0back/STIM_003.jpg	100
553.48	0.908	907.9	0back	Block1	0back/STIM_003.jpg	99
556.586	0.856	856.0	0back	Block1	0back/STIM_004.jpg	100
559.902	0.96	960.4	0back	Block1	0back/STIM_004.jpg	99
564.242	0.712	711.8	0back	Block1	0back/STIM_004.jpg	100
566.961	0.699	699.1	0back	Block1	0back/STIM_005.jpg	99
570.095	0.573	572.6	0back	Block1	0back/STIM_005.jpg	99
574.416	0.746	745.9	0back	Block1	0back/STIM_005.jpg	100
579.005	0.606	605.8	0back	Block1	0back/STIM_006.jpg	100
583.318	0.591	590.9	0back	Block1	0back/STIM_006.jpg	100
586.126	0.564	564.5	0back	Block1	0back/STIM_006.jpg	99
590.038	0.508	507.9	0back	Block1	0back/STIM_007.jpg	99
592.708	0.631	630.9	0back	Block1	0back/STIM_007.jpg	100
596.047	0.686	686.5	0back	Block1	0back/STIM_007.jpg	99
600.614	0.931	931.1	0back	Block1	0back/STIM_008.jpg	99
605.453	0.87	870.1	0back	Block1	0back/STIM_008.jpg	99
609.328	0.513	512.7	0back	Block1	0back/STIM_008.jpg	99
613.646	0.807	806.6	0back	Block1	0back/STIM_009.jpg	99
618.271	0.887	886.7	0back	Block1	0back/STIM_009.jpg	99
621.9	0.883	883.0	0back	Block1	0back/STIM_009.jpg	99
625.011	0.707	707.2	0back	Block1	0back/STIM_010.jpg	99
628.957	0.903	903.1	0back	Block1	0back/STIM_010.jpg	100
632.299	0.526	525.7	0back	Block1	0back/STIM_010.jpg	99
636.199	0.938	937.5	0back	Block1	0back/STIM_011.jpg	100
640.122	0.594	593.6	0back	Block1	0back/STIM_011.jpg	99
643.678	0.967	967.3	0back	Block1	0back/STIM_011.jpg	100
647.93	0.954	953.7	0back	Block1	0back/STIM_012.jpg	99
650.892	0.661	661.1	0back	Block1	0back/STIM_012.jpg	100
654.284	0.754	753.6	0back	Block1	0back/STIM_012.jpg	100
658.904	0.96	959.6	0back	Block1	0back/STIM_013.jpg	99
663.08	0.616	615.6	0back	Block1	0back/STIM_013.jpg	100
666.958	0.926	926.3	0back	Block1	0back/STIM_013.jpg	99
670.175	0.508	507.6	0back	Block1	0back/STIM_014.jpg	100
674.527	0.76	759.6	0back	Block1	0back/STIM_014.jpg	100
678.317	0.814	813.7	0back	Block1	0back/STIM_014.jpg	99
681.509	0.981	981.4	0back	Block1	0back/STIM_015.jpg	99
684.947	0.59	590.4	0back	Block1	0back/STIM_015.jpg	99
688.478	0.638	637.5	0back	Block1	0back/STIM_015.jpg	99
691.44	0.579	579.1	0back	Block1	0back/STIM_016.jpg	99
695.524	0.971	971.3	0back	Block1	0back/STIM_016.jpg	100
699.207	0.834	833.6	0back	Block1	0back/STIM_016.jpg	100
702.956	0.642	642.4	0back	Block1	0back/STIM_017.jpg	99
705.968	0.939	939.0	0back	Block1	0back/STIM_017.jpg	100
710.863	0.632	632.0	0back	Block1	0back/STIM_017.jpg	100
714.818	0.95	949.5	0back	Block1	0back/STIM_018.jpg	100
718.979	0.705	705.4	0back	Block1	0back/STIM_018.jpg	99
721.74	0.972	971.6	0back	Block1	0back/STIM_018.jpg	100
725.887	0.852	851.7	0back	Block1	0back/STIM_019.jpg	100
728.872	0.929	929.4	0back	Block1	0back/STIM_019.jpg	99
732.416	0.924	924.1	0back	Block1	0back/STIM_019.jpg	100
735.904	1.444	1443.6	2back	Block2	2back/STIM_000.jpg	100
741.113	0.784	784.1	2back	Block2	2back/STIM_000.jpg	100
744.559	0.915	915.4	2back	Block2	2back/STIM_000.jpg	99
749.172	1.406	1405.6	2back	Block2	2back/STIM_001.jpg	100
752.907	1.226	1226.2	2back	Block2	2back/STIM_001.jpg	99
757.861	0.924	923.9	2back	Block2	2back/STIM_001.jpg	99
761.119	0.811	810.9	2back	Block2	2back/STIM_002.jpg	99
765.772	1.008	1007.5	2back	Block2	2back/STIM_002.jpg	99
769.326	0.951	951.4	2back	Block2	2back/STIM_002.jpg	99
773.075	0.897	896.6	2back	Block2	2back/STIM_003.jpg	100
777.533	0.83	829.7	2back	Block2	2back/STIM_003.jpg	99
782.232	1.197	1197.4	2back	Block2	2back/STIM_003.jpg	100
785.86	1.159	1158.8	2back	Block2	2back/STIM_004.jpg	100
789.905	1.148	1148.2	2back	Block2	2back/STIM_004.jpg	99
794.096	0.812	812.0	2back	Block2	2back/STIM_004.jpg	100
798.722	0.844	844.2	2back	Block2	2back/STIM_005.jpg	99
802.751	1.224	1223.8	2back	Block2	2back/STIM_005.jpg	100
806.054	1.192	1192.1	2back	Block2	2back/STIM_005.jpg	99
809.659	1.132	1131.5	2back	Block2	2back/STIM_006.jpg	100
814.551	0.628	628.2	2back	Block2	2back/STIM_006.jpg	99
819.117	0.87	870.0	2back	Block2	2back/STIM_006.jpg	100
823.179	1.112	1112.3	2back	Block2	2back/STIM_007.jpg	100
827.55	1.363	1363.0	2back	Block2	2back/STIM_007.jpg	100
832.783	1.195	1195.2	2back	Block2	2back/STIM_007.jpg	99
836.461	0.845	845.4	2back	Block2	2back/STIM_008.jpg	99
839.837	0.909	908.6	2back	Block2	2back/STIM_008.jpg	99
843.493	1.269	1268.9	2back	Block2	2back/STIM_008.jpg	100
847.115	1.157	1156.7	2back	Block2	2back/STIM_009.jpg	99
850.797	0.713	712.9	2back	Block2	2back/STIM_009.jpg	100
853.844	0.734	734.0	2back	Block2	2back/STIM_009.jpg	100
858.269	1.442	1442.5	2back	Block2	2back/STIM_010.jpg	99
862.366	1.353	1352.8	2back	Block2	2back/STIM_010.jpg	100
867.265	0.619	618.8	2back	Block2	2back/STIM_010.jpg	99
871.837	0.878	878.0	2back	Block2	2back/STIM_011.jpg	100
876.629	0.903	902.7	2back	Block2	2back/STIM_011.jpg	99
881.288	0.732	732.4	2back	Block2	2back/STIM_011.jpg	99
885.515	0.894	894.2	2back	Block2	2back/STIM_012.jpg	99
889.699	0.984	983.5	2back	Block2	2back/STIM_012.jpg	100
893.129	0.919	918.7	2back	Block2	2back/STIM_012.jpg	99
896.574	0.905	904.8	2back	Block2	2back/STIM_013.jpg	100
899.862	1.286	1286.3	2back	Block2	2back/STIM_013.jpg	99
904.092	1.286	1286.2	2back	Block2	2back/STIM_013.jpg	99
908.026	1.35	1349.9	2back	Block2	2back/STIM_014.jpg	100
912.795	0.593	593.1	2back	Block2	2back/STIM_014.jpg	99
915.86	0.924	923.9	2back	Block2	2back/STIM_014.jpg	99
919.892	1.267	1266.6	2back	Block2	2back/STIM_015.jpg	100
923.677	0.884	884.3	2back	Block2	2back/STIM_015.jpg	100
927.603	1.28	1280.0	2back	Block2	2back/STIM_015.jpg	100
932.533	1.222	1221.6	2back	Block2	2back/STIM_016.jpg	100
937.62	0.922	922.3	2back	Block2	2back/STIM_016.jpg	99
942.491	1.151	1150.9	2back	Block2	2back/STIM_016.jpg	100
946.591	1.316	1316.2	2back	Block2	2back/STIM_017.jpg	100
951.809	1.337	1337.1	2back	Block2	2back/STIM_017.jpg	99
956.685	0.584	583.8	2back	Block2	2back/STIM_017.jpg	100
959.56	0.745	744.7	2back	Block2	2back/STIM_018.jpg	100
963.584	0.605	605.4	2back	Block2	2back/STIM_018.jpg	100
967.035	1.115	1115.1	2back	Block2	2back/STIM_018.jpg	99
970.867	1.2	1200.2	2back	Block2	2back/STIM_019.jpg	100
974.491	1.287	1287.0	2back	Block2	2back/STIM_019.jpg	99
978.932	0.614	613.5	2back	Block2	2back/STIM_019.jpg	99
982.164	1.066	1066.2	2back	Block2	2back/STIM_020.jpg	100
986.362	0.738	738.0	2back	Block2	2back/STIM_020.jpg	100
990.875	1.294	1294.3	2back	Block2	2back/STIM_020.jpg	100
994.412	0.957	956.8	2back	Block2	2back/STIM_021.jpg	100
999.093	0.934	933.9	2back	Block2	2back/STIM_021.jpg	100
1002.219	1.099	1099.2	2back	Block2	2back/STIM_021.jpg	99
1007.117	0.854	854.3	2back	Block2	2back/STIM_022.jpg	100
1011.642	1.38	1380.2	2back	Block2	2back/STIM_022.jpg	99
1016.145	0.634	634.2	2back	Block2	2back/STIM_022.jpg	99
1020.064	0.672	672.1	2back	Block2	2back/STIM_023.jpg	100
1023.621	1.272	1271.5	2back	Block2	2back/STIM_023.jpg	100
1028.716	1.287	1287.4	2back	Block2	2back/STIM_023.jpg	100
1032.95	1.388	1388.0	2back	Block2	2back/STIM_024.jpg	100
1037.725	0.931	931.4	2back	Block2	2back/STIM_024.jpg	100
1041.411	0.882	882.4	2back	Block2	2back/STIM_024.jpg	99
1045.379	0.927	927.1	2back	Block2	2back/STIM_025.jpg	99
1048.685	0.923	922.9	2back	Block2	2back/STIM_025.jpg	100
1052.724	0.894	894.3	2back	Block2	2back/STIM_025.jpg	99
1056.366	1.446	1445.9	2back	Block2	2back/STIM_026.jpg	100
1060.2	0.941	940.8	2back	Block2	2back/STIM_026.jpg	100
1064.624	1.258	1257.7	2back	Block2	2back/STIM_026.jpg	100
1068.734	0.64	639.5	2back	Block2	2back/STIM_027.jpg	100
1073.169	0.631	630.8	2back	Block2	2back/STIM_027.jpg	100
1075.977	1.089	1089.2	2back	Block2	2back/STIM_027.jpg	99
1079.73	0.759	759.3	2back	Block2	2back/STIM_028.jpg	99
1083.977	1.325	1324.8	2back	Block2	2back/STIM_028.jpg	99
1087.908	0.654	654.5	2back	Block2	2back/STIM_028.jpg	99
1091.917	1.327	1327.2	2back	Block2	2back/STIM_029.jpg	100
1096.446	1.008	1008.2	2back	Block2	2back/STIM_029.jpg	99
1100.122	0.679	679.0	2back	Block2	2back/STIM_029.jpg	99
1103.539	0.973	973.0	2back	Block2	2back/STIM_030.jpg	100
1106.942	0.624	624.5	2back	Block2	2back/STIM_030.jpg	99
1110.355	0.934	933.5	2back	Block2	2back/STIM_030.jpg	100
1114.526	1.323	1323.3	2back	Block2	2back/STIM_031.jpg	99
1119.276	0.773	773.2	2back	Block2	2back/STIM_031.jpg	99
1123.406	0.664	663.8	2back	Block2	2back/STIM_031.jpg	100
1127.474	1.069	1068.6	2back	Block2	2back/STIM_032.jpg	99
1131.642	1.379	1378.9	2back	Block2	2back/STIM_032.jpg	100
1135.978	1.22	1220.4	2back	Block2	2back/STIM_032.jpg	99
1140.603	0.897	896.9	2back	Block2	2back/STIM_033.jpg	100
1144.93	1.291	1291.4	2back	Block2	2back/STIM_033.jpg	99
1148.648	1.144	1144.4	2back	Block2	2back/STIM_033.jpg	100
1152.622	1.172	1172.4	2back	Block2	2back/STIM_034.jpg	99
1155.904	0.765	764.8	2back	Block2	2back/STIM_034.jpg	100
1159.741	1.074	1073.5	2back	Block2	2back/STIM_034.jpg	99
1163.751	1.258	1257.5	2back	Block2	2back/STIM_035.jpg	99
1168.971	0.672	672.5	2back	Block2	2back/STIM_035.jpg	99
1173.212	0.886	885.8	2back	Block2	2back/STIM_035.jpg	100
1177.98	1.172	1171.6	2back	Block2	2back/STIM_036.jpg	99
1182.585	1.23	1230.2	2back	Block2	2back/STIM_036.jpg	100
1187.25	0.558	558.2	2back	Block2	2back/STIM_036.jpg	99
1190.701	0.757	757.2	2back	Block2	2back/STIM_037.jpg	100
1193.993	1.034	1034.4	2back	Block2	2back/STIM_037.jpg	100
1198.567	0.928	927.7	2back	Block2	2back/STIM_037.jpg	99
1203.21	1.355	1354.6	2back	Block2	2back/STIM_038.jpg	99
1207.305	0.737	737.1	2back	Block2	2back/STIM_038.jpg	100
1210.183	1.122	1122.0	2back	Block2	2back/STIM_038.jpg	99
1214.223	0.639	638.9	2back	Block2	2back/STIM_039.jpg	100
1217.316	1.033	1033.0	2back	Block2	2back/STIM_039.jpg	99
1221.631	0.609	609.0	2back	Block2	2back/STIM_039.jpg	99
1225.14	0.821	820.7	0back	Block2	0back/STIM_000.jpg	99
1229.45	0.754	754.1	0back	Block2	0back/STIM_000.jpg	100
1233.163	0.909	908.9	0back	Block2	0back/STIM_000.jpg	100
1237.684	0.693	692.6	0back	Block2	0back/STIM_001.jpg	100
1240.908	0.89	890.0	0back	Block2	0back/STIM_001.jpg	99
1244.543	0.944	944.3	0back	Block2	0back/STIM_001.jpg	100
1248.218	0.676	676.1	0back	Block2	0back/STIM_002.jpg	100
1252.792	0.609	609.3	0back	Block2	0back/STIM_002.jpg	99
1257.287	0.614	613.8	0back	Block2	0back/STIM_002.jpg	100
1261.737	0.672	671.8	0back	Block2	0back/STIM_003.jpg	100
1264.956	0.984	983.5	0back	Block2	0back/STIM_003.jpg	100
1269.382	0.845	845.2	0back	Block2	0back/STIM_003.jpg	100
1273.294	0.709	708.7	0back	Block2	0back/STIM_004.jpg	100
1276.64	0.54	539.8	0back	Block2	0back/STIM_004.jpg	99
1279.968	0.944	944.2	0back	Block2	0back/STIM_004.jpg	99
1283.647	0.55	550.2	0back	Block2	0back/STIM_005.jpg	99
1286.532	0.686	685.9	0back	Block2	0back/STIM_005.jpg	100
1290.862	0.577	576.8	0back	Block2	0back/STIM_005.jpg	99
1295.298	0.512	511.7	0back	Block2	0back/STIM_006.jpg	99
1299.189	0.54	539.5	0back	Block2	0back/STIM_006.jpg	99
1302.903	0.957	957.0	0back	Block2	0back/STIM_006.jpg	99
1305.9	0.753	753.0	0back	Block2	0back/STIM_007.jpg	99
1309.481	0.952	952.0	0back	Block2	0back/STIM_007.jpg	100
1313.031	0.967	966.8	0back	Block2	0back/STIM_007.jpg	99
1317.49	0.803	803.1	0back	Block2	0back/STIM_008.jpg	100
1321.821	0.505	505.0	0back	Block2	0back/STIM_008.jpg	99
1325.905	0.676	675.9	0back	Block2	0back/STIM_008.jpg	100
1330.148	0.852	851.7	0back	Block2	0back/STIM_009.jpg	99
1334.148	0.979	978.7	0back	Block2	0back/STIM_009.jpg	99
1338.655	0.893	893.1	0back	Block2	0back/STIM_009.jpg	99
1343.448	0.621	621.2	0back	Block2	0back/STIM_010.jpg	99
1346.222	0.84	840.2	0back	Block2	0back/STIM_010.jpg	100
1350.836	0.858	858.0	0back	Block2	0back/STIM_010.jpg	99
1355.084	0.753	753.4	0back	Block2	0back/STIM_011.jpg	100
1358.62	0.742	742.3	0back	Block2	0back/STIM_011.jpg	100
1361.868	0.648	648.2	0back	Block2	0back/STIM_011.jpg	99
1366.447	0.684	684.4	0back	Block2	0back/STIM_012.jpg	99
1369.536	0.514	514.1	0back	Block2	0back/STIM_012.jpg	100
1373.855	0.905	905.4	0back	Block2	0back/STIM_012.jpg	99
1378.086	0.71	709.8	0back	Block2	0back/STIM_013.jpg	99
1382.006	0.881	881.1	0back	Block2	0back/STIM_013.jpg	99
1385.409	0.546	545.7	0back	Block2	0back/STIM_013.jpg	99
1388.638	0.789	789.2	0back	Block2	0back/STIM_014.jpg	100
1392.521	0.908	907.8	0back	Block2	0back/STIM_014.jpg	99
1396.509	0.852	852.1	0back	Block2	0back/STIM_014.jpg	99
1400.984	0.596	596.5	0back	Block2	0back/STIM_015.jpg	99
1405.181	0.728	728.0	0back	Block2	0back/STIM_015.jpg	99
1409.549	0.851	851.3	0back	Block2	0back/STIM_015.jpg	100
1412.921	0.602	601.9	0back	Block2	0back/STIM_016.jpg	99
1417.182	0.764	764.0	0back	Block2	0back/STIM_016.jpg	99
1420.619	0.889	888.6	0back	Block2	0back/STIM_016.jpg	100
1424.579	0.504	504.0	0back	Block2	0back/STIM_017.jpg	99
1428.639	0.738	737.5	0back	Block2	0back/STIM_017.jpg	99
1432.191	0.619	618.8	0back	Block2	0back/STIM_017.jpg	99
1435.817	0.543	543.2	0back	Block2	0back/STIM_018.jpg	100
1439.737	0.619	619.0	0back	Block2	0back/STIM_018.jpg	100
1443.179	0.718	718.4	0back	Block2	0back/STIM_018.jpg	99
1446.216	0.703	702.7	0back	Block2	0back/STIM_019.jpg	100
1450.443	0.504	504.5	0back	Block2	0back/STIM_019.jpg	99
1454.196	0.914	914.0	0back	Block2	0back/STIM_019.jpg	99
1458.864	1.196	1196.3	2back	Block3	2back/STIM_000.jpg	100
1462.285	0.721	721.0	2back	Block3	2back/STIM_000.jpg	99
1465.105	1.016	1016.5	2back	Block3	2back/STIM_000.jpg	100
1470.077	0.679	679.1	2back	Block3	2back/STIM_001.jpg	99
1474.66	0.897	896.6	2back	Block3	2back/STIM_001.jpg	99
1479.428	0.598	597.6	2back	Block3	2back/STIM_001.jpg	99
1483.954	1.056	1055.7	2back	Block3	2back/STIM_002.jpg	99
1488.622	0.797	796.8	2back	Block3	2back/STIM_002.jpg	100
1492.843	0.934	933.6	2back	Block3	2back/STIM_002.jpg	99
1496.018	0.56	559.5	2back	Block3	2back/STIM_003.jpg	100
1499.957	0.566	566.1	2back	Block3	2back/STIM_003.jpg	99
1503.548	0.892	891.9	2back	Block3	2back/STIM_003.jpg	99
1507.783	0.723	722.6	2back	Block3	2back/STIM_004.jpg	100
1510.727	0.554	553.6	2back	Block3	2back/STIM_004.jpg	100
1513.505	0.926	926.3	2back	Block3	2back/STIM_004.jpg	99
1518.086	0.731	731.1	2back	Block3	2back/STIM_005.jpg	100
1522.535	1.172	1171.7	2back	Block3	2back/STIM_005.jpg	99
1527.473	0.861	860.7	2back	Block3	2back/STIM_005.jpg	99
1532.17	0.953	952.9	2back	Block3	2back/STIM_006.jpg	100
1537.047	0.619	619.2	2back	Block3	2back/STIM_006.jpg	99
1541.04	1.141	1141.4	2back	Block3	2back/STIM_006.jpg	99
1545.948	1.205	1205.3	2back	Block3	2back/STIM_007.jpg	100
1550.902	1.038	1038.5	2back	Block3	2back/STIM_007.jpg	99
1555.93	1.206	1206.4	2back	Block3	2back/STIM_007.jpg	99
1560.356	0.53	530.0	2back	Block3	2back/STIM_008.jpg	100
1563.218	1.187	1187.2	2back	Block3	2back/STIM_008.jpg	99
1566.693	0.651	651.4	2back	Block3	2back/STIM_008.jpg	99
1569.867	1.068	1067.6	2back	Block3	2back/STIM_009.jpg	99
1573.072	0.537	537.0	2back	Block3	2back/STIM_009.jpg	100
1576.798	1.002	1001.8	2back	Block3	2back/STIM_009.jpg	100
1581.086	0.886	886.5	2back	Block3	2back/STIM_010.jpg	100
1585.117	0.557	557.1	2back	Block3	2back/STIM_010.jpg	99
1588.906	1.168	1167.6	2back	Block3	2back/STIM_010.jpg	100
1593.148	0.849	849.2	2back	Block3	2back/STIM_011.jpg	100
1596.421	0.531	531.2	2back	Block3	2back/STIM_011.jpg	100
1599.391	0.566	566.0	2back	Block3	2back/STIM_011.jpg	99
1603.305	0.927	926.8	2back	Block3	2back/STIM_012.jpg	99
1606.63	1.075	1075.4	2back	Block3	2back/STIM_012.jpg	99
1611.171	0.839	838.7	2back	Block3	2back/STIM_012.jpg	100
1614.546	0.7	700.0	2back	Block3	2back/STIM_013.jpg	99
1617.885	0.741	740.9	2back	Block3	2back/STIM_013.jpg	99
1622.129	0.906	906.3	2back	Block3	2back/STIM_013.jpg	99
1625.724	0.606	606.2	2back	Block3	2back/STIM_014.jpg	100
1628.832	0.58	580.0	2back	Block3	2back/STIM_014.jpg	100
1633.239	0.908	908.4	2back	Block3	2back/STIM_014.jpg	99
1637.935	0.679	679.2	2back	Block3	2back/STIM_015.jpg	100
1641.042	0.915	915.0	2back	Block3	2back/STIM_015.jpg	99
1645.155	1.128	1127.8	2back	Block3	2back/STIM_015.jpg	99
1649.455	1.079	1078.9	2back	Block3	2back/STIM_016.jpg	100
1652.921	1.082	1082.0	2back	Block3	2back/STIM_016.jpg	100
1657.545	0.94	939.6	2back	Block3	2back/STIM_016.jpg	100
1661.779	0.874	874.0	2back	Block3	2back/STIM_017.jpg	100
1665.396	1.021	1020.8	2back	Block3	2back/STIM_017.jpg	100
1668.912	0.939	939.4	2back	Block3	2back/STIM_017.jpg	100
1673.794	0.97	970.3	2back	Block3	2back/STIM_018.jpg	99
1678.095	1.098	1098.5	2back	Block3	2back/STIM_018.jpg	100
1682.496	1.026	1025.7	2back	Block3	2back/STIM_018.jpg	99
1687.141	0.668	668.0	2back	Block3	2back/STIM_019.jpg	100
1691.405	0.609	609.4	2back	Block3	2back/STIM_019.jpg	100
1695.74	0.746	745.6	2back	Block3	2back/STIM_019.jpg	100
1700.225	1.122	1122.2	2back	Block3	2back/STIM_020.jpg	100
1704.228	0.548	547.5	2back	Block3	2back/STIM_020.jpg	100
1707.777	1.173	1173.1	2back	Block3	2back/STIM_020.jpg	100
1711.03	0.658	657.9	2back	Block3	2back/STIM_021.jpg	99
1713.939	0.995	994.7	2back	Block3	2back/STIM_021.jpg	100
1718.43	1.196	1196.4	2back	Block3	2back/STIM_021.jpg	99
1723.438	0.564	563.6	2back	Block3	2back/STIM_022.jpg	100
1727.253	0.858	857.6	2back	Block3	2back/STIM_022.jpg	100
1731.785	1.037	1037.0	2back	Block3	2back/STIM_022.jpg	99
1736.676	0.552	552.2	2back	Block3	2back/STIM_023.jpg	100
1739.329	0.98	980.0	2back	Block3	2back/STIM_023.jpg	99
1744.187	0.833	833.3	2back	Block3	2back/STIM_023.jpg	99
1748.344	0.949	949.0	2back	Block3	2back/STIM_024.jpg	100
1752.493	1.09	1090.4	2back	Block3	2back/STIM_024.jpg	99
1757.283	0.956	955.7	2back	Block3	2back/STIM_024.jpg	99
1762.119	0.565	565.4	2back	Block3	2back/STIM_025.jpg	100
1765.904	1.067	1067.3	2back	Block3	2back/STIM_025.jpg	100
1769.701	0.549	549.2	2back	Block3	2back/STIM_025.jpg	99
1772.749	0.559	559.4	2back	Block3	2back/STIM_026.jpg	99
1776.773	0.876	875.9	2back	Block3	2back/STIM_026.jpg	99
1780.575	0.926	926.3	2back	Block3	2back/STIM_026.jpg	100
1785.163	1.196	1195.6	2back	Block3	2back/STIM_027.jpg	100
1789.713	0.63	630.0	2back	Block3	2back/STIM_027.jpg	100
1794.204	0.738	738.3	2back	Block3	2back/STIM_027.jpg	99
1798.635	0.812	811.8	2back	Block3	2back/STIM_028.jpg	100
1801.613	0.69	690.1	2back	Block3	2back/STIM_028.jpg	99
1804.791	1.054	1053.6	2back	Block3	2back/STIM_028.jpg	99
1808.207	0.967	967.4	2back	Block3	2back/STIM_029.jpg	99
1812.593	0.625	624.8	2back	Block3	2back/STIM_029.jpg	100
1816.643	0.771	771.1	2back	Block3	2back/STIM_029.jpg	100
1821.404	0.951	950.7	2back	Block3	2back/STIM_030.jpg	100
1826.059	1.19	1190.4	2back	Block3	2back/STIM_030.jpg	99
1830.523	0.962	962.1	2back	Block3	2back/STIM_030.jpg	99
1835.441	1.119	1118.8	2back	Block3	2back/STIM_031.jpg	100
1839.494	0.549	549.2	2back	Block3	2back/STIM_031.jpg	99
1843.319	0.981	981.1	2back	Block3	2back/STIM_031.jpg	100
1847.986	1.103	1103.1	2back	Block3	2back/STIM_032.jpg	100
1851.116	1.022	1022.4	2back	Block3	2back/STIM_032.jpg	100
1854.953	0.783	782.8	2back	Block3	2back/STIM_032.jpg	100
1858.111	0.522	522.3	2back	Block3	2back/STIM_033.jpg	100
1861.595	1.142	1141.6	2back	Block3	2back/STIM_033.jpg	100
1866.216	1.062	1062.1	2back	Block3	2back/STIM_033.jpg	100
1870.672	0.531	531.2	2back	Block3	2back/STIM_034.jpg	99
1875.079	0.669	668.8	2back	Block3	2back/STIM_034.jpg	99
1878.361	0.615	615.0	2back	Block3	2back/STIM_034.jpg	99
1881.231	0.642	642.4	2back	Block3	2back/STIM_035.jpg	99
1885.501	0.807	807.3	2back	Block3	2back/STIM_035.jpg	99
1889.394	1.209	1208.9	2back	Block3	2back/STIM_035.jpg	99
1893.655	0.712	711.8	2back	Block3	2back/STIM_036.jpg	99
1898.352	0.777	777.2	2back	Block3	2back/STIM_036.jpg	99
1901.309	0.751	751.0	2back	Block3	2back/STIM_036.jpg	100
1904.256	0.624	624.4	2back	Block3	2back/STIM_037.jpg	99
1907.061	0.672	672.2	2back	Block3	2back/STIM_037.jpg	100
1910.93	1.035	1035.4	2back	Block3	2back/STIM_037.jpg	100
1915.378	0.642	641.7	2back	Block3	2back/STIM_038.jpg	100
1918.172	1.162	1161.5	2back	Block3	2back/STIM_038.jpg	100
1921.567	1.081	1080.6	2back	Block3	2back/STIM_038.jpg	99
1925.796	1.143	1142.6	2back	Block3	2back/STIM_039.jpg	99
1929.77	1.089	1089.0	2back	Block3	2back/STIM_039.jpg	99
1933.109	0.714	713.8	2back	Block3	2back/STIM_039.jpg	100
1936.604	0.692	692.2	0back	Block3	0back/STIM_000.jpg	99
1940.25	0.819	819.3	0back	Block3	0back/STIM_000.jpg	100
1944.247	0.578	577.9	0back	Block3	0back/STIM_000.jpg	99
1946.858	0.576	576.1	0back	Block3	0back/STIM_001.jpg	99
1950.398	0.544	544.0	0back	Block3	0back/STIM_001.jpg	100
1954.624	0.656	655.8	0back	Block3	0back/STIM_001.jpg	99
1958.414	0.557	556.9	0back	Block3	0back/STIM_002.jpg	99
1961.6	0.6	600.5	0back	Block3	0back/STIM_002.jpg	99
1964.373	0.542	541.7	0back	Block3	0back/STIM_002.jpg	100
1966.995	0.618	618.4	0back	Block3	0back/STIM_003.jpg	99
1970.041	0.656	656.5	0back	Block3	0back/STIM_003.jpg	99
1973.358	0.59	590.2	0back	Block3	0back/STIM_003.jpg	99
1977.724	0.708	708.2	0back	Block3	0back/STIM_004.jpg	100
1980.626	0.806	806.1	0back	Block3	0back/STIM_004.jpg	100
1984.461	0.711	710.8	0back	Block3	0back/STIM_004.jpg	100
1987.532	0.988	987.8	0back	Block3	0back/STIM_005.jpg	100
1992.375	0.595	595.3	0back	Block3	0back/STIM_005.jpg	99
1995.358	0.86	860.0	0back	Block3	0back/STIM_005.jpg	99
1998.408	0.833	833.2	0back	Block3	0back/STIM_006.jpg	99
2002.412	0.956	956.0	0back	Block3	0back/STIM_006.jpg	100
2005.603	0.714	714.0	0back	Block3	0back/STIM_006.jpg	99
2009.107	0.626	626.2	0back	Block3	0back/STIM_007.jpg	99
2012.992	0.743	742.6	0back	Block3	0back/STIM_007.jpg	99
2017.303	0.712	711.9	0back	Block3	0back/STIM_007.jpg	100
2021.063	0.935	935.2	0back	Block3	0back/STIM_008.jpg	100
2025.423	0.917	916.9	0back	Block3	0back/STIM_008.jpg	99
2029.483	0.772	771.7	0back	Block3	0back/STIM_008.jpg	100
2033.573	0.88	879.9	0back	Block3	0back/STIM_009.jpg	99
2038.268	0.671	671.3	0back	Block3	0back/STIM_009.jpg	99
2041.68	0.578	577.7	0back	Block3	0back/STIM_009.jpg	99
2045.449	0.914	914.1	0back	Block3	0back/STIM_010.jpg	99
2048.638	0.795	795.3	0back	Block3	0back/STIM_010.jpg	99
2051.935	0.827	827.4	0back	Block3	0back/STIM_010.jpg	99
2055.812	0.53	529.9	0back	Block3	0back/STIM_011.jpg	100
2059.777	0.919	919.0	0back	Block3	0back/STIM_011.jpg	100
2063.711	0.968	967.8	0back	Block3	0back/STIM_011.jpg	99
2067.623	0.758	757.6	0back	Block3	0back/STIM_012.jpg	99
2072.376	0.697	697.2	0back	Block3	0back/STIM_012.jpg	99
2075.976	0.91	910.2	0back	Block3	0back/STIM_012.jpg	100
2079.548	0.606	606.4	0back	Block3	0back/STIM_013.jpg	100
2083.063	0.872	872.5	0back	Block3	0back/STIM_013.jpg	100
2087.042	0.654	653.9	0back	Block3	0back/STIM_013.jpg	99
2090.144	0.877	877.2	0back	Block3	0back/STIM_014.jpg	99
2093.814	0.63	630.0	0back	Block3	0back/STIM_014.jpg	99
2098.031	0.969	969.3	0back	Block3	0back/STIM_014.jpg	100
2101.481	0.57	569.8	0back	Block3	0back/STIM_015.jpg	99
2104.661	0.904	903.8	0back	Block3	0back/STIM_015.jpg	100
2108.28	0.635	635.3	0back	Block3	0back/STIM_015.jpg	100
2111.816	0.664	664.0	0back	Block3	0back/STIM_016.jpg	100
2115.053	0.817	816.8	0back	Block3	0back/STIM_016.jpg	99
2119.411	0.928	927.7	0back	Block3	0back/STIM_016.jpg	100
2123.493	0.589	589.0	0back	Block3	0back/STIM_017.jpg	99
2127.625	0.544	543.6	0back	Block3	0back/STIM_017.jpg	99
2131.052	0.953	953.2	0back	Block3	0back/STIM_017.jpg	100
2134.335	0.868	867.6	0back	Block3	0back/STIM_018.jpg	99
2138.551	0.94	939.6	0back	Block3	0back/STIM_018.jpg	100
2142.993	0.909	908.9	0back	Block3	0back/STIM_018.jpg	100
2147.141	0.911	911.1	0back	Block3	0back/STIM_019.jpg	100
2150.644	0.711	711.1	0back	Block3	0back/STIM_019.jpg	100
2153.39	0.977	976.6	0back	Block3	0back/STIM_019.jpg	99
2156.618	0.952	952.5	2back	Block4	2back/STIM_000.jpg	99
2161.251	0.826	826.3	2back	Block4	2back/STIM_000.jpg	99
2164.684	1.055	1055.2	2back	Block4	2back/STIM_000.jpg	100
2168.583	0.898	898.3	2back	Block4	2back/STIM_001.jpg	99
2172.603	0.948	948.1	2back	Block4	2back/STIM_001.jpg	99
2176.697	0.91	910.3	2back	Block4	2back/STIM_001.jpg	100
2180.038	1.07	1070.2	2back	Block4	2back/STIM_002.jpg	99
2184.607	0.981	981.2	2back	Block4	2back/STIM_002.jpg	99
2188.934	1.093	1092.9	2back	Block4	2back/STIM_002.jpg	99
2192.553	0.93	930.4	2back	Block4	2back/STIM_003.jpg	99
2196.45	0.677	676.6	2back	Block4	2back/STIM_003.jpg	100
2201.028	0.865	865.2	2back	Block4	2back/STIM_003.jpg	99
2204.107	0.554	554.2	2back	Block4	2back/STIM_004.jpg	100
2207.022	1.178	1177.8	2back	Block4	2back/STIM_004.jpg	100
2210.66	0.669	668.8	2back	Block4	2back/STIM_004.jpg	100
2214.349	0.553	553.0	2back	Block4	2back/STIM_005.jpg	100
2218.8	0.727	726.7	2back	Block4	2back/STIM_005.jpg	100
2223.266	0.871	871.1	2back	Block4	2back/STIM_005.jpg	99
2226.869	0.956	955.5	2back	Block4	2back/STIM_006.jpg	99
2230.27	0.868	868.1	2back	Block4	2back/STIM_006.jpg	100
2234.08	1.006	1005.7	2back	Block4	2back/STIM_006.jpg	99
2238.001	0.997	997.3	2back	Block4	2back/STIM_007.jpg	99
2241.803	0.676	676.2	2back	Block4	2back/STIM_007.jpg	99
2245.277	0.994	993.9	2back	Block4	2back/STIM_007.jpg	99
2249.849	0.637	636.7	2back	Block4	2back/STIM_008.jpg	99
2253.23	1.045	1044.7	2back	Block4	2back/STIM_008.jpg	100
2257.22	0.944	943.8	2back	Block4	2back/STIM_008.jpg	100
2261.649	0.741	740.7	2back	Block4	2back/STIM_009.jpg	100
2264.965	1.184	1183.8	2back	Block4	2back/STIM_009.jpg	99
2269.528	0.884	884.0	2back	Block4	2back/STIM_009.jpg	99
2274.13	0.61	610.0	2back	Block4	2back/STIM_010.jpg	100
2278.22	1.127	1126.8	2back	Block4	2back/STIM_010.jpg	99
2282.711	0.696	696.3	2back	Block4	2back/STIM_010.jpg	100
2286.305	0.667	667.1	2back	Block4	2back/STIM_011.jpg	99
2289.802	0.885	885.4	2back	Block4	2back/STIM_011.jpg	99
2293.717	1.2	1200.4	2back	Block4	2back/STIM_011.jpg	99
2298.165	0.789	789.2	2back	Block4	2back/STIM_012.jpg	100
2302.411	1.148	1147.6	2back	Block4	2back/STIM_012.jpg	99
2307.373	1.116	1115.8	2back	Block4	2back/STIM_012.jpg	99
2311.992	0.797	797.4	2back	Block4	2back/STIM_013.jpg	99
2316.532	0.627	626.6	2back	Block4	2back/STIM_013.jpg	100
2319.24	1.207	1207.3	2back	Block4	2back/STIM_013.jpg	100
2323.135	0.91	910.0	2back	Block4	2back/STIM_014.jpg	99
2327.308	0.635	635.0	2back	Block4	2back/STIM_014.jpg	99
2330.539	0.819	818.8	2back	Block4	2back/STIM_014.jpg	100
2334.486	0.897	896.9	2back	Block4	2back/STIM_015.jpg	100
2337.903	0.677	676.9	2back	Block4	2back/STIM_015.jpg	99
2342.422	0.71	710.0	2back	Block4	2back/STIM_015.jpg	99
2345.219	0.562	561.7	2back	Block4	2back/STIM_016.jpg	99
2348.457	1.079	1078.8	2back	Block4	2back/STIM_016.jpg	99
2353.091	0.603	603.4	2back	Block4	2back/STIM_016.jpg	100
2356.797	0.646	646.3	2back	Block4	2back/STIM_017.jpg	100
2360.675	0.667	667.0	2back	Block4	2back/STIM_017.jpg	99
2365.262	0.637	637.0	2back	Block4	2back/STIM_017.jpg	100
2368.201	0.544	544.4	2back	Block4	2back/STIM_018.jpg	100
2371.83	0.635	635.0	2back	Block4	2back/STIM_018.jpg	100
2376.18	1.124	1124.0	2back	Block4	2back/STIM_018.jpg	99
2380.373	1.063	1062.8	2back	Block4	2back/STIM_019.jpg	100
2385.409	0.948	947.6	2back	Block4	2back/STIM_019.jpg	100
2388.49	1.043	1043.2	2back	Block4	2back/STIM_019.jpg	100
2392.315	0.968	968.4	2back	Block4	2back/STIM_020.jpg	100
2395.865	0.792	792.2	2back	Block4	2back/STIM_020.jpg	100
2400.304	0.63	629.6	2back	Block4	2back/STIM_020.jpg	99
2404.631	0.838	837.7	2back	Block4	2back/STIM_021.jpg	100
2407.597	0.713	713.4	2back	Block4	2back/STIM_021.jpg	99
2411.563	0.705	705.3	2back	Block4	2back/STIM_021.jpg	100
2416.09	0.929	929.2	2back	Block4	2back/STIM_022.jpg	100
2420.031	1.008	1008.0	2back	Block4	2back/STIM_022.jpg	99
2424.886	0.753	752.7	2back	Block4	2back/STIM_022.jpg	99
2429.355	0.784	784.3	2back	Block4	2back/STIM_023.jpg	99
2433.47	0.586	585.8	2back	Block4	2back/STIM_023.jpg	99
2436.814	0.935	935.0	2back	Block4	2back/STIM_023.jpg	100
2441.354	0.968	967.7	2back	Block4	2back/STIM_024.jpg	99
2445.221	0.527	527.0	2back	Block4	2back/STIM_024.jpg	99
2447.803	0.636	636.1	2back	Block4	2back/STIM_024.jpg	99
2451.344	0.757	756.7	2back	Block4	2back/STIM_025.jpg	99
2454.821	1.091	1091.2	2back	Block4	2back/STIM_025.jpg	99
2459.478	0.53	529.5	2back	Block4	2back/STIM_025.jpg	100
2463.224	0.635	635.3	2back	Block4	2back/STIM_026.jpg	100
2467.748	1.073	1072.9	2back	Block4	2back/STIM_026.jpg	99
2470.912	1.017	1017.2	2back	Block4	2back/STIM_026.jpg	100
2474.28	1.155	1155.1	2back	Block4	2back/STIM_027.jpg	100
2477.972	0.56	559.5	2back	Block4	2back/STIM_027.jpg	100
2481.66	0.763	762.6	2back	Block4	2back/STIM_027.jpg	100
2485.38	1.073	1073.4	2back	Block4	2back/STIM_028.jpg	100
2490.277	0.715	715.0	2back	Block4	2back/STIM_028.jpg	99
2494.747	0.755	754.8	2back	Block4	2back/STIM_028.jpg	99
2498.192	0.609	608.7	2back	Block4	2back/STIM_029.jpg	99
2501.459	0.764	763.9	2back	Block4	2back/STIM_029.jpg	99
2505.314	0.597	597.2	2back	Block4	2back/STIM_029.jpg	99
2509.858	0.814	814.1	2back	Block4	2back/STIM_030.jpg	100
2512.965	1.136	1135.8	2back	Block4	2back/STIM_030.jpg	100
2517.252	0.519	518.9	2back	Block4	2back/STIM_030.jpg	100
2521.434	0.828	828.1	2back	Block4	2back/STIM_031.jpg	99
2524.948	0.792	792.5	2back	Block4	2back/STIM_031.jpg	99
2528.765	1.068	1068.2	2back	Block4	2back/STIM_031.jpg	99
2533.271	1.192	1192.3	2back	Block4	2back/STIM_032.jpg	99
2538.421	1.119	1119.2	2back	Block4	2back/STIM_032.jpg	99
2541.636	0.579	578.8	2back	Block4	2back/STIM_032.jpg	100
2545.267	0.715	714.9	2back	Block4	2back/STIM_033.jpg	99
2548.868	1.066	1065.9	2back	Block4	2back/STIM_033.jpg	99
2553.467	0.543	543.3	2back	Block4	2back/STIM_033.jpg	99
2557.471	1.182	1182.0	2back	Block4	2back/STIM_034.jpg	99
2562.174	0.722	722.2	2back	Block4	2back/STIM_034.jpg	99
2565.187	0.71	710.0	2back	Block4	2back/STIM_034.jpg	99
2569.852	0.888	888.3	2back	Block4	2back/STIM_035.jpg	99
2574.548	0.588	587.9	2back	Block4	2back/STIM_035.jpg	100
2578.355	0.606	606.5	2back	Block4	2back/STIM_035.jpg	99
2581.273	0.668	668.2	2back	Block4	2back/STIM_036.jpg	100
2585.484	0.946	945.9	2back	Block4	2back/STIM_036.jpg	99
2589.758	0.54	540.4	2back	Block4	2back/STIM_036.jpg	99
2592.458	0.851	850.9	2back	Block4	2back/STIM_037.jpg	99
2597.0	0.977	977.2	2back	Block4	2back/STIM_037.jpg	99
2600.155	0.615	615.2	2back	Block4	2back/STIM_037.jpg	100
2603.685	1.2	1200.1	2back	Block4	2back/STIM_038.jpg	99
2608.196	0.656	656.5	2back	Block4	2back/STIM_038.jpg	99
2612.046	1.066	1065.5	2back	Block4	2back/STIM_038.jpg	100
2615.222	0.538	538.2	2back	Block4	2back/STIM_039.jpg	99
2618.545	0.685	684.8	2back	Block4	2back/STIM_039.jpg	100
2622.277	0.737	737.4	2back	Block4	2back/STIM_039.jpg	99
2626.216	0.501	500.6	0back	Block4	0back/STIM_000.jpg	100
2629.872	0.566	565.6	0back	Block4	0back/STIM_000.jpg	100
2633.249	0.632	632.3	0back	Block4	0back/STIM_000.jpg	100
2637.231	0.791	790.8	0back	Block4	0back/STIM_001.jpg	99
2641.012	0.859	859.1	0back	Block4	0back/STIM_001.jpg	99
2644.65	0.884	883.9	0back	Block4	0back/STIM_001.jpg	99
2648.778	0.841	840.9	0back	Block4	0back/STIM_002.jpg	100
2652.09	0.984	983.8	0back	Block4	0back/STIM_002.jpg	100
2656.482	0.832	831.8	0back	Block4	0back/STIM_002.jpg	100
2659.662	0.987	987.1	0back	Block4	0back/STIM_003.jpg	100
2663.866	0.599	599.2	0back	Block4	0back/STIM_003.jpg	99
2666.845	0.638	637.6	0back	Block4	0back/STIM_003.jpg	100
2669.552	0.626	626.5	0back	Block4	0back/STIM_004.jpg	100
2672.794	0.598	597.8	0back	Block4	0back/STIM_004.jpg	99
2676.684	0.502	501.6	0back	Block4	0back/STIM_004.jpg	99
2679.393	0.834	834.1	0back	Block4	0back/STIM_005.jpg	99
2684.107	0.961	960.7	0back	Block4	0back/STIM_005.jpg	99
2688.345	0.693	693.3	0back	Block4	0back/STIM_005.jpg	100
2692.27	0.937	937.1	0back	Block4	0back/STIM_006.jpg	99
2695.943	0.663	663.1	0back	Block4	0back/STIM_006.jpg	99
2698.977	0.855	855.4	0back	Block4	0back/STIM_006.jpg	99
2702.792	0.72	720.0	0back	Block4	0back/STIM_007.jpg	100
2707.189	0.712	711.8	0back	Block4	0back/STIM_007.jpg	99
2711.839	0.536	536.5	0back	Block4	0back/STIM_007.jpg	99
2715.367	0.794	794.0	0back	Block4	0back/STIM_008.jpg	100
2719.448	0.875	874.9	0back	Block4	0back/STIM_008.jpg	99
2723.064	0.707	706.7	0back	Block4	0back/STIM_008.jpg	100
2727.052	0.595	594.9	0back	Block4	0back/STIM_009.jpg	100
2730.578	0.835	834.6	0back	Block4	0back/STIM_009.jpg	100
2733.598	0.573	573.1	0back	Block4	0back/STIM_009.jpg	100
2736.765	0.823	823.3	0back	Block4	0back/STIM_010.jpg	99
2740.942	0.732	731.7	0back	Block4	0back/STIM_010.jpg	100
2744.927	0.514	514.4	0back	Block4	0back/STIM_010.jpg	99
2748.335	0.817	817.1	0back	Block4	0back/STIM_011.jpg	100
2752.813	0.766	765.8	0back	Block4	0back/STIM_011.jpg	99
2757.273	0.894	894.3	0back	Block4	0back/STIM_011.jpg	99
2762.148	0.84	840.0	0back	Block4	0back/STIM_012.jpg	100
2765.536	0.962	962.1	0back	Block4	0back/STIM_012.jpg	99
2769.879	0.827	827.0	0back	Block4	0back/STIM_012.jpg	100
2773.728	0.631	630.9	0back	Block4	0back/STIM_013.jpg	100
2778.0	0.53	530.0	0back	Block4	0back/STIM_013.jpg	99
2782.396	0.631	631.0	0back	Block4	0back/STIM_013.jpg	100
2785.738	0.665	664.6	0back	Block4	0back/STIM_014.jpg	99
2788.855	0.579	578.9	0back	Block4	0back/STIM_014.jpg	99
2792.095	0.78	780.2	0back	Block4	0back/STIM_014.jpg	100
2795.609	0.504	504.1	0back	Block4	0back/STIM_015.jpg	99
2799.663	0.801	801.4	0back	Block4	0back/STIM_015.jpg	99
2804.395	0.96	960.1	0back	Block4	0back/STIM_015.jpg	100
2809.181	0.866	865.8	0back	Block4	0back/STIM_016.jpg	100
2812.195	0.934	934.2	0back	Block4	0back/STIM_016.jpg	99
2815.834	0.769	768.6	0back	Block4	0back/STIM_016.jpg	100
2818.756	0.553	552.7	0back	Block4	0back/STIM_017.jpg	99
2822.237	0.974	974.3	0back	Block4	0back/STIM_017.jpg	99
2825.466	0.597	596.8	0back	Block4	0back/STIM_017.jpg	100
2829.549	0.628	628.2	0back	Block4	0back/STIM_018.jpg	100
2832.845	0.636	636.1	0back	Block4	0back/STIM_018.jpg	99
2837.023	0.672	671.5	0back	Block4	0back/STIM_018.jpg	99
2840.938	0.731	730.9	0back	Block4	0back/STIM_019.jpg	99
2845.057	0.884	883.6	0back	Block4	0back/STIM_019.jpg	100
2849.24	0.58	579.7	0back	Block4	0back/STIM_019.jpg	100
