onset	duration	accuracy	trial_type	learning_stage	stimulus
0.0	1.451	correct	2back	Block1	2back/STIM_000.jpg
4.16	1.517	correct	2back	Block1	2back/STIM_000.jpg
8.454	0.727	correct	2back	Block1	2back/STIM_000.jpg
11.898	1.603	correct	2back	Block1	2back/STIM_001.jpg
17.301	1.127	correct	2back	Block1	2back/STIM_001.jpg
21.446	0.894	correct	2back	Block1	2back/STIM_001.jpg
25.502	1.349	incorrect	2back	Block1	2back/STIM_002.jpg
29.693	1.366	correct	2back	Block1	2back/STIM_002.jpg
33.226	0.913	correct	2back	Block1	2back/STIM_002.jpg
37.59	1.163	incorrect	2back	Block1	2back/STIM_003.jpg
41.61	1.627	correct	2back	Block1	2back/STIM_003.jpg
47.163	1.084	correct	2back	Block1	2back/STIM_003.jpg
51.715	1.242	correct	2back	Block1	2back/STIM_004.jpg
56.39	0.99	correct	2back	Block1	2back/STIM_004.jpg
60.634	0.769	incorrect	2back	Block1	2back/STIM_004.jpg
63.567	1.275	incorrect	2back	Block1	2back/STIM_005.jpg
68.599	1.169	correct	2back	Block1	2back/STIM_005.jpg
72.543	1.339	correct	2back	Block1	2back/STIM_005.jpg
76.974	1.363	correct	2back	Block1	2back/STIM_006.jpg
80.831	1.491	correct	2back	Block1	2back/STIM_006.jpg
86.32	1.435	correct	2back	Block1	2back/STIM_006.jpg
91.54	1.717	correct	2back	Block1	2back/STIM_007.jpg
95.877	0.982	correct	2back	Block1	2back/STIM_007.jpg
99.049	1.129	correct	2back	Block1	2back/STIM_007.jpg
102.629	1.079	correct	2back	Block1	2back/STIM_008.jpg
106.231	0.87	correct	2back	Block1	2back/STIM_008.jpg
109.262	1.455	correct	2back	Block1	2back/STIM_008.jpg
114.224	1.457	incorrect	2back	Block1	2back/STIM_009.jpg
118.032	0.772	correct	2back	Block1	2back/STIM_009.jpg
121.065	0.893	correct	2back	Block1	2back/STIM_009.jpg
125.405	0.807	correct	2back	Block1	2back/STIM_010.jpg
129.763	1.424	correct	2back	Block1	2back/STIM_010.jpg
133.55	1.156	incorrect	2back	Block1	2back/STIM_010.jpg
138.621	0.87	correct	2back	Block1	2back/STIM_011.jpg
142.017	1.592	correct	2back	Block1	2back/STIM_011.jpg
146.968	0.74	correct	2back	Block1	2back/STIM_011.jpg
151.28	1.066	correct	2back	Block1	2back/STIM_012.jpg
156.133	1.276	correct	2back	Block1	2back/STIM_012.jpg
159.661	1.101	correct	2back	Block1	2back/STIM_012.jpg
164.244	1.664	correct	2back	Block1	2back/STIM_013.jpg
169.413	1.458	correct	2back	Block1	2back/STIM_013.jpg
173.774	1.435	correct	2back	Block1	2back/STIM_013.jpg
178.991	0.901	incorrect	2back	Block1	2back/STIM_014.jpg
183.233	0.798	correct	2back	Block1	2back/STIM_014.jpg
188.006	1.369	correct	2back	Block1	2back/STIM_014.jpg
192.213	1.371	incorrect	2back	Block1	2back/STIM_015.jpg
197.034	1.176	incorrect	2back	Block1	2back/STIM_015.jpg
200.968	1.534	correct	2back	Block1	2back/STIM_015.jpg
205.908	1.507	correct	2back	Block1	2back/STIM_016.jpg
209.71	1.588	incorrect	2back	Block1	2back/STIM_016.jpg
214.594	1.259	correct	2back	Block1	2back/STIM_016.jpg
219.491	0.911	incorrect	2back	Block1	2back/STIM_017.jpg
223.16	1.306	incorrect	2back	Block1	2back/STIM_017.jpg
227.585	0.84	correct	2back	Block1	2back/STIM_017.jpg
231.849	1.474	incorrect	2back	Block1	2back/STIM_018.jpg
237.107	0.806	incorrect	2back	Block1	2back/STIM_018.jpg
241.391	0.916	correct	2back	Block1	2back/STIM_018.jpg
244.444	1.03	correct	2back	Block1	2back/STIM_019.jpg
248.753	0.868	incorrect	2back	Block1	2back/STIM_019.jpg
252.104	0.847	correct	2back	Block1	2back/STIM_019.jpg
255.904	1.68	correct	2back	Block1	2back/STIM_020.jpg
261.145	1.488	correct	2back	Block1	2back/STIM_020.jpg
265.517	1.357	correct	2back	Block1	2back/STIM_020.jpg
269.947	0.844	incorrect	2back	Block1	2back/STIM_021.jpg
274.022	1.54	incorrect	2back	Block1	2back/STIM_021.jpg
277.812	0.8	incorrect	2back	Block1	2back/STIM_021.jpg
281.796	1.602	correct	2back	Block1	2back/STIM_022.jpg
286.906	1.437	correct	2back	Block1	2back/STIM_022.jpg
290.476	0.769	correct	2back	Block1	2back/STIM_022.jpg
293.897	0.89	incorrect	2back	Block1	2back/STIM_023.jpg
297.677	1.027	correct	2back	Block1	2back/STIM_023.jpg
302.323	1.147	correct	2back	Block1	2back/STIM_023.jpg
306.045	0.865	correct	2back	Block1	2back/STIM_024.jpg
308.996	1.354	correct	2back	Block1	2back/STIM_024.jpg
313.6	0.917	correct	2back	Block1	2back/STIM_024.jpg
317.55	1.7	correct	2back	Block1	2back/STIM_025.jpg
322.932	1.573	incorrect	2back	Block1	2back/STIM_025.jpg
326.571	0.988	incorrect	2back	Block1	2back/STIM_025.jpg
330.497	1.16	correct	2back	Block1	2back/STIM_026.jpg
335.355	1.075	correct	2back	Block1	2back/STIM_026.jpg
339.504	1.436	incorrect	2back	Block1	2back/STIM_026.jpg
343.781	0.863	incorrect	2back	Block1	2back/STIM_027.jpg
347.543	1.244	incorrect	2back	Block1	2back/STIM_027.jpg
352.657	1.218	incorrect	2back	Block1	2back/STIM_027.jpg
356.653	1.559	incorrect	2back	Block1	2back/STIM_028.jpg
360.716	1.159	incorrect	2back	Block1	2back/STIM_028.jpg
363.985	1.372	correct	2back	Block1	2back/STIM_028.jpg
368.086	0.782	correct	2back	Block1	2back/STIM_029.jpg
372.527	0.967	correct	2back	Block1	2back/STIM_029.jpg
377.114	0.698	correct	2back	Block1	2back/STIM_029.jpg
379.837	1.443	correct	2back	Block1	2back/STIM_030.jpg
384.918	1.514	incorrect	2back	Block1	2back/STIM_030.jpg
388.876	1.407	incorrect	2back	Block1	2back/STIM_030.jpg
393.709	1.21	correct	2back	Block1	2back/STIM_031.jpg
398.515	1.466	correct	2back	Block1	2back/STIM_031.jpg
403.214	1.496	incorrect	2back	Block1	2back/STIM_031.jpg
408.542	1.617	incorrect	2back	Block1	2back/STIM_032.jpg
413.531	0.985	incorrect	2back	Block1	2back/STIM_032.jpg
417.784	1.321	correct	2back	Block1	2back/STIM_032.jpg
423.061	1.236	correct	2back	Block1	2back/STIM_033.jpg
426.976	1.32	correct	2back	Block1	2back/STIM_033.jpg
431.636	1.317	correct	2back	Block1	2back/STIM_033.jpg
435.734	1.422	correct	2back	Block1	2back/STIM_034.jpg
440.209	1.3	correct	2back	Block1	2back/STIM_034.jpg
443.646	0.712	correct	2back	Block1	2back/STIM_034.jpg
447.839	1.262	incorrect	2back	Block1	2back/STIM_035.jpg
451.436	1.334	correct	2back	Block1	2back/STIM_035.jpg
455.642	1.448	correct	2back	Block1	2back/STIM_035.jpg
460.971	1.055	incorrect	2back	Block1	2back/STIM_036.jpg
465.215	0.917	correct	2back	Block1	2back/STIM_036.jpg
468.927	1.203	correct	2back	Block1	2back/STIM_036.jpg
473.377	1.291	correct	2back	Block1	2back/STIM_037.jpg
478.555	1.302	correct	2back	Block1	2back/STIM_037.jpg
483.616	1.184	correct	2back	Block1	2back/STIM_037.jpg
488.681	1.15	correct	2back	Block1	2back/STIM_038.jpg
492.128	1.233	incorrect	2back	Block1	2back/STIM_038.jpg
497.04	1.437	correct	2back	Block1	2back/STIM_038.jpg
500.504	0.839	correct	2back	Block1	2back/STIM_039.jpg
503.628	0.856	correct	2back	Block1	2back/STIM_039.jpg
507.735	0.705	correct	2back	Block1	2back/STIM_039.jpg
512.406	0.527	correct	0back	Block1	0back/STIM_000.jpg
515.409	0.583	correct	0back	Block1	0back/STIM_000.jpg
519.926	0.676	incorrect	0back	Block1	0back/STIM_000.jpg
523.774	0.62	correct	0back	Block1	0back/STIM_001.jpg
526.479	0.675	correct	0back	Block1	0back/STIM_001.jpg
530.904	0.855	correct	0back	Block1	0back/STIM_001.jpg
533.85	0.671	correct	0back	Block1	0back/STIM_002.jpg
537.944	0.797	correct	0back	Block1	0back/STIM_002.jpg
542.094	0.826	correct	0back	Block1	0back/STIM_002.jpg
546.305	0.621	incorrect	0back	Block1	0back/STIM_003.jpg
550.212	0.554	correct	0back	Block1	0back/STIM_003.jpg
553.48	0.908	correct	0back	Block1	0back/STIM_003.jpg
556.586	0.856	correct	0back	Block1	0back/STIM_004.jpg
559.902	0.96	correct	0back	Block1	0back/STIM_004.jpg
564.242	0.712	correct	0back	Block1	0back/STIM_004.jpg
566.961	0.699	correct	0back	Block1	0back/STIM_005.jpg
570.095	0.573	correct	0back	Block1	0back/STIM_005.jpg
574.416	0.746	incorrect	0back	Block1	0back/STIM_005.jpg
579.005	0.606	correct	0back	Block1	0back/STIM_006.jpg
583.318	0.591	correct	0back	Block1	0back/STIM_006.jpg
586.126	0.564	correct	0back	Block1	0back/STIM_006.jpg
590.038	0.508	correct	0back	Block1	0back/STIM_007.jpg
592.708	0.631	correct	0back	Block1	0back/STIM_007.jpg
596.047	0.686	correct	0back	Block1	0back/STIM_007.jpg
600.614	0.931	correct	0back	Block1	0back/STIM_008.jpg
605.453	0.87	correct	0back	Block1	0back/STIM_008.jpg
609.328	0.513	correct	0back	Block1	0back/STIM_008.jpg
613.646	0.807	correct	0back	Block1	0back/STIM_009.jpg
618.271	0.887	correct	0back	Block1	0back/STIM_009.jpg
621.9	0.883	incorrect	0back	Block1	0back/STIM_009.jpg
625.011	0.707	correct	0back	Block1	0back/STIM_010.jpg
628.957	0.903	correct	0back	Block1	0back/STIM_010.jpg
632.299	0.526	correct	0back	Block1	0back/STIM_010.jpg
636.199	0.938	correct	0back	Block1	0back/STIM_011.jpg
640.122	0.594	correct	0back	Block1	0back/STIM_011.jpg
643.678	0.967	incorrect	0back	Block1	0back/STIM_011.jpg
647.93	0.954	correct	0back	Block1	0back/STIM_012.jpg
650.892	0.661	correct	0back	Block1	0back/STIM_012.jpg
654.284	0.754	incorrect	0back	Block1	0back/STIM_012.jpg
658.904	0.96	incorrect	0back	Block1	0back/STIM_013.jpg
663.08	0.616	correct	0back	Block1	0back/STIM_013.jpg
666.958	0.926	correct	0back	Block1	0back/STIM_013.jpg
670.175	0.508	correct	0back	Block1	0back/STIM_014.jpg
674.527	0.76	correct	0back	Block1	0back/STIM_014.jpg
678.317	0.814	correct	0back	Block1	0back/STIM_014.jpg
681.509	0.981	incorrect	0back	Block1	0back/STIM_015.jpg
684.947	0.59	correct	0back	Block1	0back/STIM_015.jpg
688.478	0.638	correct	0back	Block1	0back/STIM_015.jpg
691.44	0.579	correct	0back	Block1	0back/STIM_016.jpg
695.524	0.971	correct	0back	Block1	0back/STIM_016.jpg
699.207	0.834	correct	0back	Block1	0back/STIM_016.jpg
702.956	0.642	correct	0back	Block1	0back/STIM_017.jpg
705.968	0.939	correct	0back	Block1	0back/STIM_017.jpg
710.863	0.632	incorrect	0back	Block1	0back/STIM_017.jpg
714.818	0.95	correct	0back	Block1	0back/STIM_018.jpg
718.979	0.705	correct	0back	Block1	0back/STIM_018.jpg
721.74	0.972	correct	0back	Block1	0back/STIM_018.jpg
725.887	0.852	correct	0back	Block1	0back/STIM_019.jpg
728.872	0.929	correct	0back	Block1	0back/STIM_019.jpg
732.416	0.924	correct	0back	Block1	0back/STIM_019.jpg
735.904	1.444	incorrect	2back	Block2	2back/STIM_000.jpg
741.113	0.784	correct	2back	Block2	2back/STIM_000.jpg
744.559	0.915	correct	2back	Block2	2back/STIM_000.jpg
749.172	1.406	incorrect	2back	Block2	2back/STIM_001.jpg
752.907	1.226	correct	2back	Block2	2back/STIM_001.jpg
757.861	0.924	correct	2back	Block2	2back/STIM_001.jpg
761.119	0.811	correct	2back	Block2	2back/STIM_002.jpg
765.772	1.008	incorrect	2back	Block2	2back/STIM_002.jpg
769.326	0.951	incorrect	2back	Block2	2back/STIM_002.jpg
773.075	0.897	correct	2back	Block2	2back/STIM_003.jpg
777.533	0.83	correct	2back	Block2	2back/STIM_003.jpg
782.232	1.197	correct	2back	Block2	2back/STIM_003.jpg
785.86	1.159	correct	2back	Block2	2back/STIM_004.jpg
789.905	1.148	correct	2back	Block2	2back/STIM_004.jpg
794.096	0.812	correct	2back	Block2	2back/STIM_004.jpg
798.722	0.844	incorrect	2back	Block2	2back/STIM_005.jpg
802.751	1.224	correct	2back	Block2	2back/STIM_005.jpg
806.054	1.192	correct	2back	Block2	2back/STIM_005.jpg
809.659	1.132	correct	2back	Block2	2back/STIM_006.jpg
814.551	0.628	correct	2back	Block2	2back/STIM_006.jpg
819.117	0.87	incorrect	2back	Block2	2back/STIM_006.jpg
823.179	1.112	correct	2back	Block2	2back/STIM_007.jpg
827.55	1.363	correct	2back	Block2	2back/STIM_007.jpg
832.783	1.195	correct	2back	Block2	2back/STIM_007.jpg
836.461	0.845	correct	2back	Block2	2back/STIM_008.jpg
839.837	0.909	correct	2back	Block2	2back/STIM_008.jpg
843.493	1.269	correct	2back	Block2	2back/STIM_008.jpg
847.115	1.157	incorrect	2back	Block2	2back/STIM_009.jpg
850.797	0.713	incorrect	2back	Block2	2back/STIM_009.jpg
853.844	0.734	correct	2back	Block2	2back/STIM_009.jpg
858.269	1.442	correct	2back	Block2	2back/STIM_010.jpg
862.366	1.353	incorrect	2back	Block2	2back/STIM_010.jpg
867.265	0.619	correct	2back	Block2	2back/STIM_010.jpg
871.837	0.878	incorrect	2back	Block2	2back/STIM_011.jpg
876.629	0.903	incorrect	2back	Block2	2back/STIM_011.jpg
881.288	0.732	correct	2back	Block2	2back/STIM_011.jpg
885.515	0.894	correct	2back	Block2	2back/STIM_012.jpg
889.699	0.984	incorrect	2back	Block2	2back/STIM_012.jpg
893.129	0.919	correct	2back	Block2	2back/STIM_012.jpg
896.574	0.905	incorrect	2back	Block2	2back/STIM_013.jpg
899.862	1.286	incorrect	2back	Block2	2back/STIM_013.jpg
904.092	1.286	correct	2back	Block2	2back/STIM_013.jpg
908.026	1.35	correct	2back	Block2	2back/STIM_014.jpg
912.795	0.593	correct	2back	Block2	2back/STIM_014.jpg
915.86	0.924	correct	2back	Block2	2back/STIM_014.jpg
919.892	1.267	incorrect	2back	Block2	2back/STIM_015.jpg
923.677	0.884	correct	2back	Block2	2back/STIM_015.jpg
927.603	1.28	correct	2back	Block2	2back/STIM_015.jpg
932.533	1.222	correct	2back	Block2	2back/STIM_016.jpg
937.62	0.922	correct	2back	Block2	2back/STIM_016.jpg
942.491	1.151	correct	2back	Block2	2back/STIM_016.jpg
946.591	1.316	incorrect	2back	Block2	2back/STIM_017.jpg
951.809	1.337	correct	2back	Block2	2back/STIM_017.jpg
956.685	0.584	correct	2back	Block2	2back/STIM_017.jpg
959.56	0.745	correct	2back	Block2	2back/STIM_018.jpg
963.584	0.605	correct	2back	Block2	2back/STIM_018.jpg
967.035	1.115	correct	2back	Block2	2back/STIM_018.jpg
970.867	1.2	correct	2back	Block2	2back/STIM_019.jpg
974.491	1.287	incorrect	2back	Block2	2back/STIM_019.jpg
978.932	0.614	correct	2back	Block2	2back/STIM_019.jpg
982.164	1.066	incorrect	2back	Block2	2back/STIM_020.jpg
986.362	0.738	correct	2back	Block2	2back/STIM_020.jpg
990.875	1.294	correct	2back	Block2	2back/STIM_020.jpg
994.412	0.957	correct	2back	Block2	2back/STIM_021.jpg
999.093	0.934	correct	2back	Block2	2back/STIM_021.jpg
1002.219	1.099	correct	2back	Block2	2back/STIM_021.jpg
1007.117	0.854	correct	2back	Block2	2back/STIM_022.jpg
1011.642	1.38	correct	2back	Block2	2back/STIM_022.jpg
1016.145	0.634	incorrect	2back	Block2	2back/STIM_022.jpg
1020.064	0.672	incorrect	2back	Block2	2back/STIM_023.jpg
1023.621	1.272	correct	2back	Block2	2back/STIM_023.jpg
1028.716	1.287	correct	2back	Block2	2back/STIM_023.jpg
1032.95	1.388	correct	2back	Block2	2back/STIM_024.jpg
1037.725	0.931	correct	2back	Block2	2back/STIM_024.jpg
1041.411	0.882	incorrect	2back	Block2	2back/STIM_024.jpg
1045.379	0.927	correct	2back	Block2	2back/STIM_025.jpg
1048.685	0.923	incorrect	2back	Block2	2back/STIM_025.jpg
1052.724	0.894	correct	2back	Block2	2back/STIM_025.jpg
1056.366	1.446	correct	2back	Block2	2back/STIM_026.jpg
1060.2	0.941	correct	2back	Block2	2back/STIM_026.jpg
1064.624	1.258	correct	2back	Block2	2back/STIM_026.jpg
1068.734	0.64	incorrect	2back	Block2	2back/STIM_027.jpg
1073.169	0.631	correct	2back	Block2	2back/STIM_027.jpg
1075.977	1.089	correct	2back	Block2	2back/STIM_027.jpg
1079.73	0.759	correct	2back	Block2	2back/STIM_028.jpg
1083.977	1.325	correct	2back	Block2	2back/STIM_028.jpg
1087.908	0.654	incorrect	2back	Block2	2back/STIM_028.jpg
1091.917	1.327	incorrect	2back	Block2	2back/STIM_029.jpg
1096.446	1.008	correct	2back	Block2	2back/STIM_029.jpg
1100.122	0.679	correct	2back	Block2	2back/STIM_029.jpg
1103.539	0.973	incorrect	2back	Block2	2back/STIM_030.jpg
1106.942	0.624	incorrect	2back	Block2	2back/STIM_030.jpg
1110.355	0.934	incorrect	2back	Block2	2back/STIM_030.jpg
1114.526	1.323	correct	2back	Block2	2back/STIM_031.jpg
1119.276	0.773	incorrect	2back	Block2	2back/STIM_031.jpg
1123.406	0.664	incorrect	2back	Block2	2back/STIM_031.jpg
1127.474	1.069	incorrect	2back	Block2	2back/STIM_032.jpg
1131.642	1.379	correct	2back	Block2	2back/STIM_032.jpg
1135.978	1.22	correct	2back	Block2	2back/STIM_032.jpg
1140.603	0.897	correct	2back	Block2	2back/STIM_033.jpg
1144.93	1.291	incorrect	2back	Block2	2back/STIM_033.jpg
1148.648	1.144	correct	2back	Block2	2back/STIM_033.jpg
1152.622	1.172	correct	2back	Block2	2back/STIM_034.jpg
1155.904	0.765	correct	2back	Block2	2back/STIM_034.jpg
1159.741	1.074	correct	2back	Block2	2back/STIM_034.jpg
1163.751	1.258	correct	2back	Block2	2back/STIM_035.jpg
1168.971	0.672	correct	2back	Block2	2back/STIM_035.jpg
1173.212	0.886	correct	2back	Block2	2back/STIM_035.jpg
1177.98	1.172	correct	2back	Block2	2back/STIM_036.jpg
1182.585	1.23	correct	2back	Block2	2back/STIM_036.jpg
1187.25	0.558	incorrect	2back	Block2	2back/STIM_036.jpg
1190.701	0.757	correct	2back	Block2	2back/STIM_037.jpg
1193.993	1.034	incorrect	2back	Block2	2back/STIM_037.jpg
1198.567	0.928	correct	2back	Block2	2back/STIM_037.jpg
1203.21	1.355	incorrect	2back	Block2	2back/STIM_038.jpg
1207.305	0.737	incorrect	2back	Block2	2back/STIM_038.jpg
1210.183	1.122	correct	2back	Block2	2back/STIM_038.jpg
1214.223	0.639	correct	2back	Block2	2back/STIM_039.jpg
1217.316	1.033	correct	2back	Block2	2back/STIM_039.jpg
1221.631	0.609	incorrect	2back	Block2	2back/STIM_039.jpg
1225.14	0.821	incorrect	0back	Block2	0back/STIM_000.jpg
1229.45	0.754	correct	0back	Block2	0back/STIM_000.jpg
1233.163	0.909	correct	0back	Block2	0back/STIM_000.jpg
1237.684	0.693	incorrect	0back	Block2	0back/STIM_001.jpg
1240.908	0.89	correct	0back	Block2	0back/STIM_001.jpg
1244.543	0.944	incorrect	0back	Block2	0back/STIM_001.jpg
1248.218	0.676	correct	0back	Block2	0back/STIM_002.jpg
1252.792	0.609	incorrect	0back	Block2	0back/STIM_002.jpg
1257.287	0.614	correct	0back	Block2	0back/STIM_002.jpg
1261.737	0.672	correct	0back	Block2	0back/STIM_003.jpg
1264.956	0.984	correct	0back	Block2	0back/STIM_003.jpg
1269.382	0.845	incorrect	0back	Block2	0back/STIM_003.jpg
1273.294	0.709	correct	0back	Block2	0back/STIM_004.jpg
1276.64	0.54	correct	0back	Block2	0back/STIM_004.jpg
1279.968	0.944	incorrect	0back	Block2	0back/STIM_004.jpg
1283.647	0.55	correct	0back	Block2	0back/STIM_005.jpg
1286.532	0.686	correct	0back	Block2	0back/STIM_005.jpg
1290.862	0.577	incorrect	0back	Block2	0back/STIM_005.jpg
1295.298	0.512	correct	0back	Block2	0back/STIM_006.jpg
1299.189	0.54	incorrect	0back	Block2	0back/STIM_006.jpg
1302.903	0.957	correct	0back	Block2	0back/STIM_006.jpg
1305.9	0.753	correct	0back	Block2	0back/STIM_007.jpg
1309.481	0.952	incorrect	0back	Block2	0back/STIM_007.jpg
1313.031	0.967	incorrect	0back	Block2	0back/STIM_007.jpg
1317.49	0.803	correct	0back	Block2	0back/STIM_008.jpg
1321.821	0.505	correct	0back	Block2	0back/STIM_008.jpg
1325.905	0.676	incorrect	0back	Block2	0back/STIM_008.jpg
1330.148	0.852	correct	0back	Block2	0back/STIM_009.jpg
1334.148	0.979	correct	0back	Block2	0back/STIM_009.jpg
1338.655	0.893	correct	0back	Block2	0back/STIM_009.jpg
1343.448	0.621	correct	0back	Block2	0back/STIM_010.jpg
1346.222	0.84	correct	0back	Block2	0back/STIM_010.jpg
1350.836	0.858	correct	0back	Block2	0back/STIM_010.jpg
1355.084	0.753	correct	0back	Block2	0back/STIM_011.jpg
1358.62	0.742	correct	0back	Block2	0back/STIM_011.jpg
1361.868	0.648	correct	0back	Block2	0back/STIM_011.jpg
1366.447	0.684	correct	0back	Block2	0back/STIM_012.jpg
1369.536	0.514	incorrect	0back	Block2	0back/STIM_012.jpg
1373.855	0.905	incorrect	0back	Block2	0back/STIM_012.jpg
1378.086	0.71	correct	0back	Block2	0back/STIM_013.jpg
1382.006	0.881	correct	0back	Block2	0back/STIM_013.jpg
1385.409	0.546	correct	0back	Block2	0back/STIM_013.jpg
1388.638	0.789	correct	0back	Block2	0back/STIM_014.jpg
1392.521	0.908	correct	0back	Block2	0back/STIM_014.jpg
1396.509	0.852	incorrect	0back	Block2	0back/STIM_014.jpg
1400.984	0.596	incorrect	0back	Block2	0back/STIM_015.jpg
1405.181	0.728	correct	0back	Block2	0back/STIM_015.jpg
1409.549	0.851	incorrect	0back	Block2	0back/STIM_015.jpg
1412.921	0.602	correct	0back	Block2	0back/STIM_016.jpg
1417.182	0.764	correct	0back	Block2	0back/STIM_016.jpg
1420.619	0.889	correct	0back	Block2	0back/STIM_016.jpg
1424.579	0.504	correct	0back	Block2	0back/STIM_017.jpg
1428.639	0.738	incorrect	0back	Block2	0back/STIM_017.jpg
1432.191	0.619	correct	0back	Block2	0back/STIM_017.jpg
1435.817	0.543	correct	0back	Block2	0back/STIM_018.jpg
1439.737	0.619	incorrect	0back	Block2	0back/STIM_018.jpg
1443.179	0.718	incorrect	0back	Block2	0back/STIM_018.jpg
1446.216	0.703	correct	0back	Block2	0back/STIM_019.jpg
1450.443	0.504	correct	0back	Block2	0back/STIM_019.jpg
1454.196	0.914	correct	0back	Block2	0back/STIM_019.jpg
1458.864	1.196	correct	2back	Block3	2back/STIM_000.jpg
1462.285	0.721	correct	2back	Block3	2back/STIM_000.jpg
1465.105	1.016	correct	2back	Block3	2back/STIM_000.jpg
1470.077	0.679	correct	2back	Block3	2back/STIM_001.jpg
1474.66	0.897	incorrect	2back	Block3	2back/STIM_001.jpg
1479.428	0.598	incorrect	2back	Block3	2back/STIM_001.jpg
1483.954	1.056	correct	2back	Block3	2back/STIM_002.jpg
1488.622	0.797	correct	2back	Block3	2back/STIM_002.jpg
1492.843	0.934	correct	2back	Block3	2back/STIM_002.jpg
1496.018	0.56	correct	2back	Block3	2back/STIM_003.jpg
1499.957	0.566	correct	2back	Block3	2back/STIM_003.jpg
1503.548	0.892	correct	2back	Block3	2back/STIM_003.jpg
1507.783	0.723	correct	2back	Block3	2back/STIM_004.jpg
1510.727	0.554	correct	2back	Block3	2back/STIM_004.jpg
1513.505	0.926	incorrect	2back	Block3	2back/STIM_004.jpg
1518.086	0.731	correct	2back	Block3	2back/STIM_005.jpg
1522.535	1.172	incorrect	2back	Block3	2back/STIM_005.jpg
1527.473	0.861	incorrect	2back	Block3	2back/STIM_005.jpg
1532.17	0.953	correct	2back	Block3	2back/STIM_006.jpg
1537.047	0.619	incorrect	2back	Block3	2back/STIM_006.jpg
1541.04	1.141	correct	2back	Block3	2back/STIM_006.jpg
1545.948	1.205	incorrect	2back	Block3	2back/STIM_007.jpg
1550.902	1.038	correct	2back	Block3	2back/STIM_007.jpg
1555.93	1.206	correct	2back	Block3	2back/STIM_007.jpg
1560.356	0.53	correct	2back	Block3	2back/STIM_008.jpg
1563.218	1.187	correct	2back	Block3	2back/STIM_008.jpg
1566.693	0.651	correct	2back	Block3	2back/STIM_008.jpg
1569.867	1.068	correct	2back	Block3	2back/STIM_009.jpg
1573.072	0.537	correct	2back	Block3	2back/STIM_009.jpg
1576.798	1.002	correct	2back	Block3	2back/STIM_009.jpg
1581.086	0.886	incorrect	2back	Block3	2back/STIM_010.jpg
1585.117	0.557	correct	2back	Block3	2back/STIM_010.jpg
1588.906	1.168	correct	2back	Block3	2back/STIM_010.jpg
1593.148	0.849	correct	2back	Block3	2back/STIM_011.jpg
1596.421	0.531	correct	2back	Block3	2back/STIM_011.jpg
1599.391	0.566	incorrect	2back	Block3	2back/STIM_011.jpg
1603.305	0.927	correct	2back	Block3	2back/STIM_012.jpg
1606.63	1.075	correct	2back	Block3	2back/STIM_012.jpg
1611.171	0.839	correct	2back	Block3	2back/STIM_012.jpg
1614.546	0.7	correct	2back	Block3	2back/STIM_013.jpg
1617.885	0.741	correct	2back	Block3	2back/STIM_013.jpg
1622.129	0.906	correct	2back	Block3	2back/STIM_013.jpg
1625.724	0.606	correct	2back	Block3	2back/STIM_014.jpg
1628.832	0.58	correct	2back	Block3	2back/STIM_014.jpg
1633.239	0.908	correct	2back	Block3	2back/STIM_014.jpg
1637.935	0.679	correct	2back	Block3	2back/STIM_015.jpg
1641.042	0.915	correct	2back	Block3	2back/STIM_015.jpg
1645.155	1.128	correct	2back	Block3	2back/STIM_015.jpg
1649.455	1.079	incorrect	2back	Block3	2back/STIM_016.jpg
1652.921	1.082	correct	2back	Block3	2back/STIM_016.jpg
1657.545	0.94	correct	2back	Block3	2back/STIM_016.jpg
1661.779	0.874	correct	2back	Block3	2back/STIM_017.jpg
1665.396	1.021	incorrect	2back	Block3	2back/STIM_017.jpg
1668.912	0.939	correct	2back	Block3	2back/STIM_017.jpg
1673.794	0.97	incorrect	2back	Block3	2back/STIM_018.jpg
1678.095	1.098	correct	2back	Block3	2back/STIM_018.jpg
1682.496	1.026	correct	2back	Block3	2back/STIM_018.jpg
1687.141	0.668	correct	2back	Block3	2back/STIM_019.jpg
1691.405	0.609	correct	2back	Block3	2back/STIM_019.jpg
1695.74	0.746	correct	2back	Block3	2back/STIM_019.jpg
1700.225	1.122	correct	2back	Block3	2back/STIM_020.jpg
1704.228	0.548	incorrect	2back	Block3	2back/STIM_020.jpg
1707.777	1.173	correct	2back	Block3	2back/STIM_020.jpg
1711.03	0.658	correct	2back	Block3	2back/STIM_021.jpg
1713.939	0.995	correct	2back	Block3	2back/STIM_021.jpg
1718.43	1.196	correct	2back	Block3	2back/STIM_021.jpg
1723.438	0.564	correct	2back	Block3	2back/STIM_022.jpg
1727.253	0.858	correct	2back	Block3	2back/STIM_022.jpg
1731.785	1.037	correct	2back	Block3	2back/STIM_022.jpg
1736.676	0.552	correct	2back	Block3	2back/STIM_023.jpg
1739.329	0.98	correct	2back	Block3	2back/STIM_023.jpg
1744.187	0.833	correct	2back	Block3	2back/STIM_023.jpg
1748.344	0.949	correct	2back	Block3	2back/STIM_024.jpg
1752.493	1.09	correct	2back	Block3	2back/STIM_024.jpg
1757.283	0.956	correct	2back	Block3	2back/STIM_024.jpg
1762.119	0.565	correct	2back	Block3	2back/STIM_025.jpg
1765.904	1.067	correct	2back	Block3	2back/STIM_025.jpg
1769.701	0.549	correct	2back	Block3	2back/STIM_025.jpg
1772.749	0.559	correct	2back	Block3	2back/STIM_026.jpg
1776.773	0.876	incorrect	2back	Block3	2back/STIM_026.jpg
1780.575	0.926	correct	2back	Block3	2back/STIM_026.jpg
1785.163	1.196	correct	2back	Block3	2back/STIM_027.jpg
1789.713	0.63	correct	2back	Block3	2back/STIM_027.jpg
1794.204	0.738	correct	2back	Block3	2back/STIM_027.jpg
1798.635	0.812	correct	2back	Block3	2back/STIM_028.jpg
1801.613	0.69	correct	2back	Block3	2back/STIM_028.jpg
1804.791	1.054	correct	2back	Block3	2back/STIM_028.jpg
1808.207	0.967	correct	2back	Block3	2back/STIM_029.jpg
1812.593	0.625	correct	2back	Block3	2back/STIM_029.jpg
1816.643	0.771	correct	2back	Block3	2back/STIM_029.jpg
1821.404	0.951	correct	2back	Block3	2back/STIM_030.jpg
1826.059	1.19	correct	2back	Block3	2back/STIM_030.jpg
1830.523	0.962	correct	2back	Block3	2back/STIM_030.jpg
1835.441	1.119	correct	2back	Block3	2back/STIM_031.jpg
1839.494	0.549	correct	2back	Block3	2back/STIM_031.jpg
1843.319	0.981	correct	2back	Block3	2back/STIM_031.jpg
1847.986	1.103	correct	2back	Block3	2back/STIM_032.jpg
1851.116	1.022	incorrect	2back	Block3	2back/STIM_032.jpg
1854.953	0.783	incorrect	2back	Block3	2back/STIM_032.jpg
1858.111	0.522	correct	2back	Block3	2back/STIM_033.jpg
1861.595	1.142	correct	2back	Block3	2back/STIM_033.jpg
1866.216	1.062	correct	2back	Block3	2back/STIM_033.jpg
1870.672	0.531	incorrect	2back	Block3	2back/STIM_034.jpg
1875.079	0.669	correct	2back	Block3	2back/STIM_034.jpg
1878.361	0.615	incorrect	2back	Block3	2back/STIM_034.jpg
1881.231	0.642	incorrect	2back	Block3	2back/STIM_035.jpg
1885.501	0.807	correct	2back	Block3	2back/STIM_035.jpg
1889.394	1.209	correct	2back	Block3	2back/STIM_035.jpg
1893.655	0.712	correct	2back	Block3	2back/STIM_036.jpg
1898.352	0.777	correct	2back	Block3	2back/STIM_036.jpg
1901.309	0.751	correct	2back	Block3	2back/STIM_036.jpg
1904.256	0.624	correct	2back	Block3	2back/STIM_037.jpg
1907.061	0.672	correct	2back	Block3	2back/STIM_037.jpg
1910.93	1.035	correct	2back	Block3	2back/STIM_037.jpg
1915.378	0.642	correct	2back	Block3	2back/STIM_038.jpg
1918.172	1.162	correct	2back	Block3	2back/STIM_038.jpg
1921.567	1.081	correct	2back	Block3	2back/STIM_038.jpg
1925.796	1.143	correct	2back	Block3	2back/STIM_039.jpg
1929.77	1.089	correct	2back	Block3	2back/STIM_039.jpg
1933.109	0.714	correct	2back	Block3	2back/STIM_039.jpg
1936.604	0.692	correct	0back	Block3	0back/STIM_000.jpg
1940.25	0.819	incorrect	0back	Block3	0back/STIM_000.jpg
1944.247	0.578	correct	0back	Block3	0back/STIM_000.jpg
1946.858	0.576	correct	0back	Block3	0back/STIM_001.jpg
1950.398	0.544	correct	0back	Block3	0back/STIM_001.jpg
1954.624	0.656	correct	0back	Block3	0back/STIM_001.jpg
1958.414	0.557	incorrect	0back	Block3	0back/STIM_002.jpg
1961.6	0.6	correct	0back	Block3	0back/STIM_002.jpg
1964.373	0.542	correct	0back	Block3	0back/STIM_002.jpg
1966.995	0.618	correct	0back	Block3	0back/STIM_003.jpg
1970.041	0.656	correct	0back	Block3	0back/STIM_003.jpg
1973.358	0.59	correct	0back	Block3	0back/STIM_003.jpg
1977.724	0.708	correct	0back	Block3	0back/STIM_004.jpg
1980.626	0.806	incorrect	0back	Block3	0back/STIM_004.jpg
1984.461	0.711	incorrect	0back	Block3	0back/STIM_004.jpg
1987.532	0.988	incorrect	0back	Block3	0back/STIM_005.jpg
1992.375	0.595	correct	0back	Block3	0back/STIM_005.jpg
1995.358	0.86	correct	0back	Block3	0back/STIM_005.jpg
1998.408	0.833	correct	0back	Block3	0back/STIM_006.jpg
2002.412	0.956	correct	0back	Block3	0back/STIM_006.jpg
2005.603	0.714	incorrect	0back	Block3	0back/STIM_006.jpg
2009.107	0.626	correct	0back	Block3	0back/STIM_007.jpg
2012.992	0.743	correct	0back	Block3	0back/STIM_007.jpg
2017.303	0.712	correct	0back	Block3	0back/STIM_007.jpg
2021.063	0.935	incorrect	0back	Block3	0back/STIM_008.jpg
2025.423	0.917	correct	0back	Block3	0back/STIM_008.jpg
2029.483	0.772	correct	0back	Block3	0back/STIM_008.jpg
2033.573	0.88	incorrect	0back	Block3	0back/STIM_009.jpg
2038.268	0.671	correct	0back	Block3	0back/STIM_009.jpg
2041.68	0.578	incorrect	0back	Block3	0back/STIM_009.jpg
2045.449	0.914	correct	0back	Block3	0back/STIM_010.jpg
2048.638	0.795	correct	0back	Block3	0back/STIM_010.jpg
2051.935	0.827	correct	0back	Block3	0back/STIM_010.jpg
2055.812	0.53	correct	0back	Block3	0back/STIM_011.jpg
2059.777	0.919	correct	0back	Block3	0back/STIM_011.jpg
2063.711	0.968	correct	0back	Block3	0back/STIM_011.jpg
2067.623	0.758	correct	0back	Block3	0back/STIM_012.jpg
2072.376	0.697	correct	0back	Block3	0back/STIM_012.jpg
2075.976	0.91	correct	0back	Block3	0back/STIM_012.jpg
2079.548	0.606	correct	0back	Block3	0back/STIM_013.jpg
2083.063	0.872	incorrect	0back	Block3	0back/STIM_013.jpg
2087.042	0.654	incorrect	0back	Block3	0back/STIM_013.jpg
2090.144	0.877	incorrect	0back	Block3	0back/STIM_014.jpg
2093.814	0.63	correct	0back	Block3	0back/STIM_014.jpg
2098.031	0.969	correct	0back	Block3	0back/STIM_014.jpg
2101.481	0.57	correct	0back	Block3	0back/STIM_015.jpg
2104.661	0.904	correct	0back	Block3	0back/STIM_015.jpg
2108.28	0.635	incorrect	0back	Block3	0back/STIM_015.jpg
2111.816	0.664	incorrect	0back	Block3	0back/STIM_016.jpg
2115.053	0.817	correct	0back	Block3	0back/STIM_016.jpg
2119.411	0.928	correct	0back	Block3	0back/STIM_016.jpg
2123.493	0.589	correct	0back	Block3	0back/STIM_017.jpg
2127.625	0.544	correct	0back	Block3	0back/STIM_017.jpg
2131.052	0.953	correct	0back	Block3	0back/STIM_017.jpg
2134.335	0.868	correct	0back	Block3	0back/STIM_018.jpg
2138.551	0.94	correct	0back	Block3	0back/STIM_018.jpg
2142.993	0.909	correct	0back	Block3	0back/STIM_018.jpg
2147.141	0.911	correct	0back	Block3	0back/STIM_019.jpg
2150.644	0.711	correct	0back	Block3	0back/STIM_019.jpg
2153.39	0.977	correct	0back	Block3	0back/STIM_019.jpg
2156.618	0.952	correct	2back	Block4	2back/STIM_000.jpg
2161.251	0.826	correct	2back	Block4	2back/STIM_000.jpg
2164.684	1.055	correct	2back	Block4	2back/STIM_000.jpg
2168.583	0.898	correct	2back	Block4	2back/STIM_001.jpg
2172.603	0.948	incorrect	2back	Block4	2back/STIM_001.jpg
2176.697	0.91	incorrect	2back	Block4	2back/STIM_001.jpg
2180.038	1.07	correct	2back	Block4	2back/STIM_002.jpg
2184.607	0.981	correct	2back	Block4	2back/STIM_002.jpg
2188.934	1.093	correct	2back	Block4	2back/STIM_002.jpg
2192.553	0.93	correct	2back	Block4	2back/STIM_003.jpg
2196.45	0.677	correct	2back	Block4	2back/STIM_003.jpg
2201.028	0.865	correct	2back	Block4	2back/STIM_003.jpg
2204.107	0.554	correct	2back	Block4	2back/STIM_004.jpg
2207.022	1.178	correct	2back	Block4	2back/STIM_004.jpg
2210.66	0.669	correct	2back	Block4	2back/STIM_004.jpg
2214.349	0.553	correct	2back	Block4	2back/STIM_005.jpg
2218.8	0.727	correct	2back	Block4	2back/STIM_005.jpg
2223.266	0.871	correct	2back	Block4	2back/STIM_005.jpg
2226.869	0.956	correct	2back	Block4	2back/STIM_006.jpg
2230.27	0.868	correct	2back	Block4	2back/STIM_006.jpg
2234.08	1.006	correct	2back	Block4	2back/STIM_006.jpg
2238.001	0.997	correct	2back	Block4	2back/STIM_007.jpg
2241.803	0.676	correct	2back	Block4	2back/STIM_007.jpg
2245.277	0.994	correct	2back	Block4	2back/STIM_007.jpg
2249.849	0.637	incorrect	2back	Block4	2back/STIM_008.jpg
2253.23	1.045	correct	2back	Block4	2back/STIM_008.jpg
2257.22	0.944	incorrect	2back	Block4	2back/STIM_008.jpg
2261.649	0.741	correct	2back	Block4	2back/STIM_009.jpg
2264.965	1.184	incorrect	2back	Block4	2back/STIM_009.jpg
2269.528	0.884	correct	2back	Block4	2back/STIM_009.jpg
2274.13	0.61	correct	2back	Block4	2back/STIM_010.jpg
2278.22	1.127	correct	2back	Block4	2back/STIM_010.jpg
2282.711	0.696	correct	2back	Block4	2back/STIM_010.jpg
2286.305	0.667	correct	2back	Block4	2back/STIM_011.jpg
2289.802	0.885	correct	2back	Block4	2back/STIM_011.jpg
2293.717	1.2	correct	2back	Block4	2back/STIM_011.jpg
2298.165	0.789	incorrect	2back	Block4	2back/STIM_012.jpg
2302.411	1.148	correct	2back	Block4	2back/STIM_012.jpg
2307.373	1.116	correct	2back	Block4	2back/STIM_012.jpg
2311.992	0.797	correct	2back	Block4	2back/STIM_013.jpg
2316.532	0.627	correct	2back	Block4	2back/STIM_013.jpg
2319.24	1.207	incorrect	2back	Block4	2back/STIM_013.jpg
2323.135	0.91	correct	2back	Block4	2back/STIM_014.jpg
2327.308	0.635	correct	2back	Block4	2back/STIM_014.jpg
2330.539	0.819	correct	2back	Block4	2back/STIM_014.jpg
2334.486	0.897	correct	2back	Block4	2back/STIM_015.jpg
2337.903	0.677	correct	2back	Block4	2back/STIM_015.jpg
2342.422	0.71	correct	2back	Block4	2back/STIM_015.jpg
2345.219	0.562	correct	2back	Block4	2back/STIM_016.jpg
2348.457	1.079	correct	2back	Block4	2back/STIM_016.jpg
2353.091	0.603	correct	2back	Block4	2back/STIM_016.jpg
2356.797	0.646	correct	2back	Block4	2back/STIM_017.jpg
2360.675	0.667	correct	2back	Block4	2back/STIM_017.jpg
2365.262	0.637	correct	2back	Block4	2back/STIM_017.jpg
2368.201	0.544	correct	2back	Block4	2back/STIM_018.jpg
2371.83	0.635	correct	2back	Block4	2back/STIM_018.jpg
2376.18	1.124	correct	2back	Block4	2back/STIM_018.jpg
2380.373	1.063	correct	2back	Block4	2back/STIM_019.jpg
2385.409	0.948	correct	2back	Block4	2back/STIM_019.jpg
2388.49	1.043	correct	2back	Block4	2back/STIM_019.jpg
2392.315	0.968	correct	2back	Block4	2back/STIM_020.jpg
2395.865	0.792	correct	2back	Block4	2back/STIM_020.jpg
2400.304	0.63	correct	2back	Block4	2back/STIM_020.jpg
2404.631	0.838	correct	2back	Block4	2back/STIM_021.jpg
2407.597	0.713	correct	2back	Block4	2back/STIM_021.jpg
2411.563	0.705	correct	2back	Block4	2back/STIM_021.jpg
2416.09	0.929	correct	2back	Block4	2back/STIM_022.jpg
2420.031	1.008	correct	2back	Block4	2back/STIM_022.jpg
2424.886	0.753	correct	2back	Block4	2back/STIM_022.jpg
2429.355	0.784	correct	2back	Block4	2back/STIM_023.jpg
2433.47	0.586	correct	2back	Block4	2back/STIM_023.jpg
2436.814	0.935	correct	2back	Block4	2back/STIM_023.jpg
2441.354	0.968	correct	2back	Block4	2back/STIM_024.jpg
2445.221	0.527	correct	2back	Block4	2back/STIM_024.jpg
2447.803	0.636	correct	2back	Block4	2back/STIM_024.jpg
2451.344	0.757	incorrect	2back	Block4	2back/STIM_025.jpg
2454.821	1.091	correct	2back	Block4	2back/STIM_025.jpg
2459.478	0.53	correct	2back	Block4	2back/STIM_025.jpg
2463.224	0.635	correct	2back	Block4	2back/STIM_026.jpg
2467.748	1.073	correct	2back	Block4	2back/STIM_026.jpg
2470.912	1.017	correct	2back	Block4	2back/STIM_026.jpg
2474.28	1.155	correct	2back	Block4	2back/STIM_027.jpg
2477.972	0.56	correct	2back	Block4	2back/STIM_027.jpg
2481.66	0.763	correct	2back	Block4	2back/STIM_027.jpg
2485.38	1.073	correct	2back	Block4	2back/STIM_028.jpg
2490.277	0.715	correct	2back	Block4	2back/STIM_028.jpg
2494.747	0.755	correct	2back	Block4	2back/STIM_028.jpg
2498.192	0.609	correct	2back	Block4	2back/STIM_029.jpg
2501.459	0.764	incorrect	2back	Block4	2back/STIM_029.jpg
2505.314	0.597	correct	2back	Block4	2back/STIM_029.jpg
2509.858	0.814	correct	2back	Block4	2back/STIM_030.jpg
2512.965	1.136	correct	2back	Block4	2back/STIM_030.jpg
2517.252	0.519	correct	2back	Block4	2back/STIM_030.jpg
2521.434	0.828	correct	2back	Block4	2back/STIM_031.jpg
2524.948	0.792	correct	2back	Block4	2back/STIM_031.jpg
2528.765	1.068	correct	2back	Block4	2back/STIM_031.jpg
2533.271	1.192	correct	2back	Block4	2back/STIM_032.jpg
2538.421	1.119	correct	2back	Block4	2back/STIM_032.jpg
2541.636	0.579	correct	2back	Block4	2back/STIM_032.jpg
2545.267	0.715	correct	2back	Block4	2back/STIM_033.jpg
2548.868	1.066	correct	2back	Block4	2back/STIM_033.jpg
2553.467	0.543	correct	2back	Block4	2back/STIM_033.jpg
2557.471	1.182	incorrect	2back	Block4	2back/STIM_034.jpg
2562.174	0.722	correct	2back	Block4	2back/STIM_034.jpg
2565.187	0.71	correct	2back	Block4	2back/STIM_034.jpg
2569.852	0.888	correct	2back	Block4	2back/STIM_035.jpg
2574.548	0.588	correct	2back	Block4	2back/STIM_035.jpg
2578.355	0.606	correct	2back	Block4	2back/STIM_035.jpg
2581.273	0.668	correct	2back	Block4	2back/STIM_036.jpg
2585.484	0.946	correct	2back	Block4	2back/STIM_036.jpg
2589.758	0.54	correct	2back	Block4	2back/STIM_036.jpg
2592.458	0.851	correct	2back	Block4	2back/STIM_037.jpg
2597.0	0.977	correct	2back	Block4	2back/STIM_037.jpg
2600.155	0.615	correct	2back	Block4	2back/STIM_037.jpg
2603.685	1.2	correct	2back	Block4	2back/STIM_038.jpg
2608.196	0.656	correct	2back	Block4	2back/STIM_038.jpg
2612.046	1.066	incorrect	2back	Block4	2back/STIM_038.jpg
2615.222	0.538	correct	2back	Block4	2back/STIM_039.jpg
2618.545	0.685	correct	2back	Block4	2back/STIM_039.jpg
2622.277	0.737	correct	2back	Block4	2back/STIM_039.jpg
2626.216	0.501	correct	0back	Block4	0back/STIM_000.jpg
2629.872	0.566	correct	0back	Block4	0back/STIM_000.jpg
2633.249	0.632	correct	0back	Block4	0back/STIM_000.jpg
2637.231	0.791	correct	0back	Block4	0back/STIM_001.jpg
2641.012	0.859	incorrect	0back	Block4	0back/STIM_001.jpg
2644.65	0.884	correct	0back	Block4	0back/STIM_001.jpg
2648.778	0.841	correct	0back	Block4	0back/STIM_002.jpg
2652.09	0.984	incorrect	0back	Block4	0back/STIM_002.jpg
2656.482	0.832	incorrect	0back	Block4	0back/STIM_002.jpg
2659.662	0.987	incorrect	0back	Block4	0back/STIM_003.jpg
2663.866	0.599	correct	0back	Block4	0back/STIM_003.jpg
2666.845	0.638	correct	0back	Block4	0back/STIM_003.jpg
2669.552	0.626	correct	0back	Block4	0back/STIM_004.jpg
2672.794	0.598	correct	0back	Block4	0back/STIM_004.jpg
2676.684	0.502	correct	0back	Block4	0back/STIM_004.jpg
2679.393	0.834	incorrect	0back	Block4	0back/STIM_005.jpg
2684.107	0.961	incorrect	0back	Block4	0back/STIM_005.jpg
2688.345	0.693	correct	0back	Block4	0back/STIM_005.jpg
2692.27	0.937	correct	0back	Block4	0back/STIM_006.jpg
2695.943	0.663	correct	0back	Block4	0back/STIM_006.jpg
2698.977	0.855	correct	0back	Block4	0back/STIM_006.jpg
2702.792	0.72	correct	0back	Block4	0back/STIM_007.jpg
2707.189	0.712	correct	0back	Block4	0back/STIM_007.jpg
2711.839	0.536	correct	0back	Block4	0back/STIM_007.jpg
2715.367	0.794	correct	0back	Block4	0back/STIM_008.jpg
2719.448	0.875	correct	0back	Block4	0back/STIM_008.jpg
2723.064	0.707	correct	0back	Block4	0back/STIM_008.jpg
2727.052	0.595	correct	0back	Block4	0back/STIM_009.jpg
2730.578	0.835	correct	0back	Block4	0back/STIM_009.jpg
2733.598	0.573	correct	0back	Block4	0back/STIM_009.jpg
2736.765	0.823	correct	0back	Block4	0back/STIM_010.jpg
2740.942	0.732	correct	0back	Block4	0back/STIM_010.jpg
2744.927	0.514	correct	0back	Block4	0back/STIM_010.jpg
2748.335	0.817	incorrect	0back	Block4	0back/STIM_011.jpg
2752.813	0.766	correct	0back	Block4	0back/STIM_011.jpg
2757.273	0.894	correct	0back	Block4	0back/STIM_011.jpg
2762.148	0.84	incorrect	0back	Block4	0back/STIM_012.jpg
2765.536	0.962	incorrect	0back	Block4	0back/STIM_012.jpg
2769.879	0.827	correct	0back	Block4	0back/STIM_012.jpg
2773.728	0.631	correct	0back	Block4	0back/STIM_013.jpg
2778.0	0.53	correct	0back	Block4	0back/STIM_013.jpg
2782.396	0.631	correct	0back	Block4	0back/STIM_013.jpg
2785.738	0.665	correct	0back	Block4	0back/STIM_014.jpg
2788.855	0.579	correct	0back	Block4	0back/STIM_014.jpg
2792.095	0.78	correct	0back	Block4	0back/STIM_014.jpg
2795.609	0.504	correct	0back	Block4	0back/STIM_015.jpg
2799.663	0.801	correct	0back	Block4	0back/STIM_015.jpg
2804.395	0.96	correct	0back	Block4	0back/STIM_015.jpg
2809.181	0.866	correct	0back	Block4	0back/STIM_016.jpg
2812.195	0.934	incorrect	0back	Block4	0back/STIM_016.jpg
2815.834	0.769	correct	0back	Block4	0back/STIM_016.jpg
2818.756	0.553	correct	0back	Block4	0back/STIM_017.jpg
2822.237	0.974	correct	0back	Block4	0back/STIM_017.jpg
2825.466	0.597	correct	0back	Block4	0back/STIM_017.jpg
2829.549	0.628	correct	0back	Block4	0back/STIM_018.jpg
2832.845	0.636	correct	0back	Block4	0back/STIM_018.jpg
2837.023	0.672	correct	0back	Block4	0back/STIM_018.jpg
2840.938	0.731	correct	0back	Block4	0back/STIM_019.jpg
2845.057	0.884	correct	0back	Block4	0back/STIM_019.jpg
2849.24	0.58	correct	0back	Block4	0back/STIM_019.jpg
