onset	duration	accuracy_binary	trial_type	learning_stage	stimulus
0.0	1.451	1	2back	Block1	2back/STIM_000.jpg
4.16	1.517	1	2back	Block1	2back/STIM_000.jpg
8.454	0.727	1	2back	Block1	2back/STIM_000.jpg
11.898	1.603	1	2back	Block1	2back/STIM_001.jpg
17.301	1.127	1	2back	Block1	2back/STIM_001.jpg
21.446	0.894	1	2back	Block1	2back/STIM_001.jpg
25.502	1.349	0	2back	Block1	2back/STIM_002.jpg
29.693	1.366	1	2back	Block1	2back/STIM_002.jpg
33.226	0.913	1	2back	Block1	2back/STIM_002.jpg
37.59	1.163	0	2back	Block1	2back/STIM_003.jpg
41.61	1.627	1	2back	Block1	2back/STIM_003.jpg
47.163	1.084	1	2back	Block1	2back/STIM_003.jpg
51.715	1.242	1	2back	Block1	2back/STIM_004.jpg
56.39	0.99	1	2back	Block1	2back/STIM_004.jpg
60.634	0.769	0	2back	Block1	2back/STIM_004.jpg
63.567	1.275	0	2back	Block1	2back/STIM_005.jpg
68.599	1.169	1	2back	Block1	2back/STIM_005.jpg
72.543	1.339	1	2back	Block1	2back/STIM_005.jpg
76.974	1.363	1	2back	Block1	2back/STIM_006.jpg
80.831	1.491	1	2back	Block1	2back/STIM_006.jpg
86.32	1.435	1	2back	Block1	2back/STIM_006.jpg
91.54	1.717	1	2back	Block1	2back/STIM_007.jpg
95.877	0.982	1	2back	Block1	2back/STIM_007.jpg
99.049	1.129	1	2back	Block1	2back/STIM_007.jpg
102.629	1.079	1	2back	Block1	2back/STIM_008.jpg
106.231	0.87	1	2back	Block1	2back/STIM_008.jpg
109.262	1.455	1	2back	Block1	2back/STIM_008.jpg
114.224	1.457	0	2back	Block1	2back/STIM_009.jpg
118.032	0.772	1	2back	Block1	2back/STIM_009.jpg
121.065	0.893	1	2back	Block1	2back/STIM_009.jpg
125.405	0.807	1	2back	Block1	2back/STIM_010.jpg
129.763	1.424	1	2back	Block1	2back/STIM_010.jpg
133.55	1.156	0	2back	Block1	2back/STIM_010.jpg
138.621	0.87	1	2back	Block1	2back/STIM_011.jpg
142.017	1.592	1	2back	Block1	2back/STIM_011.jpg
146.968	0.74	1	2back	Block1	2back/STIM_011.jpg
151.28	1.066	1	2back	Block1	2back/STIM_012.jpg
156.133	1.276	1	2back	Block1	2back/STIM_012.jpg
159.661	1.101	1	2back	Block1	2back/STIM_012.jpg
164.244	1.664	1	2back	Block1	2back/STIM_013.jpg
169.413	1.458	1	2back	Block1	2back/STIM_013.jpg
173.774	1.435	1	2back	Block1	2back/STIM_013.jpg
178.991	0.901	0	2back	Block1	2back/STIM_014.jpg
183.233	0.798	1	2back	Block1	2back/STIM_014.jpg
188.006	1.369	1	2back	Block1	2back/STIM_014.jpg
192.213	1.371	0	2back	Block1	2back/STIM_015.jpg
197.034	1.176	0	2back	Block1	2back/STIM_015.jpg
200.968	1.534	1	2back	Block1	2back/STIM_015.jpg
205.908	1.507	1	2back	Block1	2back/STIM_016.jpg
209.71	1.588	0	2back	Block1	2back/STIM_016.jpg
214.594	1.259	1	2back	Block1	2back/STIM_016.jpg
219.491	0.911	0	2back	Block1	2back/STIM_017.jpg
223.16	1.306	0	2back	Block1	2back/STIM_017.jpg
227.585	0.84	1	2back	Block1	2back/STIM_017.jpg
231.849	1.474	0	2back	Block1	2back/STIM_018.jpg
237.107	0.806	0	2back	Block1	2back/STIM_018.jpg
241.391	0.916	1	2back	Block1	2back/STIM_018.jpg
244.444	1.03	1	2back	Block1	2back/STIM_019.jpg
248.753	0.868	0	2back	Block1	2back/STIM_019.jpg
252.104	0.847	1	2back	Block1	2back/STIM_019.jpg
255.904	1.68	1	2back	Block1	2back/STIM_020.jpg
261.145	1.488	1	2back	Block1	2back/STIM_020.jpg
265.517	1.357	1	2back	Block1	2back/STIM_020.jpg
269.947	0.844	0	2back	Block1	2back/STIM_021.jpg
274.022	1.54	0	2back	Block1	2back/STIM_021.jpg
277.812	0.8	0	2back	Block1	2back/STIM_021.jpg
281.796	1.602	1	2back	Block1	2back/STIM_022.jpg
286.906	1.437	1	2back	Block1	2back/STIM_022.jpg
290.476	0.769	1	2back	Block1	2back/STIM_022.jpg
293.897	0.89	0	2back	Block1	2back/STIM_023.jpg
297.677	1.027	1	2back	Block1	2back/STIM_023.jpg
302.323	1.147	1	2back	Block1	2back/STIM_023.jpg
306.045	0.865	1	2back	Block1	2back/STIM_024.jpg
308.996	1.354	1	2back	Block1	2back/STIM_024.jpg
313.6	0.917	1	2back	Block1	2back/STIM_024.jpg
317.55	1.7	1	2back	Block1	2back/STIM_025.jpg
322.932	1.573	0	2back	Block1	2back/STIM_025.jpg
326.571	0.988	0	2back	Block1	2back/STIM_025.jpg
330.497	1.16	1	2back	Block1	2back/STIM_026.jpg
335.355	1.075	1	2back	Block1	2back/STIM_026.jpg
339.504	1.436	0	2back	Block1	2back/STIM_026.jpg
343.781	0.863	0	2back	Block1	2back/STIM_027.jpg
347.543	1.244	0	2back	Block1	2back/STIM_027.jpg
352.657	1.218	0	2back	Block1	2back/STIM_027.jpg
356.653	1.559	0	2back	Block1	2back/STIM_028.jpg
360.716	1.159	0	2back	Block1	2back/STIM_028.jpg
363.985	1.372	1	2back	Block1	2back/STIM_028.jpg
368.086	0.782	1	2back	Block1	2back/STIM_029.jpg
372.527	0.967	1	2back	Block1	2back/STIM_029.jpg
377.114	0.698	1	2back	Block1	2back/STIM_029.jpg
379.837	1.443	1	2back	Block1	2back/STIM_030.jpg
384.918	1.514	0	2back	Block1	2back/STIM_030.jpg
388.876	1.407	0	2back	Block1	2back/STIM_030.jpg
393.709	1.21	1	2back	Block1	2back/STIM_031.jpg
398.515	1.466	1	2back	Block1	2back/STIM_031.jpg
403.214	1.496	0	2back	Block1	2back/STIM_031.jpg
408.542	1.617	0	2back	Block1	2back/STIM_032.jpg
413.531	0.985	0	2back	Block1	2back/STIM_032.jpg
417.784	1.321	1	2back	Block1	2back/STIM_032.jpg
423.061	1.236	1	2back	Block1	2back/STIM_033.jpg
426.976	1.32	1	2back	Block1	2back/STIM_033.jpg
431.636	1.317	1	2back	Block1	2back/STIM_033.jpg
435.734	1.422	1	2back	Block1	2back/STIM_034.jpg
440.209	1.3	1	2back	Block1	2back/STIM_034.jpg
443.646	0.712	1	2back	Block1	2back/STIM_034.jpg
447.839	1.262	0	2back	Block1	2back/STIM_035.jpg
451.436	1.334	1	2back	Block1	2back/STIM_035.jpg
455.642	1.448	1	2back	Block1	2back/STIM_035.jpg
460.971	1.055	0	2back	Block1	2back/STIM_036.jpg
465.215	0.917	1	2back	Block1	2back/STIM_036.jpg
468.927	1.203	1	2back	Block1	2back/STIM_036.jpg
473.377	1.291	1	2back	Block1	2back/STIM_037.jpg
478.555	1.302	1	2back	Block1	2back/STIM_037.jpg
483.616	1.184	1	2back	Block1	2back/STIM_037.jpg
488.681	1.15	1	2back	Block1	2back/STIM_038.jpg
492.128	1.233	0	2back	Block1	2back/STIM_038.jpg
497.04	1.437	1	2back	Block1	2back/STIM_038.jpg
500.504	0.839	1	2back	Block1	2back/STIM_039.jpg
503.628	0.856	1	2back	Block1	2back/STIM_039.jpg
507.735	0.705	1	2back	Block1	2back/STIM_039.jpg
512.406	0.527	1	0back	Block1	0back/STIM_000.jpg
515.409	0.583	1	0back	Block1	0back/STIM_000.jpg
519.926	0.676	0	0back	Block1	0back/STIM_000.jpg
523.774	0.62	1	0back	Block1	0back/STIM_001.jpg
526.479	0.675	1	0back	Block1	0back/STIM_001.jpg
530.904	0.855	1	0back	Block1	0back/STIM_001.jpg
533.85	0.671	1	0back	Block1	0back/STIM_002.jpg
537.944	0.797	1	0back	Block1	0back/STIM_002.jpg
542.094	0.826	1	0back	Block1	0back/STIM_002.jpg
546.305	0.621	0	0back	Block1	0back/STIM_003.jpg
550.212	0.554	1	0back	Block1	0back/STIM_003.jpg
553.48	0.908	1	0back	Block1	0back/STIM_003.jpg
556.586	0.856	1	0back	Block1	0back/STIM_004.jpg
559.902	0.96	1	0back	Block1	0back/STIM_004.jpg
564.242	0.712	1	0back	Block1	0back/STIM_004.jpg
566.961	0.699	1	0back	Block1	0back/STIM_005.jpg
570.095	0.573	1	0back	Block1	0back/STIM_005.jpg
574.416	0.746	0	0back	Block1	0back/STIM_005.jpg
579.005	0.606	1	0back	Block1	0back/STIM_006.jpg
583.318	0.591	1	0back	Block1	0back/STIM_006.jpg
586.126	0.564	1	0back	Block1	0back/STIM_006.jpg
590.038	0.508	1	0back	Block1	0back/STIM_007.jpg
592.708	0.631	1	0back	Block1	0back/STIM_007.jpg
596.047	0.686	1	0back	Block1	0back/STIM_007.jpg
600.614	0.931	1	0back	Block1	0back/STIM_008.jpg
605.453	0.87	1	0back	Block1	0back/STIM_008.jpg
609.328	0.513	1	0back	Block1	0back/STIM_008.jpg
613.646	0.807	1	0back	Block1	0back/STIM_009.jpg
618.271	0.887	1	0back	Block1	0back/STIM_009.jpg
621.9	0.883	0	0back	Block1	0back/STIM_009.jpg
625.011	0.707	1	0back	Block1	0back/STIM_010.jpg
628.957	0.903	1	0back	Block1	0back/STIM_010.jpg
632.299	0.526	1	0back	Block1	0back/STIM_010.jpg
636.199	0.938	1	0back	Block1	0back/STIM_011.jpg
640.122	0.594	1	0back	Block1	0back/STIM_011.jpg
643.678	0.967	0	0back	Block1	0back/STIM_011.jpg
647.93	0.954	1	0back	Block1	0back/STIM_012.jpg
650.892	0.661	1	0back	Block1	0back/STIM_012.jpg
654.284	0.754	0	0back	Block1	0back/STIM_012.jpg
658.904	0.96	0	0back	Block1	0back/STIM_013.jpg
663.08	0.616	1	0back	Block1	0back/STIM_013.jpg
666.958	0.926	1	0back	Block1	0back/STIM_013.jpg
670.175	0.508	1	0back	Block1	0back/STIM_014.jpg
674.527	0.76	1	0back	Block1	0back/STIM_014.jpg
678.317	0.814	1	0back	Block1	0back/STIM_014.jpg
681.509	0.981	0	0back	Block1	0back/STIM_015.jpg
684.947	0.59	1	0back	Block1	0back/STIM_015.jpg
688.478	0.638	1	0back	Block1	0back/STIM_015.jpg
691.44	0.579	1	0back	Block1	0back/STIM_016.jpg
695.524	0.971	1	0back	Block1	0back/STIM_016.jpg
699.207	0.834	1	0back	Block1	0back/STIM_016.jpg
702.956	0.642	1	0back	Block1	0back/STIM_017.jpg
705.968	0.939	1	0back	Block1	0back/STIM_017.jpg
710.863	0.632	0	0back	Block1	0back/STIM_017.jpg
714.818	0.95	1	0back	Block1	0back/STIM_018.jpg
718.979	0.705	1	0back	Block1	0back/STIM_018.jpg
721.74	0.972	1	0back	Block1	0back/STIM_018.jpg
725.887	0.852	1	0back	Block1	0back/STIM_019.jpg
728.872	0.929	1	0back	Block1	0back/STIM_019.jpg
732.416	0.924	1	0back	Block1	0back/STIM_019.jpg
735.904	1.444	0	2back	Block2	2back/STIM_000.jpg
741.113	0.784	1	2back	Block2	2back/STIM_000.jpg
744.559	0.915	1	2back	Block2	2back/STIM_000.jpg
749.172	1.406	0	2back	Block2	2back/STIM_001.jpg
752.907	1.226	1	2back	Block2	2back/STIM_001.jpg
757.861	0.924	1	2back	Block2	2back/STIM_001.jpg
761.119	0.811	1	2back	Block2	2back/STIM_002.jpg
765.772	1.008	0	2back	Block2	2back/STIM_002.jpg
769.326	0.951	0	2back	Block2	2back/STIM_002.jpg
773.075	0.897	1	2back	Block2	2back/STIM_003.jpg
777.533	0.83	1	2back	Block2	2back/STIM_003.jpg
782.232	1.197	1	2back	Block2	2back/STIM_003.jpg
785.86	1.159	1	2back	Block2	2back/STIM_004.jpg
789.905	1.148	1	2back	Block2	2back/STIM_004.jpg
794.096	0.812	1	2back	Block2	2back/STIM_004.jpg
798.722	0.844	0	2back	Block2	2back/STIM_005.jpg
802.751	1.224	1	2back	Block2	2back/STIM_005.jpg
806.054	1.192	1	2back	Block2	2back/STIM_005.jpg
809.659	1.132	1	2back	Block2	2back/STIM_006.jpg
814.551	0.628	1	2back	Block2	2back/STIM_006.jpg
819.117	0.87	0	2back	Block2	2back/STIM_006.jpg
823.179	1.112	1	2back	Block2	2back/STIM_007.jpg
827.55	1.363	1	2back	Block2	2back/STIM_007.jpg
832.783	1.195	1	2back	Block2	2back/STIM_007.jpg
836.461	0.845	1	2back	Block2	2back/STIM_008.jpg
839.837	0.909	1	2back	Block2	2back/STIM_008.jpg
843.493	1.269	1	2back	Block2	2back/STIM_008.jpg
847.115	1.157	0	2back	Block2	2back/STIM_009.jpg
850.797	0.713	0	2back	Block2	2back/STIM_009.jpg
853.844	0.734	1	2back	Block2	2back/STIM_009.jpg
858.269	1.442	1	2back	Block2	2back/STIM_010.jpg
862.366	1.353	0	2back	Block2	2back/STIM_010.jpg
867.265	0.619	1	2back	Block2	2back/STIM_010.jpg
871.837	0.878	0	2back	Block2	2back/STIM_011.jpg
876.629	0.903	0	2back	Block2	2back/STIM_011.jpg
881.288	0.732	1	2back	Block2	2back/STIM_011.jpg
885.515	0.894	1	2back	Block2	2back/STIM_012.jpg
889.699	0.984	0	2back	Block2	2back/STIM_012.jpg
893.129	0.919	1	2back	Block2	2back/STIM_012.jpg
896.574	0.905	0	2back	Block2	2back/STIM_013.jpg
899.862	1.286	0	2back	Block2	2back/STIM_013.jpg
904.092	1.286	1	2back	Block2	2back/STIM_013.jpg
908.026	1.35	1	2back	Block2	2back/STIM_014.jpg
912.795	0.593	1	2back	Block2	2back/STIM_014.jpg
915.86	0.924	1	2back	Block2	2back/STIM_014.jpg
919.892	1.267	0	2back	Block2	2back/STIM_015.jpg
923.677	0.884	1	2back	Block2	2back/STIM_015.jpg
927.603	1.28	1	2back	Block2	2back/STIM_015.jpg
932.533	1.222	1	2back	Block2	2back/STIM_016.jpg
937.62	0.922	1	2back	Block2	2back/STIM_016.jpg
942.491	1.151	1	2back	Block2	2back/STIM_016.jpg
946.591	1.316	0	2back	Block2	2back/STIM_017.jpg
951.809	1.337	1	2back	Block2	2back/STIM_017.jpg
956.685	0.584	1	2back	Block2	2back/STIM_017.jpg
959.56	0.745	1	2back	Block2	2back/STIM_018.jpg
963.584	0.605	1	2back	Block2	2back/STIM_018.jpg
967.035	1.115	1	2back	Block2	2back/STIM_018.jpg
970.867	1.2	1	2back	Block2	2back/STIM_019.jpg
974.491	1.287	0	2back	Block2	2back/STIM_019.jpg
978.932	0.614	1	2back	Block2	2back/STIM_019.jpg
982.164	1.066	0	2back	Block2	2back/STIM_020.jpg
986.362	0.738	1	2back	Block2	2back/STIM_020.jpg
990.875	1.294	1	2back	Block2	2back/STIM_020.jpg
994.412	0.957	1	2back	Block2	2back/STIM_021.jpg
999.093	0.934	1	2back	Block2	2back/STIM_021.jpg
1002.219	1.099	1	2back	Block2	2back/STIM_021.jpg
1007.117	0.854	1	2back	Block2	2back/STIM_022.jpg
1011.642	1.38	1	2back	Block2	2back/STIM_022.jpg
1016.145	0.634	0	2back	Block2	2back/STIM_022.jpg
1020.064	0.672	0	2back	Block2	2back/STIM_023.jpg
1023.621	1.272	1	2back	Block2	2back/STIM_023.jpg
1028.716	1.287	1	2back	Block2	2back/STIM_023.jpg
1032.95	1.388	1	2back	Block2	2back/STIM_024.jpg
1037.725	0.931	1	2back	Block2	2back/STIM_024.jpg
1041.411	0.882	0	2back	Block2	2back/STIM_024.jpg
1045.379	0.927	1	2back	Block2	2back/STIM_025.jpg
1048.685	0.923	0	2back	Block2	2back/STIM_025.jpg
1052.724	0.894	1	2back	Block2	2back/STIM_025.jpg
1056.366	1.446	1	2back	Block2	2back/STIM_026.jpg
1060.2	0.941	1	2back	Block2	2back/STIM_026.jpg
1064.624	1.258	1	2back	Block2	2back/STIM_026.jpg
1068.734	0.64	0	2back	Block2	2back/STIM_027.jpg
1073.169	0.631	1	2back	Block2	2back/STIM_027.jpg
1075.977	1.089	1	2back	Block2	2back/STIM_027.jpg
1079.73	0.759	1	2back	Block2	2back/STIM_028.jpg
1083.977	1.325	1	2back	Block2	2back/STIM_028.jpg
1087.908	0.654	0	2back	Block2	2back/STIM_028.jpg
1091.917	1.327	0	2back	Block2	2back/STIM_029.jpg
1096.446	1.008	1	2back	Block2	2back/STIM_029.jpg
1100.122	0.679	1	2back	Block2	2back/STIM_029.jpg
1103.539	0.973	0	2back	Block2	2back/STIM_030.jpg
1106.942	0.624	0	2back	Block2	2back/STIM_030.jpg
1110.355	0.934	0	2back	Block2	2back/STIM_030.jpg
1114.526	1.323	1	2back	Block2	2back/STIM_031.jpg
1119.276	0.773	0	2back	Block2	2back/STIM_031.jpg
1123.406	0.664	0	2back	Block2	2back/STIM_031.jpg
1127.474	1.069	0	2back	Block2	2back/STIM_032.jpg
1131.642	1.379	1	2back	Block2	2back/STIM_032.jpg
1135.978	1.22	1	2back	Block2	2back/STIM_032.jpg
1140.603	0.897	1	2back	Block2	2back/STIM_033.jpg
1144.93	1.291	0	2back	Block2	2back/STIM_033.jpg
1148.648	1.144	1	2back	Block2	2back/STIM_033.jpg
1152.622	1.172	1	2back	Block2	2back/STIM_034.jpg
1155.904	0.765	1	2back	Block2	2back/STIM_034.jpg
1159.741	1.074	1	2back	Block2	2back/STIM_034.jpg
1163.751	1.258	1	2back	Block2	2back/STIM_035.jpg
1168.971	0.672	1	2back	Block2	2back/STIM_035.jpg
1173.212	0.886	1	2back	Block2	2back/STIM_035.jpg
1177.98	1.172	1	2back	Block2	2back/STIM_036.jpg
1182.585	1.23	1	2back	Block2	2back/STIM_036.jpg
1187.25	0.558	0	2back	Block2	2back/STIM_036.jpg
1190.701	0.757	1	2back	Block2	2back/STIM_037.jpg
1193.993	1.034	0	2back	Block2	2back/STIM_037.jpg
1198.567	0.928	1	2back	Block2	2back/STIM_037.jpg
1203.21	1.355	0	2back	Block2	2back/STIM_038.jpg
1207.305	0.737	0	2back	Block2	2back/STIM_038.jpg
1210.183	1.122	1	2back	Block2	2back/STIM_038.jpg
1214.223	0.639	1	2back	Block2	2back/STIM_039.jpg
1217.316	1.033	1	2back	Block2	2back/STIM_039.jpg
1221.631	0.609	0	2back	Block2	2back/STIM_039.jpg
1225.14	0.821	0	0back	Block2	0back/STIM_000.jpg
1229.45	0.754	1	0back	Block2	0back/STIM_000.jpg
1233.163	0.909	1	0back	Block2	0back/STIM_000.jpg
1237.684	0.693	0	0back	Block2	0back/STIM_001.jpg
1240.908	0.89	1	0back	Block2	0back/STIM_001.jpg
1244.543	0.944	0	0back	Block2	0back/STIM_001.jpg
1248.218	0.676	1	0back	Block2	0back/STIM_002.jpg
1252.792	0.609	0	0back	Block2	0back/STIM_002.jpg
1257.287	0.614	1	0back	Block2	0back/STIM_002.jpg
1261.737	0.672	1	0back	Block2	0back/STIM_003.jpg
1264.956	0.984	1	0back	Block2	0back/STIM_003.jpg
1269.382	0.845	0	0back	Block2	0back/STIM_003.jpg
1273.294	0.709	1	0back	Block2	0back/STIM_004.jpg
1276.64	0.54	1	0back	Block2	0back/STIM_004.jpg
1279.968	0.944	0	0back	Block2	0back/STIM_004.jpg
1283.647	0.55	1	0back	Block2	0back/STIM_005.jpg
1286.532	0.686	1	0back	Block2	0back/STIM_005.jpg
1290.862	0.577	0	0back	Block2	0back/STIM_005.jpg
1295.298	0.512	1	0back	Block2	0back/STIM_006.jpg
1299.189	0.54	0	0back	Block2	0back/STIM_006.jpg
1302.903	0.957	1	0back	Block2	0back/STIM_006.jpg
1305.9	0.753	1	0back	Block2	0back/STIM_007.jpg
1309.481	0.952	0	0back	Block2	0back/STIM_007.jpg
1313.031	0.967	0	0back	Block2	0back/STIM_007.jpg
1317.49	0.803	1	0back	Block2	0back/STIM_008.jpg
1321.821	0.505	1	0back	Block2	0back/STIM_008.jpg
1325.905	0.676	0	0back	Block2	0back/STIM_008.jpg
1330.148	0.852	1	0back	Block2	0back/STIM_009.jpg
1334.148	0.979	1	0back	Block2	0back/STIM_009.jpg
1338.655	0.893	1	0back	Block2	0back/STIM_009.jpg
1343.448	0.621	1	0back	Block2	0back/STIM_010.jpg
1346.222	0.84	1	0back	Block2	0back/STIM_010.jpg
1350.836	0.858	1	0back	Block2	0back/STIM_010.jpg
1355.084	0.753	1	0back	Block2	0back/STIM_011.jpg
1358.62	0.742	1	0back	Block2	0back/STIM_011.jpg
1361.868	0.648	1	0back	Block2	0back/STIM_011.jpg
1366.447	0.684	1	0back	Block2	0back/STIM_012.jpg
1369.536	0.514	0	0back	Block2	0back/STIM_012.jpg
1373.855	0.905	0	0back	Block2	0back/STIM_012.jpg
1378.086	0.71	1	0back	Block2	0back/STIM_013.jpg
1382.006	0.881	1	0back	Block2	0back/STIM_013.jpg
1385.409	0.546	1	0back	Block2	0back/STIM_013.jpg
1388.638	0.789	1	0back	Block2	0back/STIM_014.jpg
1392.521	0.908	1	0back	Block2	0back/STIM_014.jpg
1396.509	0.852	0	0back	Block2	0back/STIM_014.jpg
1400.984	0.596	0	0back	Block2	0back/STIM_015.jpg
1405.181	0.728	1	0back	Block2	0back/STIM_015.jpg
1409.549	0.851	0	0back	Block2	0back/STIM_015.jpg
1412.921	0.602	1	0back	Block2	0back/STIM_016.jpg
1417.182	0.764	1	0back	Block2	0back/STIM_016.jpg
1420.619	0.889	1	0back	Block2	0back/STIM_016.jpg
1424.579	0.504	1	0back	Block2	0back/STIM_017.jpg
1428.639	0.738	0	0back	Block2	0back/STIM_017.jpg
1432.191	0.619	1	0back	Block2	0back/STIM_017.jpg
1435.817	0.543	1	0back	Block2	0back/STIM_018.jpg
1439.737	0.619	0	0back	Block2	0back/STIM_018.jpg
1443.179	0.718	0	0back	Block2	0back/STIM_018.jpg
1446.216	0.703	1	0back	Block2	0back/STIM_019.jpg
1450.443	0.504	1	0back	Block2	0back/STIM_019.jpg
1454.196	0.914	1	0back	Block2	0back/STIM_019.jpg
1458.864	1.196	1	2back	Block3	2back/STIM_000.jpg
1462.285	0.721	1	2back	Block3	2back/STIM_000.jpg
1465.105	1.016	1	2back	Block3	2back/STIM_000.jpg
1470.077	0.679	1	2back	Block3	2back/STIM_001.jpg
1474.66	0.897	0	2back	Block3	2back/STIM_001.jpg
1479.428	0.598	0	2back	Block3	2back/STIM_001.jpg
1483.954	1.056	1	2back	Block3	2back/STIM_002.jpg
1488.622	0.797	1	2back	Block3	2back/STIM_002.jpg
1492.843	0.934	1	2back	Block3	2back/STIM_002.jpg
1496.018	0.56	1	2back	Block3	2back/STIM_003.jpg
1499.957	0.566	1	2back	Block3	2back/STIM_003.jpg
1503.548	0.892	1	2back	Block3	2back/STIM_003.jpg
1507.783	0.723	1	2back	Block3	2back/STIM_004.jpg
1510.727	0.554	1	2back	Block3	2back/STIM_004.jpg
1513.505	0.926	0	2back	Block3	2back/STIM_004.jpg
1518.086	0.731	1	2back	Block3	2back/STIM_005.jpg
1522.535	1.172	0	2back	Block3	2back/STIM_005.jpg
1527.473	0.861	0	2back	Block3	2back/STIM_005.jpg
1532.17	0.953	1	2back	Block3	2back/STIM_006.jpg
1537.047	0.619	0	2back	Block3	2back/STIM_006.jpg
1541.04	1.141	1	2back	Block3	2back/STIM_006.jpg
1545.948	1.205	0	2back	Block3	2back/STIM_007.jpg
1550.902	1.038	1	2back	Block3	2back/STIM_007.jpg
1555.93	1.206	1	2back	Block3	2back/STIM_007.jpg
1560.356	0.53	1	2back	Block3	2back/STIM_008.jpg
1563.218	1.187	1	2back	Block3	2back/STIM_008.jpg
1566.693	0.651	1	2back	Block3	2back/STIM_008.jpg
1569.867	1.068	1	2back	Block3	2back/STIM_009.jpg
1573.072	0.537	1	2back	Block3	2back/STIM_009.jpg
1576.798	1.002	1	2back	Block3	2back/STIM_009.jpg
1581.086	0.886	0	2back	Block3	2back/STIM_010.jpg
1585.117	0.557	1	2back	Block3	2back/STIM_010.jpg
1588.906	1.168	1	2back	Block3	2back/STIM_010.jpg
1593.148	0.849	1	2back	Block3	2back/STIM_011.jpg
1596.421	0.531	1	2back	Block3	2back/STIM_011.jpg
1599.391	0.566	0	2back	Block3	2back/STIM_011.jpg
1603.305	0.927	1	2back	Block3	2back/STIM_012.jpg
1606.63	1.075	1	2back	Block3	2back/STIM_012.jpg
1611.171	0.839	1	2back	Block3	2back/STIM_012.jpg
1614.546	0.7	1	2back	Block3	2back/STIM_013.jpg
1617.885	0.741	1	2back	Block3	2back/STIM_013.jpg
1622.129	0.906	1	2back	Block3	2back/STIM_013.jpg
1625.724	0.606	1	2back	Block3	2back/STIM_014.jpg
1628.832	0.58	1	2back	Block3	2back/STIM_014.jpg
1633.239	0.908	1	2back	Block3	2back/STIM_014.jpg
1637.935	0.679	1	2back	Block3	2back/STIM_015.jpg
1641.042	0.915	1	2back	Block3	2back/STIM_015.jpg
1645.155	1.128	1	2back	Block3	2back/STIM_015.jpg
1649.455	1.079	0	2back	Block3	2back/STIM_016.jpg
1652.921	1.082	1	2back	Block3	2back/STIM_016.jpg
1657.545	0.94	1	2back	Block3	2back/STIM_016.jpg
1661.779	0.874	1	2back	Block3	2back/STIM_017.jpg
1665.396	1.021	0	2back	Block3	2back/STIM_017.jpg
1668.912	0.939	1	2back	Block3	2back/STIM_017.jpg
1673.794	0.97	0	2back	Block3	2back/STIM_018.jpg
1678.095	1.098	1	2back	Block3	2back/STIM_018.jpg
1682.496	1.026	1	2back	Block3	2back/STIM_018.jpg
1687.141	0.668	1	2back	Block3	2back/STIM_019.jpg
1691.405	0.609	1	2back	Block3	2back/STIM_019.jpg
1695.74	0.746	1	2back	Block3	2back/STIM_019.jpg
1700.225	1.122	1	2back	Block3	2back/STIM_020.jpg
1704.228	0.548	0	2back	Block3	2back/STIM_020.jpg
1707.777	1.173	1	2back	Block3	2back/STIM_020.jpg
1711.03	0.658	1	2back	Block3	2back/STIM_021.jpg
1713.939	0.995	1	2back	Block3	2back/STIM_021.jpg
1718.43	1.196	1	2back	Block3	2back/STIM_021.jpg
1723.438	0.564	1	2back	Block3	2back/STIM_022.jpg
1727.253	0.858	1	2back	Block3	2back/STIM_022.jpg
1731.785	1.037	1	2back	Block3	2back/STIM_022.jpg
1736.676	0.552	1	2back	Block3	2back/STIM_023.jpg
1739.329	0.98	1	2back	Block3	2back/STIM_023.jpg
1744.187	0.833	1	2back	Block3	2back/STIM_023.jpg
1748.344	0.949	1	2back	Block3	2back/STIM_024.jpg
1752.493	1.09	1	2back	Block3	2back/STIM_024.jpg
1757.283	0.956	1	2back	Block3	2back/STIM_024.jpg
1762.119	0.565	1	2back	Block3	2back/STIM_025.jpg
1765.904	1.067	1	2back	Block3	2back/STIM_025.jpg
1769.701	0.549	1	2back	Block3	2back/STIM_025.jpg
1772.749	0.559	1	2back	Block3	2back/STIM_026.jpg
1776.773	0.876	0	2back	Block3	2back/STIM_026.jpg
1780.575	0.926	1	2back	Block3	2back/STIM_026.jpg
1785.163	1.196	1	2back	Block3	2back/STIM_027.jpg
1789.713	0.63	1	2back	Block3	2back/STIM_027.jpg
1794.204	0.738	1	2back	Block3	2back/STIM_027.jpg
1798.635	0.812	1	2back	Block3	2back/STIM_028.jpg
1801.613	0.69	1	2back	Block3	2back/STIM_028.jpg
1804.791	1.054	1	2back	Block3	2back/STIM_028.jpg
1808.207	0.967	1	2back	Block3	2back/STIM_029.jpg
1812.593	0.625	1	2back	Block3	2back/STIM_029.jpg
1816.643	0.771	1	2back	Block3	2back/STIM_029.jpg
1821.404	0.951	1	2back	Block3	2back/STIM_030.jpg
1826.059	1.19	1	2back	Block3	2back/STIM_030.jpg
1830.523	0.962	1	2back	Block3	2back/STIM_030.jpg
1835.441	1.119	1	2back	Block3	2back/STIM_031.jpg
1839.494	0.549	1	2back	Block3	2back/STIM_031.jpg
1843.319	0.981	1	2back	Block3	2back/STIM_031.jpg
1847.986	1.103	1	2back	Block3	2back/STIM_032.jpg
1851.116	1.022	0	2back	Block3	2back/STIM_032.jpg
1854.953	0.783	0	2back	Block3	2back/STIM_032.jpg
1858.111	0.522	1	2back	Block3	2back/STIM_033.jpg
1861.595	1.142	1	2back	Block3	2back/STIM_033.jpg
1866.216	1.062	1	2back	Block3	2back/STIM_033.jpg
1870.672	0.531	0	2back	Block3	2back/STIM_034.jpg
1875.079	0.669	1	2back	Block3	2back/STIM_034.jpg
1878.361	0.615	0	2back	Block3	2back/STIM_034.jpg
1881.231	0.642	0	2back	Block3	2back/STIM_035.jpg
1885.501	0.807	1	2back	Block3	2back/STIM_035.jpg
1889.394	1.209	1	2back	Block3	2back/STIM_035.jpg
1893.655	0.712	1	2back	Block3	2back/STIM_036.jpg
1898.352	0.777	1	2back	Block3	2back/STIM_036.jpg
1901.309	0.751	1	2back	Block3	2back/STIM_036.jpg
1904.256	0.624	1	2back	Block3	2back/STIM_037.jpg
1907.061	0.672	1	2back	Block3	2back/STIM_037.jpg
1910.93	1.035	1	2back	Block3	2back/STIM_037.jpg
1915.378	0.642	1	2back	Block3	2back/STIM_038.jpg
1918.172	1.162	1	2back	Block3	2back/STIM_038.jpg
1921.567	1.081	1	2back	Block3	2back/STIM_038.jpg
1925.796	1.143	1	2back	Block3	2back/STIM_039.jpg
1929.77	1.089	1	2back	Block3	2back/STIM_039.jpg
1933.109	0.714	1	2back	Block3	2back/STIM_039.jpg
1936.604	0.692	1	0back	Block3	0back/STIM_000.jpg
1940.25	0.819	0	0back	Block3	0back/STIM_000.jpg
1944.247	0.578	1	0back	Block3	0back/STIM_000.jpg
1946.858	0.576	1	0back	Block3	0back/STIM_001.jpg
1950.398	0.544	1	0back	Block3	0back/STIM_001.jpg
1954.624	0.656	1	0back	Block3	0back/STIM_001.jpg
1958.414	0.557	0	0back	Block3	0back/STIM_002.jpg
1961.6	0.6	1	0back	Block3	0back/STIM_002.jpg
1964.373	0.542	1	0back	Block3	0back/STIM_002.jpg
1966.995	0.618	1	0back	Block3	0back/STIM_003.jpg
1970.041	0.656	1	0back	Block3	0back/STIM_003.jpg
1973.358	0.59	1	0back	Block3	0back/STIM_003.jpg
1977.724	0.708	1	0back	Block3	0back/STIM_004.jpg
1980.626	0.806	0	0back	Block3	0back/STIM_004.jpg
1984.461	0.711	0	0back	Block3	0back/STIM_004.jpg
1987.532	0.988	0	0back	Block3	0back/STIM_005.jpg
1992.375	0.595	1	0back	Block3	0back/STIM_005.jpg
1995.358	0.86	1	0back	Block3	0back/STIM_005.jpg
1998.408	0.833	1	0back	Block3	0back/STIM_006.jpg
2002.412	0.956	1	0back	Block3	0back/STIM_006.jpg
2005.603	0.714	0	0back	Block3	0back/STIM_006.jpg
2009.107	0.626	1	0back	Block3	0back/STIM_007.jpg
2012.992	0.743	1	0back	Block3	0back/STIM_007.jpg
2017.303	0.712	1	0back	Block3	0back/STIM_007.jpg
2021.063	0.935	0	0back	Block3	0back/STIM_008.jpg
2025.423	0.917	1	0back	Block3	0back/STIM_008.jpg
2029.483	0.772	1	0back	Block3	0back/STIM_008.jpg
2033.573	0.88	0	0back	Block3	0back/STIM_009.jpg
2038.268	0.671	1	0back	Block3	0back/STIM_009.jpg
2041.68	0.578	0	0back	Block3	0back/STIM_009.jpg
2045.449	0.914	1	0back	Block3	0back/STIM_010.jpg
2048.638	0.795	1	0back	Block3	0back/STIM_010.jpg
2051.935	0.827	1	0back	Block3	0back/STIM_010.jpg
2055.812	0.53	1	0back	Block3	0back/STIM_011.jpg
2059.777	0.919	1	0back	Block3	0back/STIM_011.jpg
2063.711	0.968	1	0back	Block3	0back/STIM_011.jpg
2067.623	0.758	1	0back	Block3	0back/STIM_012.jpg
2072.376	0.697	1	0back	Block3	0back/STIM_012.jpg
2075.976	0.91	1	0back	Block3	0back/STIM_012.jpg
2079.548	0.606	1	0back	Block3	0back/STIM_013.jpg
2083.063	0.872	0	0back	Block3	0back/STIM_013.jpg
2087.042	0.654	0	0back	Block3	0back/STIM_013.jpg
2090.144	0.877	0	0back	Block3	0back/STIM_014.jpg
2093.814	0.63	1	0back	Block3	0back/STIM_014.jpg
2098.031	0.969	1	0back	Block3	0back/STIM_014.jpg
2101.481	0.57	1	0back	Block3	0back/STIM_015.jpg
2104.661	0.904	1	0back	Block3	0back/STIM_015.jpg
2108.28	0.635	0	0back	Block3	0back/STIM_015.jpg
2111.816	0.664	0	0back	Block3	0back/STIM_016.jpg
2115.053	0.817	1	0back	Block3	0back/STIM_016.jpg
2119.411	0.928	1	0back	Block3	0back/STIM_016.jpg
2123.493	0.589	1	0back	Block3	0back/STIM_017.jpg
2127.625	0.544	1	0back	Block3	0back/STIM_017.jpg
2131.052	0.953	1	0back	Block3	0back/STIM_017.jpg
2134.335	0.868	1	0back	Block3	0back/STIM_018.jpg
2138.551	0.94	1	0back	Block3	0back/STIM_018.jpg
2142.993	0.909	1	0back	Block3	0back/STIM_018.jpg
2147.141	0.911	1	0back	Block3	0back/STIM_019.jpg
2150.644	0.711	1	0back	Block3	0back/STIM_019.jpg
2153.39	0.977	1	0back	Block3	0back/STIM_019.jpg
2156.618	0.952	1	2back	Block4	2back/STIM_000.jpg
2161.251	0.826	1	2back	Block4	2back/STIM_000.jpg
2164.684	1.055	1	2back	Block4	2back/STIM_000.jpg
2168.583	0.898	1	2back	Block4	2back/STIM_001.jpg
2172.603	0.948	0	2back	Block4	2back/STIM_001.jpg
2176.697	0.91	0	2back	Block4	2back/STIM_001.jpg
2180.038	1.07	1	2back	Block4	2back/STIM_002.jpg
2184.607	0.981	1	2back	Block4	2back/STIM_002.jpg
2188.934	1.093	1	2back	Block4	2back/STIM_002.jpg
2192.553	0.93	1	2back	Block4	2back/STIM_003.jpg
2196.45	0.677	1	2back	Block4	2back/STIM_003.jpg
2201.028	0.865	1	2back	Block4	2back/STIM_003.jpg
2204.107	0.554	1	2back	Block4	2back/STIM_004.jpg
2207.022	1.178	1	2back	Block4	2back/STIM_004.jpg
2210.66	0.669	1	2back	Block4	2back/STIM_004.jpg
2214.349	0.553	1	2back	Block4	2back/STIM_005.jpg
2218.8	0.727	1	2back	Block4	2back/STIM_005.jpg
2223.266	0.871	1	2back	Block4	2back/STIM_005.jpg
2226.869	0.956	1	2back	Block4	2back/STIM_006.jpg
2230.27	0.868	1	2back	Block4	2back/STIM_006.jpg
2234.08	1.006	1	2back	Block4	2back/STIM_006.jpg
2238.001	0.997	1	2back	Block4	2back/STIM_007.jpg
2241.803	0.676	1	2back	Block4	2back/STIM_007.jpg
2245.277	0.994	1	2back	Block4	2back/STIM_007.jpg
2249.849	0.637	0	2back	Block4	2back/STIM_008.jpg
2253.23	1.045	1	2back	Block4	2back/STIM_008.jpg
2257.22	0.944	0	2back	Block4	2back/STIM_008.jpg
2261.649	0.741	1	2back	Block4	2back/STIM_009.jpg
2264.965	1.184	0	2back	Block4	2back/STIM_009.jpg
2269.528	0.884	1	2back	Block4	2back/STIM_009.jpg
2274.13	0.61	1	2back	Block4	2back/STIM_010.jpg
2278.22	1.127	1	2back	Block4	2back/STIM_010.jpg
2282.711	0.696	1	2back	Block4	2back/STIM_010.jpg
2286.305	0.667	1	2back	Block4	2back/STIM_011.jpg
2289.802	0.885	1	2back	Block4	2back/STIM_011.jpg
2293.717	1.2	1	2back	Block4	2back/STIM_011.jpg
2298.165	0.789	0	2back	Block4	2back/STIM_012.jpg
2302.411	1.148	1	2back	Block4	2back/STIM_012.jpg
2307.373	1.116	1	2back	Block4	2back/STIM_012.jpg
2311.992	0.797	1	2back	Block4	2back/STIM_013.jpg
2316.532	0.627	1	2back	Block4	2back/STIM_013.jpg
2319.24	1.207	0	2back	Block4	2back/STIM_013.jpg
2323.135	0.91	1	2back	Block4	2back/STIM_014.jpg
2327.308	0.635	1	2back	Block4	2back/STIM_014.jpg
2330.539	0.819	1	2back	Block4	2back/STIM_014.jpg
2334.486	0.897	1	2back	Block4	2back/STIM_015.jpg
2337.903	0.677	1	2back	Block4	2back/STIM_015.jpg
2342.422	0.71	1	2back	Block4	2back/STIM_015.jpg
2345.219	0.562	1	2back	Block4	2back/STIM_016.jpg
2348.457	1.079	1	2back	Block4	2back/STIM_016.jpg
2353.091	0.603	1	2back	Block4	2back/STIM_016.jpg
2356.797	0.646	1	2back	Block4	2back/STIM_017.jpg
2360.675	0.667	1	2back	Block4	2back/STIM_017.jpg
2365.262	0.637	1	2back	Block4	2back/STIM_017.jpg
2368.201	0.544	1	2back	Block4	2back/STIM_018.jpg
2371.83	0.635	1	2back	Block4	2back/STIM_018.jpg
2376.18	1.124	1	2back	Block4	2back/STIM_018.jpg
2380.373	1.063	1	2back	Block4	2back/STIM_019.jpg
2385.409	0.948	1	2back	Block4	2back/STIM_019.jpg
2388.49	1.043	1	2back	Block4	2back/STIM_019.jpg
2392.315	0.968	1	2back	Block4	2back/STIM_020.jpg
2395.865	0.792	1	2back	Block4	2back/STIM_020.jpg
2400.304	0.63	1	2back	Block4	2back/STIM_020.jpg
2404.631	0.838	1	2back	Block4	2back/STIM_021.jpg
2407.597	0.713	1	2back	Block4	2back/STIM_021.jpg
2411.563	0.705	1	2back	Block4	2back/STIM_021.jpg
2416.09	0.929	1	2back	Block4	2back/STIM_022.jpg
2420.031	1.008	1	2back	Block4	2back/STIM_022.jpg
2424.886	0.753	1	2back	Block4	2back/STIM_022.jpg
2429.355	0.784	1	2back	Block4	2back/STIM_023.jpg
2433.47	0.586	1	2back	Block4	2back/STIM_023.jpg
2436.814	0.935	1	2back	Block4	2back/STIM_023.jpg
2441.354	0.968	1	2back	Block4	2back/STIM_024.jpg
2445.221	0.527	1	2back	Block4	2back/STIM_024.jpg
2447.803	0.636	1	2back	Block4	2back/STIM_024.jpg
2451.344	0.757	0	2back	Block4	2back/STIM_025.jpg
2454.821	1.091	1	2back	Block4	2back/STIM_025.jpg
2459.478	0.53	1	2back	Block4	2back/STIM_025.jpg
2463.224	0.635	1	2back	Block4	2back/STIM_026.jpg
2467.748	1.073	1	2back	Block4	2back/STIM_026.jpg
2470.912	1.017	1	2back	Block4	2back/STIM_026.jpg
2474.28	1.155	1	2back	Block4	2back/STIM_027.jpg
2477.972	0.56	1	2back	Block4	2back/STIM_027.jpg
2481.66	0.763	1	2back	Block4	2back/STIM_027.jpg
2485.38	1.073	1	2back	Block4	2back/STIM_028.jpg
2490.277	0.715	1	2back	Block4	2back/STIM_028.jpg
2494.747	0.755	1	2back	Block4	2back/STIM_028.jpg
2498.192	0.609	1	2back	Block4	2back/STIM_029.jpg
2501.459	0.764	0	2back	Block4	2back/STIM_029.jpg
2505.314	0.597	1	2back	Block4	2back/STIM_029.jpg
2509.858	0.814	1	2back	Block4	2back/STIM_030.jpg
2512.965	1.136	1	2back	Block4	2back/STIM_030.jpg
2517.252	0.519	1	2back	Block4	2back/STIM_030.jpg
2521.434	0.828	1	2back	Block4	2back/STIM_031.jpg
2524.948	0.792	1	2back	Block4	2back/STIM_031.jpg
2528.765	1.068	1	2back	Block4	2back/STIM_031.jpg
2533.271	1.192	1	2back	Block4	2back/STIM_032.jpg
2538.421	1.119	1	2back	Block4	2back/STIM_032.jpg
2541.636	0.579	1	2back	Block4	2back/STIM_032.jpg
2545.267	0.715	1	2back	Block4	2back/STIM_033.jpg
2548.868	1.066	1	2back	Block4	2back/STIM_033.jpg
2553.467	0.543	1	2back	Block4	2back/STIM_033.jpg
2557.471	1.182	0	2back	Block4	2back/STIM_034.jpg
2562.174	0.722	1	2back	Block4	2back/STIM_034.jpg
2565.187	0.71	1	2back	Block4	2back/STIM_034.jpg
2569.852	0.888	1	2back	Block4	2back/STIM_035.jpg
2574.548	0.588	1	2back	Block4	2back/STIM_035.jpg
2578.355	0.606	1	2back	Block4	2back/STIM_035.jpg
2581.273	0.668	1	2back	Block4	2back/STIM_036.jpg
2585.484	0.946	1	2back	Block4	2back/STIM_036.jpg
2589.758	0.54	1	2back	Block4	2back/STIM_036.jpg
2592.458	0.851	1	2back	Block4	2back/STIM_037.jpg
2597.0	0.977	1	2back	Block4	2back/STIM_037.jpg
2600.155	0.615	1	2back	Block4	2back/STIM_037.jpg
2603.685	1.2	1	2back	Block4	2back/STIM_038.jpg
2608.196	0.656	1	2back	Block4	2back/STIM_038.jpg
2612.046	1.066	0	2back	Block4	2back/STIM_038.jpg
2615.222	0.538	1	2back	Block4	2back/STIM_039.jpg
2618.545	0.685	1	2back	Block4	2back/STIM_039.jpg
2622.277	0.737	1	2back	Block4	2back/STIM_039.jpg
2626.216	0.501	1	0back	Block4	0back/STIM_000.jpg
2629.872	0.566	1	0back	Block4	0back/STIM_000.jpg
2633.249	0.632	1	0back	Block4	0back/STIM_000.jpg
2637.231	0.791	1	0back	Block4	0back/STIM_001.jpg
2641.012	0.859	0	0back	Block4	0back/STIM_001.jpg
2644.65	0.884	1	0back	Block4	0back/STIM_001.jpg
2648.778	0.841	1	0back	Block4	0back/STIM_002.jpg
2652.09	0.984	0	0back	Block4	0back/STIM_002.jpg
2656.482	0.832	0	0back	Block4	0back/STIM_002.jpg
2659.662	0.987	0	0back	Block4	0back/STIM_003.jpg
2663.866	0.599	1	0back	Block4	0back/STIM_003.jpg
2666.845	0.638	1	0back	Block4	0back/STIM_003.jpg
2669.552	0.626	1	0back	Block4	0back/STIM_004.jpg
2672.794	0.598	1	0back	Block4	0back/STIM_004.jpg
2676.684	0.502	1	0back	Block4	0back/STIM_004.jpg
2679.393	0.834	0	0back	Block4	0back/STIM_005.jpg
2684.107	0.961	0	0back	Block4	0back/STIM_005.jpg
2688.345	0.693	1	0back	Block4	0back/STIM_005.jpg
2692.27	0.937	1	0back	Block4	0back/STIM_006.jpg
2695.943	0.663	1	0back	Block4	0back/STIM_006.jpg
2698.977	0.855	1	0back	Block4	0back/STIM_006.jpg
2702.792	0.72	1	0back	Block4	0back/STIM_007.jpg
2707.189	0.712	1	0back	Block4	0back/STIM_007.jpg
2711.839	0.536	1	0back	Block4	0back/STIM_007.jpg
2715.367	0.794	1	0back	Block4	0back/STIM_008.jpg
2719.448	0.875	1	0back	Block4	0back/STIM_008.jpg
2723.064	0.707	1	0back	Block4	0back/STIM_008.jpg
2727.052	0.595	1	0back	Block4	0back/STIM_009.jpg
2730.578	0.835	1	0back	Block4	0back/STIM_009.jpg
2733.598	0.573	1	0back	Block4	0back/STIM_009.jpg
2736.765	0.823	1	0back	Block4	0back/STIM_010.jpg
2740.942	0.732	1	0back	Block4	0back/STIM_010.jpg
2744.927	0.514	1	0back	Block4	0back/STIM_010.jpg
2748.335	0.817	0	0back	Block4	0back/STIM_011.jpg
2752.813	0.766	1	0back	Block4	0back/STIM_011.jpg
2757.273	0.894	1	0back	Block4	0back/STIM_011.jpg
2762.148	0.84	0	0back	Block4	0back/STIM_012.jpg
2765.536	0.962	0	0back	Block4	0back/STIM_012.jpg
2769.879	0.827	1	0back	Block4	0back/STIM_012.jpg
2773.728	0.631	1	0back	Block4	0back/STIM_013.jpg
2778.0	0.53	1	0back	Block4	0back/STIM_013.jpg
2782.396	0.631	1	0back	Block4	0back/STIM_013.jpg
2785.738	0.665	1	0back	Block4	0back/STIM_014.jpg
2788.855	0.579	1	0back	Block4	0back/STIM_014.jpg
2792.095	0.78	1	0back	Block4	0back/STIM_014.jpg
2795.609	0.504	1	0back	Block4	0back/STIM_015.jpg
2799.663	0.801	1	0back	Block4	0back/STIM_015.jpg
2804.395	0.96	1	0back	Block4	0back/STIM_015.jpg
2809.181	0.866	1	0back	Block4	0back/STIM_016.jpg
2812.195	0.934	0	0back	Block4	0back/STIM_016.jpg
2815.834	0.769	1	0back	Block4	0back/STIM_016.jpg
2818.756	0.553	1	0back	Block4	0back/STIM_017.jpg
2822.237	0.974	1	0back	Block4	0back/STIM_017.jpg
2825.466	0.597	1	0back	Block4	0back/STIM_017.jpg
2829.549	0.628	1	0back	Block4	0back/STIM_018.jpg
2832.845	0.636	1	0back	Block4	0back/STIM_018.jpg
2837.023	0.672	1	0back	Block4	0back/STIM_018.jpg
2840.938	0.731	1	0back	Block4	0back/STIM_019.jpg
2845.057	0.884	1	0back	Block4	0back/STIM_019.jpg
2849.24	0.58	1	0back	Block4	0back/STIM_019.jpg
