onset	duration	accuracy_binary	trial_type	learning_stage	stimulus
0.0	1.488	1	2back	Block1	2back/STIM_000.jpg
4.068	0.943	1	2back	Block1	2back/STIM_000.jpg
8.881	1.284	1	2back	Block1	2back/STIM_000.jpg
12.527	1.365	1	2back	Block1	2back/STIM_001.jpg
16.829	0.739	0	2back	Block1	2back/STIM_001.jpg
20.277	1.08	1	2back	Block1	2back/STIM_001.jpg
24.267	1.303	1	2back	Block1	2back/STIM_002.jpg
28.566	1.391	1	2back	Block1	2back/STIM_002.jpg
32.839	0.969	1	2back	Block1	2back/STIM_002.jpg
35.881	1.271	1	2back	Block1	2back/STIM_003.jpg
40.871	0.672	1	2back	Block1	2back/STIM_003.jpg
43.735	1.366	1	2back	Block1	2back/STIM_003.jpg
48.816	1.552	1	2back	Block1	2back/STIM_004.jpg
53.804	1.021	1	2back	Block1	2back/STIM_004.jpg
57.396	1.252	1	2back	Block1	2back/STIM_004.jpg
60.714	1.441	0	2back	Block1	2back/STIM_005.jpg
65.604	0.7	1	2back	Block1	2back/STIM_005.jpg
70.037	0.892	1	2back	Block1	2back/STIM_005.jpg
73.447	1.32	1	2back	Block1	2back/STIM_006.jpg
77.545	1.484	1	2back	Block1	2back/STIM_006.jpg
81.447	1.012	0	2back	Block1	2back/STIM_006.jpg
85.109	0.868	1	2back	Block1	2back/STIM_007.jpg
89.347	0.955	1	2back	Block1	2back/STIM_007.jpg
92.27	0.93	1	2back	Block1	2back/STIM_007.jpg
96.494	1.196	1	2back	Block1	2back/STIM_008.jpg
101.291	0.783	1	2back	Block1	2back/STIM_008.jpg
104.501	0.878	0	2back	Block1	2back/STIM_008.jpg
107.666	1.488	1	2back	Block1	2back/STIM_009.jpg
111.662	0.807	1	2back	Block1	2back/STIM_009.jpg
116.034	1.229	1	2back	Block1	2back/STIM_009.jpg
120.526	1.507	1	2back	Block1	2back/STIM_010.jpg
125.165	0.986	1	2back	Block1	2back/STIM_010.jpg
129.763	1.093	0	2back	Block1	2back/STIM_010.jpg
134.677	1.134	1	2back	Block1	2back/STIM_011.jpg
138.437	1.326	1	2back	Block1	2back/STIM_011.jpg
143.192	1.324	1	2back	Block1	2back/STIM_011.jpg
148.22	1.111	1	2back	Block1	2back/STIM_012.jpg
151.779	1.171	1	2back	Block1	2back/STIM_012.jpg
156.664	0.624	1	2back	Block1	2back/STIM_012.jpg
160.819	0.957	1	2back	Block1	2back/STIM_013.jpg
164.526	1.273	1	2back	Block1	2back/STIM_013.jpg
167.781	1.384	1	2back	Block1	2back/STIM_013.jpg
171.415	1.068	1	2back	Block1	2back/STIM_014.jpg
176.307	1.133	1	2back	Block1	2back/STIM_014.jpg
180.911	1.04	1	2back	Block1	2back/STIM_014.jpg
184.413	1.542	1	2back	Block1	2back/STIM_015.jpg
188.923	0.698	1	2back	Block1	2back/STIM_015.jpg
192.987	1.068	1	2back	Block1	2back/STIM_015.jpg
197.371	0.708	1	2back	Block1	2back/STIM_016.jpg
200.682	1.375	1	2back	Block1	2back/STIM_016.jpg
205.504	0.878	1	2back	Block1	2back/STIM_016.jpg
209.611	1.406	1	2back	Block1	2back/STIM_017.jpg
213.902	1.081	1	2back	Block1	2back/STIM_017.jpg
217.837	0.996	1	2back	Block1	2back/STIM_017.jpg
221.475	0.987	0	2back	Block1	2back/STIM_018.jpg
225.904	1.463	1	2back	Block1	2back/STIM_018.jpg
230.406	1.206	1	2back	Block1	2back/STIM_018.jpg
234.85	1.458	1	2back	Block1	2back/STIM_019.jpg
240.031	0.819	0	2back	Block1	2back/STIM_019.jpg
242.887	0.641	1	2back	Block1	2back/STIM_019.jpg
246.816	0.914	1	2back	Block1	2back/STIM_020.jpg
249.825	0.904	0	2back	Block1	2back/STIM_020.jpg
253.469	1.149	1	2back	Block1	2back/STIM_020.jpg
258.341	0.924	0	2back	Block1	2back/STIM_021.jpg
262.024	1.081	0	2back	Block1	2back/STIM_021.jpg
265.134	1.372	1	2back	Block1	2back/STIM_021.jpg
270.032	0.748	1	2back	Block1	2back/STIM_022.jpg
274.608	1.209	0	2back	Block1	2back/STIM_022.jpg
279.098	0.821	1	2back	Block1	2back/STIM_022.jpg
283.572	0.86	1	2back	Block1	2back/STIM_023.jpg
288.028	1.228	1	2back	Block1	2back/STIM_023.jpg
292.611	1.28	1	2back	Block1	2back/STIM_023.jpg
296.391	1.249	1	2back	Block1	2back/STIM_024.jpg
300.561	1.275	1	2back	Block1	2back/STIM_024.jpg
303.936	0.965	1	2back	Block1	2back/STIM_024.jpg
307.859	0.702	1	2back	Block1	2back/STIM_025.jpg
312.087	1.255	0	2back	Block1	2back/STIM_025.jpg
315.801	0.836	1	2back	Block1	2back/STIM_025.jpg
319.731	1.367	0	2back	Block1	2back/STIM_026.jpg
323.821	0.661	1	2back	Block1	2back/STIM_026.jpg
327.459	0.962	1	2back	Block1	2back/STIM_026.jpg
331.539	1.508	1	2back	Block1	2back/STIM_027.jpg
336.808	1.207	1	2back	Block1	2back/STIM_027.jpg
340.414	0.976	0	2back	Block1	2back/STIM_027.jpg
344.606	1.003	0	2back	Block1	2back/STIM_028.jpg
347.759	1.156	0	2back	Block1	2back/STIM_028.jpg
351.733	1.406	0	2back	Block1	2back/STIM_028.jpg
356.468	0.862	1	2back	Block1	2back/STIM_029.jpg
360.77	1.06	1	2back	Block1	2back/STIM_029.jpg
364.892	0.784	1	2back	Block1	2back/STIM_029.jpg
369.58	1.083	1	2back	Block1	2back/STIM_030.jpg
374.481	0.974	0	2back	Block1	2back/STIM_030.jpg
377.359	1.367	1	2back	Block1	2back/STIM_030.jpg
380.804	1.25	1	2back	Block1	2back/STIM_031.jpg
384.389	0.776	1	2back	Block1	2back/STIM_031.jpg
387.379	1.252	1	2back	Block1	2back/STIM_031.jpg
390.494	0.736	1	2back	Block1	2back/STIM_032.jpg
393.984	1.158	1	2back	Block1	2back/STIM_032.jpg
398.634	0.816	0	2back	Block1	2back/STIM_032.jpg
403.228	0.761	1	2back	Block1	2back/STIM_033.jpg
407.504	1.169	1	2back	Block1	2back/STIM_033.jpg
411.146	1.362	1	2back	Block1	2back/STIM_033.jpg
414.852	1.019	1	2back	Block1	2back/STIM_034.jpg
418.422	1.14	0	2back	Block1	2back/STIM_034.jpg
421.966	0.886	0	2back	Block1	2back/STIM_034.jpg
424.992	0.862	1	2back	Block1	2back/STIM_035.jpg
428.289	1.302	1	2back	Block1	2back/STIM_035.jpg
433.046	0.763	1	2back	Block1	2back/STIM_035.jpg
437.655	1.152	1	2back	Block1	2back/STIM_036.jpg
442.457	1.452	1	2back	Block1	2back/STIM_036.jpg
446.344	0.612	1	2back	Block1	2back/STIM_036.jpg
450.145	0.901	0	2back	Block1	2back/STIM_037.jpg
454.066	1.197	1	2back	Block1	2back/STIM_037.jpg
458.465	0.618	1	2back	Block1	2back/STIM_037.jpg
461.66	1.177	1	2back	Block1	2back/STIM_038.jpg
465.495	1.058	1	2back	Block1	2back/STIM_038.jpg
469.81	1.044	1	2back	Block1	2back/STIM_038.jpg
474.325	1.221	0	2back	Block1	2back/STIM_039.jpg
478.865	1.161	1	2back	Block1	2back/STIM_039.jpg
482.425	1.347	1	2back	Block1	2back/STIM_039.jpg
486.27	0.695	1	0back	Block1	0back/STIM_000.jpg
489.127	0.75	1	0back	Block1	0back/STIM_000.jpg
492.209	0.776	1	0back	Block1	0back/STIM_000.jpg
494.945	0.875	1	0back	Block1	0back/STIM_001.jpg
499.679	0.639	1	0back	Block1	0back/STIM_001.jpg
502.553	0.85	1	0back	Block1	0back/STIM_001.jpg
505.398	0.503	1	0back	Block1	0back/STIM_002.jpg
508.272	0.584	1	0back	Block1	0back/STIM_002.jpg
512.288	0.469	1	0back	Block1	0back/STIM_002.jpg
514.786	0.855	1	0back	Block1	0back/STIM_003.jpg
519.212	0.657	1	0back	Block1	0back/STIM_003.jpg
522.745	0.65	1	0back	Block1	0back/STIM_003.jpg
525.653	0.532	1	0back	Block1	0back/STIM_004.jpg
528.312	0.616	1	0back	Block1	0back/STIM_004.jpg
532.011	0.861	1	0back	Block1	0back/STIM_004.jpg
534.847	0.872	1	0back	Block1	0back/STIM_005.jpg
537.643	0.747	1	0back	Block1	0back/STIM_005.jpg
540.689	0.637	1	0back	Block1	0back/STIM_005.jpg
544.38	0.771	1	0back	Block1	0back/STIM_006.jpg
547.068	0.772	1	0back	Block1	0back/STIM_006.jpg
550.908	0.539	1	0back	Block1	0back/STIM_006.jpg
554.373	0.874	1	0back	Block1	0back/STIM_007.jpg
558.501	0.507	1	0back	Block1	0back/STIM_007.jpg
561.627	0.627	1	0back	Block1	0back/STIM_007.jpg
564.902	0.756	1	0back	Block1	0back/STIM_008.jpg
568.704	0.587	1	0back	Block1	0back/STIM_008.jpg
573.148	0.514	1	0back	Block1	0back/STIM_008.jpg
577.148	0.779	1	0back	Block1	0back/STIM_009.jpg
581.635	0.663	1	0back	Block1	0back/STIM_009.jpg
584.884	0.591	1	0back	Block1	0back/STIM_009.jpg
588.877	0.486	1	0back	Block1	0back/STIM_010.jpg
593.276	0.716	1	0back	Block1	0back/STIM_010.jpg
596.655	0.561	1	0back	Block1	0back/STIM_010.jpg
599.851	0.787	1	0back	Block1	0back/STIM_011.jpg
604.535	0.538	1	0back	Block1	0back/STIM_011.jpg
607.793	0.556	1	0back	Block1	0back/STIM_011.jpg
610.668	0.838	1	0back	Block1	0back/STIM_012.jpg
614.126	0.512	1	0back	Block1	0back/STIM_012.jpg
617.791	0.877	1	0back	Block1	0back/STIM_012.jpg
622.146	0.506	1	0back	Block1	0back/STIM_013.jpg
625.131	0.715	1	0back	Block1	0back/STIM_013.jpg
628.252	0.576	1	0back	Block1	0back/STIM_013.jpg
631.256	0.864	1	0back	Block1	0back/STIM_014.jpg
634.103	0.899	1	0back	Block1	0back/STIM_014.jpg
637.2	0.741	1	0back	Block1	0back/STIM_014.jpg
641.021	0.688	1	0back	Block1	0back/STIM_015.jpg
643.932	0.637	1	0back	Block1	0back/STIM_015.jpg
647.308	0.691	1	0back	Block1	0back/STIM_015.jpg
651.011	0.703	1	0back	Block1	0back/STIM_016.jpg
654.692	0.686	1	0back	Block1	0back/STIM_016.jpg
657.479	0.714	1	0back	Block1	0back/STIM_016.jpg
661.458	0.553	1	0back	Block1	0back/STIM_017.jpg
664.236	0.568	1	0back	Block1	0back/STIM_017.jpg
668.735	0.542	1	0back	Block1	0back/STIM_017.jpg
673.064	0.652	1	0back	Block1	0back/STIM_018.jpg
675.914	0.904	1	0back	Block1	0back/STIM_018.jpg
678.768	0.464	0	0back	Block1	0back/STIM_018.jpg
681.358	0.723	1	0back	Block1	0back/STIM_019.jpg
684.496	0.66	1	0back	Block1	0back/STIM_019.jpg
687.943	0.714	1	0back	Block1	0back/STIM_019.jpg
690.66	0.604	1	2back	Block2	2back/STIM_000.jpg
693.467	0.883	1	2back	Block2	2back/STIM_000.jpg
696.979	0.998	1	2back	Block2	2back/STIM_000.jpg
700.592	1.042	1	2back	Block2	2back/STIM_001.jpg
705.123	1.19	1	2back	Block2	2back/STIM_001.jpg
708.642	1.028	1	2back	Block2	2back/STIM_001.jpg
712.77	1.304	1	2back	Block2	2back/STIM_002.jpg
717.052	0.686	1	2back	Block2	2back/STIM_002.jpg
721.054	0.676	1	2back	Block2	2back/STIM_002.jpg
725.565	0.738	1	2back	Block2	2back/STIM_003.jpg
728.769	1.124	1	2back	Block2	2back/STIM_003.jpg
732.984	0.931	1	2back	Block2	2back/STIM_003.jpg
736.284	0.673	1	2back	Block2	2back/STIM_004.jpg
739.304	1.15	1	2back	Block2	2back/STIM_004.jpg
742.597	0.999	1	2back	Block2	2back/STIM_004.jpg
745.846	0.611	1	2back	Block2	2back/STIM_005.jpg
749.547	0.988	1	2back	Block2	2back/STIM_005.jpg
753.288	0.661	1	2back	Block2	2back/STIM_005.jpg
757.51	0.696	1	2back	Block2	2back/STIM_006.jpg
760.268	0.586	1	2back	Block2	2back/STIM_006.jpg
763.337	0.744	1	2back	Block2	2back/STIM_006.jpg
766.917	0.683	1	2back	Block2	2back/STIM_007.jpg
770.846	1.069	1	2back	Block2	2back/STIM_007.jpg
773.986	1.188	0	2back	Block2	2back/STIM_007.jpg
777.686	1.17	1	2back	Block2	2back/STIM_008.jpg
782.239	0.769	1	2back	Block2	2back/STIM_008.jpg
786.132	1.122	1	2back	Block2	2back/STIM_008.jpg
790.852	1.01	0	2back	Block2	2back/STIM_009.jpg
793.87	1.137	1	2back	Block2	2back/STIM_009.jpg
796.964	0.514	1	2back	Block2	2back/STIM_009.jpg
799.704	1.201	1	2back	Block2	2back/STIM_010.jpg
803.191	0.731	1	2back	Block2	2back/STIM_010.jpg
807.532	0.902	1	2back	Block2	2back/STIM_010.jpg
811.122	1.069	1	2back	Block2	2back/STIM_011.jpg
816.013	0.958	1	2back	Block2	2back/STIM_011.jpg
819.166	1.009	1	2back	Block2	2back/STIM_011.jpg
823.071	0.637	1	2back	Block2	2back/STIM_012.jpg
826.644	0.719	1	2back	Block2	2back/STIM_012.jpg
830.731	0.528	1	2back	Block2	2back/STIM_012.jpg
834.969	0.732	1	2back	Block2	2back/STIM_013.jpg
839.436	0.874	1	2back	Block2	2back/STIM_013.jpg
843.119	1.092	1	2back	Block2	2back/STIM_013.jpg
846.813	0.712	1	2back	Block2	2back/STIM_014.jpg
849.458	0.675	1	2back	Block2	2back/STIM_014.jpg
852.812	0.873	1	2back	Block2	2back/STIM_014.jpg
857.073	0.888	1	2back	Block2	2back/STIM_015.jpg
860.085	1.037	1	2back	Block2	2back/STIM_015.jpg
864.992	0.82	1	2back	Block2	2back/STIM_015.jpg
869.687	0.646	1	2back	Block2	2back/STIM_016.jpg
872.386	1.108	1	2back	Block2	2back/STIM_016.jpg
875.876	0.908	1	2back	Block2	2back/STIM_016.jpg
879.748	1.226	1	2back	Block2	2back/STIM_017.jpg
883.186	1.268	1	2back	Block2	2back/STIM_017.jpg
886.872	0.812	1	2back	Block2	2back/STIM_017.jpg
891.315	0.656	1	2back	Block2	2back/STIM_018.jpg
894.921	0.933	1	2back	Block2	2back/STIM_018.jpg
898.736	1.139	1	2back	Block2	2back/STIM_018.jpg
903.134	0.706	1	2back	Block2	2back/STIM_019.jpg
907.669	0.819	1	2back	Block2	2back/STIM_019.jpg
911.398	0.77	1	2back	Block2	2back/STIM_019.jpg
915.03	0.827	1	2back	Block2	2back/STIM_020.jpg
918.195	1.169	1	2back	Block2	2back/STIM_020.jpg
922.556	1.074	1	2back	Block2	2back/STIM_020.jpg
926.457	0.638	1	2back	Block2	2back/STIM_021.jpg
930.268	0.595	1	2back	Block2	2back/STIM_021.jpg
933.227	0.786	1	2back	Block2	2back/STIM_021.jpg
937.483	1.112	1	2back	Block2	2back/STIM_022.jpg
940.646	0.905	1	2back	Block2	2back/STIM_022.jpg
944.474	1.162	1	2back	Block2	2back/STIM_022.jpg
949.261	1.163	1	2back	Block2	2back/STIM_023.jpg
952.92	1.235	1	2back	Block2	2back/STIM_023.jpg
956.144	0.782	1	2back	Block2	2back/STIM_023.jpg
959.724	1.294	1	2back	Block2	2back/STIM_024.jpg
964.728	1.001	1	2back	Block2	2back/STIM_024.jpg
967.939	0.878	1	2back	Block2	2back/STIM_024.jpg
970.848	0.869	1	2back	Block2	2back/STIM_025.jpg
973.651	0.896	1	2back	Block2	2back/STIM_025.jpg
976.66	0.993	1	2back	Block2	2back/STIM_025.jpg
980.896	1.099	1	2back	Block2	2back/STIM_026.jpg
984.425	0.804	1	2back	Block2	2back/STIM_026.jpg
988.829	0.568	1	2back	Block2	2back/STIM_026.jpg
991.954	1.187	1	2back	Block2	2back/STIM_027.jpg
996.689	0.65	1	2back	Block2	2back/STIM_027.jpg
1000.974	0.664	1	2back	Block2	2back/STIM_027.jpg
1004.681	0.981	1	2back	Block2	2back/STIM_028.jpg
1008.039	1.184	1	2back	Block2	2back/STIM_028.jpg
1012.197	0.622	1	2back	Block2	2back/STIM_028.jpg
1015.574	1.13	1	2back	Block2	2back/STIM_029.jpg
1018.843	0.628	1	2back	Block2	2back/STIM_029.jpg
1021.518	0.969	1	2back	Block2	2back/STIM_029.jpg
1025.752	1.203	1	2back	Block2	2back/STIM_030.jpg
1029.148	1.149	1	2back	Block2	2back/STIM_030.jpg
1033.302	0.721	1	2back	Block2	2back/STIM_030.jpg
1037.082	0.796	1	2back	Block2	2back/STIM_031.jpg
1040.98	0.738	1	2back	Block2	2back/STIM_031.jpg
1044.812	1.161	0	2back	Block2	2back/STIM_031.jpg
1049.249	1.017	1	2back	Block2	2back/STIM_032.jpg
1053.373	1.02	1	2back	Block2	2back/STIM_032.jpg
1056.808	0.858	1	2back	Block2	2back/STIM_032.jpg
1060.683	0.661	1	2back	Block2	2back/STIM_033.jpg
1065.031	0.706	1	2back	Block2	2back/STIM_033.jpg
1069.082	0.82	0	2back	Block2	2back/STIM_033.jpg
1071.883	0.813	1	2back	Block2	2back/STIM_034.jpg
1075.448	0.942	1	2back	Block2	2back/STIM_034.jpg
1079.774	0.983	1	2back	Block2	2back/STIM_034.jpg
1082.682	1.184	1	2back	Block2	2back/STIM_035.jpg
1087.72	1.118	1	2back	Block2	2back/STIM_035.jpg
1091.859	0.876	1	2back	Block2	2back/STIM_035.jpg
1095.836	1.106	1	2back	Block2	2back/STIM_036.jpg
1100.175	1.141	1	2back	Block2	2back/STIM_036.jpg
1103.213	0.846	1	2back	Block2	2back/STIM_036.jpg
1106.232	0.664	1	2back	Block2	2back/STIM_037.jpg
1110.499	0.595	1	2back	Block2	2back/STIM_037.jpg
1114.188	1.184	0	2back	Block2	2back/STIM_037.jpg
1118.983	0.963	1	2back	Block2	2back/STIM_038.jpg
1122.031	0.555	1	2back	Block2	2back/STIM_038.jpg
1126.019	0.88	1	2back	Block2	2back/STIM_038.jpg
1130.563	0.875	1	2back	Block2	2back/STIM_039.jpg
1134.214	0.688	1	2back	Block2	2back/STIM_039.jpg
1137.138	0.862	1	2back	Block2	2back/STIM_039.jpg
1141.803	0.891	1	0back	Block2	0back/STIM_000.jpg
1145.846	0.537	1	0back	Block2	0back/STIM_000.jpg
1148.926	0.578	1	0back	Block2	0back/STIM_000.jpg
1152.572	0.864	1	0back	Block2	0back/STIM_001.jpg
1155.737	0.642	1	0back	Block2	0back/STIM_001.jpg
1159.834	0.695	1	0back	Block2	0back/STIM_001.jpg
1163.043	0.898	1	0back	Block2	0back/STIM_002.jpg
1167.552	0.513	1	0back	Block2	0back/STIM_002.jpg
1171.15	0.736	1	0back	Block2	0back/STIM_002.jpg
1174.551	0.739	1	0back	Block2	0back/STIM_003.jpg
1178.406	0.625	1	0back	Block2	0back/STIM_003.jpg
1182.393	0.636	1	0back	Block2	0back/STIM_003.jpg
1186.106	0.778	1	0back	Block2	0back/STIM_004.jpg
1190.121	0.463	1	0back	Block2	0back/STIM_004.jpg
1194.026	0.75	1	0back	Block2	0back/STIM_004.jpg
1197.562	0.691	1	0back	Block2	0back/STIM_005.jpg
1201.78	0.466	1	0back	Block2	0back/STIM_005.jpg
1205.107	0.583	1	0back	Block2	0back/STIM_005.jpg
1209.047	0.527	1	0back	Block2	0back/STIM_006.jpg
1213.325	0.887	1	0back	Block2	0back/STIM_006.jpg
1216.411	0.784	1	0back	Block2	0back/STIM_006.jpg
1220.209	0.495	1	0back	Block2	0back/STIM_007.jpg
1223.028	0.78	0	0back	Block2	0back/STIM_007.jpg
1227.467	0.729	1	0back	Block2	0back/STIM_007.jpg
1231.264	0.557	1	0back	Block2	0back/STIM_008.jpg
1234.051	0.7	1	0back	Block2	0back/STIM_008.jpg
1237.53	0.608	1	0back	Block2	0back/STIM_008.jpg
1240.854	0.642	1	0back	Block2	0back/STIM_009.jpg
1243.761	0.557	1	0back	Block2	0back/STIM_009.jpg
1247.254	0.834	1	0back	Block2	0back/STIM_009.jpg
1250.146	0.455	1	0back	Block2	0back/STIM_010.jpg
1252.66	0.894	1	0back	Block2	0back/STIM_010.jpg
1256.035	0.784	1	0back	Block2	0back/STIM_010.jpg
1259.624	0.722	1	0back	Block2	0back/STIM_011.jpg
1262.611	0.904	1	0back	Block2	0back/STIM_011.jpg
1265.579	0.63	1	0back	Block2	0back/STIM_011.jpg
1269.586	0.697	1	0back	Block2	0back/STIM_012.jpg
1273.702	0.84	1	0back	Block2	0back/STIM_012.jpg
1277.92	0.524	1	0back	Block2	0back/STIM_012.jpg
1281.907	0.512	1	0back	Block2	0back/STIM_013.jpg
1285.563	0.717	1	0back	Block2	0back/STIM_013.jpg
1288.601	0.697	1	0back	Block2	0back/STIM_013.jpg
1292.405	0.55	1	0back	Block2	0back/STIM_014.jpg
1295.839	0.662	1	0back	Block2	0back/STIM_014.jpg
1299.83	0.498	1	0back	Block2	0back/STIM_014.jpg
1304.151	0.748	1	0back	Block2	0back/STIM_015.jpg
1307.079	0.455	1	0back	Block2	0back/STIM_015.jpg
1311.397	0.6	1	0back	Block2	0back/STIM_015.jpg
1314.323	0.588	0	0back	Block2	0back/STIM_016.jpg
1317.863	0.707	1	0back	Block2	0back/STIM_016.jpg
1321.792	0.726	1	0back	Block2	0back/STIM_016.jpg
1325.673	0.824	1	0back	Block2	0back/STIM_017.jpg
1329.629	0.539	1	0back	Block2	0back/STIM_017.jpg
1333.669	0.88	1	0back	Block2	0back/STIM_017.jpg
1338.054	0.529	1	0back	Block2	0back/STIM_018.jpg
1340.791	0.859	1	0back	Block2	0back/STIM_018.jpg
1344.082	0.642	1	0back	Block2	0back/STIM_018.jpg
1348.254	0.693	1	0back	Block2	0back/STIM_019.jpg
1351.525	0.852	1	0back	Block2	0back/STIM_019.jpg
1354.788	0.473	1	0back	Block2	0back/STIM_019.jpg
1357.673	1.045	1	2back	Block3	2back/STIM_000.jpg
1362.404	0.755	1	2back	Block3	2back/STIM_000.jpg
1366.387	0.547	1	2back	Block3	2back/STIM_000.jpg
1369.066	1.088	1	2back	Block3	2back/STIM_001.jpg
1373.099	0.732	1	2back	Block3	2back/STIM_001.jpg
1377.247	0.644	1	2back	Block3	2back/STIM_001.jpg
1379.997	0.538	1	2back	Block3	2back/STIM_002.jpg
1382.938	0.642	1	2back	Block3	2back/STIM_002.jpg
1386.804	0.734	1	2back	Block3	2back/STIM_002.jpg
1390.304	1.093	1	2back	Block3	2back/STIM_003.jpg
1393.722	0.879	1	2back	Block3	2back/STIM_003.jpg
1397.209	0.914	1	2back	Block3	2back/STIM_003.jpg
1401.826	0.95	1	2back	Block3	2back/STIM_004.jpg
1405.689	1.095	1	2back	Block3	2back/STIM_004.jpg
1409.807	0.849	1	2back	Block3	2back/STIM_004.jpg
1413.953	0.534	1	2back	Block3	2back/STIM_005.jpg
1416.537	0.548	1	2back	Block3	2back/STIM_005.jpg
1419.237	0.825	0	2back	Block3	2back/STIM_005.jpg
1423.588	1.058	1	2back	Block3	2back/STIM_006.jpg
1426.929	1.021	1	2back	Block3	2back/STIM_006.jpg
1430.089	1.009	1	2back	Block3	2back/STIM_006.jpg
1433.589	0.616	1	2back	Block3	2back/STIM_007.jpg
1437.937	0.955	1	2back	Block3	2back/STIM_007.jpg
1441.217	0.962	1	2back	Block3	2back/STIM_007.jpg
1445.498	0.602	1	2back	Block3	2back/STIM_008.jpg
1448.49	0.94	1	2back	Block3	2back/STIM_008.jpg
1451.903	1.008	1	2back	Block3	2back/STIM_008.jpg
1455.381	0.926	1	2back	Block3	2back/STIM_009.jpg
1458.884	0.687	1	2back	Block3	2back/STIM_009.jpg
1463.477	0.965	1	2back	Block3	2back/STIM_009.jpg
1467.038	0.949	0	2back	Block3	2back/STIM_010.jpg
1471.514	1.076	1	2back	Block3	2back/STIM_010.jpg
1476.169	0.494	1	2back	Block3	2back/STIM_010.jpg
1480.329	0.788	1	2back	Block3	2back/STIM_011.jpg
1484.877	0.862	1	2back	Block3	2back/STIM_011.jpg
1488.605	0.783	1	2back	Block3	2back/STIM_011.jpg
1491.347	1.016	1	2back	Block3	2back/STIM_012.jpg
1494.627	0.808	1	2back	Block3	2back/STIM_012.jpg
1497.557	0.619	1	2back	Block3	2back/STIM_012.jpg
1500.555	1.075	1	2back	Block3	2back/STIM_013.jpg
1505.475	0.879	1	2back	Block3	2back/STIM_013.jpg
1509.041	0.663	1	2back	Block3	2back/STIM_013.jpg
1512.217	0.95	1	2back	Block3	2back/STIM_014.jpg
1515.74	0.809	1	2back	Block3	2back/STIM_014.jpg
1520.047	0.672	1	2back	Block3	2back/STIM_014.jpg
1522.851	0.985	1	2back	Block3	2back/STIM_015.jpg
1526.22	0.542	1	2back	Block3	2back/STIM_015.jpg
1528.822	0.685	1	2back	Block3	2back/STIM_015.jpg
1532.0	0.949	1	2back	Block3	2back/STIM_016.jpg
1535.891	0.62	1	2back	Block3	2back/STIM_016.jpg
1538.866	0.818	1	2back	Block3	2back/STIM_016.jpg
1543.164	0.642	1	2back	Block3	2back/STIM_017.jpg
1546.831	1.031	1	2back	Block3	2back/STIM_017.jpg
1549.844	1.065	1	2back	Block3	2back/STIM_017.jpg
1553.32	0.763	1	2back	Block3	2back/STIM_018.jpg
1557.793	0.956	1	2back	Block3	2back/STIM_018.jpg
1561.369	0.935	1	2back	Block3	2back/STIM_018.jpg
1565.378	0.872	1	2back	Block3	2back/STIM_019.jpg
1568.233	0.876	1	2back	Block3	2back/STIM_019.jpg
1571.128	0.636	1	2back	Block3	2back/STIM_019.jpg
1575.049	0.892	1	2back	Block3	2back/STIM_020.jpg
1578.942	0.963	1	2back	Block3	2back/STIM_020.jpg
1582.397	0.872	1	2back	Block3	2back/STIM_020.jpg
1586.24	0.687	1	2back	Block3	2back/STIM_021.jpg
1589.572	0.789	1	2back	Block3	2back/STIM_021.jpg
1593.498	0.572	1	2back	Block3	2back/STIM_021.jpg
1596.133	0.554	1	2back	Block3	2back/STIM_022.jpg
1599.846	0.94	1	2back	Block3	2back/STIM_022.jpg
1603.199	0.563	1	2back	Block3	2back/STIM_022.jpg
1607.506	0.911	1	2back	Block3	2back/STIM_023.jpg
1611.602	0.566	1	2back	Block3	2back/STIM_023.jpg
1614.175	1.106	1	2back	Block3	2back/STIM_023.jpg
1617.412	0.492	1	2back	Block3	2back/STIM_024.jpg
1621.683	0.77	1	2back	Block3	2back/STIM_024.jpg
1625.08	0.882	1	2back	Block3	2back/STIM_024.jpg
1629.659	0.633	1	2back	Block3	2back/STIM_025.jpg
1632.857	0.89	1	2back	Block3	2back/STIM_025.jpg
1636.603	0.992	1	2back	Block3	2back/STIM_025.jpg
1640.165	0.684	1	2back	Block3	2back/STIM_026.jpg
1643.441	0.97	1	2back	Block3	2back/STIM_026.jpg
1646.976	0.693	1	2back	Block3	2back/STIM_026.jpg
1649.616	1.062	0	2back	Block3	2back/STIM_027.jpg
1654.3	1.035	1	2back	Block3	2back/STIM_027.jpg
1657.531	0.768	1	2back	Block3	2back/STIM_027.jpg
1660.466	0.675	1	2back	Block3	2back/STIM_028.jpg
1664.835	0.823	1	2back	Block3	2back/STIM_028.jpg
1668.73	0.595	1	2back	Block3	2back/STIM_028.jpg
1671.699	0.699	0	2back	Block3	2back/STIM_029.jpg
1675.433	0.803	1	2back	Block3	2back/STIM_029.jpg
1678.943	1.06	1	2back	Block3	2back/STIM_029.jpg
1683.233	1.085	1	2back	Block3	2back/STIM_030.jpg
1686.832	0.826	1	2back	Block3	2back/STIM_030.jpg
1690.639	0.755	1	2back	Block3	2back/STIM_030.jpg
1695.281	1.002	1	2back	Block3	2back/STIM_031.jpg
1698.792	0.578	1	2back	Block3	2back/STIM_031.jpg
1702.637	0.854	1	2back	Block3	2back/STIM_031.jpg
1706.585	0.736	1	2back	Block3	2back/STIM_032.jpg
1710.59	0.704	0	2back	Block3	2back/STIM_032.jpg
1714.356	1.097	1	2back	Block3	2back/STIM_032.jpg
1718.993	0.934	1	2back	Block3	2back/STIM_033.jpg
1722.668	0.768	1	2back	Block3	2back/STIM_033.jpg
1725.679	0.812	1	2back	Block3	2back/STIM_033.jpg
1729.263	0.797	1	2back	Block3	2back/STIM_034.jpg
1733.882	0.632	1	2back	Block3	2back/STIM_034.jpg
1736.898	0.71	1	2back	Block3	2back/STIM_034.jpg
1740.039	0.96	1	2back	Block3	2back/STIM_035.jpg
1743.693	1.061	1	2back	Block3	2back/STIM_035.jpg
1746.934	0.947	0	2back	Block3	2back/STIM_035.jpg
1750.337	0.533	1	2back	Block3	2back/STIM_036.jpg
1754.545	0.613	1	2back	Block3	2back/STIM_036.jpg
1758.414	1.101	1	2back	Block3	2back/STIM_036.jpg
1762.271	0.698	1	2back	Block3	2back/STIM_037.jpg
1765.643	0.97	1	2back	Block3	2back/STIM_037.jpg
1769.095	0.87	0	2back	Block3	2back/STIM_037.jpg
1772.547	0.664	1	2back	Block3	2back/STIM_038.jpg
1777.113	0.808	1	2back	Block3	2back/STIM_038.jpg
1780.566	1.052	1	2back	Block3	2back/STIM_038.jpg
1784.732	0.835	1	2back	Block3	2back/STIM_039.jpg
1787.612	0.894	1	2back	Block3	2back/STIM_039.jpg
1790.971	0.513	1	2back	Block3	2back/STIM_039.jpg
1793.485	0.822	1	0back	Block3	0back/STIM_000.jpg
1797.11	0.581	1	0back	Block3	0back/STIM_000.jpg
1800.09	0.688	1	0back	Block3	0back/STIM_000.jpg
1804.097	0.626	1	0back	Block3	0back/STIM_001.jpg
1808.293	0.534	1	0back	Block3	0back/STIM_001.jpg
1811.247	0.487	1	0back	Block3	0back/STIM_001.jpg
1814.277	0.773	1	0back	Block3	0back/STIM_002.jpg
1817.747	0.775	1	0back	Block3	0back/STIM_002.jpg
1820.952	0.86	1	0back	Block3	0back/STIM_002.jpg
1824.09	0.46	1	0back	Block3	0back/STIM_003.jpg
1827.717	0.465	1	0back	Block3	0back/STIM_003.jpg
1831.619	0.644	1	0back	Block3	0back/STIM_003.jpg
1835.459	0.634	1	0back	Block3	0back/STIM_004.jpg
1838.283	0.819	1	0back	Block3	0back/STIM_004.jpg
1841.427	0.898	1	0back	Block3	0back/STIM_004.jpg
1846.123	0.627	1	0back	Block3	0back/STIM_005.jpg
1849.612	0.605	1	0back	Block3	0back/STIM_005.jpg
1852.962	0.529	1	0back	Block3	0back/STIM_005.jpg
1856.317	0.69	1	0back	Block3	0back/STIM_006.jpg
1860.394	0.628	1	0back	Block3	0back/STIM_006.jpg
1864.033	0.628	1	0back	Block3	0back/STIM_006.jpg
1867.647	0.871	1	0back	Block3	0back/STIM_007.jpg
1870.919	0.854	1	0back	Block3	0back/STIM_007.jpg
1874.334	0.504	1	0back	Block3	0back/STIM_007.jpg
1878.126	0.79	1	0back	Block3	0back/STIM_008.jpg
1880.951	0.542	1	0back	Block3	0back/STIM_008.jpg
1885.376	0.797	1	0back	Block3	0back/STIM_008.jpg
1889.904	0.546	1	0back	Block3	0back/STIM_009.jpg
1893.493	0.492	1	0back	Block3	0back/STIM_009.jpg
1896.065	0.764	1	0back	Block3	0back/STIM_009.jpg
1899.79	0.768	1	0back	Block3	0back/STIM_010.jpg
1903.835	0.531	1	0back	Block3	0back/STIM_010.jpg
1906.413	0.584	1	0back	Block3	0back/STIM_010.jpg
1909.627	0.6	1	0back	Block3	0back/STIM_011.jpg
1914.091	0.759	1	0back	Block3	0back/STIM_011.jpg
1918.526	0.625	1	0back	Block3	0back/STIM_011.jpg
1921.609	0.854	1	0back	Block3	0back/STIM_012.jpg
1926.081	0.637	1	0back	Block3	0back/STIM_012.jpg
1928.887	0.749	0	0back	Block3	0back/STIM_012.jpg
1931.975	0.728	1	0back	Block3	0back/STIM_013.jpg
1935.575	0.521	1	0back	Block3	0back/STIM_013.jpg
1939.208	0.773	1	0back	Block3	0back/STIM_013.jpg
1942.026	0.535	1	0back	Block3	0back/STIM_014.jpg
1946.08	0.568	0	0back	Block3	0back/STIM_014.jpg
1949.724	0.704	1	0back	Block3	0back/STIM_014.jpg
1952.763	0.85	1	0back	Block3	0back/STIM_015.jpg
1957.298	0.798	1	0back	Block3	0back/STIM_015.jpg
1961.883	0.845	1	0back	Block3	0back/STIM_015.jpg
1965.934	0.722	1	0back	Block3	0back/STIM_016.jpg
1968.743	0.832	1	0back	Block3	0back/STIM_016.jpg
1971.512	0.564	1	0back	Block3	0back/STIM_016.jpg
1975.049	0.552	1	0back	Block3	0back/STIM_017.jpg
1978.442	0.636	1	0back	Block3	0back/STIM_017.jpg
1982.078	0.47	1	0back	Block3	0back/STIM_017.jpg
1984.748	0.775	1	0back	Block3	0back/STIM_018.jpg
1989.05	0.774	1	0back	Block3	0back/STIM_018.jpg
1993.179	0.742	1	0back	Block3	0back/STIM_018.jpg
1997.689	0.726	1	0back	Block3	0back/STIM_019.jpg
2000.962	0.539	1	0back	Block3	0back/STIM_019.jpg
2004.66	0.824	1	0back	Block3	0back/STIM_019.jpg
2008.053	0.511	1	2back	Block4	2back/STIM_000.jpg
2012.021	0.878	1	2back	Block4	2back/STIM_000.jpg
2016.688	0.74	1	2back	Block4	2back/STIM_000.jpg
2019.593	0.552	1	2back	Block4	2back/STIM_001.jpg
2022.284	0.824	1	2back	Block4	2back/STIM_001.jpg
2025.359	0.834	1	2back	Block4	2back/STIM_001.jpg
2028.48	0.756	1	2back	Block4	2back/STIM_002.jpg
2032.625	0.664	1	2back	Block4	2back/STIM_002.jpg
2037.164	0.982	1	2back	Block4	2back/STIM_002.jpg
2041.199	0.619	1	2back	Block4	2back/STIM_003.jpg
2045.234	0.665	1	2back	Block4	2back/STIM_003.jpg
2047.974	0.49	1	2back	Block4	2back/STIM_003.jpg
2051.197	1.075	1	2back	Block4	2back/STIM_004.jpg
2056.127	0.484	1	2back	Block4	2back/STIM_004.jpg
2059.592	1.053	1	2back	Block4	2back/STIM_004.jpg
2063.724	0.713	1	2back	Block4	2back/STIM_005.jpg
2067.923	0.522	1	2back	Block4	2back/STIM_005.jpg
2071.052	0.72	1	2back	Block4	2back/STIM_005.jpg
2073.967	0.855	1	2back	Block4	2back/STIM_006.jpg
2076.806	0.63	1	2back	Block4	2back/STIM_006.jpg
2080.157	1.054	1	2back	Block4	2back/STIM_006.jpg
2084.454	1.097	1	2back	Block4	2back/STIM_007.jpg
2087.914	0.708	1	2back	Block4	2back/STIM_007.jpg
2091.499	0.907	1	2back	Block4	2back/STIM_007.jpg
2095.822	1.001	1	2back	Block4	2back/STIM_008.jpg
2100.035	0.804	1	2back	Block4	2back/STIM_008.jpg
2103.141	0.911	1	2back	Block4	2back/STIM_008.jpg
2107.705	0.608	1	2back	Block4	2back/STIM_009.jpg
2110.712	0.996	1	2back	Block4	2back/STIM_009.jpg
2115.062	0.628	1	2back	Block4	2back/STIM_009.jpg
2118.169	1.003	1	2back	Block4	2back/STIM_010.jpg
2122.132	0.614	1	2back	Block4	2back/STIM_010.jpg
2125.223	0.9	1	2back	Block4	2back/STIM_010.jpg
2129.285	0.617	1	2back	Block4	2back/STIM_011.jpg
2132.445	0.755	1	2back	Block4	2back/STIM_011.jpg
2136.34	1.02	1	2back	Block4	2back/STIM_011.jpg
2140.165	0.808	1	2back	Block4	2back/STIM_012.jpg
2143.336	1.091	1	2back	Block4	2back/STIM_012.jpg
2146.636	0.515	1	2back	Block4	2back/STIM_012.jpg
2150.873	0.669	1	2back	Block4	2back/STIM_013.jpg
2154.774	0.583	1	2back	Block4	2back/STIM_013.jpg
2158.896	0.954	1	2back	Block4	2back/STIM_013.jpg
2162.763	1.045	1	2back	Block4	2back/STIM_014.jpg
2165.947	0.942	1	2back	Block4	2back/STIM_014.jpg
2170.201	1.049	1	2back	Block4	2back/STIM_014.jpg
2174.131	0.616	1	2back	Block4	2back/STIM_015.jpg
2178.421	0.747	1	2back	Block4	2back/STIM_015.jpg
2181.981	0.551	0	2back	Block4	2back/STIM_015.jpg
2185.611	0.911	1	2back	Block4	2back/STIM_016.jpg
2189.552	1.08	1	2back	Block4	2back/STIM_016.jpg
2193.172	0.813	1	2back	Block4	2back/STIM_016.jpg
2197.345	0.675	1	2back	Block4	2back/STIM_017.jpg
2200.116	0.986	1	2back	Block4	2back/STIM_017.jpg
2203.779	0.93	1	2back	Block4	2back/STIM_017.jpg
2208.092	0.99	1	2back	Block4	2back/STIM_018.jpg
2212.5	0.859	1	2back	Block4	2back/STIM_018.jpg
2215.96	0.798	1	2back	Block4	2back/STIM_018.jpg
2219.924	1.048	1	2back	Block4	2back/STIM_019.jpg
2224.456	0.796	1	2back	Block4	2back/STIM_019.jpg
2228.578	0.926	1	2back	Block4	2back/STIM_019.jpg
2232.064	0.737	1	2back	Block4	2back/STIM_020.jpg
2236.311	0.881	1	2back	Block4	2back/STIM_020.jpg
2240.303	0.952	1	2back	Block4	2back/STIM_020.jpg
2244.0	1.034	1	2back	Block4	2back/STIM_021.jpg
2248.673	0.885	1	2back	Block4	2back/STIM_021.jpg
2252.265	1.06	1	2back	Block4	2back/STIM_021.jpg
2255.621	0.967	1	2back	Block4	2back/STIM_022.jpg
2259.451	0.856	1	2back	Block4	2back/STIM_022.jpg
2263.231	0.918	1	2back	Block4	2back/STIM_022.jpg
2267.182	0.982	1	2back	Block4	2back/STIM_023.jpg
2271.58	0.949	1	2back	Block4	2back/STIM_023.jpg
2274.909	0.899	1	2back	Block4	2back/STIM_023.jpg
2278.779	1.03	1	2back	Block4	2back/STIM_024.jpg
2281.73	0.585	1	2back	Block4	2back/STIM_024.jpg
2286.177	0.835	1	2back	Block4	2back/STIM_024.jpg
2290.44	0.764	1	2back	Block4	2back/STIM_025.jpg
2294.448	0.828	1	2back	Block4	2back/STIM_025.jpg
2298.363	0.783	1	2back	Block4	2back/STIM_025.jpg
2301.595	0.688	1	2back	Block4	2back/STIM_026.jpg
2305.773	0.825	1	2back	Block4	2back/STIM_026.jpg
2309.027	0.754	1	2back	Block4	2back/STIM_026.jpg
2313.438	1.006	1	2back	Block4	2back/STIM_027.jpg
2316.491	0.766	1	2back	Block4	2back/STIM_027.jpg
2320.418	0.993	1	2back	Block4	2back/STIM_027.jpg
2323.966	0.947	1	2back	Block4	2back/STIM_028.jpg
2328.432	0.719	1	2back	Block4	2back/STIM_028.jpg
2332.616	0.827	1	2back	Block4	2back/STIM_028.jpg
2336.541	0.795	1	2back	Block4	2back/STIM_029.jpg
2340.259	1.002	1	2back	Block4	2back/STIM_029.jpg
2344.136	0.693	1	2back	Block4	2back/STIM_029.jpg
2348.637	0.705	1	2back	Block4	2back/STIM_030.jpg
2352.248	0.69	1	2back	Block4	2back/STIM_030.jpg
2356.458	0.903	1	2back	Block4	2back/STIM_030.jpg
2361.118	0.6	1	2back	Block4	2back/STIM_031.jpg
2364.921	0.61	1	2back	Block4	2back/STIM_031.jpg
2368.163	0.886	1	2back	Block4	2back/STIM_031.jpg
2371.528	0.676	1	2back	Block4	2back/STIM_032.jpg
2374.826	0.484	1	2back	Block4	2back/STIM_032.jpg
2377.382	1.078	1	2back	Block4	2back/STIM_032.jpg
2381.251	0.545	1	2back	Block4	2back/STIM_033.jpg
2384.924	0.99	1	2back	Block4	2back/STIM_033.jpg
2387.922	1.07	1	2back	Block4	2back/STIM_033.jpg
2391.306	0.55	1	2back	Block4	2back/STIM_034.jpg
2394.882	1.097	0	2back	Block4	2back/STIM_034.jpg
2399.793	1.093	1	2back	Block4	2back/STIM_034.jpg
2402.76	0.826	1	2back	Block4	2back/STIM_035.jpg
2406.078	1.072	1	2back	Block4	2back/STIM_035.jpg
2410.082	0.646	1	2back	Block4	2back/STIM_035.jpg
2414.236	0.652	1	2back	Block4	2back/STIM_036.jpg
2417.18	0.94	1	2back	Block4	2back/STIM_036.jpg
2421.079	0.594	1	2back	Block4	2back/STIM_036.jpg
2425.363	1.11	1	2back	Block4	2back/STIM_037.jpg
2428.958	0.883	1	2back	Block4	2back/STIM_037.jpg
2432.15	0.97	1	2back	Block4	2back/STIM_037.jpg
2435.042	0.815	1	2back	Block4	2back/STIM_038.jpg
2439.217	0.734	1	2back	Block4	2back/STIM_038.jpg
2442.023	0.863	1	2back	Block4	2back/STIM_038.jpg
2446.438	0.523	1	2back	Block4	2back/STIM_039.jpg
2449.0	0.917	1	2back	Block4	2back/STIM_039.jpg
2452.293	1.01	1	2back	Block4	2back/STIM_039.jpg
2456.207	0.785	1	0back	Block4	0back/STIM_000.jpg
2459.541	0.628	1	0back	Block4	0back/STIM_000.jpg
2462.899	0.653	1	0back	Block4	0back/STIM_000.jpg
2466.883	0.597	1	0back	Block4	0back/STIM_001.jpg
2470.59	0.866	1	0back	Block4	0back/STIM_001.jpg
2474.86	0.56	1	0back	Block4	0back/STIM_001.jpg
2479.297	0.58	1	0back	Block4	0back/STIM_002.jpg
2482.992	0.897	1	0back	Block4	0back/STIM_002.jpg
2487.653	0.618	1	0back	Block4	0back/STIM_002.jpg
2490.859	0.842	1	0back	Block4	0back/STIM_003.jpg
2494.624	0.523	1	0back	Block4	0back/STIM_003.jpg
2498.06	0.876	1	0back	Block4	0back/STIM_003.jpg
2500.938	0.685	1	0back	Block4	0back/STIM_004.jpg
2504.188	0.717	1	0back	Block4	0back/STIM_004.jpg
2507.693	0.843	1	0back	Block4	0back/STIM_004.jpg
2511.966	0.525	1	0back	Block4	0back/STIM_005.jpg
2515.423	0.489	1	0back	Block4	0back/STIM_005.jpg
2519.448	0.758	1	0back	Block4	0back/STIM_005.jpg
2522.277	0.828	1	0back	Block4	0back/STIM_006.jpg
2525.731	0.627	1	0back	Block4	0back/STIM_006.jpg
2529.9	0.644	1	0back	Block4	0back/STIM_006.jpg
2532.507	0.636	0	0back	Block4	0back/STIM_007.jpg
2535.359	0.845	1	0back	Block4	0back/STIM_007.jpg
2538.182	0.879	1	0back	Block4	0back/STIM_007.jpg
2542.523	0.474	1	0back	Block4	0back/STIM_008.jpg
2546.685	0.793	1	0back	Block4	0back/STIM_008.jpg
2549.488	0.481	1	0back	Block4	0back/STIM_008.jpg
2553.081	0.699	1	0back	Block4	0back/STIM_009.jpg
2557.024	0.786	1	0back	Block4	0back/STIM_009.jpg
2560.802	0.777	1	0back	Block4	0back/STIM_009.jpg
2563.926	0.737	1	0back	Block4	0back/STIM_010.jpg
2568.402	0.652	1	0back	Block4	0back/STIM_010.jpg
2572.929	0.731	1	0back	Block4	0back/STIM_010.jpg
2576.34	0.725	1	0back	Block4	0back/STIM_011.jpg
2580.414	0.741	1	0back	Block4	0back/STIM_011.jpg
2584.436	0.612	1	0back	Block4	0back/STIM_011.jpg
2587.362	0.568	1	0back	Block4	0back/STIM_012.jpg
2591.08	0.659	1	0back	Block4	0back/STIM_012.jpg
2594.104	0.81	1	0back	Block4	0back/STIM_012.jpg
2598.454	0.611	1	0back	Block4	0back/STIM_013.jpg
2602.808	0.691	1	0back	Block4	0back/STIM_013.jpg
2605.845	0.49	1	0back	Block4	0back/STIM_013.jpg
2608.616	0.566	1	0back	Block4	0back/STIM_014.jpg
2612.47	0.454	1	0back	Block4	0back/STIM_014.jpg
2615.474	0.485	1	0back	Block4	0back/STIM_014.jpg
2618.388	0.812	1	0back	Block4	0back/STIM_015.jpg
2622.136	0.599	1	0back	Block4	0back/STIM_015.jpg
2625.615	0.888	1	0back	Block4	0back/STIM_015.jpg
2630.364	0.62	1	0back	Block4	0back/STIM_016.jpg
2633.398	0.663	1	0back	Block4	0back/STIM_016.jpg
2637.095	0.878	1	0back	Block4	0back/STIM_016.jpg
2640.554	0.864	1	0back	Block4	0back/STIM_017.jpg
2643.762	0.565	1	0back	Block4	0back/STIM_017.jpg
2647.106	0.838	1	0back	Block4	0back/STIM_017.jpg
2650.355	0.883	1	0back	Block4	0back/STIM_018.jpg
2654.65	0.533	1	0back	Block4	0back/STIM_018.jpg
2657.895	0.632	1	0back	Block4	0back/STIM_018.jpg
2661.828	0.664	1	0back	Block4	0back/STIM_019.jpg
2665.947	0.578	1	0back	Block4	0back/STIM_019.jpg
2669.697	0.649	1	0back	Block4	0back/STIM_019.jpg
