onset	duration	response_time_ms	trial_type	learning_stage	stimulus	response_port
0.0	1.488	1487.8	2back	Block1	2back/STIM_000.jpg	99
4.068	0.943	942.6	2back	Block1	2back/STIM_000.jpg	99
8.881	1.284	1284.5	2back	Block1	2back/STIM_000.jpg	100
12.527	1.365	1364.7	2back	Block1	2back/STIM_001.jpg	100
16.829	0.739	739.2	2back	Block1	2back/STIM_001.jpg	100
20.277	1.08	1080.1	2back	Block1	2back/STIM_001.jpg	99
24.267	1.303	1302.6	2back	Block1	2back/STIM_002.jpg	100
28.566	1.391	1391.3	2back	Block1	2back/STIM_002.jpg	100
32.839	0.969	969.3	2back	Block1	2back/STIM_002.jpg	100
35.881	1.271	1270.7	2back	Block1	2back/STIM_003.jpg	100
40.871	0.672	672.5	2back	Block1	2back/STIM_003.jpg	100
43.735	1.366	1365.8	2back	Block1	2back/STIM_003.jpg	100
48.816	1.552	1551.8	2back	Block1	2back/STIM_004.jpg	99
53.804	1.021	1020.6	2back	Block1	2back/STIM_004.jpg	99
57.396	1.252	1251.7	2back	Block1	2back/STIM_004.jpg	100
60.714	1.441	1441.1	2back	Block1	2back/STIM_005.jpg	99
65.604	0.7	700.3	2back	Block1	2back/STIM_005.jpg	100
70.037	0.892	892.2	2back	Block1	2back/STIM_005.jpg	100
73.447	1.32	1320.2	2back	Block1	2back/STIM_006.jpg	100
77.545	1.484	1484.3	2back	Block1	2back/STIM_006.jpg	100
81.447	1.012	1011.7	2back	Block1	2back/STIM_006.jpg	100
85.109	0.868	867.9	2back	Block1	2back/STIM_007.jpg	100
89.347	0.955	955.2	2back	Block1	2back/STIM_007.jpg	100
92.27	0.93	930.4	2back	Block1	2back/STIM_007.jpg	100
96.494	1.196	1196.3	2back	Block1	2back/STIM_008.jpg	100
101.291	0.783	783.4	2back	Block1	2back/STIM_008.jpg	100
104.501	0.878	877.9	2back	Block1	2back/STIM_008.jpg	99
107.666	1.488	1488.5	2back	Block1	2back/STIM_009.jpg	100
111.662	0.807	807.2	2back	Block1	2back/STIM_009.jpg	99
116.034	1.229	1228.7	2back	Block1	2back/STIM_009.jpg	100
120.526	1.507	1507.1	2back	Block1	2back/STIM_010.jpg	100
125.165	0.986	985.7	2back	Block1	2back/STIM_010.jpg	99
129.763	1.093	1092.6	2back	Block1	2back/STIM_010.jpg	99
134.677	1.134	1133.6	2back	Block1	2back/STIM_011.jpg	99
138.437	1.326	1326.2	2back	Block1	2back/STIM_011.jpg	99
143.192	1.324	1324.2	2back	Block1	2back/STIM_011.jpg	100
148.22	1.111	1110.7	2back	Block1	2back/STIM_012.jpg	99
151.779	1.171	1171.2	2back	Block1	2back/STIM_012.jpg	100
156.664	0.624	623.9	2back	Block1	2back/STIM_012.jpg	100
160.819	0.957	957.1	2back	Block1	2back/STIM_013.jpg	100
164.526	1.273	1272.8	2back	Block1	2back/STIM_013.jpg	100
167.781	1.384	1383.5	2back	Block1	2back/STIM_013.jpg	100
171.415	1.068	1068.1	2back	Block1	2back/STIM_014.jpg	100
176.307	1.133	1132.6	2back	Block1	2back/STIM_014.jpg	99
180.911	1.04	1039.7	2back	Block1	2back/STIM_014.jpg	100
184.413	1.542	1541.9	2back	Block1	2back/STIM_015.jpg	100
188.923	0.698	698.1	2back	Block1	2back/STIM_015.jpg	100
192.987	1.068	1068.5	2back	Block1	2back/STIM_015.jpg	100
197.371	0.708	707.6	2back	Block1	2back/STIM_016.jpg	99
200.682	1.375	1375.4	2back	Block1	2back/STIM_016.jpg	100
205.504	0.878	877.8	2back	Block1	2back/STIM_016.jpg	100
209.611	1.406	1405.7	2back	Block1	2back/STIM_017.jpg	100
213.902	1.081	1081.3	2back	Block1	2back/STIM_017.jpg	100
217.837	0.996	995.5	2back	Block1	2back/STIM_017.jpg	100
221.475	0.987	987.1	2back	Block1	2back/STIM_018.jpg	99
225.904	1.463	1462.7	2back	Block1	2back/STIM_018.jpg	100
230.406	1.206	1205.8	2back	Block1	2back/STIM_018.jpg	99
234.85	1.458	1458.0	2back	Block1	2back/STIM_019.jpg	99
240.031	0.819	819.3	2back	Block1	2back/STIM_019.jpg	100
242.887	0.641	640.7	2back	Block1	2back/STIM_019.jpg	100
246.816	0.914	914.5	2back	Block1	2back/STIM_020.jpg	100
249.825	0.904	903.7	2back	Block1	2back/STIM_020.jpg	100
253.469	1.149	1149.2	2back	Block1	2back/STIM_020.jpg	99
258.341	0.924	923.5	2back	Block1	2back/STIM_021.jpg	100
262.024	1.081	1081.2	2back	Block1	2back/STIM_021.jpg	100
265.134	1.372	1372.3	2back	Block1	2back/STIM_021.jpg	100
270.032	0.748	747.9	2back	Block1	2back/STIM_022.jpg	100
274.608	1.209	1209.3	2back	Block1	2back/STIM_022.jpg	100
279.098	0.821	820.6	2back	Block1	2back/STIM_022.jpg	100
283.572	0.86	859.6	2back	Block1	2back/STIM_023.jpg	99
288.028	1.228	1228.4	2back	Block1	2back/STIM_023.jpg	100
292.611	1.28	1280.1	2back	Block1	2back/STIM_023.jpg	99
296.391	1.249	1249.2	2back	Block1	2back/STIM_024.jpg	99
300.561	1.275	1275.4	2back	Block1	2back/STIM_024.jpg	99
303.936	0.965	965.4	2back	Block1	2back/STIM_024.jpg	100
307.859	0.702	701.9	2back	Block1	2back/STIM_025.jpg	99
312.087	1.255	1254.7	2back	Block1	2back/STIM_025.jpg	100
315.801	0.836	835.8	2back	Block1	2back/STIM_025.jpg	100
319.731	1.367	1367.4	2back	Block1	2back/STIM_026.jpg	99
323.821	0.661	661.1	2back	Block1	2back/STIM_026.jpg	100
327.459	0.962	962.4	2back	Block1	2back/STIM_026.jpg	100
331.539	1.508	1508.0	2back	Block1	2back/STIM_027.jpg	100
336.808	1.207	1206.7	2back	Block1	2back/STIM_027.jpg	100
340.414	0.976	975.5	2back	Block1	2back/STIM_027.jpg	100
344.606	1.003	1003.1	2back	Block1	2back/STIM_028.jpg	99
347.759	1.156	1156.5	2back	Block1	2back/STIM_028.jpg	100
351.733	1.406	1405.5	2back	Block1	2back/STIM_028.jpg	100
356.468	0.862	862.5	2back	Block1	2back/STIM_029.jpg	100
360.77	1.06	1060.1	2back	Block1	2back/STIM_029.jpg	99
364.892	0.784	783.9	2back	Block1	2back/STIM_029.jpg	100
369.58	1.083	1082.8	2back	Block1	2back/STIM_030.jpg	100
374.481	0.974	974.1	2back	Block1	2back/STIM_030.jpg	99
377.359	1.367	1367.3	2back	Block1	2back/STIM_030.jpg	99
380.804	1.25	1250.0	2back	Block1	2back/STIM_031.jpg	100
384.389	0.776	775.8	2back	Block1	2back/STIM_031.jpg	99
387.379	1.252	1251.6	2back	Block1	2back/STIM_031.jpg	99
390.494	0.736	735.7	2back	Block1	2back/STIM_032.jpg	100
393.984	1.158	1157.7	2back	Block1	2back/STIM_032.jpg	100
398.634	0.816	816.4	2back	Block1	2back/STIM_032.jpg	99
403.228	0.761	761.3	2back	Block1	2back/STIM_033.jpg	99
407.504	1.169	1169.2	2back	Block1	2back/STIM_033.jpg	99
411.146	1.362	1362.5	2back	Block1	2back/STIM_033.jpg	99
414.852	1.019	1018.9	2back	Block1	2back/STIM_034.jpg	100
418.422	1.14	1140.5	2back	Block1	2back/STIM_034.jpg	100
421.966	0.886	885.7	2back	Block1	2back/STIM_034.jpg	100
424.992	0.862	862.3	2back	Block1	2back/STIM_035.jpg	100
428.289	1.302	1302.5	2back	Block1	2back/STIM_035.jpg	99
433.046	0.763	762.9	2back	Block1	2back/STIM_035.jpg	99
437.655	1.152	1151.7	2back	Block1	2back/STIM_036.jpg	99
442.457	1.452	1451.9	2back	Block1	2back/STIM_036.jpg	100
446.344	0.612	612.5	2back	Block1	2back/STIM_036.jpg	99
450.145	0.901	900.6	2back	Block1	2back/STIM_037.jpg	99
454.066	1.197	1197.3	2back	Block1	2back/STIM_037.jpg	99
458.465	0.618	618.0	2back	Block1	2back/STIM_037.jpg	99
461.66	1.177	1177.2	2back	Block1	2back/STIM_038.jpg	100
465.495	1.058	1057.8	2back	Block1	2back/STIM_038.jpg	100
469.81	1.044	1043.8	2back	Block1	2back/STIM_038.jpg	99
474.325	1.221	1220.8	2back	Block1	2back/STIM_039.jpg	100
478.865	1.161	1161.2	2back	Block1	2back/STIM_039.jpg	99
482.425	1.347	1346.7	2back	Block1	2back/STIM_039.jpg	100
486.27	0.695	695.1	0back	Block1	0back/STIM_000.jpg	99
489.127	0.75	749.5	0back	Block1	0back/STIM_000.jpg	99
492.209	0.776	776.3	0back	Block1	0back/STIM_000.jpg	100
494.945	0.875	875.2	0back	Block1	0back/STIM_001.jpg	100
499.679	0.639	639.3	0back	Block1	0back/STIM_001.jpg	99
502.553	0.85	850.0	0back	Block1	0back/STIM_001.jpg	99
505.398	0.503	503.3	0back	Block1	0back/STIM_002.jpg	99
508.272	0.584	583.5	0back	Block1	0back/STIM_002.jpg	100
512.288	0.469	468.9	0back	Block1	0back/STIM_002.jpg	99
514.786	0.855	855.0	0back	Block1	0back/STIM_003.jpg	99
519.212	0.657	657.0	0back	Block1	0back/STIM_003.jpg	99
522.745	0.65	650.0	0back	Block1	0back/STIM_003.jpg	100
525.653	0.532	532.5	0back	Block1	0back/STIM_004.jpg	99
528.312	0.616	616.1	0back	Block1	0back/STIM_004.jpg	100
532.011	0.861	860.6	0back	Block1	0back/STIM_004.jpg	99
534.847	0.872	872.5	0back	Block1	0back/STIM_005.jpg	99
537.643	0.747	746.6	0back	Block1	0back/STIM_005.jpg	100
540.689	0.637	636.9	0back	Block1	0back/STIM_005.jpg	100
544.38	0.771	770.6	0back	Block1	0back/STIM_006.jpg	100
547.068	0.772	772.2	0back	Block1	0back/STIM_006.jpg	99
550.908	0.539	538.9	0back	Block1	0back/STIM_006.jpg	99
554.373	0.874	874.4	0back	Block1	0back/STIM_007.jpg	100
558.501	0.507	506.7	0back	Block1	0back/STIM_007.jpg	99
561.627	0.627	626.9	0back	Block1	0back/STIM_007.jpg	99
564.902	0.756	756.4	0back	Block1	0back/STIM_008.jpg	100
568.704	0.587	586.7	0back	Block1	0back/STIM_008.jpg	99
573.148	0.514	513.5	0back	Block1	0back/STIM_008.jpg	100
577.148	0.779	778.9	0back	Block1	0back/STIM_009.jpg	99
581.635	0.663	663.0	0back	Block1	0back/STIM_009.jpg	99
584.884	0.591	590.9	0back	Block1	0back/STIM_009.jpg	99
588.877	0.486	486.2	0back	Block1	0back/STIM_010.jpg	99
593.276	0.716	716.4	0back	Block1	0back/STIM_010.jpg	100
596.655	0.561	561.1	0back	Block1	0back/STIM_010.jpg	100
599.851	0.787	786.6	0back	Block1	0back/STIM_011.jpg	99
604.535	0.538	537.9	0back	Block1	0back/STIM_011.jpg	99
607.793	0.556	556.4	0back	Block1	0back/STIM_011.jpg	100
610.668	0.838	838.3	0back	Block1	0back/STIM_012.jpg	100
614.126	0.512	512.1	0back	Block1	0back/STIM_012.jpg	100
617.791	0.877	876.9	0back	Block1	0back/STIM_012.jpg	100
622.146	0.506	505.7	0back	Block1	0back/STIM_013.jpg	99
625.131	0.715	714.6	0back	Block1	0back/STIM_013.jpg	100
628.252	0.576	575.8	0back	Block1	0back/STIM_013.jpg	100
631.256	0.864	863.6	0back	Block1	0back/STIM_014.jpg	100
634.103	0.899	899.0	0back	Block1	0back/STIM_014.jpg	100
637.2	0.741	741.1	0back	Block1	0back/STIM_014.jpg	99
641.021	0.688	688.5	0back	Block1	0back/STIM_015.jpg	100
643.932	0.637	636.9	0back	Block1	0back/STIM_015.jpg	99
647.308	0.691	691.0	0back	Block1	0back/STIM_015.jpg	99
651.011	0.703	702.9	0back	Block1	0back/STIM_016.jpg	100
654.692	0.686	685.8	0back	Block1	0back/STIM_016.jpg	100
657.479	0.714	714.3	0back	Block1	0back/STIM_016.jpg	99
661.458	0.553	552.6	0back	Block1	0back/STIM_017.jpg	99
664.236	0.568	567.6	0back	Block1	0back/STIM_017.jpg	99
668.735	0.542	542.3	0back	Block1	0back/STIM_017.jpg	99
673.064	0.652	651.9	0back	Block1	0back/STIM_018.jpg	100
675.914	0.904	903.6	0back	Block1	0back/STIM_018.jpg	99
678.768	0.464	464.3	0back	Block1	0back/STIM_018.jpg	100
681.358	0.723	723.0	0back	Block1	0back/STIM_019.jpg	100
684.496	0.66	659.9	0back	Block1	0back/STIM_019.jpg	100
687.943	0.714	714.0	0back	Block1	0back/STIM_019.jpg	99
690.66	0.604	604.3	2back	Block2	2back/STIM_000.jpg	100
693.467	0.883	882.6	2back	Block2	2back/STIM_000.jpg	100
696.979	0.998	998.3	2back	Block2	2back/STIM_000.jpg	99
700.592	1.042	1041.6	2back	Block2	2back/STIM_001.jpg	99
705.123	1.19	1189.9	2back	Block2	2back/STIM_001.jpg	100
708.642	1.028	1027.8	2back	Block2	2back/STIM_001.jpg	99
712.77	1.304	1304.2	2back	Block2	2back/STIM_002.jpg	99
717.052	0.686	685.8	2back	Block2	2back/STIM_002.jpg	100
721.054	0.676	675.5	2back	Block2	2back/STIM_002.jpg	99
725.565	0.738	738.5	2back	Block2	2back/STIM_003.jpg	100
728.769	1.124	1124.5	2back	Block2	2back/STIM_003.jpg	99
732.984	0.931	931.3	2back	Block2	2back/STIM_003.jpg	99
736.284	0.673	673.2	2back	Block2	2back/STIM_004.jpg	100
739.304	1.15	1150.2	2back	Block2	2back/STIM_004.jpg	99
742.597	0.999	999.4	2back	Block2	2back/STIM_004.jpg	99
745.846	0.611	611.0	2back	Block2	2back/STIM_005.jpg	99
749.547	0.988	988.5	2back	Block2	2back/STIM_005.jpg	100
753.288	0.661	660.6	2back	Block2	2back/STIM_005.jpg	99
757.51	0.696	695.8	2back	Block2	2back/STIM_006.jpg	99
760.268	0.586	586.2	2back	Block2	2back/STIM_006.jpg	99
763.337	0.744	744.3	2back	Block2	2back/STIM_006.jpg	99
766.917	0.683	682.8	2back	Block2	2back/STIM_007.jpg	100
770.846	1.069	1069.3	2back	Block2	2back/STIM_007.jpg	100
773.986	1.188	1187.8	2back	Block2	2back/STIM_007.jpg	100
777.686	1.17	1170.2	2back	Block2	2back/STIM_008.jpg	99
782.239	0.769	769.0	2back	Block2	2back/STIM_008.jpg	100
786.132	1.122	1122.0	2back	Block2	2back/STIM_008.jpg	99
790.852	1.01	1009.9	2back	Block2	2back/STIM_009.jpg	99
793.87	1.137	1137.0	2back	Block2	2back/STIM_009.jpg	100
796.964	0.514	513.9	2back	Block2	2back/STIM_009.jpg	100
799.704	1.201	1201.2	2back	Block2	2back/STIM_010.jpg	99
803.191	0.731	730.6	2back	Block2	2back/STIM_010.jpg	100
807.532	0.902	902.0	2back	Block2	2back/STIM_010.jpg	99
811.122	1.069	1069.2	2back	Block2	2back/STIM_011.jpg	100
816.013	0.958	958.2	2back	Block2	2back/STIM_011.jpg	100
819.166	1.009	1009.3	2back	Block2	2back/STIM_011.jpg	100
823.071	0.637	636.9	2back	Block2	2back/STIM_012.jpg	100
826.644	0.719	718.7	2back	Block2	2back/STIM_012.jpg	100
830.731	0.528	528.4	2back	Block2	2back/STIM_012.jpg	100
834.969	0.732	732.5	2back	Block2	2back/STIM_013.jpg	100
839.436	0.874	873.7	2back	Block2	2back/STIM_013.jpg	100
843.119	1.092	1091.5	2back	Block2	2back/STIM_013.jpg	100
846.813	0.712	712.4	2back	Block2	2back/STIM_014.jpg	99
849.458	0.675	675.4	2back	Block2	2back/STIM_014.jpg	100
852.812	0.873	873.3	2back	Block2	2back/STIM_014.jpg	99
857.073	0.888	888.2	2back	Block2	2back/STIM_015.jpg	99
860.085	1.037	1037.3	2back	Block2	2back/STIM_015.jpg	100
864.992	0.82	820.4	2back	Block2	2back/STIM_015.jpg	99
869.687	0.646	646.3	2back	Block2	2back/STIM_016.jpg	99
872.386	1.108	1108.3	2back	Block2	2back/STIM_016.jpg	99
875.876	0.908	908.3	2back	Block2	2back/STIM_016.jpg	100
879.748	1.226	1225.5	2back	Block2	2back/STIM_017.jpg	99
883.186	1.268	1267.5	2back	Block2	2back/STIM_017.jpg	100
886.872	0.812	811.8	2back	Block2	2back/STIM_017.jpg	100
891.315	0.656	656.5	2back	Block2	2back/STIM_018.jpg	99
894.921	0.933	933.1	2back	Block2	2back/STIM_018.jpg	100
898.736	1.139	1139.1	2back	Block2	2back/STIM_018.jpg	99
903.134	0.706	705.5	2back	Block2	2back/STIM_019.jpg	100
907.669	0.819	819.4	2back	Block2	2back/STIM_019.jpg	100
911.398	0.77	770.3	2back	Block2	2back/STIM_019.jpg	99
915.03	0.827	826.6	2back	Block2	2back/STIM_020.jpg	99
918.195	1.169	1169.4	2back	Block2	2back/STIM_020.jpg	99
922.556	1.074	1073.8	2back	Block2	2back/STIM_020.jpg	99
926.457	0.638	637.5	2back	Block2	2back/STIM_021.jpg	99
930.268	0.595	595.4	2back	Block2	2back/STIM_021.jpg	100
933.227	0.786	785.9	2back	Block2	2back/STIM_021.jpg	100
937.483	1.112	1112.0	2back	Block2	2back/STIM_022.jpg	100
940.646	0.905	904.7	2back	Block2	2back/STIM_022.jpg	99
944.474	1.162	1161.5	2back	Block2	2back/STIM_022.jpg	100
949.261	1.163	1163.2	2back	Block2	2back/STIM_023.jpg	99
952.92	1.235	1235.2	2back	Block2	2back/STIM_023.jpg	99
956.144	0.782	781.6	2back	Block2	2back/STIM_023.jpg	99
959.724	1.294	1294.2	2back	Block2	2back/STIM_024.jpg	99
964.728	1.001	1000.8	2back	Block2	2back/STIM_024.jpg	100
967.939	0.878	877.8	2back	Block2	2back/STIM_024.jpg	100
970.848	0.869	869.1	2back	Block2	2back/STIM_025.jpg	99
973.651	0.896	895.8	2back	Block2	2back/STIM_025.jpg	100
976.66	0.993	993.2	2back	Block2	2back/STIM_025.jpg	100
980.896	1.099	1099.4	2back	Block2	2back/STIM_026.jpg	99
984.425	0.804	804.5	2back	Block2	2back/STIM_026.jpg	99
988.829	0.568	567.5	2back	Block2	2back/STIM_026.jpg	99
991.954	1.187	1186.6	2back	Block2	2back/STIM_027.jpg	100
996.689	0.65	649.6	2back	Block2	2back/STIM_027.jpg	100
1000.974	0.664	664.4	2back	Block2	2back/STIM_027.jpg	99
1004.681	0.981	980.7	2back	Block2	2back/STIM_028.jpg	100
1008.039	1.184	1183.7	2back	Block2	2back/STIM_028.jpg	99
1012.197	0.622	621.8	2back	Block2	2back/STIM_028.jpg	99
1015.574	1.13	1129.5	2back	Block2	2back/STIM_029.jpg	99
1018.843	0.628	628.5	2back	Block2	2back/STIM_029.jpg	99
1021.518	0.969	968.8	2back	Block2	2back/STIM_029.jpg	99
1025.752	1.203	1203.4	2back	Block2	2back/STIM_030.jpg	99
1029.148	1.149	1149.2	2back	Block2	2back/STIM_030.jpg	100
1033.302	0.721	721.3	2back	Block2	2back/STIM_030.jpg	99
1037.082	0.796	796.2	2back	Block2	2back/STIM_031.jpg	99
1040.98	0.738	737.9	2back	Block2	2back/STIM_031.jpg	100
1044.812	1.161	1160.7	2back	Block2	2back/STIM_031.jpg	100
1049.249	1.017	1017.1	2back	Block2	2back/STIM_032.jpg	99
1053.373	1.02	1020.3	2back	Block2	2back/STIM_032.jpg	100
1056.808	0.858	858.0	2back	Block2	2back/STIM_032.jpg	99
1060.683	0.661	661.3	2back	Block2	2back/STIM_033.jpg	99
1065.031	0.706	705.6	2back	Block2	2back/STIM_033.jpg	99
1069.082	0.82	819.6	2back	Block2	2back/STIM_033.jpg	100
1071.883	0.813	812.6	2back	Block2	2back/STIM_034.jpg	99
1075.448	0.942	942.2	2back	Block2	2back/STIM_034.jpg	99
1079.774	0.983	983.3	2back	Block2	2back/STIM_034.jpg	99
1082.682	1.184	1183.7	2back	Block2	2back/STIM_035.jpg	99
1087.72	1.118	1117.8	2back	Block2	2back/STIM_035.jpg	99
1091.859	0.876	876.2	2back	Block2	2back/STIM_035.jpg	100
1095.836	1.106	1105.9	2back	Block2	2back/STIM_036.jpg	100
1100.175	1.141	1141.1	2back	Block2	2back/STIM_036.jpg	99
1103.213	0.846	845.9	2back	Block2	2back/STIM_036.jpg	99
1106.232	0.664	663.7	2back	Block2	2back/STIM_037.jpg	99
1110.499	0.595	595.2	2back	Block2	2back/STIM_037.jpg	100
1114.188	1.184	1183.5	2back	Block2	2back/STIM_037.jpg	100
1118.983	0.963	962.7	2back	Block2	2back/STIM_038.jpg	100
1122.031	0.555	554.6	2back	Block2	2back/STIM_038.jpg	99
1126.019	0.88	879.9	2back	Block2	2back/STIM_038.jpg	100
1130.563	0.875	875.3	2back	Block2	2back/STIM_039.jpg	99
1134.214	0.688	688.5	2back	Block2	2back/STIM_039.jpg	99
1137.138	0.862	861.5	2back	Block2	2back/STIM_039.jpg	100
1141.803	0.891	891.4	0back	Block2	0back/STIM_000.jpg	100
1145.846	0.537	537.0	0back	Block2	0back/STIM_000.jpg	99
1148.926	0.578	577.7	0back	Block2	0back/STIM_000.jpg	99
1152.572	0.864	863.5	0back	Block2	0back/STIM_001.jpg	100
1155.737	0.642	641.8	0back	Block2	0back/STIM_001.jpg	100
1159.834	0.695	694.7	0back	Block2	0back/STIM_001.jpg	100
1163.043	0.898	897.8	0back	Block2	0back/STIM_002.jpg	99
1167.552	0.513	513.4	0back	Block2	0back/STIM_002.jpg	100
1171.15	0.736	735.9	0back	Block2	0back/STIM_002.jpg	100
1174.551	0.739	738.7	0back	Block2	0back/STIM_003.jpg	100
1178.406	0.625	625.0	0back	Block2	0back/STIM_003.jpg	99
1182.393	0.636	636.0	0back	Block2	0back/STIM_003.jpg	99
1186.106	0.778	777.6	0back	Block2	0back/STIM_004.jpg	100
1190.121	0.463	462.7	0back	Block2	0back/STIM_004.jpg	99
1194.026	0.75	749.5	0back	Block2	0back/STIM_004.jpg	100
1197.562	0.691	690.6	0back	Block2	0back/STIM_005.jpg	100
1201.78	0.466	466.5	0back	Block2	0back/STIM_005.jpg	99
1205.107	0.583	582.6	0back	Block2	0back/STIM_005.jpg	100
1209.047	0.527	527.2	0back	Block2	0back/STIM_006.jpg	100
1213.325	0.887	887.1	0back	Block2	0back/STIM_006.jpg	100
1216.411	0.784	783.8	0back	Block2	0back/STIM_006.jpg	100
1220.209	0.495	495.2	0back	Block2	0back/STIM_007.jpg	99
1223.028	0.78	780.1	0back	Block2	0back/STIM_007.jpg	100
1227.467	0.729	729.3	0back	Block2	0back/STIM_007.jpg	100
1231.264	0.557	557.1	0back	Block2	0back/STIM_008.jpg	100
1234.051	0.7	699.9	0back	Block2	0back/STIM_008.jpg	100
1237.53	0.608	607.5	0back	Block2	0back/STIM_008.jpg	100
1240.854	0.642	642.0	0back	Block2	0back/STIM_009.jpg	99
1243.761	0.557	556.8	0back	Block2	0back/STIM_009.jpg	100
1247.254	0.834	834.1	0back	Block2	0back/STIM_009.jpg	99
1250.146	0.455	455.3	0back	Block2	0back/STIM_010.jpg	99
1252.66	0.894	893.7	0back	Block2	0back/STIM_010.jpg	99
1256.035	0.784	784.0	0back	Block2	0back/STIM_010.jpg	99
1259.624	0.722	722.4	0back	Block2	0back/STIM_011.jpg	99
1262.611	0.904	904.5	0back	Block2	0back/STIM_011.jpg	100
1265.579	0.63	630.0	0back	Block2	0back/STIM_011.jpg	99
1269.586	0.697	696.6	0back	Block2	0back/STIM_012.jpg	99
1273.702	0.84	839.5	0back	Block2	0back/STIM_012.jpg	99
1277.92	0.524	523.9	0back	Block2	0back/STIM_012.jpg	99
1281.907	0.512	512.1	0back	Block2	0back/STIM_013.jpg	100
1285.563	0.717	716.6	0back	Block2	0back/STIM_013.jpg	99
1288.601	0.697	697.2	0back	Block2	0back/STIM_013.jpg	100
1292.405	0.55	550.5	0back	Block2	0back/STIM_014.jpg	100
1295.839	0.662	662.4	0back	Block2	0back/STIM_014.jpg	99
1299.83	0.498	497.6	0back	Block2	0back/STIM_014.jpg	100
1304.151	0.748	748.5	0back	Block2	0back/STIM_015.jpg	100
1307.079	0.455	455.2	0back	Block2	0back/STIM_015.jpg	99
1311.397	0.6	600.5	0back	Block2	0back/STIM_015.jpg	100
1314.323	0.588	587.6	0back	Block2	0back/STIM_016.jpg	100
1317.863	0.707	707.2	0back	Block2	0back/STIM_016.jpg	99
1321.792	0.726	725.9	0back	Block2	0back/STIM_016.jpg	100
1325.673	0.824	824.5	0back	Block2	0back/STIM_017.jpg	100
1329.629	0.539	539.1	0back	Block2	0back/STIM_017.jpg	99
1333.669	0.88	880.4	0back	Block2	0back/STIM_017.jpg	99
1338.054	0.529	529.2	0back	Block2	0back/STIM_018.jpg	99
1340.791	0.859	859.2	0back	Block2	0back/STIM_018.jpg	99
1344.082	0.642	642.4	0back	Block2	0back/STIM_018.jpg	100
1348.254	0.693	693.0	0back	Block2	0back/STIM_019.jpg	100
1351.525	0.852	851.7	0back	Block2	0back/STIM_019.jpg	99
1354.788	0.473	472.7	0back	Block2	0back/STIM_019.jpg	100
1357.673	1.045	1044.6	2back	Block3	2back/STIM_000.jpg	99
1362.404	0.755	755.1	2back	Block3	2back/STIM_000.jpg	100
1366.387	0.547	546.8	2back	Block3	2back/STIM_000.jpg	99
1369.066	1.088	1088.0	2back	Block3	2back/STIM_001.jpg	100
1373.099	0.732	731.8	2back	Block3	2back/STIM_001.jpg	99
1377.247	0.644	644.3	2back	Block3	2back/STIM_001.jpg	99
1379.997	0.538	537.9	2back	Block3	2back/STIM_002.jpg	100
1382.938	0.642	642.0	2back	Block3	2back/STIM_002.jpg	100
1386.804	0.734	733.8	2back	Block3	2back/STIM_002.jpg	100
1390.304	1.093	1093.2	2back	Block3	2back/STIM_003.jpg	99
1393.722	0.879	879.3	2back	Block3	2back/STIM_003.jpg	100
1397.209	0.914	914.5	2back	Block3	2back/STIM_003.jpg	100
1401.826	0.95	950.1	2back	Block3	2back/STIM_004.jpg	100
1405.689	1.095	1094.8	2back	Block3	2back/STIM_004.jpg	99
1409.807	0.849	849.2	2back	Block3	2back/STIM_004.jpg	99
1413.953	0.534	533.7	2back	Block3	2back/STIM_005.jpg	99
1416.537	0.548	548.4	2back	Block3	2back/STIM_005.jpg	99
1419.237	0.825	825.3	2back	Block3	2back/STIM_005.jpg	100
1423.588	1.058	1058.2	2back	Block3	2back/STIM_006.jpg	99
1426.929	1.021	1021.4	2back	Block3	2back/STIM_006.jpg	100
1430.089	1.009	1009.0	2back	Block3	2back/STIM_006.jpg	99
1433.589	0.616	615.9	2back	Block3	2back/STIM_007.jpg	99
1437.937	0.955	955.1	2back	Block3	2back/STIM_007.jpg	99
1441.217	0.962	962.4	2back	Block3	2back/STIM_007.jpg	99
1445.498	0.602	601.9	2back	Block3	2back/STIM_008.jpg	99
1448.49	0.94	940.1	2back	Block3	2back/STIM_008.jpg	100
1451.903	1.008	1007.5	2back	Block3	2back/STIM_008.jpg	99
1455.381	0.926	925.8	2back	Block3	2back/STIM_009.jpg	99
1458.884	0.687	687.2	2back	Block3	2back/STIM_009.jpg	100
1463.477	0.965	965.0	2back	Block3	2back/STIM_009.jpg	100
1467.038	0.949	948.9	2back	Block3	2back/STIM_010.jpg	100
1471.514	1.076	1076.0	2back	Block3	2back/STIM_010.jpg	99
1476.169	0.494	494.3	2back	Block3	2back/STIM_010.jpg	99
1480.329	0.788	787.8	2back	Block3	2back/STIM_011.jpg	99
1484.877	0.862	862.3	2back	Block3	2back/STIM_011.jpg	100
1488.605	0.783	783.2	2back	Block3	2back/STIM_011.jpg	99
1491.347	1.016	1016.4	2back	Block3	2back/STIM_012.jpg	99
1494.627	0.808	808.3	2back	Block3	2back/STIM_012.jpg	99
1497.557	0.619	618.7	2back	Block3	2back/STIM_012.jpg	99
1500.555	1.075	1074.9	2back	Block3	2back/STIM_013.jpg	99
1505.475	0.879	879.0	2back	Block3	2back/STIM_013.jpg	100
1509.041	0.663	662.7	2back	Block3	2back/STIM_013.jpg	99
1512.217	0.95	950.3	2back	Block3	2back/STIM_014.jpg	100
1515.74	0.809	808.7	2back	Block3	2back/STIM_014.jpg	99
1520.047	0.672	671.5	2back	Block3	2back/STIM_014.jpg	100
1522.851	0.985	984.7	2back	Block3	2back/STIM_015.jpg	99
1526.22	0.542	542.0	2back	Block3	2back/STIM_015.jpg	100
1528.822	0.685	684.8	2back	Block3	2back/STIM_015.jpg	100
1532.0	0.949	948.7	2back	Block3	2back/STIM_016.jpg	99
1535.891	0.62	620.4	2back	Block3	2back/STIM_016.jpg	99
1538.866	0.818	817.7	2back	Block3	2back/STIM_016.jpg	100
1543.164	0.642	642.5	2back	Block3	2back/STIM_017.jpg	100
1546.831	1.031	1031.2	2back	Block3	2back/STIM_017.jpg	100
1549.844	1.065	1065.1	2back	Block3	2back/STIM_017.jpg	100
1553.32	0.763	763.2	2back	Block3	2back/STIM_018.jpg	99
1557.793	0.956	955.8	2back	Block3	2back/STIM_018.jpg	99
1561.369	0.935	935.2	2back	Block3	2back/STIM_018.jpg	99
1565.378	0.872	872.1	2back	Block3	2back/STIM_019.jpg	99
1568.233	0.876	876.2	2back	Block3	2back/STIM_019.jpg	100
1571.128	0.636	636.4	2back	Block3	2back/STIM_019.jpg	100
1575.049	0.892	892.3	2back	Block3	2back/STIM_020.jpg	99
1578.942	0.963	963.1	2back	Block3	2back/STIM_020.jpg	100
1582.397	0.872	871.9	2back	Block3	2back/STIM_020.jpg	100
1586.24	0.687	687.0	2back	Block3	2back/STIM_021.jpg	99
1589.572	0.789	789.1	2back	Block3	2back/STIM_021.jpg	100
1593.498	0.572	571.9	2back	Block3	2back/STIM_021.jpg	99
1596.133	0.554	554.1	2back	Block3	2back/STIM_022.jpg	99
1599.846	0.94	940.0	2back	Block3	2back/STIM_022.jpg	100
1603.199	0.563	563.4	2back	Block3	2back/STIM_022.jpg	99
1607.506	0.911	910.9	2back	Block3	2back/STIM_023.jpg	100
1611.602	0.566	566.0	2back	Block3	2back/STIM_023.jpg	100
1614.175	1.106	1106.0	2back	Block3	2back/STIM_023.jpg	100
1617.412	0.492	492.3	2back	Block3	2back/STIM_024.jpg	100
1621.683	0.77	769.7	2back	Block3	2back/STIM_024.jpg	100
1625.08	0.882	882.5	2back	Block3	2back/STIM_024.jpg	99
1629.659	0.633	633.3	2back	Block3	2back/STIM_025.jpg	99
1632.857	0.89	889.6	2back	Block3	2back/STIM_025.jpg	99
1636.603	0.992	991.7	2back	Block3	2back/STIM_025.jpg	99
1640.165	0.684	684.0	2back	Block3	2back/STIM_026.jpg	99
1643.441	0.97	970.5	2back	Block3	2back/STIM_026.jpg	100
1646.976	0.693	692.6	2back	Block3	2back/STIM_026.jpg	99
1649.616	1.062	1061.8	2back	Block3	2back/STIM_027.jpg	99
1654.3	1.035	1035.4	2back	Block3	2back/STIM_027.jpg	100
1657.531	0.768	767.7	2back	Block3	2back/STIM_027.jpg	99
1660.466	0.675	674.8	2back	Block3	2back/STIM_028.jpg	99
1664.835	0.823	823.1	2back	Block3	2back/STIM_028.jpg	100
1668.73	0.595	595.0	2back	Block3	2back/STIM_028.jpg	99
1671.699	0.699	698.7	2back	Block3	2back/STIM_029.jpg	99
1675.433	0.803	802.8	2back	Block3	2back/STIM_029.jpg	99
1678.943	1.06	1060.3	2back	Block3	2back/STIM_029.jpg	99
1683.233	1.085	1085.3	2back	Block3	2back/STIM_030.jpg	99
1686.832	0.826	826.5	2back	Block3	2back/STIM_030.jpg	100
1690.639	0.755	755.1	2back	Block3	2back/STIM_030.jpg	99
1695.281	1.002	1002.3	2back	Block3	2back/STIM_031.jpg	100
1698.792	0.578	577.7	2back	Block3	2back/STIM_031.jpg	100
1702.637	0.854	854.3	2back	Block3	2back/STIM_031.jpg	100
1706.585	0.736	736.1	2back	Block3	2back/STIM_032.jpg	99
1710.59	0.704	703.5	2back	Block3	2back/STIM_032.jpg	100
1714.356	1.097	1097.2	2back	Block3	2back/STIM_032.jpg	100
1718.993	0.934	933.8	2back	Block3	2back/STIM_033.jpg	99
1722.668	0.768	767.7	2back	Block3	2back/STIM_033.jpg	100
1725.679	0.812	812.3	2back	Block3	2back/STIM_033.jpg	100
1729.263	0.797	797.0	2back	Block3	2back/STIM_034.jpg	99
1733.882	0.632	631.9	2back	Block3	2back/STIM_034.jpg	100
1736.898	0.71	710.5	2back	Block3	2back/STIM_034.jpg	100
1740.039	0.96	960.1	2back	Block3	2back/STIM_035.jpg	99
1743.693	1.061	1061.0	2back	Block3	2back/STIM_035.jpg	100
1746.934	0.947	947.3	2back	Block3	2back/STIM_035.jpg	100
1750.337	0.533	533.4	2back	Block3	2back/STIM_036.jpg	100
1754.545	0.613	612.9	2back	Block3	2back/STIM_036.jpg	100
1758.414	1.101	1101.4	2back	Block3	2back/STIM_036.jpg	100
1762.271	0.698	697.6	2back	Block3	2back/STIM_037.jpg	100
1765.643	0.97	969.5	2back	Block3	2back/STIM_037.jpg	99
1769.095	0.87	869.7	2back	Block3	2back/STIM_037.jpg	100
1772.547	0.664	663.9	2back	Block3	2back/STIM_038.jpg	99
1777.113	0.808	807.8	2back	Block3	2back/STIM_038.jpg	99
1780.566	1.052	1052.3	2back	Block3	2back/STIM_038.jpg	100
1784.732	0.835	834.8	2back	Block3	2back/STIM_039.jpg	100
1787.612	0.894	894.3	2back	Block3	2back/STIM_039.jpg	100
1790.971	0.513	513.3	2back	Block3	2back/STIM_039.jpg	99
1793.485	0.822	822.2	0back	Block3	0back/STIM_000.jpg	100
1797.11	0.581	581.2	0back	Block3	0back/STIM_000.jpg	100
1800.09	0.688	687.6	0back	Block3	0back/STIM_000.jpg	100
1804.097	0.626	625.6	0back	Block3	0back/STIM_001.jpg	99
1808.293	0.534	534.0	0back	Block3	0back/STIM_001.jpg	99
1811.247	0.487	486.7	0back	Block3	0back/STIM_001.jpg	99
1814.277	0.773	772.6	0back	Block3	0back/STIM_002.jpg	99
1817.747	0.775	774.9	0back	Block3	0back/STIM_002.jpg	100
1820.952	0.86	860.3	0back	Block3	0back/STIM_002.jpg	99
1824.09	0.46	459.8	0back	Block3	0back/STIM_003.jpg	99
1827.717	0.465	464.6	0back	Block3	0back/STIM_003.jpg	99
1831.619	0.644	643.9	0back	Block3	0back/STIM_003.jpg	99
1835.459	0.634	633.6	0back	Block3	0back/STIM_004.jpg	99
1838.283	0.819	818.8	0back	Block3	0back/STIM_004.jpg	99
1841.427	0.898	898.3	0back	Block3	0back/STIM_004.jpg	99
1846.123	0.627	627.2	0back	Block3	0back/STIM_005.jpg	99
1849.612	0.605	604.7	0back	Block3	0back/STIM_005.jpg	100
1852.962	0.529	528.7	0back	Block3	0back/STIM_005.jpg	100
1856.317	0.69	689.6	0back	Block3	0back/STIM_006.jpg	99
1860.394	0.628	628.1	0back	Block3	0back/STIM_006.jpg	100
1864.033	0.628	628.5	0back	Block3	0back/STIM_006.jpg	99
1867.647	0.871	870.8	0back	Block3	0back/STIM_007.jpg	100
1870.919	0.854	853.8	0back	Block3	0back/STIM_007.jpg	100
1874.334	0.504	503.8	0back	Block3	0back/STIM_007.jpg	100
1878.126	0.79	790.0	0back	Block3	0back/STIM_008.jpg	100
1880.951	0.542	541.6	0back	Block3	0back/STIM_008.jpg	100
1885.376	0.797	796.8	0back	Block3	0back/STIM_008.jpg	99
1889.904	0.546	546.1	0back	Block3	0back/STIM_009.jpg	99
1893.493	0.492	492.0	0back	Block3	0back/STIM_009.jpg	99
1896.065	0.764	764.1	0back	Block3	0back/STIM_009.jpg	99
1899.79	0.768	768.1	0back	Block3	0back/STIM_010.jpg	100
1903.835	0.531	531.0	0back	Block3	0back/STIM_010.jpg	99
1906.413	0.584	583.6	0back	Block3	0back/STIM_010.jpg	99
1909.627	0.6	600.3	0back	Block3	0back/STIM_011.jpg	99
1914.091	0.759	758.8	0back	Block3	0back/STIM_011.jpg	99
1918.526	0.625	625.2	0back	Block3	0back/STIM_011.jpg	100
1921.609	0.854	853.8	0back	Block3	0back/STIM_012.jpg	100
1926.081	0.637	637.3	0back	Block3	0back/STIM_012.jpg	99
1928.887	0.749	748.9	0back	Block3	0back/STIM_012.jpg	100
1931.975	0.728	728.4	0back	Block3	0back/STIM_013.jpg	99
1935.575	0.521	520.8	0back	Block3	0back/STIM_013.jpg	100
1939.208	0.773	772.6	0back	Block3	0back/STIM_013.jpg	100
1942.026	0.535	534.9	0back	Block3	0back/STIM_014.jpg	100
1946.08	0.568	568.3	0back	Block3	0back/STIM_014.jpg	100
1949.724	0.704	704.5	0back	Block3	0back/STIM_014.jpg	100
1952.763	0.85	850.2	0back	Block3	0back/STIM_015.jpg	100
1957.298	0.798	797.7	0back	Block3	0back/STIM_015.jpg	99
1961.883	0.845	844.8	0back	Block3	0back/STIM_015.jpg	99
1965.934	0.722	721.7	0back	Block3	0back/STIM_016.jpg	100
1968.743	0.832	831.8	0back	Block3	0back/STIM_016.jpg	99
1971.512	0.564	564.5	0back	Block3	0back/STIM_016.jpg	100
1975.049	0.552	552.1	0back	Block3	0back/STIM_017.jpg	100
1978.442	0.636	636.1	0back	Block3	0back/STIM_017.jpg	99
1982.078	0.47	470.2	0back	Block3	0back/STIM_017.jpg	100
1984.748	0.775	774.6	0back	Block3	0back/STIM_018.jpg	99
1989.05	0.774	774.2	0back	Block3	0back/STIM_018.jpg	99
1993.179	0.742	741.5	0back	Block3	0back/STIM_018.jpg	99
1997.689	0.726	725.5	0back	Block3	0back/STIM_019.jpg	99
2000.962	0.539	539.3	0back	Block3	0back/STIM_019.jpg	99
2004.66	0.824	824.0	0back	Block3	0back/STIM_019.jpg	99
2008.053	0.511	511.1	2back	Block4	2back/STIM_000.jpg	99
2012.021	0.878	878.1	2back	Block4	2back/STIM_000.jpg	99
2016.688	0.74	739.8	2back	Block4	2back/STIM_000.jpg	100
2019.593	0.552	551.8	2back	Block4	2back/STIM_001.jpg	99
2022.284	0.824	824.2	2back	Block4	2back/STIM_001.jpg	99
2025.359	0.834	833.7	2back	Block4	2back/STIM_001.jpg	99
2028.48	0.756	756.1	2back	Block4	2back/STIM_002.jpg	99
2032.625	0.664	663.7	2back	Block4	2back/STIM_002.jpg	100
2037.164	0.982	982.2	2back	Block4	2back/STIM_002.jpg	100
2041.199	0.619	618.9	2back	Block4	2back/STIM_003.jpg	99
2045.234	0.665	665.0	2back	Block4	2back/STIM_003.jpg	99
2047.974	0.49	490.4	2back	Block4	2back/STIM_003.jpg	99
2051.197	1.075	1075.1	2back	Block4	2back/STIM_004.jpg	99
2056.127	0.484	484.1	2back	Block4	2back/STIM_004.jpg	99
2059.592	1.053	1052.8	2back	Block4	2back/STIM_004.jpg	100
2063.724	0.713	713.3	2back	Block4	2back/STIM_005.jpg	100
2067.923	0.522	522.4	2back	Block4	2back/STIM_005.jpg	100
2071.052	0.72	720.0	2back	Block4	2back/STIM_005.jpg	99
2073.967	0.855	855.0	2back	Block4	2back/STIM_006.jpg	100
2076.806	0.63	630.1	2back	Block4	2back/STIM_006.jpg	100
2080.157	1.054	1054.1	2back	Block4	2back/STIM_006.jpg	99
2084.454	1.097	1096.8	2back	Block4	2back/STIM_007.jpg	99
2087.914	0.708	708.2	2back	Block4	2back/STIM_007.jpg	99
2091.499	0.907	906.7	2back	Block4	2back/STIM_007.jpg	99
2095.822	1.001	1000.6	2back	Block4	2back/STIM_008.jpg	100
2100.035	0.804	803.6	2back	Block4	2back/STIM_008.jpg	100
2103.141	0.911	910.9	2back	Block4	2back/STIM_008.jpg	100
2107.705	0.608	607.7	2back	Block4	2back/STIM_009.jpg	99
2110.712	0.996	995.6	2back	Block4	2back/STIM_009.jpg	99
2115.062	0.628	628.4	2back	Block4	2back/STIM_009.jpg	100
2118.169	1.003	1003.3	2back	Block4	2back/STIM_010.jpg	99
2122.132	0.614	614.5	2back	Block4	2back/STIM_010.jpg	100
2125.223	0.9	900.0	2back	Block4	2back/STIM_010.jpg	99
2129.285	0.617	616.6	2back	Block4	2back/STIM_011.jpg	100
2132.445	0.755	754.6	2back	Block4	2back/STIM_011.jpg	100
2136.34	1.02	1020.5	2back	Block4	2back/STIM_011.jpg	100
2140.165	0.808	808.5	2back	Block4	2back/STIM_012.jpg	100
2143.336	1.091	1090.7	2back	Block4	2back/STIM_012.jpg	100
2146.636	0.515	514.9	2back	Block4	2back/STIM_012.jpg	100
2150.873	0.669	669.2	2back	Block4	2back/STIM_013.jpg	100
2154.774	0.583	583.1	2back	Block4	2back/STIM_013.jpg	99
2158.896	0.954	954.3	2back	Block4	2back/STIM_013.jpg	99
2162.763	1.045	1044.7	2back	Block4	2back/STIM_014.jpg	99
2165.947	0.942	941.8	2back	Block4	2back/STIM_014.jpg	99
2170.201	1.049	1049.4	2back	Block4	2back/STIM_014.jpg	99
2174.131	0.616	615.6	2back	Block4	2back/STIM_015.jpg	99
2178.421	0.747	746.7	2back	Block4	2back/STIM_015.jpg	99
2181.981	0.551	550.9	2back	Block4	2back/STIM_015.jpg	99
2185.611	0.911	910.6	2back	Block4	2back/STIM_016.jpg	99
2189.552	1.08	1079.9	2back	Block4	2back/STIM_016.jpg	99
2193.172	0.813	812.8	2back	Block4	2back/STIM_016.jpg	100
2197.345	0.675	674.7	2back	Block4	2back/STIM_017.jpg	99
2200.116	0.986	985.5	2back	Block4	2back/STIM_017.jpg	99
2203.779	0.93	930.1	2back	Block4	2back/STIM_017.jpg	100
2208.092	0.99	989.6	2back	Block4	2back/STIM_018.jpg	99
2212.5	0.859	859.3	2back	Block4	2back/STIM_018.jpg	99
2215.96	0.798	797.7	2back	Block4	2back/STIM_018.jpg	99
2219.924	1.048	1048.2	2back	Block4	2back/STIM_019.jpg	99
2224.456	0.796	796.5	2back	Block4	2back/STIM_019.jpg	99
2228.578	0.926	925.7	2back	Block4	2back/STIM_019.jpg	100
2232.064	0.737	736.6	2back	Block4	2back/STIM_020.jpg	100
2236.311	0.881	880.8	2back	Block4	2back/STIM_020.jpg	99
2240.303	0.952	952.5	2back	Block4	2back/STIM_020.jpg	100
2244.0	1.034	1033.7	2back	Block4	2back/STIM_021.jpg	99
2248.673	0.885	884.7	2back	Block4	2back/STIM_021.jpg	99
2252.265	1.06	1060.0	2back	Block4	2back/STIM_021.jpg	99
2255.621	0.967	967.1	2back	Block4	2back/STIM_022.jpg	100
2259.451	0.856	856.3	2back	Block4	2back/STIM_022.jpg	99
2263.231	0.918	917.9	2back	Block4	2back/STIM_022.jpg	100
2267.182	0.982	981.9	2back	Block4	2back/STIM_023.jpg	100
2271.58	0.949	949.1	2back	Block4	2back/STIM_023.jpg	99
2274.909	0.899	898.6	2back	Block4	2back/STIM_023.jpg	100
2278.779	1.03	1029.7	2back	Block4	2back/STIM_024.jpg	99
2281.73	0.585	585.4	2back	Block4	2back/STIM_024.jpg	99
2286.177	0.835	835.2	2back	Block4	2back/STIM_024.jpg	100
2290.44	0.764	763.7	2back	Block4	2back/STIM_025.jpg	100
2294.448	0.828	827.8	2back	Block4	2back/STIM_025.jpg	100
2298.363	0.783	783.1	2back	Block4	2back/STIM_025.jpg	99
2301.595	0.688	688.5	2back	Block4	2back/STIM_026.jpg	99
2305.773	0.825	824.6	2back	Block4	2back/STIM_026.jpg	100
2309.027	0.754	754.3	2back	Block4	2back/STIM_026.jpg	100
2313.438	1.006	1005.6	2back	Block4	2back/STIM_027.jpg	100
2316.491	0.766	766.2	2back	Block4	2back/STIM_027.jpg	100
2320.418	0.993	992.7	2back	Block4	2back/STIM_027.jpg	100
2323.966	0.947	946.6	2back	Block4	2back/STIM_028.jpg	99
2328.432	0.719	718.8	2back	Block4	2back/STIM_028.jpg	100
2332.616	0.827	827.3	2back	Block4	2back/STIM_028.jpg	99
2336.541	0.795	795.4	2back	Block4	2back/STIM_029.jpg	99
2340.259	1.002	1001.5	2back	Block4	2back/STIM_029.jpg	99
2344.136	0.693	692.9	2back	Block4	2back/STIM_029.jpg	99
2348.637	0.705	705.2	2back	Block4	2back/STIM_030.jpg	99
2352.248	0.69	690.1	2back	Block4	2back/STIM_030.jpg	99
2356.458	0.903	902.8	2back	Block4	2back/STIM_030.jpg	100
2361.118	0.6	600.2	2back	Block4	2back/STIM_031.jpg	99
2364.921	0.61	609.7	2back	Block4	2back/STIM_031.jpg	99
2368.163	0.886	885.7	2back	Block4	2back/STIM_031.jpg	99
2371.528	0.676	675.6	2back	Block4	2back/STIM_032.jpg	99
2374.826	0.484	484.3	2back	Block4	2back/STIM_032.jpg	99
2377.382	1.078	1078.3	2back	Block4	2back/STIM_032.jpg	100
2381.251	0.545	545.0	2back	Block4	2back/STIM_033.jpg	100
2384.924	0.99	990.2	2back	Block4	2back/STIM_033.jpg	99
2387.922	1.07	1069.5	2back	Block4	2back/STIM_033.jpg	99
2391.306	0.55	550.1	2back	Block4	2back/STIM_034.jpg	100
2394.882	1.097	1097.3	2back	Block4	2back/STIM_034.jpg	100
2399.793	1.093	1093.3	2back	Block4	2back/STIM_034.jpg	99
2402.76	0.826	826.1	2back	Block4	2back/STIM_035.jpg	99
2406.078	1.072	1072.3	2back	Block4	2back/STIM_035.jpg	99
2410.082	0.646	646.3	2back	Block4	2back/STIM_035.jpg	99
2414.236	0.652	652.3	2back	Block4	2back/STIM_036.jpg	100
2417.18	0.94	940.5	2back	Block4	2back/STIM_036.jpg	99
2421.079	0.594	593.5	2back	Block4	2back/STIM_036.jpg	100
2425.363	1.11	1110.4	2back	Block4	2back/STIM_037.jpg	100
2428.958	0.883	882.7	2back	Block4	2back/STIM_037.jpg	99
2432.15	0.97	970.3	2back	Block4	2back/STIM_037.jpg	99
2435.042	0.815	814.8	2back	Block4	2back/STIM_038.jpg	99
2439.217	0.734	733.8	2back	Block4	2back/STIM_038.jpg	99
2442.023	0.863	862.6	2back	Block4	2back/STIM_038.jpg	100
2446.438	0.523	523.2	2back	Block4	2back/STIM_039.jpg	99
2449.0	0.917	917.2	2back	Block4	2back/STIM_039.jpg	99
2452.293	1.01	1010.3	2back	Block4	2back/STIM_039.jpg	100
2456.207	0.785	784.9	0back	Block4	0back/STIM_000.jpg	99
2459.541	0.628	628.3	0back	Block4	0back/STIM_000.jpg	100
2462.899	0.653	652.9	0back	Block4	0back/STIM_000.jpg	99
2466.883	0.597	597.0	0back	Block4	0back/STIM_001.jpg	100
2470.59	0.866	866.4	0back	Block4	0back/STIM_001.jpg	100
2474.86	0.56	560.2	0back	Block4	0back/STIM_001.jpg	100
2479.297	0.58	579.8	0back	Block4	0back/STIM_002.jpg	100
2482.992	0.897	897.0	0back	Block4	0back/STIM_002.jpg	100
2487.653	0.618	617.9	0back	Block4	0back/STIM_002.jpg	100
2490.859	0.842	842.0	0back	Block4	0back/STIM_003.jpg	99
2494.624	0.523	523.2	0back	Block4	0back/STIM_003.jpg	99
2498.06	0.876	876.4	0back	Block4	0back/STIM_003.jpg	100
2500.938	0.685	685.4	0back	Block4	0back/STIM_004.jpg	100
2504.188	0.717	716.7	0back	Block4	0back/STIM_004.jpg	100
2507.693	0.843	843.2	0back	Block4	0back/STIM_004.jpg	99
2511.966	0.525	525.1	0back	Block4	0back/STIM_005.jpg	100
2515.423	0.489	488.7	0back	Block4	0back/STIM_005.jpg	100
2519.448	0.758	757.7	0back	Block4	0back/STIM_005.jpg	100
2522.277	0.828	828.2	0back	Block4	0back/STIM_006.jpg	99
2525.731	0.627	626.8	0back	Block4	0back/STIM_006.jpg	100
2529.9	0.644	644.3	0back	Block4	0back/STIM_006.jpg	99
2532.507	0.636	636.1	0back	Block4	0back/STIM_007.jpg	100
2535.359	0.845	844.7	0back	Block4	0back/STIM_007.jpg	100
2538.182	0.879	879.1	0back	Block4	0back/STIM_007.jpg	99
2542.523	0.474	473.9	0back	Block4	0back/STIM_008.jpg	99
2546.685	0.793	793.4	0back	Block4	0back/STIM_008.jpg	100
2549.488	0.481	480.7	0back	Block4	0back/STIM_008.jpg	100
2553.081	0.699	698.6	0back	Block4	0back/STIM_009.jpg	100
2557.024	0.786	785.6	0back	Block4	0back/STIM_009.jpg	100
2560.802	0.777	777.2	0back	Block4	0back/STIM_009.jpg	99
2563.926	0.737	736.7	0back	Block4	0back/STIM_010.jpg	100
2568.402	0.652	651.5	0back	Block4	0back/STIM_010.jpg	99
2572.929	0.731	730.8	0back	Block4	0back/STIM_010.jpg	100
2576.34	0.725	724.6	0back	Block4	0back/STIM_011.jpg	100
2580.414	0.741	740.7	0back	Block4	0back/STIM_011.jpg	99
2584.436	0.612	612.4	0back	Block4	0back/STIM_011.jpg	100
2587.362	0.568	568.0	0back	Block4	0back/STIM_012.jpg	100
2591.08	0.659	659.1	0back	Block4	0back/STIM_012.jpg	99
2594.104	0.81	810.4	0back	Block4	0back/STIM_012.jpg	100
2598.454	0.611	610.8	0back	Block4	0back/STIM_013.jpg	99
2602.808	0.691	690.8	0back	Block4	0back/STIM_013.jpg	100
2605.845	0.49	489.7	0back	Block4	0back/STIM_013.jpg	99
2608.616	0.566	566.5	0back	Block4	0back/STIM_014.jpg	99
2612.47	0.454	454.0	0back	Block4	0back/STIM_014.jpg	99
2615.474	0.485	485.3	0back	Block4	0back/STIM_014.jpg	99
2618.388	0.812	811.9	0back	Block4	0back/STIM_015.jpg	100
2622.136	0.599	598.7	0back	Block4	0back/STIM_015.jpg	99
2625.615	0.888	888.0	0back	Block4	0back/STIM_015.jpg	100
2630.364	0.62	619.7	0back	Block4	0back/STIM_016.jpg	100
2633.398	0.663	663.2	0back	Block4	0back/STIM_016.jpg	100
2637.095	0.878	878.4	0back	Block4	0back/STIM_016.jpg	99
2640.554	0.864	864.3	0back	Block4	0back/STIM_017.jpg	100
2643.762	0.565	565.0	0back	Block4	0back/STIM_017.jpg	100
2647.106	0.838	838.4	0back	Block4	0back/STIM_017.jpg	99
2650.355	0.883	883.4	0back	Block4	0back/STIM_018.jpg	99
2654.65	0.533	533.1	0back	Block4	0back/STIM_018.jpg	100
2657.895	0.632	631.7	0back	Block4	0back/STIM_018.jpg	99
2661.828	0.664	663.9	0back	Block4	0back/STIM_019.jpg	100
2665.947	0.578	578.2	0back	Block4	0back/STIM_019.jpg	100
2669.697	0.649	648.8	0back	Block4	0back/STIM_019.jpg	100
