onset	duration	accuracy	trial_type	learning_stage	stimulus
0.0	1.696	correct	2back	Block1	2back/STIM_000.jpg
4.6	0.74	correct	2back	Block1	2back/STIM_000.jpg
8.433	1.271	correct	2back	Block1	2back/STIM_000.jpg
12.65	1.232	correct	2back	Block1	2back/STIM_001.jpg
17.817	1.206	correct	2back	Block1	2back/STIM_001.jpg
22.815	1.554	correct	2back	Block1	2back/STIM_001.jpg
28.08	0.879	incorrect	2back	Block1	2back/STIM_002.jpg
31.296	1.353	correct	2back	Block1	2back/STIM_002.jpg
35.709	1.522	incorrect	2back	Block1	2back/STIM_002.jpg
41.224	1.133	correct	2back	Block1	2back/STIM_003.jpg
44.667	0.714	correct	2back	Block1	2back/STIM_003.jpg
47.99	1.156	correct	2back	Block1	2back/STIM_003.jpg
52.603	1.215	correct	2back	Block1	2back/STIM_004.jpg
55.826	1.475	correct	2back	Block1	2back/STIM_004.jpg
60.544	0.905	correct	2back	Block1	2back/STIM_004.jpg
64.298	1.164	correct	2back	Block1	2back/STIM_005.jpg
67.764	0.922	correct	2back	Block1	2back/STIM_005.jpg
72.66	0.854	correct	2back	Block1	2back/STIM_005.jpg
75.648	1.452	correct	2back	Block1	2back/STIM_006.jpg
80.702	1.608	correct	2back	Block1	2back/STIM_006.jpg
85.08	1.22	correct	2back	Block1	2back/STIM_006.jpg
88.43	0.9	correct	2back	Block1	2back/STIM_007.jpg
92.255	1.349	correct	2back	Block1	2back/STIM_007.jpg
97.345	1.219	correct	2back	Block1	2back/STIM_007.jpg
101.786	0.988	correct	2back	Block1	2back/STIM_008.jpg
104.936	1.187	correct	2back	Block1	2back/STIM_008.jpg
109.298	0.912	correct	2back	Block1	2back/STIM_008.jpg
113.298	1.616	correct	2back	Block1	2back/STIM_009.jpg
117.806	1.134	correct	2back	Block1	2back/STIM_009.jpg
121.234	1.054	incorrect	2back	Block1	2back/STIM_009.jpg
125.448	0.828	correct	2back	Block1	2back/STIM_010.jpg
128.69	1.49	correct	2back	Block1	2back/STIM_010.jpg
133.353	1.056	correct	2back	Block1	2back/STIM_010.jpg
137.681	0.847	correct	2back	Block1	2back/STIM_011.jpg
142.454	1.357	correct	2back	Block1	2back/STIM_011.jpg
145.861	0.809	correct	2back	Block1	2back/STIM_011.jpg
150.556	0.852	correct	2back	Block1	2back/STIM_012.jpg
154.978	1.288	correct	2back	Block1	2back/STIM_012.jpg
160.08	1.444	incorrect	2back	Block1	2back/STIM_012.jpg
163.642	1.205	correct	2back	Block1	2back/STIM_013.jpg
167.022	1.383	correct	2back	Block1	2back/STIM_013.jpg
171.927	0.824	correct	2back	Block1	2back/STIM_013.jpg
176.013	1.084	correct	2back	Block1	2back/STIM_014.jpg
179.294	0.755	incorrect	2back	Block1	2back/STIM_014.jpg
183.361	1.511	correct	2back	Block1	2back/STIM_014.jpg
188.619	1.622	correct	2back	Block1	2back/STIM_015.jpg
193.868	0.866	correct	2back	Block1	2back/STIM_015.jpg
198.731	0.79	correct	2back	Block1	2back/STIM_015.jpg
202.911	1.304	correct	2back	Block1	2back/STIM_016.jpg
206.886	1.404	correct	2back	Block1	2back/STIM_016.jpg
211.47	0.961	correct	2back	Block1	2back/STIM_016.jpg
215.361	1.725	correct	2back	Block1	2back/STIM_017.jpg
219.505	0.886	correct	2back	Block1	2back/STIM_017.jpg
223.17	1.343	correct	2back	Block1	2back/STIM_017.jpg
228.211	1.646	incorrect	2back	Block1	2back/STIM_018.jpg
233.587	1.072	correct	2back	Block1	2back/STIM_018.jpg
237.376	1.211	correct	2back	Block1	2back/STIM_018.jpg
241.474	1.409	correct	2back	Block1	2back/STIM_019.jpg
245.903	1.191	correct	2back	Block1	2back/STIM_019.jpg
249.25	1.084	correct	2back	Block1	2back/STIM_019.jpg
252.979	1.548	correct	2back	Block1	2back/STIM_020.jpg
258.427	0.976	correct	2back	Block1	2back/STIM_020.jpg
263.05	1.219	correct	2back	Block1	2back/STIM_020.jpg
266.626	1.546	correct	2back	Block1	2back/STIM_021.jpg
271.621	1.228	correct	2back	Block1	2back/STIM_021.jpg
275.901	1.335	correct	2back	Block1	2back/STIM_021.jpg
279.43	1.158	correct	2back	Block1	2back/STIM_022.jpg
283.947	0.763	correct	2back	Block1	2back/STIM_022.jpg
287.353	1.249	correct	2back	Block1	2back/STIM_022.jpg
291.814	1.548	incorrect	2back	Block1	2back/STIM_023.jpg
296.65	0.724	correct	2back	Block1	2back/STIM_023.jpg
299.694	1.187	correct	2back	Block1	2back/STIM_023.jpg
304.329	1.064	correct	2back	Block1	2back/STIM_024.jpg
308.458	1.095	correct	2back	Block1	2back/STIM_024.jpg
312.7	0.789	correct	2back	Block1	2back/STIM_024.jpg
315.961	1.283	correct	2back	Block1	2back/STIM_025.jpg
320.977	1.584	correct	2back	Block1	2back/STIM_025.jpg
325.81	1.161	correct	2back	Block1	2back/STIM_025.jpg
329.733	1.575	correct	2back	Block1	2back/STIM_026.jpg
334.998	1.314	correct	2back	Block1	2back/STIM_026.jpg
339.324	0.838	correct	2back	Block1	2back/STIM_026.jpg
342.973	0.982	correct	2back	Block1	2back/STIM_027.jpg
347.787	1.139	correct	2back	Block1	2back/STIM_027.jpg
352.387	0.786	correct	2back	Block1	2back/STIM_027.jpg
356.148	0.78	correct	2back	Block1	2back/STIM_028.jpg
359.847	0.845	correct	2back	Block1	2back/STIM_028.jpg
364.551	0.952	correct	2back	Block1	2back/STIM_028.jpg
368.498	1.683	correct	2back	Block1	2back/STIM_029.jpg
372.368	0.886	correct	2back	Block1	2back/STIM_029.jpg
377.082	1.242	correct	2back	Block1	2back/STIM_029.jpg
380.392	1.095	correct	2back	Block1	2back/STIM_030.jpg
383.721	1.632	correct	2back	Block1	2back/STIM_030.jpg
389.313	0.689	correct	2back	Block1	2back/STIM_030.jpg
393.771	1.138	correct	2back	Block1	2back/STIM_031.jpg
397.302	1.593	correct	2back	Block1	2back/STIM_031.jpg
401.775	1.471	correct	2back	Block1	2back/STIM_031.jpg
406.247	1.504	correct	2back	Block1	2back/STIM_032.jpg
411.507	1.653	correct	2back	Block1	2back/STIM_032.jpg
415.828	1.183	correct	2back	Block1	2back/STIM_032.jpg
419.712	1.047	correct	2back	Block1	2back/STIM_033.jpg
423.023	1.332	correct	2back	Block1	2back/STIM_033.jpg
428.208	1.258	correct	2back	Block1	2back/STIM_033.jpg
432.073	1.462	correct	2back	Block1	2back/STIM_034.jpg
436.473	0.782	correct	2back	Block1	2back/STIM_034.jpg
440.147	0.98	correct	2back	Block1	2back/STIM_034.jpg
444.453	0.899	correct	2back	Block1	2back/STIM_035.jpg
448.279	0.989	correct	2back	Block1	2back/STIM_035.jpg
451.707	1.556	correct	2back	Block1	2back/STIM_035.jpg
455.982	1.17	correct	2back	Block1	2back/STIM_036.jpg
459.492	1.486	correct	2back	Block1	2back/STIM_036.jpg
463.591	1.318	correct	2back	Block1	2back/STIM_036.jpg
468.648	1.573	correct	2back	Block1	2back/STIM_037.jpg
472.638	1.337	correct	2back	Block1	2back/STIM_037.jpg
477.51	0.76	correct	2back	Block1	2back/STIM_037.jpg
481.579	1.369	correct	2back	Block1	2back/STIM_038.jpg
485.546	1.297	correct	2back	Block1	2back/STIM_038.jpg
489.036	1.192	correct	2back	Block1	2back/STIM_038.jpg
492.296	0.796	correct	2back	Block1	2back/STIM_039.jpg
496.183	1.292	correct	2back	Block1	2back/STIM_039.jpg
499.503	1.377	correct	2back	Block1	2back/STIM_039.jpg
503.275	0.612	correct	0back	Block1	0back/STIM_000.jpg
506.663	0.734	correct	0back	Block1	0back/STIM_000.jpg
510.491	0.577	correct	0back	Block1	0back/STIM_000.jpg
513.412	0.933	correct	0back	Block1	0back/STIM_001.jpg
517.857	0.741	correct	0back	Block1	0back/STIM_001.jpg
521.652	0.859	incorrect	0back	Block1	0back/STIM_001.jpg
524.835	0.778	correct	0back	Block1	0back/STIM_002.jpg
528.605	0.899	correct	0back	Block1	0back/STIM_002.jpg
532.074	0.543	correct	0back	Block1	0back/STIM_002.jpg
536.034	0.524	correct	0back	Block1	0back/STIM_003.jpg
539.442	0.742	correct	0back	Block1	0back/STIM_003.jpg
543.194	0.934	correct	0back	Block1	0back/STIM_003.jpg
546.485	0.655	incorrect	0back	Block1	0back/STIM_004.jpg
550.948	0.581	correct	0back	Block1	0back/STIM_004.jpg
554.986	0.557	correct	0back	Block1	0back/STIM_004.jpg
558.529	0.585	correct	0back	Block1	0back/STIM_005.jpg
562.957	0.642	correct	0back	Block1	0back/STIM_005.jpg
566.791	0.648	correct	0back	Block1	0back/STIM_005.jpg
570.283	0.682	correct	0back	Block1	0back/STIM_006.jpg
573.334	0.524	correct	0back	Block1	0back/STIM_006.jpg
576.724	0.519	correct	0back	Block1	0back/STIM_006.jpg
579.459	0.755	correct	0back	Block1	0back/STIM_007.jpg
583.101	0.95	correct	0back	Block1	0back/STIM_007.jpg
587.951	0.757	correct	0back	Block1	0back/STIM_007.jpg
591.389	0.809	correct	0back	Block1	0back/STIM_008.jpg
594.851	0.567	correct	0back	Block1	0back/STIM_008.jpg
598.006	0.78	correct	0back	Block1	0back/STIM_008.jpg
600.904	0.603	correct	0back	Block1	0back/STIM_009.jpg
605.193	0.742	correct	0back	Block1	0back/STIM_009.jpg
608.557	0.698	correct	0back	Block1	0back/STIM_009.jpg
612.784	0.919	correct	0back	Block1	0back/STIM_010.jpg
616.524	0.754	correct	0back	Block1	0back/STIM_010.jpg
621.264	0.822	correct	0back	Block1	0back/STIM_010.jpg
625.337	0.811	correct	0back	Block1	0back/STIM_011.jpg
629.407	0.818	correct	0back	Block1	0back/STIM_011.jpg
632.72	0.727	correct	0back	Block1	0back/STIM_011.jpg
636.183	0.651	correct	0back	Block1	0back/STIM_012.jpg
638.985	0.941	correct	0back	Block1	0back/STIM_012.jpg
643.181	0.509	correct	0back	Block1	0back/STIM_012.jpg
646.911	0.723	correct	0back	Block1	0back/STIM_013.jpg
649.721	0.774	correct	0back	Block1	0back/STIM_013.jpg
654.194	0.591	correct	0back	Block1	0back/STIM_013.jpg
658.632	0.653	correct	0back	Block1	0back/STIM_014.jpg
661.779	0.771	correct	0back	Block1	0back/STIM_014.jpg
666.473	0.625	correct	0back	Block1	0back/STIM_014.jpg
671.063	0.977	correct	0back	Block1	0back/STIM_015.jpg
676.038	0.716	correct	0back	Block1	0back/STIM_015.jpg
679.268	0.694	correct	0back	Block1	0back/STIM_015.jpg
682.312	0.758	correct	0back	Block1	0back/STIM_016.jpg
686.641	0.566	correct	0back	Block1	0back/STIM_016.jpg
689.545	0.753	correct	0back	Block1	0back/STIM_016.jpg
693.985	0.611	correct	0back	Block1	0back/STIM_017.jpg
697.491	0.563	correct	0back	Block1	0back/STIM_017.jpg
700.552	0.608	correct	0back	Block1	0back/STIM_017.jpg
703.191	0.516	correct	0back	Block1	0back/STIM_018.jpg
707.666	0.863	correct	0back	Block1	0back/STIM_018.jpg
711.489	0.86	correct	0back	Block1	0back/STIM_018.jpg
715.235	0.593	correct	0back	Block1	0back/STIM_019.jpg
718.262	0.645	correct	0back	Block1	0back/STIM_019.jpg
721.247	0.677	correct	0back	Block1	0back/STIM_019.jpg
724.962	1.117	correct	2back	Block2	2back/STIM_000.jpg
728.57	1.04	correct	2back	Block2	2back/STIM_000.jpg
732.997	1.296	correct	2back	Block2	2back/STIM_000.jpg
736.678	1.231	correct	2back	Block2	2back/STIM_001.jpg
740.07	1.369	correct	2back	Block2	2back/STIM_001.jpg
743.9	1.059	correct	2back	Block2	2back/STIM_001.jpg
748.873	0.716	correct	2back	Block2	2back/STIM_002.jpg
752.023	1.39	correct	2back	Block2	2back/STIM_002.jpg
757.051	1.27	correct	2back	Block2	2back/STIM_002.jpg
761.992	1.062	correct	2back	Block2	2back/STIM_003.jpg
765.713	0.601	correct	2back	Block2	2back/STIM_003.jpg
769.92	0.564	correct	2back	Block2	2back/STIM_003.jpg
774.167	0.954	correct	2back	Block2	2back/STIM_004.jpg
779.104	0.779	correct	2back	Block2	2back/STIM_004.jpg
782.476	0.798	correct	2back	Block2	2back/STIM_004.jpg
785.875	0.917	correct	2back	Block2	2back/STIM_005.jpg
790.618	1.31	correct	2back	Block2	2back/STIM_005.jpg
795.21	0.759	correct	2back	Block2	2back/STIM_005.jpg
799.028	0.734	correct	2back	Block2	2back/STIM_006.jpg
801.996	1.18	correct	2back	Block2	2back/STIM_006.jpg
805.832	1.285	correct	2back	Block2	2back/STIM_006.jpg
810.14	1.262	correct	2back	Block2	2back/STIM_007.jpg
814.517	1.221	correct	2back	Block2	2back/STIM_007.jpg
818.245	1.065	correct	2back	Block2	2back/STIM_007.jpg
821.9	1.35	correct	2back	Block2	2back/STIM_008.jpg
826.814	0.718	correct	2back	Block2	2back/STIM_008.jpg
830.745	1.106	correct	2back	Block2	2back/STIM_008.jpg
834.919	0.934	correct	2back	Block2	2back/STIM_009.jpg
839.152	1.343	correct	2back	Block2	2back/STIM_009.jpg
843.052	0.892	correct	2back	Block2	2back/STIM_009.jpg
846.616	1.174	correct	2back	Block2	2back/STIM_010.jpg
851.699	1.317	correct	2back	Block2	2back/STIM_010.jpg
855.306	1.158	correct	2back	Block2	2back/STIM_010.jpg
859.929	0.67	correct	2back	Block2	2back/STIM_011.jpg
864.087	1.092	incorrect	2back	Block2	2back/STIM_011.jpg
867.946	0.793	correct	2back	Block2	2back/STIM_011.jpg
871.918	1.31	correct	2back	Block2	2back/STIM_012.jpg
875.659	0.982	correct	2back	Block2	2back/STIM_012.jpg
879.852	0.701	correct	2back	Block2	2back/STIM_012.jpg
883.185	0.993	correct	2back	Block2	2back/STIM_013.jpg
887.102	1.321	correct	2back	Block2	2back/STIM_013.jpg
892.106	0.955	correct	2back	Block2	2back/STIM_013.jpg
895.691	1.428	correct	2back	Block2	2back/STIM_014.jpg
900.013	1.216	correct	2back	Block2	2back/STIM_014.jpg
903.701	0.84	correct	2back	Block2	2back/STIM_014.jpg
907.9	0.792	correct	2back	Block2	2back/STIM_015.jpg
911.721	1.269	correct	2back	Block2	2back/STIM_015.jpg
915.828	1.118	correct	2back	Block2	2back/STIM_015.jpg
920.607	0.712	correct	2back	Block2	2back/STIM_016.jpg
923.728	0.664	correct	2back	Block2	2back/STIM_016.jpg
928.299	1.009	correct	2back	Block2	2back/STIM_016.jpg
931.338	0.888	correct	2back	Block2	2back/STIM_017.jpg
935.201	0.94	correct	2back	Block2	2back/STIM_017.jpg
939.687	1.244	correct	2back	Block2	2back/STIM_017.jpg
943.006	1.337	correct	2back	Block2	2back/STIM_018.jpg
948.229	0.976	correct	2back	Block2	2back/STIM_018.jpg
953.121	1.044	correct	2back	Block2	2back/STIM_018.jpg
957.195	1.322	correct	2back	Block2	2back/STIM_019.jpg
961.749	0.76	correct	2back	Block2	2back/STIM_019.jpg
966.157	0.826	correct	2back	Block2	2back/STIM_019.jpg
969.081	1.104	correct	2back	Block2	2back/STIM_020.jpg
973.029	0.779	correct	2back	Block2	2back/STIM_020.jpg
976.96	1.01	correct	2back	Block2	2back/STIM_020.jpg
980.142	1.371	correct	2back	Block2	2back/STIM_021.jpg
984.826	1.049	correct	2back	Block2	2back/STIM_021.jpg
989.854	0.753	correct	2back	Block2	2back/STIM_021.jpg
993.113	1.231	correct	2back	Block2	2back/STIM_022.jpg
997.756	0.799	correct	2back	Block2	2back/STIM_022.jpg
1002.149	0.706	correct	2back	Block2	2back/STIM_022.jpg
1006.209	1.192	correct	2back	Block2	2back/STIM_023.jpg
1010.531	0.725	correct	2back	Block2	2back/STIM_023.jpg
1014.747	1.18	correct	2back	Block2	2back/STIM_023.jpg
1018.161	0.991	correct	2back	Block2	2back/STIM_024.jpg
1021.301	1.019	correct	2back	Block2	2back/STIM_024.jpg
1024.782	1.17	correct	2back	Block2	2back/STIM_024.jpg
1028.034	1.012	correct	2back	Block2	2back/STIM_025.jpg
1032.822	0.724	correct	2back	Block2	2back/STIM_025.jpg
1037.413	1.24	correct	2back	Block2	2back/STIM_025.jpg
1041.188	0.693	correct	2back	Block2	2back/STIM_026.jpg
1044.729	0.94	correct	2back	Block2	2back/STIM_026.jpg
1049.328	0.687	correct	2back	Block2	2back/STIM_026.jpg
1052.849	0.66	correct	2back	Block2	2back/STIM_027.jpg
1056.625	1.012	correct	2back	Block2	2back/STIM_027.jpg
1060.976	1.236	correct	2back	Block2	2back/STIM_027.jpg
1064.236	0.873	correct	2back	Block2	2back/STIM_028.jpg
1067.825	1.372	correct	2back	Block2	2back/STIM_028.jpg
1073.195	0.731	correct	2back	Block2	2back/STIM_028.jpg
1076.465	0.814	correct	2back	Block2	2back/STIM_029.jpg
1080.095	1.214	correct	2back	Block2	2back/STIM_029.jpg
1083.697	0.857	correct	2back	Block2	2back/STIM_029.jpg
1088.289	1.081	correct	2back	Block2	2back/STIM_030.jpg
1093.361	1.07	correct	2back	Block2	2back/STIM_030.jpg
1097.561	1.211	correct	2back	Block2	2back/STIM_030.jpg
1100.907	1.134	incorrect	2back	Block2	2back/STIM_031.jpg
1105.59	0.867	correct	2back	Block2	2back/STIM_031.jpg
1109.698	0.859	correct	2back	Block2	2back/STIM_031.jpg
1112.773	1.137	correct	2back	Block2	2back/STIM_032.jpg
1117.2	1.194	correct	2back	Block2	2back/STIM_032.jpg
1121.864	0.947	correct	2back	Block2	2back/STIM_032.jpg
1126.522	1.227	correct	2back	Block2	2back/STIM_033.jpg
1130.591	0.711	correct	2back	Block2	2back/STIM_033.jpg
1133.494	0.755	correct	2back	Block2	2back/STIM_033.jpg
1136.909	0.995	correct	2back	Block2	2back/STIM_034.jpg
1141.583	0.666	correct	2back	Block2	2back/STIM_034.jpg
1146.235	0.769	correct	2back	Block2	2back/STIM_034.jpg
1150.731	1.299	correct	2back	Block2	2back/STIM_035.jpg
1154.515	0.923	correct	2back	Block2	2back/STIM_035.jpg
1159.083	0.819	correct	2back	Block2	2back/STIM_035.jpg
1162.567	0.841	correct	2back	Block2	2back/STIM_036.jpg
1166.484	0.897	correct	2back	Block2	2back/STIM_036.jpg
1169.48	1.044	correct	2back	Block2	2back/STIM_036.jpg
1172.689	1.315	correct	2back	Block2	2back/STIM_037.jpg
1177.861	1.286	correct	2back	Block2	2back/STIM_037.jpg
1182.584	0.781	correct	2back	Block2	2back/STIM_037.jpg
1185.764	0.787	correct	2back	Block2	2back/STIM_038.jpg
1189.173	0.768	correct	2back	Block2	2back/STIM_038.jpg
1192.222	0.679	correct	2back	Block2	2back/STIM_038.jpg
1195.36	0.794	correct	2back	Block2	2back/STIM_039.jpg
1199.389	0.692	correct	2back	Block2	2back/STIM_039.jpg
1204.063	0.909	correct	2back	Block2	2back/STIM_039.jpg
1208.221	0.97	correct	0back	Block2	0back/STIM_000.jpg
1211.929	0.668	correct	0back	Block2	0back/STIM_000.jpg
1214.827	0.994	correct	0back	Block2	0back/STIM_000.jpg
1219.177	0.56	correct	0back	Block2	0back/STIM_001.jpg
1222.632	0.866	correct	0back	Block2	0back/STIM_001.jpg
1226.326	0.877	correct	0back	Block2	0back/STIM_001.jpg
1230.837	0.767	correct	0back	Block2	0back/STIM_002.jpg
1235.315	0.757	correct	0back	Block2	0back/STIM_002.jpg
1238.51	0.547	correct	0back	Block2	0back/STIM_002.jpg
1241.608	0.89	correct	0back	Block2	0back/STIM_003.jpg
1245.52	0.965	correct	0back	Block2	0back/STIM_003.jpg
1249.069	0.895	correct	0back	Block2	0back/STIM_003.jpg
1252.616	0.813	correct	0back	Block2	0back/STIM_004.jpg
1257.245	0.566	correct	0back	Block2	0back/STIM_004.jpg
1261.632	0.796	correct	0back	Block2	0back/STIM_004.jpg
1265.698	0.521	correct	0back	Block2	0back/STIM_005.jpg
1270.216	0.921	correct	0back	Block2	0back/STIM_005.jpg
1274.92	0.822	correct	0back	Block2	0back/STIM_005.jpg
1278.065	0.812	correct	0back	Block2	0back/STIM_006.jpg
1281.096	0.577	correct	0back	Block2	0back/STIM_006.jpg
1285.232	0.519	correct	0back	Block2	0back/STIM_006.jpg
1288.727	0.806	correct	0back	Block2	0back/STIM_007.jpg
1292.326	0.574	correct	0back	Block2	0back/STIM_007.jpg
1296.862	0.77	correct	0back	Block2	0back/STIM_007.jpg
1299.834	0.926	correct	0back	Block2	0back/STIM_008.jpg
1303.407	0.645	correct	0back	Block2	0back/STIM_008.jpg
1307.783	0.935	correct	0back	Block2	0back/STIM_008.jpg
1312.177	0.539	correct	0back	Block2	0back/STIM_009.jpg
1316.166	0.87	correct	0back	Block2	0back/STIM_009.jpg
1320.976	0.681	correct	0back	Block2	0back/STIM_009.jpg
1325.61	0.981	correct	0back	Block2	0back/STIM_010.jpg
1330.274	0.575	correct	0back	Block2	0back/STIM_010.jpg
1333.507	0.942	correct	0back	Block2	0back/STIM_010.jpg
1337.949	0.53	correct	0back	Block2	0back/STIM_011.jpg
1340.611	0.731	correct	0back	Block2	0back/STIM_011.jpg
1344.995	0.526	correct	0back	Block2	0back/STIM_011.jpg
1348.585	0.796	correct	0back	Block2	0back/STIM_012.jpg
1351.47	0.778	correct	0back	Block2	0back/STIM_012.jpg
1354.797	0.97	correct	0back	Block2	0back/STIM_012.jpg
1358.32	0.843	correct	0back	Block2	0back/STIM_013.jpg
1362.011	0.864	correct	0back	Block2	0back/STIM_013.jpg
1365.04	0.773	correct	0back	Block2	0back/STIM_013.jpg
1368.011	0.801	correct	0back	Block2	0back/STIM_014.jpg
1372.359	0.781	correct	0back	Block2	0back/STIM_014.jpg
1376.764	0.881	incorrect	0back	Block2	0back/STIM_014.jpg
1380.376	0.985	correct	0back	Block2	0back/STIM_015.jpg
1384.503	0.575	correct	0back	Block2	0back/STIM_015.jpg
1388.014	0.974	correct	0back	Block2	0back/STIM_015.jpg
1391.266	0.859	correct	0back	Block2	0back/STIM_016.jpg
1395.703	0.93	correct	0back	Block2	0back/STIM_016.jpg
1399.811	0.873	incorrect	0back	Block2	0back/STIM_016.jpg
1403.181	0.859	correct	0back	Block2	0back/STIM_017.jpg
1407.385	0.691	correct	0back	Block2	0back/STIM_017.jpg
1411.742	0.939	correct	0back	Block2	0back/STIM_017.jpg
1415.202	0.798	correct	0back	Block2	0back/STIM_018.jpg
1418.65	0.672	correct	0back	Block2	0back/STIM_018.jpg
1422.068	0.654	correct	0back	Block2	0back/STIM_018.jpg
1425.464	0.912	correct	0back	Block2	0back/STIM_019.jpg
1429.554	0.631	correct	0back	Block2	0back/STIM_019.jpg
1433.605	0.542	correct	0back	Block2	0back/STIM_019.jpg
1436.259	0.701	correct	2back	Block3	2back/STIM_000.jpg
1440.503	1.093	correct	2back	Block3	2back/STIM_000.jpg
1445.583	1.121	correct	2back	Block3	2back/STIM_000.jpg
1450.476	0.687	correct	2back	Block3	2back/STIM_001.jpg
1454.715	1.106	correct	2back	Block3	2back/STIM_001.jpg
1458.302	1.156	correct	2back	Block3	2back/STIM_001.jpg
1461.565	1.04	correct	2back	Block3	2back/STIM_002.jpg
1465.017	1.087	correct	2back	Block3	2back/STIM_002.jpg
1469.715	0.702	correct	2back	Block3	2back/STIM_002.jpg
1473.367	1.002	correct	2back	Block3	2back/STIM_003.jpg
1476.673	0.578	correct	2back	Block3	2back/STIM_003.jpg
1479.389	1.122	correct	2back	Block3	2back/STIM_003.jpg
1483.292	1.095	correct	2back	Block3	2back/STIM_004.jpg
1488.294	1.217	correct	2back	Block3	2back/STIM_004.jpg
1493.034	0.689	correct	2back	Block3	2back/STIM_004.jpg
1497.167	0.534	correct	2back	Block3	2back/STIM_005.jpg
1501.069	1.165	correct	2back	Block3	2back/STIM_005.jpg
1505.514	0.873	correct	2back	Block3	2back/STIM_005.jpg
1509.19	1.095	correct	2back	Block3	2back/STIM_006.jpg
1512.626	1.011	incorrect	2back	Block3	2back/STIM_006.jpg
1516.081	0.918	correct	2back	Block3	2back/STIM_006.jpg
1519.008	0.688	correct	2back	Block3	2back/STIM_007.jpg
1522.921	0.899	correct	2back	Block3	2back/STIM_007.jpg
1526.101	0.784	correct	2back	Block3	2back/STIM_007.jpg
1529.317	0.89	correct	2back	Block3	2back/STIM_008.jpg
1532.836	0.951	correct	2back	Block3	2back/STIM_008.jpg
1537.157	1.185	correct	2back	Block3	2back/STIM_008.jpg
1542.191	0.73	correct	2back	Block3	2back/STIM_009.jpg
1545.665	1.19	correct	2back	Block3	2back/STIM_009.jpg
1549.333	1.145	correct	2back	Block3	2back/STIM_009.jpg
1553.12	0.836	correct	2back	Block3	2back/STIM_010.jpg
1556.225	0.681	correct	2back	Block3	2back/STIM_010.jpg
1559.481	1.05	correct	2back	Block3	2back/STIM_010.jpg
1563.102	0.54	correct	2back	Block3	2back/STIM_011.jpg
1566.099	0.565	correct	2back	Block3	2back/STIM_011.jpg
1570.609	1.206	correct	2back	Block3	2back/STIM_011.jpg
1575.19	0.765	correct	2back	Block3	2back/STIM_012.jpg
1578.917	1.066	correct	2back	Block3	2back/STIM_012.jpg
1583.266	1.162	correct	2back	Block3	2back/STIM_012.jpg
1586.983	1.007	correct	2back	Block3	2back/STIM_013.jpg
1591.917	0.728	correct	2back	Block3	2back/STIM_013.jpg
1595.754	0.634	correct	2back	Block3	2back/STIM_013.jpg
1600.146	0.99	correct	2back	Block3	2back/STIM_014.jpg
1604.882	0.844	correct	2back	Block3	2back/STIM_014.jpg
1608.48	0.701	correct	2back	Block3	2back/STIM_014.jpg
1612.152	0.592	correct	2back	Block3	2back/STIM_015.jpg
1616.094	0.881	correct	2back	Block3	2back/STIM_015.jpg
1619.281	1.034	correct	2back	Block3	2back/STIM_015.jpg
1624.131	0.747	correct	2back	Block3	2back/STIM_016.jpg
1626.922	0.817	correct	2back	Block3	2back/STIM_016.jpg
1630.294	1.2	correct	2back	Block3	2back/STIM_016.jpg
1634.964	0.657	correct	2back	Block3	2back/STIM_017.jpg
1638.32	0.957	correct	2back	Block3	2back/STIM_017.jpg
1642.456	0.659	correct	2back	Block3	2back/STIM_017.jpg
1646.547	0.722	correct	2back	Block3	2back/STIM_018.jpg
1649.82	0.538	correct	2back	Block3	2back/STIM_018.jpg
1653.785	1.105	correct	2back	Block3	2back/STIM_018.jpg
1657.195	0.884	correct	2back	Block3	2back/STIM_019.jpg
1661.042	0.739	correct	2back	Block3	2back/STIM_019.jpg
1665.396	1.147	correct	2back	Block3	2back/STIM_019.jpg
1670.065	1.205	correct	2back	Block3	2back/STIM_020.jpg
1673.914	0.703	correct	2back	Block3	2back/STIM_020.jpg
1677.432	1.188	correct	2back	Block3	2back/STIM_020.jpg
1682.343	0.649	correct	2back	Block3	2back/STIM_021.jpg
1686.736	0.921	correct	2back	Block3	2back/STIM_021.jpg
1691.299	0.695	correct	2back	Block3	2back/STIM_021.jpg
1695.776	0.828	correct	2back	Block3	2back/STIM_022.jpg
1700.333	1.057	correct	2back	Block3	2back/STIM_022.jpg
1705.28	0.801	correct	2back	Block3	2back/STIM_022.jpg
1708.11	0.904	correct	2back	Block3	2back/STIM_023.jpg
1711.204	0.807	correct	2back	Block3	2back/STIM_023.jpg
1715.935	0.961	correct	2back	Block3	2back/STIM_023.jpg
1719.146	0.931	correct	2back	Block3	2back/STIM_024.jpg
1722.916	0.964	correct	2back	Block3	2back/STIM_024.jpg
1727.473	1.208	correct	2back	Block3	2back/STIM_024.jpg
1731.602	0.682	correct	2back	Block3	2back/STIM_025.jpg
1735.333	0.946	correct	2back	Block3	2back/STIM_025.jpg
1738.648	1.1	correct	2back	Block3	2back/STIM_025.jpg
1743.222	0.718	correct	2back	Block3	2back/STIM_026.jpg
1746.726	0.656	correct	2back	Block3	2back/STIM_026.jpg
1751.267	0.998	correct	2back	Block3	2back/STIM_026.jpg
1755.755	1.164	correct	2back	Block3	2back/STIM_027.jpg
1760.19	0.814	correct	2back	Block3	2back/STIM_027.jpg
1763.702	0.668	correct	2back	Block3	2back/STIM_027.jpg
1767.806	0.726	correct	2back	Block3	2back/STIM_028.jpg
1772.45	1.167	correct	2back	Block3	2back/STIM_028.jpg
1776.316	0.905	correct	2back	Block3	2back/STIM_028.jpg
1779.451	1.126	correct	2back	Block3	2back/STIM_029.jpg
1782.77	0.963	correct	2back	Block3	2back/STIM_029.jpg
1787.326	0.958	correct	2back	Block3	2back/STIM_029.jpg
1790.915	0.799	correct	2back	Block3	2back/STIM_030.jpg
1794.87	1.096	correct	2back	Block3	2back/STIM_030.jpg
1799.055	0.546	correct	2back	Block3	2back/STIM_030.jpg
1802.504	0.896	correct	2back	Block3	2back/STIM_031.jpg
1806.689	1.126	correct	2back	Block3	2back/STIM_031.jpg
1811.646	1.035	correct	2back	Block3	2back/STIM_031.jpg
1815.408	1.14	correct	2back	Block3	2back/STIM_032.jpg
1819.769	0.672	correct	2back	Block3	2back/STIM_032.jpg
1824.306	0.826	correct	2back	Block3	2back/STIM_032.jpg
1828.939	1.143	correct	2back	Block3	2back/STIM_033.jpg
1832.507	0.53	correct	2back	Block3	2back/STIM_033.jpg
1835.771	0.943	correct	2back	Block3	2back/STIM_033.jpg
1838.904	0.872	correct	2back	Block3	2back/STIM_034.jpg
1842.416	1.141	correct	2back	Block3	2back/STIM_034.jpg
1846.139	1.039	correct	2back	Block3	2back/STIM_034.jpg
1849.968	0.612	correct	2back	Block3	2back/STIM_035.jpg
1853.184	0.587	correct	2back	Block3	2back/STIM_035.jpg
1856.816	0.721	correct	2back	Block3	2back/STIM_035.jpg
1861.205	0.842	correct	2back	Block3	2back/STIM_036.jpg
1864.713	1.016	correct	2back	Block3	2back/STIM_036.jpg
1867.945	1.024	correct	2back	Block3	2back/STIM_036.jpg
1872.367	1.161	correct	2back	Block3	2back/STIM_037.jpg
1876.282	1.032	correct	2back	Block3	2back/STIM_037.jpg
1879.616	0.887	correct	2back	Block3	2back/STIM_037.jpg
1882.809	0.72	correct	2back	Block3	2back/STIM_038.jpg
1886.896	1.01	correct	2back	Block3	2back/STIM_038.jpg
1890.426	0.595	correct	2back	Block3	2back/STIM_038.jpg
1893.52	0.962	correct	2back	Block3	2back/STIM_039.jpg
1898.016	0.871	correct	2back	Block3	2back/STIM_039.jpg
1901.082	0.943	correct	2back	Block3	2back/STIM_039.jpg
1904.892	0.529	correct	0back	Block3	0back/STIM_000.jpg
1908.305	0.815	correct	0back	Block3	0back/STIM_000.jpg
1911.719	0.747	correct	0back	Block3	0back/STIM_000.jpg
1916.283	0.84	correct	0back	Block3	0back/STIM_001.jpg
1919.652	0.562	correct	0back	Block3	0back/STIM_001.jpg
1922.705	0.922	correct	0back	Block3	0back/STIM_001.jpg
1927.241	0.749	correct	0back	Block3	0back/STIM_002.jpg
1931.65	0.869	correct	0back	Block3	0back/STIM_002.jpg
1935.824	0.922	correct	0back	Block3	0back/STIM_002.jpg
1940.285	0.938	correct	0back	Block3	0back/STIM_003.jpg
1944.381	0.57	incorrect	0back	Block3	0back/STIM_003.jpg
1948.114	0.853	correct	0back	Block3	0back/STIM_003.jpg
1952.366	0.658	correct	0back	Block3	0back/STIM_004.jpg
1955.449	0.706	correct	0back	Block3	0back/STIM_004.jpg
1959.15	0.577	correct	0back	Block3	0back/STIM_004.jpg
1963.403	0.942	correct	0back	Block3	0back/STIM_005.jpg
1967.542	0.701	correct	0back	Block3	0back/STIM_005.jpg
1971.531	0.739	correct	0back	Block3	0back/STIM_005.jpg
1975.504	0.916	correct	0back	Block3	0back/STIM_006.jpg
1979.07	0.85	correct	0back	Block3	0back/STIM_006.jpg
1982.237	0.89	correct	0back	Block3	0back/STIM_006.jpg
1985.758	0.774	correct	0back	Block3	0back/STIM_007.jpg
1988.619	0.992	correct	0back	Block3	0back/STIM_007.jpg
1993.123	0.625	correct	0back	Block3	0back/STIM_007.jpg
1997.616	0.84	correct	0back	Block3	0back/STIM_008.jpg
2000.797	0.622	correct	0back	Block3	0back/STIM_008.jpg
2004.009	0.918	correct	0back	Block3	0back/STIM_008.jpg
2007.837	0.801	correct	0back	Block3	0back/STIM_009.jpg
2011.251	0.97	correct	0back	Block3	0back/STIM_009.jpg
2014.37	0.932	correct	0back	Block3	0back/STIM_009.jpg
2017.635	0.592	correct	0back	Block3	0back/STIM_010.jpg
2020.289	0.823	correct	0back	Block3	0back/STIM_010.jpg
2024.771	0.845	correct	0back	Block3	0back/STIM_010.jpg
2027.812	0.514	correct	0back	Block3	0back/STIM_011.jpg
2031.082	0.71	correct	0back	Block3	0back/STIM_011.jpg
2033.911	0.634	correct	0back	Block3	0back/STIM_011.jpg
2036.915	0.907	correct	0back	Block3	0back/STIM_012.jpg
2040.751	0.523	correct	0back	Block3	0back/STIM_012.jpg
2043.611	0.968	correct	0back	Block3	0back/STIM_012.jpg
2047.087	0.714	correct	0back	Block3	0back/STIM_013.jpg
2050.198	0.529	correct	0back	Block3	0back/STIM_013.jpg
2053.574	0.559	correct	0back	Block3	0back/STIM_013.jpg
2056.14	0.813	correct	0back	Block3	0back/STIM_014.jpg
2060.573	0.692	correct	0back	Block3	0back/STIM_014.jpg
2063.412	0.65	correct	0back	Block3	0back/STIM_014.jpg
2066.615	0.802	correct	0back	Block3	0back/STIM_015.jpg
2070.493	0.724	correct	0back	Block3	0back/STIM_015.jpg
2074.463	0.762	correct	0back	Block3	0back/STIM_015.jpg
2077.521	0.581	correct	0back	Block3	0back/STIM_016.jpg
2081.78	0.949	correct	0back	Block3	0back/STIM_016.jpg
2084.933	0.889	correct	0back	Block3	0back/STIM_016.jpg
2089.092	0.713	correct	0back	Block3	0back/STIM_017.jpg
2092.283	0.924	correct	0back	Block3	0back/STIM_017.jpg
2095.448	0.631	correct	0back	Block3	0back/STIM_017.jpg
2099.531	0.944	correct	0back	Block3	0back/STIM_018.jpg
2104.291	0.621	correct	0back	Block3	0back/STIM_018.jpg
2108.116	0.562	correct	0back	Block3	0back/STIM_018.jpg
2111.743	0.715	correct	0back	Block3	0back/STIM_019.jpg
2116.073	0.842	correct	0back	Block3	0back/STIM_019.jpg
2120.385	0.742	correct	0back	Block3	0back/STIM_019.jpg
2123.399	0.866	correct	2back	Block4	2back/STIM_000.jpg
2126.7	1.13	correct	2back	Block4	2back/STIM_000.jpg
2130.295	0.637	correct	2back	Block4	2back/STIM_000.jpg
2133.694	1.013	correct	2back	Block4	2back/STIM_001.jpg
2137.937	1.099	correct	2back	Block4	2back/STIM_001.jpg
2142.875	0.569	correct	2back	Block4	2back/STIM_001.jpg
2146.676	1.186	correct	2back	Block4	2back/STIM_002.jpg
2151.487	0.697	correct	2back	Block4	2back/STIM_002.jpg
2155.15	0.714	correct	2back	Block4	2back/STIM_002.jpg
2158.356	0.76	correct	2back	Block4	2back/STIM_003.jpg
2162.316	0.709	correct	2back	Block4	2back/STIM_003.jpg
2165.108	0.756	correct	2back	Block4	2back/STIM_003.jpg
2168.886	0.894	correct	2back	Block4	2back/STIM_004.jpg
2173.095	0.632	correct	2back	Block4	2back/STIM_004.jpg
2175.913	0.681	correct	2back	Block4	2back/STIM_004.jpg
2180.166	0.89	correct	2back	Block4	2back/STIM_005.jpg
2184.66	1.148	correct	2back	Block4	2back/STIM_005.jpg
2188.554	0.74	correct	2back	Block4	2back/STIM_005.jpg
2193.263	0.861	correct	2back	Block4	2back/STIM_006.jpg
2196.246	0.788	correct	2back	Block4	2back/STIM_006.jpg
2200.567	1.023	correct	2back	Block4	2back/STIM_006.jpg
2204.362	0.74	correct	2back	Block4	2back/STIM_007.jpg
2207.155	0.904	correct	2back	Block4	2back/STIM_007.jpg
2210.538	1.081	correct	2back	Block4	2back/STIM_007.jpg
2215.252	0.721	correct	2back	Block4	2back/STIM_008.jpg
2218.774	0.652	correct	2back	Block4	2back/STIM_008.jpg
2222.307	0.534	correct	2back	Block4	2back/STIM_008.jpg
2225.838	0.788	correct	2back	Block4	2back/STIM_009.jpg
2230.317	0.701	correct	2back	Block4	2back/STIM_009.jpg
2234.482	1.055	correct	2back	Block4	2back/STIM_009.jpg
2237.805	0.66	correct	2back	Block4	2back/STIM_010.jpg
2241.941	1.018	correct	2back	Block4	2back/STIM_010.jpg
2245.096	0.758	incorrect	2back	Block4	2back/STIM_010.jpg
2248.275	1.175	correct	2back	Block4	2back/STIM_011.jpg
2251.787	1.012	correct	2back	Block4	2back/STIM_011.jpg
2256.293	0.858	correct	2back	Block4	2back/STIM_011.jpg
2260.279	0.757	correct	2back	Block4	2back/STIM_012.jpg
2264.177	0.671	correct	2back	Block4	2back/STIM_012.jpg
2267.108	1.194	correct	2back	Block4	2back/STIM_012.jpg
2271.575	1.104	correct	2back	Block4	2back/STIM_013.jpg
2276.41	0.781	correct	2back	Block4	2back/STIM_013.jpg
2280.14	1.192	correct	2back	Block4	2back/STIM_013.jpg
2284.704	0.618	correct	2back	Block4	2back/STIM_014.jpg
2288.375	0.53	correct	2back	Block4	2back/STIM_014.jpg
2292.779	0.525	correct	2back	Block4	2back/STIM_014.jpg
2296.318	0.598	correct	2back	Block4	2back/STIM_015.jpg
2300.797	0.832	correct	2back	Block4	2back/STIM_015.jpg
2304.927	0.936	correct	2back	Block4	2back/STIM_015.jpg
2308.714	1.137	correct	2back	Block4	2back/STIM_016.jpg
2312.344	1.012	correct	2back	Block4	2back/STIM_016.jpg
2315.856	1.219	correct	2back	Block4	2back/STIM_016.jpg
2320.888	0.93	correct	2back	Block4	2back/STIM_017.jpg
2325.161	0.559	correct	2back	Block4	2back/STIM_017.jpg
2329.16	1.152	correct	2back	Block4	2back/STIM_017.jpg
2333.405	1.074	correct	2back	Block4	2back/STIM_018.jpg
2337.114	1.141	correct	2back	Block4	2back/STIM_018.jpg
2340.832	0.775	correct	2back	Block4	2back/STIM_018.jpg
2345.059	0.655	correct	2back	Block4	2back/STIM_019.jpg
2348.015	0.839	correct	2back	Block4	2back/STIM_019.jpg
2352.393	0.922	correct	2back	Block4	2back/STIM_019.jpg
2356.556	0.957	correct	2back	Block4	2back/STIM_020.jpg
2360.512	1.031	correct	2back	Block4	2back/STIM_020.jpg
2364.182	1.025	correct	2back	Block4	2back/STIM_020.jpg
2367.39	0.816	correct	2back	Block4	2back/STIM_021.jpg
2371.819	0.997	correct	2back	Block4	2back/STIM_021.jpg
2375.02	0.808	correct	2back	Block4	2back/STIM_021.jpg
2378.016	0.731	correct	2back	Block4	2back/STIM_022.jpg
2382.445	0.791	correct	2back	Block4	2back/STIM_022.jpg
2386.666	0.993	correct	2back	Block4	2back/STIM_022.jpg
2389.727	0.789	correct	2back	Block4	2back/STIM_023.jpg
2393.275	0.934	correct	2back	Block4	2back/STIM_023.jpg
2397.144	1.005	correct	2back	Block4	2back/STIM_023.jpg
2401.385	0.99	correct	2back	Block4	2back/STIM_024.jpg
2405.733	0.906	correct	2back	Block4	2back/STIM_024.jpg
2409.559	1.013	correct	2back	Block4	2back/STIM_024.jpg
2412.834	0.601	correct	2back	Block4	2back/STIM_025.jpg
2415.553	0.782	correct	2back	Block4	2back/STIM_025.jpg
2418.617	0.673	correct	2back	Block4	2back/STIM_025.jpg
2421.426	1.034	correct	2back	Block4	2back/STIM_026.jpg
2425.837	0.526	correct	2back	Block4	2back/STIM_026.jpg
2429.923	0.927	correct	2back	Block4	2back/STIM_026.jpg
2433.452	1.001	correct	2back	Block4	2back/STIM_027.jpg
2437.295	0.833	correct	2back	Block4	2back/STIM_027.jpg
2440.762	0.907	correct	2back	Block4	2back/STIM_027.jpg
2445.36	1.088	correct	2back	Block4	2back/STIM_028.jpg
2449.372	1.218	correct	2back	Block4	2back/STIM_028.jpg
2452.662	0.792	correct	2back	Block4	2back/STIM_028.jpg
2456.147	0.907	correct	2back	Block4	2back/STIM_029.jpg
2459.728	0.61	correct	2back	Block4	2back/STIM_029.jpg
2463.188	0.817	correct	2back	Block4	2back/STIM_029.jpg
2466.578	1.048	correct	2back	Block4	2back/STIM_030.jpg
2469.659	0.604	correct	2back	Block4	2back/STIM_030.jpg
2473.573	0.76	correct	2back	Block4	2back/STIM_030.jpg
2477.661	1.069	correct	2back	Block4	2back/STIM_031.jpg
2481.141	0.709	correct	2back	Block4	2back/STIM_031.jpg
2485.072	0.603	correct	2back	Block4	2back/STIM_031.jpg
2487.987	1.131	correct	2back	Block4	2back/STIM_032.jpg
2492.411	0.631	correct	2back	Block4	2back/STIM_032.jpg
2495.966	0.979	correct	2back	Block4	2back/STIM_032.jpg
2500.914	1.002	correct	2back	Block4	2back/STIM_033.jpg
2505.75	0.651	correct	2back	Block4	2back/STIM_033.jpg
2508.691	0.831	correct	2back	Block4	2back/STIM_033.jpg
2512.216	0.722	correct	2back	Block4	2back/STIM_034.jpg
2515.243	0.53	correct	2back	Block4	2back/STIM_034.jpg
2519.658	1.22	correct	2back	Block4	2back/STIM_034.jpg
2523.542	0.551	correct	2back	Block4	2back/STIM_035.jpg
2528.025	0.646	correct	2back	Block4	2back/STIM_035.jpg
2530.966	0.702	correct	2back	Block4	2back/STIM_035.jpg
2534.424	0.542	correct	2back	Block4	2back/STIM_036.jpg
2538.139	0.901	correct	2back	Block4	2back/STIM_036.jpg
2541.63	0.675	correct	2back	Block4	2back/STIM_036.jpg
2545.734	1.184	correct	2back	Block4	2back/STIM_037.jpg
2550.431	0.793	correct	2back	Block4	2back/STIM_037.jpg
2554.896	0.857	correct	2back	Block4	2back/STIM_037.jpg
2559.279	0.868	correct	2back	Block4	2back/STIM_038.jpg
2563.899	0.536	correct	2back	Block4	2back/STIM_038.jpg
2566.674	1.039	correct	2back	Block4	2back/STIM_038.jpg
2571.058	0.719	correct	2back	Block4	2back/STIM_039.jpg
2575.394	0.74	correct	2back	Block4	2back/STIM_039.jpg
2579.572	0.686	correct	2back	Block4	2back/STIM_039.jpg
2584.159	0.575	correct	0back	Block4	0back/STIM_000.jpg
2587.832	0.693	correct	0back	Block4	0back/STIM_000.jpg
2591.972	0.988	correct	0back	Block4	0back/STIM_000.jpg
2595.095	0.682	correct	0back	Block4	0back/STIM_001.jpg
2598.77	0.852	correct	0back	Block4	0back/STIM_001.jpg
2602.618	0.753	correct	0back	Block4	0back/STIM_001.jpg
2606.061	0.891	correct	0back	Block4	0back/STIM_002.jpg
2609.356	0.59	correct	0back	Block4	0back/STIM_002.jpg
2613.25	0.639	correct	0back	Block4	0back/STIM_002.jpg
2616.226	0.535	correct	0back	Block4	0back/STIM_003.jpg
2619.741	0.832	correct	0back	Block4	0back/STIM_003.jpg
2623.866	0.854	correct	0back	Block4	0back/STIM_003.jpg
2627.154	0.654	correct	0back	Block4	0back/STIM_004.jpg
2631.184	0.544	correct	0back	Block4	0back/STIM_004.jpg
2635.16	0.878	correct	0back	Block4	0back/STIM_004.jpg
2638.632	0.937	correct	0back	Block4	0back/STIM_005.jpg
2641.808	0.578	correct	0back	Block4	0back/STIM_005.jpg
2644.981	0.561	correct	0back	Block4	0back/STIM_005.jpg
2647.687	0.651	correct	0back	Block4	0back/STIM_006.jpg
2651.201	0.932	correct	0back	Block4	0back/STIM_006.jpg
2654.803	0.946	correct	0back	Block4	0back/STIM_006.jpg
2658.156	0.754	correct	0back	Block4	0back/STIM_007.jpg
2661.812	0.754	correct	0back	Block4	0back/STIM_007.jpg
2666.541	0.565	correct	0back	Block4	0back/STIM_007.jpg
2669.116	0.707	correct	0back	Block4	0back/STIM_008.jpg
2671.998	0.78	correct	0back	Block4	0back/STIM_008.jpg
2676.302	0.871	correct	0back	Block4	0back/STIM_008.jpg
2680.996	0.864	correct	0back	Block4	0back/STIM_009.jpg
2685.365	0.734	correct	0back	Block4	0back/STIM_009.jpg
2688.323	0.97	correct	0back	Block4	0back/STIM_009.jpg
2692.139	0.65	correct	0back	Block4	0back/STIM_010.jpg
2694.876	0.631	correct	0back	Block4	0back/STIM_010.jpg
2698.981	0.714	correct	0back	Block4	0back/STIM_010.jpg
2702.51	0.866	correct	0back	Block4	0back/STIM_011.jpg
2706.42	0.756	correct	0back	Block4	0back/STIM_011.jpg
2709.713	0.816	correct	0back	Block4	0back/STIM_011.jpg
2714.513	0.534	correct	0back	Block4	0back/STIM_012.jpg
2717.69	0.584	correct	0back	Block4	0back/STIM_012.jpg
2720.327	0.635	correct	0back	Block4	0back/STIM_012.jpg
2723.962	0.747	correct	0back	Block4	0back/STIM_013.jpg
2728.529	0.846	correct	0back	Block4	0back/STIM_013.jpg
2732.132	0.811	correct	0back	Block4	0back/STIM_013.jpg
2736.038	0.623	correct	0back	Block4	0back/STIM_014.jpg
2738.884	0.824	correct	0back	Block4	0back/STIM_014.jpg
2743.103	0.846	correct	0back	Block4	0back/STIM_014.jpg
2746.951	0.862	correct	0back	Block4	0back/STIM_015.jpg
2751.305	0.796	correct	0back	Block4	0back/STIM_015.jpg
2754.494	0.614	correct	0back	Block4	0back/STIM_015.jpg
2757.477	0.754	correct	0back	Block4	0back/STIM_016.jpg
2760.773	0.831	correct	0back	Block4	0back/STIM_016.jpg
2763.705	0.564	correct	0back	Block4	0back/STIM_016.jpg
2766.313	0.758	correct	0back	Block4	0back/STIM_017.jpg
2769.412	0.759	correct	0back	Block4	0back/STIM_017.jpg
2772.74	0.685	correct	0back	Block4	0back/STIM_017.jpg
2777.16	0.834	correct	0back	Block4	0back/STIM_018.jpg
2780.593	0.702	correct	0back	Block4	0back/STIM_018.jpg
2784.093	0.725	correct	0back	Block4	0back/STIM_018.jpg
2788.149	0.568	correct	0back	Block4	0back/STIM_019.jpg
2791.746	0.533	correct	0back	Block4	0back/STIM_019.jpg
2795.414	0.74	correct	0back	Block4	0back/STIM_019.jpg
