onset	duration	response_time_ms	trial_type	learning_stage	stimulus	response_port
0.0	1.696	1695.8	2back	Block1	2back/STIM_000.jpg	99
4.6	0.74	739.6	2back	Block1	2back/STIM_000.jpg	100
8.433	1.271	1271.0	2back	Block1	2back/STIM_000.jpg	99
12.65	1.232	1231.9	2back	Block1	2back/STIM_001.jpg	100
17.817	1.206	1206.0	2back	Block1	2back/STIM_001.jpg	100
22.815	1.554	1553.8	2back	Block1	2back/STIM_001.jpg	99
28.08	0.879	878.9	2back	Block1	2back/STIM_002.jpg	100
31.296	1.353	1352.8	2back	Block1	2back/STIM_002.jpg	99
35.709	1.522	1522.3	2back	Block1	2back/STIM_002.jpg	100
41.224	1.133	1133.3	2back	Block1	2back/STIM_003.jpg	100
44.667	0.714	714.0	2back	Block1	2back/STIM_003.jpg	100
47.99	1.156	1156.3	2back	Block1	2back/STIM_003.jpg	100
52.603	1.215	1215.1	2back	Block1	2back/STIM_004.jpg	100
55.826	1.475	1474.6	2back	Block1	2back/STIM_004.jpg	99
60.544	0.905	905.4	2back	Block1	2back/STIM_004.jpg	100
64.298	1.164	1164.4	2back	Block1	2back/STIM_005.jpg	99
67.764	0.922	921.5	2back	Block1	2back/STIM_005.jpg	100
72.66	0.854	854.5	2back	Block1	2back/STIM_005.jpg	100
75.648	1.452	1451.6	2back	Block1	2back/STIM_006.jpg	99
80.702	1.608	1608.4	2back	Block1	2back/STIM_006.jpg	99
85.08	1.22	1220.5	2back	Block1	2back/STIM_006.jpg	99
88.43	0.9	899.7	2back	Block1	2back/STIM_007.jpg	99
92.255	1.349	1348.9	2back	Block1	2back/STIM_007.jpg	99
97.345	1.219	1218.9	2back	Block1	2back/STIM_007.jpg	100
101.786	0.988	988.5	2back	Block1	2back/STIM_008.jpg	99
104.936	1.187	1187.2	2back	Block1	2back/STIM_008.jpg	99
109.298	0.912	912.5	2back	Block1	2back/STIM_008.jpg	99
113.298	1.616	1615.5	2back	Block1	2back/STIM_009.jpg	100
117.806	1.134	1133.7	2back	Block1	2back/STIM_009.jpg	99
121.234	1.054	1053.9	2back	Block1	2back/STIM_009.jpg	100
125.448	0.828	828.5	2back	Block1	2back/STIM_010.jpg	100
128.69	1.49	1489.9	2back	Block1	2back/STIM_010.jpg	99
133.353	1.056	1055.5	2back	Block1	2back/STIM_010.jpg	99
137.681	0.847	846.9	2back	Block1	2back/STIM_011.jpg	99
142.454	1.357	1356.7	2back	Block1	2back/STIM_011.jpg	100
145.861	0.809	809.4	2back	Block1	2back/STIM_011.jpg	100
150.556	0.852	852.1	2back	Block1	2back/STIM_012.jpg	100
154.978	1.288	1288.1	2back	Block1	2back/STIM_012.jpg	100
160.08	1.444	1443.8	2back	Block1	2back/STIM_012.jpg	100
163.642	1.205	1205.0	2back	Block1	2back/STIM_013.jpg	99
167.022	1.383	1383.2	2back	Block1	2back/STIM_013.jpg	100
171.927	0.824	824.5	2back	Block1	2back/STIM_013.jpg	100
176.013	1.084	1084.0	2back	Block1	2back/STIM_014.jpg	99
179.294	0.755	754.8	2back	Block1	2back/STIM_014.jpg	99
183.361	1.511	1511.2	2back	Block1	2back/STIM_014.jpg	99
188.619	1.622	1622.3	2back	Block1	2back/STIM_015.jpg	100
193.868	0.866	866.4	2back	Block1	2back/STIM_015.jpg	100
198.731	0.79	789.5	2back	Block1	2back/STIM_015.jpg	100
202.911	1.304	1304.3	2back	Block1	2back/STIM_016.jpg	99
206.886	1.404	1403.7	2back	Block1	2back/STIM_016.jpg	99
211.47	0.961	960.6	2back	Block1	2back/STIM_016.jpg	99
215.361	1.725	1725.4	2back	Block1	2back/STIM_017.jpg	100
219.505	0.886	886.3	2back	Block1	2back/STIM_017.jpg	100
223.17	1.343	1343.4	2back	Block1	2back/STIM_017.jpg	99
228.211	1.646	1646.4	2back	Block1	2back/STIM_018.jpg	99
233.587	1.072	1071.8	2back	Block1	2back/STIM_018.jpg	99
237.376	1.211	1210.7	2back	Block1	2back/STIM_018.jpg	100
241.474	1.409	1409.2	2back	Block1	2back/STIM_019.jpg	100
245.903	1.191	1191.1	2back	Block1	2back/STIM_019.jpg	100
249.25	1.084	1083.7	2back	Block1	2back/STIM_019.jpg	100
252.979	1.548	1547.8	2back	Block1	2back/STIM_020.jpg	99
258.427	0.976	976.1	2back	Block1	2back/STIM_020.jpg	99
263.05	1.219	1218.7	2back	Block1	2back/STIM_020.jpg	100
266.626	1.546	1545.7	2back	Block1	2back/STIM_021.jpg	100
271.621	1.228	1228.2	2back	Block1	2back/STIM_021.jpg	100
275.901	1.335	1335.3	2back	Block1	2back/STIM_021.jpg	99
279.43	1.158	1158.0	2back	Block1	2back/STIM_022.jpg	100
283.947	0.763	763.2	2back	Block1	2back/STIM_022.jpg	100
287.353	1.249	1249.4	2back	Block1	2back/STIM_022.jpg	99
291.814	1.548	1548.5	2back	Block1	2back/STIM_023.jpg	100
296.65	0.724	723.7	2back	Block1	2back/STIM_023.jpg	99
299.694	1.187	1186.7	2back	Block1	2back/STIM_023.jpg	99
304.329	1.064	1064.3	2back	Block1	2back/STIM_024.jpg	100
308.458	1.095	1095.4	2back	Block1	2back/STIM_024.jpg	99
312.7	0.789	789.0	2back	Block1	2back/STIM_024.jpg	99
315.961	1.283	1283.1	2back	Block1	2back/STIM_025.jpg	100
320.977	1.584	1584.3	2back	Block1	2back/STIM_025.jpg	100
325.81	1.161	1161.4	2back	Block1	2back/STIM_025.jpg	99
329.733	1.575	1575.0	2back	Block1	2back/STIM_026.jpg	100
334.998	1.314	1314.3	2back	Block1	2back/STIM_026.jpg	99
339.324	0.838	837.6	2back	Block1	2back/STIM_026.jpg	99
342.973	0.982	981.5	2back	Block1	2back/STIM_027.jpg	100
347.787	1.139	1139.2	2back	Block1	2back/STIM_027.jpg	100
352.387	0.786	785.9	2back	Block1	2back/STIM_027.jpg	99
356.148	0.78	780.4	2back	Block1	2back/STIM_028.jpg	100
359.847	0.845	845.2	2back	Block1	2back/STIM_028.jpg	99
364.551	0.952	952.0	2back	Block1	2back/STIM_028.jpg	100
368.498	1.683	1682.6	2back	Block1	2back/STIM_029.jpg	100
372.368	0.886	885.5	2back	Block1	2back/STIM_029.jpg	99
377.082	1.242	1242.5	2back	Block1	2back/STIM_029.jpg	99
380.392	1.095	1095.0	2back	Block1	2back/STIM_030.jpg	100
383.721	1.632	1631.9	2back	Block1	2back/STIM_030.jpg	100
389.313	0.689	689.0	2back	Block1	2back/STIM_030.jpg	100
393.771	1.138	1137.8	2back	Block1	2back/STIM_031.jpg	99
397.302	1.593	1593.2	2back	Block1	2back/STIM_031.jpg	99
401.775	1.471	1470.6	2back	Block1	2back/STIM_031.jpg	100
406.247	1.504	1504.1	2back	Block1	2back/STIM_032.jpg	99
411.507	1.653	1653.0	2back	Block1	2back/STIM_032.jpg	99
415.828	1.183	1182.8	2back	Block1	2back/STIM_032.jpg	99
419.712	1.047	1046.9	2back	Block1	2back/STIM_033.jpg	99
423.023	1.332	1332.5	2back	Block1	2back/STIM_033.jpg	100
428.208	1.258	1258.3	2back	Block1	2back/STIM_033.jpg	100
432.073	1.462	1462.0	2back	Block1	2back/STIM_034.jpg	100
436.473	0.782	782.1	2back	Block1	2back/STIM_034.jpg	100
440.147	0.98	979.5	2back	Block1	2back/STIM_034.jpg	100
444.453	0.899	899.3	2back	Block1	2back/STIM_035.jpg	99
448.279	0.989	989.2	2back	Block1	2back/STIM_035.jpg	100
451.707	1.556	1555.9	2back	Block1	2back/STIM_035.jpg	100
455.982	1.17	1170.3	2back	Block1	2back/STIM_036.jpg	99
459.492	1.486	1485.8	2back	Block1	2back/STIM_036.jpg	99
463.591	1.318	1317.8	2back	Block1	2back/STIM_036.jpg	100
468.648	1.573	1573.3	2back	Block1	2back/STIM_037.jpg	99
472.638	1.337	1337.2	2back	Block1	2back/STIM_037.jpg	100
477.51	0.76	760.1	2back	Block1	2back/STIM_037.jpg	99
481.579	1.369	1368.6	2back	Block1	2back/STIM_038.jpg	99
485.546	1.297	1297.3	2back	Block1	2back/STIM_038.jpg	100
489.036	1.192	1192.5	2back	Block1	2back/STIM_038.jpg	99
492.296	0.796	796.2	2back	Block1	2back/STIM_039.jpg	100
496.183	1.292	1292.0	2back	Block1	2back/STIM_039.jpg	100
499.503	1.377	1376.6	2back	Block1	2back/STIM_039.jpg	99
503.275	0.612	611.8	0back	Block1	0back/STIM_000.jpg	100
506.663	0.734	734.2	0back	Block1	0back/STIM_000.jpg	99
510.491	0.577	576.6	0back	Block1	0back/STIM_000.jpg	100
513.412	0.933	932.9	0back	Block1	0back/STIM_001.jpg	100
517.857	0.741	741.2	0back	Block1	0back/STIM_001.jpg	100
521.652	0.859	858.7	0back	Block1	0back/STIM_001.jpg	100
524.835	0.778	778.0	0back	Block1	0back/STIM_002.jpg	99
528.605	0.899	899.4	0back	Block1	0back/STIM_002.jpg	100
532.074	0.543	543.4	0back	Block1	0back/STIM_002.jpg	99
536.034	0.524	524.5	0back	Block1	0back/STIM_003.jpg	99
539.442	0.742	741.9	0back	Block1	0back/STIM_003.jpg	100
543.194	0.934	933.8	0back	Block1	0back/STIM_003.jpg	100
546.485	0.655	654.7	0back	Block1	0back/STIM_004.jpg	99
550.948	0.581	580.9	0back	Block1	0back/STIM_004.jpg	100
554.986	0.557	556.7	0back	Block1	0back/STIM_004.jpg	100
558.529	0.585	584.7	0back	Block1	0back/STIM_005.jpg	99
562.957	0.642	642.0	0back	Block1	0back/STIM_005.jpg	99
566.791	0.648	648.2	0back	Block1	0back/STIM_005.jpg	99
570.283	0.682	682.4	0back	Block1	0back/STIM_006.jpg	100
573.334	0.524	524.2	0back	Block1	0back/STIM_006.jpg	99
576.724	0.519	518.6	0back	Block1	0back/STIM_006.jpg	99
579.459	0.755	754.7	0back	Block1	0back/STIM_007.jpg	100
583.101	0.95	950.0	0back	Block1	0back/STIM_007.jpg	99
587.951	0.757	757.4	0back	Block1	0back/STIM_007.jpg	99
591.389	0.809	808.7	0back	Block1	0back/STIM_008.jpg	100
594.851	0.567	567.3	0back	Block1	0back/STIM_008.jpg	100
598.006	0.78	780.3	0back	Block1	0back/STIM_008.jpg	100
600.904	0.603	603.1	0back	Block1	0back/STIM_009.jpg	99
605.193	0.742	741.5	0back	Block1	0back/STIM_009.jpg	99
608.557	0.698	697.9	0back	Block1	0back/STIM_009.jpg	99
612.784	0.919	919.3	0back	Block1	0back/STIM_010.jpg	99
616.524	0.754	754.1	0back	Block1	0back/STIM_010.jpg	100
621.264	0.822	822.1	0back	Block1	0back/STIM_010.jpg	100
625.337	0.811	810.9	0back	Block1	0back/STIM_011.jpg	100
629.407	0.818	817.7	0back	Block1	0back/STIM_011.jpg	100
632.72	0.727	727.1	0back	Block1	0back/STIM_011.jpg	99
636.183	0.651	651.4	0back	Block1	0back/STIM_012.jpg	100
638.985	0.941	941.2	0back	Block1	0back/STIM_012.jpg	99
643.181	0.509	508.6	0back	Block1	0back/STIM_012.jpg	100
646.911	0.723	722.7	0back	Block1	0back/STIM_013.jpg	100
649.721	0.774	773.9	0back	Block1	0back/STIM_013.jpg	99
654.194	0.591	590.9	0back	Block1	0back/STIM_013.jpg	99
658.632	0.653	652.8	0back	Block1	0back/STIM_014.jpg	99
661.779	0.771	771.3	0back	Block1	0back/STIM_014.jpg	99
666.473	0.625	624.8	0back	Block1	0back/STIM_014.jpg	99
671.063	0.977	977.2	0back	Block1	0back/STIM_015.jpg	99
676.038	0.716	716.2	0back	Block1	0back/STIM_015.jpg	100
679.268	0.694	694.4	0back	Block1	0back/STIM_015.jpg	99
682.312	0.758	758.3	0back	Block1	0back/STIM_016.jpg	100
686.641	0.566	566.5	0back	Block1	0back/STIM_016.jpg	99
689.545	0.753	752.6	0back	Block1	0back/STIM_016.jpg	99
693.985	0.611	610.6	0back	Block1	0back/STIM_017.jpg	100
697.491	0.563	562.8	0back	Block1	0back/STIM_017.jpg	100
700.552	0.608	608.5	0back	Block1	0back/STIM_017.jpg	99
703.191	0.516	515.7	0back	Block1	0back/STIM_018.jpg	99
707.666	0.863	862.6	0back	Block1	0back/STIM_018.jpg	99
711.489	0.86	859.9	0back	Block1	0back/STIM_018.jpg	100
715.235	0.593	593.4	0back	Block1	0back/STIM_019.jpg	99
718.262	0.645	644.7	0back	Block1	0back/STIM_019.jpg	99
721.247	0.677	676.7	0back	Block1	0back/STIM_019.jpg	100
724.962	1.117	1116.7	2back	Block2	2back/STIM_000.jpg	99
728.57	1.04	1039.9	2back	Block2	2back/STIM_000.jpg	99
732.997	1.296	1296.0	2back	Block2	2back/STIM_000.jpg	99
736.678	1.231	1231.1	2back	Block2	2back/STIM_001.jpg	100
740.07	1.369	1368.7	2back	Block2	2back/STIM_001.jpg	99
743.9	1.059	1059.4	2back	Block2	2back/STIM_001.jpg	99
748.873	0.716	715.7	2back	Block2	2back/STIM_002.jpg	99
752.023	1.39	1390.0	2back	Block2	2back/STIM_002.jpg	99
757.051	1.27	1270.5	2back	Block2	2back/STIM_002.jpg	99
761.992	1.062	1062.5	2back	Block2	2back/STIM_003.jpg	100
765.713	0.601	601.4	2back	Block2	2back/STIM_003.jpg	99
769.92	0.564	564.4	2back	Block2	2back/STIM_003.jpg	100
774.167	0.954	954.4	2back	Block2	2back/STIM_004.jpg	100
779.104	0.779	779.3	2back	Block2	2back/STIM_004.jpg	99
782.476	0.798	797.6	2back	Block2	2back/STIM_004.jpg	99
785.875	0.917	916.9	2back	Block2	2back/STIM_005.jpg	100
790.618	1.31	1310.1	2back	Block2	2back/STIM_005.jpg	100
795.21	0.759	759.2	2back	Block2	2back/STIM_005.jpg	100
799.028	0.734	733.9	2back	Block2	2back/STIM_006.jpg	100
801.996	1.18	1179.9	2back	Block2	2back/STIM_006.jpg	100
805.832	1.285	1285.2	2back	Block2	2back/STIM_006.jpg	100
810.14	1.262	1261.9	2back	Block2	2back/STIM_007.jpg	99
814.517	1.221	1220.7	2back	Block2	2back/STIM_007.jpg	99
818.245	1.065	1064.7	2back	Block2	2back/STIM_007.jpg	99
821.9	1.35	1350.4	2back	Block2	2back/STIM_008.jpg	100
826.814	0.718	718.0	2back	Block2	2back/STIM_008.jpg	99
830.745	1.106	1106.2	2back	Block2	2back/STIM_008.jpg	100
834.919	0.934	933.5	2back	Block2	2back/STIM_009.jpg	100
839.152	1.343	1342.9	2back	Block2	2back/STIM_009.jpg	99
843.052	0.892	892.5	2back	Block2	2back/STIM_009.jpg	100
846.616	1.174	1174.2	2back	Block2	2back/STIM_010.jpg	99
851.699	1.317	1316.7	2back	Block2	2back/STIM_010.jpg	100
855.306	1.158	1158.5	2back	Block2	2back/STIM_010.jpg	100
859.929	0.67	670.5	2back	Block2	2back/STIM_011.jpg	100
864.087	1.092	1092.5	2back	Block2	2back/STIM_011.jpg	99
867.946	0.793	792.8	2back	Block2	2back/STIM_011.jpg	99
871.918	1.31	1309.6	2back	Block2	2back/STIM_012.jpg	100
875.659	0.982	982.1	2back	Block2	2back/STIM_012.jpg	100
879.852	0.701	700.6	2back	Block2	2back/STIM_012.jpg	99
883.185	0.993	993.0	2back	Block2	2back/STIM_013.jpg	100
887.102	1.321	1321.0	2back	Block2	2back/STIM_013.jpg	100
892.106	0.955	955.4	2back	Block2	2back/STIM_013.jpg	99
895.691	1.428	1427.9	2back	Block2	2back/STIM_014.jpg	99
900.013	1.216	1216.4	2back	Block2	2back/STIM_014.jpg	99
903.701	0.84	840.2	2back	Block2	2back/STIM_014.jpg	99
907.9	0.792	792.0	2back	Block2	2back/STIM_015.jpg	99
911.721	1.269	1268.7	2back	Block2	2back/STIM_015.jpg	100
915.828	1.118	1117.6	2back	Block2	2back/STIM_015.jpg	99
920.607	0.712	712.0	2back	Block2	2back/STIM_016.jpg	99
923.728	0.664	664.4	2back	Block2	2back/STIM_016.jpg	100
928.299	1.009	1009.4	2back	Block2	2back/STIM_016.jpg	99
931.338	0.888	887.6	2back	Block2	2back/STIM_017.jpg	100
935.201	0.94	939.9	2back	Block2	2back/STIM_017.jpg	100
939.687	1.244	1244.3	2back	Block2	2back/STIM_017.jpg	100
943.006	1.337	1336.8	2back	Block2	2back/STIM_018.jpg	100
948.229	0.976	975.7	2back	Block2	2back/STIM_018.jpg	99
953.121	1.044	1043.8	2back	Block2	2back/STIM_018.jpg	99
957.195	1.322	1321.7	2back	Block2	2back/STIM_019.jpg	100
961.749	0.76	760.0	2back	Block2	2back/STIM_019.jpg	99
966.157	0.826	826.3	2back	Block2	2back/STIM_019.jpg	99
969.081	1.104	1104.4	2back	Block2	2back/STIM_020.jpg	99
973.029	0.779	778.7	2back	Block2	2back/STIM_020.jpg	99
976.96	1.01	1009.5	2back	Block2	2back/STIM_020.jpg	100
980.142	1.371	1370.9	2back	Block2	2back/STIM_021.jpg	99
984.826	1.049	1048.9	2back	Block2	2back/STIM_021.jpg	99
989.854	0.753	753.4	2back	Block2	2back/STIM_021.jpg	99
993.113	1.231	1230.7	2back	Block2	2back/STIM_022.jpg	100
997.756	0.799	798.7	2back	Block2	2back/STIM_022.jpg	99
1002.149	0.706	705.5	2back	Block2	2back/STIM_022.jpg	99
1006.209	1.192	1191.7	2back	Block2	2back/STIM_023.jpg	99
1010.531	0.725	724.6	2back	Block2	2back/STIM_023.jpg	99
1014.747	1.18	1180.2	2back	Block2	2back/STIM_023.jpg	99
1018.161	0.991	991.3	2back	Block2	2back/STIM_024.jpg	100
1021.301	1.019	1018.9	2back	Block2	2back/STIM_024.jpg	99
1024.782	1.17	1170.5	2back	Block2	2back/STIM_024.jpg	100
1028.034	1.012	1011.5	2back	Block2	2back/STIM_025.jpg	99
1032.822	0.724	724.1	2back	Block2	2back/STIM_025.jpg	100
1037.413	1.24	1239.6	2back	Block2	2back/STIM_025.jpg	99
1041.188	0.693	693.2	2back	Block2	2back/STIM_026.jpg	99
1044.729	0.94	940.3	2back	Block2	2back/STIM_026.jpg	99
1049.328	0.687	686.9	2back	Block2	2back/STIM_026.jpg	99
1052.849	0.66	659.5	2back	Block2	2back/STIM_027.jpg	99
1056.625	1.012	1012.0	2back	Block2	2back/STIM_027.jpg	100
1060.976	1.236	1235.6	2back	Block2	2back/STIM_027.jpg	99
1064.236	0.873	873.2	2back	Block2	2back/STIM_028.jpg	99
1067.825	1.372	1371.8	2back	Block2	2back/STIM_028.jpg	99
1073.195	0.731	730.6	2back	Block2	2back/STIM_028.jpg	99
1076.465	0.814	814.4	2back	Block2	2back/STIM_029.jpg	100
1080.095	1.214	1214.5	2back	Block2	2back/STIM_029.jpg	99
1083.697	0.857	857.0	2back	Block2	2back/STIM_029.jpg	99
1088.289	1.081	1080.6	2back	Block2	2back/STIM_030.jpg	99
1093.361	1.07	1070.1	2back	Block2	2back/STIM_030.jpg	99
1097.561	1.211	1211.3	2back	Block2	2back/STIM_030.jpg	99
1100.907	1.134	1133.6	2back	Block2	2back/STIM_031.jpg	100
1105.59	0.867	866.9	2back	Block2	2back/STIM_031.jpg	99
1109.698	0.859	858.8	2back	Block2	2back/STIM_031.jpg	100
1112.773	1.137	1137.2	2back	Block2	2back/STIM_032.jpg	100
1117.2	1.194	1193.7	2back	Block2	2back/STIM_032.jpg	100
1121.864	0.947	947.0	2back	Block2	2back/STIM_032.jpg	99
1126.522	1.227	1227.2	2back	Block2	2back/STIM_033.jpg	100
1130.591	0.711	710.7	2back	Block2	2back/STIM_033.jpg	100
1133.494	0.755	755.3	2back	Block2	2back/STIM_033.jpg	100
1136.909	0.995	994.6	2back	Block2	2back/STIM_034.jpg	99
1141.583	0.666	665.9	2back	Block2	2back/STIM_034.jpg	100
1146.235	0.769	768.7	2back	Block2	2back/STIM_034.jpg	99
1150.731	1.299	1299.4	2back	Block2	2back/STIM_035.jpg	99
1154.515	0.923	922.9	2back	Block2	2back/STIM_035.jpg	99
1159.083	0.819	819.1	2back	Block2	2back/STIM_035.jpg	99
1162.567	0.841	841.2	2back	Block2	2back/STIM_036.jpg	100
1166.484	0.897	896.8	2back	Block2	2back/STIM_036.jpg	99
1169.48	1.044	1043.5	2back	Block2	2back/STIM_036.jpg	100
1172.689	1.315	1314.6	2back	Block2	2back/STIM_037.jpg	100
1177.861	1.286	1286.5	2back	Block2	2back/STIM_037.jpg	100
1182.584	0.781	780.7	2back	Block2	2back/STIM_037.jpg	99
1185.764	0.787	786.9	2back	Block2	2back/STIM_038.jpg	100
1189.173	0.768	767.5	2back	Block2	2back/STIM_038.jpg	100
1192.222	0.679	678.8	2back	Block2	2back/STIM_038.jpg	100
1195.36	0.794	794.3	2back	Block2	2back/STIM_039.jpg	100
1199.389	0.692	691.5	2back	Block2	2back/STIM_039.jpg	99
1204.063	0.909	908.7	2back	Block2	2back/STIM_039.jpg	100
1208.221	0.97	970.3	0back	Block2	0back/STIM_000.jpg	99
1211.929	0.668	667.9	0back	Block2	0back/STIM_000.jpg	100
1214.827	0.994	994.3	0back	Block2	0back/STIM_000.jpg	99
1219.177	0.56	560.5	0back	Block2	0back/STIM_001.jpg	99
1222.632	0.866	866.3	0back	Block2	0back/STIM_001.jpg	100
1226.326	0.877	877.0	0back	Block2	0back/STIM_001.jpg	100
1230.837	0.767	766.7	0back	Block2	0back/STIM_002.jpg	100
1235.315	0.757	756.8	0back	Block2	0back/STIM_002.jpg	99
1238.51	0.547	546.7	0back	Block2	0back/STIM_002.jpg	100
1241.608	0.89	890.4	0back	Block2	0back/STIM_003.jpg	100
1245.52	0.965	965.3	0back	Block2	0back/STIM_003.jpg	99
1249.069	0.895	895.4	0back	Block2	0back/STIM_003.jpg	100
1252.616	0.813	812.8	0back	Block2	0back/STIM_004.jpg	100
1257.245	0.566	565.6	0back	Block2	0back/STIM_004.jpg	99
1261.632	0.796	795.9	0back	Block2	0back/STIM_004.jpg	100
1265.698	0.521	521.2	0back	Block2	0back/STIM_005.jpg	100
1270.216	0.921	920.6	0back	Block2	0back/STIM_005.jpg	100
1274.92	0.822	822.1	0back	Block2	0back/STIM_005.jpg	100
1278.065	0.812	811.8	0back	Block2	0back/STIM_006.jpg	100
1281.096	0.577	577.4	0back	Block2	0back/STIM_006.jpg	99
1285.232	0.519	519.1	0back	Block2	0back/STIM_006.jpg	100
1288.727	0.806	806.0	0back	Block2	0back/STIM_007.jpg	100
1292.326	0.574	574.0	0back	Block2	0back/STIM_007.jpg	100
1296.862	0.77	769.8	0back	Block2	0back/STIM_007.jpg	100
1299.834	0.926	926.1	0back	Block2	0back/STIM_008.jpg	100
1303.407	0.645	645.4	0back	Block2	0back/STIM_008.jpg	99
1307.783	0.935	935.1	0back	Block2	0back/STIM_008.jpg	100
1312.177	0.539	539.4	0back	Block2	0back/STIM_009.jpg	99
1316.166	0.87	870.2	0back	Block2	0back/STIM_009.jpg	99
1320.976	0.681	681.1	0back	Block2	0back/STIM_009.jpg	100
1325.61	0.981	981.4	0back	Block2	0back/STIM_010.jpg	99
1330.274	0.575	574.8	0back	Block2	0back/STIM_010.jpg	100
1333.507	0.942	942.3	0back	Block2	0back/STIM_010.jpg	99
1337.949	0.53	530.3	0back	Block2	0back/STIM_011.jpg	100
1340.611	0.731	731.3	0back	Block2	0back/STIM_011.jpg	100
1344.995	0.526	525.7	0back	Block2	0back/STIM_011.jpg	99
1348.585	0.796	796.4	0back	Block2	0back/STIM_012.jpg	99
1351.47	0.778	777.7	0back	Block2	0back/STIM_012.jpg	100
1354.797	0.97	970.4	0back	Block2	0back/STIM_012.jpg	100
1358.32	0.843	843.0	0back	Block2	0back/STIM_013.jpg	99
1362.011	0.864	864.0	0back	Block2	0back/STIM_013.jpg	100
1365.04	0.773	773.1	0back	Block2	0back/STIM_013.jpg	100
1368.011	0.801	801.2	0back	Block2	0back/STIM_014.jpg	100
1372.359	0.781	781.4	0back	Block2	0back/STIM_014.jpg	100
1376.764	0.881	880.7	0back	Block2	0back/STIM_014.jpg	99
1380.376	0.985	985.0	0back	Block2	0back/STIM_015.jpg	99
1384.503	0.575	575.1	0back	Block2	0back/STIM_015.jpg	99
1388.014	0.974	973.9	0back	Block2	0back/STIM_015.jpg	99
1391.266	0.859	859.1	0back	Block2	0back/STIM_016.jpg	100
1395.703	0.93	929.7	0back	Block2	0back/STIM_016.jpg	100
1399.811	0.873	872.8	0back	Block2	0back/STIM_016.jpg	99
1403.181	0.859	859.4	0back	Block2	0back/STIM_017.jpg	99
1407.385	0.691	691.2	0back	Block2	0back/STIM_017.jpg	99
1411.742	0.939	938.9	0back	Block2	0back/STIM_017.jpg	100
1415.202	0.798	798.5	0back	Block2	0back/STIM_018.jpg	100
1418.65	0.672	671.5	0back	Block2	0back/STIM_018.jpg	99
1422.068	0.654	654.0	0back	Block2	0back/STIM_018.jpg	100
1425.464	0.912	911.5	0back	Block2	0back/STIM_019.jpg	100
1429.554	0.631	631.3	0back	Block2	0back/STIM_019.jpg	100
1433.605	0.542	542.5	0back	Block2	0back/STIM_019.jpg	100
1436.259	0.701	701.2	2back	Block3	2back/STIM_000.jpg	100
1440.503	1.093	1092.6	2back	Block3	2back/STIM_000.jpg	100
1445.583	1.121	1121.4	2back	Block3	2back/STIM_000.jpg	99
1450.476	0.687	686.9	2back	Block3	2back/STIM_001.jpg	99
1454.715	1.106	1106.2	2back	Block3	2back/STIM_001.jpg	100
1458.302	1.156	1155.5	2back	Block3	2back/STIM_001.jpg	100
1461.565	1.04	1039.6	2back	Block3	2back/STIM_002.jpg	100
1465.017	1.087	1087.4	2back	Block3	2back/STIM_002.jpg	99
1469.715	0.702	702.5	2back	Block3	2back/STIM_002.jpg	100
1473.367	1.002	1002.0	2back	Block3	2back/STIM_003.jpg	100
1476.673	0.578	578.1	2back	Block3	2back/STIM_003.jpg	100
1479.389	1.122	1121.6	2back	Block3	2back/STIM_003.jpg	99
1483.292	1.095	1094.7	2back	Block3	2back/STIM_004.jpg	99
1488.294	1.217	1216.7	2back	Block3	2back/STIM_004.jpg	100
1493.034	0.689	689.1	2back	Block3	2back/STIM_004.jpg	100
1497.167	0.534	534.2	2back	Block3	2back/STIM_005.jpg	100
1501.069	1.165	1165.3	2back	Block3	2back/STIM_005.jpg	99
1505.514	0.873	872.9	2back	Block3	2back/STIM_005.jpg	99
1509.19	1.095	1095.1	2back	Block3	2back/STIM_006.jpg	100
1512.626	1.011	1011.1	2back	Block3	2back/STIM_006.jpg	99
1516.081	0.918	918.0	2back	Block3	2back/STIM_006.jpg	99
1519.008	0.688	688.3	2back	Block3	2back/STIM_007.jpg	100
1522.921	0.899	898.6	2back	Block3	2back/STIM_007.jpg	100
1526.101	0.784	784.3	2back	Block3	2back/STIM_007.jpg	100
1529.317	0.89	889.8	2back	Block3	2back/STIM_008.jpg	99
1532.836	0.951	951.0	2back	Block3	2back/STIM_008.jpg	99
1537.157	1.185	1184.8	2back	Block3	2back/STIM_008.jpg	100
1542.191	0.73	729.7	2back	Block3	2back/STIM_009.jpg	100
1545.665	1.19	1189.5	2back	Block3	2back/STIM_009.jpg	100
1549.333	1.145	1145.3	2back	Block3	2back/STIM_009.jpg	100
1553.12	0.836	835.8	2back	Block3	2back/STIM_010.jpg	99
1556.225	0.681	681.4	2back	Block3	2back/STIM_010.jpg	100
1559.481	1.05	1050.1	2back	Block3	2back/STIM_010.jpg	99
1563.102	0.54	540.0	2back	Block3	2back/STIM_011.jpg	100
1566.099	0.565	565.2	2back	Block3	2back/STIM_011.jpg	99
1570.609	1.206	1206.3	2back	Block3	2back/STIM_011.jpg	99
1575.19	0.765	765.0	2back	Block3	2back/STIM_012.jpg	100
1578.917	1.066	1065.8	2back	Block3	2back/STIM_012.jpg	99
1583.266	1.162	1161.8	2back	Block3	2back/STIM_012.jpg	99
1586.983	1.007	1006.9	2back	Block3	2back/STIM_013.jpg	100
1591.917	0.728	727.5	2back	Block3	2back/STIM_013.jpg	99
1595.754	0.634	633.7	2back	Block3	2back/STIM_013.jpg	99
1600.146	0.99	990.4	2back	Block3	2back/STIM_014.jpg	99
1604.882	0.844	843.8	2back	Block3	2back/STIM_014.jpg	99
1608.48	0.701	701.3	2back	Block3	2back/STIM_014.jpg	99
1612.152	0.592	592.4	2back	Block3	2back/STIM_015.jpg	100
1616.094	0.881	881.3	2back	Block3	2back/STIM_015.jpg	99
1619.281	1.034	1033.8	2back	Block3	2back/STIM_015.jpg	100
1624.131	0.747	747.2	2back	Block3	2back/STIM_016.jpg	100
1626.922	0.817	816.9	2back	Block3	2back/STIM_016.jpg	100
1630.294	1.2	1199.8	2back	Block3	2back/STIM_016.jpg	99
1634.964	0.657	657.0	2back	Block3	2back/STIM_017.jpg	99
1638.32	0.957	957.1	2back	Block3	2back/STIM_017.jpg	100
1642.456	0.659	658.7	2back	Block3	2back/STIM_017.jpg	99
1646.547	0.722	721.5	2back	Block3	2back/STIM_018.jpg	99
1649.82	0.538	537.9	2back	Block3	2back/STIM_018.jpg	100
1653.785	1.105	1105.4	2back	Block3	2back/STIM_018.jpg	99
1657.195	0.884	884.2	2back	Block3	2back/STIM_019.jpg	100
1661.042	0.739	739.4	2back	Block3	2back/STIM_019.jpg	99
1665.396	1.147	1146.7	2back	Block3	2back/STIM_019.jpg	100
1670.065	1.205	1205.3	2back	Block3	2back/STIM_020.jpg	100
1673.914	0.703	703.1	2back	Block3	2back/STIM_020.jpg	99
1677.432	1.188	1188.0	2back	Block3	2back/STIM_020.jpg	99
1682.343	0.649	649.0	2back	Block3	2back/STIM_021.jpg	99
1686.736	0.921	920.9	2back	Block3	2back/STIM_021.jpg	99
1691.299	0.695	695.1	2back	Block3	2back/STIM_021.jpg	100
1695.776	0.828	828.2	2back	Block3	2back/STIM_022.jpg	99
1700.333	1.057	1057.1	2back	Block3	2back/STIM_022.jpg	100
1705.28	0.801	800.7	2back	Block3	2back/STIM_022.jpg	99
1708.11	0.904	904.5	2back	Block3	2back/STIM_023.jpg	99
1711.204	0.807	806.9	2back	Block3	2back/STIM_023.jpg	99
1715.935	0.961	961.2	2back	Block3	2back/STIM_023.jpg	99
1719.146	0.931	931.2	2back	Block3	2back/STIM_024.jpg	99
1722.916	0.964	964.4	2back	Block3	2back/STIM_024.jpg	99
1727.473	1.208	1208.0	2back	Block3	2back/STIM_024.jpg	99
1731.602	0.682	681.9	2back	Block3	2back/STIM_025.jpg	99
1735.333	0.946	945.7	2back	Block3	2back/STIM_025.jpg	99
1738.648	1.1	1100.3	2back	Block3	2back/STIM_025.jpg	100
1743.222	0.718	717.6	2back	Block3	2back/STIM_026.jpg	99
1746.726	0.656	656.3	2back	Block3	2back/STIM_026.jpg	99
1751.267	0.998	998.3	2back	Block3	2back/STIM_026.jpg	100
1755.755	1.164	1164.0	2back	Block3	2back/STIM_027.jpg	100
1760.19	0.814	814.5	2back	Block3	2back/STIM_027.jpg	99
1763.702	0.668	667.8	2back	Block3	2back/STIM_027.jpg	100
1767.806	0.726	725.7	2back	Block3	2back/STIM_028.jpg	100
1772.45	1.167	1167.3	2back	Block3	2back/STIM_028.jpg	99
1776.316	0.905	905.3	2back	Block3	2back/STIM_028.jpg	99
1779.451	1.126	1125.8	2back	Block3	2back/STIM_029.jpg	99
1782.77	0.963	963.2	2back	Block3	2back/STIM_029.jpg	100
1787.326	0.958	957.7	2back	Block3	2back/STIM_029.jpg	99
1790.915	0.799	799.1	2back	Block3	2back/STIM_030.jpg	99
1794.87	1.096	1096.2	2back	Block3	2back/STIM_030.jpg	99
1799.055	0.546	545.8	2back	Block3	2back/STIM_030.jpg	100
1802.504	0.896	895.8	2back	Block3	2back/STIM_031.jpg	99
1806.689	1.126	1126.5	2back	Block3	2back/STIM_031.jpg	100
1811.646	1.035	1034.8	2back	Block3	2back/STIM_031.jpg	99
1815.408	1.14	1139.9	2back	Block3	2back/STIM_032.jpg	100
1819.769	0.672	672.0	2back	Block3	2back/STIM_032.jpg	100
1824.306	0.826	825.9	2back	Block3	2back/STIM_032.jpg	99
1828.939	1.143	1143.3	2back	Block3	2back/STIM_033.jpg	99
1832.507	0.53	530.1	2back	Block3	2back/STIM_033.jpg	99
1835.771	0.943	943.2	2back	Block3	2back/STIM_033.jpg	100
1838.904	0.872	871.8	2back	Block3	2back/STIM_034.jpg	100
1842.416	1.141	1140.7	2back	Block3	2back/STIM_034.jpg	100
1846.139	1.039	1038.7	2back	Block3	2back/STIM_034.jpg	100
1849.968	0.612	611.6	2back	Block3	2back/STIM_035.jpg	100
1853.184	0.587	586.6	2back	Block3	2back/STIM_035.jpg	99
1856.816	0.721	721.0	2back	Block3	2back/STIM_035.jpg	99
1861.205	0.842	842.4	2back	Block3	2back/STIM_036.jpg	99
1864.713	1.016	1016.5	2back	Block3	2back/STIM_036.jpg	100
1867.945	1.024	1023.7	2back	Block3	2back/STIM_036.jpg	100
1872.367	1.161	1161.3	2back	Block3	2back/STIM_037.jpg	99
1876.282	1.032	1031.7	2back	Block3	2back/STIM_037.jpg	99
1879.616	0.887	887.2	2back	Block3	2back/STIM_037.jpg	100
1882.809	0.72	720.1	2back	Block3	2back/STIM_038.jpg	99
1886.896	1.01	1010.4	2back	Block3	2back/STIM_038.jpg	100
1890.426	0.595	595.4	2back	Block3	2back/STIM_038.jpg	100
1893.52	0.962	962.2	2back	Block3	2back/STIM_039.jpg	100
1898.016	0.871	870.9	2back	Block3	2back/STIM_039.jpg	99
1901.082	0.943	943.2	2back	Block3	2back/STIM_039.jpg	99
1904.892	0.529	528.7	0back	Block3	0back/STIM_000.jpg	99
1908.305	0.815	814.7	0back	Block3	0back/STIM_000.jpg	99
1911.719	0.747	746.7	0back	Block3	0back/STIM_000.jpg	99
1916.283	0.84	840.5	0back	Block3	0back/STIM_001.jpg	99
1919.652	0.562	561.6	0back	Block3	0back/STIM_001.jpg	100
1922.705	0.922	921.6	0back	Block3	0back/STIM_001.jpg	100
1927.241	0.749	749.4	0back	Block3	0back/STIM_002.jpg	100
1931.65	0.869	869.1	0back	Block3	0back/STIM_002.jpg	99
1935.824	0.922	922.1	0back	Block3	0back/STIM_002.jpg	100
1940.285	0.938	937.7	0back	Block3	0back/STIM_003.jpg	100
1944.381	0.57	569.8	0back	Block3	0back/STIM_003.jpg	99
1948.114	0.853	852.6	0back	Block3	0back/STIM_003.jpg	99
1952.366	0.658	658.1	0back	Block3	0back/STIM_004.jpg	99
1955.449	0.706	706.1	0back	Block3	0back/STIM_004.jpg	100
1959.15	0.577	576.6	0back	Block3	0back/STIM_004.jpg	99
1963.403	0.942	942.4	0back	Block3	0back/STIM_005.jpg	100
1967.542	0.701	700.7	0back	Block3	0back/STIM_005.jpg	100
1971.531	0.739	739.3	0back	Block3	0back/STIM_005.jpg	100
1975.504	0.916	915.6	0back	Block3	0back/STIM_006.jpg	100
1979.07	0.85	849.8	0back	Block3	0back/STIM_006.jpg	100
1982.237	0.89	889.5	0back	Block3	0back/STIM_006.jpg	100
1985.758	0.774	773.6	0back	Block3	0back/STIM_007.jpg	99
1988.619	0.992	992.4	0back	Block3	0back/STIM_007.jpg	99
1993.123	0.625	624.7	0back	Block3	0back/STIM_007.jpg	100
1997.616	0.84	839.7	0back	Block3	0back/STIM_008.jpg	100
2000.797	0.622	622.1	0back	Block3	0back/STIM_008.jpg	100
2004.009	0.918	917.6	0back	Block3	0back/STIM_008.jpg	99
2007.837	0.801	801.3	0back	Block3	0back/STIM_009.jpg	99
2011.251	0.97	970.2	0back	Block3	0back/STIM_009.jpg	99
2014.37	0.932	932.2	0back	Block3	0back/STIM_009.jpg	99
2017.635	0.592	591.5	0back	Block3	0back/STIM_010.jpg	99
2020.289	0.823	823.4	0back	Block3	0back/STIM_010.jpg	99
2024.771	0.845	844.7	0back	Block3	0back/STIM_010.jpg	99
2027.812	0.514	514.1	0back	Block3	0back/STIM_011.jpg	99
2031.082	0.71	709.7	0back	Block3	0back/STIM_011.jpg	100
2033.911	0.634	634.3	0back	Block3	0back/STIM_011.jpg	100
2036.915	0.907	906.8	0back	Block3	0back/STIM_012.jpg	100
2040.751	0.523	522.8	0back	Block3	0back/STIM_012.jpg	100
2043.611	0.968	968.5	0back	Block3	0back/STIM_012.jpg	99
2047.087	0.714	713.6	0back	Block3	0back/STIM_013.jpg	99
2050.198	0.529	528.9	0back	Block3	0back/STIM_013.jpg	99
2053.574	0.559	559.4	0back	Block3	0back/STIM_013.jpg	99
2056.14	0.813	813.1	0back	Block3	0back/STIM_014.jpg	99
2060.573	0.692	692.3	0back	Block3	0back/STIM_014.jpg	100
2063.412	0.65	650.5	0back	Block3	0back/STIM_014.jpg	100
2066.615	0.802	801.6	0back	Block3	0back/STIM_015.jpg	100
2070.493	0.724	724.2	0back	Block3	0back/STIM_015.jpg	99
2074.463	0.762	761.6	0back	Block3	0back/STIM_015.jpg	100
2077.521	0.581	581.1	0back	Block3	0back/STIM_016.jpg	99
2081.78	0.949	949.1	0back	Block3	0back/STIM_016.jpg	99
2084.933	0.889	889.4	0back	Block3	0back/STIM_016.jpg	100
2089.092	0.713	713.1	0back	Block3	0back/STIM_017.jpg	100
2092.283	0.924	923.7	0back	Block3	0back/STIM_017.jpg	100
2095.448	0.631	630.8	0back	Block3	0back/STIM_017.jpg	100
2099.531	0.944	943.6	0back	Block3	0back/STIM_018.jpg	100
2104.291	0.621	621.4	0back	Block3	0back/STIM_018.jpg	99
2108.116	0.562	562.1	0back	Block3	0back/STIM_018.jpg	99
2111.743	0.715	714.6	0back	Block3	0back/STIM_019.jpg	100
2116.073	0.842	842.3	0back	Block3	0back/STIM_019.jpg	99
2120.385	0.742	742.4	0back	Block3	0back/STIM_019.jpg	100
2123.399	0.866	866.4	2back	Block4	2back/STIM_000.jpg	100
2126.7	1.13	1130.0	2back	Block4	2back/STIM_000.jpg	100
2130.295	0.637	636.8	2back	Block4	2back/STIM_000.jpg	100
2133.694	1.013	1013.4	2back	Block4	2back/STIM_001.jpg	100
2137.937	1.099	1098.9	2back	Block4	2back/STIM_001.jpg	100
2142.875	0.569	568.6	2back	Block4	2back/STIM_001.jpg	100
2146.676	1.186	1186.4	2back	Block4	2back/STIM_002.jpg	100
2151.487	0.697	697.3	2back	Block4	2back/STIM_002.jpg	100
2155.15	0.714	713.6	2back	Block4	2back/STIM_002.jpg	100
2158.356	0.76	760.1	2back	Block4	2back/STIM_003.jpg	99
2162.316	0.709	708.7	2back	Block4	2back/STIM_003.jpg	99
2165.108	0.756	755.8	2back	Block4	2back/STIM_003.jpg	100
2168.886	0.894	893.7	2back	Block4	2back/STIM_004.jpg	100
2173.095	0.632	632.4	2back	Block4	2back/STIM_004.jpg	99
2175.913	0.681	680.6	2back	Block4	2back/STIM_004.jpg	99
2180.166	0.89	890.3	2back	Block4	2back/STIM_005.jpg	100
2184.66	1.148	1148.3	2back	Block4	2back/STIM_005.jpg	99
2188.554	0.74	739.6	2back	Block4	2back/STIM_005.jpg	99
2193.263	0.861	861.1	2back	Block4	2back/STIM_006.jpg	100
2196.246	0.788	788.5	2back	Block4	2back/STIM_006.jpg	100
2200.567	1.023	1023.2	2back	Block4	2back/STIM_006.jpg	99
2204.362	0.74	740.0	2back	Block4	2back/STIM_007.jpg	99
2207.155	0.904	904.0	2back	Block4	2back/STIM_007.jpg	99
2210.538	1.081	1081.2	2back	Block4	2back/STIM_007.jpg	99
2215.252	0.721	721.3	2back	Block4	2back/STIM_008.jpg	100
2218.774	0.652	651.5	2back	Block4	2back/STIM_008.jpg	100
2222.307	0.534	534.2	2back	Block4	2back/STIM_008.jpg	99
2225.838	0.788	788.1	2back	Block4	2back/STIM_009.jpg	100
2230.317	0.701	700.6	2back	Block4	2back/STIM_009.jpg	100
2234.482	1.055	1055.0	2back	Block4	2back/STIM_009.jpg	99
2237.805	0.66	660.0	2back	Block4	2back/STIM_010.jpg	99
2241.941	1.018	1017.7	2back	Block4	2back/STIM_010.jpg	100
2245.096	0.758	757.9	2back	Block4	2back/STIM_010.jpg	99
2248.275	1.175	1174.7	2back	Block4	2back/STIM_011.jpg	99
2251.787	1.012	1012.2	2back	Block4	2back/STIM_011.jpg	100
2256.293	0.858	858.5	2back	Block4	2back/STIM_011.jpg	100
2260.279	0.757	757.4	2back	Block4	2back/STIM_012.jpg	100
2264.177	0.671	670.7	2back	Block4	2back/STIM_012.jpg	100
2267.108	1.194	1194.2	2back	Block4	2back/STIM_012.jpg	100
2271.575	1.104	1103.9	2back	Block4	2back/STIM_013.jpg	99
2276.41	0.781	780.8	2back	Block4	2back/STIM_013.jpg	99
2280.14	1.192	1192.3	2back	Block4	2back/STIM_013.jpg	99
2284.704	0.618	617.7	2back	Block4	2back/STIM_014.jpg	100
2288.375	0.53	529.8	2back	Block4	2back/STIM_014.jpg	100
2292.779	0.525	525.2	2back	Block4	2back/STIM_014.jpg	100
2296.318	0.598	597.7	2back	Block4	2back/STIM_015.jpg	100
2300.797	0.832	832.4	2back	Block4	2back/STIM_015.jpg	100
2304.927	0.936	936.1	2back	Block4	2back/STIM_015.jpg	99
2308.714	1.137	1136.7	2back	Block4	2back/STIM_016.jpg	100
2312.344	1.012	1011.8	2back	Block4	2back/STIM_016.jpg	100
2315.856	1.219	1218.9	2back	Block4	2back/STIM_016.jpg	99
2320.888	0.93	930.1	2back	Block4	2back/STIM_017.jpg	100
2325.161	0.559	558.6	2back	Block4	2back/STIM_017.jpg	100
2329.16	1.152	1152.5	2back	Block4	2back/STIM_017.jpg	100
2333.405	1.074	1074.4	2back	Block4	2back/STIM_018.jpg	99
2337.114	1.141	1140.9	2back	Block4	2back/STIM_018.jpg	99
2340.832	0.775	774.7	2back	Block4	2back/STIM_018.jpg	100
2345.059	0.655	654.9	2back	Block4	2back/STIM_019.jpg	100
2348.015	0.839	838.9	2back	Block4	2back/STIM_019.jpg	100
2352.393	0.922	922.0	2back	Block4	2back/STIM_019.jpg	100
2356.556	0.957	956.8	2back	Block4	2back/STIM_020.jpg	100
2360.512	1.031	1031.2	2back	Block4	2back/STIM_020.jpg	100
2364.182	1.025	1025.0	2back	Block4	2back/STIM_020.jpg	99
2367.39	0.816	815.8	2back	Block4	2back/STIM_021.jpg	99
2371.819	0.997	997.4	2back	Block4	2back/STIM_021.jpg	100
2375.02	0.808	808.3	2back	Block4	2back/STIM_021.jpg	99
2378.016	0.731	730.6	2back	Block4	2back/STIM_022.jpg	100
2382.445	0.791	790.9	2back	Block4	2back/STIM_022.jpg	100
2386.666	0.993	992.6	2back	Block4	2back/STIM_022.jpg	100
2389.727	0.789	788.8	2back	Block4	2back/STIM_023.jpg	100
2393.275	0.934	934.5	2back	Block4	2back/STIM_023.jpg	99
2397.144	1.005	1004.7	2back	Block4	2back/STIM_023.jpg	100
2401.385	0.99	990.2	2back	Block4	2back/STIM_024.jpg	99
2405.733	0.906	905.5	2back	Block4	2back/STIM_024.jpg	100
2409.559	1.013	1013.3	2back	Block4	2back/STIM_024.jpg	100
2412.834	0.601	600.7	2back	Block4	2back/STIM_025.jpg	100
2415.553	0.782	781.9	2back	Block4	2back/STIM_025.jpg	100
2418.617	0.673	673.0	2back	Block4	2back/STIM_025.jpg	100
2421.426	1.034	1033.6	2back	Block4	2back/STIM_026.jpg	99
2425.837	0.526	526.4	2back	Block4	2back/STIM_026.jpg	99
2429.923	0.927	927.3	2back	Block4	2back/STIM_026.jpg	99
2433.452	1.001	1001.0	2back	Block4	2back/STIM_027.jpg	100
2437.295	0.833	832.9	2back	Block4	2back/STIM_027.jpg	99
2440.762	0.907	907.1	2back	Block4	2back/STIM_027.jpg	100
2445.36	1.088	1087.6	2back	Block4	2back/STIM_028.jpg	99
2449.372	1.218	1218.1	2back	Block4	2back/STIM_028.jpg	99
2452.662	0.792	792.5	2back	Block4	2back/STIM_028.jpg	100
2456.147	0.907	907.4	2back	Block4	2back/STIM_029.jpg	100
2459.728	0.61	609.7	2back	Block4	2back/STIM_029.jpg	99
2463.188	0.817	817.2	2back	Block4	2back/STIM_029.jpg	100
2466.578	1.048	1048.5	2back	Block4	2back/STIM_030.jpg	100
2469.659	0.604	604.4	2back	Block4	2back/STIM_030.jpg	100
2473.573	0.76	760.3	2back	Block4	2back/STIM_030.jpg	99
2477.661	1.069	1069.1	2back	Block4	2back/STIM_031.jpg	100
2481.141	0.709	708.6	2back	Block4	2back/STIM_031.jpg	99
2485.072	0.603	603.4	2back	Block4	2back/STIM_031.jpg	100
2487.987	1.131	1131.0	2back	Block4	2back/STIM_032.jpg	99
2492.411	0.631	630.8	2back	Block4	2back/STIM_032.jpg	99
2495.966	0.979	979.2	2back	Block4	2back/STIM_032.jpg	99
2500.914	1.002	1002.3	2back	Block4	2back/STIM_033.jpg	99
2505.75	0.651	651.4	2back	Block4	2back/STIM_033.jpg	99
2508.691	0.831	831.2	2back	Block4	2back/STIM_033.jpg	100
2512.216	0.722	722.2	2back	Block4	2back/STIM_034.jpg	99
2515.243	0.53	529.6	2back	Block4	2back/STIM_034.jpg	99
2519.658	1.22	1219.6	2back	Block4	2back/STIM_034.jpg	99
2523.542	0.551	551.2	2back	Block4	2back/STIM_035.jpg	100
2528.025	0.646	646.5	2back	Block4	2back/STIM_035.jpg	99
2530.966	0.702	702.5	2back	Block4	2back/STIM_035.jpg	99
2534.424	0.542	542.5	2back	Block4	2back/STIM_036.jpg	100
2538.139	0.901	900.7	2back	Block4	2back/STIM_036.jpg	100
2541.63	0.675	675.2	2back	Block4	2back/STIM_036.jpg	100
2545.734	1.184	1184.4	2back	Block4	2back/STIM_037.jpg	99
2550.431	0.793	792.6	2back	Block4	2back/STIM_037.jpg	99
2554.896	0.857	857.0	2back	Block4	2back/STIM_037.jpg	100
2559.279	0.868	868.5	2back	Block4	2back/STIM_038.jpg	100
2563.899	0.536	535.9	2back	Block4	2back/STIM_038.jpg	99
2566.674	1.039	1038.7	2back	Block4	2back/STIM_038.jpg	99
2571.058	0.719	718.6	2back	Block4	2back/STIM_039.jpg	99
2575.394	0.74	740.1	2back	Block4	2back/STIM_039.jpg	99
2579.572	0.686	685.6	2back	Block4	2back/STIM_039.jpg	100
2584.159	0.575	574.7	0back	Block4	0back/STIM_000.jpg	100
2587.832	0.693	692.8	0back	Block4	0back/STIM_000.jpg	99
2591.972	0.988	988.3	0back	Block4	0back/STIM_000.jpg	100
2595.095	0.682	681.6	0back	Block4	0back/STIM_001.jpg	99
2598.77	0.852	852.4	0back	Block4	0back/STIM_001.jpg	99
2602.618	0.753	752.9	0back	Block4	0back/STIM_001.jpg	99
2606.061	0.891	891.0	0back	Block4	0back/STIM_002.jpg	100
2609.356	0.59	589.8	0back	Block4	0back/STIM_002.jpg	99
2613.25	0.639	638.7	0back	Block4	0back/STIM_002.jpg	99
2616.226	0.535	535.2	0back	Block4	0back/STIM_003.jpg	100
2619.741	0.832	831.9	0back	Block4	0back/STIM_003.jpg	100
2623.866	0.854	854.0	0back	Block4	0back/STIM_003.jpg	100
2627.154	0.654	653.7	0back	Block4	0back/STIM_004.jpg	100
2631.184	0.544	543.8	0back	Block4	0back/STIM_004.jpg	100
2635.16	0.878	877.9	0back	Block4	0back/STIM_004.jpg	99
2638.632	0.937	937.2	0back	Block4	0back/STIM_005.jpg	99
2641.808	0.578	578.2	0back	Block4	0back/STIM_005.jpg	100
2644.981	0.561	561.0	0back	Block4	0back/STIM_005.jpg	99
2647.687	0.651	651.0	0back	Block4	0back/STIM_006.jpg	99
2651.201	0.932	932.0	0back	Block4	0back/STIM_006.jpg	100
2654.803	0.946	946.4	0back	Block4	0back/STIM_006.jpg	99
2658.156	0.754	754.5	0back	Block4	0back/STIM_007.jpg	99
2661.812	0.754	754.3	0back	Block4	0back/STIM_007.jpg	100
2666.541	0.565	564.6	0back	Block4	0back/STIM_007.jpg	99
2669.116	0.707	706.9	0back	Block4	0back/STIM_008.jpg	99
2671.998	0.78	780.5	0back	Block4	0back/STIM_008.jpg	100
2676.302	0.871	870.8	0back	Block4	0back/STIM_008.jpg	100
2680.996	0.864	864.0	0back	Block4	0back/STIM_009.jpg	100
2685.365	0.734	733.7	0back	Block4	0back/STIM_009.jpg	100
2688.323	0.97	970.0	0back	Block4	0back/STIM_009.jpg	99
2692.139	0.65	649.6	0back	Block4	0back/STIM_010.jpg	100
2694.876	0.631	630.9	0back	Block4	0back/STIM_010.jpg	100
2698.981	0.714	713.5	0back	Block4	0back/STIM_010.jpg	100
2702.51	0.866	865.6	0back	Block4	0back/STIM_011.jpg	100
2706.42	0.756	756.0	0back	Block4	0back/STIM_011.jpg	100
2709.713	0.816	816.5	0back	Block4	0back/STIM_011.jpg	99
2714.513	0.534	534.2	0back	Block4	0back/STIM_012.jpg	99
2717.69	0.584	583.8	0back	Block4	0back/STIM_012.jpg	99
2720.327	0.635	635.3	0back	Block4	0back/STIM_012.jpg	99
2723.962	0.747	746.6	0back	Block4	0back/STIM_013.jpg	99
2728.529	0.846	846.3	0back	Block4	0back/STIM_013.jpg	100
2732.132	0.811	811.0	0back	Block4	0back/STIM_013.jpg	100
2736.038	0.623	623.4	0back	Block4	0back/STIM_014.jpg	100
2738.884	0.824	823.7	0back	Block4	0back/STIM_014.jpg	99
2743.103	0.846	846.0	0back	Block4	0back/STIM_014.jpg	100
2746.951	0.862	861.8	0back	Block4	0back/STIM_015.jpg	100
2751.305	0.796	796.4	0back	Block4	0back/STIM_015.jpg	100
2754.494	0.614	613.8	0back	Block4	0back/STIM_015.jpg	100
2757.477	0.754	753.9	0back	Block4	0back/STIM_016.jpg	99
2760.773	0.831	831.3	0back	Block4	0back/STIM_016.jpg	100
2763.705	0.564	564.4	0back	Block4	0back/STIM_016.jpg	100
2766.313	0.758	758.3	0back	Block4	0back/STIM_017.jpg	100
2769.412	0.759	758.9	0back	Block4	0back/STIM_017.jpg	100
2772.74	0.685	685.3	0back	Block4	0back/STIM_017.jpg	99
2777.16	0.834	834.1	0back	Block4	0back/STIM_018.jpg	100
2780.593	0.702	702.2	0back	Block4	0back/STIM_018.jpg	99
2784.093	0.725	725.0	0back	Block4	0back/STIM_018.jpg	99
2788.149	0.568	567.6	0back	Block4	0back/STIM_019.jpg	100
2791.746	0.533	532.6	0back	Block4	0back/STIM_019.jpg	99
2795.414	0.74	739.5	0back	Block4	0back/STIM_019.jpg	99
