onset	duration	response_time_ms	trial_type	learning_stage	stimulus	response_port
0.0	0.664	664.5	2back	Block1	2back/STIM_000.jpg	100
4.178	1.323	1323.4	2back	Block1	2back/STIM_000.jpg	99
8.833	0.643	643.0	2back	Block1	2back/STIM_000.jpg	99
13.329	1.218	1217.9	2back	Block1	2back/STIM_001.jpg	99
18.449	0.68	680.0	2back	Block1	2back/STIM_001.jpg	99
21.219	0.708	708.2	2back	Block1	2back/STIM_001.jpg	100
24.842	0.911	910.7	2back	Block1	2back/STIM_002.jpg	99
29.037	1.311	1311.4	2back	Block1	2back/STIM_002.jpg	99
33.871	0.977	977.3	2back	Block1	2back/STIM_002.jpg	99
37.351	1.175	1174.7	2back	Block1	2back/STIM_003.jpg	100
41.795	0.823	823.3	2back	Block1	2back/STIM_003.jpg	99
46.4	0.653	653.1	2back	Block1	2back/STIM_003.jpg	99
50.984	1.284	1283.5	2back	Block1	2back/STIM_004.jpg	100
54.46	1.322	1322.1	2back	Block1	2back/STIM_004.jpg	100
58.706	1.148	1147.5	2back	Block1	2back/STIM_004.jpg	100
63.475	1.186	1185.9	2back	Block1	2back/STIM_005.jpg	100
66.771	1.064	1064.5	2back	Block1	2back/STIM_005.jpg	99
70.17	0.828	828.1	2back	Block1	2back/STIM_005.jpg	100
74.857	0.61	609.8	2back	Block1	2back/STIM_006.jpg	99
79.015	0.824	824.2	2back	Block1	2back/STIM_006.jpg	100
82.796	0.603	603.4	2back	Block1	2back/STIM_006.jpg	99
86.434	0.709	708.9	2back	Block1	2back/STIM_007.jpg	100
89.874	1.206	1206.1	2back	Block1	2back/STIM_007.jpg	99
94.356	1.12	1120.3	2back	Block1	2back/STIM_007.jpg	99
99.228	0.644	644.1	2back	Block1	2back/STIM_008.jpg	100
103.406	1.315	1315.3	2back	Block1	2back/STIM_008.jpg	100
108.202	0.953	953.0	2back	Block1	2back/STIM_008.jpg	100
113.14	1.273	1273.3	2back	Block1	2back/STIM_009.jpg	100
117.903	0.6	599.7	2back	Block1	2back/STIM_009.jpg	99
122.448	0.777	776.7	2back	Block1	2back/STIM_009.jpg	100
126.137	1.193	1192.8	2back	Block1	2back/STIM_010.jpg	99
129.785	1.169	1168.6	2back	Block1	2back/STIM_010.jpg	99
133.289	1.221	1220.9	2back	Block1	2back/STIM_010.jpg	99
138.348	1.374	1374.1	2back	Block1	2back/STIM_011.jpg	100
142.633	0.894	893.6	2back	Block1	2back/STIM_011.jpg	100
145.827	0.891	891.1	2back	Block1	2back/STIM_011.jpg	99
149.701	0.822	821.8	2back	Block1	2back/STIM_012.jpg	99
154.203	0.819	819.4	2back	Block1	2back/STIM_012.jpg	99
157.819	0.71	709.6	2back	Block1	2back/STIM_012.jpg	99
161.231	0.897	897.2	2back	Block1	2back/STIM_013.jpg	99
164.448	1.066	1065.6	2back	Block1	2back/STIM_013.jpg	100
168.251	0.66	659.5	2back	Block1	2back/STIM_013.jpg	100
171.472	1.001	1001.2	2back	Block1	2back/STIM_014.jpg	100
176.276	0.794	794.3	2back	Block1	2back/STIM_014.jpg	99
180.789	0.76	759.8	2back	Block1	2back/STIM_014.jpg	99
183.608	0.687	686.8	2back	Block1	2back/STIM_015.jpg	99
186.863	0.623	623.2	2back	Block1	2back/STIM_015.jpg	99
190.138	0.892	892.1	2back	Block1	2back/STIM_015.jpg	100
193.302	0.661	660.7	2back	Block1	2back/STIM_016.jpg	100
196.464	0.91	910.3	2back	Block1	2back/STIM_016.jpg	99
201.104	0.928	928.5	2back	Block1	2back/STIM_016.jpg	99
205.845	1.275	1275.1	2back	Block1	2back/STIM_017.jpg	100
209.832	0.802	801.6	2back	Block1	2back/STIM_017.jpg	100
214.37	0.757	757.0	2back	Block1	2back/STIM_017.jpg	100
218.575	0.911	911.2	2back	Block1	2back/STIM_018.jpg	100
223.383	1.245	1244.8	2back	Block1	2back/STIM_018.jpg	99
226.976	0.544	543.6	2back	Block1	2back/STIM_018.jpg	100
231.21	1.348	1347.6	2back	Block1	2back/STIM_019.jpg	99
235.691	0.649	649.3	2back	Block1	2back/STIM_019.jpg	99
238.397	0.963	963.2	2back	Block1	2back/STIM_019.jpg	99
242.452	1.179	1179.3	2back	Block1	2back/STIM_020.jpg	99
247.556	0.985	985.0	2back	Block1	2back/STIM_020.jpg	99
251.229	0.701	701.3	2back	Block1	2back/STIM_020.jpg	99
255.033	0.834	834.0	2back	Block1	2back/STIM_021.jpg	99
258.541	0.911	910.7	2back	Block1	2back/STIM_021.jpg	100
262.149	0.735	735.2	2back	Block1	2back/STIM_021.jpg	99
265.191	1.396	1395.6	2back	Block1	2back/STIM_022.jpg	99
268.657	1.157	1156.6	2back	Block1	2back/STIM_022.jpg	100
272.488	0.909	908.8	2back	Block1	2back/STIM_022.jpg	100
275.952	0.646	646.5	2back	Block1	2back/STIM_023.jpg	100
279.796	1.123	1123.4	2back	Block1	2back/STIM_023.jpg	99
284.681	0.782	782.0	2back	Block1	2back/STIM_023.jpg	99
289.225	0.964	964.1	2back	Block1	2back/STIM_024.jpg	100
293.241	1.284	1283.8	2back	Block1	2back/STIM_024.jpg	100
296.974	0.736	735.5	2back	Block1	2back/STIM_024.jpg	100
300.056	0.918	918.3	2back	Block1	2back/STIM_025.jpg	100
303.556	0.817	817.4	2back	Block1	2back/STIM_025.jpg	100
308.303	1.027	1027.1	2back	Block1	2back/STIM_025.jpg	100
312.214	0.654	654.2	2back	Block1	2back/STIM_026.jpg	100
316.149	0.699	699.2	2back	Block1	2back/STIM_026.jpg	99
320.586	0.923	922.8	2back	Block1	2back/STIM_026.jpg	99
324.168	1.284	1284.4	2back	Block1	2back/STIM_027.jpg	99
328.74	0.779	778.6	2back	Block1	2back/STIM_027.jpg	99
332.23	0.587	587.2	2back	Block1	2back/STIM_027.jpg	99
335.484	0.935	934.9	2back	Block1	2back/STIM_028.jpg	100
340.231	0.759	759.3	2back	Block1	2back/STIM_028.jpg	99
344.061	0.604	604.0	2back	Block1	2back/STIM_028.jpg	100
347.868	0.608	608.1	2back	Block1	2back/STIM_029.jpg	100
350.822	0.631	630.9	2back	Block1	2back/STIM_029.jpg	100
354.435	0.626	625.6	2back	Block1	2back/STIM_029.jpg	100
357.198	1.119	1119.0	2back	Block1	2back/STIM_030.jpg	100
360.928	1.056	1056.1	2back	Block1	2back/STIM_030.jpg	99
365.587	0.705	705.4	2back	Block1	2back/STIM_030.jpg	100
369.575	1.102	1102.0	2back	Block1	2back/STIM_031.jpg	100
372.74	0.706	705.7	2back	Block1	2back/STIM_031.jpg	99
375.584	1.26	1259.6	2back	Block1	2back/STIM_031.jpg	99
380.149	0.802	802.4	2back	Block1	2back/STIM_032.jpg	100
384.035	1.193	1192.6	2back	Block1	2back/STIM_032.jpg	99
387.358	0.608	608.2	2back	Block1	2back/STIM_032.jpg	99
390.314	0.901	900.6	2back	Block1	2back/STIM_033.jpg	100
395.106	1.294	1294.3	2back	Block1	2back/STIM_033.jpg	100
399.084	0.627	627.2	2back	Block1	2back/STIM_033.jpg	99
401.87	0.738	738.2	2back	Block1	2back/STIM_034.jpg	100
405.585	0.615	615.4	2back	Block1	2back/STIM_034.jpg	99
408.951	0.676	675.7	2back	Block1	2back/STIM_034.jpg	100
412.023	0.866	865.6	2back	Block1	2back/STIM_035.jpg	99
415.068	0.645	645.3	2back	Block1	2back/STIM_035.jpg	100
418.299	0.857	857.2	2back	Block1	2back/STIM_035.jpg	100
421.72	1.357	1357.3	2back	Block1	2back/STIM_036.jpg	99
426.491	1.176	1176.5	2back	Block1	2back/STIM_036.jpg	100
430.025	1.127	1126.6	2back	Block1	2back/STIM_036.jpg	99
434.651	1.276	1276.0	2back	Block1	2back/STIM_037.jpg	100
438.206	0.725	725.3	2back	Block1	2back/STIM_037.jpg	99
442.581	0.781	780.6	2back	Block1	2back/STIM_037.jpg	99
447.02	1.069	1069.1	2back	Block1	2back/STIM_038.jpg	100
450.816	0.592	592.2	2back	Block1	2back/STIM_038.jpg	100
454.513	1.117	1116.9	2back	Block1	2back/STIM_038.jpg	99
458.584	1.405	1404.7	2back	Block1	2back/STIM_039.jpg	100
463.322	0.861	861.1	2back	Block1	2back/STIM_039.jpg	100
467.271	0.918	918.4	2back	Block1	2back/STIM_039.jpg	99
471.284	0.561	561.4	0back	Block1	0back/STIM_000.jpg	100
475.799	0.677	676.7	0back	Block1	0back/STIM_000.jpg	99
479.862	0.511	510.6	0back	Block1	0back/STIM_000.jpg	100
483.157	0.432	432.4	0back	Block1	0back/STIM_001.jpg	99
487.521	0.458	458.2	0back	Block1	0back/STIM_001.jpg	99
491.367	0.481	481.2	0back	Block1	0back/STIM_001.jpg	99
495.569	0.416	416.3	0back	Block1	0back/STIM_002.jpg	99
498.082	0.536	536.4	0back	Block1	0back/STIM_002.jpg	99
500.648	0.49	489.9	0back	Block1	0back/STIM_002.jpg	99
504.815	0.596	596.5	0back	Block1	0back/STIM_003.jpg	100
509.173	0.49	489.6	0back	Block1	0back/STIM_003.jpg	100
512.96	0.698	698.0	0back	Block1	0back/STIM_003.jpg	99
516.785	0.514	513.9	0back	Block1	0back/STIM_004.jpg	100
520.215	0.406	406.2	0back	Block1	0back/STIM_004.jpg	100
522.824	0.404	404.2	0back	Block1	0back/STIM_004.jpg	100
527.086	0.782	781.8	0back	Block1	0back/STIM_005.jpg	100
530.258	0.51	510.4	0back	Block1	0back/STIM_005.jpg	100
533.235	0.521	521.3	0back	Block1	0back/STIM_005.jpg	100
536.012	0.592	591.6	0back	Block1	0back/STIM_006.jpg	99
538.925	0.738	738.0	0back	Block1	0back/STIM_006.jpg	99
543.183	0.729	729.3	0back	Block1	0back/STIM_006.jpg	99
546.378	0.747	746.8	0back	Block1	0back/STIM_007.jpg	100
550.792	0.722	722.0	0back	Block1	0back/STIM_007.jpg	100
553.709	0.697	697.3	0back	Block1	0back/STIM_007.jpg	99
556.86	0.471	471.2	0back	Block1	0back/STIM_008.jpg	99
559.988	0.665	665.4	0back	Block1	0back/STIM_008.jpg	99
563.044	0.443	442.8	0back	Block1	0back/STIM_008.jpg	99
566.603	0.418	417.7	0back	Block1	0back/STIM_009.jpg	100
570.298	0.46	459.9	0back	Block1	0back/STIM_009.jpg	100
573.204	0.587	586.8	0back	Block1	0back/STIM_009.jpg	100
577.501	0.692	692.4	0back	Block1	0back/STIM_010.jpg	100
581.966	0.745	745.4	0back	Block1	0back/STIM_010.jpg	100
586.115	0.738	737.7	0back	Block1	0back/STIM_010.jpg	100
590.428	0.504	504.3	0back	Block1	0back/STIM_011.jpg	99
594.562	0.73	730.1	0back	Block1	0back/STIM_011.jpg	99
598.061	0.589	588.8	0back	Block1	0back/STIM_011.jpg	99
600.658	0.629	628.9	0back	Block1	0back/STIM_012.jpg	99
603.546	0.505	504.6	0back	Block1	0back/STIM_012.jpg	99
608.037	0.71	710.2	0back	Block1	0back/STIM_012.jpg	99
612.72	0.565	564.8	0back	Block1	0back/STIM_013.jpg	99
615.57	0.797	797.1	0back	Block1	0back/STIM_013.jpg	100
618.56	0.78	779.9	0back	Block1	0back/STIM_013.jpg	100
621.57	0.438	438.3	0back	Block1	0back/STIM_014.jpg	99
624.349	0.536	535.5	0back	Block1	0back/STIM_014.jpg	100
628.146	0.489	488.8	0back	Block1	0back/STIM_014.jpg	100
631.267	0.583	582.8	0back	Block1	0back/STIM_015.jpg	99
634.812	0.583	582.6	0back	Block1	0back/STIM_015.jpg	99
638.522	0.702	702.2	0back	Block1	0back/STIM_015.jpg	100
641.984	0.534	534.5	0back	Block1	0back/STIM_016.jpg	99
645.946	0.546	545.9	0back	Block1	0back/STIM_016.jpg	100
648.604	0.533	532.8	0back	Block1	0back/STIM_016.jpg	100
651.952	0.507	507.4	0back	Block1	0back/STIM_017.jpg	99
655.024	0.803	803.0	0back	Block1	0back/STIM_017.jpg	99
658.652	0.572	572.1	0back	Block1	0back/STIM_017.jpg	99
661.237	0.708	708.2	0back	Block1	0back/STIM_018.jpg	100
663.999	0.736	736.0	0back	Block1	0back/STIM_018.jpg	100
667.662	0.72	719.7	0back	Block1	0back/STIM_018.jpg	99
671.405	0.642	642.4	0back	Block1	0back/STIM_019.jpg	99
674.755	0.513	512.7	0back	Block1	0back/STIM_019.jpg	99
677.812	0.586	586.2	0back	Block1	0back/STIM_019.jpg	100
681.915	0.588	587.6	2back	Block2	2back/STIM_000.jpg	100
685.103	0.756	755.9	2back	Block2	2back/STIM_000.jpg	99
688.039	0.645	644.8	2back	Block2	2back/STIM_000.jpg	100
692.027	0.73	730.2	2back	Block2	2back/STIM_001.jpg	100
696.067	0.963	963.3	2back	Block2	2back/STIM_001.jpg	100
700.029	0.702	701.5	2back	Block2	2back/STIM_001.jpg	100
702.851	1.178	1177.8	2back	Block2	2back/STIM_002.jpg	99
706.113	0.553	553.1	2back	Block2	2back/STIM_002.jpg	99
709.451	0.958	958.3	2back	Block2	2back/STIM_002.jpg	100
714.136	1.037	1037.1	2back	Block2	2back/STIM_003.jpg	99
718.62	0.513	513.4	2back	Block2	2back/STIM_003.jpg	99
721.313	0.89	890.0	2back	Block2	2back/STIM_003.jpg	100
726.042	0.963	962.8	2back	Block2	2back/STIM_004.jpg	100
729.505	0.499	498.7	2back	Block2	2back/STIM_004.jpg	99
733.345	0.579	579.0	2back	Block2	2back/STIM_004.jpg	100
736.078	0.563	562.7	2back	Block2	2back/STIM_005.jpg	100
740.042	1.104	1104.4	2back	Block2	2back/STIM_005.jpg	100
745.035	0.78	779.7	2back	Block2	2back/STIM_005.jpg	100
749.508	1.194	1194.5	2back	Block2	2back/STIM_006.jpg	100
753.905	0.949	949.3	2back	Block2	2back/STIM_006.jpg	100
758.035	0.931	930.9	2back	Block2	2back/STIM_006.jpg	99
761.227	0.676	675.6	2back	Block2	2back/STIM_007.jpg	99
765.709	0.863	863.0	2back	Block2	2back/STIM_007.jpg	99
769.396	0.768	768.4	2back	Block2	2back/STIM_007.jpg	99
773.897	1.121	1121.3	2back	Block2	2back/STIM_008.jpg	100
777.39	0.579	578.9	2back	Block2	2back/STIM_008.jpg	100
780.646	0.71	710.1	2back	Block2	2back/STIM_008.jpg	100
783.557	0.68	679.6	2back	Block2	2back/STIM_009.jpg	100
786.279	1.063	1063.3	2back	Block2	2back/STIM_009.jpg	100
790.83	0.572	572.4	2back	Block2	2back/STIM_009.jpg	99
795.198	0.941	941.3	2back	Block2	2back/STIM_010.jpg	99
798.333	0.714	713.6	2back	Block2	2back/STIM_010.jpg	100
802.834	0.983	983.2	2back	Block2	2back/STIM_010.jpg	100
806.146	1.15	1150.0	2back	Block2	2back/STIM_011.jpg	100
809.873	0.494	493.6	2back	Block2	2back/STIM_011.jpg	99
813.58	0.823	822.7	2back	Block2	2back/STIM_011.jpg	99
817.283	0.67	670.2	2back	Block2	2back/STIM_012.jpg	100
821.835	0.991	990.8	2back	Block2	2back/STIM_012.jpg	99
826.529	0.755	755.0	2back	Block2	2back/STIM_012.jpg	99
829.571	1.174	1173.8	2back	Block2	2back/STIM_013.jpg	100
832.991	1.018	1017.9	2back	Block2	2back/STIM_013.jpg	100
837.308	0.91	909.5	2back	Block2	2back/STIM_013.jpg	100
840.471	0.862	862.1	2back	Block2	2back/STIM_014.jpg	100
845.067	1.036	1035.6	2back	Block2	2back/STIM_014.jpg	99
848.669	1.051	1051.1	2back	Block2	2back/STIM_014.jpg	99
853.008	0.978	977.5	2back	Block2	2back/STIM_015.jpg	99
856.009	0.842	842.0	2back	Block2	2back/STIM_015.jpg	100
859.494	0.635	634.6	2back	Block2	2back/STIM_015.jpg	100
862.463	0.576	575.8	2back	Block2	2back/STIM_016.jpg	100
866.833	0.821	820.6	2back	Block2	2back/STIM_016.jpg	100
870.822	0.63	629.7	2back	Block2	2back/STIM_016.jpg	99
873.788	1.077	1077.1	2back	Block2	2back/STIM_017.jpg	100
877.84	0.885	884.7	2back	Block2	2back/STIM_017.jpg	100
880.912	0.757	756.6	2back	Block2	2back/STIM_017.jpg	99
885.26	1.131	1130.6	2back	Block2	2back/STIM_018.jpg	100
888.457	0.492	492.5	2back	Block2	2back/STIM_018.jpg	99
891.503	0.904	904.0	2back	Block2	2back/STIM_018.jpg	100
895.0	0.76	760.2	2back	Block2	2back/STIM_019.jpg	99
897.768	0.788	788.4	2back	Block2	2back/STIM_019.jpg	100
901.227	0.722	722.1	2back	Block2	2back/STIM_019.jpg	99
905.376	0.635	634.8	2back	Block2	2back/STIM_020.jpg	99
909.739	0.628	627.6	2back	Block2	2back/STIM_020.jpg	99
913.832	0.5	499.5	2back	Block2	2back/STIM_020.jpg	99
918.307	0.614	614.5	2back	Block2	2back/STIM_021.jpg	100
921.779	0.932	932.3	2back	Block2	2back/STIM_021.jpg	99
924.725	1.015	1015.4	2back	Block2	2back/STIM_021.jpg	99
928.343	0.639	639.1	2back	Block2	2back/STIM_022.jpg	100
932.416	0.589	589.0	2back	Block2	2back/STIM_022.jpg	100
935.661	0.862	862.4	2back	Block2	2back/STIM_022.jpg	100
939.591	1.114	1113.8	2back	Block2	2back/STIM_023.jpg	99
944.232	0.842	842.0	2back	Block2	2back/STIM_023.jpg	100
947.426	0.725	725.1	2back	Block2	2back/STIM_023.jpg	99
950.654	0.785	785.0	2back	Block2	2back/STIM_024.jpg	100
955.002	0.983	983.2	2back	Block2	2back/STIM_024.jpg	100
959.526	0.69	689.8	2back	Block2	2back/STIM_024.jpg	100
963.399	0.747	747.3	2back	Block2	2back/STIM_025.jpg	99
966.619	0.681	681.4	2back	Block2	2back/STIM_025.jpg	99
970.37	1.035	1034.9	2back	Block2	2back/STIM_025.jpg	100
974.187	0.764	764.2	2back	Block2	2back/STIM_026.jpg	100
978.71	0.699	698.7	2back	Block2	2back/STIM_026.jpg	100
982.899	0.747	746.6	2back	Block2	2back/STIM_026.jpg	99
985.908	1.122	1121.9	2back	Block2	2back/STIM_027.jpg	100
990.696	0.892	891.8	2back	Block2	2back/STIM_027.jpg	99
994.944	1.05	1049.9	2back	Block2	2back/STIM_027.jpg	99
998.796	1.104	1103.5	2back	Block2	2back/STIM_028.jpg	100
1002.197	0.594	593.8	2back	Block2	2back/STIM_028.jpg	99
1006.536	0.997	997.1	2back	Block2	2back/STIM_028.jpg	99
1009.539	0.666	665.9	2back	Block2	2back/STIM_029.jpg	100
1012.538	0.671	670.6	2back	Block2	2back/STIM_029.jpg	100
1015.725	0.77	770.3	2back	Block2	2back/STIM_029.jpg	100
1019.36	0.799	798.7	2back	Block2	2back/STIM_030.jpg	99
1023.868	0.867	866.9	2back	Block2	2back/STIM_030.jpg	99
1027.207	0.52	519.8	2back	Block2	2back/STIM_030.jpg	99
1031.442	0.772	772.0	2back	Block2	2back/STIM_031.jpg	100
1036.03	0.636	635.7	2back	Block2	2back/STIM_031.jpg	100
1039.491	0.722	722.0	2back	Block2	2back/STIM_031.jpg	99
1043.583	0.873	872.9	2back	Block2	2back/STIM_032.jpg	100
1048.227	0.859	858.9	2back	Block2	2back/STIM_032.jpg	99
1052.691	0.684	684.3	2back	Block2	2back/STIM_032.jpg	100
1057.291	1.03	1029.6	2back	Block2	2back/STIM_033.jpg	100
1061.45	0.49	489.6	2back	Block2	2back/STIM_033.jpg	100
1065.562	0.866	866.3	2back	Block2	2back/STIM_033.jpg	100
1068.947	0.759	758.9	2back	Block2	2back/STIM_034.jpg	100
1073.009	0.52	519.5	2back	Block2	2back/STIM_034.jpg	99
1075.752	0.727	727.3	2back	Block2	2back/STIM_034.jpg	100
1079.279	0.884	883.6	2back	Block2	2back/STIM_035.jpg	100
1083.868	0.876	875.8	2back	Block2	2back/STIM_035.jpg	100
1088.391	0.57	570.5	2back	Block2	2back/STIM_035.jpg	99
1092.364	0.609	608.8	2back	Block2	2back/STIM_036.jpg	100
1095.865	0.649	649.0	2back	Block2	2back/STIM_036.jpg	99
1098.595	0.535	535.4	2back	Block2	2back/STIM_036.jpg	100
1101.191	0.924	924.1	2back	Block2	2back/STIM_037.jpg	100
1104.761	1.087	1086.9	2back	Block2	2back/STIM_037.jpg	100
1109.37	0.762	762.4	2back	Block2	2back/STIM_037.jpg	100
1113.015	0.959	958.6	2back	Block2	2back/STIM_038.jpg	100
1116.233	1.053	1052.6	2back	Block2	2back/STIM_038.jpg	100
1119.968	0.464	464.2	2back	Block2	2back/STIM_038.jpg	99
1122.488	0.811	810.8	2back	Block2	2back/STIM_039.jpg	99
1126.895	0.882	881.8	2back	Block2	2back/STIM_039.jpg	99
1130.874	1.05	1049.8	2back	Block2	2back/STIM_039.jpg	100
1135.484	0.564	564.3	0back	Block2	0back/STIM_000.jpg	99
1139.622	0.43	429.8	0back	Block2	0back/STIM_000.jpg	99
1143.39	0.598	597.6	0back	Block2	0back/STIM_000.jpg	99
1146.791	0.499	498.7	0back	Block2	0back/STIM_001.jpg	99
1150.419	0.538	538.1	0back	Block2	0back/STIM_001.jpg	100
1154.501	0.795	795.1	0back	Block2	0back/STIM_001.jpg	99
1157.935	0.517	516.8	0back	Block2	0back/STIM_002.jpg	99
1161.98	0.437	436.6	0back	Block2	0back/STIM_002.jpg	99
1164.904	0.47	469.5	0back	Block2	0back/STIM_002.jpg	100
1168.117	0.696	696.5	0back	Block2	0back/STIM_003.jpg	100
1171.776	0.432	432.3	0back	Block2	0back/STIM_003.jpg	100
1175.765	0.78	780.0	0back	Block2	0back/STIM_003.jpg	99
1179.877	0.646	646.2	0back	Block2	0back/STIM_004.jpg	100
1183.961	0.794	793.7	0back	Block2	0back/STIM_004.jpg	99
1187.206	0.509	509.1	0back	Block2	0back/STIM_004.jpg	99
1191.578	0.522	522.5	0back	Block2	0back/STIM_005.jpg	100
1194.115	0.419	418.6	0back	Block2	0back/STIM_005.jpg	99
1196.729	0.505	505.0	0back	Block2	0back/STIM_005.jpg	99
1201.185	0.45	450.3	0back	Block2	0back/STIM_006.jpg	100
1205.617	0.571	570.7	0back	Block2	0back/STIM_006.jpg	99
1208.936	0.414	414.5	0back	Block2	0back/STIM_006.jpg	100
1212.671	0.793	793.4	0back	Block2	0back/STIM_007.jpg	99
1215.518	0.485	485.2	0back	Block2	0back/STIM_007.jpg	100
1218.178	0.64	639.8	0back	Block2	0back/STIM_007.jpg	100
1221.857	0.575	575.0	0back	Block2	0back/STIM_008.jpg	99
1226.182	0.486	485.5	0back	Block2	0back/STIM_008.jpg	99
1229.842	0.766	765.7	0back	Block2	0back/STIM_008.jpg	99
1233.691	0.452	451.6	0back	Block2	0back/STIM_009.jpg	99
1237.168	0.559	559.2	0back	Block2	0back/STIM_009.jpg	99
1240.823	0.534	534.5	0back	Block2	0back/STIM_009.jpg	99
1243.732	0.625	625.1	0back	Block2	0back/STIM_010.jpg	100
1246.653	0.793	793.0	0back	Block2	0back/STIM_010.jpg	99
1250.69	0.625	624.8	0back	Block2	0back/STIM_010.jpg	100
1253.7	0.583	582.6	0back	Block2	0back/STIM_011.jpg	100
1256.597	0.475	474.8	0back	Block2	0back/STIM_011.jpg	100
1260.234	0.753	753.1	0back	Block2	0back/STIM_011.jpg	100
1263.335	0.593	592.6	0back	Block2	0back/STIM_012.jpg	99
1267.066	0.616	616.5	0back	Block2	0back/STIM_012.jpg	100
1270.223	0.68	679.7	0back	Block2	0back/STIM_012.jpg	99
1273.491	0.724	723.5	0back	Block2	0back/STIM_013.jpg	100
1278.079	0.558	557.5	0back	Block2	0back/STIM_013.jpg	99
1282.017	0.801	801.0	0back	Block2	0back/STIM_013.jpg	100
1286.308	0.744	744.2	0back	Block2	0back/STIM_014.jpg	100
1290.791	0.737	736.6	0back	Block2	0back/STIM_014.jpg	99
1293.543	0.654	653.7	0back	Block2	0back/STIM_014.jpg	100
1297.952	0.73	730.5	0back	Block2	0back/STIM_015.jpg	100
1301.859	0.535	535.1	0back	Block2	0back/STIM_015.jpg	99
1305.098	0.625	625.1	0back	Block2	0back/STIM_015.jpg	100
1308.54	0.718	718.5	0back	Block2	0back/STIM_016.jpg	99
1312.489	0.575	574.9	0back	Block2	0back/STIM_016.jpg	99
1315.156	0.514	514.3	0back	Block2	0back/STIM_016.jpg	100
1319.132	0.47	469.5	0back	Block2	0back/STIM_017.jpg	100
1322.309	0.768	767.5	0back	Block2	0back/STIM_017.jpg	99
1325.218	0.643	642.7	0back	Block2	0back/STIM_017.jpg	100
1329.77	0.42	419.6	0back	Block2	0back/STIM_018.jpg	99
1332.31	0.682	681.8	0back	Block2	0back/STIM_018.jpg	99
1335.316	0.637	637.3	0back	Block2	0back/STIM_018.jpg	99
1338.918	0.632	631.9	0back	Block2	0back/STIM_019.jpg	99
1342.237	0.786	786.1	0back	Block2	0back/STIM_019.jpg	100
1346.986	0.517	516.6	0back	Block2	0back/STIM_019.jpg	100
1350.775	0.428	428.5	2back	Block3	2back/STIM_000.jpg	99
1354.335	0.877	876.7	2back	Block3	2back/STIM_000.jpg	99
1358.8	0.592	592.1	2back	Block3	2back/STIM_000.jpg	99
1362.484	0.886	886.2	2back	Block3	2back/STIM_001.jpg	100
1366.69	0.882	882.5	2back	Block3	2back/STIM_001.jpg	100
1369.865	0.66	660.5	2back	Block3	2back/STIM_001.jpg	99
1374.405	0.743	743.1	2back	Block3	2back/STIM_002.jpg	99
1377.43	0.672	672.4	2back	Block3	2back/STIM_002.jpg	100
1382.036	0.72	720.1	2back	Block3	2back/STIM_002.jpg	100
1385.732	0.533	533.4	2back	Block3	2back/STIM_003.jpg	100
1389.112	0.426	425.7	2back	Block3	2back/STIM_003.jpg	99
1392.005	0.594	593.6	2back	Block3	2back/STIM_003.jpg	100
1395.79	0.877	877.3	2back	Block3	2back/STIM_004.jpg	99
1399.035	0.636	635.9	2back	Block3	2back/STIM_004.jpg	99
1402.286	0.908	908.5	2back	Block3	2back/STIM_004.jpg	99
1407.048	0.87	870.5	2back	Block3	2back/STIM_005.jpg	99
1410.92	0.789	788.7	2back	Block3	2back/STIM_005.jpg	100
1415.582	0.43	430.4	2back	Block3	2back/STIM_005.jpg	100
1419.527	0.714	714.2	2back	Block3	2back/STIM_006.jpg	100
1423.427	0.465	464.6	2back	Block3	2back/STIM_006.jpg	100
1427.847	0.764	763.6	2back	Block3	2back/STIM_006.jpg	100
1432.093	0.971	970.7	2back	Block3	2back/STIM_007.jpg	100
1435.235	0.544	544.0	2back	Block3	2back/STIM_007.jpg	100
1438.182	0.558	558.2	2back	Block3	2back/STIM_007.jpg	100
1441.492	0.804	803.9	2back	Block3	2back/STIM_008.jpg	100
1444.867	0.698	698.1	2back	Block3	2back/STIM_008.jpg	99
1449.502	0.893	893.0	2back	Block3	2back/STIM_008.jpg	99
1454.187	0.554	553.5	2back	Block3	2back/STIM_009.jpg	99
1457.09	0.555	555.3	2back	Block3	2back/STIM_009.jpg	100
1460.91	0.722	721.5	2back	Block3	2back/STIM_009.jpg	99
1464.028	0.749	748.8	2back	Block3	2back/STIM_010.jpg	99
1467.304	0.848	848.0	2back	Block3	2back/STIM_010.jpg	100
1470.488	0.669	669.1	2back	Block3	2back/STIM_010.jpg	100
1473.669	0.679	679.0	2back	Block3	2back/STIM_011.jpg	100
1477.453	0.871	870.7	2back	Block3	2back/STIM_011.jpg	99
1481.316	0.841	840.7	2back	Block3	2back/STIM_011.jpg	99
1484.895	0.822	822.0	2back	Block3	2back/STIM_012.jpg	100
1488.118	0.43	430.2	2back	Block3	2back/STIM_012.jpg	100
1491.326	0.524	523.8	2back	Block3	2back/STIM_012.jpg	100
1495.646	0.753	752.9	2back	Block3	2back/STIM_013.jpg	100
1500.266	0.473	473.3	2back	Block3	2back/STIM_013.jpg	100
1502.97	0.446	446.3	2back	Block3	2back/STIM_013.jpg	100
1505.875	0.727	727.2	2back	Block3	2back/STIM_014.jpg	100
1509.912	0.77	770.3	2back	Block3	2back/STIM_014.jpg	99
1513.996	0.526	525.7	2back	Block3	2back/STIM_014.jpg	99
1517.086	0.832	831.9	2back	Block3	2back/STIM_015.jpg	99
1521.645	0.516	516.5	2back	Block3	2back/STIM_015.jpg	99
1525.897	0.933	933.2	2back	Block3	2back/STIM_015.jpg	99
1529.394	0.608	607.7	2back	Block3	2back/STIM_016.jpg	99
1533.694	0.449	449.3	2back	Block3	2back/STIM_016.jpg	99
1536.552	0.533	533.3	2back	Block3	2back/STIM_016.jpg	100
1539.753	0.72	719.8	2back	Block3	2back/STIM_017.jpg	100
1544.059	0.618	617.9	2back	Block3	2back/STIM_017.jpg	99
1547.79	0.609	609.0	2back	Block3	2back/STIM_017.jpg	100
1550.846	0.739	739.2	2back	Block3	2back/STIM_018.jpg	100
1555.094	0.953	952.8	2back	Block3	2back/STIM_018.jpg	99
1558.552	0.965	965.3	2back	Block3	2back/STIM_018.jpg	100
1562.308	0.818	817.8	2back	Block3	2back/STIM_019.jpg	99
1566.671	0.947	946.8	2back	Block3	2back/STIM_019.jpg	99
1570.512	0.447	447.4	2back	Block3	2back/STIM_019.jpg	99
1573.244	0.816	816.1	2back	Block3	2back/STIM_020.jpg	100
1576.344	0.744	744.0	2back	Block3	2back/STIM_020.jpg	100
1580.84	0.5	499.7	2back	Block3	2back/STIM_020.jpg	100
1584.87	0.637	637.2	2back	Block3	2back/STIM_021.jpg	99
1588.767	0.9	900.4	2back	Block3	2back/STIM_021.jpg	100
1592.893	0.486	485.9	2back	Block3	2back/STIM_021.jpg	99
1595.903	0.481	481.1	2back	Block3	2back/STIM_022.jpg	100
1599.412	0.713	712.9	2back	Block3	2back/STIM_022.jpg	99
1603.208	0.744	744.5	2back	Block3	2back/STIM_022.jpg	100
1606.113	0.968	967.6	2back	Block3	2back/STIM_023.jpg	99
1609.707	0.759	758.7	2back	Block3	2back/STIM_023.jpg	100
1613.501	0.926	926.3	2back	Block3	2back/STIM_023.jpg	99
1618.389	0.464	463.5	2back	Block3	2back/STIM_024.jpg	100
1621.888	0.926	925.9	2back	Block3	2back/STIM_024.jpg	99
1625.239	0.652	651.6	2back	Block3	2back/STIM_024.jpg	100
1629.173	0.963	962.8	2back	Block3	2back/STIM_025.jpg	99
1632.246	0.544	544.2	2back	Block3	2back/STIM_025.jpg	99
1635.123	0.731	731.3	2back	Block3	2back/STIM_025.jpg	100
1639.315	0.824	824.0	2back	Block3	2back/STIM_026.jpg	99
1642.791	0.594	593.8	2back	Block3	2back/STIM_026.jpg	99
1646.766	0.545	545.1	2back	Block3	2back/STIM_026.jpg	100
1649.37	0.847	847.0	2back	Block3	2back/STIM_027.jpg	100
1652.845	0.48	479.7	2back	Block3	2back/STIM_027.jpg	99
1656.403	0.458	458.0	2back	Block3	2back/STIM_027.jpg	99
1660.579	0.841	841.2	2back	Block3	2back/STIM_028.jpg	100
1663.605	0.695	694.7	2back	Block3	2back/STIM_028.jpg	99
1667.66	0.725	724.6	2back	Block3	2back/STIM_028.jpg	100
1671.524	0.892	892.0	2back	Block3	2back/STIM_029.jpg	99
1675.78	0.913	912.6	2back	Block3	2back/STIM_029.jpg	99
1680.583	0.705	704.8	2back	Block3	2back/STIM_029.jpg	99
1684.312	0.916	916.0	2back	Block3	2back/STIM_030.jpg	99
1687.598	0.427	427.2	2back	Block3	2back/STIM_030.jpg	99
1690.954	0.446	446.4	2back	Block3	2back/STIM_030.jpg	99
1694.878	0.46	460.3	2back	Block3	2back/STIM_031.jpg	100
1699.181	0.609	609.2	2back	Block3	2back/STIM_031.jpg	100
1702.667	0.698	697.6	2back	Block3	2back/STIM_031.jpg	99
1707.183	0.686	685.9	2back	Block3	2back/STIM_032.jpg	99
1711.594	0.531	531.4	2back	Block3	2back/STIM_032.jpg	100
1715.111	0.439	439.3	2back	Block3	2back/STIM_032.jpg	100
1718.477	0.898	897.6	2back	Block3	2back/STIM_033.jpg	100
1721.873	0.965	965.1	2back	Block3	2back/STIM_033.jpg	99
1725.404	0.774	773.8	2back	Block3	2back/STIM_033.jpg	99
1729.155	0.924	923.9	2back	Block3	2back/STIM_034.jpg	99
1732.906	0.855	855.2	2back	Block3	2back/STIM_034.jpg	99
1736.35	0.813	813.0	2back	Block3	2back/STIM_034.jpg	99
1740.56	0.726	726.2	2back	Block3	2back/STIM_035.jpg	100
1743.351	0.691	691.3	2back	Block3	2back/STIM_035.jpg	100
1747.425	0.787	787.1	2back	Block3	2back/STIM_035.jpg	100
1751.817	0.478	477.7	2back	Block3	2back/STIM_036.jpg	99
1754.439	0.917	916.9	2back	Block3	2back/STIM_036.jpg	99
1757.973	0.505	504.9	2back	Block3	2back/STIM_036.jpg	100
1762.203	0.46	460.4	2back	Block3	2back/STIM_037.jpg	100
1766.325	0.604	604.2	2back	Block3	2back/STIM_037.jpg	100
1769.682	0.804	803.7	2back	Block3	2back/STIM_037.jpg	99
1774.416	0.759	759.4	2back	Block3	2back/STIM_038.jpg	100
1777.649	0.858	858.0	2back	Block3	2back/STIM_038.jpg	100
1782.15	0.882	881.5	2back	Block3	2back/STIM_038.jpg	99
1786.072	0.74	739.5	2back	Block3	2back/STIM_039.jpg	99
1789.446	0.425	425.0	2back	Block3	2back/STIM_039.jpg	99
1793.728	0.569	569.3	2back	Block3	2back/STIM_039.jpg	100
1798.196	0.532	532.4	0back	Block3	0back/STIM_000.jpg	100
1801.9	0.59	590.3	0back	Block3	0back/STIM_000.jpg	100
1804.577	0.443	443.2	0back	Block3	0back/STIM_000.jpg	99
1808.144	0.458	458.5	0back	Block3	0back/STIM_001.jpg	100
1811.023	0.737	737.0	0back	Block3	0back/STIM_001.jpg	99
1814.341	0.583	583.4	0back	Block3	0back/STIM_001.jpg	99
1818.491	0.718	718.2	0back	Block3	0back/STIM_002.jpg	99
1821.856	0.501	501.3	0back	Block3	0back/STIM_002.jpg	100
1825.381	0.537	537.4	0back	Block3	0back/STIM_002.jpg	100
1829.29	0.517	516.7	0back	Block3	0back/STIM_003.jpg	99
1832.971	0.703	703.1	0back	Block3	0back/STIM_003.jpg	99
1837.512	0.494	494.0	0back	Block3	0back/STIM_003.jpg	100
1841.703	0.576	576.4	0back	Block3	0back/STIM_004.jpg	100
1844.79	0.66	659.8	0back	Block3	0back/STIM_004.jpg	99
1849.2	0.566	566.3	0back	Block3	0back/STIM_004.jpg	100
1853.697	0.624	623.8	0back	Block3	0back/STIM_005.jpg	99
1857.677	0.412	411.8	0back	Block3	0back/STIM_005.jpg	100
1860.942	0.584	583.9	0back	Block3	0back/STIM_005.jpg	99
1863.599	0.566	566.4	0back	Block3	0back/STIM_006.jpg	100
1867.253	0.78	779.8	0back	Block3	0back/STIM_006.jpg	99
1870.45	0.788	787.5	0back	Block3	0back/STIM_006.jpg	99
1874.95	0.731	730.7	0back	Block3	0back/STIM_007.jpg	99
1879.382	0.52	520.5	0back	Block3	0back/STIM_007.jpg	100
1883.611	0.724	724.4	0back	Block3	0back/STIM_007.jpg	100
1886.568	0.516	515.5	0back	Block3	0back/STIM_008.jpg	99
1890.04	0.753	752.7	0back	Block3	0back/STIM_008.jpg	100
1892.963	0.642	642.4	0back	Block3	0back/STIM_008.jpg	100
1895.988	0.552	552.3	0back	Block3	0back/STIM_009.jpg	99
1899.477	0.67	669.9	0back	Block3	0back/STIM_009.jpg	99
1903.763	0.461	461.1	0back	Block3	0back/STIM_009.jpg	100
1906.775	0.765	765.2	0back	Block3	0back/STIM_010.jpg	100
1911.373	0.424	424.2	0back	Block3	0back/STIM_010.jpg	99
1914.319	0.599	599.1	0back	Block3	0back/STIM_010.jpg	99
1918.307	0.601	600.9	0back	Block3	0back/STIM_011.jpg	100
1922.271	0.625	625.1	0back	Block3	0back/STIM_011.jpg	99
1925.8	0.799	798.9	0back	Block3	0back/STIM_011.jpg	99
1930.119	0.786	785.7	0back	Block3	0back/STIM_012.jpg	100
1934.854	0.611	610.6	0back	Block3	0back/STIM_012.jpg	100
1937.511	0.752	752.2	0back	Block3	0back/STIM_012.jpg	99
1940.322	0.548	547.6	0back	Block3	0back/STIM_013.jpg	99
1943.664	0.75	750.5	0back	Block3	0back/STIM_013.jpg	100
1948.103	0.795	795.0	0back	Block3	0back/STIM_013.jpg	99
1952.158	0.68	680.0	0back	Block3	0back/STIM_014.jpg	99
1956.025	0.5	500.3	0back	Block3	0back/STIM_014.jpg	99
1958.809	0.795	794.7	0back	Block3	0back/STIM_014.jpg	99
1962.491	0.704	703.5	0back	Block3	0back/STIM_015.jpg	100
1965.56	0.424	424.5	0back	Block3	0back/STIM_015.jpg	100
1969.144	0.729	728.7	0back	Block3	0back/STIM_015.jpg	99
1973.58	0.803	802.9	0back	Block3	0back/STIM_016.jpg	100
1976.858	0.48	479.7	0back	Block3	0back/STIM_016.jpg	100
1980.046	0.56	560.4	0back	Block3	0back/STIM_016.jpg	99
1984.506	0.596	596.5	0back	Block3	0back/STIM_017.jpg	100
1987.147	0.556	555.6	0back	Block3	0back/STIM_017.jpg	100
1991.44	0.703	702.8	0back	Block3	0back/STIM_017.jpg	99
1995.62	0.56	559.8	0back	Block3	0back/STIM_018.jpg	100
1999.439	0.763	763.0	0back	Block3	0back/STIM_018.jpg	100
2003.561	0.795	794.8	0back	Block3	0back/STIM_018.jpg	100
2006.812	0.739	738.7	0back	Block3	0back/STIM_019.jpg	100
2009.857	0.538	537.9	0back	Block3	0back/STIM_019.jpg	99
2013.745	0.699	699.3	0back	Block3	0back/STIM_019.jpg	100
2016.671	0.678	677.5	2back	Block4	2back/STIM_000.jpg	99
2021.28	0.635	635.3	2back	Block4	2back/STIM_000.jpg	99
2025.405	0.576	576.2	2back	Block4	2back/STIM_000.jpg	99
2029.863	0.899	898.7	2back	Block4	2back/STIM_001.jpg	100
2034.335	0.581	581.3	2back	Block4	2back/STIM_001.jpg	100
2037.861	0.822	821.9	2back	Block4	2back/STIM_001.jpg	99
2041.904	0.867	866.8	2back	Block4	2back/STIM_002.jpg	99
2046.186	0.616	616.0	2back	Block4	2back/STIM_002.jpg	99
2049.147	0.731	731.1	2back	Block4	2back/STIM_002.jpg	100
2052.393	0.932	931.6	2back	Block4	2back/STIM_003.jpg	100
2055.931	0.613	612.6	2back	Block4	2back/STIM_003.jpg	99
2058.547	0.843	843.1	2back	Block4	2back/STIM_003.jpg	99
2062.311	0.892	891.5	2back	Block4	2back/STIM_004.jpg	99
2066.416	0.455	455.3	2back	Block4	2back/STIM_004.jpg	99
2069.845	0.82	819.6	2back	Block4	2back/STIM_004.jpg	99
2073.702	0.804	804.5	2back	Block4	2back/STIM_005.jpg	100
2077.329	0.488	488.0	2back	Block4	2back/STIM_005.jpg	100
2079.879	0.893	892.8	2back	Block4	2back/STIM_005.jpg	100
2083.129	0.871	870.7	2back	Block4	2back/STIM_006.jpg	99
2086.181	0.464	463.9	2back	Block4	2back/STIM_006.jpg	100
2089.068	0.537	536.8	2back	Block4	2back/STIM_006.jpg	100
2093.144	0.819	818.9	2back	Block4	2back/STIM_007.jpg	99
2097.523	0.604	603.6	2back	Block4	2back/STIM_007.jpg	99
2101.343	0.613	613.1	2back	Block4	2back/STIM_007.jpg	99
2105.918	0.95	949.6	2back	Block4	2back/STIM_008.jpg	100
2109.322	0.886	886.4	2back	Block4	2back/STIM_008.jpg	100
2113.055	0.945	945.0	2back	Block4	2back/STIM_008.jpg	100
2116.424	0.544	543.9	2back	Block4	2back/STIM_009.jpg	100
2120.346	0.843	843.1	2back	Block4	2back/STIM_009.jpg	100
2124.712	0.862	861.7	2back	Block4	2back/STIM_009.jpg	100
2128.035	0.546	546.1	2back	Block4	2back/STIM_010.jpg	99
2131.585	0.573	573.2	2back	Block4	2back/STIM_010.jpg	99
2135.73	0.529	529.1	2back	Block4	2back/STIM_010.jpg	100
2139.529	0.676	675.6	2back	Block4	2back/STIM_011.jpg	100
2143.367	0.896	895.6	2back	Block4	2back/STIM_011.jpg	100
2147.124	0.802	802.3	2back	Block4	2back/STIM_011.jpg	100
2151.613	0.48	480.3	2back	Block4	2back/STIM_012.jpg	99
2154.922	0.667	667.0	2back	Block4	2back/STIM_012.jpg	100
2159.466	0.897	897.2	2back	Block4	2back/STIM_012.jpg	100
2162.899	0.676	676.2	2back	Block4	2back/STIM_013.jpg	100
2166.546	0.48	479.7	2back	Block4	2back/STIM_013.jpg	100
2169.569	0.494	493.8	2back	Block4	2back/STIM_013.jpg	99
2172.246	0.71	710.3	2back	Block4	2back/STIM_014.jpg	99
2176.091	0.542	541.5	2back	Block4	2back/STIM_014.jpg	100
2180.059	0.78	779.9	2back	Block4	2back/STIM_014.jpg	99
2183.201	0.467	466.7	2back	Block4	2back/STIM_015.jpg	99
2185.746	0.708	708.5	2back	Block4	2back/STIM_015.jpg	100
2188.791	0.468	468.4	2back	Block4	2back/STIM_015.jpg	100
2192.958	0.888	888.1	2back	Block4	2back/STIM_016.jpg	99
2196.073	0.515	514.8	2back	Block4	2back/STIM_016.jpg	100
2200.147	0.974	974.5	2back	Block4	2back/STIM_016.jpg	99
2204.654	0.979	979.4	2back	Block4	2back/STIM_017.jpg	100
2208.7	0.602	601.5	2back	Block4	2back/STIM_017.jpg	100
2213.101	0.504	504.0	2back	Block4	2back/STIM_017.jpg	99
2216.567	0.567	567.0	2back	Block4	2back/STIM_018.jpg	100
2219.817	0.74	739.5	2back	Block4	2back/STIM_018.jpg	99
2223.914	0.865	865.2	2back	Block4	2back/STIM_018.jpg	100
2227.031	0.474	473.7	2back	Block4	2back/STIM_019.jpg	99
2230.644	0.859	858.8	2back	Block4	2back/STIM_019.jpg	99
2234.262	0.965	965.0	2back	Block4	2back/STIM_019.jpg	99
2238.313	0.716	716.4	2back	Block4	2back/STIM_020.jpg	99
2241.722	0.72	719.9	2back	Block4	2back/STIM_020.jpg	99
2245.646	0.887	886.7	2back	Block4	2back/STIM_020.jpg	99
2248.711	0.627	627.1	2back	Block4	2back/STIM_021.jpg	100
2252.679	0.846	845.6	2back	Block4	2back/STIM_021.jpg	100
2256.965	0.702	702.3	2back	Block4	2back/STIM_021.jpg	99
2260.62	0.613	612.8	2back	Block4	2back/STIM_022.jpg	99
2264.951	0.573	573.0	2back	Block4	2back/STIM_022.jpg	99
2267.795	0.854	853.7	2back	Block4	2back/STIM_022.jpg	100
2271.785	0.521	521.3	2back	Block4	2back/STIM_023.jpg	99
2274.333	0.453	452.9	2back	Block4	2back/STIM_023.jpg	99
2277.689	0.936	936.3	2back	Block4	2back/STIM_023.jpg	100
2281.54	0.755	755.3	2back	Block4	2back/STIM_024.jpg	99
2284.92	0.867	867.0	2back	Block4	2back/STIM_024.jpg	99
2289.709	0.867	867.0	2back	Block4	2back/STIM_024.jpg	99
2293.42	0.567	567.0	2back	Block4	2back/STIM_025.jpg	100
2297.141	0.953	952.6	2back	Block4	2back/STIM_025.jpg	99
2301.987	0.798	798.1	2back	Block4	2back/STIM_025.jpg	100
2305.593	0.588	587.9	2back	Block4	2back/STIM_026.jpg	100
2309.286	0.637	637.2	2back	Block4	2back/STIM_026.jpg	99
2312.544	0.588	588.3	2back	Block4	2back/STIM_026.jpg	100
2316.784	0.765	764.7	2back	Block4	2back/STIM_027.jpg	99
2321.117	0.47	469.5	2back	Block4	2back/STIM_027.jpg	99
2324.022	0.701	701.3	2back	Block4	2back/STIM_027.jpg	100
2328.087	0.49	490.5	2back	Block4	2back/STIM_028.jpg	99
2331.8	0.722	722.3	2back	Block4	2back/STIM_028.jpg	100
2334.815	0.61	610.1	2back	Block4	2back/STIM_028.jpg	100
2338.776	0.621	621.0	2back	Block4	2back/STIM_029.jpg	99
2343.173	0.802	801.6	2back	Block4	2back/STIM_029.jpg	99
2346.963	0.583	582.8	2back	Block4	2back/STIM_029.jpg	99
2350.007	0.786	785.9	2back	Block4	2back/STIM_030.jpg	99
2352.815	0.91	910.3	2back	Block4	2back/STIM_030.jpg	99
2357.358	0.787	787.3	2back	Block4	2back/STIM_030.jpg	100
2360.648	0.488	487.6	2back	Block4	2back/STIM_031.jpg	99
2364.222	0.449	449.3	2back	Block4	2back/STIM_031.jpg	99
2367.217	0.637	636.7	2back	Block4	2back/STIM_031.jpg	99
2371.026	0.448	447.8	2back	Block4	2back/STIM_032.jpg	99
2375.194	0.985	984.9	2back	Block4	2back/STIM_032.jpg	100
2379.199	0.902	901.7	2back	Block4	2back/STIM_032.jpg	99
2383.877	0.883	883.2	2back	Block4	2back/STIM_033.jpg	99
2388.423	0.484	483.5	2back	Block4	2back/STIM_033.jpg	100
2392.045	0.764	763.9	2back	Block4	2back/STIM_033.jpg	100
2396.442	0.853	853.2	2back	Block4	2back/STIM_034.jpg	99
2399.9	0.594	593.9	2back	Block4	2back/STIM_034.jpg	100
2402.739	0.904	903.5	2back	Block4	2back/STIM_034.jpg	99
2406.366	0.611	611.0	2back	Block4	2back/STIM_035.jpg	100
2410.384	0.437	437.3	2back	Block4	2back/STIM_035.jpg	100
2413.5	0.973	972.6	2back	Block4	2back/STIM_035.jpg	99
2417.81	0.688	688.3	2back	Block4	2back/STIM_036.jpg	99
2420.895	0.622	621.6	2back	Block4	2back/STIM_036.jpg	99
2423.934	0.867	866.9	2back	Block4	2back/STIM_036.jpg	99
2428.478	0.46	460.0	2back	Block4	2back/STIM_037.jpg	100
2431.604	0.81	810.1	2back	Block4	2back/STIM_037.jpg	99
2435.96	0.725	725.1	2back	Block4	2back/STIM_037.jpg	100
2440.412	0.626	625.7	2back	Block4	2back/STIM_038.jpg	99
2444.477	0.939	938.9	2back	Block4	2back/STIM_038.jpg	99
2448.755	0.59	589.6	2back	Block4	2back/STIM_038.jpg	99
2452.742	0.676	675.5	2back	Block4	2back/STIM_039.jpg	100
2457.033	0.817	817.4	2back	Block4	2back/STIM_039.jpg	100
2460.833	0.466	466.4	2back	Block4	2back/STIM_039.jpg	100
2465.065	0.676	676.2	0back	Block4	0back/STIM_000.jpg	100
2468.385	0.714	713.7	0back	Block4	0back/STIM_000.jpg	100
2472.636	0.541	540.6	0back	Block4	0back/STIM_000.jpg	99
2475.765	0.435	435.0	0back	Block4	0back/STIM_001.jpg	99
2478.445	0.644	644.0	0back	Block4	0back/STIM_001.jpg	99
2482.091	0.414	414.5	0back	Block4	0back/STIM_001.jpg	100
2485.37	0.737	737.2	0back	Block4	0back/STIM_002.jpg	100
2489.24	0.796	796.0	0back	Block4	0back/STIM_002.jpg	100
2493.078	0.535	534.6	0back	Block4	0back/STIM_002.jpg	100
2497.055	0.709	709.2	0back	Block4	0back/STIM_003.jpg	99
2500.113	0.544	543.9	0back	Block4	0back/STIM_003.jpg	100
2502.892	0.648	648.0	0back	Block4	0back/STIM_003.jpg	99
2507.487	0.766	765.9	0back	Block4	0back/STIM_004.jpg	100
2511.435	0.719	718.8	0back	Block4	0back/STIM_004.jpg	99
2514.954	0.711	710.6	0back	Block4	0back/STIM_004.jpg	99
2519.042	0.596	595.5	0back	Block4	0back/STIM_005.jpg	100
2523.573	0.685	685.4	0back	Block4	0back/STIM_005.jpg	100
2527.834	0.466	465.8	0back	Block4	0back/STIM_005.jpg	99
2532.047	0.746	745.8	0back	Block4	0back/STIM_006.jpg	99
2535.917	0.714	713.8	0back	Block4	0back/STIM_006.jpg	99
2539.958	0.663	663.2	0back	Block4	0back/STIM_006.jpg	100
2543.791	0.484	483.6	0back	Block4	0back/STIM_007.jpg	100
2548.267	0.412	412.2	0back	Block4	0back/STIM_007.jpg	100
2551.329	0.469	468.8	0back	Block4	0back/STIM_007.jpg	100
2555.053	0.596	595.6	0back	Block4	0back/STIM_008.jpg	99
2559.273	0.773	773.3	0back	Block4	0back/STIM_008.jpg	100
2563.029	0.685	685.1	0back	Block4	0back/STIM_008.jpg	99
2567.312	0.657	656.6	0back	Block4	0back/STIM_009.jpg	99
2570.631	0.514	513.5	0back	Block4	0back/STIM_009.jpg	99
2573.987	0.491	491.3	0back	Block4	0back/STIM_009.jpg	99
2576.894	0.768	768.2	0back	Block4	0back/STIM_010.jpg	99
2580.133	0.698	697.6	0back	Block4	0back/STIM_010.jpg	100
2583.049	0.545	544.9	0back	Block4	0back/STIM_010.jpg	100
2585.794	0.687	687.1	0back	Block4	0back/STIM_011.jpg	100
2589.622	0.68	679.8	0back	Block4	0back/STIM_011.jpg	99
2593.851	0.639	639.3	0back	Block4	0back/STIM_011.jpg	99
2598.38	0.746	746.3	0back	Block4	0back/STIM_012.jpg	100
2602.948	0.605	604.8	0back	Block4	0back/STIM_012.jpg	99
2607.42	0.735	734.7	0back	Block4	0back/STIM_012.jpg	99
2610.577	0.52	519.7	0back	Block4	0back/STIM_013.jpg	99
2613.236	0.619	618.8	0back	Block4	0back/STIM_013.jpg	99
2616.463	0.622	622.0	0back	Block4	0back/STIM_013.jpg	100
2620.953	0.583	582.9	0back	Block4	0back/STIM_014.jpg	99
2624.109	0.615	614.7	0back	Block4	0back/STIM_014.jpg	99
2628.201	0.75	750.3	0back	Block4	0back/STIM_014.jpg	99
2632.619	0.499	499.4	0back	Block4	0back/STIM_015.jpg	100
2635.836	0.614	613.6	0back	Block4	0back/STIM_015.jpg	100
2638.599	0.673	672.8	0back	Block4	0back/STIM_015.jpg	99
2641.906	0.489	489.1	0back	Block4	0back/STIM_016.jpg	100
2646.12	0.774	773.5	0back	Block4	0back/STIM_016.jpg	99
2650.148	0.694	694.5	0back	Block4	0back/STIM_016.jpg	100
2653.844	0.433	432.9	0back	Block4	0back/STIM_017.jpg	99
2658.105	0.464	464.5	0back	Block4	0back/STIM_017.jpg	99
2662.014	0.428	427.8	0back	Block4	0back/STIM_017.jpg	99
2664.744	0.68	680.1	0back	Block4	0back/STIM_018.jpg	100
2668.553	0.562	562.5	0back	Block4	0back/STIM_018.jpg	100
2671.846	0.415	414.8	0back	Block4	0back/STIM_018.jpg	100
2675.427	0.602	601.9	0back	Block4	0back/STIM_019.jpg	100
2679.982	0.768	767.7	0back	Block4	0back/STIM_019.jpg	99
2684.52	0.518	518.0	0back	Block4	0back/STIM_019.jpg	100
