onset	duration	accuracy_binary	trial_type	learning_stage	stimulus
0.0	0.664	1	2back	Block1	2back/STIM_000.jpg
4.178	1.323	1	2back	Block1	2back/STIM_000.jpg
8.833	0.643	1	2back	Block1	2back/STIM_000.jpg
13.329	1.218	1	2back	Block1	2back/STIM_001.jpg
18.449	0.68	1	2back	Block1	2back/STIM_001.jpg
21.219	0.708	1	2back	Block1	2back/STIM_001.jpg
24.842	0.911	1	2back	Block1	2back/STIM_002.jpg
29.037	1.311	1	2back	Block1	2back/STIM_002.jpg
33.871	0.977	1	2back	Block1	2back/STIM_002.jpg
37.351	1.175	1	2back	Block1	2back/STIM_003.jpg
41.795	0.823	1	2back	Block1	2back/STIM_003.jpg
46.4	0.653	1	2back	Block1	2back/STIM_003.jpg
50.984	1.284	1	2back	Block1	2back/STIM_004.jpg
54.46	1.322	1	2back	Block1	2back/STIM_004.jpg
58.706	1.148	1	2back	Block1	2back/STIM_004.jpg
63.475	1.186	0	2back	Block1	2back/STIM_005.jpg
66.771	1.064	1	2back	Block1	2back/STIM_005.jpg
70.17	0.828	1	2back	Block1	2back/STIM_005.jpg
74.857	0.61	1	2back	Block1	2back/STIM_006.jpg
79.015	0.824	1	2back	Block1	2back/STIM_006.jpg
82.796	0.603	1	2back	Block1	2back/STIM_006.jpg
86.434	0.709	1	2back	Block1	2back/STIM_007.jpg
89.874	1.206	1	2back	Block1	2back/STIM_007.jpg
94.356	1.12	1	2back	Block1	2back/STIM_007.jpg
99.228	0.644	1	2back	Block1	2back/STIM_008.jpg
103.406	1.315	1	2back	Block1	2back/STIM_008.jpg
108.202	0.953	1	2back	Block1	2back/STIM_008.jpg
113.14	1.273	1	2back	Block1	2back/STIM_009.jpg
117.903	0.6	1	2back	Block1	2back/STIM_009.jpg
122.448	0.777	1	2back	Block1	2back/STIM_009.jpg
126.137	1.193	1	2back	Block1	2back/STIM_010.jpg
129.785	1.169	1	2back	Block1	2back/STIM_010.jpg
133.289	1.221	1	2back	Block1	2back/STIM_010.jpg
138.348	1.374	0	2back	Block1	2back/STIM_011.jpg
142.633	0.894	1	2back	Block1	2back/STIM_011.jpg
145.827	0.891	1	2back	Block1	2back/STIM_011.jpg
149.701	0.822	1	2back	Block1	2back/STIM_012.jpg
154.203	0.819	1	2back	Block1	2back/STIM_012.jpg
157.819	0.71	1	2back	Block1	2back/STIM_012.jpg
161.231	0.897	1	2back	Block1	2back/STIM_013.jpg
164.448	1.066	1	2back	Block1	2back/STIM_013.jpg
168.251	0.66	1	2back	Block1	2back/STIM_013.jpg
171.472	1.001	1	2back	Block1	2back/STIM_014.jpg
176.276	0.794	1	2back	Block1	2back/STIM_014.jpg
180.789	0.76	1	2back	Block1	2back/STIM_014.jpg
183.608	0.687	1	2back	Block1	2back/STIM_015.jpg
186.863	0.623	1	2back	Block1	2back/STIM_015.jpg
190.138	0.892	1	2back	Block1	2back/STIM_015.jpg
193.302	0.661	1	2back	Block1	2back/STIM_016.jpg
196.464	0.91	1	2back	Block1	2back/STIM_016.jpg
201.104	0.928	1	2back	Block1	2back/STIM_016.jpg
205.845	1.275	1	2back	Block1	2back/STIM_017.jpg
209.832	0.802	1	2back	Block1	2back/STIM_017.jpg
214.37	0.757	1	2back	Block1	2back/STIM_017.jpg
218.575	0.911	1	2back	Block1	2back/STIM_018.jpg
223.383	1.245	1	2back	Block1	2back/STIM_018.jpg
226.976	0.544	1	2back	Block1	2back/STIM_018.jpg
231.21	1.348	1	2back	Block1	2back/STIM_019.jpg
235.691	0.649	1	2back	Block1	2back/STIM_019.jpg
238.397	0.963	1	2back	Block1	2back/STIM_019.jpg
242.452	1.179	1	2back	Block1	2back/STIM_020.jpg
247.556	0.985	1	2back	Block1	2back/STIM_020.jpg
251.229	0.701	1	2back	Block1	2back/STIM_020.jpg
255.033	0.834	1	2back	Block1	2back/STIM_021.jpg
258.541	0.911	1	2back	Block1	2back/STIM_021.jpg
262.149	0.735	1	2back	Block1	2back/STIM_021.jpg
265.191	1.396	1	2back	Block1	2back/STIM_022.jpg
268.657	1.157	1	2back	Block1	2back/STIM_022.jpg
272.488	0.909	1	2back	Block1	2back/STIM_022.jpg
275.952	0.646	1	2back	Block1	2back/STIM_023.jpg
279.796	1.123	1	2back	Block1	2back/STIM_023.jpg
284.681	0.782	1	2back	Block1	2back/STIM_023.jpg
289.225	0.964	1	2back	Block1	2back/STIM_024.jpg
293.241	1.284	1	2back	Block1	2back/STIM_024.jpg
296.974	0.736	1	2back	Block1	2back/STIM_024.jpg
300.056	0.918	1	2back	Block1	2back/STIM_025.jpg
303.556	0.817	1	2back	Block1	2back/STIM_025.jpg
308.303	1.027	1	2back	Block1	2back/STIM_025.jpg
312.214	0.654	1	2back	Block1	2back/STIM_026.jpg
316.149	0.699	1	2back	Block1	2back/STIM_026.jpg
320.586	0.923	1	2back	Block1	2back/STIM_026.jpg
324.168	1.284	1	2back	Block1	2back/STIM_027.jpg
328.74	0.779	1	2back	Block1	2back/STIM_027.jpg
332.23	0.587	1	2back	Block1	2back/STIM_027.jpg
335.484	0.935	1	2back	Block1	2back/STIM_028.jpg
340.231	0.759	1	2back	Block1	2back/STIM_028.jpg
344.061	0.604	1	2back	Block1	2back/STIM_028.jpg
347.868	0.608	1	2back	Block1	2back/STIM_029.jpg
350.822	0.631	1	2back	Block1	2back/STIM_029.jpg
354.435	0.626	1	2back	Block1	2back/STIM_029.jpg
357.198	1.119	1	2back	Block1	2back/STIM_030.jpg
360.928	1.056	1	2back	Block1	2back/STIM_030.jpg
365.587	0.705	1	2back	Block1	2back/STIM_030.jpg
369.575	1.102	1	2back	Block1	2back/STIM_031.jpg
372.74	0.706	0	2back	Block1	2back/STIM_031.jpg
375.584	1.26	1	2back	Block1	2back/STIM_031.jpg
380.149	0.802	1	2back	Block1	2back/STIM_032.jpg
384.035	1.193	0	2back	Block1	2back/STIM_032.jpg
387.358	0.608	1	2back	Block1	2back/STIM_032.jpg
390.314	0.901	1	2back	Block1	2back/STIM_033.jpg
395.106	1.294	1	2back	Block1	2back/STIM_033.jpg
399.084	0.627	1	2back	Block1	2back/STIM_033.jpg
401.87	0.738	0	2back	Block1	2back/STIM_034.jpg
405.585	0.615	1	2back	Block1	2back/STIM_034.jpg
408.951	0.676	0	2back	Block1	2back/STIM_034.jpg
412.023	0.866	1	2back	Block1	2back/STIM_035.jpg
415.068	0.645	1	2back	Block1	2back/STIM_035.jpg
418.299	0.857	1	2back	Block1	2back/STIM_035.jpg
421.72	1.357	1	2back	Block1	2back/STIM_036.jpg
426.491	1.176	1	2back	Block1	2back/STIM_036.jpg
430.025	1.127	1	2back	Block1	2back/STIM_036.jpg
434.651	1.276	1	2back	Block1	2back/STIM_037.jpg
438.206	0.725	1	2back	Block1	2back/STIM_037.jpg
442.581	0.781	1	2back	Block1	2back/STIM_037.jpg
447.02	1.069	1	2back	Block1	2back/STIM_038.jpg
450.816	0.592	1	2back	Block1	2back/STIM_038.jpg
454.513	1.117	0	2back	Block1	2back/STIM_038.jpg
458.584	1.405	1	2back	Block1	2back/STIM_039.jpg
463.322	0.861	1	2back	Block1	2back/STIM_039.jpg
467.271	0.918	1	2back	Block1	2back/STIM_039.jpg
471.284	0.561	1	0back	Block1	0back/STIM_000.jpg
475.799	0.677	1	0back	Block1	0back/STIM_000.jpg
479.862	0.511	1	0back	Block1	0back/STIM_000.jpg
483.157	0.432	1	0back	Block1	0back/STIM_001.jpg
487.521	0.458	1	0back	Block1	0back/STIM_001.jpg
491.367	0.481	1	0back	Block1	0back/STIM_001.jpg
495.569	0.416	1	0back	Block1	0back/STIM_002.jpg
498.082	0.536	1	0back	Block1	0back/STIM_002.jpg
500.648	0.49	1	0back	Block1	0back/STIM_002.jpg
504.815	0.596	1	0back	Block1	0back/STIM_003.jpg
509.173	0.49	1	0back	Block1	0back/STIM_003.jpg
512.96	0.698	1	0back	Block1	0back/STIM_003.jpg
516.785	0.514	1	0back	Block1	0back/STIM_004.jpg
520.215	0.406	1	0back	Block1	0back/STIM_004.jpg
522.824	0.404	1	0back	Block1	0back/STIM_004.jpg
527.086	0.782	1	0back	Block1	0back/STIM_005.jpg
530.258	0.51	1	0back	Block1	0back/STIM_005.jpg
533.235	0.521	1	0back	Block1	0back/STIM_005.jpg
536.012	0.592	1	0back	Block1	0back/STIM_006.jpg
538.925	0.738	1	0back	Block1	0back/STIM_006.jpg
543.183	0.729	1	0back	Block1	0back/STIM_006.jpg
546.378	0.747	1	0back	Block1	0back/STIM_007.jpg
550.792	0.722	1	0back	Block1	0back/STIM_007.jpg
553.709	0.697	1	0back	Block1	0back/STIM_007.jpg
556.86	0.471	1	0back	Block1	0back/STIM_008.jpg
559.988	0.665	1	0back	Block1	0back/STIM_008.jpg
563.044	0.443	1	0back	Block1	0back/STIM_008.jpg
566.603	0.418	1	0back	Block1	0back/STIM_009.jpg
570.298	0.46	1	0back	Block1	0back/STIM_009.jpg
573.204	0.587	1	0back	Block1	0back/STIM_009.jpg
577.501	0.692	1	0back	Block1	0back/STIM_010.jpg
581.966	0.745	1	0back	Block1	0back/STIM_010.jpg
586.115	0.738	1	0back	Block1	0back/STIM_010.jpg
590.428	0.504	1	0back	Block1	0back/STIM_011.jpg
594.562	0.73	1	0back	Block1	0back/STIM_011.jpg
598.061	0.589	1	0back	Block1	0back/STIM_011.jpg
600.658	0.629	1	0back	Block1	0back/STIM_012.jpg
603.546	0.505	1	0back	Block1	0back/STIM_012.jpg
608.037	0.71	1	0back	Block1	0back/STIM_012.jpg
612.72	0.565	1	0back	Block1	0back/STIM_013.jpg
615.57	0.797	1	0back	Block1	0back/STIM_013.jpg
618.56	0.78	1	0back	Block1	0back/STIM_013.jpg
621.57	0.438	1	0back	Block1	0back/STIM_014.jpg
624.349	0.536	1	0back	Block1	0back/STIM_014.jpg
628.146	0.489	1	0back	Block1	0back/STIM_014.jpg
631.267	0.583	1	0back	Block1	0back/STIM_015.jpg
634.812	0.583	0	0back	Block1	0back/STIM_015.jpg
638.522	0.702	1	0back	Block1	0back/STIM_015.jpg
641.984	0.534	1	0back	Block1	0back/STIM_016.jpg
645.946	0.546	1	0back	Block1	0back/STIM_016.jpg
648.604	0.533	1	0back	Block1	0back/STIM_016.jpg
651.952	0.507	1	0back	Block1	0back/STIM_017.jpg
655.024	0.803	1	0back	Block1	0back/STIM_017.jpg
658.652	0.572	1	0back	Block1	0back/STIM_017.jpg
661.237	0.708	0	0back	Block1	0back/STIM_018.jpg
663.999	0.736	1	0back	Block1	0back/STIM_018.jpg
667.662	0.72	0	0back	Block1	0back/STIM_018.jpg
671.405	0.642	1	0back	Block1	0back/STIM_019.jpg
674.755	0.513	1	0back	Block1	0back/STIM_019.jpg
677.812	0.586	1	0back	Block1	0back/STIM_019.jpg
681.915	0.588	1	2back	Block2	2back/STIM_000.jpg
685.103	0.756	1	2back	Block2	2back/STIM_000.jpg
688.039	0.645	1	2back	Block2	2back/STIM_000.jpg
692.027	0.73	1	2back	Block2	2back/STIM_001.jpg
696.067	0.963	1	2back	Block2	2back/STIM_001.jpg
700.029	0.702	1	2back	Block2	2back/STIM_001.jpg
702.851	1.178	1	2back	Block2	2back/STIM_002.jpg
706.113	0.553	1	2back	Block2	2back/STIM_002.jpg
709.451	0.958	1	2back	Block2	2back/STIM_002.jpg
714.136	1.037	1	2back	Block2	2back/STIM_003.jpg
718.62	0.513	1	2back	Block2	2back/STIM_003.jpg
721.313	0.89	1	2back	Block2	2back/STIM_003.jpg
726.042	0.963	1	2back	Block2	2back/STIM_004.jpg
729.505	0.499	1	2back	Block2	2back/STIM_004.jpg
733.345	0.579	1	2back	Block2	2back/STIM_004.jpg
736.078	0.563	1	2back	Block2	2back/STIM_005.jpg
740.042	1.104	1	2back	Block2	2back/STIM_005.jpg
745.035	0.78	1	2back	Block2	2back/STIM_005.jpg
749.508	1.194	1	2back	Block2	2back/STIM_006.jpg
753.905	0.949	1	2back	Block2	2back/STIM_006.jpg
758.035	0.931	1	2back	Block2	2back/STIM_006.jpg
761.227	0.676	1	2back	Block2	2back/STIM_007.jpg
765.709	0.863	1	2back	Block2	2back/STIM_007.jpg
769.396	0.768	1	2back	Block2	2back/STIM_007.jpg
773.897	1.121	0	2back	Block2	2back/STIM_008.jpg
777.39	0.579	1	2back	Block2	2back/STIM_008.jpg
780.646	0.71	1	2back	Block2	2back/STIM_008.jpg
783.557	0.68	0	2back	Block2	2back/STIM_009.jpg
786.279	1.063	1	2back	Block2	2back/STIM_009.jpg
790.83	0.572	1	2back	Block2	2back/STIM_009.jpg
795.198	0.941	1	2back	Block2	2back/STIM_010.jpg
798.333	0.714	1	2back	Block2	2back/STIM_010.jpg
802.834	0.983	1	2back	Block2	2back/STIM_010.jpg
806.146	1.15	1	2back	Block2	2back/STIM_011.jpg
809.873	0.494	1	2back	Block2	2back/STIM_011.jpg
813.58	0.823	1	2back	Block2	2back/STIM_011.jpg
817.283	0.67	1	2back	Block2	2back/STIM_012.jpg
821.835	0.991	1	2back	Block2	2back/STIM_012.jpg
826.529	0.755	1	2back	Block2	2back/STIM_012.jpg
829.571	1.174	1	2back	Block2	2back/STIM_013.jpg
832.991	1.018	1	2back	Block2	2back/STIM_013.jpg
837.308	0.91	1	2back	Block2	2back/STIM_013.jpg
840.471	0.862	1	2back	Block2	2back/STIM_014.jpg
845.067	1.036	1	2back	Block2	2back/STIM_014.jpg
848.669	1.051	1	2back	Block2	2back/STIM_014.jpg
853.008	0.978	1	2back	Block2	2back/STIM_015.jpg
856.009	0.842	1	2back	Block2	2back/STIM_015.jpg
859.494	0.635	1	2back	Block2	2back/STIM_015.jpg
862.463	0.576	1	2back	Block2	2back/STIM_016.jpg
866.833	0.821	1	2back	Block2	2back/STIM_016.jpg
870.822	0.63	1	2back	Block2	2back/STIM_016.jpg
873.788	1.077	1	2back	Block2	2back/STIM_017.jpg
877.84	0.885	1	2back	Block2	2back/STIM_017.jpg
880.912	0.757	1	2back	Block2	2back/STIM_017.jpg
885.26	1.131	1	2back	Block2	2back/STIM_018.jpg
888.457	0.492	1	2back	Block2	2back/STIM_018.jpg
891.503	0.904	1	2back	Block2	2back/STIM_018.jpg
895.0	0.76	1	2back	Block2	2back/STIM_019.jpg
897.768	0.788	1	2back	Block2	2back/STIM_019.jpg
901.227	0.722	1	2back	Block2	2back/STIM_019.jpg
905.376	0.635	1	2back	Block2	2back/STIM_020.jpg
909.739	0.628	1	2back	Block2	2back/STIM_020.jpg
913.832	0.5	1	2back	Block2	2back/STIM_020.jpg
918.307	0.614	1	2back	Block2	2back/STIM_021.jpg
921.779	0.932	1	2back	Block2	2back/STIM_021.jpg
924.725	1.015	1	2back	Block2	2back/STIM_021.jpg
928.343	0.639	1	2back	Block2	2back/STIM_022.jpg
932.416	0.589	1	2back	Block2	2back/STIM_022.jpg
935.661	0.862	1	2back	Block2	2back/STIM_022.jpg
939.591	1.114	1	2back	Block2	2back/STIM_023.jpg
944.232	0.842	1	2back	Block2	2back/STIM_023.jpg
947.426	0.725	1	2back	Block2	2back/STIM_023.jpg
950.654	0.785	1	2back	Block2	2back/STIM_024.jpg
955.002	0.983	1	2back	Block2	2back/STIM_024.jpg
959.526	0.69	1	2back	Block2	2back/STIM_024.jpg
963.399	0.747	0	2back	Block2	2back/STIM_025.jpg
966.619	0.681	1	2back	Block2	2back/STIM_025.jpg
970.37	1.035	1	2back	Block2	2back/STIM_025.jpg
974.187	0.764	1	2back	Block2	2back/STIM_026.jpg
978.71	0.699	1	2back	Block2	2back/STIM_026.jpg
982.899	0.747	1	2back	Block2	2back/STIM_026.jpg
985.908	1.122	1	2back	Block2	2back/STIM_027.jpg
990.696	0.892	1	2back	Block2	2back/STIM_027.jpg
994.944	1.05	1	2back	Block2	2back/STIM_027.jpg
998.796	1.104	1	2back	Block2	2back/STIM_028.jpg
1002.197	0.594	1	2back	Block2	2back/STIM_028.jpg
1006.536	0.997	1	2back	Block2	2back/STIM_028.jpg
1009.539	0.666	1	2back	Block2	2back/STIM_029.jpg
1012.538	0.671	1	2back	Block2	2back/STIM_029.jpg
1015.725	0.77	1	2back	Block2	2back/STIM_029.jpg
1019.36	0.799	1	2back	Block2	2back/STIM_030.jpg
1023.868	0.867	1	2back	Block2	2back/STIM_030.jpg
1027.207	0.52	1	2back	Block2	2back/STIM_030.jpg
1031.442	0.772	1	2back	Block2	2back/STIM_031.jpg
1036.03	0.636	1	2back	Block2	2back/STIM_031.jpg
1039.491	0.722	1	2back	Block2	2back/STIM_031.jpg
1043.583	0.873	1	2back	Block2	2back/STIM_032.jpg
1048.227	0.859	1	2back	Block2	2back/STIM_032.jpg
1052.691	0.684	1	2back	Block2	2back/STIM_032.jpg
1057.291	1.03	1	2back	Block2	2back/STIM_033.jpg
1061.45	0.49	1	2back	Block2	2back/STIM_033.jpg
1065.562	0.866	1	2back	Block2	2back/STIM_033.jpg
1068.947	0.759	1	2back	Block2	2back/STIM_034.jpg
1073.009	0.52	1	2back	Block2	2back/STIM_034.jpg
1075.752	0.727	1	2back	Block2	2back/STIM_034.jpg
1079.279	0.884	1	2back	Block2	2back/STIM_035.jpg
1083.868	0.876	1	2back	Block2	2back/STIM_035.jpg
1088.391	0.57	1	2back	Block2	2back/STIM_035.jpg
1092.364	0.609	1	2back	Block2	2back/STIM_036.jpg
1095.865	0.649	1	2back	Block2	2back/STIM_036.jpg
1098.595	0.535	1	2back	Block2	2back/STIM_036.jpg
1101.191	0.924	0	2back	Block2	2back/STIM_037.jpg
1104.761	1.087	1	2back	Block2	2back/STIM_037.jpg
1109.37	0.762	1	2back	Block2	2back/STIM_037.jpg
1113.015	0.959	1	2back	Block2	2back/STIM_038.jpg
1116.233	1.053	1	2back	Block2	2back/STIM_038.jpg
1119.968	0.464	1	2back	Block2	2back/STIM_038.jpg
1122.488	0.811	1	2back	Block2	2back/STIM_039.jpg
1126.895	0.882	1	2back	Block2	2back/STIM_039.jpg
1130.874	1.05	1	2back	Block2	2back/STIM_039.jpg
1135.484	0.564	1	0back	Block2	0back/STIM_000.jpg
1139.622	0.43	1	0back	Block2	0back/STIM_000.jpg
1143.39	0.598	1	0back	Block2	0back/STIM_000.jpg
1146.791	0.499	1	0back	Block2	0back/STIM_001.jpg
1150.419	0.538	1	0back	Block2	0back/STIM_001.jpg
1154.501	0.795	1	0back	Block2	0back/STIM_001.jpg
1157.935	0.517	1	0back	Block2	0back/STIM_002.jpg
1161.98	0.437	1	0back	Block2	0back/STIM_002.jpg
1164.904	0.47	1	0back	Block2	0back/STIM_002.jpg
1168.117	0.696	1	0back	Block2	0back/STIM_003.jpg
1171.776	0.432	1	0back	Block2	0back/STIM_003.jpg
1175.765	0.78	1	0back	Block2	0back/STIM_003.jpg
1179.877	0.646	1	0back	Block2	0back/STIM_004.jpg
1183.961	0.794	1	0back	Block2	0back/STIM_004.jpg
1187.206	0.509	1	0back	Block2	0back/STIM_004.jpg
1191.578	0.522	1	0back	Block2	0back/STIM_005.jpg
1194.115	0.419	1	0back	Block2	0back/STIM_005.jpg
1196.729	0.505	1	0back	Block2	0back/STIM_005.jpg
1201.185	0.45	1	0back	Block2	0back/STIM_006.jpg
1205.617	0.571	1	0back	Block2	0back/STIM_006.jpg
1208.936	0.414	1	0back	Block2	0back/STIM_006.jpg
1212.671	0.793	1	0back	Block2	0back/STIM_007.jpg
1215.518	0.485	1	0back	Block2	0back/STIM_007.jpg
1218.178	0.64	1	0back	Block2	0back/STIM_007.jpg
1221.857	0.575	1	0back	Block2	0back/STIM_008.jpg
1226.182	0.486	1	0back	Block2	0back/STIM_008.jpg
1229.842	0.766	1	0back	Block2	0back/STIM_008.jpg
1233.691	0.452	1	0back	Block2	0back/STIM_009.jpg
1237.168	0.559	1	0back	Block2	0back/STIM_009.jpg
1240.823	0.534	1	0back	Block2	0back/STIM_009.jpg
1243.732	0.625	1	0back	Block2	0back/STIM_010.jpg
1246.653	0.793	1	0back	Block2	0back/STIM_010.jpg
1250.69	0.625	1	0back	Block2	0back/STIM_010.jpg
1253.7	0.583	1	0back	Block2	0back/STIM_011.jpg
1256.597	0.475	1	0back	Block2	0back/STIM_011.jpg
1260.234	0.753	1	0back	Block2	0back/STIM_011.jpg
1263.335	0.593	1	0back	Block2	0back/STIM_012.jpg
1267.066	0.616	1	0back	Block2	0back/STIM_012.jpg
1270.223	0.68	1	0back	Block2	0back/STIM_012.jpg
1273.491	0.724	1	0back	Block2	0back/STIM_013.jpg
1278.079	0.558	1	0back	Block2	0back/STIM_013.jpg
1282.017	0.801	1	0back	Block2	0back/STIM_013.jpg
1286.308	0.744	1	0back	Block2	0back/STIM_014.jpg
1290.791	0.737	1	0back	Block2	0back/STIM_014.jpg
1293.543	0.654	1	0back	Block2	0back/STIM_014.jpg
1297.952	0.73	1	0back	Block2	0back/STIM_015.jpg
1301.859	0.535	1	0back	Block2	0back/STIM_015.jpg
1305.098	0.625	1	0back	Block2	0back/STIM_015.jpg
1308.54	0.718	1	0back	Block2	0back/STIM_016.jpg
1312.489	0.575	1	0back	Block2	0back/STIM_016.jpg
1315.156	0.514	1	0back	Block2	0back/STIM_016.jpg
1319.132	0.47	1	0back	Block2	0back/STIM_017.jpg
1322.309	0.768	1	0back	Block2	0back/STIM_017.jpg
1325.218	0.643	1	0back	Block2	0back/STIM_017.jpg
1329.77	0.42	1	0back	Block2	0back/STIM_018.jpg
1332.31	0.682	1	0back	Block2	0back/STIM_018.jpg
1335.316	0.637	1	0back	Block2	0back/STIM_018.jpg
1338.918	0.632	1	0back	Block2	0back/STIM_019.jpg
1342.237	0.786	1	0back	Block2	0back/STIM_019.jpg
1346.986	0.517	1	0back	Block2	0back/STIM_019.jpg
1350.775	0.428	1	2back	Block3	2back/STIM_000.jpg
1354.335	0.877	1	2back	Block3	2back/STIM_000.jpg
1358.8	0.592	1	2back	Block3	2back/STIM_000.jpg
1362.484	0.886	1	2back	Block3	2back/STIM_001.jpg
1366.69	0.882	1	2back	Block3	2back/STIM_001.jpg
1369.865	0.66	1	2back	Block3	2back/STIM_001.jpg
1374.405	0.743	1	2back	Block3	2back/STIM_002.jpg
1377.43	0.672	1	2back	Block3	2back/STIM_002.jpg
1382.036	0.72	1	2back	Block3	2back/STIM_002.jpg
1385.732	0.533	1	2back	Block3	2back/STIM_003.jpg
1389.112	0.426	1	2back	Block3	2back/STIM_003.jpg
1392.005	0.594	1	2back	Block3	2back/STIM_003.jpg
1395.79	0.877	1	2back	Block3	2back/STIM_004.jpg
1399.035	0.636	1	2back	Block3	2back/STIM_004.jpg
1402.286	0.908	1	2back	Block3	2back/STIM_004.jpg
1407.048	0.87	1	2back	Block3	2back/STIM_005.jpg
1410.92	0.789	1	2back	Block3	2back/STIM_005.jpg
1415.582	0.43	1	2back	Block3	2back/STIM_005.jpg
1419.527	0.714	1	2back	Block3	2back/STIM_006.jpg
1423.427	0.465	1	2back	Block3	2back/STIM_006.jpg
1427.847	0.764	1	2back	Block3	2back/STIM_006.jpg
1432.093	0.971	1	2back	Block3	2back/STIM_007.jpg
1435.235	0.544	1	2back	Block3	2back/STIM_007.jpg
1438.182	0.558	1	2back	Block3	2back/STIM_007.jpg
1441.492	0.804	1	2back	Block3	2back/STIM_008.jpg
1444.867	0.698	1	2back	Block3	2back/STIM_008.jpg
1449.502	0.893	0	2back	Block3	2back/STIM_008.jpg
1454.187	0.554	1	2back	Block3	2back/STIM_009.jpg
1457.09	0.555	1	2back	Block3	2back/STIM_009.jpg
1460.91	0.722	1	2back	Block3	2back/STIM_009.jpg
1464.028	0.749	1	2back	Block3	2back/STIM_010.jpg
1467.304	0.848	1	2back	Block3	2back/STIM_010.jpg
1470.488	0.669	1	2back	Block3	2back/STIM_010.jpg
1473.669	0.679	1	2back	Block3	2back/STIM_011.jpg
1477.453	0.871	1	2back	Block3	2back/STIM_011.jpg
1481.316	0.841	1	2back	Block3	2back/STIM_011.jpg
1484.895	0.822	1	2back	Block3	2back/STIM_012.jpg
1488.118	0.43	1	2back	Block3	2back/STIM_012.jpg
1491.326	0.524	1	2back	Block3	2back/STIM_012.jpg
1495.646	0.753	1	2back	Block3	2back/STIM_013.jpg
1500.266	0.473	1	2back	Block3	2back/STIM_013.jpg
1502.97	0.446	1	2back	Block3	2back/STIM_013.jpg
1505.875	0.727	1	2back	Block3	2back/STIM_014.jpg
1509.912	0.77	1	2back	Block3	2back/STIM_014.jpg
1513.996	0.526	1	2back	Block3	2back/STIM_014.jpg
1517.086	0.832	1	2back	Block3	2back/STIM_015.jpg
1521.645	0.516	1	2back	Block3	2back/STIM_015.jpg
1525.897	0.933	1	2back	Block3	2back/STIM_015.jpg
1529.394	0.608	1	2back	Block3	2back/STIM_016.jpg
1533.694	0.449	1	2back	Block3	2back/STIM_016.jpg
1536.552	0.533	1	2back	Block3	2back/STIM_016.jpg
1539.753	0.72	1	2back	Block3	2back/STIM_017.jpg
1544.059	0.618	1	2back	Block3	2back/STIM_017.jpg
1547.79	0.609	1	2back	Block3	2back/STIM_017.jpg
1550.846	0.739	1	2back	Block3	2back/STIM_018.jpg
1555.094	0.953	1	2back	Block3	2back/STIM_018.jpg
1558.552	0.965	1	2back	Block3	2back/STIM_018.jpg
1562.308	0.818	1	2back	Block3	2back/STIM_019.jpg
1566.671	0.947	1	2back	Block3	2back/STIM_019.jpg
1570.512	0.447	1	2back	Block3	2back/STIM_019.jpg
1573.244	0.816	1	2back	Block3	2back/STIM_020.jpg
1576.344	0.744	1	2back	Block3	2back/STIM_020.jpg
1580.84	0.5	1	2back	Block3	2back/STIM_020.jpg
1584.87	0.637	1	2back	Block3	2back/STIM_021.jpg
1588.767	0.9	1	2back	Block3	2back/STIM_021.jpg
1592.893	0.486	1	2back	Block3	2back/STIM_021.jpg
1595.903	0.481	1	2back	Block3	2back/STIM_022.jpg
1599.412	0.713	1	2back	Block3	2back/STIM_022.jpg
1603.208	0.744	1	2back	Block3	2back/STIM_022.jpg
1606.113	0.968	1	2back	Block3	2back/STIM_023.jpg
1609.707	0.759	1	2back	Block3	2back/STIM_023.jpg
1613.501	0.926	1	2back	Block3	2back/STIM_023.jpg
1618.389	0.464	1	2back	Block3	2back/STIM_024.jpg
1621.888	0.926	1	2back	Block3	2back/STIM_024.jpg
1625.239	0.652	0	2back	Block3	2back/STIM_024.jpg
1629.173	0.963	1	2back	Block3	2back/STIM_025.jpg
1632.246	0.544	1	2back	Block3	2back/STIM_025.jpg
1635.123	0.731	1	2back	Block3	2back/STIM_025.jpg
1639.315	0.824	1	2back	Block3	2back/STIM_026.jpg
1642.791	0.594	1	2back	Block3	2back/STIM_026.jpg
1646.766	0.545	1	2back	Block3	2back/STIM_026.jpg
1649.37	0.847	1	2back	Block3	2back/STIM_027.jpg
1652.845	0.48	1	2back	Block3	2back/STIM_027.jpg
1656.403	0.458	1	2back	Block3	2back/STIM_027.jpg
1660.579	0.841	1	2back	Block3	2back/STIM_028.jpg
1663.605	0.695	1	2back	Block3	2back/STIM_028.jpg
1667.66	0.725	1	2back	Block3	2back/STIM_028.jpg
1671.524	0.892	1	2back	Block3	2back/STIM_029.jpg
1675.78	0.913	1	2back	Block3	2back/STIM_029.jpg
1680.583	0.705	1	2back	Block3	2back/STIM_029.jpg
1684.312	0.916	1	2back	Block3	2back/STIM_030.jpg
1687.598	0.427	1	2back	Block3	2back/STIM_030.jpg
1690.954	0.446	1	2back	Block3	2back/STIM_030.jpg
1694.878	0.46	1	2back	Block3	2back/STIM_031.jpg
1699.181	0.609	1	2back	Block3	2back/STIM_031.jpg
1702.667	0.698	1	2back	Block3	2back/STIM_031.jpg
1707.183	0.686	1	2back	Block3	2back/STIM_032.jpg
1711.594	0.531	1	2back	Block3	2back/STIM_032.jpg
1715.111	0.439	1	2back	Block3	2back/STIM_032.jpg
1718.477	0.898	1	2back	Block3	2back/STIM_033.jpg
1721.873	0.965	1	2back	Block3	2back/STIM_033.jpg
1725.404	0.774	1	2back	Block3	2back/STIM_033.jpg
1729.155	0.924	1	2back	Block3	2back/STIM_034.jpg
1732.906	0.855	1	2back	Block3	2back/STIM_034.jpg
1736.35	0.813	1	2back	Block3	2back/STIM_034.jpg
1740.56	0.726	1	2back	Block3	2back/STIM_035.jpg
1743.351	0.691	0	2back	Block3	2back/STIM_035.jpg
1747.425	0.787	1	2back	Block3	2back/STIM_035.jpg
1751.817	0.478	1	2back	Block3	2back/STIM_036.jpg
1754.439	0.917	1	2back	Block3	2back/STIM_036.jpg
1757.973	0.505	1	2back	Block3	2back/STIM_036.jpg
1762.203	0.46	1	2back	Block3	2back/STIM_037.jpg
1766.325	0.604	0	2back	Block3	2back/STIM_037.jpg
1769.682	0.804	1	2back	Block3	2back/STIM_037.jpg
1774.416	0.759	1	2back	Block3	2back/STIM_038.jpg
1777.649	0.858	1	2back	Block3	2back/STIM_038.jpg
1782.15	0.882	1	2back	Block3	2back/STIM_038.jpg
1786.072	0.74	1	2back	Block3	2back/STIM_039.jpg
1789.446	0.425	1	2back	Block3	2back/STIM_039.jpg
1793.728	0.569	1	2back	Block3	2back/STIM_039.jpg
1798.196	0.532	1	0back	Block3	0back/STIM_000.jpg
1801.9	0.59	1	0back	Block3	0back/STIM_000.jpg
1804.577	0.443	1	0back	Block3	0back/STIM_000.jpg
1808.144	0.458	1	0back	Block3	0back/STIM_001.jpg
1811.023	0.737	1	0back	Block3	0back/STIM_001.jpg
1814.341	0.583	1	0back	Block3	0back/STIM_001.jpg
1818.491	0.718	1	0back	Block3	0back/STIM_002.jpg
1821.856	0.501	1	0back	Block3	0back/STIM_002.jpg
1825.381	0.537	1	0back	Block3	0back/STIM_002.jpg
1829.29	0.517	1	0back	Block3	0back/STIM_003.jpg
1832.971	0.703	1	0back	Block3	0back/STIM_003.jpg
1837.512	0.494	0	0back	Block3	0back/STIM_003.jpg
1841.703	0.576	1	0back	Block3	0back/STIM_004.jpg
1844.79	0.66	1	0back	Block3	0back/STIM_004.jpg
1849.2	0.566	1	0back	Block3	0back/STIM_004.jpg
1853.697	0.624	1	0back	Block3	0back/STIM_005.jpg
1857.677	0.412	1	0back	Block3	0back/STIM_005.jpg
1860.942	0.584	1	0back	Block3	0back/STIM_005.jpg
1863.599	0.566	1	0back	Block3	0back/STIM_006.jpg
1867.253	0.78	1	0back	Block3	0back/STIM_006.jpg
1870.45	0.788	1	0back	Block3	0back/STIM_006.jpg
1874.95	0.731	1	0back	Block3	0back/STIM_007.jpg
1879.382	0.52	1	0back	Block3	0back/STIM_007.jpg
1883.611	0.724	1	0back	Block3	0back/STIM_007.jpg
1886.568	0.516	1	0back	Block3	0back/STIM_008.jpg
1890.04	0.753	1	0back	Block3	0back/STIM_008.jpg
1892.963	0.642	1	0back	Block3	0back/STIM_008.jpg
1895.988	0.552	1	0back	Block3	0back/STIM_009.jpg
1899.477	0.67	1	0back	Block3	0back/STIM_009.jpg
1903.763	0.461	0	0back	Block3	0back/STIM_009.jpg
1906.775	0.765	1	0back	Block3	0back/STIM_010.jpg
1911.373	0.424	1	0back	Block3	0back/STIM_010.jpg
1914.319	0.599	1	0back	Block3	0back/STIM_010.jpg
1918.307	0.601	1	0back	Block3	0back/STIM_011.jpg
1922.271	0.625	1	0back	Block3	0back/STIM_011.jpg
1925.8	0.799	1	0back	Block3	0back/STIM_011.jpg
1930.119	0.786	0	0back	Block3	0back/STIM_012.jpg
1934.854	0.611	1	0back	Block3	0back/STIM_012.jpg
1937.511	0.752	1	0back	Block3	0back/STIM_012.jpg
1940.322	0.548	1	0back	Block3	0back/STIM_013.jpg
1943.664	0.75	1	0back	Block3	0back/STIM_013.jpg
1948.103	0.795	1	0back	Block3	0back/STIM_013.jpg
1952.158	0.68	1	0back	Block3	0back/STIM_014.jpg
1956.025	0.5	1	0back	Block3	0back/STIM_014.jpg
1958.809	0.795	1	0back	Block3	0back/STIM_014.jpg
1962.491	0.704	1	0back	Block3	0back/STIM_015.jpg
1965.56	0.424	1	0back	Block3	0back/STIM_015.jpg
1969.144	0.729	1	0back	Block3	0back/STIM_015.jpg
1973.58	0.803	1	0back	Block3	0back/STIM_016.jpg
1976.858	0.48	1	0back	Block3	0back/STIM_016.jpg
1980.046	0.56	1	0back	Block3	0back/STIM_016.jpg
1984.506	0.596	1	0back	Block3	0back/STIM_017.jpg
1987.147	0.556	1	0back	Block3	0back/STIM_017.jpg
1991.44	0.703	1	0back	Block3	0back/STIM_017.jpg
1995.62	0.56	1	0back	Block3	0back/STIM_018.jpg
1999.439	0.763	1	0back	Block3	0back/STIM_018.jpg
2003.561	0.795	1	0back	Block3	0back/STIM_018.jpg
2006.812	0.739	1	0back	Block3	0back/STIM_019.jpg
2009.857	0.538	1	0back	Block3	0back/STIM_019.jpg
2013.745	0.699	1	0back	Block3	0back/STIM_019.jpg
2016.671	0.678	1	2back	Block4	2back/STIM_000.jpg
2021.28	0.635	1	2back	Block4	2back/STIM_000.jpg
2025.405	0.576	1	2back	Block4	2back/STIM_000.jpg
2029.863	0.899	1	2back	Block4	2back/STIM_001.jpg
2034.335	0.581	1	2back	Block4	2back/STIM_001.jpg
2037.861	0.822	1	2back	Block4	2back/STIM_001.jpg
2041.904	0.867	1	2back	Block4	2back/STIM_002.jpg
2046.186	0.616	1	2back	Block4	2back/STIM_002.jpg
2049.147	0.731	1	2back	Block4	2back/STIM_002.jpg
2052.393	0.932	1	2back	Block4	2back/STIM_003.jpg
2055.931	0.613	1	2back	Block4	2back/STIM_003.jpg
2058.547	0.843	1	2back	Block4	2back/STIM_003.jpg
2062.311	0.892	1	2back	Block4	2back/STIM_004.jpg
2066.416	0.455	0	2back	Block4	2back/STIM_004.jpg
2069.845	0.82	1	2back	Block4	2back/STIM_004.jpg
2073.702	0.804	1	2back	Block4	2back/STIM_005.jpg
2077.329	0.488	1	2back	Block4	2back/STIM_005.jpg
2079.879	0.893	1	2back	Block4	2back/STIM_005.jpg
2083.129	0.871	1	2back	Block4	2back/STIM_006.jpg
2086.181	0.464	1	2back	Block4	2back/STIM_006.jpg
2089.068	0.537	1	2back	Block4	2back/STIM_006.jpg
2093.144	0.819	1	2back	Block4	2back/STIM_007.jpg
2097.523	0.604	1	2back	Block4	2back/STIM_007.jpg
2101.343	0.613	1	2back	Block4	2back/STIM_007.jpg
2105.918	0.95	1	2back	Block4	2back/STIM_008.jpg
2109.322	0.886	1	2back	Block4	2back/STIM_008.jpg
2113.055	0.945	1	2back	Block4	2back/STIM_008.jpg
2116.424	0.544	1	2back	Block4	2back/STIM_009.jpg
2120.346	0.843	1	2back	Block4	2back/STIM_009.jpg
2124.712	0.862	1	2back	Block4	2back/STIM_009.jpg
2128.035	0.546	1	2back	Block4	2back/STIM_010.jpg
2131.585	0.573	1	2back	Block4	2back/STIM_010.jpg
2135.73	0.529	1	2back	Block4	2back/STIM_010.jpg
2139.529	0.676	1	2back	Block4	2back/STIM_011.jpg
2143.367	0.896	1	2back	Block4	2back/STIM_011.jpg
2147.124	0.802	1	2back	Block4	2back/STIM_011.jpg
2151.613	0.48	1	2back	Block4	2back/STIM_012.jpg
2154.922	0.667	1	2back	Block4	2back/STIM_012.jpg
2159.466	0.897	1	2back	Block4	2back/STIM_012.jpg
2162.899	0.676	1	2back	Block4	2back/STIM_013.jpg
2166.546	0.48	1	2back	Block4	2back/STIM_013.jpg
2169.569	0.494	1	2back	Block4	2back/STIM_013.jpg
2172.246	0.71	1	2back	Block4	2back/STIM_014.jpg
2176.091	0.542	1	2back	Block4	2back/STIM_014.jpg
2180.059	0.78	1	2back	Block4	2back/STIM_014.jpg
2183.201	0.467	1	2back	Block4	2back/STIM_015.jpg
2185.746	0.708	1	2back	Block4	2back/STIM_015.jpg
2188.791	0.468	1	2back	Block4	2back/STIM_015.jpg
2192.958	0.888	1	2back	Block4	2back/STIM_016.jpg
2196.073	0.515	1	2back	Block4	2back/STIM_016.jpg
2200.147	0.974	1	2back	Block4	2back/STIM_016.jpg
2204.654	0.979	1	2back	Block4	2back/STIM_017.jpg
2208.7	0.602	1	2back	Block4	2back/STIM_017.jpg
2213.101	0.504	1	2back	Block4	2back/STIM_017.jpg
2216.567	0.567	1	2back	Block4	2back/STIM_018.jpg
2219.817	0.74	1	2back	Block4	2back/STIM_018.jpg
2223.914	0.865	1	2back	Block4	2back/STIM_018.jpg
2227.031	0.474	1	2back	Block4	2back/STIM_019.jpg
2230.644	0.859	1	2back	Block4	2back/STIM_019.jpg
2234.262	0.965	1	2back	Block4	2back/STIM_019.jpg
2238.313	0.716	1	2back	Block4	2back/STIM_020.jpg
2241.722	0.72	1	2back	Block4	2back/STIM_020.jpg
2245.646	0.887	1	2back	Block4	2back/STIM_020.jpg
2248.711	0.627	1	2back	Block4	2back/STIM_021.jpg
2252.679	0.846	1	2back	Block4	2back/STIM_021.jpg
2256.965	0.702	1	2back	Block4	2back/STIM_021.jpg
2260.62	0.613	1	2back	Block4	2back/STIM_022.jpg
2264.951	0.573	1	2back	Block4	2back/STIM_022.jpg
2267.795	0.854	1	2back	Block4	2back/STIM_022.jpg
2271.785	0.521	1	2back	Block4	2back/STIM_023.jpg
2274.333	0.453	1	2back	Block4	2back/STIM_023.jpg
2277.689	0.936	1	2back	Block4	2back/STIM_023.jpg
2281.54	0.755	1	2back	Block4	2back/STIM_024.jpg
2284.92	0.867	1	2back	Block4	2back/STIM_024.jpg
2289.709	0.867	1	2back	Block4	2back/STIM_024.jpg
2293.42	0.567	1	2back	Block4	2back/STIM_025.jpg
2297.141	0.953	1	2back	Block4	2back/STIM_025.jpg
2301.987	0.798	1	2back	Block4	2back/STIM_025.jpg
2305.593	0.588	1	2back	Block4	2back/STIM_026.jpg
2309.286	0.637	1	2back	Block4	2back/STIM_026.jpg
2312.544	0.588	1	2back	Block4	2back/STIM_026.jpg
2316.784	0.765	1	2back	Block4	2back/STIM_027.jpg
2321.117	0.47	1	2back	Block4	2back/STIM_027.jpg
2324.022	0.701	1	2back	Block4	2back/STIM_027.jpg
2328.087	0.49	1	2back	Block4	2back/STIM_028.jpg
2331.8	0.722	1	2back	Block4	2back/STIM_028.jpg
2334.815	0.61	1	2back	Block4	2back/STIM_028.jpg
2338.776	0.621	1	2back	Block4	2back/STIM_029.jpg
2343.173	0.802	1	2back	Block4	2back/STIM_029.jpg
2346.963	0.583	1	2back	Block4	2back/STIM_029.jpg
2350.007	0.786	1	2back	Block4	2back/STIM_030.jpg
2352.815	0.91	1	2back	Block4	2back/STIM_030.jpg
2357.358	0.787	1	2back	Block4	2back/STIM_030.jpg
2360.648	0.488	1	2back	Block4	2back/STIM_031.jpg
2364.222	0.449	1	2back	Block4	2back/STIM_031.jpg
2367.217	0.637	1	2back	Block4	2back/STIM_031.jpg
2371.026	0.448	1	2back	Block4	2back/STIM_032.jpg
2375.194	0.985	1	2back	Block4	2back/STIM_032.jpg
2379.199	0.902	1	2back	Block4	2back/STIM_032.jpg
2383.877	0.883	1	2back	Block4	2back/STIM_033.jpg
2388.423	0.484	1	2back	Block4	2back/STIM_033.jpg
2392.045	0.764	1	2back	Block4	2back/STIM_033.jpg
2396.442	0.853	1	2back	Block4	2back/STIM_034.jpg
2399.9	0.594	1	2back	Block4	2back/STIM_034.jpg
2402.739	0.904	1	2back	Block4	2back/STIM_034.jpg
2406.366	0.611	1	2back	Block4	2back/STIM_035.jpg
2410.384	0.437	1	2back	Block4	2back/STIM_035.jpg
2413.5	0.973	1	2back	Block4	2back/STIM_035.jpg
2417.81	0.688	1	2back	Block4	2back/STIM_036.jpg
2420.895	0.622	1	2back	Block4	2back/STIM_036.jpg
2423.934	0.867	1	2back	Block4	2back/STIM_036.jpg
2428.478	0.46	1	2back	Block4	2back/STIM_037.jpg
2431.604	0.81	1	2back	Block4	2back/STIM_037.jpg
2435.96	0.725	1	2back	Block4	2back/STIM_037.jpg
2440.412	0.626	1	2back	Block4	2back/STIM_038.jpg
2444.477	0.939	1	2back	Block4	2back/STIM_038.jpg
2448.755	0.59	1	2back	Block4	2back/STIM_038.jpg
2452.742	0.676	1	2back	Block4	2back/STIM_039.jpg
2457.033	0.817	1	2back	Block4	2back/STIM_039.jpg
2460.833	0.466	1	2back	Block4	2back/STIM_039.jpg
2465.065	0.676	1	0back	Block4	0back/STIM_000.jpg
2468.385	0.714	1	0back	Block4	0back/STIM_000.jpg
2472.636	0.541	1	0back	Block4	0back/STIM_000.jpg
2475.765	0.435	1	0back	Block4	0back/STIM_001.jpg
2478.445	0.644	1	0back	Block4	0back/STIM_001.jpg
2482.091	0.414	1	0back	Block4	0back/STIM_001.jpg
2485.37	0.737	1	0back	Block4	0back/STIM_002.jpg
2489.24	0.796	1	0back	Block4	0back/STIM_002.jpg
2493.078	0.535	1	0back	Block4	0back/STIM_002.jpg
2497.055	0.709	1	0back	Block4	0back/STIM_003.jpg
2500.113	0.544	1	0back	Block4	0back/STIM_003.jpg
2502.892	0.648	1	0back	Block4	0back/STIM_003.jpg
2507.487	0.766	1	0back	Block4	0back/STIM_004.jpg
2511.435	0.719	1	0back	Block4	0back/STIM_004.jpg
2514.954	0.711	1	0back	Block4	0back/STIM_004.jpg
2519.042	0.596	1	0back	Block4	0back/STIM_005.jpg
2523.573	0.685	1	0back	Block4	0back/STIM_005.jpg
2527.834	0.466	1	0back	Block4	0back/STIM_005.jpg
2532.047	0.746	1	0back	Block4	0back/STIM_006.jpg
2535.917	0.714	1	0back	Block4	0back/STIM_006.jpg
2539.958	0.663	1	0back	Block4	0back/STIM_006.jpg
2543.791	0.484	1	0back	Block4	0back/STIM_007.jpg
2548.267	0.412	1	0back	Block4	0back/STIM_007.jpg
2551.329	0.469	1	0back	Block4	0back/STIM_007.jpg
2555.053	0.596	1	0back	Block4	0back/STIM_008.jpg
2559.273	0.773	1	0back	Block4	0back/STIM_008.jpg
2563.029	0.685	1	0back	Block4	0back/STIM_008.jpg
2567.312	0.657	1	0back	Block4	0back/STIM_009.jpg
2570.631	0.514	1	0back	Block4	0back/STIM_009.jpg
2573.987	0.491	1	0back	Block4	0back/STIM_009.jpg
2576.894	0.768	1	0back	Block4	0back/STIM_010.jpg
2580.133	0.698	1	0back	Block4	0back/STIM_010.jpg
2583.049	0.545	1	0back	Block4	0back/STIM_010.jpg
2585.794	0.687	1	0back	Block4	0back/STIM_011.jpg
2589.622	0.68	1	0back	Block4	0back/STIM_011.jpg
2593.851	0.639	1	0back	Block4	0back/STIM_011.jpg
2598.38	0.746	1	0back	Block4	0back/STIM_012.jpg
2602.948	0.605	1	0back	Block4	0back/STIM_012.jpg
2607.42	0.735	1	0back	Block4	0back/STIM_012.jpg
2610.577	0.52	0	0back	Block4	0back/STIM_013.jpg
2613.236	0.619	1	0back	Block4	0back/STIM_013.jpg
2616.463	0.622	1	0back	Block4	0back/STIM_013.jpg
2620.953	0.583	1	0back	Block4	0back/STIM_014.jpg
2624.109	0.615	1	0back	Block4	0back/STIM_014.jpg
2628.201	0.75	1	0back	Block4	0back/STIM_014.jpg
2632.619	0.499	1	0back	Block4	0back/STIM_015.jpg
2635.836	0.614	1	0back	Block4	0back/STIM_015.jpg
2638.599	0.673	1	0back	Block4	0back/STIM_015.jpg
2641.906	0.489	1	0back	Block4	0back/STIM_016.jpg
2646.12	0.774	1	0back	Block4	0back/STIM_016.jpg
2650.148	0.694	1	0back	Block4	0back/STIM_016.jpg
2653.844	0.433	1	0back	Block4	0back/STIM_017.jpg
2658.105	0.464	1	0back	Block4	0back/STIM_017.jpg
2662.014	0.428	1	0back	Block4	0back/STIM_017.jpg
2664.744	0.68	1	0back	Block4	0back/STIM_018.jpg
2668.553	0.562	1	0back	Block4	0back/STIM_018.jpg
2671.846	0.415	1	0back	Block4	0back/STIM_018.jpg
2675.427	0.602	1	0back	Block4	0back/STIM_019.jpg
2679.982	0.768	1	0back	Block4	0back/STIM_019.jpg
2684.52	0.518	1	0back	Block4	0back/STIM_019.jpg
