onset	duration	response_time_ms	trial_type	learning_stage	stimulus	response_port
0.0	0.696	696.5	2back	Block1	2back/STIM_000.jpg	100
2.858	1.35	1349.6	2back	Block1	2back/STIM_000.jpg	99
7.403	1.244	1244.2	2back	Block1	2back/STIM_000.jpg	99
12.437	0.772	771.9	2back	Block1	2back/STIM_001.jpg	99
16.326	0.716	715.9	2back	Block1	2back/STIM_001.jpg	99
19.772	1.136	1136.3	2back	Block1	2back/STIM_001.jpg	100
23.212	1.347	1346.8	2back	Block1	2back/STIM_002.jpg	99
28.071	1.068	1067.8	2back	Block1	2back/STIM_002.jpg	99
31.071	1.242	1242.1	2back	Block1	2back/STIM_002.jpg	99
34.674	1.391	1391.4	2back	Block1	2back/STIM_003.jpg	100
38.023	0.973	973.4	2back	Block1	2back/STIM_003.jpg	99
42.657	1.192	1192.5	2back	Block1	2back/STIM_003.jpg	99
46.922	1.084	1084.5	2back	Block1	2back/STIM_004.jpg	100
51.26	1.058	1058.4	2back	Block1	2back/STIM_004.jpg	100
54.629	0.779	778.9	2back	Block1	2back/STIM_004.jpg	100
58.691	0.847	847.1	2back	Block1	2back/STIM_005.jpg	100
62.332	1.267	1267.0	2back	Block1	2back/STIM_005.jpg	99
66.333	0.934	934.4	2back	Block1	2back/STIM_005.jpg	100
70.009	1.333	1333.0	2back	Block1	2back/STIM_006.jpg	99
74.17	1.238	1238.5	2back	Block1	2back/STIM_006.jpg	100
77.37	1.019	1019.0	2back	Block1	2back/STIM_006.jpg	99
80.368	1.025	1025.1	2back	Block1	2back/STIM_007.jpg	100
84.79	0.719	719.2	2back	Block1	2back/STIM_007.jpg	99
87.59	0.867	866.6	2back	Block1	2back/STIM_007.jpg	99
92.215	0.672	671.7	2back	Block1	2back/STIM_008.jpg	100
95.68	0.917	917.0	2back	Block1	2back/STIM_008.jpg	100
99.125	0.908	907.5	2back	Block1	2back/STIM_008.jpg	100
102.943	1.188	1187.9	2back	Block1	2back/STIM_009.jpg	100
107.629	1.424	1424.5	2back	Block1	2back/STIM_009.jpg	99
111.731	1.082	1081.5	2back	Block1	2back/STIM_009.jpg	100
114.879	0.977	976.7	2back	Block1	2back/STIM_010.jpg	99
118.576	1.082	1081.8	2back	Block1	2back/STIM_010.jpg	99
122.037	1.205	1204.9	2back	Block1	2back/STIM_010.jpg	99
127.127	1.305	1304.9	2back	Block1	2back/STIM_011.jpg	100
131.175	1.102	1102.2	2back	Block1	2back/STIM_011.jpg	100
135.135	1.316	1315.6	2back	Block1	2back/STIM_011.jpg	99
139.699	0.773	772.9	2back	Block1	2back/STIM_012.jpg	99
143.486	0.844	844.5	2back	Block1	2back/STIM_012.jpg	99
146.307	0.876	875.9	2back	Block1	2back/STIM_012.jpg	99
149.534	1.169	1169.1	2back	Block1	2back/STIM_013.jpg	99
153.592	1.122	1121.6	2back	Block1	2back/STIM_013.jpg	100
156.65	0.683	683.2	2back	Block1	2back/STIM_013.jpg	100
160.073	0.698	698.1	2back	Block1	2back/STIM_014.jpg	100
163.31	1.312	1312.4	2back	Block1	2back/STIM_014.jpg	99
167.721	0.723	722.8	2back	Block1	2back/STIM_014.jpg	99
171.277	1.389	1388.8	2back	Block1	2back/STIM_015.jpg	99
175.984	1.174	1174.5	2back	Block1	2back/STIM_015.jpg	99
179.142	1.013	1012.6	2back	Block1	2back/STIM_015.jpg	100
184.036	0.978	978.1	2back	Block1	2back/STIM_016.jpg	100
188.401	0.749	748.9	2back	Block1	2back/STIM_016.jpg	99
193.025	0.914	914.1	2back	Block1	2back/STIM_016.jpg	99
197.344	1.03	1030.4	2back	Block1	2back/STIM_017.jpg	100
202.139	0.71	709.5	2back	Block1	2back/STIM_017.jpg	100
205.514	1.291	1290.8	2back	Block1	2back/STIM_017.jpg	100
210.088	1.489	1489.3	2back	Block1	2back/STIM_018.jpg	100
213.93	0.724	724.3	2back	Block1	2back/STIM_018.jpg	99
217.393	0.625	625.3	2back	Block1	2back/STIM_018.jpg	100
221.85	1.24	1240.3	2back	Block1	2back/STIM_019.jpg	99
226.814	1.05	1050.1	2back	Block1	2back/STIM_019.jpg	99
231.636	0.839	839.3	2back	Block1	2back/STIM_019.jpg	99
234.453	0.874	873.6	2back	Block1	2back/STIM_020.jpg	99
238.033	1.161	1161.1	2back	Block1	2back/STIM_020.jpg	99
242.265	0.984	984.5	2back	Block1	2back/STIM_020.jpg	99
245.396	0.906	906.0	2back	Block1	2back/STIM_021.jpg	99
249.861	1.418	1418.3	2back	Block1	2back/STIM_021.jpg	100
254.681	0.93	930.3	2back	Block1	2back/STIM_021.jpg	99
258.993	0.773	773.4	2back	Block1	2back/STIM_022.jpg	99
261.975	1.054	1054.1	2back	Block1	2back/STIM_022.jpg	100
266.949	0.726	726.0	2back	Block1	2back/STIM_022.jpg	100
270.083	1.001	1000.8	2back	Block1	2back/STIM_023.jpg	100
274.739	1.131	1131.2	2back	Block1	2back/STIM_023.jpg	99
279.527	0.934	933.5	2back	Block1	2back/STIM_023.jpg	99
282.977	1.406	1406.5	2back	Block1	2back/STIM_024.jpg	100
286.683	1.07	1070.0	2back	Block1	2back/STIM_024.jpg	100
289.872	1.117	1117.1	2back	Block1	2back/STIM_024.jpg	100
292.944	1.364	1363.5	2back	Block1	2back/STIM_025.jpg	100
297.499	0.652	651.9	2back	Block1	2back/STIM_025.jpg	100
301.936	1.121	1121.3	2back	Block1	2back/STIM_025.jpg	100
306.496	0.885	885.0	2back	Block1	2back/STIM_026.jpg	100
311.106	1.186	1186.5	2back	Block1	2back/STIM_026.jpg	99
316.151	1.15	1149.6	2back	Block1	2back/STIM_026.jpg	99
319.742	1.426	1425.8	2back	Block1	2back/STIM_027.jpg	99
323.067	1.037	1037.3	2back	Block1	2back/STIM_027.jpg	99
326.768	0.823	823.1	2back	Block1	2back/STIM_027.jpg	99
329.905	0.963	962.6	2back	Block1	2back/STIM_028.jpg	100
334.534	0.706	706.0	2back	Block1	2back/STIM_028.jpg	99
337.206	1.235	1235.0	2back	Block1	2back/STIM_028.jpg	100
341.897	1.411	1411.3	2back	Block1	2back/STIM_029.jpg	100
345.244	0.795	795.1	2back	Block1	2back/STIM_029.jpg	100
349.375	1.338	1337.5	2back	Block1	2back/STIM_029.jpg	100
354.316	1.108	1107.5	2back	Block1	2back/STIM_030.jpg	100
359.124	0.736	735.6	2back	Block1	2back/STIM_030.jpg	99
361.984	0.637	637.1	2back	Block1	2back/STIM_030.jpg	100
366.33	0.848	847.7	2back	Block1	2back/STIM_031.jpg	100
369.364	0.712	712.2	2back	Block1	2back/STIM_031.jpg	99
372.93	1.045	1045.0	2back	Block1	2back/STIM_031.jpg	99
375.917	0.889	889.4	2back	Block1	2back/STIM_032.jpg	100
380.287	1.376	1376.4	2back	Block1	2back/STIM_032.jpg	99
385.046	0.737	737.4	2back	Block1	2back/STIM_032.jpg	99
388.047	1.5	1500.2	2back	Block1	2back/STIM_033.jpg	100
391.464	0.81	810.5	2back	Block1	2back/STIM_033.jpg	100
395.529	0.769	768.7	2back	Block1	2back/STIM_033.jpg	99
399.822	0.81	810.3	2back	Block1	2back/STIM_034.jpg	100
404.264	1.293	1293.1	2back	Block1	2back/STIM_034.jpg	99
407.555	1.24	1239.5	2back	Block1	2back/STIM_034.jpg	100
410.972	1.446	1446.2	2back	Block1	2back/STIM_035.jpg	99
416.169	0.799	798.6	2back	Block1	2back/STIM_035.jpg	100
420.726	0.669	668.6	2back	Block1	2back/STIM_035.jpg	100
424.16	1.472	1471.5	2back	Block1	2back/STIM_036.jpg	99
427.89	1.063	1062.8	2back	Block1	2back/STIM_036.jpg	100
432.136	0.954	953.8	2back	Block1	2back/STIM_036.jpg	99
435.583	1.264	1264.4	2back	Block1	2back/STIM_037.jpg	100
439.913	0.798	798.0	2back	Block1	2back/STIM_037.jpg	99
443.946	1.065	1065.1	2back	Block1	2back/STIM_037.jpg	99
448.271	0.793	792.7	2back	Block1	2back/STIM_038.jpg	100
452.274	1.002	1002.5	2back	Block1	2back/STIM_038.jpg	100
456.069	1.048	1047.9	2back	Block1	2back/STIM_038.jpg	99
459.423	0.694	693.8	2back	Block1	2back/STIM_039.jpg	100
462.834	1.038	1038.1	2back	Block1	2back/STIM_039.jpg	100
467.408	1.1	1099.9	2back	Block1	2back/STIM_039.jpg	99
471.617	0.829	828.8	0back	Block1	0back/STIM_000.jpg	100
475.089	0.654	653.7	0back	Block1	0back/STIM_000.jpg	99
477.703	0.529	528.9	0back	Block1	0back/STIM_000.jpg	100
480.711	0.647	647.4	0back	Block1	0back/STIM_001.jpg	99
484.768	0.836	836.0	0back	Block1	0back/STIM_001.jpg	99
488.927	0.708	707.6	0back	Block1	0back/STIM_001.jpg	99
493.47	0.47	470.5	0back	Block1	0back/STIM_002.jpg	99
496.374	0.776	776.1	0back	Block1	0back/STIM_002.jpg	99
500.707	0.553	553.4	0back	Block1	0back/STIM_002.jpg	99
503.276	0.629	629.1	0back	Block1	0back/STIM_003.jpg	100
507.168	0.472	471.9	0back	Block1	0back/STIM_003.jpg	100
510.042	0.672	671.9	0back	Block1	0back/STIM_003.jpg	99
513.813	0.859	858.6	0back	Block1	0back/STIM_004.jpg	100
518.465	0.657	657.0	0back	Block1	0back/STIM_004.jpg	100
522.611	0.78	780.3	0back	Block1	0back/STIM_004.jpg	100
526.347	0.73	729.8	0back	Block1	0back/STIM_005.jpg	100
530.922	0.754	753.6	0back	Block1	0back/STIM_005.jpg	100
534.061	0.689	689.2	0back	Block1	0back/STIM_005.jpg	100
536.887	0.554	553.8	0back	Block1	0back/STIM_006.jpg	99
539.764	0.486	486.2	0back	Block1	0back/STIM_006.jpg	99
543.123	0.772	772.2	0back	Block1	0back/STIM_006.jpg	99
547.283	0.519	518.6	0back	Block1	0back/STIM_007.jpg	100
550.144	0.737	737.0	0back	Block1	0back/STIM_007.jpg	100
553.231	0.69	690.2	0back	Block1	0back/STIM_007.jpg	99
556.889	0.748	748.2	0back	Block1	0back/STIM_008.jpg	99
559.792	0.766	765.6	0back	Block1	0back/STIM_008.jpg	99
562.635	0.578	577.7	0back	Block1	0back/STIM_008.jpg	99
566.253	0.637	637.2	0back	Block1	0back/STIM_009.jpg	100
570.637	0.67	670.2	0back	Block1	0back/STIM_009.jpg	100
574.177	0.532	531.7	0back	Block1	0back/STIM_009.jpg	100
578.223	0.5	499.8	0back	Block1	0back/STIM_010.jpg	100
582.11	0.814	814.0	0back	Block1	0back/STIM_010.jpg	100
586.686	0.827	827.2	0back	Block1	0back/STIM_010.jpg	100
591.258	0.476	475.7	0back	Block1	0back/STIM_011.jpg	99
595.223	0.448	448.2	0back	Block1	0back/STIM_011.jpg	99
599.459	0.684	684.5	0back	Block1	0back/STIM_011.jpg	99
603.99	0.766	766.3	0back	Block1	0back/STIM_012.jpg	99
607.709	0.844	844.0	0back	Block1	0back/STIM_012.jpg	99
611.182	0.624	623.7	0back	Block1	0back/STIM_012.jpg	99
615.691	0.475	474.7	0back	Block1	0back/STIM_013.jpg	99
619.045	0.824	824.2	0back	Block1	0back/STIM_013.jpg	100
623.187	0.728	728.0	0back	Block1	0back/STIM_013.jpg	100
625.989	0.59	590.3	0back	Block1	0back/STIM_014.jpg	99
628.968	0.786	785.6	0back	Block1	0back/STIM_014.jpg	100
632.717	0.75	749.9	0back	Block1	0back/STIM_014.jpg	100
635.54	0.631	630.7	0back	Block1	0back/STIM_015.jpg	99
638.258	0.668	667.9	0back	Block1	0back/STIM_015.jpg	99
642.583	0.825	825.0	0back	Block1	0back/STIM_015.jpg	100
646.156	0.711	711.1	0back	Block1	0back/STIM_016.jpg	99
649.894	0.835	835.3	0back	Block1	0back/STIM_016.jpg	100
654.308	0.628	627.6	0back	Block1	0back/STIM_016.jpg	100
657.752	0.76	760.3	0back	Block1	0back/STIM_017.jpg	99
662.277	0.74	739.6	0back	Block1	0back/STIM_017.jpg	99
665.918	0.669	668.9	0back	Block1	0back/STIM_017.jpg	99
669.346	0.662	661.6	0back	Block1	0back/STIM_018.jpg	100
673.276	0.516	516.3	0back	Block1	0back/STIM_018.jpg	100
677.347	0.824	824.5	0back	Block1	0back/STIM_018.jpg	99
680.114	0.733	733.2	0back	Block1	0back/STIM_019.jpg	99
684.404	0.624	624.4	0back	Block1	0back/STIM_019.jpg	99
687.348	0.702	701.8	0back	Block1	0back/STIM_019.jpg	100
690.485	1.258	1258.1	2back	Block2	2back/STIM_000.jpg	100
694.787	1.003	1003.1	2back	Block2	2back/STIM_000.jpg	99
698.97	0.669	669.4	2back	Block2	2back/STIM_000.jpg	100
702.427	0.917	916.9	2back	Block2	2back/STIM_001.jpg	100
707.215	1.03	1029.6	2back	Block2	2back/STIM_001.jpg	100
711.988	0.801	801.3	2back	Block2	2back/STIM_001.jpg	100
716.151	0.99	989.9	2back	Block2	2back/STIM_002.jpg	99
719.557	0.831	831.2	2back	Block2	2back/STIM_002.jpg	99
724.046	1.081	1081.0	2back	Block2	2back/STIM_002.jpg	100
727.304	1.274	1274.2	2back	Block2	2back/STIM_003.jpg	99
730.709	1.15	1149.6	2back	Block2	2back/STIM_003.jpg	99
734.364	0.855	854.7	2back	Block2	2back/STIM_003.jpg	100
738.472	0.905	904.6	2back	Block2	2back/STIM_004.jpg	100
742.511	0.92	920.3	2back	Block2	2back/STIM_004.jpg	99
746.442	1.016	1015.5	2back	Block2	2back/STIM_004.jpg	100
750.72	0.808	807.6	2back	Block2	2back/STIM_005.jpg	100
754.504	1.168	1168.0	2back	Block2	2back/STIM_005.jpg	100
758.782	0.886	886.2	2back	Block2	2back/STIM_005.jpg	100
762.008	1.013	1012.9	2back	Block2	2back/STIM_006.jpg	100
766.34	0.718	718.3	2back	Block2	2back/STIM_006.jpg	100
770.373	0.586	585.8	2back	Block2	2back/STIM_006.jpg	99
773.196	0.61	609.9	2back	Block2	2back/STIM_007.jpg	99
777.077	0.775	775.4	2back	Block2	2back/STIM_007.jpg	99
780.838	1.088	1087.9	2back	Block2	2back/STIM_007.jpg	99
784.801	0.82	819.8	2back	Block2	2back/STIM_008.jpg	100
787.961	0.631	631.1	2back	Block2	2back/STIM_008.jpg	100
790.746	0.753	752.6	2back	Block2	2back/STIM_008.jpg	100
794.126	0.744	744.2	2back	Block2	2back/STIM_009.jpg	100
798.101	1.107	1107.2	2back	Block2	2back/STIM_009.jpg	100
801.284	1.024	1023.7	2back	Block2	2back/STIM_009.jpg	99
804.721	0.618	617.5	2back	Block2	2back/STIM_010.jpg	99
808.677	1.166	1166.0	2back	Block2	2back/STIM_010.jpg	100
812.567	0.734	734.1	2back	Block2	2back/STIM_010.jpg	100
815.553	0.956	955.5	2back	Block2	2back/STIM_011.jpg	100
819.671	1.0	1000.3	2back	Block2	2back/STIM_011.jpg	99
824.277	0.839	838.6	2back	Block2	2back/STIM_011.jpg	99
827.287	0.968	967.6	2back	Block2	2back/STIM_012.jpg	100
830.417	0.578	578.0	2back	Block2	2back/STIM_012.jpg	99
833.497	1.028	1028.5	2back	Block2	2back/STIM_012.jpg	99
837.522	0.789	789.3	2back	Block2	2back/STIM_013.jpg	100
840.444	0.811	810.6	2back	Block2	2back/STIM_013.jpg	100
844.868	0.566	565.5	2back	Block2	2back/STIM_013.jpg	100
849.005	0.899	898.8	2back	Block2	2back/STIM_014.jpg	100
853.314	1.06	1059.8	2back	Block2	2back/STIM_014.jpg	99
856.831	0.856	855.5	2back	Block2	2back/STIM_014.jpg	99
860.301	1.208	1208.0	2back	Block2	2back/STIM_015.jpg	99
864.221	0.864	863.9	2back	Block2	2back/STIM_015.jpg	100
868.825	0.86	859.6	2back	Block2	2back/STIM_015.jpg	100
873.136	0.897	897.2	2back	Block2	2back/STIM_016.jpg	100
877.465	0.597	597.2	2back	Block2	2back/STIM_016.jpg	100
880.717	0.645	644.9	2back	Block2	2back/STIM_016.jpg	99
883.785	1.108	1108.1	2back	Block2	2back/STIM_017.jpg	100
888.538	1.031	1031.4	2back	Block2	2back/STIM_017.jpg	100
892.472	0.81	810.2	2back	Block2	2back/STIM_017.jpg	99
896.719	0.963	963.3	2back	Block2	2back/STIM_018.jpg	100
901.274	0.596	596.1	2back	Block2	2back/STIM_018.jpg	99
905.822	0.906	906.4	2back	Block2	2back/STIM_018.jpg	100
910.077	1.258	1257.5	2back	Block2	2back/STIM_019.jpg	99
915.005	1.038	1037.5	2back	Block2	2back/STIM_019.jpg	100
919.871	0.916	916.2	2back	Block2	2back/STIM_019.jpg	99
923.152	1.215	1215.2	2back	Block2	2back/STIM_020.jpg	99
928.154	0.655	655.0	2back	Block2	2back/STIM_020.jpg	99
932.491	0.63	630.0	2back	Block2	2back/STIM_020.jpg	99
936.879	0.806	806.4	2back	Block2	2back/STIM_021.jpg	100
940.018	0.95	950.4	2back	Block2	2back/STIM_021.jpg	99
943.312	0.688	688.4	2back	Block2	2back/STIM_021.jpg	99
947.802	1.196	1196.2	2back	Block2	2back/STIM_022.jpg	100
951.445	1.121	1120.6	2back	Block2	2back/STIM_022.jpg	100
954.803	0.935	935.4	2back	Block2	2back/STIM_022.jpg	100
958.343	1.201	1200.9	2back	Block2	2back/STIM_023.jpg	99
963.405	1.006	1006.0	2back	Block2	2back/STIM_023.jpg	100
967.756	0.494	494.0	2back	Block2	2back/STIM_023.jpg	99
970.859	1.17	1169.5	2back	Block2	2back/STIM_024.jpg	100
974.44	0.93	930.1	2back	Block2	2back/STIM_024.jpg	100
978.696	1.077	1076.6	2back	Block2	2back/STIM_024.jpg	100
983.258	1.05	1049.6	2back	Block2	2back/STIM_025.jpg	99
987.214	0.579	579.4	2back	Block2	2back/STIM_025.jpg	99
990.887	0.957	956.8	2back	Block2	2back/STIM_025.jpg	100
993.892	0.827	826.8	2back	Block2	2back/STIM_026.jpg	100
996.968	1.086	1085.8	2back	Block2	2back/STIM_026.jpg	100
1001.409	0.986	986.2	2back	Block2	2back/STIM_026.jpg	99
1006.21	1.223	1222.9	2back	Block2	2back/STIM_027.jpg	100
1010.479	0.762	762.0	2back	Block2	2back/STIM_027.jpg	99
1013.755	0.867	866.6	2back	Block2	2back/STIM_027.jpg	99
1017.431	0.79	789.5	2back	Block2	2back/STIM_028.jpg	100
1021.582	0.707	707.4	2back	Block2	2back/STIM_028.jpg	99
1024.949	0.639	639.0	2back	Block2	2back/STIM_028.jpg	99
1029.037	1.233	1232.6	2back	Block2	2back/STIM_029.jpg	100
1033.977	0.98	979.9	2back	Block2	2back/STIM_029.jpg	100
1037.75	0.546	545.9	2back	Block2	2back/STIM_029.jpg	100
1040.968	0.745	744.7	2back	Block2	2back/STIM_030.jpg	99
1044.962	1.151	1151.1	2back	Block2	2back/STIM_030.jpg	99
1048.443	0.564	564.1	2back	Block2	2back/STIM_030.jpg	99
1052.671	1.153	1153.0	2back	Block2	2back/STIM_031.jpg	100
1057.571	0.632	632.4	2back	Block2	2back/STIM_031.jpg	100
1061.412	1.105	1105.2	2back	Block2	2back/STIM_031.jpg	99
1065.467	0.914	914.5	2back	Block2	2back/STIM_032.jpg	100
1069.254	0.923	922.6	2back	Block2	2back/STIM_032.jpg	99
1072.247	0.559	558.8	2back	Block2	2back/STIM_032.jpg	100
1075.128	0.59	590.0	2back	Block2	2back/STIM_033.jpg	100
1078.623	1.014	1014.4	2back	Block2	2back/STIM_033.jpg	100
1082.962	0.859	859.0	2back	Block2	2back/STIM_033.jpg	100
1086.336	0.889	889.0	2back	Block2	2back/STIM_034.jpg	100
1089.369	1.178	1178.1	2back	Block2	2back/STIM_034.jpg	99
1093.685	1.053	1052.7	2back	Block2	2back/STIM_034.jpg	100
1097.254	0.749	748.7	2back	Block2	2back/STIM_035.jpg	100
1101.073	0.684	684.1	2back	Block2	2back/STIM_035.jpg	100
1105.231	1.054	1053.8	2back	Block2	2back/STIM_035.jpg	99
1109.185	0.982	981.9	2back	Block2	2back/STIM_036.jpg	100
1112.774	0.618	617.9	2back	Block2	2back/STIM_036.jpg	99
1116.666	0.945	945.3	2back	Block2	2back/STIM_036.jpg	100
1119.928	0.812	811.5	2back	Block2	2back/STIM_037.jpg	100
1124.138	0.553	553.3	2back	Block2	2back/STIM_037.jpg	100
1128.015	0.88	880.3	2back	Block2	2back/STIM_037.jpg	100
1131.057	0.611	611.1	2back	Block2	2back/STIM_038.jpg	100
1135.391	0.631	631.2	2back	Block2	2back/STIM_038.jpg	100
1139.947	0.789	789.1	2back	Block2	2back/STIM_038.jpg	99
1142.814	1.039	1038.7	2back	Block2	2back/STIM_039.jpg	99
1146.245	1.023	1022.8	2back	Block2	2back/STIM_039.jpg	99
1149.578	0.635	634.8	2back	Block2	2back/STIM_039.jpg	100
1153.737	0.49	489.7	0back	Block2	0back/STIM_000.jpg	99
1156.394	0.563	562.7	0back	Block2	0back/STIM_000.jpg	99
1159.031	0.751	750.6	0back	Block2	0back/STIM_000.jpg	99
1163.519	0.795	795.0	0back	Block2	0back/STIM_001.jpg	99
1168.024	0.783	782.8	0back	Block2	0back/STIM_001.jpg	100
1171.394	0.571	570.6	0back	Block2	0back/STIM_001.jpg	99
1175.808	0.693	693.3	0back	Block2	0back/STIM_002.jpg	99
1179.98	0.526	526.4	0back	Block2	0back/STIM_002.jpg	99
1183.717	0.802	801.8	0back	Block2	0back/STIM_002.jpg	100
1188.399	0.69	690.1	0back	Block2	0back/STIM_003.jpg	100
1192.289	0.483	482.8	0back	Block2	0back/STIM_003.jpg	100
1195.476	0.698	698.1	0back	Block2	0back/STIM_003.jpg	99
1200.095	0.783	783.3	0back	Block2	0back/STIM_004.jpg	100
1203.23	0.478	477.9	0back	Block2	0back/STIM_004.jpg	99
1206.627	0.719	719.1	0back	Block2	0back/STIM_004.jpg	99
1211.251	0.813	812.9	0back	Block2	0back/STIM_005.jpg	100
1214.132	0.58	579.7	0back	Block2	0back/STIM_005.jpg	99
1217.241	0.845	845.1	0back	Block2	0back/STIM_005.jpg	99
1221.442	0.464	463.8	0back	Block2	0back/STIM_006.jpg	100
1224.968	0.632	631.6	0back	Block2	0back/STIM_006.jpg	99
1228.676	0.796	796.5	0back	Block2	0back/STIM_006.jpg	100
1233.262	0.467	467.1	0back	Block2	0back/STIM_007.jpg	99
1236.709	0.662	661.6	0back	Block2	0back/STIM_007.jpg	100
1241.323	0.777	776.9	0back	Block2	0back/STIM_007.jpg	100
1245.591	0.514	514.5	0back	Block2	0back/STIM_008.jpg	99
1248.865	0.647	646.6	0back	Block2	0back/STIM_008.jpg	99
1252.73	0.808	807.5	0back	Block2	0back/STIM_008.jpg	99
1256.025	0.499	499.0	0back	Block2	0back/STIM_009.jpg	99
1258.986	0.563	562.7	0back	Block2	0back/STIM_009.jpg	99
1262.057	0.856	856.5	0back	Block2	0back/STIM_009.jpg	99
1265.513	0.823	823.1	0back	Block2	0back/STIM_010.jpg	100
1268.859	0.464	463.5	0back	Block2	0back/STIM_010.jpg	99
1271.362	0.836	836.5	0back	Block2	0back/STIM_010.jpg	100
1275.154	0.816	815.7	0back	Block2	0back/STIM_011.jpg	100
1279.009	0.47	469.5	0back	Block2	0back/STIM_011.jpg	100
1281.885	0.772	772.4	0back	Block2	0back/STIM_011.jpg	100
1286.362	0.722	722.1	0back	Block2	0back/STIM_012.jpg	99
1290.694	0.832	831.5	0back	Block2	0back/STIM_012.jpg	100
1293.534	0.562	561.9	0back	Block2	0back/STIM_012.jpg	99
1297.606	0.752	752.0	0back	Block2	0back/STIM_013.jpg	100
1300.371	0.587	587.4	0back	Block2	0back/STIM_013.jpg	99
1303.208	0.75	750.5	0back	Block2	0back/STIM_013.jpg	100
1306.072	0.456	456.1	0back	Block2	0back/STIM_014.jpg	100
1310.351	0.619	619.3	0back	Block2	0back/STIM_014.jpg	99
1314.815	0.664	664.3	0back	Block2	0back/STIM_014.jpg	100
1319.347	0.665	665.1	0back	Block2	0back/STIM_015.jpg	100
1323.87	0.83	830.0	0back	Block2	0back/STIM_015.jpg	99
1327.636	0.443	443.0	0back	Block2	0back/STIM_015.jpg	100
1330.199	0.513	512.9	0back	Block2	0back/STIM_016.jpg	99
1333.672	0.491	491.1	0back	Block2	0back/STIM_016.jpg	99
1337.674	0.715	715.1	0back	Block2	0back/STIM_016.jpg	100
1340.388	0.54	539.5	0back	Block2	0back/STIM_017.jpg	100
1342.962	0.798	798.0	0back	Block2	0back/STIM_017.jpg	99
1346.181	0.583	582.9	0back	Block2	0back/STIM_017.jpg	100
1349.579	0.529	528.7	0back	Block2	0back/STIM_018.jpg	99
1352.198	0.539	539.1	0back	Block2	0back/STIM_018.jpg	99
1355.308	0.627	626.7	0back	Block2	0back/STIM_018.jpg	99
1359.552	0.454	454.5	0back	Block2	0back/STIM_019.jpg	99
1362.71	0.652	652.2	0back	Block2	0back/STIM_019.jpg	100
1367.044	0.56	559.9	0back	Block2	0back/STIM_019.jpg	100
1370.165	0.558	557.5	2back	Block3	2back/STIM_000.jpg	99
1374.283	0.922	922.1	2back	Block3	2back/STIM_000.jpg	99
1377.611	0.636	635.7	2back	Block3	2back/STIM_000.jpg	99
1380.996	0.865	865.1	2back	Block3	2back/STIM_001.jpg	100
1384.223	0.769	769.0	2back	Block3	2back/STIM_001.jpg	100
1388.436	0.848	848.3	2back	Block3	2back/STIM_001.jpg	99
1392.622	0.841	840.9	2back	Block3	2back/STIM_002.jpg	99
1395.579	0.968	967.6	2back	Block3	2back/STIM_002.jpg	100
1398.735	0.889	889.1	2back	Block3	2back/STIM_002.jpg	100
1401.736	0.655	655.4	2back	Block3	2back/STIM_003.jpg	100
1404.787	0.943	942.6	2back	Block3	2back/STIM_003.jpg	99
1407.871	0.937	937.1	2back	Block3	2back/STIM_003.jpg	100
1412.238	0.454	454.2	2back	Block3	2back/STIM_004.jpg	99
1416.185	0.571	570.8	2back	Block3	2back/STIM_004.jpg	99
1419.447	0.727	727.4	2back	Block3	2back/STIM_004.jpg	99
1422.455	0.53	529.5	2back	Block3	2back/STIM_005.jpg	99
1425.39	0.494	494.1	2back	Block3	2back/STIM_005.jpg	100
1429.378	1.042	1041.9	2back	Block3	2back/STIM_005.jpg	100
1434.239	0.53	530.4	2back	Block3	2back/STIM_006.jpg	100
1438.557	0.678	677.9	2back	Block3	2back/STIM_006.jpg	100
1441.617	0.924	924.5	2back	Block3	2back/STIM_006.jpg	100
1444.727	0.941	940.8	2back	Block3	2back/STIM_007.jpg	100
1448.04	0.899	899.2	2back	Block3	2back/STIM_007.jpg	100
1451.665	0.892	892.3	2back	Block3	2back/STIM_007.jpg	100
1456.065	0.87	870.0	2back	Block3	2back/STIM_008.jpg	100
1460.386	0.834	833.9	2back	Block3	2back/STIM_008.jpg	99
1465.004	0.928	927.7	2back	Block3	2back/STIM_008.jpg	99
1469.582	0.935	935.4	2back	Block3	2back/STIM_009.jpg	99
1473.944	1.047	1046.8	2back	Block3	2back/STIM_009.jpg	100
1478.506	0.642	642.1	2back	Block3	2back/STIM_009.jpg	99
1481.557	0.694	694.0	2back	Block3	2back/STIM_010.jpg	99
1484.978	0.455	455.2	2back	Block3	2back/STIM_010.jpg	100
1488.644	0.586	585.8	2back	Block3	2back/STIM_010.jpg	100
1492.909	0.524	523.9	2back	Block3	2back/STIM_011.jpg	100
1496.104	0.499	499.4	2back	Block3	2back/STIM_011.jpg	99
1499.68	0.831	830.8	2back	Block3	2back/STIM_011.jpg	99
1503.998	1.053	1052.9	2back	Block3	2back/STIM_012.jpg	100
1507.04	0.893	892.6	2back	Block3	2back/STIM_012.jpg	100
1510.801	0.854	854.1	2back	Block3	2back/STIM_012.jpg	100
1514.347	0.487	486.8	2back	Block3	2back/STIM_013.jpg	100
1516.836	0.731	731.4	2back	Block3	2back/STIM_013.jpg	100
1520.132	0.923	922.7	2back	Block3	2back/STIM_013.jpg	100
1523.826	0.934	933.9	2back	Block3	2back/STIM_014.jpg	100
1527.504	0.532	531.5	2back	Block3	2back/STIM_014.jpg	99
1531.529	0.936	936.3	2back	Block3	2back/STIM_014.jpg	99
1535.712	0.614	613.5	2back	Block3	2back/STIM_015.jpg	99
1539.927	0.939	939.2	2back	Block3	2back/STIM_015.jpg	99
1544.641	0.499	498.8	2back	Block3	2back/STIM_015.jpg	99
1548.659	0.814	813.6	2back	Block3	2back/STIM_016.jpg	99
1553.025	0.648	648.0	2back	Block3	2back/STIM_016.jpg	99
1556.385	0.916	915.9	2back	Block3	2back/STIM_016.jpg	100
1560.528	0.893	892.8	2back	Block3	2back/STIM_017.jpg	100
1563.496	0.96	959.7	2back	Block3	2back/STIM_017.jpg	99
1566.962	0.786	786.5	2back	Block3	2back/STIM_017.jpg	100
1571.431	0.525	525.0	2back	Block3	2back/STIM_018.jpg	100
1574.273	0.892	891.9	2back	Block3	2back/STIM_018.jpg	99
1578.447	0.461	460.8	2back	Block3	2back/STIM_018.jpg	100
1582.854	0.926	926.0	2back	Block3	2back/STIM_019.jpg	99
1586.321	0.522	522.1	2back	Block3	2back/STIM_019.jpg	99
1590.431	0.957	957.0	2back	Block3	2back/STIM_019.jpg	99
1593.437	0.771	771.3	2back	Block3	2back/STIM_020.jpg	100
1597.399	0.677	677.0	2back	Block3	2back/STIM_020.jpg	100
1600.691	0.648	647.9	2back	Block3	2back/STIM_020.jpg	100
1604.97	0.815	815.4	2back	Block3	2back/STIM_021.jpg	99
1608.876	0.915	915.1	2back	Block3	2back/STIM_021.jpg	100
1613.701	0.606	605.9	2back	Block3	2back/STIM_021.jpg	99
1617.176	0.81	810.4	2back	Block3	2back/STIM_022.jpg	100
1621.339	0.885	885.4	2back	Block3	2back/STIM_022.jpg	99
1625.47	0.896	896.1	2back	Block3	2back/STIM_022.jpg	100
1629.347	0.517	517.2	2back	Block3	2back/STIM_023.jpg	99
1632.74	0.938	938.3	2back	Block3	2back/STIM_023.jpg	100
1637.274	0.95	949.9	2back	Block3	2back/STIM_023.jpg	99
1641.806	1.043	1043.2	2back	Block3	2back/STIM_024.jpg	100
1646.245	0.542	542.1	2back	Block3	2back/STIM_024.jpg	99
1649.531	0.938	938.1	2back	Block3	2back/STIM_024.jpg	100
1652.732	0.996	996.2	2back	Block3	2back/STIM_025.jpg	99
1657.53	0.799	798.7	2back	Block3	2back/STIM_025.jpg	99
1661.207	0.747	746.6	2back	Block3	2back/STIM_025.jpg	100
1665.731	0.978	977.9	2back	Block3	2back/STIM_026.jpg	99
1670.513	0.953	952.7	2back	Block3	2back/STIM_026.jpg	99
1674.352	0.482	482.3	2back	Block3	2back/STIM_026.jpg	100
1678.426	0.842	841.9	2back	Block3	2back/STIM_027.jpg	100
1681.607	0.538	537.5	2back	Block3	2back/STIM_027.jpg	99
1684.835	0.723	723.3	2back	Block3	2back/STIM_027.jpg	99
1687.774	0.453	452.8	2back	Block3	2back/STIM_028.jpg	100
1691.827	0.634	633.8	2back	Block3	2back/STIM_028.jpg	99
1695.406	0.799	799.2	2back	Block3	2back/STIM_028.jpg	100
1699.737	0.631	631.0	2back	Block3	2back/STIM_029.jpg	99
1702.714	0.569	568.9	2back	Block3	2back/STIM_029.jpg	99
1706.591	0.658	657.7	2back	Block3	2back/STIM_029.jpg	99
1709.76	0.625	624.9	2back	Block3	2back/STIM_030.jpg	99
1714.154	0.611	610.7	2back	Block3	2back/STIM_030.jpg	99
1717.035	0.726	726.2	2back	Block3	2back/STIM_030.jpg	99
1721.616	0.99	990.2	2back	Block3	2back/STIM_031.jpg	100
1725.903	0.587	587.3	2back	Block3	2back/STIM_031.jpg	100
1730.157	0.65	650.0	2back	Block3	2back/STIM_031.jpg	99
1733.161	0.561	560.7	2back	Block3	2back/STIM_032.jpg	99
1737.401	0.564	564.0	2back	Block3	2back/STIM_032.jpg	100
1740.093	0.75	750.0	2back	Block3	2back/STIM_032.jpg	100
1743.596	0.853	852.6	2back	Block3	2back/STIM_033.jpg	100
1746.434	0.921	921.3	2back	Block3	2back/STIM_033.jpg	99
1749.472	0.958	958.0	2back	Block3	2back/STIM_033.jpg	99
1754.14	0.761	760.6	2back	Block3	2back/STIM_034.jpg	99
1757.734	0.499	498.9	2back	Block3	2back/STIM_034.jpg	99
1761.476	1.05	1050.3	2back	Block3	2back/STIM_034.jpg	99
1765.518	0.952	952.4	2back	Block3	2back/STIM_035.jpg	100
1770.358	0.478	478.5	2back	Block3	2back/STIM_035.jpg	100
1774.077	0.961	960.6	2back	Block3	2back/STIM_035.jpg	100
1778.595	0.996	995.6	2back	Block3	2back/STIM_036.jpg	99
1781.821	1.04	1040.5	2back	Block3	2back/STIM_036.jpg	99
1785.188	1.048	1048.2	2back	Block3	2back/STIM_036.jpg	100
1789.112	0.807	807.0	2back	Block3	2back/STIM_037.jpg	100
1792.699	0.46	459.5	2back	Block3	2back/STIM_037.jpg	100
1795.338	0.464	463.9	2back	Block3	2back/STIM_037.jpg	99
1799.767	0.962	961.9	2back	Block3	2back/STIM_038.jpg	100
1802.664	0.798	798.5	2back	Block3	2back/STIM_038.jpg	100
1806.778	0.538	537.7	2back	Block3	2back/STIM_038.jpg	99
1810.06	0.946	946.2	2back	Block3	2back/STIM_039.jpg	99
1814.604	0.653	652.6	2back	Block3	2back/STIM_039.jpg	99
1817.214	0.573	573.2	2back	Block3	2back/STIM_039.jpg	100
1820.857	0.568	568.0	0back	Block3	0back/STIM_000.jpg	100
1824.046	0.576	576.2	0back	Block3	0back/STIM_000.jpg	100
1827.371	0.756	756.0	0back	Block3	0back/STIM_000.jpg	99
1832.017	0.678	678.0	0back	Block3	0back/STIM_001.jpg	100
1836.032	0.841	840.9	0back	Block3	0back/STIM_001.jpg	99
1839.058	0.569	568.9	0back	Block3	0back/STIM_001.jpg	99
1842.531	0.701	700.8	0back	Block3	0back/STIM_002.jpg	99
1845.854	0.768	767.9	0back	Block3	0back/STIM_002.jpg	100
1849.005	0.821	821.3	0back	Block3	0back/STIM_002.jpg	100
1853.541	0.599	599.4	0back	Block3	0back/STIM_003.jpg	99
1858.053	0.773	772.9	0back	Block3	0back/STIM_003.jpg	99
1861.245	0.833	833.0	0back	Block3	0back/STIM_003.jpg	100
1864.908	0.709	708.8	0back	Block3	0back/STIM_004.jpg	100
1868.368	0.554	553.7	0back	Block3	0back/STIM_004.jpg	99
1872.365	0.58	579.5	0back	Block3	0back/STIM_004.jpg	100
1875.024	0.708	707.9	0back	Block3	0back/STIM_005.jpg	99
1879.514	0.481	481.3	0back	Block3	0back/STIM_005.jpg	100
1883.534	0.47	470.1	0back	Block3	0back/STIM_005.jpg	99
1886.01	0.551	550.6	0back	Block3	0back/STIM_006.jpg	100
1889.9	0.759	758.7	0back	Block3	0back/STIM_006.jpg	99
1893.047	0.541	540.6	0back	Block3	0back/STIM_006.jpg	99
1896.618	0.578	577.6	0back	Block3	0back/STIM_007.jpg	99
1900.954	0.836	836.1	0back	Block3	0back/STIM_007.jpg	100
1905.319	0.747	747.3	0back	Block3	0back/STIM_007.jpg	100
1908.86	0.682	682.2	0back	Block3	0back/STIM_008.jpg	99
1913.433	0.723	723.3	0back	Block3	0back/STIM_008.jpg	100
1916.113	0.605	604.7	0back	Block3	0back/STIM_008.jpg	100
1920.649	0.473	473.2	0back	Block3	0back/STIM_009.jpg	99
1924.708	0.696	696.4	0back	Block3	0back/STIM_009.jpg	99
1929.11	0.649	649.3	0back	Block3	0back/STIM_009.jpg	100
1932.462	0.817	817.4	0back	Block3	0back/STIM_010.jpg	100
1935.884	0.599	599.3	0back	Block3	0back/STIM_010.jpg	99
1940.423	0.718	717.5	0back	Block3	0back/STIM_010.jpg	99
1944.019	0.444	443.6	0back	Block3	0back/STIM_011.jpg	100
1947.417	0.817	816.6	0back	Block3	0back/STIM_011.jpg	99
1951.925	0.835	834.8	0back	Block3	0back/STIM_011.jpg	99
1955.542	0.618	618.2	0back	Block3	0back/STIM_012.jpg	100
1959.374	0.584	583.7	0back	Block3	0back/STIM_012.jpg	100
1963.476	0.611	611.4	0back	Block3	0back/STIM_012.jpg	99
1967.866	0.823	823.1	0back	Block3	0back/STIM_013.jpg	99
1972.419	0.574	574.4	0back	Block3	0back/STIM_013.jpg	100
1976.412	0.701	700.6	0back	Block3	0back/STIM_013.jpg	99
1979.338	0.624	623.6	0back	Block3	0back/STIM_014.jpg	99
1983.873	0.445	444.8	0back	Block3	0back/STIM_014.jpg	99
1987.367	0.619	619.3	0back	Block3	0back/STIM_014.jpg	99
1990.559	0.606	606.3	0back	Block3	0back/STIM_015.jpg	100
1993.956	0.59	589.8	0back	Block3	0back/STIM_015.jpg	100
1998.203	0.528	527.7	0back	Block3	0back/STIM_015.jpg	99
2001.074	0.611	611.3	0back	Block3	0back/STIM_016.jpg	100
2003.688	0.466	465.5	0back	Block3	0back/STIM_016.jpg	100
2007.298	0.709	708.8	0back	Block3	0back/STIM_016.jpg	99
2011.331	0.842	842.3	0back	Block3	0back/STIM_017.jpg	100
2014.299	0.755	755.1	0back	Block3	0back/STIM_017.jpg	100
2017.243	0.668	668.2	0back	Block3	0back/STIM_017.jpg	99
2020.106	0.74	740.4	0back	Block3	0back/STIM_018.jpg	100
2023.623	0.491	491.3	0back	Block3	0back/STIM_018.jpg	100
2026.11	0.577	576.6	0back	Block3	0back/STIM_018.jpg	100
2029.541	0.825	824.7	0back	Block3	0back/STIM_019.jpg	100
2032.862	0.645	644.6	0back	Block3	0back/STIM_019.jpg	99
2036.463	0.844	844.5	0back	Block3	0back/STIM_019.jpg	100
2040.519	0.613	613.4	2back	Block4	2back/STIM_000.jpg	99
2043.919	0.614	614.0	2back	Block4	2back/STIM_000.jpg	99
2046.599	0.623	622.7	2back	Block4	2back/STIM_000.jpg	99
2050.87	0.563	563.1	2back	Block4	2back/STIM_001.jpg	100
2054.018	0.983	983.3	2back	Block4	2back/STIM_001.jpg	100
2058.591	0.568	568.4	2back	Block4	2back/STIM_001.jpg	99
2061.752	0.99	989.5	2back	Block4	2back/STIM_002.jpg	99
2066.647	0.579	579.4	2back	Block4	2back/STIM_002.jpg	99
2070.035	0.68	680.2	2back	Block4	2back/STIM_002.jpg	100
2073.491	0.782	782.5	2back	Block4	2back/STIM_003.jpg	100
2077.171	0.903	903.2	2back	Block4	2back/STIM_003.jpg	99
2080.098	1.034	1034.3	2back	Block4	2back/STIM_003.jpg	99
2084.624	0.497	497.1	2back	Block4	2back/STIM_004.jpg	99
2088.339	0.566	566.5	2back	Block4	2back/STIM_004.jpg	99
2092.093	0.882	881.8	2back	Block4	2back/STIM_004.jpg	99
2095.446	0.572	571.7	2back	Block4	2back/STIM_005.jpg	100
2098.792	1.038	1038.0	2back	Block4	2back/STIM_005.jpg	100
2103.461	0.469	468.7	2back	Block4	2back/STIM_005.jpg	100
2107.846	0.494	494.3	2back	Block4	2back/STIM_006.jpg	99
2110.924	0.801	800.7	2back	Block4	2back/STIM_006.jpg	100
2113.777	0.661	660.6	2back	Block4	2back/STIM_006.jpg	100
2117.1	0.66	660.4	2back	Block4	2back/STIM_007.jpg	99
2120.86	0.956	955.6	2back	Block4	2back/STIM_007.jpg	99
2124.74	0.576	576.1	2back	Block4	2back/STIM_007.jpg	99
2129.064	0.912	911.7	2back	Block4	2back/STIM_008.jpg	100
2132.885	0.918	917.6	2back	Block4	2back/STIM_008.jpg	100
2136.096	0.985	985.3	2back	Block4	2back/STIM_008.jpg	100
2140.276	0.453	453.1	2back	Block4	2back/STIM_009.jpg	100
2143.729	0.723	723.0	2back	Block4	2back/STIM_009.jpg	100
2146.812	1.034	1033.6	2back	Block4	2back/STIM_009.jpg	100
2149.836	0.654	654.3	2back	Block4	2back/STIM_010.jpg	99
2152.567	1.026	1026.3	2back	Block4	2back/STIM_010.jpg	99
2155.927	0.882	882.4	2back	Block4	2back/STIM_010.jpg	100
2160.096	0.753	753.0	2back	Block4	2back/STIM_011.jpg	100
2163.046	0.922	921.7	2back	Block4	2back/STIM_011.jpg	100
2167.037	0.776	776.1	2back	Block4	2back/STIM_011.jpg	100
2170.11	0.744	743.8	2back	Block4	2back/STIM_012.jpg	99
2174.137	0.993	992.7	2back	Block4	2back/STIM_012.jpg	100
2177.153	0.759	759.3	2back	Block4	2back/STIM_012.jpg	100
2180.756	0.695	694.7	2back	Block4	2back/STIM_013.jpg	100
2183.932	0.896	896.5	2back	Block4	2back/STIM_013.jpg	100
2187.985	0.498	497.8	2back	Block4	2back/STIM_013.jpg	99
2190.61	0.84	839.8	2back	Block4	2back/STIM_014.jpg	99
2193.717	1.035	1034.8	2back	Block4	2back/STIM_014.jpg	100
2196.843	0.88	880.0	2back	Block4	2back/STIM_014.jpg	99
2200.247	0.64	639.8	2back	Block4	2back/STIM_015.jpg	99
2202.903	0.84	840.0	2back	Block4	2back/STIM_015.jpg	100
2207.296	0.454	454.2	2back	Block4	2back/STIM_015.jpg	100
2209.916	0.913	912.9	2back	Block4	2back/STIM_016.jpg	99
2213.331	0.764	763.9	2back	Block4	2back/STIM_016.jpg	100
2216.7	0.743	742.8	2back	Block4	2back/STIM_016.jpg	99
2219.74	0.739	739.3	2back	Block4	2back/STIM_017.jpg	100
2223.971	0.977	977.1	2back	Block4	2back/STIM_017.jpg	100
2227.223	0.86	859.8	2back	Block4	2back/STIM_017.jpg	99
2230.486	0.699	699.2	2back	Block4	2back/STIM_018.jpg	100
2234.704	1.003	1003.2	2back	Block4	2back/STIM_018.jpg	99
2239.081	0.827	826.6	2back	Block4	2back/STIM_018.jpg	100
2241.853	0.632	632.1	2back	Block4	2back/STIM_019.jpg	99
2246.296	0.685	685.1	2back	Block4	2back/STIM_019.jpg	99
2248.937	0.472	472.4	2back	Block4	2back/STIM_019.jpg	99
2252.84	0.5	500.0	2back	Block4	2back/STIM_020.jpg	99
2256.178	0.656	655.5	2back	Block4	2back/STIM_020.jpg	99
2259.796	0.771	770.9	2back	Block4	2back/STIM_020.jpg	99
2264.331	0.495	494.6	2back	Block4	2back/STIM_021.jpg	100
2267.809	0.46	460.1	2back	Block4	2back/STIM_021.jpg	100
2271.581	0.528	528.3	2back	Block4	2back/STIM_021.jpg	99
2274.325	0.558	558.0	2back	Block4	2back/STIM_022.jpg	99
2278.589	0.779	778.9	2back	Block4	2back/STIM_022.jpg	99
2281.442	0.808	808.5	2back	Block4	2back/STIM_022.jpg	100
2285.741	1.053	1053.3	2back	Block4	2back/STIM_023.jpg	99
2289.163	0.598	597.5	2back	Block4	2back/STIM_023.jpg	99
2293.09	0.728	727.6	2back	Block4	2back/STIM_023.jpg	100
2297.28	0.792	792.0	2back	Block4	2back/STIM_024.jpg	99
2300.793	0.46	460.1	2back	Block4	2back/STIM_024.jpg	99
2303.528	0.76	759.6	2back	Block4	2back/STIM_024.jpg	99
2306.379	0.855	855.4	2back	Block4	2back/STIM_025.jpg	100
2310.381	0.789	789.1	2back	Block4	2back/STIM_025.jpg	99
2313.466	0.775	775.4	2back	Block4	2back/STIM_025.jpg	100
2317.842	0.632	631.7	2back	Block4	2back/STIM_026.jpg	100
2322.308	0.635	635.3	2back	Block4	2back/STIM_026.jpg	99
2326.278	0.899	899.0	2back	Block4	2back/STIM_026.jpg	100
2329.957	0.557	557.4	2back	Block4	2back/STIM_027.jpg	99
2332.676	1.03	1030.1	2back	Block4	2back/STIM_027.jpg	99
2337.193	0.871	870.7	2back	Block4	2back/STIM_027.jpg	100
2341.577	1.038	1037.9	2back	Block4	2back/STIM_028.jpg	99
2344.548	0.996	995.8	2back	Block4	2back/STIM_028.jpg	100
2348.704	0.667	667.2	2back	Block4	2back/STIM_028.jpg	100
2353.07	0.608	607.5	2back	Block4	2back/STIM_029.jpg	99
2356.741	0.951	950.7	2back	Block4	2back/STIM_029.jpg	99
2360.802	0.774	773.7	2back	Block4	2back/STIM_029.jpg	99
2364.991	0.691	691.3	2back	Block4	2back/STIM_030.jpg	99
2368.067	0.567	567.2	2back	Block4	2back/STIM_030.jpg	99
2372.277	0.96	960.1	2back	Block4	2back/STIM_030.jpg	100
2377.081	0.816	816.1	2back	Block4	2back/STIM_031.jpg	99
2381.011	1.054	1054.1	2back	Block4	2back/STIM_031.jpg	99
2385.075	0.505	505.5	2back	Block4	2back/STIM_031.jpg	99
2389.149	0.633	632.8	2back	Block4	2back/STIM_032.jpg	99
2392.349	0.808	808.5	2back	Block4	2back/STIM_032.jpg	100
2395.541	0.631	631.1	2back	Block4	2back/STIM_032.jpg	99
2398.241	0.778	778.1	2back	Block4	2back/STIM_033.jpg	99
2402.349	0.89	890.1	2back	Block4	2back/STIM_033.jpg	100
2406.108	1.05	1050.0	2back	Block4	2back/STIM_033.jpg	100
2409.151	0.878	877.6	2back	Block4	2back/STIM_034.jpg	99
2413.462	1.03	1029.9	2back	Block4	2back/STIM_034.jpg	100
2417.686	0.787	786.7	2back	Block4	2back/STIM_034.jpg	99
2421.932	0.862	862.1	2back	Block4	2back/STIM_035.jpg	100
2426.266	0.74	740.5	2back	Block4	2back/STIM_035.jpg	100
2430.397	0.861	861.1	2back	Block4	2back/STIM_035.jpg	99
2434.519	0.485	484.8	2back	Block4	2back/STIM_036.jpg	99
2438.089	0.724	723.8	2back	Block4	2back/STIM_036.jpg	99
2441.325	0.461	461.3	2back	Block4	2back/STIM_036.jpg	99
2445.067	0.642	642.4	2back	Block4	2back/STIM_037.jpg	100
2448.176	0.655	655.0	2back	Block4	2back/STIM_037.jpg	99
2452.178	0.513	513.4	2back	Block4	2back/STIM_037.jpg	100
2456.26	0.957	957.2	2back	Block4	2back/STIM_038.jpg	99
2459.879	0.545	545.1	2back	Block4	2back/STIM_038.jpg	99
2463.098	0.932	932.0	2back	Block4	2back/STIM_038.jpg	99
2467.092	0.758	757.9	2back	Block4	2back/STIM_039.jpg	100
2469.954	0.496	496.2	2back	Block4	2back/STIM_039.jpg	100
2472.475	0.712	711.8	2back	Block4	2back/STIM_039.jpg	100
2476.452	0.652	651.6	0back	Block4	0back/STIM_000.jpg	100
2480.887	0.518	518.3	0back	Block4	0back/STIM_000.jpg	100
2483.59	0.839	839.4	0back	Block4	0back/STIM_000.jpg	99
2487.925	0.472	472.3	0back	Block4	0back/STIM_001.jpg	99
2490.437	0.564	563.8	0back	Block4	0back/STIM_001.jpg	99
2494.118	0.541	540.6	0back	Block4	0back/STIM_001.jpg	100
2496.939	0.575	575.3	0back	Block4	0back/STIM_002.jpg	100
2500.346	0.517	516.8	0back	Block4	0back/STIM_002.jpg	100
2503.467	0.825	824.8	0back	Block4	0back/STIM_002.jpg	100
2506.956	0.698	698.5	0back	Block4	0back/STIM_003.jpg	99
2510.696	0.447	446.7	0back	Block4	0back/STIM_003.jpg	100
2513.238	0.442	442.4	0back	Block4	0back/STIM_003.jpg	99
2516.746	0.812	812.0	0back	Block4	0back/STIM_004.jpg	100
2521.093	0.463	463.2	0back	Block4	0back/STIM_004.jpg	99
2524.314	0.552	552.5	0back	Block4	0back/STIM_004.jpg	99
2528.237	0.63	630.0	0back	Block4	0back/STIM_005.jpg	100
2531.973	0.673	672.9	0back	Block4	0back/STIM_005.jpg	100
2536.47	0.563	563.3	0back	Block4	0back/STIM_005.jpg	99
2539.269	0.558	558.1	0back	Block4	0back/STIM_006.jpg	99
2542.749	0.597	596.8	0back	Block4	0back/STIM_006.jpg	99
2546.892	0.856	856.3	0back	Block4	0back/STIM_006.jpg	100
2551.421	0.757	757.3	0back	Block4	0back/STIM_007.jpg	100
2554.177	0.703	702.7	0back	Block4	0back/STIM_007.jpg	100
2556.977	0.486	486.0	0back	Block4	0back/STIM_007.jpg	100
2560.018	0.552	552.3	0back	Block4	0back/STIM_008.jpg	99
2564.332	0.462	461.7	0back	Block4	0back/STIM_008.jpg	100
2567.881	0.476	476.4	0back	Block4	0back/STIM_008.jpg	99
2571.162	0.737	737.1	0back	Block4	0back/STIM_009.jpg	99
2574.718	0.469	469.0	0back	Block4	0back/STIM_009.jpg	99
2578.391	0.611	610.9	0back	Block4	0back/STIM_009.jpg	99
2581.261	0.86	859.5	0back	Block4	0back/STIM_010.jpg	99
2584.76	0.433	433.4	0back	Block4	0back/STIM_010.jpg	100
2588.821	0.501	501.4	0back	Block4	0back/STIM_010.jpg	100
2592.935	0.678	678.3	0back	Block4	0back/STIM_011.jpg	100
2596.676	0.767	766.7	0back	Block4	0back/STIM_011.jpg	99
2601.266	0.481	481.1	0back	Block4	0back/STIM_011.jpg	99
2605.026	0.718	718.2	0back	Block4	0back/STIM_012.jpg	100
2608.509	0.858	857.6	0back	Block4	0back/STIM_012.jpg	99
2612.935	0.468	467.8	0back	Block4	0back/STIM_012.jpg	99
2616.377	0.615	615.3	0back	Block4	0back/STIM_013.jpg	99
2619.499	0.86	859.8	0back	Block4	0back/STIM_013.jpg	99
2622.934	0.828	827.6	0back	Block4	0back/STIM_013.jpg	100
2625.922	0.565	564.9	0back	Block4	0back/STIM_014.jpg	99
2629.989	0.502	502.4	0back	Block4	0back/STIM_014.jpg	99
2633.818	0.837	837.1	0back	Block4	0back/STIM_014.jpg	99
2637.639	0.749	748.7	0back	Block4	0back/STIM_015.jpg	100
2640.969	0.668	667.5	0back	Block4	0back/STIM_015.jpg	100
2643.754	0.528	528.4	0back	Block4	0back/STIM_015.jpg	99
2646.364	0.524	524.0	0back	Block4	0back/STIM_016.jpg	100
2649.633	0.687	687.4	0back	Block4	0back/STIM_016.jpg	99
2653.188	0.658	658.2	0back	Block4	0back/STIM_016.jpg	100
2657.577	0.662	661.8	0back	Block4	0back/STIM_017.jpg	99
2661.034	0.816	815.7	0back	Block4	0back/STIM_017.jpg	99
2664.848	0.672	672.1	0back	Block4	0back/STIM_017.jpg	99
2667.51	0.5	500.3	0back	Block4	0back/STIM_018.jpg	100
2670.451	0.707	707.4	0back	Block4	0back/STIM_018.jpg	100
2673.274	0.652	651.6	0back	Block4	0back/STIM_018.jpg	100
2676.113	0.686	686.2	0back	Block4	0back/STIM_019.jpg	100
2679.421	0.6	599.9	0back	Block4	0back/STIM_019.jpg	99
2683.29	0.838	837.7	0back	Block4	0back/STIM_019.jpg	100
