onset	duration	accuracy	trial_type	learning_stage	stimulus
0.0	0.664	correct	2back	Block1	2back/STIM_000.jpg
4.178	1.323	correct	2back	Block1	2back/STIM_000.jpg
8.833	0.643	correct	2back	Block1	2back/STIM_000.jpg
13.329	1.218	correct	2back	Block1	2back/STIM_001.jpg
18.449	0.68	correct	2back	Block1	2back/STIM_001.jpg
21.219	0.708	correct	2back	Block1	2back/STIM_001.jpg
24.842	0.911	correct	2back	Block1	2back/STIM_002.jpg
29.037	1.311	correct	2back	Block1	2back/STIM_002.jpg
33.871	0.977	correct	2back	Block1	2back/STIM_002.jpg
37.351	1.175	correct	2back	Block1	2back/STIM_003.jpg
41.795	0.823	correct	2back	Block1	2back/STIM_003.jpg
46.4	0.653	correct	2back	Block1	2back/STIM_003.jpg
50.984	1.284	correct	2back	Block1	2back/STIM_004.jpg
54.46	1.322	correct	2back	Block1	2back/STIM_004.jpg
58.706	1.148	correct	2back	Block1	2back/STIM_004.jpg
63.475	1.186	incorrect	2back	Block1	2back/STIM_005.jpg
66.771	1.064	correct	2back	Block1	2back/STIM_005.jpg
70.17	0.828	correct	2back	Block1	2back/STIM_005.jpg
74.857	0.61	correct	2back	Block1	2back/STIM_006.jpg
79.015	0.824	correct	2back	Block1	2back/STIM_006.jpg
82.796	0.603	correct	2back	Block1	2back/STIM_006.jpg
86.434	0.709	correct	2back	Block1	2back/STIM_007.jpg
89.874	1.206	correct	2back	Block1	2back/STIM_007.jpg
94.356	1.12	correct	2back	Block1	2back/STIM_007.jpg
99.228	0.644	correct	2back	Block1	2back/STIM_008.jpg
103.406	1.315	correct	2back	Block1	2back/STIM_008.jpg
108.202	0.953	correct	2back	Block1	2back/STIM_008.jpg
113.14	1.273	correct	2back	Block1	2back/STIM_009.jpg
117.903	0.6	correct	2back	Block1	2back/STIM_009.jpg
122.448	0.777	correct	2back	Block1	2back/STIM_009.jpg
126.137	1.193	correct	2back	Block1	2back/STIM_010.jpg
129.785	1.169	correct	2back	Block1	2back/STIM_010.jpg
133.289	1.221	correct	2back	Block1	2back/STIM_010.jpg
138.348	1.374	incorrect	2back	Block1	2back/STIM_011.jpg
142.633	0.894	correct	2back	Block1	2back/STIM_011.jpg
145.827	0.891	correct	2back	Block1	2back/STIM_011.jpg
149.701	0.822	correct	2back	Block1	2back/STIM_012.jpg
154.203	0.819	correct	2back	Block1	2back/STIM_012.jpg
157.819	0.71	correct	2back	Block1	2back/STIM_012.jpg
161.231	0.897	correct	2back	Block1	2back/STIM_013.jpg
164.448	1.066	correct	2back	Block1	2back/STIM_013.jpg
168.251	0.66	correct	2back	Block1	2back/STIM_013.jpg
171.472	1.001	correct	2back	Block1	2back/STIM_014.jpg
176.276	0.794	correct	2back	Block1	2back/STIM_014.jpg
180.789	0.76	correct	2back	Block1	2back/STIM_014.jpg
183.608	0.687	correct	2back	Block1	2back/STIM_015.jpg
186.863	0.623	correct	2back	Block1	2back/STIM_015.jpg
190.138	0.892	correct	2back	Block1	2back/STIM_015.jpg
193.302	0.661	correct	2back	Block1	2back/STIM_016.jpg
196.464	0.91	correct	2back	Block1	2back/STIM_016.jpg
201.104	0.928	correct	2back	Block1	2back/STIM_016.jpg
205.845	1.275	correct	2back	Block1	2back/STIM_017.jpg
209.832	0.802	correct	2back	Block1	2back/STIM_017.jpg
214.37	0.757	correct	2back	Block1	2back/STIM_017.jpg
218.575	0.911	correct	2back	Block1	2back/STIM_018.jpg
223.383	1.245	correct	2back	Block1	2back/STIM_018.jpg
226.976	0.544	correct	2back	Block1	2back/STIM_018.jpg
231.21	1.348	correct	2back	Block1	2back/STIM_019.jpg
235.691	0.649	correct	2back	Block1	2back/STIM_019.jpg
238.397	0.963	correct	2back	Block1	2back/STIM_019.jpg
242.452	1.179	correct	2back	Block1	2back/STIM_020.jpg
247.556	0.985	correct	2back	Block1	2back/STIM_020.jpg
251.229	0.701	correct	2back	Block1	2back/STIM_020.jpg
255.033	0.834	correct	2back	Block1	2back/STIM_021.jpg
258.541	0.911	correct	2back	Block1	2back/STIM_021.jpg
262.149	0.735	correct	2back	Block1	2back/STIM_021.jpg
265.191	1.396	correct	2back	Block1	2back/STIM_022.jpg
268.657	1.157	correct	2back	Block1	2back/STIM_022.jpg
272.488	0.909	correct	2back	Block1	2back/STIM_022.jpg
275.952	0.646	correct	2back	Block1	2back/STIM_023.jpg
279.796	1.123	correct	2back	Block1	2back/STIM_023.jpg
284.681	0.782	correct	2back	Block1	2back/STIM_023.jpg
289.225	0.964	correct	2back	Block1	2back/STIM_024.jpg
293.241	1.284	correct	2back	Block1	2back/STIM_024.jpg
296.974	0.736	correct	2back	Block1	2back/STIM_024.jpg
300.056	0.918	correct	2back	Block1	2back/STIM_025.jpg
303.556	0.817	correct	2back	Block1	2back/STIM_025.jpg
308.303	1.027	correct	2back	Block1	2back/STIM_025.jpg
312.214	0.654	correct	2back	Block1	2back/STIM_026.jpg
316.149	0.699	correct	2back	Block1	2back/STIM_026.jpg
320.586	0.923	correct	2back	Block1	2back/STIM_026.jpg
324.168	1.284	correct	2back	Block1	2back/STIM_027.jpg
328.74	0.779	correct	2back	Block1	2back/STIM_027.jpg
332.23	0.587	correct	2back	Block1	2back/STIM_027.jpg
335.484	0.935	correct	2back	Block1	2back/STIM_028.jpg
340.231	0.759	correct	2back	Block1	2back/STIM_028.jpg
344.061	0.604	correct	2back	Block1	2back/STIM_028.jpg
347.868	0.608	correct	2back	Block1	2back/STIM_029.jpg
350.822	0.631	correct	2back	Block1	2back/STIM_029.jpg
354.435	0.626	correct	2back	Block1	2back/STIM_029.jpg
357.198	1.119	correct	2back	Block1	2back/STIM_030.jpg
360.928	1.056	correct	2back	Block1	2back/STIM_030.jpg
365.587	0.705	correct	2back	Block1	2back/STIM_030.jpg
369.575	1.102	correct	2back	Block1	2back/STIM_031.jpg
372.74	0.706	incorrect	2back	Block1	2back/STIM_031.jpg
375.584	1.26	correct	2back	Block1	2back/STIM_031.jpg
380.149	0.802	correct	2back	Block1	2back/STIM_032.jpg
384.035	1.193	incorrect	2back	Block1	2back/STIM_032.jpg
387.358	0.608	correct	2back	Block1	2back/STIM_032.jpg
390.314	0.901	correct	2back	Block1	2back/STIM_033.jpg
395.106	1.294	correct	2back	Block1	2back/STIM_033.jpg
399.084	0.627	correct	2back	Block1	2back/STIM_033.jpg
401.87	0.738	incorrect	2back	Block1	2back/STIM_034.jpg
405.585	0.615	correct	2back	Block1	2back/STIM_034.jpg
408.951	0.676	incorrect	2back	Block1	2back/STIM_034.jpg
412.023	0.866	correct	2back	Block1	2back/STIM_035.jpg
415.068	0.645	correct	2back	Block1	2back/STIM_035.jpg
418.299	0.857	correct	2back	Block1	2back/STIM_035.jpg
421.72	1.357	correct	2back	Block1	2back/STIM_036.jpg
426.491	1.176	correct	2back	Block1	2back/STIM_036.jpg
430.025	1.127	correct	2back	Block1	2back/STIM_036.jpg
434.651	1.276	correct	2back	Block1	2back/STIM_037.jpg
438.206	0.725	correct	2back	Block1	2back/STIM_037.jpg
442.581	0.781	correct	2back	Block1	2back/STIM_037.jpg
447.02	1.069	correct	2back	Block1	2back/STIM_038.jpg
450.816	0.592	correct	2back	Block1	2back/STIM_038.jpg
454.513	1.117	incorrect	2back	Block1	2back/STIM_038.jpg
458.584	1.405	correct	2back	Block1	2back/STIM_039.jpg
463.322	0.861	correct	2back	Block1	2back/STIM_039.jpg
467.271	0.918	correct	2back	Block1	2back/STIM_039.jpg
471.284	0.561	correct	0back	Block1	0back/STIM_000.jpg
475.799	0.677	correct	0back	Block1	0back/STIM_000.jpg
479.862	0.511	correct	0back	Block1	0back/STIM_000.jpg
483.157	0.432	correct	0back	Block1	0back/STIM_001.jpg
487.521	0.458	correct	0back	Block1	0back/STIM_001.jpg
491.367	0.481	correct	0back	Block1	0back/STIM_001.jpg
495.569	0.416	correct	0back	Block1	0back/STIM_002.jpg
498.082	0.536	correct	0back	Block1	0back/STIM_002.jpg
500.648	0.49	correct	0back	Block1	0back/STIM_002.jpg
504.815	0.596	correct	0back	Block1	0back/STIM_003.jpg
509.173	0.49	correct	0back	Block1	0back/STIM_003.jpg
512.96	0.698	correct	0back	Block1	0back/STIM_003.jpg
516.785	0.514	correct	0back	Block1	0back/STIM_004.jpg
520.215	0.406	correct	0back	Block1	0back/STIM_004.jpg
522.824	0.404	correct	0back	Block1	0back/STIM_004.jpg
527.086	0.782	correct	0back	Block1	0back/STIM_005.jpg
530.258	0.51	correct	0back	Block1	0back/STIM_005.jpg
533.235	0.521	correct	0back	Block1	0back/STIM_005.jpg
536.012	0.592	correct	0back	Block1	0back/STIM_006.jpg
538.925	0.738	correct	0back	Block1	0back/STIM_006.jpg
543.183	0.729	correct	0back	Block1	0back/STIM_006.jpg
546.378	0.747	correct	0back	Block1	0back/STIM_007.jpg
550.792	0.722	correct	0back	Block1	0back/STIM_007.jpg
553.709	0.697	correct	0back	Block1	0back/STIM_007.jpg
556.86	0.471	correct	0back	Block1	0back/STIM_008.jpg
559.988	0.665	correct	0back	Block1	0back/STIM_008.jpg
563.044	0.443	correct	0back	Block1	0back/STIM_008.jpg
566.603	0.418	correct	0back	Block1	0back/STIM_009.jpg
570.298	0.46	correct	0back	Block1	0back/STIM_009.jpg
573.204	0.587	correct	0back	Block1	0back/STIM_009.jpg
577.501	0.692	correct	0back	Block1	0back/STIM_010.jpg
581.966	0.745	correct	0back	Block1	0back/STIM_010.jpg
586.115	0.738	correct	0back	Block1	0back/STIM_010.jpg
590.428	0.504	correct	0back	Block1	0back/STIM_011.jpg
594.562	0.73	correct	0back	Block1	0back/STIM_011.jpg
598.061	0.589	correct	0back	Block1	0back/STIM_011.jpg
600.658	0.629	correct	0back	Block1	0back/STIM_012.jpg
603.546	0.505	correct	0back	Block1	0back/STIM_012.jpg
608.037	0.71	correct	0back	Block1	0back/STIM_012.jpg
612.72	0.565	correct	0back	Block1	0back/STIM_013.jpg
615.57	0.797	correct	0back	Block1	0back/STIM_013.jpg
618.56	0.78	correct	0back	Block1	0back/STIM_013.jpg
621.57	0.438	correct	0back	Block1	0back/STIM_014.jpg
624.349	0.536	correct	0back	Block1	0back/STIM_014.jpg
628.146	0.489	correct	0back	Block1	0back/STIM_014.jpg
631.267	0.583	correct	0back	Block1	0back/STIM_015.jpg
634.812	0.583	incorrect	0back	Block1	0back/STIM_015.jpg
638.522	0.702	correct	0back	Block1	0back/STIM_015.jpg
641.984	0.534	correct	0back	Block1	0back/STIM_016.jpg
645.946	0.546	correct	0back	Block1	0back/STIM_016.jpg
648.604	0.533	correct	0back	Block1	0back/STIM_016.jpg
651.952	0.507	correct	0back	Block1	0back/STIM_017.jpg
655.024	0.803	correct	0back	Block1	0back/STIM_017.jpg
658.652	0.572	correct	0back	Block1	0back/STIM_017.jpg
661.237	0.708	incorrect	0back	Block1	0back/STIM_018.jpg
663.999	0.736	correct	0back	Block1	0back/STIM_018.jpg
667.662	0.72	incorrect	0back	Block1	0back/STIM_018.jpg
671.405	0.642	correct	0back	Block1	0back/STIM_019.jpg
674.755	0.513	correct	0back	Block1	0back/STIM_019.jpg
677.812	0.586	correct	0back	Block1	0back/STIM_019.jpg
681.915	0.588	correct	2back	Block2	2back/STIM_000.jpg
685.103	0.756	correct	2back	Block2	2back/STIM_000.jpg
688.039	0.645	correct	2back	Block2	2back/STIM_000.jpg
692.027	0.73	correct	2back	Block2	2back/STIM_001.jpg
696.067	0.963	correct	2back	Block2	2back/STIM_001.jpg
700.029	0.702	correct	2back	Block2	2back/STIM_001.jpg
702.851	1.178	correct	2back	Block2	2back/STIM_002.jpg
706.113	0.553	correct	2back	Block2	2back/STIM_002.jpg
709.451	0.958	correct	2back	Block2	2back/STIM_002.jpg
714.136	1.037	correct	2back	Block2	2back/STIM_003.jpg
718.62	0.513	correct	2back	Block2	2back/STIM_003.jpg
721.313	0.89	correct	2back	Block2	2back/STIM_003.jpg
726.042	0.963	correct	2back	Block2	2back/STIM_004.jpg
729.505	0.499	correct	2back	Block2	2back/STIM_004.jpg
733.345	0.579	correct	2back	Block2	2back/STIM_004.jpg
736.078	0.563	correct	2back	Block2	2back/STIM_005.jpg
740.042	1.104	correct	2back	Block2	2back/STIM_005.jpg
745.035	0.78	correct	2back	Block2	2back/STIM_005.jpg
749.508	1.194	correct	2back	Block2	2back/STIM_006.jpg
753.905	0.949	correct	2back	Block2	2back/STIM_006.jpg
758.035	0.931	correct	2back	Block2	2back/STIM_006.jpg
761.227	0.676	correct	2back	Block2	2back/STIM_007.jpg
765.709	0.863	correct	2back	Block2	2back/STIM_007.jpg
769.396	0.768	correct	2back	Block2	2back/STIM_007.jpg
773.897	1.121	incorrect	2back	Block2	2back/STIM_008.jpg
777.39	0.579	correct	2back	Block2	2back/STIM_008.jpg
780.646	0.71	correct	2back	Block2	2back/STIM_008.jpg
783.557	0.68	incorrect	2back	Block2	2back/STIM_009.jpg
786.279	1.063	correct	2back	Block2	2back/STIM_009.jpg
790.83	0.572	correct	2back	Block2	2back/STIM_009.jpg
795.198	0.941	correct	2back	Block2	2back/STIM_010.jpg
798.333	0.714	correct	2back	Block2	2back/STIM_010.jpg
802.834	0.983	correct	2back	Block2	2back/STIM_010.jpg
806.146	1.15	correct	2back	Block2	2back/STIM_011.jpg
809.873	0.494	correct	2back	Block2	2back/STIM_011.jpg
813.58	0.823	correct	2back	Block2	2back/STIM_011.jpg
817.283	0.67	correct	2back	Block2	2back/STIM_012.jpg
821.835	0.991	correct	2back	Block2	2back/STIM_012.jpg
826.529	0.755	correct	2back	Block2	2back/STIM_012.jpg
829.571	1.174	correct	2back	Block2	2back/STIM_013.jpg
832.991	1.018	correct	2back	Block2	2back/STIM_013.jpg
837.308	0.91	correct	2back	Block2	2back/STIM_013.jpg
840.471	0.862	correct	2back	Block2	2back/STIM_014.jpg
845.067	1.036	correct	2back	Block2	2back/STIM_014.jpg
848.669	1.051	correct	2back	Block2	2back/STIM_014.jpg
853.008	0.978	correct	2back	Block2	2back/STIM_015.jpg
856.009	0.842	correct	2back	Block2	2back/STIM_015.jpg
859.494	0.635	correct	2back	Block2	2back/STIM_015.jpg
862.463	0.576	correct	2back	Block2	2back/STIM_016.jpg
866.833	0.821	correct	2back	Block2	2back/STIM_016.jpg
870.822	0.63	correct	2back	Block2	2back/STIM_016.jpg
873.788	1.077	correct	2back	Block2	2back/STIM_017.jpg
877.84	0.885	correct	2back	Block2	2back/STIM_017.jpg
880.912	0.757	correct	2back	Block2	2back/STIM_017.jpg
885.26	1.131	correct	2back	Block2	2back/STIM_018.jpg
888.457	0.492	correct	2back	Block2	2back/STIM_018.jpg
891.503	0.904	correct	2back	Block2	2back/STIM_018.jpg
895.0	0.76	correct	2back	Block2	2back/STIM_019.jpg
897.768	0.788	correct	2back	Block2	2back/STIM_019.jpg
901.227	0.722	correct	2back	Block2	2back/STIM_019.jpg
905.376	0.635	correct	2back	Block2	2back/STIM_020.jpg
909.739	0.628	correct	2back	Block2	2back/STIM_020.jpg
913.832	0.5	correct	2back	Block2	2back/STIM_020.jpg
918.307	0.614	correct	2back	Block2	2back/STIM_021.jpg
921.779	0.932	correct	2back	Block2	2back/STIM_021.jpg
924.725	1.015	correct	2back	Block2	2back/STIM_021.jpg
928.343	0.639	correct	2back	Block2	2back/STIM_022.jpg
932.416	0.589	correct	2back	Block2	2back/STIM_022.jpg
935.661	0.862	correct	2back	Block2	2back/STIM_022.jpg
939.591	1.114	correct	2back	Block2	2back/STIM_023.jpg
944.232	0.842	correct	2back	Block2	2back/STIM_023.jpg
947.426	0.725	correct	2back	Block2	2back/STIM_023.jpg
950.654	0.785	correct	2back	Block2	2back/STIM_024.jpg
955.002	0.983	correct	2back	Block2	2back/STIM_024.jpg
959.526	0.69	correct	2back	Block2	2back/STIM_024.jpg
963.399	0.747	incorrect	2back	Block2	2back/STIM_025.jpg
966.619	0.681	correct	2back	Block2	2back/STIM_025.jpg
970.37	1.035	correct	2back	Block2	2back/STIM_025.jpg
974.187	0.764	correct	2back	Block2	2back/STIM_026.jpg
978.71	0.699	correct	2back	Block2	2back/STIM_026.jpg
982.899	0.747	correct	2back	Block2	2back/STIM_026.jpg
985.908	1.122	correct	2back	Block2	2back/STIM_027.jpg
990.696	0.892	correct	2back	Block2	2back/STIM_027.jpg
994.944	1.05	correct	2back	Block2	2back/STIM_027.jpg
998.796	1.104	correct	2back	Block2	2back/STIM_028.jpg
1002.197	0.594	correct	2back	Block2	2back/STIM_028.jpg
1006.536	0.997	correct	2back	Block2	2back/STIM_028.jpg
1009.539	0.666	correct	2back	Block2	2back/STIM_029.jpg
1012.538	0.671	correct	2back	Block2	2back/STIM_029.jpg
1015.725	0.77	correct	2back	Block2	2back/STIM_029.jpg
1019.36	0.799	correct	2back	Block2	2back/STIM_030.jpg
1023.868	0.867	correct	2back	Block2	2back/STIM_030.jpg
1027.207	0.52	correct	2back	Block2	2back/STIM_030.jpg
1031.442	0.772	correct	2back	Block2	2back/STIM_031.jpg
1036.03	0.636	correct	2back	Block2	2back/STIM_031.jpg
1039.491	0.722	correct	2back	Block2	2back/STIM_031.jpg
1043.583	0.873	correct	2back	Block2	2back/STIM_032.jpg
1048.227	0.859	correct	2back	Block2	2back/STIM_032.jpg
1052.691	0.684	correct	2back	Block2	2back/STIM_032.jpg
1057.291	1.03	correct	2back	Block2	2back/STIM_033.jpg
1061.45	0.49	correct	2back	Block2	2back/STIM_033.jpg
1065.562	0.866	correct	2back	Block2	2back/STIM_033.jpg
1068.947	0.759	correct	2back	Block2	2back/STIM_034.jpg
1073.009	0.52	correct	2back	Block2	2back/STIM_034.jpg
1075.752	0.727	correct	2back	Block2	2back/STIM_034.jpg
1079.279	0.884	correct	2back	Block2	2back/STIM_035.jpg
1083.868	0.876	correct	2back	Block2	2back/STIM_035.jpg
1088.391	0.57	correct	2back	Block2	2back/STIM_035.jpg
1092.364	0.609	correct	2back	Block2	2back/STIM_036.jpg
1095.865	0.649	correct	2back	Block2	2back/STIM_036.jpg
1098.595	0.535	correct	2back	Block2	2back/STIM_036.jpg
1101.191	0.924	incorrect	2back	Block2	2back/STIM_037.jpg
1104.761	1.087	correct	2back	Block2	2back/STIM_037.jpg
1109.37	0.762	correct	2back	Block2	2back/STIM_037.jpg
1113.015	0.959	correct	2back	Block2	2back/STIM_038.jpg
1116.233	1.053	correct	2back	Block2	2back/STIM_038.jpg
1119.968	0.464	correct	2back	Block2	2back/STIM_038.jpg
1122.488	0.811	correct	2back	Block2	2back/STIM_039.jpg
1126.895	0.882	correct	2back	Block2	2back/STIM_039.jpg
1130.874	1.05	correct	2back	Block2	2back/STIM_039.jpg
1135.484	0.564	correct	0back	Block2	0back/STIM_000.jpg
1139.622	0.43	correct	0back	Block2	0back/STIM_000.jpg
1143.39	0.598	correct	0back	Block2	0back/STIM_000.jpg
1146.791	0.499	correct	0back	Block2	0back/STIM_001.jpg
1150.419	0.538	correct	0back	Block2	0back/STIM_001.jpg
1154.501	0.795	correct	0back	Block2	0back/STIM_001.jpg
1157.935	0.517	correct	0back	Block2	0back/STIM_002.jpg
1161.98	0.437	correct	0back	Block2	0back/STIM_002.jpg
1164.904	0.47	correct	0back	Block2	0back/STIM_002.jpg
1168.117	0.696	correct	0back	Block2	0back/STIM_003.jpg
1171.776	0.432	correct	0back	Block2	0back/STIM_003.jpg
1175.765	0.78	correct	0back	Block2	0back/STIM_003.jpg
1179.877	0.646	correct	0back	Block2	0back/STIM_004.jpg
1183.961	0.794	correct	0back	Block2	0back/STIM_004.jpg
1187.206	0.509	correct	0back	Block2	0back/STIM_004.jpg
1191.578	0.522	correct	0back	Block2	0back/STIM_005.jpg
1194.115	0.419	correct	0back	Block2	0back/STIM_005.jpg
1196.729	0.505	correct	0back	Block2	0back/STIM_005.jpg
1201.185	0.45	correct	0back	Block2	0back/STIM_006.jpg
1205.617	0.571	correct	0back	Block2	0back/STIM_006.jpg
1208.936	0.414	correct	0back	Block2	0back/STIM_006.jpg
1212.671	0.793	correct	0back	Block2	0back/STIM_007.jpg
1215.518	0.485	correct	0back	Block2	0back/STIM_007.jpg
1218.178	0.64	correct	0back	Block2	0back/STIM_007.jpg
1221.857	0.575	correct	0back	Block2	0back/STIM_008.jpg
1226.182	0.486	correct	0back	Block2	0back/STIM_008.jpg
1229.842	0.766	correct	0back	Block2	0back/STIM_008.jpg
1233.691	0.452	correct	0back	Block2	0back/STIM_009.jpg
1237.168	0.559	correct	0back	Block2	0back/STIM_009.jpg
1240.823	0.534	correct	0back	Block2	0back/STIM_009.jpg
1243.732	0.625	correct	0back	Block2	0back/STIM_010.jpg
1246.653	0.793	correct	0back	Block2	0back/STIM_010.jpg
1250.69	0.625	correct	0back	Block2	0back/STIM_010.jpg
1253.7	0.583	correct	0back	Block2	0back/STIM_011.jpg
1256.597	0.475	correct	0back	Block2	0back/STIM_011.jpg
1260.234	0.753	correct	0back	Block2	0back/STIM_011.jpg
1263.335	0.593	correct	0back	Block2	0back/STIM_012.jpg
1267.066	0.616	correct	0back	Block2	0back/STIM_012.jpg
1270.223	0.68	correct	0back	Block2	0back/STIM_012.jpg
1273.491	0.724	correct	0back	Block2	0back/STIM_013.jpg
1278.079	0.558	correct	0back	Block2	0back/STIM_013.jpg
1282.017	0.801	correct	0back	Block2	0back/STIM_013.jpg
1286.308	0.744	correct	0back	Block2	0back/STIM_014.jpg
1290.791	0.737	correct	0back	Block2	0back/STIM_014.jpg
1293.543	0.654	correct	0back	Block2	0back/STIM_014.jpg
1297.952	0.73	correct	0back	Block2	0back/STIM_015.jpg
1301.859	0.535	correct	0back	Block2	0back/STIM_015.jpg
1305.098	0.625	correct	0back	Block2	0back/STIM_015.jpg
1308.54	0.718	correct	0back	Block2	0back/STIM_016.jpg
1312.489	0.575	correct	0back	Block2	0back/STIM_016.jpg
1315.156	0.514	correct	0back	Block2	0back/STIM_016.jpg
1319.132	0.47	correct	0back	Block2	0back/STIM_017.jpg
1322.309	0.768	correct	0back	Block2	0back/STIM_017.jpg
1325.218	0.643	correct	0back	Block2	0back/STIM_017.jpg
1329.77	0.42	correct	0back	Block2	0back/STIM_018.jpg
1332.31	0.682	correct	0back	Block2	0back/STIM_018.jpg
1335.316	0.637	correct	0back	Block2	0back/STIM_018.jpg
1338.918	0.632	correct	0back	Block2	0back/STIM_019.jpg
1342.237	0.786	correct	0back	Block2	0back/STIM_019.jpg
1346.986	0.517	correct	0back	Block2	0back/STIM_019.jpg
1350.775	0.428	correct	2back	Block3	2back/STIM_000.jpg
1354.335	0.877	correct	2back	Block3	2back/STIM_000.jpg
1358.8	0.592	correct	2back	Block3	2back/STIM_000.jpg
1362.484	0.886	correct	2back	Block3	2back/STIM_001.jpg
1366.69	0.882	correct	2back	Block3	2back/STIM_001.jpg
1369.865	0.66	correct	2back	Block3	2back/STIM_001.jpg
1374.405	0.743	correct	2back	Block3	2back/STIM_002.jpg
1377.43	0.672	correct	2back	Block3	2back/STIM_002.jpg
1382.036	0.72	correct	2back	Block3	2back/STIM_002.jpg
1385.732	0.533	correct	2back	Block3	2back/STIM_003.jpg
1389.112	0.426	correct	2back	Block3	2back/STIM_003.jpg
1392.005	0.594	correct	2back	Block3	2back/STIM_003.jpg
1395.79	0.877	correct	2back	Block3	2back/STIM_004.jpg
1399.035	0.636	correct	2back	Block3	2back/STIM_004.jpg
1402.286	0.908	correct	2back	Block3	2back/STIM_004.jpg
1407.048	0.87	correct	2back	Block3	2back/STIM_005.jpg
1410.92	0.789	correct	2back	Block3	2back/STIM_005.jpg
1415.582	0.43	correct	2back	Block3	2back/STIM_005.jpg
1419.527	0.714	correct	2back	Block3	2back/STIM_006.jpg
1423.427	0.465	correct	2back	Block3	2back/STIM_006.jpg
1427.847	0.764	correct	2back	Block3	2back/STIM_006.jpg
1432.093	0.971	correct	2back	Block3	2back/STIM_007.jpg
1435.235	0.544	correct	2back	Block3	2back/STIM_007.jpg
1438.182	0.558	correct	2back	Block3	2back/STIM_007.jpg
1441.492	0.804	correct	2back	Block3	2back/STIM_008.jpg
1444.867	0.698	correct	2back	Block3	2back/STIM_008.jpg
1449.502	0.893	incorrect	2back	Block3	2back/STIM_008.jpg
1454.187	0.554	correct	2back	Block3	2back/STIM_009.jpg
1457.09	0.555	correct	2back	Block3	2back/STIM_009.jpg
1460.91	0.722	correct	2back	Block3	2back/STIM_009.jpg
1464.028	0.749	correct	2back	Block3	2back/STIM_010.jpg
1467.304	0.848	correct	2back	Block3	2back/STIM_010.jpg
1470.488	0.669	correct	2back	Block3	2back/STIM_010.jpg
1473.669	0.679	correct	2back	Block3	2back/STIM_011.jpg
1477.453	0.871	correct	2back	Block3	2back/STIM_011.jpg
1481.316	0.841	correct	2back	Block3	2back/STIM_011.jpg
1484.895	0.822	correct	2back	Block3	2back/STIM_012.jpg
1488.118	0.43	correct	2back	Block3	2back/STIM_012.jpg
1491.326	0.524	correct	2back	Block3	2back/STIM_012.jpg
1495.646	0.753	correct	2back	Block3	2back/STIM_013.jpg
1500.266	0.473	correct	2back	Block3	2back/STIM_013.jpg
1502.97	0.446	correct	2back	Block3	2back/STIM_013.jpg
1505.875	0.727	correct	2back	Block3	2back/STIM_014.jpg
1509.912	0.77	correct	2back	Block3	2back/STIM_014.jpg
1513.996	0.526	correct	2back	Block3	2back/STIM_014.jpg
1517.086	0.832	correct	2back	Block3	2back/STIM_015.jpg
1521.645	0.516	correct	2back	Block3	2back/STIM_015.jpg
1525.897	0.933	correct	2back	Block3	2back/STIM_015.jpg
1529.394	0.608	correct	2back	Block3	2back/STIM_016.jpg
1533.694	0.449	correct	2back	Block3	2back/STIM_016.jpg
1536.552	0.533	correct	2back	Block3	2back/STIM_016.jpg
1539.753	0.72	correct	2back	Block3	2back/STIM_017.jpg
1544.059	0.618	correct	2back	Block3	2back/STIM_017.jpg
1547.79	0.609	correct	2back	Block3	2back/STIM_017.jpg
1550.846	0.739	correct	2back	Block3	2back/STIM_018.jpg
1555.094	0.953	correct	2back	Block3	2back/STIM_018.jpg
1558.552	0.965	correct	2back	Block3	2back/STIM_018.jpg
1562.308	0.818	correct	2back	Block3	2back/STIM_019.jpg
1566.671	0.947	correct	2back	Block3	2back/STIM_019.jpg
1570.512	0.447	correct	2back	Block3	2back/STIM_019.jpg
1573.244	0.816	correct	2back	Block3	2back/STIM_020.jpg
1576.344	0.744	correct	2back	Block3	2back/STIM_020.jpg
1580.84	0.5	correct	2back	Block3	2back/STIM_020.jpg
1584.87	0.637	correct	2back	Block3	2back/STIM_021.jpg
1588.767	0.9	correct	2back	Block3	2back/STIM_021.jpg
1592.893	0.486	correct	2back	Block3	2back/STIM_021.jpg
1595.903	0.481	correct	2back	Block3	2back/STIM_022.jpg
1599.412	0.713	correct	2back	Block3	2back/STIM_022.jpg
1603.208	0.744	correct	2back	Block3	2back/STIM_022.jpg
1606.113	0.968	correct	2back	Block3	2back/STIM_023.jpg
1609.707	0.759	correct	2back	Block3	2back/STIM_023.jpg
1613.501	0.926	correct	2back	Block3	2back/STIM_023.jpg
1618.389	0.464	correct	2back	Block3	2back/STIM_024.jpg
1621.888	0.926	correct	2back	Block3	2back/STIM_024.jpg
1625.239	0.652	incorrect	2back	Block3	2back/STIM_024.jpg
1629.173	0.963	correct	2back	Block3	2back/STIM_025.jpg
1632.246	0.544	correct	2back	Block3	2back/STIM_025.jpg
1635.123	0.731	correct	2back	Block3	2back/STIM_025.jpg
1639.315	0.824	correct	2back	Block3	2back/STIM_026.jpg
1642.791	0.594	correct	2back	Block3	2back/STIM_026.jpg
1646.766	0.545	correct	2back	Block3	2back/STIM_026.jpg
1649.37	0.847	correct	2back	Block3	2back/STIM_027.jpg
1652.845	0.48	correct	2back	Block3	2back/STIM_027.jpg
1656.403	0.458	correct	2back	Block3	2back/STIM_027.jpg
1660.579	0.841	correct	2back	Block3	2back/STIM_028.jpg
1663.605	0.695	correct	2back	Block3	2back/STIM_028.jpg
1667.66	0.725	correct	2back	Block3	2back/STIM_028.jpg
1671.524	0.892	correct	2back	Block3	2back/STIM_029.jpg
1675.78	0.913	correct	2back	Block3	2back/STIM_029.jpg
1680.583	0.705	correct	2back	Block3	2back/STIM_029.jpg
1684.312	0.916	correct	2back	Block3	2back/STIM_030.jpg
1687.598	0.427	correct	2back	Block3	2back/STIM_030.jpg
1690.954	0.446	correct	2back	Block3	2back/STIM_030.jpg
1694.878	0.46	correct	2back	Block3	2back/STIM_031.jpg
1699.181	0.609	correct	2back	Block3	2back/STIM_031.jpg
1702.667	0.698	correct	2back	Block3	2back/STIM_031.jpg
1707.183	0.686	correct	2back	Block3	2back/STIM_032.jpg
1711.594	0.531	correct	2back	Block3	2back/STIM_032.jpg
1715.111	0.439	correct	2back	Block3	2back/STIM_032.jpg
1718.477	0.898	correct	2back	Block3	2back/STIM_033.jpg
1721.873	0.965	correct	2back	Block3	2back/STIM_033.jpg
1725.404	0.774	correct	2back	Block3	2back/STIM_033.jpg
1729.155	0.924	correct	2back	Block3	2back/STIM_034.jpg
1732.906	0.855	correct	2back	Block3	2back/STIM_034.jpg
1736.35	0.813	correct	2back	Block3	2back/STIM_034.jpg
1740.56	0.726	correct	2back	Block3	2back/STIM_035.jpg
1743.351	0.691	incorrect	2back	Block3	2back/STIM_035.jpg
1747.425	0.787	correct	2back	Block3	2back/STIM_035.jpg
1751.817	0.478	correct	2back	Block3	2back/STIM_036.jpg
1754.439	0.917	correct	2back	Block3	2back/STIM_036.jpg
1757.973	0.505	correct	2back	Block3	2back/STIM_036.jpg
1762.203	0.46	correct	2back	Block3	2back/STIM_037.jpg
1766.325	0.604	incorrect	2back	Block3	2back/STIM_037.jpg
1769.682	0.804	correct	2back	Block3	2back/STIM_037.jpg
1774.416	0.759	correct	2back	Block3	2back/STIM_038.jpg
1777.649	0.858	correct	2back	Block3	2back/STIM_038.jpg
1782.15	0.882	correct	2back	Block3	2back/STIM_038.jpg
1786.072	0.74	correct	2back	Block3	2back/STIM_039.jpg
1789.446	0.425	correct	2back	Block3	2back/STIM_039.jpg
1793.728	0.569	correct	2back	Block3	2back/STIM_039.jpg
1798.196	0.532	correct	0back	Block3	0back/STIM_000.jpg
1801.9	0.59	correct	0back	Block3	0back/STIM_000.jpg
1804.577	0.443	correct	0back	Block3	0back/STIM_000.jpg
1808.144	0.458	correct	0back	Block3	0back/STIM_001.jpg
1811.023	0.737	correct	0back	Block3	0back/STIM_001.jpg
1814.341	0.583	correct	0back	Block3	0back/STIM_001.jpg
1818.491	0.718	correct	0back	Block3	0back/STIM_002.jpg
1821.856	0.501	correct	0back	Block3	0back/STIM_002.jpg
1825.381	0.537	correct	0back	Block3	0back/STIM_002.jpg
1829.29	0.517	correct	0back	Block3	0back/STIM_003.jpg
1832.971	0.703	correct	0back	Block3	0back/STIM_003.jpg
1837.512	0.494	incorrect	0back	Block3	0back/STIM_003.jpg
1841.703	0.576	correct	0back	Block3	0back/STIM_004.jpg
1844.79	0.66	correct	0back	Block3	0back/STIM_004.jpg
1849.2	0.566	correct	0back	Block3	0back/STIM_004.jpg
1853.697	0.624	correct	0back	Block3	0back/STIM_005.jpg
1857.677	0.412	correct	0back	Block3	0back/STIM_005.jpg
1860.942	0.584	correct	0back	Block3	0back/STIM_005.jpg
1863.599	0.566	correct	0back	Block3	0back/STIM_006.jpg
1867.253	0.78	correct	0back	Block3	0back/STIM_006.jpg
1870.45	0.788	correct	0back	Block3	0back/STIM_006.jpg
1874.95	0.731	correct	0back	Block3	0back/STIM_007.jpg
1879.382	0.52	correct	0back	Block3	0back/STIM_007.jpg
1883.611	0.724	correct	0back	Block3	0back/STIM_007.jpg
1886.568	0.516	correct	0back	Block3	0back/STIM_008.jpg
1890.04	0.753	correct	0back	Block3	0back/STIM_008.jpg
1892.963	0.642	correct	0back	Block3	0back/STIM_008.jpg
1895.988	0.552	correct	0back	Block3	0back/STIM_009.jpg
1899.477	0.67	correct	0back	Block3	0back/STIM_009.jpg
1903.763	0.461	incorrect	0back	Block3	0back/STIM_009.jpg
1906.775	0.765	correct	0back	Block3	0back/STIM_010.jpg
1911.373	0.424	correct	0back	Block3	0back/STIM_010.jpg
1914.319	0.599	correct	0back	Block3	0back/STIM_010.jpg
1918.307	0.601	correct	0back	Block3	0back/STIM_011.jpg
1922.271	0.625	correct	0back	Block3	0back/STIM_011.jpg
1925.8	0.799	correct	0back	Block3	0back/STIM_011.jpg
1930.119	0.786	incorrect	0back	Block3	0back/STIM_012.jpg
1934.854	0.611	correct	0back	Block3	0back/STIM_012.jpg
1937.511	0.752	correct	0back	Block3	0back/STIM_012.jpg
1940.322	0.548	correct	0back	Block3	0back/STIM_013.jpg
1943.664	0.75	correct	0back	Block3	0back/STIM_013.jpg
1948.103	0.795	correct	0back	Block3	0back/STIM_013.jpg
1952.158	0.68	correct	0back	Block3	0back/STIM_014.jpg
1956.025	0.5	correct	0back	Block3	0back/STIM_014.jpg
1958.809	0.795	correct	0back	Block3	0back/STIM_014.jpg
1962.491	0.704	correct	0back	Block3	0back/STIM_015.jpg
1965.56	0.424	correct	0back	Block3	0back/STIM_015.jpg
1969.144	0.729	correct	0back	Block3	0back/STIM_015.jpg
1973.58	0.803	correct	0back	Block3	0back/STIM_016.jpg
1976.858	0.48	correct	0back	Block3	0back/STIM_016.jpg
1980.046	0.56	correct	0back	Block3	0back/STIM_016.jpg
1984.506	0.596	correct	0back	Block3	0back/STIM_017.jpg
1987.147	0.556	correct	0back	Block3	0back/STIM_017.jpg
1991.44	0.703	correct	0back	Block3	0back/STIM_017.jpg
1995.62	0.56	correct	0back	Block3	0back/STIM_018.jpg
1999.439	0.763	correct	0back	Block3	0back/STIM_018.jpg
2003.561	0.795	correct	0back	Block3	0back/STIM_018.jpg
2006.812	0.739	correct	0back	Block3	0back/STIM_019.jpg
2009.857	0.538	correct	0back	Block3	0back/STIM_019.jpg
2013.745	0.699	correct	0back	Block3	0back/STIM_019.jpg
2016.671	0.678	correct	2back	Block4	2back/STIM_000.jpg
2021.28	0.635	correct	2back	Block4	2back/STIM_000.jpg
2025.405	0.576	correct	2back	Block4	2back/STIM_000.jpg
2029.863	0.899	correct	2back	Block4	2back/STIM_001.jpg
2034.335	0.581	correct	2back	Block4	2back/STIM_001.jpg
2037.861	0.822	correct	2back	Block4	2back/STIM_001.jpg
2041.904	0.867	correct	2back	Block4	2back/STIM_002.jpg
2046.186	0.616	correct	2back	Block4	2back/STIM_002.jpg
2049.147	0.731	correct	2back	Block4	2back/STIM_002.jpg
2052.393	0.932	correct	2back	Block4	2back/STIM_003.jpg
2055.931	0.613	correct	2back	Block4	2back/STIM_003.jpg
2058.547	0.843	correct	2back	Block4	2back/STIM_003.jpg
2062.311	0.892	correct	2back	Block4	2back/STIM_004.jpg
2066.416	0.455	incorrect	2back	Block4	2back/STIM_004.jpg
2069.845	0.82	correct	2back	Block4	2back/STIM_004.jpg
2073.702	0.804	correct	2back	Block4	2back/STIM_005.jpg
2077.329	0.488	correct	2back	Block4	2back/STIM_005.jpg
2079.879	0.893	correct	2back	Block4	2back/STIM_005.jpg
2083.129	0.871	correct	2back	Block4	2back/STIM_006.jpg
2086.181	0.464	correct	2back	Block4	2back/STIM_006.jpg
2089.068	0.537	correct	2back	Block4	2back/STIM_006.jpg
2093.144	0.819	correct	2back	Block4	2back/STIM_007.jpg
2097.523	0.604	correct	2back	Block4	2back/STIM_007.jpg
2101.343	0.613	correct	2back	Block4	2back/STIM_007.jpg
2105.918	0.95	correct	2back	Block4	2back/STIM_008.jpg
2109.322	0.886	correct	2back	Block4	2back/STIM_008.jpg
2113.055	0.945	correct	2back	Block4	2back/STIM_008.jpg
2116.424	0.544	correct	2back	Block4	2back/STIM_009.jpg
2120.346	0.843	correct	2back	Block4	2back/STIM_009.jpg
2124.712	0.862	correct	2back	Block4	2back/STIM_009.jpg
2128.035	0.546	correct	2back	Block4	2back/STIM_010.jpg
2131.585	0.573	correct	2back	Block4	2back/STIM_010.jpg
2135.73	0.529	correct	2back	Block4	2back/STIM_010.jpg
2139.529	0.676	correct	2back	Block4	2back/STIM_011.jpg
2143.367	0.896	correct	2back	Block4	2back/STIM_011.jpg
2147.124	0.802	correct	2back	Block4	2back/STIM_011.jpg
2151.613	0.48	correct	2back	Block4	2back/STIM_012.jpg
2154.922	0.667	correct	2back	Block4	2back/STIM_012.jpg
2159.466	0.897	correct	2back	Block4	2back/STIM_012.jpg
2162.899	0.676	correct	2back	Block4	2back/STIM_013.jpg
2166.546	0.48	correct	2back	Block4	2back/STIM_013.jpg
2169.569	0.494	correct	2back	Block4	2back/STIM_013.jpg
2172.246	0.71	correct	2back	Block4	2back/STIM_014.jpg
2176.091	0.542	correct	2back	Block4	2back/STIM_014.jpg
2180.059	0.78	correct	2back	Block4	2back/STIM_014.jpg
2183.201	0.467	correct	2back	Block4	2back/STIM_015.jpg
2185.746	0.708	correct	2back	Block4	2back/STIM_015.jpg
2188.791	0.468	correct	2back	Block4	2back/STIM_015.jpg
2192.958	0.888	correct	2back	Block4	2back/STIM_016.jpg
2196.073	0.515	correct	2back	Block4	2back/STIM_016.jpg
2200.147	0.974	correct	2back	Block4	2back/STIM_016.jpg
2204.654	0.979	correct	2back	Block4	2back/STIM_017.jpg
2208.7	0.602	correct	2back	Block4	2back/STIM_017.jpg
2213.101	0.504	correct	2back	Block4	2back/STIM_017.jpg
2216.567	0.567	correct	2back	Block4	2back/STIM_018.jpg
2219.817	0.74	correct	2back	Block4	2back/STIM_018.jpg
2223.914	0.865	correct	2back	Block4	2back/STIM_018.jpg
2227.031	0.474	correct	2back	Block4	2back/STIM_019.jpg
2230.644	0.859	correct	2back	Block4	2back/STIM_019.jpg
2234.262	0.965	correct	2back	Block4	2back/STIM_019.jpg
2238.313	0.716	correct	2back	Block4	2back/STIM_020.jpg
2241.722	0.72	correct	2back	Block4	2back/STIM_020.jpg
2245.646	0.887	correct	2back	Block4	2back/STIM_020.jpg
2248.711	0.627	correct	2back	Block4	2back/STIM_021.jpg
2252.679	0.846	correct	2back	Block4	2back/STIM_021.jpg
2256.965	0.702	correct	2back	Block4	2back/STIM_021.jpg
2260.62	0.613	correct	2back	Block4	2back/STIM_022.jpg
2264.951	0.573	correct	2back	Block4	2back/STIM_022.jpg
2267.795	0.854	correct	2back	Block4	2back/STIM_022.jpg
2271.785	0.521	correct	2back	Block4	2back/STIM_023.jpg
2274.333	0.453	correct	2back	Block4	2back/STIM_023.jpg
2277.689	0.936	correct	2back	Block4	2back/STIM_023.jpg
2281.54	0.755	correct	2back	Block4	2back/STIM_024.jpg
2284.92	0.867	correct	2back	Block4	2back/STIM_024.jpg
2289.709	0.867	correct	2back	Block4	2back/STIM_024.jpg
2293.42	0.567	correct	2back	Block4	2back/STIM_025.jpg
2297.141	0.953	correct	2back	Block4	2back/STIM_025.jpg
2301.987	0.798	correct	2back	Block4	2back/STIM_025.jpg
2305.593	0.588	correct	2back	Block4	2back/STIM_026.jpg
2309.286	0.637	correct	2back	Block4	2back/STIM_026.jpg
2312.544	0.588	correct	2back	Block4	2back/STIM_026.jpg
2316.784	0.765	correct	2back	Block4	2back/STIM_027.jpg
2321.117	0.47	correct	2back	Block4	2back/STIM_027.jpg
2324.022	0.701	correct	2back	Block4	2back/STIM_027.jpg
2328.087	0.49	correct	2back	Block4	2back/STIM_028.jpg
2331.8	0.722	correct	2back	Block4	2back/STIM_028.jpg
2334.815	0.61	correct	2back	Block4	2back/STIM_028.jpg
2338.776	0.621	correct	2back	Block4	2back/STIM_029.jpg
2343.173	0.802	correct	2back	Block4	2back/STIM_029.jpg
2346.963	0.583	correct	2back	Block4	2back/STIM_029.jpg
2350.007	0.786	correct	2back	Block4	2back/STIM_030.jpg
2352.815	0.91	correct	2back	Block4	2back/STIM_030.jpg
2357.358	0.787	correct	2back	Block4	2back/STIM_030.jpg
2360.648	0.488	correct	2back	Block4	2back/STIM_031.jpg
2364.222	0.449	correct	2back	Block4	2back/STIM_031.jpg
2367.217	0.637	correct	2back	Block4	2back/STIM_031.jpg
2371.026	0.448	correct	2back	Block4	2back/STIM_032.jpg
2375.194	0.985	correct	2back	Block4	2back/STIM_032.jpg
2379.199	0.902	correct	2back	Block4	2back/STIM_032.jpg
2383.877	0.883	correct	2back	Block4	2back/STIM_033.jpg
2388.423	0.484	correct	2back	Block4	2back/STIM_033.jpg
2392.045	0.764	correct	2back	Block4	2back/STIM_033.jpg
2396.442	0.853	correct	2back	Block4	2back/STIM_034.jpg
2399.9	0.594	correct	2back	Block4	2back/STIM_034.jpg
2402.739	0.904	correct	2back	Block4	2back/STIM_034.jpg
2406.366	0.611	correct	2back	Block4	2back/STIM_035.jpg
2410.384	0.437	correct	2back	Block4	2back/STIM_035.jpg
2413.5	0.973	correct	2back	Block4	2back/STIM_035.jpg
2417.81	0.688	correct	2back	Block4	2back/STIM_036.jpg
2420.895	0.622	correct	2back	Block4	2back/STIM_036.jpg
2423.934	0.867	correct	2back	Block4	2back/STIM_036.jpg
2428.478	0.46	correct	2back	Block4	2back/STIM_037.jpg
2431.604	0.81	correct	2back	Block4	2back/STIM_037.jpg
2435.96	0.725	correct	2back	Block4	2back/STIM_037.jpg
2440.412	0.626	correct	2back	Block4	2back/STIM_038.jpg
2444.477	0.939	correct	2back	Block4	2back/STIM_038.jpg
2448.755	0.59	correct	2back	Block4	2back/STIM_038.jpg
2452.742	0.676	correct	2back	Block4	2back/STIM_039.jpg
2457.033	0.817	correct	2back	Block4	2back/STIM_039.jpg
2460.833	0.466	correct	2back	Block4	2back/STIM_039.jpg
2465.065	0.676	correct	0back	Block4	0back/STIM_000.jpg
2468.385	0.714	correct	0back	Block4	0back/STIM_000.jpg
2472.636	0.541	correct	0back	Block4	0back/STIM_000.jpg
2475.765	0.435	correct	0back	Block4	0back/STIM_001.jpg
2478.445	0.644	correct	0back	Block4	0back/STIM_001.jpg
2482.091	0.414	correct	0back	Block4	0back/STIM_001.jpg
2485.37	0.737	correct	0back	Block4	0back/STIM_002.jpg
2489.24	0.796	correct	0back	Block4	0back/STIM_002.jpg
2493.078	0.535	correct	0back	Block4	0back/STIM_002.jpg
2497.055	0.709	correct	0back	Block4	0back/STIM_003.jpg
2500.113	0.544	correct	0back	Block4	0back/STIM_003.jpg
2502.892	0.648	correct	0back	Block4	0back/STIM_003.jpg
2507.487	0.766	correct	0back	Block4	0back/STIM_004.jpg
2511.435	0.719	correct	0back	Block4	0back/STIM_004.jpg
2514.954	0.711	correct	0back	Block4	0back/STIM_004.jpg
2519.042	0.596	correct	0back	Block4	0back/STIM_005.jpg
2523.573	0.685	correct	0back	Block4	0back/STIM_005.jpg
2527.834	0.466	correct	0back	Block4	0back/STIM_005.jpg
2532.047	0.746	correct	0back	Block4	0back/STIM_006.jpg
2535.917	0.714	correct	0back	Block4	0back/STIM_006.jpg
2539.958	0.663	correct	0back	Block4	0back/STIM_006.jpg
2543.791	0.484	correct	0back	Block4	0back/STIM_007.jpg
2548.267	0.412	correct	0back	Block4	0back/STIM_007.jpg
2551.329	0.469	correct	0back	Block4	0back/STIM_007.jpg
2555.053	0.596	correct	0back	Block4	0back/STIM_008.jpg
2559.273	0.773	correct	0back	Block4	0back/STIM_008.jpg
2563.029	0.685	correct	0back	Block4	0back/STIM_008.jpg
2567.312	0.657	correct	0back	Block4	0back/STIM_009.jpg
2570.631	0.514	correct	0back	Block4	0back/STIM_009.jpg
2573.987	0.491	correct	0back	Block4	0back/STIM_009.jpg
2576.894	0.768	correct	0back	Block4	0back/STIM_010.jpg
2580.133	0.698	correct	0back	Block4	0back/STIM_010.jpg
2583.049	0.545	correct	0back	Block4	0back/STIM_010.jpg
2585.794	0.687	correct	0back	Block4	0back/STIM_011.jpg
2589.622	0.68	correct	0back	Block4	0back/STIM_011.jpg
2593.851	0.639	correct	0back	Block4	0back/STIM_011.jpg
2598.38	0.746	correct	0back	Block4	0back/STIM_012.jpg
2602.948	0.605	correct	0back	Block4	0back/STIM_012.jpg
2607.42	0.735	correct	0back	Block4	0back/STIM_012.jpg
2610.577	0.52	incorrect	0back	Block4	0back/STIM_013.jpg
2613.236	0.619	correct	0back	Block4	0back/STIM_013.jpg
2616.463	0.622	correct	0back	Block4	0back/STIM_013.jpg
2620.953	0.583	correct	0back	Block4	0back/STIM_014.jpg
2624.109	0.615	correct	0back	Block4	0back/STIM_014.jpg
2628.201	0.75	correct	0back	Block4	0back/STIM_014.jpg
2632.619	0.499	correct	0back	Block4	0back/STIM_015.jpg
2635.836	0.614	correct	0back	Block4	0back/STIM_015.jpg
2638.599	0.673	correct	0back	Block4	0back/STIM_015.jpg
2641.906	0.489	correct	0back	Block4	0back/STIM_016.jpg
2646.12	0.774	correct	0back	Block4	0back/STIM_016.jpg
2650.148	0.694	correct	0back	Block4	0back/STIM_016.jpg
2653.844	0.433	correct	0back	Block4	0back/STIM_017.jpg
2658.105	0.464	correct	0back	Block4	0back/STIM_017.jpg
2662.014	0.428	correct	0back	Block4	0back/STIM_017.jpg
2664.744	0.68	correct	0back	Block4	0back/STIM_018.jpg
2668.553	0.562	correct	0back	Block4	0back/STIM_018.jpg
2671.846	0.415	correct	0back	Block4	0back/STIM_018.jpg
2675.427	0.602	correct	0back	Block4	0back/STIM_019.jpg
2679.982	0.768	correct	0back	Block4	0back/STIM_019.jpg
2684.52	0.518	correct	0back	Block4	0back/STIM_019.jpg
