onset	duration	response_time_ms	trial_type	learning_stage	stimulus	response_port
0.0	1.809	1808.7	generate	Run1	generate/STIM_000.jpg	100
5.168	3.052	3052.2	generate	Run1	generate/STIM_000.jpg	100
11.306	1.364	1364.5	generate	Run1	generate/STIM_000.jpg	100
15.221	2.862	2861.6	generate	Run1	generate/STIM_000.jpg	100
21.319	2.683	2683.1	generate	Run1	generate/STIM_000.jpg	100
26.559	3.182	3182.2	generate	Run1	generate/STIM_001.jpg	100
32.37	2.273	2273.4	generate	Run1	generate/STIM_001.jpg	99
38.343	1.603	1602.6	generate	Run1	generate/STIM_001.jpg	99
43.173	2.343	2343.2	generate	Run1	generate/STIM_001.jpg	100
48.605	1.2	1199.9	generate	Run1	generate/STIM_001.jpg	99
51.718	2.235	2234.8	generate	Run1	generate/STIM_002.jpg	99
57.56	1.492	1492.2	generate	Run1	generate/STIM_002.jpg	100
61.029	2.172	2171.7	generate	Run1	generate/STIM_002.jpg	99
65.958	1.609	1609.3	generate	Run1	generate/STIM_002.jpg	100
70.21	2.163	2163.0	generate	Run1	generate/STIM_002.jpg	100
74.416	2.121	2121.0	generate	Run1	generate/STIM_003.jpg	100
79.372	2.785	2784.8	generate	Run1	generate/STIM_003.jpg	99
84.802	2.314	2314.1	generate	Run1	generate/STIM_003.jpg	100
90.018	1.548	1547.6	generate	Run1	generate/STIM_003.jpg	99
93.452	2.096	2096.4	generate	Run1	generate/STIM_003.jpg	100
98.154	2.077	2076.7	generate	Run1	generate/STIM_004.jpg	100
103.225	1.771	1771.2	generate	Run1	generate/STIM_004.jpg	99
107.618	1.285	1285.4	generate	Run1	generate/STIM_004.jpg	99
112.257	1.286	1286.0	generate	Run1	generate/STIM_004.jpg	99
115.974	2.687	2687.1	generate	Run1	generate/STIM_004.jpg	100
122.129	2.608	2607.5	generate	Run1	generate/STIM_005.jpg	100
127.807	1.563	1563.2	generate	Run1	generate/STIM_005.jpg	99
131.854	1.736	1735.6	generate	Run1	generate/STIM_005.jpg	99
136.28	1.625	1624.6	generate	Run1	generate/STIM_005.jpg	100
140.233	2.062	2062.2	generate	Run1	generate/STIM_005.jpg	99
145.274	2.646	2646.4	generate	Run1	generate/STIM_006.jpg	100
150.25	1.628	1628.3	generate	Run1	generate/STIM_006.jpg	100
154.823	1.359	1359.0	generate	Run1	generate/STIM_006.jpg	99
158.684	2.874	2873.6	generate	Run1	generate/STIM_006.jpg	99
164.593	1.901	1901.0	generate	Run1	generate/STIM_006.jpg	100
169.743	2.5	2500.0	generate	Run1	generate/STIM_007.jpg	100
174.014	2.481	2481.2	generate	Run1	generate/STIM_007.jpg	100
180.164	2.504	2503.7	generate	Run1	generate/STIM_007.jpg	99
184.778	1.247	1246.9	generate	Run1	generate/STIM_007.jpg	99
188.481	1.179	1179.3	generate	Run1	generate/STIM_007.jpg	100
192.557	2.34	2340.4	generate	Run1	generate/STIM_008.jpg	100
198.368	2.249	2249.1	generate	Run1	generate/STIM_008.jpg	100
204.236	2.348	2348.1	generate	Run1	generate/STIM_008.jpg	100
208.647	1.432	1431.8	generate	Run1	generate/STIM_008.jpg	99
212.91	2.286	2285.9	generate	Run1	generate/STIM_008.jpg	100
217.562	2.437	2437.1	generate	Run1	generate/STIM_009.jpg	99
222.903	3.094	3093.8	generate	Run1	generate/STIM_009.jpg	100
229.514	1.725	1725.0	generate	Run1	generate/STIM_009.jpg	100
234.048	1.305	1304.7	generate	Run1	generate/STIM_009.jpg	100
237.857	1.434	1433.5	generate	Run1	generate/STIM_009.jpg	99
241.829	1.937	1936.6	generate	Run1	generate/STIM_010.jpg	99
246.532	1.628	1628.1	generate	Run1	generate/STIM_010.jpg	100
251.44	1.582	1581.5	generate	Run1	generate/STIM_010.jpg	100
256.057	1.891	1890.6	generate	Run1	generate/STIM_010.jpg	99
259.832	2.136	2136.4	generate	Run1	generate/STIM_010.jpg	99
264.597	1.786	1785.7	generate	Run1	generate/STIM_011.jpg	100
268.384	2.352	2351.9	generate	Run1	generate/STIM_011.jpg	99
272.914	1.852	1851.8	generate	Run1	generate/STIM_011.jpg	100
277.128	2.895	2895.0	generate	Run1	generate/STIM_011.jpg	100
283.503	2.245	2244.6	generate	Run1	generate/STIM_011.jpg	100
287.889	1.934	1933.9	generate	Run1	generate/STIM_012.jpg	99
291.808	1.752	1752.4	generate	Run1	generate/STIM_012.jpg	100
296.372	2.816	2815.8	generate	Run1	generate/STIM_012.jpg	100
302.415	2.29	2289.5	generate	Run1	generate/STIM_012.jpg	100
307.207	1.596	1595.6	generate	Run1	generate/STIM_012.jpg	99
310.923	3.227	3227.0	generate	Run1	generate/STIM_013.jpg	99
316.279	1.814	1814.5	generate	Run1	generate/STIM_013.jpg	100
321.224	2.223	2222.8	generate	Run1	generate/STIM_013.jpg	100
326.914	1.412	1411.5	generate	Run1	generate/STIM_013.jpg	100
330.666	1.714	1714.4	generate	Run1	generate/STIM_013.jpg	100
335.658	1.552	1552.1	generate	Run1	generate/STIM_014.jpg	100
340.863	2.715	2715.1	generate	Run1	generate/STIM_014.jpg	100
346.482	2.397	2396.6	generate	Run1	generate/STIM_014.jpg	99
352.481	2.88	2880.0	generate	Run1	generate/STIM_014.jpg	99
358.912	1.834	1834.3	generate	Run1	generate/STIM_014.jpg	99
364.371	3.094	3094.4	generate	Run1	generate/STIM_015.jpg	99
369.125	3.204	3203.8	generate	Run1	generate/STIM_015.jpg	100
374.455	2.411	2411.1	generate	Run1	generate/STIM_015.jpg	100
379.02	1.368	1368.3	generate	Run1	generate/STIM_015.jpg	99
383.744	1.144	1144.5	generate	Run1	generate/STIM_015.jpg	99
388.512	3.041	3041.4	generate	Run1	generate/STIM_016.jpg	99
394.463	2.272	2271.9	generate	Run1	generate/STIM_016.jpg	100
398.819	2.229	2228.7	generate	Run1	generate/STIM_016.jpg	99
402.846	1.646	1645.9	generate	Run1	generate/STIM_016.jpg	100
408.012	2.446	2446.1	generate	Run1	generate/STIM_016.jpg	100
413.446	2.339	2339.4	generate	Run1	generate/STIM_017.jpg	99
417.981	2.171	2171.4	generate	Run1	generate/STIM_017.jpg	100
422.732	1.36	1359.6	generate	Run1	generate/STIM_017.jpg	100
427.378	1.197	1196.6	generate	Run1	generate/STIM_017.jpg	99
431.146	1.237	1236.9	generate	Run1	generate/STIM_017.jpg	100
434.364	2.576	2575.6	generate	Run1	generate/STIM_018.jpg	100
438.793	1.824	1823.7	generate	Run1	generate/STIM_018.jpg	99
442.637	1.86	1860.5	generate	Run1	generate/STIM_018.jpg	100
447.396	2.121	2121.0	generate	Run1	generate/STIM_018.jpg	100
451.261	2.323	2322.9	generate	Run1	generate/STIM_018.jpg	99
456.343	2.356	2356.1	generate	Run1	generate/STIM_019.jpg	100
461.987	1.797	1797.4	generate	Run1	generate/STIM_019.jpg	99
466.785	2.901	2901.0	generate	Run1	generate/STIM_019.jpg	100
472.147	2.269	2268.7	generate	Run1	generate/STIM_019.jpg	100
477.385	1.253	1253.4	generate	Run1	generate/STIM_019.jpg	99
480.754	3.364	3363.7	generate	Run1	generate/STIM_020.jpg	99
486.482	2.919	2919.3	generate	Run1	generate/STIM_020.jpg	100
492.201	1.845	1844.7	generate	Run1	generate/STIM_020.jpg	99
497.745	1.555	1554.8	generate	Run1	generate/STIM_020.jpg	100
501.755	1.359	1358.7	generate	Run1	generate/STIM_020.jpg	99
505.142	2.917	2917.2	generate	Run1	generate/STIM_021.jpg	100
510.425	2.3	2300.4	generate	Run1	generate/STIM_021.jpg	100
515.296	2.901	2900.7	generate	Run1	generate/STIM_021.jpg	99
521.323	2.179	2179.4	generate	Run1	generate/STIM_021.jpg	99
526.289	1.39	1390.5	generate	Run1	generate/STIM_021.jpg	100
531.052	1.566	1566.4	generate	Run1	generate/STIM_022.jpg	99
535.076	1.676	1676.1	generate	Run1	generate/STIM_022.jpg	100
539.9	1.666	1666.4	generate	Run1	generate/STIM_022.jpg	100
544.098	1.903	1903.1	generate	Run1	generate/STIM_022.jpg	99
549.571	2.617	2616.9	generate	Run1	generate/STIM_022.jpg	99
555.534	1.822	1822.3	generate	Run1	generate/STIM_023.jpg	99
560.312	2.739	2739.4	generate	Run1	generate/STIM_023.jpg	100
566.581	1.506	1506.5	generate	Run1	generate/STIM_023.jpg	99
571.344	2.2	2200.0	generate	Run1	generate/STIM_023.jpg	99
577.13	2.6	2600.5	generate	Run1	generate/STIM_023.jpg	99
582.007	2.591	2591.1	generate	Run1	generate/STIM_024.jpg	100
587.298	2.888	2888.5	generate	Run1	generate/STIM_024.jpg	99
592.089	3.073	3072.7	generate	Run1	generate/STIM_024.jpg	100
598.466	2.473	2473.2	generate	Run1	generate/STIM_024.jpg	100
603.433	2.1	2099.5	generate	Run1	generate/STIM_024.jpg	99
609.185	1.135	1134.7	repeat	Run1	repeat/STIM_000.jpg	100
612.258	0.908	908.5	repeat	Run1	repeat/STIM_000.jpg	100
615.369	1.11	1110.2	repeat	Run1	repeat/STIM_000.jpg	99
620.016	0.888	888.2	repeat	Run1	repeat/STIM_000.jpg	100
622.842	1.004	1003.5	repeat	Run1	repeat/STIM_000.jpg	100
626.428	0.985	985.1	repeat	Run1	repeat/STIM_001.jpg	100
629.816	1.07	1069.6	repeat	Run1	repeat/STIM_001.jpg	99
634.506	0.923	922.7	repeat	Run1	repeat/STIM_001.jpg	99
638.439	0.593	593.3	repeat	Run1	repeat/STIM_001.jpg	99
642.216	0.577	577.1	repeat	Run1	repeat/STIM_001.jpg	100
646.087	1.105	1105.1	repeat	Run1	repeat/STIM_002.jpg	99
650.27	0.931	930.6	repeat	Run1	repeat/STIM_002.jpg	100
654.601	1.056	1055.6	repeat	Run1	repeat/STIM_002.jpg	100
657.845	0.98	979.7	repeat	Run1	repeat/STIM_002.jpg	99
660.904	0.935	934.8	repeat	Run1	repeat/STIM_002.jpg	100
665.43	1.124	1123.5	repeat	Run1	repeat/STIM_003.jpg	100
669.259	0.811	810.7	repeat	Run1	repeat/STIM_003.jpg	99
673.323	0.803	803.4	repeat	Run1	repeat/STIM_003.jpg	100
677.647	0.974	974.0	repeat	Run1	repeat/STIM_003.jpg	99
682.073	1.082	1082.3	repeat	Run1	repeat/STIM_003.jpg	99
685.117	0.812	811.9	repeat	Run1	repeat/STIM_004.jpg	99
688.52	1.08	1080.0	repeat	Run1	repeat/STIM_004.jpg	100
691.478	0.979	979.4	repeat	Run1	repeat/STIM_004.jpg	100
695.702	0.675	675.4	repeat	Run1	repeat/STIM_004.jpg	100
699.106	1.042	1042.1	repeat	Run1	repeat/STIM_004.jpg	99
703.939	0.902	901.7	repeat	Run1	repeat/STIM_005.jpg	100
707.706	0.901	900.7	repeat	Run1	repeat/STIM_005.jpg	99
711.158	0.748	748.4	repeat	Run1	repeat/STIM_005.jpg	99
714.923	0.895	895.4	repeat	Run1	repeat/STIM_005.jpg	99
718.757	0.976	976.0	repeat	Run1	repeat/STIM_005.jpg	100
721.728	0.829	829.2	repeat	Run1	repeat/STIM_006.jpg	100
724.99	0.829	828.9	repeat	Run1	repeat/STIM_006.jpg	99
728.172	1.138	1138.4	repeat	Run1	repeat/STIM_006.jpg	100
731.952	0.829	829.0	repeat	Run1	repeat/STIM_006.jpg	100
735.411	1.139	1138.9	repeat	Run1	repeat/STIM_006.jpg	99
739.953	0.892	891.8	repeat	Run1	repeat/STIM_007.jpg	99
743.043	1.061	1061.0	repeat	Run1	repeat/STIM_007.jpg	99
747.422	0.865	865.0	repeat	Run1	repeat/STIM_007.jpg	100
751.629	0.991	990.8	repeat	Run1	repeat/STIM_007.jpg	99
756.416	0.64	639.7	repeat	Run1	repeat/STIM_007.jpg	99
759.354	0.916	915.9	repeat	Run1	repeat/STIM_008.jpg	100
764.068	0.88	879.9	repeat	Run1	repeat/STIM_008.jpg	99
768.648	0.771	770.8	repeat	Run1	repeat/STIM_008.jpg	100
771.364	1.051	1050.8	repeat	Run1	repeat/STIM_008.jpg	100
774.777	0.864	864.2	repeat	Run1	repeat/STIM_008.jpg	100
778.119	0.611	611.2	repeat	Run1	repeat/STIM_009.jpg	99
781.498	0.9	900.1	repeat	Run1	repeat/STIM_009.jpg	99
784.654	0.902	902.4	repeat	Run1	repeat/STIM_009.jpg	99
788.192	0.811	811.2	repeat	Run1	repeat/STIM_009.jpg	99
792.172	0.64	639.6	repeat	Run1	repeat/STIM_009.jpg	100
795.056	0.874	873.9	repeat	Run1	repeat/STIM_010.jpg	99
798.986	0.589	589.0	repeat	Run1	repeat/STIM_010.jpg	99
802.819	1.057	1056.8	repeat	Run1	repeat/STIM_010.jpg	99
805.919	0.751	751.3	repeat	Run1	repeat/STIM_010.jpg	99
809.378	1.034	1034.2	repeat	Run1	repeat/STIM_010.jpg	99
814.109	0.914	913.8	repeat	Run1	repeat/STIM_011.jpg	100
817.635	0.962	962.0	repeat	Run1	repeat/STIM_011.jpg	99
820.694	0.835	834.8	repeat	Run1	repeat/STIM_011.jpg	99
825.248	0.782	782.2	repeat	Run1	repeat/STIM_011.jpg	100
829.366	0.661	661.4	repeat	Run1	repeat/STIM_011.jpg	99
832.904	0.587	586.8	repeat	Run1	repeat/STIM_012.jpg	100
837.322	0.914	913.8	repeat	Run1	repeat/STIM_012.jpg	100
841.705	0.716	716.1	repeat	Run1	repeat/STIM_012.jpg	99
844.809	0.896	895.6	repeat	Run1	repeat/STIM_012.jpg	100
847.869	1.109	1109.3	repeat	Run1	repeat/STIM_012.jpg	99
852.026	0.642	641.5	repeat	Run1	repeat/STIM_013.jpg	100
854.949	0.905	905.2	repeat	Run1	repeat/STIM_013.jpg	99
859.732	0.95	949.5	repeat	Run1	repeat/STIM_013.jpg	99
863.262	0.893	893.3	repeat	Run1	repeat/STIM_013.jpg	100
867.871	0.623	622.8	repeat	Run1	repeat/STIM_013.jpg	100
871.69	0.782	782.3	repeat	Run1	repeat/STIM_014.jpg	100
874.468	0.81	810.2	repeat	Run1	repeat/STIM_014.jpg	100
878.037	0.589	588.6	repeat	Run1	repeat/STIM_014.jpg	100
881.654	1.001	1001.4	repeat	Run1	repeat/STIM_014.jpg	100
885.782	0.826	826.4	repeat	Run1	repeat/STIM_014.jpg	100
889.956	2.044	2044.2	generate	Run2	generate/STIM_000.jpg	99
894.975	2.637	2637.2	generate	Run2	generate/STIM_000.jpg	100
899.994	1.035	1034.8	generate	Run2	generate/STIM_000.jpg	100
902.986	1.915	1915.3	generate	Run2	generate/STIM_000.jpg	100
908.058	1.984	1983.8	generate	Run2	generate/STIM_000.jpg	100
912.954	2.765	2764.9	generate	Run2	generate/STIM_001.jpg	99
918.764	2.538	2537.8	generate	Run2	generate/STIM_001.jpg	100
923.238	2.482	2482.5	generate	Run2	generate/STIM_001.jpg	100
927.54	2.053	2052.8	generate	Run2	generate/STIM_001.jpg	100
932.1	1.075	1075.3	generate	Run2	generate/STIM_001.jpg	100
935.304	2.305	2304.6	generate	Run2	generate/STIM_002.jpg	99
939.763	2.491	2490.9	generate	Run2	generate/STIM_002.jpg	100
945.181	2.157	2156.9	generate	Run2	generate/STIM_002.jpg	99
950.76	1.545	1545.1	generate	Run2	generate/STIM_002.jpg	100
954.787	2.156	2156.3	generate	Run2	generate/STIM_002.jpg	100
958.769	2.251	2251.4	generate	Run2	generate/STIM_003.jpg	99
963.081	2.648	2647.6	generate	Run2	generate/STIM_003.jpg	100
968.877	1.093	1093.3	generate	Run2	generate/STIM_003.jpg	99
972.86	1.301	1301.0	generate	Run2	generate/STIM_003.jpg	100
977.208	2.218	2217.5	generate	Run2	generate/STIM_003.jpg	100
982.398	1.425	1425.0	generate	Run2	generate/STIM_004.jpg	100
986.805	2.494	2494.4	generate	Run2	generate/STIM_004.jpg	100
992.909	2.453	2453.3	generate	Run2	generate/STIM_004.jpg	99
997.437	2.339	2339.4	generate	Run2	generate/STIM_004.jpg	100
1001.758	1.839	1839.3	generate	Run2	generate/STIM_004.jpg	99
1005.562	2.824	2823.6	generate	Run2	generate/STIM_005.jpg	99
1011.524	1.658	1657.5	generate	Run2	generate/STIM_005.jpg	99
1016.791	1.392	1392.2	generate	Run2	generate/STIM_005.jpg	99
1020.12	1.049	1048.7	generate	Run2	generate/STIM_005.jpg	100
1023.361	1.078	1078.4	generate	Run2	generate/STIM_005.jpg	99
1028.121	2.318	2317.8	generate	Run2	generate/STIM_006.jpg	99
1033.259	1.27	1269.6	generate	Run2	generate/STIM_006.jpg	100
1037.692	1.212	1212.3	generate	Run2	generate/STIM_006.jpg	100
1041.581	1.044	1043.5	generate	Run2	generate/STIM_006.jpg	99
1045.613	1.696	1695.7	generate	Run2	generate/STIM_006.jpg	100
1050.744	1.198	1197.7	generate	Run2	generate/STIM_007.jpg	100
1054.24	1.698	1698.1	generate	Run2	generate/STIM_007.jpg	99
1058.014	1.477	1477.2	generate	Run2	generate/STIM_007.jpg	100
1063.144	1.14	1139.9	generate	Run2	generate/STIM_007.jpg	100
1067.826	2.369	2368.7	generate	Run2	generate/STIM_007.jpg	100
1072.12	2.852	2851.7	generate	Run2	generate/STIM_008.jpg	100
1077.88	1.426	1426.0	generate	Run2	generate/STIM_008.jpg	99
1082.317	1.382	1382.3	generate	Run2	generate/STIM_008.jpg	100
1086.737	1.243	1242.8	generate	Run2	generate/STIM_008.jpg	100
1090.369	1.23	1229.8	generate	Run2	generate/STIM_008.jpg	99
1094.467	2.663	2663.4	generate	Run2	generate/STIM_009.jpg	100
1099.336	1.948	1948.4	generate	Run2	generate/STIM_009.jpg	99
1103.492	1.859	1859.4	generate	Run2	generate/STIM_009.jpg	100
1108.686	1.688	1688.1	generate	Run2	generate/STIM_009.jpg	100
1113.946	1.92	1920.3	generate	Run2	generate/STIM_009.jpg	99
1117.681	2.382	2381.5	generate	Run2	generate/STIM_010.jpg	99
1123.764	1.254	1254.4	generate	Run2	generate/STIM_010.jpg	100
1127.945	1.371	1370.8	generate	Run2	generate/STIM_010.jpg	100
1132.52	1.5	1500.3	generate	Run2	generate/STIM_010.jpg	99
1136.323	1.605	1604.6	generate	Run2	generate/STIM_010.jpg	100
1139.857	2.576	2576.5	generate	Run2	generate/STIM_011.jpg	99
1144.399	1.53	1529.5	generate	Run2	generate/STIM_011.jpg	99
1149.674	1.086	1085.9	generate	Run2	generate/STIM_011.jpg	100
1153.537	1.317	1317.4	generate	Run2	generate/STIM_011.jpg	99
1157.688	1.057	1057.0	generate	Run2	generate/STIM_011.jpg	100
1162.581	1.406	1406.4	generate	Run2	generate/STIM_012.jpg	99
1166.745	1.18	1180.3	generate	Run2	generate/STIM_012.jpg	99
1170.837	2.502	2501.9	generate	Run2	generate/STIM_012.jpg	100
1176.321	1.204	1204.0	generate	Run2	generate/STIM_012.jpg	99
1181.321	1.162	1161.6	generate	Run2	generate/STIM_012.jpg	99
1184.364	2.502	2501.9	generate	Run2	generate/STIM_013.jpg	99
1190.079	1.358	1358.5	generate	Run2	generate/STIM_013.jpg	100
1194.212	1.31	1310.3	generate	Run2	generate/STIM_013.jpg	99
1199.321	1.904	1903.8	generate	Run2	generate/STIM_013.jpg	99
1204.499	1.249	1248.8	generate	Run2	generate/STIM_013.jpg	99
1209.205	1.912	1912.2	generate	Run2	generate/STIM_014.jpg	99
1214.768	1.238	1238.1	generate	Run2	generate/STIM_014.jpg	100
1218.628	2.517	2516.6	generate	Run2	generate/STIM_014.jpg	100
1223.703	1.808	1807.7	generate	Run2	generate/STIM_014.jpg	99
1229.276	1.533	1533.1	generate	Run2	generate/STIM_014.jpg	99
1233.67	2.614	2613.7	generate	Run2	generate/STIM_015.jpg	100
1238.433	1.546	1546.3	generate	Run2	generate/STIM_015.jpg	99
1242.865	1.336	1335.9	generate	Run2	generate/STIM_015.jpg	99
1247.047	2.173	2173.4	generate	Run2	generate/STIM_015.jpg	99
1252.819	2.089	2089.2	generate	Run2	generate/STIM_015.jpg	99
1256.869	1.937	1937.4	generate	Run2	generate/STIM_016.jpg	100
1262.22	2.138	2138.1	generate	Run2	generate/STIM_016.jpg	100
1266.863	2.189	2189.4	generate	Run2	generate/STIM_016.jpg	99
1272.382	2.152	2151.9	generate	Run2	generate/STIM_016.jpg	99
1277.916	2.278	2278.5	generate	Run2	generate/STIM_016.jpg	100
1282.644	2.051	2050.8	generate	Run2	generate/STIM_017.jpg	99
1286.716	1.884	1884.3	generate	Run2	generate/STIM_017.jpg	100
1291.187	1.558	1557.7	generate	Run2	generate/STIM_017.jpg	100
1295.367	1.893	1892.9	generate	Run2	generate/STIM_017.jpg	99
1300.035	1.932	1932.0	generate	Run2	generate/STIM_017.jpg	100
1305.327	1.475	1474.7	generate	Run2	generate/STIM_018.jpg	100
1309.726	1.627	1627.2	generate	Run2	generate/STIM_018.jpg	99
1314.437	1.774	1773.6	generate	Run2	generate/STIM_018.jpg	100
1319.545	2.305	2304.6	generate	Run2	generate/STIM_018.jpg	99
1324.227	1.04	1039.8	generate	Run2	generate/STIM_018.jpg	100
1328.14	1.685	1685.3	generate	Run2	generate/STIM_019.jpg	99
1332.996	2.237	2236.9	generate	Run2	generate/STIM_019.jpg	99
1336.985	1.662	1661.5	generate	Run2	generate/STIM_019.jpg	99
1340.583	1.061	1061.0	generate	Run2	generate/STIM_019.jpg	100
1345.248	1.794	1794.5	generate	Run2	generate/STIM_019.jpg	100
1348.898	1.328	1328.1	generate	Run2	generate/STIM_020.jpg	99
1353.56	2.136	2136.5	generate	Run2	generate/STIM_020.jpg	99
1358.636	2.259	2259.2	generate	Run2	generate/STIM_020.jpg	99
1364.041	1.274	1273.8	generate	Run2	generate/STIM_020.jpg	100
1367.731	1.955	1954.9	generate	Run2	generate/STIM_020.jpg	100
1371.581	2.132	2132.0	generate	Run2	generate/STIM_021.jpg	100
1376.733	1.229	1228.9	generate	Run2	generate/STIM_021.jpg	99
1380.769	1.652	1652.4	generate	Run2	generate/STIM_021.jpg	100
1384.333	1.663	1662.8	generate	Run2	generate/STIM_021.jpg	99
1388.595	2.139	2139.4	generate	Run2	generate/STIM_021.jpg	99
1393.415	2.587	2587.0	generate	Run2	generate/STIM_022.jpg	99
1398.869	2.714	2714.2	generate	Run2	generate/STIM_022.jpg	99
1403.719	1.777	1777.2	generate	Run2	generate/STIM_022.jpg	99
1408.803	0.967	967.1	generate	Run2	generate/STIM_022.jpg	99
1412.721	1.413	1412.7	generate	Run2	generate/STIM_022.jpg	100
1417.643	1.413	1413.3	generate	Run2	generate/STIM_023.jpg	100
1421.803	1.646	1645.6	generate	Run2	generate/STIM_023.jpg	99
1427.011	1.047	1047.4	generate	Run2	generate/STIM_023.jpg	100
1430.879	1.46	1460.2	generate	Run2	generate/STIM_023.jpg	99
1435.519	1.194	1194.5	generate	Run2	generate/STIM_023.jpg	99
1439.642	1.798	1798.5	generate	Run2	generate/STIM_024.jpg	99
1443.353	2.655	2654.7	generate	Run2	generate/STIM_024.jpg	99
1448.253	1.401	1401.2	generate	Run2	generate/STIM_024.jpg	100
1452.942	1.752	1751.6	generate	Run2	generate/STIM_024.jpg	100
1457.946	2.083	2083.3	generate	Run2	generate/STIM_024.jpg	100
1462.604	0.873	873.2	repeat	Run2	repeat/STIM_000.jpg	100
1466.9	1.025	1024.7	repeat	Run2	repeat/STIM_000.jpg	100
1471.312	0.815	815.1	repeat	Run2	repeat/STIM_000.jpg	100
1475.274	1.026	1025.8	repeat	Run2	repeat/STIM_000.jpg	99
1479.861	0.9	900.3	repeat	Run2	repeat/STIM_000.jpg	99
1483.14	0.837	837.4	repeat	Run2	repeat/STIM_001.jpg	100
1486.566	0.82	820.1	repeat	Run2	repeat/STIM_001.jpg	99
1490.041	0.632	632.1	repeat	Run2	repeat/STIM_001.jpg	100
1493.921	0.917	916.8	repeat	Run2	repeat/STIM_001.jpg	99
1498.403	1.118	1117.7	repeat	Run2	repeat/STIM_001.jpg	99
1502.52	0.954	954.1	repeat	Run2	repeat/STIM_002.jpg	100
1506.62	1.007	1007.2	repeat	Run2	repeat/STIM_002.jpg	99
1509.777	0.681	681.0	repeat	Run2	repeat/STIM_002.jpg	99
1512.494	0.888	887.8	repeat	Run2	repeat/STIM_002.jpg	100
1516.571	0.597	596.8	repeat	Run2	repeat/STIM_002.jpg	100
1521.054	1.026	1025.9	repeat	Run2	repeat/STIM_003.jpg	100
1525.031	0.602	602.4	repeat	Run2	repeat/STIM_003.jpg	100
1527.901	1.12	1119.8	repeat	Run2	repeat/STIM_003.jpg	99
1532.487	1.108	1107.6	repeat	Run2	repeat/STIM_003.jpg	100
1535.837	0.65	649.8	repeat	Run2	repeat/STIM_003.jpg	99
1539.415	1.127	1127.3	repeat	Run2	repeat/STIM_004.jpg	100
1544.403	0.914	913.7	repeat	Run2	repeat/STIM_004.jpg	100
1548.243	0.936	936.3	repeat	Run2	repeat/STIM_004.jpg	99
1551.878	0.786	786.0	repeat	Run2	repeat/STIM_004.jpg	99
1555.288	0.829	829.1	repeat	Run2	repeat/STIM_004.jpg	99
1558.982	0.578	578.0	repeat	Run2	repeat/STIM_005.jpg	100
1563.437	0.792	791.5	repeat	Run2	repeat/STIM_005.jpg	99
1567.238	1.079	1079.2	repeat	Run2	repeat/STIM_005.jpg	99
1571.934	1.034	1034.4	repeat	Run2	repeat/STIM_005.jpg	99
1574.911	0.712	712.3	repeat	Run2	repeat/STIM_005.jpg	100
1577.657	0.915	914.9	repeat	Run2	repeat/STIM_006.jpg	99
1580.701	0.937	937.3	repeat	Run2	repeat/STIM_006.jpg	99
1583.576	0.885	885.3	repeat	Run2	repeat/STIM_006.jpg	99
1586.492	1.093	1093.2	repeat	Run2	repeat/STIM_006.jpg	99
1589.699	1.127	1126.9	repeat	Run2	repeat/STIM_006.jpg	99
1593.258	1.038	1038.2	repeat	Run2	repeat/STIM_007.jpg	100
1597.55	1.081	1080.9	repeat	Run2	repeat/STIM_007.jpg	100
1600.58	1.015	1015.3	repeat	Run2	repeat/STIM_007.jpg	100
1604.409	1.13	1129.8	repeat	Run2	repeat/STIM_007.jpg	100
1608.543	0.706	706.1	repeat	Run2	repeat/STIM_007.jpg	100
1612.137	1.078	1077.6	repeat	Run2	repeat/STIM_008.jpg	100
1616.279	1.027	1027.1	repeat	Run2	repeat/STIM_008.jpg	100
1619.553	1.124	1124.3	repeat	Run2	repeat/STIM_008.jpg	99
1623.426	1.064	1064.5	repeat	Run2	repeat/STIM_008.jpg	99
1627.359	0.814	814.2	repeat	Run2	repeat/STIM_008.jpg	100
1630.155	0.909	909.4	repeat	Run2	repeat/STIM_009.jpg	100
1633.166	0.725	725.4	repeat	Run2	repeat/STIM_009.jpg	100
1637.363	1.036	1036.1	repeat	Run2	repeat/STIM_009.jpg	99
1640.291	1.117	1117.3	repeat	Run2	repeat/STIM_009.jpg	100
1644.691	1.022	1021.8	repeat	Run2	repeat/STIM_009.jpg	99
1647.653	0.978	978.0	repeat	Run2	repeat/STIM_010.jpg	99
1651.649	0.709	709.1	repeat	Run2	repeat/STIM_010.jpg	100
1655.068	1.022	1022.2	repeat	Run2	repeat/STIM_010.jpg	100
1658.422	0.866	865.9	repeat	Run2	repeat/STIM_010.jpg	99
1661.919	1.101	1101.3	repeat	Run2	repeat/STIM_010.jpg	99
1665.843	1.075	1075.0	repeat	Run2	repeat/STIM_011.jpg	100
1669.748	0.979	979.2	repeat	Run2	repeat/STIM_011.jpg	99
1673.975	0.59	590.5	repeat	Run2	repeat/STIM_011.jpg	99
1678.324	0.588	587.6	repeat	Run2	repeat/STIM_011.jpg	100
1682.557	0.67	669.8	repeat	Run2	repeat/STIM_011.jpg	100
1686.806	0.953	952.8	repeat	Run2	repeat/STIM_012.jpg	99
1690.536	0.84	840.3	repeat	Run2	repeat/STIM_012.jpg	100
1694.545	0.822	821.8	repeat	Run2	repeat/STIM_012.jpg	100
1697.757	0.635	634.8	repeat	Run2	repeat/STIM_012.jpg	100
1700.917	0.607	607.4	repeat	Run2	repeat/STIM_012.jpg	99
1704.6	0.68	680.0	repeat	Run2	repeat/STIM_013.jpg	100
1708.644	0.572	571.6	repeat	Run2	repeat/STIM_013.jpg	100
1712.731	0.911	911.0	repeat	Run2	repeat/STIM_013.jpg	99
1716.499	0.823	823.3	repeat	Run2	repeat/STIM_013.jpg	100
1720.943	1.038	1037.7	repeat	Run2	repeat/STIM_013.jpg	99
1724.347	0.77	770.2	repeat	Run2	repeat/STIM_014.jpg	100
1727.158	1.109	1108.8	repeat	Run2	repeat/STIM_014.jpg	100
1731.006	0.77	770.5	repeat	Run2	repeat/STIM_014.jpg	100
1734.516	0.655	655.0	repeat	Run2	repeat/STIM_014.jpg	100
1738.709	1.029	1028.7	repeat	Run2	repeat/STIM_014.jpg	99
1742.29	2.031	2031.5	generate	Run3	generate/STIM_000.jpg	99
1747.481	1.561	1560.7	generate	Run3	generate/STIM_000.jpg	99
1751.973	1.034	1034.4	generate	Run3	generate/STIM_000.jpg	99
1756.128	1.664	1664.4	generate	Run3	generate/STIM_000.jpg	100
1760.24	2.15	2150.1	generate	Run3	generate/STIM_000.jpg	99
1764.509	1.414	1414.2	generate	Run3	generate/STIM_001.jpg	99
1768.091	1.475	1474.7	generate	Run3	generate/STIM_001.jpg	100
1772.18	1.339	1339.4	generate	Run3	generate/STIM_001.jpg	99
1775.807	1.908	1907.6	generate	Run3	generate/STIM_001.jpg	100
1779.69	1.43	1430.2	generate	Run3	generate/STIM_001.jpg	99
1783.108	2.269	2268.7	generate	Run3	generate/STIM_002.jpg	99
1787.565	1.834	1834.3	generate	Run3	generate/STIM_002.jpg	99
1791.897	1.259	1259.1	generate	Run3	generate/STIM_002.jpg	100
1795.037	1.59	1590.4	generate	Run3	generate/STIM_002.jpg	99
1799.459	2.03	2029.8	generate	Run3	generate/STIM_002.jpg	99
1803.981	1.939	1938.6	generate	Run3	generate/STIM_003.jpg	99
1808.845	1.295	1294.7	generate	Run3	generate/STIM_003.jpg	100
1812.69	1.671	1671.1	generate	Run3	generate/STIM_003.jpg	100
1817.999	2.034	2034.5	generate	Run3	generate/STIM_003.jpg	99
1822.056	1.741	1741.3	generate	Run3	generate/STIM_003.jpg	100
1827.52	1.097	1097.1	generate	Run3	generate/STIM_004.jpg	100
1831.957	1.677	1677.1	generate	Run3	generate/STIM_004.jpg	100
1835.572	1.06	1060.1	generate	Run3	generate/STIM_004.jpg	100
1840.166	2.362	2361.5	generate	Run3	generate/STIM_004.jpg	99
1845.002	1.968	1968.2	generate	Run3	generate/STIM_004.jpg	100
1849.375	1.12	1120.0	generate	Run3	generate/STIM_005.jpg	99
1852.431	2.199	2199.0	generate	Run3	generate/STIM_005.jpg	100
1856.819	1.386	1386.4	generate	Run3	generate/STIM_005.jpg	100
1861.656	2.185	2185.3	generate	Run3	generate/STIM_005.jpg	99
1866.62	2.183	2183.2	generate	Run3	generate/STIM_005.jpg	100
1870.852	1.528	1528.3	generate	Run3	generate/STIM_006.jpg	100
1874.883	1.577	1576.9	generate	Run3	generate/STIM_006.jpg	99
1878.38	1.801	1801.4	generate	Run3	generate/STIM_006.jpg	100
1883.308	1.807	1807.1	generate	Run3	generate/STIM_006.jpg	99
1887.078	0.993	993.4	generate	Run3	generate/STIM_006.jpg	99
1889.956	1.917	1917.3	generate	Run3	generate/STIM_007.jpg	99
1895.226	2.077	2076.6	generate	Run3	generate/STIM_007.jpg	100
1900.554	1.188	1187.6	generate	Run3	generate/STIM_007.jpg	99
1904.862	1.255	1254.7	generate	Run3	generate/STIM_007.jpg	99
1908.384	1.365	1364.9	generate	Run3	generate/STIM_007.jpg	99
1912.735	1.476	1476.5	generate	Run3	generate/STIM_008.jpg	100
1917.552	1.293	1293.4	generate	Run3	generate/STIM_008.jpg	99
1921.209	1.657	1657.3	generate	Run3	generate/STIM_008.jpg	99
1925.61	1.048	1047.5	generate	Run3	generate/STIM_008.jpg	99
1929.564	1.779	1778.9	generate	Run3	generate/STIM_008.jpg	100
1934.209	1.279	1278.6	generate	Run3	generate/STIM_009.jpg	100
1938.109	1.676	1675.5	generate	Run3	generate/STIM_009.jpg	100
1941.669	1.664	1664.3	generate	Run3	generate/STIM_009.jpg	100
1945.68	1.07	1070.2	generate	Run3	generate/STIM_009.jpg	99
1948.698	1.783	1783.4	generate	Run3	generate/STIM_009.jpg	100
1953.545	1.948	1948.5	generate	Run3	generate/STIM_010.jpg	99
1957.747	1.548	1547.6	generate	Run3	generate/STIM_010.jpg	99
1962.421	1.854	1853.5	generate	Run3	generate/STIM_010.jpg	99
1966.815	1.315	1314.7	generate	Run3	generate/STIM_010.jpg	99
1970.175	1.834	1834.1	generate	Run3	generate/STIM_010.jpg	100
1975.735	1.133	1132.7	generate	Run3	generate/STIM_011.jpg	100
1979.681	2.23	2230.3	generate	Run3	generate/STIM_011.jpg	100
1984.474	2.287	2287.0	generate	Run3	generate/STIM_011.jpg	100
1989.09	1.473	1472.7	generate	Run3	generate/STIM_011.jpg	99
1994.376	1.975	1975.2	generate	Run3	generate/STIM_011.jpg	100
1999.584	1.837	1836.9	generate	Run3	generate/STIM_012.jpg	100
2004.548	2.13	2130.5	generate	Run3	generate/STIM_012.jpg	100
2008.645	1.937	1936.8	generate	Run3	generate/STIM_012.jpg	99
2013.413	2.261	2260.9	generate	Run3	generate/STIM_012.jpg	99
2018.831	1.443	1443.0	generate	Run3	generate/STIM_012.jpg	99
2024.042	1.538	1538.4	generate	Run3	generate/STIM_013.jpg	100
2029.335	1.416	1416.0	generate	Run3	generate/STIM_013.jpg	99
2033.761	2.288	2287.5	generate	Run3	generate/STIM_013.jpg	99
2039.126	1.701	1701.2	generate	Run3	generate/STIM_013.jpg	99
2043.084	2.062	2062.3	generate	Run3	generate/STIM_013.jpg	100
2048.36	1.098	1098.1	generate	Run3	generate/STIM_014.jpg	100
2051.989	1.201	1200.8	generate	Run3	generate/STIM_014.jpg	99
2056.537	2.17	2170.2	generate	Run3	generate/STIM_014.jpg	99
2060.86	1.829	1829.2	generate	Run3	generate/STIM_014.jpg	99
2066.022	1.637	1637.4	generate	Run3	generate/STIM_014.jpg	99
2069.972	1.379	1379.2	generate	Run3	generate/STIM_015.jpg	100
2074.576	2.184	2183.8	generate	Run3	generate/STIM_015.jpg	100
2080.098	1.632	1632.2	generate	Run3	generate/STIM_015.jpg	99
2085.466	1.443	1442.7	generate	Run3	generate/STIM_015.jpg	100
2090.569	1.91	1910.1	generate	Run3	generate/STIM_015.jpg	100
2095.94	1.958	1957.8	generate	Run3	generate/STIM_016.jpg	99
2099.948	1.293	1293.3	generate	Run3	generate/STIM_016.jpg	99
2103.976	1.422	1422.5	generate	Run3	generate/STIM_016.jpg	99
2108.613	2.232	2231.8	generate	Run3	generate/STIM_016.jpg	99
2113.01	2.277	2277.3	generate	Run3	generate/STIM_016.jpg	100
2118.77	1.598	1597.9	generate	Run3	generate/STIM_017.jpg	99
2122.777	2.203	2202.7	generate	Run3	generate/STIM_017.jpg	99
2127.904	1.786	1786.2	generate	Run3	generate/STIM_017.jpg	99
2131.865	1.83	1829.7	generate	Run3	generate/STIM_017.jpg	99
2136.833	1.507	1507.4	generate	Run3	generate/STIM_017.jpg	99
2141.352	2.354	2354.4	generate	Run3	generate/STIM_018.jpg	99
2145.679	1.921	1920.6	generate	Run3	generate/STIM_018.jpg	99
2150.243	1.148	1147.7	generate	Run3	generate/STIM_018.jpg	100
2155.216	1.86	1859.7	generate	Run3	generate/STIM_018.jpg	100
2160.782	2.144	2144.3	generate	Run3	generate/STIM_018.jpg	100
2165.706	1.147	1147.1	generate	Run3	generate/STIM_019.jpg	100
2170.072	1.347	1347.4	generate	Run3	generate/STIM_019.jpg	99
2174.325	1.866	1866.0	generate	Run3	generate/STIM_019.jpg	99
2179.609	2.028	2028.2	generate	Run3	generate/STIM_019.jpg	99
2183.534	1.43	1429.6	generate	Run3	generate/STIM_019.jpg	100
2188.191	1.682	1681.9	generate	Run3	generate/STIM_020.jpg	99
2192.179	2.279	2278.8	generate	Run3	generate/STIM_020.jpg	100
2197.117	1.056	1056.5	generate	Run3	generate/STIM_020.jpg	100
2201.579	2.042	2041.6	generate	Run3	generate/STIM_020.jpg	99
2206.312	1.962	1961.7	generate	Run3	generate/STIM_020.jpg	99
2211.353	1.157	1156.6	generate	Run3	generate/STIM_021.jpg	100
2215.183	1.729	1728.7	generate	Run3	generate/STIM_021.jpg	99
2219.249	1.43	1430.1	generate	Run3	generate/STIM_021.jpg	99
2223.199	1.545	1545.3	generate	Run3	generate/STIM_021.jpg	100
2227.645	1.818	1817.6	generate	Run3	generate/STIM_021.jpg	100
2231.434	1.124	1123.7	generate	Run3	generate/STIM_022.jpg	99
2234.925	2.111	2111.0	generate	Run3	generate/STIM_022.jpg	99
2240.436	2.164	2163.6	generate	Run3	generate/STIM_022.jpg	100
2246.246	0.988	988.1	generate	Run3	generate/STIM_022.jpg	100
2249.909	1.862	1861.9	generate	Run3	generate/STIM_022.jpg	99
2255.48	1.711	1711.1	generate	Run3	generate/STIM_023.jpg	99
2260.022	1.856	1856.4	generate	Run3	generate/STIM_023.jpg	99
2264.392	0.997	996.7	generate	Run3	generate/STIM_023.jpg	100
2267.632	1.851	1851.2	generate	Run3	generate/STIM_023.jpg	99
2272.772	1.014	1014.3	generate	Run3	generate/STIM_023.jpg	100
2277.612	1.802	1802.1	generate	Run3	generate/STIM_024.jpg	99
2282.486	1.165	1165.3	generate	Run3	generate/STIM_024.jpg	100
2286.318	1.774	1773.8	generate	Run3	generate/STIM_024.jpg	99
2291.58	1.3	1299.9	generate	Run3	generate/STIM_024.jpg	99
2295.303	2.32	2320.1	generate	Run3	generate/STIM_024.jpg	99
2300.477	0.707	706.9	repeat	Run3	repeat/STIM_000.jpg	99
2304.396	1.038	1038.0	repeat	Run3	repeat/STIM_000.jpg	100
2307.886	0.643	643.2	repeat	Run3	repeat/STIM_000.jpg	100
2310.999	1.106	1106.2	repeat	Run3	repeat/STIM_000.jpg	99
2314.62	0.676	676.2	repeat	Run3	repeat/STIM_000.jpg	99
2318.383	0.92	919.9	repeat	Run3	repeat/STIM_001.jpg	100
2322.38	0.993	992.9	repeat	Run3	repeat/STIM_001.jpg	100
2326.51	0.958	957.6	repeat	Run3	repeat/STIM_001.jpg	99
2329.909	0.931	931.2	repeat	Run3	repeat/STIM_001.jpg	99
2333.678	0.772	771.8	repeat	Run3	repeat/STIM_001.jpg	100
2337.75	0.926	925.8	repeat	Run3	repeat/STIM_002.jpg	99
2341.988	0.807	807.2	repeat	Run3	repeat/STIM_002.jpg	99
2346.24	0.648	648.2	repeat	Run3	repeat/STIM_002.jpg	99
2350.255	0.977	977.2	repeat	Run3	repeat/STIM_002.jpg	100
2354.998	0.647	646.7	repeat	Run3	repeat/STIM_002.jpg	100
2358.417	1.13	1130.5	repeat	Run3	repeat/STIM_003.jpg	99
2361.9	1.054	1054.5	repeat	Run3	repeat/STIM_003.jpg	100
2365.53	1.018	1018.1	repeat	Run3	repeat/STIM_003.jpg	100
2368.448	0.99	989.8	repeat	Run3	repeat/STIM_003.jpg	99
2373.072	1.019	1019.0	repeat	Run3	repeat/STIM_003.jpg	99
2377.148	0.77	769.5	repeat	Run3	repeat/STIM_004.jpg	100
2380.054	0.779	779.3	repeat	Run3	repeat/STIM_004.jpg	99
2384.361	0.734	734.0	repeat	Run3	repeat/STIM_004.jpg	99
2387.344	1.019	1018.9	repeat	Run3	repeat/STIM_004.jpg	99
2391.413	0.961	960.7	repeat	Run3	repeat/STIM_004.jpg	100
2395.696	0.59	590.2	repeat	Run3	repeat/STIM_005.jpg	99
2399.397	1.077	1076.8	repeat	Run3	repeat/STIM_005.jpg	100
2403.117	0.714	714.3	repeat	Run3	repeat/STIM_005.jpg	99
2407.189	0.902	901.5	repeat	Run3	repeat/STIM_005.jpg	100
2410.991	1.102	1101.9	repeat	Run3	repeat/STIM_005.jpg	99
2414.382	0.887	887.2	repeat	Run3	repeat/STIM_006.jpg	99
2417.678	0.858	857.9	repeat	Run3	repeat/STIM_006.jpg	100
2421.042	0.946	946.3	repeat	Run3	repeat/STIM_006.jpg	99
2425.226	0.958	958.3	repeat	Run3	repeat/STIM_006.jpg	100
2428.605	0.67	669.6	repeat	Run3	repeat/STIM_006.jpg	100
2433.03	1.037	1037.0	repeat	Run3	repeat/STIM_007.jpg	99
2437.15	0.619	618.7	repeat	Run3	repeat/STIM_007.jpg	100
2439.8	0.912	911.5	repeat	Run3	repeat/STIM_007.jpg	100
2443.637	0.791	791.1	repeat	Run3	repeat/STIM_007.jpg	100
2447.978	1.102	1102.2	repeat	Run3	repeat/STIM_007.jpg	100
2452.505	0.939	939.2	repeat	Run3	repeat/STIM_008.jpg	99
2456.101	0.625	625.4	repeat	Run3	repeat/STIM_008.jpg	99
2460.378	0.881	881.3	repeat	Run3	repeat/STIM_008.jpg	99
2463.817	0.755	755.2	repeat	Run3	repeat/STIM_008.jpg	100
2466.644	0.998	998.4	repeat	Run3	repeat/STIM_008.jpg	99
2471.259	1.032	1032.4	repeat	Run3	repeat/STIM_009.jpg	99
2475.703	0.913	913.0	repeat	Run3	repeat/STIM_009.jpg	99
2478.619	0.682	682.0	repeat	Run3	repeat/STIM_009.jpg	100
2481.369	1.134	1133.9	repeat	Run3	repeat/STIM_009.jpg	100
2485.841	1.134	1133.9	repeat	Run3	repeat/STIM_009.jpg	100
2489.359	0.753	753.3	repeat	Run3	repeat/STIM_010.jpg	99
2492.254	0.692	691.7	repeat	Run3	repeat/STIM_010.jpg	100
2495.023	0.742	741.8	repeat	Run3	repeat/STIM_010.jpg	99
2498.643	0.931	930.9	repeat	Run3	repeat/STIM_010.jpg	100
2503.017	1.071	1070.7	repeat	Run3	repeat/STIM_010.jpg	100
2507.683	0.95	950.2	repeat	Run3	repeat/STIM_011.jpg	100
2511.172	0.713	712.7	repeat	Run3	repeat/STIM_011.jpg	100
2515.44	0.98	980.5	repeat	Run3	repeat/STIM_011.jpg	99
2518.589	1.11	1110.3	repeat	Run3	repeat/STIM_011.jpg	100
2522.39	0.872	872.2	repeat	Run3	repeat/STIM_011.jpg	100
2525.863	0.901	901.3	repeat	Run3	repeat/STIM_012.jpg	100
2530.107	0.736	735.5	repeat	Run3	repeat/STIM_012.jpg	100
2534.556	0.579	578.9	repeat	Run3	repeat/STIM_012.jpg	99
2538.731	0.833	833.1	repeat	Run3	repeat/STIM_012.jpg	100
2542.027	0.927	927.4	repeat	Run3	repeat/STIM_012.jpg	100
2546.233	0.653	653.3	repeat	Run3	repeat/STIM_013.jpg	100
2550.789	0.768	767.8	repeat	Run3	repeat/STIM_013.jpg	99
2554.919	0.727	726.9	repeat	Run3	repeat/STIM_013.jpg	99
2557.634	0.726	726.0	repeat	Run3	repeat/STIM_013.jpg	100
2561.072	0.769	768.6	repeat	Run3	repeat/STIM_013.jpg	100
2564.544	0.949	949.4	repeat	Run3	repeat/STIM_014.jpg	99
2567.878	0.616	616.1	repeat	Run3	repeat/STIM_014.jpg	100
2572.096	1.047	1047.1	repeat	Run3	repeat/STIM_014.jpg	99
2576.353	1.022	1022.3	repeat	Run3	repeat/STIM_014.jpg	99
2580.949	0.608	608.2	repeat	Run3	repeat/STIM_014.jpg	100
2584.19	1.935	1935.0	generate	Run4	generate/STIM_000.jpg	99
2588.022	1.633	1632.9	generate	Run4	generate/STIM_000.jpg	100
2592.547	1.557	1556.6	generate	Run4	generate/STIM_000.jpg	99
2597.008	1.977	1977.2	generate	Run4	generate/STIM_000.jpg	100
2601.2	1.168	1168.5	generate	Run4	generate/STIM_000.jpg	99
2605.095	1.184	1183.9	generate	Run4	generate/STIM_001.jpg	100
2609.367	2.255	2255.4	generate	Run4	generate/STIM_001.jpg	100
2614.448	1.664	1663.7	generate	Run4	generate/STIM_001.jpg	100
2618.818	1.375	1375.1	generate	Run4	generate/STIM_001.jpg	100
2623.849	1.539	1539.4	generate	Run4	generate/STIM_001.jpg	99
2627.439	1.301	1300.8	generate	Run4	generate/STIM_002.jpg	99
2632.089	2.075	2075.0	generate	Run4	generate/STIM_002.jpg	99
2637.512	2.2	2200.1	generate	Run4	generate/STIM_002.jpg	99
2641.887	0.974	973.8	generate	Run4	generate/STIM_002.jpg	99
2646.679	1.952	1951.5	generate	Run4	generate/STIM_002.jpg	99
2651.407	2.087	2087.2	generate	Run4	generate/STIM_003.jpg	100
2657.127	2.113	2113.2	generate	Run4	generate/STIM_003.jpg	99
2660.986	1.639	1639.1	generate	Run4	generate/STIM_003.jpg	100
2664.905	1.824	1823.8	generate	Run4	generate/STIM_003.jpg	100
2669.574	1.065	1065.1	generate	Run4	generate/STIM_003.jpg	99
2673.701	1.562	1562.4	generate	Run4	generate/STIM_004.jpg	100
2677.371	2.103	2103.0	generate	Run4	generate/STIM_004.jpg	100
2682.446	1.608	1608.0	generate	Run4	generate/STIM_004.jpg	100
2687.686	1.348	1347.5	generate	Run4	generate/STIM_004.jpg	99
2691.986	2.07	2070.4	generate	Run4	generate/STIM_004.jpg	100
2697.535	1.71	1709.7	generate	Run4	generate/STIM_005.jpg	100
2702.869	2.343	2343.1	generate	Run4	generate/STIM_005.jpg	99
2708.08	1.874	1873.6	generate	Run4	generate/STIM_005.jpg	99
2713.651	1.433	1433.2	generate	Run4	generate/STIM_005.jpg	99
2718.321	1.686	1685.6	generate	Run4	generate/STIM_005.jpg	99
2722.357	1.434	1433.8	generate	Run4	generate/STIM_006.jpg	100
2725.861	1.205	1205.4	generate	Run4	generate/STIM_006.jpg	100
2729.502	2.05	2050.2	generate	Run4	generate/STIM_006.jpg	100
2734.709	1.39	1389.6	generate	Run4	generate/STIM_006.jpg	100
2739.373	1.569	1568.6	generate	Run4	generate/STIM_006.jpg	100
2744.173	2.27	2270.2	generate	Run4	generate/STIM_007.jpg	100
2749.818	1.147	1146.8	generate	Run4	generate/STIM_007.jpg	99
2754.133	1.957	1957.4	generate	Run4	generate/STIM_007.jpg	100
2758.738	1.98	1979.7	generate	Run4	generate/STIM_007.jpg	100
2762.543	1.021	1021.2	generate	Run4	generate/STIM_007.jpg	99
2765.949	1.721	1720.7	generate	Run4	generate/STIM_008.jpg	100
2770.744	1.996	1996.3	generate	Run4	generate/STIM_008.jpg	100
2776.31	1.562	1562.2	generate	Run4	generate/STIM_008.jpg	99
2780.112	1.287	1286.9	generate	Run4	generate/STIM_008.jpg	99
2784.447	2.18	2179.8	generate	Run4	generate/STIM_008.jpg	100
2790.181	1.907	1907.2	generate	Run4	generate/STIM_009.jpg	100
2795.229	1.901	1900.7	generate	Run4	generate/STIM_009.jpg	100
2800.126	1.462	1461.8	generate	Run4	generate/STIM_009.jpg	99
2803.437	1.59	1590.4	generate	Run4	generate/STIM_009.jpg	99
2807.342	1.578	1578.5	generate	Run4	generate/STIM_009.jpg	99
2811.499	1.475	1474.8	generate	Run4	generate/STIM_010.jpg	100
2816.107	2.315	2314.7	generate	Run4	generate/STIM_010.jpg	99
2821.02	1.514	1513.5	generate	Run4	generate/STIM_010.jpg	99
2826.212	2.015	2014.7	generate	Run4	generate/STIM_010.jpg	99
2831.0	1.703	1703.0	generate	Run4	generate/STIM_010.jpg	99
2836.355	1.639	1639.2	generate	Run4	generate/STIM_011.jpg	99
2840.457	1.664	1663.6	generate	Run4	generate/STIM_011.jpg	99
2845.273	1.604	1604.0	generate	Run4	generate/STIM_011.jpg	100
2850.193	1.731	1730.9	generate	Run4	generate/STIM_011.jpg	99
2854.352	1.495	1494.9	generate	Run4	generate/STIM_011.jpg	99
2859.31	0.97	969.6	generate	Run4	generate/STIM_012.jpg	100
2863.183	1.369	1368.9	generate	Run4	generate/STIM_012.jpg	100
2867.788	2.008	2008.0	generate	Run4	generate/STIM_012.jpg	100
2872.465	1.715	1714.8	generate	Run4	generate/STIM_012.jpg	100
2876.323	1.943	1942.6	generate	Run4	generate/STIM_012.jpg	100
2880.133	1.606	1606.3	generate	Run4	generate/STIM_013.jpg	99
2885.5	2.094	2093.5	generate	Run4	generate/STIM_013.jpg	99
2889.596	0.964	963.8	generate	Run4	generate/STIM_013.jpg	100
2892.755	2.1	2099.9	generate	Run4	generate/STIM_013.jpg	99
2898.171	2.08	2079.8	generate	Run4	generate/STIM_013.jpg	99
2902.83	1.523	1523.0	generate	Run4	generate/STIM_014.jpg	99
2908.034	2.071	2071.4	generate	Run4	generate/STIM_014.jpg	99
2913.51	1.097	1097.3	generate	Run4	generate/STIM_014.jpg	99
2917.839	2.37	2369.6	generate	Run4	generate/STIM_014.jpg	99
2922.686	1.095	1095.0	generate	Run4	generate/STIM_014.jpg	100
2926.668	2.121	2121.0	generate	Run4	generate/STIM_015.jpg	100
2931.735	1.35	1349.5	generate	Run4	generate/STIM_015.jpg	100
2935.86	1.938	1937.7	generate	Run4	generate/STIM_015.jpg	100
2940.036	1.67	1670.3	generate	Run4	generate/STIM_015.jpg	99
2944.613	2.098	2098.5	generate	Run4	generate/STIM_015.jpg	100
2949.724	2.278	2278.1	generate	Run4	generate/STIM_016.jpg	99
2955.253	1.273	1272.8	generate	Run4	generate/STIM_016.jpg	99
2959.744	0.981	980.9	generate	Run4	generate/STIM_016.jpg	99
2964.168	2.232	2231.9	generate	Run4	generate/STIM_016.jpg	99
2970.095	1.302	1302.3	generate	Run4	generate/STIM_016.jpg	99
2975.038	1.413	1412.9	generate	Run4	generate/STIM_017.jpg	99
2980.116	1.047	1046.7	generate	Run4	generate/STIM_017.jpg	100
2984.451	1.943	1943.3	generate	Run4	generate/STIM_017.jpg	99
2989.573	2.297	2297.4	generate	Run4	generate/STIM_017.jpg	100
2993.78	2.082	2082.3	generate	Run4	generate/STIM_017.jpg	99
2998.348	2.391	2391.1	generate	Run4	generate/STIM_018.jpg	100
3004.179	1.316	1316.2	generate	Run4	generate/STIM_018.jpg	99
3008.131	2.194	2194.2	generate	Run4	generate/STIM_018.jpg	100
3012.901	1.32	1319.8	generate	Run4	generate/STIM_018.jpg	99
3017.674	2.309	2309.1	generate	Run4	generate/STIM_018.jpg	99
3023.254	1.545	1545.2	generate	Run4	generate/STIM_019.jpg	100
3028.124	1.92	1919.5	generate	Run4	generate/STIM_019.jpg	100
3033.359	1.211	1211.1	generate	Run4	generate/STIM_019.jpg	100
3037.422	2.067	2067.4	generate	Run4	generate/STIM_019.jpg	99
3043.083	1.805	1804.6	generate	Run4	generate/STIM_019.jpg	100
3047.048	1.224	1224.2	generate	Run4	generate/STIM_020.jpg	100
3051.306	1.217	1216.7	generate	Run4	generate/STIM_020.jpg	100
3055.35	1.629	1629.4	generate	Run4	generate/STIM_020.jpg	100
3059.85	1.424	1424.1	generate	Run4	generate/STIM_020.jpg	100
3064.619	1.841	1840.9	generate	Run4	generate/STIM_020.jpg	100
3068.404	1.269	1269.0	generate	Run4	generate/STIM_021.jpg	99
3073.297	1.945	1945.2	generate	Run4	generate/STIM_021.jpg	99
3077.497	2.369	2368.7	generate	Run4	generate/STIM_021.jpg	99
3082.486	1.325	1325.4	generate	Run4	generate/STIM_021.jpg	99
3086.084	2.047	2047.5	generate	Run4	generate/STIM_021.jpg	100
3090.412	1.019	1019.3	generate	Run4	generate/STIM_022.jpg	100
3094.562	1.428	1428.4	generate	Run4	generate/STIM_022.jpg	100
3099.751	1.528	1528.2	generate	Run4	generate/STIM_022.jpg	100
3103.464	1.736	1735.9	generate	Run4	generate/STIM_022.jpg	99
3107.731	2.319	2318.6	generate	Run4	generate/STIM_022.jpg	100
3112.264	2.154	2153.6	generate	Run4	generate/STIM_023.jpg	100
3116.562	1.47	1469.8	generate	Run4	generate/STIM_023.jpg	99
3121.562	0.979	979.2	generate	Run4	generate/STIM_023.jpg	100
3124.766	1.901	1901.4	generate	Run4	generate/STIM_023.jpg	100
3129.573	1.338	1337.5	generate	Run4	generate/STIM_023.jpg	99
3134.094	0.972	971.8	generate	Run4	generate/STIM_024.jpg	100
3138.935	2.349	2349.2	generate	Run4	generate/STIM_024.jpg	100
3143.244	1.663	1663.3	generate	Run4	generate/STIM_024.jpg	100
3146.898	1.42	1420.5	generate	Run4	generate/STIM_024.jpg	99
3151.589	2.296	2295.7	generate	Run4	generate/STIM_024.jpg	99
3157.029	0.848	847.6	repeat	Run4	repeat/STIM_000.jpg	100
3159.784	0.696	695.9	repeat	Run4	repeat/STIM_000.jpg	99
3163.006	1.084	1083.5	repeat	Run4	repeat/STIM_000.jpg	100
3167.668	1.12	1119.8	repeat	Run4	repeat/STIM_000.jpg	99
3171.481	0.908	908.2	repeat	Run4	repeat/STIM_000.jpg	99
3175.007	0.578	578.3	repeat	Run4	repeat/STIM_001.jpg	100
3178.638	1.098	1098.1	repeat	Run4	repeat/STIM_001.jpg	100
3183.1	0.619	618.6	repeat	Run4	repeat/STIM_001.jpg	99
3186.249	1.062	1062.1	repeat	Run4	repeat/STIM_001.jpg	99
3190.626	0.742	742.4	repeat	Run4	repeat/STIM_001.jpg	100
3195.112	0.658	657.6	repeat	Run4	repeat/STIM_002.jpg	99
3199.193	0.742	741.7	repeat	Run4	repeat/STIM_002.jpg	100
3203.702	0.591	591.4	repeat	Run4	repeat/STIM_002.jpg	99
3206.419	1.001	1001.2	repeat	Run4	repeat/STIM_002.jpg	99
3210.561	0.759	758.7	repeat	Run4	repeat/STIM_002.jpg	100
3214.68	0.688	687.8	repeat	Run4	repeat/STIM_003.jpg	99
3218.459	0.698	698.3	repeat	Run4	repeat/STIM_003.jpg	99
3222.116	0.844	844.1	repeat	Run4	repeat/STIM_003.jpg	100
3226.509	1.074	1074.2	repeat	Run4	repeat/STIM_003.jpg	99
3229.65	0.697	697.2	repeat	Run4	repeat/STIM_003.jpg	99
3232.694	0.683	683.4	repeat	Run4	repeat/STIM_004.jpg	100
3235.552	0.66	660.4	repeat	Run4	repeat/STIM_004.jpg	100
3238.907	0.677	677.0	repeat	Run4	repeat/STIM_004.jpg	100
3243.169	0.837	837.2	repeat	Run4	repeat/STIM_004.jpg	100
3247.791	0.645	645.1	repeat	Run4	repeat/STIM_004.jpg	99
3250.955	0.753	753.2	repeat	Run4	repeat/STIM_005.jpg	100
3255.286	0.761	761.3	repeat	Run4	repeat/STIM_005.jpg	99
3257.967	0.988	988.5	repeat	Run4	repeat/STIM_005.jpg	99
3260.895	0.921	920.7	repeat	Run4	repeat/STIM_005.jpg	100
3265.595	0.641	641.2	repeat	Run4	repeat/STIM_005.jpg	100
3269.604	0.802	802.1	repeat	Run4	repeat/STIM_006.jpg	100
3272.488	0.852	851.9	repeat	Run4	repeat/STIM_006.jpg	100
3277.055	0.746	746.1	repeat	Run4	repeat/STIM_006.jpg	99
3280.763	1.069	1068.8	repeat	Run4	repeat/STIM_006.jpg	100
3285.337	0.934	933.7	repeat	Run4	repeat/STIM_006.jpg	100
3289.818	1.092	1092.4	repeat	Run4	repeat/STIM_007.jpg	100
3293.488	0.847	846.8	repeat	Run4	repeat/STIM_007.jpg	100
3296.87	0.869	869.0	repeat	Run4	repeat/STIM_007.jpg	99
3300.378	0.803	802.7	repeat	Run4	repeat/STIM_007.jpg	99
3303.331	0.949	948.9	repeat	Run4	repeat/STIM_007.jpg	99
3306.709	0.789	789.3	repeat	Run4	repeat/STIM_008.jpg	99
3311.292	0.925	924.6	repeat	Run4	repeat/STIM_008.jpg	99
3314.471	0.969	969.1	repeat	Run4	repeat/STIM_008.jpg	100
3317.794	0.989	988.7	repeat	Run4	repeat/STIM_008.jpg	100
3321.267	0.737	737.2	repeat	Run4	repeat/STIM_008.jpg	100
3325.879	0.648	648.3	repeat	Run4	repeat/STIM_009.jpg	99
3330.136	1.108	1107.9	repeat	Run4	repeat/STIM_009.jpg	99
3334.913	0.659	658.9	repeat	Run4	repeat/STIM_009.jpg	99
3338.436	1.024	1023.6	repeat	Run4	repeat/STIM_009.jpg	100
3342.125	1.109	1109.0	repeat	Run4	repeat/STIM_009.jpg	99
3346.763	1.095	1095.4	repeat	Run4	repeat/STIM_010.jpg	99
3351.18	0.589	588.6	repeat	Run4	repeat/STIM_010.jpg	99
3354.83	0.575	575.4	repeat	Run4	repeat/STIM_010.jpg	99
3357.738	0.948	948.5	repeat	Run4	repeat/STIM_010.jpg	99
3362.27	0.725	725.2	repeat	Run4	repeat/STIM_010.jpg	99
3365.128	0.797	796.6	repeat	Run4	repeat/STIM_011.jpg	99
3368.205	1.032	1031.7	repeat	Run4	repeat/STIM_011.jpg	100
3372.407	0.867	866.8	repeat	Run4	repeat/STIM_011.jpg	99
3376.432	0.787	787.4	repeat	Run4	repeat/STIM_011.jpg	99
3380.627	1.017	1017.1	repeat	Run4	repeat/STIM_011.jpg	100
3383.631	0.87	869.7	repeat	Run4	repeat/STIM_012.jpg	99
3388.107	1.015	1014.9	repeat	Run4	repeat/STIM_012.jpg	100
3392.813	1.061	1061.3	repeat	Run4	repeat/STIM_012.jpg	100
3397.01	0.792	792.2	repeat	Run4	repeat/STIM_012.jpg	99
3400.24	0.667	666.9	repeat	Run4	repeat/STIM_012.jpg	100
3404.519	1.024	1023.9	repeat	Run4	repeat/STIM_013.jpg	100
3408.575	0.938	938.3	repeat	Run4	repeat/STIM_013.jpg	100
3413.35	1.037	1037.0	repeat	Run4	repeat/STIM_013.jpg	99
3417.313	0.706	705.9	repeat	Run4	repeat/STIM_013.jpg	99
3421.928	0.9	900.0	repeat	Run4	repeat/STIM_013.jpg	99
3424.783	0.991	990.7	repeat	Run4	repeat/STIM_014.jpg	99
3428.702	1.027	1026.9	repeat	Run4	repeat/STIM_014.jpg	100
3432.448	0.804	803.8	repeat	Run4	repeat/STIM_014.jpg	99
3436.372	0.773	772.8	repeat	Run4	repeat/STIM_014.jpg	99
3440.548	0.91	910.0	repeat	Run4	repeat/STIM_014.jpg	99
