onset	duration	accuracy_binary	trial_type	learning_stage	stimulus
0.0	1.809	1	generate	Run1	generate/STIM_000.jpg
5.168	3.052	1	generate	Run1	generate/STIM_000.jpg
11.306	1.364	1	generate	Run1	generate/STIM_000.jpg
15.221	2.862	1	generate	Run1	generate/STIM_000.jpg
21.319	2.683	1	generate	Run1	generate/STIM_000.jpg
26.559	3.182	0	generate	Run1	generate/STIM_001.jpg
32.37	2.273	0	generate	Run1	generate/STIM_001.jpg
38.343	1.603	1	generate	Run1	generate/STIM_001.jpg
43.173	2.343	1	generate	Run1	generate/STIM_001.jpg
48.605	1.2	1	generate	Run1	generate/STIM_001.jpg
51.718	2.235	1	generate	Run1	generate/STIM_002.jpg
57.56	1.492	1	generate	Run1	generate/STIM_002.jpg
61.029	2.172	1	generate	Run1	generate/STIM_002.jpg
65.958	1.609	1	generate	Run1	generate/STIM_002.jpg
70.21	2.163	1	generate	Run1	generate/STIM_002.jpg
74.416	2.121	0	generate	Run1	generate/STIM_003.jpg
79.372	2.785	0	generate	Run1	generate/STIM_003.jpg
84.802	2.314	1	generate	Run1	generate/STIM_003.jpg
90.018	1.548	1	generate	Run1	generate/STIM_003.jpg
93.452	2.096	1	generate	Run1	generate/STIM_003.jpg
98.154	2.077	0	generate	Run1	generate/STIM_004.jpg
103.225	1.771	1	generate	Run1	generate/STIM_004.jpg
107.618	1.285	1	generate	Run1	generate/STIM_004.jpg
112.257	1.286	1	generate	Run1	generate/STIM_004.jpg
115.974	2.687	1	generate	Run1	generate/STIM_004.jpg
122.129	2.608	0	generate	Run1	generate/STIM_005.jpg
127.807	1.563	1	generate	Run1	generate/STIM_005.jpg
131.854	1.736	1	generate	Run1	generate/STIM_005.jpg
136.28	1.625	1	generate	Run1	generate/STIM_005.jpg
140.233	2.062	0	generate	Run1	generate/STIM_005.jpg
145.274	2.646	0	generate	Run1	generate/STIM_006.jpg
150.25	1.628	1	generate	Run1	generate/STIM_006.jpg
154.823	1.359	1	generate	Run1	generate/STIM_006.jpg
158.684	2.874	1	generate	Run1	generate/STIM_006.jpg
164.593	1.901	1	generate	Run1	generate/STIM_006.jpg
169.743	2.5	1	generate	Run1	generate/STIM_007.jpg
174.014	2.481	1	generate	Run1	generate/STIM_007.jpg
180.164	2.504	0	generate	Run1	generate/STIM_007.jpg
184.778	1.247	1	generate	Run1	generate/STIM_007.jpg
188.481	1.179	0	generate	Run1	generate/STIM_007.jpg
192.557	2.34	0	generate	Run1	generate/STIM_008.jpg
198.368	2.249	0	generate	Run1	generate/STIM_008.jpg
204.236	2.348	1	generate	Run1	generate/STIM_008.jpg
208.647	1.432	1	generate	Run1	generate/STIM_008.jpg
212.91	2.286	1	generate	Run1	generate/STIM_008.jpg
217.562	2.437	1	generate	Run1	generate/STIM_009.jpg
222.903	3.094	1	generate	Run1	generate/STIM_009.jpg
229.514	1.725	1	generate	Run1	generate/STIM_009.jpg
234.048	1.305	1	generate	Run1	generate/STIM_009.jpg
237.857	1.434	0	generate	Run1	generate/STIM_009.jpg
241.829	1.937	0	generate	Run1	generate/STIM_010.jpg
246.532	1.628	1	generate	Run1	generate/STIM_010.jpg
251.44	1.582	1	generate	Run1	generate/STIM_010.jpg
256.057	1.891	0	generate	Run1	generate/STIM_010.jpg
259.832	2.136	1	generate	Run1	generate/STIM_010.jpg
264.597	1.786	1	generate	Run1	generate/STIM_011.jpg
268.384	2.352	1	generate	Run1	generate/STIM_011.jpg
272.914	1.852	1	generate	Run1	generate/STIM_011.jpg
277.128	2.895	1	generate	Run1	generate/STIM_011.jpg
283.503	2.245	1	generate	Run1	generate/STIM_011.jpg
287.889	1.934	1	generate	Run1	generate/STIM_012.jpg
291.808	1.752	1	generate	Run1	generate/STIM_012.jpg
296.372	2.816	0	generate	Run1	generate/STIM_012.jpg
302.415	2.29	1	generate	Run1	generate/STIM_012.jpg
307.207	1.596	1	generate	Run1	generate/STIM_012.jpg
310.923	3.227	0	generate	Run1	generate/STIM_013.jpg
316.279	1.814	1	generate	Run1	generate/STIM_013.jpg
321.224	2.223	1	generate	Run1	generate/STIM_013.jpg
326.914	1.412	1	generate	Run1	generate/STIM_013.jpg
330.666	1.714	1	generate	Run1	generate/STIM_013.jpg
335.658	1.552	1	generate	Run1	generate/STIM_014.jpg
340.863	2.715	1	generate	Run1	generate/STIM_014.jpg
346.482	2.397	0	generate	Run1	generate/STIM_014.jpg
352.481	2.88	1	generate	Run1	generate/STIM_014.jpg
358.912	1.834	1	generate	Run1	generate/STIM_014.jpg
364.371	3.094	1	generate	Run1	generate/STIM_015.jpg
369.125	3.204	1	generate	Run1	generate/STIM_015.jpg
374.455	2.411	1	generate	Run1	generate/STIM_015.jpg
379.02	1.368	1	generate	Run1	generate/STIM_015.jpg
383.744	1.144	0	generate	Run1	generate/STIM_015.jpg
388.512	3.041	0	generate	Run1	generate/STIM_016.jpg
394.463	2.272	1	generate	Run1	generate/STIM_016.jpg
398.819	2.229	1	generate	Run1	generate/STIM_016.jpg
402.846	1.646	1	generate	Run1	generate/STIM_016.jpg
408.012	2.446	1	generate	Run1	generate/STIM_016.jpg
413.446	2.339	0	generate	Run1	generate/STIM_017.jpg
417.981	2.171	1	generate	Run1	generate/STIM_017.jpg
422.732	1.36	1	generate	Run1	generate/STIM_017.jpg
427.378	1.197	1	generate	Run1	generate/STIM_017.jpg
431.146	1.237	1	generate	Run1	generate/STIM_017.jpg
434.364	2.576	1	generate	Run1	generate/STIM_018.jpg
438.793	1.824	1	generate	Run1	generate/STIM_018.jpg
442.637	1.86	1	generate	Run1	generate/STIM_018.jpg
447.396	2.121	1	generate	Run1	generate/STIM_018.jpg
451.261	2.323	1	generate	Run1	generate/STIM_018.jpg
456.343	2.356	1	generate	Run1	generate/STIM_019.jpg
461.987	1.797	0	generate	Run1	generate/STIM_019.jpg
466.785	2.901	0	generate	Run1	generate/STIM_019.jpg
472.147	2.269	1	generate	Run1	generate/STIM_019.jpg
477.385	1.253	1	generate	Run1	generate/STIM_019.jpg
480.754	3.364	1	generate	Run1	generate/STIM_020.jpg
486.482	2.919	1	generate	Run1	generate/STIM_020.jpg
492.201	1.845	1	generate	Run1	generate/STIM_020.jpg
497.745	1.555	1	generate	Run1	generate/STIM_020.jpg
501.755	1.359	1	generate	Run1	generate/STIM_020.jpg
505.142	2.917	1	generate	Run1	generate/STIM_021.jpg
510.425	2.3	0	generate	Run1	generate/STIM_021.jpg
515.296	2.901	0	generate	Run1	generate/STIM_021.jpg
521.323	2.179	1	generate	Run1	generate/STIM_021.jpg
526.289	1.39	1	generate	Run1	generate/STIM_021.jpg
531.052	1.566	0	generate	Run1	generate/STIM_022.jpg
535.076	1.676	1	generate	Run1	generate/STIM_022.jpg
539.9	1.666	0	generate	Run1	generate/STIM_022.jpg
544.098	1.903	0	generate	Run1	generate/STIM_022.jpg
549.571	2.617	1	generate	Run1	generate/STIM_022.jpg
555.534	1.822	1	generate	Run1	generate/STIM_023.jpg
560.312	2.739	0	generate	Run1	generate/STIM_023.jpg
566.581	1.506	1	generate	Run1	generate/STIM_023.jpg
571.344	2.2	1	generate	Run1	generate/STIM_023.jpg
577.13	2.6	1	generate	Run1	generate/STIM_023.jpg
582.007	2.591	1	generate	Run1	generate/STIM_024.jpg
587.298	2.888	1	generate	Run1	generate/STIM_024.jpg
592.089	3.073	1	generate	Run1	generate/STIM_024.jpg
598.466	2.473	1	generate	Run1	generate/STIM_024.jpg
603.433	2.1	0	generate	Run1	generate/STIM_024.jpg
609.185	1.135	1	repeat	Run1	repeat/STIM_000.jpg
612.258	0.908	1	repeat	Run1	repeat/STIM_000.jpg
615.369	1.11	1	repeat	Run1	repeat/STIM_000.jpg
620.016	0.888	1	repeat	Run1	repeat/STIM_000.jpg
622.842	1.004	1	repeat	Run1	repeat/STIM_000.jpg
626.428	0.985	1	repeat	Run1	repeat/STIM_001.jpg
629.816	1.07	1	repeat	Run1	repeat/STIM_001.jpg
634.506	0.923	1	repeat	Run1	repeat/STIM_001.jpg
638.439	0.593	1	repeat	Run1	repeat/STIM_001.jpg
642.216	0.577	1	repeat	Run1	repeat/STIM_001.jpg
646.087	1.105	1	repeat	Run1	repeat/STIM_002.jpg
650.27	0.931	1	repeat	Run1	repeat/STIM_002.jpg
654.601	1.056	1	repeat	Run1	repeat/STIM_002.jpg
657.845	0.98	1	repeat	Run1	repeat/STIM_002.jpg
660.904	0.935	1	repeat	Run1	repeat/STIM_002.jpg
665.43	1.124	1	repeat	Run1	repeat/STIM_003.jpg
669.259	0.811	1	repeat	Run1	repeat/STIM_003.jpg
673.323	0.803	1	repeat	Run1	repeat/STIM_003.jpg
677.647	0.974	1	repeat	Run1	repeat/STIM_003.jpg
682.073	1.082	1	repeat	Run1	repeat/STIM_003.jpg
685.117	0.812	1	repeat	Run1	repeat/STIM_004.jpg
688.52	1.08	1	repeat	Run1	repeat/STIM_004.jpg
691.478	0.979	1	repeat	Run1	repeat/STIM_004.jpg
695.702	0.675	1	repeat	Run1	repeat/STIM_004.jpg
699.106	1.042	1	repeat	Run1	repeat/STIM_004.jpg
703.939	0.902	1	repeat	Run1	repeat/STIM_005.jpg
707.706	0.901	1	repeat	Run1	repeat/STIM_005.jpg
711.158	0.748	1	repeat	Run1	repeat/STIM_005.jpg
714.923	0.895	1	repeat	Run1	repeat/STIM_005.jpg
718.757	0.976	1	repeat	Run1	repeat/STIM_005.jpg
721.728	0.829	1	repeat	Run1	repeat/STIM_006.jpg
724.99	0.829	1	repeat	Run1	repeat/STIM_006.jpg
728.172	1.138	1	repeat	Run1	repeat/STIM_006.jpg
731.952	0.829	1	repeat	Run1	repeat/STIM_006.jpg
735.411	1.139	1	repeat	Run1	repeat/STIM_006.jpg
739.953	0.892	1	repeat	Run1	repeat/STIM_007.jpg
743.043	1.061	1	repeat	Run1	repeat/STIM_007.jpg
747.422	0.865	1	repeat	Run1	repeat/STIM_007.jpg
751.629	0.991	1	repeat	Run1	repeat/STIM_007.jpg
756.416	0.64	1	repeat	Run1	repeat/STIM_007.jpg
759.354	0.916	1	repeat	Run1	repeat/STIM_008.jpg
764.068	0.88	1	repeat	Run1	repeat/STIM_008.jpg
768.648	0.771	1	repeat	Run1	repeat/STIM_008.jpg
771.364	1.051	1	repeat	Run1	repeat/STIM_008.jpg
774.777	0.864	1	repeat	Run1	repeat/STIM_008.jpg
778.119	0.611	1	repeat	Run1	repeat/STIM_009.jpg
781.498	0.9	1	repeat	Run1	repeat/STIM_009.jpg
784.654	0.902	1	repeat	Run1	repeat/STIM_009.jpg
788.192	0.811	1	repeat	Run1	repeat/STIM_009.jpg
792.172	0.64	1	repeat	Run1	repeat/STIM_009.jpg
795.056	0.874	1	repeat	Run1	repeat/STIM_010.jpg
798.986	0.589	1	repeat	Run1	repeat/STIM_010.jpg
802.819	1.057	1	repeat	Run1	repeat/STIM_010.jpg
805.919	0.751	1	repeat	Run1	repeat/STIM_010.jpg
809.378	1.034	1	repeat	Run1	repeat/STIM_010.jpg
814.109	0.914	1	repeat	Run1	repeat/STIM_011.jpg
817.635	0.962	1	repeat	Run1	repeat/STIM_011.jpg
820.694	0.835	1	repeat	Run1	repeat/STIM_011.jpg
825.248	0.782	1	repeat	Run1	repeat/STIM_011.jpg
829.366	0.661	1	repeat	Run1	repeat/STIM_011.jpg
832.904	0.587	1	repeat	Run1	repeat/STIM_012.jpg
837.322	0.914	1	repeat	Run1	repeat/STIM_012.jpg
841.705	0.716	1	repeat	Run1	repeat/STIM_012.jpg
844.809	0.896	1	repeat	Run1	repeat/STIM_012.jpg
847.869	1.109	1	repeat	Run1	repeat/STIM_012.jpg
852.026	0.642	1	repeat	Run1	repeat/STIM_013.jpg
854.949	0.905	1	repeat	Run1	repeat/STIM_013.jpg
859.732	0.95	1	repeat	Run1	repeat/STIM_013.jpg
863.262	0.893	1	repeat	Run1	repeat/STIM_013.jpg
867.871	0.623	1	repeat	Run1	repeat/STIM_013.jpg
871.69	0.782	1	repeat	Run1	repeat/STIM_014.jpg
874.468	0.81	1	repeat	Run1	repeat/STIM_014.jpg
878.037	0.589	1	repeat	Run1	repeat/STIM_014.jpg
881.654	1.001	1	repeat	Run1	repeat/STIM_014.jpg
885.782	0.826	1	repeat	Run1	repeat/STIM_014.jpg
889.956	2.044	1	generate	Run2	generate/STIM_000.jpg
894.975	2.637	0	generate	Run2	generate/STIM_000.jpg
899.994	1.035	1	generate	Run2	generate/STIM_000.jpg
902.986	1.915	1	generate	Run2	generate/STIM_000.jpg
908.058	1.984	1	generate	Run2	generate/STIM_000.jpg
912.954	2.765	1	generate	Run2	generate/STIM_001.jpg
918.764	2.538	0	generate	Run2	generate/STIM_001.jpg
923.238	2.482	0	generate	Run2	generate/STIM_001.jpg
927.54	2.053	0	generate	Run2	generate/STIM_001.jpg
932.1	1.075	1	generate	Run2	generate/STIM_001.jpg
935.304	2.305	1	generate	Run2	generate/STIM_002.jpg
939.763	2.491	1	generate	Run2	generate/STIM_002.jpg
945.181	2.157	1	generate	Run2	generate/STIM_002.jpg
950.76	1.545	1	generate	Run2	generate/STIM_002.jpg
954.787	2.156	1	generate	Run2	generate/STIM_002.jpg
958.769	2.251	0	generate	Run2	generate/STIM_003.jpg
963.081	2.648	1	generate	Run2	generate/STIM_003.jpg
968.877	1.093	1	generate	Run2	generate/STIM_003.jpg
972.86	1.301	1	generate	Run2	generate/STIM_003.jpg
977.208	2.218	1	generate	Run2	generate/STIM_003.jpg
982.398	1.425	1	generate	Run2	generate/STIM_004.jpg
986.805	2.494	1	generate	Run2	generate/STIM_004.jpg
992.909	2.453	1	generate	Run2	generate/STIM_004.jpg
997.437	2.339	1	generate	Run2	generate/STIM_004.jpg
1001.758	1.839	1	generate	Run2	generate/STIM_004.jpg
1005.562	2.824	1	generate	Run2	generate/STIM_005.jpg
1011.524	1.658	1	generate	Run2	generate/STIM_005.jpg
1016.791	1.392	1	generate	Run2	generate/STIM_005.jpg
1020.12	1.049	1	generate	Run2	generate/STIM_005.jpg
1023.361	1.078	0	generate	Run2	generate/STIM_005.jpg
1028.121	2.318	1	generate	Run2	generate/STIM_006.jpg
1033.259	1.27	0	generate	Run2	generate/STIM_006.jpg
1037.692	1.212	1	generate	Run2	generate/STIM_006.jpg
1041.581	1.044	1	generate	Run2	generate/STIM_006.jpg
1045.613	1.696	1	generate	Run2	generate/STIM_006.jpg
1050.744	1.198	1	generate	Run2	generate/STIM_007.jpg
1054.24	1.698	1	generate	Run2	generate/STIM_007.jpg
1058.014	1.477	1	generate	Run2	generate/STIM_007.jpg
1063.144	1.14	1	generate	Run2	generate/STIM_007.jpg
1067.826	2.369	1	generate	Run2	generate/STIM_007.jpg
1072.12	2.852	1	generate	Run2	generate/STIM_008.jpg
1077.88	1.426	1	generate	Run2	generate/STIM_008.jpg
1082.317	1.382	1	generate	Run2	generate/STIM_008.jpg
1086.737	1.243	1	generate	Run2	generate/STIM_008.jpg
1090.369	1.23	1	generate	Run2	generate/STIM_008.jpg
1094.467	2.663	1	generate	Run2	generate/STIM_009.jpg
1099.336	1.948	1	generate	Run2	generate/STIM_009.jpg
1103.492	1.859	1	generate	Run2	generate/STIM_009.jpg
1108.686	1.688	1	generate	Run2	generate/STIM_009.jpg
1113.946	1.92	1	generate	Run2	generate/STIM_009.jpg
1117.681	2.382	0	generate	Run2	generate/STIM_010.jpg
1123.764	1.254	1	generate	Run2	generate/STIM_010.jpg
1127.945	1.371	1	generate	Run2	generate/STIM_010.jpg
1132.52	1.5	1	generate	Run2	generate/STIM_010.jpg
1136.323	1.605	1	generate	Run2	generate/STIM_010.jpg
1139.857	2.576	1	generate	Run2	generate/STIM_011.jpg
1144.399	1.53	1	generate	Run2	generate/STIM_011.jpg
1149.674	1.086	1	generate	Run2	generate/STIM_011.jpg
1153.537	1.317	1	generate	Run2	generate/STIM_011.jpg
1157.688	1.057	1	generate	Run2	generate/STIM_011.jpg
1162.581	1.406	1	generate	Run2	generate/STIM_012.jpg
1166.745	1.18	0	generate	Run2	generate/STIM_012.jpg
1170.837	2.502	1	generate	Run2	generate/STIM_012.jpg
1176.321	1.204	1	generate	Run2	generate/STIM_012.jpg
1181.321	1.162	1	generate	Run2	generate/STIM_012.jpg
1184.364	2.502	1	generate	Run2	generate/STIM_013.jpg
1190.079	1.358	1	generate	Run2	generate/STIM_013.jpg
1194.212	1.31	0	generate	Run2	generate/STIM_013.jpg
1199.321	1.904	1	generate	Run2	generate/STIM_013.jpg
1204.499	1.249	1	generate	Run2	generate/STIM_013.jpg
1209.205	1.912	1	generate	Run2	generate/STIM_014.jpg
1214.768	1.238	1	generate	Run2	generate/STIM_014.jpg
1218.628	2.517	1	generate	Run2	generate/STIM_014.jpg
1223.703	1.808	1	generate	Run2	generate/STIM_014.jpg
1229.276	1.533	1	generate	Run2	generate/STIM_014.jpg
1233.67	2.614	1	generate	Run2	generate/STIM_015.jpg
1238.433	1.546	0	generate	Run2	generate/STIM_015.jpg
1242.865	1.336	1	generate	Run2	generate/STIM_015.jpg
1247.047	2.173	1	generate	Run2	generate/STIM_015.jpg
1252.819	2.089	1	generate	Run2	generate/STIM_015.jpg
1256.869	1.937	1	generate	Run2	generate/STIM_016.jpg
1262.22	2.138	1	generate	Run2	generate/STIM_016.jpg
1266.863	2.189	1	generate	Run2	generate/STIM_016.jpg
1272.382	2.152	1	generate	Run2	generate/STIM_016.jpg
1277.916	2.278	0	generate	Run2	generate/STIM_016.jpg
1282.644	2.051	1	generate	Run2	generate/STIM_017.jpg
1286.716	1.884	1	generate	Run2	generate/STIM_017.jpg
1291.187	1.558	1	generate	Run2	generate/STIM_017.jpg
1295.367	1.893	1	generate	Run2	generate/STIM_017.jpg
1300.035	1.932	1	generate	Run2	generate/STIM_017.jpg
1305.327	1.475	0	generate	Run2	generate/STIM_018.jpg
1309.726	1.627	1	generate	Run2	generate/STIM_018.jpg
1314.437	1.774	1	generate	Run2	generate/STIM_018.jpg
1319.545	2.305	1	generate	Run2	generate/STIM_018.jpg
1324.227	1.04	1	generate	Run2	generate/STIM_018.jpg
1328.14	1.685	1	generate	Run2	generate/STIM_019.jpg
1332.996	2.237	1	generate	Run2	generate/STIM_019.jpg
1336.985	1.662	1	generate	Run2	generate/STIM_019.jpg
1340.583	1.061	1	generate	Run2	generate/STIM_019.jpg
1345.248	1.794	0	generate	Run2	generate/STIM_019.jpg
1348.898	1.328	1	generate	Run2	generate/STIM_020.jpg
1353.56	2.136	1	generate	Run2	generate/STIM_020.jpg
1358.636	2.259	1	generate	Run2	generate/STIM_020.jpg
1364.041	1.274	1	generate	Run2	generate/STIM_020.jpg
1367.731	1.955	0	generate	Run2	generate/STIM_020.jpg
1371.581	2.132	1	generate	Run2	generate/STIM_021.jpg
1376.733	1.229	0	generate	Run2	generate/STIM_021.jpg
1380.769	1.652	1	generate	Run2	generate/STIM_021.jpg
1384.333	1.663	1	generate	Run2	generate/STIM_021.jpg
1388.595	2.139	1	generate	Run2	generate/STIM_021.jpg
1393.415	2.587	0	generate	Run2	generate/STIM_022.jpg
1398.869	2.714	1	generate	Run2	generate/STIM_022.jpg
1403.719	1.777	1	generate	Run2	generate/STIM_022.jpg
1408.803	0.967	0	generate	Run2	generate/STIM_022.jpg
1412.721	1.413	1	generate	Run2	generate/STIM_022.jpg
1417.643	1.413	1	generate	Run2	generate/STIM_023.jpg
1421.803	1.646	1	generate	Run2	generate/STIM_023.jpg
1427.011	1.047	1	generate	Run2	generate/STIM_023.jpg
1430.879	1.46	1	generate	Run2	generate/STIM_023.jpg
1435.519	1.194	1	generate	Run2	generate/STIM_023.jpg
1439.642	1.798	0	generate	Run2	generate/STIM_024.jpg
1443.353	2.655	1	generate	Run2	generate/STIM_024.jpg
1448.253	1.401	1	generate	Run2	generate/STIM_024.jpg
1452.942	1.752	1	generate	Run2	generate/STIM_024.jpg
1457.946	2.083	1	generate	Run2	generate/STIM_024.jpg
1462.604	0.873	1	repeat	Run2	repeat/STIM_000.jpg
1466.9	1.025	1	repeat	Run2	repeat/STIM_000.jpg
1471.312	0.815	1	repeat	Run2	repeat/STIM_000.jpg
1475.274	1.026	1	repeat	Run2	repeat/STIM_000.jpg
1479.861	0.9	1	repeat	Run2	repeat/STIM_000.jpg
1483.14	0.837	1	repeat	Run2	repeat/STIM_001.jpg
1486.566	0.82	1	repeat	Run2	repeat/STIM_001.jpg
1490.041	0.632	1	repeat	Run2	repeat/STIM_001.jpg
1493.921	0.917	1	repeat	Run2	repeat/STIM_001.jpg
1498.403	1.118	1	repeat	Run2	repeat/STIM_001.jpg
1502.52	0.954	1	repeat	Run2	repeat/STIM_002.jpg
1506.62	1.007	1	repeat	Run2	repeat/STIM_002.jpg
1509.777	0.681	1	repeat	Run2	repeat/STIM_002.jpg
1512.494	0.888	1	repeat	Run2	repeat/STIM_002.jpg
1516.571	0.597	1	repeat	Run2	repeat/STIM_002.jpg
1521.054	1.026	1	repeat	Run2	repeat/STIM_003.jpg
1525.031	0.602	1	repeat	Run2	repeat/STIM_003.jpg
1527.901	1.12	1	repeat	Run2	repeat/STIM_003.jpg
1532.487	1.108	1	repeat	Run2	repeat/STIM_003.jpg
1535.837	0.65	1	repeat	Run2	repeat/STIM_003.jpg
1539.415	1.127	1	repeat	Run2	repeat/STIM_004.jpg
1544.403	0.914	1	repeat	Run2	repeat/STIM_004.jpg
1548.243	0.936	0	repeat	Run2	repeat/STIM_004.jpg
1551.878	0.786	1	repeat	Run2	repeat/STIM_004.jpg
1555.288	0.829	1	repeat	Run2	repeat/STIM_004.jpg
1558.982	0.578	1	repeat	Run2	repeat/STIM_005.jpg
1563.437	0.792	1	repeat	Run2	repeat/STIM_005.jpg
1567.238	1.079	1	repeat	Run2	repeat/STIM_005.jpg
1571.934	1.034	1	repeat	Run2	repeat/STIM_005.jpg
1574.911	0.712	1	repeat	Run2	repeat/STIM_005.jpg
1577.657	0.915	1	repeat	Run2	repeat/STIM_006.jpg
1580.701	0.937	1	repeat	Run2	repeat/STIM_006.jpg
1583.576	0.885	1	repeat	Run2	repeat/STIM_006.jpg
1586.492	1.093	0	repeat	Run2	repeat/STIM_006.jpg
1589.699	1.127	1	repeat	Run2	repeat/STIM_006.jpg
1593.258	1.038	1	repeat	Run2	repeat/STIM_007.jpg
1597.55	1.081	1	repeat	Run2	repeat/STIM_007.jpg
1600.58	1.015	1	repeat	Run2	repeat/STIM_007.jpg
1604.409	1.13	0	repeat	Run2	repeat/STIM_007.jpg
1608.543	0.706	1	repeat	Run2	repeat/STIM_007.jpg
1612.137	1.078	1	repeat	Run2	repeat/STIM_008.jpg
1616.279	1.027	1	repeat	Run2	repeat/STIM_008.jpg
1619.553	1.124	1	repeat	Run2	repeat/STIM_008.jpg
1623.426	1.064	1	repeat	Run2	repeat/STIM_008.jpg
1627.359	0.814	1	repeat	Run2	repeat/STIM_008.jpg
1630.155	0.909	1	repeat	Run2	repeat/STIM_009.jpg
1633.166	0.725	1	repeat	Run2	repeat/STIM_009.jpg
1637.363	1.036	1	repeat	Run2	repeat/STIM_009.jpg
1640.291	1.117	1	repeat	Run2	repeat/STIM_009.jpg
1644.691	1.022	1	repeat	Run2	repeat/STIM_009.jpg
1647.653	0.978	1	repeat	Run2	repeat/STIM_010.jpg
1651.649	0.709	1	repeat	Run2	repeat/STIM_010.jpg
1655.068	1.022	1	repeat	Run2	repeat/STIM_010.jpg
1658.422	0.866	1	repeat	Run2	repeat/STIM_010.jpg
1661.919	1.101	1	repeat	Run2	repeat/STIM_010.jpg
1665.843	1.075	1	repeat	Run2	repeat/STIM_011.jpg
1669.748	0.979	1	repeat	Run2	repeat/STIM_011.jpg
1673.975	0.59	0	repeat	Run2	repeat/STIM_011.jpg
1678.324	0.588	1	repeat	Run2	repeat/STIM_011.jpg
1682.557	0.67	1	repeat	Run2	repeat/STIM_011.jpg
1686.806	0.953	1	repeat	Run2	repeat/STIM_012.jpg
1690.536	0.84	1	repeat	Run2	repeat/STIM_012.jpg
1694.545	0.822	1	repeat	Run2	repeat/STIM_012.jpg
1697.757	0.635	1	repeat	Run2	repeat/STIM_012.jpg
1700.917	0.607	1	repeat	Run2	repeat/STIM_012.jpg
1704.6	0.68	1	repeat	Run2	repeat/STIM_013.jpg
1708.644	0.572	1	repeat	Run2	repeat/STIM_013.jpg
1712.731	0.911	1	repeat	Run2	repeat/STIM_013.jpg
1716.499	0.823	1	repeat	Run2	repeat/STIM_013.jpg
1720.943	1.038	1	repeat	Run2	repeat/STIM_013.jpg
1724.347	0.77	1	repeat	Run2	repeat/STIM_014.jpg
1727.158	1.109	1	repeat	Run2	repeat/STIM_014.jpg
1731.006	0.77	1	repeat	Run2	repeat/STIM_014.jpg
1734.516	0.655	1	repeat	Run2	repeat/STIM_014.jpg
1738.709	1.029	1	repeat	Run2	repeat/STIM_014.jpg
1742.29	2.031	1	generate	Run3	generate/STIM_000.jpg
1747.481	1.561	1	generate	Run3	generate/STIM_000.jpg
1751.973	1.034	1	generate	Run3	generate/STIM_000.jpg
1756.128	1.664	1	generate	Run3	generate/STIM_000.jpg
1760.24	2.15	1	generate	Run3	generate/STIM_000.jpg
1764.509	1.414	1	generate	Run3	generate/STIM_001.jpg
1768.091	1.475	1	generate	Run3	generate/STIM_001.jpg
1772.18	1.339	1	generate	Run3	generate/STIM_001.jpg
1775.807	1.908	1	generate	Run3	generate/STIM_001.jpg
1779.69	1.43	1	generate	Run3	generate/STIM_001.jpg
1783.108	2.269	1	generate	Run3	generate/STIM_002.jpg
1787.565	1.834	1	generate	Run3	generate/STIM_002.jpg
1791.897	1.259	1	generate	Run3	generate/STIM_002.jpg
1795.037	1.59	0	generate	Run3	generate/STIM_002.jpg
1799.459	2.03	0	generate	Run3	generate/STIM_002.jpg
1803.981	1.939	1	generate	Run3	generate/STIM_003.jpg
1808.845	1.295	1	generate	Run3	generate/STIM_003.jpg
1812.69	1.671	1	generate	Run3	generate/STIM_003.jpg
1817.999	2.034	1	generate	Run3	generate/STIM_003.jpg
1822.056	1.741	1	generate	Run3	generate/STIM_003.jpg
1827.52	1.097	1	generate	Run3	generate/STIM_004.jpg
1831.957	1.677	1	generate	Run3	generate/STIM_004.jpg
1835.572	1.06	1	generate	Run3	generate/STIM_004.jpg
1840.166	2.362	1	generate	Run3	generate/STIM_004.jpg
1845.002	1.968	1	generate	Run3	generate/STIM_004.jpg
1849.375	1.12	1	generate	Run3	generate/STIM_005.jpg
1852.431	2.199	1	generate	Run3	generate/STIM_005.jpg
1856.819	1.386	0	generate	Run3	generate/STIM_005.jpg
1861.656	2.185	1	generate	Run3	generate/STIM_005.jpg
1866.62	2.183	1	generate	Run3	generate/STIM_005.jpg
1870.852	1.528	1	generate	Run3	generate/STIM_006.jpg
1874.883	1.577	1	generate	Run3	generate/STIM_006.jpg
1878.38	1.801	1	generate	Run3	generate/STIM_006.jpg
1883.308	1.807	1	generate	Run3	generate/STIM_006.jpg
1887.078	0.993	1	generate	Run3	generate/STIM_006.jpg
1889.956	1.917	1	generate	Run3	generate/STIM_007.jpg
1895.226	2.077	1	generate	Run3	generate/STIM_007.jpg
1900.554	1.188	1	generate	Run3	generate/STIM_007.jpg
1904.862	1.255	1	generate	Run3	generate/STIM_007.jpg
1908.384	1.365	1	generate	Run3	generate/STIM_007.jpg
1912.735	1.476	0	generate	Run3	generate/STIM_008.jpg
1917.552	1.293	1	generate	Run3	generate/STIM_008.jpg
1921.209	1.657	1	generate	Run3	generate/STIM_008.jpg
1925.61	1.048	1	generate	Run3	generate/STIM_008.jpg
1929.564	1.779	1	generate	Run3	generate/STIM_008.jpg
1934.209	1.279	1	generate	Run3	generate/STIM_009.jpg
1938.109	1.676	1	generate	Run3	generate/STIM_009.jpg
1941.669	1.664	1	generate	Run3	generate/STIM_009.jpg
1945.68	1.07	1	generate	Run3	generate/STIM_009.jpg
1948.698	1.783	1	generate	Run3	generate/STIM_009.jpg
1953.545	1.948	1	generate	Run3	generate/STIM_010.jpg
1957.747	1.548	1	generate	Run3	generate/STIM_010.jpg
1962.421	1.854	1	generate	Run3	generate/STIM_010.jpg
1966.815	1.315	1	generate	Run3	generate/STIM_010.jpg
1970.175	1.834	1	generate	Run3	generate/STIM_010.jpg
1975.735	1.133	1	generate	Run3	generate/STIM_011.jpg
1979.681	2.23	1	generate	Run3	generate/STIM_011.jpg
1984.474	2.287	1	generate	Run3	generate/STIM_011.jpg
1989.09	1.473	1	generate	Run3	generate/STIM_011.jpg
1994.376	1.975	1	generate	Run3	generate/STIM_011.jpg
1999.584	1.837	1	generate	Run3	generate/STIM_012.jpg
2004.548	2.13	1	generate	Run3	generate/STIM_012.jpg
2008.645	1.937	1	generate	Run3	generate/STIM_012.jpg
2013.413	2.261	1	generate	Run3	generate/STIM_012.jpg
2018.831	1.443	1	generate	Run3	generate/STIM_012.jpg
2024.042	1.538	1	generate	Run3	generate/STIM_013.jpg
2029.335	1.416	1	generate	Run3	generate/STIM_013.jpg
2033.761	2.288	1	generate	Run3	generate/STIM_013.jpg
2039.126	1.701	1	generate	Run3	generate/STIM_013.jpg
2043.084	2.062	1	generate	Run3	generate/STIM_013.jpg
2048.36	1.098	1	generate	Run3	generate/STIM_014.jpg
2051.989	1.201	0	generate	Run3	generate/STIM_014.jpg
2056.537	2.17	1	generate	Run3	generate/STIM_014.jpg
2060.86	1.829	1	generate	Run3	generate/STIM_014.jpg
2066.022	1.637	1	generate	Run3	generate/STIM_014.jpg
2069.972	1.379	1	generate	Run3	generate/STIM_015.jpg
2074.576	2.184	1	generate	Run3	generate/STIM_015.jpg
2080.098	1.632	1	generate	Run3	generate/STIM_015.jpg
2085.466	1.443	1	generate	Run3	generate/STIM_015.jpg
2090.569	1.91	1	generate	Run3	generate/STIM_015.jpg
2095.94	1.958	1	generate	Run3	generate/STIM_016.jpg
2099.948	1.293	1	generate	Run3	generate/STIM_016.jpg
2103.976	1.422	1	generate	Run3	generate/STIM_016.jpg
2108.613	2.232	1	generate	Run3	generate/STIM_016.jpg
2113.01	2.277	1	generate	Run3	generate/STIM_016.jpg
2118.77	1.598	1	generate	Run3	generate/STIM_017.jpg
2122.777	2.203	1	generate	Run3	generate/STIM_017.jpg
2127.904	1.786	1	generate	Run3	generate/STIM_017.jpg
2131.865	1.83	1	generate	Run3	generate/STIM_017.jpg
2136.833	1.507	1	generate	Run3	generate/STIM_017.jpg
2141.352	2.354	1	generate	Run3	generate/STIM_018.jpg
2145.679	1.921	1	generate	Run3	generate/STIM_018.jpg
2150.243	1.148	1	generate	Run3	generate/STIM_018.jpg
2155.216	1.86	1	generate	Run3	generate/STIM_018.jpg
2160.782	2.144	1	generate	Run3	generate/STIM_018.jpg
2165.706	1.147	1	generate	Run3	generate/STIM_019.jpg
2170.072	1.347	1	generate	Run3	generate/STIM_019.jpg
2174.325	1.866	1	generate	Run3	generate/STIM_019.jpg
2179.609	2.028	1	generate	Run3	generate/STIM_019.jpg
2183.534	1.43	1	generate	Run3	generate/STIM_019.jpg
2188.191	1.682	0	generate	Run3	generate/STIM_020.jpg
2192.179	2.279	1	generate	Run3	generate/STIM_020.jpg
2197.117	1.056	1	generate	Run3	generate/STIM_020.jpg
2201.579	2.042	1	generate	Run3	generate/STIM_020.jpg
2206.312	1.962	1	generate	Run3	generate/STIM_020.jpg
2211.353	1.157	1	generate	Run3	generate/STIM_021.jpg
2215.183	1.729	1	generate	Run3	generate/STIM_021.jpg
2219.249	1.43	0	generate	Run3	generate/STIM_021.jpg
2223.199	1.545	1	generate	Run3	generate/STIM_021.jpg
2227.645	1.818	1	generate	Run3	generate/STIM_021.jpg
2231.434	1.124	1	generate	Run3	generate/STIM_022.jpg
2234.925	2.111	1	generate	Run3	generate/STIM_022.jpg
2240.436	2.164	1	generate	Run3	generate/STIM_022.jpg
2246.246	0.988	1	generate	Run3	generate/STIM_022.jpg
2249.909	1.862	1	generate	Run3	generate/STIM_022.jpg
2255.48	1.711	1	generate	Run3	generate/STIM_023.jpg
2260.022	1.856	1	generate	Run3	generate/STIM_023.jpg
2264.392	0.997	1	generate	Run3	generate/STIM_023.jpg
2267.632	1.851	1	generate	Run3	generate/STIM_023.jpg
2272.772	1.014	1	generate	Run3	generate/STIM_023.jpg
2277.612	1.802	1	generate	Run3	generate/STIM_024.jpg
2282.486	1.165	1	generate	Run3	generate/STIM_024.jpg
2286.318	1.774	1	generate	Run3	generate/STIM_024.jpg
2291.58	1.3	1	generate	Run3	generate/STIM_024.jpg
2295.303	2.32	1	generate	Run3	generate/STIM_024.jpg
2300.477	0.707	1	repeat	Run3	repeat/STIM_000.jpg
2304.396	1.038	1	repeat	Run3	repeat/STIM_000.jpg
2307.886	0.643	1	repeat	Run3	repeat/STIM_000.jpg
2310.999	1.106	0	repeat	Run3	repeat/STIM_000.jpg
2314.62	0.676	1	repeat	Run3	repeat/STIM_000.jpg
2318.383	0.92	1	repeat	Run3	repeat/STIM_001.jpg
2322.38	0.993	1	repeat	Run3	repeat/STIM_001.jpg
2326.51	0.958	1	repeat	Run3	repeat/STIM_001.jpg
2329.909	0.931	1	repeat	Run3	repeat/STIM_001.jpg
2333.678	0.772	1	repeat	Run3	repeat/STIM_001.jpg
2337.75	0.926	1	repeat	Run3	repeat/STIM_002.jpg
2341.988	0.807	1	repeat	Run3	repeat/STIM_002.jpg
2346.24	0.648	1	repeat	Run3	repeat/STIM_002.jpg
2350.255	0.977	1	repeat	Run3	repeat/STIM_002.jpg
2354.998	0.647	1	repeat	Run3	repeat/STIM_002.jpg
2358.417	1.13	1	repeat	Run3	repeat/STIM_003.jpg
2361.9	1.054	1	repeat	Run3	repeat/STIM_003.jpg
2365.53	1.018	0	repeat	Run3	repeat/STIM_003.jpg
2368.448	0.99	1	repeat	Run3	repeat/STIM_003.jpg
2373.072	1.019	1	repeat	Run3	repeat/STIM_003.jpg
2377.148	0.77	1	repeat	Run3	repeat/STIM_004.jpg
2380.054	0.779	1	repeat	Run3	repeat/STIM_004.jpg
2384.361	0.734	1	repeat	Run3	repeat/STIM_004.jpg
2387.344	1.019	1	repeat	Run3	repeat/STIM_004.jpg
2391.413	0.961	1	repeat	Run3	repeat/STIM_004.jpg
2395.696	0.59	1	repeat	Run3	repeat/STIM_005.jpg
2399.397	1.077	1	repeat	Run3	repeat/STIM_005.jpg
2403.117	0.714	1	repeat	Run3	repeat/STIM_005.jpg
2407.189	0.902	1	repeat	Run3	repeat/STIM_005.jpg
2410.991	1.102	1	repeat	Run3	repeat/STIM_005.jpg
2414.382	0.887	1	repeat	Run3	repeat/STIM_006.jpg
2417.678	0.858	1	repeat	Run3	repeat/STIM_006.jpg
2421.042	0.946	1	repeat	Run3	repeat/STIM_006.jpg
2425.226	0.958	1	repeat	Run3	repeat/STIM_006.jpg
2428.605	0.67	1	repeat	Run3	repeat/STIM_006.jpg
2433.03	1.037	1	repeat	Run3	repeat/STIM_007.jpg
2437.15	0.619	1	repeat	Run3	repeat/STIM_007.jpg
2439.8	0.912	0	repeat	Run3	repeat/STIM_007.jpg
2443.637	0.791	1	repeat	Run3	repeat/STIM_007.jpg
2447.978	1.102	1	repeat	Run3	repeat/STIM_007.jpg
2452.505	0.939	1	repeat	Run3	repeat/STIM_008.jpg
2456.101	0.625	1	repeat	Run3	repeat/STIM_008.jpg
2460.378	0.881	1	repeat	Run3	repeat/STIM_008.jpg
2463.817	0.755	1	repeat	Run3	repeat/STIM_008.jpg
2466.644	0.998	0	repeat	Run3	repeat/STIM_008.jpg
2471.259	1.032	1	repeat	Run3	repeat/STIM_009.jpg
2475.703	0.913	1	repeat	Run3	repeat/STIM_009.jpg
2478.619	0.682	1	repeat	Run3	repeat/STIM_009.jpg
2481.369	1.134	1	repeat	Run3	repeat/STIM_009.jpg
2485.841	1.134	1	repeat	Run3	repeat/STIM_009.jpg
2489.359	0.753	1	repeat	Run3	repeat/STIM_010.jpg
2492.254	0.692	1	repeat	Run3	repeat/STIM_010.jpg
2495.023	0.742	1	repeat	Run3	repeat/STIM_010.jpg
2498.643	0.931	1	repeat	Run3	repeat/STIM_010.jpg
2503.017	1.071	1	repeat	Run3	repeat/STIM_010.jpg
2507.683	0.95	1	repeat	Run3	repeat/STIM_011.jpg
2511.172	0.713	1	repeat	Run3	repeat/STIM_011.jpg
2515.44	0.98	1	repeat	Run3	repeat/STIM_011.jpg
2518.589	1.11	0	repeat	Run3	repeat/STIM_011.jpg
2522.39	0.872	0	repeat	Run3	repeat/STIM_011.jpg
2525.863	0.901	1	repeat	Run3	repeat/STIM_012.jpg
2530.107	0.736	1	repeat	Run3	repeat/STIM_012.jpg
2534.556	0.579	1	repeat	Run3	repeat/STIM_012.jpg
2538.731	0.833	1	repeat	Run3	repeat/STIM_012.jpg
2542.027	0.927	1	repeat	Run3	repeat/STIM_012.jpg
2546.233	0.653	1	repeat	Run3	repeat/STIM_013.jpg
2550.789	0.768	1	repeat	Run3	repeat/STIM_013.jpg
2554.919	0.727	1	repeat	Run3	repeat/STIM_013.jpg
2557.634	0.726	1	repeat	Run3	repeat/STIM_013.jpg
2561.072	0.769	1	repeat	Run3	repeat/STIM_013.jpg
2564.544	0.949	1	repeat	Run3	repeat/STIM_014.jpg
2567.878	0.616	1	repeat	Run3	repeat/STIM_014.jpg
2572.096	1.047	1	repeat	Run3	repeat/STIM_014.jpg
2576.353	1.022	1	repeat	Run3	repeat/STIM_014.jpg
2580.949	0.608	1	repeat	Run3	repeat/STIM_014.jpg
2584.19	1.935	1	generate	Run4	generate/STIM_000.jpg
2588.022	1.633	1	generate	Run4	generate/STIM_000.jpg
2592.547	1.557	1	generate	Run4	generate/STIM_000.jpg
2597.008	1.977	1	generate	Run4	generate/STIM_000.jpg
2601.2	1.168	1	generate	Run4	generate/STIM_000.jpg
2605.095	1.184	1	generate	Run4	generate/STIM_001.jpg
2609.367	2.255	1	generate	Run4	generate/STIM_001.jpg
2614.448	1.664	1	generate	Run4	generate/STIM_001.jpg
2618.818	1.375	1	generate	Run4	generate/STIM_001.jpg
2623.849	1.539	1	generate	Run4	generate/STIM_001.jpg
2627.439	1.301	1	generate	Run4	generate/STIM_002.jpg
2632.089	2.075	1	generate	Run4	generate/STIM_002.jpg
2637.512	2.2	1	generate	Run4	generate/STIM_002.jpg
2641.887	0.974	1	generate	Run4	generate/STIM_002.jpg
2646.679	1.952	1	generate	Run4	generate/STIM_002.jpg
2651.407	2.087	1	generate	Run4	generate/STIM_003.jpg
2657.127	2.113	0	generate	Run4	generate/STIM_003.jpg
2660.986	1.639	1	generate	Run4	generate/STIM_003.jpg
2664.905	1.824	1	generate	Run4	generate/STIM_003.jpg
2669.574	1.065	1	generate	Run4	generate/STIM_003.jpg
2673.701	1.562	1	generate	Run4	generate/STIM_004.jpg
2677.371	2.103	1	generate	Run4	generate/STIM_004.jpg
2682.446	1.608	1	generate	Run4	generate/STIM_004.jpg
2687.686	1.348	1	generate	Run4	generate/STIM_004.jpg
2691.986	2.07	1	generate	Run4	generate/STIM_004.jpg
2697.535	1.71	1	generate	Run4	generate/STIM_005.jpg
2702.869	2.343	1	generate	Run4	generate/STIM_005.jpg
2708.08	1.874	1	generate	Run4	generate/STIM_005.jpg
2713.651	1.433	1	generate	Run4	generate/STIM_005.jpg
2718.321	1.686	1	generate	Run4	generate/STIM_005.jpg
2722.357	1.434	1	generate	Run4	generate/STIM_006.jpg
2725.861	1.205	1	generate	Run4	generate/STIM_006.jpg
2729.502	2.05	1	generate	Run4	generate/STIM_006.jpg
2734.709	1.39	1	generate	Run4	generate/STIM_006.jpg
2739.373	1.569	1	generate	Run4	generate/STIM_006.jpg
2744.173	2.27	1	generate	Run4	generate/STIM_007.jpg
2749.818	1.147	1	generate	Run4	generate/STIM_007.jpg
2754.133	1.957	1	generate	Run4	generate/STIM_007.jpg
2758.738	1.98	1	generate	Run4	generate/STIM_007.jpg
2762.543	1.021	1	generate	Run4	generate/STIM_007.jpg
2765.949	1.721	1	generate	Run4	generate/STIM_008.jpg
2770.744	1.996	1	generate	Run4	generate/STIM_008.jpg
2776.31	1.562	1	generate	Run4	generate/STIM_008.jpg
2780.112	1.287	1	generate	Run4	generate/STIM_008.jpg
2784.447	2.18	1	generate	Run4	generate/STIM_008.jpg
2790.181	1.907	1	generate	Run4	generate/STIM_009.jpg
2795.229	1.901	1	generate	Run4	generate/STIM_009.jpg
2800.126	1.462	1	generate	Run4	generate/STIM_009.jpg
2803.437	1.59	1	generate	Run4	generate/STIM_009.jpg
2807.342	1.578	1	generate	Run4	generate/STIM_009.jpg
2811.499	1.475	1	generate	Run4	generate/STIM_010.jpg
2816.107	2.315	1	generate	Run4	generate/STIM_010.jpg
2821.02	1.514	1	generate	Run4	generate/STIM_010.jpg
2826.212	2.015	1	generate	Run4	generate/STIM_010.jpg
2831.0	1.703	1	generate	Run4	generate/STIM_010.jpg
2836.355	1.639	1	generate	Run4	generate/STIM_011.jpg
2840.457	1.664	1	generate	Run4	generate/STIM_011.jpg
2845.273	1.604	1	generate	Run4	generate/STIM_011.jpg
2850.193	1.731	1	generate	Run4	generate/STIM_011.jpg
2854.352	1.495	1	generate	Run4	generate/STIM_011.jpg
2859.31	0.97	1	generate	Run4	generate/STIM_012.jpg
2863.183	1.369	1	generate	Run4	generate/STIM_012.jpg
2867.788	2.008	1	generate	Run4	generate/STIM_012.jpg
2872.465	1.715	1	generate	Run4	generate/STIM_012.jpg
2876.323	1.943	1	generate	Run4	generate/STIM_012.jpg
2880.133	1.606	1	generate	Run4	generate/STIM_013.jpg
2885.5	2.094	1	generate	Run4	generate/STIM_013.jpg
2889.596	0.964	0	generate	Run4	generate/STIM_013.jpg
2892.755	2.1	1	generate	Run4	generate/STIM_013.jpg
2898.171	2.08	1	generate	Run4	generate/STIM_013.jpg
2902.83	1.523	1	generate	Run4	generate/STIM_014.jpg
2908.034	2.071	1	generate	Run4	generate/STIM_014.jpg
2913.51	1.097	1	generate	Run4	generate/STIM_014.jpg
2917.839	2.37	1	generate	Run4	generate/STIM_014.jpg
2922.686	1.095	1	generate	Run4	generate/STIM_014.jpg
2926.668	2.121	1	generate	Run4	generate/STIM_015.jpg
2931.735	1.35	0	generate	Run4	generate/STIM_015.jpg
2935.86	1.938	1	generate	Run4	generate/STIM_015.jpg
2940.036	1.67	1	generate	Run4	generate/STIM_015.jpg
2944.613	2.098	1	generate	Run4	generate/STIM_015.jpg
2949.724	2.278	1	generate	Run4	generate/STIM_016.jpg
2955.253	1.273	1	generate	Run4	generate/STIM_016.jpg
2959.744	0.981	1	generate	Run4	generate/STIM_016.jpg
2964.168	2.232	1	generate	Run4	generate/STIM_016.jpg
2970.095	1.302	1	generate	Run4	generate/STIM_016.jpg
2975.038	1.413	1	generate	Run4	generate/STIM_017.jpg
2980.116	1.047	1	generate	Run4	generate/STIM_017.jpg
2984.451	1.943	1	generate	Run4	generate/STIM_017.jpg
2989.573	2.297	1	generate	Run4	generate/STIM_017.jpg
2993.78	2.082	1	generate	Run4	generate/STIM_017.jpg
2998.348	2.391	1	generate	Run4	generate/STIM_018.jpg
3004.179	1.316	1	generate	Run4	generate/STIM_018.jpg
3008.131	2.194	1	generate	Run4	generate/STIM_018.jpg
3012.901	1.32	1	generate	Run4	generate/STIM_018.jpg
3017.674	2.309	1	generate	Run4	generate/STIM_018.jpg
3023.254	1.545	1	generate	Run4	generate/STIM_019.jpg
3028.124	1.92	1	generate	Run4	generate/STIM_019.jpg
3033.359	1.211	1	generate	Run4	generate/STIM_019.jpg
3037.422	2.067	1	generate	Run4	generate/STIM_019.jpg
3043.083	1.805	0	generate	Run4	generate/STIM_019.jpg
3047.048	1.224	1	generate	Run4	generate/STIM_020.jpg
3051.306	1.217	1	generate	Run4	generate/STIM_020.jpg
3055.35	1.629	1	generate	Run4	generate/STIM_020.jpg
3059.85	1.424	0	generate	Run4	generate/STIM_020.jpg
3064.619	1.841	1	generate	Run4	generate/STIM_020.jpg
3068.404	1.269	1	generate	Run4	generate/STIM_021.jpg
3073.297	1.945	1	generate	Run4	generate/STIM_021.jpg
3077.497	2.369	1	generate	Run4	generate/STIM_021.jpg
3082.486	1.325	1	generate	Run4	generate/STIM_021.jpg
3086.084	2.047	1	generate	Run4	generate/STIM_021.jpg
3090.412	1.019	1	generate	Run4	generate/STIM_022.jpg
3094.562	1.428	1	generate	Run4	generate/STIM_022.jpg
3099.751	1.528	1	generate	Run4	generate/STIM_022.jpg
3103.464	1.736	1	generate	Run4	generate/STIM_022.jpg
3107.731	2.319	1	generate	Run4	generate/STIM_022.jpg
3112.264	2.154	1	generate	Run4	generate/STIM_023.jpg
3116.562	1.47	1	generate	Run4	generate/STIM_023.jpg
3121.562	0.979	1	generate	Run4	generate/STIM_023.jpg
3124.766	1.901	0	generate	Run4	generate/STIM_023.jpg
3129.573	1.338	1	generate	Run4	generate/STIM_023.jpg
3134.094	0.972	1	generate	Run4	generate/STIM_024.jpg
3138.935	2.349	0	generate	Run4	generate/STIM_024.jpg
3143.244	1.663	0	generate	Run4	generate/STIM_024.jpg
3146.898	1.42	1	generate	Run4	generate/STIM_024.jpg
3151.589	2.296	1	generate	Run4	generate/STIM_024.jpg
3157.029	0.848	0	repeat	Run4	repeat/STIM_000.jpg
3159.784	0.696	1	repeat	Run4	repeat/STIM_000.jpg
3163.006	1.084	1	repeat	Run4	repeat/STIM_000.jpg
3167.668	1.12	1	repeat	Run4	repeat/STIM_000.jpg
3171.481	0.908	1	repeat	Run4	repeat/STIM_000.jpg
3175.007	0.578	1	repeat	Run4	repeat/STIM_001.jpg
3178.638	1.098	1	repeat	Run4	repeat/STIM_001.jpg
3183.1	0.619	1	repeat	Run4	repeat/STIM_001.jpg
3186.249	1.062	1	repeat	Run4	repeat/STIM_001.jpg
3190.626	0.742	1	repeat	Run4	repeat/STIM_001.jpg
3195.112	0.658	1	repeat	Run4	repeat/STIM_002.jpg
3199.193	0.742	1	repeat	Run4	repeat/STIM_002.jpg
3203.702	0.591	1	repeat	Run4	repeat/STIM_002.jpg
3206.419	1.001	1	repeat	Run4	repeat/STIM_002.jpg
3210.561	0.759	1	repeat	Run4	repeat/STIM_002.jpg
3214.68	0.688	1	repeat	Run4	repeat/STIM_003.jpg
3218.459	0.698	1	repeat	Run4	repeat/STIM_003.jpg
3222.116	0.844	1	repeat	Run4	repeat/STIM_003.jpg
3226.509	1.074	1	repeat	Run4	repeat/STIM_003.jpg
3229.65	0.697	1	repeat	Run4	repeat/STIM_003.jpg
3232.694	0.683	1	repeat	Run4	repeat/STIM_004.jpg
3235.552	0.66	0	repeat	Run4	repeat/STIM_004.jpg
3238.907	0.677	1	repeat	Run4	repeat/STIM_004.jpg
3243.169	0.837	1	repeat	Run4	repeat/STIM_004.jpg
3247.791	0.645	1	repeat	Run4	repeat/STIM_004.jpg
3250.955	0.753	1	repeat	Run4	repeat/STIM_005.jpg
3255.286	0.761	1	repeat	Run4	repeat/STIM_005.jpg
3257.967	0.988	1	repeat	Run4	repeat/STIM_005.jpg
3260.895	0.921	1	repeat	Run4	repeat/STIM_005.jpg
3265.595	0.641	1	repeat	Run4	repeat/STIM_005.jpg
3269.604	0.802	1	repeat	Run4	repeat/STIM_006.jpg
3272.488	0.852	1	repeat	Run4	repeat/STIM_006.jpg
3277.055	0.746	1	repeat	Run4	repeat/STIM_006.jpg
3280.763	1.069	1	repeat	Run4	repeat/STIM_006.jpg
3285.337	0.934	1	repeat	Run4	repeat/STIM_006.jpg
3289.818	1.092	1	repeat	Run4	repeat/STIM_007.jpg
3293.488	0.847	1	repeat	Run4	repeat/STIM_007.jpg
3296.87	0.869	1	repeat	Run4	repeat/STIM_007.jpg
3300.378	0.803	1	repeat	Run4	repeat/STIM_007.jpg
3303.331	0.949	1	repeat	Run4	repeat/STIM_007.jpg
3306.709	0.789	1	repeat	Run4	repeat/STIM_008.jpg
3311.292	0.925	1	repeat	Run4	repeat/STIM_008.jpg
3314.471	0.969	1	repeat	Run4	repeat/STIM_008.jpg
3317.794	0.989	1	repeat	Run4	repeat/STIM_008.jpg
3321.267	0.737	1	repeat	Run4	repeat/STIM_008.jpg
3325.879	0.648	1	repeat	Run4	repeat/STIM_009.jpg
3330.136	1.108	1	repeat	Run4	repeat/STIM_009.jpg
3334.913	0.659	1	repeat	Run4	repeat/STIM_009.jpg
3338.436	1.024	1	repeat	Run4	repeat/STIM_009.jpg
3342.125	1.109	1	repeat	Run4	repeat/STIM_009.jpg
3346.763	1.095	0	repeat	Run4	repeat/STIM_010.jpg
3351.18	0.589	0	repeat	Run4	repeat/STIM_010.jpg
3354.83	0.575	1	repeat	Run4	repeat/STIM_010.jpg
3357.738	0.948	1	repeat	Run4	repeat/STIM_010.jpg
3362.27	0.725	1	repeat	Run4	repeat/STIM_010.jpg
3365.128	0.797	1	repeat	Run4	repeat/STIM_011.jpg
3368.205	1.032	1	repeat	Run4	repeat/STIM_011.jpg
3372.407	0.867	1	repeat	Run4	repeat/STIM_011.jpg
3376.432	0.787	1	repeat	Run4	repeat/STIM_011.jpg
3380.627	1.017	1	repeat	Run4	repeat/STIM_011.jpg
3383.631	0.87	1	repeat	Run4	repeat/STIM_012.jpg
3388.107	1.015	1	repeat	Run4	repeat/STIM_012.jpg
3392.813	1.061	1	repeat	Run4	repeat/STIM_012.jpg
3397.01	0.792	1	repeat	Run4	repeat/STIM_012.jpg
3400.24	0.667	1	repeat	Run4	repeat/STIM_012.jpg
3404.519	1.024	1	repeat	Run4	repeat/STIM_013.jpg
3408.575	0.938	0	repeat	Run4	repeat/STIM_013.jpg
3413.35	1.037	1	repeat	Run4	repeat/STIM_013.jpg
3417.313	0.706	1	repeat	Run4	repeat/STIM_013.jpg
3421.928	0.9	1	repeat	Run4	repeat/STIM_013.jpg
3424.783	0.991	1	repeat	Run4	repeat/STIM_014.jpg
3428.702	1.027	1	repeat	Run4	repeat/STIM_014.jpg
3432.448	0.804	1	repeat	Run4	repeat/STIM_014.jpg
3436.372	0.773	1	repeat	Run4	repeat/STIM_014.jpg
3440.548	0.91	1	repeat	Run4	repeat/STIM_014.jpg
