onset	duration	accuracy	trial_type	learning_stage	stimulus
0.0	1.215	correct	2back	Block1	2back/STIM_000.jpg
4.467	0.78	correct	2back	Block1	2back/STIM_000.jpg
8.688	0.742	correct	2back	Block1	2back/STIM_000.jpg
12.959	0.676	correct	2back	Block1	2back/STIM_001.jpg
16.984	0.93	incorrect	2back	Block1	2back/STIM_001.jpg
19.893	1.178	correct	2back	Block1	2back/STIM_001.jpg
23.907	0.805	correct	2back	Block1	2back/STIM_002.jpg
27.503	1.222	correct	2back	Block1	2back/STIM_002.jpg
32.446	0.838	correct	2back	Block1	2back/STIM_002.jpg
35.773	1.251	correct	2back	Block1	2back/STIM_003.jpg
39.182	1.096	incorrect	2back	Block1	2back/STIM_003.jpg
42.363	1.186	correct	2back	Block1	2back/STIM_003.jpg
46.201	0.762	correct	2back	Block1	2back/STIM_004.jpg
50.166	1.174	correct	2back	Block1	2back/STIM_004.jpg
55.232	0.984	incorrect	2back	Block1	2back/STIM_004.jpg
59.817	1.242	correct	2back	Block1	2back/STIM_005.jpg
64.286	0.877	correct	2back	Block1	2back/STIM_005.jpg
67.991	0.594	correct	2back	Block1	2back/STIM_005.jpg
71.04	1.295	incorrect	2back	Block1	2back/STIM_006.jpg
74.714	1.014	correct	2back	Block1	2back/STIM_006.jpg
77.725	0.686	correct	2back	Block1	2back/STIM_006.jpg
80.968	0.981	correct	2back	Block1	2back/STIM_007.jpg
83.884	1.036	correct	2back	Block1	2back/STIM_007.jpg
87.737	1.027	correct	2back	Block1	2back/STIM_007.jpg
92.033	1.196	incorrect	2back	Block1	2back/STIM_008.jpg
96.876	0.702	correct	2back	Block1	2back/STIM_008.jpg
101.292	0.744	correct	2back	Block1	2back/STIM_008.jpg
104.158	1.106	correct	2back	Block1	2back/STIM_009.jpg
107.705	1.227	correct	2back	Block1	2back/STIM_009.jpg
111.447	0.552	correct	2back	Block1	2back/STIM_009.jpg
114.742	0.867	correct	2back	Block1	2back/STIM_010.jpg
118.001	1.243	correct	2back	Block1	2back/STIM_010.jpg
123.182	1.144	incorrect	2back	Block1	2back/STIM_010.jpg
126.327	0.855	correct	2back	Block1	2back/STIM_011.jpg
130.56	1.003	correct	2back	Block1	2back/STIM_011.jpg
135.463	0.992	correct	2back	Block1	2back/STIM_011.jpg
139.613	1.32	correct	2back	Block1	2back/STIM_012.jpg
144.111	0.966	correct	2back	Block1	2back/STIM_012.jpg
147.666	0.881	correct	2back	Block1	2back/STIM_012.jpg
152.204	0.828	correct	2back	Block1	2back/STIM_013.jpg
156.042	0.583	incorrect	2back	Block1	2back/STIM_013.jpg
159.756	0.703	correct	2back	Block1	2back/STIM_013.jpg
162.931	0.655	incorrect	2back	Block1	2back/STIM_014.jpg
166.257	0.856	incorrect	2back	Block1	2back/STIM_014.jpg
169.7	1.091	correct	2back	Block1	2back/STIM_014.jpg
174.419	1.4	correct	2back	Block1	2back/STIM_015.jpg
178.356	1.15	correct	2back	Block1	2back/STIM_015.jpg
183.031	0.678	correct	2back	Block1	2back/STIM_015.jpg
186.201	0.852	correct	2back	Block1	2back/STIM_016.jpg
190.92	1.326	correct	2back	Block1	2back/STIM_016.jpg
195.062	1.21	incorrect	2back	Block1	2back/STIM_016.jpg
199.472	1.114	correct	2back	Block1	2back/STIM_017.jpg
203.524	0.844	correct	2back	Block1	2back/STIM_017.jpg
207.912	0.803	correct	2back	Block1	2back/STIM_017.jpg
212.138	0.689	correct	2back	Block1	2back/STIM_018.jpg
215.376	0.575	correct	2back	Block1	2back/STIM_018.jpg
218.492	0.955	correct	2back	Block1	2back/STIM_018.jpg
222.964	0.78	correct	2back	Block1	2back/STIM_019.jpg
227.165	0.569	incorrect	2back	Block1	2back/STIM_019.jpg
230.048	0.93	correct	2back	Block1	2back/STIM_019.jpg
234.596	1.4	correct	2back	Block1	2back/STIM_020.jpg
238.727	1.187	incorrect	2back	Block1	2back/STIM_020.jpg
243.243	1.196	correct	2back	Block1	2back/STIM_020.jpg
246.445	1.359	correct	2back	Block1	2back/STIM_021.jpg
251.52	0.585	correct	2back	Block1	2back/STIM_021.jpg
254.917	1.052	correct	2back	Block1	2back/STIM_021.jpg
258.808	1.316	correct	2back	Block1	2back/STIM_022.jpg
263.169	0.976	correct	2back	Block1	2back/STIM_022.jpg
267.217	1.14	correct	2back	Block1	2back/STIM_022.jpg
271.928	1.159	correct	2back	Block1	2back/STIM_023.jpg
276.833	0.987	correct	2back	Block1	2back/STIM_023.jpg
281.44	0.613	correct	2back	Block1	2back/STIM_023.jpg
285.156	0.972	correct	2back	Block1	2back/STIM_024.jpg
288.09	0.727	correct	2back	Block1	2back/STIM_024.jpg
291.173	1.148	correct	2back	Block1	2back/STIM_024.jpg
295.364	1.231	correct	2back	Block1	2back/STIM_025.jpg
300.015	0.926	correct	2back	Block1	2back/STIM_025.jpg
304.086	0.565	correct	2back	Block1	2back/STIM_025.jpg
308.637	1.348	incorrect	2back	Block1	2back/STIM_026.jpg
312.261	0.631	correct	2back	Block1	2back/STIM_026.jpg
316.018	1.103	incorrect	2back	Block1	2back/STIM_026.jpg
319.977	0.702	correct	2back	Block1	2back/STIM_027.jpg
324.4	1.317	incorrect	2back	Block1	2back/STIM_027.jpg
328.552	0.949	correct	2back	Block1	2back/STIM_027.jpg
333.315	1.067	correct	2back	Block1	2back/STIM_028.jpg
337.122	0.884	incorrect	2back	Block1	2back/STIM_028.jpg
341.442	0.786	correct	2back	Block1	2back/STIM_028.jpg
345.972	1.415	correct	2back	Block1	2back/STIM_029.jpg
350.645	1.179	correct	2back	Block1	2back/STIM_029.jpg
354.287	0.596	correct	2back	Block1	2back/STIM_029.jpg
358.336	1.412	correct	2back	Block1	2back/STIM_030.jpg
361.674	0.555	incorrect	2back	Block1	2back/STIM_030.jpg
365.722	0.712	correct	2back	Block1	2back/STIM_030.jpg
369.332	0.867	correct	2back	Block1	2back/STIM_031.jpg
373.348	1.163	correct	2back	Block1	2back/STIM_031.jpg
377.64	0.78	correct	2back	Block1	2back/STIM_031.jpg
381.169	0.89	correct	2back	Block1	2back/STIM_032.jpg
384.427	0.884	correct	2back	Block1	2back/STIM_032.jpg
387.362	1.076	correct	2back	Block1	2back/STIM_032.jpg
391.899	1.124	correct	2back	Block1	2back/STIM_033.jpg
395.87	0.983	correct	2back	Block1	2back/STIM_033.jpg
399.035	1.308	correct	2back	Block1	2back/STIM_033.jpg
403.541	0.881	correct	2back	Block1	2back/STIM_034.jpg
407.409	0.794	correct	2back	Block1	2back/STIM_034.jpg
410.482	1.345	correct	2back	Block1	2back/STIM_034.jpg
415.272	1.222	correct	2back	Block1	2back/STIM_035.jpg
419.426	1.294	correct	2back	Block1	2back/STIM_035.jpg
423.943	1.082	correct	2back	Block1	2back/STIM_035.jpg
427.564	0.734	correct	2back	Block1	2back/STIM_036.jpg
431.462	1.103	correct	2back	Block1	2back/STIM_036.jpg
436.149	1.176	correct	2back	Block1	2back/STIM_036.jpg
440.552	1.319	correct	2back	Block1	2back/STIM_037.jpg
445.624	0.555	incorrect	2back	Block1	2back/STIM_037.jpg
448.4	0.888	correct	2back	Block1	2back/STIM_037.jpg
451.586	1.344	incorrect	2back	Block1	2back/STIM_038.jpg
455.648	1.258	incorrect	2back	Block1	2back/STIM_038.jpg
459.56	0.651	correct	2back	Block1	2back/STIM_038.jpg
463.035	0.735	correct	2back	Block1	2back/STIM_039.jpg
466.569	1.241	correct	2back	Block1	2back/STIM_039.jpg
470.86	0.976	correct	2back	Block1	2back/STIM_039.jpg
474.412	0.471	correct	0back	Block1	0back/STIM_000.jpg
477.874	0.555	correct	0back	Block1	0back/STIM_000.jpg
482.412	0.508	correct	0back	Block1	0back/STIM_000.jpg
485.634	0.642	incorrect	0back	Block1	0back/STIM_001.jpg
489.026	0.602	correct	0back	Block1	0back/STIM_001.jpg
493.317	0.512	correct	0back	Block1	0back/STIM_001.jpg
497.708	0.646	correct	0back	Block1	0back/STIM_002.jpg
502.136	0.457	correct	0back	Block1	0back/STIM_002.jpg
505.628	0.64	correct	0back	Block1	0back/STIM_002.jpg
509.054	0.685	correct	0back	Block1	0back/STIM_003.jpg
512.352	0.719	correct	0back	Block1	0back/STIM_003.jpg
516.962	0.437	correct	0back	Block1	0back/STIM_003.jpg
520.375	0.777	correct	0back	Block1	0back/STIM_004.jpg
523.56	0.465	correct	0back	Block1	0back/STIM_004.jpg
527.77	0.443	correct	0back	Block1	0back/STIM_004.jpg
531.213	0.727	correct	0back	Block1	0back/STIM_005.jpg
534.11	0.63	correct	0back	Block1	0back/STIM_005.jpg
538.565	0.717	correct	0back	Block1	0back/STIM_005.jpg
541.34	0.707	correct	0back	Block1	0back/STIM_006.jpg
545.046	0.478	correct	0back	Block1	0back/STIM_006.jpg
547.688	0.566	correct	0back	Block1	0back/STIM_006.jpg
551.893	0.62	correct	0back	Block1	0back/STIM_007.jpg
556.377	0.491	correct	0back	Block1	0back/STIM_007.jpg
559.515	0.6	correct	0back	Block1	0back/STIM_007.jpg
562.833	0.781	correct	0back	Block1	0back/STIM_008.jpg
566.681	0.61	correct	0back	Block1	0back/STIM_008.jpg
570.616	0.682	correct	0back	Block1	0back/STIM_008.jpg
574.377	0.667	correct	0back	Block1	0back/STIM_009.jpg
579.023	0.585	correct	0back	Block1	0back/STIM_009.jpg
582.593	0.743	correct	0back	Block1	0back/STIM_009.jpg
587.063	0.601	correct	0back	Block1	0back/STIM_010.jpg
590.142	0.609	correct	0back	Block1	0back/STIM_010.jpg
594.365	0.843	correct	0back	Block1	0back/STIM_010.jpg
597.76	0.514	correct	0back	Block1	0back/STIM_011.jpg
601.116	0.849	correct	0back	Block1	0back/STIM_011.jpg
605.113	0.552	correct	0back	Block1	0back/STIM_011.jpg
609.649	0.679	correct	0back	Block1	0back/STIM_012.jpg
612.69	0.729	correct	0back	Block1	0back/STIM_012.jpg
616.619	0.688	incorrect	0back	Block1	0back/STIM_012.jpg
620.171	0.684	correct	0back	Block1	0back/STIM_013.jpg
624.179	0.445	correct	0back	Block1	0back/STIM_013.jpg
628.176	0.81	correct	0back	Block1	0back/STIM_013.jpg
631.317	0.605	correct	0back	Block1	0back/STIM_014.jpg
634.514	0.55	correct	0back	Block1	0back/STIM_014.jpg
638.652	0.436	incorrect	0back	Block1	0back/STIM_014.jpg
642.522	0.807	correct	0back	Block1	0back/STIM_015.jpg
645.551	0.711	correct	0back	Block1	0back/STIM_015.jpg
650.097	0.571	incorrect	0back	Block1	0back/STIM_015.jpg
653.024	0.616	correct	0back	Block1	0back/STIM_016.jpg
656.841	0.719	correct	0back	Block1	0back/STIM_016.jpg
661.174	0.511	correct	0back	Block1	0back/STIM_016.jpg
665.377	0.727	correct	0back	Block1	0back/STIM_017.jpg
668.539	0.594	correct	0back	Block1	0back/STIM_017.jpg
672.295	0.573	correct	0back	Block1	0back/STIM_017.jpg
676.288	0.614	correct	0back	Block1	0back/STIM_018.jpg
679.5	0.714	correct	0back	Block1	0back/STIM_018.jpg
683.943	0.404	correct	0back	Block1	0back/STIM_018.jpg
687.253	0.506	correct	0back	Block1	0back/STIM_019.jpg
691.581	0.554	correct	0back	Block1	0back/STIM_019.jpg
695.696	0.456	correct	0back	Block1	0back/STIM_019.jpg
698.994	1.098	correct	2back	Block2	2back/STIM_000.jpg
702.339	0.876	correct	2back	Block2	2back/STIM_000.jpg
706.11	0.717	correct	2back	Block2	2back/STIM_000.jpg
710.357	0.671	correct	2back	Block2	2back/STIM_001.jpg
713.361	0.827	correct	2back	Block2	2back/STIM_001.jpg
717.469	0.586	correct	2back	Block2	2back/STIM_001.jpg
721.146	1.156	correct	2back	Block2	2back/STIM_002.jpg
725.1	0.526	correct	2back	Block2	2back/STIM_002.jpg
728.886	0.644	correct	2back	Block2	2back/STIM_002.jpg
732.894	0.942	correct	2back	Block2	2back/STIM_003.jpg
737.293	0.736	correct	2back	Block2	2back/STIM_003.jpg
741.096	0.849	correct	2back	Block2	2back/STIM_003.jpg
745.194	0.772	correct	2back	Block2	2back/STIM_004.jpg
748.768	0.745	correct	2back	Block2	2back/STIM_004.jpg
751.712	0.976	correct	2back	Block2	2back/STIM_004.jpg
756.488	0.726	correct	2back	Block2	2back/STIM_005.jpg
760.958	1.074	correct	2back	Block2	2back/STIM_005.jpg
764.233	0.757	correct	2back	Block2	2back/STIM_005.jpg
768.292	0.956	correct	2back	Block2	2back/STIM_006.jpg
772.969	0.629	correct	2back	Block2	2back/STIM_006.jpg
777.402	0.651	correct	2back	Block2	2back/STIM_006.jpg
781.946	1.117	correct	2back	Block2	2back/STIM_007.jpg
786.005	0.926	correct	2back	Block2	2back/STIM_007.jpg
790.548	0.871	incorrect	2back	Block2	2back/STIM_007.jpg
794.681	1.144	correct	2back	Block2	2back/STIM_008.jpg
798.533	1.035	correct	2back	Block2	2back/STIM_008.jpg
802.996	0.941	correct	2back	Block2	2back/STIM_008.jpg
807.029	0.946	correct	2back	Block2	2back/STIM_009.jpg
810.705	0.591	correct	2back	Block2	2back/STIM_009.jpg
815.174	0.57	correct	2back	Block2	2back/STIM_009.jpg
819.174	1.011	correct	2back	Block2	2back/STIM_010.jpg
824.16	0.945	correct	2back	Block2	2back/STIM_010.jpg
828.843	1.07	correct	2back	Block2	2back/STIM_010.jpg
833.075	0.714	incorrect	2back	Block2	2back/STIM_011.jpg
837.238	1.097	correct	2back	Block2	2back/STIM_011.jpg
840.419	0.838	correct	2back	Block2	2back/STIM_011.jpg
844.898	1.092	correct	2back	Block2	2back/STIM_012.jpg
849.693	1.008	correct	2back	Block2	2back/STIM_012.jpg
853.32	0.933	correct	2back	Block2	2back/STIM_012.jpg
856.578	0.618	correct	2back	Block2	2back/STIM_013.jpg
860.585	0.914	correct	2back	Block2	2back/STIM_013.jpg
864.401	0.437	correct	2back	Block2	2back/STIM_013.jpg
868.874	0.808	correct	2back	Block2	2back/STIM_014.jpg
872.946	0.976	correct	2back	Block2	2back/STIM_014.jpg
876.397	0.628	correct	2back	Block2	2back/STIM_014.jpg
880.727	0.567	correct	2back	Block2	2back/STIM_015.jpg
883.542	1.054	correct	2back	Block2	2back/STIM_015.jpg
887.96	0.854	correct	2back	Block2	2back/STIM_015.jpg
891.718	0.937	correct	2back	Block2	2back/STIM_016.jpg
896.053	0.691	correct	2back	Block2	2back/STIM_016.jpg
898.703	0.995	correct	2back	Block2	2back/STIM_016.jpg
903.471	0.88	correct	2back	Block2	2back/STIM_017.jpg
907.1	0.993	incorrect	2back	Block2	2back/STIM_017.jpg
911.562	0.872	correct	2back	Block2	2back/STIM_017.jpg
914.779	0.907	correct	2back	Block2	2back/STIM_018.jpg
917.929	0.595	correct	2back	Block2	2back/STIM_018.jpg
921.609	0.691	correct	2back	Block2	2back/STIM_018.jpg
924.624	0.573	correct	2back	Block2	2back/STIM_019.jpg
928.354	0.751	correct	2back	Block2	2back/STIM_019.jpg
931.879	0.84	correct	2back	Block2	2back/STIM_019.jpg
935.063	0.988	correct	2back	Block2	2back/STIM_020.jpg
939.886	1.014	correct	2back	Block2	2back/STIM_020.jpg
942.971	0.688	correct	2back	Block2	2back/STIM_020.jpg
946.726	0.545	correct	2back	Block2	2back/STIM_021.jpg
950.269	0.919	correct	2back	Block2	2back/STIM_021.jpg
954.997	0.65	correct	2back	Block2	2back/STIM_021.jpg
958.834	0.866	correct	2back	Block2	2back/STIM_022.jpg
962.349	0.796	correct	2back	Block2	2back/STIM_022.jpg
966.008	1.095	correct	2back	Block2	2back/STIM_022.jpg
970.718	0.551	correct	2back	Block2	2back/STIM_023.jpg
973.371	0.658	incorrect	2back	Block2	2back/STIM_023.jpg
978.071	0.666	correct	2back	Block2	2back/STIM_023.jpg
982.112	0.553	correct	2back	Block2	2back/STIM_024.jpg
985.738	0.808	correct	2back	Block2	2back/STIM_024.jpg
990.128	1.096	correct	2back	Block2	2back/STIM_024.jpg
994.01	0.72	correct	2back	Block2	2back/STIM_025.jpg
998.572	0.878	correct	2back	Block2	2back/STIM_025.jpg
1002.014	0.978	correct	2back	Block2	2back/STIM_025.jpg
1005.309	0.991	correct	2back	Block2	2back/STIM_026.jpg
1009.932	0.795	correct	2back	Block2	2back/STIM_026.jpg
1013.791	0.63	correct	2back	Block2	2back/STIM_026.jpg
1017.539	0.75	correct	2back	Block2	2back/STIM_027.jpg
1021.814	0.606	correct	2back	Block2	2back/STIM_027.jpg
1025.346	0.428	correct	2back	Block2	2back/STIM_027.jpg
1029.23	0.996	correct	2back	Block2	2back/STIM_028.jpg
1032.27	0.95	correct	2back	Block2	2back/STIM_028.jpg
1036.745	0.691	correct	2back	Block2	2back/STIM_028.jpg
1041.382	1.039	correct	2back	Block2	2back/STIM_029.jpg
1045.31	1.066	incorrect	2back	Block2	2back/STIM_029.jpg
1049.029	1.033	correct	2back	Block2	2back/STIM_029.jpg
1053.181	0.726	correct	2back	Block2	2back/STIM_030.jpg
1057.557	0.826	incorrect	2back	Block2	2back/STIM_030.jpg
1060.478	1.001	correct	2back	Block2	2back/STIM_030.jpg
1064.103	0.841	correct	2back	Block2	2back/STIM_031.jpg
1068.433	0.882	correct	2back	Block2	2back/STIM_031.jpg
1071.919	0.807	correct	2back	Block2	2back/STIM_031.jpg
1075.667	1.157	correct	2back	Block2	2back/STIM_032.jpg
1079.638	0.471	correct	2back	Block2	2back/STIM_032.jpg
1083.273	0.948	correct	2back	Block2	2back/STIM_032.jpg
1086.635	0.807	incorrect	2back	Block2	2back/STIM_033.jpg
1089.767	0.485	incorrect	2back	Block2	2back/STIM_033.jpg
1092.818	0.665	correct	2back	Block2	2back/STIM_033.jpg
1097.333	0.818	incorrect	2back	Block2	2back/STIM_034.jpg
1100.945	0.645	correct	2back	Block2	2back/STIM_034.jpg
1105.221	0.533	correct	2back	Block2	2back/STIM_034.jpg
1107.726	0.922	correct	2back	Block2	2back/STIM_035.jpg
1111.369	1.127	correct	2back	Block2	2back/STIM_035.jpg
1116.181	0.633	correct	2back	Block2	2back/STIM_035.jpg
1120.788	1.167	correct	2back	Block2	2back/STIM_036.jpg
1125.031	1.19	correct	2back	Block2	2back/STIM_036.jpg
1128.795	0.706	correct	2back	Block2	2back/STIM_036.jpg
1132.607	1.123	correct	2back	Block2	2back/STIM_037.jpg
1136.767	0.817	correct	2back	Block2	2back/STIM_037.jpg
1140.482	0.488	correct	2back	Block2	2back/STIM_037.jpg
1143.748	1.27	incorrect	2back	Block2	2back/STIM_038.jpg
1146.977	0.967	incorrect	2back	Block2	2back/STIM_038.jpg
1151.169	0.642	correct	2back	Block2	2back/STIM_038.jpg
1154.123	1.139	correct	2back	Block2	2back/STIM_039.jpg
1158.91	0.924	correct	2back	Block2	2back/STIM_039.jpg
1163.571	0.868	correct	2back	Block2	2back/STIM_039.jpg
1167.404	0.444	correct	0back	Block2	0back/STIM_000.jpg
1170.388	0.411	correct	0back	Block2	0back/STIM_000.jpg
1174.497	0.514	correct	0back	Block2	0back/STIM_000.jpg
1178.25	0.82	correct	0back	Block2	0back/STIM_001.jpg
1181.168	0.598	correct	0back	Block2	0back/STIM_001.jpg
1184.14	0.684	correct	0back	Block2	0back/STIM_001.jpg
1187.035	0.736	correct	0back	Block2	0back/STIM_002.jpg
1191.068	0.738	correct	0back	Block2	0back/STIM_002.jpg
1195.433	0.715	correct	0back	Block2	0back/STIM_002.jpg
1200.006	0.708	correct	0back	Block2	0back/STIM_003.jpg
1203.948	0.47	correct	0back	Block2	0back/STIM_003.jpg
1206.566	0.686	correct	0back	Block2	0back/STIM_003.jpg
1210.646	0.524	correct	0back	Block2	0back/STIM_004.jpg
1214.852	0.676	correct	0back	Block2	0back/STIM_004.jpg
1218.536	0.322	correct	0back	Block2	0back/STIM_004.jpg
1221.896	0.443	incorrect	0back	Block2	0back/STIM_005.jpg
1226.052	0.427	correct	0back	Block2	0back/STIM_005.jpg
1230.35	0.548	correct	0back	Block2	0back/STIM_005.jpg
1233.609	0.794	correct	0back	Block2	0back/STIM_006.jpg
1238.291	0.494	correct	0back	Block2	0back/STIM_006.jpg
1242.09	0.664	correct	0back	Block2	0back/STIM_006.jpg
1245.039	0.835	correct	0back	Block2	0back/STIM_007.jpg
1248.127	0.559	correct	0back	Block2	0back/STIM_007.jpg
1251.593	0.474	incorrect	0back	Block2	0back/STIM_007.jpg
1254.502	0.644	correct	0back	Block2	0back/STIM_008.jpg
1258.998	0.539	correct	0back	Block2	0back/STIM_008.jpg
1262.129	0.464	correct	0back	Block2	0back/STIM_008.jpg
1265.627	0.511	correct	0back	Block2	0back/STIM_009.jpg
1269.289	0.5	correct	0back	Block2	0back/STIM_009.jpg
1272.038	0.59	correct	0back	Block2	0back/STIM_009.jpg
1275.824	0.627	correct	0back	Block2	0back/STIM_010.jpg
1279.576	0.57	correct	0back	Block2	0back/STIM_010.jpg
1282.723	0.809	correct	0back	Block2	0back/STIM_010.jpg
1286.835	0.681	correct	0back	Block2	0back/STIM_011.jpg
1290.621	0.488	correct	0back	Block2	0back/STIM_011.jpg
1294.081	0.753	correct	0back	Block2	0back/STIM_011.jpg
1298.544	0.661	correct	0back	Block2	0back/STIM_012.jpg
1302.829	0.536	correct	0back	Block2	0back/STIM_012.jpg
1305.755	0.724	correct	0back	Block2	0back/STIM_012.jpg
1309.756	0.681	correct	0back	Block2	0back/STIM_013.jpg
1314.377	0.504	correct	0back	Block2	0back/STIM_013.jpg
1317.001	0.806	correct	0back	Block2	0back/STIM_013.jpg
1320.461	0.645	correct	0back	Block2	0back/STIM_014.jpg
1324.945	0.515	correct	0back	Block2	0back/STIM_014.jpg
1328.401	0.775	correct	0back	Block2	0back/STIM_014.jpg
1332.316	0.823	correct	0back	Block2	0back/STIM_015.jpg
1335.881	0.506	correct	0back	Block2	0back/STIM_015.jpg
1339.7	0.575	correct	0back	Block2	0back/STIM_015.jpg
1343.803	0.469	incorrect	0back	Block2	0back/STIM_016.jpg
1346.681	0.632	correct	0back	Block2	0back/STIM_016.jpg
1349.273	0.487	correct	0back	Block2	0back/STIM_016.jpg
1352.237	0.542	correct	0back	Block2	0back/STIM_017.jpg
1356.739	0.624	correct	0back	Block2	0back/STIM_017.jpg
1360.67	0.707	correct	0back	Block2	0back/STIM_017.jpg
1364.99	0.75	correct	0back	Block2	0back/STIM_018.jpg
1368.125	0.638	correct	0back	Block2	0back/STIM_018.jpg
1372.056	0.634	correct	0back	Block2	0back/STIM_018.jpg
1375.96	0.533	correct	0back	Block2	0back/STIM_019.jpg
1380.289	0.633	correct	0back	Block2	0back/STIM_019.jpg
1384.842	0.734	correct	0back	Block2	0back/STIM_019.jpg
1389.496	0.676	correct	2back	Block3	2back/STIM_000.jpg
1392.731	0.728	correct	2back	Block3	2back/STIM_000.jpg
1396.53	0.433	correct	2back	Block3	2back/STIM_000.jpg
1399.55	0.58	correct	2back	Block3	2back/STIM_001.jpg
1403.816	0.838	correct	2back	Block3	2back/STIM_001.jpg
1408.088	0.676	correct	2back	Block3	2back/STIM_001.jpg
1412.146	0.928	correct	2back	Block3	2back/STIM_002.jpg
1415.061	0.903	correct	2back	Block3	2back/STIM_002.jpg
1419.706	0.469	correct	2back	Block3	2back/STIM_002.jpg
1423.523	0.951	correct	2back	Block3	2back/STIM_003.jpg
1426.948	0.994	correct	2back	Block3	2back/STIM_003.jpg
1430.145	0.836	correct	2back	Block3	2back/STIM_003.jpg
1434.253	0.679	correct	2back	Block3	2back/STIM_004.jpg
1437.169	0.515	correct	2back	Block3	2back/STIM_004.jpg
1441.461	0.942	correct	2back	Block3	2back/STIM_004.jpg
1445.853	0.791	correct	2back	Block3	2back/STIM_005.jpg
1450.199	0.589	correct	2back	Block3	2back/STIM_005.jpg
1453.373	0.816	correct	2back	Block3	2back/STIM_005.jpg
1456.863	0.79	correct	2back	Block3	2back/STIM_006.jpg
1461.56	0.625	correct	2back	Block3	2back/STIM_006.jpg
1464.556	0.726	correct	2back	Block3	2back/STIM_006.jpg
1467.852	1.009	correct	2back	Block3	2back/STIM_007.jpg
1471.354	0.948	correct	2back	Block3	2back/STIM_007.jpg
1474.636	0.662	correct	2back	Block3	2back/STIM_007.jpg
1478.941	0.607	correct	2back	Block3	2back/STIM_008.jpg
1482.381	0.423	correct	2back	Block3	2back/STIM_008.jpg
1485.417	0.949	correct	2back	Block3	2back/STIM_008.jpg
1489.244	0.692	correct	2back	Block3	2back/STIM_009.jpg
1493.713	0.6	correct	2back	Block3	2back/STIM_009.jpg
1497.659	0.573	correct	2back	Block3	2back/STIM_009.jpg
1501.81	0.714	correct	2back	Block3	2back/STIM_010.jpg
1505.78	0.817	correct	2back	Block3	2back/STIM_010.jpg
1508.723	0.865	correct	2back	Block3	2back/STIM_010.jpg
1513.024	0.375	correct	2back	Block3	2back/STIM_011.jpg
1515.529	0.934	correct	2back	Block3	2back/STIM_011.jpg
1519.71	0.717	correct	2back	Block3	2back/STIM_011.jpg
1522.701	0.67	correct	2back	Block3	2back/STIM_012.jpg
1527.011	0.49	correct	2back	Block3	2back/STIM_012.jpg
1529.789	0.413	correct	2back	Block3	2back/STIM_012.jpg
1532.801	0.964	correct	2back	Block3	2back/STIM_013.jpg
1535.795	0.92	correct	2back	Block3	2back/STIM_013.jpg
1540.09	0.753	correct	2back	Block3	2back/STIM_013.jpg
1544.068	0.833	correct	2back	Block3	2back/STIM_014.jpg
1548.786	0.774	correct	2back	Block3	2back/STIM_014.jpg
1551.691	0.57	correct	2back	Block3	2back/STIM_014.jpg
1555.427	0.678	correct	2back	Block3	2back/STIM_015.jpg
1560.034	0.42	correct	2back	Block3	2back/STIM_015.jpg
1563.182	1.018	correct	2back	Block3	2back/STIM_015.jpg
1567.893	0.578	correct	2back	Block3	2back/STIM_016.jpg
1571.016	0.963	correct	2back	Block3	2back/STIM_016.jpg
1575.812	0.807	correct	2back	Block3	2back/STIM_016.jpg
1580.261	0.935	correct	2back	Block3	2back/STIM_017.jpg
1584.13	0.685	correct	2back	Block3	2back/STIM_017.jpg
1588.523	0.842	correct	2back	Block3	2back/STIM_017.jpg
1593.182	0.81	correct	2back	Block3	2back/STIM_018.jpg
1597.851	0.403	correct	2back	Block3	2back/STIM_018.jpg
1601.44	0.806	correct	2back	Block3	2back/STIM_018.jpg
1604.266	0.864	correct	2back	Block3	2back/STIM_019.jpg
1607.82	0.774	correct	2back	Block3	2back/STIM_019.jpg
1611.639	0.784	correct	2back	Block3	2back/STIM_019.jpg
1615.576	0.744	correct	2back	Block3	2back/STIM_020.jpg
1619.672	0.568	correct	2back	Block3	2back/STIM_020.jpg
1623.519	0.914	correct	2back	Block3	2back/STIM_020.jpg
1627.928	0.58	correct	2back	Block3	2back/STIM_021.jpg
1631.124	1.03	correct	2back	Block3	2back/STIM_021.jpg
1634.706	0.689	correct	2back	Block3	2back/STIM_021.jpg
1638.674	0.682	correct	2back	Block3	2back/STIM_022.jpg
1642.977	0.944	correct	2back	Block3	2back/STIM_022.jpg
1646.991	0.557	correct	2back	Block3	2back/STIM_022.jpg
1650.41	0.968	correct	2back	Block3	2back/STIM_023.jpg
1655.297	0.795	correct	2back	Block3	2back/STIM_023.jpg
1659.424	0.525	correct	2back	Block3	2back/STIM_023.jpg
1663.263	0.982	correct	2back	Block3	2back/STIM_024.jpg
1667.917	0.434	correct	2back	Block3	2back/STIM_024.jpg
1671.118	0.644	correct	2back	Block3	2back/STIM_024.jpg
1674.441	0.489	correct	2back	Block3	2back/STIM_025.jpg
1677.427	0.812	correct	2back	Block3	2back/STIM_025.jpg
1680.426	0.9	correct	2back	Block3	2back/STIM_025.jpg
1684.965	0.784	correct	2back	Block3	2back/STIM_026.jpg
1687.878	0.953	correct	2back	Block3	2back/STIM_026.jpg
1691.083	0.771	correct	2back	Block3	2back/STIM_026.jpg
1695.227	0.559	correct	2back	Block3	2back/STIM_027.jpg
1698.365	0.6	correct	2back	Block3	2back/STIM_027.jpg
1702.726	1.047	correct	2back	Block3	2back/STIM_027.jpg
1706.707	0.764	correct	2back	Block3	2back/STIM_028.jpg
1710.332	0.49	correct	2back	Block3	2back/STIM_028.jpg
1713.314	0.554	correct	2back	Block3	2back/STIM_028.jpg
1716.562	0.64	correct	2back	Block3	2back/STIM_029.jpg
1720.538	0.816	correct	2back	Block3	2back/STIM_029.jpg
1725.212	0.829	correct	2back	Block3	2back/STIM_029.jpg
1729.267	0.808	correct	2back	Block3	2back/STIM_030.jpg
1733.294	0.924	correct	2back	Block3	2back/STIM_030.jpg
1737.721	0.498	correct	2back	Block3	2back/STIM_030.jpg
1741.025	0.859	correct	2back	Block3	2back/STIM_031.jpg
1745.223	0.957	correct	2back	Block3	2back/STIM_031.jpg
1749.899	0.641	correct	2back	Block3	2back/STIM_031.jpg
1752.629	0.497	correct	2back	Block3	2back/STIM_032.jpg
1755.624	0.894	correct	2back	Block3	2back/STIM_032.jpg
1759.219	0.621	correct	2back	Block3	2back/STIM_032.jpg
1761.878	1.055	correct	2back	Block3	2back/STIM_033.jpg
1765.451	0.665	correct	2back	Block3	2back/STIM_033.jpg
1769.449	0.659	correct	2back	Block3	2back/STIM_033.jpg
1773.488	0.628	correct	2back	Block3	2back/STIM_034.jpg
1777.013	0.759	correct	2back	Block3	2back/STIM_034.jpg
1781.261	0.509	correct	2back	Block3	2back/STIM_034.jpg
1785.01	0.869	correct	2back	Block3	2back/STIM_035.jpg
1789.205	0.626	correct	2back	Block3	2back/STIM_035.jpg
1793.377	0.821	correct	2back	Block3	2back/STIM_035.jpg
1797.867	0.784	correct	2back	Block3	2back/STIM_036.jpg
1801.224	0.62	correct	2back	Block3	2back/STIM_036.jpg
1805.505	0.451	correct	2back	Block3	2back/STIM_036.jpg
1809.638	0.698	correct	2back	Block3	2back/STIM_037.jpg
1812.472	0.556	correct	2back	Block3	2back/STIM_037.jpg
1816.247	0.933	correct	2back	Block3	2back/STIM_037.jpg
1819.554	0.865	correct	2back	Block3	2back/STIM_038.jpg
1823.574	0.902	correct	2back	Block3	2back/STIM_038.jpg
1827.809	0.737	correct	2back	Block3	2back/STIM_038.jpg
1830.774	0.744	incorrect	2back	Block3	2back/STIM_039.jpg
1834.286	0.63	correct	2back	Block3	2back/STIM_039.jpg
1837.338	0.501	correct	2back	Block3	2back/STIM_039.jpg
1841.035	0.51	correct	0back	Block3	0back/STIM_000.jpg
1844.971	0.91	correct	0back	Block3	0back/STIM_000.jpg
1847.803	0.639	correct	0back	Block3	0back/STIM_000.jpg
1852.4	0.587	correct	0back	Block3	0back/STIM_001.jpg
1856.853	0.739	correct	0back	Block3	0back/STIM_001.jpg
1860.227	0.625	correct	0back	Block3	0back/STIM_001.jpg
1863.199	0.45	correct	0back	Block3	0back/STIM_002.jpg
1866.242	0.794	correct	0back	Block3	0back/STIM_002.jpg
1870.432	0.461	correct	0back	Block3	0back/STIM_002.jpg
1874.57	0.567	correct	0back	Block3	0back/STIM_003.jpg
1878.334	0.673	correct	0back	Block3	0back/STIM_003.jpg
1882.729	0.689	correct	0back	Block3	0back/STIM_003.jpg
1886.204	0.699	correct	0back	Block3	0back/STIM_004.jpg
1889.391	0.301	correct	0back	Block3	0back/STIM_004.jpg
1892.209	0.347	correct	0back	Block3	0back/STIM_004.jpg
1894.828	0.834	correct	0back	Block3	0back/STIM_005.jpg
1898.253	0.696	correct	0back	Block3	0back/STIM_005.jpg
1901.876	0.785	correct	0back	Block3	0back/STIM_005.jpg
1905.963	0.575	correct	0back	Block3	0back/STIM_006.jpg
1908.987	0.75	correct	0back	Block3	0back/STIM_006.jpg
1912.751	0.541	correct	0back	Block3	0back/STIM_006.jpg
1917.058	0.788	correct	0back	Block3	0back/STIM_007.jpg
1920.691	0.824	correct	0back	Block3	0back/STIM_007.jpg
1924.804	0.796	correct	0back	Block3	0back/STIM_007.jpg
1929.091	0.624	correct	0back	Block3	0back/STIM_008.jpg
1931.819	0.735	correct	0back	Block3	0back/STIM_008.jpg
1935.742	0.445	correct	0back	Block3	0back/STIM_008.jpg
1938.596	0.853	correct	0back	Block3	0back/STIM_009.jpg
1941.871	0.57	correct	0back	Block3	0back/STIM_009.jpg
1944.801	0.456	correct	0back	Block3	0back/STIM_009.jpg
1949.309	0.43	incorrect	0back	Block3	0back/STIM_010.jpg
1952.581	0.761	correct	0back	Block3	0back/STIM_010.jpg
1955.851	0.398	correct	0back	Block3	0back/STIM_010.jpg
1959.141	0.564	correct	0back	Block3	0back/STIM_011.jpg
1963.608	0.398	correct	0back	Block3	0back/STIM_011.jpg
1966.365	0.713	correct	0back	Block3	0back/STIM_011.jpg
1970.379	0.827	correct	0back	Block3	0back/STIM_012.jpg
1973.464	0.554	correct	0back	Block3	0back/STIM_012.jpg
1976.16	0.615	correct	0back	Block3	0back/STIM_012.jpg
1980.138	0.607	correct	0back	Block3	0back/STIM_013.jpg
1983.556	0.772	correct	0back	Block3	0back/STIM_013.jpg
1987.931	0.951	correct	0back	Block3	0back/STIM_013.jpg
1990.899	0.736	correct	0back	Block3	0back/STIM_014.jpg
1994.634	0.667	correct	0back	Block3	0back/STIM_014.jpg
1998.731	0.574	correct	0back	Block3	0back/STIM_014.jpg
2003.199	0.671	correct	0back	Block3	0back/STIM_015.jpg
2006.184	0.786	correct	0back	Block3	0back/STIM_015.jpg
2010.204	0.853	correct	0back	Block3	0back/STIM_015.jpg
2014.084	0.571	correct	0back	Block3	0back/STIM_016.jpg
2017.216	0.702	correct	0back	Block3	0back/STIM_016.jpg
2020.62	0.576	correct	0back	Block3	0back/STIM_016.jpg
2023.912	0.77	correct	0back	Block3	0back/STIM_017.jpg
2028.096	0.462	correct	0back	Block3	0back/STIM_017.jpg
2031.745	0.791	correct	0back	Block3	0back/STIM_017.jpg
2036.316	0.488	correct	0back	Block3	0back/STIM_018.jpg
2040.735	0.81	correct	0back	Block3	0back/STIM_018.jpg
2044.446	0.61	correct	0back	Block3	0back/STIM_018.jpg
2048.089	0.782	correct	0back	Block3	0back/STIM_019.jpg
2052.289	0.492	correct	0back	Block3	0back/STIM_019.jpg
2056.528	0.566	correct	0back	Block3	0back/STIM_019.jpg
2060.266	0.718	correct	2back	Block4	2back/STIM_000.jpg
2063.948	0.994	correct	2back	Block4	2back/STIM_000.jpg
2068.372	0.543	correct	2back	Block4	2back/STIM_000.jpg
2071.508	0.531	correct	2back	Block4	2back/STIM_001.jpg
2074.901	0.624	correct	2back	Block4	2back/STIM_001.jpg
2077.848	0.601	correct	2back	Block4	2back/STIM_001.jpg
2080.697	0.592	correct	2back	Block4	2back/STIM_002.jpg
2084.347	0.875	correct	2back	Block4	2back/STIM_002.jpg
2088.53	0.543	correct	2back	Block4	2back/STIM_002.jpg
2092.829	0.642	correct	2back	Block4	2back/STIM_003.jpg
2097.256	0.579	correct	2back	Block4	2back/STIM_003.jpg
2101.576	0.954	correct	2back	Block4	2back/STIM_003.jpg
2105.285	0.804	correct	2back	Block4	2back/STIM_004.jpg
2108.368	0.655	correct	2back	Block4	2back/STIM_004.jpg
2111.458	0.466	correct	2back	Block4	2back/STIM_004.jpg
2115.507	0.971	correct	2back	Block4	2back/STIM_005.jpg
2119.763	0.89	correct	2back	Block4	2back/STIM_005.jpg
2124.324	1.017	correct	2back	Block4	2back/STIM_005.jpg
2128.902	0.791	correct	2back	Block4	2back/STIM_006.jpg
2132.143	0.746	correct	2back	Block4	2back/STIM_006.jpg
2136.28	0.517	correct	2back	Block4	2back/STIM_006.jpg
2140.719	0.595	correct	2back	Block4	2back/STIM_007.jpg
2145.262	0.726	correct	2back	Block4	2back/STIM_007.jpg
2148.752	0.838	correct	2back	Block4	2back/STIM_007.jpg
2153.224	0.865	correct	2back	Block4	2back/STIM_008.jpg
2156.113	0.46	correct	2back	Block4	2back/STIM_008.jpg
2160.084	0.652	correct	2back	Block4	2back/STIM_008.jpg
2163.053	0.939	correct	2back	Block4	2back/STIM_009.jpg
2167.446	0.709	correct	2back	Block4	2back/STIM_009.jpg
2171.01	0.604	correct	2back	Block4	2back/STIM_009.jpg
2174.353	0.654	correct	2back	Block4	2back/STIM_010.jpg
2177.338	0.917	correct	2back	Block4	2back/STIM_010.jpg
2181.728	0.611	correct	2back	Block4	2back/STIM_010.jpg
2185.27	0.722	correct	2back	Block4	2back/STIM_011.jpg
2190.021	0.821	correct	2back	Block4	2back/STIM_011.jpg
2194.279	0.658	correct	2back	Block4	2back/STIM_011.jpg
2198.385	0.532	correct	2back	Block4	2back/STIM_012.jpg
2200.943	0.646	correct	2back	Block4	2back/STIM_012.jpg
2204.902	0.467	correct	2back	Block4	2back/STIM_012.jpg
2208.007	0.627	correct	2back	Block4	2back/STIM_013.jpg
2211.279	0.834	correct	2back	Block4	2back/STIM_013.jpg
2215.043	0.61	correct	2back	Block4	2back/STIM_013.jpg
2217.666	0.932	correct	2back	Block4	2back/STIM_014.jpg
2221.133	0.533	correct	2back	Block4	2back/STIM_014.jpg
2224.23	0.487	correct	2back	Block4	2back/STIM_014.jpg
2227.812	0.683	correct	2back	Block4	2back/STIM_015.jpg
2232.263	0.535	correct	2back	Block4	2back/STIM_015.jpg
2236.112	0.539	correct	2back	Block4	2back/STIM_015.jpg
2238.942	0.466	correct	2back	Block4	2back/STIM_016.jpg
2241.531	0.385	correct	2back	Block4	2back/STIM_016.jpg
2244.22	0.813	correct	2back	Block4	2back/STIM_016.jpg
2248.477	0.61	correct	2back	Block4	2back/STIM_017.jpg
2252.822	0.523	correct	2back	Block4	2back/STIM_017.jpg
2256.409	0.413	correct	2back	Block4	2back/STIM_017.jpg
2259.653	0.633	correct	2back	Block4	2back/STIM_018.jpg
2263.993	0.773	correct	2back	Block4	2back/STIM_018.jpg
2267.712	0.442	correct	2back	Block4	2back/STIM_018.jpg
2270.191	0.606	correct	2back	Block4	2back/STIM_019.jpg
2274.668	0.599	correct	2back	Block4	2back/STIM_019.jpg
2278.295	0.668	correct	2back	Block4	2back/STIM_019.jpg
2281.74	0.894	correct	2back	Block4	2back/STIM_020.jpg
2284.883	0.683	correct	2back	Block4	2back/STIM_020.jpg
2288.428	0.428	correct	2back	Block4	2back/STIM_020.jpg
2292.326	0.5	correct	2back	Block4	2back/STIM_021.jpg
2295.984	0.538	correct	2back	Block4	2back/STIM_021.jpg
2298.672	0.731	correct	2back	Block4	2back/STIM_021.jpg
2303.211	0.595	correct	2back	Block4	2back/STIM_022.jpg
2307.252	0.614	correct	2back	Block4	2back/STIM_022.jpg
2311.118	0.888	correct	2back	Block4	2back/STIM_022.jpg
2314.661	0.485	correct	2back	Block4	2back/STIM_023.jpg
2317.546	0.581	correct	2back	Block4	2back/STIM_023.jpg
2321.3	0.744	correct	2back	Block4	2back/STIM_023.jpg
2325.389	0.703	correct	2back	Block4	2back/STIM_024.jpg
2328.73	0.412	correct	2back	Block4	2back/STIM_024.jpg
2332.693	0.858	correct	2back	Block4	2back/STIM_024.jpg
2336.705	1.005	correct	2back	Block4	2back/STIM_025.jpg
2339.668	0.65	correct	2back	Block4	2back/STIM_025.jpg
2342.633	0.609	correct	2back	Block4	2back/STIM_025.jpg
2345.719	0.834	correct	2back	Block4	2back/STIM_026.jpg
2349.761	0.838	correct	2back	Block4	2back/STIM_026.jpg
2353.36	0.789	correct	2back	Block4	2back/STIM_026.jpg
2356.19	0.716	correct	2back	Block4	2back/STIM_027.jpg
2360.709	0.743	correct	2back	Block4	2back/STIM_027.jpg
2364.142	0.978	correct	2back	Block4	2back/STIM_027.jpg
2367.133	0.561	correct	2back	Block4	2back/STIM_028.jpg
2371.045	0.63	correct	2back	Block4	2back/STIM_028.jpg
2373.698	0.711	correct	2back	Block4	2back/STIM_028.jpg
2378.139	0.76	correct	2back	Block4	2back/STIM_029.jpg
2381.928	0.395	correct	2back	Block4	2back/STIM_029.jpg
2385.253	0.425	correct	2back	Block4	2back/STIM_029.jpg
2388.48	0.664	correct	2back	Block4	2back/STIM_030.jpg
2391.86	0.598	correct	2back	Block4	2back/STIM_030.jpg
2395.773	0.473	correct	2back	Block4	2back/STIM_030.jpg
2398.585	0.754	correct	2back	Block4	2back/STIM_031.jpg
2401.575	0.998	correct	2back	Block4	2back/STIM_031.jpg
2405.12	0.871	correct	2back	Block4	2back/STIM_031.jpg
2408.151	0.769	correct	2back	Block4	2back/STIM_032.jpg
2412.078	0.795	correct	2back	Block4	2back/STIM_032.jpg
2415.473	0.904	correct	2back	Block4	2back/STIM_032.jpg
2419.0	0.83	correct	2back	Block4	2back/STIM_033.jpg
2423.205	0.868	correct	2back	Block4	2back/STIM_033.jpg
2427.891	0.451	correct	2back	Block4	2back/STIM_033.jpg
2431.329	0.978	correct	2back	Block4	2back/STIM_034.jpg
2434.587	0.834	correct	2back	Block4	2back/STIM_034.jpg
2439.428	0.916	correct	2back	Block4	2back/STIM_034.jpg
2444.177	0.692	correct	2back	Block4	2back/STIM_035.jpg
2447.732	0.785	correct	2back	Block4	2back/STIM_035.jpg
2451.098	0.97	correct	2back	Block4	2back/STIM_035.jpg
2454.692	0.989	correct	2back	Block4	2back/STIM_036.jpg
2458.191	0.426	correct	2back	Block4	2back/STIM_036.jpg
2461.364	1.018	incorrect	2back	Block4	2back/STIM_036.jpg
2465.883	0.526	correct	2back	Block4	2back/STIM_037.jpg
2469.614	0.32	correct	2back	Block4	2back/STIM_037.jpg
2473.73	0.565	correct	2back	Block4	2back/STIM_037.jpg
2478.162	0.761	correct	2back	Block4	2back/STIM_038.jpg
2481.659	0.597	correct	2back	Block4	2back/STIM_038.jpg
2486.02	0.764	correct	2back	Block4	2back/STIM_038.jpg
2489.707	0.686	correct	2back	Block4	2back/STIM_039.jpg
2493.282	0.709	correct	2back	Block4	2back/STIM_039.jpg
2496.569	0.459	correct	2back	Block4	2back/STIM_039.jpg
2500.261	0.75	correct	0back	Block4	0back/STIM_000.jpg
2504.637	0.805	correct	0back	Block4	0back/STIM_000.jpg
2507.731	0.524	correct	0back	Block4	0back/STIM_000.jpg
2511.967	0.881	correct	0back	Block4	0back/STIM_001.jpg
2515.72	0.806	correct	0back	Block4	0back/STIM_001.jpg
2518.826	0.687	correct	0back	Block4	0back/STIM_001.jpg
2522.598	0.72	correct	0back	Block4	0back/STIM_002.jpg
2525.574	0.567	correct	0back	Block4	0back/STIM_002.jpg
2529.213	0.783	correct	0back	Block4	0back/STIM_002.jpg
2532.183	0.507	correct	0back	Block4	0back/STIM_003.jpg
2535.023	0.47	correct	0back	Block4	0back/STIM_003.jpg
2539.322	0.53	correct	0back	Block4	0back/STIM_003.jpg
2542.984	0.53	correct	0back	Block4	0back/STIM_004.jpg
2546.441	0.817	incorrect	0back	Block4	0back/STIM_004.jpg
2550.831	0.544	correct	0back	Block4	0back/STIM_004.jpg
2554.006	0.551	correct	0back	Block4	0back/STIM_005.jpg
2556.7	0.696	correct	0back	Block4	0back/STIM_005.jpg
2561.062	0.504	correct	0back	Block4	0back/STIM_005.jpg
2564.644	0.481	incorrect	0back	Block4	0back/STIM_006.jpg
2567.277	0.528	correct	0back	Block4	0back/STIM_006.jpg
2571.523	0.573	correct	0back	Block4	0back/STIM_006.jpg
2575.963	0.399	correct	0back	Block4	0back/STIM_007.jpg
2579.741	0.693	correct	0back	Block4	0back/STIM_007.jpg
2582.898	0.834	correct	0back	Block4	0back/STIM_007.jpg
2587.078	0.538	correct	0back	Block4	0back/STIM_008.jpg
2591.328	0.431	correct	0back	Block4	0back/STIM_008.jpg
2595.281	0.506	correct	0back	Block4	0back/STIM_008.jpg
2598.251	0.673	correct	0back	Block4	0back/STIM_009.jpg
2602.403	0.56	correct	0back	Block4	0back/STIM_009.jpg
2605.3	0.523	incorrect	0back	Block4	0back/STIM_009.jpg
2609.385	0.599	correct	0back	Block4	0back/STIM_010.jpg
2612.646	0.75	correct	0back	Block4	0back/STIM_010.jpg
2616.67	0.719	correct	0back	Block4	0back/STIM_010.jpg
2619.425	0.66	correct	0back	Block4	0back/STIM_011.jpg
2623.013	0.765	correct	0back	Block4	0back/STIM_011.jpg
2626.323	0.544	correct	0back	Block4	0back/STIM_011.jpg
2630.196	0.664	correct	0back	Block4	0back/STIM_012.jpg
2634.609	0.774	correct	0back	Block4	0back/STIM_012.jpg
2638.606	0.738	correct	0back	Block4	0back/STIM_012.jpg
2642.548	0.527	correct	0back	Block4	0back/STIM_013.jpg
2646.553	0.501	correct	0back	Block4	0back/STIM_013.jpg
2650.352	0.609	correct	0back	Block4	0back/STIM_013.jpg
2653.057	0.767	correct	0back	Block4	0back/STIM_014.jpg
2657.617	0.565	correct	0back	Block4	0back/STIM_014.jpg
2660.373	0.509	correct	0back	Block4	0back/STIM_014.jpg
2663.321	0.554	correct	0back	Block4	0back/STIM_015.jpg
2667.746	0.428	correct	0back	Block4	0back/STIM_015.jpg
2670.418	0.529	correct	0back	Block4	0back/STIM_015.jpg
2674.744	0.734	correct	0back	Block4	0back/STIM_016.jpg
2678.438	0.592	correct	0back	Block4	0back/STIM_016.jpg
2681.296	0.488	correct	0back	Block4	0back/STIM_016.jpg
2685.18	0.618	correct	0back	Block4	0back/STIM_017.jpg
2689.577	0.573	correct	0back	Block4	0back/STIM_017.jpg
2693.666	0.667	correct	0back	Block4	0back/STIM_017.jpg
2697.986	0.46	correct	0back	Block4	0back/STIM_018.jpg
2701.11	0.756	correct	0back	Block4	0back/STIM_018.jpg
2704.166	0.565	correct	0back	Block4	0back/STIM_018.jpg
2708.587	0.608	correct	0back	Block4	0back/STIM_019.jpg
2711.273	0.412	correct	0back	Block4	0back/STIM_019.jpg
2715.029	0.681	correct	0back	Block4	0back/STIM_019.jpg
