onset	duration	response_time_ms	trial_type	learning_stage	stimulus	response_port
0.0	1.215	1214.9	2back	Block1	2back/STIM_000.jpg	100
4.467	0.78	779.7	2back	Block1	2back/STIM_000.jpg	100
8.688	0.742	741.5	2back	Block1	2back/STIM_000.jpg	99
12.959	0.676	676.0	2back	Block1	2back/STIM_001.jpg	99
16.984	0.93	930.2	2back	Block1	2back/STIM_001.jpg	100
19.893	1.178	1178.3	2back	Block1	2back/STIM_001.jpg	99
23.907	0.805	805.1	2back	Block1	2back/STIM_002.jpg	99
27.503	1.222	1222.3	2back	Block1	2back/STIM_002.jpg	99
32.446	0.838	838.2	2back	Block1	2back/STIM_002.jpg	99
35.773	1.251	1250.7	2back	Block1	2back/STIM_003.jpg	99
39.182	1.096	1096.4	2back	Block1	2back/STIM_003.jpg	100
42.363	1.186	1186.4	2back	Block1	2back/STIM_003.jpg	100
46.201	0.762	761.5	2back	Block1	2back/STIM_004.jpg	100
50.166	1.174	1173.8	2back	Block1	2back/STIM_004.jpg	100
55.232	0.984	984.3	2back	Block1	2back/STIM_004.jpg	99
59.817	1.242	1241.6	2back	Block1	2back/STIM_005.jpg	100
64.286	0.877	877.4	2back	Block1	2back/STIM_005.jpg	99
67.991	0.594	593.7	2back	Block1	2back/STIM_005.jpg	99
71.04	1.295	1294.8	2back	Block1	2back/STIM_006.jpg	99
74.714	1.014	1014.1	2back	Block1	2back/STIM_006.jpg	99
77.725	0.686	685.7	2back	Block1	2back/STIM_006.jpg	100
80.968	0.981	980.9	2back	Block1	2back/STIM_007.jpg	99
83.884	1.036	1035.5	2back	Block1	2back/STIM_007.jpg	99
87.737	1.027	1026.9	2back	Block1	2back/STIM_007.jpg	100
92.033	1.196	1196.4	2back	Block1	2back/STIM_008.jpg	100
96.876	0.702	702.1	2back	Block1	2back/STIM_008.jpg	99
101.292	0.744	743.7	2back	Block1	2back/STIM_008.jpg	100
104.158	1.106	1106.4	2back	Block1	2back/STIM_009.jpg	99
107.705	1.227	1227.0	2back	Block1	2back/STIM_009.jpg	100
111.447	0.552	551.9	2back	Block1	2back/STIM_009.jpg	99
114.742	0.867	866.9	2back	Block1	2back/STIM_010.jpg	100
118.001	1.243	1243.0	2back	Block1	2back/STIM_010.jpg	99
123.182	1.144	1144.3	2back	Block1	2back/STIM_010.jpg	100
126.327	0.855	854.6	2back	Block1	2back/STIM_011.jpg	99
130.56	1.003	1002.6	2back	Block1	2back/STIM_011.jpg	99
135.463	0.992	992.1	2back	Block1	2back/STIM_011.jpg	99
139.613	1.32	1320.0	2back	Block1	2back/STIM_012.jpg	99
144.111	0.966	965.8	2back	Block1	2back/STIM_012.jpg	99
147.666	0.881	880.6	2back	Block1	2back/STIM_012.jpg	99
152.204	0.828	828.3	2back	Block1	2back/STIM_013.jpg	99
156.042	0.583	582.7	2back	Block1	2back/STIM_013.jpg	99
159.756	0.703	703.3	2back	Block1	2back/STIM_013.jpg	99
162.931	0.655	654.9	2back	Block1	2back/STIM_014.jpg	100
166.257	0.856	855.6	2back	Block1	2back/STIM_014.jpg	99
169.7	1.091	1090.6	2back	Block1	2back/STIM_014.jpg	99
174.419	1.4	1400.3	2back	Block1	2back/STIM_015.jpg	99
178.356	1.15	1149.8	2back	Block1	2back/STIM_015.jpg	99
183.031	0.678	677.7	2back	Block1	2back/STIM_015.jpg	99
186.201	0.852	852.3	2back	Block1	2back/STIM_016.jpg	99
190.92	1.326	1326.2	2back	Block1	2back/STIM_016.jpg	99
195.062	1.21	1210.0	2back	Block1	2back/STIM_016.jpg	100
199.472	1.114	1114.0	2back	Block1	2back/STIM_017.jpg	100
203.524	0.844	844.5	2back	Block1	2back/STIM_017.jpg	99
207.912	0.803	802.6	2back	Block1	2back/STIM_017.jpg	99
212.138	0.689	689.4	2back	Block1	2back/STIM_018.jpg	100
215.376	0.575	574.7	2back	Block1	2back/STIM_018.jpg	99
218.492	0.955	955.4	2back	Block1	2back/STIM_018.jpg	99
222.964	0.78	779.8	2back	Block1	2back/STIM_019.jpg	99
227.165	0.569	569.0	2back	Block1	2back/STIM_019.jpg	99
230.048	0.93	930.4	2back	Block1	2back/STIM_019.jpg	99
234.596	1.4	1399.8	2back	Block1	2back/STIM_020.jpg	99
238.727	1.187	1187.3	2back	Block1	2back/STIM_020.jpg	99
243.243	1.196	1195.5	2back	Block1	2back/STIM_020.jpg	99
246.445	1.359	1358.8	2back	Block1	2back/STIM_021.jpg	99
251.52	0.585	584.7	2back	Block1	2back/STIM_021.jpg	100
254.917	1.052	1051.5	2back	Block1	2back/STIM_021.jpg	100
258.808	1.316	1315.9	2back	Block1	2back/STIM_022.jpg	99
263.169	0.976	976.0	2back	Block1	2back/STIM_022.jpg	100
267.217	1.14	1140.0	2back	Block1	2back/STIM_022.jpg	99
271.928	1.159	1159.4	2back	Block1	2back/STIM_023.jpg	100
276.833	0.987	986.6	2back	Block1	2back/STIM_023.jpg	99
281.44	0.613	613.2	2back	Block1	2back/STIM_023.jpg	100
285.156	0.972	972.0	2back	Block1	2back/STIM_024.jpg	100
288.09	0.727	727.4	2back	Block1	2back/STIM_024.jpg	100
291.173	1.148	1148.4	2back	Block1	2back/STIM_024.jpg	100
295.364	1.231	1231.1	2back	Block1	2back/STIM_025.jpg	99
300.015	0.926	925.7	2back	Block1	2back/STIM_025.jpg	99
304.086	0.565	564.7	2back	Block1	2back/STIM_025.jpg	99
308.637	1.348	1348.5	2back	Block1	2back/STIM_026.jpg	99
312.261	0.631	630.9	2back	Block1	2back/STIM_026.jpg	100
316.018	1.103	1102.7	2back	Block1	2back/STIM_026.jpg	99
319.977	0.702	701.5	2back	Block1	2back/STIM_027.jpg	99
324.4	1.317	1317.3	2back	Block1	2back/STIM_027.jpg	100
328.552	0.949	949.1	2back	Block1	2back/STIM_027.jpg	100
333.315	1.067	1067.1	2back	Block1	2back/STIM_028.jpg	99
337.122	0.884	884.2	2back	Block1	2back/STIM_028.jpg	99
341.442	0.786	786.2	2back	Block1	2back/STIM_028.jpg	99
345.972	1.415	1415.2	2back	Block1	2back/STIM_029.jpg	100
350.645	1.179	1178.6	2back	Block1	2back/STIM_029.jpg	99
354.287	0.596	595.8	2back	Block1	2back/STIM_029.jpg	100
358.336	1.412	1411.7	2back	Block1	2back/STIM_030.jpg	99
361.674	0.555	555.1	2back	Block1	2back/STIM_030.jpg	99
365.722	0.712	711.9	2back	Block1	2back/STIM_030.jpg	99
369.332	0.867	866.7	2back	Block1	2back/STIM_031.jpg	100
373.348	1.163	1163.3	2back	Block1	2back/STIM_031.jpg	100
377.64	0.78	780.5	2back	Block1	2back/STIM_031.jpg	99
381.169	0.89	889.9	2back	Block1	2back/STIM_032.jpg	99
384.427	0.884	884.4	2back	Block1	2back/STIM_032.jpg	99
387.362	1.076	1076.1	2back	Block1	2back/STIM_032.jpg	100
391.899	1.124	1124.1	2back	Block1	2back/STIM_033.jpg	99
395.87	0.983	982.8	2back	Block1	2back/STIM_033.jpg	99
399.035	1.308	1308.5	2back	Block1	2back/STIM_033.jpg	99
403.541	0.881	880.9	2back	Block1	2back/STIM_034.jpg	100
407.409	0.794	794.5	2back	Block1	2back/STIM_034.jpg	99
410.482	1.345	1345.4	2back	Block1	2back/STIM_034.jpg	100
415.272	1.222	1221.6	2back	Block1	2back/STIM_035.jpg	99
419.426	1.294	1293.5	2back	Block1	2back/STIM_035.jpg	100
423.943	1.082	1082.5	2back	Block1	2back/STIM_035.jpg	100
427.564	0.734	733.7	2back	Block1	2back/STIM_036.jpg	100
431.462	1.103	1102.6	2back	Block1	2back/STIM_036.jpg	100
436.149	1.176	1175.8	2back	Block1	2back/STIM_036.jpg	99
440.552	1.319	1318.7	2back	Block1	2back/STIM_037.jpg	99
445.624	0.555	554.8	2back	Block1	2back/STIM_037.jpg	100
448.4	0.888	888.1	2back	Block1	2back/STIM_037.jpg	99
451.586	1.344	1343.7	2back	Block1	2back/STIM_038.jpg	100
455.648	1.258	1257.8	2back	Block1	2back/STIM_038.jpg	100
459.56	0.651	650.7	2back	Block1	2back/STIM_038.jpg	100
463.035	0.735	735.0	2back	Block1	2back/STIM_039.jpg	99
466.569	1.241	1240.9	2back	Block1	2back/STIM_039.jpg	100
470.86	0.976	976.3	2back	Block1	2back/STIM_039.jpg	99
474.412	0.471	470.9	0back	Block1	0back/STIM_000.jpg	100
477.874	0.555	554.8	0back	Block1	0back/STIM_000.jpg	100
482.412	0.508	508.3	0back	Block1	0back/STIM_000.jpg	100
485.634	0.642	642.1	0back	Block1	0back/STIM_001.jpg	100
489.026	0.602	601.5	0back	Block1	0back/STIM_001.jpg	99
493.317	0.512	511.9	0back	Block1	0back/STIM_001.jpg	100
497.708	0.646	645.5	0back	Block1	0back/STIM_002.jpg	99
502.136	0.457	457.3	0back	Block1	0back/STIM_002.jpg	99
505.628	0.64	640.2	0back	Block1	0back/STIM_002.jpg	100
509.054	0.685	685.3	0back	Block1	0back/STIM_003.jpg	99
512.352	0.719	718.8	0back	Block1	0back/STIM_003.jpg	100
516.962	0.437	437.3	0back	Block1	0back/STIM_003.jpg	100
520.375	0.777	777.2	0back	Block1	0back/STIM_004.jpg	99
523.56	0.465	465.4	0back	Block1	0back/STIM_004.jpg	99
527.77	0.443	443.3	0back	Block1	0back/STIM_004.jpg	99
531.213	0.727	726.8	0back	Block1	0back/STIM_005.jpg	100
534.11	0.63	630.2	0back	Block1	0back/STIM_005.jpg	100
538.565	0.717	717.4	0back	Block1	0back/STIM_005.jpg	99
541.34	0.707	707.2	0back	Block1	0back/STIM_006.jpg	99
545.046	0.478	477.6	0back	Block1	0back/STIM_006.jpg	100
547.688	0.566	566.2	0back	Block1	0back/STIM_006.jpg	100
551.893	0.62	619.5	0back	Block1	0back/STIM_007.jpg	100
556.377	0.491	490.6	0back	Block1	0back/STIM_007.jpg	99
559.515	0.6	600.2	0back	Block1	0back/STIM_007.jpg	100
562.833	0.781	780.7	0back	Block1	0back/STIM_008.jpg	99
566.681	0.61	609.5	0back	Block1	0back/STIM_008.jpg	100
570.616	0.682	682.0	0back	Block1	0back/STIM_008.jpg	100
574.377	0.667	667.2	0back	Block1	0back/STIM_009.jpg	100
579.023	0.585	584.9	0back	Block1	0back/STIM_009.jpg	99
582.593	0.743	743.0	0back	Block1	0back/STIM_009.jpg	100
587.063	0.601	601.1	0back	Block1	0back/STIM_010.jpg	99
590.142	0.609	609.2	0back	Block1	0back/STIM_010.jpg	99
594.365	0.843	843.0	0back	Block1	0back/STIM_010.jpg	99
597.76	0.514	513.7	0back	Block1	0back/STIM_011.jpg	100
601.116	0.849	849.0	0back	Block1	0back/STIM_011.jpg	99
605.113	0.552	552.3	0back	Block1	0back/STIM_011.jpg	99
609.649	0.679	679.1	0back	Block1	0back/STIM_012.jpg	100
612.69	0.729	728.6	0back	Block1	0back/STIM_012.jpg	99
616.619	0.688	688.2	0back	Block1	0back/STIM_012.jpg	99
620.171	0.684	684.3	0back	Block1	0back/STIM_013.jpg	99
624.179	0.445	445.0	0back	Block1	0back/STIM_013.jpg	99
628.176	0.81	809.8	0back	Block1	0back/STIM_013.jpg	100
631.317	0.605	604.7	0back	Block1	0back/STIM_014.jpg	100
634.514	0.55	549.7	0back	Block1	0back/STIM_014.jpg	100
638.652	0.436	435.7	0back	Block1	0back/STIM_014.jpg	99
642.522	0.807	807.2	0back	Block1	0back/STIM_015.jpg	100
645.551	0.711	711.0	0back	Block1	0back/STIM_015.jpg	99
650.097	0.571	570.8	0back	Block1	0back/STIM_015.jpg	100
653.024	0.616	616.1	0back	Block1	0back/STIM_016.jpg	100
656.841	0.719	719.1	0back	Block1	0back/STIM_016.jpg	99
661.174	0.511	510.8	0back	Block1	0back/STIM_016.jpg	99
665.377	0.727	727.3	0back	Block1	0back/STIM_017.jpg	100
668.539	0.594	593.5	0back	Block1	0back/STIM_017.jpg	99
672.295	0.573	573.3	0back	Block1	0back/STIM_017.jpg	100
676.288	0.614	614.1	0back	Block1	0back/STIM_018.jpg	100
679.5	0.714	714.1	0back	Block1	0back/STIM_018.jpg	99
683.943	0.404	403.7	0back	Block1	0back/STIM_018.jpg	99
687.253	0.506	505.7	0back	Block1	0back/STIM_019.jpg	100
691.581	0.554	554.0	0back	Block1	0back/STIM_019.jpg	99
695.696	0.456	455.7	0back	Block1	0back/STIM_019.jpg	100
698.994	1.098	1098.1	2back	Block2	2back/STIM_000.jpg	99
702.339	0.876	875.8	2back	Block2	2back/STIM_000.jpg	100
706.11	0.717	716.9	2back	Block2	2back/STIM_000.jpg	99
710.357	0.671	671.2	2back	Block2	2back/STIM_001.jpg	100
713.361	0.827	827.3	2back	Block2	2back/STIM_001.jpg	99
717.469	0.586	586.4	2back	Block2	2back/STIM_001.jpg	100
721.146	1.156	1156.0	2back	Block2	2back/STIM_002.jpg	100
725.1	0.526	526.5	2back	Block2	2back/STIM_002.jpg	100
728.886	0.644	644.1	2back	Block2	2back/STIM_002.jpg	100
732.894	0.942	942.4	2back	Block2	2back/STIM_003.jpg	99
737.293	0.736	735.6	2back	Block2	2back/STIM_003.jpg	100
741.096	0.849	849.4	2back	Block2	2back/STIM_003.jpg	100
745.194	0.772	772.1	2back	Block2	2back/STIM_004.jpg	99
748.768	0.745	745.3	2back	Block2	2back/STIM_004.jpg	100
751.712	0.976	975.8	2back	Block2	2back/STIM_004.jpg	100
756.488	0.726	726.5	2back	Block2	2back/STIM_005.jpg	99
760.958	1.074	1074.1	2back	Block2	2back/STIM_005.jpg	100
764.233	0.757	756.6	2back	Block2	2back/STIM_005.jpg	100
768.292	0.956	955.6	2back	Block2	2back/STIM_006.jpg	99
772.969	0.629	629.2	2back	Block2	2back/STIM_006.jpg	100
777.402	0.651	651.1	2back	Block2	2back/STIM_006.jpg	99
781.946	1.117	1116.6	2back	Block2	2back/STIM_007.jpg	100
786.005	0.926	926.3	2back	Block2	2back/STIM_007.jpg	99
790.548	0.871	871.0	2back	Block2	2back/STIM_007.jpg	100
794.681	1.144	1144.2	2back	Block2	2back/STIM_008.jpg	99
798.533	1.035	1035.4	2back	Block2	2back/STIM_008.jpg	100
802.996	0.941	940.9	2back	Block2	2back/STIM_008.jpg	100
807.029	0.946	945.9	2back	Block2	2back/STIM_009.jpg	100
810.705	0.591	590.7	2back	Block2	2back/STIM_009.jpg	99
815.174	0.57	570.5	2back	Block2	2back/STIM_009.jpg	100
819.174	1.011	1010.7	2back	Block2	2back/STIM_010.jpg	99
824.16	0.945	945.2	2back	Block2	2back/STIM_010.jpg	100
828.843	1.07	1069.6	2back	Block2	2back/STIM_010.jpg	100
833.075	0.714	714.4	2back	Block2	2back/STIM_011.jpg	99
837.238	1.097	1097.3	2back	Block2	2back/STIM_011.jpg	100
840.419	0.838	838.2	2back	Block2	2back/STIM_011.jpg	100
844.898	1.092	1091.9	2back	Block2	2back/STIM_012.jpg	99
849.693	1.008	1008.3	2back	Block2	2back/STIM_012.jpg	100
853.32	0.933	933.2	2back	Block2	2back/STIM_012.jpg	100
856.578	0.618	618.0	2back	Block2	2back/STIM_013.jpg	100
860.585	0.914	913.7	2back	Block2	2back/STIM_013.jpg	100
864.401	0.437	437.2	2back	Block2	2back/STIM_013.jpg	100
868.874	0.808	807.9	2back	Block2	2back/STIM_014.jpg	100
872.946	0.976	975.5	2back	Block2	2back/STIM_014.jpg	99
876.397	0.628	627.9	2back	Block2	2back/STIM_014.jpg	99
880.727	0.567	566.6	2back	Block2	2back/STIM_015.jpg	99
883.542	1.054	1053.8	2back	Block2	2back/STIM_015.jpg	99
887.96	0.854	853.9	2back	Block2	2back/STIM_015.jpg	99
891.718	0.937	936.6	2back	Block2	2back/STIM_016.jpg	100
896.053	0.691	691.3	2back	Block2	2back/STIM_016.jpg	99
898.703	0.995	994.7	2back	Block2	2back/STIM_016.jpg	99
903.471	0.88	879.8	2back	Block2	2back/STIM_017.jpg	99
907.1	0.993	993.4	2back	Block2	2back/STIM_017.jpg	100
911.562	0.872	871.9	2back	Block2	2back/STIM_017.jpg	99
914.779	0.907	906.6	2back	Block2	2back/STIM_018.jpg	100
917.929	0.595	595.4	2back	Block2	2back/STIM_018.jpg	100
921.609	0.691	691.1	2back	Block2	2back/STIM_018.jpg	100
924.624	0.573	573.1	2back	Block2	2back/STIM_019.jpg	100
928.354	0.751	751.4	2back	Block2	2back/STIM_019.jpg	100
931.879	0.84	840.3	2back	Block2	2back/STIM_019.jpg	100
935.063	0.988	988.3	2back	Block2	2back/STIM_020.jpg	99
939.886	1.014	1014.0	2back	Block2	2back/STIM_020.jpg	100
942.971	0.688	688.0	2back	Block2	2back/STIM_020.jpg	99
946.726	0.545	544.6	2back	Block2	2back/STIM_021.jpg	99
950.269	0.919	919.4	2back	Block2	2back/STIM_021.jpg	99
954.997	0.65	650.0	2back	Block2	2back/STIM_021.jpg	100
958.834	0.866	865.9	2back	Block2	2back/STIM_022.jpg	99
962.349	0.796	796.0	2back	Block2	2back/STIM_022.jpg	100
966.008	1.095	1094.6	2back	Block2	2back/STIM_022.jpg	99
970.718	0.551	550.7	2back	Block2	2back/STIM_023.jpg	100
973.371	0.658	658.2	2back	Block2	2back/STIM_023.jpg	99
978.071	0.666	665.6	2back	Block2	2back/STIM_023.jpg	99
982.112	0.553	552.7	2back	Block2	2back/STIM_024.jpg	99
985.738	0.808	807.8	2back	Block2	2back/STIM_024.jpg	100
990.128	1.096	1095.6	2back	Block2	2back/STIM_024.jpg	99
994.01	0.72	719.6	2back	Block2	2back/STIM_025.jpg	100
998.572	0.878	878.2	2back	Block2	2back/STIM_025.jpg	99
1002.014	0.978	977.9	2back	Block2	2back/STIM_025.jpg	99
1005.309	0.991	991.3	2back	Block2	2back/STIM_026.jpg	100
1009.932	0.795	794.6	2back	Block2	2back/STIM_026.jpg	100
1013.791	0.63	630.0	2back	Block2	2back/STIM_026.jpg	100
1017.539	0.75	749.9	2back	Block2	2back/STIM_027.jpg	99
1021.814	0.606	605.8	2back	Block2	2back/STIM_027.jpg	100
1025.346	0.428	427.9	2back	Block2	2back/STIM_027.jpg	99
1029.23	0.996	996.3	2back	Block2	2back/STIM_028.jpg	99
1032.27	0.95	949.5	2back	Block2	2back/STIM_028.jpg	100
1036.745	0.691	690.9	2back	Block2	2back/STIM_028.jpg	99
1041.382	1.039	1038.6	2back	Block2	2back/STIM_029.jpg	100
1045.31	1.066	1066.4	2back	Block2	2back/STIM_029.jpg	99
1049.029	1.033	1033.3	2back	Block2	2back/STIM_029.jpg	100
1053.181	0.726	725.7	2back	Block2	2back/STIM_030.jpg	100
1057.557	0.826	826.4	2back	Block2	2back/STIM_030.jpg	99
1060.478	1.001	1000.6	2back	Block2	2back/STIM_030.jpg	100
1064.103	0.841	841.3	2back	Block2	2back/STIM_031.jpg	99
1068.433	0.882	882.0	2back	Block2	2back/STIM_031.jpg	100
1071.919	0.807	807.4	2back	Block2	2back/STIM_031.jpg	99
1075.667	1.157	1157.4	2back	Block2	2back/STIM_032.jpg	99
1079.638	0.471	470.7	2back	Block2	2back/STIM_032.jpg	99
1083.273	0.948	947.9	2back	Block2	2back/STIM_032.jpg	99
1086.635	0.807	807.0	2back	Block2	2back/STIM_033.jpg	99
1089.767	0.485	485.2	2back	Block2	2back/STIM_033.jpg	100
1092.818	0.665	664.9	2back	Block2	2back/STIM_033.jpg	99
1097.333	0.818	817.5	2back	Block2	2back/STIM_034.jpg	100
1100.945	0.645	644.6	2back	Block2	2back/STIM_034.jpg	100
1105.221	0.533	532.7	2back	Block2	2back/STIM_034.jpg	99
1107.726	0.922	921.7	2back	Block2	2back/STIM_035.jpg	99
1111.369	1.127	1126.7	2back	Block2	2back/STIM_035.jpg	100
1116.181	0.633	633.0	2back	Block2	2back/STIM_035.jpg	99
1120.788	1.167	1167.3	2back	Block2	2back/STIM_036.jpg	100
1125.031	1.19	1190.3	2back	Block2	2back/STIM_036.jpg	100
1128.795	0.706	705.9	2back	Block2	2back/STIM_036.jpg	99
1132.607	1.123	1123.0	2back	Block2	2back/STIM_037.jpg	99
1136.767	0.817	817.2	2back	Block2	2back/STIM_037.jpg	99
1140.482	0.488	487.7	2back	Block2	2back/STIM_037.jpg	99
1143.748	1.27	1269.9	2back	Block2	2back/STIM_038.jpg	99
1146.977	0.967	967.1	2back	Block2	2back/STIM_038.jpg	100
1151.169	0.642	641.9	2back	Block2	2back/STIM_038.jpg	100
1154.123	1.139	1138.9	2back	Block2	2back/STIM_039.jpg	99
1158.91	0.924	924.4	2back	Block2	2back/STIM_039.jpg	100
1163.571	0.868	867.7	2back	Block2	2back/STIM_039.jpg	99
1167.404	0.444	444.4	0back	Block2	0back/STIM_000.jpg	100
1170.388	0.411	411.0	0back	Block2	0back/STIM_000.jpg	99
1174.497	0.514	513.7	0back	Block2	0back/STIM_000.jpg	100
1178.25	0.82	820.3	0back	Block2	0back/STIM_001.jpg	99
1181.168	0.598	597.7	0back	Block2	0back/STIM_001.jpg	99
1184.14	0.684	684.4	0back	Block2	0back/STIM_001.jpg	100
1187.035	0.736	736.5	0back	Block2	0back/STIM_002.jpg	100
1191.068	0.738	737.8	0back	Block2	0back/STIM_002.jpg	100
1195.433	0.715	714.6	0back	Block2	0back/STIM_002.jpg	99
1200.006	0.708	708.4	0back	Block2	0back/STIM_003.jpg	100
1203.948	0.47	469.5	0back	Block2	0back/STIM_003.jpg	99
1206.566	0.686	685.9	0back	Block2	0back/STIM_003.jpg	99
1210.646	0.524	523.5	0back	Block2	0back/STIM_004.jpg	100
1214.852	0.676	675.7	0back	Block2	0back/STIM_004.jpg	99
1218.536	0.322	321.6	0back	Block2	0back/STIM_004.jpg	99
1221.896	0.443	443.2	0back	Block2	0back/STIM_005.jpg	99
1226.052	0.427	427.0	0back	Block2	0back/STIM_005.jpg	100
1230.35	0.548	547.8	0back	Block2	0back/STIM_005.jpg	99
1233.609	0.794	793.9	0back	Block2	0back/STIM_006.jpg	100
1238.291	0.494	493.8	0back	Block2	0back/STIM_006.jpg	100
1242.09	0.664	664.4	0back	Block2	0back/STIM_006.jpg	100
1245.039	0.835	835.4	0back	Block2	0back/STIM_007.jpg	100
1248.127	0.559	559.4	0back	Block2	0back/STIM_007.jpg	99
1251.593	0.474	474.2	0back	Block2	0back/STIM_007.jpg	99
1254.502	0.644	643.9	0back	Block2	0back/STIM_008.jpg	100
1258.998	0.539	538.8	0back	Block2	0back/STIM_008.jpg	99
1262.129	0.464	464.2	0back	Block2	0back/STIM_008.jpg	99
1265.627	0.511	510.9	0back	Block2	0back/STIM_009.jpg	99
1269.289	0.5	499.8	0back	Block2	0back/STIM_009.jpg	99
1272.038	0.59	589.8	0back	Block2	0back/STIM_009.jpg	99
1275.824	0.627	627.3	0back	Block2	0back/STIM_010.jpg	100
1279.576	0.57	570.0	0back	Block2	0back/STIM_010.jpg	99
1282.723	0.809	808.7	0back	Block2	0back/STIM_010.jpg	99
1286.835	0.681	680.8	0back	Block2	0back/STIM_011.jpg	99
1290.621	0.488	488.5	0back	Block2	0back/STIM_011.jpg	100
1294.081	0.753	753.2	0back	Block2	0back/STIM_011.jpg	100
1298.544	0.661	661.0	0back	Block2	0back/STIM_012.jpg	99
1302.829	0.536	536.5	0back	Block2	0back/STIM_012.jpg	100
1305.755	0.724	724.3	0back	Block2	0back/STIM_012.jpg	99
1309.756	0.681	680.8	0back	Block2	0back/STIM_013.jpg	99
1314.377	0.504	504.4	0back	Block2	0back/STIM_013.jpg	99
1317.001	0.806	805.9	0back	Block2	0back/STIM_013.jpg	99
1320.461	0.645	644.7	0back	Block2	0back/STIM_014.jpg	99
1324.945	0.515	514.8	0back	Block2	0back/STIM_014.jpg	99
1328.401	0.775	775.2	0back	Block2	0back/STIM_014.jpg	100
1332.316	0.823	823.4	0back	Block2	0back/STIM_015.jpg	99
1335.881	0.506	506.0	0back	Block2	0back/STIM_015.jpg	99
1339.7	0.575	574.8	0back	Block2	0back/STIM_015.jpg	100
1343.803	0.469	468.8	0back	Block2	0back/STIM_016.jpg	100
1346.681	0.632	632.2	0back	Block2	0back/STIM_016.jpg	100
1349.273	0.487	487.3	0back	Block2	0back/STIM_016.jpg	100
1352.237	0.542	541.6	0back	Block2	0back/STIM_017.jpg	99
1356.739	0.624	624.5	0back	Block2	0back/STIM_017.jpg	100
1360.67	0.707	706.6	0back	Block2	0back/STIM_017.jpg	100
1364.99	0.75	749.5	0back	Block2	0back/STIM_018.jpg	100
1368.125	0.638	638.3	0back	Block2	0back/STIM_018.jpg	99
1372.056	0.634	634.0	0back	Block2	0back/STIM_018.jpg	99
1375.96	0.533	533.4	0back	Block2	0back/STIM_019.jpg	100
1380.289	0.633	632.8	0back	Block2	0back/STIM_019.jpg	99
1384.842	0.734	734.2	0back	Block2	0back/STIM_019.jpg	100
1389.496	0.676	676.4	2back	Block3	2back/STIM_000.jpg	100
1392.731	0.728	727.9	2back	Block3	2back/STIM_000.jpg	99
1396.53	0.433	432.7	2back	Block3	2back/STIM_000.jpg	99
1399.55	0.58	579.5	2back	Block3	2back/STIM_001.jpg	100
1403.816	0.838	837.5	2back	Block3	2back/STIM_001.jpg	99
1408.088	0.676	675.5	2back	Block3	2back/STIM_001.jpg	100
1412.146	0.928	927.9	2back	Block3	2back/STIM_002.jpg	100
1415.061	0.903	902.9	2back	Block3	2back/STIM_002.jpg	99
1419.706	0.469	468.7	2back	Block3	2back/STIM_002.jpg	100
1423.523	0.951	950.6	2back	Block3	2back/STIM_003.jpg	99
1426.948	0.994	994.4	2back	Block3	2back/STIM_003.jpg	99
1430.145	0.836	836.1	2back	Block3	2back/STIM_003.jpg	99
1434.253	0.679	678.6	2back	Block3	2back/STIM_004.jpg	100
1437.169	0.515	514.8	2back	Block3	2back/STIM_004.jpg	100
1441.461	0.942	942.4	2back	Block3	2back/STIM_004.jpg	100
1445.853	0.791	790.8	2back	Block3	2back/STIM_005.jpg	99
1450.199	0.589	588.6	2back	Block3	2back/STIM_005.jpg	99
1453.373	0.816	816.0	2back	Block3	2back/STIM_005.jpg	100
1456.863	0.79	789.8	2back	Block3	2back/STIM_006.jpg	99
1461.56	0.625	625.4	2back	Block3	2back/STIM_006.jpg	100
1464.556	0.726	726.0	2back	Block3	2back/STIM_006.jpg	99
1467.852	1.009	1009.0	2back	Block3	2back/STIM_007.jpg	100
1471.354	0.948	947.6	2back	Block3	2back/STIM_007.jpg	100
1474.636	0.662	661.9	2back	Block3	2back/STIM_007.jpg	100
1478.941	0.607	606.9	2back	Block3	2back/STIM_008.jpg	100
1482.381	0.423	423.2	2back	Block3	2back/STIM_008.jpg	99
1485.417	0.949	948.6	2back	Block3	2back/STIM_008.jpg	99
1489.244	0.692	692.1	2back	Block3	2back/STIM_009.jpg	99
1493.713	0.6	600.5	2back	Block3	2back/STIM_009.jpg	100
1497.659	0.573	572.9	2back	Block3	2back/STIM_009.jpg	99
1501.81	0.714	713.9	2back	Block3	2back/STIM_010.jpg	99
1505.78	0.817	817.3	2back	Block3	2back/STIM_010.jpg	100
1508.723	0.865	865.4	2back	Block3	2back/STIM_010.jpg	100
1513.024	0.375	375.4	2back	Block3	2back/STIM_011.jpg	99
1515.529	0.934	934.5	2back	Block3	2back/STIM_011.jpg	100
1519.71	0.717	716.7	2back	Block3	2back/STIM_011.jpg	99
1522.701	0.67	670.2	2back	Block3	2back/STIM_012.jpg	99
1527.011	0.49	490.5	2back	Block3	2back/STIM_012.jpg	99
1529.789	0.413	412.6	2back	Block3	2back/STIM_012.jpg	99
1532.801	0.964	964.1	2back	Block3	2back/STIM_013.jpg	99
1535.795	0.92	919.5	2back	Block3	2back/STIM_013.jpg	99
1540.09	0.753	752.9	2back	Block3	2back/STIM_013.jpg	99
1544.068	0.833	833.0	2back	Block3	2back/STIM_014.jpg	100
1548.786	0.774	774.3	2back	Block3	2back/STIM_014.jpg	100
1551.691	0.57	570.0	2back	Block3	2back/STIM_014.jpg	99
1555.427	0.678	678.2	2back	Block3	2back/STIM_015.jpg	99
1560.034	0.42	420.5	2back	Block3	2back/STIM_015.jpg	99
1563.182	1.018	1018.3	2back	Block3	2back/STIM_015.jpg	99
1567.893	0.578	578.1	2back	Block3	2back/STIM_016.jpg	100
1571.016	0.963	962.6	2back	Block3	2back/STIM_016.jpg	99
1575.812	0.807	806.8	2back	Block3	2back/STIM_016.jpg	99
1580.261	0.935	935.2	2back	Block3	2back/STIM_017.jpg	100
1584.13	0.685	684.7	2back	Block3	2back/STIM_017.jpg	99
1588.523	0.842	841.7	2back	Block3	2back/STIM_017.jpg	100
1593.182	0.81	810.0	2back	Block3	2back/STIM_018.jpg	99
1597.851	0.403	403.1	2back	Block3	2back/STIM_018.jpg	100
1601.44	0.806	805.9	2back	Block3	2back/STIM_018.jpg	100
1604.266	0.864	864.5	2back	Block3	2back/STIM_019.jpg	99
1607.82	0.774	773.6	2back	Block3	2back/STIM_019.jpg	100
1611.639	0.784	784.3	2back	Block3	2back/STIM_019.jpg	99
1615.576	0.744	744.4	2back	Block3	2back/STIM_020.jpg	99
1619.672	0.568	568.5	2back	Block3	2back/STIM_020.jpg	100
1623.519	0.914	914.0	2back	Block3	2back/STIM_020.jpg	99
1627.928	0.58	580.5	2back	Block3	2back/STIM_021.jpg	100
1631.124	1.03	1030.2	2back	Block3	2back/STIM_021.jpg	99
1634.706	0.689	688.9	2back	Block3	2back/STIM_021.jpg	99
1638.674	0.682	681.8	2back	Block3	2back/STIM_022.jpg	100
1642.977	0.944	944.4	2back	Block3	2back/STIM_022.jpg	100
1646.991	0.557	557.2	2back	Block3	2back/STIM_022.jpg	100
1650.41	0.968	967.9	2back	Block3	2back/STIM_023.jpg	100
1655.297	0.795	795.0	2back	Block3	2back/STIM_023.jpg	100
1659.424	0.525	524.6	2back	Block3	2back/STIM_023.jpg	100
1663.263	0.982	982.1	2back	Block3	2back/STIM_024.jpg	100
1667.917	0.434	434.2	2back	Block3	2back/STIM_024.jpg	99
1671.118	0.644	644.3	2back	Block3	2back/STIM_024.jpg	100
1674.441	0.489	488.6	2back	Block3	2back/STIM_025.jpg	99
1677.427	0.812	811.9	2back	Block3	2back/STIM_025.jpg	99
1680.426	0.9	899.9	2back	Block3	2back/STIM_025.jpg	99
1684.965	0.784	784.2	2back	Block3	2back/STIM_026.jpg	100
1687.878	0.953	952.7	2back	Block3	2back/STIM_026.jpg	99
1691.083	0.771	770.6	2back	Block3	2back/STIM_026.jpg	100
1695.227	0.559	558.6	2back	Block3	2back/STIM_027.jpg	100
1698.365	0.6	600.5	2back	Block3	2back/STIM_027.jpg	100
1702.726	1.047	1047.1	2back	Block3	2back/STIM_027.jpg	100
1706.707	0.764	763.5	2back	Block3	2back/STIM_028.jpg	99
1710.332	0.49	489.8	2back	Block3	2back/STIM_028.jpg	99
1713.314	0.554	554.1	2back	Block3	2back/STIM_028.jpg	100
1716.562	0.64	639.6	2back	Block3	2back/STIM_029.jpg	99
1720.538	0.816	816.5	2back	Block3	2back/STIM_029.jpg	99
1725.212	0.829	829.1	2back	Block3	2back/STIM_029.jpg	100
1729.267	0.808	807.6	2back	Block3	2back/STIM_030.jpg	100
1733.294	0.924	924.3	2back	Block3	2back/STIM_030.jpg	99
1737.721	0.498	497.7	2back	Block3	2back/STIM_030.jpg	99
1741.025	0.859	858.8	2back	Block3	2back/STIM_031.jpg	100
1745.223	0.957	957.1	2back	Block3	2back/STIM_031.jpg	100
1749.899	0.641	641.3	2back	Block3	2back/STIM_031.jpg	100
1752.629	0.497	497.4	2back	Block3	2back/STIM_032.jpg	99
1755.624	0.894	893.9	2back	Block3	2back/STIM_032.jpg	100
1759.219	0.621	620.9	2back	Block3	2back/STIM_032.jpg	99
1761.878	1.055	1055.1	2back	Block3	2back/STIM_033.jpg	100
1765.451	0.665	664.6	2back	Block3	2back/STIM_033.jpg	99
1769.449	0.659	658.9	2back	Block3	2back/STIM_033.jpg	100
1773.488	0.628	628.4	2back	Block3	2back/STIM_034.jpg	100
1777.013	0.759	758.6	2back	Block3	2back/STIM_034.jpg	99
1781.261	0.509	509.4	2back	Block3	2back/STIM_034.jpg	99
1785.01	0.869	869.3	2back	Block3	2back/STIM_035.jpg	100
1789.205	0.626	626.4	2back	Block3	2back/STIM_035.jpg	100
1793.377	0.821	821.4	2back	Block3	2back/STIM_035.jpg	100
1797.867	0.784	784.3	2back	Block3	2back/STIM_036.jpg	100
1801.224	0.62	620.2	2back	Block3	2back/STIM_036.jpg	99
1805.505	0.451	450.7	2back	Block3	2back/STIM_036.jpg	100
1809.638	0.698	697.9	2back	Block3	2back/STIM_037.jpg	99
1812.472	0.556	556.4	2back	Block3	2back/STIM_037.jpg	99
1816.247	0.933	933.3	2back	Block3	2back/STIM_037.jpg	100
1819.554	0.865	864.6	2back	Block3	2back/STIM_038.jpg	100
1823.574	0.902	901.8	2back	Block3	2back/STIM_038.jpg	100
1827.809	0.737	736.8	2back	Block3	2back/STIM_038.jpg	99
1830.774	0.744	744.0	2back	Block3	2back/STIM_039.jpg	100
1834.286	0.63	629.8	2back	Block3	2back/STIM_039.jpg	99
1837.338	0.501	501.5	2back	Block3	2back/STIM_039.jpg	100
1841.035	0.51	510.3	0back	Block3	0back/STIM_000.jpg	100
1844.971	0.91	909.6	0back	Block3	0back/STIM_000.jpg	99
1847.803	0.639	638.6	0back	Block3	0back/STIM_000.jpg	99
1852.4	0.587	586.7	0back	Block3	0back/STIM_001.jpg	99
1856.853	0.739	739.0	0back	Block3	0back/STIM_001.jpg	99
1860.227	0.625	625.1	0back	Block3	0back/STIM_001.jpg	99
1863.199	0.45	449.6	0back	Block3	0back/STIM_002.jpg	100
1866.242	0.794	794.2	0back	Block3	0back/STIM_002.jpg	99
1870.432	0.461	461.1	0back	Block3	0back/STIM_002.jpg	100
1874.57	0.567	566.9	0back	Block3	0back/STIM_003.jpg	99
1878.334	0.673	672.9	0back	Block3	0back/STIM_003.jpg	99
1882.729	0.689	688.8	0back	Block3	0back/STIM_003.jpg	99
1886.204	0.699	699.1	0back	Block3	0back/STIM_004.jpg	99
1889.391	0.301	300.8	0back	Block3	0back/STIM_004.jpg	100
1892.209	0.347	346.8	0back	Block3	0back/STIM_004.jpg	99
1894.828	0.834	833.5	0back	Block3	0back/STIM_005.jpg	100
1898.253	0.696	696.2	0back	Block3	0back/STIM_005.jpg	100
1901.876	0.785	784.8	0back	Block3	0back/STIM_005.jpg	99
1905.963	0.575	575.4	0back	Block3	0back/STIM_006.jpg	99
1908.987	0.75	750.3	0back	Block3	0back/STIM_006.jpg	99
1912.751	0.541	541.2	0back	Block3	0back/STIM_006.jpg	100
1917.058	0.788	787.8	0back	Block3	0back/STIM_007.jpg	100
1920.691	0.824	823.8	0back	Block3	0back/STIM_007.jpg	100
1924.804	0.796	796.0	0back	Block3	0back/STIM_007.jpg	99
1929.091	0.624	623.5	0back	Block3	0back/STIM_008.jpg	100
1931.819	0.735	735.0	0back	Block3	0back/STIM_008.jpg	100
1935.742	0.445	445.4	0back	Block3	0back/STIM_008.jpg	99
1938.596	0.853	853.0	0back	Block3	0back/STIM_009.jpg	99
1941.871	0.57	569.6	0back	Block3	0back/STIM_009.jpg	100
1944.801	0.456	455.7	0back	Block3	0back/STIM_009.jpg	100
1949.309	0.43	429.8	0back	Block3	0back/STIM_010.jpg	100
1952.581	0.761	760.9	0back	Block3	0back/STIM_010.jpg	99
1955.851	0.398	398.1	0back	Block3	0back/STIM_010.jpg	99
1959.141	0.564	563.8	0back	Block3	0back/STIM_011.jpg	100
1963.608	0.398	397.8	0back	Block3	0back/STIM_011.jpg	99
1966.365	0.713	712.7	0back	Block3	0back/STIM_011.jpg	99
1970.379	0.827	827.1	0back	Block3	0back/STIM_012.jpg	100
1973.464	0.554	554.4	0back	Block3	0back/STIM_012.jpg	99
1976.16	0.615	615.2	0back	Block3	0back/STIM_012.jpg	100
1980.138	0.607	606.8	0back	Block3	0back/STIM_013.jpg	100
1983.556	0.772	771.7	0back	Block3	0back/STIM_013.jpg	99
1987.931	0.951	950.9	0back	Block3	0back/STIM_013.jpg	99
1990.899	0.736	736.1	0back	Block3	0back/STIM_014.jpg	99
1994.634	0.667	667.4	0back	Block3	0back/STIM_014.jpg	100
1998.731	0.574	574.2	0back	Block3	0back/STIM_014.jpg	99
2003.199	0.671	670.9	0back	Block3	0back/STIM_015.jpg	99
2006.184	0.786	785.7	0back	Block3	0back/STIM_015.jpg	100
2010.204	0.853	852.9	0back	Block3	0back/STIM_015.jpg	99
2014.084	0.571	571.0	0back	Block3	0back/STIM_016.jpg	100
2017.216	0.702	702.0	0back	Block3	0back/STIM_016.jpg	100
2020.62	0.576	576.3	0back	Block3	0back/STIM_016.jpg	100
2023.912	0.77	770.1	0back	Block3	0back/STIM_017.jpg	100
2028.096	0.462	461.7	0back	Block3	0back/STIM_017.jpg	99
2031.745	0.791	791.1	0back	Block3	0back/STIM_017.jpg	100
2036.316	0.488	488.0	0back	Block3	0back/STIM_018.jpg	100
2040.735	0.81	809.6	0back	Block3	0back/STIM_018.jpg	99
2044.446	0.61	609.9	0back	Block3	0back/STIM_018.jpg	99
2048.089	0.782	781.8	0back	Block3	0back/STIM_019.jpg	99
2052.289	0.492	491.9	0back	Block3	0back/STIM_019.jpg	100
2056.528	0.566	566.0	0back	Block3	0back/STIM_019.jpg	99
2060.266	0.718	718.0	2back	Block4	2back/STIM_000.jpg	100
2063.948	0.994	993.8	2back	Block4	2back/STIM_000.jpg	99
2068.372	0.543	543.4	2back	Block4	2back/STIM_000.jpg	100
2071.508	0.531	531.2	2back	Block4	2back/STIM_001.jpg	100
2074.901	0.624	624.0	2back	Block4	2back/STIM_001.jpg	100
2077.848	0.601	600.9	2back	Block4	2back/STIM_001.jpg	100
2080.697	0.592	592.3	2back	Block4	2back/STIM_002.jpg	100
2084.347	0.875	874.6	2back	Block4	2back/STIM_002.jpg	99
2088.53	0.543	542.6	2back	Block4	2back/STIM_002.jpg	100
2092.829	0.642	641.6	2back	Block4	2back/STIM_003.jpg	100
2097.256	0.579	579.1	2back	Block4	2back/STIM_003.jpg	100
2101.576	0.954	954.5	2back	Block4	2back/STIM_003.jpg	99
2105.285	0.804	803.7	2back	Block4	2back/STIM_004.jpg	99
2108.368	0.655	654.8	2back	Block4	2back/STIM_004.jpg	99
2111.458	0.466	466.0	2back	Block4	2back/STIM_004.jpg	100
2115.507	0.971	970.7	2back	Block4	2back/STIM_005.jpg	100
2119.763	0.89	889.6	2back	Block4	2back/STIM_005.jpg	99
2124.324	1.017	1017.2	2back	Block4	2back/STIM_005.jpg	100
2128.902	0.791	790.7	2back	Block4	2back/STIM_006.jpg	100
2132.143	0.746	745.7	2back	Block4	2back/STIM_006.jpg	99
2136.28	0.517	517.4	2back	Block4	2back/STIM_006.jpg	99
2140.719	0.595	594.7	2back	Block4	2back/STIM_007.jpg	100
2145.262	0.726	725.7	2back	Block4	2back/STIM_007.jpg	99
2148.752	0.838	838.5	2back	Block4	2back/STIM_007.jpg	100
2153.224	0.865	864.6	2back	Block4	2back/STIM_008.jpg	99
2156.113	0.46	460.3	2back	Block4	2back/STIM_008.jpg	100
2160.084	0.652	651.6	2back	Block4	2back/STIM_008.jpg	99
2163.053	0.939	939.1	2back	Block4	2back/STIM_009.jpg	100
2167.446	0.709	709.2	2back	Block4	2back/STIM_009.jpg	100
2171.01	0.604	603.9	2back	Block4	2back/STIM_009.jpg	99
2174.353	0.654	654.5	2back	Block4	2back/STIM_010.jpg	100
2177.338	0.917	916.9	2back	Block4	2back/STIM_010.jpg	100
2181.728	0.611	610.6	2back	Block4	2back/STIM_010.jpg	100
2185.27	0.722	721.9	2back	Block4	2back/STIM_011.jpg	100
2190.021	0.821	821.2	2back	Block4	2back/STIM_011.jpg	99
2194.279	0.658	657.7	2back	Block4	2back/STIM_011.jpg	100
2198.385	0.532	532.5	2back	Block4	2back/STIM_012.jpg	100
2200.943	0.646	645.8	2back	Block4	2back/STIM_012.jpg	99
2204.902	0.467	467.1	2back	Block4	2back/STIM_012.jpg	100
2208.007	0.627	627.4	2back	Block4	2back/STIM_013.jpg	100
2211.279	0.834	833.6	2back	Block4	2back/STIM_013.jpg	99
2215.043	0.61	609.8	2back	Block4	2back/STIM_013.jpg	99
2217.666	0.932	932.3	2back	Block4	2back/STIM_014.jpg	100
2221.133	0.533	533.2	2back	Block4	2back/STIM_014.jpg	100
2224.23	0.487	487.0	2back	Block4	2back/STIM_014.jpg	99
2227.812	0.683	683.2	2back	Block4	2back/STIM_015.jpg	99
2232.263	0.535	534.7	2back	Block4	2back/STIM_015.jpg	100
2236.112	0.539	539.0	2back	Block4	2back/STIM_015.jpg	99
2238.942	0.466	466.1	2back	Block4	2back/STIM_016.jpg	99
2241.531	0.385	384.6	2back	Block4	2back/STIM_016.jpg	100
2244.22	0.813	813.4	2back	Block4	2back/STIM_016.jpg	100
2248.477	0.61	610.4	2back	Block4	2back/STIM_017.jpg	99
2252.822	0.523	522.8	2back	Block4	2back/STIM_017.jpg	100
2256.409	0.413	412.6	2back	Block4	2back/STIM_017.jpg	100
2259.653	0.633	633.0	2back	Block4	2back/STIM_018.jpg	100
2263.993	0.773	773.2	2back	Block4	2back/STIM_018.jpg	100
2267.712	0.442	441.8	2back	Block4	2back/STIM_018.jpg	100
2270.191	0.606	606.3	2back	Block4	2back/STIM_019.jpg	100
2274.668	0.599	599.3	2back	Block4	2back/STIM_019.jpg	100
2278.295	0.668	668.3	2back	Block4	2back/STIM_019.jpg	100
2281.74	0.894	894.3	2back	Block4	2back/STIM_020.jpg	100
2284.883	0.683	683.4	2back	Block4	2back/STIM_020.jpg	100
2288.428	0.428	428.0	2back	Block4	2back/STIM_020.jpg	100
2292.326	0.5	500.4	2back	Block4	2back/STIM_021.jpg	100
2295.984	0.538	538.4	2back	Block4	2back/STIM_021.jpg	100
2298.672	0.731	731.2	2back	Block4	2back/STIM_021.jpg	100
2303.211	0.595	594.6	2back	Block4	2back/STIM_022.jpg	99
2307.252	0.614	614.3	2back	Block4	2back/STIM_022.jpg	100
2311.118	0.888	888.4	2back	Block4	2back/STIM_022.jpg	99
2314.661	0.485	485.3	2back	Block4	2back/STIM_023.jpg	99
2317.546	0.581	581.2	2back	Block4	2back/STIM_023.jpg	99
2321.3	0.744	743.6	2back	Block4	2back/STIM_023.jpg	99
2325.389	0.703	702.6	2back	Block4	2back/STIM_024.jpg	100
2328.73	0.412	412.5	2back	Block4	2back/STIM_024.jpg	99
2332.693	0.858	858.2	2back	Block4	2back/STIM_024.jpg	99
2336.705	1.005	1004.9	2back	Block4	2back/STIM_025.jpg	99
2339.668	0.65	650.1	2back	Block4	2back/STIM_025.jpg	99
2342.633	0.609	608.6	2back	Block4	2back/STIM_025.jpg	100
2345.719	0.834	834.0	2back	Block4	2back/STIM_026.jpg	100
2349.761	0.838	837.9	2back	Block4	2back/STIM_026.jpg	99
2353.36	0.789	788.9	2back	Block4	2back/STIM_026.jpg	99
2356.19	0.716	716.4	2back	Block4	2back/STIM_027.jpg	100
2360.709	0.743	742.8	2back	Block4	2back/STIM_027.jpg	99
2364.142	0.978	977.9	2back	Block4	2back/STIM_027.jpg	100
2367.133	0.561	560.7	2back	Block4	2back/STIM_028.jpg	99
2371.045	0.63	629.8	2back	Block4	2back/STIM_028.jpg	99
2373.698	0.711	710.8	2back	Block4	2back/STIM_028.jpg	100
2378.139	0.76	760.3	2back	Block4	2back/STIM_029.jpg	100
2381.928	0.395	395.3	2back	Block4	2back/STIM_029.jpg	100
2385.253	0.425	425.3	2back	Block4	2back/STIM_029.jpg	99
2388.48	0.664	663.8	2back	Block4	2back/STIM_030.jpg	100
2391.86	0.598	597.8	2back	Block4	2back/STIM_030.jpg	99
2395.773	0.473	473.0	2back	Block4	2back/STIM_030.jpg	99
2398.585	0.754	753.8	2back	Block4	2back/STIM_031.jpg	99
2401.575	0.998	997.6	2back	Block4	2back/STIM_031.jpg	99
2405.12	0.871	870.7	2back	Block4	2back/STIM_031.jpg	100
2408.151	0.769	769.1	2back	Block4	2back/STIM_032.jpg	100
2412.078	0.795	795.4	2back	Block4	2back/STIM_032.jpg	100
2415.473	0.904	904.1	2back	Block4	2back/STIM_032.jpg	99
2419.0	0.83	829.8	2back	Block4	2back/STIM_033.jpg	100
2423.205	0.868	867.6	2back	Block4	2back/STIM_033.jpg	100
2427.891	0.451	451.2	2back	Block4	2back/STIM_033.jpg	100
2431.329	0.978	978.0	2back	Block4	2back/STIM_034.jpg	99
2434.587	0.834	834.5	2back	Block4	2back/STIM_034.jpg	99
2439.428	0.916	916.4	2back	Block4	2back/STIM_034.jpg	99
2444.177	0.692	691.8	2back	Block4	2back/STIM_035.jpg	100
2447.732	0.785	784.7	2back	Block4	2back/STIM_035.jpg	99
2451.098	0.97	970.0	2back	Block4	2back/STIM_035.jpg	100
2454.692	0.989	988.9	2back	Block4	2back/STIM_036.jpg	99
2458.191	0.426	425.7	2back	Block4	2back/STIM_036.jpg	100
2461.364	1.018	1018.4	2back	Block4	2back/STIM_036.jpg	99
2465.883	0.526	526.1	2back	Block4	2back/STIM_037.jpg	100
2469.614	0.32	320.1	2back	Block4	2back/STIM_037.jpg	100
2473.73	0.565	564.6	2back	Block4	2back/STIM_037.jpg	99
2478.162	0.761	761.0	2back	Block4	2back/STIM_038.jpg	100
2481.659	0.597	597.2	2back	Block4	2back/STIM_038.jpg	99
2486.02	0.764	764.1	2back	Block4	2back/STIM_038.jpg	100
2489.707	0.686	685.6	2back	Block4	2back/STIM_039.jpg	100
2493.282	0.709	709.0	2back	Block4	2back/STIM_039.jpg	99
2496.569	0.459	458.9	2back	Block4	2back/STIM_039.jpg	100
2500.261	0.75	750.5	0back	Block4	0back/STIM_000.jpg	99
2504.637	0.805	805.2	0back	Block4	0back/STIM_000.jpg	100
2507.731	0.524	523.6	0back	Block4	0back/STIM_000.jpg	100
2511.967	0.881	881.1	0back	Block4	0back/STIM_001.jpg	100
2515.72	0.806	805.8	0back	Block4	0back/STIM_001.jpg	99
2518.826	0.687	687.0	0back	Block4	0back/STIM_001.jpg	100
2522.598	0.72	719.6	0back	Block4	0back/STIM_002.jpg	100
2525.574	0.567	567.4	0back	Block4	0back/STIM_002.jpg	99
2529.213	0.783	782.9	0back	Block4	0back/STIM_002.jpg	99
2532.183	0.507	507.1	0back	Block4	0back/STIM_003.jpg	100
2535.023	0.47	470.3	0back	Block4	0back/STIM_003.jpg	100
2539.322	0.53	529.7	0back	Block4	0back/STIM_003.jpg	100
2542.984	0.53	529.8	0back	Block4	0back/STIM_004.jpg	100
2546.441	0.817	817.3	0back	Block4	0back/STIM_004.jpg	99
2550.831	0.544	544.4	0back	Block4	0back/STIM_004.jpg	100
2554.006	0.551	551.2	0back	Block4	0back/STIM_005.jpg	99
2556.7	0.696	695.7	0back	Block4	0back/STIM_005.jpg	99
2561.062	0.504	503.8	0back	Block4	0back/STIM_005.jpg	99
2564.644	0.481	481.0	0back	Block4	0back/STIM_006.jpg	99
2567.277	0.528	527.7	0back	Block4	0back/STIM_006.jpg	99
2571.523	0.573	572.9	0back	Block4	0back/STIM_006.jpg	99
2575.963	0.399	399.3	0back	Block4	0back/STIM_007.jpg	100
2579.741	0.693	692.7	0back	Block4	0back/STIM_007.jpg	99
2582.898	0.834	833.6	0back	Block4	0back/STIM_007.jpg	99
2587.078	0.538	538.4	0back	Block4	0back/STIM_008.jpg	99
2591.328	0.431	431.3	0back	Block4	0back/STIM_008.jpg	100
2595.281	0.506	506.0	0back	Block4	0back/STIM_008.jpg	99
2598.251	0.673	673.2	0back	Block4	0back/STIM_009.jpg	99
2602.403	0.56	560.4	0back	Block4	0back/STIM_009.jpg	99
2605.3	0.523	523.0	0back	Block4	0back/STIM_009.jpg	100
2609.385	0.599	599.4	0back	Block4	0back/STIM_010.jpg	100
2612.646	0.75	750.0	0back	Block4	0back/STIM_010.jpg	99
2616.67	0.719	718.7	0back	Block4	0back/STIM_010.jpg	99
2619.425	0.66	660.1	0back	Block4	0back/STIM_011.jpg	100
2623.013	0.765	765.2	0back	Block4	0back/STIM_011.jpg	100
2626.323	0.544	543.6	0back	Block4	0back/STIM_011.jpg	99
2630.196	0.664	663.8	0back	Block4	0back/STIM_012.jpg	100
2634.609	0.774	774.4	0back	Block4	0back/STIM_012.jpg	99
2638.606	0.738	737.9	0back	Block4	0back/STIM_012.jpg	99
2642.548	0.527	527.3	0back	Block4	0back/STIM_013.jpg	100
2646.553	0.501	501.0	0back	Block4	0back/STIM_013.jpg	99
2650.352	0.609	609.2	0back	Block4	0back/STIM_013.jpg	99
2653.057	0.767	766.8	0back	Block4	0back/STIM_014.jpg	100
2657.617	0.565	564.7	0back	Block4	0back/STIM_014.jpg	100
2660.373	0.509	509.1	0back	Block4	0back/STIM_014.jpg	99
2663.321	0.554	553.6	0back	Block4	0back/STIM_015.jpg	100
2667.746	0.428	428.0	0back	Block4	0back/STIM_015.jpg	99
2670.418	0.529	529.1	0back	Block4	0back/STIM_015.jpg	100
2674.744	0.734	733.8	0back	Block4	0back/STIM_016.jpg	100
2678.438	0.592	592.4	0back	Block4	0back/STIM_016.jpg	100
2681.296	0.488	488.3	0back	Block4	0back/STIM_016.jpg	100
2685.18	0.618	618.1	0back	Block4	0back/STIM_017.jpg	100
2689.577	0.573	573.1	0back	Block4	0back/STIM_017.jpg	100
2693.666	0.667	666.8	0back	Block4	0back/STIM_017.jpg	99
2697.986	0.46	459.7	0back	Block4	0back/STIM_018.jpg	100
2701.11	0.756	756.1	0back	Block4	0back/STIM_018.jpg	100
2704.166	0.565	565.4	0back	Block4	0back/STIM_018.jpg	100
2708.587	0.608	608.4	0back	Block4	0back/STIM_019.jpg	99
2711.273	0.412	412.3	0back	Block4	0back/STIM_019.jpg	100
2715.029	0.681	680.8	0back	Block4	0back/STIM_019.jpg	99
