onset	duration	accuracy_binary	trial_type	learning_stage	stimulus
0.0	1.323	1	2back	Block1	2back/STIM_000.jpg
3.504	0.93	1	2back	Block1	2back/STIM_000.jpg
6.93	1.006	1	2back	Block1	2back/STIM_000.jpg
11.091	1.208	1	2back	Block1	2back/STIM_001.jpg
16.095	0.592	0	2back	Block1	2back/STIM_001.jpg
20.15	0.682	1	2back	Block1	2back/STIM_001.jpg
23.561	1.345	1	2back	Block1	2back/STIM_002.jpg
27.322	1.122	1	2back	Block1	2back/STIM_002.jpg
31.077	1.177	0	2back	Block1	2back/STIM_002.jpg
35.152	1.248	0	2back	Block1	2back/STIM_003.jpg
38.457	0.79	0	2back	Block1	2back/STIM_003.jpg
43.086	0.901	1	2back	Block1	2back/STIM_003.jpg
46.615	0.666	1	2back	Block1	2back/STIM_004.jpg
50.732	0.97	1	2back	Block1	2back/STIM_004.jpg
54.179	0.596	0	2back	Block1	2back/STIM_004.jpg
58.322	0.639	1	2back	Block1	2back/STIM_005.jpg
62.925	0.808	1	2back	Block1	2back/STIM_005.jpg
66.842	0.614	0	2back	Block1	2back/STIM_005.jpg
69.529	0.784	0	2back	Block1	2back/STIM_006.jpg
74.264	0.562	1	2back	Block1	2back/STIM_006.jpg
78.583	1.032	1	2back	Block1	2back/STIM_006.jpg
82.18	0.856	1	2back	Block1	2back/STIM_007.jpg
85.697	0.901	1	2back	Block1	2back/STIM_007.jpg
88.959	0.592	0	2back	Block1	2back/STIM_007.jpg
92.442	0.706	0	2back	Block1	2back/STIM_008.jpg
96.85	0.812	1	2back	Block1	2back/STIM_008.jpg
99.833	1.149	1	2back	Block1	2back/STIM_008.jpg
104.381	0.781	1	2back	Block1	2back/STIM_009.jpg
108.976	0.582	1	2back	Block1	2back/STIM_009.jpg
113.237	0.633	1	2back	Block1	2back/STIM_009.jpg
116.816	1.304	0	2back	Block1	2back/STIM_010.jpg
120.51	1.073	1	2back	Block1	2back/STIM_010.jpg
124.0	1.128	0	2back	Block1	2back/STIM_010.jpg
128.949	0.959	1	2back	Block1	2back/STIM_011.jpg
133.288	1.048	1	2back	Block1	2back/STIM_011.jpg
136.821	1.203	1	2back	Block1	2back/STIM_011.jpg
141.717	0.9	1	2back	Block1	2back/STIM_012.jpg
146.154	1.005	1	2back	Block1	2back/STIM_012.jpg
150.822	0.778	1	2back	Block1	2back/STIM_012.jpg
154.758	1.358	1	2back	Block1	2back/STIM_013.jpg
159.032	1.18	0	2back	Block1	2back/STIM_013.jpg
162.93	0.741	0	2back	Block1	2back/STIM_013.jpg
166.134	0.766	0	2back	Block1	2back/STIM_014.jpg
169.221	1.037	0	2back	Block1	2back/STIM_014.jpg
173.976	0.952	1	2back	Block1	2back/STIM_014.jpg
177.789	1.137	1	2back	Block1	2back/STIM_015.jpg
181.625	0.66	1	2back	Block1	2back/STIM_015.jpg
184.516	0.968	0	2back	Block1	2back/STIM_015.jpg
188.411	1.273	1	2back	Block1	2back/STIM_016.jpg
192.53	0.654	1	2back	Block1	2back/STIM_016.jpg
197.019	0.59	0	2back	Block1	2back/STIM_016.jpg
199.619	0.67	1	2back	Block1	2back/STIM_017.jpg
203.761	0.664	0	2back	Block1	2back/STIM_017.jpg
207.156	1.05	1	2back	Block1	2back/STIM_017.jpg
210.614	0.887	1	2back	Block1	2back/STIM_018.jpg
214.02	0.802	0	2back	Block1	2back/STIM_018.jpg
218.436	0.633	1	2back	Block1	2back/STIM_018.jpg
222.445	1.197	1	2back	Block1	2back/STIM_019.jpg
227.208	1.264	0	2back	Block1	2back/STIM_019.jpg
230.506	0.753	1	2back	Block1	2back/STIM_019.jpg
233.976	0.662	1	2back	Block1	2back/STIM_020.jpg
236.971	0.766	0	2back	Block1	2back/STIM_020.jpg
240.014	1.053	1	2back	Block1	2back/STIM_020.jpg
243.511	0.789	0	2back	Block1	2back/STIM_021.jpg
246.304	0.923	1	2back	Block1	2back/STIM_021.jpg
250.024	0.98	1	2back	Block1	2back/STIM_021.jpg
253.56	0.66	1	2back	Block1	2back/STIM_022.jpg
256.523	0.734	1	2back	Block1	2back/STIM_022.jpg
260.754	0.842	1	2back	Block1	2back/STIM_022.jpg
265.582	0.99	0	2back	Block1	2back/STIM_023.jpg
268.594	0.906	1	2back	Block1	2back/STIM_023.jpg
272.68	0.557	1	2back	Block1	2back/STIM_023.jpg
276.567	0.934	1	2back	Block1	2back/STIM_024.jpg
280.273	0.626	1	2back	Block1	2back/STIM_024.jpg
283.624	0.544	0	2back	Block1	2back/STIM_024.jpg
287.977	1.357	1	2back	Block1	2back/STIM_025.jpg
292.939	1.013	1	2back	Block1	2back/STIM_025.jpg
297.433	0.797	1	2back	Block1	2back/STIM_025.jpg
300.633	0.93	0	2back	Block1	2back/STIM_026.jpg
305.48	0.976	1	2back	Block1	2back/STIM_026.jpg
310.101	0.761	0	2back	Block1	2back/STIM_026.jpg
314.049	0.891	1	2back	Block1	2back/STIM_027.jpg
318.523	0.929	0	2back	Block1	2back/STIM_027.jpg
322.385	0.776	1	2back	Block1	2back/STIM_027.jpg
326.529	0.644	1	2back	Block1	2back/STIM_028.jpg
330.583	0.841	0	2back	Block1	2back/STIM_028.jpg
334.161	0.726	1	2back	Block1	2back/STIM_028.jpg
338.29	1.068	1	2back	Block1	2back/STIM_029.jpg
343.281	0.932	1	2back	Block1	2back/STIM_029.jpg
346.645	1.02	1	2back	Block1	2back/STIM_029.jpg
351.021	1.23	1	2back	Block1	2back/STIM_030.jpg
356.044	1.096	0	2back	Block1	2back/STIM_030.jpg
360.156	1.029	1	2back	Block1	2back/STIM_030.jpg
363.565	0.96	1	2back	Block1	2back/STIM_031.jpg
367.348	1.251	1	2back	Block1	2back/STIM_031.jpg
371.676	0.896	1	2back	Block1	2back/STIM_031.jpg
375.595	1.311	0	2back	Block1	2back/STIM_032.jpg
379.206	1.274	1	2back	Block1	2back/STIM_032.jpg
382.983	0.73	1	2back	Block1	2back/STIM_032.jpg
385.946	1.078	0	2back	Block1	2back/STIM_033.jpg
390.789	0.565	1	2back	Block1	2back/STIM_033.jpg
394.217	0.732	1	2back	Block1	2back/STIM_033.jpg
397.045	0.9	1	2back	Block1	2back/STIM_034.jpg
401.491	0.783	1	2back	Block1	2back/STIM_034.jpg
404.339	0.739	1	2back	Block1	2back/STIM_034.jpg
407.347	0.636	1	2back	Block1	2back/STIM_035.jpg
411.502	1.233	1	2back	Block1	2back/STIM_035.jpg
416.204	0.889	1	2back	Block1	2back/STIM_035.jpg
420.661	0.972	1	2back	Block1	2back/STIM_036.jpg
424.252	0.704	1	2back	Block1	2back/STIM_036.jpg
427.16	0.862	1	2back	Block1	2back/STIM_036.jpg
430.945	0.705	1	2back	Block1	2back/STIM_037.jpg
434.078	1.246	0	2back	Block1	2back/STIM_037.jpg
439.324	0.773	1	2back	Block1	2back/STIM_037.jpg
443.2	1.306	0	2back	Block1	2back/STIM_038.jpg
447.149	0.667	0	2back	Block1	2back/STIM_038.jpg
449.918	0.534	1	2back	Block1	2back/STIM_038.jpg
453.361	1.013	0	2back	Block1	2back/STIM_039.jpg
456.399	1.249	1	2back	Block1	2back/STIM_039.jpg
460.593	0.975	1	2back	Block1	2back/STIM_039.jpg
465.463	0.644	1	0back	Block1	0back/STIM_000.jpg
468.333	0.624	1	0back	Block1	0back/STIM_000.jpg
471.299	0.577	0	0back	Block1	0back/STIM_000.jpg
475.039	0.503	0	0back	Block1	0back/STIM_001.jpg
478.06	0.692	1	0back	Block1	0back/STIM_001.jpg
481.678	0.685	1	0back	Block1	0back/STIM_001.jpg
484.705	0.778	1	0back	Block1	0back/STIM_002.jpg
488.527	0.569	1	0back	Block1	0back/STIM_002.jpg
491.193	0.476	1	0back	Block1	0back/STIM_002.jpg
494.641	0.395	1	0back	Block1	0back/STIM_003.jpg
497.867	0.546	1	0back	Block1	0back/STIM_003.jpg
501.178	0.484	1	0back	Block1	0back/STIM_003.jpg
504.247	0.54	1	0back	Block1	0back/STIM_004.jpg
507.668	0.424	1	0back	Block1	0back/STIM_004.jpg
510.349	0.779	0	0back	Block1	0back/STIM_004.jpg
514.584	0.722	1	0back	Block1	0back/STIM_005.jpg
519.165	0.432	1	0back	Block1	0back/STIM_005.jpg
523.406	0.74	1	0back	Block1	0back/STIM_005.jpg
526.294	0.539	1	0back	Block1	0back/STIM_006.jpg
530.312	0.679	1	0back	Block1	0back/STIM_006.jpg
533.582	0.59	1	0back	Block1	0back/STIM_006.jpg
537.535	0.48	1	0back	Block1	0back/STIM_007.jpg
540.776	0.594	1	0back	Block1	0back/STIM_007.jpg
543.532	0.753	1	0back	Block1	0back/STIM_007.jpg
547.59	0.676	1	0back	Block1	0back/STIM_008.jpg
551.985	0.542	1	0back	Block1	0back/STIM_008.jpg
554.582	0.465	1	0back	Block1	0back/STIM_008.jpg
557.54	0.632	1	0back	Block1	0back/STIM_009.jpg
561.173	0.754	1	0back	Block1	0back/STIM_009.jpg
564.144	0.51	1	0back	Block1	0back/STIM_009.jpg
567.16	0.522	1	0back	Block1	0back/STIM_010.jpg
571.638	0.582	1	0back	Block1	0back/STIM_010.jpg
574.485	0.77	1	0back	Block1	0back/STIM_010.jpg
578.97	0.66	1	0back	Block1	0back/STIM_011.jpg
582.193	0.611	1	0back	Block1	0back/STIM_011.jpg
586.191	0.752	1	0back	Block1	0back/STIM_011.jpg
589.571	0.606	1	0back	Block1	0back/STIM_012.jpg
592.729	0.578	1	0back	Block1	0back/STIM_012.jpg
596.368	0.412	0	0back	Block1	0back/STIM_012.jpg
598.967	0.518	1	0back	Block1	0back/STIM_013.jpg
602.713	0.698	1	0back	Block1	0back/STIM_013.jpg
607.026	0.781	1	0back	Block1	0back/STIM_013.jpg
611.488	0.686	1	0back	Block1	0back/STIM_014.jpg
614.514	0.769	1	0back	Block1	0back/STIM_014.jpg
618.643	0.468	0	0back	Block1	0back/STIM_014.jpg
622.689	0.503	1	0back	Block1	0back/STIM_015.jpg
625.71	0.639	1	0back	Block1	0back/STIM_015.jpg
629.179	0.457	0	0back	Block1	0back/STIM_015.jpg
632.698	0.732	1	0back	Block1	0back/STIM_016.jpg
636.911	0.608	1	0back	Block1	0back/STIM_016.jpg
641.102	0.668	0	0back	Block1	0back/STIM_016.jpg
645.03	0.544	1	0back	Block1	0back/STIM_017.jpg
647.883	0.488	1	0back	Block1	0back/STIM_017.jpg
651.033	0.642	0	0back	Block1	0back/STIM_017.jpg
654.015	0.655	1	0back	Block1	0back/STIM_018.jpg
656.952	0.639	1	0back	Block1	0back/STIM_018.jpg
660.864	0.444	1	0back	Block1	0back/STIM_018.jpg
664.653	0.507	1	0back	Block1	0back/STIM_019.jpg
667.53	0.546	1	0back	Block1	0back/STIM_019.jpg
670.174	0.628	0	0back	Block1	0back/STIM_019.jpg
674.144	1.149	1	2back	Block2	2back/STIM_000.jpg
678.358	0.626	1	2back	Block2	2back/STIM_000.jpg
682.19	0.582	1	2back	Block2	2back/STIM_000.jpg
685.601	0.885	1	2back	Block2	2back/STIM_001.jpg
689.847	0.671	1	2back	Block2	2back/STIM_001.jpg
693.608	0.576	1	2back	Block2	2back/STIM_001.jpg
697.142	0.846	1	2back	Block2	2back/STIM_002.jpg
700.395	0.891	1	2back	Block2	2back/STIM_002.jpg
703.607	0.878	1	2back	Block2	2back/STIM_002.jpg
707.975	0.927	1	2back	Block2	2back/STIM_003.jpg
710.91	0.852	1	2back	Block2	2back/STIM_003.jpg
713.85	0.776	1	2back	Block2	2back/STIM_003.jpg
717.053	0.96	1	2back	Block2	2back/STIM_004.jpg
721.439	0.635	1	2back	Block2	2back/STIM_004.jpg
725.162	0.809	1	2back	Block2	2back/STIM_004.jpg
729.508	1.133	0	2back	Block2	2back/STIM_005.jpg
734.097	1.063	0	2back	Block2	2back/STIM_005.jpg
737.455	1.005	1	2back	Block2	2back/STIM_005.jpg
740.981	1.062	1	2back	Block2	2back/STIM_006.jpg
744.756	0.686	1	2back	Block2	2back/STIM_006.jpg
747.905	0.917	1	2back	Block2	2back/STIM_006.jpg
751.811	0.555	1	2back	Block2	2back/STIM_007.jpg
755.645	0.491	1	2back	Block2	2back/STIM_007.jpg
758.405	0.451	0	2back	Block2	2back/STIM_007.jpg
760.958	0.721	1	2back	Block2	2back/STIM_008.jpg
765.506	0.975	1	2back	Block2	2back/STIM_008.jpg
769.043	0.78	1	2back	Block2	2back/STIM_008.jpg
773.525	0.678	1	2back	Block2	2back/STIM_009.jpg
778.009	0.771	1	2back	Block2	2back/STIM_009.jpg
781.471	0.492	1	2back	Block2	2back/STIM_009.jpg
785.267	0.968	1	2back	Block2	2back/STIM_010.jpg
788.995	0.482	1	2back	Block2	2back/STIM_010.jpg
792.818	0.972	1	2back	Block2	2back/STIM_010.jpg
797.425	0.638	1	2back	Block2	2back/STIM_011.jpg
800.711	0.992	1	2back	Block2	2back/STIM_011.jpg
804.87	0.907	1	2back	Block2	2back/STIM_011.jpg
809.705	1.034	0	2back	Block2	2back/STIM_012.jpg
813.945	0.596	1	2back	Block2	2back/STIM_012.jpg
817.224	1.011	1	2back	Block2	2back/STIM_012.jpg
821.44	0.94	1	2back	Block2	2back/STIM_013.jpg
824.722	0.775	1	2back	Block2	2back/STIM_013.jpg
827.792	0.79	1	2back	Block2	2back/STIM_013.jpg
831.636	0.846	1	2back	Block2	2back/STIM_014.jpg
835.489	0.541	1	2back	Block2	2back/STIM_014.jpg
839.742	0.632	1	2back	Block2	2back/STIM_014.jpg
842.705	0.751	1	2back	Block2	2back/STIM_015.jpg
847.295	0.544	1	2back	Block2	2back/STIM_015.jpg
851.127	0.674	1	2back	Block2	2back/STIM_015.jpg
854.545	1.127	1	2back	Block2	2back/STIM_016.jpg
859.454	1.02	0	2back	Block2	2back/STIM_016.jpg
862.683	0.737	1	2back	Block2	2back/STIM_016.jpg
866.462	0.809	1	2back	Block2	2back/STIM_017.jpg
869.331	1.024	0	2back	Block2	2back/STIM_017.jpg
872.454	0.499	1	2back	Block2	2back/STIM_017.jpg
876.872	0.566	1	2back	Block2	2back/STIM_018.jpg
880.428	1.033	1	2back	Block2	2back/STIM_018.jpg
884.853	1.029	1	2back	Block2	2back/STIM_018.jpg
889.458	1.014	1	2back	Block2	2back/STIM_019.jpg
892.628	0.564	1	2back	Block2	2back/STIM_019.jpg
896.575	0.918	1	2back	Block2	2back/STIM_019.jpg
901.374	0.625	1	2back	Block2	2back/STIM_020.jpg
905.601	0.535	1	2back	Block2	2back/STIM_020.jpg
908.411	0.804	1	2back	Block2	2back/STIM_020.jpg
911.809	0.678	1	2back	Block2	2back/STIM_021.jpg
914.738	1.096	1	2back	Block2	2back/STIM_021.jpg
918.446	0.485	1	2back	Block2	2back/STIM_021.jpg
921.186	0.53	1	2back	Block2	2back/STIM_022.jpg
925.649	0.798	1	2back	Block2	2back/STIM_022.jpg
930.281	0.542	1	2back	Block2	2back/STIM_022.jpg
933.761	1.021	1	2back	Block2	2back/STIM_023.jpg
937.845	0.76	0	2back	Block2	2back/STIM_023.jpg
941.194	0.969	1	2back	Block2	2back/STIM_023.jpg
945.329	0.562	1	2back	Block2	2back/STIM_024.jpg
949.124	0.496	1	2back	Block2	2back/STIM_024.jpg
953.174	0.483	1	2back	Block2	2back/STIM_024.jpg
956.738	0.746	1	2back	Block2	2back/STIM_025.jpg
960.658	0.926	1	2back	Block2	2back/STIM_025.jpg
965.029	0.67	1	2back	Block2	2back/STIM_025.jpg
968.623	1.058	0	2back	Block2	2back/STIM_026.jpg
973.091	0.832	1	2back	Block2	2back/STIM_026.jpg
977.795	0.762	1	2back	Block2	2back/STIM_026.jpg
981.351	1.001	1	2back	Block2	2back/STIM_027.jpg
984.805	0.552	1	2back	Block2	2back/STIM_027.jpg
988.603	0.826	1	2back	Block2	2back/STIM_027.jpg
993.423	0.996	1	2back	Block2	2back/STIM_028.jpg
998.142	1.05	1	2back	Block2	2back/STIM_028.jpg
1001.619	0.707	1	2back	Block2	2back/STIM_028.jpg
1004.439	1.059	0	2back	Block2	2back/STIM_029.jpg
1008.076	0.779	0	2back	Block2	2back/STIM_029.jpg
1011.003	0.716	0	2back	Block2	2back/STIM_029.jpg
1013.852	0.944	1	2back	Block2	2back/STIM_030.jpg
1018.109	0.64	1	2back	Block2	2back/STIM_030.jpg
1022.228	0.448	1	2back	Block2	2back/STIM_030.jpg
1025.143	0.74	1	2back	Block2	2back/STIM_031.jpg
1028.22	0.977	1	2back	Block2	2back/STIM_031.jpg
1031.271	0.528	1	2back	Block2	2back/STIM_031.jpg
1034.701	0.994	1	2back	Block2	2back/STIM_032.jpg
1039.567	0.687	1	2back	Block2	2back/STIM_032.jpg
1042.477	0.846	1	2back	Block2	2back/STIM_032.jpg
1046.787	1.084	1	2back	Block2	2back/STIM_033.jpg
1051.477	0.934	0	2back	Block2	2back/STIM_033.jpg
1056.064	0.577	1	2back	Block2	2back/STIM_033.jpg
1059.083	0.787	0	2back	Block2	2back/STIM_034.jpg
1062.787	0.695	1	2back	Block2	2back/STIM_034.jpg
1067.427	0.834	1	2back	Block2	2back/STIM_034.jpg
1070.96	0.774	1	2back	Block2	2back/STIM_035.jpg
1075.654	0.892	1	2back	Block2	2back/STIM_035.jpg
1079.283	0.644	0	2back	Block2	2back/STIM_035.jpg
1082.338	0.82	1	2back	Block2	2back/STIM_036.jpg
1087.073	0.539	1	2back	Block2	2back/STIM_036.jpg
1090.251	0.501	1	2back	Block2	2back/STIM_036.jpg
1093.28	0.925	1	2back	Block2	2back/STIM_037.jpg
1097.375	0.989	1	2back	Block2	2back/STIM_037.jpg
1101.024	0.464	1	2back	Block2	2back/STIM_037.jpg
1104.106	1.06	1	2back	Block2	2back/STIM_038.jpg
1109.065	0.686	0	2back	Block2	2back/STIM_038.jpg
1113.128	1.002	1	2back	Block2	2back/STIM_038.jpg
1116.762	0.797	1	2back	Block2	2back/STIM_039.jpg
1120.551	0.562	1	2back	Block2	2back/STIM_039.jpg
1124.111	0.488	1	2back	Block2	2back/STIM_039.jpg
1127.606	0.687	1	0back	Block2	0back/STIM_000.jpg
1131.23	0.618	1	0back	Block2	0back/STIM_000.jpg
1135.022	0.551	1	0back	Block2	0back/STIM_000.jpg
1138.146	0.552	1	0back	Block2	0back/STIM_001.jpg
1141.749	0.418	1	0back	Block2	0back/STIM_001.jpg
1144.451	0.467	1	0back	Block2	0back/STIM_001.jpg
1148.557	0.502	1	0back	Block2	0back/STIM_002.jpg
1152.302	0.695	1	0back	Block2	0back/STIM_002.jpg
1156.098	0.414	1	0back	Block2	0back/STIM_002.jpg
1159.34	0.723	1	0back	Block2	0back/STIM_003.jpg
1162.684	0.442	1	0back	Block2	0back/STIM_003.jpg
1166.507	0.405	0	0back	Block2	0back/STIM_003.jpg
1169.401	0.502	1	0back	Block2	0back/STIM_004.jpg
1172.528	0.732	1	0back	Block2	0back/STIM_004.jpg
1176.72	0.458	1	0back	Block2	0back/STIM_004.jpg
1181.113	0.531	0	0back	Block2	0back/STIM_005.jpg
1184.815	0.707	1	0back	Block2	0back/STIM_005.jpg
1189.122	0.74	1	0back	Block2	0back/STIM_005.jpg
1193.676	0.718	1	0back	Block2	0back/STIM_006.jpg
1196.493	0.61	1	0back	Block2	0back/STIM_006.jpg
1199.548	0.782	1	0back	Block2	0back/STIM_006.jpg
1203.834	0.68	1	0back	Block2	0back/STIM_007.jpg
1208.211	0.422	1	0back	Block2	0back/STIM_007.jpg
1211.277	0.4	0	0back	Block2	0back/STIM_007.jpg
1215.503	0.406	1	0back	Block2	0back/STIM_008.jpg
1218.506	0.731	1	0back	Block2	0back/STIM_008.jpg
1221.947	0.604	1	0back	Block2	0back/STIM_008.jpg
1225.107	0.462	1	0back	Block2	0back/STIM_009.jpg
1228.075	0.438	1	0back	Block2	0back/STIM_009.jpg
1231.614	0.468	1	0back	Block2	0back/STIM_009.jpg
1234.3	0.676	1	0back	Block2	0back/STIM_010.jpg
1238.053	0.575	1	0back	Block2	0back/STIM_010.jpg
1241.223	0.411	1	0back	Block2	0back/STIM_010.jpg
1244.668	0.763	1	0back	Block2	0back/STIM_011.jpg
1249.362	0.491	1	0back	Block2	0back/STIM_011.jpg
1252.428	0.411	1	0back	Block2	0back/STIM_011.jpg
1256.649	0.576	1	0back	Block2	0back/STIM_012.jpg
1259.739	0.484	0	0back	Block2	0back/STIM_012.jpg
1262.352	0.759	1	0back	Block2	0back/STIM_012.jpg
1266.136	0.687	1	0back	Block2	0back/STIM_013.jpg
1269.872	0.6	1	0back	Block2	0back/STIM_013.jpg
1273.035	0.637	1	0back	Block2	0back/STIM_013.jpg
1277.481	0.713	1	0back	Block2	0back/STIM_014.jpg
1280.881	0.621	1	0back	Block2	0back/STIM_014.jpg
1284.219	0.654	1	0back	Block2	0back/STIM_014.jpg
1287.378	0.589	1	0back	Block2	0back/STIM_015.jpg
1290.639	0.497	1	0back	Block2	0back/STIM_015.jpg
1294.956	0.528	1	0back	Block2	0back/STIM_015.jpg
1297.883	0.434	0	0back	Block2	0back/STIM_016.jpg
1301.061	0.561	1	0back	Block2	0back/STIM_016.jpg
1304.165	0.596	1	0back	Block2	0back/STIM_016.jpg
1308.246	0.679	1	0back	Block2	0back/STIM_017.jpg
1312.881	0.507	1	0back	Block2	0back/STIM_017.jpg
1317.353	0.667	1	0back	Block2	0back/STIM_017.jpg
1320.633	0.742	0	0back	Block2	0back/STIM_018.jpg
1324.319	0.407	1	0back	Block2	0back/STIM_018.jpg
1327.814	0.571	1	0back	Block2	0back/STIM_018.jpg
1331.763	0.488	1	0back	Block2	0back/STIM_019.jpg
1335.028	0.444	1	0back	Block2	0back/STIM_019.jpg
1338.002	0.747	1	0back	Block2	0back/STIM_019.jpg
1341.98	0.961	1	2back	Block3	2back/STIM_000.jpg
1345.272	0.834	1	2back	Block3	2back/STIM_000.jpg
1348.858	0.7	1	2back	Block3	2back/STIM_000.jpg
1351.61	0.432	1	2back	Block3	2back/STIM_001.jpg
1354.808	0.869	1	2back	Block3	2back/STIM_001.jpg
1358.251	0.647	1	2back	Block3	2back/STIM_001.jpg
1361.948	0.768	1	2back	Block3	2back/STIM_002.jpg
1365.665	0.847	1	2back	Block3	2back/STIM_002.jpg
1369.047	0.647	1	2back	Block3	2back/STIM_002.jpg
1371.836	0.52	1	2back	Block3	2back/STIM_003.jpg
1375.438	0.922	1	2back	Block3	2back/STIM_003.jpg
1378.671	0.802	1	2back	Block3	2back/STIM_003.jpg
1381.851	0.607	1	2back	Block3	2back/STIM_004.jpg
1385.761	0.808	1	2back	Block3	2back/STIM_004.jpg
1389.018	0.639	1	2back	Block3	2back/STIM_004.jpg
1392.417	0.954	1	2back	Block3	2back/STIM_005.jpg
1397.05	0.444	1	2back	Block3	2back/STIM_005.jpg
1400.782	0.894	1	2back	Block3	2back/STIM_005.jpg
1404.835	0.709	1	2back	Block3	2back/STIM_006.jpg
1407.639	0.658	1	2back	Block3	2back/STIM_006.jpg
1410.688	0.455	1	2back	Block3	2back/STIM_006.jpg
1413.706	0.836	1	2back	Block3	2back/STIM_007.jpg
1417.399	0.657	0	2back	Block3	2back/STIM_007.jpg
1421.417	0.692	1	2back	Block3	2back/STIM_007.jpg
1424.596	0.86	1	2back	Block3	2back/STIM_008.jpg
1427.998	0.49	1	2back	Block3	2back/STIM_008.jpg
1432.0	0.678	1	2back	Block3	2back/STIM_008.jpg
1435.599	0.666	1	2back	Block3	2back/STIM_009.jpg
1438.588	0.422	1	2back	Block3	2back/STIM_009.jpg
1442.867	0.885	1	2back	Block3	2back/STIM_009.jpg
1446.439	0.432	1	2back	Block3	2back/STIM_010.jpg
1449.594	0.638	0	2back	Block3	2back/STIM_010.jpg
1453.524	0.521	1	2back	Block3	2back/STIM_010.jpg
1456.272	0.549	1	2back	Block3	2back/STIM_011.jpg
1458.908	0.652	1	2back	Block3	2back/STIM_011.jpg
1463.303	0.484	1	2back	Block3	2back/STIM_011.jpg
1466.764	0.936	1	2back	Block3	2back/STIM_012.jpg
1470.513	0.563	1	2back	Block3	2back/STIM_012.jpg
1474.558	0.795	1	2back	Block3	2back/STIM_012.jpg
1478.918	0.538	1	2back	Block3	2back/STIM_013.jpg
1482.862	0.712	1	2back	Block3	2back/STIM_013.jpg
1485.637	0.562	1	2back	Block3	2back/STIM_013.jpg
1489.611	0.474	1	2back	Block3	2back/STIM_014.jpg
1492.09	0.931	1	2back	Block3	2back/STIM_014.jpg
1496.645	0.7	1	2back	Block3	2back/STIM_014.jpg
1499.885	0.787	1	2back	Block3	2back/STIM_015.jpg
1503.651	0.502	1	2back	Block3	2back/STIM_015.jpg
1507.988	0.708	1	2back	Block3	2back/STIM_015.jpg
1511.781	0.744	1	2back	Block3	2back/STIM_016.jpg
1516.186	0.958	1	2back	Block3	2back/STIM_016.jpg
1519.459	0.872	1	2back	Block3	2back/STIM_016.jpg
1522.363	0.63	1	2back	Block3	2back/STIM_017.jpg
1526.61	0.876	1	2back	Block3	2back/STIM_017.jpg
1530.928	0.537	1	2back	Block3	2back/STIM_017.jpg
1534.766	0.542	1	2back	Block3	2back/STIM_018.jpg
1539.178	0.625	1	2back	Block3	2back/STIM_018.jpg
1543.074	0.936	0	2back	Block3	2back/STIM_018.jpg
1546.236	0.525	1	2back	Block3	2back/STIM_019.jpg
1549.72	0.607	1	2back	Block3	2back/STIM_019.jpg
1553.41	0.646	1	2back	Block3	2back/STIM_019.jpg
1557.336	0.817	1	2back	Block3	2back/STIM_020.jpg
1562.149	0.697	1	2back	Block3	2back/STIM_020.jpg
1564.948	0.92	1	2back	Block3	2back/STIM_020.jpg
1569.536	0.858	1	2back	Block3	2back/STIM_021.jpg
1573.176	0.821	1	2back	Block3	2back/STIM_021.jpg
1577.508	0.775	1	2back	Block3	2back/STIM_021.jpg
1581.889	0.854	1	2back	Block3	2back/STIM_022.jpg
1585.999	0.422	1	2back	Block3	2back/STIM_022.jpg
1590.399	0.822	1	2back	Block3	2back/STIM_022.jpg
1593.396	0.721	1	2back	Block3	2back/STIM_023.jpg
1596.313	0.782	1	2back	Block3	2back/STIM_023.jpg
1599.364	0.898	1	2back	Block3	2back/STIM_023.jpg
1602.334	0.582	1	2back	Block3	2back/STIM_024.jpg
1605.813	0.429	1	2back	Block3	2back/STIM_024.jpg
1609.554	0.85	1	2back	Block3	2back/STIM_024.jpg
1613.125	0.56	1	2back	Block3	2back/STIM_025.jpg
1617.612	0.944	1	2back	Block3	2back/STIM_025.jpg
1622.545	0.672	1	2back	Block3	2back/STIM_025.jpg
1626.869	0.444	1	2back	Block3	2back/STIM_026.jpg
1630.988	0.57	1	2back	Block3	2back/STIM_026.jpg
1634.611	0.646	1	2back	Block3	2back/STIM_026.jpg
1638.895	0.57	1	2back	Block3	2back/STIM_027.jpg
1642.645	0.757	1	2back	Block3	2back/STIM_027.jpg
1646.678	0.734	1	2back	Block3	2back/STIM_027.jpg
1649.437	0.827	1	2back	Block3	2back/STIM_028.jpg
1652.479	0.76	1	2back	Block3	2back/STIM_028.jpg
1656.544	0.806	1	2back	Block3	2back/STIM_028.jpg
1660.981	0.482	1	2back	Block3	2back/STIM_029.jpg
1665.134	0.858	1	2back	Block3	2back/STIM_029.jpg
1669.728	0.474	1	2back	Block3	2back/STIM_029.jpg
1672.31	0.516	1	2back	Block3	2back/STIM_030.jpg
1674.828	0.426	1	2back	Block3	2back/STIM_030.jpg
1678.59	0.538	1	2back	Block3	2back/STIM_030.jpg
1681.379	0.783	1	2back	Block3	2back/STIM_031.jpg
1684.284	0.66	1	2back	Block3	2back/STIM_031.jpg
1688.856	0.479	1	2back	Block3	2back/STIM_031.jpg
1693.084	0.614	1	2back	Block3	2back/STIM_032.jpg
1697.49	0.877	1	2back	Block3	2back/STIM_032.jpg
1700.964	0.466	1	2back	Block3	2back/STIM_032.jpg
1704.043	0.752	1	2back	Block3	2back/STIM_033.jpg
1707.227	0.566	1	2back	Block3	2back/STIM_033.jpg
1710.309	0.918	1	2back	Block3	2back/STIM_033.jpg
1713.351	0.568	1	2back	Block3	2back/STIM_034.jpg
1717.1	0.646	1	2back	Block3	2back/STIM_034.jpg
1720.837	0.448	1	2back	Block3	2back/STIM_034.jpg
1723.63	0.748	1	2back	Block3	2back/STIM_035.jpg
1727.133	0.793	1	2back	Block3	2back/STIM_035.jpg
1730.753	0.916	1	2back	Block3	2back/STIM_035.jpg
1735.55	0.485	1	2back	Block3	2back/STIM_036.jpg
1739.723	0.651	1	2back	Block3	2back/STIM_036.jpg
1742.882	0.416	1	2back	Block3	2back/STIM_036.jpg
1746.692	0.429	0	2back	Block3	2back/STIM_037.jpg
1750.573	0.644	1	2back	Block3	2back/STIM_037.jpg
1754.071	0.8	1	2back	Block3	2back/STIM_037.jpg
1758.709	0.414	1	2back	Block3	2back/STIM_038.jpg
1762.994	0.542	1	2back	Block3	2back/STIM_038.jpg
1765.713	0.737	1	2back	Block3	2back/STIM_038.jpg
1768.828	0.668	0	2back	Block3	2back/STIM_039.jpg
1773.345	0.434	1	2back	Block3	2back/STIM_039.jpg
1775.8	0.656	1	2back	Block3	2back/STIM_039.jpg
1780.169	0.462	1	0back	Block3	0back/STIM_000.jpg
1782.634	0.491	1	0back	Block3	0back/STIM_000.jpg
1785.31	0.54	1	0back	Block3	0back/STIM_000.jpg
1788.714	0.444	1	0back	Block3	0back/STIM_001.jpg
1792.426	0.529	1	0back	Block3	0back/STIM_001.jpg
1796.25	0.749	1	0back	Block3	0back/STIM_001.jpg
1799.431	0.618	1	0back	Block3	0back/STIM_002.jpg
1802.333	0.769	1	0back	Block3	0back/STIM_002.jpg
1806.046	0.626	1	0back	Block3	0back/STIM_002.jpg
1809.887	0.577	1	0back	Block3	0back/STIM_003.jpg
1812.923	0.645	1	0back	Block3	0back/STIM_003.jpg
1816.884	0.563	1	0back	Block3	0back/STIM_003.jpg
1819.66	0.481	1	0back	Block3	0back/STIM_004.jpg
1824.085	0.668	1	0back	Block3	0back/STIM_004.jpg
1828.562	0.654	1	0back	Block3	0back/STIM_004.jpg
1831.328	0.535	1	0back	Block3	0back/STIM_005.jpg
1835.863	0.529	1	0back	Block3	0back/STIM_005.jpg
1839.637	0.769	1	0back	Block3	0back/STIM_005.jpg
1843.783	0.754	1	0back	Block3	0back/STIM_006.jpg
1848.062	0.781	1	0back	Block3	0back/STIM_006.jpg
1851.408	0.456	1	0back	Block3	0back/STIM_006.jpg
1854.435	0.724	1	0back	Block3	0back/STIM_007.jpg
1858.605	0.664	1	0back	Block3	0back/STIM_007.jpg
1863.138	0.501	1	0back	Block3	0back/STIM_007.jpg
1866.416	0.719	1	0back	Block3	0back/STIM_008.jpg
1870.955	0.435	1	0back	Block3	0back/STIM_008.jpg
1875.212	0.777	1	0back	Block3	0back/STIM_008.jpg
1878.901	0.444	1	0back	Block3	0back/STIM_009.jpg
1881.676	0.58	1	0back	Block3	0back/STIM_009.jpg
1884.755	0.447	1	0back	Block3	0back/STIM_009.jpg
1887.817	0.492	0	0back	Block3	0back/STIM_010.jpg
1890.872	0.726	1	0back	Block3	0back/STIM_010.jpg
1894.159	0.772	1	0back	Block3	0back/STIM_010.jpg
1897.499	0.409	1	0back	Block3	0back/STIM_011.jpg
1900.681	0.656	1	0back	Block3	0back/STIM_011.jpg
1904.732	0.441	1	0back	Block3	0back/STIM_011.jpg
1908.567	0.506	1	0back	Block3	0back/STIM_012.jpg
1911.892	0.647	0	0back	Block3	0back/STIM_012.jpg
1915.483	0.473	1	0back	Block3	0back/STIM_012.jpg
1919.385	0.394	1	0back	Block3	0back/STIM_013.jpg
1922.152	0.425	1	0back	Block3	0back/STIM_013.jpg
1925.251	0.492	1	0back	Block3	0back/STIM_013.jpg
1928.559	0.492	1	0back	Block3	0back/STIM_014.jpg
1931.335	0.519	1	0back	Block3	0back/STIM_014.jpg
1935.087	0.441	1	0back	Block3	0back/STIM_014.jpg
1938.291	0.512	1	0back	Block3	0back/STIM_015.jpg
1941.689	0.536	1	0back	Block3	0back/STIM_015.jpg
1945.165	0.47	1	0back	Block3	0back/STIM_015.jpg
1948.354	0.618	1	0back	Block3	0back/STIM_016.jpg
1951.417	0.589	1	0back	Block3	0back/STIM_016.jpg
1954.666	0.439	1	0back	Block3	0back/STIM_016.jpg
1957.92	0.694	1	0back	Block3	0back/STIM_017.jpg
1962.064	0.671	1	0back	Block3	0back/STIM_017.jpg
1964.935	0.626	1	0back	Block3	0back/STIM_017.jpg
1968.926	0.709	1	0back	Block3	0back/STIM_018.jpg
1973.133	0.672	1	0back	Block3	0back/STIM_018.jpg
1975.923	0.535	1	0back	Block3	0back/STIM_018.jpg
1979.21	0.713	1	0back	Block3	0back/STIM_019.jpg
1982.069	0.445	1	0back	Block3	0back/STIM_019.jpg
1986.29	0.684	1	0back	Block3	0back/STIM_019.jpg
1990.319	0.892	1	2back	Block4	2back/STIM_000.jpg
1995.046	0.778	1	2back	Block4	2back/STIM_000.jpg
1999.129	0.799	1	2back	Block4	2back/STIM_000.jpg
2003.89	0.545	1	2back	Block4	2back/STIM_001.jpg
2007.593	0.734	1	2back	Block4	2back/STIM_001.jpg
2011.295	0.823	1	2back	Block4	2back/STIM_001.jpg
2014.348	0.431	1	2back	Block4	2back/STIM_002.jpg
2016.947	0.683	1	2back	Block4	2back/STIM_002.jpg
2020.651	0.49	1	2back	Block4	2back/STIM_002.jpg
2023.656	0.838	1	2back	Block4	2back/STIM_003.jpg
2027.87	0.579	1	2back	Block4	2back/STIM_003.jpg
2031.288	0.869	1	2back	Block4	2back/STIM_003.jpg
2035.79	0.746	1	2back	Block4	2back/STIM_004.jpg
2038.918	0.49	1	2back	Block4	2back/STIM_004.jpg
2042.836	0.718	1	2back	Block4	2back/STIM_004.jpg
2047.158	0.627	1	2back	Block4	2back/STIM_005.jpg
2051.657	0.792	1	2back	Block4	2back/STIM_005.jpg
2056.371	0.771	1	2back	Block4	2back/STIM_005.jpg
2059.942	0.579	1	2back	Block4	2back/STIM_006.jpg
2063.947	0.474	1	2back	Block4	2back/STIM_006.jpg
2067.085	0.804	1	2back	Block4	2back/STIM_006.jpg
2069.958	0.909	1	2back	Block4	2back/STIM_007.jpg
2073.031	0.789	1	2back	Block4	2back/STIM_007.jpg
2076.331	0.958	1	2back	Block4	2back/STIM_007.jpg
2080.586	0.635	1	2back	Block4	2back/STIM_008.jpg
2083.729	0.8	1	2back	Block4	2back/STIM_008.jpg
2087.801	0.58	1	2back	Block4	2back/STIM_008.jpg
2090.935	0.539	1	2back	Block4	2back/STIM_009.jpg
2093.639	0.414	1	2back	Block4	2back/STIM_009.jpg
2096.567	0.553	1	2back	Block4	2back/STIM_009.jpg
2100.434	0.728	1	2back	Block4	2back/STIM_010.jpg
2103.313	0.703	1	2back	Block4	2back/STIM_010.jpg
2107.581	0.798	1	2back	Block4	2back/STIM_010.jpg
2110.626	0.68	1	2back	Block4	2back/STIM_011.jpg
2114.3	0.63	1	2back	Block4	2back/STIM_011.jpg
2118.75	0.83	1	2back	Block4	2back/STIM_011.jpg
2123.081	0.932	1	2back	Block4	2back/STIM_012.jpg
2126.299	0.73	1	2back	Block4	2back/STIM_012.jpg
2130.732	0.516	1	2back	Block4	2back/STIM_012.jpg
2134.969	0.55	1	2back	Block4	2back/STIM_013.jpg
2138.189	0.941	1	2back	Block4	2back/STIM_013.jpg
2143.077	0.552	1	2back	Block4	2back/STIM_013.jpg
2147.21	0.647	0	2back	Block4	2back/STIM_014.jpg
2150.603	0.944	1	2back	Block4	2back/STIM_014.jpg
2154.317	0.428	1	2back	Block4	2back/STIM_014.jpg
2158.296	0.892	1	2back	Block4	2back/STIM_015.jpg
2162.044	0.751	1	2back	Block4	2back/STIM_015.jpg
2166.578	0.808	1	2back	Block4	2back/STIM_015.jpg
2169.523	0.739	1	2back	Block4	2back/STIM_016.jpg
2172.69	0.831	1	2back	Block4	2back/STIM_016.jpg
2175.732	0.838	1	2back	Block4	2back/STIM_016.jpg
2179.258	0.822	1	2back	Block4	2back/STIM_017.jpg
2182.107	0.642	1	2back	Block4	2back/STIM_017.jpg
2185.744	0.86	1	2back	Block4	2back/STIM_017.jpg
2190.043	0.627	1	2back	Block4	2back/STIM_018.jpg
2193.767	0.803	1	2back	Block4	2back/STIM_018.jpg
2197.09	0.878	1	2back	Block4	2back/STIM_018.jpg
2200.924	0.509	1	2back	Block4	2back/STIM_019.jpg
2203.605	0.798	1	2back	Block4	2back/STIM_019.jpg
2206.479	0.618	1	2back	Block4	2back/STIM_019.jpg
2209.419	0.844	1	2back	Block4	2back/STIM_020.jpg
2213.467	0.497	1	2back	Block4	2back/STIM_020.jpg
2217.063	0.788	1	2back	Block4	2back/STIM_020.jpg
2220.031	0.48	1	2back	Block4	2back/STIM_021.jpg
2222.653	0.901	1	2back	Block4	2back/STIM_021.jpg
2225.646	0.929	1	2back	Block4	2back/STIM_021.jpg
2228.824	0.778	1	2back	Block4	2back/STIM_022.jpg
2231.907	0.938	1	2back	Block4	2back/STIM_022.jpg
2236.344	0.738	1	2back	Block4	2back/STIM_022.jpg
2239.311	0.441	1	2back	Block4	2back/STIM_023.jpg
2243.333	0.706	1	2back	Block4	2back/STIM_023.jpg
2247.769	0.531	1	2back	Block4	2back/STIM_023.jpg
2250.557	0.662	1	2back	Block4	2back/STIM_024.jpg
2254.236	0.612	1	2back	Block4	2back/STIM_024.jpg
2257.28	0.438	1	2back	Block4	2back/STIM_024.jpg
2259.883	0.648	1	2back	Block4	2back/STIM_025.jpg
2263.469	0.68	1	2back	Block4	2back/STIM_025.jpg
2268.072	0.71	1	2back	Block4	2back/STIM_025.jpg
2271.274	0.607	1	2back	Block4	2back/STIM_026.jpg
2273.953	0.66	1	2back	Block4	2back/STIM_026.jpg
2277.99	0.721	1	2back	Block4	2back/STIM_026.jpg
2282.51	0.688	1	2back	Block4	2back/STIM_027.jpg
2285.527	0.906	1	2back	Block4	2back/STIM_027.jpg
2289.031	0.505	1	2back	Block4	2back/STIM_027.jpg
2292.966	0.81	1	2back	Block4	2back/STIM_028.jpg
2296.029	0.62	1	2back	Block4	2back/STIM_028.jpg
2299.797	0.957	1	2back	Block4	2back/STIM_028.jpg
2302.995	0.878	1	2back	Block4	2back/STIM_029.jpg
2306.318	0.893	1	2back	Block4	2back/STIM_029.jpg
2309.604	0.867	1	2back	Block4	2back/STIM_029.jpg
2313.248	0.703	1	2back	Block4	2back/STIM_030.jpg
2317.72	0.554	1	2back	Block4	2back/STIM_030.jpg
2320.493	0.794	1	2back	Block4	2back/STIM_030.jpg
2323.35	0.74	1	2back	Block4	2back/STIM_031.jpg
2327.889	0.608	1	2back	Block4	2back/STIM_031.jpg
2332.143	0.498	1	2back	Block4	2back/STIM_031.jpg
2334.986	0.684	1	2back	Block4	2back/STIM_032.jpg
2339.322	0.627	1	2back	Block4	2back/STIM_032.jpg
2342.144	0.781	1	2back	Block4	2back/STIM_032.jpg
2346.442	0.455	0	2back	Block4	2back/STIM_033.jpg
2350.747	0.835	1	2back	Block4	2back/STIM_033.jpg
2354.534	0.808	0	2back	Block4	2back/STIM_033.jpg
2357.49	0.822	1	2back	Block4	2back/STIM_034.jpg
2361.332	0.695	1	2back	Block4	2back/STIM_034.jpg
2364.676	0.49	1	2back	Block4	2back/STIM_034.jpg
2368.942	0.504	1	2back	Block4	2back/STIM_035.jpg
2372.716	0.433	1	2back	Block4	2back/STIM_035.jpg
2375.522	0.496	1	2back	Block4	2back/STIM_035.jpg
2378.177	0.845	1	2back	Block4	2back/STIM_036.jpg
2381.965	0.417	1	2back	Block4	2back/STIM_036.jpg
2385.989	0.929	0	2back	Block4	2back/STIM_036.jpg
2390.897	0.659	1	2back	Block4	2back/STIM_037.jpg
2394.449	0.442	1	2back	Block4	2back/STIM_037.jpg
2398.173	0.62	1	2back	Block4	2back/STIM_037.jpg
2400.96	0.799	1	2back	Block4	2back/STIM_038.jpg
2404.418	0.622	1	2back	Block4	2back/STIM_038.jpg
2407.14	0.556	1	2back	Block4	2back/STIM_038.jpg
2410.222	0.54	1	2back	Block4	2back/STIM_039.jpg
2413.699	0.564	1	2back	Block4	2back/STIM_039.jpg
2418.23	0.689	1	2back	Block4	2back/STIM_039.jpg
2421.572	0.724	0	0back	Block4	0back/STIM_000.jpg
2425.74	0.509	1	0back	Block4	0back/STIM_000.jpg
2429.457	0.394	1	0back	Block4	0back/STIM_000.jpg
2432.437	0.666	1	0back	Block4	0back/STIM_001.jpg
2435.358	0.4	1	0back	Block4	0back/STIM_001.jpg
2438.996	0.653	1	0back	Block4	0back/STIM_001.jpg
2442.961	0.403	1	0back	Block4	0back/STIM_002.jpg
2445.574	0.428	1	0back	Block4	0back/STIM_002.jpg
2448.122	0.765	1	0back	Block4	0back/STIM_002.jpg
2452.463	0.724	1	0back	Block4	0back/STIM_003.jpg
2457.182	0.498	1	0back	Block4	0back/STIM_003.jpg
2460.513	0.673	1	0back	Block4	0back/STIM_003.jpg
2464.928	0.485	1	0back	Block4	0back/STIM_004.jpg
2468.317	0.467	0	0back	Block4	0back/STIM_004.jpg
2470.835	0.453	1	0back	Block4	0back/STIM_004.jpg
2474.058	0.435	1	0back	Block4	0back/STIM_005.jpg
2476.567	0.404	1	0back	Block4	0back/STIM_005.jpg
2479.288	0.529	1	0back	Block4	0back/STIM_005.jpg
2482.64	0.677	0	0back	Block4	0back/STIM_006.jpg
2486.519	0.524	1	0back	Block4	0back/STIM_006.jpg
2489.105	0.631	1	0back	Block4	0back/STIM_006.jpg
2493.162	0.625	1	0back	Block4	0back/STIM_007.jpg
2497.481	0.71	1	0back	Block4	0back/STIM_007.jpg
2501.468	0.742	0	0back	Block4	0back/STIM_007.jpg
2506.21	0.551	1	0back	Block4	0back/STIM_008.jpg
2510.743	0.626	1	0back	Block4	0back/STIM_008.jpg
2514.719	0.545	1	0back	Block4	0back/STIM_008.jpg
2518.207	0.752	1	0back	Block4	0back/STIM_009.jpg
2521.435	0.512	1	0back	Block4	0back/STIM_009.jpg
2524.335	0.42	0	0back	Block4	0back/STIM_009.jpg
2527.17	0.71	0	0back	Block4	0back/STIM_010.jpg
2529.941	0.777	1	0back	Block4	0back/STIM_010.jpg
2534.319	0.514	1	0back	Block4	0back/STIM_010.jpg
2538.758	0.657	1	0back	Block4	0back/STIM_011.jpg
2541.608	0.484	1	0back	Block4	0back/STIM_011.jpg
2544.402	0.432	1	0back	Block4	0back/STIM_011.jpg
2547.461	0.401	1	0back	Block4	0back/STIM_012.jpg
2551.701	0.498	0	0back	Block4	0back/STIM_012.jpg
2555.594	0.506	1	0back	Block4	0back/STIM_012.jpg
2559.766	0.532	1	0back	Block4	0back/STIM_013.jpg
2563.817	0.637	1	0back	Block4	0back/STIM_013.jpg
2567.898	0.594	1	0back	Block4	0back/STIM_013.jpg
2570.848	0.523	1	0back	Block4	0back/STIM_014.jpg
2573.39	0.482	1	0back	Block4	0back/STIM_014.jpg
2576.127	0.429	1	0back	Block4	0back/STIM_014.jpg
2579.532	0.42	1	0back	Block4	0back/STIM_015.jpg
2582.552	0.453	1	0back	Block4	0back/STIM_015.jpg
2585.581	0.401	1	0back	Block4	0back/STIM_015.jpg
2587.989	0.477	0	0back	Block4	0back/STIM_016.jpg
2592.081	0.535	1	0back	Block4	0back/STIM_016.jpg
2595.801	0.64	1	0back	Block4	0back/STIM_016.jpg
2598.918	0.761	1	0back	Block4	0back/STIM_017.jpg
2602.435	0.596	0	0back	Block4	0back/STIM_017.jpg
2606.058	0.517	1	0back	Block4	0back/STIM_017.jpg
2609.778	0.581	1	0back	Block4	0back/STIM_018.jpg
2613.868	0.503	1	0back	Block4	0back/STIM_018.jpg
2616.797	0.55	1	0back	Block4	0back/STIM_018.jpg
2619.359	0.693	1	0back	Block4	0back/STIM_019.jpg
2623.181	0.554	1	0back	Block4	0back/STIM_019.jpg
2626.635	0.682	1	0back	Block4	0back/STIM_019.jpg
