onset	duration	response_time_ms	trial_type	learning_stage	stimulus	response_port
0.0	1.598	1598.0	study	Phase1	study/STIM_000.jpg	100
4.612	1.244	1243.8	study	Phase1	study/STIM_000.jpg	100
9.591	0.876	875.6	study	Phase1	study/STIM_000.jpg	99
14.103	1.253	1252.7	study	Phase1	study/STIM_001.jpg	100
17.49	1.392	1392.0	study	Phase1	study/STIM_001.jpg	99
22.206	1.406	1406.3	study	Phase1	study/STIM_001.jpg	99
26.161	0.768	768.2	study	Phase1	study/STIM_002.jpg	99
29.961	1.418	1417.7	study	Phase1	study/STIM_002.jpg	99
35.44	1.112	1112.4	study	Phase1	study/STIM_002.jpg	100
39.193	1.204	1204.5	study	Phase1	study/STIM_003.jpg	100
42.555	1.593	1593.2	study	Phase1	study/STIM_003.jpg	99
47.439	0.961	960.6	study	Phase1	study/STIM_003.jpg	99
51.011	0.802	801.9	study	Phase1	study/STIM_004.jpg	99
53.976	1.361	1360.7	study	Phase1	study/STIM_004.jpg	100
57.817	1.142	1141.7	study	Phase1	study/STIM_004.jpg	100
62.417	1.218	1218.4	study	Phase1	study/STIM_005.jpg	100
67.184	1.516	1515.9	study	Phase1	study/STIM_005.jpg	100
72.509	0.935	934.7	study	Phase1	study/STIM_005.jpg	100
76.062	1.629	1628.8	study	Phase1	study/STIM_006.jpg	100
80.08	1.59	1590.1	study	Phase1	study/STIM_006.jpg	99
84.203	1.056	1056.3	study	Phase1	study/STIM_006.jpg	100
88.3	1.274	1273.8	study	Phase1	study/STIM_007.jpg	99
93.587	1.419	1418.9	study	Phase1	study/STIM_007.jpg	99
97.697	0.762	762.1	study	Phase1	study/STIM_007.jpg	99
100.866	0.997	997.4	study	Phase1	study/STIM_008.jpg	100
104.577	1.225	1224.6	study	Phase1	study/STIM_008.jpg	100
108.023	0.987	987.2	study	Phase1	study/STIM_008.jpg	99
112.861	1.061	1060.7	study	Phase1	study/STIM_009.jpg	99
117.552	1.397	1397.0	study	Phase1	study/STIM_009.jpg	99
122.94	1.354	1354.5	study	Phase1	study/STIM_009.jpg	99
128.019	1.234	1234.4	study	Phase1	study/STIM_010.jpg	99
131.934	0.918	917.5	study	Phase1	study/STIM_010.jpg	99
135.275	0.733	732.8	study	Phase1	study/STIM_010.jpg	100
139.914	1.308	1308.1	study	Phase1	study/STIM_011.jpg	100
143.668	1.525	1524.9	study	Phase1	study/STIM_011.jpg	100
147.419	0.799	799.1	study	Phase1	study/STIM_011.jpg	100
150.353	1.046	1046.4	study	Phase1	study/STIM_012.jpg	100
153.935	0.955	955.0	study	Phase1	study/STIM_012.jpg	100
157.418	0.882	882.2	study	Phase1	study/STIM_012.jpg	100
162.072	1.12	1119.7	study	Phase1	study/STIM_013.jpg	99
165.94	0.894	893.5	study	Phase1	study/STIM_013.jpg	99
170.105	0.991	990.8	study	Phase1	study/STIM_013.jpg	100
173.63	1.416	1415.8	study	Phase1	study/STIM_014.jpg	100
178.042	1.217	1216.7	study	Phase1	study/STIM_014.jpg	100
181.81	1.389	1388.9	study	Phase1	study/STIM_014.jpg	99
185.75	1.674	1674.3	study	Phase1	study/STIM_015.jpg	100
190.43	0.858	858.1	study	Phase1	study/STIM_015.jpg	100
193.669	1.044	1043.7	study	Phase1	study/STIM_015.jpg	100
198.216	0.936	936.1	study	Phase1	study/STIM_016.jpg	100
201.86	1.115	1114.7	study	Phase1	study/STIM_016.jpg	99
206.293	0.941	940.6	study	Phase1	study/STIM_016.jpg	99
209.902	1.316	1315.7	study	Phase1	study/STIM_017.jpg	99
214.748	1.236	1236.4	study	Phase1	study/STIM_017.jpg	100
218.679	0.867	867.1	study	Phase1	study/STIM_017.jpg	100
222.631	1.233	1232.7	study	Phase1	study/STIM_018.jpg	100
226.316	1.565	1565.0	study	Phase1	study/STIM_018.jpg	100
230.575	1.261	1260.9	study	Phase1	study/STIM_018.jpg	100
234.669	1.459	1459.0	study	Phase1	study/STIM_019.jpg	99
239.749	0.748	747.5	study	Phase1	study/STIM_019.jpg	99
244.091	1.247	1247.4	study	Phase1	study/STIM_019.jpg	100
249.372	1.161	1161.2	study	Phase1	study/STIM_020.jpg	99
253.525	0.758	758.5	study	Phase1	study/STIM_020.jpg	100
257.503	0.942	942.0	study	Phase1	study/STIM_020.jpg	99
262.145	1.151	1151.2	study	Phase1	study/STIM_021.jpg	99
265.526	1.47	1469.7	study	Phase1	study/STIM_021.jpg	100
269.728	0.933	932.7	study	Phase1	study/STIM_021.jpg	100
274.339	1.539	1539.1	study	Phase1	study/STIM_022.jpg	99
279.156	0.841	841.4	study	Phase1	study/STIM_022.jpg	100
284.046	0.814	814.0	study	Phase1	study/STIM_022.jpg	99
288.557	1.672	1671.6	study	Phase1	study/STIM_023.jpg	99
292.756	0.732	732.0	study	Phase1	study/STIM_023.jpg	100
296.821	0.83	830.4	study	Phase1	study/STIM_023.jpg	100
300.299	0.882	881.9	study	Phase1	study/STIM_024.jpg	99
303.416	0.953	952.8	study	Phase1	study/STIM_024.jpg	99
308.13	1.352	1352.0	study	Phase1	study/STIM_024.jpg	99
313.012	1.291	1290.9	study	Phase1	study/STIM_025.jpg	100
317.833	1.329	1329.3	study	Phase1	study/STIM_025.jpg	100
322.478	1.259	1259.0	study	Phase1	study/STIM_025.jpg	99
327.551	0.908	907.7	study	Phase1	study/STIM_026.jpg	99
331.198	0.829	828.9	study	Phase1	study/STIM_026.jpg	99
334.829	1.371	1371.4	study	Phase1	study/STIM_026.jpg	100
339.62	1.045	1045.4	study	Phase1	study/STIM_027.jpg	100
343.504	1.261	1260.7	study	Phase1	study/STIM_027.jpg	100
347.997	1.518	1518.0	study	Phase1	study/STIM_027.jpg	99
353.469	0.866	865.8	study	Phase1	study/STIM_028.jpg	99
357.009	0.839	839.3	study	Phase1	study/STIM_028.jpg	100
360.937	1.167	1167.3	study	Phase1	study/STIM_028.jpg	99
366.117	1.583	1583.1	study	Phase1	study/STIM_029.jpg	100
370.472	0.946	946.1	study	Phase1	study/STIM_029.jpg	99
374.565	1.149	1148.8	study	Phase1	study/STIM_029.jpg	99
379.206	1.05	1049.8	test	Phase1	test/STIM_000.jpg	99
383.111	1.154	1153.7	test	Phase1	test/STIM_000.jpg	99
387.029	0.734	733.5	test	Phase1	test/STIM_000.jpg	100
390.007	1.106	1105.6	test	Phase1	test/STIM_001.jpg	100
393.763	0.596	596.1	test	Phase1	test/STIM_001.jpg	100
396.474	0.77	769.5	test	Phase1	test/STIM_001.jpg	99
400.109	0.752	752.3	test	Phase1	test/STIM_002.jpg	99
404.502	1.209	1209.1	test	Phase1	test/STIM_002.jpg	99
407.862	0.59	590.1	test	Phase1	test/STIM_002.jpg	100
411.592	1.083	1083.3	test	Phase1	test/STIM_003.jpg	100
416.556	1.151	1150.9	test	Phase1	test/STIM_003.jpg	99
420.726	0.769	769.4	test	Phase1	test/STIM_003.jpg	99
424.546	0.969	968.9	test	Phase1	test/STIM_004.jpg	100
428.884	0.867	867.4	test	Phase1	test/STIM_004.jpg	99
432.283	0.853	852.8	test	Phase1	test/STIM_004.jpg	99
436.938	0.888	888.2	test	Phase1	test/STIM_005.jpg	99
439.962	1.012	1012.1	test	Phase1	test/STIM_005.jpg	99
445.014	0.918	918.4	test	Phase1	test/STIM_005.jpg	100
449.303	0.748	747.7	test	Phase1	test/STIM_006.jpg	99
452.712	1.218	1218.5	test	Phase1	test/STIM_006.jpg	100
457.693	0.614	614.1	test	Phase1	test/STIM_006.jpg	99
461.819	0.998	998.4	test	Phase1	test/STIM_007.jpg	99
465.59	0.74	739.9	test	Phase1	test/STIM_007.jpg	99
469.063	0.77	770.0	test	Phase1	test/STIM_007.jpg	99
472.698	0.695	695.1	test	Phase1	test/STIM_008.jpg	99
475.744	1.169	1169.0	test	Phase1	test/STIM_008.jpg	99
479.739	0.719	718.7	test	Phase1	test/STIM_008.jpg	100
483.872	0.875	874.7	test	Phase1	test/STIM_009.jpg	100
488.636	1.213	1213.2	test	Phase1	test/STIM_009.jpg	100
493.149	0.863	863.3	test	Phase1	test/STIM_009.jpg	100
496.219	0.867	867.0	test	Phase1	test/STIM_010.jpg	100
499.173	0.95	950.3	test	Phase1	test/STIM_010.jpg	99
502.615	0.687	687.0	test	Phase1	test/STIM_010.jpg	100
505.854	0.693	692.7	test	Phase1	test/STIM_011.jpg	99
509.373	1.143	1143.1	test	Phase1	test/STIM_011.jpg	99
513.397	0.919	918.8	test	Phase1	test/STIM_011.jpg	100
516.597	0.703	703.1	test	Phase1	test/STIM_012.jpg	99
521.257	0.683	682.9	test	Phase1	test/STIM_012.jpg	100
524.824	0.599	598.8	test	Phase1	test/STIM_012.jpg	99
527.613	0.604	604.3	test	Phase1	test/STIM_013.jpg	99
532.169	0.848	847.8	test	Phase1	test/STIM_013.jpg	99
537.064	0.917	917.2	test	Phase1	test/STIM_013.jpg	99
540.808	0.695	694.7	test	Phase1	test/STIM_014.jpg	99
544.422	0.745	744.8	test	Phase1	test/STIM_014.jpg	100
547.834	0.902	901.9	test	Phase1	test/STIM_014.jpg	100
551.098	1.192	1191.7	test	Phase1	test/STIM_015.jpg	100
554.488	1.024	1023.6	test	Phase1	test/STIM_015.jpg	100
559.051	1.061	1061.2	test	Phase1	test/STIM_015.jpg	100
563.641	0.624	624.1	test	Phase1	test/STIM_016.jpg	99
566.576	0.79	790.2	test	Phase1	test/STIM_016.jpg	99
570.419	1.205	1204.7	test	Phase1	test/STIM_016.jpg	100
574.651	0.607	607.2	test	Phase1	test/STIM_017.jpg	99
577.452	0.682	681.8	test	Phase1	test/STIM_017.jpg	100
581.673	0.674	674.2	test	Phase1	test/STIM_017.jpg	100
584.651	0.589	589.3	test	Phase1	test/STIM_018.jpg	99
589.235	0.639	638.8	test	Phase1	test/STIM_018.jpg	100
593.414	0.772	772.1	test	Phase1	test/STIM_018.jpg	99
596.633	0.87	869.8	test	Phase1	test/STIM_019.jpg	100
600.458	1.074	1073.8	test	Phase1	test/STIM_019.jpg	100
604.628	1.179	1179.0	test	Phase1	test/STIM_019.jpg	100
608.358	0.971	971.3	test	Phase1	test/STIM_020.jpg	100
611.481	0.967	967.2	test	Phase1	test/STIM_020.jpg	99
616.001	1.1	1099.6	test	Phase1	test/STIM_020.jpg	99
619.171	0.986	986.2	test	Phase1	test/STIM_021.jpg	100
622.714	0.873	872.8	test	Phase1	test/STIM_021.jpg	100
626.235	0.713	713.3	test	Phase1	test/STIM_021.jpg	100
630.109	1.193	1193.1	test	Phase1	test/STIM_022.jpg	100
633.981	0.988	987.6	test	Phase1	test/STIM_022.jpg	99
638.222	0.671	671.2	test	Phase1	test/STIM_022.jpg	100
641.794	0.578	578.2	test	Phase1	test/STIM_023.jpg	99
646.385	0.797	796.9	test	Phase1	test/STIM_023.jpg	100
649.422	1.05	1049.6	test	Phase1	test/STIM_023.jpg	100
653.082	0.943	942.9	test	Phase1	test/STIM_024.jpg	100
657.632	0.972	972.2	test	Phase1	test/STIM_024.jpg	100
662.488	0.864	864.5	test	Phase1	test/STIM_024.jpg	100
665.728	0.83	830.1	test	Phase1	test/STIM_025.jpg	99
668.693	0.651	651.1	test	Phase1	test/STIM_025.jpg	99
672.554	0.726	726.3	test	Phase1	test/STIM_025.jpg	100
676.509	1.069	1068.6	test	Phase1	test/STIM_026.jpg	100
680.798	0.631	630.8	test	Phase1	test/STIM_026.jpg	99
684.141	1.225	1224.6	test	Phase1	test/STIM_026.jpg	100
688.997	0.579	579.2	test	Phase1	test/STIM_027.jpg	100
691.785	1.157	1157.0	test	Phase1	test/STIM_027.jpg	100
696.956	0.968	967.7	test	Phase1	test/STIM_027.jpg	100
701.02	0.821	821.1	test	Phase1	test/STIM_028.jpg	99
705.161	1.182	1182.0	test	Phase1	test/STIM_028.jpg	100
710.128	1.136	1135.6	test	Phase1	test/STIM_028.jpg	100
714.027	0.988	988.3	test	Phase1	test/STIM_029.jpg	100
717.238	0.815	815.4	test	Phase1	test/STIM_029.jpg	99
720.199	1.026	1026.0	test	Phase1	test/STIM_029.jpg	99
724.584	1.098	1098.2	study	Phase2	study/STIM_000.jpg	99
728.607	0.673	672.6	study	Phase2	study/STIM_000.jpg	100
732.185	1.037	1036.6	study	Phase2	study/STIM_000.jpg	99
735.393	1.405	1405.3	study	Phase2	study/STIM_001.jpg	100
739.181	1.344	1344.4	study	Phase2	study/STIM_001.jpg	99
743.551	0.998	998.4	study	Phase2	study/STIM_001.jpg	100
747.731	0.7	700.5	study	Phase2	study/STIM_002.jpg	100
751.579	1.264	1263.6	study	Phase2	study/STIM_002.jpg	99
755.417	1.194	1194.5	study	Phase2	study/STIM_002.jpg	100
759.896	0.777	776.9	study	Phase2	study/STIM_003.jpg	100
764.582	1.188	1188.5	study	Phase2	study/STIM_003.jpg	99
768.447	1.175	1175.1	study	Phase2	study/STIM_003.jpg	100
772.02	1.178	1177.7	study	Phase2	study/STIM_004.jpg	99
775.843	0.624	624.4	study	Phase2	study/STIM_004.jpg	100
779.304	0.684	684.5	study	Phase2	study/STIM_004.jpg	99
782.813	1.412	1412.5	study	Phase2	study/STIM_005.jpg	99
786.95	1.322	1321.8	study	Phase2	study/STIM_005.jpg	100
791.262	0.897	897.2	study	Phase2	study/STIM_005.jpg	99
794.679	0.951	951.4	study	Phase2	study/STIM_006.jpg	100
798.744	1.178	1178.5	study	Phase2	study/STIM_006.jpg	100
803.427	0.975	975.0	study	Phase2	study/STIM_006.jpg	99
807.231	1.364	1364.0	study	Phase2	study/STIM_007.jpg	100
811.952	1.098	1097.6	study	Phase2	study/STIM_007.jpg	99
817.016	0.642	641.6	study	Phase2	study/STIM_007.jpg	100
820.357	0.986	986.1	study	Phase2	study/STIM_008.jpg	100
825.22	0.949	949.0	study	Phase2	study/STIM_008.jpg	99
829.411	0.68	679.5	study	Phase2	study/STIM_008.jpg	99
833.564	0.682	681.8	study	Phase2	study/STIM_009.jpg	100
836.583	0.931	930.6	study	Phase2	study/STIM_009.jpg	100
840.488	0.682	681.6	study	Phase2	study/STIM_009.jpg	100
843.945	0.697	697.2	study	Phase2	study/STIM_010.jpg	100
847.899	0.651	650.6	study	Phase2	study/STIM_010.jpg	100
851.417	0.802	802.1	study	Phase2	study/STIM_010.jpg	100
854.959	0.975	975.2	study	Phase2	study/STIM_011.jpg	100
858.318	1.071	1070.9	study	Phase2	study/STIM_011.jpg	100
862.063	1.081	1080.7	study	Phase2	study/STIM_011.jpg	99
866.163	1.177	1176.7	study	Phase2	study/STIM_012.jpg	99
871.356	1.079	1078.6	study	Phase2	study/STIM_012.jpg	100
874.502	0.941	941.1	study	Phase2	study/STIM_012.jpg	100
877.688	1.068	1068.0	study	Phase2	study/STIM_013.jpg	100
881.645	1.109	1109.4	study	Phase2	study/STIM_013.jpg	100
885.695	0.771	771.3	study	Phase2	study/STIM_013.jpg	100
889.212	1.16	1159.6	study	Phase2	study/STIM_014.jpg	100
892.627	1.102	1101.7	study	Phase2	study/STIM_014.jpg	100
896.655	0.674	673.8	study	Phase2	study/STIM_014.jpg	99
900.949	1.355	1354.7	study	Phase2	study/STIM_015.jpg	99
904.505	1.11	1109.6	study	Phase2	study/STIM_015.jpg	99
908.312	0.704	704.5	study	Phase2	study/STIM_015.jpg	100
912.356	1.132	1132.0	study	Phase2	study/STIM_016.jpg	99
916.029	0.939	939.2	study	Phase2	study/STIM_016.jpg	100
920.298	1.126	1126.2	study	Phase2	study/STIM_016.jpg	99
925.033	0.994	994.4	study	Phase2	study/STIM_017.jpg	100
928.999	1.32	1319.5	study	Phase2	study/STIM_017.jpg	100
933.747	0.974	973.8	study	Phase2	study/STIM_017.jpg	100
936.912	1.282	1282.2	study	Phase2	study/STIM_018.jpg	99
940.644	1.342	1342.0	study	Phase2	study/STIM_018.jpg	99
944.568	0.984	984.0	study	Phase2	study/STIM_018.jpg	100
949.3	1.226	1226.1	study	Phase2	study/STIM_019.jpg	99
953.023	1.087	1086.8	study	Phase2	study/STIM_019.jpg	99
956.313	1.071	1070.7	study	Phase2	study/STIM_019.jpg	99
960.608	1.315	1315.2	study	Phase2	study/STIM_020.jpg	100
964.092	1.142	1142.4	study	Phase2	study/STIM_020.jpg	100
968.737	0.975	975.1	study	Phase2	study/STIM_020.jpg	100
971.802	1.198	1198.4	study	Phase2	study/STIM_021.jpg	99
976.789	0.956	955.6	study	Phase2	study/STIM_021.jpg	100
981.309	1.117	1117.4	study	Phase2	study/STIM_021.jpg	99
986.371	1.429	1429.0	study	Phase2	study/STIM_022.jpg	99
991.534	1.136	1136.2	study	Phase2	study/STIM_022.jpg	99
994.946	0.758	758.0	study	Phase2	study/STIM_022.jpg	100
998.025	0.994	993.5	study	Phase2	study/STIM_023.jpg	99
1002.881	1.212	1211.7	study	Phase2	study/STIM_023.jpg	99
1006.664	1.145	1145.4	study	Phase2	study/STIM_023.jpg	99
1011.769	1.441	1441.2	study	Phase2	study/STIM_024.jpg	99
1016.117	0.793	792.6	study	Phase2	study/STIM_024.jpg	99
1019.556	1.136	1136.4	study	Phase2	study/STIM_024.jpg	100
1024.349	0.863	862.6	study	Phase2	study/STIM_025.jpg	100
1028.391	1.315	1315.4	study	Phase2	study/STIM_025.jpg	99
1033.659	1.135	1135.3	study	Phase2	study/STIM_025.jpg	99
1038.436	1.127	1126.8	study	Phase2	study/STIM_026.jpg	99
1042.01	1.258	1257.5	study	Phase2	study/STIM_026.jpg	99
1045.769	1.001	1001.1	study	Phase2	study/STIM_026.jpg	99
1049.148	1.068	1067.9	study	Phase2	study/STIM_027.jpg	99
1052.473	0.956	956.1	study	Phase2	study/STIM_027.jpg	99
1055.58	0.85	850.4	study	Phase2	study/STIM_027.jpg	99
1058.543	0.742	742.2	study	Phase2	study/STIM_028.jpg	99
1061.695	1.21	1209.9	study	Phase2	study/STIM_028.jpg	100
1065.272	0.637	636.9	study	Phase2	study/STIM_028.jpg	100
1069.544	0.934	933.6	study	Phase2	study/STIM_029.jpg	100
1073.342	1.023	1022.7	study	Phase2	study/STIM_029.jpg	99
1077.681	0.845	845.4	study	Phase2	study/STIM_029.jpg	99
1081.925	1.036	1036.4	test	Phase2	test/STIM_000.jpg	99
1085.708	0.916	915.6	test	Phase2	test/STIM_000.jpg	100
1090.08	0.951	951.3	test	Phase2	test/STIM_000.jpg	100
1094.374	1.02	1019.8	test	Phase2	test/STIM_001.jpg	100
1099.207	1.123	1122.6	test	Phase2	test/STIM_001.jpg	100
1104.206	0.857	857.0	test	Phase2	test/STIM_001.jpg	100
1108.743	0.9	899.5	test	Phase2	test/STIM_002.jpg	100
1113.527	0.718	718.4	test	Phase2	test/STIM_002.jpg	100
1117.012	1.133	1133.4	test	Phase2	test/STIM_002.jpg	100
1120.654	1.136	1136.3	test	Phase2	test/STIM_003.jpg	100
1125.8	0.96	960.4	test	Phase2	test/STIM_003.jpg	100
1128.886	0.663	663.3	test	Phase2	test/STIM_003.jpg	99
1133.125	0.713	713.0	test	Phase2	test/STIM_004.jpg	100
1137.153	1.023	1023.2	test	Phase2	test/STIM_004.jpg	99
1142.023	1.007	1006.9	test	Phase2	test/STIM_004.jpg	100
1147.003	0.649	648.9	test	Phase2	test/STIM_005.jpg	100
1151.298	1.138	1137.9	test	Phase2	test/STIM_005.jpg	100
1155.236	0.997	996.8	test	Phase2	test/STIM_005.jpg	99
1158.77	0.888	888.3	test	Phase2	test/STIM_006.jpg	99
1162.679	1.198	1197.6	test	Phase2	test/STIM_006.jpg	99
1167.832	1.098	1098.3	test	Phase2	test/STIM_006.jpg	100
1172.62	1.175	1175.3	test	Phase2	test/STIM_007.jpg	99
1177.233	0.706	705.6	test	Phase2	test/STIM_007.jpg	99
1180.275	1.204	1203.5	test	Phase2	test/STIM_007.jpg	100
1185.261	0.873	873.0	test	Phase2	test/STIM_008.jpg	100
1188.235	0.731	730.9	test	Phase2	test/STIM_008.jpg	100
1192.271	0.679	679.2	test	Phase2	test/STIM_008.jpg	100
1195.72	1.106	1105.7	test	Phase2	test/STIM_009.jpg	99
1200.252	0.76	759.6	test	Phase2	test/STIM_009.jpg	99
1203.861	1.005	1005.2	test	Phase2	test/STIM_009.jpg	99
1206.968	0.573	573.3	test	Phase2	test/STIM_010.jpg	99
1210.869	0.759	759.4	test	Phase2	test/STIM_010.jpg	100
1213.758	0.693	693.0	test	Phase2	test/STIM_010.jpg	100
1218.161	0.883	882.7	test	Phase2	test/STIM_011.jpg	100
1222.844	0.77	769.9	test	Phase2	test/STIM_011.jpg	100
1227.383	0.7	699.7	test	Phase2	test/STIM_011.jpg	100
1232.085	1.215	1215.2	test	Phase2	test/STIM_012.jpg	100
1235.506	0.745	744.8	test	Phase2	test/STIM_012.jpg	99
1239.178	0.975	974.6	test	Phase2	test/STIM_012.jpg	99
1242.872	1.127	1127.2	test	Phase2	test/STIM_013.jpg	100
1246.15	0.899	898.7	test	Phase2	test/STIM_013.jpg	99
1249.888	1.158	1158.0	test	Phase2	test/STIM_013.jpg	100
1254.528	0.766	765.6	test	Phase2	test/STIM_014.jpg	100
1258.453	1.117	1117.2	test	Phase2	test/STIM_014.jpg	100
1262.872	1.16	1160.2	test	Phase2	test/STIM_014.jpg	100
1266.49	1.05	1050.2	test	Phase2	test/STIM_015.jpg	99
1271.095	0.892	892.5	test	Phase2	test/STIM_015.jpg	99
1275.181	0.891	890.9	test	Phase2	test/STIM_015.jpg	100
1279.883	1.157	1156.8	test	Phase2	test/STIM_016.jpg	99
1284.021	0.906	906.1	test	Phase2	test/STIM_016.jpg	99
1288.882	0.995	994.8	test	Phase2	test/STIM_016.jpg	99
1293.0	0.98	980.1	test	Phase2	test/STIM_017.jpg	100
1297.21	0.683	683.3	test	Phase2	test/STIM_017.jpg	100
1300.61	0.848	848.3	test	Phase2	test/STIM_017.jpg	100
1305.139	0.793	793.2	test	Phase2	test/STIM_018.jpg	99
1308.289	0.604	603.6	test	Phase2	test/STIM_018.jpg	100
1311.307	1.185	1184.9	test	Phase2	test/STIM_018.jpg	99
1315.388	1.178	1177.9	test	Phase2	test/STIM_019.jpg	100
1318.823	0.766	765.9	test	Phase2	test/STIM_019.jpg	99
1322.005	0.874	874.0	test	Phase2	test/STIM_019.jpg	99
1326.677	0.598	598.5	test	Phase2	test/STIM_020.jpg	99
1329.862	0.959	958.7	test	Phase2	test/STIM_020.jpg	100
1334.567	1.039	1039.2	test	Phase2	test/STIM_020.jpg	99
1338.918	0.641	640.6	test	Phase2	test/STIM_021.jpg	99
1341.952	0.68	680.2	test	Phase2	test/STIM_021.jpg	99
1345.801	0.682	682.2	test	Phase2	test/STIM_021.jpg	100
1349.368	0.63	630.0	test	Phase2	test/STIM_022.jpg	99
1353.203	1.212	1212.4	test	Phase2	test/STIM_022.jpg	99
1358.387	0.859	859.2	test	Phase2	test/STIM_022.jpg	100
1362.298	1.026	1026.5	test	Phase2	test/STIM_023.jpg	100
1367.114	0.585	585.3	test	Phase2	test/STIM_023.jpg	100
1370.756	0.967	966.7	test	Phase2	test/STIM_023.jpg	100
1374.636	0.886	885.9	test	Phase2	test/STIM_024.jpg	100
1379.122	1.053	1053.2	test	Phase2	test/STIM_024.jpg	100
1384.238	1.126	1126.3	test	Phase2	test/STIM_024.jpg	100
1387.822	0.773	773.3	test	Phase2	test/STIM_025.jpg	100
1392.343	1.08	1079.9	test	Phase2	test/STIM_025.jpg	99
1396.032	0.958	957.8	test	Phase2	test/STIM_025.jpg	99
1399.266	1.018	1017.7	test	Phase2	test/STIM_026.jpg	100
1403.68	0.994	993.8	test	Phase2	test/STIM_026.jpg	100
1407.013	1.083	1083.2	test	Phase2	test/STIM_026.jpg	100
1411.863	1.062	1062.4	test	Phase2	test/STIM_027.jpg	100
1415.833	1.048	1048.3	test	Phase2	test/STIM_027.jpg	100
1420.207	1.092	1091.7	test	Phase2	test/STIM_027.jpg	99
1423.607	0.935	935.1	test	Phase2	test/STIM_028.jpg	99
1427.368	0.578	577.5	test	Phase2	test/STIM_028.jpg	99
1431.597	0.924	924.3	test	Phase2	test/STIM_028.jpg	99
1435.517	0.758	758.4	test	Phase2	test/STIM_029.jpg	100
1439.13	1.181	1181.3	test	Phase2	test/STIM_029.jpg	100
1443.75	1.128	1127.9	test	Phase2	test/STIM_029.jpg	100
1447.301	0.879	879.0	study	Phase3	study/STIM_000.jpg	99
1451.231	0.611	611.0	study	Phase3	study/STIM_000.jpg	100
1454.107	0.867	867.1	study	Phase3	study/STIM_000.jpg	99
1458.969	0.961	960.7	study	Phase3	study/STIM_001.jpg	99
1462.469	0.613	612.9	study	Phase3	study/STIM_001.jpg	100
1466.501	0.931	930.9	study	Phase3	study/STIM_001.jpg	100
1471.013	0.952	952.0	study	Phase3	study/STIM_002.jpg	100
1475.197	0.729	729.0	study	Phase3	study/STIM_002.jpg	99
1478.321	1.006	1005.5	study	Phase3	study/STIM_002.jpg	100
1481.789	0.633	632.8	study	Phase3	study/STIM_003.jpg	100
1486.284	0.682	682.1	study	Phase3	study/STIM_003.jpg	100
1489.568	0.801	801.3	study	Phase3	study/STIM_003.jpg	100
1494.159	0.649	648.8	study	Phase3	study/STIM_004.jpg	99
1497.552	1.176	1175.7	study	Phase3	study/STIM_004.jpg	99
1500.812	0.869	868.6	study	Phase3	study/STIM_004.jpg	100
1503.822	0.989	989.3	study	Phase3	study/STIM_005.jpg	99
1507.792	0.975	975.1	study	Phase3	study/STIM_005.jpg	99
1512.086	0.922	922.2	study	Phase3	study/STIM_005.jpg	99
1515.463	0.706	705.7	study	Phase3	study/STIM_006.jpg	100
1519.103	1.04	1039.6	study	Phase3	study/STIM_006.jpg	99
1522.53	0.694	694.2	study	Phase3	study/STIM_006.jpg	99
1526.73	0.839	838.7	study	Phase3	study/STIM_007.jpg	99
1530.451	1.116	1115.7	study	Phase3	study/STIM_007.jpg	99
1534.974	1.099	1098.6	study	Phase3	study/STIM_007.jpg	100
1540.008	1.077	1077.3	study	Phase3	study/STIM_008.jpg	100
1544.396	1.043	1042.7	study	Phase3	study/STIM_008.jpg	99
1548.02	0.762	762.4	study	Phase3	study/STIM_008.jpg	100
1550.94	0.919	918.7	study	Phase3	study/STIM_009.jpg	99
1554.687	1.112	1112.3	study	Phase3	study/STIM_009.jpg	99
1559.064	0.708	708.4	study	Phase3	study/STIM_009.jpg	99
1562.632	0.762	761.7	study	Phase3	study/STIM_010.jpg	99
1566.526	0.728	727.5	study	Phase3	study/STIM_010.jpg	100
1569.935	0.813	812.9	study	Phase3	study/STIM_010.jpg	100
1574.782	0.863	863.4	study	Phase3	study/STIM_011.jpg	100
1578.78	1.103	1102.9	study	Phase3	study/STIM_011.jpg	99
1583.351	0.62	620.3	study	Phase3	study/STIM_011.jpg	100
1587.541	0.906	906.2	study	Phase3	study/STIM_012.jpg	100
1591.056	0.688	688.1	study	Phase3	study/STIM_012.jpg	100
1595.036	0.529	529.2	study	Phase3	study/STIM_012.jpg	99
1599.313	0.546	546.2	study	Phase3	study/STIM_013.jpg	99
1602.455	1.132	1131.7	study	Phase3	study/STIM_013.jpg	99
1606.692	0.894	893.6	study	Phase3	study/STIM_013.jpg	100
1610.127	1.066	1066.5	study	Phase3	study/STIM_014.jpg	100
1614.232	0.947	947.1	study	Phase3	study/STIM_014.jpg	100
1618.275	0.91	909.6	study	Phase3	study/STIM_014.jpg	100
1621.709	0.722	721.9	study	Phase3	study/STIM_015.jpg	100
1626.441	0.672	671.8	study	Phase3	study/STIM_015.jpg	99
1630.582	1.074	1073.7	study	Phase3	study/STIM_015.jpg	100
1634.321	0.566	566.3	study	Phase3	study/STIM_016.jpg	99
1638.884	0.598	597.7	study	Phase3	study/STIM_016.jpg	99
1641.53	0.999	998.8	study	Phase3	study/STIM_016.jpg	99
1644.848	0.751	750.7	study	Phase3	study/STIM_017.jpg	99
1647.857	0.68	680.0	study	Phase3	study/STIM_017.jpg	100
1652.515	0.919	919.2	study	Phase3	study/STIM_017.jpg	99
1656.792	0.624	623.6	study	Phase3	study/STIM_018.jpg	100
1659.716	0.793	793.2	study	Phase3	study/STIM_018.jpg	99
1663.674	0.607	606.9	study	Phase3	study/STIM_018.jpg	100
1667.914	1.008	1007.5	study	Phase3	study/STIM_019.jpg	100
1671.237	1.118	1117.6	study	Phase3	study/STIM_019.jpg	99
1676.414	0.696	695.9	study	Phase3	study/STIM_019.jpg	99
1679.625	0.94	939.5	study	Phase3	study/STIM_020.jpg	100
1682.875	0.576	575.7	study	Phase3	study/STIM_020.jpg	99
1686.474	0.936	936.1	study	Phase3	study/STIM_020.jpg	100
1690.947	0.833	833.1	study	Phase3	study/STIM_021.jpg	100
1694.743	0.602	602.5	study	Phase3	study/STIM_021.jpg	100
1697.427	0.891	891.3	study	Phase3	study/STIM_021.jpg	100
1701.379	0.897	897.1	study	Phase3	study/STIM_022.jpg	100
1705.444	1.027	1027.4	study	Phase3	study/STIM_022.jpg	100
1709.3	0.705	705.4	study	Phase3	study/STIM_022.jpg	99
1713.498	1.103	1103.4	study	Phase3	study/STIM_023.jpg	99
1716.815	0.607	607.1	study	Phase3	study/STIM_023.jpg	100
1720.524	1.169	1169.3	study	Phase3	study/STIM_023.jpg	100
1725.681	0.553	553.4	study	Phase3	study/STIM_024.jpg	99
1728.63	1.131	1130.7	study	Phase3	study/STIM_024.jpg	100
1733.725	0.661	660.8	study	Phase3	study/STIM_024.jpg	99
1737.408	0.78	779.6	study	Phase3	study/STIM_025.jpg	100
1742.184	0.929	928.6	study	Phase3	study/STIM_025.jpg	99
1745.344	0.943	942.8	study	Phase3	study/STIM_025.jpg	100
1750.115	0.784	784.5	study	Phase3	study/STIM_026.jpg	100
1753.403	0.7	699.5	study	Phase3	study/STIM_026.jpg	99
1756.753	0.696	695.8	study	Phase3	study/STIM_026.jpg	99
1761.164	0.571	570.7	study	Phase3	study/STIM_027.jpg	100
1764.02	0.571	571.3	study	Phase3	study/STIM_027.jpg	100
1767.631	0.853	852.6	study	Phase3	study/STIM_027.jpg	99
1771.109	0.966	966.0	study	Phase3	study/STIM_028.jpg	99
1774.802	1.074	1074.0	study	Phase3	study/STIM_028.jpg	100
1778.728	1.088	1087.9	study	Phase3	study/STIM_028.jpg	100
1782.955	0.67	670.2	study	Phase3	study/STIM_029.jpg	100
1786.045	0.56	560.2	study	Phase3	study/STIM_029.jpg	99
1790.092	1.138	1137.9	study	Phase3	study/STIM_029.jpg	100
1795.202	0.627	627.0	test	Phase3	test/STIM_000.jpg	99
1799.075	1.204	1203.9	test	Phase3	test/STIM_000.jpg	99
1802.455	0.712	712.1	test	Phase3	test/STIM_000.jpg	100
1805.885	0.595	594.7	test	Phase3	test/STIM_001.jpg	99
1809.547	1.009	1009.0	test	Phase3	test/STIM_001.jpg	100
1812.725	0.953	953.2	test	Phase3	test/STIM_001.jpg	99
1816.792	1.146	1145.6	test	Phase3	test/STIM_002.jpg	99
1820.159	0.699	699.3	test	Phase3	test/STIM_002.jpg	100
1823.787	0.758	757.9	test	Phase3	test/STIM_002.jpg	99
1827.481	1.167	1167.2	test	Phase3	test/STIM_003.jpg	99
1831.278	0.921	920.9	test	Phase3	test/STIM_003.jpg	100
1835.515	1.188	1187.7	test	Phase3	test/STIM_003.jpg	100
1839.889	0.708	707.7	test	Phase3	test/STIM_004.jpg	100
1844.026	1.119	1119.3	test	Phase3	test/STIM_004.jpg	99
1848.423	0.914	913.8	test	Phase3	test/STIM_004.jpg	99
1851.536	0.669	669.1	test	Phase3	test/STIM_005.jpg	100
1855.047	0.788	788.4	test	Phase3	test/STIM_005.jpg	99
1858.954	0.96	959.5	test	Phase3	test/STIM_005.jpg	100
1862.527	1.195	1195.1	test	Phase3	test/STIM_006.jpg	100
1867.672	0.772	771.5	test	Phase3	test/STIM_006.jpg	99
1870.707	0.613	612.8	test	Phase3	test/STIM_006.jpg	100
1874.84	0.744	743.9	test	Phase3	test/STIM_007.jpg	99
1878.186	0.822	822.5	test	Phase3	test/STIM_007.jpg	99
1882.77	0.907	906.7	test	Phase3	test/STIM_007.jpg	100
1886.117	1.196	1196.0	test	Phase3	test/STIM_008.jpg	100
1891.002	0.81	809.6	test	Phase3	test/STIM_008.jpg	100
1894.596	0.798	798.1	test	Phase3	test/STIM_008.jpg	100
1899.365	1.21	1210.5	test	Phase3	test/STIM_009.jpg	99
1904.158	0.938	938.0	test	Phase3	test/STIM_009.jpg	100
1908.872	0.887	886.9	test	Phase3	test/STIM_009.jpg	99
1912.887	0.937	937.3	test	Phase3	test/STIM_010.jpg	99
1916.592	0.703	703.4	test	Phase3	test/STIM_010.jpg	99
1919.754	0.895	895.1	test	Phase3	test/STIM_010.jpg	99
1923.937	1.131	1130.8	test	Phase3	test/STIM_011.jpg	100
1928.938	0.963	963.4	test	Phase3	test/STIM_011.jpg	99
1933.225	1.194	1194.2	test	Phase3	test/STIM_011.jpg	100
1937.656	1.17	1170.4	test	Phase3	test/STIM_012.jpg	100
1942.159	0.88	879.5	test	Phase3	test/STIM_012.jpg	100
1946.346	0.601	600.8	test	Phase3	test/STIM_012.jpg	100
1948.992	0.769	768.7	test	Phase3	test/STIM_013.jpg	100
1952.561	0.769	768.9	test	Phase3	test/STIM_013.jpg	100
1957.246	1.143	1142.9	test	Phase3	test/STIM_013.jpg	99
1962.226	1.174	1174.0	test	Phase3	test/STIM_014.jpg	100
1966.037	0.631	630.9	test	Phase3	test/STIM_014.jpg	99
1970.599	0.936	936.3	test	Phase3	test/STIM_014.jpg	99
1973.817	0.661	660.8	test	Phase3	test/STIM_015.jpg	99
1978.42	0.804	804.1	test	Phase3	test/STIM_015.jpg	99
1981.513	0.973	973.4	test	Phase3	test/STIM_015.jpg	100
1986.265	0.568	568.1	test	Phase3	test/STIM_016.jpg	100
1989.307	1.193	1193.2	test	Phase3	test/STIM_016.jpg	100
1992.646	0.919	918.8	test	Phase3	test/STIM_016.jpg	100
1997.308	1.192	1192.5	test	Phase3	test/STIM_017.jpg	99
2002.432	1.045	1044.8	test	Phase3	test/STIM_017.jpg	100
2007.396	1.007	1006.6	test	Phase3	test/STIM_017.jpg	99
2011.824	0.831	830.9	test	Phase3	test/STIM_018.jpg	99
2016.143	1.11	1110.1	test	Phase3	test/STIM_018.jpg	100
2019.778	1.198	1197.6	test	Phase3	test/STIM_018.jpg	100
2023.713	0.738	737.7	test	Phase3	test/STIM_019.jpg	100
2027.307	0.977	977.4	test	Phase3	test/STIM_019.jpg	99
2032.322	1.1	1099.6	test	Phase3	test/STIM_019.jpg	99
2036.935	1.123	1123.0	test	Phase3	test/STIM_020.jpg	100
2041.696	0.885	884.7	test	Phase3	test/STIM_020.jpg	100
2045.686	1.012	1012.2	test	Phase3	test/STIM_020.jpg	100
2049.473	0.943	943.2	test	Phase3	test/STIM_021.jpg	99
2054.425	0.716	716.0	test	Phase3	test/STIM_021.jpg	100
2058.538	0.84	839.8	test	Phase3	test/STIM_021.jpg	99
2062.122	1.099	1098.6	test	Phase3	test/STIM_022.jpg	99
2066.276	0.878	878.0	test	Phase3	test/STIM_022.jpg	100
2069.645	0.913	913.3	test	Phase3	test/STIM_022.jpg	100
2073.565	0.788	787.8	test	Phase3	test/STIM_023.jpg	99
2077.677	0.817	817.4	test	Phase3	test/STIM_023.jpg	100
2081.048	0.984	984.1	test	Phase3	test/STIM_023.jpg	100
2084.306	0.993	993.2	test	Phase3	test/STIM_024.jpg	99
2088.002	0.889	889.3	test	Phase3	test/STIM_024.jpg	100
2092.836	0.769	769.0	test	Phase3	test/STIM_024.jpg	99
2096.839	1.21	1210.0	test	Phase3	test/STIM_025.jpg	100
2101.672	1.073	1073.1	test	Phase3	test/STIM_025.jpg	100
2106.401	0.738	738.3	test	Phase3	test/STIM_025.jpg	100
2110.034	1.189	1189.0	test	Phase3	test/STIM_026.jpg	100
2114.565	0.978	978.1	test	Phase3	test/STIM_026.jpg	100
2118.382	1.033	1032.8	test	Phase3	test/STIM_026.jpg	100
2121.813	0.837	837.0	test	Phase3	test/STIM_027.jpg	100
2125.185	0.815	814.7	test	Phase3	test/STIM_027.jpg	99
2128.51	0.716	716.2	test	Phase3	test/STIM_027.jpg	99
2133.195	0.78	779.6	test	Phase3	test/STIM_028.jpg	99
2136.537	1.179	1178.7	test	Phase3	test/STIM_028.jpg	100
2141.392	0.598	598.5	test	Phase3	test/STIM_028.jpg	99
2145.082	0.759	759.4	test	Phase3	test/STIM_029.jpg	99
2149.047	1.032	1032.4	test	Phase3	test/STIM_029.jpg	99
2153.276	0.678	678.5	test	Phase3	test/STIM_029.jpg	100
