onset	duration	response_time_ms	trial_type	learning_stage	stimulus	response_port
0.0	1.109	1109.1	study	Phase1	study/STIM_000.jpg	99
3.581	1.337	1337.4	study	Phase1	study/STIM_000.jpg	99
8.071	0.776	775.5	study	Phase1	study/STIM_000.jpg	100
11.145	1.063	1062.7	study	Phase1	study/STIM_001.jpg	99
15.526	0.843	843.4	study	Phase1	study/STIM_001.jpg	99
19.962	0.899	899.1	study	Phase1	study/STIM_001.jpg	100
24.227	1.129	1128.8	study	Phase1	study/STIM_002.jpg	99
27.911	1.15	1150.3	study	Phase1	study/STIM_002.jpg	99
31.199	0.81	810.3	study	Phase1	study/STIM_002.jpg	99
34.646	1.086	1085.6	study	Phase1	study/STIM_003.jpg	100
38.468	0.903	902.8	study	Phase1	study/STIM_003.jpg	99
42.413	0.972	971.7	study	Phase1	study/STIM_003.jpg	99
45.589	1.569	1569.3	study	Phase1	study/STIM_004.jpg	100
49.912	0.864	863.9	study	Phase1	study/STIM_004.jpg	100
54.688	0.704	703.5	study	Phase1	study/STIM_004.jpg	99
58.164	1.481	1480.8	study	Phase1	study/STIM_005.jpg	99
62.688	1.17	1170.1	study	Phase1	study/STIM_005.jpg	100
67.118	0.91	909.5	study	Phase1	study/STIM_005.jpg	99
70.208	1.043	1043.1	study	Phase1	study/STIM_006.jpg	99
74.464	1.166	1166.5	study	Phase1	study/STIM_006.jpg	99
78.307	1.482	1481.5	study	Phase1	study/STIM_006.jpg	100
81.893	0.987	986.9	study	Phase1	study/STIM_007.jpg	100
86.401	0.913	912.6	study	Phase1	study/STIM_007.jpg	100
89.985	0.8	799.9	study	Phase1	study/STIM_007.jpg	99
94.422	0.956	955.7	study	Phase1	study/STIM_008.jpg	100
99.143	1.02	1020.1	study	Phase1	study/STIM_008.jpg	100
102.702	1.212	1211.7	study	Phase1	study/STIM_008.jpg	100
106.299	1.483	1483.4	study	Phase1	study/STIM_009.jpg	100
111.571	1.431	1431.0	study	Phase1	study/STIM_009.jpg	100
115.229	0.944	943.9	study	Phase1	study/STIM_009.jpg	99
118.674	1.635	1634.9	study	Phase1	study/STIM_010.jpg	100
123.247	1.512	1511.9	study	Phase1	study/STIM_010.jpg	99
128.25	1.17	1169.6	study	Phase1	study/STIM_010.jpg	100
133.296	1.047	1046.6	study	Phase1	study/STIM_011.jpg	99
137.792	0.992	991.9	study	Phase1	study/STIM_011.jpg	99
142.646	0.919	919.2	study	Phase1	study/STIM_011.jpg	100
146.874	1.185	1185.1	study	Phase1	study/STIM_012.jpg	100
151.144	1.051	1050.8	study	Phase1	study/STIM_012.jpg	100
154.813	1.15	1150.4	study	Phase1	study/STIM_012.jpg	99
159.263	0.766	766.2	study	Phase1	study/STIM_013.jpg	100
162.151	1.443	1443.4	study	Phase1	study/STIM_013.jpg	99
166.823	0.769	768.8	study	Phase1	study/STIM_013.jpg	99
171.049	1.548	1548.1	study	Phase1	study/STIM_014.jpg	100
175.44	1.22	1219.9	study	Phase1	study/STIM_014.jpg	99
179.001	1.349	1348.6	study	Phase1	study/STIM_014.jpg	100
183.843	1.559	1558.9	study	Phase1	study/STIM_015.jpg	99
187.908	0.72	719.5	study	Phase1	study/STIM_015.jpg	100
191.734	1.237	1237.3	study	Phase1	study/STIM_015.jpg	99
195.874	1.358	1357.7	study	Phase1	study/STIM_016.jpg	100
199.511	1.133	1132.8	study	Phase1	study/STIM_016.jpg	100
204.613	1.136	1135.8	study	Phase1	study/STIM_016.jpg	100
209.324	1.567	1566.6	study	Phase1	study/STIM_017.jpg	99
213.974	0.701	700.7	study	Phase1	study/STIM_017.jpg	100
217.114	1.256	1256.4	study	Phase1	study/STIM_017.jpg	99
221.316	0.76	760.2	study	Phase1	study/STIM_018.jpg	99
224.862	1.34	1340.2	study	Phase1	study/STIM_018.jpg	100
229.057	0.822	822.1	study	Phase1	study/STIM_018.jpg	99
232.867	1.612	1612.1	study	Phase1	study/STIM_019.jpg	99
236.734	1.405	1405.2	study	Phase1	study/STIM_019.jpg	100
241.917	1.171	1171.0	study	Phase1	study/STIM_019.jpg	99
246.783	1.27	1269.8	study	Phase1	study/STIM_020.jpg	99
250.992	1.405	1405.3	study	Phase1	study/STIM_020.jpg	99
256.178	0.954	954.3	study	Phase1	study/STIM_020.jpg	99
260.71	1.079	1078.6	study	Phase1	study/STIM_021.jpg	100
264.974	1.026	1026.4	study	Phase1	study/STIM_021.jpg	99
268.176	0.741	740.6	study	Phase1	study/STIM_021.jpg	99
271.688	1.22	1220.0	study	Phase1	study/STIM_022.jpg	100
276.217	1.526	1526.0	study	Phase1	study/STIM_022.jpg	99
279.965	0.952	951.9	study	Phase1	study/STIM_022.jpg	100
284.412	1.168	1167.5	study	Phase1	study/STIM_023.jpg	100
287.613	0.749	749.3	study	Phase1	study/STIM_023.jpg	100
290.764	1.309	1309.1	study	Phase1	study/STIM_023.jpg	100
295.235	0.894	894.0	study	Phase1	study/STIM_024.jpg	99
299.072	1.062	1061.8	study	Phase1	study/STIM_024.jpg	99
302.198	1.094	1093.7	study	Phase1	study/STIM_024.jpg	99
306.883	0.881	881.0	study	Phase1	study/STIM_025.jpg	100
310.406	1.57	1569.7	study	Phase1	study/STIM_025.jpg	100
314.826	0.842	842.2	study	Phase1	study/STIM_025.jpg	99
319.658	1.275	1275.4	study	Phase1	study/STIM_026.jpg	99
323.248	1.356	1356.4	study	Phase1	study/STIM_026.jpg	99
328.128	1.422	1422.4	study	Phase1	study/STIM_026.jpg	99
333.357	1.166	1165.6	study	Phase1	study/STIM_027.jpg	99
337.432	0.827	826.6	study	Phase1	study/STIM_027.jpg	99
340.91	0.727	726.6	study	Phase1	study/STIM_027.jpg	100
344.795	1.595	1595.1	study	Phase1	study/STIM_028.jpg	100
349.25	0.904	903.7	study	Phase1	study/STIM_028.jpg	99
353.839	1.445	1445.2	study	Phase1	study/STIM_028.jpg	99
358.523	0.955	954.9	study	Phase1	study/STIM_029.jpg	99
363.291	1.118	1117.8	study	Phase1	study/STIM_029.jpg	99
368.376	1.168	1168.4	study	Phase1	study/STIM_029.jpg	100
372.308	1.061	1060.7	test	Phase1	test/STIM_000.jpg	100
375.389	0.716	716.0	test	Phase1	test/STIM_000.jpg	99
379.658	0.668	667.6	test	Phase1	test/STIM_000.jpg	99
383.919	0.924	923.9	test	Phase1	test/STIM_001.jpg	99
388.532	0.816	815.8	test	Phase1	test/STIM_001.jpg	99
392.652	0.577	577.0	test	Phase1	test/STIM_001.jpg	99
395.386	1.028	1027.9	test	Phase1	test/STIM_002.jpg	100
400.087	0.823	823.4	test	Phase1	test/STIM_002.jpg	100
403.352	0.974	974.3	test	Phase1	test/STIM_002.jpg	99
407.115	0.655	655.1	test	Phase1	test/STIM_003.jpg	100
410.634	0.88	879.8	test	Phase1	test/STIM_003.jpg	99
414.045	0.885	885.3	test	Phase1	test/STIM_003.jpg	99
418.097	0.835	835.3	test	Phase1	test/STIM_004.jpg	100
421.122	1.038	1038.4	test	Phase1	test/STIM_004.jpg	99
425.555	1.171	1171.2	test	Phase1	test/STIM_004.jpg	100
428.953	1.119	1118.8	test	Phase1	test/STIM_005.jpg	99
432.213	0.687	687.2	test	Phase1	test/STIM_005.jpg	99
435.179	0.855	854.8	test	Phase1	test/STIM_005.jpg	100
439.653	0.896	896.1	test	Phase1	test/STIM_006.jpg	99
442.606	0.59	590.1	test	Phase1	test/STIM_006.jpg	99
446.285	0.632	631.7	test	Phase1	test/STIM_006.jpg	100
449.953	1.093	1093.4	test	Phase1	test/STIM_007.jpg	100
453.713	1.007	1006.7	test	Phase1	test/STIM_007.jpg	99
458.216	0.724	723.7	test	Phase1	test/STIM_007.jpg	99
461.805	0.747	746.8	test	Phase1	test/STIM_008.jpg	99
465.473	0.754	753.5	test	Phase1	test/STIM_008.jpg	99
469.74	0.742	742.3	test	Phase1	test/STIM_008.jpg	100
474.289	0.981	980.6	test	Phase1	test/STIM_009.jpg	99
478.472	0.783	782.6	test	Phase1	test/STIM_009.jpg	100
482.905	0.843	843.0	test	Phase1	test/STIM_009.jpg	99
487.232	0.712	712.2	test	Phase1	test/STIM_010.jpg	100
490.415	1.042	1042.1	test	Phase1	test/STIM_010.jpg	100
495.406	0.716	715.5	test	Phase1	test/STIM_010.jpg	99
498.859	1.137	1136.6	test	Phase1	test/STIM_011.jpg	99
503.34	0.695	694.9	test	Phase1	test/STIM_011.jpg	100
506.745	0.618	617.7	test	Phase1	test/STIM_011.jpg	99
509.751	0.623	623.0	test	Phase1	test/STIM_012.jpg	100
512.997	0.872	872.3	test	Phase1	test/STIM_012.jpg	100
517.047	0.961	960.9	test	Phase1	test/STIM_012.jpg	100
521.146	0.75	749.7	test	Phase1	test/STIM_013.jpg	100
525.257	1.092	1092.2	test	Phase1	test/STIM_013.jpg	100
530.125	0.939	939.4	test	Phase1	test/STIM_013.jpg	100
534.451	1.123	1123.3	test	Phase1	test/STIM_014.jpg	99
539.548	1.121	1121.2	test	Phase1	test/STIM_014.jpg	99
543.174	0.899	898.7	test	Phase1	test/STIM_014.jpg	99
546.698	0.585	585.3	test	Phase1	test/STIM_015.jpg	100
550.151	1.044	1044.3	test	Phase1	test/STIM_015.jpg	99
554.833	0.786	786.2	test	Phase1	test/STIM_015.jpg	100
559.494	0.649	648.7	test	Phase1	test/STIM_016.jpg	99
563.77	0.999	999.3	test	Phase1	test/STIM_016.jpg	100
568.374	0.862	862.5	test	Phase1	test/STIM_016.jpg	99
571.908	0.59	590.3	test	Phase1	test/STIM_017.jpg	100
575.434	1.13	1130.1	test	Phase1	test/STIM_017.jpg	99
579.197	0.766	766.2	test	Phase1	test/STIM_017.jpg	99
583.051	0.822	821.6	test	Phase1	test/STIM_018.jpg	99
587.813	1.074	1074.1	test	Phase1	test/STIM_018.jpg	99
590.98	0.716	716.2	test	Phase1	test/STIM_018.jpg	100
595.178	0.686	685.5	test	Phase1	test/STIM_019.jpg	100
599.085	0.867	866.6	test	Phase1	test/STIM_019.jpg	99
602.212	0.631	631.4	test	Phase1	test/STIM_019.jpg	100
605.052	0.76	760.3	test	Phase1	test/STIM_020.jpg	99
608.105	0.746	746.4	test	Phase1	test/STIM_020.jpg	100
612.079	0.706	706.4	test	Phase1	test/STIM_020.jpg	99
615.154	0.958	958.1	test	Phase1	test/STIM_021.jpg	99
618.158	1.157	1157.3	test	Phase1	test/STIM_021.jpg	100
623.215	0.724	724.0	test	Phase1	test/STIM_021.jpg	100
626.846	0.651	651.0	test	Phase1	test/STIM_022.jpg	99
630.887	1.148	1148.1	test	Phase1	test/STIM_022.jpg	99
635.293	1.173	1172.8	test	Phase1	test/STIM_022.jpg	100
640.111	1.12	1120.3	test	Phase1	test/STIM_023.jpg	99
643.989	0.563	563.2	test	Phase1	test/STIM_023.jpg	99
648.102	0.699	698.9	test	Phase1	test/STIM_023.jpg	99
651.53	0.712	712.4	test	Phase1	test/STIM_024.jpg	99
654.264	1.183	1183.4	test	Phase1	test/STIM_024.jpg	100
659.028	0.588	587.7	test	Phase1	test/STIM_024.jpg	100
662.912	1.069	1069.4	test	Phase1	test/STIM_025.jpg	100
667.108	1.004	1004.4	test	Phase1	test/STIM_025.jpg	100
670.464	1.154	1154.3	test	Phase1	test/STIM_025.jpg	100
674.167	0.583	582.6	test	Phase1	test/STIM_026.jpg	99
677.266	0.953	953.3	test	Phase1	test/STIM_026.jpg	99
680.671	1.032	1032.4	test	Phase1	test/STIM_026.jpg	99
685.302	1.15	1149.8	test	Phase1	test/STIM_027.jpg	100
689.348	0.588	587.5	test	Phase1	test/STIM_027.jpg	99
692.581	0.974	973.5	test	Phase1	test/STIM_027.jpg	100
695.839	0.558	557.7	test	Phase1	test/STIM_028.jpg	100
700.266	1.136	1136.3	test	Phase1	test/STIM_028.jpg	100
704.778	0.83	830.2	test	Phase1	test/STIM_028.jpg	100
709.061	0.746	746.0	test	Phase1	test/STIM_029.jpg	99
711.942	0.861	860.8	test	Phase1	test/STIM_029.jpg	100
715.724	1.078	1077.8	test	Phase1	test/STIM_029.jpg	99
719.043	0.819	819.3	study	Phase2	study/STIM_000.jpg	100
722.591	1.039	1039.1	study	Phase2	study/STIM_000.jpg	100
727.071	0.636	636.3	study	Phase2	study/STIM_000.jpg	100
730.541	0.987	987.2	study	Phase2	study/STIM_001.jpg	100
733.657	0.652	652.4	study	Phase2	study/STIM_001.jpg	100
736.31	0.762	761.9	study	Phase2	study/STIM_001.jpg	100
740.169	0.648	648.4	study	Phase2	study/STIM_002.jpg	99
744.694	1.144	1144.2	study	Phase2	study/STIM_002.jpg	100
748.89	1.036	1036.3	study	Phase2	study/STIM_002.jpg	99
752.071	1.112	1112.0	study	Phase2	study/STIM_003.jpg	100
756.211	1.103	1103.0	study	Phase2	study/STIM_003.jpg	99
760.602	1.201	1200.9	study	Phase2	study/STIM_003.jpg	100
763.917	1.07	1069.8	study	Phase2	study/STIM_004.jpg	99
767.669	0.939	938.8	study	Phase2	study/STIM_004.jpg	100
772.045	0.676	676.0	study	Phase2	study/STIM_004.jpg	100
775.862	0.933	932.9	study	Phase2	study/STIM_005.jpg	99
778.998	0.83	830.2	study	Phase2	study/STIM_005.jpg	100
782.689	1.083	1083.1	study	Phase2	study/STIM_005.jpg	99
786.062	1.059	1058.9	study	Phase2	study/STIM_006.jpg	100
791.023	0.631	631.3	study	Phase2	study/STIM_006.jpg	99
795.21	1.218	1217.9	study	Phase2	study/STIM_006.jpg	100
799.012	1.094	1093.7	study	Phase2	study/STIM_007.jpg	99
804.06	0.677	677.0	study	Phase2	study/STIM_007.jpg	99
808.204	0.94	939.7	study	Phase2	study/STIM_007.jpg	99
812.005	1.289	1288.6	study	Phase2	study/STIM_008.jpg	100
815.752	1.109	1108.7	study	Phase2	study/STIM_008.jpg	100
820.802	0.758	757.9	study	Phase2	study/STIM_008.jpg	100
824.077	0.822	822.3	study	Phase2	study/STIM_009.jpg	100
827.467	0.693	692.8	study	Phase2	study/STIM_009.jpg	99
830.671	1.118	1118.5	study	Phase2	study/STIM_009.jpg	100
834.972	0.937	937.1	study	Phase2	study/STIM_010.jpg	99
837.988	1.32	1320.5	study	Phase2	study/STIM_010.jpg	100
842.054	0.828	828.0	study	Phase2	study/STIM_010.jpg	100
846.199	1.366	1366.1	study	Phase2	study/STIM_011.jpg	100
851.487	1.025	1024.9	study	Phase2	study/STIM_011.jpg	99
856.039	1.235	1235.2	study	Phase2	study/STIM_011.jpg	99
860.316	1.362	1362.5	study	Phase2	study/STIM_012.jpg	100
865.239	1.264	1264.2	study	Phase2	study/STIM_012.jpg	99
869.389	1.128	1128.5	study	Phase2	study/STIM_012.jpg	100
873.474	0.842	841.7	study	Phase2	study/STIM_013.jpg	100
877.068	0.938	937.6	study	Phase2	study/STIM_013.jpg	99
881.697	0.568	567.7	study	Phase2	study/STIM_013.jpg	99
886.166	0.976	976.5	study	Phase2	study/STIM_014.jpg	99
889.165	0.891	891.1	study	Phase2	study/STIM_014.jpg	100
893.841	1.011	1010.7	study	Phase2	study/STIM_014.jpg	100
896.997	0.917	917.3	study	Phase2	study/STIM_015.jpg	99
901.594	0.658	657.5	study	Phase2	study/STIM_015.jpg	100
905.583	0.707	706.6	study	Phase2	study/STIM_015.jpg	100
908.331	0.908	908.3	study	Phase2	study/STIM_016.jpg	99
912.382	0.774	774.4	study	Phase2	study/STIM_016.jpg	99
915.846	1.197	1197.2	study	Phase2	study/STIM_016.jpg	100
920.34	0.75	750.0	study	Phase2	study/STIM_017.jpg	100
923.802	1.011	1011.3	study	Phase2	study/STIM_017.jpg	100
926.861	0.688	687.9	study	Phase2	study/STIM_017.jpg	100
930.268	0.986	986.1	study	Phase2	study/STIM_018.jpg	100
934.43	1.229	1228.8	study	Phase2	study/STIM_018.jpg	99
938.245	0.737	737.3	study	Phase2	study/STIM_018.jpg	100
942.767	1.27	1269.5	study	Phase2	study/STIM_019.jpg	100
946.461	0.844	843.5	study	Phase2	study/STIM_019.jpg	99
950.396	1.017	1017.3	study	Phase2	study/STIM_019.jpg	99
954.029	1.122	1122.2	study	Phase2	study/STIM_020.jpg	99
958.809	0.63	629.8	study	Phase2	study/STIM_020.jpg	99
962.824	1.152	1152.5	study	Phase2	study/STIM_020.jpg	99
966.277	1.13	1129.5	study	Phase2	study/STIM_021.jpg	100
970.796	1.314	1313.8	study	Phase2	study/STIM_021.jpg	100
975.368	0.966	965.9	study	Phase2	study/STIM_021.jpg	99
979.651	1.017	1016.6	study	Phase2	study/STIM_022.jpg	100
984.178	0.622	622.3	study	Phase2	study/STIM_022.jpg	100
988.595	0.99	990.2	study	Phase2	study/STIM_022.jpg	100
992.001	1.333	1333.1	study	Phase2	study/STIM_023.jpg	99
995.904	0.845	844.8	study	Phase2	study/STIM_023.jpg	100
999.421	1.237	1237.4	study	Phase2	study/STIM_023.jpg	99
1002.716	1.268	1267.7	study	Phase2	study/STIM_024.jpg	99
1007.932	1.033	1032.6	study	Phase2	study/STIM_024.jpg	100
1012.43	1.048	1048.2	study	Phase2	study/STIM_024.jpg	100
1015.906	1.289	1289.1	study	Phase2	study/STIM_025.jpg	100
1021.185	0.858	858.0	study	Phase2	study/STIM_025.jpg	99
1026.005	0.838	838.4	study	Phase2	study/STIM_025.jpg	100
1030.723	0.772	772.3	study	Phase2	study/STIM_026.jpg	100
1034.901	0.877	876.9	study	Phase2	study/STIM_026.jpg	99
1039.512	1.241	1240.7	study	Phase2	study/STIM_026.jpg	99
1043.197	0.846	845.8	study	Phase2	study/STIM_027.jpg	100
1046.766	0.749	748.6	study	Phase2	study/STIM_027.jpg	100
1050.196	0.61	609.6	study	Phase2	study/STIM_027.jpg	100
1053.906	0.958	957.9	study	Phase2	study/STIM_028.jpg	100
1057.304	0.808	808.3	study	Phase2	study/STIM_028.jpg	100
1062.056	1.231	1230.9	study	Phase2	study/STIM_028.jpg	99
1067.1	0.972	971.9	study	Phase2	study/STIM_029.jpg	100
1070.79	1.239	1238.7	study	Phase2	study/STIM_029.jpg	99
1074.04	1.2	1200.0	study	Phase2	study/STIM_029.jpg	100
1078.105	0.835	834.6	test	Phase2	test/STIM_000.jpg	99
1081.343	0.631	630.7	test	Phase2	test/STIM_000.jpg	100
1085.005	0.74	739.9	test	Phase2	test/STIM_000.jpg	100
1089.037	1.158	1157.7	test	Phase2	test/STIM_001.jpg	99
1093.928	1.105	1104.9	test	Phase2	test/STIM_001.jpg	100
1098.667	1.074	1073.5	test	Phase2	test/STIM_001.jpg	99
1103.533	0.827	826.7	test	Phase2	test/STIM_002.jpg	100
1106.504	0.731	730.7	test	Phase2	test/STIM_002.jpg	99
1111.229	0.826	826.2	test	Phase2	test/STIM_002.jpg	99
1114.84	0.909	908.7	test	Phase2	test/STIM_003.jpg	99
1119.117	0.73	730.5	test	Phase2	test/STIM_003.jpg	99
1122.653	0.759	758.9	test	Phase2	test/STIM_003.jpg	99
1126.492	0.915	914.6	test	Phase2	test/STIM_004.jpg	100
1130.255	0.776	775.6	test	Phase2	test/STIM_004.jpg	99
1133.106	0.666	666.1	test	Phase2	test/STIM_004.jpg	99
1136.982	1.014	1014.4	test	Phase2	test/STIM_005.jpg	99
1141.762	1.154	1154.0	test	Phase2	test/STIM_005.jpg	99
1145.265	1.062	1062.3	test	Phase2	test/STIM_005.jpg	99
1148.631	0.606	605.5	test	Phase2	test/STIM_006.jpg	100
1152.922	1.097	1097.3	test	Phase2	test/STIM_006.jpg	99
1157.45	0.717	717.2	test	Phase2	test/STIM_006.jpg	99
1161.291	0.849	848.7	test	Phase2	test/STIM_007.jpg	99
1164.151	0.761	761.3	test	Phase2	test/STIM_007.jpg	99
1167.863	0.817	816.6	test	Phase2	test/STIM_007.jpg	100
1172.606	1.147	1146.9	test	Phase2	test/STIM_008.jpg	100
1177.636	0.609	609.4	test	Phase2	test/STIM_008.jpg	99
1180.907	0.673	672.8	test	Phase2	test/STIM_008.jpg	99
1184.832	1.182	1182.1	test	Phase2	test/STIM_009.jpg	100
1188.804	0.727	726.7	test	Phase2	test/STIM_009.jpg	100
1192.059	0.671	670.8	test	Phase2	test/STIM_009.jpg	99
1195.382	0.994	994.4	test	Phase2	test/STIM_010.jpg	100
1198.495	0.568	567.7	test	Phase2	test/STIM_010.jpg	99
1202.914	0.966	965.8	test	Phase2	test/STIM_010.jpg	100
1205.968	0.797	797.4	test	Phase2	test/STIM_011.jpg	100
1209.447	0.737	736.6	test	Phase2	test/STIM_011.jpg	99
1213.82	1.074	1073.6	test	Phase2	test/STIM_011.jpg	99
1217.909	0.616	615.9	test	Phase2	test/STIM_012.jpg	100
1221.43	0.616	615.9	test	Phase2	test/STIM_012.jpg	100
1224.622	0.682	682.1	test	Phase2	test/STIM_012.jpg	99
1228.273	0.73	730.3	test	Phase2	test/STIM_013.jpg	99
1231.582	0.776	775.9	test	Phase2	test/STIM_013.jpg	100
1235.501	0.74	739.6	test	Phase2	test/STIM_013.jpg	99
1239.678	0.748	748.2	test	Phase2	test/STIM_014.jpg	100
1243.052	1.183	1182.8	test	Phase2	test/STIM_014.jpg	100
1247.037	0.981	981.1	test	Phase2	test/STIM_014.jpg	99
1251.651	1.11	1109.8	test	Phase2	test/STIM_015.jpg	100
1255.872	0.772	772.2	test	Phase2	test/STIM_015.jpg	100
1259.857	0.597	596.8	test	Phase2	test/STIM_015.jpg	100
1262.879	0.644	644.4	test	Phase2	test/STIM_016.jpg	100
1267.317	1.023	1022.8	test	Phase2	test/STIM_016.jpg	99
1271.11	0.757	757.4	test	Phase2	test/STIM_016.jpg	99
1274.773	0.774	773.9	test	Phase2	test/STIM_017.jpg	100
1279.371	1.043	1042.9	test	Phase2	test/STIM_017.jpg	100
1283.299	1.072	1072.3	test	Phase2	test/STIM_017.jpg	99
1286.65	1.169	1168.9	test	Phase2	test/STIM_018.jpg	100
1291.156	0.854	853.7	test	Phase2	test/STIM_018.jpg	99
1295.489	1.049	1049.3	test	Phase2	test/STIM_018.jpg	99
1300.382	0.754	753.9	test	Phase2	test/STIM_019.jpg	99
1304.312	0.78	779.5	test	Phase2	test/STIM_019.jpg	100
1309.016	1.136	1136.3	test	Phase2	test/STIM_019.jpg	99
1313.888	0.887	887.4	test	Phase2	test/STIM_020.jpg	99
1317.11	0.68	680.1	test	Phase2	test/STIM_020.jpg	100
1320.903	0.865	864.8	test	Phase2	test/STIM_020.jpg	99
1325.38	0.78	780.1	test	Phase2	test/STIM_021.jpg	99
1328.987	1.009	1008.8	test	Phase2	test/STIM_021.jpg	100
1332.633	0.628	627.9	test	Phase2	test/STIM_021.jpg	100
1335.847	1.018	1017.6	test	Phase2	test/STIM_022.jpg	99
1340.514	1.017	1016.7	test	Phase2	test/STIM_022.jpg	99
1343.816	1.144	1143.7	test	Phase2	test/STIM_022.jpg	99
1348.875	1.072	1071.7	test	Phase2	test/STIM_023.jpg	100
1353.918	0.842	842.5	test	Phase2	test/STIM_023.jpg	99
1358.625	0.874	874.4	test	Phase2	test/STIM_023.jpg	99
1362.808	0.93	929.7	test	Phase2	test/STIM_024.jpg	100
1366.322	0.622	622.4	test	Phase2	test/STIM_024.jpg	100
1369.315	0.666	666.3	test	Phase2	test/STIM_024.jpg	100
1372.828	0.613	612.9	test	Phase2	test/STIM_025.jpg	100
1377.241	0.755	755.4	test	Phase2	test/STIM_025.jpg	100
1381.174	0.815	815.1	test	Phase2	test/STIM_025.jpg	99
1385.565	1.16	1160.1	test	Phase2	test/STIM_026.jpg	100
1390.119	1.142	1142.1	test	Phase2	test/STIM_026.jpg	99
1393.641	0.751	750.8	test	Phase2	test/STIM_026.jpg	99
1396.478	1.042	1042.3	test	Phase2	test/STIM_027.jpg	99
1401.276	0.584	583.6	test	Phase2	test/STIM_027.jpg	100
1404.059	0.59	589.6	test	Phase2	test/STIM_027.jpg	100
1407.094	0.675	675.2	test	Phase2	test/STIM_028.jpg	100
1410.394	1.1	1100.0	test	Phase2	test/STIM_028.jpg	99
1413.873	0.888	888.5	test	Phase2	test/STIM_028.jpg	100
1418.207	0.864	864.2	test	Phase2	test/STIM_029.jpg	100
1422.969	0.823	822.6	test	Phase2	test/STIM_029.jpg	99
1427.466	0.662	662.1	test	Phase2	test/STIM_029.jpg	100
1431.232	0.884	884.2	study	Phase3	study/STIM_000.jpg	99
1434.168	0.946	945.5	study	Phase3	study/STIM_000.jpg	100
1438.514	0.66	660.2	study	Phase3	study/STIM_000.jpg	99
1442.315	0.554	553.5	study	Phase3	study/STIM_001.jpg	100
1446.63	0.616	615.8	study	Phase3	study/STIM_001.jpg	99
1450.688	1.086	1086.5	study	Phase3	study/STIM_001.jpg	100
1455.448	0.976	976.0	study	Phase3	study/STIM_002.jpg	99
1459.426	0.704	704.4	study	Phase3	study/STIM_002.jpg	100
1462.944	0.759	759.1	study	Phase3	study/STIM_002.jpg	100
1466.953	1.099	1098.6	study	Phase3	study/STIM_003.jpg	100
1471.36	0.54	539.5	study	Phase3	study/STIM_003.jpg	100
1474.16	0.877	876.6	study	Phase3	study/STIM_003.jpg	99
1478.511	0.904	904.3	study	Phase3	study/STIM_004.jpg	100
1481.722	0.581	580.9	study	Phase3	study/STIM_004.jpg	100
1484.968	0.8	800.5	study	Phase3	study/STIM_004.jpg	100
1489.086	0.546	546.1	study	Phase3	study/STIM_005.jpg	99
1491.826	0.548	547.6	study	Phase3	study/STIM_005.jpg	99
1495.216	0.964	964.2	study	Phase3	study/STIM_005.jpg	100
1498.67	0.937	936.6	study	Phase3	study/STIM_006.jpg	99
1502.364	1.131	1130.7	study	Phase3	study/STIM_006.jpg	100
1507.321	0.618	618.4	study	Phase3	study/STIM_006.jpg	100
1510.56	1.043	1043.2	study	Phase3	study/STIM_007.jpg	100
1515.076	0.718	717.5	study	Phase3	study/STIM_007.jpg	100
1519.298	0.905	904.9	study	Phase3	study/STIM_007.jpg	100
1522.434	1.142	1142.1	study	Phase3	study/STIM_008.jpg	99
1526.881	0.856	855.5	study	Phase3	study/STIM_008.jpg	99
1529.925	1.116	1115.7	study	Phase3	study/STIM_008.jpg	99
1533.755	0.636	636.2	study	Phase3	study/STIM_009.jpg	100
1537.176	0.966	966.0	study	Phase3	study/STIM_009.jpg	100
1540.259	1.042	1042.5	study	Phase3	study/STIM_009.jpg	100
1543.571	0.693	693.4	study	Phase3	study/STIM_010.jpg	99
1547.233	1.142	1141.5	study	Phase3	study/STIM_010.jpg	99
1552.123	0.598	598.4	study	Phase3	study/STIM_010.jpg	99
1554.761	1.008	1008.3	study	Phase3	study/STIM_011.jpg	100
1558.773	0.99	989.9	study	Phase3	study/STIM_011.jpg	100
1562.433	1.044	1043.9	study	Phase3	study/STIM_011.jpg	100
1567.165	0.753	752.7	study	Phase3	study/STIM_012.jpg	100
1570.661	0.835	835.4	study	Phase3	study/STIM_012.jpg	99
1574.62	0.943	943.1	study	Phase3	study/STIM_012.jpg	99
1578.673	0.599	598.9	study	Phase3	study/STIM_013.jpg	99
1582.026	0.576	576.2	study	Phase3	study/STIM_013.jpg	100
1586.076	0.727	727.0	study	Phase3	study/STIM_013.jpg	99
1590.225	1.155	1154.6	study	Phase3	study/STIM_014.jpg	100
1594.301	1.009	1009.4	study	Phase3	study/STIM_014.jpg	100
1597.312	0.654	653.8	study	Phase3	study/STIM_014.jpg	99
1600.944	0.976	975.6	study	Phase3	study/STIM_015.jpg	99
1604.126	0.684	684.4	study	Phase3	study/STIM_015.jpg	100
1606.969	0.617	617.4	study	Phase3	study/STIM_015.jpg	100
1611.098	0.772	772.5	study	Phase3	study/STIM_016.jpg	100
1614.731	0.729	729.2	study	Phase3	study/STIM_016.jpg	100
1619.306	0.523	523.2	study	Phase3	study/STIM_016.jpg	100
1622.43	1.018	1017.6	study	Phase3	study/STIM_017.jpg	100
1626.47	0.915	914.6	study	Phase3	study/STIM_017.jpg	99
1631.302	0.871	870.9	study	Phase3	study/STIM_017.jpg	100
1635.031	0.798	797.6	study	Phase3	study/STIM_018.jpg	100
1638.549	0.636	635.6	study	Phase3	study/STIM_018.jpg	99
1641.841	0.774	774.1	study	Phase3	study/STIM_018.jpg	100
1646.6	0.885	885.1	study	Phase3	study/STIM_019.jpg	99
1649.776	0.955	954.7	study	Phase3	study/STIM_019.jpg	99
1654.539	0.699	699.4	study	Phase3	study/STIM_019.jpg	99
1658.126	0.662	661.6	study	Phase3	study/STIM_020.jpg	100
1660.853	1.07	1070.1	study	Phase3	study/STIM_020.jpg	99
1664.72	0.609	608.8	study	Phase3	study/STIM_020.jpg	99
1669.244	0.608	608.4	study	Phase3	study/STIM_021.jpg	100
1672.248	1.122	1122.0	study	Phase3	study/STIM_021.jpg	100
1676.584	0.703	702.6	study	Phase3	study/STIM_021.jpg	99
1680.549	1.136	1135.6	study	Phase3	study/STIM_022.jpg	99
1684.31	1.019	1019.2	study	Phase3	study/STIM_022.jpg	100
1688.785	1.015	1014.6	study	Phase3	study/STIM_022.jpg	99
1693.179	0.624	624.1	study	Phase3	study/STIM_023.jpg	99
1695.915	1.002	1002.1	study	Phase3	study/STIM_023.jpg	99
1699.947	1.148	1147.9	study	Phase3	study/STIM_023.jpg	99
1704.876	0.634	633.6	study	Phase3	study/STIM_024.jpg	99
1708.087	1.037	1036.6	study	Phase3	study/STIM_024.jpg	99
1711.942	1.14	1139.7	study	Phase3	study/STIM_024.jpg	99
1716.643	0.829	829.0	study	Phase3	study/STIM_025.jpg	99
1720.669	0.884	884.3	study	Phase3	study/STIM_025.jpg	100
1723.934	0.524	524.2	study	Phase3	study/STIM_025.jpg	100
1727.871	1.016	1015.7	study	Phase3	study/STIM_026.jpg	100
1731.211	1.091	1091.0	study	Phase3	study/STIM_026.jpg	99
1735.387	0.684	683.7	study	Phase3	study/STIM_026.jpg	100
1738.173	0.738	738.1	study	Phase3	study/STIM_027.jpg	100
1741.856	0.541	540.6	study	Phase3	study/STIM_027.jpg	99
1744.801	0.554	554.0	study	Phase3	study/STIM_027.jpg	100
1748.247	1.147	1147.0	study	Phase3	study/STIM_028.jpg	100
1751.971	1.15	1149.7	study	Phase3	study/STIM_028.jpg	99
1755.753	0.704	703.8	study	Phase3	study/STIM_028.jpg	100
1759.54	0.89	889.7	study	Phase3	study/STIM_029.jpg	99
1762.539	0.866	865.8	study	Phase3	study/STIM_029.jpg	100
1767.321	0.867	867.2	study	Phase3	study/STIM_029.jpg	100
1770.803	0.587	586.7	test	Phase3	test/STIM_000.jpg	100
1774.345	0.98	980.4	test	Phase3	test/STIM_000.jpg	99
1778.593	0.67	670.0	test	Phase3	test/STIM_000.jpg	99
1783.023	0.816	816.2	test	Phase3	test/STIM_001.jpg	100
1786.838	0.837	837.4	test	Phase3	test/STIM_001.jpg	100
1791.649	1.139	1139.3	test	Phase3	test/STIM_001.jpg	99
1796.017	0.608	608.3	test	Phase3	test/STIM_002.jpg	99
1800.312	0.854	854.5	test	Phase3	test/STIM_002.jpg	99
1804.332	0.589	588.6	test	Phase3	test/STIM_002.jpg	100
1808.09	1.115	1115.2	test	Phase3	test/STIM_003.jpg	100
1811.706	1.159	1159.0	test	Phase3	test/STIM_003.jpg	99
1814.997	1.11	1110.3	test	Phase3	test/STIM_003.jpg	100
1819.013	1.129	1129.3	test	Phase3	test/STIM_004.jpg	99
1822.257	0.906	905.8	test	Phase3	test/STIM_004.jpg	100
1826.231	0.643	642.9	test	Phase3	test/STIM_004.jpg	99
1829.087	0.931	930.9	test	Phase3	test/STIM_005.jpg	99
1833.346	0.587	587.3	test	Phase3	test/STIM_005.jpg	99
1837.767	0.738	738.3	test	Phase3	test/STIM_005.jpg	99
1841.472	0.896	896.0	test	Phase3	test/STIM_006.jpg	100
1846.157	1.172	1171.7	test	Phase3	test/STIM_006.jpg	99
1849.632	0.898	898.1	test	Phase3	test/STIM_006.jpg	100
1853.432	0.988	988.5	test	Phase3	test/STIM_007.jpg	100
1856.827	1.037	1037.1	test	Phase3	test/STIM_007.jpg	100
1861.068	0.726	725.7	test	Phase3	test/STIM_007.jpg	100
1865.46	1.146	1146.5	test	Phase3	test/STIM_008.jpg	99
1870.596	0.646	645.8	test	Phase3	test/STIM_008.jpg	100
1873.994	1.17	1169.6	test	Phase3	test/STIM_008.jpg	99
1878.541	1.196	1195.8	test	Phase3	test/STIM_009.jpg	99
1883.15	0.984	983.8	test	Phase3	test/STIM_009.jpg	100
1887.569	0.874	873.9	test	Phase3	test/STIM_009.jpg	100
1891.997	0.657	657.1	test	Phase3	test/STIM_010.jpg	100
1896.181	0.791	791.2	test	Phase3	test/STIM_010.jpg	99
1900.506	1.113	1113.1	test	Phase3	test/STIM_010.jpg	99
1904.449	0.568	568.5	test	Phase3	test/STIM_011.jpg	99
1907.034	0.805	805.2	test	Phase3	test/STIM_011.jpg	100
1911.006	1.071	1071.3	test	Phase3	test/STIM_011.jpg	100
1914.306	0.782	781.9	test	Phase3	test/STIM_012.jpg	99
1917.415	0.596	595.5	test	Phase3	test/STIM_012.jpg	99
1920.592	0.956	956.2	test	Phase3	test/STIM_012.jpg	100
1923.625	0.918	918.4	test	Phase3	test/STIM_013.jpg	99
1926.723	0.809	809.3	test	Phase3	test/STIM_013.jpg	99
1931.471	0.873	872.7	test	Phase3	test/STIM_013.jpg	99
1936.234	0.839	839.0	test	Phase3	test/STIM_014.jpg	99
1939.693	0.803	803.3	test	Phase3	test/STIM_014.jpg	99
1943.786	0.97	969.6	test	Phase3	test/STIM_014.jpg	100
1947.212	0.788	787.8	test	Phase3	test/STIM_015.jpg	99
1951.327	0.644	644.5	test	Phase3	test/STIM_015.jpg	100
1954.54	0.888	887.7	test	Phase3	test/STIM_015.jpg	100
1959.116	1.032	1032.3	test	Phase3	test/STIM_016.jpg	99
1962.63	1.124	1124.2	test	Phase3	test/STIM_016.jpg	99
1966.835	0.61	610.3	test	Phase3	test/STIM_016.jpg	99
1969.539	0.967	966.8	test	Phase3	test/STIM_017.jpg	99
1972.836	1.039	1039.4	test	Phase3	test/STIM_017.jpg	99
1977.644	0.616	616.5	test	Phase3	test/STIM_017.jpg	99
1982.112	0.82	819.8	test	Phase3	test/STIM_018.jpg	99
1986.864	0.827	827.0	test	Phase3	test/STIM_018.jpg	100
1991.531	0.56	560.1	test	Phase3	test/STIM_018.jpg	99
1995.518	0.824	823.6	test	Phase3	test/STIM_019.jpg	99
1999.954	0.757	756.9	test	Phase3	test/STIM_019.jpg	100
2002.887	1.17	1169.5	test	Phase3	test/STIM_019.jpg	99
2006.998	0.897	897.1	test	Phase3	test/STIM_020.jpg	100
2010.875	0.743	743.4	test	Phase3	test/STIM_020.jpg	99
2015.265	0.832	832.5	test	Phase3	test/STIM_020.jpg	100
2018.249	0.784	783.7	test	Phase3	test/STIM_021.jpg	100
2021.926	0.846	845.5	test	Phase3	test/STIM_021.jpg	100
2025.097	0.833	833.2	test	Phase3	test/STIM_021.jpg	100
2028.215	0.972	971.8	test	Phase3	test/STIM_022.jpg	99
2031.198	0.948	948.5	test	Phase3	test/STIM_022.jpg	99
2034.267	0.608	608.5	test	Phase3	test/STIM_022.jpg	99
2037.086	1.095	1094.7	test	Phase3	test/STIM_023.jpg	99
2041.863	0.944	943.8	test	Phase3	test/STIM_023.jpg	99
2046.349	0.918	918.1	test	Phase3	test/STIM_023.jpg	99
2050.485	0.649	648.9	test	Phase3	test/STIM_024.jpg	100
2055.121	1.117	1116.9	test	Phase3	test/STIM_024.jpg	99
2060.211	0.598	598.1	test	Phase3	test/STIM_024.jpg	99
2063.919	0.954	953.9	test	Phase3	test/STIM_025.jpg	99
2068.346	0.997	997.2	test	Phase3	test/STIM_025.jpg	100
2072.54	0.557	557.4	test	Phase3	test/STIM_025.jpg	100
2076.616	1.146	1145.7	test	Phase3	test/STIM_026.jpg	100
2079.864	0.635	635.0	test	Phase3	test/STIM_026.jpg	100
2084.401	0.703	703.3	test	Phase3	test/STIM_026.jpg	99
2088.051	0.943	943.2	test	Phase3	test/STIM_027.jpg	99
2092.922	0.858	857.6	test	Phase3	test/STIM_027.jpg	100
2096.813	1.106	1106.1	test	Phase3	test/STIM_027.jpg	100
2100.56	0.875	875.0	test	Phase3	test/STIM_028.jpg	99
2103.971	1.061	1061.1	test	Phase3	test/STIM_028.jpg	100
2107.049	1.113	1112.6	test	Phase3	test/STIM_028.jpg	100
2112.017	0.56	560.2	test	Phase3	test/STIM_029.jpg	99
2116.117	0.98	979.8	test	Phase3	test/STIM_029.jpg	100
2120.296	1.095	1094.6	test	Phase3	test/STIM_029.jpg	100
