onset	duration	accuracy_binary	trial_type	learning_stage	stimulus
0.0	1.109	1	study	Phase1	study/STIM_000.jpg
3.581	1.337	1	study	Phase1	study/STIM_000.jpg
8.071	0.776	1	study	Phase1	study/STIM_000.jpg
11.145	1.063	1	study	Phase1	study/STIM_001.jpg
15.526	0.843	1	study	Phase1	study/STIM_001.jpg
19.962	0.899	0	study	Phase1	study/STIM_001.jpg
24.227	1.129	1	study	Phase1	study/STIM_002.jpg
27.911	1.15	0	study	Phase1	study/STIM_002.jpg
31.199	0.81	1	study	Phase1	study/STIM_002.jpg
34.646	1.086	0	study	Phase1	study/STIM_003.jpg
38.468	0.903	0	study	Phase1	study/STIM_003.jpg
42.413	0.972	1	study	Phase1	study/STIM_003.jpg
45.589	1.569	1	study	Phase1	study/STIM_004.jpg
49.912	0.864	1	study	Phase1	study/STIM_004.jpg
54.688	0.704	1	study	Phase1	study/STIM_004.jpg
58.164	1.481	1	study	Phase1	study/STIM_005.jpg
62.688	1.17	1	study	Phase1	study/STIM_005.jpg
67.118	0.91	0	study	Phase1	study/STIM_005.jpg
70.208	1.043	1	study	Phase1	study/STIM_006.jpg
74.464	1.166	0	study	Phase1	study/STIM_006.jpg
78.307	1.482	1	study	Phase1	study/STIM_006.jpg
81.893	0.987	1	study	Phase1	study/STIM_007.jpg
86.401	0.913	1	study	Phase1	study/STIM_007.jpg
89.985	0.8	0	study	Phase1	study/STIM_007.jpg
94.422	0.956	0	study	Phase1	study/STIM_008.jpg
99.143	1.02	1	study	Phase1	study/STIM_008.jpg
102.702	1.212	0	study	Phase1	study/STIM_008.jpg
106.299	1.483	1	study	Phase1	study/STIM_009.jpg
111.571	1.431	1	study	Phase1	study/STIM_009.jpg
115.229	0.944	1	study	Phase1	study/STIM_009.jpg
118.674	1.635	1	study	Phase1	study/STIM_010.jpg
123.247	1.512	1	study	Phase1	study/STIM_010.jpg
128.25	1.17	1	study	Phase1	study/STIM_010.jpg
133.296	1.047	1	study	Phase1	study/STIM_011.jpg
137.792	0.992	0	study	Phase1	study/STIM_011.jpg
142.646	0.919	1	study	Phase1	study/STIM_011.jpg
146.874	1.185	0	study	Phase1	study/STIM_012.jpg
151.144	1.051	0	study	Phase1	study/STIM_012.jpg
154.813	1.15	1	study	Phase1	study/STIM_012.jpg
159.263	0.766	1	study	Phase1	study/STIM_013.jpg
162.151	1.443	1	study	Phase1	study/STIM_013.jpg
166.823	0.769	1	study	Phase1	study/STIM_013.jpg
171.049	1.548	0	study	Phase1	study/STIM_014.jpg
175.44	1.22	1	study	Phase1	study/STIM_014.jpg
179.001	1.349	0	study	Phase1	study/STIM_014.jpg
183.843	1.559	1	study	Phase1	study/STIM_015.jpg
187.908	0.72	1	study	Phase1	study/STIM_015.jpg
191.734	1.237	0	study	Phase1	study/STIM_015.jpg
195.874	1.358	0	study	Phase1	study/STIM_016.jpg
199.511	1.133	1	study	Phase1	study/STIM_016.jpg
204.613	1.136	1	study	Phase1	study/STIM_016.jpg
209.324	1.567	1	study	Phase1	study/STIM_017.jpg
213.974	0.701	0	study	Phase1	study/STIM_017.jpg
217.114	1.256	1	study	Phase1	study/STIM_017.jpg
221.316	0.76	1	study	Phase1	study/STIM_018.jpg
224.862	1.34	0	study	Phase1	study/STIM_018.jpg
229.057	0.822	0	study	Phase1	study/STIM_018.jpg
232.867	1.612	1	study	Phase1	study/STIM_019.jpg
236.734	1.405	1	study	Phase1	study/STIM_019.jpg
241.917	1.171	1	study	Phase1	study/STIM_019.jpg
246.783	1.27	0	study	Phase1	study/STIM_020.jpg
250.992	1.405	1	study	Phase1	study/STIM_020.jpg
256.178	0.954	1	study	Phase1	study/STIM_020.jpg
260.71	1.079	1	study	Phase1	study/STIM_021.jpg
264.974	1.026	1	study	Phase1	study/STIM_021.jpg
268.176	0.741	0	study	Phase1	study/STIM_021.jpg
271.688	1.22	0	study	Phase1	study/STIM_022.jpg
276.217	1.526	1	study	Phase1	study/STIM_022.jpg
279.965	0.952	0	study	Phase1	study/STIM_022.jpg
284.412	1.168	0	study	Phase1	study/STIM_023.jpg
287.613	0.749	1	study	Phase1	study/STIM_023.jpg
290.764	1.309	0	study	Phase1	study/STIM_023.jpg
295.235	0.894	1	study	Phase1	study/STIM_024.jpg
299.072	1.062	1	study	Phase1	study/STIM_024.jpg
302.198	1.094	1	study	Phase1	study/STIM_024.jpg
306.883	0.881	1	study	Phase1	study/STIM_025.jpg
310.406	1.57	1	study	Phase1	study/STIM_025.jpg
314.826	0.842	1	study	Phase1	study/STIM_025.jpg
319.658	1.275	1	study	Phase1	study/STIM_026.jpg
323.248	1.356	1	study	Phase1	study/STIM_026.jpg
328.128	1.422	1	study	Phase1	study/STIM_026.jpg
333.357	1.166	1	study	Phase1	study/STIM_027.jpg
337.432	0.827	1	study	Phase1	study/STIM_027.jpg
340.91	0.727	1	study	Phase1	study/STIM_027.jpg
344.795	1.595	1	study	Phase1	study/STIM_028.jpg
349.25	0.904	0	study	Phase1	study/STIM_028.jpg
353.839	1.445	1	study	Phase1	study/STIM_028.jpg
358.523	0.955	1	study	Phase1	study/STIM_029.jpg
363.291	1.118	0	study	Phase1	study/STIM_029.jpg
368.376	1.168	1	study	Phase1	study/STIM_029.jpg
372.308	1.061	1	test	Phase1	test/STIM_000.jpg
375.389	0.716	1	test	Phase1	test/STIM_000.jpg
379.658	0.668	1	test	Phase1	test/STIM_000.jpg
383.919	0.924	1	test	Phase1	test/STIM_001.jpg
388.532	0.816	1	test	Phase1	test/STIM_001.jpg
392.652	0.577	1	test	Phase1	test/STIM_001.jpg
395.386	1.028	1	test	Phase1	test/STIM_002.jpg
400.087	0.823	1	test	Phase1	test/STIM_002.jpg
403.352	0.974	0	test	Phase1	test/STIM_002.jpg
407.115	0.655	0	test	Phase1	test/STIM_003.jpg
410.634	0.88	1	test	Phase1	test/STIM_003.jpg
414.045	0.885	1	test	Phase1	test/STIM_003.jpg
418.097	0.835	1	test	Phase1	test/STIM_004.jpg
421.122	1.038	0	test	Phase1	test/STIM_004.jpg
425.555	1.171	1	test	Phase1	test/STIM_004.jpg
428.953	1.119	1	test	Phase1	test/STIM_005.jpg
432.213	0.687	1	test	Phase1	test/STIM_005.jpg
435.179	0.855	1	test	Phase1	test/STIM_005.jpg
439.653	0.896	1	test	Phase1	test/STIM_006.jpg
442.606	0.59	1	test	Phase1	test/STIM_006.jpg
446.285	0.632	1	test	Phase1	test/STIM_006.jpg
449.953	1.093	1	test	Phase1	test/STIM_007.jpg
453.713	1.007	0	test	Phase1	test/STIM_007.jpg
458.216	0.724	1	test	Phase1	test/STIM_007.jpg
461.805	0.747	1	test	Phase1	test/STIM_008.jpg
465.473	0.754	0	test	Phase1	test/STIM_008.jpg
469.74	0.742	1	test	Phase1	test/STIM_008.jpg
474.289	0.981	1	test	Phase1	test/STIM_009.jpg
478.472	0.783	0	test	Phase1	test/STIM_009.jpg
482.905	0.843	1	test	Phase1	test/STIM_009.jpg
487.232	0.712	0	test	Phase1	test/STIM_010.jpg
490.415	1.042	1	test	Phase1	test/STIM_010.jpg
495.406	0.716	1	test	Phase1	test/STIM_010.jpg
498.859	1.137	1	test	Phase1	test/STIM_011.jpg
503.34	0.695	1	test	Phase1	test/STIM_011.jpg
506.745	0.618	1	test	Phase1	test/STIM_011.jpg
509.751	0.623	1	test	Phase1	test/STIM_012.jpg
512.997	0.872	0	test	Phase1	test/STIM_012.jpg
517.047	0.961	1	test	Phase1	test/STIM_012.jpg
521.146	0.75	0	test	Phase1	test/STIM_013.jpg
525.257	1.092	1	test	Phase1	test/STIM_013.jpg
530.125	0.939	1	test	Phase1	test/STIM_013.jpg
534.451	1.123	0	test	Phase1	test/STIM_014.jpg
539.548	1.121	1	test	Phase1	test/STIM_014.jpg
543.174	0.899	0	test	Phase1	test/STIM_014.jpg
546.698	0.585	0	test	Phase1	test/STIM_015.jpg
550.151	1.044	0	test	Phase1	test/STIM_015.jpg
554.833	0.786	1	test	Phase1	test/STIM_015.jpg
559.494	0.649	1	test	Phase1	test/STIM_016.jpg
563.77	0.999	1	test	Phase1	test/STIM_016.jpg
568.374	0.862	0	test	Phase1	test/STIM_016.jpg
571.908	0.59	1	test	Phase1	test/STIM_017.jpg
575.434	1.13	1	test	Phase1	test/STIM_017.jpg
579.197	0.766	0	test	Phase1	test/STIM_017.jpg
583.051	0.822	0	test	Phase1	test/STIM_018.jpg
587.813	1.074	0	test	Phase1	test/STIM_018.jpg
590.98	0.716	1	test	Phase1	test/STIM_018.jpg
595.178	0.686	0	test	Phase1	test/STIM_019.jpg
599.085	0.867	1	test	Phase1	test/STIM_019.jpg
602.212	0.631	1	test	Phase1	test/STIM_019.jpg
605.052	0.76	1	test	Phase1	test/STIM_020.jpg
608.105	0.746	1	test	Phase1	test/STIM_020.jpg
612.079	0.706	1	test	Phase1	test/STIM_020.jpg
615.154	0.958	1	test	Phase1	test/STIM_021.jpg
618.158	1.157	1	test	Phase1	test/STIM_021.jpg
623.215	0.724	1	test	Phase1	test/STIM_021.jpg
626.846	0.651	1	test	Phase1	test/STIM_022.jpg
630.887	1.148	1	test	Phase1	test/STIM_022.jpg
635.293	1.173	1	test	Phase1	test/STIM_022.jpg
640.111	1.12	1	test	Phase1	test/STIM_023.jpg
643.989	0.563	1	test	Phase1	test/STIM_023.jpg
648.102	0.699	1	test	Phase1	test/STIM_023.jpg
651.53	0.712	0	test	Phase1	test/STIM_024.jpg
654.264	1.183	1	test	Phase1	test/STIM_024.jpg
659.028	0.588	1	test	Phase1	test/STIM_024.jpg
662.912	1.069	1	test	Phase1	test/STIM_025.jpg
667.108	1.004	1	test	Phase1	test/STIM_025.jpg
670.464	1.154	1	test	Phase1	test/STIM_025.jpg
674.167	0.583	1	test	Phase1	test/STIM_026.jpg
677.266	0.953	1	test	Phase1	test/STIM_026.jpg
680.671	1.032	0	test	Phase1	test/STIM_026.jpg
685.302	1.15	1	test	Phase1	test/STIM_027.jpg
689.348	0.588	0	test	Phase1	test/STIM_027.jpg
692.581	0.974	0	test	Phase1	test/STIM_027.jpg
695.839	0.558	1	test	Phase1	test/STIM_028.jpg
700.266	1.136	1	test	Phase1	test/STIM_028.jpg
704.778	0.83	1	test	Phase1	test/STIM_028.jpg
709.061	0.746	0	test	Phase1	test/STIM_029.jpg
711.942	0.861	0	test	Phase1	test/STIM_029.jpg
715.724	1.078	1	test	Phase1	test/STIM_029.jpg
719.043	0.819	1	study	Phase2	study/STIM_000.jpg
722.591	1.039	1	study	Phase2	study/STIM_000.jpg
727.071	0.636	1	study	Phase2	study/STIM_000.jpg
730.541	0.987	1	study	Phase2	study/STIM_001.jpg
733.657	0.652	1	study	Phase2	study/STIM_001.jpg
736.31	0.762	1	study	Phase2	study/STIM_001.jpg
740.169	0.648	1	study	Phase2	study/STIM_002.jpg
744.694	1.144	1	study	Phase2	study/STIM_002.jpg
748.89	1.036	1	study	Phase2	study/STIM_002.jpg
752.071	1.112	0	study	Phase2	study/STIM_003.jpg
756.211	1.103	1	study	Phase2	study/STIM_003.jpg
760.602	1.201	1	study	Phase2	study/STIM_003.jpg
763.917	1.07	1	study	Phase2	study/STIM_004.jpg
767.669	0.939	0	study	Phase2	study/STIM_004.jpg
772.045	0.676	1	study	Phase2	study/STIM_004.jpg
775.862	0.933	1	study	Phase2	study/STIM_005.jpg
778.998	0.83	1	study	Phase2	study/STIM_005.jpg
782.689	1.083	1	study	Phase2	study/STIM_005.jpg
786.062	1.059	1	study	Phase2	study/STIM_006.jpg
791.023	0.631	0	study	Phase2	study/STIM_006.jpg
795.21	1.218	0	study	Phase2	study/STIM_006.jpg
799.012	1.094	1	study	Phase2	study/STIM_007.jpg
804.06	0.677	1	study	Phase2	study/STIM_007.jpg
808.204	0.94	1	study	Phase2	study/STIM_007.jpg
812.005	1.289	1	study	Phase2	study/STIM_008.jpg
815.752	1.109	1	study	Phase2	study/STIM_008.jpg
820.802	0.758	1	study	Phase2	study/STIM_008.jpg
824.077	0.822	1	study	Phase2	study/STIM_009.jpg
827.467	0.693	0	study	Phase2	study/STIM_009.jpg
830.671	1.118	1	study	Phase2	study/STIM_009.jpg
834.972	0.937	0	study	Phase2	study/STIM_010.jpg
837.988	1.32	0	study	Phase2	study/STIM_010.jpg
842.054	0.828	1	study	Phase2	study/STIM_010.jpg
846.199	1.366	1	study	Phase2	study/STIM_011.jpg
851.487	1.025	1	study	Phase2	study/STIM_011.jpg
856.039	1.235	0	study	Phase2	study/STIM_011.jpg
860.316	1.362	1	study	Phase2	study/STIM_012.jpg
865.239	1.264	1	study	Phase2	study/STIM_012.jpg
869.389	1.128	1	study	Phase2	study/STIM_012.jpg
873.474	0.842	1	study	Phase2	study/STIM_013.jpg
877.068	0.938	1	study	Phase2	study/STIM_013.jpg
881.697	0.568	1	study	Phase2	study/STIM_013.jpg
886.166	0.976	0	study	Phase2	study/STIM_014.jpg
889.165	0.891	1	study	Phase2	study/STIM_014.jpg
893.841	1.011	1	study	Phase2	study/STIM_014.jpg
896.997	0.917	0	study	Phase2	study/STIM_015.jpg
901.594	0.658	1	study	Phase2	study/STIM_015.jpg
905.583	0.707	0	study	Phase2	study/STIM_015.jpg
908.331	0.908	0	study	Phase2	study/STIM_016.jpg
912.382	0.774	1	study	Phase2	study/STIM_016.jpg
915.846	1.197	1	study	Phase2	study/STIM_016.jpg
920.34	0.75	0	study	Phase2	study/STIM_017.jpg
923.802	1.011	1	study	Phase2	study/STIM_017.jpg
926.861	0.688	1	study	Phase2	study/STIM_017.jpg
930.268	0.986	1	study	Phase2	study/STIM_018.jpg
934.43	1.229	1	study	Phase2	study/STIM_018.jpg
938.245	0.737	0	study	Phase2	study/STIM_018.jpg
942.767	1.27	1	study	Phase2	study/STIM_019.jpg
946.461	0.844	1	study	Phase2	study/STIM_019.jpg
950.396	1.017	1	study	Phase2	study/STIM_019.jpg
954.029	1.122	1	study	Phase2	study/STIM_020.jpg
958.809	0.63	1	study	Phase2	study/STIM_020.jpg
962.824	1.152	1	study	Phase2	study/STIM_020.jpg
966.277	1.13	1	study	Phase2	study/STIM_021.jpg
970.796	1.314	1	study	Phase2	study/STIM_021.jpg
975.368	0.966	1	study	Phase2	study/STIM_021.jpg
979.651	1.017	1	study	Phase2	study/STIM_022.jpg
984.178	0.622	1	study	Phase2	study/STIM_022.jpg
988.595	0.99	1	study	Phase2	study/STIM_022.jpg
992.001	1.333	1	study	Phase2	study/STIM_023.jpg
995.904	0.845	1	study	Phase2	study/STIM_023.jpg
999.421	1.237	1	study	Phase2	study/STIM_023.jpg
1002.716	1.268	1	study	Phase2	study/STIM_024.jpg
1007.932	1.033	1	study	Phase2	study/STIM_024.jpg
1012.43	1.048	1	study	Phase2	study/STIM_024.jpg
1015.906	1.289	1	study	Phase2	study/STIM_025.jpg
1021.185	0.858	0	study	Phase2	study/STIM_025.jpg
1026.005	0.838	1	study	Phase2	study/STIM_025.jpg
1030.723	0.772	1	study	Phase2	study/STIM_026.jpg
1034.901	0.877	1	study	Phase2	study/STIM_026.jpg
1039.512	1.241	1	study	Phase2	study/STIM_026.jpg
1043.197	0.846	1	study	Phase2	study/STIM_027.jpg
1046.766	0.749	1	study	Phase2	study/STIM_027.jpg
1050.196	0.61	1	study	Phase2	study/STIM_027.jpg
1053.906	0.958	1	study	Phase2	study/STIM_028.jpg
1057.304	0.808	1	study	Phase2	study/STIM_028.jpg
1062.056	1.231	1	study	Phase2	study/STIM_028.jpg
1067.1	0.972	1	study	Phase2	study/STIM_029.jpg
1070.79	1.239	1	study	Phase2	study/STIM_029.jpg
1074.04	1.2	1	study	Phase2	study/STIM_029.jpg
1078.105	0.835	0	test	Phase2	test/STIM_000.jpg
1081.343	0.631	1	test	Phase2	test/STIM_000.jpg
1085.005	0.74	1	test	Phase2	test/STIM_000.jpg
1089.037	1.158	1	test	Phase2	test/STIM_001.jpg
1093.928	1.105	1	test	Phase2	test/STIM_001.jpg
1098.667	1.074	1	test	Phase2	test/STIM_001.jpg
1103.533	0.827	0	test	Phase2	test/STIM_002.jpg
1106.504	0.731	1	test	Phase2	test/STIM_002.jpg
1111.229	0.826	1	test	Phase2	test/STIM_002.jpg
1114.84	0.909	1	test	Phase2	test/STIM_003.jpg
1119.117	0.73	0	test	Phase2	test/STIM_003.jpg
1122.653	0.759	1	test	Phase2	test/STIM_003.jpg
1126.492	0.915	1	test	Phase2	test/STIM_004.jpg
1130.255	0.776	1	test	Phase2	test/STIM_004.jpg
1133.106	0.666	1	test	Phase2	test/STIM_004.jpg
1136.982	1.014	1	test	Phase2	test/STIM_005.jpg
1141.762	1.154	1	test	Phase2	test/STIM_005.jpg
1145.265	1.062	0	test	Phase2	test/STIM_005.jpg
1148.631	0.606	0	test	Phase2	test/STIM_006.jpg
1152.922	1.097	0	test	Phase2	test/STIM_006.jpg
1157.45	0.717	1	test	Phase2	test/STIM_006.jpg
1161.291	0.849	1	test	Phase2	test/STIM_007.jpg
1164.151	0.761	1	test	Phase2	test/STIM_007.jpg
1167.863	0.817	1	test	Phase2	test/STIM_007.jpg
1172.606	1.147	1	test	Phase2	test/STIM_008.jpg
1177.636	0.609	1	test	Phase2	test/STIM_008.jpg
1180.907	0.673	1	test	Phase2	test/STIM_008.jpg
1184.832	1.182	1	test	Phase2	test/STIM_009.jpg
1188.804	0.727	1	test	Phase2	test/STIM_009.jpg
1192.059	0.671	1	test	Phase2	test/STIM_009.jpg
1195.382	0.994	1	test	Phase2	test/STIM_010.jpg
1198.495	0.568	1	test	Phase2	test/STIM_010.jpg
1202.914	0.966	1	test	Phase2	test/STIM_010.jpg
1205.968	0.797	0	test	Phase2	test/STIM_011.jpg
1209.447	0.737	1	test	Phase2	test/STIM_011.jpg
1213.82	1.074	1	test	Phase2	test/STIM_011.jpg
1217.909	0.616	1	test	Phase2	test/STIM_012.jpg
1221.43	0.616	0	test	Phase2	test/STIM_012.jpg
1224.622	0.682	1	test	Phase2	test/STIM_012.jpg
1228.273	0.73	1	test	Phase2	test/STIM_013.jpg
1231.582	0.776	1	test	Phase2	test/STIM_013.jpg
1235.501	0.74	1	test	Phase2	test/STIM_013.jpg
1239.678	0.748	1	test	Phase2	test/STIM_014.jpg
1243.052	1.183	1	test	Phase2	test/STIM_014.jpg
1247.037	0.981	1	test	Phase2	test/STIM_014.jpg
1251.651	1.11	0	test	Phase2	test/STIM_015.jpg
1255.872	0.772	1	test	Phase2	test/STIM_015.jpg
1259.857	0.597	1	test	Phase2	test/STIM_015.jpg
1262.879	0.644	1	test	Phase2	test/STIM_016.jpg
1267.317	1.023	0	test	Phase2	test/STIM_016.jpg
1271.11	0.757	1	test	Phase2	test/STIM_016.jpg
1274.773	0.774	0	test	Phase2	test/STIM_017.jpg
1279.371	1.043	1	test	Phase2	test/STIM_017.jpg
1283.299	1.072	1	test	Phase2	test/STIM_017.jpg
1286.65	1.169	1	test	Phase2	test/STIM_018.jpg
1291.156	0.854	1	test	Phase2	test/STIM_018.jpg
1295.489	1.049	1	test	Phase2	test/STIM_018.jpg
1300.382	0.754	0	test	Phase2	test/STIM_019.jpg
1304.312	0.78	1	test	Phase2	test/STIM_019.jpg
1309.016	1.136	0	test	Phase2	test/STIM_019.jpg
1313.888	0.887	1	test	Phase2	test/STIM_020.jpg
1317.11	0.68	1	test	Phase2	test/STIM_020.jpg
1320.903	0.865	1	test	Phase2	test/STIM_020.jpg
1325.38	0.78	1	test	Phase2	test/STIM_021.jpg
1328.987	1.009	0	test	Phase2	test/STIM_021.jpg
1332.633	0.628	1	test	Phase2	test/STIM_021.jpg
1335.847	1.018	1	test	Phase2	test/STIM_022.jpg
1340.514	1.017	1	test	Phase2	test/STIM_022.jpg
1343.816	1.144	0	test	Phase2	test/STIM_022.jpg
1348.875	1.072	1	test	Phase2	test/STIM_023.jpg
1353.918	0.842	1	test	Phase2	test/STIM_023.jpg
1358.625	0.874	1	test	Phase2	test/STIM_023.jpg
1362.808	0.93	0	test	Phase2	test/STIM_024.jpg
1366.322	0.622	0	test	Phase2	test/STIM_024.jpg
1369.315	0.666	1	test	Phase2	test/STIM_024.jpg
1372.828	0.613	1	test	Phase2	test/STIM_025.jpg
1377.241	0.755	1	test	Phase2	test/STIM_025.jpg
1381.174	0.815	1	test	Phase2	test/STIM_025.jpg
1385.565	1.16	1	test	Phase2	test/STIM_026.jpg
1390.119	1.142	1	test	Phase2	test/STIM_026.jpg
1393.641	0.751	1	test	Phase2	test/STIM_026.jpg
1396.478	1.042	0	test	Phase2	test/STIM_027.jpg
1401.276	0.584	1	test	Phase2	test/STIM_027.jpg
1404.059	0.59	1	test	Phase2	test/STIM_027.jpg
1407.094	0.675	0	test	Phase2	test/STIM_028.jpg
1410.394	1.1	1	test	Phase2	test/STIM_028.jpg
1413.873	0.888	0	test	Phase2	test/STIM_028.jpg
1418.207	0.864	1	test	Phase2	test/STIM_029.jpg
1422.969	0.823	1	test	Phase2	test/STIM_029.jpg
1427.466	0.662	1	test	Phase2	test/STIM_029.jpg
1431.232	0.884	1	study	Phase3	study/STIM_000.jpg
1434.168	0.946	1	study	Phase3	study/STIM_000.jpg
1438.514	0.66	1	study	Phase3	study/STIM_000.jpg
1442.315	0.554	1	study	Phase3	study/STIM_001.jpg
1446.63	0.616	0	study	Phase3	study/STIM_001.jpg
1450.688	1.086	1	study	Phase3	study/STIM_001.jpg
1455.448	0.976	1	study	Phase3	study/STIM_002.jpg
1459.426	0.704	1	study	Phase3	study/STIM_002.jpg
1462.944	0.759	1	study	Phase3	study/STIM_002.jpg
1466.953	1.099	1	study	Phase3	study/STIM_003.jpg
1471.36	0.54	1	study	Phase3	study/STIM_003.jpg
1474.16	0.877	1	study	Phase3	study/STIM_003.jpg
1478.511	0.904	0	study	Phase3	study/STIM_004.jpg
1481.722	0.581	1	study	Phase3	study/STIM_004.jpg
1484.968	0.8	1	study	Phase3	study/STIM_004.jpg
1489.086	0.546	1	study	Phase3	study/STIM_005.jpg
1491.826	0.548	0	study	Phase3	study/STIM_005.jpg
1495.216	0.964	1	study	Phase3	study/STIM_005.jpg
1498.67	0.937	1	study	Phase3	study/STIM_006.jpg
1502.364	1.131	1	study	Phase3	study/STIM_006.jpg
1507.321	0.618	1	study	Phase3	study/STIM_006.jpg
1510.56	1.043	1	study	Phase3	study/STIM_007.jpg
1515.076	0.718	1	study	Phase3	study/STIM_007.jpg
1519.298	0.905	1	study	Phase3	study/STIM_007.jpg
1522.434	1.142	1	study	Phase3	study/STIM_008.jpg
1526.881	0.856	1	study	Phase3	study/STIM_008.jpg
1529.925	1.116	0	study	Phase3	study/STIM_008.jpg
1533.755	0.636	1	study	Phase3	study/STIM_009.jpg
1537.176	0.966	1	study	Phase3	study/STIM_009.jpg
1540.259	1.042	1	study	Phase3	study/STIM_009.jpg
1543.571	0.693	1	study	Phase3	study/STIM_010.jpg
1547.233	1.142	1	study	Phase3	study/STIM_010.jpg
1552.123	0.598	1	study	Phase3	study/STIM_010.jpg
1554.761	1.008	1	study	Phase3	study/STIM_011.jpg
1558.773	0.99	1	study	Phase3	study/STIM_011.jpg
1562.433	1.044	1	study	Phase3	study/STIM_011.jpg
1567.165	0.753	1	study	Phase3	study/STIM_012.jpg
1570.661	0.835	0	study	Phase3	study/STIM_012.jpg
1574.62	0.943	1	study	Phase3	study/STIM_012.jpg
1578.673	0.599	1	study	Phase3	study/STIM_013.jpg
1582.026	0.576	0	study	Phase3	study/STIM_013.jpg
1586.076	0.727	1	study	Phase3	study/STIM_013.jpg
1590.225	1.155	1	study	Phase3	study/STIM_014.jpg
1594.301	1.009	1	study	Phase3	study/STIM_014.jpg
1597.312	0.654	1	study	Phase3	study/STIM_014.jpg
1600.944	0.976	1	study	Phase3	study/STIM_015.jpg
1604.126	0.684	1	study	Phase3	study/STIM_015.jpg
1606.969	0.617	1	study	Phase3	study/STIM_015.jpg
1611.098	0.772	1	study	Phase3	study/STIM_016.jpg
1614.731	0.729	1	study	Phase3	study/STIM_016.jpg
1619.306	0.523	0	study	Phase3	study/STIM_016.jpg
1622.43	1.018	1	study	Phase3	study/STIM_017.jpg
1626.47	0.915	0	study	Phase3	study/STIM_017.jpg
1631.302	0.871	1	study	Phase3	study/STIM_017.jpg
1635.031	0.798	1	study	Phase3	study/STIM_018.jpg
1638.549	0.636	1	study	Phase3	study/STIM_018.jpg
1641.841	0.774	1	study	Phase3	study/STIM_018.jpg
1646.6	0.885	1	study	Phase3	study/STIM_019.jpg
1649.776	0.955	1	study	Phase3	study/STIM_019.jpg
1654.539	0.699	1	study	Phase3	study/STIM_019.jpg
1658.126	0.662	1	study	Phase3	study/STIM_020.jpg
1660.853	1.07	1	study	Phase3	study/STIM_020.jpg
1664.72	0.609	1	study	Phase3	study/STIM_020.jpg
1669.244	0.608	1	study	Phase3	study/STIM_021.jpg
1672.248	1.122	0	study	Phase3	study/STIM_021.jpg
1676.584	0.703	1	study	Phase3	study/STIM_021.jpg
1680.549	1.136	0	study	Phase3	study/STIM_022.jpg
1684.31	1.019	1	study	Phase3	study/STIM_022.jpg
1688.785	1.015	1	study	Phase3	study/STIM_022.jpg
1693.179	0.624	1	study	Phase3	study/STIM_023.jpg
1695.915	1.002	1	study	Phase3	study/STIM_023.jpg
1699.947	1.148	0	study	Phase3	study/STIM_023.jpg
1704.876	0.634	1	study	Phase3	study/STIM_024.jpg
1708.087	1.037	1	study	Phase3	study/STIM_024.jpg
1711.942	1.14	1	study	Phase3	study/STIM_024.jpg
1716.643	0.829	1	study	Phase3	study/STIM_025.jpg
1720.669	0.884	1	study	Phase3	study/STIM_025.jpg
1723.934	0.524	1	study	Phase3	study/STIM_025.jpg
1727.871	1.016	1	study	Phase3	study/STIM_026.jpg
1731.211	1.091	1	study	Phase3	study/STIM_026.jpg
1735.387	0.684	1	study	Phase3	study/STIM_026.jpg
1738.173	0.738	1	study	Phase3	study/STIM_027.jpg
1741.856	0.541	1	study	Phase3	study/STIM_027.jpg
1744.801	0.554	1	study	Phase3	study/STIM_027.jpg
1748.247	1.147	1	study	Phase3	study/STIM_028.jpg
1751.971	1.15	1	study	Phase3	study/STIM_028.jpg
1755.753	0.704	1	study	Phase3	study/STIM_028.jpg
1759.54	0.89	1	study	Phase3	study/STIM_029.jpg
1762.539	0.866	1	study	Phase3	study/STIM_029.jpg
1767.321	0.867	0	study	Phase3	study/STIM_029.jpg
1770.803	0.587	0	test	Phase3	test/STIM_000.jpg
1774.345	0.98	1	test	Phase3	test/STIM_000.jpg
1778.593	0.67	1	test	Phase3	test/STIM_000.jpg
1783.023	0.816	0	test	Phase3	test/STIM_001.jpg
1786.838	0.837	1	test	Phase3	test/STIM_001.jpg
1791.649	1.139	0	test	Phase3	test/STIM_001.jpg
1796.017	0.608	1	test	Phase3	test/STIM_002.jpg
1800.312	0.854	1	test	Phase3	test/STIM_002.jpg
1804.332	0.589	1	test	Phase3	test/STIM_002.jpg
1808.09	1.115	0	test	Phase3	test/STIM_003.jpg
1811.706	1.159	1	test	Phase3	test/STIM_003.jpg
1814.997	1.11	1	test	Phase3	test/STIM_003.jpg
1819.013	1.129	1	test	Phase3	test/STIM_004.jpg
1822.257	0.906	1	test	Phase3	test/STIM_004.jpg
1826.231	0.643	0	test	Phase3	test/STIM_004.jpg
1829.087	0.931	1	test	Phase3	test/STIM_005.jpg
1833.346	0.587	1	test	Phase3	test/STIM_005.jpg
1837.767	0.738	1	test	Phase3	test/STIM_005.jpg
1841.472	0.896	1	test	Phase3	test/STIM_006.jpg
1846.157	1.172	0	test	Phase3	test/STIM_006.jpg
1849.632	0.898	1	test	Phase3	test/STIM_006.jpg
1853.432	0.988	0	test	Phase3	test/STIM_007.jpg
1856.827	1.037	1	test	Phase3	test/STIM_007.jpg
1861.068	0.726	0	test	Phase3	test/STIM_007.jpg
1865.46	1.146	0	test	Phase3	test/STIM_008.jpg
1870.596	0.646	1	test	Phase3	test/STIM_008.jpg
1873.994	1.17	0	test	Phase3	test/STIM_008.jpg
1878.541	1.196	1	test	Phase3	test/STIM_009.jpg
1883.15	0.984	1	test	Phase3	test/STIM_009.jpg
1887.569	0.874	1	test	Phase3	test/STIM_009.jpg
1891.997	0.657	1	test	Phase3	test/STIM_010.jpg
1896.181	0.791	1	test	Phase3	test/STIM_010.jpg
1900.506	1.113	0	test	Phase3	test/STIM_010.jpg
1904.449	0.568	0	test	Phase3	test/STIM_011.jpg
1907.034	0.805	1	test	Phase3	test/STIM_011.jpg
1911.006	1.071	0	test	Phase3	test/STIM_011.jpg
1914.306	0.782	1	test	Phase3	test/STIM_012.jpg
1917.415	0.596	1	test	Phase3	test/STIM_012.jpg
1920.592	0.956	1	test	Phase3	test/STIM_012.jpg
1923.625	0.918	1	test	Phase3	test/STIM_013.jpg
1926.723	0.809	1	test	Phase3	test/STIM_013.jpg
1931.471	0.873	1	test	Phase3	test/STIM_013.jpg
1936.234	0.839	1	test	Phase3	test/STIM_014.jpg
1939.693	0.803	1	test	Phase3	test/STIM_014.jpg
1943.786	0.97	1	test	Phase3	test/STIM_014.jpg
1947.212	0.788	0	test	Phase3	test/STIM_015.jpg
1951.327	0.644	1	test	Phase3	test/STIM_015.jpg
1954.54	0.888	0	test	Phase3	test/STIM_015.jpg
1959.116	1.032	1	test	Phase3	test/STIM_016.jpg
1962.63	1.124	1	test	Phase3	test/STIM_016.jpg
1966.835	0.61	0	test	Phase3	test/STIM_016.jpg
1969.539	0.967	1	test	Phase3	test/STIM_017.jpg
1972.836	1.039	1	test	Phase3	test/STIM_017.jpg
1977.644	0.616	1	test	Phase3	test/STIM_017.jpg
1982.112	0.82	1	test	Phase3	test/STIM_018.jpg
1986.864	0.827	1	test	Phase3	test/STIM_018.jpg
1991.531	0.56	1	test	Phase3	test/STIM_018.jpg
1995.518	0.824	1	test	Phase3	test/STIM_019.jpg
1999.954	0.757	1	test	Phase3	test/STIM_019.jpg
2002.887	1.17	0	test	Phase3	test/STIM_019.jpg
2006.998	0.897	0	test	Phase3	test/STIM_020.jpg
2010.875	0.743	1	test	Phase3	test/STIM_020.jpg
2015.265	0.832	1	test	Phase3	test/STIM_020.jpg
2018.249	0.784	0	test	Phase3	test/STIM_021.jpg
2021.926	0.846	1	test	Phase3	test/STIM_021.jpg
2025.097	0.833	1	test	Phase3	test/STIM_021.jpg
2028.215	0.972	1	test	Phase3	test/STIM_022.jpg
2031.198	0.948	0	test	Phase3	test/STIM_022.jpg
2034.267	0.608	1	test	Phase3	test/STIM_022.jpg
2037.086	1.095	1	test	Phase3	test/STIM_023.jpg
2041.863	0.944	1	test	Phase3	test/STIM_023.jpg
2046.349	0.918	1	test	Phase3	test/STIM_023.jpg
2050.485	0.649	1	test	Phase3	test/STIM_024.jpg
2055.121	1.117	0	test	Phase3	test/STIM_024.jpg
2060.211	0.598	0	test	Phase3	test/STIM_024.jpg
2063.919	0.954	1	test	Phase3	test/STIM_025.jpg
2068.346	0.997	0	test	Phase3	test/STIM_025.jpg
2072.54	0.557	1	test	Phase3	test/STIM_025.jpg
2076.616	1.146	0	test	Phase3	test/STIM_026.jpg
2079.864	0.635	1	test	Phase3	test/STIM_026.jpg
2084.401	0.703	1	test	Phase3	test/STIM_026.jpg
2088.051	0.943	0	test	Phase3	test/STIM_027.jpg
2092.922	0.858	1	test	Phase3	test/STIM_027.jpg
2096.813	1.106	1	test	Phase3	test/STIM_027.jpg
2100.56	0.875	1	test	Phase3	test/STIM_028.jpg
2103.971	1.061	1	test	Phase3	test/STIM_028.jpg
2107.049	1.113	1	test	Phase3	test/STIM_028.jpg
2112.017	0.56	1	test	Phase3	test/STIM_029.jpg
2116.117	0.98	1	test	Phase3	test/STIM_029.jpg
2120.296	1.095	1	test	Phase3	test/STIM_029.jpg
