onset	duration	accuracy_binary	trial_type	learning_stage	stimulus
0.0	4.73	0	navigation	Trial1	navigation/STIM_000.jpg
7.851	2.836	1	navigation	Trial1	navigation/STIM_000.jpg
13.84	4.764	0	navigation	Trial1	navigation/STIM_000.jpg
21.173	3.514	1	navigation	Trial1	navigation/STIM_000.jpg
26.486	4.017	0	navigation	Trial1	navigation/STIM_000.jpg
33.161	3.003	1	navigation	Trial1	navigation/STIM_000.jpg
39.076	2.401	1	navigation	Trial1	navigation/STIM_001.jpg
43.962	3.394	1	navigation	Trial1	navigation/STIM_001.jpg
49.889	4.857	1	navigation	Trial1	navigation/STIM_001.jpg
57.122	2.429	1	navigation	Trial1	navigation/STIM_001.jpg
62.728	3.825	1	navigation	Trial1	navigation/STIM_001.jpg
69.341	1.937	1	navigation	Trial1	navigation/STIM_001.jpg
73.897	2.548	0	navigation	Trial1	navigation/STIM_002.jpg
79.517	2.18	1	navigation	Trial1	navigation/STIM_002.jpg
84.202	3.95	0	navigation	Trial1	navigation/STIM_002.jpg
91.472	3.614	0	navigation	Trial1	navigation/STIM_002.jpg
97.129	1.961	1	navigation	Trial1	navigation/STIM_002.jpg
102.304	3.166	1	navigation	Trial1	navigation/STIM_002.jpg
107.651	3.97	0	navigation	Trial1	navigation/STIM_003.jpg
114.144	4.181	1	navigation	Trial1	navigation/STIM_003.jpg
121.176	5.064	1	navigation	Trial1	navigation/STIM_003.jpg
129.42	2.598	0	navigation	Trial1	navigation/STIM_003.jpg
135.45	3.002	1	navigation	Trial1	navigation/STIM_003.jpg
142.086	2.602	1	navigation	Trial1	navigation/STIM_003.jpg
147.46	3.651	1	navigation	Trial1	navigation/STIM_004.jpg
153.74	4.924	1	navigation	Trial1	navigation/STIM_004.jpg
161.002	4.363	1	navigation	Trial1	navigation/STIM_004.jpg
168.547	2.931	1	navigation	Trial1	navigation/STIM_004.jpg
174.505	3.222	1	navigation	Trial1	navigation/STIM_004.jpg
179.56	2.422	1	navigation	Trial1	navigation/STIM_004.jpg
184.751	3.161	0	navigation	Trial1	navigation/STIM_005.jpg
191.259	3.591	0	navigation	Trial1	navigation/STIM_005.jpg
196.477	4.203	1	navigation	Trial1	navigation/STIM_005.jpg
203.029	3.73	1	navigation	Trial1	navigation/STIM_005.jpg
208.372	2.92	1	navigation	Trial1	navigation/STIM_005.jpg
214.028	3.231	0	navigation	Trial1	navigation/STIM_005.jpg
219.688	3.563	1	navigation	Trial1	navigation/STIM_006.jpg
225.554	4.995	0	navigation	Trial1	navigation/STIM_006.jpg
232.143	3.49	1	navigation	Trial1	navigation/STIM_006.jpg
239.017	2.788	1	navigation	Trial1	navigation/STIM_006.jpg
243.978	2.518	1	navigation	Trial1	navigation/STIM_006.jpg
248.407	1.796	0	navigation	Trial1	navigation/STIM_006.jpg
253.228	5.176	0	navigation	Trial1	navigation/STIM_007.jpg
261.764	4.942	1	navigation	Trial1	navigation/STIM_007.jpg
269.078	3.142	1	navigation	Trial1	navigation/STIM_007.jpg
275.184	4.566	1	navigation	Trial1	navigation/STIM_007.jpg
282.814	3.088	0	navigation	Trial1	navigation/STIM_007.jpg
289.038	1.971	1	navigation	Trial1	navigation/STIM_007.jpg
294.634	2.279	0	navigation	Trial1	navigation/STIM_008.jpg
300.281	4.973	1	navigation	Trial1	navigation/STIM_008.jpg
307.479	4.42	1	navigation	Trial1	navigation/STIM_008.jpg
315.135	2.386	0	navigation	Trial1	navigation/STIM_008.jpg
320.584	3.054	1	navigation	Trial1	navigation/STIM_008.jpg
325.797	3.624	1	navigation	Trial1	navigation/STIM_008.jpg
332.288	2.495	1	navigation	Trial1	navigation/STIM_009.jpg
336.919	5.158	0	navigation	Trial1	navigation/STIM_009.jpg
344.729	3.558	1	navigation	Trial1	navigation/STIM_009.jpg
351.459	2.225	1	navigation	Trial1	navigation/STIM_009.jpg
356.496	4.533	1	navigation	Trial1	navigation/STIM_009.jpg
363.058	3.053	1	navigation	Trial1	navigation/STIM_009.jpg
368.138	5.062	1	navigation	Trial1	navigation/STIM_010.jpg
374.871	3.829	1	navigation	Trial1	navigation/STIM_010.jpg
381.314	2.292	1	navigation	Trial1	navigation/STIM_010.jpg
386.468	2.854	1	navigation	Trial1	navigation/STIM_010.jpg
391.471	2.682	1	navigation	Trial1	navigation/STIM_010.jpg
397.574	2.79	1	navigation	Trial1	navigation/STIM_010.jpg
402.13	3.546	0	navigation	Trial1	navigation/STIM_011.jpg
408.127	5.163	1	navigation	Trial1	navigation/STIM_011.jpg
415.712	4.288	1	navigation	Trial1	navigation/STIM_011.jpg
423.322	2.554	1	navigation	Trial1	navigation/STIM_011.jpg
429.256	2.944	1	navigation	Trial1	navigation/STIM_011.jpg
434.107	2.021	1	navigation	Trial1	navigation/STIM_011.jpg
438.675	1.327	1	pointing	Trial1	pointing/STIM_000.jpg
442.999	1.275	1	pointing	Trial1	pointing/STIM_000.jpg
447.402	1.14	1	pointing	Trial1	pointing/STIM_000.jpg
451.41	1.583	1	pointing	Trial1	pointing/STIM_000.jpg
455.309	1.323	1	pointing	Trial1	pointing/STIM_000.jpg
460.216	0.978	1	pointing	Trial1	pointing/STIM_000.jpg
464.247	1.15	1	pointing	Trial1	pointing/STIM_001.jpg
467.67	1.448	1	pointing	Trial1	pointing/STIM_001.jpg
471.972	1.114	1	pointing	Trial1	pointing/STIM_001.jpg
476.171	1.0	1	pointing	Trial1	pointing/STIM_001.jpg
479.707	1.186	1	pointing	Trial1	pointing/STIM_001.jpg
483.321	1.564	1	pointing	Trial1	pointing/STIM_001.jpg
488.312	1.02	1	pointing	Trial1	pointing/STIM_002.jpg
492.153	1.494	1	pointing	Trial1	pointing/STIM_002.jpg
496.322	1.044	1	pointing	Trial1	pointing/STIM_002.jpg
499.431	1.446	1	pointing	Trial1	pointing/STIM_002.jpg
503.431	1.12	1	pointing	Trial1	pointing/STIM_002.jpg
506.95	1.655	1	pointing	Trial1	pointing/STIM_002.jpg
511.605	1.624	1	pointing	Trial1	pointing/STIM_003.jpg
515.376	1.536	1	pointing	Trial1	pointing/STIM_003.jpg
519.927	1.076	1	pointing	Trial1	pointing/STIM_003.jpg
523.836	1.588	1	pointing	Trial1	pointing/STIM_003.jpg
528.624	1.435	1	pointing	Trial1	pointing/STIM_003.jpg
532.289	1.418	1	pointing	Trial1	pointing/STIM_003.jpg
535.997	1.573	1	pointing	Trial1	pointing/STIM_004.jpg
540.382	1.492	1	pointing	Trial1	pointing/STIM_004.jpg
543.87	1.142	1	pointing	Trial1	pointing/STIM_004.jpg
547.507	1.464	1	pointing	Trial1	pointing/STIM_004.jpg
551.857	1.264	1	pointing	Trial1	pointing/STIM_004.jpg
555.51	1.164	1	pointing	Trial1	pointing/STIM_004.jpg
559.183	0.999	1	pointing	Trial1	pointing/STIM_005.jpg
563.31	1.352	1	pointing	Trial1	pointing/STIM_005.jpg
566.549	1.598	1	pointing	Trial1	pointing/STIM_005.jpg
571.863	1.04	1	pointing	Trial1	pointing/STIM_005.jpg
575.705	1.341	1	pointing	Trial1	pointing/STIM_005.jpg
579.1	1.696	1	pointing	Trial1	pointing/STIM_005.jpg
583.604	1.614	1	pointing	Trial1	pointing/STIM_006.jpg
588.338	1.005	1	pointing	Trial1	pointing/STIM_006.jpg
591.9	1.284	1	pointing	Trial1	pointing/STIM_006.jpg
596.665	1.577	1	pointing	Trial1	pointing/STIM_006.jpg
601.732	1.505	1	pointing	Trial1	pointing/STIM_006.jpg
606.64	1.121	1	pointing	Trial1	pointing/STIM_006.jpg
609.646	1.149	1	pointing	Trial1	pointing/STIM_007.jpg
614.582	1.63	1	pointing	Trial1	pointing/STIM_007.jpg
619.741	1.043	1	pointing	Trial1	pointing/STIM_007.jpg
624.034	1.123	1	pointing	Trial1	pointing/STIM_007.jpg
628.671	1.66	1	pointing	Trial1	pointing/STIM_007.jpg
633.748	1.609	1	pointing	Trial1	pointing/STIM_007.jpg
637.828	1.078	1	pointing	Trial1	pointing/STIM_008.jpg
642.449	1.579	1	pointing	Trial1	pointing/STIM_008.jpg
647.043	1.11	1	pointing	Trial1	pointing/STIM_008.jpg
650.504	1.61	1	pointing	Trial1	pointing/STIM_008.jpg
654.26	1.304	1	pointing	Trial1	pointing/STIM_008.jpg
657.61	1.399	1	pointing	Trial1	pointing/STIM_008.jpg
662.622	1.629	1	pointing	Trial1	pointing/STIM_009.jpg
667.176	1.008	1	pointing	Trial1	pointing/STIM_009.jpg
671.402	1.121	0	pointing	Trial1	pointing/STIM_009.jpg
676.083	1.398	1	pointing	Trial1	pointing/STIM_009.jpg
680.911	1.626	1	pointing	Trial1	pointing/STIM_009.jpg
685.557	1.553	1	pointing	Trial1	pointing/STIM_009.jpg
689.985	1.07	1	pointing	Trial1	pointing/STIM_010.jpg
694.167	1.672	1	pointing	Trial1	pointing/STIM_010.jpg
698.479	1.645	1	pointing	Trial1	pointing/STIM_010.jpg
702.943	0.94	1	pointing	Trial1	pointing/STIM_010.jpg
706.247	1.069	1	pointing	Trial1	pointing/STIM_010.jpg
710.333	1.304	1	pointing	Trial1	pointing/STIM_010.jpg
713.701	1.102	1	pointing	Trial1	pointing/STIM_011.jpg
718.093	1.6	1	pointing	Trial1	pointing/STIM_011.jpg
722.354	1.281	1	pointing	Trial1	pointing/STIM_011.jpg
725.845	1.688	1	pointing	Trial1	pointing/STIM_011.jpg
731.161	1.538	0	pointing	Trial1	pointing/STIM_011.jpg
734.779	1.027	0	pointing	Trial1	pointing/STIM_011.jpg
739.301	2.626	1	navigation	Trial2	navigation/STIM_000.jpg
745.608	2.578	1	navigation	Trial2	navigation/STIM_000.jpg
750.097	2.287	0	navigation	Trial2	navigation/STIM_000.jpg
756.095	2.785	0	navigation	Trial2	navigation/STIM_000.jpg
761.336	1.877	1	navigation	Trial2	navigation/STIM_000.jpg
765.491	3.744	1	navigation	Trial2	navigation/STIM_000.jpg
772.269	4.169	1	navigation	Trial2	navigation/STIM_001.jpg
779.887	2.849	0	navigation	Trial2	navigation/STIM_001.jpg
785.398	3.351	0	navigation	Trial2	navigation/STIM_001.jpg
790.425	3.359	1	navigation	Trial2	navigation/STIM_001.jpg
796.124	3.153	1	navigation	Trial2	navigation/STIM_001.jpg
802.365	3.707	1	navigation	Trial2	navigation/STIM_001.jpg
808.161	3.847	1	navigation	Trial2	navigation/STIM_002.jpg
813.975	3.955	0	navigation	Trial2	navigation/STIM_002.jpg
821.199	3.556	1	navigation	Trial2	navigation/STIM_002.jpg
828.138	1.874	1	navigation	Trial2	navigation/STIM_002.jpg
832.232	2.787	1	navigation	Trial2	navigation/STIM_002.jpg
837.407	3.645	1	navigation	Trial2	navigation/STIM_002.jpg
843.478	3.323	1	navigation	Trial2	navigation/STIM_003.jpg
850.367	4.415	1	navigation	Trial2	navigation/STIM_003.jpg
857.836	4.229	1	navigation	Trial2	navigation/STIM_003.jpg
865.337	3.886	1	navigation	Trial2	navigation/STIM_003.jpg
871.571	1.931	1	navigation	Trial2	navigation/STIM_003.jpg
875.622	1.914	0	navigation	Trial2	navigation/STIM_003.jpg
880.452	4.139	1	navigation	Trial2	navigation/STIM_004.jpg
886.485	3.802	1	navigation	Trial2	navigation/STIM_004.jpg
892.169	2.669	1	navigation	Trial2	navigation/STIM_004.jpg
898.219	2.993	1	navigation	Trial2	navigation/STIM_004.jpg
904.62	3.048	1	navigation	Trial2	navigation/STIM_004.jpg
909.864	3.124	1	navigation	Trial2	navigation/STIM_004.jpg
915.448	3.647	0	navigation	Trial2	navigation/STIM_005.jpg
920.73	4.347	1	navigation	Trial2	navigation/STIM_005.jpg
928.087	3.563	1	navigation	Trial2	navigation/STIM_005.jpg
933.588	3.736	1	navigation	Trial2	navigation/STIM_005.jpg
940.194	3.566	1	navigation	Trial2	navigation/STIM_005.jpg
946.653	3.669	1	navigation	Trial2	navigation/STIM_005.jpg
953.343	3.818	1	navigation	Trial2	navigation/STIM_006.jpg
958.971	1.934	1	navigation	Trial2	navigation/STIM_006.jpg
963.903	2.081	1	navigation	Trial2	navigation/STIM_006.jpg
969.556	2.953	1	navigation	Trial2	navigation/STIM_006.jpg
975.571	2.869	1	navigation	Trial2	navigation/STIM_006.jpg
982.043	2.95	1	navigation	Trial2	navigation/STIM_006.jpg
986.824	3.861	1	navigation	Trial2	navigation/STIM_007.jpg
993.695	1.928	1	navigation	Trial2	navigation/STIM_007.jpg
998.036	2.332	1	navigation	Trial2	navigation/STIM_007.jpg
1002.439	2.789	1	navigation	Trial2	navigation/STIM_007.jpg
1008.455	2.789	1	navigation	Trial2	navigation/STIM_007.jpg
1014.052	3.182	0	navigation	Trial2	navigation/STIM_007.jpg
1019.227	2.911	1	navigation	Trial2	navigation/STIM_008.jpg
1024.024	3.164	1	navigation	Trial2	navigation/STIM_008.jpg
1028.826	4.183	1	navigation	Trial2	navigation/STIM_008.jpg
1036.235	3.687	1	navigation	Trial2	navigation/STIM_008.jpg
1041.985	2.896	1	navigation	Trial2	navigation/STIM_008.jpg
1047.794	3.114	1	navigation	Trial2	navigation/STIM_008.jpg
1053.442	4.6	1	navigation	Trial2	navigation/STIM_009.jpg
1061.119	2.563	1	navigation	Trial2	navigation/STIM_009.jpg
1065.97	4.159	1	navigation	Trial2	navigation/STIM_009.jpg
1072.673	2.218	1	navigation	Trial2	navigation/STIM_009.jpg
1078.097	2.798	0	navigation	Trial2	navigation/STIM_009.jpg
1082.963	1.838	1	navigation	Trial2	navigation/STIM_009.jpg
1088.045	2.769	1	navigation	Trial2	navigation/STIM_010.jpg
1094.147	3.316	1	navigation	Trial2	navigation/STIM_010.jpg
1100.434	3.116	1	navigation	Trial2	navigation/STIM_010.jpg
1107.123	2.59	1	navigation	Trial2	navigation/STIM_010.jpg
1112.558	3.199	1	navigation	Trial2	navigation/STIM_010.jpg
1119.308	2.968	1	navigation	Trial2	navigation/STIM_010.jpg
1125.183	4.664	1	navigation	Trial2	navigation/STIM_011.jpg
1131.547	4.373	1	navigation	Trial2	navigation/STIM_011.jpg
1137.475	2.227	1	navigation	Trial2	navigation/STIM_011.jpg
1143.184	3.543	1	navigation	Trial2	navigation/STIM_011.jpg
1148.97	1.638	0	navigation	Trial2	navigation/STIM_011.jpg
1153.604	3.613	1	navigation	Trial2	navigation/STIM_011.jpg
1159.807	0.964	1	pointing	Trial2	pointing/STIM_000.jpg
1163.139	1.517	1	pointing	Trial2	pointing/STIM_000.jpg
1167.333	1.362	1	pointing	Trial2	pointing/STIM_000.jpg
1171.387	1.016	1	pointing	Trial2	pointing/STIM_000.jpg
1175.445	1.696	1	pointing	Trial2	pointing/STIM_000.jpg
1180.311	1.235	1	pointing	Trial2	pointing/STIM_000.jpg
1183.747	1.292	1	pointing	Trial2	pointing/STIM_001.jpg
1187.872	1.145	1	pointing	Trial2	pointing/STIM_001.jpg
1191.509	1.214	1	pointing	Trial2	pointing/STIM_001.jpg
1195.265	1.276	1	pointing	Trial2	pointing/STIM_001.jpg
1200.005	0.962	1	pointing	Trial2	pointing/STIM_001.jpg
1204.631	1.565	1	pointing	Trial2	pointing/STIM_001.jpg
1208.211	1.26	0	pointing	Trial2	pointing/STIM_002.jpg
1212.919	0.997	1	pointing	Trial2	pointing/STIM_002.jpg
1215.957	1.082	0	pointing	Trial2	pointing/STIM_002.jpg
1219.109	1.582	0	pointing	Trial2	pointing/STIM_002.jpg
1224.427	0.95	1	pointing	Trial2	pointing/STIM_002.jpg
1228.494	1.1	1	pointing	Trial2	pointing/STIM_002.jpg
1232.033	1.218	1	pointing	Trial2	pointing/STIM_003.jpg
1236.021	1.089	1	pointing	Trial2	pointing/STIM_003.jpg
1240.692	1.187	1	pointing	Trial2	pointing/STIM_003.jpg
1245.157	1.148	1	pointing	Trial2	pointing/STIM_003.jpg
1249.311	1.24	1	pointing	Trial2	pointing/STIM_003.jpg
1253.312	1.607	1	pointing	Trial2	pointing/STIM_003.jpg
1256.814	1.385	1	pointing	Trial2	pointing/STIM_004.jpg
1261.752	1.042	0	pointing	Trial2	pointing/STIM_004.jpg
1265.182	1.364	1	pointing	Trial2	pointing/STIM_004.jpg
1270.149	1.19	1	pointing	Trial2	pointing/STIM_004.jpg
1274.509	1.291	1	pointing	Trial2	pointing/STIM_004.jpg
1278.748	1.634	1	pointing	Trial2	pointing/STIM_004.jpg
1282.262	1.362	1	pointing	Trial2	pointing/STIM_005.jpg
1286.856	1.129	1	pointing	Trial2	pointing/STIM_005.jpg
1291.7	1.119	1	pointing	Trial2	pointing/STIM_005.jpg
1294.796	1.224	1	pointing	Trial2	pointing/STIM_005.jpg
1299.479	1.2	1	pointing	Trial2	pointing/STIM_005.jpg
1302.926	1.4	0	pointing	Trial2	pointing/STIM_005.jpg
1307.479	1.37	1	pointing	Trial2	pointing/STIM_006.jpg
1311.213	1.042	1	pointing	Trial2	pointing/STIM_006.jpg
1314.631	1.172	1	pointing	Trial2	pointing/STIM_006.jpg
1318.04	1.242	1	pointing	Trial2	pointing/STIM_006.jpg
1321.267	1.61	1	pointing	Trial2	pointing/STIM_006.jpg
1325.015	1.085	1	pointing	Trial2	pointing/STIM_006.jpg
1329.567	1.564	1	pointing	Trial2	pointing/STIM_007.jpg
1334.215	1.481	1	pointing	Trial2	pointing/STIM_007.jpg
1338.597	1.171	1	pointing	Trial2	pointing/STIM_007.jpg
1342.54	1.192	1	pointing	Trial2	pointing/STIM_007.jpg
1345.705	0.994	1	pointing	Trial2	pointing/STIM_007.jpg
1349.041	1.262	1	pointing	Trial2	pointing/STIM_007.jpg
1353.918	1.381	1	pointing	Trial2	pointing/STIM_008.jpg
1357.504	1.077	1	pointing	Trial2	pointing/STIM_008.jpg
1361.603	1.352	1	pointing	Trial2	pointing/STIM_008.jpg
1366.214	1.361	1	pointing	Trial2	pointing/STIM_008.jpg
1370.261	1.034	0	pointing	Trial2	pointing/STIM_008.jpg
1373.307	0.908	1	pointing	Trial2	pointing/STIM_008.jpg
1376.866	1.206	1	pointing	Trial2	pointing/STIM_009.jpg
1380.946	1.339	1	pointing	Trial2	pointing/STIM_009.jpg
1385.628	1.013	1	pointing	Trial2	pointing/STIM_009.jpg
1388.901	1.67	1	pointing	Trial2	pointing/STIM_009.jpg
1392.953	1.211	1	pointing	Trial2	pointing/STIM_009.jpg
1397.774	1.637	1	pointing	Trial2	pointing/STIM_009.jpg
1401.645	1.655	1	pointing	Trial2	pointing/STIM_010.jpg
1406.201	0.995	1	pointing	Trial2	pointing/STIM_010.jpg
1410.888	1.027	1	pointing	Trial2	pointing/STIM_010.jpg
1414.796	1.61	1	pointing	Trial2	pointing/STIM_010.jpg
1419.948	1.361	1	pointing	Trial2	pointing/STIM_010.jpg
1423.839	1.548	1	pointing	Trial2	pointing/STIM_010.jpg
1427.434	1.547	1	pointing	Trial2	pointing/STIM_011.jpg
1431.916	1.561	1	pointing	Trial2	pointing/STIM_011.jpg
1436.449	1.464	1	pointing	Trial2	pointing/STIM_011.jpg
1440.01	1.443	1	pointing	Trial2	pointing/STIM_011.jpg
1444.587	1.283	1	pointing	Trial2	pointing/STIM_011.jpg
1449.673	1.152	1	pointing	Trial2	pointing/STIM_011.jpg
1454.524	3.856	1	navigation	Trial3	navigation/STIM_000.jpg
1461.722	3.306	0	navigation	Trial3	navigation/STIM_000.jpg
1468.391	3.562	0	navigation	Trial3	navigation/STIM_000.jpg
1475.501	3.441	0	navigation	Trial3	navigation/STIM_000.jpg
1481.859	2.912	1	navigation	Trial3	navigation/STIM_000.jpg
1487.051	1.943	1	navigation	Trial3	navigation/STIM_000.jpg
1491.202	3.135	1	navigation	Trial3	navigation/STIM_001.jpg
1497.423	2.716	1	navigation	Trial3	navigation/STIM_001.jpg
1503.47	2.09	1	navigation	Trial3	navigation/STIM_001.jpg
1509.122	2.197	1	navigation	Trial3	navigation/STIM_001.jpg
1513.348	3.208	1	navigation	Trial3	navigation/STIM_001.jpg
1518.947	1.629	1	navigation	Trial3	navigation/STIM_001.jpg
1522.802	1.789	1	navigation	Trial3	navigation/STIM_002.jpg
1526.395	1.618	1	navigation	Trial3	navigation/STIM_002.jpg
1531.639	2.756	1	navigation	Trial3	navigation/STIM_002.jpg
1536.491	2.319	1	navigation	Trial3	navigation/STIM_002.jpg
1542.353	2.618	1	navigation	Trial3	navigation/STIM_002.jpg
1547.102	2.294	1	navigation	Trial3	navigation/STIM_002.jpg
1551.591	3.375	1	navigation	Trial3	navigation/STIM_003.jpg
1556.89	3.894	1	navigation	Trial3	navigation/STIM_003.jpg
1563.312	1.893	1	navigation	Trial3	navigation/STIM_003.jpg
1568.781	3.654	0	navigation	Trial3	navigation/STIM_003.jpg
1574.473	1.655	1	navigation	Trial3	navigation/STIM_003.jpg
1579.599	3.368	1	navigation	Trial3	navigation/STIM_003.jpg
1586.351	1.696	1	navigation	Trial3	navigation/STIM_004.jpg
1590.189	3.834	1	navigation	Trial3	navigation/STIM_004.jpg
1596.111	2.313	0	navigation	Trial3	navigation/STIM_004.jpg
1601.945	3.09	0	navigation	Trial3	navigation/STIM_004.jpg
1607.921	3.559	1	navigation	Trial3	navigation/STIM_004.jpg
1613.142	1.711	0	navigation	Trial3	navigation/STIM_004.jpg
1617.483	2.928	1	navigation	Trial3	navigation/STIM_005.jpg
1624.005	2.678	1	navigation	Trial3	navigation/STIM_005.jpg
1629.966	2.659	0	navigation	Trial3	navigation/STIM_005.jpg
1635.514	2.047	0	navigation	Trial3	navigation/STIM_005.jpg
1640.573	2.467	1	navigation	Trial3	navigation/STIM_005.jpg
1646.569	3.807	1	navigation	Trial3	navigation/STIM_005.jpg
1653.343	2.143	1	navigation	Trial3	navigation/STIM_006.jpg
1657.708	3.459	1	navigation	Trial3	navigation/STIM_006.jpg
1664.153	2.268	1	navigation	Trial3	navigation/STIM_006.jpg
1668.472	3.842	1	navigation	Trial3	navigation/STIM_006.jpg
1674.121	3.916	1	navigation	Trial3	navigation/STIM_006.jpg
1681.349	2.847	1	navigation	Trial3	navigation/STIM_006.jpg
1686.167	3.443	1	navigation	Trial3	navigation/STIM_007.jpg
1692.086	2.081	1	navigation	Trial3	navigation/STIM_007.jpg
1696.849	3.669	1	navigation	Trial3	navigation/STIM_007.jpg
1703.694	3.331	1	navigation	Trial3	navigation/STIM_007.jpg
1710.065	1.996	1	navigation	Trial3	navigation/STIM_007.jpg
1715.626	2.446	1	navigation	Trial3	navigation/STIM_007.jpg
1721.719	3.804	1	navigation	Trial3	navigation/STIM_008.jpg
1727.904	3.257	1	navigation	Trial3	navigation/STIM_008.jpg
1733.933	2.36	1	navigation	Trial3	navigation/STIM_008.jpg
1739.748	3.049	1	navigation	Trial3	navigation/STIM_008.jpg
1745.012	2.686	0	navigation	Trial3	navigation/STIM_008.jpg
1750.779	2.005	1	navigation	Trial3	navigation/STIM_008.jpg
1755.602	1.765	1	navigation	Trial3	navigation/STIM_009.jpg
1760.02	3.424	1	navigation	Trial3	navigation/STIM_009.jpg
1766.182	2.917	1	navigation	Trial3	navigation/STIM_009.jpg
1772.461	2.726	1	navigation	Trial3	navigation/STIM_009.jpg
1778.078	2.872	1	navigation	Trial3	navigation/STIM_009.jpg
1782.805	2.011	1	navigation	Trial3	navigation/STIM_009.jpg
1786.733	3.778	1	navigation	Trial3	navigation/STIM_010.jpg
1792.833	3.531	1	navigation	Trial3	navigation/STIM_010.jpg
1799.053	2.734	1	navigation	Trial3	navigation/STIM_010.jpg
1803.654	1.796	1	navigation	Trial3	navigation/STIM_010.jpg
1807.917	2.978	1	navigation	Trial3	navigation/STIM_010.jpg
1814.234	3.455	1	navigation	Trial3	navigation/STIM_010.jpg
1820.739	2.422	1	navigation	Trial3	navigation/STIM_011.jpg
1826.8	2.174	1	navigation	Trial3	navigation/STIM_011.jpg
1832.374	3.167	1	navigation	Trial3	navigation/STIM_011.jpg
1838.128	3.447	1	navigation	Trial3	navigation/STIM_011.jpg
1845.035	2.97	1	navigation	Trial3	navigation/STIM_011.jpg
1849.984	2.972	1	navigation	Trial3	navigation/STIM_011.jpg
1855.935	1.368	1	pointing	Trial3	pointing/STIM_000.jpg
1859.954	1.22	0	pointing	Trial3	pointing/STIM_000.jpg
1864.95	1.024	1	pointing	Trial3	pointing/STIM_000.jpg
1868.357	1.004	0	pointing	Trial3	pointing/STIM_000.jpg
1872.495	1.038	1	pointing	Trial3	pointing/STIM_000.jpg
1877.073	0.99	1	pointing	Trial3	pointing/STIM_000.jpg
1880.577	1.656	0	pointing	Trial3	pointing/STIM_001.jpg
1884.366	1.46	1	pointing	Trial3	pointing/STIM_001.jpg
1887.859	1.02	1	pointing	Trial3	pointing/STIM_001.jpg
1892.087	1.411	1	pointing	Trial3	pointing/STIM_001.jpg
1896.432	1.32	1	pointing	Trial3	pointing/STIM_001.jpg
1901.378	1.697	1	pointing	Trial3	pointing/STIM_001.jpg
1905.978	1.224	1	pointing	Trial3	pointing/STIM_002.jpg
1910.122	1.308	1	pointing	Trial3	pointing/STIM_002.jpg
1913.565	1.389	0	pointing	Trial3	pointing/STIM_002.jpg
1917.679	1.426	1	pointing	Trial3	pointing/STIM_002.jpg
1921.844	1.515	0	pointing	Trial3	pointing/STIM_002.jpg
1925.63	1.09	1	pointing	Trial3	pointing/STIM_002.jpg
1929.863	1.267	1	pointing	Trial3	pointing/STIM_003.jpg
1934.712	0.932	1	pointing	Trial3	pointing/STIM_003.jpg
1938.618	1.514	1	pointing	Trial3	pointing/STIM_003.jpg
1943.498	1.537	1	pointing	Trial3	pointing/STIM_003.jpg
1947.92	1.321	1	pointing	Trial3	pointing/STIM_003.jpg
1952.447	1.324	1	pointing	Trial3	pointing/STIM_003.jpg
1957.311	1.67	1	pointing	Trial3	pointing/STIM_004.jpg
1961.817	1.579	1	pointing	Trial3	pointing/STIM_004.jpg
1965.932	1.542	1	pointing	Trial3	pointing/STIM_004.jpg
1971.005	1.191	1	pointing	Trial3	pointing/STIM_004.jpg
1975.091	1.311	1	pointing	Trial3	pointing/STIM_004.jpg
1978.687	0.963	1	pointing	Trial3	pointing/STIM_004.jpg
1983.32	1.243	1	pointing	Trial3	pointing/STIM_005.jpg
1987.067	1.277	1	pointing	Trial3	pointing/STIM_005.jpg
1990.662	0.915	1	pointing	Trial3	pointing/STIM_005.jpg
1994.365	1.142	1	pointing	Trial3	pointing/STIM_005.jpg
1997.613	1.588	1	pointing	Trial3	pointing/STIM_005.jpg
2002.746	1.666	1	pointing	Trial3	pointing/STIM_005.jpg
2007.925	1.052	0	pointing	Trial3	pointing/STIM_006.jpg
2012.572	1.662	1	pointing	Trial3	pointing/STIM_006.jpg
2017.932	1.301	1	pointing	Trial3	pointing/STIM_006.jpg
2021.625	1.2	1	pointing	Trial3	pointing/STIM_006.jpg
2025.046	1.513	1	pointing	Trial3	pointing/STIM_006.jpg
2029.332	1.06	1	pointing	Trial3	pointing/STIM_006.jpg
2033.762	1.232	1	pointing	Trial3	pointing/STIM_007.jpg
2037.038	1.226	1	pointing	Trial3	pointing/STIM_007.jpg
2041.493	1.134	1	pointing	Trial3	pointing/STIM_007.jpg
2045.968	1.626	1	pointing	Trial3	pointing/STIM_007.jpg
2049.589	1.207	1	pointing	Trial3	pointing/STIM_007.jpg
2053.163	1.296	1	pointing	Trial3	pointing/STIM_007.jpg
2057.068	1.492	1	pointing	Trial3	pointing/STIM_008.jpg
2061.28	0.928	1	pointing	Trial3	pointing/STIM_008.jpg
2065.491	1.139	1	pointing	Trial3	pointing/STIM_008.jpg
2069.642	1.227	1	pointing	Trial3	pointing/STIM_008.jpg
2073.438	1.316	1	pointing	Trial3	pointing/STIM_008.jpg
2077.083	1.598	0	pointing	Trial3	pointing/STIM_008.jpg
2080.546	1.264	1	pointing	Trial3	pointing/STIM_009.jpg
2085.607	1.409	1	pointing	Trial3	pointing/STIM_009.jpg
2089.859	1.141	1	pointing	Trial3	pointing/STIM_009.jpg
2093.566	1.477	1	pointing	Trial3	pointing/STIM_009.jpg
2096.905	1.613	1	pointing	Trial3	pointing/STIM_009.jpg
2102.126	1.63	1	pointing	Trial3	pointing/STIM_009.jpg
2107.538	1.458	1	pointing	Trial3	pointing/STIM_010.jpg
2110.957	1.526	1	pointing	Trial3	pointing/STIM_010.jpg
2115.707	1.251	1	pointing	Trial3	pointing/STIM_010.jpg
2120.491	1.677	1	pointing	Trial3	pointing/STIM_010.jpg
2125.564	1.358	1	pointing	Trial3	pointing/STIM_010.jpg
2129.903	1.261	1	pointing	Trial3	pointing/STIM_010.jpg
2133.883	1.143	1	pointing	Trial3	pointing/STIM_011.jpg
2137.637	1.1	1	pointing	Trial3	pointing/STIM_011.jpg
2141.148	1.483	1	pointing	Trial3	pointing/STIM_011.jpg
2145.641	1.473	1	pointing	Trial3	pointing/STIM_011.jpg
2150.881	1.147	1	pointing	Trial3	pointing/STIM_011.jpg
2154.805	1.532	1	pointing	Trial3	pointing/STIM_011.jpg
