onset	duration	response_time_ms	trial_type	learning_stage	stimulus	response_port
0.0	2.478	2477.7	regulate	Run1	regulate/STIM_000.jpg	99
4.755	1.715	1715.2	regulate	Run1	regulate/STIM_000.jpg	99
8.487	1.859	1858.7	regulate	Run1	regulate/STIM_000.jpg	99
12.965	1.128	1127.9	regulate	Run1	regulate/STIM_000.jpg	100
16.254	2.534	2534.5	regulate	Run1	regulate/STIM_001.jpg	100
21.38	2.249	2249.1	regulate	Run1	regulate/STIM_001.jpg	99
27.363	2.354	2353.6	regulate	Run1	regulate/STIM_001.jpg	100
32.755	2.113	2113.1	regulate	Run1	regulate/STIM_001.jpg	100
36.99	2.17	2169.9	regulate	Run1	regulate/STIM_002.jpg	100
41.657	2.042	2042.5	regulate	Run1	regulate/STIM_002.jpg	99
47.501	2.528	2528.1	regulate	Run1	regulate/STIM_002.jpg	99
53.17	2.077	2076.6	regulate	Run1	regulate/STIM_002.jpg	99
58.645	1.795	1795.4	regulate	Run1	regulate/STIM_003.jpg	99
62.522	1.432	1432.2	regulate	Run1	regulate/STIM_003.jpg	99
65.964	1.321	1321.3	regulate	Run1	regulate/STIM_003.jpg	99
70.585	1.043	1042.9	regulate	Run1	regulate/STIM_003.jpg	100
74.681	1.52	1520.5	regulate	Run1	regulate/STIM_004.jpg	100
79.998	1.242	1241.8	regulate	Run1	regulate/STIM_004.jpg	100
84.728	2.079	2079.2	regulate	Run1	regulate/STIM_004.jpg	100
89.55	1.456	1455.6	regulate	Run1	regulate/STIM_004.jpg	99
94.041	2.629	2629.2	regulate	Run1	regulate/STIM_005.jpg	100
99.983	1.708	1708.3	regulate	Run1	regulate/STIM_005.jpg	99
105.401	2.527	2527.3	regulate	Run1	regulate/STIM_005.jpg	100
110.315	1.746	1746.3	regulate	Run1	regulate/STIM_005.jpg	100
115.503	2.624	2624.5	regulate	Run1	regulate/STIM_006.jpg	99
121.377	1.269	1268.6	regulate	Run1	regulate/STIM_006.jpg	99
125.092	1.539	1538.6	regulate	Run1	regulate/STIM_006.jpg	100
130.227	1.875	1874.6	regulate	Run1	regulate/STIM_006.jpg	99
134.684	1.492	1491.9	regulate	Run1	regulate/STIM_007.jpg	99
138.261	1.36	1359.7	regulate	Run1	regulate/STIM_007.jpg	100
142.647	1.653	1653.0	regulate	Run1	regulate/STIM_007.jpg	99
147.225	1.784	1783.8	regulate	Run1	regulate/STIM_007.jpg	100
151.31	1.96	1960.1	regulate	Run1	regulate/STIM_008.jpg	99
157.038	1.954	1953.7	regulate	Run1	regulate/STIM_008.jpg	100
162.746	2.55	2550.2	regulate	Run1	regulate/STIM_008.jpg	99
167.739	1.626	1626.3	regulate	Run1	regulate/STIM_008.jpg	100
172.972	2.22	2219.5	regulate	Run1	regulate/STIM_009.jpg	100
178.395	1.424	1424.2	regulate	Run1	regulate/STIM_009.jpg	99
182.242	2.399	2399.0	regulate	Run1	regulate/STIM_009.jpg	99
187.706	1.394	1393.5	regulate	Run1	regulate/STIM_009.jpg	99
191.272	2.307	2307.0	regulate	Run1	regulate/STIM_010.jpg	99
195.78	2.604	2604.0	regulate	Run1	regulate/STIM_010.jpg	99
202.301	1.68	1680.4	regulate	Run1	regulate/STIM_010.jpg	100
207.276	1.541	1540.6	regulate	Run1	regulate/STIM_010.jpg	99
211.518	1.977	1977.4	regulate	Run1	regulate/STIM_011.jpg	99
216.925	1.18	1180.1	regulate	Run1	regulate/STIM_011.jpg	99
221.844	1.757	1756.6	regulate	Run1	regulate/STIM_011.jpg	99
225.641	2.368	2367.6	regulate	Run1	regulate/STIM_011.jpg	99
231.913	2.802	2802.4	regulate	Run1	regulate/STIM_012.jpg	100
237.225	1.725	1724.9	regulate	Run1	regulate/STIM_012.jpg	100
241.397	2.274	2274.1	regulate	Run1	regulate/STIM_012.jpg	99
247.431	2.284	2284.5	regulate	Run1	regulate/STIM_012.jpg	100
252.433	2.056	2055.8	regulate	Run1	regulate/STIM_013.jpg	99
256.815	2.039	2039.2	regulate	Run1	regulate/STIM_013.jpg	99
262.44	1.718	1717.9	regulate	Run1	regulate/STIM_013.jpg	99
267.187	1.146	1146.0	regulate	Run1	regulate/STIM_013.jpg	99
270.671	2.354	2354.2	regulate	Run1	regulate/STIM_014.jpg	100
276.667	2.304	2303.8	regulate	Run1	regulate/STIM_014.jpg	99
281.064	1.947	1947.3	regulate	Run1	regulate/STIM_014.jpg	99
285.499	1.388	1388.3	regulate	Run1	regulate/STIM_014.jpg	100
290.212	1.738	1738.0	regulate	Run1	regulate/STIM_015.jpg	100
294.077	1.605	1604.9	regulate	Run1	regulate/STIM_015.jpg	99
299.656	1.193	1193.2	regulate	Run1	regulate/STIM_015.jpg	100
302.894	2.039	2039.4	regulate	Run1	regulate/STIM_015.jpg	99
308.279	2.442	2441.8	regulate	Run1	regulate/STIM_016.jpg	100
313.357	2.373	2373.0	regulate	Run1	regulate/STIM_016.jpg	100
318.217	2.22	2219.6	regulate	Run1	regulate/STIM_016.jpg	99
323.693	1.072	1072.5	regulate	Run1	regulate/STIM_016.jpg	99
328.703	1.862	1862.3	regulate	Run1	regulate/STIM_017.jpg	100
334.226	1.534	1533.9	regulate	Run1	regulate/STIM_017.jpg	100
339.295	1.507	1507.2	regulate	Run1	regulate/STIM_017.jpg	100
343.06	2.188	2187.5	regulate	Run1	regulate/STIM_017.jpg	99
348.559	1.249	1249.4	regulate	Run1	regulate/STIM_018.jpg	100
353.11	2.258	2258.2	regulate	Run1	regulate/STIM_018.jpg	100
358.191	1.963	1963.3	regulate	Run1	regulate/STIM_018.jpg	99
362.467	2.178	2177.6	regulate	Run1	regulate/STIM_018.jpg	99
367.99	2.526	2525.8	regulate	Run1	regulate/STIM_019.jpg	100
373.501	1.67	1669.5	regulate	Run1	regulate/STIM_019.jpg	99
377.415	1.151	1151.1	regulate	Run1	regulate/STIM_019.jpg	99
380.878	2.41	2410.3	regulate	Run1	regulate/STIM_019.jpg	100
386.999	2.085	2084.9	regulate	Run1	regulate/STIM_020.jpg	99
392.161	1.796	1795.7	regulate	Run1	regulate/STIM_020.jpg	99
396.984	1.918	1918.3	regulate	Run1	regulate/STIM_020.jpg	99
401.601	1.559	1559.4	regulate	Run1	regulate/STIM_020.jpg	99
407.091	2.266	2266.5	regulate	Run1	regulate/STIM_021.jpg	100
412.249	2.31	2309.5	regulate	Run1	regulate/STIM_021.jpg	99
417.967	2.128	2128.4	regulate	Run1	regulate/STIM_021.jpg	99
423.967	2.373	2373.2	regulate	Run1	regulate/STIM_021.jpg	99
429.472	1.373	1373.4	regulate	Run1	regulate/STIM_022.jpg	99
432.847	2.559	2559.4	regulate	Run1	regulate/STIM_022.jpg	100
438.393	1.81	1810.1	regulate	Run1	regulate/STIM_022.jpg	100
444.032	1.586	1586.4	regulate	Run1	regulate/STIM_022.jpg	99
448.192	1.847	1847.2	regulate	Run1	regulate/STIM_023.jpg	99
453.172	1.402	1401.5	regulate	Run1	regulate/STIM_023.jpg	99
457.938	1.268	1267.9	regulate	Run1	regulate/STIM_023.jpg	100
461.833	2.327	2327.1	regulate	Run1	regulate/STIM_023.jpg	99
468.139	2.038	2037.5	regulate	Run1	regulate/STIM_024.jpg	99
474.07	2.142	2142.1	regulate	Run1	regulate/STIM_024.jpg	99
479.09	1.876	1875.6	regulate	Run1	regulate/STIM_024.jpg	100
484.731	2.007	2007.5	regulate	Run1	regulate/STIM_024.jpg	99
490.287	2.696	2695.7	regulate	Run1	regulate/STIM_025.jpg	99
495.642	2.357	2357.4	regulate	Run1	regulate/STIM_025.jpg	100
500.74	1.403	1403.2	regulate	Run1	regulate/STIM_025.jpg	99
504.269	1.365	1365.3	regulate	Run1	regulate/STIM_025.jpg	99
508.793	2.038	2038.2	regulate	Run1	regulate/STIM_026.jpg	100
514.325	1.367	1367.2	regulate	Run1	regulate/STIM_026.jpg	100
518.993	1.202	1202.3	regulate	Run1	regulate/STIM_026.jpg	99
522.54	1.828	1828.0	regulate	Run1	regulate/STIM_026.jpg	99
528.113	2.54	2540.1	regulate	Run1	regulate/STIM_027.jpg	99
533.482	2.3	2299.6	regulate	Run1	regulate/STIM_027.jpg	99
537.83	2.285	2285.3	regulate	Run1	regulate/STIM_027.jpg	100
543.435	1.577	1577.2	regulate	Run1	regulate/STIM_027.jpg	99
548.809	2.694	2694.1	regulate	Run1	regulate/STIM_028.jpg	99
554.143	2.663	2663.0	regulate	Run1	regulate/STIM_028.jpg	99
560.347	1.548	1548.1	regulate	Run1	regulate/STIM_028.jpg	99
565.319	1.702	1701.7	regulate	Run1	regulate/STIM_028.jpg	99
570.929	1.881	1881.4	regulate	Run1	regulate/STIM_029.jpg	99
576.063	1.236	1236.1	regulate	Run1	regulate/STIM_029.jpg	100
580.85	2.328	2327.5	regulate	Run1	regulate/STIM_029.jpg	99
586.309	1.098	1098.0	regulate	Run1	regulate/STIM_029.jpg	100
589.613	0.805	805.0	observe	Run1	observe/STIM_000.jpg	99
593.952	0.883	883.1	observe	Run1	observe/STIM_000.jpg	100
598.649	1.228	1227.8	observe	Run1	observe/STIM_000.jpg	100
602.627	1.28	1279.5	observe	Run1	observe/STIM_000.jpg	100
607.139	0.801	801.3	observe	Run1	observe/STIM_001.jpg	99
610.442	0.673	673.2	observe	Run1	observe/STIM_001.jpg	100
613.888	1.17	1170.4	observe	Run1	observe/STIM_001.jpg	100
618.267	0.91	910.3	observe	Run1	observe/STIM_001.jpg	100
621.5	0.968	967.9	observe	Run1	observe/STIM_002.jpg	99
625.386	1.176	1176.1	observe	Run1	observe/STIM_002.jpg	99
629.368	1.175	1174.8	observe	Run1	observe/STIM_002.jpg	99
633.946	1.093	1092.8	observe	Run1	observe/STIM_002.jpg	100
638.641	1.252	1252.4	observe	Run1	observe/STIM_003.jpg	99
641.906	0.723	723.0	observe	Run1	observe/STIM_003.jpg	100
645.069	0.68	680.2	observe	Run1	observe/STIM_003.jpg	99
649.162	1.059	1058.9	observe	Run1	observe/STIM_003.jpg	100
653.722	1.008	1007.6	observe	Run1	observe/STIM_004.jpg	99
658.407	0.745	745.4	observe	Run1	observe/STIM_004.jpg	99
661.773	0.816	816.0	observe	Run1	observe/STIM_004.jpg	99
665.881	1.037	1036.6	observe	Run1	observe/STIM_004.jpg	100
670.188	0.899	898.9	observe	Run1	observe/STIM_005.jpg	100
674.133	0.719	718.8	observe	Run1	observe/STIM_005.jpg	100
677.914	1.302	1302.2	observe	Run1	observe/STIM_005.jpg	100
682.258	1.007	1007.0	observe	Run1	observe/STIM_005.jpg	99
685.277	1.043	1043.0	observe	Run1	observe/STIM_006.jpg	100
690.181	0.752	751.7	observe	Run1	observe/STIM_006.jpg	100
694.817	1.292	1291.6	observe	Run1	observe/STIM_006.jpg	99
700.004	0.723	722.8	observe	Run1	observe/STIM_006.jpg	99
702.882	1.018	1017.8	observe	Run1	observe/STIM_007.jpg	99
706.151	0.855	854.9	observe	Run1	observe/STIM_007.jpg	99
709.756	1.196	1195.8	observe	Run1	observe/STIM_007.jpg	99
713.653	0.941	941.3	observe	Run1	observe/STIM_007.jpg	100
718.408	1.09	1089.6	observe	Run1	observe/STIM_008.jpg	99
722.712	1.209	1209.3	observe	Run1	observe/STIM_008.jpg	99
726.625	0.902	901.6	observe	Run1	observe/STIM_008.jpg	100
731.342	1.165	1164.8	observe	Run1	observe/STIM_008.jpg	99
734.819	0.743	743.2	observe	Run1	observe/STIM_009.jpg	100
738.515	1.152	1151.7	observe	Run1	observe/STIM_009.jpg	100
743.339	0.766	766.2	observe	Run1	observe/STIM_009.jpg	99
746.262	0.858	857.7	observe	Run1	observe/STIM_009.jpg	99
750.092	1.09	1089.7	observe	Run1	observe/STIM_010.jpg	100
753.2	0.739	739.2	observe	Run1	observe/STIM_010.jpg	100
756.553	0.741	741.4	observe	Run1	observe/STIM_010.jpg	100
760.772	1.014	1014.4	observe	Run1	observe/STIM_010.jpg	100
764.439	1.02	1020.0	observe	Run1	observe/STIM_011.jpg	100
768.35	0.926	925.6	observe	Run1	observe/STIM_011.jpg	99
771.504	0.958	958.1	observe	Run1	observe/STIM_011.jpg	100
774.635	1.154	1154.3	observe	Run1	observe/STIM_011.jpg	99
778.851	1.211	1210.8	observe	Run1	observe/STIM_012.jpg	100
782.851	1.17	1170.5	observe	Run1	observe/STIM_012.jpg	99
787.888	1.245	1244.8	observe	Run1	observe/STIM_012.jpg	100
793.036	0.744	744.4	observe	Run1	observe/STIM_012.jpg	99
797.312	0.865	865.0	observe	Run1	observe/STIM_013.jpg	100
801.802	0.934	934.4	observe	Run1	observe/STIM_013.jpg	99
806.693	0.745	745.3	observe	Run1	observe/STIM_013.jpg	99
810.754	1.004	1004.4	observe	Run1	observe/STIM_013.jpg	100
815.025	0.872	871.9	observe	Run1	observe/STIM_014.jpg	100
818.608	1.093	1093.1	observe	Run1	observe/STIM_014.jpg	99
823.318	1.301	1300.7	observe	Run1	observe/STIM_014.jpg	99
827.687	0.982	982.0	observe	Run1	observe/STIM_014.jpg	99
832.039	1.193	1193.4	observe	Run1	observe/STIM_015.jpg	100
836.257	1.019	1018.7	observe	Run1	observe/STIM_015.jpg	100
839.96	1.278	1277.6	observe	Run1	observe/STIM_015.jpg	99
845.09	0.844	843.5	observe	Run1	observe/STIM_015.jpg	99
849.611	1.052	1051.8	observe	Run1	observe/STIM_016.jpg	99
853.264	1.226	1226.3	observe	Run1	observe/STIM_016.jpg	99
858.093	1.28	1279.9	observe	Run1	observe/STIM_016.jpg	100
862.46	1.102	1102.4	observe	Run1	observe/STIM_016.jpg	99
867.308	1.148	1148.0	observe	Run1	observe/STIM_017.jpg	99
871.652	0.89	889.5	observe	Run1	observe/STIM_017.jpg	99
875.804	1.017	1016.7	observe	Run1	observe/STIM_017.jpg	100
879.287	1.15	1150.0	observe	Run1	observe/STIM_017.jpg	99
883.316	1.023	1023.3	observe	Run1	observe/STIM_018.jpg	99
887.171	0.955	954.9	observe	Run1	observe/STIM_018.jpg	100
891.486	1.161	1160.8	observe	Run1	observe/STIM_018.jpg	99
895.4	0.895	894.8	observe	Run1	observe/STIM_018.jpg	100
899.556	0.827	826.7	observe	Run1	observe/STIM_019.jpg	99
904.047	0.814	813.8	observe	Run1	observe/STIM_019.jpg	100
906.882	0.947	946.8	observe	Run1	observe/STIM_019.jpg	99
911.789	1.099	1099.1	observe	Run1	observe/STIM_019.jpg	99
916.832	1.048	1047.8	regulate	Run2	regulate/STIM_000.jpg	99
919.982	1.454	1453.9	regulate	Run2	regulate/STIM_000.jpg	99
924.808	1.903	1902.6	regulate	Run2	regulate/STIM_000.jpg	99
930.595	0.867	867.2	regulate	Run2	regulate/STIM_000.jpg	99
934.213	2.149	2148.9	regulate	Run2	regulate/STIM_001.jpg	100
940.197	1.014	1013.7	regulate	Run2	regulate/STIM_001.jpg	99
943.312	0.943	942.7	regulate	Run2	regulate/STIM_001.jpg	100
947.76	1.674	1674.4	regulate	Run2	regulate/STIM_001.jpg	100
951.989	1.121	1121.2	regulate	Run2	regulate/STIM_002.jpg	99
956.138	1.586	1586.1	regulate	Run2	regulate/STIM_002.jpg	99
961.397	1.903	1902.6	regulate	Run2	regulate/STIM_002.jpg	99
967.076	0.916	915.8	regulate	Run2	regulate/STIM_002.jpg	100
970.41	1.956	1956.3	regulate	Run2	regulate/STIM_003.jpg	99
976.062	1.172	1171.9	regulate	Run2	regulate/STIM_003.jpg	99
979.58	1.09	1089.8	regulate	Run2	regulate/STIM_003.jpg	100
984.046	1.25	1249.9	regulate	Run2	regulate/STIM_003.jpg	99
989.255	1.303	1303.3	regulate	Run2	regulate/STIM_004.jpg	99
994.295	2.015	2014.6	regulate	Run2	regulate/STIM_004.jpg	99
998.582	1.769	1769.0	regulate	Run2	regulate/STIM_004.jpg	99
1003.973	0.953	953.3	regulate	Run2	regulate/STIM_004.jpg	99
1007.029	1.998	1998.0	regulate	Run2	regulate/STIM_005.jpg	99
1012.55	1.949	1948.8	regulate	Run2	regulate/STIM_005.jpg	100
1018.416	1.23	1230.1	regulate	Run2	regulate/STIM_005.jpg	100
1022.564	1.599	1599.3	regulate	Run2	regulate/STIM_005.jpg	100
1026.798	1.156	1156.0	regulate	Run2	regulate/STIM_006.jpg	99
1031.833	1.099	1098.9	regulate	Run2	regulate/STIM_006.jpg	99
1035.597	1.561	1561.0	regulate	Run2	regulate/STIM_006.jpg	100
1040.214	1.115	1114.7	regulate	Run2	regulate/STIM_006.jpg	99
1044.985	2.256	2255.6	regulate	Run2	regulate/STIM_007.jpg	99
1050.616	1.079	1078.6	regulate	Run2	regulate/STIM_007.jpg	99
1055.37	1.026	1026.3	regulate	Run2	regulate/STIM_007.jpg	99
1059.48	1.202	1202.0	regulate	Run2	regulate/STIM_007.jpg	100
1063.546	1.403	1403.2	regulate	Run2	regulate/STIM_008.jpg	100
1067.268	1.02	1020.3	regulate	Run2	regulate/STIM_008.jpg	100
1070.643	1.332	1332.0	regulate	Run2	regulate/STIM_008.jpg	100
1074.17	1.29	1290.0	regulate	Run2	regulate/STIM_008.jpg	99
1078.258	2.286	2286.4	regulate	Run2	regulate/STIM_009.jpg	100
1083.821	1.422	1422.4	regulate	Run2	regulate/STIM_009.jpg	100
1087.371	0.961	960.6	regulate	Run2	regulate/STIM_009.jpg	100
1091.046	1.289	1289.3	regulate	Run2	regulate/STIM_009.jpg	100
1095.432	1.12	1120.5	regulate	Run2	regulate/STIM_010.jpg	100
1099.018	1.966	1966.2	regulate	Run2	regulate/STIM_010.jpg	100
1103.66	2.14	2139.8	regulate	Run2	regulate/STIM_010.jpg	100
1108.989	1.096	1096.5	regulate	Run2	regulate/STIM_010.jpg	100
1113.105	2.178	2177.7	regulate	Run2	regulate/STIM_011.jpg	99
1118.305	1.825	1824.6	regulate	Run2	regulate/STIM_011.jpg	100
1123.547	0.973	973.2	regulate	Run2	regulate/STIM_011.jpg	99
1127.599	1.24	1239.5	regulate	Run2	regulate/STIM_011.jpg	99
1131.452	1.231	1231.4	regulate	Run2	regulate/STIM_012.jpg	100
1135.181	1.743	1743.3	regulate	Run2	regulate/STIM_012.jpg	100
1140.503	1.783	1782.6	regulate	Run2	regulate/STIM_012.jpg	100
1146.012	1.452	1452.5	regulate	Run2	regulate/STIM_012.jpg	100
1150.297	1.942	1942.1	regulate	Run2	regulate/STIM_013.jpg	100
1155.008	0.98	979.9	regulate	Run2	regulate/STIM_013.jpg	100
1159.892	2.047	2047.0	regulate	Run2	regulate/STIM_013.jpg	100
1165.363	0.93	930.1	regulate	Run2	regulate/STIM_013.jpg	99
1168.955	2.391	2391.4	regulate	Run2	regulate/STIM_014.jpg	100
1175.009	2.016	2015.7	regulate	Run2	regulate/STIM_014.jpg	99
1179.776	2.128	2128.4	regulate	Run2	regulate/STIM_014.jpg	100
1184.036	1.856	1855.7	regulate	Run2	regulate/STIM_014.jpg	100
1188.251	1.542	1541.9	regulate	Run2	regulate/STIM_015.jpg	100
1193.642	1.432	1432.4	regulate	Run2	regulate/STIM_015.jpg	99
1197.436	1.999	1999.1	regulate	Run2	regulate/STIM_015.jpg	100
1203.331	0.874	873.7	regulate	Run2	regulate/STIM_015.jpg	100
1206.364	1.789	1789.3	regulate	Run2	regulate/STIM_016.jpg	99
1211.708	1.624	1623.6	regulate	Run2	regulate/STIM_016.jpg	99
1215.994	1.552	1551.7	regulate	Run2	regulate/STIM_016.jpg	99
1220.331	1.238	1237.7	regulate	Run2	regulate/STIM_016.jpg	100
1223.843	1.764	1764.4	regulate	Run2	regulate/STIM_017.jpg	100
1228.431	2.205	2205.3	regulate	Run2	regulate/STIM_017.jpg	100
1233.758	1.072	1072.1	regulate	Run2	regulate/STIM_017.jpg	99
1237.987	1.755	1754.7	regulate	Run2	regulate/STIM_017.jpg	99
1241.77	1.82	1819.7	regulate	Run2	regulate/STIM_018.jpg	99
1246.158	1.312	1311.9	regulate	Run2	regulate/STIM_018.jpg	100
1249.757	0.973	973.0	regulate	Run2	regulate/STIM_018.jpg	100
1254.231	1.827	1827.0	regulate	Run2	regulate/STIM_018.jpg	100
1258.623	1.481	1481.4	regulate	Run2	regulate/STIM_019.jpg	99
1263.963	1.564	1564.1	regulate	Run2	regulate/STIM_019.jpg	99
1268.815	0.932	932.0	regulate	Run2	regulate/STIM_019.jpg	99
1273.283	1.424	1424.2	regulate	Run2	regulate/STIM_019.jpg	100
1278.234	2.259	2258.9	regulate	Run2	regulate/STIM_020.jpg	99
1282.826	1.296	1295.7	regulate	Run2	regulate/STIM_020.jpg	100
1286.522	1.306	1306.3	regulate	Run2	regulate/STIM_020.jpg	99
1290.164	1.276	1276.5	regulate	Run2	regulate/STIM_020.jpg	100
1294.015	2.377	2377.2	regulate	Run2	regulate/STIM_021.jpg	99
1299.28	1.995	1994.6	regulate	Run2	regulate/STIM_021.jpg	99
1303.409	2.101	2100.7	regulate	Run2	regulate/STIM_021.jpg	99
1307.926	1.77	1770.1	regulate	Run2	regulate/STIM_021.jpg	99
1313.157	1.496	1496.4	regulate	Run2	regulate/STIM_022.jpg	100
1317.61	1.666	1666.5	regulate	Run2	regulate/STIM_022.jpg	100
1322.556	2.052	2051.8	regulate	Run2	regulate/STIM_022.jpg	100
1326.992	0.954	954.5	regulate	Run2	regulate/STIM_022.jpg	100
1330.874	1.108	1108.0	regulate	Run2	regulate/STIM_023.jpg	100
1334.267	1.622	1621.7	regulate	Run2	regulate/STIM_023.jpg	100
1338.594	0.982	981.5	regulate	Run2	regulate/STIM_023.jpg	100
1342.843	1.679	1678.6	regulate	Run2	regulate/STIM_023.jpg	99
1347.529	1.432	1432.2	regulate	Run2	regulate/STIM_024.jpg	99
1352.102	2.212	2212.5	regulate	Run2	regulate/STIM_024.jpg	100
1357.29	1.516	1516.0	regulate	Run2	regulate/STIM_024.jpg	100
1361.214	1.612	1611.7	regulate	Run2	regulate/STIM_024.jpg	100
1366.647	1.721	1721.2	regulate	Run2	regulate/STIM_025.jpg	99
1371.708	1.529	1529.1	regulate	Run2	regulate/STIM_025.jpg	99
1375.296	1.162	1162.2	regulate	Run2	regulate/STIM_025.jpg	99
1379.544	1.782	1781.9	regulate	Run2	regulate/STIM_025.jpg	99
1384.354	2.375	2375.1	regulate	Run2	regulate/STIM_026.jpg	99
1389.782	0.996	996.2	regulate	Run2	regulate/STIM_026.jpg	100
1393.863	1.131	1131.4	regulate	Run2	regulate/STIM_026.jpg	100
1398.8	1.775	1774.7	regulate	Run2	regulate/STIM_026.jpg	100
1403.464	1.278	1278.3	regulate	Run2	regulate/STIM_027.jpg	99
1408.37	1.264	1264.0	regulate	Run2	regulate/STIM_027.jpg	99
1412.032	1.86	1859.5	regulate	Run2	regulate/STIM_027.jpg	99
1416.775	1.212	1211.9	regulate	Run2	regulate/STIM_027.jpg	99
1421.396	2.092	2092.5	regulate	Run2	regulate/STIM_028.jpg	99
1426.498	1.949	1949.3	regulate	Run2	regulate/STIM_028.jpg	100
1430.712	1.717	1717.0	regulate	Run2	regulate/STIM_028.jpg	99
1434.635	1.471	1470.7	regulate	Run2	regulate/STIM_028.jpg	100
1438.906	1.581	1580.9	regulate	Run2	regulate/STIM_029.jpg	100
1442.6	1.274	1274.5	regulate	Run2	regulate/STIM_029.jpg	99
1446.991	1.547	1547.4	regulate	Run2	regulate/STIM_029.jpg	99
1452.149	1.856	1856.1	regulate	Run2	regulate/STIM_029.jpg	99
1456.398	0.946	946.3	observe	Run2	observe/STIM_000.jpg	100
1460.542	1.298	1297.5	observe	Run2	observe/STIM_000.jpg	99
1463.969	1.209	1208.9	observe	Run2	observe/STIM_000.jpg	99
1468.178	0.712	711.8	observe	Run2	observe/STIM_000.jpg	99
1472.448	0.724	724.5	observe	Run2	observe/STIM_001.jpg	100
1476.656	1.249	1249.0	observe	Run2	observe/STIM_001.jpg	100
1480.277	1.04	1040.3	observe	Run2	observe/STIM_001.jpg	99
1484.831	1.246	1246.2	observe	Run2	observe/STIM_001.jpg	99
1488.121	1.189	1188.9	observe	Run2	observe/STIM_002.jpg	99
1491.315	0.695	695.4	observe	Run2	observe/STIM_002.jpg	100
1494.767	0.919	918.7	observe	Run2	observe/STIM_002.jpg	100
1499.303	1.196	1195.7	observe	Run2	observe/STIM_002.jpg	99
1504.457	1.112	1111.5	observe	Run2	observe/STIM_003.jpg	100
1508.905	1.077	1077.4	observe	Run2	observe/STIM_003.jpg	100
1513.953	1.191	1191.4	observe	Run2	observe/STIM_003.jpg	100
1517.44	0.693	692.6	observe	Run2	observe/STIM_003.jpg	100
1522.099	0.7	700.4	observe	Run2	observe/STIM_004.jpg	100
1526.144	0.733	733.1	observe	Run2	observe/STIM_004.jpg	100
1528.992	1.113	1112.7	observe	Run2	observe/STIM_004.jpg	100
1532.441	1.162	1161.7	observe	Run2	observe/STIM_004.jpg	99
1537.588	1.257	1257.1	observe	Run2	observe/STIM_005.jpg	99
1541.395	0.691	691.0	observe	Run2	observe/STIM_005.jpg	100
1544.618	1.056	1055.6	observe	Run2	observe/STIM_005.jpg	100
1548.171	0.883	882.8	observe	Run2	observe/STIM_005.jpg	99
1552.768	0.984	983.7	observe	Run2	observe/STIM_006.jpg	99
1556.139	0.709	708.7	observe	Run2	observe/STIM_006.jpg	100
1560.5	1.108	1108.5	observe	Run2	observe/STIM_006.jpg	99
1565.157	0.972	972.5	observe	Run2	observe/STIM_006.jpg	100
1568.803	1.013	1012.8	observe	Run2	observe/STIM_007.jpg	100
1572.704	1.146	1145.8	observe	Run2	observe/STIM_007.jpg	100
1576.02	0.878	877.9	observe	Run2	observe/STIM_007.jpg	99
1580.223	1.18	1180.4	observe	Run2	observe/STIM_007.jpg	100
1584.879	1.167	1167.2	observe	Run2	observe/STIM_008.jpg	100
1589.658	0.684	684.3	observe	Run2	observe/STIM_008.jpg	99
1592.617	1.121	1121.4	observe	Run2	observe/STIM_008.jpg	100
1595.999	1.022	1021.5	observe	Run2	observe/STIM_008.jpg	99
1600.617	0.922	921.7	observe	Run2	observe/STIM_009.jpg	99
1603.873	0.818	817.5	observe	Run2	observe/STIM_009.jpg	100
1607.976	0.787	786.6	observe	Run2	observe/STIM_009.jpg	99
1610.798	0.669	668.8	observe	Run2	observe/STIM_009.jpg	100
1613.568	1.257	1257.3	observe	Run2	observe/STIM_010.jpg	100
1618.549	1.144	1144.4	observe	Run2	observe/STIM_010.jpg	99
1622.396	1.0	1000.4	observe	Run2	observe/STIM_010.jpg	99
1626.099	0.723	723.1	observe	Run2	observe/STIM_010.jpg	99
1630.769	1.179	1179.4	observe	Run2	observe/STIM_011.jpg	99
1635.879	1.108	1108.5	observe	Run2	observe/STIM_011.jpg	100
1640.14	0.888	887.5	observe	Run2	observe/STIM_011.jpg	99
1644.075	0.879	878.9	observe	Run2	observe/STIM_011.jpg	99
1647.534	1.242	1241.8	observe	Run2	observe/STIM_012.jpg	99
1651.655	1.021	1020.8	observe	Run2	observe/STIM_012.jpg	99
1654.729	1.223	1223.1	observe	Run2	observe/STIM_012.jpg	100
1659.077	1.189	1188.8	observe	Run2	observe/STIM_012.jpg	100
1663.717	0.772	772.2	observe	Run2	observe/STIM_013.jpg	100
1668.053	0.801	801.2	observe	Run2	observe/STIM_013.jpg	99
1671.158	1.174	1173.9	observe	Run2	observe/STIM_013.jpg	100
1676.211	0.853	853.4	observe	Run2	observe/STIM_013.jpg	100
1680.727	1.222	1222.2	observe	Run2	observe/STIM_014.jpg	100
1684.075	1.077	1077.3	observe	Run2	observe/STIM_014.jpg	100
1687.169	0.897	896.9	observe	Run2	observe/STIM_014.jpg	100
1691.012	1.087	1087.4	observe	Run2	observe/STIM_014.jpg	99
1694.366	0.855	854.6	observe	Run2	observe/STIM_015.jpg	100
1698.57	1.203	1203.0	observe	Run2	observe/STIM_015.jpg	100
1703.599	0.836	835.7	observe	Run2	observe/STIM_015.jpg	99
1708.347	1.176	1176.0	observe	Run2	observe/STIM_015.jpg	99
1713.052	0.724	723.7	observe	Run2	observe/STIM_016.jpg	99
1715.814	1.306	1305.5	observe	Run2	observe/STIM_016.jpg	100
1719.667	1.29	1290.1	observe	Run2	observe/STIM_016.jpg	99
1723.771	0.938	938.4	observe	Run2	observe/STIM_016.jpg	100
1728.68	1.155	1155.2	observe	Run2	observe/STIM_017.jpg	100
1731.955	0.761	760.8	observe	Run2	observe/STIM_017.jpg	99
1735.156	0.807	806.9	observe	Run2	observe/STIM_017.jpg	99
1738.425	0.736	735.8	observe	Run2	observe/STIM_017.jpg	100
1742.644	0.723	723.0	observe	Run2	observe/STIM_018.jpg	100
1746.786	1.239	1238.6	observe	Run2	observe/STIM_018.jpg	100
1750.402	0.993	992.7	observe	Run2	observe/STIM_018.jpg	99
1753.488	1.039	1038.7	observe	Run2	observe/STIM_018.jpg	99
1757.965	1.088	1088.5	observe	Run2	observe/STIM_019.jpg	99
1762.336	0.881	881.0	observe	Run2	observe/STIM_019.jpg	100
1767.105	1.068	1068.3	observe	Run2	observe/STIM_019.jpg	99
1771.061	1.256	1255.5	observe	Run2	observe/STIM_019.jpg	99
1774.819	1.503	1502.9	regulate	Run3	regulate/STIM_000.jpg	99
1778.406	1.205	1205.3	regulate	Run3	regulate/STIM_000.jpg	100
1783.04	1.264	1263.9	regulate	Run3	regulate/STIM_000.jpg	99
1788.009	1.092	1092.0	regulate	Run3	regulate/STIM_000.jpg	99
1792.878	1.67	1670.2	regulate	Run3	regulate/STIM_001.jpg	100
1797.84	1.206	1206.5	regulate	Run3	regulate/STIM_001.jpg	99
1802.803	1.93	1929.6	regulate	Run3	regulate/STIM_001.jpg	99
1807.127	1.625	1625.3	regulate	Run3	regulate/STIM_001.jpg	99
1811.545	1.182	1181.8	regulate	Run3	regulate/STIM_002.jpg	100
1815.164	1.109	1109.0	regulate	Run3	regulate/STIM_002.jpg	99
1819.99	1.278	1278.0	regulate	Run3	regulate/STIM_002.jpg	99
1823.903	0.999	999.1	regulate	Run3	regulate/STIM_002.jpg	99
1827.04	1.037	1037.4	regulate	Run3	regulate/STIM_003.jpg	99
1831.803	1.667	1666.8	regulate	Run3	regulate/STIM_003.jpg	99
1836.73	1.052	1052.1	regulate	Run3	regulate/STIM_003.jpg	100
1841.203	1.788	1788.0	regulate	Run3	regulate/STIM_003.jpg	99
1846.068	1.993	1992.9	regulate	Run3	regulate/STIM_004.jpg	100
1851.939	1.979	1979.3	regulate	Run3	regulate/STIM_004.jpg	100
1857.286	1.488	1487.6	regulate	Run3	regulate/STIM_004.jpg	100
1861.163	1.591	1591.0	regulate	Run3	regulate/STIM_004.jpg	99
1866.344	1.403	1402.9	regulate	Run3	regulate/STIM_005.jpg	100
1871.052	1.482	1482.5	regulate	Run3	regulate/STIM_005.jpg	99
1875.264	1.878	1877.8	regulate	Run3	regulate/STIM_005.jpg	100
1879.249	1.984	1984.4	regulate	Run3	regulate/STIM_005.jpg	100
1884.017	1.957	1956.6	regulate	Run3	regulate/STIM_006.jpg	99
1889.487	1.778	1778.4	regulate	Run3	regulate/STIM_006.jpg	99
1893.339	1.195	1194.9	regulate	Run3	regulate/STIM_006.jpg	100
1897.951	1.184	1184.4	regulate	Run3	regulate/STIM_006.jpg	99
1901.242	1.861	1861.4	regulate	Run3	regulate/STIM_007.jpg	99
1905.291	1.747	1747.0	regulate	Run3	regulate/STIM_007.jpg	100
1910.877	1.166	1166.1	regulate	Run3	regulate/STIM_007.jpg	100
1914.393	1.709	1708.6	regulate	Run3	regulate/STIM_007.jpg	99
1919.26	1.606	1605.8	regulate	Run3	regulate/STIM_008.jpg	100
1924.553	1.566	1566.1	regulate	Run3	regulate/STIM_008.jpg	100
1929.109	0.945	945.1	regulate	Run3	regulate/STIM_008.jpg	99
1932.433	1.989	1988.7	regulate	Run3	regulate/STIM_008.jpg	99
1937.655	1.304	1304.4	regulate	Run3	regulate/STIM_009.jpg	100
1942.438	1.546	1545.5	regulate	Run3	regulate/STIM_009.jpg	100
1946.806	1.758	1758.4	regulate	Run3	regulate/STIM_009.jpg	100
1951.648	1.267	1267.2	regulate	Run3	regulate/STIM_009.jpg	99
1955.757	0.94	940.1	regulate	Run3	regulate/STIM_010.jpg	100
1960.602	1.186	1186.4	regulate	Run3	regulate/STIM_010.jpg	100
1964.561	1.538	1538.1	regulate	Run3	regulate/STIM_010.jpg	100
1968.261	1.153	1153.0	regulate	Run3	regulate/STIM_010.jpg	99
1972.486	1.114	1114.3	regulate	Run3	regulate/STIM_011.jpg	100
1977.585	0.997	997.4	regulate	Run3	regulate/STIM_011.jpg	100
1981.029	1.47	1469.9	regulate	Run3	regulate/STIM_011.jpg	99
1985.399	1.026	1026.5	regulate	Run3	regulate/STIM_011.jpg	100
1989.388	1.012	1011.5	regulate	Run3	regulate/STIM_012.jpg	100
1993.958	1.182	1182.4	regulate	Run3	regulate/STIM_012.jpg	100
1997.197	1.675	1674.9	regulate	Run3	regulate/STIM_012.jpg	99
2000.998	1.692	1692.1	regulate	Run3	regulate/STIM_012.jpg	99
2006.219	1.351	1351.3	regulate	Run3	regulate/STIM_013.jpg	99
2009.986	1.384	1384.2	regulate	Run3	regulate/STIM_013.jpg	100
2015.065	1.531	1530.6	regulate	Run3	regulate/STIM_013.jpg	99
2019.993	1.1	1099.8	regulate	Run3	regulate/STIM_013.jpg	99
2023.586	1.946	1945.9	regulate	Run3	regulate/STIM_014.jpg	100
2029.444	1.043	1043.0	regulate	Run3	regulate/STIM_014.jpg	100
2034.127	1.871	1870.7	regulate	Run3	regulate/STIM_014.jpg	99
2038.342	1.45	1449.6	regulate	Run3	regulate/STIM_014.jpg	100
2042.857	1.925	1925.3	regulate	Run3	regulate/STIM_015.jpg	99
2048.333	1.195	1195.0	regulate	Run3	regulate/STIM_015.jpg	100
2052.771	1.076	1076.5	regulate	Run3	regulate/STIM_015.jpg	99
2056.502	0.926	926.3	regulate	Run3	regulate/STIM_015.jpg	99
2059.682	1.647	1646.7	regulate	Run3	regulate/STIM_016.jpg	99
2064.616	0.872	871.7	regulate	Run3	regulate/STIM_016.jpg	100
2067.896	1.21	1209.8	regulate	Run3	regulate/STIM_016.jpg	99
2072.612	1.07	1069.9	regulate	Run3	regulate/STIM_016.jpg	99
2077.595	1.141	1141.3	regulate	Run3	regulate/STIM_017.jpg	100
2081.727	1.817	1817.3	regulate	Run3	regulate/STIM_017.jpg	99
2085.946	1.34	1340.3	regulate	Run3	regulate/STIM_017.jpg	100
2089.444	1.086	1086.2	regulate	Run3	regulate/STIM_017.jpg	99
2094.088	1.244	1244.1	regulate	Run3	regulate/STIM_018.jpg	100
2098.537	1.47	1470.3	regulate	Run3	regulate/STIM_018.jpg	99
2103.958	1.2	1200.2	regulate	Run3	regulate/STIM_018.jpg	100
2108.822	1.925	1924.8	regulate	Run3	regulate/STIM_018.jpg	100
2112.758	1.265	1264.9	regulate	Run3	regulate/STIM_019.jpg	100
2116.543	1.58	1579.9	regulate	Run3	regulate/STIM_019.jpg	99
2121.028	0.954	953.7	regulate	Run3	regulate/STIM_019.jpg	99
2125.28	1.358	1358.3	regulate	Run3	regulate/STIM_019.jpg	99
2129.322	1.244	1244.4	regulate	Run3	regulate/STIM_020.jpg	99
2132.936	1.68	1679.9	regulate	Run3	regulate/STIM_020.jpg	100
2137.064	1.371	1370.8	regulate	Run3	regulate/STIM_020.jpg	100
2141.547	1.372	1372.1	regulate	Run3	regulate/STIM_020.jpg	99
2145.483	1.591	1591.4	regulate	Run3	regulate/STIM_021.jpg	100
2150.141	1.942	1941.5	regulate	Run3	regulate/STIM_021.jpg	100
2155.453	1.104	1103.8	regulate	Run3	regulate/STIM_021.jpg	99
2159.229	0.989	989.4	regulate	Run3	regulate/STIM_021.jpg	99
2163.856	1.08	1080.5	regulate	Run3	regulate/STIM_022.jpg	99
2167.034	1.045	1044.7	regulate	Run3	regulate/STIM_022.jpg	100
2171.718	1.626	1625.6	regulate	Run3	regulate/STIM_022.jpg	99
2176.515	1.958	1957.7	regulate	Run3	regulate/STIM_022.jpg	99
2181.481	1.094	1093.5	regulate	Run3	regulate/STIM_023.jpg	100
2185.605	0.912	911.5	regulate	Run3	regulate/STIM_023.jpg	100
2190.371	1.161	1160.8	regulate	Run3	regulate/STIM_023.jpg	99
2194.315	1.301	1301.2	regulate	Run3	regulate/STIM_023.jpg	100
2198.828	1.362	1361.8	regulate	Run3	regulate/STIM_024.jpg	99
2204.09	1.281	1281.4	regulate	Run3	regulate/STIM_024.jpg	100
2209.046	1.392	1392.3	regulate	Run3	regulate/STIM_024.jpg	100
2213.955	1.729	1728.7	regulate	Run3	regulate/STIM_024.jpg	99
2217.942	0.927	926.8	regulate	Run3	regulate/STIM_025.jpg	99
2221.585	1.638	1637.5	regulate	Run3	regulate/STIM_025.jpg	99
2226.999	1.329	1328.6	regulate	Run3	regulate/STIM_025.jpg	99
2230.533	1.744	1744.2	regulate	Run3	regulate/STIM_025.jpg	100
2234.277	1.344	1343.9	regulate	Run3	regulate/STIM_026.jpg	99
2239.236	1.938	1938.5	regulate	Run3	regulate/STIM_026.jpg	100
2243.488	1.18	1179.9	regulate	Run3	regulate/STIM_026.jpg	100
2248.647	1.984	1983.8	regulate	Run3	regulate/STIM_026.jpg	99
2254.224	1.223	1222.9	regulate	Run3	regulate/STIM_027.jpg	99
2259.363	1.786	1786.0	regulate	Run3	regulate/STIM_027.jpg	100
2264.797	1.735	1734.8	regulate	Run3	regulate/STIM_027.jpg	100
2269.557	1.376	1375.6	regulate	Run3	regulate/STIM_027.jpg	99
2273.853	1.205	1204.9	regulate	Run3	regulate/STIM_028.jpg	100
2277.226	1.26	1259.8	regulate	Run3	regulate/STIM_028.jpg	100
2281.214	1.496	1496.4	regulate	Run3	regulate/STIM_028.jpg	99
2286.377	1.587	1586.6	regulate	Run3	regulate/STIM_028.jpg	99
2290.794	1.516	1516.2	regulate	Run3	regulate/STIM_029.jpg	100
2295.271	1.259	1258.7	regulate	Run3	regulate/STIM_029.jpg	100
2299.026	1.742	1742.1	regulate	Run3	regulate/STIM_029.jpg	99
2303.741	1.656	1655.8	regulate	Run3	regulate/STIM_029.jpg	100
2309.264	1.174	1174.4	observe	Run3	observe/STIM_000.jpg	99
2314.037	0.78	779.6	observe	Run3	observe/STIM_000.jpg	99
2317.96	1.145	1144.9	observe	Run3	observe/STIM_000.jpg	99
2322.508	1.241	1241.0	observe	Run3	observe/STIM_000.jpg	100
2326.468	1.031	1031.1	observe	Run3	observe/STIM_001.jpg	100
2330.762	1.02	1019.8	observe	Run3	observe/STIM_001.jpg	100
2334.117	1.298	1297.7	observe	Run3	observe/STIM_001.jpg	100
2337.953	1.138	1137.8	observe	Run3	observe/STIM_001.jpg	99
2341.365	0.802	802.3	observe	Run3	observe/STIM_002.jpg	99
2344.708	0.881	880.8	observe	Run3	observe/STIM_002.jpg	99
2348.245	0.953	952.8	observe	Run3	observe/STIM_002.jpg	100
2352.722	1.077	1077.1	observe	Run3	observe/STIM_002.jpg	99
2357.397	0.981	981.2	observe	Run3	observe/STIM_003.jpg	100
2361.623	1.175	1175.2	observe	Run3	observe/STIM_003.jpg	100
2366.211	0.9	899.7	observe	Run3	observe/STIM_003.jpg	99
2370.234	1.3	1299.9	observe	Run3	observe/STIM_003.jpg	100
2374.972	0.82	820.2	observe	Run3	observe/STIM_004.jpg	99
2379.472	1.011	1011.4	observe	Run3	observe/STIM_004.jpg	100
2382.568	0.913	912.9	observe	Run3	observe/STIM_004.jpg	99
2385.989	0.991	991.4	observe	Run3	observe/STIM_004.jpg	99
2390.548	1.028	1028.3	observe	Run3	observe/STIM_005.jpg	100
2393.723	0.994	994.5	observe	Run3	observe/STIM_005.jpg	100
2398.424	0.714	713.9	observe	Run3	observe/STIM_005.jpg	99
2401.68	1.263	1263.0	observe	Run3	observe/STIM_005.jpg	100
2406.45	0.742	741.5	observe	Run3	observe/STIM_006.jpg	99
2410.043	1.265	1265.4	observe	Run3	observe/STIM_006.jpg	99
2414.444	1.182	1181.7	observe	Run3	observe/STIM_006.jpg	99
2418.587	0.879	878.7	observe	Run3	observe/STIM_006.jpg	99
2422.833	0.723	722.6	observe	Run3	observe/STIM_007.jpg	100
2426.519	1.181	1181.4	observe	Run3	observe/STIM_007.jpg	99
2431.58	1.246	1245.7	observe	Run3	observe/STIM_007.jpg	100
2436.186	0.856	856.1	observe	Run3	observe/STIM_007.jpg	99
2439.764	0.958	957.8	observe	Run3	observe/STIM_008.jpg	100
2443.925	0.846	846.5	observe	Run3	observe/STIM_008.jpg	99
2448.373	0.904	904.0	observe	Run3	observe/STIM_008.jpg	100
2452.158	1.134	1133.9	observe	Run3	observe/STIM_008.jpg	99
2455.653	0.679	678.9	observe	Run3	observe/STIM_009.jpg	99
2458.343	1.111	1111.2	observe	Run3	observe/STIM_009.jpg	99
2462.322	1.222	1221.5	observe	Run3	observe/STIM_009.jpg	99
2466.323	0.822	822.2	observe	Run3	observe/STIM_009.jpg	100
2470.973	0.781	780.7	observe	Run3	observe/STIM_010.jpg	99
2473.768	0.876	875.7	observe	Run3	observe/STIM_010.jpg	99
2476.729	1.195	1194.9	observe	Run3	observe/STIM_010.jpg	100
2481.522	1.113	1112.9	observe	Run3	observe/STIM_010.jpg	99
2485.689	1.08	1080.2	observe	Run3	observe/STIM_011.jpg	100
2490.184	1.218	1217.5	observe	Run3	observe/STIM_011.jpg	100
2494.78	1.29	1289.5	observe	Run3	observe/STIM_011.jpg	100
2499.412	0.901	901.0	observe	Run3	observe/STIM_011.jpg	99
2503.006	1.17	1170.2	observe	Run3	observe/STIM_012.jpg	99
2506.324	1.26	1260.1	observe	Run3	observe/STIM_012.jpg	100
2511.515	0.842	842.0	observe	Run3	observe/STIM_012.jpg	100
2514.71	1.258	1257.7	observe	Run3	observe/STIM_012.jpg	99
2519.611	1.177	1176.8	observe	Run3	observe/STIM_013.jpg	99
2524.2	0.934	934.3	observe	Run3	observe/STIM_013.jpg	100
2528.293	0.696	696.3	observe	Run3	observe/STIM_013.jpg	99
2532.111	0.788	788.1	observe	Run3	observe/STIM_013.jpg	100
2535.574	1.289	1289.3	observe	Run3	observe/STIM_014.jpg	100
2540.748	1.177	1177.0	observe	Run3	observe/STIM_014.jpg	100
2544.741	0.844	843.8	observe	Run3	observe/STIM_014.jpg	99
2549.431	1.028	1028.4	observe	Run3	observe/STIM_014.jpg	99
2554.136	1.126	1125.7	observe	Run3	observe/STIM_015.jpg	100
2559.149	1.124	1123.7	observe	Run3	observe/STIM_015.jpg	99
2562.41	0.877	876.8	observe	Run3	observe/STIM_015.jpg	100
2566.149	1.178	1178.2	observe	Run3	observe/STIM_015.jpg	99
2570.067	1.088	1088.3	observe	Run3	observe/STIM_016.jpg	99
2574.022	0.996	996.1	observe	Run3	observe/STIM_016.jpg	99
2577.974	0.973	973.2	observe	Run3	observe/STIM_016.jpg	100
2581.917	0.901	901.0	observe	Run3	observe/STIM_016.jpg	99
2586.188	1.162	1161.6	observe	Run3	observe/STIM_017.jpg	99
2590.177	1.048	1048.4	observe	Run3	observe/STIM_017.jpg	99
2594.364	1.104	1103.6	observe	Run3	observe/STIM_017.jpg	99
2597.659	1.272	1271.7	observe	Run3	observe/STIM_017.jpg	99
2601.695	0.696	696.2	observe	Run3	observe/STIM_018.jpg	99
2606.388	1.098	1098.4	observe	Run3	observe/STIM_018.jpg	99
2611.194	0.719	719.0	observe	Run3	observe/STIM_018.jpg	99
2614.196	0.929	929.4	observe	Run3	observe/STIM_018.jpg	99
2618.837	1.26	1259.5	observe	Run3	observe/STIM_019.jpg	99
2622.657	0.936	936.3	observe	Run3	observe/STIM_019.jpg	99
2626.397	0.704	704.1	observe	Run3	observe/STIM_019.jpg	99
2630.743	1.204	1204.0	observe	Run3	observe/STIM_019.jpg	100
