onset	duration	accuracy_binary	trial_type	learning_stage	stimulus
0.0	1.913	1	regulate	Run1	regulate/STIM_000.jpg
4.772	3.482	1	regulate	Run1	regulate/STIM_000.jpg
10.226	1.694	1	regulate	Run1	regulate/STIM_000.jpg
14.673	2.229	0	regulate	Run1	regulate/STIM_000.jpg
20.599	3.206	1	regulate	Run1	regulate/STIM_001.jpg
25.894	3.406	1	regulate	Run1	regulate/STIM_001.jpg
32.224	3.151	1	regulate	Run1	regulate/STIM_001.jpg
37.777	2.54	1	regulate	Run1	regulate/STIM_001.jpg
42.519	1.919	0	regulate	Run1	regulate/STIM_002.jpg
47.438	2.456	1	regulate	Run1	regulate/STIM_002.jpg
53.203	2.36	1	regulate	Run1	regulate/STIM_002.jpg
59.01	2.197	1	regulate	Run1	regulate/STIM_002.jpg
64.324	2.384	1	regulate	Run1	regulate/STIM_003.jpg
68.79	2.301	0	regulate	Run1	regulate/STIM_003.jpg
73.739	3.14	0	regulate	Run1	regulate/STIM_003.jpg
78.801	1.712	0	regulate	Run1	regulate/STIM_003.jpg
82.502	2.283	1	regulate	Run1	regulate/STIM_004.jpg
87.627	3.5	0	regulate	Run1	regulate/STIM_004.jpg
93.182	3.102	1	regulate	Run1	regulate/STIM_004.jpg
99.344	1.396	1	regulate	Run1	regulate/STIM_004.jpg
103.465	3.667	1	regulate	Run1	regulate/STIM_005.jpg
109.225	3.31	0	regulate	Run1	regulate/STIM_005.jpg
116.028	3.34	1	regulate	Run1	regulate/STIM_005.jpg
121.337	1.387	1	regulate	Run1	regulate/STIM_005.jpg
125.962	1.871	1	regulate	Run1	regulate/STIM_006.jpg
130.643	1.668	0	regulate	Run1	regulate/STIM_006.jpg
134.238	2.902	1	regulate	Run1	regulate/STIM_006.jpg
139.535	2.018	1	regulate	Run1	regulate/STIM_006.jpg
144.535	2.247	1	regulate	Run1	regulate/STIM_007.jpg
149.884	2.011	1	regulate	Run1	regulate/STIM_007.jpg
154.137	3.136	1	regulate	Run1	regulate/STIM_007.jpg
160.025	2.258	1	regulate	Run1	regulate/STIM_007.jpg
165.336	2.898	1	regulate	Run1	regulate/STIM_008.jpg
171.437	2.448	1	regulate	Run1	regulate/STIM_008.jpg
176.895	1.912	1	regulate	Run1	regulate/STIM_008.jpg
181.249	2.341	0	regulate	Run1	regulate/STIM_008.jpg
185.645	3.167	1	regulate	Run1	regulate/STIM_009.jpg
191.739	1.846	1	regulate	Run1	regulate/STIM_009.jpg
197.29	1.705	1	regulate	Run1	regulate/STIM_009.jpg
202.753	2.54	0	regulate	Run1	regulate/STIM_009.jpg
207.895	2.578	1	regulate	Run1	regulate/STIM_010.jpg
213.578	2.724	0	regulate	Run1	regulate/STIM_010.jpg
218.457	2.673	1	regulate	Run1	regulate/STIM_010.jpg
223.571	2.22	1	regulate	Run1	regulate/STIM_010.jpg
228.708	3.606	1	regulate	Run1	regulate/STIM_011.jpg
235.442	2.277	1	regulate	Run1	regulate/STIM_011.jpg
241.262	2.83	0	regulate	Run1	regulate/STIM_011.jpg
247.314	2.67	1	regulate	Run1	regulate/STIM_011.jpg
253.439	2.323	1	regulate	Run1	regulate/STIM_012.jpg
258.504	1.79	1	regulate	Run1	regulate/STIM_012.jpg
263.744	3.174	1	regulate	Run1	regulate/STIM_012.jpg
270.442	3.048	1	regulate	Run1	regulate/STIM_012.jpg
275.533	1.956	1	regulate	Run1	regulate/STIM_013.jpg
280.815	2.868	0	regulate	Run1	regulate/STIM_013.jpg
287.05	3.184	1	regulate	Run1	regulate/STIM_013.jpg
293.521	2.962	1	regulate	Run1	regulate/STIM_013.jpg
299.915	3.167	1	regulate	Run1	regulate/STIM_014.jpg
305.857	2.583	0	regulate	Run1	regulate/STIM_014.jpg
311.94	2.6	1	regulate	Run1	regulate/STIM_014.jpg
316.501	2.367	1	regulate	Run1	regulate/STIM_014.jpg
322.033	3.246	1	regulate	Run1	regulate/STIM_015.jpg
328.325	1.853	1	regulate	Run1	regulate/STIM_015.jpg
332.566	2.198	1	regulate	Run1	regulate/STIM_015.jpg
337.351	2.492	0	regulate	Run1	regulate/STIM_015.jpg
342.088	3.639	1	regulate	Run1	regulate/STIM_016.jpg
347.865	2.42	1	regulate	Run1	regulate/STIM_016.jpg
353.13	3.078	1	regulate	Run1	regulate/STIM_016.jpg
358.228	1.606	1	regulate	Run1	regulate/STIM_016.jpg
362.564	3.539	1	regulate	Run1	regulate/STIM_017.jpg
368.31	2.096	1	regulate	Run1	regulate/STIM_017.jpg
374.021	3.255	0	regulate	Run1	regulate/STIM_017.jpg
380.682	1.978	0	regulate	Run1	regulate/STIM_017.jpg
385.511	3.467	1	regulate	Run1	regulate/STIM_018.jpg
390.897	1.78	1	regulate	Run1	regulate/STIM_018.jpg
396.334	2.146	1	regulate	Run1	regulate/STIM_018.jpg
402.065	1.563	0	regulate	Run1	regulate/STIM_018.jpg
406.538	3.341	0	regulate	Run1	regulate/STIM_019.jpg
412.307	2.473	1	regulate	Run1	regulate/STIM_019.jpg
417.71	2.764	0	regulate	Run1	regulate/STIM_019.jpg
423.003	2.625	1	regulate	Run1	regulate/STIM_019.jpg
427.802	3.386	1	regulate	Run1	regulate/STIM_020.jpg
434.282	1.727	1	regulate	Run1	regulate/STIM_020.jpg
439.821	2.381	1	regulate	Run1	regulate/STIM_020.jpg
444.786	2.469	1	regulate	Run1	regulate/STIM_020.jpg
450.79	3.517	1	regulate	Run1	regulate/STIM_021.jpg
457.352	3.303	1	regulate	Run1	regulate/STIM_021.jpg
464.142	2.56	1	regulate	Run1	regulate/STIM_021.jpg
469.327	1.766	1	regulate	Run1	regulate/STIM_021.jpg
473.861	3.557	1	regulate	Run1	regulate/STIM_022.jpg
480.188	3.398	0	regulate	Run1	regulate/STIM_022.jpg
486.215	3.39	1	regulate	Run1	regulate/STIM_022.jpg
492.346	2.149	1	regulate	Run1	regulate/STIM_022.jpg
496.869	1.703	0	regulate	Run1	regulate/STIM_023.jpg
502.266	1.843	1	regulate	Run1	regulate/STIM_023.jpg
507.88	2.361	1	regulate	Run1	regulate/STIM_023.jpg
512.349	1.584	1	regulate	Run1	regulate/STIM_023.jpg
516.716	2.871	1	regulate	Run1	regulate/STIM_024.jpg
521.391	1.935	0	regulate	Run1	regulate/STIM_024.jpg
525.385	1.75	0	regulate	Run1	regulate/STIM_024.jpg
529.214	2.106	1	regulate	Run1	regulate/STIM_024.jpg
533.863	2.573	1	regulate	Run1	regulate/STIM_025.jpg
539.653	1.556	1	regulate	Run1	regulate/STIM_025.jpg
543.74	3.198	0	regulate	Run1	regulate/STIM_025.jpg
550.472	2.765	0	regulate	Run1	regulate/STIM_025.jpg
556.596	2.97	0	regulate	Run1	regulate/STIM_026.jpg
561.981	2.109	1	regulate	Run1	regulate/STIM_026.jpg
566.177	1.749	0	regulate	Run1	regulate/STIM_026.jpg
570.433	2.498	1	regulate	Run1	regulate/STIM_026.jpg
575.542	2.464	1	regulate	Run1	regulate/STIM_027.jpg
581.529	1.766	1	regulate	Run1	regulate/STIM_027.jpg
586.307	2.106	1	regulate	Run1	regulate/STIM_027.jpg
591.342	2.736	1	regulate	Run1	regulate/STIM_027.jpg
596.896	3.173	1	regulate	Run1	regulate/STIM_028.jpg
603.14	2.44	1	regulate	Run1	regulate/STIM_028.jpg
608.224	1.812	0	regulate	Run1	regulate/STIM_028.jpg
613.021	1.629	1	regulate	Run1	regulate/STIM_028.jpg
616.913	3.232	1	regulate	Run1	regulate/STIM_029.jpg
622.08	2.363	0	regulate	Run1	regulate/STIM_029.jpg
628.033	3.289	1	regulate	Run1	regulate/STIM_029.jpg
633.567	2.384	1	regulate	Run1	regulate/STIM_029.jpg
639.432	0.955	1	observe	Run1	observe/STIM_000.jpg
644.151	1.638	1	observe	Run1	observe/STIM_000.jpg
648.43	1.565	1	observe	Run1	observe/STIM_000.jpg
653.674	0.953	1	observe	Run1	observe/STIM_000.jpg
658.348	1.071	1	observe	Run1	observe/STIM_001.jpg
662.994	1.145	1	observe	Run1	observe/STIM_001.jpg
666.291	1.268	1	observe	Run1	observe/STIM_001.jpg
670.947	1.496	1	observe	Run1	observe/STIM_001.jpg
676.076	1.4	1	observe	Run1	observe/STIM_002.jpg
681.336	1.502	1	observe	Run1	observe/STIM_002.jpg
685.155	0.869	1	observe	Run1	observe/STIM_002.jpg
688.063	1.007	1	observe	Run1	observe/STIM_002.jpg
692.284	1.121	1	observe	Run1	observe/STIM_003.jpg
696.883	1.286	1	observe	Run1	observe/STIM_003.jpg
701.027	1.607	1	observe	Run1	observe/STIM_003.jpg
706.315	1.558	1	observe	Run1	observe/STIM_003.jpg
710.38	1.14	1	observe	Run1	observe/STIM_004.jpg
714.818	0.909	1	observe	Run1	observe/STIM_004.jpg
717.661	0.928	1	observe	Run1	observe/STIM_004.jpg
722.118	1.442	1	observe	Run1	observe/STIM_004.jpg
725.625	1.088	1	observe	Run1	observe/STIM_005.jpg
730.31	1.305	0	observe	Run1	observe/STIM_005.jpg
735.051	1.641	0	observe	Run1	observe/STIM_005.jpg
738.748	1.214	1	observe	Run1	observe/STIM_005.jpg
743.099	1.381	1	observe	Run1	observe/STIM_006.jpg
746.402	0.951	1	observe	Run1	observe/STIM_006.jpg
750.769	1.074	1	observe	Run1	observe/STIM_006.jpg
754.893	1.32	1	observe	Run1	observe/STIM_006.jpg
759.106	0.884	1	observe	Run1	observe/STIM_007.jpg
762.964	1.322	1	observe	Run1	observe/STIM_007.jpg
767.617	1.14	1	observe	Run1	observe/STIM_007.jpg
771.024	1.549	1	observe	Run1	observe/STIM_007.jpg
776.247	1.456	1	observe	Run1	observe/STIM_008.jpg
779.666	1.587	1	observe	Run1	observe/STIM_008.jpg
783.344	1.27	1	observe	Run1	observe/STIM_008.jpg
787.55	1.716	1	observe	Run1	observe/STIM_008.jpg
791.902	1.506	1	observe	Run1	observe/STIM_009.jpg
795.625	1.103	1	observe	Run1	observe/STIM_009.jpg
798.772	1.331	1	observe	Run1	observe/STIM_009.jpg
803.875	0.935	1	observe	Run1	observe/STIM_009.jpg
807.496	1.231	1	observe	Run1	observe/STIM_010.jpg
811.347	1.074	1	observe	Run1	observe/STIM_010.jpg
814.854	0.91	1	observe	Run1	observe/STIM_010.jpg
818.014	1.203	1	observe	Run1	observe/STIM_010.jpg
822.188	1.454	1	observe	Run1	observe/STIM_011.jpg
825.949	1.434	1	observe	Run1	observe/STIM_011.jpg
829.305	1.031	1	observe	Run1	observe/STIM_011.jpg
833.95	1.007	1	observe	Run1	observe/STIM_011.jpg
838.273	1.531	1	observe	Run1	observe/STIM_012.jpg
842.251	1.493	1	observe	Run1	observe/STIM_012.jpg
846.358	1.705	1	observe	Run1	observe/STIM_012.jpg
850.384	1.681	0	observe	Run1	observe/STIM_012.jpg
854.553	1.353	1	observe	Run1	observe/STIM_013.jpg
858.98	1.337	0	observe	Run1	observe/STIM_013.jpg
863.563	1.211	1	observe	Run1	observe/STIM_013.jpg
867.545	1.382	1	observe	Run1	observe/STIM_013.jpg
871.25	1.317	1	observe	Run1	observe/STIM_014.jpg
875.001	1.706	1	observe	Run1	observe/STIM_014.jpg
880.578	1.425	1	observe	Run1	observe/STIM_014.jpg
884.17	1.404	1	observe	Run1	observe/STIM_014.jpg
889.28	1.587	1	observe	Run1	observe/STIM_015.jpg
893.757	1.556	1	observe	Run1	observe/STIM_015.jpg
897.647	1.585	1	observe	Run1	observe/STIM_015.jpg
902.004	1.409	1	observe	Run1	observe/STIM_015.jpg
905.991	1.195	0	observe	Run1	observe/STIM_016.jpg
909.904	1.178	0	observe	Run1	observe/STIM_016.jpg
914.353	1.54	1	observe	Run1	observe/STIM_016.jpg
918.923	1.192	0	observe	Run1	observe/STIM_016.jpg
922.789	0.964	1	observe	Run1	observe/STIM_017.jpg
926.708	1.579	1	observe	Run1	observe/STIM_017.jpg
931.183	1.71	1	observe	Run1	observe/STIM_017.jpg
935.477	1.434	1	observe	Run1	observe/STIM_017.jpg
939.346	1.618	1	observe	Run1	observe/STIM_018.jpg
943.49	1.66	1	observe	Run1	observe/STIM_018.jpg
948.791	1.424	1	observe	Run1	observe/STIM_018.jpg
953.821	1.718	0	observe	Run1	observe/STIM_018.jpg
959.287	1.117	1	observe	Run1	observe/STIM_019.jpg
963.528	1.288	1	observe	Run1	observe/STIM_019.jpg
968.546	1.528	1	observe	Run1	observe/STIM_019.jpg
973.809	1.639	1	observe	Run1	observe/STIM_019.jpg
979.219	1.56	0	regulate	Run2	regulate/STIM_000.jpg
983.341	1.619	1	regulate	Run2	regulate/STIM_000.jpg
988.364	1.986	1	regulate	Run2	regulate/STIM_000.jpg
993.75	1.675	1	regulate	Run2	regulate/STIM_000.jpg
999.047	1.537	1	regulate	Run2	regulate/STIM_001.jpg
1002.636	2.674	0	regulate	Run2	regulate/STIM_001.jpg
1008.15	2.049	1	regulate	Run2	regulate/STIM_001.jpg
1013.922	2.141	1	regulate	Run2	regulate/STIM_001.jpg
1018.776	1.794	0	regulate	Run2	regulate/STIM_002.jpg
1023.382	2.556	1	regulate	Run2	regulate/STIM_002.jpg
1028.967	1.288	1	regulate	Run2	regulate/STIM_002.jpg
1033.579	2.088	1	regulate	Run2	regulate/STIM_002.jpg
1037.603	2.605	0	regulate	Run2	regulate/STIM_003.jpg
1043.364	2.007	0	regulate	Run2	regulate/STIM_003.jpg
1047.96	1.305	1	regulate	Run2	regulate/STIM_003.jpg
1051.331	2.035	1	regulate	Run2	regulate/STIM_003.jpg
1056.836	3.003	1	regulate	Run2	regulate/STIM_004.jpg
1061.712	1.873	1	regulate	Run2	regulate/STIM_004.jpg
1067.376	1.882	1	regulate	Run2	regulate/STIM_004.jpg
1072.781	1.869	1	regulate	Run2	regulate/STIM_004.jpg
1078.49	2.945	1	regulate	Run2	regulate/STIM_005.jpg
1085.203	2.6	0	regulate	Run2	regulate/STIM_005.jpg
1090.588	1.94	1	regulate	Run2	regulate/STIM_005.jpg
1094.785	2.487	1	regulate	Run2	regulate/STIM_005.jpg
1099.251	1.946	0	regulate	Run2	regulate/STIM_006.jpg
1104.991	2.982	1	regulate	Run2	regulate/STIM_006.jpg
1110.857	1.563	1	regulate	Run2	regulate/STIM_006.jpg
1115.256	1.152	1	regulate	Run2	regulate/STIM_006.jpg
1118.627	2.922	1	regulate	Run2	regulate/STIM_007.jpg
1123.376	1.417	1	regulate	Run2	regulate/STIM_007.jpg
1127.796	2.597	1	regulate	Run2	regulate/STIM_007.jpg
1132.28	1.486	1	regulate	Run2	regulate/STIM_007.jpg
1137.425	2.743	1	regulate	Run2	regulate/STIM_008.jpg
1143.83	1.41	1	regulate	Run2	regulate/STIM_008.jpg
1147.45	2.53	1	regulate	Run2	regulate/STIM_008.jpg
1152.197	2.511	1	regulate	Run2	regulate/STIM_008.jpg
1157.205	2.186	1	regulate	Run2	regulate/STIM_009.jpg
1162.237	2.223	1	regulate	Run2	regulate/STIM_009.jpg
1166.948	2.134	1	regulate	Run2	regulate/STIM_009.jpg
1172.649	1.829	1	regulate	Run2	regulate/STIM_009.jpg
1176.629	2.457	1	regulate	Run2	regulate/STIM_010.jpg
1181.583	2.771	1	regulate	Run2	regulate/STIM_010.jpg
1187.244	1.467	0	regulate	Run2	regulate/STIM_010.jpg
1190.946	2.361	1	regulate	Run2	regulate/STIM_010.jpg
1196.64	2.686	1	regulate	Run2	regulate/STIM_011.jpg
1202.565	1.959	1	regulate	Run2	regulate/STIM_011.jpg
1207.256	2.218	1	regulate	Run2	regulate/STIM_011.jpg
1212.821	1.495	1	regulate	Run2	regulate/STIM_011.jpg
1216.432	2.927	1	regulate	Run2	regulate/STIM_012.jpg
1221.813	1.827	0	regulate	Run2	regulate/STIM_012.jpg
1226.141	2.5	1	regulate	Run2	regulate/STIM_012.jpg
1231.224	2.392	1	regulate	Run2	regulate/STIM_012.jpg
1235.836	1.753	1	regulate	Run2	regulate/STIM_013.jpg
1239.785	2.077	1	regulate	Run2	regulate/STIM_013.jpg
1244.363	2.355	1	regulate	Run2	regulate/STIM_013.jpg
1249.169	2.192	1	regulate	Run2	regulate/STIM_013.jpg
1255.048	2.387	1	regulate	Run2	regulate/STIM_014.jpg
1259.297	2.257	1	regulate	Run2	regulate/STIM_014.jpg
1264.573	2.724	1	regulate	Run2	regulate/STIM_014.jpg
1270.643	1.639	1	regulate	Run2	regulate/STIM_014.jpg
1276.1	2.682	1	regulate	Run2	regulate/STIM_015.jpg
1281.863	1.592	1	regulate	Run2	regulate/STIM_015.jpg
1286.177	2.739	0	regulate	Run2	regulate/STIM_015.jpg
1290.978	2.038	1	regulate	Run2	regulate/STIM_015.jpg
1295.686	3.192	1	regulate	Run2	regulate/STIM_016.jpg
1302.579	2.094	1	regulate	Run2	regulate/STIM_016.jpg
1307.083	2.718	1	regulate	Run2	regulate/STIM_016.jpg
1312.247	1.53	1	regulate	Run2	regulate/STIM_016.jpg
1316.638	3.156	1	regulate	Run2	regulate/STIM_017.jpg
1322.882	1.636	1	regulate	Run2	regulate/STIM_017.jpg
1328.373	2.393	1	regulate	Run2	regulate/STIM_017.jpg
1334.433	2.622	1	regulate	Run2	regulate/STIM_017.jpg
1339.805	1.763	1	regulate	Run2	regulate/STIM_018.jpg
1344.355	2.14	1	regulate	Run2	regulate/STIM_018.jpg
1349.366	2.432	1	regulate	Run2	regulate/STIM_018.jpg
1355.209	1.286	1	regulate	Run2	regulate/STIM_018.jpg
1358.56	2.209	1	regulate	Run2	regulate/STIM_019.jpg
1363.115	2.994	1	regulate	Run2	regulate/STIM_019.jpg
1369.4	2.143	0	regulate	Run2	regulate/STIM_019.jpg
1374.939	1.451	1	regulate	Run2	regulate/STIM_019.jpg
1378.914	1.759	1	regulate	Run2	regulate/STIM_020.jpg
1384.349	2.448	1	regulate	Run2	regulate/STIM_020.jpg
1388.961	2.207	0	regulate	Run2	regulate/STIM_020.jpg
1394.856	1.336	1	regulate	Run2	regulate/STIM_020.jpg
1398.678	1.993	1	regulate	Run2	regulate/STIM_021.jpg
1403.449	1.52	1	regulate	Run2	regulate/STIM_021.jpg
1407.006	1.628	1	regulate	Run2	regulate/STIM_021.jpg
1412.245	1.585	1	regulate	Run2	regulate/STIM_021.jpg
1415.772	2.572	0	regulate	Run2	regulate/STIM_022.jpg
1420.384	1.341	1	regulate	Run2	regulate/STIM_022.jpg
1425.555	2.227	1	regulate	Run2	regulate/STIM_022.jpg
1430.049	1.829	1	regulate	Run2	regulate/STIM_022.jpg
1433.999	2.696	1	regulate	Run2	regulate/STIM_023.jpg
1440.382	1.557	1	regulate	Run2	regulate/STIM_023.jpg
1445.323	2.104	1	regulate	Run2	regulate/STIM_023.jpg
1450.941	1.992	1	regulate	Run2	regulate/STIM_023.jpg
1456.482	2.995	1	regulate	Run2	regulate/STIM_024.jpg
1461.563	2.557	1	regulate	Run2	regulate/STIM_024.jpg
1467.339	1.717	1	regulate	Run2	regulate/STIM_024.jpg
1471.026	1.764	1	regulate	Run2	regulate/STIM_024.jpg
1475.24	2.882	1	regulate	Run2	regulate/STIM_025.jpg
1481.562	2.356	1	regulate	Run2	regulate/STIM_025.jpg
1486.397	2.558	1	regulate	Run2	regulate/STIM_025.jpg
1492.035	2.617	1	regulate	Run2	regulate/STIM_025.jpg
1496.474	1.496	1	regulate	Run2	regulate/STIM_026.jpg
1501.707	1.584	1	regulate	Run2	regulate/STIM_026.jpg
1506.703	2.766	0	regulate	Run2	regulate/STIM_026.jpg
1511.85	1.276	1	regulate	Run2	regulate/STIM_026.jpg
1516.073	1.946	1	regulate	Run2	regulate/STIM_027.jpg
1520.635	1.379	0	regulate	Run2	regulate/STIM_027.jpg
1525.196	2.328	1	regulate	Run2	regulate/STIM_027.jpg
1530.926	1.788	1	regulate	Run2	regulate/STIM_027.jpg
1536.211	1.688	1	regulate	Run2	regulate/STIM_028.jpg
1540.309	1.841	1	regulate	Run2	regulate/STIM_028.jpg
1545.138	1.938	1	regulate	Run2	regulate/STIM_028.jpg
1549.372	2.155	1	regulate	Run2	regulate/STIM_028.jpg
1554.62	1.614	1	regulate	Run2	regulate/STIM_029.jpg
1559.203	1.868	1	regulate	Run2	regulate/STIM_029.jpg
1564.307	1.671	1	regulate	Run2	regulate/STIM_029.jpg
1568.383	2.222	1	regulate	Run2	regulate/STIM_029.jpg
1573.966	1.272	1	observe	Run2	observe/STIM_000.jpg
1578.422	1.264	0	observe	Run2	observe/STIM_000.jpg
1582.072	1.184	1	observe	Run2	observe/STIM_000.jpg
1585.33	1.068	1	observe	Run2	observe/STIM_000.jpg
1590.192	0.968	1	observe	Run2	observe/STIM_001.jpg
1593.54	1.536	1	observe	Run2	observe/STIM_001.jpg
1598.855	0.997	1	observe	Run2	observe/STIM_001.jpg
1602.551	1.507	1	observe	Run2	observe/STIM_001.jpg
1607.754	1.635	1	observe	Run2	observe/STIM_002.jpg
1611.774	1.037	1	observe	Run2	observe/STIM_002.jpg
1615.665	1.642	0	observe	Run2	observe/STIM_002.jpg
1620.06	1.056	1	observe	Run2	observe/STIM_002.jpg
1623.294	1.571	1	observe	Run2	observe/STIM_003.jpg
1627.482	1.395	1	observe	Run2	observe/STIM_003.jpg
1631.885	1.513	1	observe	Run2	observe/STIM_003.jpg
1635.428	1.051	1	observe	Run2	observe/STIM_003.jpg
1640.308	1.022	1	observe	Run2	observe/STIM_004.jpg
1644.51	0.935	1	observe	Run2	observe/STIM_004.jpg
1647.836	1.24	1	observe	Run2	observe/STIM_004.jpg
1651.498	0.883	1	observe	Run2	observe/STIM_004.jpg
1654.936	0.967	1	observe	Run2	observe/STIM_005.jpg
1658.347	1.139	1	observe	Run2	observe/STIM_005.jpg
1662.462	1.555	1	observe	Run2	observe/STIM_005.jpg
1667.577	1.382	1	observe	Run2	observe/STIM_005.jpg
1672.741	1.376	1	observe	Run2	observe/STIM_006.jpg
1677.888	0.992	1	observe	Run2	observe/STIM_006.jpg
1682.335	1.104	0	observe	Run2	observe/STIM_006.jpg
1687.057	0.986	1	observe	Run2	observe/STIM_006.jpg
1690.034	1.122	1	observe	Run2	observe/STIM_007.jpg
1694.294	1.323	1	observe	Run2	observe/STIM_007.jpg
1698.323	1.133	1	observe	Run2	observe/STIM_007.jpg
1701.848	1.66	1	observe	Run2	observe/STIM_007.jpg
1706.541	1.162	1	observe	Run2	observe/STIM_008.jpg
1710.377	1.486	1	observe	Run2	observe/STIM_008.jpg
1715.24	1.046	1	observe	Run2	observe/STIM_008.jpg
1719.519	1.154	1	observe	Run2	observe/STIM_008.jpg
1722.726	0.989	1	observe	Run2	observe/STIM_009.jpg
1726.506	1.313	1	observe	Run2	observe/STIM_009.jpg
1730.002	1.166	1	observe	Run2	observe/STIM_009.jpg
1733.67	1.082	1	observe	Run2	observe/STIM_009.jpg
1738.544	1.538	1	observe	Run2	observe/STIM_010.jpg
1742.213	1.638	1	observe	Run2	observe/STIM_010.jpg
1746.639	1.72	1	observe	Run2	observe/STIM_010.jpg
1750.436	1.085	1	observe	Run2	observe/STIM_010.jpg
1754.195	1.608	0	observe	Run2	observe/STIM_011.jpg
1758.323	1.365	1	observe	Run2	observe/STIM_011.jpg
1763.144	1.228	0	observe	Run2	observe/STIM_011.jpg
1767.432	0.948	1	observe	Run2	observe/STIM_011.jpg
1772.061	1.124	1	observe	Run2	observe/STIM_012.jpg
1776.105	1.659	1	observe	Run2	observe/STIM_012.jpg
1781.641	0.992	1	observe	Run2	observe/STIM_012.jpg
1786.052	0.965	1	observe	Run2	observe/STIM_012.jpg
1789.086	1.35	1	observe	Run2	observe/STIM_013.jpg
1793.758	1.625	1	observe	Run2	observe/STIM_013.jpg
1797.719	1.161	0	observe	Run2	observe/STIM_013.jpg
1801.636	1.672	1	observe	Run2	observe/STIM_013.jpg
1805.35	1.266	1	observe	Run2	observe/STIM_014.jpg
1809.194	1.074	1	observe	Run2	observe/STIM_014.jpg
1813.834	1.704	1	observe	Run2	observe/STIM_014.jpg
1819.33	1.27	1	observe	Run2	observe/STIM_014.jpg
1822.732	1.13	0	observe	Run2	observe/STIM_015.jpg
1827.122	1.068	0	observe	Run2	observe/STIM_015.jpg
1831.838	1.419	1	observe	Run2	observe/STIM_015.jpg
1835.631	1.381	1	observe	Run2	observe/STIM_015.jpg
1840.548	1.48	1	observe	Run2	observe/STIM_016.jpg
1845.5	1.21	1	observe	Run2	observe/STIM_016.jpg
1849.652	0.882	1	observe	Run2	observe/STIM_016.jpg
1854.317	0.931	1	observe	Run2	observe/STIM_016.jpg
1857.592	0.935	0	observe	Run2	observe/STIM_017.jpg
1862.414	1.634	1	observe	Run2	observe/STIM_017.jpg
1867.153	1.59	1	observe	Run2	observe/STIM_017.jpg
1871.656	1.222	0	observe	Run2	observe/STIM_017.jpg
1876.234	1.548	0	observe	Run2	observe/STIM_018.jpg
1879.735	1.672	1	observe	Run2	observe/STIM_018.jpg
1883.615	0.945	1	observe	Run2	observe/STIM_018.jpg
1886.717	1.571	1	observe	Run2	observe/STIM_018.jpg
1890.622	1.063	1	observe	Run2	observe/STIM_019.jpg
1895.09	0.926	1	observe	Run2	observe/STIM_019.jpg
1899.672	1.312	1	observe	Run2	observe/STIM_019.jpg
1903.37	0.99	1	observe	Run2	observe/STIM_019.jpg
1907.498	1.294	1	regulate	Run3	regulate/STIM_000.jpg
1911.405	2.423	1	regulate	Run3	regulate/STIM_000.jpg
1916.663	1.55	1	regulate	Run3	regulate/STIM_000.jpg
1920.709	1.688	1	regulate	Run3	regulate/STIM_000.jpg
1925.405	2.357	1	regulate	Run3	regulate/STIM_001.jpg
1929.911	1.723	1	regulate	Run3	regulate/STIM_001.jpg
1933.777	1.195	1	regulate	Run3	regulate/STIM_001.jpg
1937.798	1.907	1	regulate	Run3	regulate/STIM_001.jpg
1942.729	1.758	1	regulate	Run3	regulate/STIM_002.jpg
1946.744	1.3	1	regulate	Run3	regulate/STIM_002.jpg
1951.254	2.603	1	regulate	Run3	regulate/STIM_002.jpg
1956.908	2.42	1	regulate	Run3	regulate/STIM_002.jpg
1962.286	2.282	1	regulate	Run3	regulate/STIM_003.jpg
1967.542	2.504	1	regulate	Run3	regulate/STIM_003.jpg
1972.051	1.522	1	regulate	Run3	regulate/STIM_003.jpg
1975.85	2.092	1	regulate	Run3	regulate/STIM_003.jpg
1981.561	2.567	1	regulate	Run3	regulate/STIM_004.jpg
1986.38	2.259	1	regulate	Run3	regulate/STIM_004.jpg
1992.179	1.491	1	regulate	Run3	regulate/STIM_004.jpg
1997.196	1.618	1	regulate	Run3	regulate/STIM_004.jpg
2001.762	2.001	1	regulate	Run3	regulate/STIM_005.jpg
2006.294	2.049	1	regulate	Run3	regulate/STIM_005.jpg
2011.86	2.51	1	regulate	Run3	regulate/STIM_005.jpg
2016.681	1.206	1	regulate	Run3	regulate/STIM_005.jpg
2021.737	1.472	1	regulate	Run3	regulate/STIM_006.jpg
2026.292	1.172	1	regulate	Run3	regulate/STIM_006.jpg
2031.025	1.759	1	regulate	Run3	regulate/STIM_006.jpg
2036.551	2.516	1	regulate	Run3	regulate/STIM_006.jpg
2041.601	2.504	1	regulate	Run3	regulate/STIM_007.jpg
2046.946	2.025	1	regulate	Run3	regulate/STIM_007.jpg
2051.062	1.734	1	regulate	Run3	regulate/STIM_007.jpg
2055.312	2.301	1	regulate	Run3	regulate/STIM_007.jpg
2059.673	1.791	1	regulate	Run3	regulate/STIM_008.jpg
2063.423	2.23	1	regulate	Run3	regulate/STIM_008.jpg
2068.268	2.11	1	regulate	Run3	regulate/STIM_008.jpg
2072.47	2.384	1	regulate	Run3	regulate/STIM_008.jpg
2078.57	1.165	1	regulate	Run3	regulate/STIM_009.jpg
2082.857	1.606	1	regulate	Run3	regulate/STIM_009.jpg
2087.406	1.155	1	regulate	Run3	regulate/STIM_009.jpg
2090.74	2.211	1	regulate	Run3	regulate/STIM_009.jpg
2095.599	2.023	1	regulate	Run3	regulate/STIM_010.jpg
2100.897	1.524	1	regulate	Run3	regulate/STIM_010.jpg
2104.695	2.054	1	regulate	Run3	regulate/STIM_010.jpg
2110.429	1.974	1	regulate	Run3	regulate/STIM_010.jpg
2114.491	1.929	1	regulate	Run3	regulate/STIM_011.jpg
2119.115	1.508	1	regulate	Run3	regulate/STIM_011.jpg
2122.582	1.606	1	regulate	Run3	regulate/STIM_011.jpg
2126.217	1.787	1	regulate	Run3	regulate/STIM_011.jpg
2130.329	1.806	1	regulate	Run3	regulate/STIM_012.jpg
2135.315	1.839	1	regulate	Run3	regulate/STIM_012.jpg
2139.262	1.778	1	regulate	Run3	regulate/STIM_012.jpg
2144.269	2.371	0	regulate	Run3	regulate/STIM_012.jpg
2150.241	2.194	1	regulate	Run3	regulate/STIM_013.jpg
2154.859	1.324	1	regulate	Run3	regulate/STIM_013.jpg
2159.299	2.26	1	regulate	Run3	regulate/STIM_013.jpg
2164.464	1.765	1	regulate	Run3	regulate/STIM_013.jpg
2168.313	1.508	1	regulate	Run3	regulate/STIM_014.jpg
2173.252	2.033	1	regulate	Run3	regulate/STIM_014.jpg
2178.897	1.482	1	regulate	Run3	regulate/STIM_014.jpg
2182.648	1.428	1	regulate	Run3	regulate/STIM_014.jpg
2186.064	1.328	1	regulate	Run3	regulate/STIM_015.jpg
2189.575	1.446	1	regulate	Run3	regulate/STIM_015.jpg
2194.431	2.341	1	regulate	Run3	regulate/STIM_015.jpg
2200.156	2.628	0	regulate	Run3	regulate/STIM_015.jpg
2206.065	1.487	1	regulate	Run3	regulate/STIM_016.jpg
2210.427	1.658	1	regulate	Run3	regulate/STIM_016.jpg
2215.833	2.623	1	regulate	Run3	regulate/STIM_016.jpg
2220.741	1.888	1	regulate	Run3	regulate/STIM_016.jpg
2225.738	1.556	1	regulate	Run3	regulate/STIM_017.jpg
2229.742	2.325	1	regulate	Run3	regulate/STIM_017.jpg
2235.804	2.378	1	regulate	Run3	regulate/STIM_017.jpg
2241.641	1.506	1	regulate	Run3	regulate/STIM_017.jpg
2246.048	2.278	1	regulate	Run3	regulate/STIM_018.jpg
2250.678	2.348	1	regulate	Run3	regulate/STIM_018.jpg
2255.591	2.505	1	regulate	Run3	regulate/STIM_018.jpg
2261.457	2.136	1	regulate	Run3	regulate/STIM_018.jpg
2265.903	1.691	1	regulate	Run3	regulate/STIM_019.jpg
2270.86	1.875	1	regulate	Run3	regulate/STIM_019.jpg
2275.603	1.323	1	regulate	Run3	regulate/STIM_019.jpg
2279.057	2.195	1	regulate	Run3	regulate/STIM_019.jpg
2284.813	2.006	1	regulate	Run3	regulate/STIM_020.jpg
2290.245	2.473	1	regulate	Run3	regulate/STIM_020.jpg
2295.824	1.876	1	regulate	Run3	regulate/STIM_020.jpg
2301.147	2.419	1	regulate	Run3	regulate/STIM_020.jpg
2306.203	1.267	1	regulate	Run3	regulate/STIM_021.jpg
2311.23	2.198	1	regulate	Run3	regulate/STIM_021.jpg
2316.604	1.22	1	regulate	Run3	regulate/STIM_021.jpg
2320.705	2.435	1	regulate	Run3	regulate/STIM_021.jpg
2325.384	2.398	1	regulate	Run3	regulate/STIM_022.jpg
2330.055	1.238	1	regulate	Run3	regulate/STIM_022.jpg
2335.125	1.974	1	regulate	Run3	regulate/STIM_022.jpg
2339.13	1.95	1	regulate	Run3	regulate/STIM_022.jpg
2344.4	2.061	1	regulate	Run3	regulate/STIM_023.jpg
2348.618	2.492	1	regulate	Run3	regulate/STIM_023.jpg
2353.324	2.269	1	regulate	Run3	regulate/STIM_023.jpg
2357.964	2.621	1	regulate	Run3	regulate/STIM_023.jpg
2363.794	1.849	1	regulate	Run3	regulate/STIM_024.jpg
2368.428	1.876	1	regulate	Run3	regulate/STIM_024.jpg
2372.342	1.837	1	regulate	Run3	regulate/STIM_024.jpg
2376.538	2.045	1	regulate	Run3	regulate/STIM_024.jpg
2381.666	1.99	1	regulate	Run3	regulate/STIM_025.jpg
2386.367	1.856	1	regulate	Run3	regulate/STIM_025.jpg
2390.34	2.302	1	regulate	Run3	regulate/STIM_025.jpg
2394.921	1.672	1	regulate	Run3	regulate/STIM_025.jpg
2398.798	1.284	1	regulate	Run3	regulate/STIM_026.jpg
2403.649	2.506	1	regulate	Run3	regulate/STIM_026.jpg
2409.873	1.569	0	regulate	Run3	regulate/STIM_026.jpg
2413.944	1.879	1	regulate	Run3	regulate/STIM_026.jpg
2417.824	1.524	1	regulate	Run3	regulate/STIM_027.jpg
2422.417	1.914	1	regulate	Run3	regulate/STIM_027.jpg
2426.207	1.176	1	regulate	Run3	regulate/STIM_027.jpg
2430.012	2.005	1	regulate	Run3	regulate/STIM_027.jpg
2434.225	2.36	1	regulate	Run3	regulate/STIM_028.jpg
2438.445	1.214	1	regulate	Run3	regulate/STIM_028.jpg
2442.739	1.82	1	regulate	Run3	regulate/STIM_028.jpg
2448.019	2.579	1	regulate	Run3	regulate/STIM_028.jpg
2453.036	1.635	1	regulate	Run3	regulate/STIM_029.jpg
2457.472	1.425	1	regulate	Run3	regulate/STIM_029.jpg
2462.636	1.625	1	regulate	Run3	regulate/STIM_029.jpg
2466.609	2.257	1	regulate	Run3	regulate/STIM_029.jpg
2472.399	1.484	1	observe	Run3	observe/STIM_000.jpg
2476.254	1.186	1	observe	Run3	observe/STIM_000.jpg
2480.822	1.09	1	observe	Run3	observe/STIM_000.jpg
2484.354	0.976	1	observe	Run3	observe/STIM_000.jpg
2487.762	1.298	1	observe	Run3	observe/STIM_001.jpg
2492.683	1.553	1	observe	Run3	observe/STIM_001.jpg
2497.952	1.584	1	observe	Run3	observe/STIM_001.jpg
2503.112	1.102	1	observe	Run3	observe/STIM_001.jpg
2507.473	1.588	1	observe	Run3	observe/STIM_002.jpg
2510.951	1.373	1	observe	Run3	observe/STIM_002.jpg
2516.139	1.017	1	observe	Run3	observe/STIM_002.jpg
2519.36	1.582	1	observe	Run3	observe/STIM_002.jpg
2523.05	1.712	1	observe	Run3	observe/STIM_003.jpg
2527.949	1.15	1	observe	Run3	observe/STIM_003.jpg
2531.201	1.124	1	observe	Run3	observe/STIM_003.jpg
2535.044	1.606	1	observe	Run3	observe/STIM_003.jpg
2538.92	1.684	1	observe	Run3	observe/STIM_004.jpg
2543.269	1.563	1	observe	Run3	observe/STIM_004.jpg
2547.226	1.043	1	observe	Run3	observe/STIM_004.jpg
2551.763	1.492	1	observe	Run3	observe/STIM_004.jpg
2556.229	1.659	1	observe	Run3	observe/STIM_005.jpg
2560.584	1.576	1	observe	Run3	observe/STIM_005.jpg
2565.852	1.287	1	observe	Run3	observe/STIM_005.jpg
2569.904	1.327	1	observe	Run3	observe/STIM_005.jpg
2574.589	1.087	1	observe	Run3	observe/STIM_006.jpg
2579.531	1.512	1	observe	Run3	observe/STIM_006.jpg
2582.992	1.637	1	observe	Run3	observe/STIM_006.jpg
2586.658	1.348	1	observe	Run3	observe/STIM_006.jpg
2590.277	1.11	1	observe	Run3	observe/STIM_007.jpg
2594.475	1.437	1	observe	Run3	observe/STIM_007.jpg
2598.237	1.468	1	observe	Run3	observe/STIM_007.jpg
2603.3	1.716	1	observe	Run3	observe/STIM_007.jpg
2607.055	0.893	1	observe	Run3	observe/STIM_008.jpg
2611.685	1.673	1	observe	Run3	observe/STIM_008.jpg
2615.3	1.689	0	observe	Run3	observe/STIM_008.jpg
2620.243	1.214	0	observe	Run3	observe/STIM_008.jpg
2624.31	1.62	1	observe	Run3	observe/STIM_009.jpg
2629.414	1.052	1	observe	Run3	observe/STIM_009.jpg
2632.656	1.621	1	observe	Run3	observe/STIM_009.jpg
2636.401	1.118	1	observe	Run3	observe/STIM_009.jpg
2640.911	1.114	1	observe	Run3	observe/STIM_010.jpg
2644.043	0.946	1	observe	Run3	observe/STIM_010.jpg
2647.619	1.033	0	observe	Run3	observe/STIM_010.jpg
2652.557	1.202	0	observe	Run3	observe/STIM_010.jpg
2657.017	1.342	1	observe	Run3	observe/STIM_011.jpg
2660.512	1.168	1	observe	Run3	observe/STIM_011.jpg
2664.78	1.239	1	observe	Run3	observe/STIM_011.jpg
2667.967	1.535	1	observe	Run3	observe/STIM_011.jpg
2671.644	1.352	1	observe	Run3	observe/STIM_012.jpg
2676.644	1.367	1	observe	Run3	observe/STIM_012.jpg
2681.907	1.535	0	observe	Run3	observe/STIM_012.jpg
2687.059	1.461	0	observe	Run3	observe/STIM_012.jpg
2692.232	1.358	1	observe	Run3	observe/STIM_013.jpg
2696.29	1.254	1	observe	Run3	observe/STIM_013.jpg
2699.619	1.035	1	observe	Run3	observe/STIM_013.jpg
2702.845	1.444	1	observe	Run3	observe/STIM_013.jpg
2708.058	0.938	1	observe	Run3	observe/STIM_014.jpg
2712.315	1.362	1	observe	Run3	observe/STIM_014.jpg
2717.211	1.52	1	observe	Run3	observe/STIM_014.jpg
2722.58	1.49	1	observe	Run3	observe/STIM_014.jpg
2726.335	0.875	1	observe	Run3	observe/STIM_015.jpg
2729.957	1.447	1	observe	Run3	observe/STIM_015.jpg
2734.834	1.129	1	observe	Run3	observe/STIM_015.jpg
2738.838	1.679	1	observe	Run3	observe/STIM_015.jpg
2743.476	1.05	1	observe	Run3	observe/STIM_016.jpg
2747.917	1.333	1	observe	Run3	observe/STIM_016.jpg
2752.847	1.412	1	observe	Run3	observe/STIM_016.jpg
2756.628	1.604	0	observe	Run3	observe/STIM_016.jpg
2761.613	1.192	1	observe	Run3	observe/STIM_017.jpg
2764.985	1.362	0	observe	Run3	observe/STIM_017.jpg
2768.718	1.673	1	observe	Run3	observe/STIM_017.jpg
2773.593	0.927	1	observe	Run3	observe/STIM_017.jpg
2776.66	1.678	1	observe	Run3	observe/STIM_018.jpg
2780.495	1.133	1	observe	Run3	observe/STIM_018.jpg
2785.208	1.344	1	observe	Run3	observe/STIM_018.jpg
2790.254	1.575	1	observe	Run3	observe/STIM_018.jpg
2794.345	0.983	1	observe	Run3	observe/STIM_019.jpg
2799.212	1.151	1	observe	Run3	observe/STIM_019.jpg
2803.619	0.865	1	observe	Run3	observe/STIM_019.jpg
2807.133	0.882	1	observe	Run3	observe/STIM_019.jpg
