onset	duration	response_time_ms	trial_type	learning_stage	stimulus	response_port
0.0	1.552	1551.9	study	Phase1	study/STIM_000.jpg	100
5.154	1.612	1612.4	study	Phase1	study/STIM_000.jpg	99
10.005	1.404	1404.0	study	Phase1	study/STIM_000.jpg	99
14.564	1.61	1609.7	study	Phase1	study/STIM_001.jpg	100
19.219	0.762	762.3	study	Phase1	study/STIM_001.jpg	100
22.31	0.996	995.8	study	Phase1	study/STIM_001.jpg	99
25.51	1.587	1587.4	study	Phase1	study/STIM_002.jpg	100
30.962	1.104	1103.7	study	Phase1	study/STIM_002.jpg	100
34.417	1.367	1366.9	study	Phase1	study/STIM_002.jpg	100
39.617	1.515	1514.9	study	Phase1	study/STIM_003.jpg	100
44.639	1.002	1002.3	study	Phase1	study/STIM_003.jpg	99
49.0	1.453	1452.8	study	Phase1	study/STIM_003.jpg	100
52.591	1.23	1230.2	study	Phase1	study/STIM_004.jpg	99
56.485	1.032	1031.8	study	Phase1	study/STIM_004.jpg	100
61.112	1.363	1363.3	study	Phase1	study/STIM_004.jpg	100
65.478	1.561	1560.6	study	Phase1	study/STIM_005.jpg	100
71.04	1.585	1585.2	study	Phase1	study/STIM_005.jpg	100
75.849	1.22	1220.0	study	Phase1	study/STIM_005.jpg	99
79.167	0.949	949.1	study	Phase1	study/STIM_006.jpg	100
83.344	1.047	1047.3	study	Phase1	study/STIM_006.jpg	99
86.473	1.21	1210.1	study	Phase1	study/STIM_006.jpg	99
90.355	0.88	880.0	study	Phase1	study/STIM_007.jpg	100
93.545	1.501	1500.9	study	Phase1	study/STIM_007.jpg	100
97.556	1.422	1422.4	study	Phase1	study/STIM_007.jpg	99
102.287	1.377	1377.1	study	Phase1	study/STIM_008.jpg	100
106.924	1.339	1339.3	study	Phase1	study/STIM_008.jpg	99
111.761	1.094	1094.1	study	Phase1	study/STIM_008.jpg	99
115.625	1.632	1632.5	study	Phase1	study/STIM_009.jpg	100
120.488	0.965	965.4	study	Phase1	study/STIM_009.jpg	99
125.387	1.198	1198.1	study	Phase1	study/STIM_009.jpg	100
129.369	1.094	1094.5	study	Phase1	study/STIM_010.jpg	100
133.444	1.126	1126.1	study	Phase1	study/STIM_010.jpg	100
136.839	1.144	1143.9	study	Phase1	study/STIM_010.jpg	100
141.933	1.561	1561.4	study	Phase1	study/STIM_011.jpg	100
146.803	1.367	1367.2	study	Phase1	study/STIM_011.jpg	99
151.618	0.762	762.2	study	Phase1	study/STIM_011.jpg	99
155.386	1.714	1713.7	study	Phase1	study/STIM_012.jpg	100
160.97	0.761	761.0	study	Phase1	study/STIM_012.jpg	99
165.315	1.095	1095.4	study	Phase1	study/STIM_012.jpg	100
169.995	0.866	865.5	study	Phase1	study/STIM_013.jpg	100
174.246	1.313	1312.6	study	Phase1	study/STIM_013.jpg	100
178.192	1.113	1112.7	study	Phase1	study/STIM_013.jpg	100
182.776	1.262	1262.5	study	Phase1	study/STIM_014.jpg	100
186.727	1.42	1419.7	study	Phase1	study/STIM_014.jpg	100
191.496	0.808	808.0	study	Phase1	study/STIM_014.jpg	100
194.814	1.22	1220.3	study	Phase1	study/STIM_015.jpg	100
199.5	0.87	870.0	study	Phase1	study/STIM_015.jpg	99
203.465	1.22	1220.0	study	Phase1	study/STIM_015.jpg	99
206.76	0.895	894.9	study	Phase1	study/STIM_016.jpg	100
210.057	0.725	725.2	study	Phase1	study/STIM_016.jpg	100
213.17	0.827	826.8	study	Phase1	study/STIM_016.jpg	99
217.839	1.812	1812.3	study	Phase1	study/STIM_017.jpg	99
221.96	0.702	702.4	study	Phase1	study/STIM_017.jpg	99
224.975	1.392	1391.6	study	Phase1	study/STIM_017.jpg	100
228.542	1.11	1110.2	study	Phase1	study/STIM_018.jpg	99
233.195	1.603	1603.0	study	Phase1	study/STIM_018.jpg	99
237.607	1.366	1365.6	study	Phase1	study/STIM_018.jpg	99
242.213	1.141	1141.2	study	Phase1	study/STIM_019.jpg	99
246.876	1.063	1063.3	study	Phase1	study/STIM_019.jpg	100
250.081	1.406	1405.9	study	Phase1	study/STIM_019.jpg	100
254.501	1.147	1147.2	study	Phase1	study/STIM_020.jpg	99
258.493	0.872	871.9	study	Phase1	study/STIM_020.jpg	100
261.791	0.789	788.8	study	Phase1	study/STIM_020.jpg	99
265.447	1.094	1094.5	study	Phase1	study/STIM_021.jpg	99
269.06	1.47	1469.7	study	Phase1	study/STIM_021.jpg	99
273.504	1.489	1489.3	study	Phase1	study/STIM_021.jpg	99
278.929	1.351	1351.3	study	Phase1	study/STIM_022.jpg	99
283.38	1.157	1157.1	study	Phase1	study/STIM_022.jpg	100
286.788	1.218	1218.1	study	Phase1	study/STIM_022.jpg	100
291.992	1.592	1592.5	study	Phase1	study/STIM_023.jpg	99
296.223	1.17	1169.6	study	Phase1	study/STIM_023.jpg	100
300.537	0.731	731.0	study	Phase1	study/STIM_023.jpg	100
304.452	1.051	1050.7	study	Phase1	study/STIM_024.jpg	99
308.83	0.879	879.0	study	Phase1	study/STIM_024.jpg	100
312.815	0.705	705.0	study	Phase1	study/STIM_024.jpg	99
317.517	1.638	1638.1	study	Phase1	study/STIM_025.jpg	99
322.929	1.236	1236.1	study	Phase1	study/STIM_025.jpg	100
327.792	1.04	1039.5	study	Phase1	study/STIM_025.jpg	99
331.649	1.297	1297.0	study	Phase1	study/STIM_026.jpg	99
336.341	0.972	972.1	study	Phase1	study/STIM_026.jpg	99
339.602	1.59	1589.5	study	Phase1	study/STIM_026.jpg	100
343.378	1.356	1356.5	study	Phase1	study/STIM_027.jpg	100
346.833	0.711	710.6	study	Phase1	study/STIM_027.jpg	100
350.383	0.898	898.3	study	Phase1	study/STIM_027.jpg	100
353.341	0.801	801.4	study	Phase1	study/STIM_028.jpg	100
357.759	0.981	981.3	study	Phase1	study/STIM_028.jpg	99
361.202	1.254	1254.5	study	Phase1	study/STIM_028.jpg	99
365.214	1.226	1226.0	study	Phase1	study/STIM_029.jpg	99
370.131	1.038	1037.7	study	Phase1	study/STIM_029.jpg	99
374.903	0.849	849.2	study	Phase1	study/STIM_029.jpg	100
379.275	0.812	812.2	test	Phase1	test/STIM_000.jpg	99
382.542	0.763	763.0	test	Phase1	test/STIM_000.jpg	100
385.337	0.633	632.9	test	Phase1	test/STIM_000.jpg	100
388.425	1.109	1108.6	test	Phase1	test/STIM_001.jpg	99
392.497	1.098	1098.3	test	Phase1	test/STIM_001.jpg	100
397.122	1.157	1157.1	test	Phase1	test/STIM_001.jpg	99
400.925	0.737	737.1	test	Phase1	test/STIM_002.jpg	100
405.213	0.884	884.4	test	Phase1	test/STIM_002.jpg	99
408.966	0.883	882.7	test	Phase1	test/STIM_002.jpg	100
412.151	0.548	547.6	test	Phase1	test/STIM_003.jpg	100
415.448	0.987	987.4	test	Phase1	test/STIM_003.jpg	100
419.155	0.657	657.4	test	Phase1	test/STIM_003.jpg	100
422.734	1.214	1214.3	test	Phase1	test/STIM_004.jpg	99
426.094	1.087	1087.0	test	Phase1	test/STIM_004.jpg	99
431.056	1.232	1231.6	test	Phase1	test/STIM_004.jpg	99
434.781	0.685	685.0	test	Phase1	test/STIM_005.jpg	99
438.451	0.876	875.5	test	Phase1	test/STIM_005.jpg	99
442.414	1.207	1206.8	test	Phase1	test/STIM_005.jpg	99
446.881	1.181	1180.7	test	Phase1	test/STIM_006.jpg	99
451.823	0.674	673.8	test	Phase1	test/STIM_006.jpg	99
455.194	0.796	795.9	test	Phase1	test/STIM_006.jpg	99
458.52	0.789	788.8	test	Phase1	test/STIM_007.jpg	99
461.491	1.269	1269.2	test	Phase1	test/STIM_007.jpg	99
466.701	1.173	1173.3	test	Phase1	test/STIM_007.jpg	100
471.109	1.231	1230.8	test	Phase1	test/STIM_008.jpg	100
474.761	1.237	1237.3	test	Phase1	test/STIM_008.jpg	100
478.231	1.201	1201.0	test	Phase1	test/STIM_008.jpg	99
482.109	0.978	978.5	test	Phase1	test/STIM_009.jpg	99
486.547	0.823	823.4	test	Phase1	test/STIM_009.jpg	100
491.3	1.147	1146.9	test	Phase1	test/STIM_009.jpg	100
495.638	1.13	1129.8	test	Phase1	test/STIM_010.jpg	99
500.146	0.932	932.3	test	Phase1	test/STIM_010.jpg	99
505.094	0.562	562.2	test	Phase1	test/STIM_010.jpg	100
509.566	1.197	1197.1	test	Phase1	test/STIM_011.jpg	99
514.0	0.984	983.8	test	Phase1	test/STIM_011.jpg	100
518.06	1.034	1033.7	test	Phase1	test/STIM_011.jpg	100
522.768	0.903	903.3	test	Phase1	test/STIM_012.jpg	100
526.468	0.864	864.5	test	Phase1	test/STIM_012.jpg	99
530.642	1.006	1005.8	test	Phase1	test/STIM_012.jpg	100
534.485	1.156	1156.4	test	Phase1	test/STIM_013.jpg	99
538.178	1.159	1158.6	test	Phase1	test/STIM_013.jpg	100
542.67	1.014	1014.3	test	Phase1	test/STIM_013.jpg	100
546.067	1.023	1023.2	test	Phase1	test/STIM_014.jpg	99
549.84	0.95	950.2	test	Phase1	test/STIM_014.jpg	100
554.244	0.916	916.2	test	Phase1	test/STIM_014.jpg	99
558.727	1.081	1081.2	test	Phase1	test/STIM_015.jpg	99
562.427	1.177	1177.3	test	Phase1	test/STIM_015.jpg	99
566.243	1.005	1004.9	test	Phase1	test/STIM_015.jpg	100
569.623	1.144	1144.4	test	Phase1	test/STIM_016.jpg	99
573.285	0.83	830.1	test	Phase1	test/STIM_016.jpg	100
576.355	0.699	699.3	test	Phase1	test/STIM_016.jpg	100
580.37	0.623	623.4	test	Phase1	test/STIM_017.jpg	99
583.364	0.862	862.1	test	Phase1	test/STIM_017.jpg	100
586.786	1.031	1031.2	test	Phase1	test/STIM_017.jpg	99
591.294	1.014	1013.6	test	Phase1	test/STIM_018.jpg	99
594.485	0.739	739.0	test	Phase1	test/STIM_018.jpg	99
597.94	0.775	774.8	test	Phase1	test/STIM_018.jpg	100
601.105	0.905	904.7	test	Phase1	test/STIM_019.jpg	100
605.987	0.691	690.7	test	Phase1	test/STIM_019.jpg	100
609.749	0.656	656.4	test	Phase1	test/STIM_019.jpg	99
614.032	0.926	926.5	test	Phase1	test/STIM_020.jpg	99
618.416	0.729	728.7	test	Phase1	test/STIM_020.jpg	99
622.859	0.776	775.6	test	Phase1	test/STIM_020.jpg	99
627.48	1.035	1035.2	test	Phase1	test/STIM_021.jpg	99
630.791	1.268	1268.4	test	Phase1	test/STIM_021.jpg	100
635.367	1.236	1235.6	test	Phase1	test/STIM_021.jpg	100
639.459	1.021	1020.7	test	Phase1	test/STIM_022.jpg	99
643.705	1.197	1197.4	test	Phase1	test/STIM_022.jpg	100
648.509	1.22	1219.7	test	Phase1	test/STIM_022.jpg	100
652.867	1.209	1208.8	test	Phase1	test/STIM_023.jpg	99
657.705	0.746	746.1	test	Phase1	test/STIM_023.jpg	100
661.062	0.68	679.9	test	Phase1	test/STIM_023.jpg	99
664.317	0.878	877.7	test	Phase1	test/STIM_024.jpg	100
667.395	1.128	1128.2	test	Phase1	test/STIM_024.jpg	100
671.914	0.938	938.5	test	Phase1	test/STIM_024.jpg	100
676.268	1.058	1058.0	test	Phase1	test/STIM_025.jpg	100
681.287	0.585	584.6	test	Phase1	test/STIM_025.jpg	99
685.029	0.766	766.2	test	Phase1	test/STIM_025.jpg	100
689.677	1.076	1076.1	test	Phase1	test/STIM_026.jpg	100
694.241	0.695	695.3	test	Phase1	test/STIM_026.jpg	99
697.732	0.78	780.0	test	Phase1	test/STIM_026.jpg	99
702.165	0.754	753.7	test	Phase1	test/STIM_027.jpg	100
706.231	1.284	1283.9	test	Phase1	test/STIM_027.jpg	100
711.112	1.138	1137.9	test	Phase1	test/STIM_027.jpg	100
715.279	0.792	791.8	test	Phase1	test/STIM_028.jpg	100
718.611	1.162	1161.6	test	Phase1	test/STIM_028.jpg	100
722.327	1.148	1148.5	test	Phase1	test/STIM_028.jpg	100
725.764	0.88	879.5	test	Phase1	test/STIM_029.jpg	100
729.418	0.905	904.6	test	Phase1	test/STIM_029.jpg	99
732.759	0.893	893.3	test	Phase1	test/STIM_029.jpg	100
736.357	1.213	1212.8	study	Phase2	study/STIM_000.jpg	99
740.758	1.031	1031.2	study	Phase2	study/STIM_000.jpg	100
744.88	1.092	1091.7	study	Phase2	study/STIM_000.jpg	99
749.74	1.034	1034.0	study	Phase2	study/STIM_001.jpg	99
753.731	0.958	958.0	study	Phase2	study/STIM_001.jpg	100
758.145	1.071	1071.2	study	Phase2	study/STIM_001.jpg	99
761.927	1.231	1231.2	study	Phase2	study/STIM_002.jpg	99
767.154	1.06	1059.5	study	Phase2	study/STIM_002.jpg	100
771.853	1.162	1162.1	study	Phase2	study/STIM_002.jpg	100
776.383	1.527	1527.3	study	Phase2	study/STIM_003.jpg	100
781.435	0.962	962.3	study	Phase2	study/STIM_003.jpg	100
786.45	0.822	822.3	study	Phase2	study/STIM_003.jpg	100
789.634	1.155	1155.0	study	Phase2	study/STIM_004.jpg	100
794.588	0.9	900.4	study	Phase2	study/STIM_004.jpg	100
799.476	0.73	730.2	study	Phase2	study/STIM_004.jpg	99
803.965	0.916	915.5	study	Phase2	study/STIM_005.jpg	99
808.705	1.116	1116.1	study	Phase2	study/STIM_005.jpg	99
812.394	1.174	1174.3	study	Phase2	study/STIM_005.jpg	100
817.058	1.134	1134.4	study	Phase2	study/STIM_006.jpg	100
821.871	0.898	897.8	study	Phase2	study/STIM_006.jpg	100
825.831	0.719	719.1	study	Phase2	study/STIM_006.jpg	99
830.019	0.988	988.3	study	Phase2	study/STIM_007.jpg	99
834.229	1.243	1242.8	study	Phase2	study/STIM_007.jpg	99
838.393	1.142	1141.8	study	Phase2	study/STIM_007.jpg	99
841.599	1.164	1164.5	study	Phase2	study/STIM_008.jpg	100
845.872	0.748	748.0	study	Phase2	study/STIM_008.jpg	99
849.426	0.738	737.9	study	Phase2	study/STIM_008.jpg	100
852.816	0.719	719.0	study	Phase2	study/STIM_009.jpg	99
856.027	1.272	1272.5	study	Phase2	study/STIM_009.jpg	100
860.722	0.712	712.4	study	Phase2	study/STIM_009.jpg	100
864.129	1.44	1440.3	study	Phase2	study/STIM_010.jpg	100
867.786	0.907	906.6	study	Phase2	study/STIM_010.jpg	99
871.118	0.86	860.1	study	Phase2	study/STIM_010.jpg	99
874.244	1.28	1279.9	study	Phase2	study/STIM_011.jpg	99
878.779	1.209	1208.9	study	Phase2	study/STIM_011.jpg	99
883.688	1.177	1176.9	study	Phase2	study/STIM_011.jpg	100
887.925	0.664	663.6	study	Phase2	study/STIM_012.jpg	99
891.846	1.068	1068.2	study	Phase2	study/STIM_012.jpg	99
896.282	1.316	1316.4	study	Phase2	study/STIM_012.jpg	100
901.227	0.898	897.7	study	Phase2	study/STIM_013.jpg	99
904.581	1.04	1039.5	study	Phase2	study/STIM_013.jpg	100
907.709	0.765	765.2	study	Phase2	study/STIM_013.jpg	99
911.497	1.42	1419.9	study	Phase2	study/STIM_014.jpg	100
916.041	0.691	690.9	study	Phase2	study/STIM_014.jpg	99
919.496	0.975	975.3	study	Phase2	study/STIM_014.jpg	99
923.377	0.571	571.2	study	Phase2	study/STIM_015.jpg	100
926.127	1.341	1340.7	study	Phase2	study/STIM_015.jpg	100
929.601	0.779	779.2	study	Phase2	study/STIM_015.jpg	99
933.14	0.742	742.1	study	Phase2	study/STIM_016.jpg	100
937.273	0.968	967.7	study	Phase2	study/STIM_016.jpg	100
940.779	1.05	1049.8	study	Phase2	study/STIM_016.jpg	99
943.99	1.298	1297.6	study	Phase2	study/STIM_017.jpg	100
949.289	0.977	977.2	study	Phase2	study/STIM_017.jpg	100
953.046	1.049	1048.7	study	Phase2	study/STIM_017.jpg	100
956.829	1.328	1327.6	study	Phase2	study/STIM_018.jpg	99
960.252	1.027	1027.1	study	Phase2	study/STIM_018.jpg	100
964.691	0.594	594.4	study	Phase2	study/STIM_018.jpg	99
969.072	0.741	740.7	study	Phase2	study/STIM_019.jpg	100
972.22	0.9	900.5	study	Phase2	study/STIM_019.jpg	99
975.895	1.036	1036.2	study	Phase2	study/STIM_019.jpg	100
979.554	0.862	862.3	study	Phase2	study/STIM_020.jpg	99
983.274	0.818	817.5	study	Phase2	study/STIM_020.jpg	100
986.432	1.104	1103.6	study	Phase2	study/STIM_020.jpg	100
991.345	1.059	1058.9	study	Phase2	study/STIM_021.jpg	100
995.924	1.146	1146.1	study	Phase2	study/STIM_021.jpg	99
1000.353	1.211	1211.0	study	Phase2	study/STIM_021.jpg	99
1004.408	0.708	707.7	study	Phase2	study/STIM_022.jpg	99
1007.744	0.779	779.3	study	Phase2	study/STIM_022.jpg	100
1011.984	1.112	1111.5	study	Phase2	study/STIM_022.jpg	100
1016.151	0.835	834.6	study	Phase2	study/STIM_023.jpg	99
1020.526	0.853	853.3	study	Phase2	study/STIM_023.jpg	99
1023.735	0.845	845.2	study	Phase2	study/STIM_023.jpg	99
1028.08	1.362	1361.6	study	Phase2	study/STIM_024.jpg	99
1031.968	1.022	1021.9	study	Phase2	study/STIM_024.jpg	100
1036.975	0.741	740.6	study	Phase2	study/STIM_024.jpg	100
1040.164	0.651	651.2	study	Phase2	study/STIM_025.jpg	99
1043.836	0.714	714.2	study	Phase2	study/STIM_025.jpg	100
1046.565	0.783	783.3	study	Phase2	study/STIM_025.jpg	99
1050.725	1.556	1555.8	study	Phase2	study/STIM_026.jpg	100
1054.476	1.434	1434.2	study	Phase2	study/STIM_026.jpg	100
1058.646	0.794	794.4	study	Phase2	study/STIM_026.jpg	99
1063.344	1.073	1073.2	study	Phase2	study/STIM_027.jpg	99
1068.054	1.308	1308.3	study	Phase2	study/STIM_027.jpg	99
1073.446	0.684	683.9	study	Phase2	study/STIM_027.jpg	99
1078.003	1.15	1149.6	study	Phase2	study/STIM_028.jpg	100
1082.498	0.83	829.9	study	Phase2	study/STIM_028.jpg	99
1085.553	1.186	1185.5	study	Phase2	study/STIM_028.jpg	100
1090.202	0.924	924.3	study	Phase2	study/STIM_029.jpg	99
1093.864	0.634	633.7	study	Phase2	study/STIM_029.jpg	100
1098.229	1.216	1215.6	study	Phase2	study/STIM_029.jpg	100
1102.485	1.199	1199.0	test	Phase2	test/STIM_000.jpg	100
1106.062	0.996	995.8	test	Phase2	test/STIM_000.jpg	100
1110.585	0.814	813.9	test	Phase2	test/STIM_000.jpg	100
1114.651	1.153	1152.7	test	Phase2	test/STIM_001.jpg	99
1119.557	0.634	634.1	test	Phase2	test/STIM_001.jpg	100
1123.646	0.624	623.5	test	Phase2	test/STIM_001.jpg	100
1128.177	0.89	889.8	test	Phase2	test/STIM_002.jpg	99
1131.249	0.722	722.3	test	Phase2	test/STIM_002.jpg	100
1135.461	1.136	1136.4	test	Phase2	test/STIM_002.jpg	100
1139.325	1.0	999.5	test	Phase2	test/STIM_003.jpg	100
1142.432	1.155	1154.9	test	Phase2	test/STIM_003.jpg	99
1145.703	1.209	1208.6	test	Phase2	test/STIM_003.jpg	100
1150.866	1.214	1214.2	test	Phase2	test/STIM_004.jpg	100
1156.043	1.132	1132.1	test	Phase2	test/STIM_004.jpg	100
1161.061	0.889	889.0	test	Phase2	test/STIM_004.jpg	100
1165.14	0.924	924.3	test	Phase2	test/STIM_005.jpg	100
1169.653	0.849	849.3	test	Phase2	test/STIM_005.jpg	99
1172.742	1.242	1242.0	test	Phase2	test/STIM_005.jpg	100
1177.801	0.83	830.2	test	Phase2	test/STIM_006.jpg	100
1181.891	1.142	1142.0	test	Phase2	test/STIM_006.jpg	99
1186.908	1.238	1237.6	test	Phase2	test/STIM_006.jpg	100
1190.955	1.021	1021.2	test	Phase2	test/STIM_007.jpg	99
1194.951	1.155	1154.6	test	Phase2	test/STIM_007.jpg	100
1199.65	0.999	998.7	test	Phase2	test/STIM_007.jpg	99
1203.75	1.154	1153.5	test	Phase2	test/STIM_008.jpg	99
1208.341	1.059	1058.8	test	Phase2	test/STIM_008.jpg	100
1211.586	0.674	674.3	test	Phase2	test/STIM_008.jpg	100
1215.889	0.85	849.7	test	Phase2	test/STIM_009.jpg	99
1219.858	1.099	1098.7	test	Phase2	test/STIM_009.jpg	100
1223.681	0.746	745.7	test	Phase2	test/STIM_009.jpg	99
1226.691	1.124	1124.5	test	Phase2	test/STIM_010.jpg	100
1229.955	1.155	1154.6	test	Phase2	test/STIM_010.jpg	99
1234.198	0.66	660.0	test	Phase2	test/STIM_010.jpg	100
1237.314	1.158	1158.2	test	Phase2	test/STIM_011.jpg	100
1241.828	1.083	1083.1	test	Phase2	test/STIM_011.jpg	100
1245.883	0.597	596.8	test	Phase2	test/STIM_011.jpg	99
1249.201	1.147	1147.0	test	Phase2	test/STIM_012.jpg	99
1253.226	1.167	1167.2	test	Phase2	test/STIM_012.jpg	99
1257.441	1.201	1201.1	test	Phase2	test/STIM_012.jpg	100
1261.247	0.824	824.5	test	Phase2	test/STIM_013.jpg	99
1264.46	0.744	743.7	test	Phase2	test/STIM_013.jpg	100
1268.99	1.123	1123.4	test	Phase2	test/STIM_013.jpg	100
1273.044	1.076	1076.3	test	Phase2	test/STIM_014.jpg	100
1277.868	0.959	958.8	test	Phase2	test/STIM_014.jpg	99
1281.619	1.249	1249.0	test	Phase2	test/STIM_014.jpg	99
1285.136	0.682	681.5	test	Phase2	test/STIM_015.jpg	100
1288.321	1.035	1034.9	test	Phase2	test/STIM_015.jpg	100
1292.704	0.657	657.1	test	Phase2	test/STIM_015.jpg	100
1297.248	0.78	780.4	test	Phase2	test/STIM_016.jpg	99
1301.322	0.902	902.5	test	Phase2	test/STIM_016.jpg	99
1305.621	1.181	1181.4	test	Phase2	test/STIM_016.jpg	99
1308.854	1.072	1072.5	test	Phase2	test/STIM_017.jpg	100
1312.978	0.926	925.5	test	Phase2	test/STIM_017.jpg	100
1316.647	0.679	678.6	test	Phase2	test/STIM_017.jpg	99
1320.24	1.063	1063.3	test	Phase2	test/STIM_018.jpg	99
1323.761	0.998	997.9	test	Phase2	test/STIM_018.jpg	100
1328.365	0.781	780.8	test	Phase2	test/STIM_018.jpg	100
1332.724	0.875	875.4	test	Phase2	test/STIM_019.jpg	99
1337.082	0.699	698.6	test	Phase2	test/STIM_019.jpg	99
1341.744	0.792	791.5	test	Phase2	test/STIM_019.jpg	100
1345.418	0.626	626.1	test	Phase2	test/STIM_020.jpg	99
1348.322	0.625	625.4	test	Phase2	test/STIM_020.jpg	99
1351.042	1.012	1011.8	test	Phase2	test/STIM_020.jpg	100
1354.936	0.608	607.8	test	Phase2	test/STIM_021.jpg	100
1359.481	0.889	888.6	test	Phase2	test/STIM_021.jpg	99
1362.719	1.234	1234.5	test	Phase2	test/STIM_021.jpg	100
1367.019	0.963	963.3	test	Phase2	test/STIM_022.jpg	99
1370.428	1.167	1166.8	test	Phase2	test/STIM_022.jpg	100
1374.083	0.673	672.9	test	Phase2	test/STIM_022.jpg	99
1377.549	0.721	721.0	test	Phase2	test/STIM_023.jpg	100
1382.253	1.28	1279.6	test	Phase2	test/STIM_023.jpg	100
1386.19	0.725	724.8	test	Phase2	test/STIM_023.jpg	100
1389.191	0.965	964.8	test	Phase2	test/STIM_024.jpg	99
1393.716	1.019	1019.0	test	Phase2	test/STIM_024.jpg	99
1396.954	1.135	1134.7	test	Phase2	test/STIM_024.jpg	100
1400.639	0.659	659.0	test	Phase2	test/STIM_025.jpg	100
1404.444	0.678	678.1	test	Phase2	test/STIM_025.jpg	100
1408.112	0.937	937.2	test	Phase2	test/STIM_025.jpg	100
1411.398	0.987	986.8	test	Phase2	test/STIM_026.jpg	99
1415.785	0.982	982.0	test	Phase2	test/STIM_026.jpg	99
1419.783	0.702	701.7	test	Phase2	test/STIM_026.jpg	100
1422.561	0.843	842.6	test	Phase2	test/STIM_027.jpg	100
1426.105	0.941	941.2	test	Phase2	test/STIM_027.jpg	99
1429.388	1.008	1007.7	test	Phase2	test/STIM_027.jpg	99
1434.161	1.069	1068.6	test	Phase2	test/STIM_028.jpg	99
1439.292	0.972	972.4	test	Phase2	test/STIM_028.jpg	99
1443.458	0.68	680.4	test	Phase2	test/STIM_028.jpg	100
1446.75	0.98	980.4	test	Phase2	test/STIM_029.jpg	99
1450.934	1.04	1039.5	test	Phase2	test/STIM_029.jpg	99
1455.519	1.232	1232.5	test	Phase2	test/STIM_029.jpg	99
1459.021	0.992	992.1	study	Phase3	study/STIM_000.jpg	99
1462.853	0.739	739.3	study	Phase3	study/STIM_000.jpg	100
1467.094	1.064	1063.7	study	Phase3	study/STIM_000.jpg	99
1470.615	1.205	1204.7	study	Phase3	study/STIM_001.jpg	99
1475.23	0.984	983.9	study	Phase3	study/STIM_001.jpg	99
1479.026	1.197	1196.8	study	Phase3	study/STIM_001.jpg	100
1482.598	0.536	536.5	study	Phase3	study/STIM_002.jpg	100
1486.958	0.661	661.2	study	Phase3	study/STIM_002.jpg	100
1490.136	1.15	1150.2	study	Phase3	study/STIM_002.jpg	100
1493.517	0.609	608.7	study	Phase3	study/STIM_003.jpg	99
1496.366	1.15	1150.5	study	Phase3	study/STIM_003.jpg	100
1500.346	0.829	829.0	study	Phase3	study/STIM_003.jpg	100
1503.888	1.108	1108.2	study	Phase3	study/STIM_004.jpg	100
1508.997	0.938	937.6	study	Phase3	study/STIM_004.jpg	100
1513.41	0.744	744.2	study	Phase3	study/STIM_004.jpg	99
1516.56	0.693	692.6	study	Phase3	study/STIM_005.jpg	100
1520.686	0.913	912.6	study	Phase3	study/STIM_005.jpg	100
1523.972	0.861	860.8	study	Phase3	study/STIM_005.jpg	99
1527.245	0.992	992.0	study	Phase3	study/STIM_006.jpg	99
1530.447	0.824	823.8	study	Phase3	study/STIM_006.jpg	99
1534.855	0.787	787.3	study	Phase3	study/STIM_006.jpg	99
1539.385	0.716	716.4	study	Phase3	study/STIM_007.jpg	99
1543.216	1.245	1245.0	study	Phase3	study/STIM_007.jpg	99
1546.746	0.788	788.0	study	Phase3	study/STIM_007.jpg	100
1549.922	0.791	790.9	study	Phase3	study/STIM_008.jpg	100
1552.954	1.162	1162.2	study	Phase3	study/STIM_008.jpg	100
1557.142	0.775	775.2	study	Phase3	study/STIM_008.jpg	99
1560.923	0.82	820.2	study	Phase3	study/STIM_009.jpg	99
1565.519	1.172	1172.3	study	Phase3	study/STIM_009.jpg	100
1569.327	0.914	913.6	study	Phase3	study/STIM_009.jpg	100
1572.238	0.774	773.8	study	Phase3	study/STIM_010.jpg	99
1575.127	0.59	589.7	study	Phase3	study/STIM_010.jpg	100
1577.995	0.71	709.5	study	Phase3	study/STIM_010.jpg	100
1581.791	0.61	610.2	study	Phase3	study/STIM_011.jpg	100
1584.899	1.144	1144.0	study	Phase3	study/STIM_011.jpg	99
1588.124	1.165	1164.8	study	Phase3	study/STIM_011.jpg	100
1593.122	1.06	1059.5	study	Phase3	study/STIM_012.jpg	99
1597.886	0.63	629.6	study	Phase3	study/STIM_012.jpg	100
1600.99	0.771	771.0	study	Phase3	study/STIM_012.jpg	99
1605.17	0.802	801.5	study	Phase3	study/STIM_013.jpg	100
1608.118	1.066	1066.3	study	Phase3	study/STIM_013.jpg	100
1612.864	0.629	629.4	study	Phase3	study/STIM_013.jpg	100
1616.731	0.877	876.9	study	Phase3	study/STIM_014.jpg	100
1621.522	0.664	663.9	study	Phase3	study/STIM_014.jpg	99
1626.072	1.056	1055.7	study	Phase3	study/STIM_014.jpg	100
1629.808	0.929	928.9	study	Phase3	study/STIM_015.jpg	99
1634.008	1.044	1044.5	study	Phase3	study/STIM_015.jpg	99
1639.048	0.814	814.0	study	Phase3	study/STIM_015.jpg	100
1642.279	1.176	1175.8	study	Phase3	study/STIM_016.jpg	99
1645.755	0.594	594.0	study	Phase3	study/STIM_016.jpg	99
1648.877	1.15	1150.1	study	Phase3	study/STIM_016.jpg	99
1652.628	0.957	957.4	study	Phase3	study/STIM_017.jpg	99
1657.591	1.081	1080.9	study	Phase3	study/STIM_017.jpg	99
1662.633	1.072	1072.2	study	Phase3	study/STIM_017.jpg	99
1666.24	1.296	1296.2	study	Phase3	study/STIM_018.jpg	100
1669.927	0.756	756.1	study	Phase3	study/STIM_018.jpg	99
1673.598	0.805	804.7	study	Phase3	study/STIM_018.jpg	100
1676.626	1.006	1005.9	study	Phase3	study/STIM_019.jpg	99
1680.231	0.604	603.8	study	Phase3	study/STIM_019.jpg	100
1684.19	1.228	1228.4	study	Phase3	study/STIM_019.jpg	99
1689.238	0.794	793.5	study	Phase3	study/STIM_020.jpg	99
1693.844	1.206	1206.2	study	Phase3	study/STIM_020.jpg	100
1697.598	0.795	794.6	study	Phase3	study/STIM_020.jpg	100
1701.847	0.878	878.2	study	Phase3	study/STIM_021.jpg	99
1706.115	0.667	666.6	study	Phase3	study/STIM_021.jpg	100
1710.746	1.017	1017.3	study	Phase3	study/STIM_021.jpg	99
1714.0	0.646	646.4	study	Phase3	study/STIM_022.jpg	99
1718.556	0.726	725.6	study	Phase3	study/STIM_022.jpg	99
1721.556	1.008	1007.7	study	Phase3	study/STIM_022.jpg	100
1725.665	1.053	1052.6	study	Phase3	study/STIM_023.jpg	100
1729.716	1.192	1192.5	study	Phase3	study/STIM_023.jpg	99
1733.732	0.872	872.5	study	Phase3	study/STIM_023.jpg	100
1737.701	0.771	771.4	study	Phase3	study/STIM_024.jpg	99
1741.641	0.756	756.5	study	Phase3	study/STIM_024.jpg	100
1745.252	0.808	807.9	study	Phase3	study/STIM_024.jpg	99
1748.784	0.628	627.8	study	Phase3	study/STIM_025.jpg	100
1753.27	0.772	772.1	study	Phase3	study/STIM_025.jpg	100
1756.978	0.614	614.2	study	Phase3	study/STIM_025.jpg	100
1761.266	0.789	788.8	study	Phase3	study/STIM_026.jpg	100
1764.385	1.083	1083.2	study	Phase3	study/STIM_026.jpg	99
1767.723	1.137	1136.6	study	Phase3	study/STIM_026.jpg	100
1772.086	0.62	620.3	study	Phase3	study/STIM_027.jpg	99
1776.562	0.882	882.0	study	Phase3	study/STIM_027.jpg	99
1781.362	1.119	1118.7	study	Phase3	study/STIM_027.jpg	100
1786.232	0.6	599.9	study	Phase3	study/STIM_028.jpg	100
1789.188	1.074	1074.3	study	Phase3	study/STIM_028.jpg	99
1794.196	0.886	885.9	study	Phase3	study/STIM_028.jpg	100
1798.924	1.045	1045.3	study	Phase3	study/STIM_029.jpg	99
1802.246	1.1	1099.9	study	Phase3	study/STIM_029.jpg	100
1805.847	1.052	1051.7	study	Phase3	study/STIM_029.jpg	99
1809.335	0.729	728.9	test	Phase3	test/STIM_000.jpg	99
1812.138	1.29	1289.5	test	Phase3	test/STIM_000.jpg	99
1815.564	1.176	1176.0	test	Phase3	test/STIM_000.jpg	99
1819.217	1.108	1107.9	test	Phase3	test/STIM_001.jpg	99
1823.109	0.975	974.8	test	Phase3	test/STIM_001.jpg	100
1827.935	0.66	659.7	test	Phase3	test/STIM_001.jpg	100
1831.975	0.726	725.6	test	Phase3	test/STIM_002.jpg	100
1834.72	0.783	782.7	test	Phase3	test/STIM_002.jpg	100
1838.681	0.727	726.6	test	Phase3	test/STIM_002.jpg	100
1841.658	1.132	1132.3	test	Phase3	test/STIM_003.jpg	100
1845.673	1.09	1089.5	test	Phase3	test/STIM_003.jpg	100
1850.266	1.228	1227.7	test	Phase3	test/STIM_003.jpg	100
1853.534	0.872	871.8	test	Phase3	test/STIM_004.jpg	99
1857.798	1.045	1045.3	test	Phase3	test/STIM_004.jpg	100
1862.707	0.612	612.5	test	Phase3	test/STIM_004.jpg	99
1867.174	1.06	1060.4	test	Phase3	test/STIM_005.jpg	99
1872.066	0.83	830.3	test	Phase3	test/STIM_005.jpg	100
1875.243	1.198	1198.5	test	Phase3	test/STIM_005.jpg	100
1880.451	0.819	818.6	test	Phase3	test/STIM_006.jpg	100
1883.538	0.876	876.3	test	Phase3	test/STIM_006.jpg	100
1888.237	0.944	944.0	test	Phase3	test/STIM_006.jpg	99
1892.938	0.616	616.2	test	Phase3	test/STIM_007.jpg	99
1895.965	0.635	634.7	test	Phase3	test/STIM_007.jpg	100
1898.842	0.973	973.2	test	Phase3	test/STIM_007.jpg	100
1902.182	0.9	899.9	test	Phase3	test/STIM_008.jpg	100
1905.155	0.889	889.1	test	Phase3	test/STIM_008.jpg	100
1909.462	1.209	1209.4	test	Phase3	test/STIM_008.jpg	99
1913.903	0.949	948.8	test	Phase3	test/STIM_009.jpg	100
1917.094	1.012	1011.6	test	Phase3	test/STIM_009.jpg	100
1920.677	0.54	539.8	test	Phase3	test/STIM_009.jpg	100
1923.347	1.021	1020.7	test	Phase3	test/STIM_010.jpg	100
1928.197	1.141	1140.8	test	Phase3	test/STIM_010.jpg	99
1931.699	1.199	1198.9	test	Phase3	test/STIM_010.jpg	99
1936.851	0.798	798.2	test	Phase3	test/STIM_011.jpg	100
1940.916	1.177	1177.0	test	Phase3	test/STIM_011.jpg	99
1945.83	0.886	886.1	test	Phase3	test/STIM_011.jpg	100
1949.6	0.921	921.3	test	Phase3	test/STIM_012.jpg	100
1953.491	1.055	1055.4	test	Phase3	test/STIM_012.jpg	99
1956.741	1.137	1137.1	test	Phase3	test/STIM_012.jpg	99
1961.271	1.005	1005.4	test	Phase3	test/STIM_013.jpg	100
1964.336	0.782	782.4	test	Phase3	test/STIM_013.jpg	99
1967.725	0.747	747.4	test	Phase3	test/STIM_013.jpg	99
1971.591	0.604	604.0	test	Phase3	test/STIM_014.jpg	100
1974.338	1.171	1171.1	test	Phase3	test/STIM_014.jpg	100
1978.156	0.955	954.6	test	Phase3	test/STIM_014.jpg	100
1981.906	0.72	719.6	test	Phase3	test/STIM_015.jpg	99
1986.488	0.679	678.9	test	Phase3	test/STIM_015.jpg	100
1990.514	1.222	1222.3	test	Phase3	test/STIM_015.jpg	100
1994.251	1.318	1317.5	test	Phase3	test/STIM_016.jpg	99
1999.301	0.557	557.2	test	Phase3	test/STIM_016.jpg	99
2002.124	0.769	768.6	test	Phase3	test/STIM_016.jpg	99
2005.252	0.58	580.0	test	Phase3	test/STIM_017.jpg	100
2008.559	0.619	619.3	test	Phase3	test/STIM_017.jpg	99
2013.124	0.94	939.6	test	Phase3	test/STIM_017.jpg	99
2017.181	0.576	576.1	test	Phase3	test/STIM_018.jpg	99
2021.684	0.989	989.3	test	Phase3	test/STIM_018.jpg	100
2026.012	1.095	1095.1	test	Phase3	test/STIM_018.jpg	99
2030.035	0.63	630.4	test	Phase3	test/STIM_019.jpg	99
2033.958	1.124	1123.8	test	Phase3	test/STIM_019.jpg	99
2038.429	0.752	751.9	test	Phase3	test/STIM_019.jpg	100
2041.348	0.975	975.4	test	Phase3	test/STIM_020.jpg	100
2045.971	1.095	1095.3	test	Phase3	test/STIM_020.jpg	99
2049.452	0.808	807.8	test	Phase3	test/STIM_020.jpg	100
2052.962	0.874	874.3	test	Phase3	test/STIM_021.jpg	100
2056.478	0.93	930.3	test	Phase3	test/STIM_021.jpg	100
2061.083	1.114	1114.0	test	Phase3	test/STIM_021.jpg	100
2064.958	1.157	1156.6	test	Phase3	test/STIM_022.jpg	100
2069.344	0.696	695.6	test	Phase3	test/STIM_022.jpg	100
2073.153	1.239	1239.3	test	Phase3	test/STIM_022.jpg	100
2076.708	1.292	1292.2	test	Phase3	test/STIM_023.jpg	100
2080.505	0.742	741.8	test	Phase3	test/STIM_023.jpg	99
2083.483	0.896	895.7	test	Phase3	test/STIM_023.jpg	100
2086.644	1.147	1147.2	test	Phase3	test/STIM_024.jpg	99
2091.489	1.04	1040.0	test	Phase3	test/STIM_024.jpg	99
2094.829	1.012	1012.4	test	Phase3	test/STIM_024.jpg	100
2098.043	1.176	1176.0	test	Phase3	test/STIM_025.jpg	99
2102.695	0.942	942.1	test	Phase3	test/STIM_025.jpg	100
2107.055	0.735	735.3	test	Phase3	test/STIM_025.jpg	100
2110.67	1.085	1084.8	test	Phase3	test/STIM_026.jpg	100
2115.171	0.572	572.3	test	Phase3	test/STIM_026.jpg	100
2119.375	1.07	1069.8	test	Phase3	test/STIM_026.jpg	99
2124.126	1.101	1101.1	test	Phase3	test/STIM_027.jpg	100
2127.658	0.677	676.7	test	Phase3	test/STIM_027.jpg	100
2131.948	1.029	1029.4	test	Phase3	test/STIM_027.jpg	99
2135.457	0.778	777.5	test	Phase3	test/STIM_028.jpg	100
2138.578	0.583	583.1	test	Phase3	test/STIM_028.jpg	100
2142.363	1.227	1226.9	test	Phase3	test/STIM_028.jpg	100
2146.147	1.037	1036.7	test	Phase3	test/STIM_029.jpg	99
2151.215	0.936	935.8	test	Phase3	test/STIM_029.jpg	100
2155.242	1.228	1227.5	test	Phase3	test/STIM_029.jpg	99
