onset	duration	accuracy	trial_type	learning_stage	stimulus
0.0	1.552	incorrect	study	Phase1	study/STIM_000.jpg
5.154	1.612	incorrect	study	Phase1	study/STIM_000.jpg
10.005	1.404	correct	study	Phase1	study/STIM_000.jpg
14.564	1.61	correct	study	Phase1	study/STIM_001.jpg
19.219	0.762	correct	study	Phase1	study/STIM_001.jpg
22.31	0.996	correct	study	Phase1	study/STIM_001.jpg
25.51	1.587	correct	study	Phase1	study/STIM_002.jpg
30.962	1.104	correct	study	Phase1	study/STIM_002.jpg
34.417	1.367	correct	study	Phase1	study/STIM_002.jpg
39.617	1.515	correct	study	Phase1	study/STIM_003.jpg
44.639	1.002	correct	study	Phase1	study/STIM_003.jpg
49.0	1.453	correct	study	Phase1	study/STIM_003.jpg
52.591	1.23	incorrect	study	Phase1	study/STIM_004.jpg
56.485	1.032	correct	study	Phase1	study/STIM_004.jpg
61.112	1.363	correct	study	Phase1	study/STIM_004.jpg
65.478	1.561	correct	study	Phase1	study/STIM_005.jpg
71.04	1.585	correct	study	Phase1	study/STIM_005.jpg
75.849	1.22	correct	study	Phase1	study/STIM_005.jpg
79.167	0.949	correct	study	Phase1	study/STIM_006.jpg
83.344	1.047	correct	study	Phase1	study/STIM_006.jpg
86.473	1.21	correct	study	Phase1	study/STIM_006.jpg
90.355	0.88	correct	study	Phase1	study/STIM_007.jpg
93.545	1.501	correct	study	Phase1	study/STIM_007.jpg
97.556	1.422	correct	study	Phase1	study/STIM_007.jpg
102.287	1.377	correct	study	Phase1	study/STIM_008.jpg
106.924	1.339	correct	study	Phase1	study/STIM_008.jpg
111.761	1.094	correct	study	Phase1	study/STIM_008.jpg
115.625	1.632	correct	study	Phase1	study/STIM_009.jpg
120.488	0.965	incorrect	study	Phase1	study/STIM_009.jpg
125.387	1.198	correct	study	Phase1	study/STIM_009.jpg
129.369	1.094	correct	study	Phase1	study/STIM_010.jpg
133.444	1.126	correct	study	Phase1	study/STIM_010.jpg
136.839	1.144	correct	study	Phase1	study/STIM_010.jpg
141.933	1.561	correct	study	Phase1	study/STIM_011.jpg
146.803	1.367	correct	study	Phase1	study/STIM_011.jpg
151.618	0.762	correct	study	Phase1	study/STIM_011.jpg
155.386	1.714	correct	study	Phase1	study/STIM_012.jpg
160.97	0.761	correct	study	Phase1	study/STIM_012.jpg
165.315	1.095	correct	study	Phase1	study/STIM_012.jpg
169.995	0.866	correct	study	Phase1	study/STIM_013.jpg
174.246	1.313	correct	study	Phase1	study/STIM_013.jpg
178.192	1.113	correct	study	Phase1	study/STIM_013.jpg
182.776	1.262	correct	study	Phase1	study/STIM_014.jpg
186.727	1.42	correct	study	Phase1	study/STIM_014.jpg
191.496	0.808	correct	study	Phase1	study/STIM_014.jpg
194.814	1.22	incorrect	study	Phase1	study/STIM_015.jpg
199.5	0.87	correct	study	Phase1	study/STIM_015.jpg
203.465	1.22	correct	study	Phase1	study/STIM_015.jpg
206.76	0.895	correct	study	Phase1	study/STIM_016.jpg
210.057	0.725	incorrect	study	Phase1	study/STIM_016.jpg
213.17	0.827	correct	study	Phase1	study/STIM_016.jpg
217.839	1.812	correct	study	Phase1	study/STIM_017.jpg
221.96	0.702	correct	study	Phase1	study/STIM_017.jpg
224.975	1.392	correct	study	Phase1	study/STIM_017.jpg
228.542	1.11	correct	study	Phase1	study/STIM_018.jpg
233.195	1.603	correct	study	Phase1	study/STIM_018.jpg
237.607	1.366	correct	study	Phase1	study/STIM_018.jpg
242.213	1.141	correct	study	Phase1	study/STIM_019.jpg
246.876	1.063	correct	study	Phase1	study/STIM_019.jpg
250.081	1.406	incorrect	study	Phase1	study/STIM_019.jpg
254.501	1.147	correct	study	Phase1	study/STIM_020.jpg
258.493	0.872	correct	study	Phase1	study/STIM_020.jpg
261.791	0.789	correct	study	Phase1	study/STIM_020.jpg
265.447	1.094	correct	study	Phase1	study/STIM_021.jpg
269.06	1.47	correct	study	Phase1	study/STIM_021.jpg
273.504	1.489	correct	study	Phase1	study/STIM_021.jpg
278.929	1.351	correct	study	Phase1	study/STIM_022.jpg
283.38	1.157	correct	study	Phase1	study/STIM_022.jpg
286.788	1.218	correct	study	Phase1	study/STIM_022.jpg
291.992	1.592	correct	study	Phase1	study/STIM_023.jpg
296.223	1.17	correct	study	Phase1	study/STIM_023.jpg
300.537	0.731	correct	study	Phase1	study/STIM_023.jpg
304.452	1.051	correct	study	Phase1	study/STIM_024.jpg
308.83	0.879	correct	study	Phase1	study/STIM_024.jpg
312.815	0.705	correct	study	Phase1	study/STIM_024.jpg
317.517	1.638	correct	study	Phase1	study/STIM_025.jpg
322.929	1.236	correct	study	Phase1	study/STIM_025.jpg
327.792	1.04	correct	study	Phase1	study/STIM_025.jpg
331.649	1.297	correct	study	Phase1	study/STIM_026.jpg
336.341	0.972	correct	study	Phase1	study/STIM_026.jpg
339.602	1.59	incorrect	study	Phase1	study/STIM_026.jpg
343.378	1.356	correct	study	Phase1	study/STIM_027.jpg
346.833	0.711	correct	study	Phase1	study/STIM_027.jpg
350.383	0.898	correct	study	Phase1	study/STIM_027.jpg
353.341	0.801	correct	study	Phase1	study/STIM_028.jpg
357.759	0.981	correct	study	Phase1	study/STIM_028.jpg
361.202	1.254	correct	study	Phase1	study/STIM_028.jpg
365.214	1.226	incorrect	study	Phase1	study/STIM_029.jpg
370.131	1.038	correct	study	Phase1	study/STIM_029.jpg
374.903	0.849	correct	study	Phase1	study/STIM_029.jpg
379.275	0.812	incorrect	test	Phase1	test/STIM_000.jpg
382.542	0.763	correct	test	Phase1	test/STIM_000.jpg
385.337	0.633	correct	test	Phase1	test/STIM_000.jpg
388.425	1.109	correct	test	Phase1	test/STIM_001.jpg
392.497	1.098	correct	test	Phase1	test/STIM_001.jpg
397.122	1.157	correct	test	Phase1	test/STIM_001.jpg
400.925	0.737	correct	test	Phase1	test/STIM_002.jpg
405.213	0.884	correct	test	Phase1	test/STIM_002.jpg
408.966	0.883	correct	test	Phase1	test/STIM_002.jpg
412.151	0.548	correct	test	Phase1	test/STIM_003.jpg
415.448	0.987	correct	test	Phase1	test/STIM_003.jpg
419.155	0.657	correct	test	Phase1	test/STIM_003.jpg
422.734	1.214	correct	test	Phase1	test/STIM_004.jpg
426.094	1.087	correct	test	Phase1	test/STIM_004.jpg
431.056	1.232	correct	test	Phase1	test/STIM_004.jpg
434.781	0.685	correct	test	Phase1	test/STIM_005.jpg
438.451	0.876	correct	test	Phase1	test/STIM_005.jpg
442.414	1.207	correct	test	Phase1	test/STIM_005.jpg
446.881	1.181	correct	test	Phase1	test/STIM_006.jpg
451.823	0.674	correct	test	Phase1	test/STIM_006.jpg
455.194	0.796	correct	test	Phase1	test/STIM_006.jpg
458.52	0.789	correct	test	Phase1	test/STIM_007.jpg
461.491	1.269	correct	test	Phase1	test/STIM_007.jpg
466.701	1.173	correct	test	Phase1	test/STIM_007.jpg
471.109	1.231	incorrect	test	Phase1	test/STIM_008.jpg
474.761	1.237	correct	test	Phase1	test/STIM_008.jpg
478.231	1.201	correct	test	Phase1	test/STIM_008.jpg
482.109	0.978	incorrect	test	Phase1	test/STIM_009.jpg
486.547	0.823	correct	test	Phase1	test/STIM_009.jpg
491.3	1.147	correct	test	Phase1	test/STIM_009.jpg
495.638	1.13	correct	test	Phase1	test/STIM_010.jpg
500.146	0.932	correct	test	Phase1	test/STIM_010.jpg
505.094	0.562	correct	test	Phase1	test/STIM_010.jpg
509.566	1.197	correct	test	Phase1	test/STIM_011.jpg
514.0	0.984	incorrect	test	Phase1	test/STIM_011.jpg
518.06	1.034	correct	test	Phase1	test/STIM_011.jpg
522.768	0.903	correct	test	Phase1	test/STIM_012.jpg
526.468	0.864	correct	test	Phase1	test/STIM_012.jpg
530.642	1.006	correct	test	Phase1	test/STIM_012.jpg
534.485	1.156	correct	test	Phase1	test/STIM_013.jpg
538.178	1.159	correct	test	Phase1	test/STIM_013.jpg
542.67	1.014	correct	test	Phase1	test/STIM_013.jpg
546.067	1.023	correct	test	Phase1	test/STIM_014.jpg
549.84	0.95	incorrect	test	Phase1	test/STIM_014.jpg
554.244	0.916	incorrect	test	Phase1	test/STIM_014.jpg
558.727	1.081	correct	test	Phase1	test/STIM_015.jpg
562.427	1.177	correct	test	Phase1	test/STIM_015.jpg
566.243	1.005	correct	test	Phase1	test/STIM_015.jpg
569.623	1.144	correct	test	Phase1	test/STIM_016.jpg
573.285	0.83	correct	test	Phase1	test/STIM_016.jpg
576.355	0.699	incorrect	test	Phase1	test/STIM_016.jpg
580.37	0.623	correct	test	Phase1	test/STIM_017.jpg
583.364	0.862	correct	test	Phase1	test/STIM_017.jpg
586.786	1.031	correct	test	Phase1	test/STIM_017.jpg
591.294	1.014	correct	test	Phase1	test/STIM_018.jpg
594.485	0.739	incorrect	test	Phase1	test/STIM_018.jpg
597.94	0.775	correct	test	Phase1	test/STIM_018.jpg
601.105	0.905	correct	test	Phase1	test/STIM_019.jpg
605.987	0.691	correct	test	Phase1	test/STIM_019.jpg
609.749	0.656	correct	test	Phase1	test/STIM_019.jpg
614.032	0.926	correct	test	Phase1	test/STIM_020.jpg
618.416	0.729	correct	test	Phase1	test/STIM_020.jpg
622.859	0.776	correct	test	Phase1	test/STIM_020.jpg
627.48	1.035	correct	test	Phase1	test/STIM_021.jpg
630.791	1.268	correct	test	Phase1	test/STIM_021.jpg
635.367	1.236	correct	test	Phase1	test/STIM_021.jpg
639.459	1.021	correct	test	Phase1	test/STIM_022.jpg
643.705	1.197	correct	test	Phase1	test/STIM_022.jpg
648.509	1.22	correct	test	Phase1	test/STIM_022.jpg
652.867	1.209	correct	test	Phase1	test/STIM_023.jpg
657.705	0.746	correct	test	Phase1	test/STIM_023.jpg
661.062	0.68	correct	test	Phase1	test/STIM_023.jpg
664.317	0.878	correct	test	Phase1	test/STIM_024.jpg
667.395	1.128	correct	test	Phase1	test/STIM_024.jpg
671.914	0.938	correct	test	Phase1	test/STIM_024.jpg
676.268	1.058	correct	test	Phase1	test/STIM_025.jpg
681.287	0.585	correct	test	Phase1	test/STIM_025.jpg
685.029	0.766	incorrect	test	Phase1	test/STIM_025.jpg
689.677	1.076	incorrect	test	Phase1	test/STIM_026.jpg
694.241	0.695	correct	test	Phase1	test/STIM_026.jpg
697.732	0.78	incorrect	test	Phase1	test/STIM_026.jpg
702.165	0.754	correct	test	Phase1	test/STIM_027.jpg
706.231	1.284	correct	test	Phase1	test/STIM_027.jpg
711.112	1.138	correct	test	Phase1	test/STIM_027.jpg
715.279	0.792	correct	test	Phase1	test/STIM_028.jpg
718.611	1.162	correct	test	Phase1	test/STIM_028.jpg
722.327	1.148	correct	test	Phase1	test/STIM_028.jpg
725.764	0.88	correct	test	Phase1	test/STIM_029.jpg
729.418	0.905	correct	test	Phase1	test/STIM_029.jpg
732.759	0.893	correct	test	Phase1	test/STIM_029.jpg
736.357	1.213	correct	study	Phase2	study/STIM_000.jpg
740.758	1.031	correct	study	Phase2	study/STIM_000.jpg
744.88	1.092	correct	study	Phase2	study/STIM_000.jpg
749.74	1.034	correct	study	Phase2	study/STIM_001.jpg
753.731	0.958	correct	study	Phase2	study/STIM_001.jpg
758.145	1.071	correct	study	Phase2	study/STIM_001.jpg
761.927	1.231	incorrect	study	Phase2	study/STIM_002.jpg
767.154	1.06	correct	study	Phase2	study/STIM_002.jpg
771.853	1.162	correct	study	Phase2	study/STIM_002.jpg
776.383	1.527	correct	study	Phase2	study/STIM_003.jpg
781.435	0.962	correct	study	Phase2	study/STIM_003.jpg
786.45	0.822	correct	study	Phase2	study/STIM_003.jpg
789.634	1.155	incorrect	study	Phase2	study/STIM_004.jpg
794.588	0.9	correct	study	Phase2	study/STIM_004.jpg
799.476	0.73	correct	study	Phase2	study/STIM_004.jpg
803.965	0.916	incorrect	study	Phase2	study/STIM_005.jpg
808.705	1.116	correct	study	Phase2	study/STIM_005.jpg
812.394	1.174	correct	study	Phase2	study/STIM_005.jpg
817.058	1.134	correct	study	Phase2	study/STIM_006.jpg
821.871	0.898	correct	study	Phase2	study/STIM_006.jpg
825.831	0.719	correct	study	Phase2	study/STIM_006.jpg
830.019	0.988	correct	study	Phase2	study/STIM_007.jpg
834.229	1.243	incorrect	study	Phase2	study/STIM_007.jpg
838.393	1.142	correct	study	Phase2	study/STIM_007.jpg
841.599	1.164	correct	study	Phase2	study/STIM_008.jpg
845.872	0.748	correct	study	Phase2	study/STIM_008.jpg
849.426	0.738	correct	study	Phase2	study/STIM_008.jpg
852.816	0.719	correct	study	Phase2	study/STIM_009.jpg
856.027	1.272	incorrect	study	Phase2	study/STIM_009.jpg
860.722	0.712	correct	study	Phase2	study/STIM_009.jpg
864.129	1.44	correct	study	Phase2	study/STIM_010.jpg
867.786	0.907	correct	study	Phase2	study/STIM_010.jpg
871.118	0.86	correct	study	Phase2	study/STIM_010.jpg
874.244	1.28	correct	study	Phase2	study/STIM_011.jpg
878.779	1.209	correct	study	Phase2	study/STIM_011.jpg
883.688	1.177	correct	study	Phase2	study/STIM_011.jpg
887.925	0.664	correct	study	Phase2	study/STIM_012.jpg
891.846	1.068	correct	study	Phase2	study/STIM_012.jpg
896.282	1.316	correct	study	Phase2	study/STIM_012.jpg
901.227	0.898	correct	study	Phase2	study/STIM_013.jpg
904.581	1.04	correct	study	Phase2	study/STIM_013.jpg
907.709	0.765	incorrect	study	Phase2	study/STIM_013.jpg
911.497	1.42	incorrect	study	Phase2	study/STIM_014.jpg
916.041	0.691	correct	study	Phase2	study/STIM_014.jpg
919.496	0.975	correct	study	Phase2	study/STIM_014.jpg
923.377	0.571	correct	study	Phase2	study/STIM_015.jpg
926.127	1.341	correct	study	Phase2	study/STIM_015.jpg
929.601	0.779	correct	study	Phase2	study/STIM_015.jpg
933.14	0.742	correct	study	Phase2	study/STIM_016.jpg
937.273	0.968	correct	study	Phase2	study/STIM_016.jpg
940.779	1.05	correct	study	Phase2	study/STIM_016.jpg
943.99	1.298	correct	study	Phase2	study/STIM_017.jpg
949.289	0.977	incorrect	study	Phase2	study/STIM_017.jpg
953.046	1.049	correct	study	Phase2	study/STIM_017.jpg
956.829	1.328	correct	study	Phase2	study/STIM_018.jpg
960.252	1.027	correct	study	Phase2	study/STIM_018.jpg
964.691	0.594	correct	study	Phase2	study/STIM_018.jpg
969.072	0.741	correct	study	Phase2	study/STIM_019.jpg
972.22	0.9	correct	study	Phase2	study/STIM_019.jpg
975.895	1.036	correct	study	Phase2	study/STIM_019.jpg
979.554	0.862	correct	study	Phase2	study/STIM_020.jpg
983.274	0.818	correct	study	Phase2	study/STIM_020.jpg
986.432	1.104	correct	study	Phase2	study/STIM_020.jpg
991.345	1.059	correct	study	Phase2	study/STIM_021.jpg
995.924	1.146	correct	study	Phase2	study/STIM_021.jpg
1000.353	1.211	correct	study	Phase2	study/STIM_021.jpg
1004.408	0.708	correct	study	Phase2	study/STIM_022.jpg
1007.744	0.779	incorrect	study	Phase2	study/STIM_022.jpg
1011.984	1.112	correct	study	Phase2	study/STIM_022.jpg
1016.151	0.835	correct	study	Phase2	study/STIM_023.jpg
1020.526	0.853	correct	study	Phase2	study/STIM_023.jpg
1023.735	0.845	correct	study	Phase2	study/STIM_023.jpg
1028.08	1.362	correct	study	Phase2	study/STIM_024.jpg
1031.968	1.022	correct	study	Phase2	study/STIM_024.jpg
1036.975	0.741	incorrect	study	Phase2	study/STIM_024.jpg
1040.164	0.651	correct	study	Phase2	study/STIM_025.jpg
1043.836	0.714	correct	study	Phase2	study/STIM_025.jpg
1046.565	0.783	correct	study	Phase2	study/STIM_025.jpg
1050.725	1.556	correct	study	Phase2	study/STIM_026.jpg
1054.476	1.434	correct	study	Phase2	study/STIM_026.jpg
1058.646	0.794	correct	study	Phase2	study/STIM_026.jpg
1063.344	1.073	correct	study	Phase2	study/STIM_027.jpg
1068.054	1.308	correct	study	Phase2	study/STIM_027.jpg
1073.446	0.684	correct	study	Phase2	study/STIM_027.jpg
1078.003	1.15	correct	study	Phase2	study/STIM_028.jpg
1082.498	0.83	correct	study	Phase2	study/STIM_028.jpg
1085.553	1.186	correct	study	Phase2	study/STIM_028.jpg
1090.202	0.924	correct	study	Phase2	study/STIM_029.jpg
1093.864	0.634	correct	study	Phase2	study/STIM_029.jpg
1098.229	1.216	correct	study	Phase2	study/STIM_029.jpg
1102.485	1.199	correct	test	Phase2	test/STIM_000.jpg
1106.062	0.996	correct	test	Phase2	test/STIM_000.jpg
1110.585	0.814	correct	test	Phase2	test/STIM_000.jpg
1114.651	1.153	correct	test	Phase2	test/STIM_001.jpg
1119.557	0.634	correct	test	Phase2	test/STIM_001.jpg
1123.646	0.624	correct	test	Phase2	test/STIM_001.jpg
1128.177	0.89	incorrect	test	Phase2	test/STIM_002.jpg
1131.249	0.722	correct	test	Phase2	test/STIM_002.jpg
1135.461	1.136	correct	test	Phase2	test/STIM_002.jpg
1139.325	1.0	correct	test	Phase2	test/STIM_003.jpg
1142.432	1.155	correct	test	Phase2	test/STIM_003.jpg
1145.703	1.209	correct	test	Phase2	test/STIM_003.jpg
1150.866	1.214	correct	test	Phase2	test/STIM_004.jpg
1156.043	1.132	correct	test	Phase2	test/STIM_004.jpg
1161.061	0.889	correct	test	Phase2	test/STIM_004.jpg
1165.14	0.924	correct	test	Phase2	test/STIM_005.jpg
1169.653	0.849	correct	test	Phase2	test/STIM_005.jpg
1172.742	1.242	correct	test	Phase2	test/STIM_005.jpg
1177.801	0.83	correct	test	Phase2	test/STIM_006.jpg
1181.891	1.142	correct	test	Phase2	test/STIM_006.jpg
1186.908	1.238	incorrect	test	Phase2	test/STIM_006.jpg
1190.955	1.021	correct	test	Phase2	test/STIM_007.jpg
1194.951	1.155	correct	test	Phase2	test/STIM_007.jpg
1199.65	0.999	correct	test	Phase2	test/STIM_007.jpg
1203.75	1.154	correct	test	Phase2	test/STIM_008.jpg
1208.341	1.059	correct	test	Phase2	test/STIM_008.jpg
1211.586	0.674	incorrect	test	Phase2	test/STIM_008.jpg
1215.889	0.85	incorrect	test	Phase2	test/STIM_009.jpg
1219.858	1.099	incorrect	test	Phase2	test/STIM_009.jpg
1223.681	0.746	correct	test	Phase2	test/STIM_009.jpg
1226.691	1.124	correct	test	Phase2	test/STIM_010.jpg
1229.955	1.155	correct	test	Phase2	test/STIM_010.jpg
1234.198	0.66	correct	test	Phase2	test/STIM_010.jpg
1237.314	1.158	correct	test	Phase2	test/STIM_011.jpg
1241.828	1.083	correct	test	Phase2	test/STIM_011.jpg
1245.883	0.597	correct	test	Phase2	test/STIM_011.jpg
1249.201	1.147	correct	test	Phase2	test/STIM_012.jpg
1253.226	1.167	correct	test	Phase2	test/STIM_012.jpg
1257.441	1.201	correct	test	Phase2	test/STIM_012.jpg
1261.247	0.824	correct	test	Phase2	test/STIM_013.jpg
1264.46	0.744	correct	test	Phase2	test/STIM_013.jpg
1268.99	1.123	correct	test	Phase2	test/STIM_013.jpg
1273.044	1.076	correct	test	Phase2	test/STIM_014.jpg
1277.868	0.959	correct	test	Phase2	test/STIM_014.jpg
1281.619	1.249	correct	test	Phase2	test/STIM_014.jpg
1285.136	0.682	correct	test	Phase2	test/STIM_015.jpg
1288.321	1.035	correct	test	Phase2	test/STIM_015.jpg
1292.704	0.657	incorrect	test	Phase2	test/STIM_015.jpg
1297.248	0.78	correct	test	Phase2	test/STIM_016.jpg
1301.322	0.902	correct	test	Phase2	test/STIM_016.jpg
1305.621	1.181	correct	test	Phase2	test/STIM_016.jpg
1308.854	1.072	incorrect	test	Phase2	test/STIM_017.jpg
1312.978	0.926	correct	test	Phase2	test/STIM_017.jpg
1316.647	0.679	correct	test	Phase2	test/STIM_017.jpg
1320.24	1.063	correct	test	Phase2	test/STIM_018.jpg
1323.761	0.998	correct	test	Phase2	test/STIM_018.jpg
1328.365	0.781	correct	test	Phase2	test/STIM_018.jpg
1332.724	0.875	correct	test	Phase2	test/STIM_019.jpg
1337.082	0.699	correct	test	Phase2	test/STIM_019.jpg
1341.744	0.792	correct	test	Phase2	test/STIM_019.jpg
1345.418	0.626	correct	test	Phase2	test/STIM_020.jpg
1348.322	0.625	correct	test	Phase2	test/STIM_020.jpg
1351.042	1.012	correct	test	Phase2	test/STIM_020.jpg
1354.936	0.608	correct	test	Phase2	test/STIM_021.jpg
1359.481	0.889	correct	test	Phase2	test/STIM_021.jpg
1362.719	1.234	correct	test	Phase2	test/STIM_021.jpg
1367.019	0.963	correct	test	Phase2	test/STIM_022.jpg
1370.428	1.167	correct	test	Phase2	test/STIM_022.jpg
1374.083	0.673	correct	test	Phase2	test/STIM_022.jpg
1377.549	0.721	correct	test	Phase2	test/STIM_023.jpg
1382.253	1.28	incorrect	test	Phase2	test/STIM_023.jpg
1386.19	0.725	correct	test	Phase2	test/STIM_023.jpg
1389.191	0.965	correct	test	Phase2	test/STIM_024.jpg
1393.716	1.019	correct	test	Phase2	test/STIM_024.jpg
1396.954	1.135	incorrect	test	Phase2	test/STIM_024.jpg
1400.639	0.659	incorrect	test	Phase2	test/STIM_025.jpg
1404.444	0.678	correct	test	Phase2	test/STIM_025.jpg
1408.112	0.937	correct	test	Phase2	test/STIM_025.jpg
1411.398	0.987	correct	test	Phase2	test/STIM_026.jpg
1415.785	0.982	correct	test	Phase2	test/STIM_026.jpg
1419.783	0.702	correct	test	Phase2	test/STIM_026.jpg
1422.561	0.843	correct	test	Phase2	test/STIM_027.jpg
1426.105	0.941	correct	test	Phase2	test/STIM_027.jpg
1429.388	1.008	correct	test	Phase2	test/STIM_027.jpg
1434.161	1.069	correct	test	Phase2	test/STIM_028.jpg
1439.292	0.972	correct	test	Phase2	test/STIM_028.jpg
1443.458	0.68	correct	test	Phase2	test/STIM_028.jpg
1446.75	0.98	correct	test	Phase2	test/STIM_029.jpg
1450.934	1.04	correct	test	Phase2	test/STIM_029.jpg
1455.519	1.232	correct	test	Phase2	test/STIM_029.jpg
1459.021	0.992	correct	study	Phase3	study/STIM_000.jpg
1462.853	0.739	correct	study	Phase3	study/STIM_000.jpg
1467.094	1.064	correct	study	Phase3	study/STIM_000.jpg
1470.615	1.205	correct	study	Phase3	study/STIM_001.jpg
1475.23	0.984	correct	study	Phase3	study/STIM_001.jpg
1479.026	1.197	correct	study	Phase3	study/STIM_001.jpg
1482.598	0.536	correct	study	Phase3	study/STIM_002.jpg
1486.958	0.661	correct	study	Phase3	study/STIM_002.jpg
1490.136	1.15	incorrect	study	Phase3	study/STIM_002.jpg
1493.517	0.609	correct	study	Phase3	study/STIM_003.jpg
1496.366	1.15	correct	study	Phase3	study/STIM_003.jpg
1500.346	0.829	correct	study	Phase3	study/STIM_003.jpg
1503.888	1.108	correct	study	Phase3	study/STIM_004.jpg
1508.997	0.938	correct	study	Phase3	study/STIM_004.jpg
1513.41	0.744	correct	study	Phase3	study/STIM_004.jpg
1516.56	0.693	correct	study	Phase3	study/STIM_005.jpg
1520.686	0.913	correct	study	Phase3	study/STIM_005.jpg
1523.972	0.861	correct	study	Phase3	study/STIM_005.jpg
1527.245	0.992	correct	study	Phase3	study/STIM_006.jpg
1530.447	0.824	correct	study	Phase3	study/STIM_006.jpg
1534.855	0.787	correct	study	Phase3	study/STIM_006.jpg
1539.385	0.716	correct	study	Phase3	study/STIM_007.jpg
1543.216	1.245	correct	study	Phase3	study/STIM_007.jpg
1546.746	0.788	correct	study	Phase3	study/STIM_007.jpg
1549.922	0.791	correct	study	Phase3	study/STIM_008.jpg
1552.954	1.162	correct	study	Phase3	study/STIM_008.jpg
1557.142	0.775	correct	study	Phase3	study/STIM_008.jpg
1560.923	0.82	correct	study	Phase3	study/STIM_009.jpg
1565.519	1.172	correct	study	Phase3	study/STIM_009.jpg
1569.327	0.914	correct	study	Phase3	study/STIM_009.jpg
1572.238	0.774	correct	study	Phase3	study/STIM_010.jpg
1575.127	0.59	correct	study	Phase3	study/STIM_010.jpg
1577.995	0.71	correct	study	Phase3	study/STIM_010.jpg
1581.791	0.61	correct	study	Phase3	study/STIM_011.jpg
1584.899	1.144	correct	study	Phase3	study/STIM_011.jpg
1588.124	1.165	correct	study	Phase3	study/STIM_011.jpg
1593.122	1.06	correct	study	Phase3	study/STIM_012.jpg
1597.886	0.63	correct	study	Phase3	study/STIM_012.jpg
1600.99	0.771	correct	study	Phase3	study/STIM_012.jpg
1605.17	0.802	correct	study	Phase3	study/STIM_013.jpg
1608.118	1.066	correct	study	Phase3	study/STIM_013.jpg
1612.864	0.629	correct	study	Phase3	study/STIM_013.jpg
1616.731	0.877	correct	study	Phase3	study/STIM_014.jpg
1621.522	0.664	correct	study	Phase3	study/STIM_014.jpg
1626.072	1.056	correct	study	Phase3	study/STIM_014.jpg
1629.808	0.929	correct	study	Phase3	study/STIM_015.jpg
1634.008	1.044	correct	study	Phase3	study/STIM_015.jpg
1639.048	0.814	correct	study	Phase3	study/STIM_015.jpg
1642.279	1.176	correct	study	Phase3	study/STIM_016.jpg
1645.755	0.594	correct	study	Phase3	study/STIM_016.jpg
1648.877	1.15	correct	study	Phase3	study/STIM_016.jpg
1652.628	0.957	correct	study	Phase3	study/STIM_017.jpg
1657.591	1.081	correct	study	Phase3	study/STIM_017.jpg
1662.633	1.072	correct	study	Phase3	study/STIM_017.jpg
1666.24	1.296	incorrect	study	Phase3	study/STIM_018.jpg
1669.927	0.756	correct	study	Phase3	study/STIM_018.jpg
1673.598	0.805	correct	study	Phase3	study/STIM_018.jpg
1676.626	1.006	correct	study	Phase3	study/STIM_019.jpg
1680.231	0.604	correct	study	Phase3	study/STIM_019.jpg
1684.19	1.228	correct	study	Phase3	study/STIM_019.jpg
1689.238	0.794	correct	study	Phase3	study/STIM_020.jpg
1693.844	1.206	incorrect	study	Phase3	study/STIM_020.jpg
1697.598	0.795	correct	study	Phase3	study/STIM_020.jpg
1701.847	0.878	correct	study	Phase3	study/STIM_021.jpg
1706.115	0.667	correct	study	Phase3	study/STIM_021.jpg
1710.746	1.017	correct	study	Phase3	study/STIM_021.jpg
1714.0	0.646	correct	study	Phase3	study/STIM_022.jpg
1718.556	0.726	correct	study	Phase3	study/STIM_022.jpg
1721.556	1.008	correct	study	Phase3	study/STIM_022.jpg
1725.665	1.053	correct	study	Phase3	study/STIM_023.jpg
1729.716	1.192	correct	study	Phase3	study/STIM_023.jpg
1733.732	0.872	correct	study	Phase3	study/STIM_023.jpg
1737.701	0.771	correct	study	Phase3	study/STIM_024.jpg
1741.641	0.756	correct	study	Phase3	study/STIM_024.jpg
1745.252	0.808	correct	study	Phase3	study/STIM_024.jpg
1748.784	0.628	correct	study	Phase3	study/STIM_025.jpg
1753.27	0.772	correct	study	Phase3	study/STIM_025.jpg
1756.978	0.614	correct	study	Phase3	study/STIM_025.jpg
1761.266	0.789	correct	study	Phase3	study/STIM_026.jpg
1764.385	1.083	correct	study	Phase3	study/STIM_026.jpg
1767.723	1.137	correct	study	Phase3	study/STIM_026.jpg
1772.086	0.62	correct	study	Phase3	study/STIM_027.jpg
1776.562	0.882	correct	study	Phase3	study/STIM_027.jpg
1781.362	1.119	correct	study	Phase3	study/STIM_027.jpg
1786.232	0.6	correct	study	Phase3	study/STIM_028.jpg
1789.188	1.074	correct	study	Phase3	study/STIM_028.jpg
1794.196	0.886	correct	study	Phase3	study/STIM_028.jpg
1798.924	1.045	correct	study	Phase3	study/STIM_029.jpg
1802.246	1.1	correct	study	Phase3	study/STIM_029.jpg
1805.847	1.052	correct	study	Phase3	study/STIM_029.jpg
1809.335	0.729	correct	test	Phase3	test/STIM_000.jpg
1812.138	1.29	incorrect	test	Phase3	test/STIM_000.jpg
1815.564	1.176	correct	test	Phase3	test/STIM_000.jpg
1819.217	1.108	correct	test	Phase3	test/STIM_001.jpg
1823.109	0.975	correct	test	Phase3	test/STIM_001.jpg
1827.935	0.66	correct	test	Phase3	test/STIM_001.jpg
1831.975	0.726	correct	test	Phase3	test/STIM_002.jpg
1834.72	0.783	incorrect	test	Phase3	test/STIM_002.jpg
1838.681	0.727	correct	test	Phase3	test/STIM_002.jpg
1841.658	1.132	correct	test	Phase3	test/STIM_003.jpg
1845.673	1.09	correct	test	Phase3	test/STIM_003.jpg
1850.266	1.228	correct	test	Phase3	test/STIM_003.jpg
1853.534	0.872	correct	test	Phase3	test/STIM_004.jpg
1857.798	1.045	correct	test	Phase3	test/STIM_004.jpg
1862.707	0.612	correct	test	Phase3	test/STIM_004.jpg
1867.174	1.06	correct	test	Phase3	test/STIM_005.jpg
1872.066	0.83	incorrect	test	Phase3	test/STIM_005.jpg
1875.243	1.198	correct	test	Phase3	test/STIM_005.jpg
1880.451	0.819	incorrect	test	Phase3	test/STIM_006.jpg
1883.538	0.876	incorrect	test	Phase3	test/STIM_006.jpg
1888.237	0.944	correct	test	Phase3	test/STIM_006.jpg
1892.938	0.616	correct	test	Phase3	test/STIM_007.jpg
1895.965	0.635	correct	test	Phase3	test/STIM_007.jpg
1898.842	0.973	correct	test	Phase3	test/STIM_007.jpg
1902.182	0.9	correct	test	Phase3	test/STIM_008.jpg
1905.155	0.889	correct	test	Phase3	test/STIM_008.jpg
1909.462	1.209	correct	test	Phase3	test/STIM_008.jpg
1913.903	0.949	correct	test	Phase3	test/STIM_009.jpg
1917.094	1.012	correct	test	Phase3	test/STIM_009.jpg
1920.677	0.54	correct	test	Phase3	test/STIM_009.jpg
1923.347	1.021	correct	test	Phase3	test/STIM_010.jpg
1928.197	1.141	correct	test	Phase3	test/STIM_010.jpg
1931.699	1.199	correct	test	Phase3	test/STIM_010.jpg
1936.851	0.798	correct	test	Phase3	test/STIM_011.jpg
1940.916	1.177	correct	test	Phase3	test/STIM_011.jpg
1945.83	0.886	correct	test	Phase3	test/STIM_011.jpg
1949.6	0.921	correct	test	Phase3	test/STIM_012.jpg
1953.491	1.055	correct	test	Phase3	test/STIM_012.jpg
1956.741	1.137	incorrect	test	Phase3	test/STIM_012.jpg
1961.271	1.005	correct	test	Phase3	test/STIM_013.jpg
1964.336	0.782	correct	test	Phase3	test/STIM_013.jpg
1967.725	0.747	incorrect	test	Phase3	test/STIM_013.jpg
1971.591	0.604	correct	test	Phase3	test/STIM_014.jpg
1974.338	1.171	correct	test	Phase3	test/STIM_014.jpg
1978.156	0.955	correct	test	Phase3	test/STIM_014.jpg
1981.906	0.72	correct	test	Phase3	test/STIM_015.jpg
1986.488	0.679	correct	test	Phase3	test/STIM_015.jpg
1990.514	1.222	correct	test	Phase3	test/STIM_015.jpg
1994.251	1.318	incorrect	test	Phase3	test/STIM_016.jpg
1999.301	0.557	correct	test	Phase3	test/STIM_016.jpg
2002.124	0.769	correct	test	Phase3	test/STIM_016.jpg
2005.252	0.58	correct	test	Phase3	test/STIM_017.jpg
2008.559	0.619	correct	test	Phase3	test/STIM_017.jpg
2013.124	0.94	correct	test	Phase3	test/STIM_017.jpg
2017.181	0.576	correct	test	Phase3	test/STIM_018.jpg
2021.684	0.989	incorrect	test	Phase3	test/STIM_018.jpg
2026.012	1.095	correct	test	Phase3	test/STIM_018.jpg
2030.035	0.63	correct	test	Phase3	test/STIM_019.jpg
2033.958	1.124	correct	test	Phase3	test/STIM_019.jpg
2038.429	0.752	correct	test	Phase3	test/STIM_019.jpg
2041.348	0.975	correct	test	Phase3	test/STIM_020.jpg
2045.971	1.095	correct	test	Phase3	test/STIM_020.jpg
2049.452	0.808	correct	test	Phase3	test/STIM_020.jpg
2052.962	0.874	correct	test	Phase3	test/STIM_021.jpg
2056.478	0.93	correct	test	Phase3	test/STIM_021.jpg
2061.083	1.114	correct	test	Phase3	test/STIM_021.jpg
2064.958	1.157	correct	test	Phase3	test/STIM_022.jpg
2069.344	0.696	correct	test	Phase3	test/STIM_022.jpg
2073.153	1.239	correct	test	Phase3	test/STIM_022.jpg
2076.708	1.292	correct	test	Phase3	test/STIM_023.jpg
2080.505	0.742	incorrect	test	Phase3	test/STIM_023.jpg
2083.483	0.896	correct	test	Phase3	test/STIM_023.jpg
2086.644	1.147	correct	test	Phase3	test/STIM_024.jpg
2091.489	1.04	incorrect	test	Phase3	test/STIM_024.jpg
2094.829	1.012	correct	test	Phase3	test/STIM_024.jpg
2098.043	1.176	correct	test	Phase3	test/STIM_025.jpg
2102.695	0.942	incorrect	test	Phase3	test/STIM_025.jpg
2107.055	0.735	correct	test	Phase3	test/STIM_025.jpg
2110.67	1.085	correct	test	Phase3	test/STIM_026.jpg
2115.171	0.572	correct	test	Phase3	test/STIM_026.jpg
2119.375	1.07	correct	test	Phase3	test/STIM_026.jpg
2124.126	1.101	correct	test	Phase3	test/STIM_027.jpg
2127.658	0.677	incorrect	test	Phase3	test/STIM_027.jpg
2131.948	1.029	correct	test	Phase3	test/STIM_027.jpg
2135.457	0.778	incorrect	test	Phase3	test/STIM_028.jpg
2138.578	0.583	correct	test	Phase3	test/STIM_028.jpg
2142.363	1.227	correct	test	Phase3	test/STIM_028.jpg
2146.147	1.037	correct	test	Phase3	test/STIM_029.jpg
2151.215	0.936	correct	test	Phase3	test/STIM_029.jpg
2155.242	1.228	correct	test	Phase3	test/STIM_029.jpg
