onset	duration	accuracy	trial_type	learning_stage	stimulus
0.0	1.23	correct	study	Phase1	study/STIM_000.jpg
3.679	0.741	incorrect	study	Phase1	study/STIM_000.jpg
7.17	1.463	correct	study	Phase1	study/STIM_000.jpg
11.268	1.473	incorrect	study	Phase1	study/STIM_001.jpg
16.491	1.286	correct	study	Phase1	study/STIM_001.jpg
20.05	1.102	correct	study	Phase1	study/STIM_001.jpg
24.485	0.922	correct	study	Phase1	study/STIM_002.jpg
28.639	1.517	correct	study	Phase1	study/STIM_002.jpg
32.522	1.44	correct	study	Phase1	study/STIM_002.jpg
36.257	1.54	correct	study	Phase1	study/STIM_003.jpg
40.799	0.782	correct	study	Phase1	study/STIM_003.jpg
43.996	0.919	correct	study	Phase1	study/STIM_003.jpg
48.427	1.501	correct	study	Phase1	study/STIM_004.jpg
52.13	0.915	correct	study	Phase1	study/STIM_004.jpg
56.867	1.169	correct	study	Phase1	study/STIM_004.jpg
61.116	1.494	correct	study	Phase1	study/STIM_005.jpg
64.895	0.707	correct	study	Phase1	study/STIM_005.jpg
69.546	0.83	correct	study	Phase1	study/STIM_005.jpg
73.619	1.16	correct	study	Phase1	study/STIM_006.jpg
77.67	1.218	correct	study	Phase1	study/STIM_006.jpg
82.403	1.042	correct	study	Phase1	study/STIM_006.jpg
85.945	1.558	correct	study	Phase1	study/STIM_007.jpg
90.563	1.577	incorrect	study	Phase1	study/STIM_007.jpg
95.363	1.155	correct	study	Phase1	study/STIM_007.jpg
99.194	0.926	correct	study	Phase1	study/STIM_008.jpg
102.167	1.013	incorrect	study	Phase1	study/STIM_008.jpg
107.274	1.381	incorrect	study	Phase1	study/STIM_008.jpg
111.106	1.18	correct	study	Phase1	study/STIM_009.jpg
115.191	1.651	incorrect	study	Phase1	study/STIM_009.jpg
120.141	0.989	incorrect	study	Phase1	study/STIM_009.jpg
125.171	0.891	correct	study	Phase1	study/STIM_010.jpg
128.982	1.124	correct	study	Phase1	study/STIM_010.jpg
134.09	0.933	correct	study	Phase1	study/STIM_010.jpg
138.126	1.716	correct	study	Phase1	study/STIM_011.jpg
142.029	1.5	correct	study	Phase1	study/STIM_011.jpg
146.235	0.836	correct	study	Phase1	study/STIM_011.jpg
151.058	0.97	correct	study	Phase1	study/STIM_012.jpg
155.008	1.046	correct	study	Phase1	study/STIM_012.jpg
158.812	0.798	correct	study	Phase1	study/STIM_012.jpg
162.066	1.348	correct	study	Phase1	study/STIM_013.jpg
165.987	1.169	correct	study	Phase1	study/STIM_013.jpg
171.048	1.434	incorrect	study	Phase1	study/STIM_013.jpg
175.72	0.805	correct	study	Phase1	study/STIM_014.jpg
180.38	1.134	correct	study	Phase1	study/STIM_014.jpg
185.042	1.538	correct	study	Phase1	study/STIM_014.jpg
189.171	0.916	incorrect	study	Phase1	study/STIM_015.jpg
192.455	1.468	incorrect	study	Phase1	study/STIM_015.jpg
197.415	0.733	incorrect	study	Phase1	study/STIM_015.jpg
201.538	1.373	correct	study	Phase1	study/STIM_016.jpg
207.009	1.383	incorrect	study	Phase1	study/STIM_016.jpg
211.408	0.741	correct	study	Phase1	study/STIM_016.jpg
215.389	0.842	correct	study	Phase1	study/STIM_017.jpg
218.521	0.811	correct	study	Phase1	study/STIM_017.jpg
223.275	1.367	correct	study	Phase1	study/STIM_017.jpg
227.649	1.262	correct	study	Phase1	study/STIM_018.jpg
232.05	1.146	correct	study	Phase1	study/STIM_018.jpg
237.176	0.759	correct	study	Phase1	study/STIM_018.jpg
240.303	1.188	incorrect	study	Phase1	study/STIM_019.jpg
244.764	0.846	correct	study	Phase1	study/STIM_019.jpg
248.239	1.18	incorrect	study	Phase1	study/STIM_019.jpg
252.384	1.348	correct	study	Phase1	study/STIM_020.jpg
257.204	1.679	correct	study	Phase1	study/STIM_020.jpg
262.354	1.432	correct	study	Phase1	study/STIM_020.jpg
267.659	0.885	correct	study	Phase1	study/STIM_021.jpg
270.845	1.422	correct	study	Phase1	study/STIM_021.jpg
275.859	0.781	correct	study	Phase1	study/STIM_021.jpg
278.788	0.866	correct	study	Phase1	study/STIM_022.jpg
283.698	0.92	correct	study	Phase1	study/STIM_022.jpg
287.969	0.794	correct	study	Phase1	study/STIM_022.jpg
292.841	1.358	correct	study	Phase1	study/STIM_023.jpg
297.769	0.751	correct	study	Phase1	study/STIM_023.jpg
300.751	1.367	incorrect	study	Phase1	study/STIM_023.jpg
305.102	1.572	correct	study	Phase1	study/STIM_024.jpg
310.61	0.76	correct	study	Phase1	study/STIM_024.jpg
314.309	1.464	correct	study	Phase1	study/STIM_024.jpg
319.545	0.842	correct	study	Phase1	study/STIM_025.jpg
324.252	1.056	correct	study	Phase1	study/STIM_025.jpg
328.955	1.384	correct	study	Phase1	study/STIM_025.jpg
332.96	0.878	correct	study	Phase1	study/STIM_026.jpg
336.05	0.815	correct	study	Phase1	study/STIM_026.jpg
339.365	1.443	correct	study	Phase1	study/STIM_026.jpg
343.842	1.059	correct	study	Phase1	study/STIM_027.jpg
348.193	1.113	incorrect	study	Phase1	study/STIM_027.jpg
352.947	1.268	correct	study	Phase1	study/STIM_027.jpg
357.058	1.294	correct	study	Phase1	study/STIM_028.jpg
361.429	1.196	correct	study	Phase1	study/STIM_028.jpg
366.192	0.85	correct	study	Phase1	study/STIM_028.jpg
370.335	1.641	correct	study	Phase1	study/STIM_029.jpg
374.805	1.105	incorrect	study	Phase1	study/STIM_029.jpg
379.471	1.073	correct	study	Phase1	study/STIM_029.jpg
384.035	0.978	correct	test	Phase1	test/STIM_000.jpg
387.54	0.619	correct	test	Phase1	test/STIM_000.jpg
391.339	0.94	correct	test	Phase1	test/STIM_000.jpg
395.849	0.698	correct	test	Phase1	test/STIM_001.jpg
400.337	0.833	correct	test	Phase1	test/STIM_001.jpg
404.472	0.73	correct	test	Phase1	test/STIM_001.jpg
409.094	0.644	correct	test	Phase1	test/STIM_002.jpg
412.022	0.585	correct	test	Phase1	test/STIM_002.jpg
415.392	0.927	correct	test	Phase1	test/STIM_002.jpg
418.75	1.149	correct	test	Phase1	test/STIM_003.jpg
423.371	0.567	correct	test	Phase1	test/STIM_003.jpg
426.18	0.903	correct	test	Phase1	test/STIM_003.jpg
430.933	0.971	incorrect	test	Phase1	test/STIM_004.jpg
435.123	0.731	correct	test	Phase1	test/STIM_004.jpg
438.372	1.082	correct	test	Phase1	test/STIM_004.jpg
442.102	1.124	correct	test	Phase1	test/STIM_005.jpg
447.032	0.83	correct	test	Phase1	test/STIM_005.jpg
450.568	0.889	correct	test	Phase1	test/STIM_005.jpg
453.754	0.892	correct	test	Phase1	test/STIM_006.jpg
457.793	1.088	correct	test	Phase1	test/STIM_006.jpg
461.409	1.217	correct	test	Phase1	test/STIM_006.jpg
465.375	0.871	correct	test	Phase1	test/STIM_007.jpg
469.633	0.63	correct	test	Phase1	test/STIM_007.jpg
473.084	0.648	correct	test	Phase1	test/STIM_007.jpg
476.704	0.675	correct	test	Phase1	test/STIM_008.jpg
479.72	0.678	correct	test	Phase1	test/STIM_008.jpg
484.328	0.597	correct	test	Phase1	test/STIM_008.jpg
488.439	0.954	correct	test	Phase1	test/STIM_009.jpg
491.963	0.886	correct	test	Phase1	test/STIM_009.jpg
496.315	0.869	correct	test	Phase1	test/STIM_009.jpg
499.316	1.227	correct	test	Phase1	test/STIM_010.jpg
504.087	1.254	correct	test	Phase1	test/STIM_010.jpg
509.024	0.955	correct	test	Phase1	test/STIM_010.jpg
512.838	1.079	correct	test	Phase1	test/STIM_011.jpg
516.612	0.908	correct	test	Phase1	test/STIM_011.jpg
520.538	1.13	correct	test	Phase1	test/STIM_011.jpg
524.848	1.282	correct	test	Phase1	test/STIM_012.jpg
529.01	0.646	incorrect	test	Phase1	test/STIM_012.jpg
532.87	0.804	correct	test	Phase1	test/STIM_012.jpg
536.016	0.673	correct	test	Phase1	test/STIM_013.jpg
540.446	1.151	incorrect	test	Phase1	test/STIM_013.jpg
544.012	0.934	correct	test	Phase1	test/STIM_013.jpg
547.447	1.139	correct	test	Phase1	test/STIM_014.jpg
550.91	1.053	incorrect	test	Phase1	test/STIM_014.jpg
555.943	1.055	correct	test	Phase1	test/STIM_014.jpg
559.099	0.742	incorrect	test	Phase1	test/STIM_015.jpg
563.022	0.908	correct	test	Phase1	test/STIM_015.jpg
567.595	0.726	correct	test	Phase1	test/STIM_015.jpg
570.493	1.04	correct	test	Phase1	test/STIM_016.jpg
574.44	1.045	correct	test	Phase1	test/STIM_016.jpg
578.904	0.533	correct	test	Phase1	test/STIM_016.jpg
582.422	0.911	correct	test	Phase1	test/STIM_017.jpg
586.98	1.153	correct	test	Phase1	test/STIM_017.jpg
591.16	1.098	correct	test	Phase1	test/STIM_017.jpg
596.331	0.865	correct	test	Phase1	test/STIM_018.jpg
601.08	0.658	incorrect	test	Phase1	test/STIM_018.jpg
604.19	0.917	correct	test	Phase1	test/STIM_018.jpg
607.983	0.935	correct	test	Phase1	test/STIM_019.jpg
611.431	1.167	correct	test	Phase1	test/STIM_019.jpg
615.691	0.957	correct	test	Phase1	test/STIM_019.jpg
619.965	0.779	incorrect	test	Phase1	test/STIM_020.jpg
623.437	1.199	correct	test	Phase1	test/STIM_020.jpg
627.206	0.751	correct	test	Phase1	test/STIM_020.jpg
630.474	0.916	correct	test	Phase1	test/STIM_021.jpg
635.346	0.959	correct	test	Phase1	test/STIM_021.jpg
639.709	0.769	correct	test	Phase1	test/STIM_021.jpg
643.023	0.774	correct	test	Phase1	test/STIM_022.jpg
646.047	0.944	correct	test	Phase1	test/STIM_022.jpg
650.351	1.134	correct	test	Phase1	test/STIM_022.jpg
654.321	0.748	correct	test	Phase1	test/STIM_023.jpg
657.37	0.686	correct	test	Phase1	test/STIM_023.jpg
660.651	0.83	correct	test	Phase1	test/STIM_023.jpg
664.285	0.837	correct	test	Phase1	test/STIM_024.jpg
667.738	1.128	correct	test	Phase1	test/STIM_024.jpg
671.304	0.838	correct	test	Phase1	test/STIM_024.jpg
674.398	0.625	incorrect	test	Phase1	test/STIM_025.jpg
678.257	0.754	correct	test	Phase1	test/STIM_025.jpg
682.943	1.109	incorrect	test	Phase1	test/STIM_025.jpg
686.486	0.721	correct	test	Phase1	test/STIM_026.jpg
690.357	0.906	correct	test	Phase1	test/STIM_026.jpg
694.456	0.82	correct	test	Phase1	test/STIM_026.jpg
698.37	0.657	correct	test	Phase1	test/STIM_027.jpg
700.998	0.744	correct	test	Phase1	test/STIM_027.jpg
704.485	0.615	correct	test	Phase1	test/STIM_027.jpg
708.401	0.611	correct	test	Phase1	test/STIM_028.jpg
711.618	1.203	correct	test	Phase1	test/STIM_028.jpg
715.334	0.604	incorrect	test	Phase1	test/STIM_028.jpg
718.692	0.878	correct	test	Phase1	test/STIM_029.jpg
722.365	0.723	correct	test	Phase1	test/STIM_029.jpg
725.135	1.092	correct	test	Phase1	test/STIM_029.jpg
729.209	1.308	correct	study	Phase2	study/STIM_000.jpg
733.011	0.673	correct	study	Phase2	study/STIM_000.jpg
737.622	1.058	correct	study	Phase2	study/STIM_000.jpg
741.225	1.112	correct	study	Phase2	study/STIM_001.jpg
745.916	1.032	correct	study	Phase2	study/STIM_001.jpg
750.091	0.721	correct	study	Phase2	study/STIM_001.jpg
754.573	1.429	correct	study	Phase2	study/STIM_002.jpg
758.253	0.941	correct	study	Phase2	study/STIM_002.jpg
762.861	1.165	correct	study	Phase2	study/STIM_002.jpg
766.535	1.198	correct	study	Phase2	study/STIM_003.jpg
769.861	1.02	correct	study	Phase2	study/STIM_003.jpg
774.705	0.732	correct	study	Phase2	study/STIM_003.jpg
778.004	1.159	correct	study	Phase2	study/STIM_004.jpg
782.001	0.844	correct	study	Phase2	study/STIM_004.jpg
785.347	1.084	correct	study	Phase2	study/STIM_004.jpg
790.265	0.732	incorrect	study	Phase2	study/STIM_005.jpg
794.148	0.855	correct	study	Phase2	study/STIM_005.jpg
797.138	0.955	correct	study	Phase2	study/STIM_005.jpg
801.054	0.922	correct	study	Phase2	study/STIM_006.jpg
805.994	0.818	correct	study	Phase2	study/STIM_006.jpg
810.112	1.24	correct	study	Phase2	study/STIM_006.jpg
814.526	1.381	correct	study	Phase2	study/STIM_007.jpg
819.679	1.015	correct	study	Phase2	study/STIM_007.jpg
823.484	0.828	correct	study	Phase2	study/STIM_007.jpg
826.641	1.129	correct	study	Phase2	study/STIM_008.jpg
831.789	1.299	incorrect	study	Phase2	study/STIM_008.jpg
836.573	0.808	correct	study	Phase2	study/STIM_008.jpg
839.755	0.931	correct	study	Phase2	study/STIM_009.jpg
843.555	1.28	correct	study	Phase2	study/STIM_009.jpg
848.672	0.605	correct	study	Phase2	study/STIM_009.jpg
853.335	1.109	correct	study	Phase2	study/STIM_010.jpg
856.576	0.781	correct	study	Phase2	study/STIM_010.jpg
861.343	0.928	correct	study	Phase2	study/STIM_010.jpg
864.428	0.908	correct	study	Phase2	study/STIM_011.jpg
868.947	0.988	correct	study	Phase2	study/STIM_011.jpg
872.275	1.122	correct	study	Phase2	study/STIM_011.jpg
876.346	1.292	correct	study	Phase2	study/STIM_012.jpg
880.646	0.764	correct	study	Phase2	study/STIM_012.jpg
884.817	0.633	incorrect	study	Phase2	study/STIM_012.jpg
888.386	0.762	correct	study	Phase2	study/STIM_013.jpg
892.901	1.078	correct	study	Phase2	study/STIM_013.jpg
896.116	0.814	correct	study	Phase2	study/STIM_013.jpg
899.644	0.734	correct	study	Phase2	study/STIM_014.jpg
903.967	1.275	incorrect	study	Phase2	study/STIM_014.jpg
907.96	1.2	correct	study	Phase2	study/STIM_014.jpg
911.977	1.395	incorrect	study	Phase2	study/STIM_015.jpg
915.658	0.864	correct	study	Phase2	study/STIM_015.jpg
919.211	0.942	correct	study	Phase2	study/STIM_015.jpg
924.002	1.245	correct	study	Phase2	study/STIM_016.jpg
928.64	0.677	correct	study	Phase2	study/STIM_016.jpg
932.475	1.17	correct	study	Phase2	study/STIM_016.jpg
936.505	1.422	correct	study	Phase2	study/STIM_017.jpg
941.643	0.988	correct	study	Phase2	study/STIM_017.jpg
945.615	0.539	correct	study	Phase2	study/STIM_017.jpg
948.764	1.45	correct	study	Phase2	study/STIM_018.jpg
953.151	1.29	correct	study	Phase2	study/STIM_018.jpg
956.854	1.119	correct	study	Phase2	study/STIM_018.jpg
960.252	0.577	correct	study	Phase2	study/STIM_019.jpg
963.798	1.147	correct	study	Phase2	study/STIM_019.jpg
968.758	1.005	correct	study	Phase2	study/STIM_019.jpg
972.294	1.454	correct	study	Phase2	study/STIM_020.jpg
976.157	1.077	correct	study	Phase2	study/STIM_020.jpg
980.84	1.213	correct	study	Phase2	study/STIM_020.jpg
985.027	1.356	correct	study	Phase2	study/STIM_021.jpg
988.532	0.753	correct	study	Phase2	study/STIM_021.jpg
991.801	0.943	correct	study	Phase2	study/STIM_021.jpg
995.09	0.943	correct	study	Phase2	study/STIM_022.jpg
999.326	1.317	correct	study	Phase2	study/STIM_022.jpg
1003.919	0.537	correct	study	Phase2	study/STIM_022.jpg
1007.723	0.926	correct	study	Phase2	study/STIM_023.jpg
1012.033	1.106	correct	study	Phase2	study/STIM_023.jpg
1016.171	0.891	correct	study	Phase2	study/STIM_023.jpg
1020.765	1.383	correct	study	Phase2	study/STIM_024.jpg
1025.461	0.958	correct	study	Phase2	study/STIM_024.jpg
1029.384	1.143	correct	study	Phase2	study/STIM_024.jpg
1033.167	1.347	incorrect	study	Phase2	study/STIM_025.jpg
1038.398	1.169	incorrect	study	Phase2	study/STIM_025.jpg
1042.927	0.851	correct	study	Phase2	study/STIM_025.jpg
1047.101	0.839	correct	study	Phase2	study/STIM_026.jpg
1050.548	0.855	correct	study	Phase2	study/STIM_026.jpg
1055.423	1.03	correct	study	Phase2	study/STIM_026.jpg
1058.595	1.424	correct	study	Phase2	study/STIM_027.jpg
1063.248	1.163	correct	study	Phase2	study/STIM_027.jpg
1067.92	0.866	correct	study	Phase2	study/STIM_027.jpg
1072.609	0.645	correct	study	Phase2	study/STIM_028.jpg
1076.887	1.04	incorrect	study	Phase2	study/STIM_028.jpg
1081.797	1.144	correct	study	Phase2	study/STIM_028.jpg
1085.83	0.825	correct	study	Phase2	study/STIM_029.jpg
1090.077	1.28	correct	study	Phase2	study/STIM_029.jpg
1093.907	1.19	correct	study	Phase2	study/STIM_029.jpg
1097.868	0.576	correct	test	Phase2	test/STIM_000.jpg
1101.504	0.951	correct	test	Phase2	test/STIM_000.jpg
1105.803	0.651	correct	test	Phase2	test/STIM_000.jpg
1109.69	0.87	correct	test	Phase2	test/STIM_001.jpg
1113.724	0.738	correct	test	Phase2	test/STIM_001.jpg
1117.555	0.541	correct	test	Phase2	test/STIM_001.jpg
1121.926	0.814	incorrect	test	Phase2	test/STIM_002.jpg
1124.882	0.711	correct	test	Phase2	test/STIM_002.jpg
1128.321	0.636	correct	test	Phase2	test/STIM_002.jpg
1132.023	1.202	correct	test	Phase2	test/STIM_003.jpg
1137.138	0.648	correct	test	Phase2	test/STIM_003.jpg
1140.159	0.847	correct	test	Phase2	test/STIM_003.jpg
1144.801	0.562	correct	test	Phase2	test/STIM_004.jpg
1148.179	0.826	correct	test	Phase2	test/STIM_004.jpg
1152.239	0.694	incorrect	test	Phase2	test/STIM_004.jpg
1156.689	0.944	correct	test	Phase2	test/STIM_005.jpg
1160.798	0.586	correct	test	Phase2	test/STIM_005.jpg
1164.747	0.666	correct	test	Phase2	test/STIM_005.jpg
1168.181	1.034	correct	test	Phase2	test/STIM_006.jpg
1172.866	1.116	correct	test	Phase2	test/STIM_006.jpg
1177.137	0.841	correct	test	Phase2	test/STIM_006.jpg
1181.233	0.703	incorrect	test	Phase2	test/STIM_007.jpg
1185.405	0.841	correct	test	Phase2	test/STIM_007.jpg
1188.743	0.6	correct	test	Phase2	test/STIM_007.jpg
1192.133	0.878	correct	test	Phase2	test/STIM_008.jpg
1196.972	0.755	correct	test	Phase2	test/STIM_008.jpg
1200.538	0.843	correct	test	Phase2	test/STIM_008.jpg
1204.366	0.624	correct	test	Phase2	test/STIM_009.jpg
1207.785	0.655	incorrect	test	Phase2	test/STIM_009.jpg
1211.195	0.951	correct	test	Phase2	test/STIM_009.jpg
1215.125	0.67	correct	test	Phase2	test/STIM_010.jpg
1218.193	0.909	correct	test	Phase2	test/STIM_010.jpg
1221.298	0.951	correct	test	Phase2	test/STIM_010.jpg
1225.232	0.789	correct	test	Phase2	test/STIM_011.jpg
1229.742	0.885	correct	test	Phase2	test/STIM_011.jpg
1234.272	0.895	correct	test	Phase2	test/STIM_011.jpg
1237.37	1.184	correct	test	Phase2	test/STIM_012.jpg
1241.134	0.875	correct	test	Phase2	test/STIM_012.jpg
1245.872	0.92	correct	test	Phase2	test/STIM_012.jpg
1249.77	1.194	correct	test	Phase2	test/STIM_013.jpg
1254.324	0.872	correct	test	Phase2	test/STIM_013.jpg
1258.616	0.898	correct	test	Phase2	test/STIM_013.jpg
1263.249	1.195	correct	test	Phase2	test/STIM_014.jpg
1267.601	0.982	incorrect	test	Phase2	test/STIM_014.jpg
1272.431	0.916	correct	test	Phase2	test/STIM_014.jpg
1275.718	1.095	correct	test	Phase2	test/STIM_015.jpg
1280.345	1.019	correct	test	Phase2	test/STIM_015.jpg
1285.223	0.806	correct	test	Phase2	test/STIM_015.jpg
1288.652	0.669	correct	test	Phase2	test/STIM_016.jpg
1292.345	0.839	correct	test	Phase2	test/STIM_016.jpg
1297.172	0.864	correct	test	Phase2	test/STIM_016.jpg
1301.577	0.813	incorrect	test	Phase2	test/STIM_017.jpg
1306.228	0.7	correct	test	Phase2	test/STIM_017.jpg
1310.012	0.895	correct	test	Phase2	test/STIM_017.jpg
1313.176	1.205	correct	test	Phase2	test/STIM_018.jpg
1317.726	0.966	correct	test	Phase2	test/STIM_018.jpg
1322.295	0.94	correct	test	Phase2	test/STIM_018.jpg
1326.199	1.126	correct	test	Phase2	test/STIM_019.jpg
1330.991	1.022	correct	test	Phase2	test/STIM_019.jpg
1335.294	0.558	correct	test	Phase2	test/STIM_019.jpg
1339.455	0.745	correct	test	Phase2	test/STIM_020.jpg
1344.165	1.114	correct	test	Phase2	test/STIM_020.jpg
1348.525	1.277	correct	test	Phase2	test/STIM_020.jpg
1352.073	0.971	incorrect	test	Phase2	test/STIM_021.jpg
1355.413	0.805	correct	test	Phase2	test/STIM_021.jpg
1358.911	0.604	correct	test	Phase2	test/STIM_021.jpg
1363.495	0.974	correct	test	Phase2	test/STIM_022.jpg
1368.311	0.594	correct	test	Phase2	test/STIM_022.jpg
1371.254	0.867	correct	test	Phase2	test/STIM_022.jpg
1374.374	1.167	correct	test	Phase2	test/STIM_023.jpg
1378.257	1.184	correct	test	Phase2	test/STIM_023.jpg
1382.781	0.593	correct	test	Phase2	test/STIM_023.jpg
1386.885	0.99	correct	test	Phase2	test/STIM_024.jpg
1391.175	1.154	correct	test	Phase2	test/STIM_024.jpg
1396.103	1.135	correct	test	Phase2	test/STIM_024.jpg
1400.714	1.064	correct	test	Phase2	test/STIM_025.jpg
1404.291	1.066	correct	test	Phase2	test/STIM_025.jpg
1409.21	1.123	incorrect	test	Phase2	test/STIM_025.jpg
1413.19	1.04	correct	test	Phase2	test/STIM_026.jpg
1418.098	0.621	correct	test	Phase2	test/STIM_026.jpg
1422.31	0.998	correct	test	Phase2	test/STIM_026.jpg
1427.342	1.194	correct	test	Phase2	test/STIM_027.jpg
1431.736	1.011	correct	test	Phase2	test/STIM_027.jpg
1435.763	0.671	incorrect	test	Phase2	test/STIM_027.jpg
1439.415	0.775	correct	test	Phase2	test/STIM_028.jpg
1443.273	1.218	incorrect	test	Phase2	test/STIM_028.jpg
1446.803	1.026	correct	test	Phase2	test/STIM_028.jpg
1450.98	1.23	correct	test	Phase2	test/STIM_029.jpg
1455.884	0.911	correct	test	Phase2	test/STIM_029.jpg
1459.293	1.119	correct	test	Phase2	test/STIM_029.jpg
1463.596	1.161	correct	study	Phase3	study/STIM_000.jpg
1468.564	1.068	correct	study	Phase3	study/STIM_000.jpg
1472.042	0.948	correct	study	Phase3	study/STIM_000.jpg
1475.257	0.977	correct	study	Phase3	study/STIM_001.jpg
1478.6	0.891	correct	study	Phase3	study/STIM_001.jpg
1482.668	1.005	correct	study	Phase3	study/STIM_001.jpg
1487.081	0.938	correct	study	Phase3	study/STIM_002.jpg
1491.475	0.962	incorrect	study	Phase3	study/STIM_002.jpg
1495.394	0.804	correct	study	Phase3	study/STIM_002.jpg
1500.211	0.687	correct	study	Phase3	study/STIM_003.jpg
1503.685	0.992	correct	study	Phase3	study/STIM_003.jpg
1507.632	0.544	correct	study	Phase3	study/STIM_003.jpg
1511.132	0.742	correct	study	Phase3	study/STIM_004.jpg
1515.596	0.951	correct	study	Phase3	study/STIM_004.jpg
1518.83	0.93	correct	study	Phase3	study/STIM_004.jpg
1523.663	1.2	incorrect	study	Phase3	study/STIM_005.jpg
1528.206	0.654	correct	study	Phase3	study/STIM_005.jpg
1531.502	1.081	correct	study	Phase3	study/STIM_005.jpg
1534.918	0.79	correct	study	Phase3	study/STIM_006.jpg
1539.501	1.042	correct	study	Phase3	study/STIM_006.jpg
1542.701	0.611	correct	study	Phase3	study/STIM_006.jpg
1546.366	0.604	correct	study	Phase3	study/STIM_007.jpg
1549.426	0.502	correct	study	Phase3	study/STIM_007.jpg
1552.438	0.733	correct	study	Phase3	study/STIM_007.jpg
1555.944	0.647	correct	study	Phase3	study/STIM_008.jpg
1559.43	1.199	incorrect	study	Phase3	study/STIM_008.jpg
1563.69	0.74	correct	study	Phase3	study/STIM_008.jpg
1567.973	0.804	correct	study	Phase3	study/STIM_009.jpg
1572.419	1.098	correct	study	Phase3	study/STIM_009.jpg
1576.322	1.166	correct	study	Phase3	study/STIM_009.jpg
1580.056	0.629	correct	study	Phase3	study/STIM_010.jpg
1583.896	0.561	correct	study	Phase3	study/STIM_010.jpg
1587.563	0.611	correct	study	Phase3	study/STIM_010.jpg
1591.923	0.867	correct	study	Phase3	study/STIM_011.jpg
1595.486	0.983	correct	study	Phase3	study/STIM_011.jpg
1599.793	1.116	correct	study	Phase3	study/STIM_011.jpg
1603.167	1.157	correct	study	Phase3	study/STIM_012.jpg
1606.653	0.854	correct	study	Phase3	study/STIM_012.jpg
1611.196	1.01	correct	study	Phase3	study/STIM_012.jpg
1614.615	1.084	correct	study	Phase3	study/STIM_013.jpg
1618.828	0.714	correct	study	Phase3	study/STIM_013.jpg
1621.913	0.861	correct	study	Phase3	study/STIM_013.jpg
1626.149	0.507	correct	study	Phase3	study/STIM_014.jpg
1629.505	0.664	correct	study	Phase3	study/STIM_014.jpg
1632.978	0.527	correct	study	Phase3	study/STIM_014.jpg
1636.275	1.146	correct	study	Phase3	study/STIM_015.jpg
1641.167	0.49	correct	study	Phase3	study/STIM_015.jpg
1644.106	0.616	correct	study	Phase3	study/STIM_015.jpg
1647.883	1.142	correct	study	Phase3	study/STIM_016.jpg
1652.087	0.923	correct	study	Phase3	study/STIM_016.jpg
1655.877	0.543	correct	study	Phase3	study/STIM_016.jpg
1658.919	0.93	correct	study	Phase3	study/STIM_017.jpg
1662.2	0.715	correct	study	Phase3	study/STIM_017.jpg
1666.5	0.636	correct	study	Phase3	study/STIM_017.jpg
1669.875	0.781	correct	study	Phase3	study/STIM_018.jpg
1674.387	0.914	correct	study	Phase3	study/STIM_018.jpg
1679.257	0.815	correct	study	Phase3	study/STIM_018.jpg
1682.611	0.729	correct	study	Phase3	study/STIM_019.jpg
1686.921	0.628	correct	study	Phase3	study/STIM_019.jpg
1691.531	0.99	correct	study	Phase3	study/STIM_019.jpg
1695.966	0.989	correct	study	Phase3	study/STIM_020.jpg
1699.173	0.599	correct	study	Phase3	study/STIM_020.jpg
1703.023	0.579	correct	study	Phase3	study/STIM_020.jpg
1705.933	0.724	correct	study	Phase3	study/STIM_021.jpg
1710.286	1.168	correct	study	Phase3	study/STIM_021.jpg
1714.922	1.078	correct	study	Phase3	study/STIM_021.jpg
1719.619	0.997	correct	study	Phase3	study/STIM_022.jpg
1723.177	0.958	correct	study	Phase3	study/STIM_022.jpg
1726.826	0.54	incorrect	study	Phase3	study/STIM_022.jpg
1730.148	0.815	correct	study	Phase3	study/STIM_023.jpg
1733.779	0.843	incorrect	study	Phase3	study/STIM_023.jpg
1736.991	1.052	correct	study	Phase3	study/STIM_023.jpg
1741.574	0.939	correct	study	Phase3	study/STIM_024.jpg
1745.451	0.824	correct	study	Phase3	study/STIM_024.jpg
1749.365	1.048	correct	study	Phase3	study/STIM_024.jpg
1753.583	0.82	correct	study	Phase3	study/STIM_025.jpg
1756.807	0.982	correct	study	Phase3	study/STIM_025.jpg
1760.106	1.086	correct	study	Phase3	study/STIM_025.jpg
1764.741	1.054	correct	study	Phase3	study/STIM_026.jpg
1769.787	0.769	incorrect	study	Phase3	study/STIM_026.jpg
1774.117	0.775	correct	study	Phase3	study/STIM_026.jpg
1777.333	0.778	correct	study	Phase3	study/STIM_027.jpg
1780.595	1.088	correct	study	Phase3	study/STIM_027.jpg
1784.901	0.582	correct	study	Phase3	study/STIM_027.jpg
1789.027	1.018	correct	study	Phase3	study/STIM_028.jpg
1792.5	0.709	correct	study	Phase3	study/STIM_028.jpg
1795.4	0.744	correct	study	Phase3	study/STIM_028.jpg
1799.495	0.628	correct	study	Phase3	study/STIM_029.jpg
1803.992	0.954	correct	study	Phase3	study/STIM_029.jpg
1807.628	0.73	correct	study	Phase3	study/STIM_029.jpg
1810.735	0.686	correct	test	Phase3	test/STIM_000.jpg
1814.68	0.752	correct	test	Phase3	test/STIM_000.jpg
1819.175	0.517	correct	test	Phase3	test/STIM_000.jpg
1821.987	0.813	correct	test	Phase3	test/STIM_001.jpg
1826.119	1.051	correct	test	Phase3	test/STIM_001.jpg
1830.778	1.117	correct	test	Phase3	test/STIM_001.jpg
1835.378	0.81	correct	test	Phase3	test/STIM_002.jpg
1838.211	1.054	incorrect	test	Phase3	test/STIM_002.jpg
1841.657	1.179	correct	test	Phase3	test/STIM_002.jpg
1846.406	1.089	correct	test	Phase3	test/STIM_003.jpg
1850.404	0.739	correct	test	Phase3	test/STIM_003.jpg
1854.286	1.13	correct	test	Phase3	test/STIM_003.jpg
1858.183	0.787	correct	test	Phase3	test/STIM_004.jpg
1862.938	0.675	correct	test	Phase3	test/STIM_004.jpg
1866.902	0.758	correct	test	Phase3	test/STIM_004.jpg
1870.593	0.794	correct	test	Phase3	test/STIM_005.jpg
1874.439	1.19	correct	test	Phase3	test/STIM_005.jpg
1877.919	0.564	correct	test	Phase3	test/STIM_005.jpg
1881.007	1.082	correct	test	Phase3	test/STIM_006.jpg
1885.185	0.97	correct	test	Phase3	test/STIM_006.jpg
1889.193	0.757	correct	test	Phase3	test/STIM_006.jpg
1893.716	1.146	correct	test	Phase3	test/STIM_007.jpg
1897.081	0.786	correct	test	Phase3	test/STIM_007.jpg
1901.428	0.927	correct	test	Phase3	test/STIM_007.jpg
1906.048	0.611	correct	test	Phase3	test/STIM_008.jpg
1910.101	0.93	incorrect	test	Phase3	test/STIM_008.jpg
1913.283	0.529	correct	test	Phase3	test/STIM_008.jpg
1916.199	0.829	correct	test	Phase3	test/STIM_009.jpg
1920.177	1.131	correct	test	Phase3	test/STIM_009.jpg
1923.56	0.535	correct	test	Phase3	test/STIM_009.jpg
1928.112	1.066	correct	test	Phase3	test/STIM_010.jpg
1932.875	1.065	correct	test	Phase3	test/STIM_010.jpg
1937.878	0.567	correct	test	Phase3	test/STIM_010.jpg
1941.03	0.718	correct	test	Phase3	test/STIM_011.jpg
1945.065	1.26	incorrect	test	Phase3	test/STIM_011.jpg
1949.384	0.825	correct	test	Phase3	test/STIM_011.jpg
1953.26	0.786	correct	test	Phase3	test/STIM_012.jpg
1957.15	0.876	correct	test	Phase3	test/STIM_012.jpg
1961.346	0.576	correct	test	Phase3	test/STIM_012.jpg
1965.554	1.027	correct	test	Phase3	test/STIM_013.jpg
1968.85	0.694	correct	test	Phase3	test/STIM_013.jpg
1972.218	0.809	correct	test	Phase3	test/STIM_013.jpg
1976.984	0.645	correct	test	Phase3	test/STIM_014.jpg
1980.178	1.143	correct	test	Phase3	test/STIM_014.jpg
1984.302	1.279	correct	test	Phase3	test/STIM_014.jpg
1987.95	0.497	correct	test	Phase3	test/STIM_015.jpg
1992.554	1.238	correct	test	Phase3	test/STIM_015.jpg
1995.956	0.692	correct	test	Phase3	test/STIM_015.jpg
2000.234	0.946	correct	test	Phase3	test/STIM_016.jpg
2004.481	0.878	incorrect	test	Phase3	test/STIM_016.jpg
2008.863	0.875	correct	test	Phase3	test/STIM_016.jpg
2011.978	0.932	correct	test	Phase3	test/STIM_017.jpg
2016.74	0.971	correct	test	Phase3	test/STIM_017.jpg
2020.966	1.007	correct	test	Phase3	test/STIM_017.jpg
2025.516	0.616	correct	test	Phase3	test/STIM_018.jpg
2028.504	0.988	correct	test	Phase3	test/STIM_018.jpg
2032.749	1.07	correct	test	Phase3	test/STIM_018.jpg
2037.18	0.885	correct	test	Phase3	test/STIM_019.jpg
2042.045	0.736	correct	test	Phase3	test/STIM_019.jpg
2045.923	0.908	correct	test	Phase3	test/STIM_019.jpg
2049.874	1.162	correct	test	Phase3	test/STIM_020.jpg
2054.999	0.817	correct	test	Phase3	test/STIM_020.jpg
2058.442	1.24	correct	test	Phase3	test/STIM_020.jpg
2062.017	1.133	correct	test	Phase3	test/STIM_021.jpg
2066.889	0.707	correct	test	Phase3	test/STIM_021.jpg
2070.883	1.136	correct	test	Phase3	test/STIM_021.jpg
2074.851	0.702	incorrect	test	Phase3	test/STIM_022.jpg
2078.241	0.749	correct	test	Phase3	test/STIM_022.jpg
2081.981	1.017	incorrect	test	Phase3	test/STIM_022.jpg
2085.44	0.612	correct	test	Phase3	test/STIM_023.jpg
2089.897	1.121	correct	test	Phase3	test/STIM_023.jpg
2093.264	1.058	correct	test	Phase3	test/STIM_023.jpg
2097.825	0.549	correct	test	Phase3	test/STIM_024.jpg
2100.937	1.143	correct	test	Phase3	test/STIM_024.jpg
2106.029	1.178	correct	test	Phase3	test/STIM_024.jpg
2109.937	0.807	correct	test	Phase3	test/STIM_025.jpg
2114.527	0.74	correct	test	Phase3	test/STIM_025.jpg
2117.585	0.583	correct	test	Phase3	test/STIM_025.jpg
2120.996	0.791	correct	test	Phase3	test/STIM_026.jpg
2123.879	1.119	correct	test	Phase3	test/STIM_026.jpg
2127.319	1.249	correct	test	Phase3	test/STIM_026.jpg
2130.586	0.974	correct	test	Phase3	test/STIM_027.jpg
2135.449	1.113	incorrect	test	Phase3	test/STIM_027.jpg
2140.586	0.926	correct	test	Phase3	test/STIM_027.jpg
2144.635	1.199	correct	test	Phase3	test/STIM_028.jpg
2148.681	0.922	correct	test	Phase3	test/STIM_028.jpg
2153.406	0.584	correct	test	Phase3	test/STIM_028.jpg
2156.503	0.86	correct	test	Phase3	test/STIM_029.jpg
2160.216	0.985	correct	test	Phase3	test/STIM_029.jpg
2163.418	0.862	correct	test	Phase3	test/STIM_029.jpg
