onset	duration	response_time_ms	trial_type	learning_stage	stimulus	response_port
0.0	1.23	1230.1	study	Phase1	study/STIM_000.jpg	100
3.679	0.741	740.9	study	Phase1	study/STIM_000.jpg	99
7.17	1.463	1463.2	study	Phase1	study/STIM_000.jpg	100
11.268	1.473	1472.6	study	Phase1	study/STIM_001.jpg	100
16.491	1.286	1286.5	study	Phase1	study/STIM_001.jpg	100
20.05	1.102	1102.3	study	Phase1	study/STIM_001.jpg	100
24.485	0.922	922.0	study	Phase1	study/STIM_002.jpg	100
28.639	1.517	1516.9	study	Phase1	study/STIM_002.jpg	99
32.522	1.44	1439.5	study	Phase1	study/STIM_002.jpg	99
36.257	1.54	1539.8	study	Phase1	study/STIM_003.jpg	99
40.799	0.782	781.9	study	Phase1	study/STIM_003.jpg	100
43.996	0.919	918.8	study	Phase1	study/STIM_003.jpg	99
48.427	1.501	1501.1	study	Phase1	study/STIM_004.jpg	99
52.13	0.915	915.1	study	Phase1	study/STIM_004.jpg	100
56.867	1.169	1169.3	study	Phase1	study/STIM_004.jpg	100
61.116	1.494	1494.0	study	Phase1	study/STIM_005.jpg	100
64.895	0.707	707.1	study	Phase1	study/STIM_005.jpg	99
69.546	0.83	830.3	study	Phase1	study/STIM_005.jpg	99
73.619	1.16	1159.8	study	Phase1	study/STIM_006.jpg	100
77.67	1.218	1217.9	study	Phase1	study/STIM_006.jpg	99
82.403	1.042	1041.8	study	Phase1	study/STIM_006.jpg	100
85.945	1.558	1558.2	study	Phase1	study/STIM_007.jpg	99
90.563	1.577	1576.7	study	Phase1	study/STIM_007.jpg	100
95.363	1.155	1155.2	study	Phase1	study/STIM_007.jpg	100
99.194	0.926	925.5	study	Phase1	study/STIM_008.jpg	100
102.167	1.013	1012.8	study	Phase1	study/STIM_008.jpg	99
107.274	1.381	1381.4	study	Phase1	study/STIM_008.jpg	99
111.106	1.18	1180.5	study	Phase1	study/STIM_009.jpg	100
115.191	1.651	1650.6	study	Phase1	study/STIM_009.jpg	99
120.141	0.989	988.7	study	Phase1	study/STIM_009.jpg	100
125.171	0.891	890.7	study	Phase1	study/STIM_010.jpg	100
128.982	1.124	1124.0	study	Phase1	study/STIM_010.jpg	100
134.09	0.933	933.3	study	Phase1	study/STIM_010.jpg	100
138.126	1.716	1715.9	study	Phase1	study/STIM_011.jpg	99
142.029	1.5	1499.9	study	Phase1	study/STIM_011.jpg	99
146.235	0.836	835.7	study	Phase1	study/STIM_011.jpg	99
151.058	0.97	970.0	study	Phase1	study/STIM_012.jpg	100
155.008	1.046	1046.4	study	Phase1	study/STIM_012.jpg	100
158.812	0.798	797.7	study	Phase1	study/STIM_012.jpg	100
162.066	1.348	1348.3	study	Phase1	study/STIM_013.jpg	100
165.987	1.169	1168.6	study	Phase1	study/STIM_013.jpg	99
171.048	1.434	1433.8	study	Phase1	study/STIM_013.jpg	99
175.72	0.805	805.3	study	Phase1	study/STIM_014.jpg	99
180.38	1.134	1133.6	study	Phase1	study/STIM_014.jpg	99
185.042	1.538	1537.9	study	Phase1	study/STIM_014.jpg	99
189.171	0.916	915.8	study	Phase1	study/STIM_015.jpg	100
192.455	1.468	1468.5	study	Phase1	study/STIM_015.jpg	99
197.415	0.733	732.7	study	Phase1	study/STIM_015.jpg	100
201.538	1.373	1372.9	study	Phase1	study/STIM_016.jpg	100
207.009	1.383	1383.2	study	Phase1	study/STIM_016.jpg	99
211.408	0.741	740.9	study	Phase1	study/STIM_016.jpg	99
215.389	0.842	841.7	study	Phase1	study/STIM_017.jpg	100
218.521	0.811	810.7	study	Phase1	study/STIM_017.jpg	100
223.275	1.367	1366.7	study	Phase1	study/STIM_017.jpg	99
227.649	1.262	1261.9	study	Phase1	study/STIM_018.jpg	99
232.05	1.146	1145.9	study	Phase1	study/STIM_018.jpg	99
237.176	0.759	758.7	study	Phase1	study/STIM_018.jpg	100
240.303	1.188	1187.8	study	Phase1	study/STIM_019.jpg	99
244.764	0.846	845.6	study	Phase1	study/STIM_019.jpg	99
248.239	1.18	1179.9	study	Phase1	study/STIM_019.jpg	99
252.384	1.348	1348.0	study	Phase1	study/STIM_020.jpg	100
257.204	1.679	1678.7	study	Phase1	study/STIM_020.jpg	100
262.354	1.432	1432.1	study	Phase1	study/STIM_020.jpg	99
267.659	0.885	885.4	study	Phase1	study/STIM_021.jpg	100
270.845	1.422	1422.3	study	Phase1	study/STIM_021.jpg	100
275.859	0.781	780.9	study	Phase1	study/STIM_021.jpg	99
278.788	0.866	866.5	study	Phase1	study/STIM_022.jpg	99
283.698	0.92	919.9	study	Phase1	study/STIM_022.jpg	100
287.969	0.794	794.1	study	Phase1	study/STIM_022.jpg	100
292.841	1.358	1358.3	study	Phase1	study/STIM_023.jpg	100
297.769	0.751	751.0	study	Phase1	study/STIM_023.jpg	99
300.751	1.367	1366.6	study	Phase1	study/STIM_023.jpg	99
305.102	1.572	1571.5	study	Phase1	study/STIM_024.jpg	100
310.61	0.76	760.4	study	Phase1	study/STIM_024.jpg	100
314.309	1.464	1464.1	study	Phase1	study/STIM_024.jpg	99
319.545	0.842	842.4	study	Phase1	study/STIM_025.jpg	100
324.252	1.056	1055.6	study	Phase1	study/STIM_025.jpg	100
328.955	1.384	1384.4	study	Phase1	study/STIM_025.jpg	100
332.96	0.878	878.5	study	Phase1	study/STIM_026.jpg	100
336.05	0.815	814.7	study	Phase1	study/STIM_026.jpg	100
339.365	1.443	1442.8	study	Phase1	study/STIM_026.jpg	100
343.842	1.059	1058.9	study	Phase1	study/STIM_027.jpg	100
348.193	1.113	1113.2	study	Phase1	study/STIM_027.jpg	99
352.947	1.268	1267.6	study	Phase1	study/STIM_027.jpg	99
357.058	1.294	1294.3	study	Phase1	study/STIM_028.jpg	99
361.429	1.196	1196.2	study	Phase1	study/STIM_028.jpg	100
366.192	0.85	850.1	study	Phase1	study/STIM_028.jpg	100
370.335	1.641	1641.0	study	Phase1	study/STIM_029.jpg	100
374.805	1.105	1105.4	study	Phase1	study/STIM_029.jpg	99
379.471	1.073	1073.0	study	Phase1	study/STIM_029.jpg	99
384.035	0.978	978.2	test	Phase1	test/STIM_000.jpg	99
387.54	0.619	618.8	test	Phase1	test/STIM_000.jpg	100
391.339	0.94	939.6	test	Phase1	test/STIM_000.jpg	100
395.849	0.698	698.5	test	Phase1	test/STIM_001.jpg	99
400.337	0.833	832.6	test	Phase1	test/STIM_001.jpg	99
404.472	0.73	729.6	test	Phase1	test/STIM_001.jpg	100
409.094	0.644	643.9	test	Phase1	test/STIM_002.jpg	99
412.022	0.585	584.6	test	Phase1	test/STIM_002.jpg	100
415.392	0.927	926.6	test	Phase1	test/STIM_002.jpg	100
418.75	1.149	1149.1	test	Phase1	test/STIM_003.jpg	99
423.371	0.567	567.0	test	Phase1	test/STIM_003.jpg	100
426.18	0.903	902.9	test	Phase1	test/STIM_003.jpg	99
430.933	0.971	971.2	test	Phase1	test/STIM_004.jpg	99
435.123	0.731	731.2	test	Phase1	test/STIM_004.jpg	99
438.372	1.082	1082.5	test	Phase1	test/STIM_004.jpg	100
442.102	1.124	1124.2	test	Phase1	test/STIM_005.jpg	100
447.032	0.83	829.7	test	Phase1	test/STIM_005.jpg	99
450.568	0.889	889.3	test	Phase1	test/STIM_005.jpg	99
453.754	0.892	891.5	test	Phase1	test/STIM_006.jpg	99
457.793	1.088	1088.5	test	Phase1	test/STIM_006.jpg	99
461.409	1.217	1216.9	test	Phase1	test/STIM_006.jpg	99
465.375	0.871	871.2	test	Phase1	test/STIM_007.jpg	100
469.633	0.63	630.4	test	Phase1	test/STIM_007.jpg	100
473.084	0.648	647.7	test	Phase1	test/STIM_007.jpg	99
476.704	0.675	674.6	test	Phase1	test/STIM_008.jpg	99
479.72	0.678	677.9	test	Phase1	test/STIM_008.jpg	99
484.328	0.597	597.3	test	Phase1	test/STIM_008.jpg	99
488.439	0.954	953.8	test	Phase1	test/STIM_009.jpg	99
491.963	0.886	886.5	test	Phase1	test/STIM_009.jpg	100
496.315	0.869	869.3	test	Phase1	test/STIM_009.jpg	99
499.316	1.227	1227.0	test	Phase1	test/STIM_010.jpg	99
504.087	1.254	1253.9	test	Phase1	test/STIM_010.jpg	99
509.024	0.955	954.9	test	Phase1	test/STIM_010.jpg	99
512.838	1.079	1079.2	test	Phase1	test/STIM_011.jpg	99
516.612	0.908	908.5	test	Phase1	test/STIM_011.jpg	99
520.538	1.13	1129.9	test	Phase1	test/STIM_011.jpg	99
524.848	1.282	1282.5	test	Phase1	test/STIM_012.jpg	100
529.01	0.646	646.0	test	Phase1	test/STIM_012.jpg	100
532.87	0.804	803.6	test	Phase1	test/STIM_012.jpg	100
536.016	0.673	672.7	test	Phase1	test/STIM_013.jpg	99
540.446	1.151	1150.8	test	Phase1	test/STIM_013.jpg	99
544.012	0.934	933.8	test	Phase1	test/STIM_013.jpg	100
547.447	1.139	1139.3	test	Phase1	test/STIM_014.jpg	99
550.91	1.053	1052.6	test	Phase1	test/STIM_014.jpg	100
555.943	1.055	1055.2	test	Phase1	test/STIM_014.jpg	100
559.099	0.742	742.3	test	Phase1	test/STIM_015.jpg	100
563.022	0.908	907.5	test	Phase1	test/STIM_015.jpg	100
567.595	0.726	726.0	test	Phase1	test/STIM_015.jpg	100
570.493	1.04	1040.5	test	Phase1	test/STIM_016.jpg	100
574.44	1.045	1045.0	test	Phase1	test/STIM_016.jpg	99
578.904	0.533	533.4	test	Phase1	test/STIM_016.jpg	100
582.422	0.911	910.9	test	Phase1	test/STIM_017.jpg	99
586.98	1.153	1152.7	test	Phase1	test/STIM_017.jpg	100
591.16	1.098	1097.9	test	Phase1	test/STIM_017.jpg	99
596.331	0.865	864.6	test	Phase1	test/STIM_018.jpg	99
601.08	0.658	658.4	test	Phase1	test/STIM_018.jpg	99
604.19	0.917	916.8	test	Phase1	test/STIM_018.jpg	100
607.983	0.935	935.2	test	Phase1	test/STIM_019.jpg	100
611.431	1.167	1167.4	test	Phase1	test/STIM_019.jpg	99
615.691	0.957	956.7	test	Phase1	test/STIM_019.jpg	100
619.965	0.779	779.1	test	Phase1	test/STIM_020.jpg	100
623.437	1.199	1199.2	test	Phase1	test/STIM_020.jpg	99
627.206	0.751	751.2	test	Phase1	test/STIM_020.jpg	100
630.474	0.916	916.0	test	Phase1	test/STIM_021.jpg	100
635.346	0.959	959.2	test	Phase1	test/STIM_021.jpg	99
639.709	0.769	768.8	test	Phase1	test/STIM_021.jpg	100
643.023	0.774	773.7	test	Phase1	test/STIM_022.jpg	100
646.047	0.944	944.2	test	Phase1	test/STIM_022.jpg	100
650.351	1.134	1134.3	test	Phase1	test/STIM_022.jpg	99
654.321	0.748	748.0	test	Phase1	test/STIM_023.jpg	100
657.37	0.686	686.0	test	Phase1	test/STIM_023.jpg	100
660.651	0.83	829.5	test	Phase1	test/STIM_023.jpg	99
664.285	0.837	837.0	test	Phase1	test/STIM_024.jpg	99
667.738	1.128	1128.1	test	Phase1	test/STIM_024.jpg	99
671.304	0.838	838.3	test	Phase1	test/STIM_024.jpg	99
674.398	0.625	624.9	test	Phase1	test/STIM_025.jpg	100
678.257	0.754	754.1	test	Phase1	test/STIM_025.jpg	100
682.943	1.109	1109.3	test	Phase1	test/STIM_025.jpg	100
686.486	0.721	721.4	test	Phase1	test/STIM_026.jpg	100
690.357	0.906	905.7	test	Phase1	test/STIM_026.jpg	99
694.456	0.82	820.3	test	Phase1	test/STIM_026.jpg	99
698.37	0.657	657.4	test	Phase1	test/STIM_027.jpg	99
700.998	0.744	744.0	test	Phase1	test/STIM_027.jpg	99
704.485	0.615	615.3	test	Phase1	test/STIM_027.jpg	100
708.401	0.611	611.3	test	Phase1	test/STIM_028.jpg	100
711.618	1.203	1203.0	test	Phase1	test/STIM_028.jpg	100
715.334	0.604	604.0	test	Phase1	test/STIM_028.jpg	100
718.692	0.878	877.7	test	Phase1	test/STIM_029.jpg	99
722.365	0.723	723.1	test	Phase1	test/STIM_029.jpg	99
725.135	1.092	1091.7	test	Phase1	test/STIM_029.jpg	99
729.209	1.308	1307.6	study	Phase2	study/STIM_000.jpg	100
733.011	0.673	673.3	study	Phase2	study/STIM_000.jpg	99
737.622	1.058	1058.0	study	Phase2	study/STIM_000.jpg	100
741.225	1.112	1111.6	study	Phase2	study/STIM_001.jpg	100
745.916	1.032	1031.6	study	Phase2	study/STIM_001.jpg	99
750.091	0.721	721.3	study	Phase2	study/STIM_001.jpg	100
754.573	1.429	1429.4	study	Phase2	study/STIM_002.jpg	100
758.253	0.941	941.3	study	Phase2	study/STIM_002.jpg	99
762.861	1.165	1165.2	study	Phase2	study/STIM_002.jpg	99
766.535	1.198	1197.9	study	Phase2	study/STIM_003.jpg	100
769.861	1.02	1019.6	study	Phase2	study/STIM_003.jpg	99
774.705	0.732	732.4	study	Phase2	study/STIM_003.jpg	100
778.004	1.159	1159.1	study	Phase2	study/STIM_004.jpg	99
782.001	0.844	843.8	study	Phase2	study/STIM_004.jpg	99
785.347	1.084	1084.1	study	Phase2	study/STIM_004.jpg	99
790.265	0.732	731.9	study	Phase2	study/STIM_005.jpg	99
794.148	0.855	855.2	study	Phase2	study/STIM_005.jpg	100
797.138	0.955	954.7	study	Phase2	study/STIM_005.jpg	100
801.054	0.922	921.5	study	Phase2	study/STIM_006.jpg	100
805.994	0.818	818.5	study	Phase2	study/STIM_006.jpg	99
810.112	1.24	1240.3	study	Phase2	study/STIM_006.jpg	99
814.526	1.381	1380.7	study	Phase2	study/STIM_007.jpg	99
819.679	1.015	1015.3	study	Phase2	study/STIM_007.jpg	99
823.484	0.828	827.7	study	Phase2	study/STIM_007.jpg	99
826.641	1.129	1129.0	study	Phase2	study/STIM_008.jpg	100
831.789	1.299	1298.6	study	Phase2	study/STIM_008.jpg	99
836.573	0.808	808.0	study	Phase2	study/STIM_008.jpg	99
839.755	0.931	931.0	study	Phase2	study/STIM_009.jpg	100
843.555	1.28	1280.3	study	Phase2	study/STIM_009.jpg	99
848.672	0.605	605.0	study	Phase2	study/STIM_009.jpg	100
853.335	1.109	1109.1	study	Phase2	study/STIM_010.jpg	99
856.576	0.781	780.9	study	Phase2	study/STIM_010.jpg	100
861.343	0.928	927.7	study	Phase2	study/STIM_010.jpg	100
864.428	0.908	908.1	study	Phase2	study/STIM_011.jpg	100
868.947	0.988	988.4	study	Phase2	study/STIM_011.jpg	100
872.275	1.122	1121.5	study	Phase2	study/STIM_011.jpg	100
876.346	1.292	1291.5	study	Phase2	study/STIM_012.jpg	100
880.646	0.764	764.5	study	Phase2	study/STIM_012.jpg	99
884.817	0.633	633.2	study	Phase2	study/STIM_012.jpg	99
888.386	0.762	761.7	study	Phase2	study/STIM_013.jpg	100
892.901	1.078	1078.2	study	Phase2	study/STIM_013.jpg	100
896.116	0.814	814.1	study	Phase2	study/STIM_013.jpg	99
899.644	0.734	734.4	study	Phase2	study/STIM_014.jpg	100
903.967	1.275	1275.1	study	Phase2	study/STIM_014.jpg	100
907.96	1.2	1200.5	study	Phase2	study/STIM_014.jpg	99
911.977	1.395	1394.8	study	Phase2	study/STIM_015.jpg	100
915.658	0.864	864.4	study	Phase2	study/STIM_015.jpg	100
919.211	0.942	941.6	study	Phase2	study/STIM_015.jpg	99
924.002	1.245	1245.4	study	Phase2	study/STIM_016.jpg	99
928.64	0.677	676.7	study	Phase2	study/STIM_016.jpg	100
932.475	1.17	1169.9	study	Phase2	study/STIM_016.jpg	99
936.505	1.422	1422.5	study	Phase2	study/STIM_017.jpg	99
941.643	0.988	988.2	study	Phase2	study/STIM_017.jpg	99
945.615	0.539	539.3	study	Phase2	study/STIM_017.jpg	100
948.764	1.45	1449.8	study	Phase2	study/STIM_018.jpg	100
953.151	1.29	1289.9	study	Phase2	study/STIM_018.jpg	100
956.854	1.119	1119.1	study	Phase2	study/STIM_018.jpg	99
960.252	0.577	577.2	study	Phase2	study/STIM_019.jpg	100
963.798	1.147	1147.3	study	Phase2	study/STIM_019.jpg	99
968.758	1.005	1005.1	study	Phase2	study/STIM_019.jpg	100
972.294	1.454	1454.0	study	Phase2	study/STIM_020.jpg	99
976.157	1.077	1076.8	study	Phase2	study/STIM_020.jpg	99
980.84	1.213	1213.2	study	Phase2	study/STIM_020.jpg	99
985.027	1.356	1355.9	study	Phase2	study/STIM_021.jpg	100
988.532	0.753	752.7	study	Phase2	study/STIM_021.jpg	99
991.801	0.943	943.1	study	Phase2	study/STIM_021.jpg	100
995.09	0.943	943.3	study	Phase2	study/STIM_022.jpg	99
999.326	1.317	1317.4	study	Phase2	study/STIM_022.jpg	100
1003.919	0.537	536.7	study	Phase2	study/STIM_022.jpg	99
1007.723	0.926	926.4	study	Phase2	study/STIM_023.jpg	100
1012.033	1.106	1106.0	study	Phase2	study/STIM_023.jpg	99
1016.171	0.891	890.9	study	Phase2	study/STIM_023.jpg	99
1020.765	1.383	1382.6	study	Phase2	study/STIM_024.jpg	100
1025.461	0.958	957.8	study	Phase2	study/STIM_024.jpg	100
1029.384	1.143	1142.7	study	Phase2	study/STIM_024.jpg	99
1033.167	1.347	1347.3	study	Phase2	study/STIM_025.jpg	100
1038.398	1.169	1169.4	study	Phase2	study/STIM_025.jpg	99
1042.927	0.851	850.7	study	Phase2	study/STIM_025.jpg	99
1047.101	0.839	838.7	study	Phase2	study/STIM_026.jpg	99
1050.548	0.855	855.3	study	Phase2	study/STIM_026.jpg	99
1055.423	1.03	1030.0	study	Phase2	study/STIM_026.jpg	99
1058.595	1.424	1423.6	study	Phase2	study/STIM_027.jpg	100
1063.248	1.163	1163.2	study	Phase2	study/STIM_027.jpg	99
1067.92	0.866	865.5	study	Phase2	study/STIM_027.jpg	99
1072.609	0.645	644.8	study	Phase2	study/STIM_028.jpg	99
1076.887	1.04	1040.3	study	Phase2	study/STIM_028.jpg	99
1081.797	1.144	1143.5	study	Phase2	study/STIM_028.jpg	100
1085.83	0.825	825.0	study	Phase2	study/STIM_029.jpg	100
1090.077	1.28	1280.4	study	Phase2	study/STIM_029.jpg	99
1093.907	1.19	1190.1	study	Phase2	study/STIM_029.jpg	99
1097.868	0.576	575.7	test	Phase2	test/STIM_000.jpg	99
1101.504	0.951	951.1	test	Phase2	test/STIM_000.jpg	99
1105.803	0.651	651.4	test	Phase2	test/STIM_000.jpg	99
1109.69	0.87	869.7	test	Phase2	test/STIM_001.jpg	100
1113.724	0.738	738.3	test	Phase2	test/STIM_001.jpg	100
1117.555	0.541	540.9	test	Phase2	test/STIM_001.jpg	99
1121.926	0.814	814.0	test	Phase2	test/STIM_002.jpg	100
1124.882	0.711	710.8	test	Phase2	test/STIM_002.jpg	99
1128.321	0.636	635.9	test	Phase2	test/STIM_002.jpg	99
1132.023	1.202	1201.6	test	Phase2	test/STIM_003.jpg	99
1137.138	0.648	648.1	test	Phase2	test/STIM_003.jpg	100
1140.159	0.847	846.6	test	Phase2	test/STIM_003.jpg	100
1144.801	0.562	562.5	test	Phase2	test/STIM_004.jpg	100
1148.179	0.826	825.9	test	Phase2	test/STIM_004.jpg	100
1152.239	0.694	694.0	test	Phase2	test/STIM_004.jpg	99
1156.689	0.944	944.3	test	Phase2	test/STIM_005.jpg	99
1160.798	0.586	586.0	test	Phase2	test/STIM_005.jpg	99
1164.747	0.666	666.3	test	Phase2	test/STIM_005.jpg	99
1168.181	1.034	1033.9	test	Phase2	test/STIM_006.jpg	100
1172.866	1.116	1116.5	test	Phase2	test/STIM_006.jpg	100
1177.137	0.841	840.6	test	Phase2	test/STIM_006.jpg	100
1181.233	0.703	703.4	test	Phase2	test/STIM_007.jpg	99
1185.405	0.841	840.8	test	Phase2	test/STIM_007.jpg	100
1188.743	0.6	599.6	test	Phase2	test/STIM_007.jpg	100
1192.133	0.878	877.7	test	Phase2	test/STIM_008.jpg	100
1196.972	0.755	754.6	test	Phase2	test/STIM_008.jpg	99
1200.538	0.843	843.0	test	Phase2	test/STIM_008.jpg	100
1204.366	0.624	624.2	test	Phase2	test/STIM_009.jpg	100
1207.785	0.655	655.4	test	Phase2	test/STIM_009.jpg	100
1211.195	0.951	951.0	test	Phase2	test/STIM_009.jpg	100
1215.125	0.67	670.3	test	Phase2	test/STIM_010.jpg	99
1218.193	0.909	909.2	test	Phase2	test/STIM_010.jpg	100
1221.298	0.951	951.4	test	Phase2	test/STIM_010.jpg	100
1225.232	0.789	789.3	test	Phase2	test/STIM_011.jpg	99
1229.742	0.885	885.0	test	Phase2	test/STIM_011.jpg	100
1234.272	0.895	895.1	test	Phase2	test/STIM_011.jpg	99
1237.37	1.184	1184.3	test	Phase2	test/STIM_012.jpg	99
1241.134	0.875	875.4	test	Phase2	test/STIM_012.jpg	99
1245.872	0.92	920.0	test	Phase2	test/STIM_012.jpg	99
1249.77	1.194	1194.1	test	Phase2	test/STIM_013.jpg	100
1254.324	0.872	871.9	test	Phase2	test/STIM_013.jpg	99
1258.616	0.898	897.6	test	Phase2	test/STIM_013.jpg	100
1263.249	1.195	1195.3	test	Phase2	test/STIM_014.jpg	100
1267.601	0.982	981.6	test	Phase2	test/STIM_014.jpg	100
1272.431	0.916	915.5	test	Phase2	test/STIM_014.jpg	99
1275.718	1.095	1095.4	test	Phase2	test/STIM_015.jpg	99
1280.345	1.019	1019.2	test	Phase2	test/STIM_015.jpg	100
1285.223	0.806	806.5	test	Phase2	test/STIM_015.jpg	100
1288.652	0.669	669.1	test	Phase2	test/STIM_016.jpg	99
1292.345	0.839	839.0	test	Phase2	test/STIM_016.jpg	100
1297.172	0.864	863.7	test	Phase2	test/STIM_016.jpg	100
1301.577	0.813	813.3	test	Phase2	test/STIM_017.jpg	99
1306.228	0.7	700.5	test	Phase2	test/STIM_017.jpg	99
1310.012	0.895	894.8	test	Phase2	test/STIM_017.jpg	99
1313.176	1.205	1205.3	test	Phase2	test/STIM_018.jpg	99
1317.726	0.966	965.8	test	Phase2	test/STIM_018.jpg	99
1322.295	0.94	939.8	test	Phase2	test/STIM_018.jpg	99
1326.199	1.126	1125.8	test	Phase2	test/STIM_019.jpg	99
1330.991	1.022	1022.1	test	Phase2	test/STIM_019.jpg	99
1335.294	0.558	558.3	test	Phase2	test/STIM_019.jpg	99
1339.455	0.745	745.3	test	Phase2	test/STIM_020.jpg	100
1344.165	1.114	1113.9	test	Phase2	test/STIM_020.jpg	99
1348.525	1.277	1277.3	test	Phase2	test/STIM_020.jpg	100
1352.073	0.971	971.1	test	Phase2	test/STIM_021.jpg	100
1355.413	0.805	805.3	test	Phase2	test/STIM_021.jpg	99
1358.911	0.604	603.8	test	Phase2	test/STIM_021.jpg	99
1363.495	0.974	974.2	test	Phase2	test/STIM_022.jpg	100
1368.311	0.594	593.5	test	Phase2	test/STIM_022.jpg	99
1371.254	0.867	867.1	test	Phase2	test/STIM_022.jpg	99
1374.374	1.167	1166.8	test	Phase2	test/STIM_023.jpg	99
1378.257	1.184	1184.5	test	Phase2	test/STIM_023.jpg	100
1382.781	0.593	593.0	test	Phase2	test/STIM_023.jpg	99
1386.885	0.99	989.9	test	Phase2	test/STIM_024.jpg	99
1391.175	1.154	1153.6	test	Phase2	test/STIM_024.jpg	100
1396.103	1.135	1134.7	test	Phase2	test/STIM_024.jpg	99
1400.714	1.064	1063.5	test	Phase2	test/STIM_025.jpg	99
1404.291	1.066	1066.4	test	Phase2	test/STIM_025.jpg	100
1409.21	1.123	1122.6	test	Phase2	test/STIM_025.jpg	99
1413.19	1.04	1040.0	test	Phase2	test/STIM_026.jpg	99
1418.098	0.621	621.1	test	Phase2	test/STIM_026.jpg	99
1422.31	0.998	997.5	test	Phase2	test/STIM_026.jpg	99
1427.342	1.194	1193.6	test	Phase2	test/STIM_027.jpg	100
1431.736	1.011	1011.2	test	Phase2	test/STIM_027.jpg	100
1435.763	0.671	670.6	test	Phase2	test/STIM_027.jpg	100
1439.415	0.775	775.4	test	Phase2	test/STIM_028.jpg	100
1443.273	1.218	1218.3	test	Phase2	test/STIM_028.jpg	100
1446.803	1.026	1026.2	test	Phase2	test/STIM_028.jpg	100
1450.98	1.23	1229.6	test	Phase2	test/STIM_029.jpg	99
1455.884	0.911	910.8	test	Phase2	test/STIM_029.jpg	100
1459.293	1.119	1119.0	test	Phase2	test/STIM_029.jpg	99
1463.596	1.161	1161.2	study	Phase3	study/STIM_000.jpg	100
1468.564	1.068	1067.8	study	Phase3	study/STIM_000.jpg	100
1472.042	0.948	947.6	study	Phase3	study/STIM_000.jpg	99
1475.257	0.977	977.1	study	Phase3	study/STIM_001.jpg	100
1478.6	0.891	890.7	study	Phase3	study/STIM_001.jpg	99
1482.668	1.005	1005.2	study	Phase3	study/STIM_001.jpg	99
1487.081	0.938	937.9	study	Phase3	study/STIM_002.jpg	99
1491.475	0.962	961.5	study	Phase3	study/STIM_002.jpg	99
1495.394	0.804	804.2	study	Phase3	study/STIM_002.jpg	100
1500.211	0.687	687.1	study	Phase3	study/STIM_003.jpg	100
1503.685	0.992	992.1	study	Phase3	study/STIM_003.jpg	100
1507.632	0.544	544.2	study	Phase3	study/STIM_003.jpg	100
1511.132	0.742	742.4	study	Phase3	study/STIM_004.jpg	100
1515.596	0.951	950.6	study	Phase3	study/STIM_004.jpg	99
1518.83	0.93	930.3	study	Phase3	study/STIM_004.jpg	100
1523.663	1.2	1199.6	study	Phase3	study/STIM_005.jpg	99
1528.206	0.654	653.5	study	Phase3	study/STIM_005.jpg	99
1531.502	1.081	1081.4	study	Phase3	study/STIM_005.jpg	99
1534.918	0.79	790.1	study	Phase3	study/STIM_006.jpg	100
1539.501	1.042	1042.4	study	Phase3	study/STIM_006.jpg	99
1542.701	0.611	610.7	study	Phase3	study/STIM_006.jpg	100
1546.366	0.604	603.7	study	Phase3	study/STIM_007.jpg	100
1549.426	0.502	502.3	study	Phase3	study/STIM_007.jpg	100
1552.438	0.733	733.2	study	Phase3	study/STIM_007.jpg	99
1555.944	0.647	647.0	study	Phase3	study/STIM_008.jpg	100
1559.43	1.199	1199.4	study	Phase3	study/STIM_008.jpg	99
1563.69	0.74	739.6	study	Phase3	study/STIM_008.jpg	99
1567.973	0.804	803.8	study	Phase3	study/STIM_009.jpg	99
1572.419	1.098	1098.4	study	Phase3	study/STIM_009.jpg	99
1576.322	1.166	1166.0	study	Phase3	study/STIM_009.jpg	100
1580.056	0.629	628.7	study	Phase3	study/STIM_010.jpg	99
1583.896	0.561	561.2	study	Phase3	study/STIM_010.jpg	99
1587.563	0.611	611.4	study	Phase3	study/STIM_010.jpg	100
1591.923	0.867	867.4	study	Phase3	study/STIM_011.jpg	100
1595.486	0.983	983.0	study	Phase3	study/STIM_011.jpg	99
1599.793	1.116	1116.1	study	Phase3	study/STIM_011.jpg	99
1603.167	1.157	1157.3	study	Phase3	study/STIM_012.jpg	99
1606.653	0.854	854.3	study	Phase3	study/STIM_012.jpg	99
1611.196	1.01	1009.6	study	Phase3	study/STIM_012.jpg	100
1614.615	1.084	1083.9	study	Phase3	study/STIM_013.jpg	99
1618.828	0.714	714.0	study	Phase3	study/STIM_013.jpg	99
1621.913	0.861	861.3	study	Phase3	study/STIM_013.jpg	99
1626.149	0.507	507.1	study	Phase3	study/STIM_014.jpg	100
1629.505	0.664	664.0	study	Phase3	study/STIM_014.jpg	99
1632.978	0.527	527.4	study	Phase3	study/STIM_014.jpg	100
1636.275	1.146	1146.5	study	Phase3	study/STIM_015.jpg	99
1641.167	0.49	489.6	study	Phase3	study/STIM_015.jpg	99
1644.106	0.616	615.8	study	Phase3	study/STIM_015.jpg	99
1647.883	1.142	1142.1	study	Phase3	study/STIM_016.jpg	100
1652.087	0.923	923.3	study	Phase3	study/STIM_016.jpg	100
1655.877	0.543	542.9	study	Phase3	study/STIM_016.jpg	99
1658.919	0.93	929.9	study	Phase3	study/STIM_017.jpg	100
1662.2	0.715	714.8	study	Phase3	study/STIM_017.jpg	100
1666.5	0.636	636.1	study	Phase3	study/STIM_017.jpg	99
1669.875	0.781	780.8	study	Phase3	study/STIM_018.jpg	100
1674.387	0.914	914.2	study	Phase3	study/STIM_018.jpg	100
1679.257	0.815	814.8	study	Phase3	study/STIM_018.jpg	100
1682.611	0.729	729.0	study	Phase3	study/STIM_019.jpg	99
1686.921	0.628	628.5	study	Phase3	study/STIM_019.jpg	100
1691.531	0.99	989.7	study	Phase3	study/STIM_019.jpg	99
1695.966	0.989	988.7	study	Phase3	study/STIM_020.jpg	100
1699.173	0.599	598.9	study	Phase3	study/STIM_020.jpg	99
1703.023	0.579	578.8	study	Phase3	study/STIM_020.jpg	100
1705.933	0.724	724.2	study	Phase3	study/STIM_021.jpg	100
1710.286	1.168	1167.9	study	Phase3	study/STIM_021.jpg	100
1714.922	1.078	1078.4	study	Phase3	study/STIM_021.jpg	100
1719.619	0.997	996.8	study	Phase3	study/STIM_022.jpg	100
1723.177	0.958	958.4	study	Phase3	study/STIM_022.jpg	99
1726.826	0.54	540.2	study	Phase3	study/STIM_022.jpg	100
1730.148	0.815	814.6	study	Phase3	study/STIM_023.jpg	99
1733.779	0.843	843.0	study	Phase3	study/STIM_023.jpg	100
1736.991	1.052	1051.5	study	Phase3	study/STIM_023.jpg	100
1741.574	0.939	939.3	study	Phase3	study/STIM_024.jpg	100
1745.451	0.824	824.4	study	Phase3	study/STIM_024.jpg	99
1749.365	1.048	1047.5	study	Phase3	study/STIM_024.jpg	100
1753.583	0.82	820.5	study	Phase3	study/STIM_025.jpg	100
1756.807	0.982	982.0	study	Phase3	study/STIM_025.jpg	100
1760.106	1.086	1086.4	study	Phase3	study/STIM_025.jpg	100
1764.741	1.054	1053.8	study	Phase3	study/STIM_026.jpg	100
1769.787	0.769	769.0	study	Phase3	study/STIM_026.jpg	99
1774.117	0.775	774.6	study	Phase3	study/STIM_026.jpg	100
1777.333	0.778	777.8	study	Phase3	study/STIM_027.jpg	100
1780.595	1.088	1087.5	study	Phase3	study/STIM_027.jpg	99
1784.901	0.582	582.1	study	Phase3	study/STIM_027.jpg	100
1789.027	1.018	1017.8	study	Phase3	study/STIM_028.jpg	100
1792.5	0.709	709.3	study	Phase3	study/STIM_028.jpg	99
1795.4	0.744	743.7	study	Phase3	study/STIM_028.jpg	99
1799.495	0.628	627.5	study	Phase3	study/STIM_029.jpg	100
1803.992	0.954	953.7	study	Phase3	study/STIM_029.jpg	99
1807.628	0.73	729.6	study	Phase3	study/STIM_029.jpg	100
1810.735	0.686	686.3	test	Phase3	test/STIM_000.jpg	100
1814.68	0.752	752.3	test	Phase3	test/STIM_000.jpg	99
1819.175	0.517	516.8	test	Phase3	test/STIM_000.jpg	100
1821.987	0.813	813.0	test	Phase3	test/STIM_001.jpg	100
1826.119	1.051	1051.1	test	Phase3	test/STIM_001.jpg	100
1830.778	1.117	1117.1	test	Phase3	test/STIM_001.jpg	99
1835.378	0.81	809.8	test	Phase3	test/STIM_002.jpg	99
1838.211	1.054	1053.9	test	Phase3	test/STIM_002.jpg	100
1841.657	1.179	1179.1	test	Phase3	test/STIM_002.jpg	99
1846.406	1.089	1089.1	test	Phase3	test/STIM_003.jpg	100
1850.404	0.739	739.0	test	Phase3	test/STIM_003.jpg	99
1854.286	1.13	1130.5	test	Phase3	test/STIM_003.jpg	100
1858.183	0.787	786.8	test	Phase3	test/STIM_004.jpg	100
1862.938	0.675	675.3	test	Phase3	test/STIM_004.jpg	100
1866.902	0.758	758.1	test	Phase3	test/STIM_004.jpg	99
1870.593	0.794	793.8	test	Phase3	test/STIM_005.jpg	99
1874.439	1.19	1189.9	test	Phase3	test/STIM_005.jpg	99
1877.919	0.564	563.6	test	Phase3	test/STIM_005.jpg	99
1881.007	1.082	1082.0	test	Phase3	test/STIM_006.jpg	99
1885.185	0.97	969.8	test	Phase3	test/STIM_006.jpg	99
1889.193	0.757	757.3	test	Phase3	test/STIM_006.jpg	100
1893.716	1.146	1145.6	test	Phase3	test/STIM_007.jpg	99
1897.081	0.786	785.6	test	Phase3	test/STIM_007.jpg	99
1901.428	0.927	926.7	test	Phase3	test/STIM_007.jpg	99
1906.048	0.611	611.1	test	Phase3	test/STIM_008.jpg	99
1910.101	0.93	930.4	test	Phase3	test/STIM_008.jpg	100
1913.283	0.529	529.2	test	Phase3	test/STIM_008.jpg	100
1916.199	0.829	829.1	test	Phase3	test/STIM_009.jpg	100
1920.177	1.131	1131.1	test	Phase3	test/STIM_009.jpg	100
1923.56	0.535	535.2	test	Phase3	test/STIM_009.jpg	100
1928.112	1.066	1066.1	test	Phase3	test/STIM_010.jpg	100
1932.875	1.065	1065.2	test	Phase3	test/STIM_010.jpg	99
1937.878	0.567	567.2	test	Phase3	test/STIM_010.jpg	100
1941.03	0.718	717.5	test	Phase3	test/STIM_011.jpg	99
1945.065	1.26	1260.1	test	Phase3	test/STIM_011.jpg	100
1949.384	0.825	825.2	test	Phase3	test/STIM_011.jpg	99
1953.26	0.786	785.6	test	Phase3	test/STIM_012.jpg	99
1957.15	0.876	876.1	test	Phase3	test/STIM_012.jpg	100
1961.346	0.576	576.3	test	Phase3	test/STIM_012.jpg	99
1965.554	1.027	1027.3	test	Phase3	test/STIM_013.jpg	99
1968.85	0.694	694.1	test	Phase3	test/STIM_013.jpg	99
1972.218	0.809	808.9	test	Phase3	test/STIM_013.jpg	99
1976.984	0.645	644.6	test	Phase3	test/STIM_014.jpg	100
1980.178	1.143	1143.4	test	Phase3	test/STIM_014.jpg	99
1984.302	1.279	1278.6	test	Phase3	test/STIM_014.jpg	99
1987.95	0.497	497.2	test	Phase3	test/STIM_015.jpg	100
1992.554	1.238	1237.7	test	Phase3	test/STIM_015.jpg	100
1995.956	0.692	691.5	test	Phase3	test/STIM_015.jpg	99
2000.234	0.946	946.3	test	Phase3	test/STIM_016.jpg	99
2004.481	0.878	878.0	test	Phase3	test/STIM_016.jpg	99
2008.863	0.875	875.4	test	Phase3	test/STIM_016.jpg	99
2011.978	0.932	931.8	test	Phase3	test/STIM_017.jpg	100
2016.74	0.971	971.0	test	Phase3	test/STIM_017.jpg	99
2020.966	1.007	1007.3	test	Phase3	test/STIM_017.jpg	99
2025.516	0.616	616.5	test	Phase3	test/STIM_018.jpg	100
2028.504	0.988	988.3	test	Phase3	test/STIM_018.jpg	99
2032.749	1.07	1070.1	test	Phase3	test/STIM_018.jpg	100
2037.18	0.885	884.6	test	Phase3	test/STIM_019.jpg	100
2042.045	0.736	735.7	test	Phase3	test/STIM_019.jpg	99
2045.923	0.908	907.9	test	Phase3	test/STIM_019.jpg	100
2049.874	1.162	1162.1	test	Phase3	test/STIM_020.jpg	99
2054.999	0.817	816.8	test	Phase3	test/STIM_020.jpg	100
2058.442	1.24	1240.5	test	Phase3	test/STIM_020.jpg	100
2062.017	1.133	1132.9	test	Phase3	test/STIM_021.jpg	100
2066.889	0.707	706.9	test	Phase3	test/STIM_021.jpg	99
2070.883	1.136	1135.6	test	Phase3	test/STIM_021.jpg	100
2074.851	0.702	701.9	test	Phase3	test/STIM_022.jpg	99
2078.241	0.749	748.7	test	Phase3	test/STIM_022.jpg	100
2081.981	1.017	1017.3	test	Phase3	test/STIM_022.jpg	100
2085.44	0.612	612.1	test	Phase3	test/STIM_023.jpg	100
2089.897	1.121	1120.8	test	Phase3	test/STIM_023.jpg	100
2093.264	1.058	1057.6	test	Phase3	test/STIM_023.jpg	99
2097.825	0.549	549.1	test	Phase3	test/STIM_024.jpg	99
2100.937	1.143	1143.1	test	Phase3	test/STIM_024.jpg	100
2106.029	1.178	1177.7	test	Phase3	test/STIM_024.jpg	99
2109.937	0.807	807.3	test	Phase3	test/STIM_025.jpg	100
2114.527	0.74	739.7	test	Phase3	test/STIM_025.jpg	100
2117.585	0.583	582.6	test	Phase3	test/STIM_025.jpg	99
2120.996	0.791	790.6	test	Phase3	test/STIM_026.jpg	100
2123.879	1.119	1119.1	test	Phase3	test/STIM_026.jpg	100
2127.319	1.249	1248.8	test	Phase3	test/STIM_026.jpg	100
2130.586	0.974	974.2	test	Phase3	test/STIM_027.jpg	99
2135.449	1.113	1113.2	test	Phase3	test/STIM_027.jpg	100
2140.586	0.926	925.5	test	Phase3	test/STIM_027.jpg	100
2144.635	1.199	1199.3	test	Phase3	test/STIM_028.jpg	100
2148.681	0.922	922.1	test	Phase3	test/STIM_028.jpg	100
2153.406	0.584	584.5	test	Phase3	test/STIM_028.jpg	99
2156.503	0.86	859.8	test	Phase3	test/STIM_029.jpg	99
2160.216	0.985	985.3	test	Phase3	test/STIM_029.jpg	100
2163.418	0.862	862.4	test	Phase3	test/STIM_029.jpg	100
