onset	duration	accuracy_binary	trial_type	learning_stage	stimulus	coherence
0.000	13.270	1	learning	LS1	PICTURE_43.jpg	i
13.270	9.984	1	learning	LS1	PICTURE_247.jpg	c
23.254	11.017	1	learning	LS1	PICTURE_43.jpg	c
34.271	16.367	1	learning	LS1	PICTURE_610.jpg	c
50.638	10.684	1	learning	LS1	PICTURE_247.jpg	i
61.322	14.115	1	learning	LS1	PICTURE_741.jpg	i
75.437	13.708	0	learning	LS1	PICTURE_599.jpg	i
89.145	15.867	0	learning	LS1	PICTURE_610.jpg	i
105.012	8.750	1	learning	LS1	PICTURE_741.jpg	c
113.762	10.909	1	learning	LS1	PICTURE_599.jpg	c
124.671	11.569	1	learning	LS2	PICTURE_247.jpg	c
136.240	12.607	1	learning	LS2	PICTURE_599.jpg	i
148.847	8.202	1	learning	LS2	PICTURE_610.jpg	c
157.049	12.420	1	learning	LS2	PICTURE_247.jpg	i
169.469	9.121	1	learning	LS2	PICTURE_43.jpg	c
178.590	8.220	1	learning	LS2	PICTURE_741.jpg	i
186.810	8.600	1	learning	LS2	PICTURE_610.jpg	i
195.410	7.707	1	learning	LS2	PICTURE_599.jpg	c
203.117	9.523	1	learning	LS2	PICTURE_43.jpg	i
212.640	10.868	1	learning	LS2	PICTURE_741.jpg	c
223.508	10.401	1	learning	LS3	PICTURE_247.jpg	c
233.909	7.115	1	learning	LS3	PICTURE_599.jpg	c
241.024	7.348	1	learning	LS3	PICTURE_741.jpg	i
248.372	8.061	1	learning	LS3	PICTURE_610.jpg	i
256.433	12.612	1	learning	LS3	PICTURE_599.jpg	i
269.045	16.364	1	learning	LS3	PICTURE_43.jpg	i
285.409	7.007	1	learning	LS3	PICTURE_247.jpg	i
292.416	7.727	1	learning	LS3	PICTURE_741.jpg	c
300.143	7.488	1	learning	LS3	PICTURE_610.jpg	c
307.631	10.440	1	learning	LS3	PICTURE_43.jpg	c
318.071	8.379	1	learning	LS4	PICTURE_247.jpg	i
326.450	9.253	1	learning	LS4	PICTURE_599.jpg	c
335.703	7.094	1	learning	LS4	PICTURE_43.jpg	c
342.797	7.973	1	learning	LS4	PICTURE_741.jpg	i
350.770	10.126	1	learning	LS4	PICTURE_43.jpg	i
360.896	7.300	1	learning	LS4	PICTURE_741.jpg	c
368.196	7.520	1	learning	LS4	PICTURE_610.jpg	c
375.716	8.699	1	learning	LS4	PICTURE_247.jpg	c
384.415	8.120	1	learning	LS4	PICTURE_610.jpg	i
392.535	6.580	1	learning	LS4	PICTURE_599.jpg	i
399.115	11.458	0	learning	LS1	PICTURE_235.jpg	i
410.573	8.653	1	learning	LS1	PICTURE_23.jpg	c
419.226	14.003	1	learning	LS1	PICTURE_297.jpg	i
433.229	11.998	0	learning	LS1	PICTURE_746.jpg	i
445.227	11.271	1	learning	LS1	PICTURE_720.jpg	c
456.498	15.670	1	learning	LS1	PICTURE_23.jpg	i
472.168	8.073	0	learning	LS1	PICTURE_720.jpg	i
480.241	8.154	1	learning	LS1	PICTURE_746.jpg	c
488.395	10.625	1	learning	LS1	PICTURE_297.jpg	c
499.020	8.945	1	learning	LS1	PICTURE_235.jpg	c
507.965	11.197	1	learning	LS2	PICTURE_235.jpg	i
519.162	6.639	1	learning	LS2	PICTURE_297.jpg	i
525.801	7.991	1	learning	LS2	PICTURE_720.jpg	c
533.792	11.103	0	learning	LS2	PICTURE_746.jpg	i
544.895	8.284	1	learning	LS2	PICTURE_235.jpg	c
553.179	8.823	1	learning	LS2	PICTURE_23.jpg	c
562.002	7.764	1	learning	LS2	PICTURE_297.jpg	c
569.766	12.143	0	learning	LS2	PICTURE_720.jpg	i
581.909	13.009	1	learning	LS2	PICTURE_23.jpg	i
594.918	8.758	1	learning	LS2	PICTURE_746.jpg	c
603.676	6.205	1	learning	LS3	PICTURE_235.jpg	c
609.881	8.038	1	learning	LS3	PICTURE_720.jpg	c
617.919	10.511	1	learning	LS3	PICTURE_23.jpg	i
628.430	6.905	1	learning	LS3	PICTURE_297.jpg	c
635.335	7.779	1	learning	LS3	PICTURE_23.jpg	c
643.114	9.771	1	learning	LS3	PICTURE_720.jpg	i
652.885	7.613	1	learning	LS3	PICTURE_235.jpg	i
660.498	9.126	1	learning	LS3	PICTURE_746.jpg	c
669.624	6.806	1	learning	LS3	PICTURE_297.jpg	i
676.430	7.846	1	learning	LS3	PICTURE_746.jpg	i
684.276	12.184	1	learning	LS4	PICTURE_23.jpg	i
696.460	12.258	1	learning	LS4	PICTURE_297.jpg	c
708.718	9.939	1	learning	LS4	PICTURE_746.jpg	i
718.657	7.620	1	learning	LS4	PICTURE_23.jpg	c
726.277	7.053	1	learning	LS4	PICTURE_720.jpg	c
733.330	7.133	1	learning	LS4	PICTURE_235.jpg	i
740.463	8.472	1	learning	LS4	PICTURE_720.jpg	i
748.935	8.052	1	learning	LS4	PICTURE_297.jpg	i
756.987	6.992	1	learning	LS4	PICTURE_235.jpg	c
763.979	6.252	1	learning	LS4	PICTURE_746.jpg	c
770.231	14.470	1	learning	LS1	PICTURE_594.jpg	i
784.701	18.381	0	learning	LS1	PICTURE_52.jpg	i
803.082	10.457	1	learning	LS1	PICTURE_576.jpg	c
813.539	6.692	1	learning	LS1	PICTURE_594.jpg	c
820.231	8.852	1	learning	LS1	PICTURE_52.jpg	c
829.083	15.483	1	learning	LS1	PICTURE_581.jpg	i
844.566	10.918	1	learning	LS1	PICTURE_605.jpg	c
855.484	8.912	0	learning	LS1	PICTURE_576.jpg	i
864.396	9.311	1	learning	LS1	PICTURE_581.jpg	c
873.707	13.870	0	learning	LS1	PICTURE_605.jpg	i
887.577	7.326	1	learning	LS2	PICTURE_52.jpg	c
894.903	7.567	1	learning	LS2	PICTURE_581.jpg	c
902.470	6.681	1	learning	LS2	PICTURE_605.jpg	c
909.151	13.638	0	learning	LS2	PICTURE_52.jpg	i
922.789	9.713	1	learning	LS2	PICTURE_594.jpg	i
932.502	12.492	1	learning	LS2	PICTURE_581.jpg	i
944.994	11.433	1	learning	LS2	PICTURE_594.jpg	c
956.427	14.053	0	learning	LS2	PICTURE_576.jpg	i
970.480	13.953	1	learning	LS2	PICTURE_605.jpg	i
984.433	11.294	1	learning	LS2	PICTURE_576.jpg	c
995.727	7.461	1	learning	LS3	PICTURE_581.jpg	c
1003.188	10.095	1	learning	LS3	PICTURE_576.jpg	c
1013.283	6.969	1	learning	LS3	PICTURE_605.jpg	i
1020.252	9.921	1	learning	LS3	PICTURE_594.jpg	i
1030.173	10.314	1	learning	LS3	PICTURE_581.jpg	i
1040.487	7.508	1	learning	LS3	PICTURE_52.jpg	c
1047.995	7.580	1	learning	LS3	PICTURE_576.jpg	i
1055.575	6.845	1	learning	LS3	PICTURE_594.jpg	c
1062.420	11.724	0	learning	LS3	PICTURE_52.jpg	i
1074.144	7.799	1	learning	LS3	PICTURE_605.jpg	c
1081.943	7.180	1	learning	LS4	PICTURE_594.jpg	i
1089.123	10.298	1	learning	LS4	PICTURE_581.jpg	i
1099.421	8.460	1	learning	LS4	PICTURE_605.jpg	i
1107.881	7.100	1	learning	LS4	PICTURE_581.jpg	c
1114.981	9.259	1	learning	LS4	PICTURE_576.jpg	c
1124.240	7.253	1	learning	LS4	PICTURE_594.jpg	c
1131.493	9.251	1	learning	LS4	PICTURE_52.jpg	c
1140.744	7.231	1	learning	LS4	PICTURE_605.jpg	c
1147.975	6.811	1	learning	LS4	PICTURE_52.jpg	i
1154.786	6.870	1	learning	LS4	PICTURE_576.jpg	i
1161.656	15.559	1	learning	LS1	PICTURE_95.jpg	c
1177.215	14.512	0	learning	LS1	PICTURE_15.jpg	c
1191.727	14.105	0	learning	LS1	PICTURE_488.jpg	c
1205.832	10.020	0	learning	LS1	PICTURE_480.jpg	i
1215.852	11.694	0	learning	LS1	PICTURE_15.jpg	i
1227.546	17.525	1	learning	LS1	PICTURE_508.jpg	c
1245.071	9.602	0	learning	LS1	PICTURE_95.jpg	i
1254.673	9.202	1	learning	LS1	PICTURE_488.jpg	i
1263.875	15.360	1	learning	LS1	PICTURE_480.jpg	c
1279.235	9.042	1	learning	LS1	PICTURE_508.jpg	i
1288.277	8.902	0	learning	LS2	PICTURE_488.jpg	i
1297.179	8.983	1	learning	LS2	PICTURE_508.jpg	c
1306.162	10.335	1	learning	LS2	PICTURE_15.jpg	i
1316.497	8.335	0	learning	LS2	PICTURE_480.jpg	i
1324.832	13.533	1	learning	LS2	PICTURE_95.jpg	c
1338.365	14.406	1	learning	LS2	PICTURE_15.jpg	c
1352.771	6.630	1	learning	LS2	PICTURE_488.jpg	c
1359.401	7.491	1	learning	LS2	PICTURE_508.jpg	i
1366.892	13.468	1	learning	LS2	PICTURE_95.jpg	i
1380.360	7.290	1	learning	LS2	PICTURE_480.jpg	c
1387.650	8.404	1	learning	LS3	PICTURE_15.jpg	c
1396.054	11.349	1	learning	LS3	PICTURE_95.jpg	c
1407.403	9.983	1	learning	LS3	PICTURE_488.jpg	c
1417.386	10.217	1	learning	LS3	PICTURE_15.jpg	i
1427.603	8.051	1	learning	LS3	PICTURE_480.jpg	i
1435.654	10.044	1	learning	LS3	PICTURE_95.jpg	i
1445.698	7.238	1	learning	LS3	PICTURE_508.jpg	c
1452.936	11.629	1	learning	LS3	PICTURE_488.jpg	i
1464.565	7.071	1	learning	LS3	PICTURE_508.jpg	i
1471.636	9.391	1	learning	LS3	PICTURE_480.jpg	c
1481.027	12.443	1	learning	LS4	PICTURE_95.jpg	c
1493.470	7.405	1	learning	LS4	PICTURE_508.jpg	c
1500.875	9.724	1	learning	LS4	PICTURE_488.jpg	c
1510.599	14.122	1	learning	LS4	PICTURE_95.jpg	i
1524.721	7.964	1	learning	LS4	PICTURE_480.jpg	i
1532.685	7.245	1	learning	LS4	PICTURE_15.jpg	i
1539.930	6.845	1	learning	LS4	PICTURE_508.jpg	i
1546.775	5.966	1	learning	LS4	PICTURE_480.jpg	c
1552.741	7.637	1	learning	LS4	PICTURE_15.jpg	c
1560.378	7.538	1	learning	LS4	PICTURE_488.jpg	i
1567.916	17.021	1	control	LS1	PICTURE_350.jpg	c
1584.937	10.697	1	control	LS1	PICTURE_418.jpg	c
1595.634	9.491	1	control	LS1	PICTURE_549.jpg	c
1605.125	12.763	1	control	LS1	PICTURE_485.jpg	i
1617.888	10.597	1	control	LS1	PICTURE_350.jpg	i
1628.485	8.592	1	control	LS1	PICTURE_485.jpg	c
1637.077	8.346	1	control	LS1	PICTURE_498.jpg	i
1645.423	8.420	1	control	LS1	PICTURE_418.jpg	i
1653.843	12.179	1	control	LS1	PICTURE_498.jpg	c
1666.022	7.302	1	control	LS1	PICTURE_549.jpg	i
1673.324	7.163	1	control	LS2	PICTURE_350.jpg	c
1680.487	10.282	1	control	LS2	PICTURE_485.jpg	c
1690.769	8.923	1	control	LS2	PICTURE_418.jpg	c
1699.692	9.323	1	control	LS2	PICTURE_485.jpg	i
1709.015	10.203	1	control	LS2	PICTURE_549.jpg	c
1719.218	8.838	1	control	LS2	PICTURE_350.jpg	i
1728.056	14.515	1	control	LS2	PICTURE_498.jpg	i
1742.571	7.219	1	control	LS2	PICTURE_418.jpg	i
1749.790	9.198	1	control	LS2	PICTURE_549.jpg	i
1758.988	7.179	1	control	LS2	PICTURE_498.jpg	c
1766.167	10.051	1	control	LS3	PICTURE_476.jpg	i
1776.218	10.438	1	control	LS3	PICTURE_388.jpg	c
1786.656	11.144	1	control	LS3	PICTURE_552.jpg	i
1797.800	10.737	1	control	LS3	PICTURE_663.jpg	i
1808.537	9.531	1	control	LS3	PICTURE_314.jpg	i
1818.068	8.486	1	control	LS3	PICTURE_663.jpg	c
1826.554	8.398	1	control	LS3	PICTURE_476.jpg	c
1834.952	7.832	1	control	LS3	PICTURE_314.jpg	c
1842.784	11.584	1	control	LS3	PICTURE_552.jpg	c
1854.368	10.063	1	control	LS3	PICTURE_388.jpg	i
1864.431	9.125	1	control	LS4	PICTURE_314.jpg	i
1873.556	7.119	1	control	LS4	PICTURE_476.jpg	i
1880.675	8.158	1	control	LS4	PICTURE_388.jpg	c
1888.833	9.991	1	control	LS4	PICTURE_552.jpg	c
1898.824	13.902	1	control	LS4	PICTURE_663.jpg	c
1912.726	9.344	1	control	LS4	PICTURE_388.jpg	i
1922.070	9.264	1	control	LS4	PICTURE_552.jpg	i
1931.334	12.702	1	control	LS4	PICTURE_663.jpg	i
1944.036	7.016	1	control	LS4	PICTURE_476.jpg	c
1951.052	7.570	1	control	LS4	PICTURE_314.jpg	c
1958.622	12.411	0	learning	LS1	PICTURE_400.jpg	c
1971.033	9.278	0	learning	LS1	PICTURE_405.jpg	i
1980.311	13.510	0	learning	LS1	PICTURE_462.jpg	c
1993.821	10.546	1	learning	LS1	PICTURE_402.jpg	i
2004.367	7.740	1	learning	LS1	PICTURE_21.jpg	c
2012.107	13.571	1	learning	LS1	PICTURE_400.jpg	i
2025.678	9.648	1	learning	LS1	PICTURE_405.jpg	c
2035.326	7.161	1	learning	LS1	PICTURE_402.jpg	c
2042.487	11.878	0	learning	LS1	PICTURE_462.jpg	i
2054.365	10.999	1	learning	LS1	PICTURE_21.jpg	i
2065.364	7.821	1	learning	LS2	PICTURE_405.jpg	i
2073.185	9.661	1	learning	LS2	PICTURE_21.jpg	i
2082.846	9.101	1	learning	LS2	PICTURE_462.jpg	i
2091.947	7.895	1	learning	LS2	PICTURE_402.jpg	c
2099.842	8.135	1	learning	LS2	PICTURE_462.jpg	c
2107.977	7.096	1	learning	LS2	PICTURE_402.jpg	i
2115.073	10.528	1	learning	LS2	PICTURE_400.jpg	i
2125.601	8.529	1	learning	LS2	PICTURE_405.jpg	c
2134.130	7.629	1	learning	LS2	PICTURE_400.jpg	c
2141.759	10.728	1	learning	LS2	PICTURE_21.jpg	c
2152.487	6.723	1	learning	LS3	PICTURE_400.jpg	c
2159.210	10.142	1	learning	LS3	PICTURE_21.jpg	i
2169.352	6.211	1	learning	LS3	PICTURE_405.jpg	c
2175.563	6.118	1	learning	LS3	PICTURE_21.jpg	c
2181.681	6.671	1	learning	LS3	PICTURE_405.jpg	i
2188.352	9.144	1	learning	LS3	PICTURE_462.jpg	i
2197.496	6.977	1	learning	LS3	PICTURE_402.jpg	i
2204.473	8.330	1	learning	LS3	PICTURE_462.jpg	c
2212.803	6.645	1	learning	LS3	PICTURE_400.jpg	i
2219.448	7.837	1	learning	LS3	PICTURE_402.jpg	c
2227.285	6.898	1	learning	LS4	PICTURE_462.jpg	c
2234.183	6.978	1	learning	LS4	PICTURE_405.jpg	i
2241.161	7.378	1	learning	LS4	PICTURE_21.jpg	i
2248.539	7.132	1	learning	LS4	PICTURE_402.jpg	c
2255.671	9.452	1	learning	LS4	PICTURE_400.jpg	c
2265.123	9.212	1	learning	LS4	PICTURE_405.jpg	c
2274.335	16.003	1	learning	LS4	PICTURE_400.jpg	i
2290.338	10.325	1	learning	LS4	PICTURE_462.jpg	i
2300.663	8.007	1	learning	LS4	PICTURE_21.jpg	c
2308.670	8.720	1	learning	LS4	PICTURE_402.jpg	i
2317.390	9.100	1	control	LS1	PICTURE_430.jpg	c
2326.490	7.087	1	control	LS1	PICTURE_2.jpg	c
2333.577	10.672	1	control	LS1	PICTURE_718.jpg	i
2344.249	12.339	1	control	LS1	PICTURE_2.jpg	i
2356.588	14.652	1	control	LS1	PICTURE_286.jpg	c
2371.240	n/a	n/a	control	LS1	PICTURE_292.jpg	i
2396.240	9.841	1	control	LS1	PICTURE_718.jpg	c
2406.081	9.115	1	control	LS1	PICTURE_286.jpg	i
2415.196	8.389	1	control	LS1	PICTURE_430.jpg	i
2423.585	9.429	1	control	LS1	PICTURE_292.jpg	c
2433.014	9.129	1	control	LS2	PICTURE_292.jpg	i
2442.143	7.283	1	control	LS2	PICTURE_2.jpg	c
2449.426	10.563	1	control	LS2	PICTURE_430.jpg	i
2459.989	8.884	1	control	LS2	PICTURE_286.jpg	c
2468.873	7.364	1	control	LS2	PICTURE_430.jpg	c
2476.237	10.795	1	control	LS2	PICTURE_718.jpg	c
2487.032	7.357	1	control	LS2	PICTURE_2.jpg	i
2494.389	6.951	1	control	LS2	PICTURE_286.jpg	i
2501.340	6.872	1	control	LS2	PICTURE_718.jpg	i
2508.212	8.865	1	control	LS2	PICTURE_292.jpg	c
2517.077	7.099	1	control	LS3	PICTURE_98.jpg	i
2524.176	6.040	1	control	LS3	PICTURE_134.jpg	i
2530.216	10.092	1	control	LS3	PICTURE_733.jpg	c
2540.308	9.198	1	control	LS3	PICTURE_645.jpg	c
2549.506	10.065	1	control	LS3	PICTURE_134.jpg	c
2559.571	7.094	1	control	LS3	PICTURE_645.jpg	i
2566.665	9.247	1	control	LS3	PICTURE_731.jpg	c
2575.912	7.402	1	control	LS3	PICTURE_98.jpg	c
2583.314	9.234	1	control	LS3	PICTURE_731.jpg	i
2592.548	10.268	1	control	LS3	PICTURE_733.jpg	i
2602.816	8.042	1	control	LS4	PICTURE_645.jpg	i
2610.858	7.315	1	control	LS4	PICTURE_733.jpg	c
2618.173	7.875	1	control	LS4	PICTURE_134.jpg	i
2626.048	11.946	1	control	LS4	PICTURE_645.jpg	c
2637.994	6.749	1	control	LS4	PICTURE_98.jpg	c
2644.743	6.988	1	control	LS4	PICTURE_731.jpg	c
2651.731	7.708	1	control	LS4	PICTURE_733.jpg	i
2659.439	7.143	0	control	LS4	PICTURE_98.jpg	i
2666.582	10.422	1	control	LS4	PICTURE_134.jpg	c
2677.004	8.257	1	control	LS4	PICTURE_731.jpg	i
2685.261	13.875	1	learning	LS1	PICTURE_216.jpg	i
2699.136	16.008	0	learning	LS1	PICTURE_695.jpg	i
2715.144	14.469	0	learning	LS1	PICTURE_220.jpg	c
2729.613	9.891	1	learning	LS1	PICTURE_216.jpg	c
2739.504	7.873	1	learning	LS1	PICTURE_695.jpg	c
2747.377	13.370	0	learning	LS1	PICTURE_53.jpg	i
2760.747	8.151	0	learning	LS1	PICTURE_703.jpg	c
2768.898	8.858	1	learning	LS1	PICTURE_53.jpg	c
2777.756	10.371	1	learning	LS1	PICTURE_703.jpg	i
2788.127	12.843	0	learning	LS1	PICTURE_220.jpg	i
2800.970	7.579	1	learning	LS2	PICTURE_695.jpg	c
2808.549	7.973	1	learning	LS2	PICTURE_220.jpg	c
2816.522	6.927	1	learning	LS2	PICTURE_216.jpg	c
2823.449	16.756	1	learning	LS2	PICTURE_703.jpg	i
2840.205	8.679	1	learning	LS2	PICTURE_53.jpg	c
2848.884	6.992	1	learning	LS2	PICTURE_216.jpg	i
2855.876	7.392	1	learning	LS2	PICTURE_703.jpg	c
2863.268	7.471	1	learning	LS2	PICTURE_220.jpg	i
2870.739	6.585	1	learning	LS2	PICTURE_695.jpg	i
2877.324	7.144	1	learning	LS2	PICTURE_53.jpg	i
2884.468	8.438	1	learning	LS3	PICTURE_53.jpg	c
2892.906	8.199	1	learning	LS3	PICTURE_216.jpg	c
2901.105	7.799	1	learning	LS3	PICTURE_695.jpg	i
2908.904	7.387	1	learning	LS3	PICTURE_216.jpg	i
2916.291	9.526	1	learning	LS3	PICTURE_703.jpg	i
2925.817	11.345	1	learning	LS3	PICTURE_220.jpg	i
2937.162	10.285	1	learning	LS3	PICTURE_703.jpg	c
2947.447	8.426	1	learning	LS3	PICTURE_53.jpg	i
2955.873	11.851	1	learning	LS3	PICTURE_220.jpg	c
2967.724	10.799	1	learning	LS3	PICTURE_695.jpg	c
2978.523	7.767	1	learning	LS4	PICTURE_216.jpg	i
2986.290	8.480	1	learning	LS4	PICTURE_695.jpg	c
2994.770	8.075	0	learning	LS4	PICTURE_220.jpg	i
3002.845	8.148	1	learning	LS4	PICTURE_216.jpg	c
3010.993	11.900	1	learning	LS4	PICTURE_703.jpg	c
3022.893	7.337	1	learning	LS4	PICTURE_53.jpg	c
3030.230	8.538	1	learning	LS4	PICTURE_220.jpg	c
3038.768	7.977	1	learning	LS4	PICTURE_695.jpg	i
3046.745	21.652	1	learning	LS4	PICTURE_53.jpg	i
3068.397	15.968	1	learning	LS4	PICTURE_703.jpg	i
