onset	duration	response_time_ms	trial_type	learning_stage	stimulus	response_port
0.0	2.451	2450.6	regulate	Run1	regulate/STIM_000.jpg	99
6.287	2.312	2311.9	regulate	Run1	regulate/STIM_000.jpg	100
11.93	2.163	2162.8	regulate	Run1	regulate/STIM_000.jpg	99
16.163	1.515	1514.6	regulate	Run1	regulate/STIM_000.jpg	100
20.909	2.078	2077.9	regulate	Run1	regulate/STIM_001.jpg	99
26.088	3.634	3634.4	regulate	Run1	regulate/STIM_001.jpg	99
32.663	2.596	2595.8	regulate	Run1	regulate/STIM_001.jpg	100
37.974	3.042	3041.8	regulate	Run1	regulate/STIM_001.jpg	99
44.92	3.326	3325.7	regulate	Run1	regulate/STIM_002.jpg	100
52.229	2.489	2488.6	regulate	Run1	regulate/STIM_002.jpg	100
58.582	2.92	2919.7	regulate	Run1	regulate/STIM_002.jpg	99
63.518	2.463	2463.3	regulate	Run1	regulate/STIM_002.jpg	99
69.429	2.507	2507.3	regulate	Run1	regulate/STIM_003.jpg	100
75.104	2.435	2435.4	regulate	Run1	regulate/STIM_003.jpg	99
80.657	1.77	1770.2	regulate	Run1	regulate/STIM_003.jpg	100
85.229	3.068	3067.7	regulate	Run1	regulate/STIM_003.jpg	99
90.465	2.84	2840.0	regulate	Run1	regulate/STIM_004.jpg	100
96.572	3.637	3636.6	regulate	Run1	regulate/STIM_004.jpg	100
103.372	1.823	1822.7	regulate	Run1	regulate/STIM_004.jpg	100
108.135	2.494	2493.6	regulate	Run1	regulate/STIM_004.jpg	100
113.163	2.868	2867.6	regulate	Run1	regulate/STIM_005.jpg	99
118.32	1.653	1652.6	regulate	Run1	regulate/STIM_005.jpg	100
122.402	3.055	3055.4	regulate	Run1	regulate/STIM_005.jpg	100
128.431	3.15	3149.8	regulate	Run1	regulate/STIM_005.jpg	100
134.732	3.645	3645.2	regulate	Run1	regulate/STIM_006.jpg	99
142.339	1.804	1803.6	regulate	Run1	regulate/STIM_006.jpg	100
146.188	3.388	3387.5	regulate	Run1	regulate/STIM_006.jpg	99
152.849	2.64	2640.1	regulate	Run1	regulate/STIM_006.jpg	100
158.562	3.832	3832.0	regulate	Run1	regulate/STIM_007.jpg	99
164.987	2.856	2855.9	regulate	Run1	regulate/STIM_007.jpg	99
171.296	1.951	1951.3	regulate	Run1	regulate/STIM_007.jpg	99
175.251	2.582	2581.7	regulate	Run1	regulate/STIM_007.jpg	100
180.006	3.49	3490.1	regulate	Run1	regulate/STIM_008.jpg	99
186.093	3.294	3293.6	regulate	Run1	regulate/STIM_008.jpg	100
192.026	2.017	2017.2	regulate	Run1	regulate/STIM_008.jpg	100
196.247	2.641	2641.1	regulate	Run1	regulate/STIM_008.jpg	99
201.667	3.55	3549.7	regulate	Run1	regulate/STIM_009.jpg	99
207.713	3.267	3267.4	regulate	Run1	regulate/STIM_009.jpg	100
214.433	1.626	1626.0	regulate	Run1	regulate/STIM_009.jpg	99
219.986	2.453	2452.9	regulate	Run1	regulate/STIM_009.jpg	100
226.105	3.161	3161.0	regulate	Run1	regulate/STIM_010.jpg	99
231.799	2.755	2754.7	regulate	Run1	regulate/STIM_010.jpg	99
236.652	1.716	1715.5	regulate	Run1	regulate/STIM_010.jpg	100
242.11	1.953	1953.3	regulate	Run1	regulate/STIM_010.jpg	100
248.057	2.719	2718.7	regulate	Run1	regulate/STIM_011.jpg	99
253.25	3.123	3122.9	regulate	Run1	regulate/STIM_011.jpg	100
258.428	2.94	2939.9	regulate	Run1	regulate/STIM_011.jpg	100
263.389	2.552	2551.7	regulate	Run1	regulate/STIM_011.jpg	100
269.438	3.234	3234.1	regulate	Run1	regulate/STIM_012.jpg	100
274.82	1.955	1955.0	regulate	Run1	regulate/STIM_012.jpg	99
280.213	1.803	1803.3	regulate	Run1	regulate/STIM_012.jpg	100
284.085	1.459	1458.6	regulate	Run1	regulate/STIM_012.jpg	100
289.018	3.736	3736.4	regulate	Run1	regulate/STIM_013.jpg	99
296.721	2.369	2369.4	regulate	Run1	regulate/STIM_013.jpg	100
302.487	1.79	1790.0	regulate	Run1	regulate/STIM_013.jpg	99
306.461	1.786	1786.1	regulate	Run1	regulate/STIM_013.jpg	100
310.992	3.639	3639.2	regulate	Run1	regulate/STIM_014.jpg	100
318.216	2.974	2974.0	regulate	Run1	regulate/STIM_014.jpg	100
323.744	3.163	3163.0	regulate	Run1	regulate/STIM_014.jpg	100
330.869	2.386	2386.1	regulate	Run1	regulate/STIM_014.jpg	99
335.505	1.803	1803.4	regulate	Run1	regulate/STIM_015.jpg	100
340.407	2.889	2888.7	regulate	Run1	regulate/STIM_015.jpg	100
347.051	1.759	1759.2	regulate	Run1	regulate/STIM_015.jpg	99
351.204	1.949	1948.8	regulate	Run1	regulate/STIM_015.jpg	99
356.078	2.85	2849.5	regulate	Run1	regulate/STIM_016.jpg	99
362.593	2.534	2534.2	regulate	Run1	regulate/STIM_016.jpg	99
368.309	2.18	2180.4	regulate	Run1	regulate/STIM_016.jpg	99
372.656	1.956	1956.2	regulate	Run1	regulate/STIM_016.jpg	99
378.265	3.798	3797.5	regulate	Run1	regulate/STIM_017.jpg	99
384.724	2.683	2682.9	regulate	Run1	regulate/STIM_017.jpg	99
389.759	2.554	2554.3	regulate	Run1	regulate/STIM_017.jpg	99
395.629	1.626	1625.7	regulate	Run1	regulate/STIM_017.jpg	99
399.545	3.025	3024.7	regulate	Run1	regulate/STIM_018.jpg	99
405.119	1.659	1658.8	regulate	Run1	regulate/STIM_018.jpg	100
410.645	3.071	3070.9	regulate	Run1	regulate/STIM_018.jpg	99
417.088	1.54	1539.8	regulate	Run1	regulate/STIM_018.jpg	99
422.134	3.257	3257.2	regulate	Run1	regulate/STIM_019.jpg	100
428.653	2.035	2034.6	regulate	Run1	regulate/STIM_019.jpg	99
433.521	2.405	2404.9	regulate	Run1	regulate/STIM_019.jpg	100
439.598	2.082	2082.0	regulate	Run1	regulate/STIM_019.jpg	99
443.926	1.904	1904.5	regulate	Run1	regulate/STIM_020.jpg	100
449.211	3.395	3394.6	regulate	Run1	regulate/STIM_020.jpg	99
454.778	3.477	3476.9	regulate	Run1	regulate/STIM_020.jpg	100
460.375	2.545	2545.2	regulate	Run1	regulate/STIM_020.jpg	100
466.587	2.957	2957.0	regulate	Run1	regulate/STIM_021.jpg	100
472.381	2.326	2326.2	regulate	Run1	regulate/STIM_021.jpg	100
477.385	3.253	3252.9	regulate	Run1	regulate/STIM_021.jpg	99
482.884	1.572	1572.5	regulate	Run1	regulate/STIM_021.jpg	100
487.152	2.328	2328.0	regulate	Run1	regulate/STIM_022.jpg	99
493.381	1.777	1777.4	regulate	Run1	regulate/STIM_022.jpg	99
497.285	2.062	2061.5	regulate	Run1	regulate/STIM_022.jpg	99
501.385	2.737	2736.9	regulate	Run1	regulate/STIM_022.jpg	99
508.024	3.481	3481.3	regulate	Run1	regulate/STIM_023.jpg	100
514.663	2.407	2407.0	regulate	Run1	regulate/STIM_023.jpg	100
520.745	3.514	3513.7	regulate	Run1	regulate/STIM_023.jpg	99
528.243	2.517	2517.4	regulate	Run1	regulate/STIM_023.jpg	99
533.888	1.757	1757.0	regulate	Run1	regulate/STIM_024.jpg	100
538.775	1.801	1801.0	regulate	Run1	regulate/STIM_024.jpg	100
543.093	2.707	2707.0	regulate	Run1	regulate/STIM_024.jpg	100
547.856	2.144	2144.1	regulate	Run1	regulate/STIM_024.jpg	100
553.064	1.901	1901.1	regulate	Run1	regulate/STIM_025.jpg	99
558.316	2.252	2251.5	regulate	Run1	regulate/STIM_025.jpg	100
563.227	3.54	3539.5	regulate	Run1	regulate/STIM_025.jpg	100
569.629	1.932	1932.4	regulate	Run1	regulate/STIM_025.jpg	100
575.124	3.377	3376.7	regulate	Run1	regulate/STIM_026.jpg	99
581.872	2.993	2992.7	regulate	Run1	regulate/STIM_026.jpg	100
587.626	2.216	2215.5	regulate	Run1	regulate/STIM_026.jpg	100
592.254	2.428	2428.4	regulate	Run1	regulate/STIM_026.jpg	99
597.691	2.186	2186.4	regulate	Run1	regulate/STIM_027.jpg	100
603.023	1.664	1663.8	regulate	Run1	regulate/STIM_027.jpg	99
608.429	3.314	3313.9	regulate	Run1	regulate/STIM_027.jpg	99
615.279	3.222	3221.7	regulate	Run1	regulate/STIM_027.jpg	100
621.152	1.996	1995.7	regulate	Run1	regulate/STIM_028.jpg	100
627.014	3.358	3358.1	regulate	Run1	regulate/STIM_028.jpg	100
632.85	1.719	1718.9	regulate	Run1	regulate/STIM_028.jpg	100
637.618	3.096	3095.6	regulate	Run1	regulate/STIM_028.jpg	99
643.213	1.941	1941.2	regulate	Run1	regulate/STIM_029.jpg	99
648.273	1.783	1783.2	regulate	Run1	regulate/STIM_029.jpg	99
652.916	3.464	3463.7	regulate	Run1	regulate/STIM_029.jpg	100
658.447	3.242	3242.5	regulate	Run1	regulate/STIM_029.jpg	99
663.866	1.5	1500.4	observe	Run1	observe/STIM_000.jpg	99
668.645	1.257	1257.0	observe	Run1	observe/STIM_000.jpg	100
671.98	1.581	1580.7	observe	Run1	observe/STIM_000.jpg	99
677.144	1.172	1171.6	observe	Run1	observe/STIM_000.jpg	100
681.934	1.227	1227.1	observe	Run1	observe/STIM_001.jpg	99
686.024	1.742	1742.5	observe	Run1	observe/STIM_001.jpg	99
690.157	0.921	921.2	observe	Run1	observe/STIM_001.jpg	99
693.637	1.615	1615.2	observe	Run1	observe/STIM_001.jpg	99
699.172	0.934	933.7	observe	Run1	observe/STIM_002.jpg	100
703.175	1.023	1022.7	observe	Run1	observe/STIM_002.jpg	99
707.704	0.952	952.3	observe	Run1	observe/STIM_002.jpg	99
711.67	1.59	1589.6	observe	Run1	observe/STIM_002.jpg	100
716.762	1.405	1405.1	observe	Run1	observe/STIM_003.jpg	99
720.87	1.462	1462.4	observe	Run1	observe/STIM_003.jpg	99
724.574	1.297	1297.0	observe	Run1	observe/STIM_003.jpg	99
729.689	1.429	1428.9	observe	Run1	observe/STIM_003.jpg	99
734.819	1.644	1644.4	observe	Run1	observe/STIM_004.jpg	100
738.76	1.224	1224.2	observe	Run1	observe/STIM_004.jpg	100
742.769	1.639	1639.0	observe	Run1	observe/STIM_004.jpg	100
746.691	1.46	1460.0	observe	Run1	observe/STIM_004.jpg	100
750.46	1.312	1311.7	observe	Run1	observe/STIM_005.jpg	99
755.251	1.425	1425.0	observe	Run1	observe/STIM_005.jpg	100
758.844	1.069	1069.2	observe	Run1	observe/STIM_005.jpg	99
762.179	1.567	1566.7	observe	Run1	observe/STIM_005.jpg	100
766.393	1.769	1768.8	observe	Run1	observe/STIM_006.jpg	100
770.632	0.996	995.8	observe	Run1	observe/STIM_006.jpg	99
774.24	0.941	941.4	observe	Run1	observe/STIM_006.jpg	99
779.144	1.257	1257.1	observe	Run1	observe/STIM_006.jpg	99
784.2	1.58	1579.5	observe	Run1	observe/STIM_007.jpg	99
789.612	1.619	1618.9	observe	Run1	observe/STIM_007.jpg	99
793.546	0.9	900.4	observe	Run1	observe/STIM_007.jpg	100
797.759	1.66	1660.0	observe	Run1	observe/STIM_007.jpg	99
801.584	1.558	1558.1	observe	Run1	observe/STIM_008.jpg	100
805.739	1.536	1536.4	observe	Run1	observe/STIM_008.jpg	100
810.173	1.024	1024.2	observe	Run1	observe/STIM_008.jpg	100
813.326	1.282	1281.8	observe	Run1	observe/STIM_008.jpg	99
818.536	1.006	1005.8	observe	Run1	observe/STIM_009.jpg	99
821.697	1.78	1780.1	observe	Run1	observe/STIM_009.jpg	100
827.266	1.167	1166.9	observe	Run1	observe/STIM_009.jpg	99
832.148	0.985	984.9	observe	Run1	observe/STIM_009.jpg	100
836.968	1.172	1172.0	observe	Run1	observe/STIM_010.jpg	99
841.621	1.452	1452.5	observe	Run1	observe/STIM_010.jpg	100
846.84	1.7	1700.5	observe	Run1	observe/STIM_010.jpg	100
850.633	1.073	1073.0	observe	Run1	observe/STIM_010.jpg	99
854.612	1.501	1501.3	observe	Run1	observe/STIM_011.jpg	100
859.303	1.644	1644.4	observe	Run1	observe/STIM_011.jpg	99
864.177	1.141	1140.8	observe	Run1	observe/STIM_011.jpg	100
868.374	1.142	1141.5	observe	Run1	observe/STIM_011.jpg	100
872.46	1.549	1548.8	observe	Run1	observe/STIM_012.jpg	99
877.628	1.166	1165.7	observe	Run1	observe/STIM_012.jpg	99
881.294	1.053	1052.7	observe	Run1	observe/STIM_012.jpg	100
885.976	0.971	970.8	observe	Run1	observe/STIM_012.jpg	100
890.764	1.156	1156.3	observe	Run1	observe/STIM_013.jpg	99
895.149	1.527	1527.1	observe	Run1	observe/STIM_013.jpg	99
900.177	1.421	1421.3	observe	Run1	observe/STIM_013.jpg	100
904.086	1.59	1590.0	observe	Run1	observe/STIM_013.jpg	100
908.872	1.643	1643.0	observe	Run1	observe/STIM_014.jpg	100
914.395	1.687	1686.9	observe	Run1	observe/STIM_014.jpg	99
919.915	1.352	1352.2	observe	Run1	observe/STIM_014.jpg	100
924.65	1.595	1595.4	observe	Run1	observe/STIM_014.jpg	99
928.527	0.958	957.9	observe	Run1	observe/STIM_015.jpg	99
931.843	1.695	1695.0	observe	Run1	observe/STIM_015.jpg	99
936.056	1.54	1540.2	observe	Run1	observe/STIM_015.jpg	99
940.28	0.955	955.2	observe	Run1	observe/STIM_015.jpg	99
945.004	0.932	931.5	observe	Run1	observe/STIM_016.jpg	100
949.75	1.78	1780.5	observe	Run1	observe/STIM_016.jpg	99
955.26	1.611	1610.8	observe	Run1	observe/STIM_016.jpg	100
959.538	1.669	1668.8	observe	Run1	observe/STIM_016.jpg	99
964.631	1.147	1147.3	observe	Run1	observe/STIM_017.jpg	100
968.683	0.978	978.3	observe	Run1	observe/STIM_017.jpg	99
972.079	0.941	941.4	observe	Run1	observe/STIM_017.jpg	100
976.664	1.474	1474.3	observe	Run1	observe/STIM_017.jpg	99
981.064	1.234	1234.2	observe	Run1	observe/STIM_018.jpg	99
985.735	1.48	1479.7	observe	Run1	observe/STIM_018.jpg	99
990.085	1.787	1786.7	observe	Run1	observe/STIM_018.jpg	99
995.421	1.205	1205.0	observe	Run1	observe/STIM_018.jpg	100
1000.48	1.463	1463.4	observe	Run1	observe/STIM_019.jpg	100
1004.72	1.196	1196.2	observe	Run1	observe/STIM_019.jpg	100
1008.867	1.762	1762.3	observe	Run1	observe/STIM_019.jpg	100
1013.14	0.906	906.1	observe	Run1	observe/STIM_019.jpg	100
1017.36	2.565	2565.1	regulate	Run2	regulate/STIM_000.jpg	100
1023.274	1.708	1707.9	regulate	Run2	regulate/STIM_000.jpg	99
1028.51	2.686	2686.2	regulate	Run2	regulate/STIM_000.jpg	100
1033.366	1.335	1335.4	regulate	Run2	regulate/STIM_000.jpg	99
1037.104	1.869	1868.8	regulate	Run2	regulate/STIM_001.jpg	100
1042.186	1.634	1634.4	regulate	Run2	regulate/STIM_001.jpg	99
1046.427	1.942	1942.5	regulate	Run2	regulate/STIM_001.jpg	99
1050.623	2.395	2395.1	regulate	Run2	regulate/STIM_001.jpg	100
1055.478	2.541	2541.3	regulate	Run2	regulate/STIM_002.jpg	100
1062.004	1.9	1899.8	regulate	Run2	regulate/STIM_002.jpg	100
1067.771	1.677	1676.8	regulate	Run2	regulate/STIM_002.jpg	99
1072.229	1.295	1294.6	regulate	Run2	regulate/STIM_002.jpg	100
1075.641	1.668	1668.4	regulate	Run2	regulate/STIM_003.jpg	100
1080.04	2.577	2576.9	regulate	Run2	regulate/STIM_003.jpg	100
1085.366	1.959	1958.7	regulate	Run2	regulate/STIM_003.jpg	100
1091.075	2.558	2557.6	regulate	Run2	regulate/STIM_003.jpg	99
1096.929	2.804	2804.5	regulate	Run2	regulate/STIM_004.jpg	100
1103.186	3.096	3095.7	regulate	Run2	regulate/STIM_004.jpg	100
1109.423	2.45	2449.9	regulate	Run2	regulate/STIM_004.jpg	100
1115.567	1.841	1841.3	regulate	Run2	regulate/STIM_004.jpg	100
1120.708	2.86	2860.2	regulate	Run2	regulate/STIM_005.jpg	99
1126.414	1.534	1533.7	regulate	Run2	regulate/STIM_005.jpg	99
1131.09	1.545	1545.3	regulate	Run2	regulate/STIM_005.jpg	100
1136.178	2.249	2249.2	regulate	Run2	regulate/STIM_005.jpg	100
1141.446	2.796	2796.2	regulate	Run2	regulate/STIM_006.jpg	100
1147.947	1.761	1760.6	regulate	Run2	regulate/STIM_006.jpg	100
1152.626	1.611	1611.4	regulate	Run2	regulate/STIM_006.jpg	99
1156.447	2.489	2489.1	regulate	Run2	regulate/STIM_006.jpg	100
1162.384	3.234	3233.7	regulate	Run2	regulate/STIM_007.jpg	100
1169.262	2.281	2281.4	regulate	Run2	regulate/STIM_007.jpg	100
1173.628	2.818	2818.2	regulate	Run2	regulate/STIM_007.jpg	100
1180.431	2.622	2621.5	regulate	Run2	regulate/STIM_007.jpg	100
1185.254	2.52	2519.8	regulate	Run2	regulate/STIM_008.jpg	100
1190.966	2.572	2572.0	regulate	Run2	regulate/STIM_008.jpg	100
1197.005	1.57	1569.9	regulate	Run2	regulate/STIM_008.jpg	100
1201.682	1.65	1649.7	regulate	Run2	regulate/STIM_008.jpg	99
1206.611	2.932	2931.7	regulate	Run2	regulate/STIM_009.jpg	99
1213.077	1.813	1812.8	regulate	Run2	regulate/STIM_009.jpg	100
1217.111	1.612	1611.6	regulate	Run2	regulate/STIM_009.jpg	99
1221.351	2.744	2743.5	regulate	Run2	regulate/STIM_009.jpg	99
1226.873	2.001	2001.0	regulate	Run2	regulate/STIM_010.jpg	100
1232.488	2.647	2647.2	regulate	Run2	regulate/STIM_010.jpg	99
1237.188	2.232	2231.6	regulate	Run2	regulate/STIM_010.jpg	100
1242.541	1.645	1645.2	regulate	Run2	regulate/STIM_010.jpg	100
1247.918	2.012	2012.1	regulate	Run2	regulate/STIM_011.jpg	99
1253.01	2.921	2920.6	regulate	Run2	regulate/STIM_011.jpg	100
1259.901	2.822	2822.2	regulate	Run2	regulate/STIM_011.jpg	99
1266.703	1.502	1501.6	regulate	Run2	regulate/STIM_011.jpg	99
1270.854	2.998	2997.8	regulate	Run2	regulate/STIM_012.jpg	100
1276.731	2.035	2035.1	regulate	Run2	regulate/STIM_012.jpg	100
1281.87	2.047	2046.9	regulate	Run2	regulate/STIM_012.jpg	100
1286.385	1.312	1312.2	regulate	Run2	regulate/STIM_012.jpg	99
1290.335	3.152	3151.9	regulate	Run2	regulate/STIM_013.jpg	100
1297.394	2.348	2347.8	regulate	Run2	regulate/STIM_013.jpg	99
1303.035	1.374	1374.5	regulate	Run2	regulate/STIM_013.jpg	99
1308.139	2.372	2372.5	regulate	Run2	regulate/STIM_013.jpg	100
1313.522	2.438	2438.4	regulate	Run2	regulate/STIM_014.jpg	99
1318.492	1.547	1546.7	regulate	Run2	regulate/STIM_014.jpg	100
1323.77	1.355	1355.3	regulate	Run2	regulate/STIM_014.jpg	100
1327.3	2.464	2463.5	regulate	Run2	regulate/STIM_014.jpg	99
1333.304	2.598	2598.0	regulate	Run2	regulate/STIM_015.jpg	100
1338.247	1.746	1745.7	regulate	Run2	regulate/STIM_015.jpg	100
1343.429	2.809	2809.3	regulate	Run2	regulate/STIM_015.jpg	99
1349.054	1.422	1422.5	regulate	Run2	regulate/STIM_015.jpg	99
1352.95	1.683	1682.9	regulate	Run2	regulate/STIM_016.jpg	100
1357.523	2.717	2717.2	regulate	Run2	regulate/STIM_016.jpg	100
1363.678	1.88	1880.0	regulate	Run2	regulate/STIM_016.jpg	100
1368.555	1.248	1247.5	regulate	Run2	regulate/STIM_016.jpg	100
1371.99	3.007	3006.6	regulate	Run2	regulate/STIM_017.jpg	100
1378.986	2.448	2448.0	regulate	Run2	regulate/STIM_017.jpg	99
1383.66	2.818	2817.6	regulate	Run2	regulate/STIM_017.jpg	99
1388.509	1.548	1547.5	regulate	Run2	regulate/STIM_017.jpg	99
1392.359	2.048	2048.1	regulate	Run2	regulate/STIM_018.jpg	99
1396.873	3.07	3069.5	regulate	Run2	regulate/STIM_018.jpg	99
1402.387	2.004	2004.4	regulate	Run2	regulate/STIM_018.jpg	100
1407.144	1.623	1622.9	regulate	Run2	regulate/STIM_018.jpg	99
1411.72	3.081	3081.2	regulate	Run2	regulate/STIM_019.jpg	100
1418.365	2.217	2216.9	regulate	Run2	regulate/STIM_019.jpg	100
1423.198	1.461	1460.7	regulate	Run2	regulate/STIM_019.jpg	100
1427.916	1.875	1874.7	regulate	Run2	regulate/STIM_019.jpg	100
1432.831	2.201	2200.6	regulate	Run2	regulate/STIM_020.jpg	99
1437.414	2.844	2844.3	regulate	Run2	regulate/STIM_020.jpg	100
1443.927	2.182	2181.7	regulate	Run2	regulate/STIM_020.jpg	99
1449.419	2.48	2479.5	regulate	Run2	regulate/STIM_020.jpg	99
1455.157	1.996	1995.5	regulate	Run2	regulate/STIM_021.jpg	99
1460.763	2.064	2064.3	regulate	Run2	regulate/STIM_021.jpg	99
1465.362	2.618	2618.5	regulate	Run2	regulate/STIM_021.jpg	100
1470.913	1.841	1841.4	regulate	Run2	regulate/STIM_021.jpg	100
1474.804	2.842	2842.1	regulate	Run2	regulate/STIM_022.jpg	100
1480.864	2.958	2957.8	regulate	Run2	regulate/STIM_022.jpg	99
1487.494	1.535	1535.1	regulate	Run2	regulate/STIM_022.jpg	100
1492.464	2.135	2135.0	regulate	Run2	regulate/STIM_022.jpg	99
1498.487	3.192	3191.7	regulate	Run2	regulate/STIM_023.jpg	99
1505.051	2.513	2512.8	regulate	Run2	regulate/STIM_023.jpg	99
1509.647	2.329	2328.7	regulate	Run2	regulate/STIM_023.jpg	100
1515.963	1.55	1549.6	regulate	Run2	regulate/STIM_023.jpg	99
1519.914	1.73	1730.2	regulate	Run2	regulate/STIM_024.jpg	100
1524.574	2.799	2798.8	regulate	Run2	regulate/STIM_024.jpg	99
1530.275	2.267	2267.4	regulate	Run2	regulate/STIM_024.jpg	99
1535.569	1.515	1514.9	regulate	Run2	regulate/STIM_024.jpg	100
1539.437	1.566	1565.7	regulate	Run2	regulate/STIM_025.jpg	99
1544.499	1.885	1885.0	regulate	Run2	regulate/STIM_025.jpg	100
1550.344	1.419	1418.6	regulate	Run2	regulate/STIM_025.jpg	99
1555.563	1.579	1579.4	regulate	Run2	regulate/STIM_025.jpg	100
1559.403	2.375	2375.3	regulate	Run2	regulate/STIM_026.jpg	100
1564.321	2.488	2487.7	regulate	Run2	regulate/STIM_026.jpg	99
1569.469	2.488	2488.5	regulate	Run2	regulate/STIM_026.jpg	99
1574.562	1.795	1794.8	regulate	Run2	regulate/STIM_026.jpg	99
1580.25	2.693	2692.8	regulate	Run2	regulate/STIM_027.jpg	100
1586.91	2.507	2506.7	regulate	Run2	regulate/STIM_027.jpg	99
1591.574	2.405	2404.9	regulate	Run2	regulate/STIM_027.jpg	99
1596.968	1.902	1901.6	regulate	Run2	regulate/STIM_027.jpg	100
1602.172	2.9	2900.0	regulate	Run2	regulate/STIM_028.jpg	99
1608.508	2.813	2813.3	regulate	Run2	regulate/STIM_028.jpg	100
1614.374	2.79	2790.5	regulate	Run2	regulate/STIM_028.jpg	100
1619.778	1.633	1633.3	regulate	Run2	regulate/STIM_028.jpg	100
1624.437	2.852	2852.4	regulate	Run2	regulate/STIM_029.jpg	100
1630.871	2.582	2582.0	regulate	Run2	regulate/STIM_029.jpg	100
1636.803	2.483	2482.7	regulate	Run2	regulate/STIM_029.jpg	100
1641.342	2.05	2049.8	regulate	Run2	regulate/STIM_029.jpg	99
1646.119	1.038	1038.0	observe	Run2	observe/STIM_000.jpg	100
1649.98	1.343	1342.9	observe	Run2	observe/STIM_000.jpg	99
1653.642	1.793	1793.3	observe	Run2	observe/STIM_000.jpg	99
1657.585	1.538	1537.7	observe	Run2	observe/STIM_000.jpg	100
1662.48	1.043	1042.9	observe	Run2	observe/STIM_001.jpg	100
1666.698	0.924	924.5	observe	Run2	observe/STIM_001.jpg	99
1669.702	1.028	1028.4	observe	Run2	observe/STIM_001.jpg	100
1672.768	1.534	1534.5	observe	Run2	observe/STIM_001.jpg	100
1677.775	1.794	1793.6	observe	Run2	observe/STIM_002.jpg	99
1682.838	0.941	940.9	observe	Run2	observe/STIM_002.jpg	100
1687.191	1.044	1044.0	observe	Run2	observe/STIM_002.jpg	99
1692.06	1.588	1587.9	observe	Run2	observe/STIM_002.jpg	100
1696.077	1.194	1193.5	observe	Run2	observe/STIM_003.jpg	99
1701.093	1.006	1006.3	observe	Run2	observe/STIM_003.jpg	99
1704.372	1.292	1292.1	observe	Run2	observe/STIM_003.jpg	99
1708.103	1.38	1379.9	observe	Run2	observe/STIM_003.jpg	99
1713.061	1.236	1236.1	observe	Run2	observe/STIM_004.jpg	99
1717.428	1.368	1367.9	observe	Run2	observe/STIM_004.jpg	100
1721.985	1.787	1786.6	observe	Run2	observe/STIM_004.jpg	99
1727.086	1.318	1317.7	observe	Run2	observe/STIM_004.jpg	100
1731.944	1.061	1060.8	observe	Run2	observe/STIM_005.jpg	100
1735.579	1.025	1024.6	observe	Run2	observe/STIM_005.jpg	100
1739.461	1.385	1384.6	observe	Run2	observe/STIM_005.jpg	100
1743.452	1.632	1631.9	observe	Run2	observe/STIM_005.jpg	99
1747.192	1.346	1345.9	observe	Run2	observe/STIM_006.jpg	99
1752.159	1.075	1075.1	observe	Run2	observe/STIM_006.jpg	99
1756.077	1.303	1303.4	observe	Run2	observe/STIM_006.jpg	100
1759.491	1.585	1585.3	observe	Run2	observe/STIM_006.jpg	99
1763.988	1.797	1797.3	observe	Run2	observe/STIM_007.jpg	99
1768.939	1.176	1175.6	observe	Run2	observe/STIM_007.jpg	99
1773.897	1.328	1328.1	observe	Run2	observe/STIM_007.jpg	99
1778.052	1.671	1670.6	observe	Run2	observe/STIM_007.jpg	100
1782.128	0.964	963.6	observe	Run2	observe/STIM_008.jpg	99
1786.745	1.396	1395.6	observe	Run2	observe/STIM_008.jpg	99
1790.505	1.287	1286.7	observe	Run2	observe/STIM_008.jpg	100
1793.909	1.674	1673.6	observe	Run2	observe/STIM_008.jpg	100
1799.144	1.687	1687.4	observe	Run2	observe/STIM_009.jpg	99
1803.632	1.788	1788.5	observe	Run2	observe/STIM_009.jpg	100
1809.039	0.954	953.8	observe	Run2	observe/STIM_009.jpg	100
1813.349	1.713	1713.4	observe	Run2	observe/STIM_009.jpg	99
1817.589	1.207	1206.7	observe	Run2	observe/STIM_010.jpg	99
1822.137	1.621	1621.1	observe	Run2	observe/STIM_010.jpg	100
1827.595	1.436	1435.5	observe	Run2	observe/STIM_010.jpg	99
1831.856	1.254	1253.8	observe	Run2	observe/STIM_010.jpg	99
1835.381	1.48	1480.5	observe	Run2	observe/STIM_011.jpg	100
1839.027	1.304	1303.8	observe	Run2	observe/STIM_011.jpg	99
1843.667	1.286	1285.5	observe	Run2	observe/STIM_011.jpg	99
1847.539	1.751	1750.9	observe	Run2	observe/STIM_011.jpg	100
1851.863	1.417	1416.7	observe	Run2	observe/STIM_012.jpg	99
1856.094	1.561	1561.2	observe	Run2	observe/STIM_012.jpg	99
1859.666	1.403	1402.9	observe	Run2	observe/STIM_012.jpg	99
1864.452	0.981	981.2	observe	Run2	observe/STIM_012.jpg	100
1869.374	1.337	1336.8	observe	Run2	observe/STIM_013.jpg	100
1873.039	1.681	1681.2	observe	Run2	observe/STIM_013.jpg	100
1877.039	0.973	973.3	observe	Run2	observe/STIM_013.jpg	100
1880.667	1.17	1169.8	observe	Run2	observe/STIM_013.jpg	100
1884.413	0.976	975.9	observe	Run2	observe/STIM_014.jpg	100
1888.583	1.51	1510.0	observe	Run2	observe/STIM_014.jpg	100
1892.341	1.765	1765.3	observe	Run2	observe/STIM_014.jpg	100
1896.569	1.258	1258.3	observe	Run2	observe/STIM_014.jpg	99
1900.456	1.48	1480.5	observe	Run2	observe/STIM_015.jpg	100
1905.49	1.194	1194.1	observe	Run2	observe/STIM_015.jpg	100
1909.702	0.909	908.7	observe	Run2	observe/STIM_015.jpg	100
1913.883	1.487	1486.9	observe	Run2	observe/STIM_015.jpg	99
1917.433	1.439	1439.2	observe	Run2	observe/STIM_016.jpg	100
1922.282	1.715	1714.8	observe	Run2	observe/STIM_016.jpg	100
1927.445	1.548	1548.2	observe	Run2	observe/STIM_016.jpg	100
1931.202	1.397	1396.7	observe	Run2	observe/STIM_016.jpg	100
1935.882	1.662	1662.3	observe	Run2	observe/STIM_017.jpg	100
1940.389	1.42	1419.7	observe	Run2	observe/STIM_017.jpg	100
1944.909	1.511	1510.9	observe	Run2	observe/STIM_017.jpg	100
1948.491	1.159	1159.2	observe	Run2	observe/STIM_017.jpg	99
1953.071	1.455	1454.7	observe	Run2	observe/STIM_018.jpg	100
1956.565	1.27	1270.4	observe	Run2	observe/STIM_018.jpg	100
1960.218	1.427	1426.7	observe	Run2	observe/STIM_018.jpg	99
1964.857	1.665	1665.1	observe	Run2	observe/STIM_018.jpg	100
1969.527	0.901	901.3	observe	Run2	observe/STIM_019.jpg	99
1973.342	1.449	1448.7	observe	Run2	observe/STIM_019.jpg	99
1977.182	1.663	1662.6	observe	Run2	observe/STIM_019.jpg	99
1981.476	1.75	1749.5	observe	Run2	observe/STIM_019.jpg	99
1985.748	2.408	2407.8	regulate	Run3	regulate/STIM_000.jpg	100
1990.196	2.34	2339.5	regulate	Run3	regulate/STIM_000.jpg	99
1996.359	2.556	2556.0	regulate	Run3	regulate/STIM_000.jpg	100
2001.587	1.383	1383.3	regulate	Run3	regulate/STIM_000.jpg	100
2006.335	1.512	1512.2	regulate	Run3	regulate/STIM_001.jpg	100
2011.081	1.467	1467.4	regulate	Run3	regulate/STIM_001.jpg	99
2015.855	2.418	2418.5	regulate	Run3	regulate/STIM_001.jpg	100
2021.136	2.537	2537.4	regulate	Run3	regulate/STIM_001.jpg	99
2025.959	2.69	2689.8	regulate	Run3	regulate/STIM_002.jpg	99
2032.059	1.737	1737.0	regulate	Run3	regulate/STIM_002.jpg	99
2036.166	1.912	1912.5	regulate	Run3	regulate/STIM_002.jpg	99
2042.031	1.428	1427.9	regulate	Run3	regulate/STIM_002.jpg	99
2046.606	2.134	2134.0	regulate	Run3	regulate/STIM_003.jpg	100
2052.45	1.628	1628.4	regulate	Run3	regulate/STIM_003.jpg	99
2056.859	2.732	2732.2	regulate	Run3	regulate/STIM_003.jpg	99
2062.43	2.442	2441.9	regulate	Run3	regulate/STIM_003.jpg	99
2067.205	2.102	2102.0	regulate	Run3	regulate/STIM_004.jpg	99
2072.124	1.244	1243.8	regulate	Run3	regulate/STIM_004.jpg	99
2077.08	2.203	2202.6	regulate	Run3	regulate/STIM_004.jpg	100
2081.949	1.709	1709.1	regulate	Run3	regulate/STIM_004.jpg	100
2086.677	1.271	1270.9	regulate	Run3	regulate/STIM_005.jpg	99
2091.505	1.982	1982.0	regulate	Run3	regulate/STIM_005.jpg	99
2096.769	2.188	2188.1	regulate	Run3	regulate/STIM_005.jpg	100
2101.57	2.343	2342.9	regulate	Run3	regulate/STIM_005.jpg	100
2106.417	1.695	1694.6	regulate	Run3	regulate/STIM_006.jpg	99
2110.151	2.293	2293.0	regulate	Run3	regulate/STIM_006.jpg	100
2115.617	1.185	1185.0	regulate	Run3	regulate/STIM_006.jpg	100
2120.235	1.274	1273.9	regulate	Run3	regulate/STIM_006.jpg	99
2124.521	2.571	2571.3	regulate	Run3	regulate/STIM_007.jpg	99
2131.068	2.749	2748.6	regulate	Run3	regulate/STIM_007.jpg	99
2135.899	1.576	1576.2	regulate	Run3	regulate/STIM_007.jpg	99
2139.974	1.905	1905.0	regulate	Run3	regulate/STIM_007.jpg	99
2144.737	2.108	2108.1	regulate	Run3	regulate/STIM_008.jpg	99
2149.916	2.058	2058.1	regulate	Run3	regulate/STIM_008.jpg	100
2155.61	1.209	1208.6	regulate	Run3	regulate/STIM_008.jpg	99
2160.094	2.46	2460.5	regulate	Run3	regulate/STIM_008.jpg	99
2164.879	2.635	2635.2	regulate	Run3	regulate/STIM_009.jpg	99
2171.32	2.35	2350.1	regulate	Run3	regulate/STIM_009.jpg	100
2176.7	1.822	1821.6	regulate	Run3	regulate/STIM_009.jpg	99
2181.496	2.049	2048.9	regulate	Run3	regulate/STIM_009.jpg	100
2186.659	2.172	2171.9	regulate	Run3	regulate/STIM_010.jpg	100
2191.983	1.709	1709.0	regulate	Run3	regulate/STIM_010.jpg	100
2197.628	2.387	2387.1	regulate	Run3	regulate/STIM_010.jpg	99
2203.504	2.32	2320.1	regulate	Run3	regulate/STIM_010.jpg	100
2208.272	1.239	1238.6	regulate	Run3	regulate/STIM_011.jpg	99
2212.66	2.488	2487.9	regulate	Run3	regulate/STIM_011.jpg	100
2218.103	2.226	2225.5	regulate	Run3	regulate/STIM_011.jpg	100
2222.479	2.414	2414.0	regulate	Run3	regulate/STIM_011.jpg	100
2227.958	1.47	1469.6	regulate	Run3	regulate/STIM_012.jpg	99
2233.157	1.807	1806.6	regulate	Run3	regulate/STIM_012.jpg	100
2238.84	1.939	1939.2	regulate	Run3	regulate/STIM_012.jpg	99
2243.921	1.938	1938.3	regulate	Run3	regulate/STIM_012.jpg	99
2249.026	1.228	1227.9	regulate	Run3	regulate/STIM_013.jpg	99
2254.033	1.723	1722.6	regulate	Run3	regulate/STIM_013.jpg	99
2258.4	1.407	1406.7	regulate	Run3	regulate/STIM_013.jpg	100
2262.01	1.468	1468.5	regulate	Run3	regulate/STIM_013.jpg	100
2267.123	1.889	1888.9	regulate	Run3	regulate/STIM_014.jpg	99
2272.79	1.832	1832.4	regulate	Run3	regulate/STIM_014.jpg	100
2276.689	2.119	2119.0	regulate	Run3	regulate/STIM_014.jpg	100
2281.853	1.283	1283.1	regulate	Run3	regulate/STIM_014.jpg	99
2285.509	2.251	2250.8	regulate	Run3	regulate/STIM_015.jpg	100
2291.742	2.319	2318.8	regulate	Run3	regulate/STIM_015.jpg	100
2297.198	2.057	2056.9	regulate	Run3	regulate/STIM_015.jpg	100
2302.49	1.207	1206.6	regulate	Run3	regulate/STIM_015.jpg	100
2307.643	2.03	2029.9	regulate	Run3	regulate/STIM_016.jpg	100
2313.116	2.231	2231.2	regulate	Run3	regulate/STIM_016.jpg	100
2318.99	2.514	2514.1	regulate	Run3	regulate/STIM_016.jpg	99
2324.965	1.986	1985.9	regulate	Run3	regulate/STIM_016.jpg	99
2330.642	2.74	2740.5	regulate	Run3	regulate/STIM_017.jpg	99
2335.561	2.177	2177.4	regulate	Run3	regulate/STIM_017.jpg	99
2340.345	2.271	2270.7	regulate	Run3	regulate/STIM_017.jpg	99
2346.483	2.428	2427.9	regulate	Run3	regulate/STIM_017.jpg	100
2352.477	1.347	1346.8	regulate	Run3	regulate/STIM_018.jpg	99
2357.197	1.23	1230.1	regulate	Run3	regulate/STIM_018.jpg	100
2360.597	1.469	1469.2	regulate	Run3	regulate/STIM_018.jpg	99
2365.125	1.2	1200.2	regulate	Run3	regulate/STIM_018.jpg	100
2369.127	2.72	2719.6	regulate	Run3	regulate/STIM_019.jpg	100
2374.229	1.369	1369.4	regulate	Run3	regulate/STIM_019.jpg	100
2378.867	2.005	2005.4	regulate	Run3	regulate/STIM_019.jpg	99
2383.31	2.006	2006.2	regulate	Run3	regulate/STIM_019.jpg	100
2388.925	1.843	1842.8	regulate	Run3	regulate/STIM_020.jpg	99
2394.726	2.446	2446.0	regulate	Run3	regulate/STIM_020.jpg	100
2400.814	2.211	2210.7	regulate	Run3	regulate/STIM_020.jpg	100
2406.452	1.7	1699.7	regulate	Run3	regulate/STIM_020.jpg	99
2411.509	1.583	1583.4	regulate	Run3	regulate/STIM_021.jpg	100
2415.841	1.54	1539.6	regulate	Run3	regulate/STIM_021.jpg	99
2420.385	2.726	2726.2	regulate	Run3	regulate/STIM_021.jpg	99
2425.979	1.621	1621.4	regulate	Run3	regulate/STIM_021.jpg	99
2429.879	1.43	1430.3	regulate	Run3	regulate/STIM_022.jpg	100
2433.512	2.15	2150.5	regulate	Run3	regulate/STIM_022.jpg	100
2439.113	1.199	1199.0	regulate	Run3	regulate/STIM_022.jpg	99
2443.37	2.371	2370.8	regulate	Run3	regulate/STIM_022.jpg	100
2449.354	2.384	2383.9	regulate	Run3	regulate/STIM_023.jpg	100
2454.694	1.921	1921.4	regulate	Run3	regulate/STIM_023.jpg	99
2460.453	2.497	2497.2	regulate	Run3	regulate/STIM_023.jpg	100
2465.994	2.45	2449.5	regulate	Run3	regulate/STIM_023.jpg	99
2470.985	2.662	2662.4	regulate	Run3	regulate/STIM_024.jpg	99
2477.167	1.284	1284.2	regulate	Run3	regulate/STIM_024.jpg	100
2481.625	1.243	1242.9	regulate	Run3	regulate/STIM_024.jpg	100
2485.611	2.59	2590.1	regulate	Run3	regulate/STIM_024.jpg	100
2490.899	1.93	1929.6	regulate	Run3	regulate/STIM_025.jpg	100
2496.749	1.931	1931.0	regulate	Run3	regulate/STIM_025.jpg	100
2501.638	1.426	1426.4	regulate	Run3	regulate/STIM_025.jpg	99
2505.435	2.447	2447.2	regulate	Run3	regulate/STIM_025.jpg	100
2511.807	2.099	2098.9	regulate	Run3	regulate/STIM_026.jpg	100
2517.537	2.211	2211.3	regulate	Run3	regulate/STIM_026.jpg	100
2522.177	2.399	2399.4	regulate	Run3	regulate/STIM_026.jpg	99
2528.016	1.988	1987.7	regulate	Run3	regulate/STIM_026.jpg	100
2533.321	2.359	2359.2	regulate	Run3	regulate/STIM_027.jpg	99
2537.981	1.87	1870.4	regulate	Run3	regulate/STIM_027.jpg	99
2543.792	1.966	1966.3	regulate	Run3	regulate/STIM_027.jpg	99
2547.838	2.087	2087.2	regulate	Run3	regulate/STIM_027.jpg	99
2552.042	1.532	1532.2	regulate	Run3	regulate/STIM_028.jpg	99
2556.476	1.516	1516.0	regulate	Run3	regulate/STIM_028.jpg	99
2560.893	2.452	2452.3	regulate	Run3	regulate/STIM_028.jpg	99
2566.78	2.345	2345.2	regulate	Run3	regulate/STIM_028.jpg	99
2573.016	2.314	2314.0	regulate	Run3	regulate/STIM_029.jpg	100
2577.8	1.711	1710.8	regulate	Run3	regulate/STIM_029.jpg	99
2581.681	2.294	2293.6	regulate	Run3	regulate/STIM_029.jpg	99
2587.301	1.546	1546.4	regulate	Run3	regulate/STIM_029.jpg	100
2591.307	1.516	1515.5	observe	Run3	observe/STIM_000.jpg	99
2595.607	1.343	1343.2	observe	Run3	observe/STIM_000.jpg	100
2599.581	1.616	1616.2	observe	Run3	observe/STIM_000.jpg	100
2605.189	1.091	1091.4	observe	Run3	observe/STIM_000.jpg	99
2609.275	1.726	1726.2	observe	Run3	observe/STIM_001.jpg	99
2613.112	1.671	1671.1	observe	Run3	observe/STIM_001.jpg	100
2616.999	1.312	1311.9	observe	Run3	observe/STIM_001.jpg	100
2621.237	1.391	1390.8	observe	Run3	observe/STIM_001.jpg	100
2626.24	1.374	1373.8	observe	Run3	observe/STIM_002.jpg	100
2630.907	1.067	1067.3	observe	Run3	observe/STIM_002.jpg	100
2635.847	1.434	1434.3	observe	Run3	observe/STIM_002.jpg	100
2639.731	1.662	1662.5	observe	Run3	observe/STIM_002.jpg	100
2644.963	1.399	1398.6	observe	Run3	observe/STIM_003.jpg	100
2648.536	1.038	1037.5	observe	Run3	observe/STIM_003.jpg	100
2651.602	1.464	1463.8	observe	Run3	observe/STIM_003.jpg	99
2655.692	1.433	1432.7	observe	Run3	observe/STIM_003.jpg	100
2660.401	1.44	1439.6	observe	Run3	observe/STIM_004.jpg	99
2665.721	1.657	1657.1	observe	Run3	observe/STIM_004.jpg	100
2669.982	1.179	1179.0	observe	Run3	observe/STIM_004.jpg	100
2673.964	1.423	1422.9	observe	Run3	observe/STIM_004.jpg	99
2678.345	1.068	1068.1	observe	Run3	observe/STIM_005.jpg	99
2682.712	1.472	1471.7	observe	Run3	observe/STIM_005.jpg	100
2687.239	1.068	1067.7	observe	Run3	observe/STIM_005.jpg	100
2692.188	1.482	1481.8	observe	Run3	observe/STIM_005.jpg	100
2696.716	1.793	1792.7	observe	Run3	observe/STIM_006.jpg	100
2702.421	1.205	1205.4	observe	Run3	observe/STIM_006.jpg	100
2707.475	1.026	1025.7	observe	Run3	observe/STIM_006.jpg	99
2711.52	1.355	1354.7	observe	Run3	observe/STIM_006.jpg	99
2716.285	1.61	1609.9	observe	Run3	observe/STIM_007.jpg	99
2721.686	1.203	1202.7	observe	Run3	observe/STIM_007.jpg	99
2726.63	1.154	1154.3	observe	Run3	observe/STIM_007.jpg	100
2730.89	0.931	930.8	observe	Run3	observe/STIM_007.jpg	100
2735.147	1.26	1260.5	observe	Run3	observe/STIM_008.jpg	99
2739.659	1.568	1568.0	observe	Run3	observe/STIM_008.jpg	99
2743.413	1.116	1115.6	observe	Run3	observe/STIM_008.jpg	99
2747.37	1.226	1225.8	observe	Run3	observe/STIM_008.jpg	100
2750.791	1.272	1272.3	observe	Run3	observe/STIM_009.jpg	99
2755.375	1.242	1242.1	observe	Run3	observe/STIM_009.jpg	100
2759.855	1.496	1496.5	observe	Run3	observe/STIM_009.jpg	99
2764.857	1.727	1727.1	observe	Run3	observe/STIM_009.jpg	99
2770.29	1.582	1582.4	observe	Run3	observe/STIM_010.jpg	99
2775.044	1.268	1268.3	observe	Run3	observe/STIM_010.jpg	100
2778.622	1.506	1506.5	observe	Run3	observe/STIM_010.jpg	99
2784.017	1.066	1066.2	observe	Run3	observe/STIM_010.jpg	99
2787.259	1.638	1638.4	observe	Run3	observe/STIM_011.jpg	100
2791.788	1.452	1452.3	observe	Run3	observe/STIM_011.jpg	100
2796.49	1.697	1696.6	observe	Run3	observe/STIM_011.jpg	99
2800.547	0.984	984.3	observe	Run3	observe/STIM_011.jpg	100
2804.278	1.491	1490.6	observe	Run3	observe/STIM_012.jpg	100
2809.543	0.936	936.5	observe	Run3	observe/STIM_012.jpg	100
2814.082	1.268	1268.5	observe	Run3	observe/STIM_012.jpg	99
2819.09	1.452	1452.4	observe	Run3	observe/STIM_012.jpg	99
2823.966	1.032	1032.0	observe	Run3	observe/STIM_013.jpg	100
2827.991	1.015	1015.4	observe	Run3	observe/STIM_013.jpg	99
2832.203	1.68	1679.8	observe	Run3	observe/STIM_013.jpg	99
2837.717	1.295	1295.2	observe	Run3	observe/STIM_013.jpg	100
2841.302	1.098	1098.2	observe	Run3	observe/STIM_014.jpg	99
2844.812	1.141	1141.4	observe	Run3	observe/STIM_014.jpg	100
2849.368	1.5	1500.4	observe	Run3	observe/STIM_014.jpg	99
2854.594	1.252	1252.2	observe	Run3	observe/STIM_014.jpg	99
2858.11	1.173	1172.8	observe	Run3	observe/STIM_015.jpg	99
2861.883	1.694	1693.7	observe	Run3	observe/STIM_015.jpg	99
2865.793	1.384	1383.8	observe	Run3	observe/STIM_015.jpg	99
2869.466	1.647	1646.6	observe	Run3	observe/STIM_015.jpg	100
2874.407	1.168	1168.2	observe	Run3	observe/STIM_016.jpg	100
2879.48	1.533	1533.4	observe	Run3	observe/STIM_016.jpg	100
2883.837	1.073	1073.0	observe	Run3	observe/STIM_016.jpg	100
2887.547	1.32	1319.5	observe	Run3	observe/STIM_016.jpg	100
2892.862	0.915	915.1	observe	Run3	observe/STIM_017.jpg	99
2896.754	1.109	1108.8	observe	Run3	observe/STIM_017.jpg	99
2900.236	1.425	1425.0	observe	Run3	observe/STIM_017.jpg	99
2903.744	1.17	1170.0	observe	Run3	observe/STIM_017.jpg	100
2907.131	0.933	933.4	observe	Run3	observe/STIM_018.jpg	99
2911.552	1.613	1612.7	observe	Run3	observe/STIM_018.jpg	99
2917.041	1.033	1033.3	observe	Run3	observe/STIM_018.jpg	99
2920.291	1.234	1234.5	observe	Run3	observe/STIM_018.jpg	99
2924.068	1.408	1407.6	observe	Run3	observe/STIM_019.jpg	99
2929.475	1.387	1387.2	observe	Run3	observe/STIM_019.jpg	99
2934.356	1.41	1409.6	observe	Run3	observe/STIM_019.jpg	100
2938.792	1.297	1297.3	observe	Run3	observe/STIM_019.jpg	100
