onset	duration	accuracy	trial_type	learning_stage	stimulus
0.0	3.499	correct	regulate	Run1	regulate/STIM_000.jpg
6.015	3.337	correct	regulate	Run1	regulate/STIM_000.jpg
12.282	2.428	correct	regulate	Run1	regulate/STIM_000.jpg
17.646	2.705	correct	regulate	Run1	regulate/STIM_000.jpg
22.993	1.866	correct	regulate	Run1	regulate/STIM_001.jpg
27.132	1.937	correct	regulate	Run1	regulate/STIM_001.jpg
31.153	1.54	correct	regulate	Run1	regulate/STIM_001.jpg
34.97	2.477	correct	regulate	Run1	regulate/STIM_001.jpg
40.538	3.821	correct	regulate	Run1	regulate/STIM_002.jpg
46.588	2.522	correct	regulate	Run1	regulate/STIM_002.jpg
52.18	3.5	incorrect	regulate	Run1	regulate/STIM_002.jpg
58.085	2.331	incorrect	regulate	Run1	regulate/STIM_002.jpg
63.088	2.773	correct	regulate	Run1	regulate/STIM_003.jpg
68.442	2.446	correct	regulate	Run1	regulate/STIM_003.jpg
73.727	1.565	correct	regulate	Run1	regulate/STIM_003.jpg
78.551	2.479	correct	regulate	Run1	regulate/STIM_003.jpg
83.84	3.191	correct	regulate	Run1	regulate/STIM_004.jpg
89.144	1.913	incorrect	regulate	Run1	regulate/STIM_004.jpg
93.056	2.024	correct	regulate	Run1	regulate/STIM_004.jpg
97.653	2.816	correct	regulate	Run1	regulate/STIM_004.jpg
102.196	3.869	correct	regulate	Run1	regulate/STIM_005.jpg
109.211	2.276	incorrect	regulate	Run1	regulate/STIM_005.jpg
114.486	3.373	correct	regulate	Run1	regulate/STIM_005.jpg
120.757	2.066	correct	regulate	Run1	regulate/STIM_005.jpg
124.772	1.904	correct	regulate	Run1	regulate/STIM_006.jpg
130.159	3.005	incorrect	regulate	Run1	regulate/STIM_006.jpg
136.424	2.482	incorrect	regulate	Run1	regulate/STIM_006.jpg
142.462	2.296	correct	regulate	Run1	regulate/STIM_006.jpg
147.633	3.209	correct	regulate	Run1	regulate/STIM_007.jpg
153.759	3.213	correct	regulate	Run1	regulate/STIM_007.jpg
158.684	2.724	correct	regulate	Run1	regulate/STIM_007.jpg
163.642	2.328	correct	regulate	Run1	regulate/STIM_007.jpg
168.623	3.109	incorrect	regulate	Run1	regulate/STIM_008.jpg
175.362	3.209	correct	regulate	Run1	regulate/STIM_008.jpg
180.58	3.199	correct	regulate	Run1	regulate/STIM_008.jpg
186.508	2.557	correct	regulate	Run1	regulate/STIM_008.jpg
191.877	2.73	correct	regulate	Run1	regulate/STIM_009.jpg
196.775	3.492	incorrect	regulate	Run1	regulate/STIM_009.jpg
203.782	3.438	correct	regulate	Run1	regulate/STIM_009.jpg
210.255	2.609	correct	regulate	Run1	regulate/STIM_009.jpg
215.824	2.886	correct	regulate	Run1	regulate/STIM_010.jpg
221.901	1.789	correct	regulate	Run1	regulate/STIM_010.jpg
226.587	3.362	correct	regulate	Run1	regulate/STIM_010.jpg
231.615	1.996	correct	regulate	Run1	regulate/STIM_010.jpg
235.918	3.91	correct	regulate	Run1	regulate/STIM_011.jpg
242.029	3.444	correct	regulate	Run1	regulate/STIM_011.jpg
248.323	1.772	correct	regulate	Run1	regulate/STIM_011.jpg
253.601	2.341	correct	regulate	Run1	regulate/STIM_011.jpg
259.204	2.57	correct	regulate	Run1	regulate/STIM_012.jpg
263.58	3.096	correct	regulate	Run1	regulate/STIM_012.jpg
269.158	2.195	correct	regulate	Run1	regulate/STIM_012.jpg
273.795	1.853	incorrect	regulate	Run1	regulate/STIM_012.jpg
279.403	1.789	correct	regulate	Run1	regulate/STIM_013.jpg
283.443	1.887	correct	regulate	Run1	regulate/STIM_013.jpg
287.178	3.041	correct	regulate	Run1	regulate/STIM_013.jpg
293.236	2.748	correct	regulate	Run1	regulate/STIM_013.jpg
297.691	2.005	correct	regulate	Run1	regulate/STIM_014.jpg
301.612	2.06	correct	regulate	Run1	regulate/STIM_014.jpg
305.545	1.955	correct	regulate	Run1	regulate/STIM_014.jpg
309.818	2.934	incorrect	regulate	Run1	regulate/STIM_014.jpg
314.628	2.409	correct	regulate	Run1	regulate/STIM_015.jpg
319.19	2.06	correct	regulate	Run1	regulate/STIM_015.jpg
323.353	1.697	incorrect	regulate	Run1	regulate/STIM_015.jpg
328.159	3.02	correct	regulate	Run1	regulate/STIM_015.jpg
332.879	3.108	correct	regulate	Run1	regulate/STIM_016.jpg
337.734	3.015	correct	regulate	Run1	regulate/STIM_016.jpg
344.117	2.118	correct	regulate	Run1	regulate/STIM_016.jpg
348.274	3.312	correct	regulate	Run1	regulate/STIM_016.jpg
354.952	3.44	correct	regulate	Run1	regulate/STIM_017.jpg
360.191	3.587	incorrect	regulate	Run1	regulate/STIM_017.jpg
365.453	1.851	correct	regulate	Run1	regulate/STIM_017.jpg
369.322	2.437	incorrect	regulate	Run1	regulate/STIM_017.jpg
374.479	2.957	correct	regulate	Run1	regulate/STIM_018.jpg
379.481	1.657	correct	regulate	Run1	regulate/STIM_018.jpg
384.488	3.27	correct	regulate	Run1	regulate/STIM_018.jpg
390.933	2.216	correct	regulate	Run1	regulate/STIM_018.jpg
396.904	3.128	correct	regulate	Run1	regulate/STIM_019.jpg
403.474	2.83	incorrect	regulate	Run1	regulate/STIM_019.jpg
409.472	1.809	correct	regulate	Run1	regulate/STIM_019.jpg
414.646	1.44	correct	regulate	Run1	regulate/STIM_019.jpg
417.948	2.641	correct	regulate	Run1	regulate/STIM_020.jpg
422.66	2.578	incorrect	regulate	Run1	regulate/STIM_020.jpg
428.393	3.374	correct	regulate	Run1	regulate/STIM_020.jpg
434.278	2.654	incorrect	regulate	Run1	regulate/STIM_020.jpg
440.108	2.795	correct	regulate	Run1	regulate/STIM_021.jpg
445.097	2.137	correct	regulate	Run1	regulate/STIM_021.jpg
450.534	2.892	incorrect	regulate	Run1	regulate/STIM_021.jpg
457.04	2.812	correct	regulate	Run1	regulate/STIM_021.jpg
463.036	2.134	correct	regulate	Run1	regulate/STIM_022.jpg
468.794	3.11	correct	regulate	Run1	regulate/STIM_022.jpg
473.791	2.021	correct	regulate	Run1	regulate/STIM_022.jpg
479.45	3.292	correct	regulate	Run1	regulate/STIM_022.jpg
485.165	2.929	correct	regulate	Run1	regulate/STIM_023.jpg
491.59	3.029	correct	regulate	Run1	regulate/STIM_023.jpg
496.512	1.724	correct	regulate	Run1	regulate/STIM_023.jpg
500.737	1.724	correct	regulate	Run1	regulate/STIM_023.jpg
505.954	3.023	correct	regulate	Run1	regulate/STIM_024.jpg
511.438	3.358	correct	regulate	Run1	regulate/STIM_024.jpg
518.336	2.593	incorrect	regulate	Run1	regulate/STIM_024.jpg
523.715	1.89	correct	regulate	Run1	regulate/STIM_024.jpg
528.669	2.11	correct	regulate	Run1	regulate/STIM_025.jpg
534.168	2.936	correct	regulate	Run1	regulate/STIM_025.jpg
539.433	2.692	incorrect	regulate	Run1	regulate/STIM_025.jpg
545.779	2.1	incorrect	regulate	Run1	regulate/STIM_025.jpg
549.828	3.456	incorrect	regulate	Run1	regulate/STIM_026.jpg
555.364	3.055	correct	regulate	Run1	regulate/STIM_026.jpg
561.108	2.745	correct	regulate	Run1	regulate/STIM_026.jpg
566.842	3.159	correct	regulate	Run1	regulate/STIM_026.jpg
573.528	3.215	correct	regulate	Run1	regulate/STIM_027.jpg
579.125	1.866	incorrect	regulate	Run1	regulate/STIM_027.jpg
583.589	2.499	correct	regulate	Run1	regulate/STIM_027.jpg
587.842	2.735	correct	regulate	Run1	regulate/STIM_027.jpg
593.13	2.808	incorrect	regulate	Run1	regulate/STIM_028.jpg
597.895	3.643	correct	regulate	Run1	regulate/STIM_028.jpg
603.305	1.74	correct	regulate	Run1	regulate/STIM_028.jpg
607.833	1.972	incorrect	regulate	Run1	regulate/STIM_028.jpg
613.304	1.76	correct	regulate	Run1	regulate/STIM_029.jpg
618.604	3.699	correct	regulate	Run1	regulate/STIM_029.jpg
625.035	1.885	incorrect	regulate	Run1	regulate/STIM_029.jpg
629.999	1.884	incorrect	regulate	Run1	regulate/STIM_029.jpg
635.079	1.412	correct	observe	Run1	observe/STIM_000.jpg
639.956	1.215	correct	observe	Run1	observe/STIM_000.jpg
643.635	1.786	correct	observe	Run1	observe/STIM_000.jpg
648.342	1.113	correct	observe	Run1	observe/STIM_000.jpg
652.82	1.787	correct	observe	Run1	observe/STIM_001.jpg
656.502	0.992	correct	observe	Run1	observe/STIM_001.jpg
661.129	1.212	correct	observe	Run1	observe/STIM_001.jpg
666.069	1.244	incorrect	observe	Run1	observe/STIM_001.jpg
669.678	1.05	correct	observe	Run1	observe/STIM_002.jpg
674.336	1.788	correct	observe	Run1	observe/STIM_002.jpg
678.131	1.024	incorrect	observe	Run1	observe/STIM_002.jpg
682.877	1.517	correct	observe	Run1	observe/STIM_002.jpg
686.455	1.44	correct	observe	Run1	observe/STIM_003.jpg
691.29	1.401	correct	observe	Run1	observe/STIM_003.jpg
696.097	1.304	correct	observe	Run1	observe/STIM_003.jpg
700.142	1.759	correct	observe	Run1	observe/STIM_003.jpg
704.389	1.564	correct	observe	Run1	observe/STIM_004.jpg
709.111	1.051	correct	observe	Run1	observe/STIM_004.jpg
712.178	1.19	correct	observe	Run1	observe/STIM_004.jpg
716.927	1.792	correct	observe	Run1	observe/STIM_004.jpg
721.574	1.691	correct	observe	Run1	observe/STIM_005.jpg
726.47	1.693	correct	observe	Run1	observe/STIM_005.jpg
730.299	0.914	correct	observe	Run1	observe/STIM_005.jpg
734.321	1.745	correct	observe	Run1	observe/STIM_005.jpg
739.267	1.131	correct	observe	Run1	observe/STIM_006.jpg
742.84	1.402	correct	observe	Run1	observe/STIM_006.jpg
748.017	1.147	correct	observe	Run1	observe/STIM_006.jpg
752.167	1.47	correct	observe	Run1	observe/STIM_006.jpg
757.174	1.679	correct	observe	Run1	observe/STIM_007.jpg
762.307	1.238	correct	observe	Run1	observe/STIM_007.jpg
766.881	1.052	correct	observe	Run1	observe/STIM_007.jpg
770.258	1.128	correct	observe	Run1	observe/STIM_007.jpg
773.757	1.069	correct	observe	Run1	observe/STIM_008.jpg
778.627	1.662	correct	observe	Run1	observe/STIM_008.jpg
783.315	0.988	correct	observe	Run1	observe/STIM_008.jpg
787.018	1.565	correct	observe	Run1	observe/STIM_008.jpg
790.852	1.73	correct	observe	Run1	observe/STIM_009.jpg
795.132	1.703	correct	observe	Run1	observe/STIM_009.jpg
798.731	1.558	correct	observe	Run1	observe/STIM_009.jpg
803.307	1.184	correct	observe	Run1	observe/STIM_009.jpg
807.05	0.956	correct	observe	Run1	observe/STIM_010.jpg
810.023	1.528	incorrect	observe	Run1	observe/STIM_010.jpg
814.601	0.944	correct	observe	Run1	observe/STIM_010.jpg
819.365	1.391	correct	observe	Run1	observe/STIM_010.jpg
823.938	1.578	correct	observe	Run1	observe/STIM_011.jpg
827.691	1.083	incorrect	observe	Run1	observe/STIM_011.jpg
832.02	1.446	correct	observe	Run1	observe/STIM_011.jpg
835.926	1.2	correct	observe	Run1	observe/STIM_011.jpg
839.785	1.184	correct	observe	Run1	observe/STIM_012.jpg
843.353	1.2	correct	observe	Run1	observe/STIM_012.jpg
846.977	1.338	correct	observe	Run1	observe/STIM_012.jpg
850.983	1.3	correct	observe	Run1	observe/STIM_012.jpg
855.179	0.899	correct	observe	Run1	observe/STIM_013.jpg
859.656	1.724	correct	observe	Run1	observe/STIM_013.jpg
864.412	1.377	correct	observe	Run1	observe/STIM_013.jpg
869.055	1.45	correct	observe	Run1	observe/STIM_013.jpg
872.755	1.692	correct	observe	Run1	observe/STIM_014.jpg
876.485	0.933	correct	observe	Run1	observe/STIM_014.jpg
880.729	1.439	correct	observe	Run1	observe/STIM_014.jpg
885.733	1.153	correct	observe	Run1	observe/STIM_014.jpg
889.354	1.253	correct	observe	Run1	observe/STIM_015.jpg
893.863	1.474	correct	observe	Run1	observe/STIM_015.jpg
898.591	1.062	incorrect	observe	Run1	observe/STIM_015.jpg
902.883	1.283	correct	observe	Run1	observe/STIM_015.jpg
907.681	1.085	correct	observe	Run1	observe/STIM_016.jpg
911.211	1.565	correct	observe	Run1	observe/STIM_016.jpg
915.397	1.776	correct	observe	Run1	observe/STIM_016.jpg
919.772	1.238	correct	observe	Run1	observe/STIM_016.jpg
923.325	1.224	correct	observe	Run1	observe/STIM_017.jpg
927.235	1.313	correct	observe	Run1	observe/STIM_017.jpg
931.103	1.232	correct	observe	Run1	observe/STIM_017.jpg
935.929	1.682	correct	observe	Run1	observe/STIM_017.jpg
940.174	1.585	correct	observe	Run1	observe/STIM_018.jpg
944.33	1.246	correct	observe	Run1	observe/STIM_018.jpg
948.353	1.359	correct	observe	Run1	observe/STIM_018.jpg
951.674	1.095	correct	observe	Run1	observe/STIM_018.jpg
956.17	1.421	incorrect	observe	Run1	observe/STIM_019.jpg
961.158	1.602	correct	observe	Run1	observe/STIM_019.jpg
965.005	1.499	correct	observe	Run1	observe/STIM_019.jpg
970.163	1.774	correct	observe	Run1	observe/STIM_019.jpg
974.659	3.03	correct	regulate	Run2	regulate/STIM_000.jpg
980.339	2.886	correct	regulate	Run2	regulate/STIM_000.jpg
986.848	2.171	correct	regulate	Run2	regulate/STIM_000.jpg
991.531	2.227	correct	regulate	Run2	regulate/STIM_000.jpg
996.314	2.742	correct	regulate	Run2	regulate/STIM_001.jpg
1001.776	1.69	correct	regulate	Run2	regulate/STIM_001.jpg
1006.346	2.234	correct	regulate	Run2	regulate/STIM_001.jpg
1010.427	2.095	correct	regulate	Run2	regulate/STIM_001.jpg
1015.581	2.294	incorrect	regulate	Run2	regulate/STIM_002.jpg
1020.418	2.236	correct	regulate	Run2	regulate/STIM_002.jpg
1024.959	1.745	correct	regulate	Run2	regulate/STIM_002.jpg
1029.138	1.797	correct	regulate	Run2	regulate/STIM_002.jpg
1034.041	2.786	correct	regulate	Run2	regulate/STIM_003.jpg
1039.126	2.733	correct	regulate	Run2	regulate/STIM_003.jpg
1045.317	1.901	correct	regulate	Run2	regulate/STIM_003.jpg
1049.637	1.694	correct	regulate	Run2	regulate/STIM_003.jpg
1055.112	3.153	correct	regulate	Run2	regulate/STIM_004.jpg
1061.504	1.504	correct	regulate	Run2	regulate/STIM_004.jpg
1066.638	2.377	correct	regulate	Run2	regulate/STIM_004.jpg
1072.41	2.715	correct	regulate	Run2	regulate/STIM_004.jpg
1078.381	2.529	correct	regulate	Run2	regulate/STIM_005.jpg
1082.766	2.109	correct	regulate	Run2	regulate/STIM_005.jpg
1088.356	2.234	incorrect	regulate	Run2	regulate/STIM_005.jpg
1093.159	1.253	correct	regulate	Run2	regulate/STIM_005.jpg
1097.511	3.092	correct	regulate	Run2	regulate/STIM_006.jpg
1102.91	2.287	correct	regulate	Run2	regulate/STIM_006.jpg
1107.881	2.665	correct	regulate	Run2	regulate/STIM_006.jpg
1112.371	2.53	correct	regulate	Run2	regulate/STIM_006.jpg
1117.476	1.725	correct	regulate	Run2	regulate/STIM_007.jpg
1122.222	3.072	correct	regulate	Run2	regulate/STIM_007.jpg
1127.951	2.935	correct	regulate	Run2	regulate/STIM_007.jpg
1132.841	2.436	correct	regulate	Run2	regulate/STIM_007.jpg
1138.895	1.786	incorrect	regulate	Run2	regulate/STIM_008.jpg
1143.072	2.367	incorrect	regulate	Run2	regulate/STIM_008.jpg
1147.908	1.269	correct	regulate	Run2	regulate/STIM_008.jpg
1152.856	1.695	correct	regulate	Run2	regulate/STIM_008.jpg
1157.856	2.331	incorrect	regulate	Run2	regulate/STIM_009.jpg
1163.636	2.957	correct	regulate	Run2	regulate/STIM_009.jpg
1168.802	2.123	correct	regulate	Run2	regulate/STIM_009.jpg
1172.751	1.238	correct	regulate	Run2	regulate/STIM_009.jpg
1177.472	3.326	correct	regulate	Run2	regulate/STIM_010.jpg
1184.416	2.561	correct	regulate	Run2	regulate/STIM_010.jpg
1189.937	1.872	correct	regulate	Run2	regulate/STIM_010.jpg
1193.992	2.104	correct	regulate	Run2	regulate/STIM_010.jpg
1199.449	3.085	incorrect	regulate	Run2	regulate/STIM_011.jpg
1205.674	1.814	correct	regulate	Run2	regulate/STIM_011.jpg
1210.312	1.96	correct	regulate	Run2	regulate/STIM_011.jpg
1214.065	2.375	correct	regulate	Run2	regulate/STIM_011.jpg
1218.214	2.826	correct	regulate	Run2	regulate/STIM_012.jpg
1223.432	2.719	correct	regulate	Run2	regulate/STIM_012.jpg
1228.834	1.434	incorrect	regulate	Run2	regulate/STIM_012.jpg
1232.579	2.67	correct	regulate	Run2	regulate/STIM_012.jpg
1238.684	2.287	correct	regulate	Run2	regulate/STIM_013.jpg
1243.027	1.796	correct	regulate	Run2	regulate/STIM_013.jpg
1247.219	2.693	correct	regulate	Run2	regulate/STIM_013.jpg
1252.925	1.771	correct	regulate	Run2	regulate/STIM_013.jpg
1257.227	2.074	correct	regulate	Run2	regulate/STIM_014.jpg
1262.644	2.406	correct	regulate	Run2	regulate/STIM_014.jpg
1267.433	2.251	correct	regulate	Run2	regulate/STIM_014.jpg
1271.591	1.654	correct	regulate	Run2	regulate/STIM_014.jpg
1275.957	1.837	correct	regulate	Run2	regulate/STIM_015.jpg
1280.683	2.157	correct	regulate	Run2	regulate/STIM_015.jpg
1284.814	2.436	incorrect	regulate	Run2	regulate/STIM_015.jpg
1289.68	1.404	correct	regulate	Run2	regulate/STIM_015.jpg
1293.001	3.074	incorrect	regulate	Run2	regulate/STIM_016.jpg
1299.438	2.44	correct	regulate	Run2	regulate/STIM_016.jpg
1304.969	2.26	correct	regulate	Run2	regulate/STIM_016.jpg
1310.378	2.118	correct	regulate	Run2	regulate/STIM_016.jpg
1315.878	1.431	correct	regulate	Run2	regulate/STIM_017.jpg
1320.344	2.616	correct	regulate	Run2	regulate/STIM_017.jpg
1325.265	1.595	correct	regulate	Run2	regulate/STIM_017.jpg
1329.829	2.598	correct	regulate	Run2	regulate/STIM_017.jpg
1336.142	2.79	correct	regulate	Run2	regulate/STIM_018.jpg
1342.064	1.582	correct	regulate	Run2	regulate/STIM_018.jpg
1346.323	1.504	correct	regulate	Run2	regulate/STIM_018.jpg
1350.995	2.385	correct	regulate	Run2	regulate/STIM_018.jpg
1355.328	3.251	correct	regulate	Run2	regulate/STIM_019.jpg
1361.851	2.306	correct	regulate	Run2	regulate/STIM_019.jpg
1366.938	2.771	incorrect	regulate	Run2	regulate/STIM_019.jpg
1372.866	2.291	correct	regulate	Run2	regulate/STIM_019.jpg
1378.167	3.076	correct	regulate	Run2	regulate/STIM_020.jpg
1384.249	1.363	correct	regulate	Run2	regulate/STIM_020.jpg
1388.295	2.089	correct	regulate	Run2	regulate/STIM_020.jpg
1393.452	2.09	correct	regulate	Run2	regulate/STIM_020.jpg
1397.931	1.453	correct	regulate	Run2	regulate/STIM_021.jpg
1402.146	2.353	incorrect	regulate	Run2	regulate/STIM_021.jpg
1406.527	2.308	correct	regulate	Run2	regulate/STIM_021.jpg
1411.943	1.478	correct	regulate	Run2	regulate/STIM_021.jpg
1415.608	3.052	correct	regulate	Run2	regulate/STIM_022.jpg
1421.293	2.592	correct	regulate	Run2	regulate/STIM_022.jpg
1425.829	1.5	incorrect	regulate	Run2	regulate/STIM_022.jpg
1431.085	2.046	correct	regulate	Run2	regulate/STIM_022.jpg
1435.494	3.291	correct	regulate	Run2	regulate/STIM_023.jpg
1440.83	1.989	correct	regulate	Run2	regulate/STIM_023.jpg
1445.237	1.57	incorrect	regulate	Run2	regulate/STIM_023.jpg
1449.46	1.277	correct	regulate	Run2	regulate/STIM_023.jpg
1454.15	2.485	correct	regulate	Run2	regulate/STIM_024.jpg
1460.048	2.782	correct	regulate	Run2	regulate/STIM_024.jpg
1466.407	1.828	correct	regulate	Run2	regulate/STIM_024.jpg
1471.707	2.38	correct	regulate	Run2	regulate/STIM_024.jpg
1477.669	1.743	correct	regulate	Run2	regulate/STIM_025.jpg
1481.529	2.881	correct	regulate	Run2	regulate/STIM_025.jpg
1486.169	2.108	correct	regulate	Run2	regulate/STIM_025.jpg
1491.811	1.696	correct	regulate	Run2	regulate/STIM_025.jpg
1495.551	1.903	correct	regulate	Run2	regulate/STIM_026.jpg
1499.72	3.074	correct	regulate	Run2	regulate/STIM_026.jpg
1505.051	1.8	correct	regulate	Run2	regulate/STIM_026.jpg
1510.476	1.627	correct	regulate	Run2	regulate/STIM_026.jpg
1515.64	2.427	correct	regulate	Run2	regulate/STIM_027.jpg
1519.97	2.898	correct	regulate	Run2	regulate/STIM_027.jpg
1524.984	2.283	correct	regulate	Run2	regulate/STIM_027.jpg
1530.576	2.162	correct	regulate	Run2	regulate/STIM_027.jpg
1534.695	1.491	correct	regulate	Run2	regulate/STIM_028.jpg
1538.5	1.771	correct	regulate	Run2	regulate/STIM_028.jpg
1542.729	2.942	correct	regulate	Run2	regulate/STIM_028.jpg
1549.061	2.01	correct	regulate	Run2	regulate/STIM_028.jpg
1553.67	2.969	incorrect	regulate	Run2	regulate/STIM_029.jpg
1559.504	1.947	correct	regulate	Run2	regulate/STIM_029.jpg
1565.118	2.336	correct	regulate	Run2	regulate/STIM_029.jpg
1570.727	1.986	correct	regulate	Run2	regulate/STIM_029.jpg
1574.587	1.075	correct	observe	Run2	observe/STIM_000.jpg
1577.627	1.12	correct	observe	Run2	observe/STIM_000.jpg
1580.819	1.091	correct	observe	Run2	observe/STIM_000.jpg
1583.812	0.978	correct	observe	Run2	observe/STIM_000.jpg
1587.366	1.136	correct	observe	Run2	observe/STIM_001.jpg
1591.125	1.52	correct	observe	Run2	observe/STIM_001.jpg
1594.905	1.183	correct	observe	Run2	observe/STIM_001.jpg
1598.204	1.762	correct	observe	Run2	observe/STIM_001.jpg
1602.433	1.485	correct	observe	Run2	observe/STIM_002.jpg
1607.02	0.924	correct	observe	Run2	observe/STIM_002.jpg
1610.35	1.342	correct	observe	Run2	observe/STIM_002.jpg
1614.279	0.99	correct	observe	Run2	observe/STIM_002.jpg
1619.014	1.48	correct	observe	Run2	observe/STIM_003.jpg
1623.221	1.279	correct	observe	Run2	observe/STIM_003.jpg
1627.931	1.631	correct	observe	Run2	observe/STIM_003.jpg
1633.249	1.416	correct	observe	Run2	observe/STIM_003.jpg
1636.933	1.753	correct	observe	Run2	observe/STIM_004.jpg
1641.866	1.091	correct	observe	Run2	observe/STIM_004.jpg
1646.486	1.186	correct	observe	Run2	observe/STIM_004.jpg
1650.359	1.673	correct	observe	Run2	observe/STIM_004.jpg
1654.087	1.389	incorrect	observe	Run2	observe/STIM_005.jpg
1658.809	1.384	correct	observe	Run2	observe/STIM_005.jpg
1663.426	1.713	correct	observe	Run2	observe/STIM_005.jpg
1668.232	1.205	incorrect	observe	Run2	observe/STIM_005.jpg
1671.901	1.179	incorrect	observe	Run2	observe/STIM_006.jpg
1675.647	0.999	correct	observe	Run2	observe/STIM_006.jpg
1680.455	1.768	correct	observe	Run2	observe/STIM_006.jpg
1685.256	1.135	correct	observe	Run2	observe/STIM_006.jpg
1689.051	1.57	correct	observe	Run2	observe/STIM_007.jpg
1693.387	1.247	correct	observe	Run2	observe/STIM_007.jpg
1696.796	1.517	correct	observe	Run2	observe/STIM_007.jpg
1701.993	1.028	correct	observe	Run2	observe/STIM_007.jpg
1706.315	1.631	correct	observe	Run2	observe/STIM_008.jpg
1711.317	1.063	correct	observe	Run2	observe/STIM_008.jpg
1716.171	1.437	correct	observe	Run2	observe/STIM_008.jpg
1721.295	1.234	correct	observe	Run2	observe/STIM_008.jpg
1725.152	1.067	incorrect	observe	Run2	observe/STIM_009.jpg
1729.688	1.548	correct	observe	Run2	observe/STIM_009.jpg
1733.753	1.179	correct	observe	Run2	observe/STIM_009.jpg
1738.33	0.943	correct	observe	Run2	observe/STIM_009.jpg
1743.115	1.524	correct	observe	Run2	observe/STIM_010.jpg
1747.678	1.119	correct	observe	Run2	observe/STIM_010.jpg
1751.266	1.762	correct	observe	Run2	observe/STIM_010.jpg
1755.992	1.042	correct	observe	Run2	observe/STIM_010.jpg
1759.309	1.675	incorrect	observe	Run2	observe/STIM_011.jpg
1763.551	1.199	correct	observe	Run2	observe/STIM_011.jpg
1767.81	1.457	correct	observe	Run2	observe/STIM_011.jpg
1772.62	0.963	incorrect	observe	Run2	observe/STIM_011.jpg
1776.618	1.085	correct	observe	Run2	observe/STIM_012.jpg
1781.274	1.439	correct	observe	Run2	observe/STIM_012.jpg
1784.714	1.168	correct	observe	Run2	observe/STIM_012.jpg
1788.139	1.142	correct	observe	Run2	observe/STIM_012.jpg
1792.71	0.996	correct	observe	Run2	observe/STIM_013.jpg
1797.322	1.133	incorrect	observe	Run2	observe/STIM_013.jpg
1800.471	0.948	correct	observe	Run2	observe/STIM_013.jpg
1804.967	1.25	correct	observe	Run2	observe/STIM_013.jpg
1809.24	1.563	incorrect	observe	Run2	observe/STIM_014.jpg
1813.279	1.756	correct	observe	Run2	observe/STIM_014.jpg
1817.502	1.171	correct	observe	Run2	observe/STIM_014.jpg
1820.673	1.166	correct	observe	Run2	observe/STIM_014.jpg
1824.731	1.6	correct	observe	Run2	observe/STIM_015.jpg
1829.868	0.91	correct	observe	Run2	observe/STIM_015.jpg
1832.727	1.474	correct	observe	Run2	observe/STIM_015.jpg
1836.71	1.082	correct	observe	Run2	observe/STIM_015.jpg
1841.207	1.29	correct	observe	Run2	observe/STIM_016.jpg
1845.815	1.046	correct	observe	Run2	observe/STIM_016.jpg
1850.455	1.508	correct	observe	Run2	observe/STIM_016.jpg
1854.871	1.004	correct	observe	Run2	observe/STIM_016.jpg
1859.143	1.652	correct	observe	Run2	observe/STIM_017.jpg
1863.878	1.091	incorrect	observe	Run2	observe/STIM_017.jpg
1867.647	1.51	correct	observe	Run2	observe/STIM_017.jpg
1871.247	0.928	correct	observe	Run2	observe/STIM_017.jpg
1875.285	0.929	correct	observe	Run2	observe/STIM_018.jpg
1878.856	1.762	correct	observe	Run2	observe/STIM_018.jpg
1882.948	1.138	correct	observe	Run2	observe/STIM_018.jpg
1887.155	1.466	correct	observe	Run2	observe/STIM_018.jpg
1892.305	0.903	correct	observe	Run2	observe/STIM_019.jpg
1896.395	0.925	correct	observe	Run2	observe/STIM_019.jpg
1899.627	1.559	correct	observe	Run2	observe/STIM_019.jpg
1904.429	1.167	correct	observe	Run2	observe/STIM_019.jpg
1907.782	1.985	correct	regulate	Run3	regulate/STIM_000.jpg
1911.86	1.72	correct	regulate	Run3	regulate/STIM_000.jpg
1915.542	2.022	correct	regulate	Run3	regulate/STIM_000.jpg
1920.06	1.329	correct	regulate	Run3	regulate/STIM_000.jpg
1925.082	1.364	correct	regulate	Run3	regulate/STIM_001.jpg
1929.038	2.159	correct	regulate	Run3	regulate/STIM_001.jpg
1933.23	1.621	correct	regulate	Run3	regulate/STIM_001.jpg
1936.803	1.561	incorrect	regulate	Run3	regulate/STIM_001.jpg
1940.808	2.664	correct	regulate	Run3	regulate/STIM_002.jpg
1947.029	1.208	correct	regulate	Run3	regulate/STIM_002.jpg
1951.51	1.921	correct	regulate	Run3	regulate/STIM_002.jpg
1956.264	1.502	correct	regulate	Run3	regulate/STIM_002.jpg
1959.882	1.242	correct	regulate	Run3	regulate/STIM_003.jpg
1964.172	1.588	correct	regulate	Run3	regulate/STIM_003.jpg
1967.748	1.532	correct	regulate	Run3	regulate/STIM_003.jpg
1972.439	2.158	correct	regulate	Run3	regulate/STIM_003.jpg
1978.248	1.407	correct	regulate	Run3	regulate/STIM_004.jpg
1983.348	2.654	correct	regulate	Run3	regulate/STIM_004.jpg
1989.427	1.681	correct	regulate	Run3	regulate/STIM_004.jpg
1994.825	1.992	correct	regulate	Run3	regulate/STIM_004.jpg
2000.249	1.834	correct	regulate	Run3	regulate/STIM_005.jpg
2005.498	1.972	correct	regulate	Run3	regulate/STIM_005.jpg
2010.147	2.512	correct	regulate	Run3	regulate/STIM_005.jpg
2015.441	1.971	correct	regulate	Run3	regulate/STIM_005.jpg
2020.291	1.894	correct	regulate	Run3	regulate/STIM_006.jpg
2025.438	2.069	incorrect	regulate	Run3	regulate/STIM_006.jpg
2030.31	2.178	correct	regulate	Run3	regulate/STIM_006.jpg
2036.243	2.106	correct	regulate	Run3	regulate/STIM_006.jpg
2041.282	1.448	correct	regulate	Run3	regulate/STIM_007.jpg
2046.463	1.753	correct	regulate	Run3	regulate/STIM_007.jpg
2050.924	1.653	correct	regulate	Run3	regulate/STIM_007.jpg
2054.458	2.427	correct	regulate	Run3	regulate/STIM_007.jpg
2060.158	1.488	correct	regulate	Run3	regulate/STIM_008.jpg
2065.094	2.006	correct	regulate	Run3	regulate/STIM_008.jpg
2069.024	2.05	correct	regulate	Run3	regulate/STIM_008.jpg
2073.052	2.74	correct	regulate	Run3	regulate/STIM_008.jpg
2079.208	2.22	correct	regulate	Run3	regulate/STIM_009.jpg
2083.193	2.084	correct	regulate	Run3	regulate/STIM_009.jpg
2088.001	1.681	correct	regulate	Run3	regulate/STIM_009.jpg
2092.994	1.851	incorrect	regulate	Run3	regulate/STIM_009.jpg
2097.453	2.325	correct	regulate	Run3	regulate/STIM_010.jpg
2102.692	2.605	incorrect	regulate	Run3	regulate/STIM_010.jpg
2108.83	2.631	correct	regulate	Run3	regulate/STIM_010.jpg
2114.981	2.154	correct	regulate	Run3	regulate/STIM_010.jpg
2120.843	1.969	correct	regulate	Run3	regulate/STIM_011.jpg
2126.123	2.672	correct	regulate	Run3	regulate/STIM_011.jpg
2131.904	2.194	correct	regulate	Run3	regulate/STIM_011.jpg
2136.859	1.586	correct	regulate	Run3	regulate/STIM_011.jpg
2141.62	1.82	incorrect	regulate	Run3	regulate/STIM_012.jpg
2146.312	1.501	correct	regulate	Run3	regulate/STIM_012.jpg
2150.668	2.506	correct	regulate	Run3	regulate/STIM_012.jpg
2155.958	2.208	correct	regulate	Run3	regulate/STIM_012.jpg
2160.987	1.518	correct	regulate	Run3	regulate/STIM_013.jpg
2164.77	1.76	correct	regulate	Run3	regulate/STIM_013.jpg
2169.339	2.127	correct	regulate	Run3	regulate/STIM_013.jpg
2174.247	1.878	correct	regulate	Run3	regulate/STIM_013.jpg
2179.789	2.507	correct	regulate	Run3	regulate/STIM_014.jpg
2185.201	1.482	correct	regulate	Run3	regulate/STIM_014.jpg
2190.321	1.285	correct	regulate	Run3	regulate/STIM_014.jpg
2193.638	1.804	correct	regulate	Run3	regulate/STIM_014.jpg
2197.41	2.305	correct	regulate	Run3	regulate/STIM_015.jpg
2203.275	1.755	correct	regulate	Run3	regulate/STIM_015.jpg
2207.299	1.618	correct	regulate	Run3	regulate/STIM_015.jpg
2211.116	2.037	correct	regulate	Run3	regulate/STIM_015.jpg
2215.629	1.236	correct	regulate	Run3	regulate/STIM_016.jpg
2219.141	1.322	correct	regulate	Run3	regulate/STIM_016.jpg
2222.584	2.153	correct	regulate	Run3	regulate/STIM_016.jpg
2227.006	1.468	correct	regulate	Run3	regulate/STIM_016.jpg
2231.676	2.527	correct	regulate	Run3	regulate/STIM_017.jpg
2237.387	2.01	correct	regulate	Run3	regulate/STIM_017.jpg
2241.842	2.496	correct	regulate	Run3	regulate/STIM_017.jpg
2248.044	1.949	correct	regulate	Run3	regulate/STIM_017.jpg
2252.902	2.702	correct	regulate	Run3	regulate/STIM_018.jpg
2257.379	1.232	correct	regulate	Run3	regulate/STIM_018.jpg
2261.733	1.469	correct	regulate	Run3	regulate/STIM_018.jpg
2265.24	1.198	correct	regulate	Run3	regulate/STIM_018.jpg
2269.657	2.653	correct	regulate	Run3	regulate/STIM_019.jpg
2274.212	1.656	correct	regulate	Run3	regulate/STIM_019.jpg
2277.825	2.157	correct	regulate	Run3	regulate/STIM_019.jpg
2283.552	1.808	correct	regulate	Run3	regulate/STIM_019.jpg
2287.475	1.715	correct	regulate	Run3	regulate/STIM_020.jpg
2291.2	1.22	correct	regulate	Run3	regulate/STIM_020.jpg
2294.556	2.088	correct	regulate	Run3	regulate/STIM_020.jpg
2298.957	1.646	correct	regulate	Run3	regulate/STIM_020.jpg
2303.389	1.334	correct	regulate	Run3	regulate/STIM_021.jpg
2307.23	2.514	incorrect	regulate	Run3	regulate/STIM_021.jpg
2311.796	1.42	correct	regulate	Run3	regulate/STIM_021.jpg
2316.222	2.733	correct	regulate	Run3	regulate/STIM_021.jpg
2321.789	1.189	correct	regulate	Run3	regulate/STIM_022.jpg
2325.173	1.444	incorrect	regulate	Run3	regulate/STIM_022.jpg
2329.834	1.522	correct	regulate	Run3	regulate/STIM_022.jpg
2333.774	2.096	correct	regulate	Run3	regulate/STIM_022.jpg
2337.932	2.585	correct	regulate	Run3	regulate/STIM_023.jpg
2343.067	2.393	correct	regulate	Run3	regulate/STIM_023.jpg
2348.349	2.06	correct	regulate	Run3	regulate/STIM_023.jpg
2352.299	1.705	correct	regulate	Run3	regulate/STIM_023.jpg
2356.466	2.556	correct	regulate	Run3	regulate/STIM_024.jpg
2361.959	2.738	correct	regulate	Run3	regulate/STIM_024.jpg
2367.857	1.704	correct	regulate	Run3	regulate/STIM_024.jpg
2372.312	1.374	correct	regulate	Run3	regulate/STIM_024.jpg
2375.613	2.694	correct	regulate	Run3	regulate/STIM_025.jpg
2381.927	1.644	correct	regulate	Run3	regulate/STIM_025.jpg
2387.17	1.902	correct	regulate	Run3	regulate/STIM_025.jpg
2391.559	2.54	correct	regulate	Run3	regulate/STIM_025.jpg
2396.853	2.008	correct	regulate	Run3	regulate/STIM_026.jpg
2401.668	2.308	correct	regulate	Run3	regulate/STIM_026.jpg
2405.784	1.231	correct	regulate	Run3	regulate/STIM_026.jpg
2409.106	2.155	correct	regulate	Run3	regulate/STIM_026.jpg
2414.575	1.439	correct	regulate	Run3	regulate/STIM_027.jpg
2418.371	1.66	incorrect	regulate	Run3	regulate/STIM_027.jpg
2422.309	2.13	correct	regulate	Run3	regulate/STIM_027.jpg
2426.636	2.563	correct	regulate	Run3	regulate/STIM_027.jpg
2432.513	1.217	correct	regulate	Run3	regulate/STIM_028.jpg
2435.856	2.329	correct	regulate	Run3	regulate/STIM_028.jpg
2441.292	1.936	correct	regulate	Run3	regulate/STIM_028.jpg
2445.267	1.578	correct	regulate	Run3	regulate/STIM_028.jpg
2449.972	1.486	correct	regulate	Run3	regulate/STIM_029.jpg
2454.562	1.876	correct	regulate	Run3	regulate/STIM_029.jpg
2458.96	1.408	correct	regulate	Run3	regulate/STIM_029.jpg
2463.011	2.637	correct	regulate	Run3	regulate/STIM_029.jpg
2468.433	1.354	correct	observe	Run3	observe/STIM_000.jpg
2473.053	1.295	correct	observe	Run3	observe/STIM_000.jpg
2477.646	0.98	correct	observe	Run3	observe/STIM_000.jpg
2482.183	1.036	correct	observe	Run3	observe/STIM_000.jpg
2485.442	1.556	correct	observe	Run3	observe/STIM_001.jpg
2489.392	1.504	correct	observe	Run3	observe/STIM_001.jpg
2493.542	0.945	incorrect	observe	Run3	observe/STIM_001.jpg
2498.227	1.099	correct	observe	Run3	observe/STIM_001.jpg
2503.139	1.359	correct	observe	Run3	observe/STIM_002.jpg
2507.065	0.901	correct	observe	Run3	observe/STIM_002.jpg
2511.279	0.95	incorrect	observe	Run3	observe/STIM_002.jpg
2515.335	1.646	correct	observe	Run3	observe/STIM_002.jpg
2520.522	1.56	correct	observe	Run3	observe/STIM_003.jpg
2524.353	0.936	incorrect	observe	Run3	observe/STIM_003.jpg
2528.843	1.322	correct	observe	Run3	observe/STIM_003.jpg
2533.482	1.222	correct	observe	Run3	observe/STIM_003.jpg
2537.207	1.469	correct	observe	Run3	observe/STIM_004.jpg
2540.855	0.945	correct	observe	Run3	observe/STIM_004.jpg
2543.924	1.059	correct	observe	Run3	observe/STIM_004.jpg
2548.203	0.938	correct	observe	Run3	observe/STIM_004.jpg
2552.349	1.625	incorrect	observe	Run3	observe/STIM_005.jpg
2556.517	1.788	correct	observe	Run3	observe/STIM_005.jpg
2561.552	1.618	correct	observe	Run3	observe/STIM_005.jpg
2566.378	1.022	correct	observe	Run3	observe/STIM_005.jpg
2569.946	1.746	correct	observe	Run3	observe/STIM_006.jpg
2574.255	1.583	correct	observe	Run3	observe/STIM_006.jpg
2577.8	1.247	incorrect	observe	Run3	observe/STIM_006.jpg
2581.308	1.666	correct	observe	Run3	observe/STIM_006.jpg
2585.482	1.361	correct	observe	Run3	observe/STIM_007.jpg
2590.036	1.038	correct	observe	Run3	observe/STIM_007.jpg
2593.893	1.193	correct	observe	Run3	observe/STIM_007.jpg
2598.093	1.107	correct	observe	Run3	observe/STIM_007.jpg
2601.276	1.755	correct	observe	Run3	observe/STIM_008.jpg
2605.499	1.31	correct	observe	Run3	observe/STIM_008.jpg
2609.214	1.073	correct	observe	Run3	observe/STIM_008.jpg
2613.671	1.08	correct	observe	Run3	observe/STIM_008.jpg
2616.945	1.662	correct	observe	Run3	observe/STIM_009.jpg
2622.074	1.007	correct	observe	Run3	observe/STIM_009.jpg
2625.482	1.133	correct	observe	Run3	observe/STIM_009.jpg
2630.35	1.36	correct	observe	Run3	observe/STIM_009.jpg
2635.212	1.191	incorrect	observe	Run3	observe/STIM_010.jpg
2638.613	1.574	correct	observe	Run3	observe/STIM_010.jpg
2642.984	1.192	correct	observe	Run3	observe/STIM_010.jpg
2647.188	1.125	correct	observe	Run3	observe/STIM_010.jpg
2651.316	1.324	incorrect	observe	Run3	observe/STIM_011.jpg
2655.462	1.775	correct	observe	Run3	observe/STIM_011.jpg
2659.405	1.44	correct	observe	Run3	observe/STIM_011.jpg
2663.68	1.013	correct	observe	Run3	observe/STIM_011.jpg
2667.514	1.314	correct	observe	Run3	observe/STIM_012.jpg
2672.04	1.596	correct	observe	Run3	observe/STIM_012.jpg
2675.643	1.634	correct	observe	Run3	observe/STIM_012.jpg
2680.044	1.324	correct	observe	Run3	observe/STIM_012.jpg
2683.853	1.668	correct	observe	Run3	observe/STIM_013.jpg
2688.002	1.601	correct	observe	Run3	observe/STIM_013.jpg
2693.284	1.106	correct	observe	Run3	observe/STIM_013.jpg
2697.969	1.728	correct	observe	Run3	observe/STIM_013.jpg
2702.338	1.011	correct	observe	Run3	observe/STIM_014.jpg
2706.633	0.953	correct	observe	Run3	observe/STIM_014.jpg
2710.543	1.649	correct	observe	Run3	observe/STIM_014.jpg
2715.243	1.422	correct	observe	Run3	observe/STIM_014.jpg
2719.752	1.275	correct	observe	Run3	observe/STIM_015.jpg
2723.812	1.524	correct	observe	Run3	observe/STIM_015.jpg
2727.638	1.116	correct	observe	Run3	observe/STIM_015.jpg
2731.368	1.669	correct	observe	Run3	observe/STIM_015.jpg
2735.735	1.352	correct	observe	Run3	observe/STIM_016.jpg
2740.899	1.022	correct	observe	Run3	observe/STIM_016.jpg
2744.681	0.927	correct	observe	Run3	observe/STIM_016.jpg
2748.101	1.736	correct	observe	Run3	observe/STIM_016.jpg
2753.442	1.0	correct	observe	Run3	observe/STIM_017.jpg
2757.98	1.368	correct	observe	Run3	observe/STIM_017.jpg
2762.08	1.593	correct	observe	Run3	observe/STIM_017.jpg
2766.989	1.075	correct	observe	Run3	observe/STIM_017.jpg
2770.09	1.313	correct	observe	Run3	observe/STIM_018.jpg
2773.979	1.69	correct	observe	Run3	observe/STIM_018.jpg
2779.183	1.318	correct	observe	Run3	observe/STIM_018.jpg
2783.704	1.051	correct	observe	Run3	observe/STIM_018.jpg
2787.708	0.986	correct	observe	Run3	observe/STIM_019.jpg
2790.81	1.667	correct	observe	Run3	observe/STIM_019.jpg
2795.194	1.504	incorrect	observe	Run3	observe/STIM_019.jpg
2798.784	0.989	correct	observe	Run3	observe/STIM_019.jpg
