onset	duration	response_time_ms	trial_type	learning_stage	stimulus	response_port
0.0	3.499	3499.4	regulate	Run1	regulate/STIM_000.jpg	99
6.015	3.337	3336.6	regulate	Run1	regulate/STIM_000.jpg	100
12.282	2.428	2428.1	regulate	Run1	regulate/STIM_000.jpg	99
17.646	2.705	2704.7	regulate	Run1	regulate/STIM_000.jpg	100
22.993	1.866	1865.5	regulate	Run1	regulate/STIM_001.jpg	99
27.132	1.937	1936.8	regulate	Run1	regulate/STIM_001.jpg	99
31.153	1.54	1540.2	regulate	Run1	regulate/STIM_001.jpg	100
34.97	2.477	2476.7	regulate	Run1	regulate/STIM_001.jpg	99
40.538	3.821	3820.9	regulate	Run1	regulate/STIM_002.jpg	100
46.588	2.522	2522.0	regulate	Run1	regulate/STIM_002.jpg	100
52.18	3.5	3500.1	regulate	Run1	regulate/STIM_002.jpg	99
58.085	2.331	2330.7	regulate	Run1	regulate/STIM_002.jpg	99
63.088	2.773	2773.1	regulate	Run1	regulate/STIM_003.jpg	100
68.442	2.446	2446.5	regulate	Run1	regulate/STIM_003.jpg	99
73.727	1.565	1565.0	regulate	Run1	regulate/STIM_003.jpg	100
78.551	2.479	2478.9	regulate	Run1	regulate/STIM_003.jpg	99
83.84	3.191	3190.7	regulate	Run1	regulate/STIM_004.jpg	100
89.144	1.913	1912.8	regulate	Run1	regulate/STIM_004.jpg	100
93.056	2.024	2024.0	regulate	Run1	regulate/STIM_004.jpg	100
97.653	2.816	2815.5	regulate	Run1	regulate/STIM_004.jpg	100
102.196	3.869	3869.3	regulate	Run1	regulate/STIM_005.jpg	99
109.211	2.276	2276.4	regulate	Run1	regulate/STIM_005.jpg	100
114.486	3.373	3373.1	regulate	Run1	regulate/STIM_005.jpg	100
120.757	2.066	2065.7	regulate	Run1	regulate/STIM_005.jpg	100
124.772	1.904	1903.7	regulate	Run1	regulate/STIM_006.jpg	99
130.159	3.005	3004.8	regulate	Run1	regulate/STIM_006.jpg	100
136.424	2.482	2482.2	regulate	Run1	regulate/STIM_006.jpg	99
142.462	2.296	2295.8	regulate	Run1	regulate/STIM_006.jpg	100
147.633	3.209	3208.9	regulate	Run1	regulate/STIM_007.jpg	99
153.759	3.213	3212.8	regulate	Run1	regulate/STIM_007.jpg	99
158.684	2.724	2723.8	regulate	Run1	regulate/STIM_007.jpg	99
163.642	2.328	2328.3	regulate	Run1	regulate/STIM_007.jpg	100
168.623	3.109	3108.9	regulate	Run1	regulate/STIM_008.jpg	99
175.362	3.209	3208.7	regulate	Run1	regulate/STIM_008.jpg	100
180.58	3.199	3199.2	regulate	Run1	regulate/STIM_008.jpg	100
186.508	2.557	2556.7	regulate	Run1	regulate/STIM_008.jpg	99
191.877	2.73	2730.1	regulate	Run1	regulate/STIM_009.jpg	99
196.775	3.492	3492.4	regulate	Run1	regulate/STIM_009.jpg	100
203.782	3.438	3438.2	regulate	Run1	regulate/STIM_009.jpg	99
210.255	2.609	2609.1	regulate	Run1	regulate/STIM_009.jpg	100
215.824	2.886	2885.7	regulate	Run1	regulate/STIM_010.jpg	99
221.901	1.789	1788.7	regulate	Run1	regulate/STIM_010.jpg	99
226.587	3.362	3361.7	regulate	Run1	regulate/STIM_010.jpg	100
231.615	1.996	1996.1	regulate	Run1	regulate/STIM_010.jpg	100
235.918	3.91	3910.2	regulate	Run1	regulate/STIM_011.jpg	99
242.029	3.444	3443.7	regulate	Run1	regulate/STIM_011.jpg	100
248.323	1.772	1772.5	regulate	Run1	regulate/STIM_011.jpg	100
253.601	2.341	2340.7	regulate	Run1	regulate/STIM_011.jpg	100
259.204	2.57	2569.6	regulate	Run1	regulate/STIM_012.jpg	100
263.58	3.096	3096.5	regulate	Run1	regulate/STIM_012.jpg	99
269.158	2.195	2194.6	regulate	Run1	regulate/STIM_012.jpg	100
273.795	1.853	1853.0	regulate	Run1	regulate/STIM_012.jpg	100
279.403	1.789	1789.0	regulate	Run1	regulate/STIM_013.jpg	99
283.443	1.887	1887.0	regulate	Run1	regulate/STIM_013.jpg	100
287.178	3.041	3041.1	regulate	Run1	regulate/STIM_013.jpg	99
293.236	2.748	2747.9	regulate	Run1	regulate/STIM_013.jpg	100
297.691	2.005	2005.4	regulate	Run1	regulate/STIM_014.jpg	100
301.612	2.06	2060.5	regulate	Run1	regulate/STIM_014.jpg	100
305.545	1.955	1954.7	regulate	Run1	regulate/STIM_014.jpg	100
309.818	2.934	2933.9	regulate	Run1	regulate/STIM_014.jpg	99
314.628	2.409	2409.0	regulate	Run1	regulate/STIM_015.jpg	100
319.19	2.06	2059.7	regulate	Run1	regulate/STIM_015.jpg	100
323.353	1.697	1696.9	regulate	Run1	regulate/STIM_015.jpg	99
328.159	3.02	3020.5	regulate	Run1	regulate/STIM_015.jpg	99
332.879	3.108	3107.6	regulate	Run1	regulate/STIM_016.jpg	99
337.734	3.015	3014.7	regulate	Run1	regulate/STIM_016.jpg	99
344.117	2.118	2118.2	regulate	Run1	regulate/STIM_016.jpg	99
348.274	3.312	3312.4	regulate	Run1	regulate/STIM_016.jpg	99
354.952	3.44	3440.4	regulate	Run1	regulate/STIM_017.jpg	99
360.191	3.587	3586.8	regulate	Run1	regulate/STIM_017.jpg	99
365.453	1.851	1851.0	regulate	Run1	regulate/STIM_017.jpg	99
369.322	2.437	2437.2	regulate	Run1	regulate/STIM_017.jpg	99
374.479	2.957	2957.0	regulate	Run1	regulate/STIM_018.jpg	99
379.481	1.657	1657.0	regulate	Run1	regulate/STIM_018.jpg	100
384.488	3.27	3270.3	regulate	Run1	regulate/STIM_018.jpg	99
390.933	2.216	2215.6	regulate	Run1	regulate/STIM_018.jpg	99
396.904	3.128	3128.0	regulate	Run1	regulate/STIM_019.jpg	100
403.474	2.83	2830.5	regulate	Run1	regulate/STIM_019.jpg	99
409.472	1.809	1808.6	regulate	Run1	regulate/STIM_019.jpg	100
414.646	1.44	1439.9	regulate	Run1	regulate/STIM_019.jpg	99
417.948	2.641	2640.8	regulate	Run1	regulate/STIM_020.jpg	100
422.66	2.578	2577.6	regulate	Run1	regulate/STIM_020.jpg	99
428.393	3.374	3374.3	regulate	Run1	regulate/STIM_020.jpg	100
434.278	2.654	2654.4	regulate	Run1	regulate/STIM_020.jpg	100
440.108	2.795	2795.2	regulate	Run1	regulate/STIM_021.jpg	100
445.097	2.137	2137.0	regulate	Run1	regulate/STIM_021.jpg	100
450.534	2.892	2892.1	regulate	Run1	regulate/STIM_021.jpg	99
457.04	2.812	2811.9	regulate	Run1	regulate/STIM_021.jpg	100
463.036	2.134	2133.5	regulate	Run1	regulate/STIM_022.jpg	99
468.794	3.11	3109.6	regulate	Run1	regulate/STIM_022.jpg	99
473.791	2.021	2021.2	regulate	Run1	regulate/STIM_022.jpg	99
479.45	3.292	3291.6	regulate	Run1	regulate/STIM_022.jpg	99
485.165	2.929	2929.0	regulate	Run1	regulate/STIM_023.jpg	100
491.59	3.029	3029.2	regulate	Run1	regulate/STIM_023.jpg	100
496.512	1.724	1724.4	regulate	Run1	regulate/STIM_023.jpg	99
500.737	1.724	1723.7	regulate	Run1	regulate/STIM_023.jpg	99
505.954	3.023	3022.6	regulate	Run1	regulate/STIM_024.jpg	100
511.438	3.358	3358.0	regulate	Run1	regulate/STIM_024.jpg	100
518.336	2.593	2592.7	regulate	Run1	regulate/STIM_024.jpg	100
523.715	1.89	1890.1	regulate	Run1	regulate/STIM_024.jpg	100
528.669	2.11	2110.2	regulate	Run1	regulate/STIM_025.jpg	99
534.168	2.936	2936.3	regulate	Run1	regulate/STIM_025.jpg	100
539.433	2.692	2692.0	regulate	Run1	regulate/STIM_025.jpg	100
545.779	2.1	2099.5	regulate	Run1	regulate/STIM_025.jpg	100
549.828	3.456	3455.8	regulate	Run1	regulate/STIM_026.jpg	99
555.364	3.055	3055.3	regulate	Run1	regulate/STIM_026.jpg	100
561.108	2.745	2745.3	regulate	Run1	regulate/STIM_026.jpg	100
566.842	3.159	3159.4	regulate	Run1	regulate/STIM_026.jpg	99
573.528	3.215	3214.7	regulate	Run1	regulate/STIM_027.jpg	100
579.125	1.866	1866.0	regulate	Run1	regulate/STIM_027.jpg	99
583.589	2.499	2499.3	regulate	Run1	regulate/STIM_027.jpg	99
587.842	2.735	2735.1	regulate	Run1	regulate/STIM_027.jpg	100
593.13	2.808	2807.6	regulate	Run1	regulate/STIM_028.jpg	100
597.895	3.643	3642.9	regulate	Run1	regulate/STIM_028.jpg	100
603.305	1.74	1740.0	regulate	Run1	regulate/STIM_028.jpg	100
607.833	1.972	1971.7	regulate	Run1	regulate/STIM_028.jpg	99
613.304	1.76	1760.0	regulate	Run1	regulate/STIM_029.jpg	99
618.604	3.699	3699.1	regulate	Run1	regulate/STIM_029.jpg	99
625.035	1.885	1884.9	regulate	Run1	regulate/STIM_029.jpg	100
629.999	1.884	1883.5	regulate	Run1	regulate/STIM_029.jpg	99
635.079	1.412	1412.1	observe	Run1	observe/STIM_000.jpg	99
639.956	1.215	1214.8	observe	Run1	observe/STIM_000.jpg	100
643.635	1.786	1785.9	observe	Run1	observe/STIM_000.jpg	99
648.342	1.113	1112.9	observe	Run1	observe/STIM_000.jpg	100
652.82	1.787	1786.6	observe	Run1	observe/STIM_001.jpg	99
656.502	0.992	991.5	observe	Run1	observe/STIM_001.jpg	99
661.129	1.212	1212.5	observe	Run1	observe/STIM_001.jpg	99
666.069	1.244	1244.4	observe	Run1	observe/STIM_001.jpg	99
669.678	1.05	1050.2	observe	Run1	observe/STIM_002.jpg	100
674.336	1.788	1787.8	observe	Run1	observe/STIM_002.jpg	99
678.131	1.024	1024.4	observe	Run1	observe/STIM_002.jpg	99
682.877	1.517	1516.8	observe	Run1	observe/STIM_002.jpg	100
686.455	1.44	1440.1	observe	Run1	observe/STIM_003.jpg	99
691.29	1.401	1400.8	observe	Run1	observe/STIM_003.jpg	99
696.097	1.304	1304.3	observe	Run1	observe/STIM_003.jpg	99
700.142	1.759	1759.4	observe	Run1	observe/STIM_003.jpg	99
704.389	1.564	1564.2	observe	Run1	observe/STIM_004.jpg	100
709.111	1.051	1051.0	observe	Run1	observe/STIM_004.jpg	100
712.178	1.19	1190.5	observe	Run1	observe/STIM_004.jpg	100
716.927	1.792	1792.5	observe	Run1	observe/STIM_004.jpg	100
721.574	1.691	1690.6	observe	Run1	observe/STIM_005.jpg	99
726.47	1.693	1693.3	observe	Run1	observe/STIM_005.jpg	100
730.299	0.914	914.2	observe	Run1	observe/STIM_005.jpg	99
734.321	1.745	1745.4	observe	Run1	observe/STIM_005.jpg	100
739.267	1.131	1131.4	observe	Run1	observe/STIM_006.jpg	100
742.84	1.402	1402.0	observe	Run1	observe/STIM_006.jpg	99
748.017	1.147	1146.7	observe	Run1	observe/STIM_006.jpg	99
752.167	1.47	1469.7	observe	Run1	observe/STIM_006.jpg	99
757.174	1.679	1679.1	observe	Run1	observe/STIM_007.jpg	99
762.307	1.238	1237.8	observe	Run1	observe/STIM_007.jpg	99
766.881	1.052	1052.2	observe	Run1	observe/STIM_007.jpg	100
770.258	1.128	1128.4	observe	Run1	observe/STIM_007.jpg	99
773.757	1.069	1068.8	observe	Run1	observe/STIM_008.jpg	100
778.627	1.662	1662.0	observe	Run1	observe/STIM_008.jpg	100
783.315	0.988	987.7	observe	Run1	observe/STIM_008.jpg	100
787.018	1.565	1565.1	observe	Run1	observe/STIM_008.jpg	99
790.852	1.73	1729.8	observe	Run1	observe/STIM_009.jpg	99
795.132	1.703	1702.8	observe	Run1	observe/STIM_009.jpg	100
798.731	1.558	1557.7	observe	Run1	observe/STIM_009.jpg	99
803.307	1.184	1184.0	observe	Run1	observe/STIM_009.jpg	100
807.05	0.956	956.2	observe	Run1	observe/STIM_010.jpg	99
810.023	1.528	1528.5	observe	Run1	observe/STIM_010.jpg	100
814.601	0.944	944.4	observe	Run1	observe/STIM_010.jpg	100
819.365	1.391	1391.0	observe	Run1	observe/STIM_010.jpg	99
823.938	1.578	1578.4	observe	Run1	observe/STIM_011.jpg	100
827.691	1.083	1083.0	observe	Run1	observe/STIM_011.jpg	99
832.02	1.446	1445.7	observe	Run1	observe/STIM_011.jpg	100
835.926	1.2	1200.5	observe	Run1	observe/STIM_011.jpg	100
839.785	1.184	1184.3	observe	Run1	observe/STIM_012.jpg	99
843.353	1.2	1200.5	observe	Run1	observe/STIM_012.jpg	99
846.977	1.338	1338.3	observe	Run1	observe/STIM_012.jpg	100
850.983	1.3	1300.1	observe	Run1	observe/STIM_012.jpg	100
855.179	0.899	899.2	observe	Run1	observe/STIM_013.jpg	99
859.656	1.724	1724.2	observe	Run1	observe/STIM_013.jpg	99
864.412	1.377	1377.4	observe	Run1	observe/STIM_013.jpg	100
869.055	1.45	1450.5	observe	Run1	observe/STIM_013.jpg	100
872.755	1.692	1692.3	observe	Run1	observe/STIM_014.jpg	100
876.485	0.933	932.8	observe	Run1	observe/STIM_014.jpg	99
880.729	1.439	1438.8	observe	Run1	observe/STIM_014.jpg	100
885.733	1.153	1152.7	observe	Run1	observe/STIM_014.jpg	99
889.354	1.253	1253.2	observe	Run1	observe/STIM_015.jpg	99
893.863	1.474	1474.1	observe	Run1	observe/STIM_015.jpg	99
898.591	1.062	1062.2	observe	Run1	observe/STIM_015.jpg	99
902.883	1.283	1282.8	observe	Run1	observe/STIM_015.jpg	99
907.681	1.085	1085.0	observe	Run1	observe/STIM_016.jpg	100
911.211	1.565	1565.3	observe	Run1	observe/STIM_016.jpg	99
915.397	1.776	1776.0	observe	Run1	observe/STIM_016.jpg	100
919.772	1.238	1237.7	observe	Run1	observe/STIM_016.jpg	99
923.325	1.224	1223.5	observe	Run1	observe/STIM_017.jpg	100
927.235	1.313	1312.9	observe	Run1	observe/STIM_017.jpg	99
931.103	1.232	1232.0	observe	Run1	observe/STIM_017.jpg	100
935.929	1.682	1681.9	observe	Run1	observe/STIM_017.jpg	99
940.174	1.585	1584.8	observe	Run1	observe/STIM_018.jpg	99
944.33	1.246	1246.1	observe	Run1	observe/STIM_018.jpg	99
948.353	1.359	1359.0	observe	Run1	observe/STIM_018.jpg	99
951.674	1.095	1094.8	observe	Run1	observe/STIM_018.jpg	100
956.17	1.421	1421.0	observe	Run1	observe/STIM_019.jpg	100
961.158	1.602	1601.8	observe	Run1	observe/STIM_019.jpg	100
965.005	1.499	1498.6	observe	Run1	observe/STIM_019.jpg	100
970.163	1.774	1774.2	observe	Run1	observe/STIM_019.jpg	100
974.659	3.03	3029.7	regulate	Run2	regulate/STIM_000.jpg	100
980.339	2.886	2885.5	regulate	Run2	regulate/STIM_000.jpg	99
986.848	2.171	2170.7	regulate	Run2	regulate/STIM_000.jpg	100
991.531	2.227	2227.2	regulate	Run2	regulate/STIM_000.jpg	99
996.314	2.742	2742.2	regulate	Run2	regulate/STIM_001.jpg	100
1001.776	1.69	1689.7	regulate	Run2	regulate/STIM_001.jpg	99
1006.346	2.234	2234.5	regulate	Run2	regulate/STIM_001.jpg	99
1010.427	2.095	2095.4	regulate	Run2	regulate/STIM_001.jpg	100
1015.581	2.294	2293.7	regulate	Run2	regulate/STIM_002.jpg	100
1020.418	2.236	2235.8	regulate	Run2	regulate/STIM_002.jpg	100
1024.959	1.745	1745.2	regulate	Run2	regulate/STIM_002.jpg	99
1029.138	1.797	1796.9	regulate	Run2	regulate/STIM_002.jpg	100
1034.041	2.786	2786.2	regulate	Run2	regulate/STIM_003.jpg	100
1039.126	2.733	2733.3	regulate	Run2	regulate/STIM_003.jpg	100
1045.317	1.901	1901.4	regulate	Run2	regulate/STIM_003.jpg	100
1049.637	1.694	1694.2	regulate	Run2	regulate/STIM_003.jpg	99
1055.112	3.153	3153.0	regulate	Run2	regulate/STIM_004.jpg	100
1061.504	1.504	1503.5	regulate	Run2	regulate/STIM_004.jpg	100
1066.638	2.377	2377.3	regulate	Run2	regulate/STIM_004.jpg	100
1072.41	2.715	2715.2	regulate	Run2	regulate/STIM_004.jpg	100
1078.381	2.529	2529.0	regulate	Run2	regulate/STIM_005.jpg	99
1082.766	2.109	2109.4	regulate	Run2	regulate/STIM_005.jpg	99
1088.356	2.234	2234.0	regulate	Run2	regulate/STIM_005.jpg	100
1093.159	1.253	1252.7	regulate	Run2	regulate/STIM_005.jpg	100
1097.511	3.092	3092.3	regulate	Run2	regulate/STIM_006.jpg	100
1102.91	2.287	2287.4	regulate	Run2	regulate/STIM_006.jpg	100
1107.881	2.665	2664.9	regulate	Run2	regulate/STIM_006.jpg	99
1112.371	2.53	2529.8	regulate	Run2	regulate/STIM_006.jpg	100
1117.476	1.725	1725.4	regulate	Run2	regulate/STIM_007.jpg	100
1122.222	3.072	3072.1	regulate	Run2	regulate/STIM_007.jpg	100
1127.951	2.935	2935.1	regulate	Run2	regulate/STIM_007.jpg	100
1132.841	2.436	2436.3	regulate	Run2	regulate/STIM_007.jpg	100
1138.895	1.786	1785.6	regulate	Run2	regulate/STIM_008.jpg	100
1143.072	2.367	2366.8	regulate	Run2	regulate/STIM_008.jpg	100
1147.908	1.269	1268.9	regulate	Run2	regulate/STIM_008.jpg	100
1152.856	1.695	1695.2	regulate	Run2	regulate/STIM_008.jpg	99
1157.856	2.331	2330.6	regulate	Run2	regulate/STIM_009.jpg	99
1163.636	2.957	2956.6	regulate	Run2	regulate/STIM_009.jpg	100
1168.802	2.123	2123.3	regulate	Run2	regulate/STIM_009.jpg	99
1172.751	1.238	1238.5	regulate	Run2	regulate/STIM_009.jpg	99
1177.472	3.326	3325.8	regulate	Run2	regulate/STIM_010.jpg	100
1184.416	2.561	2561.2	regulate	Run2	regulate/STIM_010.jpg	99
1189.937	1.872	1871.6	regulate	Run2	regulate/STIM_010.jpg	100
1193.992	2.104	2104.0	regulate	Run2	regulate/STIM_010.jpg	100
1199.449	3.085	3085.0	regulate	Run2	regulate/STIM_011.jpg	99
1205.674	1.814	1814.2	regulate	Run2	regulate/STIM_011.jpg	100
1210.312	1.96	1959.7	regulate	Run2	regulate/STIM_011.jpg	99
1214.065	2.375	2374.8	regulate	Run2	regulate/STIM_011.jpg	99
1218.214	2.826	2825.7	regulate	Run2	regulate/STIM_012.jpg	100
1223.432	2.719	2719.3	regulate	Run2	regulate/STIM_012.jpg	100
1228.834	1.434	1434.4	regulate	Run2	regulate/STIM_012.jpg	100
1232.579	2.67	2669.7	regulate	Run2	regulate/STIM_012.jpg	99
1238.684	2.287	2287.1	regulate	Run2	regulate/STIM_013.jpg	100
1243.027	1.796	1796.1	regulate	Run2	regulate/STIM_013.jpg	99
1247.219	2.693	2692.8	regulate	Run2	regulate/STIM_013.jpg	99
1252.925	1.771	1770.8	regulate	Run2	regulate/STIM_013.jpg	100
1257.227	2.074	2073.7	regulate	Run2	regulate/STIM_014.jpg	99
1262.644	2.406	2406.3	regulate	Run2	regulate/STIM_014.jpg	100
1267.433	2.251	2250.6	regulate	Run2	regulate/STIM_014.jpg	100
1271.591	1.654	1653.8	regulate	Run2	regulate/STIM_014.jpg	99
1275.957	1.837	1837.2	regulate	Run2	regulate/STIM_015.jpg	100
1280.683	2.157	2157.2	regulate	Run2	regulate/STIM_015.jpg	100
1284.814	2.436	2436.2	regulate	Run2	regulate/STIM_015.jpg	99
1289.68	1.404	1403.5	regulate	Run2	regulate/STIM_015.jpg	99
1293.001	3.074	3074.0	regulate	Run2	regulate/STIM_016.jpg	100
1299.438	2.44	2439.8	regulate	Run2	regulate/STIM_016.jpg	100
1304.969	2.26	2260.3	regulate	Run2	regulate/STIM_016.jpg	100
1310.378	2.118	2118.5	regulate	Run2	regulate/STIM_016.jpg	100
1315.878	1.431	1431.2	regulate	Run2	regulate/STIM_017.jpg	100
1320.344	2.616	2616.4	regulate	Run2	regulate/STIM_017.jpg	99
1325.265	1.595	1595.1	regulate	Run2	regulate/STIM_017.jpg	99
1329.829	2.598	2597.6	regulate	Run2	regulate/STIM_017.jpg	99
1336.142	2.79	2790.2	regulate	Run2	regulate/STIM_018.jpg	99
1342.064	1.582	1581.8	regulate	Run2	regulate/STIM_018.jpg	99
1346.323	1.504	1504.4	regulate	Run2	regulate/STIM_018.jpg	100
1350.995	2.385	2384.9	regulate	Run2	regulate/STIM_018.jpg	99
1355.328	3.251	3251.0	regulate	Run2	regulate/STIM_019.jpg	100
1361.851	2.306	2305.5	regulate	Run2	regulate/STIM_019.jpg	100
1366.938	2.771	2770.7	regulate	Run2	regulate/STIM_019.jpg	100
1372.866	2.291	2290.9	regulate	Run2	regulate/STIM_019.jpg	100
1378.167	3.076	3076.0	regulate	Run2	regulate/STIM_020.jpg	99
1384.249	1.363	1363.0	regulate	Run2	regulate/STIM_020.jpg	100
1388.295	2.089	2089.1	regulate	Run2	regulate/STIM_020.jpg	99
1393.452	2.09	2089.6	regulate	Run2	regulate/STIM_020.jpg	99
1397.931	1.453	1452.8	regulate	Run2	regulate/STIM_021.jpg	99
1402.146	2.353	2352.7	regulate	Run2	regulate/STIM_021.jpg	99
1406.527	2.308	2307.7	regulate	Run2	regulate/STIM_021.jpg	100
1411.943	1.478	1477.5	regulate	Run2	regulate/STIM_021.jpg	100
1415.608	3.052	3052.1	regulate	Run2	regulate/STIM_022.jpg	100
1421.293	2.592	2591.9	regulate	Run2	regulate/STIM_022.jpg	99
1425.829	1.5	1500.2	regulate	Run2	regulate/STIM_022.jpg	100
1431.085	2.046	2046.2	regulate	Run2	regulate/STIM_022.jpg	99
1435.494	3.291	3290.7	regulate	Run2	regulate/STIM_023.jpg	99
1440.83	1.989	1988.6	regulate	Run2	regulate/STIM_023.jpg	99
1445.237	1.57	1570.0	regulate	Run2	regulate/STIM_023.jpg	100
1449.46	1.277	1276.7	regulate	Run2	regulate/STIM_023.jpg	99
1454.15	2.485	2485.0	regulate	Run2	regulate/STIM_024.jpg	100
1460.048	2.782	2782.4	regulate	Run2	regulate/STIM_024.jpg	99
1466.407	1.828	1827.9	regulate	Run2	regulate/STIM_024.jpg	99
1471.707	2.38	2379.7	regulate	Run2	regulate/STIM_024.jpg	100
1477.669	1.743	1742.8	regulate	Run2	regulate/STIM_025.jpg	99
1481.529	2.881	2881.0	regulate	Run2	regulate/STIM_025.jpg	100
1486.169	2.108	2108.2	regulate	Run2	regulate/STIM_025.jpg	99
1491.811	1.696	1696.0	regulate	Run2	regulate/STIM_025.jpg	100
1495.551	1.903	1903.3	regulate	Run2	regulate/STIM_026.jpg	100
1499.72	3.074	3073.6	regulate	Run2	regulate/STIM_026.jpg	99
1505.051	1.8	1799.6	regulate	Run2	regulate/STIM_026.jpg	99
1510.476	1.627	1627.0	regulate	Run2	regulate/STIM_026.jpg	99
1515.64	2.427	2427.3	regulate	Run2	regulate/STIM_027.jpg	100
1519.97	2.898	2897.5	regulate	Run2	regulate/STIM_027.jpg	99
1524.984	2.283	2282.7	regulate	Run2	regulate/STIM_027.jpg	99
1530.576	2.162	2162.4	regulate	Run2	regulate/STIM_027.jpg	100
1534.695	1.491	1490.6	regulate	Run2	regulate/STIM_028.jpg	99
1538.5	1.771	1770.9	regulate	Run2	regulate/STIM_028.jpg	100
1542.729	2.942	2942.4	regulate	Run2	regulate/STIM_028.jpg	100
1549.061	2.01	2010.2	regulate	Run2	regulate/STIM_028.jpg	100
1553.67	2.969	2969.1	regulate	Run2	regulate/STIM_029.jpg	100
1559.504	1.947	1947.4	regulate	Run2	regulate/STIM_029.jpg	100
1565.118	2.336	2335.9	regulate	Run2	regulate/STIM_029.jpg	100
1570.727	1.986	1986.0	regulate	Run2	regulate/STIM_029.jpg	99
1574.587	1.075	1075.1	observe	Run2	observe/STIM_000.jpg	100
1577.627	1.12	1120.2	observe	Run2	observe/STIM_000.jpg	99
1580.819	1.091	1091.1	observe	Run2	observe/STIM_000.jpg	99
1583.812	0.978	977.6	observe	Run2	observe/STIM_000.jpg	100
1587.366	1.136	1136.2	observe	Run2	observe/STIM_001.jpg	100
1591.125	1.52	1520.2	observe	Run2	observe/STIM_001.jpg	99
1594.905	1.183	1183.4	observe	Run2	observe/STIM_001.jpg	100
1598.204	1.762	1761.6	observe	Run2	observe/STIM_001.jpg	100
1602.433	1.485	1485.3	observe	Run2	observe/STIM_002.jpg	99
1607.02	0.924	924.4	observe	Run2	observe/STIM_002.jpg	100
1610.35	1.342	1342.2	observe	Run2	observe/STIM_002.jpg	99
1614.279	0.99	989.6	observe	Run2	observe/STIM_002.jpg	100
1619.014	1.48	1480.1	observe	Run2	observe/STIM_003.jpg	99
1623.221	1.279	1279.1	observe	Run2	observe/STIM_003.jpg	99
1627.931	1.631	1630.8	observe	Run2	observe/STIM_003.jpg	99
1633.249	1.416	1415.5	observe	Run2	observe/STIM_003.jpg	99
1636.933	1.753	1752.8	observe	Run2	observe/STIM_004.jpg	99
1641.866	1.091	1091.0	observe	Run2	observe/STIM_004.jpg	100
1646.486	1.186	1186.4	observe	Run2	observe/STIM_004.jpg	99
1650.359	1.673	1672.9	observe	Run2	observe/STIM_004.jpg	100
1654.087	1.389	1388.8	observe	Run2	observe/STIM_005.jpg	100
1658.809	1.384	1383.7	observe	Run2	observe/STIM_005.jpg	100
1663.426	1.713	1712.6	observe	Run2	observe/STIM_005.jpg	100
1668.232	1.205	1205.0	observe	Run2	observe/STIM_005.jpg	99
1671.901	1.179	1178.6	observe	Run2	observe/STIM_006.jpg	99
1675.647	0.999	998.7	observe	Run2	observe/STIM_006.jpg	99
1680.455	1.768	1767.9	observe	Run2	observe/STIM_006.jpg	100
1685.256	1.135	1134.8	observe	Run2	observe/STIM_006.jpg	99
1689.051	1.57	1570.4	observe	Run2	observe/STIM_007.jpg	99
1693.387	1.247	1246.8	observe	Run2	observe/STIM_007.jpg	99
1696.796	1.517	1516.7	observe	Run2	observe/STIM_007.jpg	99
1701.993	1.028	1028.3	observe	Run2	observe/STIM_007.jpg	100
1706.315	1.631	1630.9	observe	Run2	observe/STIM_008.jpg	99
1711.317	1.063	1062.7	observe	Run2	observe/STIM_008.jpg	99
1716.171	1.437	1436.6	observe	Run2	observe/STIM_008.jpg	100
1721.295	1.234	1233.5	observe	Run2	observe/STIM_008.jpg	100
1725.152	1.067	1067.4	observe	Run2	observe/STIM_009.jpg	99
1729.688	1.548	1547.9	observe	Run2	observe/STIM_009.jpg	100
1733.753	1.179	1179.2	observe	Run2	observe/STIM_009.jpg	100
1738.33	0.943	942.8	observe	Run2	observe/STIM_009.jpg	99
1743.115	1.524	1524.2	observe	Run2	observe/STIM_010.jpg	99
1747.678	1.119	1119.0	observe	Run2	observe/STIM_010.jpg	100
1751.266	1.762	1761.9	observe	Run2	observe/STIM_010.jpg	99
1755.992	1.042	1042.1	observe	Run2	observe/STIM_010.jpg	99
1759.309	1.675	1674.8	observe	Run2	observe/STIM_011.jpg	100
1763.551	1.199	1199.0	observe	Run2	observe/STIM_011.jpg	99
1767.81	1.457	1457.2	observe	Run2	observe/STIM_011.jpg	99
1772.62	0.963	962.7	observe	Run2	observe/STIM_011.jpg	100
1776.618	1.085	1085.3	observe	Run2	observe/STIM_012.jpg	99
1781.274	1.439	1439.0	observe	Run2	observe/STIM_012.jpg	99
1784.714	1.168	1168.0	observe	Run2	observe/STIM_012.jpg	99
1788.139	1.142	1141.5	observe	Run2	observe/STIM_012.jpg	100
1792.71	0.996	995.6	observe	Run2	observe/STIM_013.jpg	100
1797.322	1.133	1132.7	observe	Run2	observe/STIM_013.jpg	100
1800.471	0.948	948.0	observe	Run2	observe/STIM_013.jpg	100
1804.967	1.25	1249.9	observe	Run2	observe/STIM_013.jpg	100
1809.24	1.563	1562.6	observe	Run2	observe/STIM_014.jpg	100
1813.279	1.756	1756.1	observe	Run2	observe/STIM_014.jpg	100
1817.502	1.171	1170.9	observe	Run2	observe/STIM_014.jpg	100
1820.673	1.166	1165.8	observe	Run2	observe/STIM_014.jpg	99
1824.731	1.6	1600.0	observe	Run2	observe/STIM_015.jpg	100
1829.868	0.91	909.7	observe	Run2	observe/STIM_015.jpg	100
1832.727	1.474	1474.4	observe	Run2	observe/STIM_015.jpg	100
1836.71	1.082	1082.2	observe	Run2	observe/STIM_015.jpg	99
1841.207	1.29	1289.6	observe	Run2	observe/STIM_016.jpg	100
1845.815	1.046	1045.6	observe	Run2	observe/STIM_016.jpg	100
1850.455	1.508	1508.1	observe	Run2	observe/STIM_016.jpg	100
1854.871	1.004	1003.9	observe	Run2	observe/STIM_016.jpg	100
1859.143	1.652	1651.5	observe	Run2	observe/STIM_017.jpg	100
1863.878	1.091	1091.2	observe	Run2	observe/STIM_017.jpg	100
1867.647	1.51	1510.5	observe	Run2	observe/STIM_017.jpg	100
1871.247	0.928	928.4	observe	Run2	observe/STIM_017.jpg	99
1875.285	0.929	929.1	observe	Run2	observe/STIM_018.jpg	100
1878.856	1.762	1762.3	observe	Run2	observe/STIM_018.jpg	100
1882.948	1.138	1138.1	observe	Run2	observe/STIM_018.jpg	99
1887.155	1.466	1466.4	observe	Run2	observe/STIM_018.jpg	100
1892.305	0.903	903.0	observe	Run2	observe/STIM_019.jpg	99
1896.395	0.925	925.0	observe	Run2	observe/STIM_019.jpg	99
1899.627	1.559	1558.6	observe	Run2	observe/STIM_019.jpg	99
1904.429	1.167	1167.3	observe	Run2	observe/STIM_019.jpg	99
1907.782	1.985	1985.3	regulate	Run3	regulate/STIM_000.jpg	100
1911.86	1.72	1719.5	regulate	Run3	regulate/STIM_000.jpg	99
1915.542	2.022	2021.9	regulate	Run3	regulate/STIM_000.jpg	100
1920.06	1.329	1328.7	regulate	Run3	regulate/STIM_000.jpg	100
1925.082	1.364	1364.3	regulate	Run3	regulate/STIM_001.jpg	100
1929.038	2.159	2158.6	regulate	Run3	regulate/STIM_001.jpg	99
1933.23	1.621	1620.8	regulate	Run3	regulate/STIM_001.jpg	100
1936.803	1.561	1561.4	regulate	Run3	regulate/STIM_001.jpg	99
1940.808	2.664	2664.5	regulate	Run3	regulate/STIM_002.jpg	99
1947.029	1.208	1207.5	regulate	Run3	regulate/STIM_002.jpg	99
1951.51	1.921	1921.2	regulate	Run3	regulate/STIM_002.jpg	99
1956.264	1.502	1502.2	regulate	Run3	regulate/STIM_002.jpg	99
1959.882	1.242	1242.0	regulate	Run3	regulate/STIM_003.jpg	100
1964.172	1.588	1588.0	regulate	Run3	regulate/STIM_003.jpg	99
1967.748	1.532	1531.5	regulate	Run3	regulate/STIM_003.jpg	99
1972.439	2.158	2158.3	regulate	Run3	regulate/STIM_003.jpg	99
1978.248	1.407	1407.4	regulate	Run3	regulate/STIM_004.jpg	99
1983.348	2.654	2654.3	regulate	Run3	regulate/STIM_004.jpg	99
1989.427	1.681	1680.6	regulate	Run3	regulate/STIM_004.jpg	100
1994.825	1.992	1992.2	regulate	Run3	regulate/STIM_004.jpg	100
2000.249	1.834	1834.3	regulate	Run3	regulate/STIM_005.jpg	99
2005.498	1.972	1972.1	regulate	Run3	regulate/STIM_005.jpg	99
2010.147	2.512	2511.6	regulate	Run3	regulate/STIM_005.jpg	100
2015.441	1.971	1970.7	regulate	Run3	regulate/STIM_005.jpg	100
2020.291	1.894	1894.3	regulate	Run3	regulate/STIM_006.jpg	99
2025.438	2.069	2068.8	regulate	Run3	regulate/STIM_006.jpg	100
2030.31	2.178	2178.0	regulate	Run3	regulate/STIM_006.jpg	100
2036.243	2.106	2106.4	regulate	Run3	regulate/STIM_006.jpg	99
2041.282	1.448	1448.0	regulate	Run3	regulate/STIM_007.jpg	99
2046.463	1.753	1752.9	regulate	Run3	regulate/STIM_007.jpg	99
2050.924	1.653	1652.9	regulate	Run3	regulate/STIM_007.jpg	99
2054.458	2.427	2427.4	regulate	Run3	regulate/STIM_007.jpg	99
2060.158	1.488	1487.5	regulate	Run3	regulate/STIM_008.jpg	99
2065.094	2.006	2006.3	regulate	Run3	regulate/STIM_008.jpg	100
2069.024	2.05	2049.9	regulate	Run3	regulate/STIM_008.jpg	99
2073.052	2.74	2739.8	regulate	Run3	regulate/STIM_008.jpg	99
2079.208	2.22	2220.1	regulate	Run3	regulate/STIM_009.jpg	99
2083.193	2.084	2084.3	regulate	Run3	regulate/STIM_009.jpg	100
2088.001	1.681	1680.9	regulate	Run3	regulate/STIM_009.jpg	99
2092.994	1.851	1851.0	regulate	Run3	regulate/STIM_009.jpg	100
2097.453	2.325	2325.0	regulate	Run3	regulate/STIM_010.jpg	100
2102.692	2.605	2604.8	regulate	Run3	regulate/STIM_010.jpg	100
2108.83	2.631	2630.8	regulate	Run3	regulate/STIM_010.jpg	99
2114.981	2.154	2154.5	regulate	Run3	regulate/STIM_010.jpg	100
2120.843	1.969	1968.9	regulate	Run3	regulate/STIM_011.jpg	99
2126.123	2.672	2672.5	regulate	Run3	regulate/STIM_011.jpg	100
2131.904	2.194	2194.1	regulate	Run3	regulate/STIM_011.jpg	100
2136.859	1.586	1586.5	regulate	Run3	regulate/STIM_011.jpg	100
2141.62	1.82	1820.5	regulate	Run3	regulate/STIM_012.jpg	99
2146.312	1.501	1501.0	regulate	Run3	regulate/STIM_012.jpg	100
2150.668	2.506	2505.5	regulate	Run3	regulate/STIM_012.jpg	99
2155.958	2.208	2207.5	regulate	Run3	regulate/STIM_012.jpg	99
2160.987	1.518	1518.0	regulate	Run3	regulate/STIM_013.jpg	99
2164.77	1.76	1760.1	regulate	Run3	regulate/STIM_013.jpg	99
2169.339	2.127	2127.0	regulate	Run3	regulate/STIM_013.jpg	100
2174.247	1.878	1878.5	regulate	Run3	regulate/STIM_013.jpg	100
2179.789	2.507	2507.2	regulate	Run3	regulate/STIM_014.jpg	99
2185.201	1.482	1482.2	regulate	Run3	regulate/STIM_014.jpg	100
2190.321	1.285	1285.2	regulate	Run3	regulate/STIM_014.jpg	100
2193.638	1.804	1804.2	regulate	Run3	regulate/STIM_014.jpg	99
2197.41	2.305	2305.0	regulate	Run3	regulate/STIM_015.jpg	100
2203.275	1.755	1755.4	regulate	Run3	regulate/STIM_015.jpg	100
2207.299	1.618	1618.5	regulate	Run3	regulate/STIM_015.jpg	100
2211.116	2.037	2037.3	regulate	Run3	regulate/STIM_015.jpg	100
2215.629	1.236	1236.0	regulate	Run3	regulate/STIM_016.jpg	100
2219.141	1.322	1322.1	regulate	Run3	regulate/STIM_016.jpg	100
2222.584	2.153	2153.1	regulate	Run3	regulate/STIM_016.jpg	99
2227.006	1.468	1468.1	regulate	Run3	regulate/STIM_016.jpg	99
2231.676	2.527	2527.4	regulate	Run3	regulate/STIM_017.jpg	99
2237.387	2.01	2010.3	regulate	Run3	regulate/STIM_017.jpg	99
2241.842	2.496	2495.8	regulate	Run3	regulate/STIM_017.jpg	99
2248.044	1.949	1949.3	regulate	Run3	regulate/STIM_017.jpg	100
2252.902	2.702	2701.7	regulate	Run3	regulate/STIM_018.jpg	99
2257.379	1.232	1231.9	regulate	Run3	regulate/STIM_018.jpg	100
2261.733	1.469	1469.3	regulate	Run3	regulate/STIM_018.jpg	99
2265.24	1.198	1198.1	regulate	Run3	regulate/STIM_018.jpg	100
2269.657	2.653	2653.2	regulate	Run3	regulate/STIM_019.jpg	100
2274.212	1.656	1655.5	regulate	Run3	regulate/STIM_019.jpg	100
2277.825	2.157	2157.1	regulate	Run3	regulate/STIM_019.jpg	99
2283.552	1.808	1807.9	regulate	Run3	regulate/STIM_019.jpg	100
2287.475	1.715	1715.4	regulate	Run3	regulate/STIM_020.jpg	99
2291.2	1.22	1220.1	regulate	Run3	regulate/STIM_020.jpg	100
2294.556	2.088	2087.9	regulate	Run3	regulate/STIM_020.jpg	100
2298.957	1.646	1645.5	regulate	Run3	regulate/STIM_020.jpg	99
2303.389	1.334	1334.1	regulate	Run3	regulate/STIM_021.jpg	100
2307.23	2.514	2514.3	regulate	Run3	regulate/STIM_021.jpg	99
2311.796	1.42	1419.5	regulate	Run3	regulate/STIM_021.jpg	99
2316.222	2.733	2733.2	regulate	Run3	regulate/STIM_021.jpg	99
2321.789	1.189	1188.9	regulate	Run3	regulate/STIM_022.jpg	100
2325.173	1.444	1444.5	regulate	Run3	regulate/STIM_022.jpg	100
2329.834	1.522	1522.3	regulate	Run3	regulate/STIM_022.jpg	99
2333.774	2.096	2095.5	regulate	Run3	regulate/STIM_022.jpg	100
2337.932	2.585	2584.9	regulate	Run3	regulate/STIM_023.jpg	100
2343.067	2.393	2393.3	regulate	Run3	regulate/STIM_023.jpg	99
2348.349	2.06	2059.9	regulate	Run3	regulate/STIM_023.jpg	100
2352.299	1.705	1704.9	regulate	Run3	regulate/STIM_023.jpg	99
2356.466	2.556	2556.0	regulate	Run3	regulate/STIM_024.jpg	99
2361.959	2.738	2738.2	regulate	Run3	regulate/STIM_024.jpg	100
2367.857	1.704	1704.0	regulate	Run3	regulate/STIM_024.jpg	100
2372.312	1.374	1374.1	regulate	Run3	regulate/STIM_024.jpg	100
2375.613	2.694	2694.3	regulate	Run3	regulate/STIM_025.jpg	100
2381.927	1.644	1643.9	regulate	Run3	regulate/STIM_025.jpg	100
2387.17	1.902	1902.4	regulate	Run3	regulate/STIM_025.jpg	99
2391.559	2.54	2540.2	regulate	Run3	regulate/STIM_025.jpg	100
2396.853	2.008	2008.1	regulate	Run3	regulate/STIM_026.jpg	100
2401.668	2.308	2307.6	regulate	Run3	regulate/STIM_026.jpg	100
2405.784	1.231	1231.2	regulate	Run3	regulate/STIM_026.jpg	99
2409.106	2.155	2155.0	regulate	Run3	regulate/STIM_026.jpg	100
2414.575	1.439	1439.2	regulate	Run3	regulate/STIM_027.jpg	99
2418.371	1.66	1659.5	regulate	Run3	regulate/STIM_027.jpg	99
2422.309	2.13	2130.1	regulate	Run3	regulate/STIM_027.jpg	99
2426.636	2.563	2562.9	regulate	Run3	regulate/STIM_027.jpg	99
2432.513	1.217	1216.9	regulate	Run3	regulate/STIM_028.jpg	99
2435.856	2.329	2328.8	regulate	Run3	regulate/STIM_028.jpg	99
2441.292	1.936	1936.3	regulate	Run3	regulate/STIM_028.jpg	99
2445.267	1.578	1578.1	regulate	Run3	regulate/STIM_028.jpg	99
2449.972	1.486	1485.7	regulate	Run3	regulate/STIM_029.jpg	100
2454.562	1.876	1876.5	regulate	Run3	regulate/STIM_029.jpg	99
2458.96	1.408	1408.0	regulate	Run3	regulate/STIM_029.jpg	99
2463.011	2.637	2637.1	regulate	Run3	regulate/STIM_029.jpg	100
2468.433	1.354	1354.5	observe	Run3	observe/STIM_000.jpg	99
2473.053	1.295	1295.3	observe	Run3	observe/STIM_000.jpg	100
2477.646	0.98	980.3	observe	Run3	observe/STIM_000.jpg	100
2482.183	1.036	1035.5	observe	Run3	observe/STIM_000.jpg	99
2485.442	1.556	1556.5	observe	Run3	observe/STIM_001.jpg	99
2489.392	1.504	1503.7	observe	Run3	observe/STIM_001.jpg	100
2493.542	0.945	944.7	observe	Run3	observe/STIM_001.jpg	100
2498.227	1.099	1098.8	observe	Run3	observe/STIM_001.jpg	100
2503.139	1.359	1359.4	observe	Run3	observe/STIM_002.jpg	100
2507.065	0.901	900.6	observe	Run3	observe/STIM_002.jpg	100
2511.279	0.95	950.2	observe	Run3	observe/STIM_002.jpg	100
2515.335	1.646	1646.5	observe	Run3	observe/STIM_002.jpg	100
2520.522	1.56	1559.9	observe	Run3	observe/STIM_003.jpg	100
2524.353	0.936	935.5	observe	Run3	observe/STIM_003.jpg	100
2528.843	1.322	1321.8	observe	Run3	observe/STIM_003.jpg	99
2533.482	1.222	1221.8	observe	Run3	observe/STIM_003.jpg	100
2537.207	1.469	1469.1	observe	Run3	observe/STIM_004.jpg	99
2540.855	0.945	945.4	observe	Run3	observe/STIM_004.jpg	100
2543.924	1.059	1059.1	observe	Run3	observe/STIM_004.jpg	100
2548.203	0.938	938.3	observe	Run3	observe/STIM_004.jpg	99
2552.349	1.625	1624.6	observe	Run3	observe/STIM_005.jpg	99
2556.517	1.788	1788.0	observe	Run3	observe/STIM_005.jpg	100
2561.552	1.618	1618.4	observe	Run3	observe/STIM_005.jpg	100
2566.378	1.022	1021.9	observe	Run3	observe/STIM_005.jpg	100
2569.946	1.746	1745.5	observe	Run3	observe/STIM_006.jpg	100
2574.255	1.583	1582.6	observe	Run3	observe/STIM_006.jpg	100
2577.8	1.247	1247.3	observe	Run3	observe/STIM_006.jpg	99
2581.308	1.666	1665.8	observe	Run3	observe/STIM_006.jpg	99
2585.482	1.361	1361.4	observe	Run3	observe/STIM_007.jpg	99
2590.036	1.038	1037.5	observe	Run3	observe/STIM_007.jpg	99
2593.893	1.193	1193.0	observe	Run3	observe/STIM_007.jpg	100
2598.093	1.107	1107.2	observe	Run3	observe/STIM_007.jpg	100
2601.276	1.755	1755.3	observe	Run3	observe/STIM_008.jpg	99
2605.499	1.31	1309.9	observe	Run3	observe/STIM_008.jpg	99
2609.214	1.073	1073.4	observe	Run3	observe/STIM_008.jpg	99
2613.671	1.08	1080.3	observe	Run3	observe/STIM_008.jpg	100
2616.945	1.662	1662.2	observe	Run3	observe/STIM_009.jpg	99
2622.074	1.007	1007.0	observe	Run3	observe/STIM_009.jpg	100
2625.482	1.133	1133.3	observe	Run3	observe/STIM_009.jpg	99
2630.35	1.36	1359.8	observe	Run3	observe/STIM_009.jpg	99
2635.212	1.191	1191.3	observe	Run3	observe/STIM_010.jpg	99
2638.613	1.574	1573.9	observe	Run3	observe/STIM_010.jpg	100
2642.984	1.192	1192.5	observe	Run3	observe/STIM_010.jpg	99
2647.188	1.125	1125.1	observe	Run3	observe/STIM_010.jpg	99
2651.316	1.324	1323.8	observe	Run3	observe/STIM_011.jpg	100
2655.462	1.775	1775.1	observe	Run3	observe/STIM_011.jpg	100
2659.405	1.44	1439.5	observe	Run3	observe/STIM_011.jpg	99
2663.68	1.013	1012.6	observe	Run3	observe/STIM_011.jpg	100
2667.514	1.314	1314.4	observe	Run3	observe/STIM_012.jpg	100
2672.04	1.596	1595.7	observe	Run3	observe/STIM_012.jpg	100
2675.643	1.634	1634.3	observe	Run3	observe/STIM_012.jpg	99
2680.044	1.324	1323.9	observe	Run3	observe/STIM_012.jpg	99
2683.853	1.668	1668.3	observe	Run3	observe/STIM_013.jpg	100
2688.002	1.601	1600.6	observe	Run3	observe/STIM_013.jpg	99
2693.284	1.106	1105.5	observe	Run3	observe/STIM_013.jpg	99
2697.969	1.728	1728.4	observe	Run3	observe/STIM_013.jpg	100
2702.338	1.011	1011.1	observe	Run3	observe/STIM_014.jpg	99
2706.633	0.953	953.4	observe	Run3	observe/STIM_014.jpg	100
2710.543	1.649	1649.3	observe	Run3	observe/STIM_014.jpg	99
2715.243	1.422	1421.7	observe	Run3	observe/STIM_014.jpg	99
2719.752	1.275	1275.1	observe	Run3	observe/STIM_015.jpg	99
2723.812	1.524	1523.9	observe	Run3	observe/STIM_015.jpg	99
2727.638	1.116	1116.3	observe	Run3	observe/STIM_015.jpg	99
2731.368	1.669	1668.7	observe	Run3	observe/STIM_015.jpg	100
2735.735	1.352	1352.4	observe	Run3	observe/STIM_016.jpg	100
2740.899	1.022	1021.5	observe	Run3	observe/STIM_016.jpg	100
2744.681	0.927	927.3	observe	Run3	observe/STIM_016.jpg	100
2748.101	1.736	1736.1	observe	Run3	observe/STIM_016.jpg	100
2753.442	1.0	999.5	observe	Run3	observe/STIM_017.jpg	99
2757.98	1.368	1368.0	observe	Run3	observe/STIM_017.jpg	99
2762.08	1.593	1592.8	observe	Run3	observe/STIM_017.jpg	99
2766.989	1.075	1075.4	observe	Run3	observe/STIM_017.jpg	100
2770.09	1.313	1312.7	observe	Run3	observe/STIM_018.jpg	99
2773.979	1.69	1689.5	observe	Run3	observe/STIM_018.jpg	99
2779.183	1.318	1318.1	observe	Run3	observe/STIM_018.jpg	99
2783.704	1.051	1050.7	observe	Run3	observe/STIM_018.jpg	99
2787.708	0.986	985.9	observe	Run3	observe/STIM_019.jpg	99
2790.81	1.667	1667.3	observe	Run3	observe/STIM_019.jpg	99
2795.194	1.504	1503.5	observe	Run3	observe/STIM_019.jpg	100
2798.784	0.989	988.6	observe	Run3	observe/STIM_019.jpg	100
