onset	duration	accuracy	trial_type	learning_stage	stimulus
0.0	2.451	correct	regulate	Run1	regulate/STIM_000.jpg
6.287	2.312	correct	regulate	Run1	regulate/STIM_000.jpg
11.93	2.163	correct	regulate	Run1	regulate/STIM_000.jpg
16.163	1.515	correct	regulate	Run1	regulate/STIM_000.jpg
20.909	2.078	correct	regulate	Run1	regulate/STIM_001.jpg
26.088	3.634	correct	regulate	Run1	regulate/STIM_001.jpg
32.663	2.596	correct	regulate	Run1	regulate/STIM_001.jpg
37.974	3.042	correct	regulate	Run1	regulate/STIM_001.jpg
44.92	3.326	correct	regulate	Run1	regulate/STIM_002.jpg
52.229	2.489	correct	regulate	Run1	regulate/STIM_002.jpg
58.582	2.92	incorrect	regulate	Run1	regulate/STIM_002.jpg
63.518	2.463	incorrect	regulate	Run1	regulate/STIM_002.jpg
69.429	2.507	correct	regulate	Run1	regulate/STIM_003.jpg
75.104	2.435	correct	regulate	Run1	regulate/STIM_003.jpg
80.657	1.77	correct	regulate	Run1	regulate/STIM_003.jpg
85.229	3.068	correct	regulate	Run1	regulate/STIM_003.jpg
90.465	2.84	correct	regulate	Run1	regulate/STIM_004.jpg
96.572	3.637	incorrect	regulate	Run1	regulate/STIM_004.jpg
103.372	1.823	correct	regulate	Run1	regulate/STIM_004.jpg
108.135	2.494	correct	regulate	Run1	regulate/STIM_004.jpg
113.163	2.868	correct	regulate	Run1	regulate/STIM_005.jpg
118.32	1.653	incorrect	regulate	Run1	regulate/STIM_005.jpg
122.402	3.055	correct	regulate	Run1	regulate/STIM_005.jpg
128.431	3.15	correct	regulate	Run1	regulate/STIM_005.jpg
134.732	3.645	correct	regulate	Run1	regulate/STIM_006.jpg
142.339	1.804	correct	regulate	Run1	regulate/STIM_006.jpg
146.188	3.388	incorrect	regulate	Run1	regulate/STIM_006.jpg
152.849	2.64	correct	regulate	Run1	regulate/STIM_006.jpg
158.562	3.832	correct	regulate	Run1	regulate/STIM_007.jpg
164.987	2.856	correct	regulate	Run1	regulate/STIM_007.jpg
171.296	1.951	incorrect	regulate	Run1	regulate/STIM_007.jpg
175.251	2.582	correct	regulate	Run1	regulate/STIM_007.jpg
180.006	3.49	correct	regulate	Run1	regulate/STIM_008.jpg
186.093	3.294	correct	regulate	Run1	regulate/STIM_008.jpg
192.026	2.017	incorrect	regulate	Run1	regulate/STIM_008.jpg
196.247	2.641	correct	regulate	Run1	regulate/STIM_008.jpg
201.667	3.55	correct	regulate	Run1	regulate/STIM_009.jpg
207.713	3.267	incorrect	regulate	Run1	regulate/STIM_009.jpg
214.433	1.626	correct	regulate	Run1	regulate/STIM_009.jpg
219.986	2.453	correct	regulate	Run1	regulate/STIM_009.jpg
226.105	3.161	correct	regulate	Run1	regulate/STIM_010.jpg
231.799	2.755	correct	regulate	Run1	regulate/STIM_010.jpg
236.652	1.716	correct	regulate	Run1	regulate/STIM_010.jpg
242.11	1.953	correct	regulate	Run1	regulate/STIM_010.jpg
248.057	2.719	correct	regulate	Run1	regulate/STIM_011.jpg
253.25	3.123	correct	regulate	Run1	regulate/STIM_011.jpg
258.428	2.94	correct	regulate	Run1	regulate/STIM_011.jpg
263.389	2.552	correct	regulate	Run1	regulate/STIM_011.jpg
269.438	3.234	correct	regulate	Run1	regulate/STIM_012.jpg
274.82	1.955	correct	regulate	Run1	regulate/STIM_012.jpg
280.213	1.803	correct	regulate	Run1	regulate/STIM_012.jpg
284.085	1.459	incorrect	regulate	Run1	regulate/STIM_012.jpg
289.018	3.736	correct	regulate	Run1	regulate/STIM_013.jpg
296.721	2.369	correct	regulate	Run1	regulate/STIM_013.jpg
302.487	1.79	correct	regulate	Run1	regulate/STIM_013.jpg
306.461	1.786	incorrect	regulate	Run1	regulate/STIM_013.jpg
310.992	3.639	correct	regulate	Run1	regulate/STIM_014.jpg
318.216	2.974	correct	regulate	Run1	regulate/STIM_014.jpg
323.744	3.163	correct	regulate	Run1	regulate/STIM_014.jpg
330.869	2.386	incorrect	regulate	Run1	regulate/STIM_014.jpg
335.505	1.803	correct	regulate	Run1	regulate/STIM_015.jpg
340.407	2.889	correct	regulate	Run1	regulate/STIM_015.jpg
347.051	1.759	correct	regulate	Run1	regulate/STIM_015.jpg
351.204	1.949	correct	regulate	Run1	regulate/STIM_015.jpg
356.078	2.85	incorrect	regulate	Run1	regulate/STIM_016.jpg
362.593	2.534	correct	regulate	Run1	regulate/STIM_016.jpg
368.309	2.18	correct	regulate	Run1	regulate/STIM_016.jpg
372.656	1.956	correct	regulate	Run1	regulate/STIM_016.jpg
378.265	3.798	correct	regulate	Run1	regulate/STIM_017.jpg
384.724	2.683	incorrect	regulate	Run1	regulate/STIM_017.jpg
389.759	2.554	correct	regulate	Run1	regulate/STIM_017.jpg
395.629	1.626	correct	regulate	Run1	regulate/STIM_017.jpg
399.545	3.025	correct	regulate	Run1	regulate/STIM_018.jpg
405.119	1.659	correct	regulate	Run1	regulate/STIM_018.jpg
410.645	3.071	correct	regulate	Run1	regulate/STIM_018.jpg
417.088	1.54	correct	regulate	Run1	regulate/STIM_018.jpg
422.134	3.257	correct	regulate	Run1	regulate/STIM_019.jpg
428.653	2.035	incorrect	regulate	Run1	regulate/STIM_019.jpg
433.521	2.405	correct	regulate	Run1	regulate/STIM_019.jpg
439.598	2.082	correct	regulate	Run1	regulate/STIM_019.jpg
443.926	1.904	correct	regulate	Run1	regulate/STIM_020.jpg
449.211	3.395	incorrect	regulate	Run1	regulate/STIM_020.jpg
454.778	3.477	correct	regulate	Run1	regulate/STIM_020.jpg
460.375	2.545	incorrect	regulate	Run1	regulate/STIM_020.jpg
466.587	2.957	correct	regulate	Run1	regulate/STIM_021.jpg
472.381	2.326	correct	regulate	Run1	regulate/STIM_021.jpg
477.385	3.253	incorrect	regulate	Run1	regulate/STIM_021.jpg
482.884	1.572	correct	regulate	Run1	regulate/STIM_021.jpg
487.152	2.328	correct	regulate	Run1	regulate/STIM_022.jpg
493.381	1.777	correct	regulate	Run1	regulate/STIM_022.jpg
497.285	2.062	correct	regulate	Run1	regulate/STIM_022.jpg
501.385	2.737	correct	regulate	Run1	regulate/STIM_022.jpg
508.024	3.481	correct	regulate	Run1	regulate/STIM_023.jpg
514.663	2.407	correct	regulate	Run1	regulate/STIM_023.jpg
520.745	3.514	correct	regulate	Run1	regulate/STIM_023.jpg
528.243	2.517	correct	regulate	Run1	regulate/STIM_023.jpg
533.888	1.757	correct	regulate	Run1	regulate/STIM_024.jpg
538.775	1.801	correct	regulate	Run1	regulate/STIM_024.jpg
543.093	2.707	incorrect	regulate	Run1	regulate/STIM_024.jpg
547.856	2.144	correct	regulate	Run1	regulate/STIM_024.jpg
553.064	1.901	correct	regulate	Run1	regulate/STIM_025.jpg
558.316	2.252	correct	regulate	Run1	regulate/STIM_025.jpg
563.227	3.54	incorrect	regulate	Run1	regulate/STIM_025.jpg
569.629	1.932	incorrect	regulate	Run1	regulate/STIM_025.jpg
575.124	3.377	incorrect	regulate	Run1	regulate/STIM_026.jpg
581.872	2.993	correct	regulate	Run1	regulate/STIM_026.jpg
587.626	2.216	correct	regulate	Run1	regulate/STIM_026.jpg
592.254	2.428	correct	regulate	Run1	regulate/STIM_026.jpg
597.691	2.186	correct	regulate	Run1	regulate/STIM_027.jpg
603.023	1.664	correct	regulate	Run1	regulate/STIM_027.jpg
608.429	3.314	correct	regulate	Run1	regulate/STIM_027.jpg
615.279	3.222	correct	regulate	Run1	regulate/STIM_027.jpg
621.152	1.996	correct	regulate	Run1	regulate/STIM_028.jpg
627.014	3.358	correct	regulate	Run1	regulate/STIM_028.jpg
632.85	1.719	correct	regulate	Run1	regulate/STIM_028.jpg
637.618	3.096	incorrect	regulate	Run1	regulate/STIM_028.jpg
643.213	1.941	correct	regulate	Run1	regulate/STIM_029.jpg
648.273	1.783	correct	regulate	Run1	regulate/STIM_029.jpg
652.916	3.464	correct	regulate	Run1	regulate/STIM_029.jpg
658.447	3.242	incorrect	regulate	Run1	regulate/STIM_029.jpg
663.866	1.5	correct	observe	Run1	observe/STIM_000.jpg
668.645	1.257	correct	observe	Run1	observe/STIM_000.jpg
671.98	1.581	correct	observe	Run1	observe/STIM_000.jpg
677.144	1.172	correct	observe	Run1	observe/STIM_000.jpg
681.934	1.227	correct	observe	Run1	observe/STIM_001.jpg
686.024	1.742	correct	observe	Run1	observe/STIM_001.jpg
690.157	0.921	correct	observe	Run1	observe/STIM_001.jpg
693.637	1.615	correct	observe	Run1	observe/STIM_001.jpg
699.172	0.934	correct	observe	Run1	observe/STIM_002.jpg
703.175	1.023	incorrect	observe	Run1	observe/STIM_002.jpg
707.704	0.952	correct	observe	Run1	observe/STIM_002.jpg
711.67	1.59	correct	observe	Run1	observe/STIM_002.jpg
716.762	1.405	correct	observe	Run1	observe/STIM_003.jpg
720.87	1.462	correct	observe	Run1	observe/STIM_003.jpg
724.574	1.297	correct	observe	Run1	observe/STIM_003.jpg
729.689	1.429	correct	observe	Run1	observe/STIM_003.jpg
734.819	1.644	correct	observe	Run1	observe/STIM_004.jpg
738.76	1.224	correct	observe	Run1	observe/STIM_004.jpg
742.769	1.639	correct	observe	Run1	observe/STIM_004.jpg
746.691	1.46	correct	observe	Run1	observe/STIM_004.jpg
750.46	1.312	correct	observe	Run1	observe/STIM_005.jpg
755.251	1.425	correct	observe	Run1	observe/STIM_005.jpg
758.844	1.069	correct	observe	Run1	observe/STIM_005.jpg
762.179	1.567	correct	observe	Run1	observe/STIM_005.jpg
766.393	1.769	correct	observe	Run1	observe/STIM_006.jpg
770.632	0.996	correct	observe	Run1	observe/STIM_006.jpg
774.24	0.941	correct	observe	Run1	observe/STIM_006.jpg
779.144	1.257	correct	observe	Run1	observe/STIM_006.jpg
784.2	1.58	correct	observe	Run1	observe/STIM_007.jpg
789.612	1.619	correct	observe	Run1	observe/STIM_007.jpg
793.546	0.9	correct	observe	Run1	observe/STIM_007.jpg
797.759	1.66	correct	observe	Run1	observe/STIM_007.jpg
801.584	1.558	correct	observe	Run1	observe/STIM_008.jpg
805.739	1.536	correct	observe	Run1	observe/STIM_008.jpg
810.173	1.024	correct	observe	Run1	observe/STIM_008.jpg
813.326	1.282	correct	observe	Run1	observe/STIM_008.jpg
818.536	1.006	correct	observe	Run1	observe/STIM_009.jpg
821.697	1.78	correct	observe	Run1	observe/STIM_009.jpg
827.266	1.167	incorrect	observe	Run1	observe/STIM_009.jpg
832.148	0.985	correct	observe	Run1	observe/STIM_009.jpg
836.968	1.172	correct	observe	Run1	observe/STIM_010.jpg
841.621	1.452	incorrect	observe	Run1	observe/STIM_010.jpg
846.84	1.7	correct	observe	Run1	observe/STIM_010.jpg
850.633	1.073	correct	observe	Run1	observe/STIM_010.jpg
854.612	1.501	correct	observe	Run1	observe/STIM_011.jpg
859.303	1.644	incorrect	observe	Run1	observe/STIM_011.jpg
864.177	1.141	correct	observe	Run1	observe/STIM_011.jpg
868.374	1.142	correct	observe	Run1	observe/STIM_011.jpg
872.46	1.549	correct	observe	Run1	observe/STIM_012.jpg
877.628	1.166	correct	observe	Run1	observe/STIM_012.jpg
881.294	1.053	correct	observe	Run1	observe/STIM_012.jpg
885.976	0.971	correct	observe	Run1	observe/STIM_012.jpg
890.764	1.156	correct	observe	Run1	observe/STIM_013.jpg
895.149	1.527	correct	observe	Run1	observe/STIM_013.jpg
900.177	1.421	correct	observe	Run1	observe/STIM_013.jpg
904.086	1.59	correct	observe	Run1	observe/STIM_013.jpg
908.872	1.643	correct	observe	Run1	observe/STIM_014.jpg
914.395	1.687	correct	observe	Run1	observe/STIM_014.jpg
919.915	1.352	correct	observe	Run1	observe/STIM_014.jpg
924.65	1.595	correct	observe	Run1	observe/STIM_014.jpg
928.527	0.958	correct	observe	Run1	observe/STIM_015.jpg
931.843	1.695	correct	observe	Run1	observe/STIM_015.jpg
936.056	1.54	correct	observe	Run1	observe/STIM_015.jpg
940.28	0.955	correct	observe	Run1	observe/STIM_015.jpg
945.004	0.932	correct	observe	Run1	observe/STIM_016.jpg
949.75	1.78	correct	observe	Run1	observe/STIM_016.jpg
955.26	1.611	correct	observe	Run1	observe/STIM_016.jpg
959.538	1.669	correct	observe	Run1	observe/STIM_016.jpg
964.631	1.147	correct	observe	Run1	observe/STIM_017.jpg
968.683	0.978	correct	observe	Run1	observe/STIM_017.jpg
972.079	0.941	correct	observe	Run1	observe/STIM_017.jpg
976.664	1.474	correct	observe	Run1	observe/STIM_017.jpg
981.064	1.234	correct	observe	Run1	observe/STIM_018.jpg
985.735	1.48	correct	observe	Run1	observe/STIM_018.jpg
990.085	1.787	correct	observe	Run1	observe/STIM_018.jpg
995.421	1.205	correct	observe	Run1	observe/STIM_018.jpg
1000.48	1.463	incorrect	observe	Run1	observe/STIM_019.jpg
1004.72	1.196	correct	observe	Run1	observe/STIM_019.jpg
1008.867	1.762	correct	observe	Run1	observe/STIM_019.jpg
1013.14	0.906	correct	observe	Run1	observe/STIM_019.jpg
1017.36	2.565	correct	regulate	Run2	regulate/STIM_000.jpg
1023.274	1.708	correct	regulate	Run2	regulate/STIM_000.jpg
1028.51	2.686	correct	regulate	Run2	regulate/STIM_000.jpg
1033.366	1.335	correct	regulate	Run2	regulate/STIM_000.jpg
1037.104	1.869	correct	regulate	Run2	regulate/STIM_001.jpg
1042.186	1.634	correct	regulate	Run2	regulate/STIM_001.jpg
1046.427	1.942	correct	regulate	Run2	regulate/STIM_001.jpg
1050.623	2.395	correct	regulate	Run2	regulate/STIM_001.jpg
1055.478	2.541	incorrect	regulate	Run2	regulate/STIM_002.jpg
1062.004	1.9	correct	regulate	Run2	regulate/STIM_002.jpg
1067.771	1.677	correct	regulate	Run2	regulate/STIM_002.jpg
1072.229	1.295	correct	regulate	Run2	regulate/STIM_002.jpg
1075.641	1.668	correct	regulate	Run2	regulate/STIM_003.jpg
1080.04	2.577	correct	regulate	Run2	regulate/STIM_003.jpg
1085.366	1.959	correct	regulate	Run2	regulate/STIM_003.jpg
1091.075	2.558	correct	regulate	Run2	regulate/STIM_003.jpg
1096.929	2.804	correct	regulate	Run2	regulate/STIM_004.jpg
1103.186	3.096	correct	regulate	Run2	regulate/STIM_004.jpg
1109.423	2.45	correct	regulate	Run2	regulate/STIM_004.jpg
1115.567	1.841	correct	regulate	Run2	regulate/STIM_004.jpg
1120.708	2.86	correct	regulate	Run2	regulate/STIM_005.jpg
1126.414	1.534	correct	regulate	Run2	regulate/STIM_005.jpg
1131.09	1.545	correct	regulate	Run2	regulate/STIM_005.jpg
1136.178	2.249	correct	regulate	Run2	regulate/STIM_005.jpg
1141.446	2.796	correct	regulate	Run2	regulate/STIM_006.jpg
1147.947	1.761	correct	regulate	Run2	regulate/STIM_006.jpg
1152.626	1.611	correct	regulate	Run2	regulate/STIM_006.jpg
1156.447	2.489	correct	regulate	Run2	regulate/STIM_006.jpg
1162.384	3.234	correct	regulate	Run2	regulate/STIM_007.jpg
1169.262	2.281	correct	regulate	Run2	regulate/STIM_007.jpg
1173.628	2.818	correct	regulate	Run2	regulate/STIM_007.jpg
1180.431	2.622	correct	regulate	Run2	regulate/STIM_007.jpg
1185.254	2.52	incorrect	regulate	Run2	regulate/STIM_008.jpg
1190.966	2.572	incorrect	regulate	Run2	regulate/STIM_008.jpg
1197.005	1.57	correct	regulate	Run2	regulate/STIM_008.jpg
1201.682	1.65	correct	regulate	Run2	regulate/STIM_008.jpg
1206.611	2.932	incorrect	regulate	Run2	regulate/STIM_009.jpg
1213.077	1.813	correct	regulate	Run2	regulate/STIM_009.jpg
1217.111	1.612	correct	regulate	Run2	regulate/STIM_009.jpg
1221.351	2.744	correct	regulate	Run2	regulate/STIM_009.jpg
1226.873	2.001	correct	regulate	Run2	regulate/STIM_010.jpg
1232.488	2.647	correct	regulate	Run2	regulate/STIM_010.jpg
1237.188	2.232	correct	regulate	Run2	regulate/STIM_010.jpg
1242.541	1.645	correct	regulate	Run2	regulate/STIM_010.jpg
1247.918	2.012	incorrect	regulate	Run2	regulate/STIM_011.jpg
1253.01	2.921	correct	regulate	Run2	regulate/STIM_011.jpg
1259.901	2.822	correct	regulate	Run2	regulate/STIM_011.jpg
1266.703	1.502	correct	regulate	Run2	regulate/STIM_011.jpg
1270.854	2.998	correct	regulate	Run2	regulate/STIM_012.jpg
1276.731	2.035	correct	regulate	Run2	regulate/STIM_012.jpg
1281.87	2.047	correct	regulate	Run2	regulate/STIM_012.jpg
1286.385	1.312	correct	regulate	Run2	regulate/STIM_012.jpg
1290.335	3.152	correct	regulate	Run2	regulate/STIM_013.jpg
1297.394	2.348	correct	regulate	Run2	regulate/STIM_013.jpg
1303.035	1.374	correct	regulate	Run2	regulate/STIM_013.jpg
1308.139	2.372	correct	regulate	Run2	regulate/STIM_013.jpg
1313.522	2.438	correct	regulate	Run2	regulate/STIM_014.jpg
1318.492	1.547	correct	regulate	Run2	regulate/STIM_014.jpg
1323.77	1.355	correct	regulate	Run2	regulate/STIM_014.jpg
1327.3	2.464	correct	regulate	Run2	regulate/STIM_014.jpg
1333.304	2.598	correct	regulate	Run2	regulate/STIM_015.jpg
1338.247	1.746	correct	regulate	Run2	regulate/STIM_015.jpg
1343.429	2.809	incorrect	regulate	Run2	regulate/STIM_015.jpg
1349.054	1.422	correct	regulate	Run2	regulate/STIM_015.jpg
1352.95	1.683	correct	regulate	Run2	regulate/STIM_016.jpg
1357.523	2.717	correct	regulate	Run2	regulate/STIM_016.jpg
1363.678	1.88	correct	regulate	Run2	regulate/STIM_016.jpg
1368.555	1.248	correct	regulate	Run2	regulate/STIM_016.jpg
1371.99	3.007	correct	regulate	Run2	regulate/STIM_017.jpg
1378.986	2.448	correct	regulate	Run2	regulate/STIM_017.jpg
1383.66	2.818	correct	regulate	Run2	regulate/STIM_017.jpg
1388.509	1.548	correct	regulate	Run2	regulate/STIM_017.jpg
1392.359	2.048	correct	regulate	Run2	regulate/STIM_018.jpg
1396.873	3.07	correct	regulate	Run2	regulate/STIM_018.jpg
1402.387	2.004	correct	regulate	Run2	regulate/STIM_018.jpg
1407.144	1.623	correct	regulate	Run2	regulate/STIM_018.jpg
1411.72	3.081	correct	regulate	Run2	regulate/STIM_019.jpg
1418.365	2.217	correct	regulate	Run2	regulate/STIM_019.jpg
1423.198	1.461	incorrect	regulate	Run2	regulate/STIM_019.jpg
1427.916	1.875	correct	regulate	Run2	regulate/STIM_019.jpg
1432.831	2.201	incorrect	regulate	Run2	regulate/STIM_020.jpg
1437.414	2.844	correct	regulate	Run2	regulate/STIM_020.jpg
1443.927	2.182	correct	regulate	Run2	regulate/STIM_020.jpg
1449.419	2.48	correct	regulate	Run2	regulate/STIM_020.jpg
1455.157	1.996	correct	regulate	Run2	regulate/STIM_021.jpg
1460.763	2.064	incorrect	regulate	Run2	regulate/STIM_021.jpg
1465.362	2.618	correct	regulate	Run2	regulate/STIM_021.jpg
1470.913	1.841	correct	regulate	Run2	regulate/STIM_021.jpg
1474.804	2.842	correct	regulate	Run2	regulate/STIM_022.jpg
1480.864	2.958	correct	regulate	Run2	regulate/STIM_022.jpg
1487.494	1.535	correct	regulate	Run2	regulate/STIM_022.jpg
1492.464	2.135	correct	regulate	Run2	regulate/STIM_022.jpg
1498.487	3.192	correct	regulate	Run2	regulate/STIM_023.jpg
1505.051	2.513	correct	regulate	Run2	regulate/STIM_023.jpg
1509.647	2.329	correct	regulate	Run2	regulate/STIM_023.jpg
1515.963	1.55	correct	regulate	Run2	regulate/STIM_023.jpg
1519.914	1.73	correct	regulate	Run2	regulate/STIM_024.jpg
1524.574	2.799	correct	regulate	Run2	regulate/STIM_024.jpg
1530.275	2.267	correct	regulate	Run2	regulate/STIM_024.jpg
1535.569	1.515	correct	regulate	Run2	regulate/STIM_024.jpg
1539.437	1.566	correct	regulate	Run2	regulate/STIM_025.jpg
1544.499	1.885	correct	regulate	Run2	regulate/STIM_025.jpg
1550.344	1.419	correct	regulate	Run2	regulate/STIM_025.jpg
1555.563	1.579	correct	regulate	Run2	regulate/STIM_025.jpg
1559.403	2.375	correct	regulate	Run2	regulate/STIM_026.jpg
1564.321	2.488	correct	regulate	Run2	regulate/STIM_026.jpg
1569.469	2.488	correct	regulate	Run2	regulate/STIM_026.jpg
1574.562	1.795	correct	regulate	Run2	regulate/STIM_026.jpg
1580.25	2.693	correct	regulate	Run2	regulate/STIM_027.jpg
1586.91	2.507	incorrect	regulate	Run2	regulate/STIM_027.jpg
1591.574	2.405	correct	regulate	Run2	regulate/STIM_027.jpg
1596.968	1.902	correct	regulate	Run2	regulate/STIM_027.jpg
1602.172	2.9	correct	regulate	Run2	regulate/STIM_028.jpg
1608.508	2.813	correct	regulate	Run2	regulate/STIM_028.jpg
1614.374	2.79	correct	regulate	Run2	regulate/STIM_028.jpg
1619.778	1.633	correct	regulate	Run2	regulate/STIM_028.jpg
1624.437	2.852	incorrect	regulate	Run2	regulate/STIM_029.jpg
1630.871	2.582	correct	regulate	Run2	regulate/STIM_029.jpg
1636.803	2.483	correct	regulate	Run2	regulate/STIM_029.jpg
1641.342	2.05	correct	regulate	Run2	regulate/STIM_029.jpg
1646.119	1.038	correct	observe	Run2	observe/STIM_000.jpg
1649.98	1.343	correct	observe	Run2	observe/STIM_000.jpg
1653.642	1.793	correct	observe	Run2	observe/STIM_000.jpg
1657.585	1.538	correct	observe	Run2	observe/STIM_000.jpg
1662.48	1.043	correct	observe	Run2	observe/STIM_001.jpg
1666.698	0.924	correct	observe	Run2	observe/STIM_001.jpg
1669.702	1.028	correct	observe	Run2	observe/STIM_001.jpg
1672.768	1.534	correct	observe	Run2	observe/STIM_001.jpg
1677.775	1.794	correct	observe	Run2	observe/STIM_002.jpg
1682.838	0.941	correct	observe	Run2	observe/STIM_002.jpg
1687.191	1.044	correct	observe	Run2	observe/STIM_002.jpg
1692.06	1.588	correct	observe	Run2	observe/STIM_002.jpg
1696.077	1.194	correct	observe	Run2	observe/STIM_003.jpg
1701.093	1.006	correct	observe	Run2	observe/STIM_003.jpg
1704.372	1.292	correct	observe	Run2	observe/STIM_003.jpg
1708.103	1.38	correct	observe	Run2	observe/STIM_003.jpg
1713.061	1.236	correct	observe	Run2	observe/STIM_004.jpg
1717.428	1.368	correct	observe	Run2	observe/STIM_004.jpg
1721.985	1.787	correct	observe	Run2	observe/STIM_004.jpg
1727.086	1.318	correct	observe	Run2	observe/STIM_004.jpg
1731.944	1.061	incorrect	observe	Run2	observe/STIM_005.jpg
1735.579	1.025	correct	observe	Run2	observe/STIM_005.jpg
1739.461	1.385	correct	observe	Run2	observe/STIM_005.jpg
1743.452	1.632	incorrect	observe	Run2	observe/STIM_005.jpg
1747.192	1.346	incorrect	observe	Run2	observe/STIM_006.jpg
1752.159	1.075	correct	observe	Run2	observe/STIM_006.jpg
1756.077	1.303	correct	observe	Run2	observe/STIM_006.jpg
1759.491	1.585	correct	observe	Run2	observe/STIM_006.jpg
1763.988	1.797	correct	observe	Run2	observe/STIM_007.jpg
1768.939	1.176	correct	observe	Run2	observe/STIM_007.jpg
1773.897	1.328	correct	observe	Run2	observe/STIM_007.jpg
1778.052	1.671	correct	observe	Run2	observe/STIM_007.jpg
1782.128	0.964	correct	observe	Run2	observe/STIM_008.jpg
1786.745	1.396	correct	observe	Run2	observe/STIM_008.jpg
1790.505	1.287	correct	observe	Run2	observe/STIM_008.jpg
1793.909	1.674	correct	observe	Run2	observe/STIM_008.jpg
1799.144	1.687	incorrect	observe	Run2	observe/STIM_009.jpg
1803.632	1.788	correct	observe	Run2	observe/STIM_009.jpg
1809.039	0.954	correct	observe	Run2	observe/STIM_009.jpg
1813.349	1.713	correct	observe	Run2	observe/STIM_009.jpg
1817.589	1.207	correct	observe	Run2	observe/STIM_010.jpg
1822.137	1.621	correct	observe	Run2	observe/STIM_010.jpg
1827.595	1.436	correct	observe	Run2	observe/STIM_010.jpg
1831.856	1.254	correct	observe	Run2	observe/STIM_010.jpg
1835.381	1.48	incorrect	observe	Run2	observe/STIM_011.jpg
1839.027	1.304	correct	observe	Run2	observe/STIM_011.jpg
1843.667	1.286	correct	observe	Run2	observe/STIM_011.jpg
1847.539	1.751	correct	observe	Run2	observe/STIM_011.jpg
1851.863	1.417	correct	observe	Run2	observe/STIM_012.jpg
1856.094	1.561	correct	observe	Run2	observe/STIM_012.jpg
1859.666	1.403	correct	observe	Run2	observe/STIM_012.jpg
1864.452	0.981	correct	observe	Run2	observe/STIM_012.jpg
1869.374	1.337	correct	observe	Run2	observe/STIM_013.jpg
1873.039	1.681	incorrect	observe	Run2	observe/STIM_013.jpg
1877.039	0.973	correct	observe	Run2	observe/STIM_013.jpg
1880.667	1.17	correct	observe	Run2	observe/STIM_013.jpg
1884.413	0.976	incorrect	observe	Run2	observe/STIM_014.jpg
1888.583	1.51	correct	observe	Run2	observe/STIM_014.jpg
1892.341	1.765	correct	observe	Run2	observe/STIM_014.jpg
1896.569	1.258	correct	observe	Run2	observe/STIM_014.jpg
1900.456	1.48	correct	observe	Run2	observe/STIM_015.jpg
1905.49	1.194	correct	observe	Run2	observe/STIM_015.jpg
1909.702	0.909	correct	observe	Run2	observe/STIM_015.jpg
1913.883	1.487	correct	observe	Run2	observe/STIM_015.jpg
1917.433	1.439	correct	observe	Run2	observe/STIM_016.jpg
1922.282	1.715	correct	observe	Run2	observe/STIM_016.jpg
1927.445	1.548	correct	observe	Run2	observe/STIM_016.jpg
1931.202	1.397	correct	observe	Run2	observe/STIM_016.jpg
1935.882	1.662	correct	observe	Run2	observe/STIM_017.jpg
1940.389	1.42	correct	observe	Run2	observe/STIM_017.jpg
1944.909	1.511	correct	observe	Run2	observe/STIM_017.jpg
1948.491	1.159	correct	observe	Run2	observe/STIM_017.jpg
1953.071	1.455	correct	observe	Run2	observe/STIM_018.jpg
1956.565	1.27	correct	observe	Run2	observe/STIM_018.jpg
1960.218	1.427	correct	observe	Run2	observe/STIM_018.jpg
1964.857	1.665	correct	observe	Run2	observe/STIM_018.jpg
1969.527	0.901	correct	observe	Run2	observe/STIM_019.jpg
1973.342	1.449	correct	observe	Run2	observe/STIM_019.jpg
1977.182	1.663	correct	observe	Run2	observe/STIM_019.jpg
1981.476	1.75	correct	observe	Run2	observe/STIM_019.jpg
1985.748	2.408	correct	regulate	Run3	regulate/STIM_000.jpg
1990.196	2.34	correct	regulate	Run3	regulate/STIM_000.jpg
1996.359	2.556	correct	regulate	Run3	regulate/STIM_000.jpg
2001.587	1.383	correct	regulate	Run3	regulate/STIM_000.jpg
2006.335	1.512	correct	regulate	Run3	regulate/STIM_001.jpg
2011.081	1.467	correct	regulate	Run3	regulate/STIM_001.jpg
2015.855	2.418	correct	regulate	Run3	regulate/STIM_001.jpg
2021.136	2.537	correct	regulate	Run3	regulate/STIM_001.jpg
2025.959	2.69	correct	regulate	Run3	regulate/STIM_002.jpg
2032.059	1.737	correct	regulate	Run3	regulate/STIM_002.jpg
2036.166	1.912	correct	regulate	Run3	regulate/STIM_002.jpg
2042.031	1.428	correct	regulate	Run3	regulate/STIM_002.jpg
2046.606	2.134	correct	regulate	Run3	regulate/STIM_003.jpg
2052.45	1.628	correct	regulate	Run3	regulate/STIM_003.jpg
2056.859	2.732	correct	regulate	Run3	regulate/STIM_003.jpg
2062.43	2.442	correct	regulate	Run3	regulate/STIM_003.jpg
2067.205	2.102	correct	regulate	Run3	regulate/STIM_004.jpg
2072.124	1.244	correct	regulate	Run3	regulate/STIM_004.jpg
2077.08	2.203	correct	regulate	Run3	regulate/STIM_004.jpg
2081.949	1.709	correct	regulate	Run3	regulate/STIM_004.jpg
2086.677	1.271	correct	regulate	Run3	regulate/STIM_005.jpg
2091.505	1.982	correct	regulate	Run3	regulate/STIM_005.jpg
2096.769	2.188	correct	regulate	Run3	regulate/STIM_005.jpg
2101.57	2.343	correct	regulate	Run3	regulate/STIM_005.jpg
2106.417	1.695	correct	regulate	Run3	regulate/STIM_006.jpg
2110.151	2.293	incorrect	regulate	Run3	regulate/STIM_006.jpg
2115.617	1.185	correct	regulate	Run3	regulate/STIM_006.jpg
2120.235	1.274	correct	regulate	Run3	regulate/STIM_006.jpg
2124.521	2.571	correct	regulate	Run3	regulate/STIM_007.jpg
2131.068	2.749	correct	regulate	Run3	regulate/STIM_007.jpg
2135.899	1.576	correct	regulate	Run3	regulate/STIM_007.jpg
2139.974	1.905	correct	regulate	Run3	regulate/STIM_007.jpg
2144.737	2.108	correct	regulate	Run3	regulate/STIM_008.jpg
2149.916	2.058	correct	regulate	Run3	regulate/STIM_008.jpg
2155.61	1.209	correct	regulate	Run3	regulate/STIM_008.jpg
2160.094	2.46	correct	regulate	Run3	regulate/STIM_008.jpg
2164.879	2.635	incorrect	regulate	Run3	regulate/STIM_009.jpg
2171.32	2.35	correct	regulate	Run3	regulate/STIM_009.jpg
2176.7	1.822	correct	regulate	Run3	regulate/STIM_009.jpg
2181.496	2.049	correct	regulate	Run3	regulate/STIM_009.jpg
2186.659	2.172	correct	regulate	Run3	regulate/STIM_010.jpg
2191.983	1.709	correct	regulate	Run3	regulate/STIM_010.jpg
2197.628	2.387	correct	regulate	Run3	regulate/STIM_010.jpg
2203.504	2.32	correct	regulate	Run3	regulate/STIM_010.jpg
2208.272	1.239	correct	regulate	Run3	regulate/STIM_011.jpg
2212.66	2.488	correct	regulate	Run3	regulate/STIM_011.jpg
2218.103	2.226	correct	regulate	Run3	regulate/STIM_011.jpg
2222.479	2.414	correct	regulate	Run3	regulate/STIM_011.jpg
2227.958	1.47	correct	regulate	Run3	regulate/STIM_012.jpg
2233.157	1.807	correct	regulate	Run3	regulate/STIM_012.jpg
2238.84	1.939	correct	regulate	Run3	regulate/STIM_012.jpg
2243.921	1.938	correct	regulate	Run3	regulate/STIM_012.jpg
2249.026	1.228	correct	regulate	Run3	regulate/STIM_013.jpg
2254.033	1.723	correct	regulate	Run3	regulate/STIM_013.jpg
2258.4	1.407	correct	regulate	Run3	regulate/STIM_013.jpg
2262.01	1.468	correct	regulate	Run3	regulate/STIM_013.jpg
2267.123	1.889	correct	regulate	Run3	regulate/STIM_014.jpg
2272.79	1.832	correct	regulate	Run3	regulate/STIM_014.jpg
2276.689	2.119	correct	regulate	Run3	regulate/STIM_014.jpg
2281.853	1.283	correct	regulate	Run3	regulate/STIM_014.jpg
2285.509	2.251	correct	regulate	Run3	regulate/STIM_015.jpg
2291.742	2.319	correct	regulate	Run3	regulate/STIM_015.jpg
2297.198	2.057	correct	regulate	Run3	regulate/STIM_015.jpg
2302.49	1.207	correct	regulate	Run3	regulate/STIM_015.jpg
2307.643	2.03	incorrect	regulate	Run3	regulate/STIM_016.jpg
2313.116	2.231	correct	regulate	Run3	regulate/STIM_016.jpg
2318.99	2.514	correct	regulate	Run3	regulate/STIM_016.jpg
2324.965	1.986	correct	regulate	Run3	regulate/STIM_016.jpg
2330.642	2.74	correct	regulate	Run3	regulate/STIM_017.jpg
2335.561	2.177	correct	regulate	Run3	regulate/STIM_017.jpg
2340.345	2.271	correct	regulate	Run3	regulate/STIM_017.jpg
2346.483	2.428	correct	regulate	Run3	regulate/STIM_017.jpg
2352.477	1.347	correct	regulate	Run3	regulate/STIM_018.jpg
2357.197	1.23	correct	regulate	Run3	regulate/STIM_018.jpg
2360.597	1.469	correct	regulate	Run3	regulate/STIM_018.jpg
2365.125	1.2	correct	regulate	Run3	regulate/STIM_018.jpg
2369.127	2.72	correct	regulate	Run3	regulate/STIM_019.jpg
2374.229	1.369	correct	regulate	Run3	regulate/STIM_019.jpg
2378.867	2.005	correct	regulate	Run3	regulate/STIM_019.jpg
2383.31	2.006	correct	regulate	Run3	regulate/STIM_019.jpg
2388.925	1.843	correct	regulate	Run3	regulate/STIM_020.jpg
2394.726	2.446	correct	regulate	Run3	regulate/STIM_020.jpg
2400.814	2.211	correct	regulate	Run3	regulate/STIM_020.jpg
2406.452	1.7	correct	regulate	Run3	regulate/STIM_020.jpg
2411.509	1.583	correct	regulate	Run3	regulate/STIM_021.jpg
2415.841	1.54	correct	regulate	Run3	regulate/STIM_021.jpg
2420.385	2.726	correct	regulate	Run3	regulate/STIM_021.jpg
2425.979	1.621	correct	regulate	Run3	regulate/STIM_021.jpg
2429.879	1.43	correct	regulate	Run3	regulate/STIM_022.jpg
2433.512	2.15	correct	regulate	Run3	regulate/STIM_022.jpg
2439.113	1.199	correct	regulate	Run3	regulate/STIM_022.jpg
2443.37	2.371	correct	regulate	Run3	regulate/STIM_022.jpg
2449.354	2.384	correct	regulate	Run3	regulate/STIM_023.jpg
2454.694	1.921	correct	regulate	Run3	regulate/STIM_023.jpg
2460.453	2.497	correct	regulate	Run3	regulate/STIM_023.jpg
2465.994	2.45	correct	regulate	Run3	regulate/STIM_023.jpg
2470.985	2.662	correct	regulate	Run3	regulate/STIM_024.jpg
2477.167	1.284	correct	regulate	Run3	regulate/STIM_024.jpg
2481.625	1.243	correct	regulate	Run3	regulate/STIM_024.jpg
2485.611	2.59	correct	regulate	Run3	regulate/STIM_024.jpg
2490.899	1.93	correct	regulate	Run3	regulate/STIM_025.jpg
2496.749	1.931	correct	regulate	Run3	regulate/STIM_025.jpg
2501.638	1.426	correct	regulate	Run3	regulate/STIM_025.jpg
2505.435	2.447	correct	regulate	Run3	regulate/STIM_025.jpg
2511.807	2.099	correct	regulate	Run3	regulate/STIM_026.jpg
2517.537	2.211	correct	regulate	Run3	regulate/STIM_026.jpg
2522.177	2.399	correct	regulate	Run3	regulate/STIM_026.jpg
2528.016	1.988	correct	regulate	Run3	regulate/STIM_026.jpg
2533.321	2.359	correct	regulate	Run3	regulate/STIM_027.jpg
2537.981	1.87	incorrect	regulate	Run3	regulate/STIM_027.jpg
2543.792	1.966	correct	regulate	Run3	regulate/STIM_027.jpg
2547.838	2.087	correct	regulate	Run3	regulate/STIM_027.jpg
2552.042	1.532	correct	regulate	Run3	regulate/STIM_028.jpg
2556.476	1.516	correct	regulate	Run3	regulate/STIM_028.jpg
2560.893	2.452	correct	regulate	Run3	regulate/STIM_028.jpg
2566.78	2.345	correct	regulate	Run3	regulate/STIM_028.jpg
2573.016	2.314	correct	regulate	Run3	regulate/STIM_029.jpg
2577.8	1.711	correct	regulate	Run3	regulate/STIM_029.jpg
2581.681	2.294	correct	regulate	Run3	regulate/STIM_029.jpg
2587.301	1.546	correct	regulate	Run3	regulate/STIM_029.jpg
2591.307	1.516	correct	observe	Run3	observe/STIM_000.jpg
2595.607	1.343	correct	observe	Run3	observe/STIM_000.jpg
2599.581	1.616	correct	observe	Run3	observe/STIM_000.jpg
2605.189	1.091	correct	observe	Run3	observe/STIM_000.jpg
2609.275	1.726	correct	observe	Run3	observe/STIM_001.jpg
2613.112	1.671	correct	observe	Run3	observe/STIM_001.jpg
2616.999	1.312	incorrect	observe	Run3	observe/STIM_001.jpg
2621.237	1.391	correct	observe	Run3	observe/STIM_001.jpg
2626.24	1.374	correct	observe	Run3	observe/STIM_002.jpg
2630.907	1.067	correct	observe	Run3	observe/STIM_002.jpg
2635.847	1.434	incorrect	observe	Run3	observe/STIM_002.jpg
2639.731	1.662	correct	observe	Run3	observe/STIM_002.jpg
2644.963	1.399	correct	observe	Run3	observe/STIM_003.jpg
2648.536	1.038	correct	observe	Run3	observe/STIM_003.jpg
2651.602	1.464	correct	observe	Run3	observe/STIM_003.jpg
2655.692	1.433	correct	observe	Run3	observe/STIM_003.jpg
2660.401	1.44	correct	observe	Run3	observe/STIM_004.jpg
2665.721	1.657	correct	observe	Run3	observe/STIM_004.jpg
2669.982	1.179	correct	observe	Run3	observe/STIM_004.jpg
2673.964	1.423	correct	observe	Run3	observe/STIM_004.jpg
2678.345	1.068	correct	observe	Run3	observe/STIM_005.jpg
2682.712	1.472	correct	observe	Run3	observe/STIM_005.jpg
2687.239	1.068	incorrect	observe	Run3	observe/STIM_005.jpg
2692.188	1.482	correct	observe	Run3	observe/STIM_005.jpg
2696.716	1.793	correct	observe	Run3	observe/STIM_006.jpg
2702.421	1.205	correct	observe	Run3	observe/STIM_006.jpg
2707.475	1.026	correct	observe	Run3	observe/STIM_006.jpg
2711.52	1.355	correct	observe	Run3	observe/STIM_006.jpg
2716.285	1.61	correct	observe	Run3	observe/STIM_007.jpg
2721.686	1.203	correct	observe	Run3	observe/STIM_007.jpg
2726.63	1.154	correct	observe	Run3	observe/STIM_007.jpg
2730.89	0.931	correct	observe	Run3	observe/STIM_007.jpg
2735.147	1.26	correct	observe	Run3	observe/STIM_008.jpg
2739.659	1.568	correct	observe	Run3	observe/STIM_008.jpg
2743.413	1.116	correct	observe	Run3	observe/STIM_008.jpg
2747.37	1.226	correct	observe	Run3	observe/STIM_008.jpg
2750.791	1.272	correct	observe	Run3	observe/STIM_009.jpg
2755.375	1.242	incorrect	observe	Run3	observe/STIM_009.jpg
2759.855	1.496	correct	observe	Run3	observe/STIM_009.jpg
2764.857	1.727	correct	observe	Run3	observe/STIM_009.jpg
2770.29	1.582	incorrect	observe	Run3	observe/STIM_010.jpg
2775.044	1.268	incorrect	observe	Run3	observe/STIM_010.jpg
2778.622	1.506	correct	observe	Run3	observe/STIM_010.jpg
2784.017	1.066	correct	observe	Run3	observe/STIM_010.jpg
2787.259	1.638	correct	observe	Run3	observe/STIM_011.jpg
2791.788	1.452	correct	observe	Run3	observe/STIM_011.jpg
2796.49	1.697	correct	observe	Run3	observe/STIM_011.jpg
2800.547	0.984	correct	observe	Run3	observe/STIM_011.jpg
2804.278	1.491	correct	observe	Run3	observe/STIM_012.jpg
2809.543	0.936	correct	observe	Run3	observe/STIM_012.jpg
2814.082	1.268	correct	observe	Run3	observe/STIM_012.jpg
2819.09	1.452	correct	observe	Run3	observe/STIM_012.jpg
2823.966	1.032	correct	observe	Run3	observe/STIM_013.jpg
2827.991	1.015	correct	observe	Run3	observe/STIM_013.jpg
2832.203	1.68	correct	observe	Run3	observe/STIM_013.jpg
2837.717	1.295	correct	observe	Run3	observe/STIM_013.jpg
2841.302	1.098	correct	observe	Run3	observe/STIM_014.jpg
2844.812	1.141	correct	observe	Run3	observe/STIM_014.jpg
2849.368	1.5	correct	observe	Run3	observe/STIM_014.jpg
2854.594	1.252	correct	observe	Run3	observe/STIM_014.jpg
2858.11	1.173	correct	observe	Run3	observe/STIM_015.jpg
2861.883	1.694	correct	observe	Run3	observe/STIM_015.jpg
2865.793	1.384	correct	observe	Run3	observe/STIM_015.jpg
2869.466	1.647	correct	observe	Run3	observe/STIM_015.jpg
2874.407	1.168	correct	observe	Run3	observe/STIM_016.jpg
2879.48	1.533	correct	observe	Run3	observe/STIM_016.jpg
2883.837	1.073	correct	observe	Run3	observe/STIM_016.jpg
2887.547	1.32	correct	observe	Run3	observe/STIM_016.jpg
2892.862	0.915	correct	observe	Run3	observe/STIM_017.jpg
2896.754	1.109	correct	observe	Run3	observe/STIM_017.jpg
2900.236	1.425	correct	observe	Run3	observe/STIM_017.jpg
2903.744	1.17	correct	observe	Run3	observe/STIM_017.jpg
2907.131	0.933	correct	observe	Run3	observe/STIM_018.jpg
2911.552	1.613	correct	observe	Run3	observe/STIM_018.jpg
2917.041	1.033	correct	observe	Run3	observe/STIM_018.jpg
2920.291	1.234	correct	observe	Run3	observe/STIM_018.jpg
2924.068	1.408	correct	observe	Run3	observe/STIM_019.jpg
2929.475	1.387	correct	observe	Run3	observe/STIM_019.jpg
2934.356	1.41	correct	observe	Run3	observe/STIM_019.jpg
2938.792	1.297	correct	observe	Run3	observe/STIM_019.jpg
