onset	duration	accuracy_binary	trial_type	learning_stage	stimulus
0.0	1.003	1	study	Phase1	study/STIM_000.jpg
3.608	1.436	1	study	Phase1	study/STIM_000.jpg
9.106	1.067	0	study	Phase1	study/STIM_000.jpg
13.997	1.359	1	study	Phase1	study/STIM_001.jpg
18.023	1.101	1	study	Phase1	study/STIM_001.jpg
23.05	0.775	1	study	Phase1	study/STIM_001.jpg
27.314	1.026	1	study	Phase1	study/STIM_002.jpg
31.807	0.654	1	study	Phase1	study/STIM_002.jpg
35.906	1.024	1	study	Phase1	study/STIM_002.jpg
39.657	1.069	1	study	Phase1	study/STIM_003.jpg
43.865	0.997	1	study	Phase1	study/STIM_003.jpg
47.076	1.232	1	study	Phase1	study/STIM_003.jpg
51.617	1.268	1	study	Phase1	study/STIM_004.jpg
56.155	1.172	1	study	Phase1	study/STIM_004.jpg
61.197	0.595	1	study	Phase1	study/STIM_004.jpg
65.067	1.472	1	study	Phase1	study/STIM_005.jpg
70.175	1.145	1	study	Phase1	study/STIM_005.jpg
73.416	0.799	1	study	Phase1	study/STIM_005.jpg
77.527	0.98	1	study	Phase1	study/STIM_006.jpg
81.897	1.287	1	study	Phase1	study/STIM_006.jpg
85.917	1.256	1	study	Phase1	study/STIM_006.jpg
91.326	1.346	1	study	Phase1	study/STIM_007.jpg
95.295	1.056	0	study	Phase1	study/STIM_007.jpg
100.011	1.227	0	study	Phase1	study/STIM_007.jpg
104.875	1.102	0	study	Phase1	study/STIM_008.jpg
109.88	1.133	1	study	Phase1	study/STIM_008.jpg
114.954	1.449	1	study	Phase1	study/STIM_008.jpg
119.876	1.475	1	study	Phase1	study/STIM_009.jpg
123.921	1.037	1	study	Phase1	study/STIM_009.jpg
128.01	1.133	0	study	Phase1	study/STIM_009.jpg
131.66	0.742	1	study	Phase1	study/STIM_010.jpg
135.202	0.686	1	study	Phase1	study/STIM_010.jpg
139.009	1.209	1	study	Phase1	study/STIM_010.jpg
143.468	0.922	1	study	Phase1	study/STIM_011.jpg
146.77	1.434	1	study	Phase1	study/STIM_011.jpg
151.085	1.021	1	study	Phase1	study/STIM_011.jpg
154.251	0.707	1	study	Phase1	study/STIM_012.jpg
158.964	0.686	1	study	Phase1	study/STIM_012.jpg
163.358	1.161	1	study	Phase1	study/STIM_012.jpg
168.497	1.132	1	study	Phase1	study/STIM_013.jpg
172.622	1.236	1	study	Phase1	study/STIM_013.jpg
177.338	1.256	0	study	Phase1	study/STIM_013.jpg
181.881	1.318	1	study	Phase1	study/STIM_014.jpg
187.286	0.775	1	study	Phase1	study/STIM_014.jpg
191.179	0.909	1	study	Phase1	study/STIM_014.jpg
196.156	0.62	1	study	Phase1	study/STIM_015.jpg
199.899	1.13	1	study	Phase1	study/STIM_015.jpg
204.11	1.428	1	study	Phase1	study/STIM_015.jpg
208.146	1.334	1	study	Phase1	study/STIM_016.jpg
212.338	1.054	1	study	Phase1	study/STIM_016.jpg
216.348	1.151	1	study	Phase1	study/STIM_016.jpg
220.181	1.44	1	study	Phase1	study/STIM_017.jpg
224.271	1.327	1	study	Phase1	study/STIM_017.jpg
229.689	0.855	1	study	Phase1	study/STIM_017.jpg
233.779	1.105	1	study	Phase1	study/STIM_018.jpg
237.35	1.078	1	study	Phase1	study/STIM_018.jpg
241.775	0.663	1	study	Phase1	study/STIM_018.jpg
244.55	1.582	0	study	Phase1	study/STIM_019.jpg
249.927	1.026	1	study	Phase1	study/STIM_019.jpg
253.374	1.147	1	study	Phase1	study/STIM_019.jpg
258.332	0.764	1	study	Phase1	study/STIM_020.jpg
261.594	0.774	1	study	Phase1	study/STIM_020.jpg
264.44	1.239	1	study	Phase1	study/STIM_020.jpg
269.292	1.131	1	study	Phase1	study/STIM_021.jpg
273.781	0.982	1	study	Phase1	study/STIM_021.jpg
277.753	1.311	1	study	Phase1	study/STIM_021.jpg
282.003	1.484	1	study	Phase1	study/STIM_022.jpg
286.063	1.388	1	study	Phase1	study/STIM_022.jpg
290.511	0.848	1	study	Phase1	study/STIM_022.jpg
294.543	0.935	0	study	Phase1	study/STIM_023.jpg
298.315	1.126	1	study	Phase1	study/STIM_023.jpg
301.998	1.234	1	study	Phase1	study/STIM_023.jpg
306.174	0.922	1	study	Phase1	study/STIM_024.jpg
310.974	0.738	1	study	Phase1	study/STIM_024.jpg
313.88	1.23	1	study	Phase1	study/STIM_024.jpg
317.387	1.01	0	study	Phase1	study/STIM_025.jpg
321.823	1.266	0	study	Phase1	study/STIM_025.jpg
325.283	0.856	1	study	Phase1	study/STIM_025.jpg
328.796	1.531	1	study	Phase1	study/STIM_026.jpg
332.537	0.746	1	study	Phase1	study/STIM_026.jpg
336.528	1.373	0	study	Phase1	study/STIM_026.jpg
341.753	1.316	1	study	Phase1	study/STIM_027.jpg
346.412	1.307	1	study	Phase1	study/STIM_027.jpg
351.757	1.124	1	study	Phase1	study/STIM_027.jpg
356.066	1.505	0	study	Phase1	study/STIM_028.jpg
360.8	0.759	1	study	Phase1	study/STIM_028.jpg
364.317	0.674	1	study	Phase1	study/STIM_028.jpg
367.443	1.104	1	study	Phase1	study/STIM_029.jpg
371.474	1.301	1	study	Phase1	study/STIM_029.jpg
375.239	0.871	1	study	Phase1	study/STIM_029.jpg
379.208	0.63	0	test	Phase1	test/STIM_000.jpg
382.119	1.098	1	test	Phase1	test/STIM_000.jpg
387.321	0.496	1	test	Phase1	test/STIM_000.jpg
391.871	1.154	1	test	Phase1	test/STIM_001.jpg
396.358	0.641	1	test	Phase1	test/STIM_001.jpg
399.377	0.906	0	test	Phase1	test/STIM_001.jpg
403.206	0.891	1	test	Phase1	test/STIM_002.jpg
407.237	0.946	1	test	Phase1	test/STIM_002.jpg
411.79	0.759	1	test	Phase1	test/STIM_002.jpg
416.375	0.72	1	test	Phase1	test/STIM_003.jpg
420.661	0.753	1	test	Phase1	test/STIM_003.jpg
425.53	0.795	1	test	Phase1	test/STIM_003.jpg
428.642	1.183	0	test	Phase1	test/STIM_004.jpg
432.056	0.956	1	test	Phase1	test/STIM_004.jpg
435.689	0.533	1	test	Phase1	test/STIM_004.jpg
438.714	1.016	1	test	Phase1	test/STIM_005.jpg
443.772	0.626	1	test	Phase1	test/STIM_005.jpg
447.232	1.208	1	test	Phase1	test/STIM_005.jpg
451.739	1.104	1	test	Phase1	test/STIM_006.jpg
456.916	0.69	1	test	Phase1	test/STIM_006.jpg
460.409	0.768	0	test	Phase1	test/STIM_006.jpg
464.287	1.091	1	test	Phase1	test/STIM_007.jpg
468.514	1.178	1	test	Phase1	test/STIM_007.jpg
472.327	0.62	1	test	Phase1	test/STIM_007.jpg
475.032	0.778	1	test	Phase1	test/STIM_008.jpg
478.371	0.694	1	test	Phase1	test/STIM_008.jpg
481.498	0.713	1	test	Phase1	test/STIM_008.jpg
485.746	0.756	0	test	Phase1	test/STIM_009.jpg
489.36	0.931	1	test	Phase1	test/STIM_009.jpg
493.3	0.728	1	test	Phase1	test/STIM_009.jpg
498.042	1.066	1	test	Phase1	test/STIM_010.jpg
503.123	0.904	1	test	Phase1	test/STIM_010.jpg
506.823	0.972	1	test	Phase1	test/STIM_010.jpg
510.989	0.526	1	test	Phase1	test/STIM_011.jpg
514.337	0.621	1	test	Phase1	test/STIM_011.jpg
518.518	0.779	1	test	Phase1	test/STIM_011.jpg
522.755	0.668	0	test	Phase1	test/STIM_012.jpg
526.19	0.86	1	test	Phase1	test/STIM_012.jpg
529.513	0.653	1	test	Phase1	test/STIM_012.jpg
532.446	1.031	1	test	Phase1	test/STIM_013.jpg
536.783	0.913	1	test	Phase1	test/STIM_013.jpg
541.159	0.999	1	test	Phase1	test/STIM_013.jpg
546.001	0.746	1	test	Phase1	test/STIM_014.jpg
549.757	0.922	0	test	Phase1	test/STIM_014.jpg
554.407	0.758	1	test	Phase1	test/STIM_014.jpg
558.572	1.202	1	test	Phase1	test/STIM_015.jpg
561.943	0.746	1	test	Phase1	test/STIM_015.jpg
565.726	0.497	1	test	Phase1	test/STIM_015.jpg
570.283	0.964	1	test	Phase1	test/STIM_016.jpg
574.899	0.74	1	test	Phase1	test/STIM_016.jpg
578.482	1.123	1	test	Phase1	test/STIM_016.jpg
582.304	0.773	1	test	Phase1	test/STIM_017.jpg
585.683	0.687	1	test	Phase1	test/STIM_017.jpg
590.451	0.91	1	test	Phase1	test/STIM_017.jpg
595.002	0.612	1	test	Phase1	test/STIM_018.jpg
599.314	1.016	1	test	Phase1	test/STIM_018.jpg
603.464	1.087	1	test	Phase1	test/STIM_018.jpg
608.226	0.692	1	test	Phase1	test/STIM_019.jpg
612.436	0.841	1	test	Phase1	test/STIM_019.jpg
616.612	1.103	1	test	Phase1	test/STIM_019.jpg
621.461	0.79	1	test	Phase1	test/STIM_020.jpg
624.715	1.01	1	test	Phase1	test/STIM_020.jpg
629.006	0.947	1	test	Phase1	test/STIM_020.jpg
632.364	1.142	0	test	Phase1	test/STIM_021.jpg
637.046	0.878	1	test	Phase1	test/STIM_021.jpg
641.068	0.976	1	test	Phase1	test/STIM_021.jpg
644.511	0.779	1	test	Phase1	test/STIM_022.jpg
649.023	1.026	1	test	Phase1	test/STIM_022.jpg
652.512	0.448	1	test	Phase1	test/STIM_022.jpg
656.418	0.792	1	test	Phase1	test/STIM_023.jpg
660.223	0.682	1	test	Phase1	test/STIM_023.jpg
664.541	1.141	1	test	Phase1	test/STIM_023.jpg
667.857	0.688	1	test	Phase1	test/STIM_024.jpg
671.685	1.025	0	test	Phase1	test/STIM_024.jpg
675.814	0.873	1	test	Phase1	test/STIM_024.jpg
680.669	0.882	1	test	Phase1	test/STIM_025.jpg
684.091	0.655	1	test	Phase1	test/STIM_025.jpg
688.247	0.494	1	test	Phase1	test/STIM_025.jpg
691.923	1.107	1	test	Phase1	test/STIM_026.jpg
696.058	0.878	1	test	Phase1	test/STIM_026.jpg
700.696	1.048	1	test	Phase1	test/STIM_026.jpg
705.698	0.82	1	test	Phase1	test/STIM_027.jpg
709.802	0.831	1	test	Phase1	test/STIM_027.jpg
713.199	0.821	1	test	Phase1	test/STIM_027.jpg
717.689	0.901	1	test	Phase1	test/STIM_028.jpg
720.671	0.664	1	test	Phase1	test/STIM_028.jpg
724.594	1.182	1	test	Phase1	test/STIM_028.jpg
729.424	0.727	1	test	Phase1	test/STIM_029.jpg
732.645	0.732	0	test	Phase1	test/STIM_029.jpg
735.982	0.658	1	test	Phase1	test/STIM_029.jpg
739.913	1.206	1	study	Phase2	study/STIM_000.jpg
743.702	0.81	1	study	Phase2	study/STIM_000.jpg
747.795	0.629	1	study	Phase2	study/STIM_000.jpg
751.906	1.318	1	study	Phase2	study/STIM_001.jpg
755.78	1.157	1	study	Phase2	study/STIM_001.jpg
760.04	0.75	1	study	Phase2	study/STIM_001.jpg
762.991	0.792	1	study	Phase2	study/STIM_002.jpg
766.735	1.309	1	study	Phase2	study/STIM_002.jpg
770.356	1.063	1	study	Phase2	study/STIM_002.jpg
773.607	1.28	1	study	Phase2	study/STIM_003.jpg
778.288	1.083	1	study	Phase2	study/STIM_003.jpg
783.105	0.577	1	study	Phase2	study/STIM_003.jpg
786.945	0.924	1	study	Phase2	study/STIM_004.jpg
790.965	1.162	1	study	Phase2	study/STIM_004.jpg
794.271	1.208	1	study	Phase2	study/STIM_004.jpg
799.153	0.79	1	study	Phase2	study/STIM_005.jpg
802.536	0.619	1	study	Phase2	study/STIM_005.jpg
805.602	1.129	1	study	Phase2	study/STIM_005.jpg
809.593	1.045	1	study	Phase2	study/STIM_006.jpg
813.975	1.176	1	study	Phase2	study/STIM_006.jpg
818.283	1.26	1	study	Phase2	study/STIM_006.jpg
822.705	1.285	1	study	Phase2	study/STIM_007.jpg
827.074	1.081	1	study	Phase2	study/STIM_007.jpg
830.543	0.934	1	study	Phase2	study/STIM_007.jpg
834.478	1.157	1	study	Phase2	study/STIM_008.jpg
839.326	0.842	1	study	Phase2	study/STIM_008.jpg
842.412	0.788	1	study	Phase2	study/STIM_008.jpg
846.275	0.915	1	study	Phase2	study/STIM_009.jpg
850.344	1.265	1	study	Phase2	study/STIM_009.jpg
855.445	0.876	1	study	Phase2	study/STIM_009.jpg
860.021	0.875	1	study	Phase2	study/STIM_010.jpg
863.185	1.062	1	study	Phase2	study/STIM_010.jpg
867.581	0.675	1	study	Phase2	study/STIM_010.jpg
871.694	0.76	1	study	Phase2	study/STIM_011.jpg
875.522	0.751	0	study	Phase2	study/STIM_011.jpg
878.949	1.021	1	study	Phase2	study/STIM_011.jpg
883.841	0.97	1	study	Phase2	study/STIM_012.jpg
888.424	1.274	1	study	Phase2	study/STIM_012.jpg
892.184	0.671	1	study	Phase2	study/STIM_012.jpg
895.352	0.893	1	study	Phase2	study/STIM_013.jpg
898.871	0.817	0	study	Phase2	study/STIM_013.jpg
903.003	1.066	1	study	Phase2	study/STIM_013.jpg
907.809	0.74	1	study	Phase2	study/STIM_014.jpg
911.005	0.595	1	study	Phase2	study/STIM_014.jpg
913.751	0.955	1	study	Phase2	study/STIM_014.jpg
917.157	1.321	1	study	Phase2	study/STIM_015.jpg
921.79	1.096	1	study	Phase2	study/STIM_015.jpg
926.932	1.018	1	study	Phase2	study/STIM_015.jpg
931.089	0.996	1	study	Phase2	study/STIM_016.jpg
935.488	0.631	1	study	Phase2	study/STIM_016.jpg
939.334	0.761	0	study	Phase2	study/STIM_016.jpg
943.302	0.892	1	study	Phase2	study/STIM_017.jpg
947.21	0.639	1	study	Phase2	study/STIM_017.jpg
950.187	0.936	1	study	Phase2	study/STIM_017.jpg
953.673	1.13	1	study	Phase2	study/STIM_018.jpg
957.565	1.276	1	study	Phase2	study/STIM_018.jpg
961.334	1.182	1	study	Phase2	study/STIM_018.jpg
966.098	1.284	1	study	Phase2	study/STIM_019.jpg
971.195	0.844	1	study	Phase2	study/STIM_019.jpg
975.369	0.815	1	study	Phase2	study/STIM_019.jpg
979.803	1.33	1	study	Phase2	study/STIM_020.jpg
983.336	0.513	0	study	Phase2	study/STIM_020.jpg
987.092	0.845	1	study	Phase2	study/STIM_020.jpg
991.21	1.078	1	study	Phase2	study/STIM_021.jpg
995.355	0.727	1	study	Phase2	study/STIM_021.jpg
999.855	0.735	0	study	Phase2	study/STIM_021.jpg
1004.282	1.356	1	study	Phase2	study/STIM_022.jpg
1007.893	0.85	0	study	Phase2	study/STIM_022.jpg
1011.792	0.984	0	study	Phase2	study/STIM_022.jpg
1015.322	1.064	1	study	Phase2	study/STIM_023.jpg
1020.589	0.786	0	study	Phase2	study/STIM_023.jpg
1023.911	0.637	1	study	Phase2	study/STIM_023.jpg
1027.806	1.296	1	study	Phase2	study/STIM_024.jpg
1032.436	1.066	1	study	Phase2	study/STIM_024.jpg
1036.256	0.876	1	study	Phase2	study/STIM_024.jpg
1039.902	0.802	1	study	Phase2	study/STIM_025.jpg
1043.078	1.108	0	study	Phase2	study/STIM_025.jpg
1047.635	1.044	1	study	Phase2	study/STIM_025.jpg
1052.353	1.068	1	study	Phase2	study/STIM_026.jpg
1056.977	0.734	1	study	Phase2	study/STIM_026.jpg
1061.312	0.97	1	study	Phase2	study/STIM_026.jpg
1066.097	1.31	0	study	Phase2	study/STIM_027.jpg
1070.591	0.942	1	study	Phase2	study/STIM_027.jpg
1075.247	1.02	1	study	Phase2	study/STIM_027.jpg
1079.921	1.306	1	study	Phase2	study/STIM_028.jpg
1083.674	1.22	1	study	Phase2	study/STIM_028.jpg
1087.868	1.012	1	study	Phase2	study/STIM_028.jpg
1091.047	0.681	1	study	Phase2	study/STIM_029.jpg
1094.725	1.014	1	study	Phase2	study/STIM_029.jpg
1098.277	1.097	1	study	Phase2	study/STIM_029.jpg
1101.853	0.973	1	test	Phase2	test/STIM_000.jpg
1106.617	0.866	1	test	Phase2	test/STIM_000.jpg
1111.175	0.731	1	test	Phase2	test/STIM_000.jpg
1115.193	1.076	1	test	Phase2	test/STIM_001.jpg
1119.623	0.599	1	test	Phase2	test/STIM_001.jpg
1124.056	1.182	1	test	Phase2	test/STIM_001.jpg
1128.993	0.644	1	test	Phase2	test/STIM_002.jpg
1132.1	0.604	1	test	Phase2	test/STIM_002.jpg
1136.398	1.048	1	test	Phase2	test/STIM_002.jpg
1140.331	0.595	0	test	Phase2	test/STIM_003.jpg
1143.86	0.685	1	test	Phase2	test/STIM_003.jpg
1147.935	0.59	1	test	Phase2	test/STIM_003.jpg
1151.738	1.054	1	test	Phase2	test/STIM_004.jpg
1156.4	1.18	1	test	Phase2	test/STIM_004.jpg
1160.444	0.863	1	test	Phase2	test/STIM_004.jpg
1164.852	0.513	1	test	Phase2	test/STIM_005.jpg
1168.57	0.737	1	test	Phase2	test/STIM_005.jpg
1171.803	0.573	1	test	Phase2	test/STIM_005.jpg
1176.325	0.677	1	test	Phase2	test/STIM_006.jpg
1180.809	0.804	0	test	Phase2	test/STIM_006.jpg
1183.8	0.553	1	test	Phase2	test/STIM_006.jpg
1186.731	0.858	1	test	Phase2	test/STIM_007.jpg
1189.91	0.892	1	test	Phase2	test/STIM_007.jpg
1194.527	0.795	0	test	Phase2	test/STIM_007.jpg
1198.681	0.577	1	test	Phase2	test/STIM_008.jpg
1203.099	0.58	1	test	Phase2	test/STIM_008.jpg
1206.108	0.706	1	test	Phase2	test/STIM_008.jpg
1210.153	0.973	1	test	Phase2	test/STIM_009.jpg
1214.786	1.064	0	test	Phase2	test/STIM_009.jpg
1218.043	0.521	0	test	Phase2	test/STIM_009.jpg
1220.862	0.76	1	test	Phase2	test/STIM_010.jpg
1224.532	0.996	0	test	Phase2	test/STIM_010.jpg
1229.252	0.717	1	test	Phase2	test/STIM_010.jpg
1232.473	0.747	1	test	Phase2	test/STIM_011.jpg
1236.661	1.114	1	test	Phase2	test/STIM_011.jpg
1240.095	1.049	1	test	Phase2	test/STIM_011.jpg
1245.107	0.693	1	test	Phase2	test/STIM_012.jpg
1249.059	0.636	1	test	Phase2	test/STIM_012.jpg
1252.67	1.052	1	test	Phase2	test/STIM_012.jpg
1256.697	0.834	1	test	Phase2	test/STIM_013.jpg
1260.655	0.906	1	test	Phase2	test/STIM_013.jpg
1264.2	0.827	1	test	Phase2	test/STIM_013.jpg
1267.767	0.727	1	test	Phase2	test/STIM_014.jpg
1272.487	1.104	0	test	Phase2	test/STIM_014.jpg
1276.551	0.733	1	test	Phase2	test/STIM_014.jpg
1280.876	0.682	0	test	Phase2	test/STIM_015.jpg
1285.449	1.006	0	test	Phase2	test/STIM_015.jpg
1288.66	0.578	1	test	Phase2	test/STIM_015.jpg
1291.559	0.866	1	test	Phase2	test/STIM_016.jpg
1295.522	0.822	1	test	Phase2	test/STIM_016.jpg
1299.438	0.767	1	test	Phase2	test/STIM_016.jpg
1302.303	1.227	1	test	Phase2	test/STIM_017.jpg
1306.713	0.706	1	test	Phase2	test/STIM_017.jpg
1310.896	0.598	1	test	Phase2	test/STIM_017.jpg
1315.477	0.638	1	test	Phase2	test/STIM_018.jpg
1319.82	0.763	1	test	Phase2	test/STIM_018.jpg
1323.021	0.889	0	test	Phase2	test/STIM_018.jpg
1326.165	0.675	1	test	Phase2	test/STIM_019.jpg
1330.599	1.108	1	test	Phase2	test/STIM_019.jpg
1334.375	1.1	1	test	Phase2	test/STIM_019.jpg
1337.675	0.732	1	test	Phase2	test/STIM_020.jpg
1341.154	1.17	1	test	Phase2	test/STIM_020.jpg
1346.125	1.01	1	test	Phase2	test/STIM_020.jpg
1349.496	0.87	1	test	Phase2	test/STIM_021.jpg
1353.034	1.041	1	test	Phase2	test/STIM_021.jpg
1357.937	0.952	1	test	Phase2	test/STIM_021.jpg
1361.68	0.869	0	test	Phase2	test/STIM_022.jpg
1364.909	0.699	1	test	Phase2	test/STIM_022.jpg
1369.244	1.238	1	test	Phase2	test/STIM_022.jpg
1372.535	1.218	1	test	Phase2	test/STIM_023.jpg
1377.326	1.056	1	test	Phase2	test/STIM_023.jpg
1382.09	0.76	1	test	Phase2	test/STIM_023.jpg
1385.502	1.01	1	test	Phase2	test/STIM_024.jpg
1388.636	0.891	1	test	Phase2	test/STIM_024.jpg
1393.29	0.788	1	test	Phase2	test/STIM_024.jpg
1396.523	0.684	1	test	Phase2	test/STIM_025.jpg
1401.035	0.723	1	test	Phase2	test/STIM_025.jpg
1405.845	0.978	0	test	Phase2	test/STIM_025.jpg
1409.009	1.098	1	test	Phase2	test/STIM_026.jpg
1412.456	0.678	0	test	Phase2	test/STIM_026.jpg
1415.364	1.012	1	test	Phase2	test/STIM_026.jpg
1420.111	1.092	1	test	Phase2	test/STIM_027.jpg
1425.085	0.603	1	test	Phase2	test/STIM_027.jpg
1429.654	1.034	1	test	Phase2	test/STIM_027.jpg
1433.93	1.247	1	test	Phase2	test/STIM_028.jpg
1438.891	0.752	1	test	Phase2	test/STIM_028.jpg
1441.645	1.061	1	test	Phase2	test/STIM_028.jpg
1445.326	0.622	1	test	Phase2	test/STIM_029.jpg
1449.84	1.052	1	test	Phase2	test/STIM_029.jpg
1453.79	0.961	1	test	Phase2	test/STIM_029.jpg
1458.577	1.135	1	study	Phase3	study/STIM_000.jpg
1463.355	0.743	1	study	Phase3	study/STIM_000.jpg
1467.758	0.61	1	study	Phase3	study/STIM_000.jpg
1472.262	1.047	1	study	Phase3	study/STIM_001.jpg
1475.783	0.934	1	study	Phase3	study/STIM_001.jpg
1479.539	0.652	1	study	Phase3	study/STIM_001.jpg
1484.02	1.055	1	study	Phase3	study/STIM_002.jpg
1487.519	0.788	1	study	Phase3	study/STIM_002.jpg
1491.772	1.108	1	study	Phase3	study/STIM_002.jpg
1495.939	0.744	1	study	Phase3	study/STIM_003.jpg
1499.519	0.785	1	study	Phase3	study/STIM_003.jpg
1503.839	0.839	1	study	Phase3	study/STIM_003.jpg
1508.106	1.027	1	study	Phase3	study/STIM_004.jpg
1511.403	1.041	1	study	Phase3	study/STIM_004.jpg
1516.381	1.024	1	study	Phase3	study/STIM_004.jpg
1521.214	0.62	1	study	Phase3	study/STIM_005.jpg
1525.079	0.625	1	study	Phase3	study/STIM_005.jpg
1529.343	1.125	1	study	Phase3	study/STIM_005.jpg
1532.861	1.093	1	study	Phase3	study/STIM_006.jpg
1538.039	0.875	1	study	Phase3	study/STIM_006.jpg
1541.052	0.963	1	study	Phase3	study/STIM_006.jpg
1545.75	0.789	1	study	Phase3	study/STIM_007.jpg
1549.527	0.919	1	study	Phase3	study/STIM_007.jpg
1552.94	1.038	1	study	Phase3	study/STIM_007.jpg
1557.256	0.835	1	study	Phase3	study/STIM_008.jpg
1560.535	0.959	1	study	Phase3	study/STIM_008.jpg
1565.397	1.108	1	study	Phase3	study/STIM_008.jpg
1569.143	0.468	1	study	Phase3	study/STIM_009.jpg
1573.115	0.981	1	study	Phase3	study/STIM_009.jpg
1577.342	1.116	1	study	Phase3	study/STIM_009.jpg
1581.195	0.72	1	study	Phase3	study/STIM_010.jpg
1584.252	1.04	1	study	Phase3	study/STIM_010.jpg
1587.794	0.815	1	study	Phase3	study/STIM_010.jpg
1591.428	1.088	1	study	Phase3	study/STIM_011.jpg
1595.154	0.829	1	study	Phase3	study/STIM_011.jpg
1599.142	0.697	1	study	Phase3	study/STIM_011.jpg
1603.458	1.051	1	study	Phase3	study/STIM_012.jpg
1606.976	0.924	1	study	Phase3	study/STIM_012.jpg
1610.203	0.795	1	study	Phase3	study/STIM_012.jpg
1613.279	0.665	1	study	Phase3	study/STIM_013.jpg
1617.265	1.039	1	study	Phase3	study/STIM_013.jpg
1620.83	0.858	1	study	Phase3	study/STIM_013.jpg
1625.413	0.716	1	study	Phase3	study/STIM_014.jpg
1629.689	0.462	1	study	Phase3	study/STIM_014.jpg
1634.086	1.016	1	study	Phase3	study/STIM_014.jpg
1638.34	0.582	1	study	Phase3	study/STIM_015.jpg
1641.109	0.919	1	study	Phase3	study/STIM_015.jpg
1644.987	0.704	1	study	Phase3	study/STIM_015.jpg
1648.954	0.593	1	study	Phase3	study/STIM_016.jpg
1651.823	0.863	0	study	Phase3	study/STIM_016.jpg
1656.157	1.1	1	study	Phase3	study/STIM_016.jpg
1660.051	0.587	1	study	Phase3	study/STIM_017.jpg
1663.648	0.782	1	study	Phase3	study/STIM_017.jpg
1666.788	1.013	1	study	Phase3	study/STIM_017.jpg
1670.225	0.708	1	study	Phase3	study/STIM_018.jpg
1674.19	0.998	1	study	Phase3	study/STIM_018.jpg
1679.192	0.955	1	study	Phase3	study/STIM_018.jpg
1682.64	0.928	1	study	Phase3	study/STIM_019.jpg
1687.345	0.979	1	study	Phase3	study/STIM_019.jpg
1691.285	0.566	1	study	Phase3	study/STIM_019.jpg
1694.904	0.979	1	study	Phase3	study/STIM_020.jpg
1699.039	1.046	1	study	Phase3	study/STIM_020.jpg
1702.903	0.899	1	study	Phase3	study/STIM_020.jpg
1707.258	0.795	1	study	Phase3	study/STIM_021.jpg
1711.112	0.821	1	study	Phase3	study/STIM_021.jpg
1714.629	0.56	1	study	Phase3	study/STIM_021.jpg
1718.7	0.763	1	study	Phase3	study/STIM_022.jpg
1721.966	0.557	1	study	Phase3	study/STIM_022.jpg
1726.318	0.92	1	study	Phase3	study/STIM_022.jpg
1731.132	1.01	0	study	Phase3	study/STIM_023.jpg
1735.972	0.87	1	study	Phase3	study/STIM_023.jpg
1740.237	1.196	1	study	Phase3	study/STIM_023.jpg
1743.547	0.776	1	study	Phase3	study/STIM_024.jpg
1746.481	0.904	1	study	Phase3	study/STIM_024.jpg
1750.105	0.829	1	study	Phase3	study/STIM_024.jpg
1754.451	1.004	1	study	Phase3	study/STIM_025.jpg
1759.587	0.771	1	study	Phase3	study/STIM_025.jpg
1763.943	0.744	1	study	Phase3	study/STIM_025.jpg
1767.127	0.449	1	study	Phase3	study/STIM_026.jpg
1770.701	0.925	1	study	Phase3	study/STIM_026.jpg
1774.465	0.815	1	study	Phase3	study/STIM_026.jpg
1778.659	0.846	1	study	Phase3	study/STIM_027.jpg
1782.835	0.612	1	study	Phase3	study/STIM_027.jpg
1787.496	0.432	1	study	Phase3	study/STIM_027.jpg
1791.505	0.857	1	study	Phase3	study/STIM_028.jpg
1795.014	0.564	1	study	Phase3	study/STIM_028.jpg
1797.886	0.54	1	study	Phase3	study/STIM_028.jpg
1802.024	1.076	1	study	Phase3	study/STIM_029.jpg
1806.041	1.053	1	study	Phase3	study/STIM_029.jpg
1811.142	0.804	1	study	Phase3	study/STIM_029.jpg
1814.142	0.92	1	test	Phase3	test/STIM_000.jpg
1818.751	1.035	1	test	Phase3	test/STIM_000.jpg
1822.224	0.666	1	test	Phase3	test/STIM_000.jpg
1826.346	1.151	1	test	Phase3	test/STIM_001.jpg
1829.612	0.832	1	test	Phase3	test/STIM_001.jpg
1834.493	0.936	0	test	Phase3	test/STIM_001.jpg
1838.961	0.637	1	test	Phase3	test/STIM_002.jpg
1843.418	0.764	1	test	Phase3	test/STIM_002.jpg
1846.459	0.935	1	test	Phase3	test/STIM_002.jpg
1850.38	0.619	1	test	Phase3	test/STIM_003.jpg
1854.591	0.616	1	test	Phase3	test/STIM_003.jpg
1857.989	0.641	1	test	Phase3	test/STIM_003.jpg
1861.115	1.039	1	test	Phase3	test/STIM_004.jpg
1864.294	0.722	1	test	Phase3	test/STIM_004.jpg
1867.528	1.009	1	test	Phase3	test/STIM_004.jpg
1871.034	0.885	0	test	Phase3	test/STIM_005.jpg
1876.032	0.941	1	test	Phase3	test/STIM_005.jpg
1879.509	1.081	1	test	Phase3	test/STIM_005.jpg
1883.032	0.86	1	test	Phase3	test/STIM_006.jpg
1887.875	0.843	1	test	Phase3	test/STIM_006.jpg
1891.797	0.74	1	test	Phase3	test/STIM_006.jpg
1896.491	0.779	0	test	Phase3	test/STIM_007.jpg
1900.323	0.662	1	test	Phase3	test/STIM_007.jpg
1903.849	1.168	0	test	Phase3	test/STIM_007.jpg
1908.456	1.052	1	test	Phase3	test/STIM_008.jpg
1912.758	1.137	1	test	Phase3	test/STIM_008.jpg
1917.125	0.57	1	test	Phase3	test/STIM_008.jpg
1920.44	1.079	1	test	Phase3	test/STIM_009.jpg
1925.133	0.82	1	test	Phase3	test/STIM_009.jpg
1929.941	0.92	1	test	Phase3	test/STIM_009.jpg
1933.961	0.645	1	test	Phase3	test/STIM_010.jpg
1938.168	0.82	1	test	Phase3	test/STIM_010.jpg
1941.723	0.542	0	test	Phase3	test/STIM_010.jpg
1945.087	1.02	1	test	Phase3	test/STIM_011.jpg
1949.126	1.04	0	test	Phase3	test/STIM_011.jpg
1953.998	0.65	1	test	Phase3	test/STIM_011.jpg
1958.26	0.827	1	test	Phase3	test/STIM_012.jpg
1961.55	0.687	1	test	Phase3	test/STIM_012.jpg
1966.044	1.211	1	test	Phase3	test/STIM_012.jpg
1971.195	1.008	1	test	Phase3	test/STIM_013.jpg
1974.772	0.802	1	test	Phase3	test/STIM_013.jpg
1978.411	0.597	1	test	Phase3	test/STIM_013.jpg
1982.364	1.066	1	test	Phase3	test/STIM_014.jpg
1986.945	0.549	1	test	Phase3	test/STIM_014.jpg
1991.443	1.1	1	test	Phase3	test/STIM_014.jpg
1996.71	0.527	1	test	Phase3	test/STIM_015.jpg
2001.225	0.56	1	test	Phase3	test/STIM_015.jpg
2005.598	0.956	1	test	Phase3	test/STIM_015.jpg
2009.952	0.599	0	test	Phase3	test/STIM_016.jpg
2013.475	0.674	1	test	Phase3	test/STIM_016.jpg
2017.596	0.577	1	test	Phase3	test/STIM_016.jpg
2021.975	0.677	0	test	Phase3	test/STIM_017.jpg
2025.095	1.072	1	test	Phase3	test/STIM_017.jpg
2030.128	1.191	0	test	Phase3	test/STIM_017.jpg
2033.421	1.022	1	test	Phase3	test/STIM_018.jpg
2036.99	1.205	1	test	Phase3	test/STIM_018.jpg
2041.842	0.947	1	test	Phase3	test/STIM_018.jpg
2045.545	0.901	1	test	Phase3	test/STIM_019.jpg
2048.927	0.791	1	test	Phase3	test/STIM_019.jpg
2053.318	0.632	1	test	Phase3	test/STIM_019.jpg
2056.071	1.011	1	test	Phase3	test/STIM_020.jpg
2059.412	0.923	1	test	Phase3	test/STIM_020.jpg
2064.303	0.698	1	test	Phase3	test/STIM_020.jpg
2068.821	0.563	1	test	Phase3	test/STIM_021.jpg
2073.065	0.608	1	test	Phase3	test/STIM_021.jpg
2077.235	1.058	1	test	Phase3	test/STIM_021.jpg
2082.137	0.606	1	test	Phase3	test/STIM_022.jpg
2085.707	0.664	1	test	Phase3	test/STIM_022.jpg
2089.146	0.7	1	test	Phase3	test/STIM_022.jpg
2092.957	0.988	1	test	Phase3	test/STIM_023.jpg
2096.794	1.035	1	test	Phase3	test/STIM_023.jpg
2100.238	0.803	1	test	Phase3	test/STIM_023.jpg
2104.309	0.905	1	test	Phase3	test/STIM_024.jpg
2108.955	1.029	1	test	Phase3	test/STIM_024.jpg
2113.538	1.028	1	test	Phase3	test/STIM_024.jpg
2117.58	0.931	1	test	Phase3	test/STIM_025.jpg
2121.232	1.106	1	test	Phase3	test/STIM_025.jpg
2125.918	0.88	1	test	Phase3	test/STIM_025.jpg
2129.825	0.555	1	test	Phase3	test/STIM_026.jpg
2133.18	0.809	1	test	Phase3	test/STIM_026.jpg
2137.802	0.812	1	test	Phase3	test/STIM_026.jpg
2142.0	0.982	1	test	Phase3	test/STIM_027.jpg
2146.356	0.853	1	test	Phase3	test/STIM_027.jpg
2150.462	0.917	1	test	Phase3	test/STIM_027.jpg
2154.973	1.118	1	test	Phase3	test/STIM_028.jpg
2158.52	0.653	1	test	Phase3	test/STIM_028.jpg
2162.606	0.662	1	test	Phase3	test/STIM_028.jpg
2166.817	0.668	1	test	Phase3	test/STIM_029.jpg
2171.288	0.955	1	test	Phase3	test/STIM_029.jpg
2174.601	0.726	1	test	Phase3	test/STIM_029.jpg
