onset	duration	response_time_ms	trial_type	learning_stage	stimulus	response_port
0.0	1.62	1619.9	study	Phase1	study/STIM_000.jpg	100
5.37	0.915	915.3	study	Phase1	study/STIM_000.jpg	99
8.493	0.847	847.1	study	Phase1	study/STIM_000.jpg	100
12.485	0.986	985.7	study	Phase1	study/STIM_001.jpg	100
16.104	1.197	1196.9	study	Phase1	study/STIM_001.jpg	99
20.95	1.145	1145.0	study	Phase1	study/STIM_001.jpg	99
24.154	1.754	1753.9	study	Phase1	study/STIM_002.jpg	100
28.591	1.312	1311.5	study	Phase1	study/STIM_002.jpg	100
32.591	1.264	1263.9	study	Phase1	study/STIM_002.jpg	99
37.691	1.292	1291.7	study	Phase1	study/STIM_003.jpg	100
42.201	1.39	1389.9	study	Phase1	study/STIM_003.jpg	99
47.436	1.154	1154.3	study	Phase1	study/STIM_003.jpg	100
52.168	1.878	1878.4	study	Phase1	study/STIM_004.jpg	100
56.187	1.277	1277.3	study	Phase1	study/STIM_004.jpg	99
59.586	0.865	865.0	study	Phase1	study/STIM_004.jpg	100
63.207	1.914	1913.6	study	Phase1	study/STIM_005.jpg	100
67.917	1.676	1675.6	study	Phase1	study/STIM_005.jpg	100
72.428	0.937	937.3	study	Phase1	study/STIM_005.jpg	99
76.613	1.367	1366.7	study	Phase1	study/STIM_006.jpg	100
81.509	1.026	1026.1	study	Phase1	study/STIM_006.jpg	100
84.662	0.873	873.3	study	Phase1	study/STIM_006.jpg	100
88.296	1.676	1675.7	study	Phase1	study/STIM_007.jpg	99
93.691	1.301	1301.1	study	Phase1	study/STIM_007.jpg	100
98.162	0.885	885.0	study	Phase1	study/STIM_007.jpg	100
103.009	1.9	1900.1	study	Phase1	study/STIM_008.jpg	99
107.916	1.578	1578.5	study	Phase1	study/STIM_008.jpg	99
113.199	0.928	927.6	study	Phase1	study/STIM_008.jpg	100
117.861	1.07	1069.9	study	Phase1	study/STIM_009.jpg	99
122.714	1.843	1843.1	study	Phase1	study/STIM_009.jpg	100
128.439	1.724	1724.0	study	Phase1	study/STIM_009.jpg	100
132.99	1.199	1198.7	study	Phase1	study/STIM_010.jpg	99
136.567	1.422	1421.7	study	Phase1	study/STIM_010.jpg	100
141.601	1.153	1153.1	study	Phase1	study/STIM_010.jpg	100
146.561	1.347	1347.4	study	Phase1	study/STIM_011.jpg	100
151.483	1.1	1099.7	study	Phase1	study/STIM_011.jpg	100
155.946	1.162	1161.7	study	Phase1	study/STIM_011.jpg	99
160.968	1.332	1332.1	study	Phase1	study/STIM_012.jpg	100
164.513	1.198	1197.5	study	Phase1	study/STIM_012.jpg	100
167.962	1.178	1178.2	study	Phase1	study/STIM_012.jpg	99
172.664	1.193	1193.3	study	Phase1	study/STIM_013.jpg	99
176.867	1.604	1604.3	study	Phase1	study/STIM_013.jpg	100
181.527	0.867	866.8	study	Phase1	study/STIM_013.jpg	100
184.776	1.223	1223.1	study	Phase1	study/STIM_014.jpg	100
189.539	1.116	1115.9	study	Phase1	study/STIM_014.jpg	100
193.722	1.592	1592.2	study	Phase1	study/STIM_014.jpg	99
199.303	1.208	1208.4	study	Phase1	study/STIM_015.jpg	100
203.776	1.402	1402.0	study	Phase1	study/STIM_015.jpg	99
207.404	1.387	1386.8	study	Phase1	study/STIM_015.jpg	100
211.625	1.264	1264.1	study	Phase1	study/STIM_016.jpg	99
216.189	0.962	961.5	study	Phase1	study/STIM_016.jpg	100
220.046	1.395	1394.9	study	Phase1	study/STIM_016.jpg	99
223.628	1.142	1142.4	study	Phase1	study/STIM_017.jpg	100
227.742	1.164	1163.8	study	Phase1	study/STIM_017.jpg	99
231.29	1.052	1051.6	study	Phase1	study/STIM_017.jpg	99
234.395	1.125	1125.2	study	Phase1	study/STIM_018.jpg	100
239.35	1.117	1116.7	study	Phase1	study/STIM_018.jpg	99
244.417	1.315	1314.6	study	Phase1	study/STIM_018.jpg	100
248.285	1.471	1470.8	study	Phase1	study/STIM_019.jpg	99
253.14	1.386	1385.5	study	Phase1	study/STIM_019.jpg	100
257.209	1.211	1210.8	study	Phase1	study/STIM_019.jpg	99
260.842	0.926	925.8	study	Phase1	study/STIM_020.jpg	100
263.782	1.769	1768.7	study	Phase1	study/STIM_020.jpg	100
268.526	1.494	1494.1	study	Phase1	study/STIM_020.jpg	99
273.548	1.747	1746.6	study	Phase1	study/STIM_021.jpg	100
278.289	1.832	1831.5	study	Phase1	study/STIM_021.jpg	100
284.089	1.446	1445.8	study	Phase1	study/STIM_021.jpg	99
288.361	1.684	1683.9	study	Phase1	study/STIM_022.jpg	99
293.665	1.74	1740.5	study	Phase1	study/STIM_022.jpg	100
298.09	1.53	1529.9	study	Phase1	study/STIM_022.jpg	100
302.29	1.727	1726.6	study	Phase1	study/STIM_023.jpg	99
306.654	1.844	1844.2	study	Phase1	study/STIM_023.jpg	100
311.819	1.666	1666.4	study	Phase1	study/STIM_023.jpg	99
316.31	1.115	1115.4	study	Phase1	study/STIM_024.jpg	100
319.743	1.302	1302.3	study	Phase1	study/STIM_024.jpg	100
324.724	1.01	1009.7	study	Phase1	study/STIM_024.jpg	100
329.121	1.582	1582.0	study	Phase1	study/STIM_025.jpg	99
333.339	1.633	1633.2	study	Phase1	study/STIM_025.jpg	99
337.632	1.752	1752.0	study	Phase1	study/STIM_025.jpg	100
341.388	1.64	1639.6	study	Phase1	study/STIM_026.jpg	99
345.948	1.127	1126.9	study	Phase1	study/STIM_026.jpg	99
349.988	1.192	1192.3	study	Phase1	study/STIM_026.jpg	99
353.721	1.541	1541.1	study	Phase1	study/STIM_027.jpg	100
359.22	1.47	1469.6	study	Phase1	study/STIM_027.jpg	100
364.371	0.981	981.1	study	Phase1	study/STIM_027.jpg	99
367.48	1.61	1610.1	study	Phase1	study/STIM_028.jpg	99
371.217	1.727	1727.0	study	Phase1	study/STIM_028.jpg	99
375.295	1.624	1624.2	study	Phase1	study/STIM_028.jpg	99
380.267	1.207	1207.4	study	Phase1	study/STIM_029.jpg	100
384.775	0.95	950.0	study	Phase1	study/STIM_029.jpg	99
389.574	1.639	1639.1	study	Phase1	study/STIM_029.jpg	99
393.819	1.203	1203.0	test	Phase1	test/STIM_000.jpg	100
398.825	0.866	865.6	test	Phase1	test/STIM_000.jpg	100
402.155	0.683	683.1	test	Phase1	test/STIM_000.jpg	100
406.37	0.827	827.2	test	Phase1	test/STIM_001.jpg	99
409.944	0.818	818.3	test	Phase1	test/STIM_001.jpg	99
414.604	1.236	1235.9	test	Phase1	test/STIM_001.jpg	100
418.49	1.373	1372.8	test	Phase1	test/STIM_002.jpg	100
423.071	0.938	937.7	test	Phase1	test/STIM_002.jpg	99
427.337	1.098	1097.6	test	Phase1	test/STIM_002.jpg	99
430.703	1.38	1379.7	test	Phase1	test/STIM_003.jpg	99
434.792	1.393	1392.6	test	Phase1	test/STIM_003.jpg	99
440.066	1.37	1369.9	test	Phase1	test/STIM_003.jpg	99
443.956	0.863	862.9	test	Phase1	test/STIM_004.jpg	100
447.615	0.942	941.6	test	Phase1	test/STIM_004.jpg	100
451.254	0.71	709.6	test	Phase1	test/STIM_004.jpg	99
454.555	1.348	1347.9	test	Phase1	test/STIM_005.jpg	100
458.474	1.198	1197.5	test	Phase1	test/STIM_005.jpg	100
462.684	1.245	1244.9	test	Phase1	test/STIM_005.jpg	99
466.253	0.716	716.0	test	Phase1	test/STIM_006.jpg	99
469.986	0.891	890.7	test	Phase1	test/STIM_006.jpg	99
474.568	0.866	865.8	test	Phase1	test/STIM_006.jpg	99
479.091	0.913	912.8	test	Phase1	test/STIM_007.jpg	100
483.705	0.736	736.4	test	Phase1	test/STIM_007.jpg	100
486.83	1.378	1377.6	test	Phase1	test/STIM_007.jpg	99
490.441	1.203	1203.4	test	Phase1	test/STIM_008.jpg	100
493.909	0.792	791.5	test	Phase1	test/STIM_008.jpg	100
497.146	0.953	952.9	test	Phase1	test/STIM_008.jpg	99
500.45	1.3	1299.5	test	Phase1	test/STIM_009.jpg	100
505.412	0.93	929.6	test	Phase1	test/STIM_009.jpg	100
509.756	0.691	690.6	test	Phase1	test/STIM_009.jpg	99
512.687	0.884	884.1	test	Phase1	test/STIM_010.jpg	100
516.841	1.142	1141.7	test	Phase1	test/STIM_010.jpg	100
521.319	0.763	763.4	test	Phase1	test/STIM_010.jpg	100
524.588	1.3	1299.9	test	Phase1	test/STIM_011.jpg	99
528.231	0.669	669.2	test	Phase1	test/STIM_011.jpg	99
532.428	0.781	780.8	test	Phase1	test/STIM_011.jpg	100
536.83	1.018	1017.8	test	Phase1	test/STIM_012.jpg	100
541.012	1.004	1003.6	test	Phase1	test/STIM_012.jpg	100
545.921	0.761	760.8	test	Phase1	test/STIM_012.jpg	100
550.141	0.666	665.8	test	Phase1	test/STIM_013.jpg	100
553.124	0.679	679.1	test	Phase1	test/STIM_013.jpg	100
557.009	1.228	1228.5	test	Phase1	test/STIM_013.jpg	100
561.122	1.031	1031.2	test	Phase1	test/STIM_014.jpg	100
564.321	1.326	1326.2	test	Phase1	test/STIM_014.jpg	100
567.893	0.866	865.7	test	Phase1	test/STIM_014.jpg	99
572.678	1.272	1272.4	test	Phase1	test/STIM_015.jpg	100
577.689	1.146	1145.6	test	Phase1	test/STIM_015.jpg	99
582.488	0.935	934.9	test	Phase1	test/STIM_015.jpg	99
585.837	0.812	811.6	test	Phase1	test/STIM_016.jpg	99
589.776	0.981	981.2	test	Phase1	test/STIM_016.jpg	100
594.713	1.352	1352.0	test	Phase1	test/STIM_016.jpg	99
599.16	1.136	1135.8	test	Phase1	test/STIM_017.jpg	99
604.043	0.775	774.8	test	Phase1	test/STIM_017.jpg	100
607.272	1.142	1141.7	test	Phase1	test/STIM_017.jpg	100
612.03	1.172	1171.9	test	Phase1	test/STIM_018.jpg	99
617.091	1.383	1382.6	test	Phase1	test/STIM_018.jpg	100
621.227	1.035	1034.6	test	Phase1	test/STIM_018.jpg	99
624.291	1.376	1376.1	test	Phase1	test/STIM_019.jpg	99
628.929	1.419	1418.7	test	Phase1	test/STIM_019.jpg	100
633.072	1.036	1035.7	test	Phase1	test/STIM_019.jpg	99
637.595	1.206	1205.8	test	Phase1	test/STIM_020.jpg	100
641.199	0.833	832.8	test	Phase1	test/STIM_020.jpg	100
644.224	1.284	1284.4	test	Phase1	test/STIM_020.jpg	99
649.06	1.381	1380.8	test	Phase1	test/STIM_021.jpg	99
653.348	0.729	729.2	test	Phase1	test/STIM_021.jpg	99
657.17	0.801	800.8	test	Phase1	test/STIM_021.jpg	100
660.596	1.426	1426.0	test	Phase1	test/STIM_022.jpg	100
664.1	1.027	1026.8	test	Phase1	test/STIM_022.jpg	100
667.867	0.948	947.7	test	Phase1	test/STIM_022.jpg	100
671.812	0.857	856.9	test	Phase1	test/STIM_023.jpg	100
675.555	0.774	773.9	test	Phase1	test/STIM_023.jpg	100
678.384	1.209	1209.2	test	Phase1	test/STIM_023.jpg	100
682.301	0.783	783.1	test	Phase1	test/STIM_024.jpg	100
686.049	1.433	1433.4	test	Phase1	test/STIM_024.jpg	99
690.794	1.283	1282.7	test	Phase1	test/STIM_024.jpg	99
695.337	1.337	1337.4	test	Phase1	test/STIM_025.jpg	100
700.437	0.824	823.9	test	Phase1	test/STIM_025.jpg	99
703.328	1.282	1281.9	test	Phase1	test/STIM_025.jpg	100
707.688	0.967	967.2	test	Phase1	test/STIM_026.jpg	99
711.058	0.992	992.0	test	Phase1	test/STIM_026.jpg	100
715.205	1.269	1268.8	test	Phase1	test/STIM_026.jpg	100
719.502	1.394	1394.0	test	Phase1	test/STIM_027.jpg	99
724.176	0.73	729.6	test	Phase1	test/STIM_027.jpg	100
728.356	1.266	1265.8	test	Phase1	test/STIM_027.jpg	99
731.867	0.696	695.9	test	Phase1	test/STIM_028.jpg	99
736.159	0.687	686.9	test	Phase1	test/STIM_028.jpg	99
740.427	1.409	1408.8	test	Phase1	test/STIM_028.jpg	99
744.142	0.91	909.7	test	Phase1	test/STIM_029.jpg	99
748.139	0.706	706.3	test	Phase1	test/STIM_029.jpg	100
752.35	0.913	913.2	test	Phase1	test/STIM_029.jpg	100
757.074	1.673	1672.9	study	Phase2	study/STIM_000.jpg	99
761.227	0.92	920.3	study	Phase2	study/STIM_000.jpg	99
764.468	0.81	809.6	study	Phase2	study/STIM_000.jpg	99
768.598	1.324	1324.0	study	Phase2	study/STIM_001.jpg	100
772.315	1.256	1256.3	study	Phase2	study/STIM_001.jpg	99
775.864	0.979	978.8	study	Phase2	study/STIM_001.jpg	99
780.299	1.394	1393.9	study	Phase2	study/STIM_002.jpg	99
785.002	0.892	892.3	study	Phase2	study/STIM_002.jpg	99
789.125	1.277	1277.4	study	Phase2	study/STIM_002.jpg	100
792.605	0.819	819.1	study	Phase2	study/STIM_003.jpg	99
796.564	0.716	715.5	study	Phase2	study/STIM_003.jpg	99
800.806	0.758	758.1	study	Phase2	study/STIM_003.jpg	100
805.264	1.394	1394.1	study	Phase2	study/STIM_004.jpg	99
810.143	1.489	1488.6	study	Phase2	study/STIM_004.jpg	100
815.0	0.739	739.0	study	Phase2	study/STIM_004.jpg	99
818.911	1.212	1211.5	study	Phase2	study/STIM_005.jpg	100
823.684	0.959	958.7	study	Phase2	study/STIM_005.jpg	100
828.154	0.886	885.8	study	Phase2	study/STIM_005.jpg	99
831.159	0.872	872.2	study	Phase2	study/STIM_006.jpg	100
835.025	0.854	854.5	study	Phase2	study/STIM_006.jpg	100
838.218	1.282	1281.7	study	Phase2	study/STIM_006.jpg	99
842.304	0.974	973.7	study	Phase2	study/STIM_007.jpg	99
846.301	1.573	1573.0	study	Phase2	study/STIM_007.jpg	99
851.751	1.14	1139.7	study	Phase2	study/STIM_007.jpg	99
856.681	0.788	788.4	study	Phase2	study/STIM_008.jpg	99
859.893	1.328	1327.8	study	Phase2	study/STIM_008.jpg	99
863.439	1.45	1450.0	study	Phase2	study/STIM_008.jpg	100
868.198	0.896	895.5	study	Phase2	study/STIM_009.jpg	100
871.782	1.527	1527.0	study	Phase2	study/STIM_009.jpg	100
876.696	1.189	1188.6	study	Phase2	study/STIM_009.jpg	100
880.956	1.134	1134.2	study	Phase2	study/STIM_010.jpg	100
885.818	0.829	829.1	study	Phase2	study/STIM_010.jpg	100
888.661	0.878	878.3	study	Phase2	study/STIM_010.jpg	100
891.714	1.004	1004.1	study	Phase2	study/STIM_011.jpg	100
896.102	0.768	767.8	study	Phase2	study/STIM_011.jpg	99
900.76	0.779	778.9	study	Phase2	study/STIM_011.jpg	99
904.639	1.621	1621.1	study	Phase2	study/STIM_012.jpg	100
909.647	0.963	962.8	study	Phase2	study/STIM_012.jpg	99
913.757	0.944	944.2	study	Phase2	study/STIM_012.jpg	99
917.513	1.627	1626.6	study	Phase2	study/STIM_013.jpg	100
921.203	0.714	714.5	study	Phase2	study/STIM_013.jpg	100
925.138	1.335	1335.3	study	Phase2	study/STIM_013.jpg	99
929.543	0.975	975.3	study	Phase2	study/STIM_014.jpg	100
933.032	0.948	947.5	study	Phase2	study/STIM_014.jpg	100
936.074	1.452	1451.5	study	Phase2	study/STIM_014.jpg	99
941.118	1.283	1282.8	study	Phase2	study/STIM_015.jpg	100
946.349	0.956	956.0	study	Phase2	study/STIM_015.jpg	99
950.764	1.193	1193.4	study	Phase2	study/STIM_015.jpg	99
954.651	1.041	1041.0	study	Phase2	study/STIM_016.jpg	99
957.984	0.741	740.7	study	Phase2	study/STIM_016.jpg	100
961.041	0.667	667.2	study	Phase2	study/STIM_016.jpg	99
964.795	1.377	1377.0	study	Phase2	study/STIM_017.jpg	99
968.685	0.759	758.8	study	Phase2	study/STIM_017.jpg	99
971.65	0.736	736.4	study	Phase2	study/STIM_017.jpg	100
975.05	1.582	1581.9	study	Phase2	study/STIM_018.jpg	100
980.368	1.354	1354.4	study	Phase2	study/STIM_018.jpg	99
983.85	0.715	715.1	study	Phase2	study/STIM_018.jpg	99
987.879	1.67	1669.5	study	Phase2	study/STIM_019.jpg	100
992.047	0.785	784.8	study	Phase2	study/STIM_019.jpg	100
995.231	1.181	1181.4	study	Phase2	study/STIM_019.jpg	99
999.958	1.403	1402.8	study	Phase2	study/STIM_020.jpg	100
1005.292	1.28	1279.7	study	Phase2	study/STIM_020.jpg	99
1008.742	1.442	1441.7	study	Phase2	study/STIM_020.jpg	99
1013.17	1.647	1647.1	study	Phase2	study/STIM_021.jpg	99
1016.888	0.968	967.9	study	Phase2	study/STIM_021.jpg	99
1021.192	0.892	891.9	study	Phase2	study/STIM_021.jpg	100
1025.87	0.796	796.3	study	Phase2	study/STIM_022.jpg	99
1029.147	0.726	726.5	study	Phase2	study/STIM_022.jpg	100
1033.503	0.693	692.7	study	Phase2	study/STIM_022.jpg	100
1037.464	0.833	833.3	study	Phase2	study/STIM_023.jpg	100
1040.301	1.026	1025.5	study	Phase2	study/STIM_023.jpg	99
1044.552	1.074	1074.5	study	Phase2	study/STIM_023.jpg	100
1049.498	1.495	1495.3	study	Phase2	study/STIM_024.jpg	99
1053.102	1.58	1579.5	study	Phase2	study/STIM_024.jpg	99
1057.235	0.995	995.4	study	Phase2	study/STIM_024.jpg	100
1062.139	1.269	1269.4	study	Phase2	study/STIM_025.jpg	99
1065.837	1.063	1063.4	study	Phase2	study/STIM_025.jpg	99
1069.377	1.365	1364.9	study	Phase2	study/STIM_025.jpg	99
1073.927	1.199	1199.2	study	Phase2	study/STIM_026.jpg	100
1078.384	0.999	998.8	study	Phase2	study/STIM_026.jpg	100
1082.021	0.737	736.8	study	Phase2	study/STIM_026.jpg	99
1086.478	1.602	1602.2	study	Phase2	study/STIM_027.jpg	99
1091.479	1.245	1244.6	study	Phase2	study/STIM_027.jpg	100
1094.93	0.994	993.7	study	Phase2	study/STIM_027.jpg	100
1097.937	1.528	1527.9	study	Phase2	study/STIM_028.jpg	99
1102.112	1.471	1470.6	study	Phase2	study/STIM_028.jpg	99
1106.718	0.918	918.3	study	Phase2	study/STIM_028.jpg	99
1109.748	1.432	1431.7	study	Phase2	study/STIM_029.jpg	100
1114.138	0.789	789.1	study	Phase2	study/STIM_029.jpg	99
1118.719	1.039	1038.8	study	Phase2	study/STIM_029.jpg	99
1123.648	1.007	1006.8	test	Phase2	test/STIM_000.jpg	99
1127.032	0.754	754.2	test	Phase2	test/STIM_000.jpg	99
1130.098	1.374	1374.1	test	Phase2	test/STIM_000.jpg	100
1134.356	1.225	1225.1	test	Phase2	test/STIM_001.jpg	100
1139.494	1.407	1407.4	test	Phase2	test/STIM_001.jpg	99
1144.406	0.96	959.7	test	Phase2	test/STIM_001.jpg	99
1147.574	1.182	1181.5	test	Phase2	test/STIM_002.jpg	100
1150.915	0.738	737.5	test	Phase2	test/STIM_002.jpg	100
1154.111	1.256	1256.1	test	Phase2	test/STIM_002.jpg	99
1158.049	1.274	1274.5	test	Phase2	test/STIM_003.jpg	99
1162.868	0.898	898.5	test	Phase2	test/STIM_003.jpg	100
1167.74	0.96	959.8	test	Phase2	test/STIM_003.jpg	100
1172.071	1.112	1112.2	test	Phase2	test/STIM_004.jpg	99
1176.806	1.306	1306.4	test	Phase2	test/STIM_004.jpg	99
1180.814	1.384	1384.1	test	Phase2	test/STIM_004.jpg	100
1184.997	0.812	811.6	test	Phase2	test/STIM_005.jpg	99
1187.813	1.171	1171.1	test	Phase2	test/STIM_005.jpg	100
1191.79	1.408	1408.3	test	Phase2	test/STIM_005.jpg	99
1195.684	0.954	954.0	test	Phase2	test/STIM_006.jpg	100
1199.729	0.874	874.5	test	Phase2	test/STIM_006.jpg	99
1203.202	1.405	1405.4	test	Phase2	test/STIM_006.jpg	99
1207.356	1.218	1217.7	test	Phase2	test/STIM_007.jpg	99
1211.86	1.176	1175.9	test	Phase2	test/STIM_007.jpg	99
1215.416	1.022	1021.8	test	Phase2	test/STIM_007.jpg	99
1219.902	1.336	1336.0	test	Phase2	test/STIM_008.jpg	100
1224.261	1.142	1142.1	test	Phase2	test/STIM_008.jpg	100
1228.885	0.938	938.0	test	Phase2	test/STIM_008.jpg	100
1232.557	1.044	1044.0	test	Phase2	test/STIM_009.jpg	99
1235.975	1.121	1120.9	test	Phase2	test/STIM_009.jpg	100
1240.082	0.831	830.9	test	Phase2	test/STIM_009.jpg	99
1244.424	1.202	1202.2	test	Phase2	test/STIM_010.jpg	100
1249.191	1.303	1302.6	test	Phase2	test/STIM_010.jpg	100
1253.713	0.966	965.5	test	Phase2	test/STIM_010.jpg	100
1258.123	0.771	770.7	test	Phase2	test/STIM_011.jpg	100
1261.706	1.338	1338.0	test	Phase2	test/STIM_011.jpg	99
1265.951	0.942	942.3	test	Phase2	test/STIM_011.jpg	99
1268.916	1.054	1054.4	test	Phase2	test/STIM_012.jpg	100
1273.143	1.327	1327.4	test	Phase2	test/STIM_012.jpg	100
1276.828	1.171	1170.9	test	Phase2	test/STIM_012.jpg	100
1280.416	0.848	847.7	test	Phase2	test/STIM_013.jpg	99
1284.723	0.936	935.7	test	Phase2	test/STIM_013.jpg	99
1289.431	0.688	688.2	test	Phase2	test/STIM_013.jpg	100
1294.04	1.145	1144.7	test	Phase2	test/STIM_014.jpg	99
1297.307	1.05	1049.9	test	Phase2	test/STIM_014.jpg	99
1301.914	1.288	1288.3	test	Phase2	test/STIM_014.jpg	99
1306.246	1.326	1325.5	test	Phase2	test/STIM_015.jpg	99
1310.534	1.355	1355.0	test	Phase2	test/STIM_015.jpg	100
1314.359	0.803	802.8	test	Phase2	test/STIM_015.jpg	100
1317.648	1.316	1316.2	test	Phase2	test/STIM_016.jpg	99
1321.003	0.987	987.4	test	Phase2	test/STIM_016.jpg	100
1324.406	1.032	1031.7	test	Phase2	test/STIM_016.jpg	100
1327.504	0.782	781.5	test	Phase2	test/STIM_017.jpg	99
1332.234	0.734	733.8	test	Phase2	test/STIM_017.jpg	100
1335.962	0.708	708.1	test	Phase2	test/STIM_017.jpg	99
1339.113	1.19	1190.3	test	Phase2	test/STIM_018.jpg	100
1343.416	0.697	697.0	test	Phase2	test/STIM_018.jpg	99
1347.998	0.671	671.3	test	Phase2	test/STIM_018.jpg	100
1351.027	0.713	712.8	test	Phase2	test/STIM_019.jpg	100
1355.614	1.25	1249.7	test	Phase2	test/STIM_019.jpg	100
1358.995	1.042	1042.4	test	Phase2	test/STIM_019.jpg	99
1362.845	1.279	1279.4	test	Phase2	test/STIM_020.jpg	99
1367.918	1.272	1272.5	test	Phase2	test/STIM_020.jpg	99
1372.772	0.735	734.9	test	Phase2	test/STIM_020.jpg	100
1376.907	0.666	666.1	test	Phase2	test/STIM_021.jpg	99
1380.334	1.331	1331.0	test	Phase2	test/STIM_021.jpg	100
1384.965	1.395	1395.3	test	Phase2	test/STIM_021.jpg	99
1388.763	0.974	973.5	test	Phase2	test/STIM_022.jpg	99
1392.039	0.903	903.4	test	Phase2	test/STIM_022.jpg	100
1395.632	1.376	1376.5	test	Phase2	test/STIM_022.jpg	100
1399.448	0.824	823.9	test	Phase2	test/STIM_023.jpg	100
1403.008	0.845	844.8	test	Phase2	test/STIM_023.jpg	100
1406.696	1.315	1314.8	test	Phase2	test/STIM_023.jpg	99
1411.955	0.951	950.7	test	Phase2	test/STIM_024.jpg	100
1416.195	1.208	1208.5	test	Phase2	test/STIM_024.jpg	100
1420.742	0.801	801.4	test	Phase2	test/STIM_024.jpg	99
1424.695	0.759	759.4	test	Phase2	test/STIM_025.jpg	99
1429.214	1.318	1318.3	test	Phase2	test/STIM_025.jpg	99
1432.707	0.963	962.7	test	Phase2	test/STIM_025.jpg	99
1436.993	1.33	1329.6	test	Phase2	test/STIM_026.jpg	99
1440.983	0.925	925.0	test	Phase2	test/STIM_026.jpg	99
1444.528	1.332	1331.5	test	Phase2	test/STIM_026.jpg	100
1448.838	0.695	695.1	test	Phase2	test/STIM_027.jpg	100
1451.796	0.927	927.3	test	Phase2	test/STIM_027.jpg	99
1455.638	0.87	869.5	test	Phase2	test/STIM_027.jpg	100
1459.399	1.321	1320.8	test	Phase2	test/STIM_028.jpg	100
1464.487	1.426	1426.1	test	Phase2	test/STIM_028.jpg	99
1469.298	0.754	754.2	test	Phase2	test/STIM_028.jpg	99
1472.506	0.932	931.8	test	Phase2	test/STIM_029.jpg	100
1477.172	0.698	698.1	test	Phase2	test/STIM_029.jpg	99
1481.508	0.716	716.0	test	Phase2	test/STIM_029.jpg	99
1486.073	0.636	636.0	study	Phase3	study/STIM_000.jpg	100
1488.755	0.674	673.8	study	Phase3	study/STIM_000.jpg	99
1492.889	0.988	987.7	study	Phase3	study/STIM_000.jpg	99
1496.291	0.8	800.2	study	Phase3	study/STIM_001.jpg	100
1500.802	0.93	929.9	study	Phase3	study/STIM_001.jpg	99
1503.836	1.258	1257.7	study	Phase3	study/STIM_001.jpg	99
1508.832	1.327	1327.3	study	Phase3	study/STIM_002.jpg	100
1512.869	0.97	970.3	study	Phase3	study/STIM_002.jpg	99
1516.764	1.228	1228.3	study	Phase3	study/STIM_002.jpg	99
1520.017	0.735	734.6	study	Phase3	study/STIM_003.jpg	99
1524.097	0.795	794.9	study	Phase3	study/STIM_003.jpg	99
1527.816	1.073	1072.7	study	Phase3	study/STIM_003.jpg	100
1532.498	0.895	894.9	study	Phase3	study/STIM_004.jpg	100
1537.058	1.021	1020.8	study	Phase3	study/STIM_004.jpg	100
1541.965	1.36	1360.4	study	Phase3	study/STIM_004.jpg	100
1546.895	0.65	649.8	study	Phase3	study/STIM_005.jpg	99
1550.248	0.975	974.6	study	Phase3	study/STIM_005.jpg	99
1553.979	0.717	717.0	study	Phase3	study/STIM_005.jpg	100
1558.34	0.877	876.7	study	Phase3	study/STIM_006.jpg	100
1562.579	1.183	1183.0	study	Phase3	study/STIM_006.jpg	99
1566.013	1.313	1312.7	study	Phase3	study/STIM_006.jpg	100
1570.004	1.215	1214.9	study	Phase3	study/STIM_007.jpg	99
1575.011	0.644	643.6	study	Phase3	study/STIM_007.jpg	99
1579.239	1.023	1022.9	study	Phase3	study/STIM_007.jpg	100
1583.352	0.767	767.3	study	Phase3	study/STIM_008.jpg	100
1587.537	1.078	1077.8	study	Phase3	study/STIM_008.jpg	99
1591.68	0.664	664.1	study	Phase3	study/STIM_008.jpg	99
1596.307	1.274	1274.4	study	Phase3	study/STIM_009.jpg	100
1599.777	0.809	809.0	study	Phase3	study/STIM_009.jpg	99
1604.231	0.752	751.8	study	Phase3	study/STIM_009.jpg	100
1607.522	1.336	1335.8	study	Phase3	study/STIM_010.jpg	99
1612.456	1.082	1082.4	study	Phase3	study/STIM_010.jpg	100
1616.305	0.802	802.1	study	Phase3	study/STIM_010.jpg	100
1619.696	1.151	1151.2	study	Phase3	study/STIM_011.jpg	99
1623.948	1.213	1212.7	study	Phase3	study/STIM_011.jpg	100
1628.008	1.019	1018.6	study	Phase3	study/STIM_011.jpg	99
1631.331	0.667	666.6	study	Phase3	study/STIM_012.jpg	99
1634.597	0.944	943.8	study	Phase3	study/STIM_012.jpg	100
1639.474	1.244	1243.7	study	Phase3	study/STIM_012.jpg	99
1643.329	0.656	655.5	study	Phase3	study/STIM_013.jpg	99
1646.24	0.865	865.4	study	Phase3	study/STIM_013.jpg	100
1649.809	1.252	1252.1	study	Phase3	study/STIM_013.jpg	99
1653.763	1.127	1126.9	study	Phase3	study/STIM_014.jpg	99
1657.662	1.139	1139.2	study	Phase3	study/STIM_014.jpg	100
1661.9	0.706	706.5	study	Phase3	study/STIM_014.jpg	99
1666.09	1.303	1303.4	study	Phase3	study/STIM_015.jpg	99
1670.215	0.993	992.9	study	Phase3	study/STIM_015.jpg	99
1673.723	0.746	745.5	study	Phase3	study/STIM_015.jpg	100
1676.778	1.289	1288.8	study	Phase3	study/STIM_016.jpg	99
1680.908	1.287	1286.7	study	Phase3	study/STIM_016.jpg	100
1686.05	1.203	1203.4	study	Phase3	study/STIM_016.jpg	99
1690.179	1.268	1267.9	study	Phase3	study/STIM_017.jpg	100
1695.421	1.271	1271.1	study	Phase3	study/STIM_017.jpg	100
1698.963	0.701	700.8	study	Phase3	study/STIM_017.jpg	100
1702.987	0.731	731.4	study	Phase3	study/STIM_018.jpg	99
1707.466	0.939	939.2	study	Phase3	study/STIM_018.jpg	99
1711.427	0.645	645.1	study	Phase3	study/STIM_018.jpg	99
1715.631	0.994	994.5	study	Phase3	study/STIM_019.jpg	100
1719.852	0.911	910.6	study	Phase3	study/STIM_019.jpg	100
1724.336	0.979	979.2	study	Phase3	study/STIM_019.jpg	99
1727.357	0.631	631.1	study	Phase3	study/STIM_020.jpg	100
1730.298	0.796	796.3	study	Phase3	study/STIM_020.jpg	99
1734.359	0.804	804.0	study	Phase3	study/STIM_020.jpg	100
1738.81	0.915	914.6	study	Phase3	study/STIM_021.jpg	99
1741.933	0.871	870.7	study	Phase3	study/STIM_021.jpg	99
1746.667	1.093	1092.8	study	Phase3	study/STIM_021.jpg	99
1750.387	0.92	919.8	study	Phase3	study/STIM_022.jpg	100
1753.961	0.98	980.4	study	Phase3	study/STIM_022.jpg	99
1757.417	1.171	1170.7	study	Phase3	study/STIM_022.jpg	100
1762.315	0.636	636.0	study	Phase3	study/STIM_023.jpg	100
1766.86	0.715	714.7	study	Phase3	study/STIM_023.jpg	100
1769.909	1.244	1244.3	study	Phase3	study/STIM_023.jpg	100
1773.325	1.007	1007.2	study	Phase3	study/STIM_024.jpg	100
1777.655	1.146	1146.2	study	Phase3	study/STIM_024.jpg	100
1782.47	1.156	1155.9	study	Phase3	study/STIM_024.jpg	100
1785.783	1.195	1194.8	study	Phase3	study/STIM_025.jpg	100
1790.679	0.774	773.8	study	Phase3	study/STIM_025.jpg	100
1794.606	0.738	737.7	study	Phase3	study/STIM_025.jpg	100
1798.968	0.876	875.6	study	Phase3	study/STIM_026.jpg	99
1803.145	0.757	757.0	study	Phase3	study/STIM_026.jpg	100
1805.935	1.064	1063.8	study	Phase3	study/STIM_026.jpg	99
1809.192	0.656	656.5	study	Phase3	study/STIM_027.jpg	100
1813.411	1.354	1353.8	study	Phase3	study/STIM_027.jpg	100
1818.181	0.765	765.4	study	Phase3	study/STIM_027.jpg	100
1821.616	1.061	1060.6	study	Phase3	study/STIM_028.jpg	99
1824.775	1.334	1333.8	study	Phase3	study/STIM_028.jpg	100
1828.543	0.951	951.4	study	Phase3	study/STIM_028.jpg	99
1833.477	0.618	617.8	study	Phase3	study/STIM_029.jpg	100
1837.098	1.154	1153.6	study	Phase3	study/STIM_029.jpg	99
1840.755	0.77	770.0	study	Phase3	study/STIM_029.jpg	99
1845.21	0.954	954.1	test	Phase3	test/STIM_000.jpg	100
1848.812	1.245	1245.3	test	Phase3	test/STIM_000.jpg	99
1853.68	1.35	1349.5	test	Phase3	test/STIM_000.jpg	99
1857.313	0.813	813.1	test	Phase3	test/STIM_001.jpg	100
1860.699	0.84	840.3	test	Phase3	test/STIM_001.jpg	100
1864.879	1.304	1304.1	test	Phase3	test/STIM_001.jpg	100
1868.931	1.328	1327.7	test	Phase3	test/STIM_002.jpg	100
1873.574	0.913	913.4	test	Phase3	test/STIM_002.jpg	99
1878.196	0.776	776.0	test	Phase3	test/STIM_002.jpg	100
1882.47	0.682	681.6	test	Phase3	test/STIM_003.jpg	99
1886.216	0.82	819.9	test	Phase3	test/STIM_003.jpg	100
1890.815	1.4	1400.3	test	Phase3	test/STIM_003.jpg	100
1894.373	1.091	1091.0	test	Phase3	test/STIM_004.jpg	100
1898.047	0.848	847.7	test	Phase3	test/STIM_004.jpg	100
1901.858	1.032	1031.9	test	Phase3	test/STIM_004.jpg	100
1906.344	1.136	1136.2	test	Phase3	test/STIM_005.jpg	99
1910.922	0.864	863.7	test	Phase3	test/STIM_005.jpg	99
1914.554	0.915	914.6	test	Phase3	test/STIM_005.jpg	100
1918.009	0.869	869.1	test	Phase3	test/STIM_006.jpg	100
1922.182	1.366	1366.3	test	Phase3	test/STIM_006.jpg	99
1926.684	1.211	1211.2	test	Phase3	test/STIM_006.jpg	100
1930.568	0.994	994.2	test	Phase3	test/STIM_007.jpg	100
1933.596	0.93	929.9	test	Phase3	test/STIM_007.jpg	100
1938.243	1.214	1214.1	test	Phase3	test/STIM_007.jpg	99
1942.113	1.101	1101.4	test	Phase3	test/STIM_008.jpg	99
1946.651	0.684	683.9	test	Phase3	test/STIM_008.jpg	100
1951.098	0.731	731.1	test	Phase3	test/STIM_008.jpg	100
1954.333	0.796	795.8	test	Phase3	test/STIM_009.jpg	100
1958.234	1.025	1025.2	test	Phase3	test/STIM_009.jpg	99
1961.742	1.127	1126.8	test	Phase3	test/STIM_009.jpg	100
1966.616	0.764	764.2	test	Phase3	test/STIM_010.jpg	100
1971.366	1.107	1107.3	test	Phase3	test/STIM_010.jpg	99
1975.29	1.128	1128.2	test	Phase3	test/STIM_010.jpg	99
1980.39	0.749	748.7	test	Phase3	test/STIM_011.jpg	100
1984.185	0.705	704.8	test	Phase3	test/STIM_011.jpg	99
1988.872	1.288	1288.1	test	Phase3	test/STIM_011.jpg	100
1993.759	1.146	1146.4	test	Phase3	test/STIM_012.jpg	99
1998.037	1.354	1354.0	test	Phase3	test/STIM_012.jpg	100
2002.709	0.694	693.8	test	Phase3	test/STIM_012.jpg	100
2005.815	1.132	1131.5	test	Phase3	test/STIM_013.jpg	100
2010.043	0.858	857.6	test	Phase3	test/STIM_013.jpg	99
2014.106	0.99	990.1	test	Phase3	test/STIM_013.jpg	99
2017.479	1.057	1057.4	test	Phase3	test/STIM_014.jpg	99
2021.272	0.979	979.1	test	Phase3	test/STIM_014.jpg	100
2025.484	0.757	757.0	test	Phase3	test/STIM_014.jpg	100
2028.662	0.812	811.5	test	Phase3	test/STIM_015.jpg	99
2032.189	1.331	1331.3	test	Phase3	test/STIM_015.jpg	100
2037.078	0.75	750.1	test	Phase3	test/STIM_015.jpg	100
2040.605	1.326	1325.6	test	Phase3	test/STIM_016.jpg	99
2044.912	0.894	893.6	test	Phase3	test/STIM_016.jpg	100
2049.582	1.076	1076.1	test	Phase3	test/STIM_016.jpg	99
2053.202	1.237	1237.4	test	Phase3	test/STIM_017.jpg	100
2057.691	1.067	1066.6	test	Phase3	test/STIM_017.jpg	99
2061.372	1.006	1006.0	test	Phase3	test/STIM_017.jpg	99
2065.988	0.913	913.2	test	Phase3	test/STIM_018.jpg	100
2068.907	1.331	1331.3	test	Phase3	test/STIM_018.jpg	99
2073.178	1.034	1034.2	test	Phase3	test/STIM_018.jpg	99
2078.163	1.093	1092.9	test	Phase3	test/STIM_019.jpg	99
2082.386	0.985	985.2	test	Phase3	test/STIM_019.jpg	99
2085.978	1.375	1375.3	test	Phase3	test/STIM_019.jpg	100
2090.006	0.933	933.4	test	Phase3	test/STIM_020.jpg	100
2093.139	1.194	1194.4	test	Phase3	test/STIM_020.jpg	99
2096.971	1.154	1154.2	test	Phase3	test/STIM_020.jpg	99
2102.029	0.713	713.4	test	Phase3	test/STIM_021.jpg	99
2106.684	0.969	969.2	test	Phase3	test/STIM_021.jpg	99
2109.955	0.713	713.2	test	Phase3	test/STIM_021.jpg	100
2114.612	0.73	730.2	test	Phase3	test/STIM_022.jpg	100
2118.223	1.326	1326.2	test	Phase3	test/STIM_022.jpg	99
2121.607	1.24	1239.6	test	Phase3	test/STIM_022.jpg	100
2125.716	0.911	911.0	test	Phase3	test/STIM_023.jpg	100
2128.871	0.771	770.8	test	Phase3	test/STIM_023.jpg	99
2131.786	1.324	1323.5	test	Phase3	test/STIM_023.jpg	99
2135.315	1.264	1263.7	test	Phase3	test/STIM_024.jpg	100
2139.353	0.727	726.7	test	Phase3	test/STIM_024.jpg	99
2143.759	0.986	986.5	test	Phase3	test/STIM_024.jpg	100
2148.399	0.824	824.3	test	Phase3	test/STIM_025.jpg	99
2152.615	1.168	1168.4	test	Phase3	test/STIM_025.jpg	99
2156.452	0.818	817.6	test	Phase3	test/STIM_025.jpg	100
2160.037	1.386	1385.9	test	Phase3	test/STIM_026.jpg	99
2164.279	0.98	980.1	test	Phase3	test/STIM_026.jpg	100
2168.721	1.086	1086.3	test	Phase3	test/STIM_026.jpg	99
2173.345	1.359	1359.4	test	Phase3	test/STIM_027.jpg	99
2177.093	1.273	1272.9	test	Phase3	test/STIM_027.jpg	99
2181.737	0.85	850.0	test	Phase3	test/STIM_027.jpg	99
2185.357	1.025	1024.7	test	Phase3	test/STIM_028.jpg	100
2189.621	0.879	879.1	test	Phase3	test/STIM_028.jpg	100
2192.685	0.826	826.4	test	Phase3	test/STIM_028.jpg	100
2196.106	0.686	685.7	test	Phase3	test/STIM_029.jpg	99
2200.108	1.271	1270.8	test	Phase3	test/STIM_029.jpg	100
2204.228	1.091	1091.3	test	Phase3	test/STIM_029.jpg	99
