onset	duration	accuracy_binary	trial_type	learning_stage	stimulus
0.0	0.967	1	incongruent	Block1	incongruent/STIM_000.jpg
3.406	1.007	1	incongruent	Block1	incongruent/STIM_000.jpg
8.002	0.927	1	incongruent	Block1	incongruent/STIM_000.jpg
11.445	1.145	1	incongruent	Block1	incongruent/STIM_000.jpg
15.864	0.822	1	incongruent	Block1	incongruent/STIM_000.jpg
19.067	1.587	1	incongruent	Block1	incongruent/STIM_001.jpg
24.239	0.965	1	incongruent	Block1	incongruent/STIM_001.jpg
28.254	1.441	1	incongruent	Block1	incongruent/STIM_001.jpg
33.092	1.135	0	incongruent	Block1	incongruent/STIM_001.jpg
38.055	1.11	1	incongruent	Block1	incongruent/STIM_001.jpg
41.421	1.16	1	incongruent	Block1	incongruent/STIM_002.jpg
46.145	0.9	0	incongruent	Block1	incongruent/STIM_002.jpg
50.984	1.128	1	incongruent	Block1	incongruent/STIM_002.jpg
54.569	1.319	1	incongruent	Block1	incongruent/STIM_002.jpg
58.736	0.78	1	incongruent	Block1	incongruent/STIM_002.jpg
63.306	1.511	1	incongruent	Block1	incongruent/STIM_003.jpg
68.545	0.722	1	incongruent	Block1	incongruent/STIM_003.jpg
73.028	1.203	1	incongruent	Block1	incongruent/STIM_003.jpg
76.943	1.292	1	incongruent	Block1	incongruent/STIM_003.jpg
80.181	0.731	1	incongruent	Block1	incongruent/STIM_003.jpg
84.535	1.397	1	incongruent	Block1	incongruent/STIM_004.jpg
88.607	1.244	1	incongruent	Block1	incongruent/STIM_004.jpg
92.199	1.052	0	incongruent	Block1	incongruent/STIM_004.jpg
95.766	1.274	1	incongruent	Block1	incongruent/STIM_004.jpg
100.87	1.169	1	incongruent	Block1	incongruent/STIM_004.jpg
105.589	1.649	1	incongruent	Block1	incongruent/STIM_005.jpg
109.592	1.092	1	incongruent	Block1	incongruent/STIM_005.jpg
113.855	0.819	0	incongruent	Block1	incongruent/STIM_005.jpg
117.495	1.144	1	incongruent	Block1	incongruent/STIM_005.jpg
121.71	0.97	1	incongruent	Block1	incongruent/STIM_005.jpg
125.232	0.814	0	incongruent	Block1	incongruent/STIM_006.jpg
129.326	0.872	1	incongruent	Block1	incongruent/STIM_006.jpg
133.597	0.934	1	incongruent	Block1	incongruent/STIM_006.jpg
136.608	0.907	0	incongruent	Block1	incongruent/STIM_006.jpg
141.148	1.215	1	incongruent	Block1	incongruent/STIM_006.jpg
146.192	0.736	1	incongruent	Block1	incongruent/STIM_007.jpg
149.229	0.807	1	incongruent	Block1	incongruent/STIM_007.jpg
152.269	0.708	1	incongruent	Block1	incongruent/STIM_007.jpg
156.346	0.652	1	incongruent	Block1	incongruent/STIM_007.jpg
160.465	1.092	1	incongruent	Block1	incongruent/STIM_007.jpg
164.619	0.78	1	incongruent	Block1	incongruent/STIM_008.jpg
167.45	1.353	1	incongruent	Block1	incongruent/STIM_008.jpg
171.07	0.804	0	incongruent	Block1	incongruent/STIM_008.jpg
174.528	0.856	1	incongruent	Block1	incongruent/STIM_008.jpg
178.828	0.923	1	incongruent	Block1	incongruent/STIM_008.jpg
183.257	1.35	1	incongruent	Block1	incongruent/STIM_009.jpg
188.464	1.468	1	incongruent	Block1	incongruent/STIM_009.jpg
192.003	0.804	1	incongruent	Block1	incongruent/STIM_009.jpg
196.272	1.328	1	incongruent	Block1	incongruent/STIM_009.jpg
200.228	0.641	1	incongruent	Block1	incongruent/STIM_009.jpg
204.6	1.112	1	incongruent	Block1	incongruent/STIM_010.jpg
209.382	0.982	1	incongruent	Block1	incongruent/STIM_010.jpg
212.569	1.1	1	incongruent	Block1	incongruent/STIM_010.jpg
216.194	0.82	1	incongruent	Block1	incongruent/STIM_010.jpg
219.899	1.134	1	incongruent	Block1	incongruent/STIM_010.jpg
223.982	1.162	1	incongruent	Block1	incongruent/STIM_011.jpg
228.256	1.244	0	incongruent	Block1	incongruent/STIM_011.jpg
232.383	1.069	1	incongruent	Block1	incongruent/STIM_011.jpg
237.153	0.716	1	incongruent	Block1	incongruent/STIM_011.jpg
241.622	0.774	1	incongruent	Block1	incongruent/STIM_011.jpg
245.194	1.048	1	incongruent	Block1	incongruent/STIM_012.jpg
248.668	0.961	1	incongruent	Block1	incongruent/STIM_012.jpg
253.255	0.874	0	incongruent	Block1	incongruent/STIM_012.jpg
257.034	0.77	1	incongruent	Block1	incongruent/STIM_012.jpg
260.158	1.039	0	incongruent	Block1	incongruent/STIM_012.jpg
265.088	1.128	1	incongruent	Block1	incongruent/STIM_013.jpg
269.475	1.099	0	incongruent	Block1	incongruent/STIM_013.jpg
272.542	0.872	1	incongruent	Block1	incongruent/STIM_013.jpg
276.104	1.109	0	incongruent	Block1	incongruent/STIM_013.jpg
280.577	1.197	1	incongruent	Block1	incongruent/STIM_013.jpg
284.4	1.141	0	incongruent	Block1	incongruent/STIM_014.jpg
289.116	1.347	1	incongruent	Block1	incongruent/STIM_014.jpg
294.013	1.162	1	incongruent	Block1	incongruent/STIM_014.jpg
298.319	1.278	0	incongruent	Block1	incongruent/STIM_014.jpg
302.79	0.723	1	incongruent	Block1	incongruent/STIM_014.jpg
307.278	1.424	1	incongruent	Block1	incongruent/STIM_015.jpg
312.188	1.308	1	incongruent	Block1	incongruent/STIM_015.jpg
316.887	1.286	0	incongruent	Block1	incongruent/STIM_015.jpg
321.143	1.029	1	incongruent	Block1	incongruent/STIM_015.jpg
325.647	0.62	1	incongruent	Block1	incongruent/STIM_015.jpg
329.535	1.162	1	incongruent	Block1	incongruent/STIM_016.jpg
333.349	1.395	0	incongruent	Block1	incongruent/STIM_016.jpg
338.259	1.164	1	incongruent	Block1	incongruent/STIM_016.jpg
343.307	1.124	1	incongruent	Block1	incongruent/STIM_016.jpg
346.783	0.771	1	incongruent	Block1	incongruent/STIM_016.jpg
350.726	0.877	1	incongruent	Block1	incongruent/STIM_017.jpg
355.401	0.824	1	incongruent	Block1	incongruent/STIM_017.jpg
359.509	1.178	1	incongruent	Block1	incongruent/STIM_017.jpg
364.202	1.14	1	incongruent	Block1	incongruent/STIM_017.jpg
369.038	1.193	1	incongruent	Block1	incongruent/STIM_017.jpg
372.604	1.388	1	incongruent	Block1	incongruent/STIM_018.jpg
377.354	1.427	1	incongruent	Block1	incongruent/STIM_018.jpg
382.348	0.716	1	incongruent	Block1	incongruent/STIM_018.jpg
385.194	0.592	1	incongruent	Block1	incongruent/STIM_018.jpg
388.024	0.906	0	incongruent	Block1	incongruent/STIM_018.jpg
392.015	0.939	1	incongruent	Block1	incongruent/STIM_019.jpg
395.719	0.855	1	incongruent	Block1	incongruent/STIM_019.jpg
398.882	0.784	1	incongruent	Block1	incongruent/STIM_019.jpg
403.417	0.73	1	incongruent	Block1	incongruent/STIM_019.jpg
406.989	1.046	0	incongruent	Block1	incongruent/STIM_019.jpg
410.074	1.4	1	incongruent	Block1	incongruent/STIM_020.jpg
413.794	1.307	1	incongruent	Block1	incongruent/STIM_020.jpg
418.793	1.359	1	incongruent	Block1	incongruent/STIM_020.jpg
423.676	1.014	1	incongruent	Block1	incongruent/STIM_020.jpg
427.496	0.617	1	incongruent	Block1	incongruent/STIM_020.jpg
430.44	1.256	1	incongruent	Block1	incongruent/STIM_021.jpg
433.955	1.442	1	incongruent	Block1	incongruent/STIM_021.jpg
439.098	1.014	0	incongruent	Block1	incongruent/STIM_021.jpg
442.437	0.999	1	incongruent	Block1	incongruent/STIM_021.jpg
445.746	1.155	1	incongruent	Block1	incongruent/STIM_021.jpg
449.499	0.866	1	incongruent	Block1	incongruent/STIM_022.jpg
453.459	1.31	1	incongruent	Block1	incongruent/STIM_022.jpg
457.907	0.932	1	incongruent	Block1	incongruent/STIM_022.jpg
461.522	0.843	1	incongruent	Block1	incongruent/STIM_022.jpg
464.882	1.023	1	incongruent	Block1	incongruent/STIM_022.jpg
468.927	0.977	1	incongruent	Block1	incongruent/STIM_023.jpg
473.309	1.529	1	incongruent	Block1	incongruent/STIM_023.jpg
478.051	0.736	1	incongruent	Block1	incongruent/STIM_023.jpg
482.549	1.385	0	incongruent	Block1	incongruent/STIM_023.jpg
487.268	0.974	0	incongruent	Block1	incongruent/STIM_023.jpg
490.879	1.556	1	incongruent	Block1	incongruent/STIM_024.jpg
495.909	1.085	1	incongruent	Block1	incongruent/STIM_024.jpg
500.644	0.813	1	incongruent	Block1	incongruent/STIM_024.jpg
505.053	1.127	1	incongruent	Block1	incongruent/STIM_024.jpg
508.194	0.977	1	incongruent	Block1	incongruent/STIM_024.jpg
511.441	1.088	1	incongruent	Block1	incongruent/STIM_025.jpg
515.505	1.023	1	incongruent	Block1	incongruent/STIM_025.jpg
519.942	0.812	1	incongruent	Block1	incongruent/STIM_025.jpg
523.597	0.621	1	incongruent	Block1	incongruent/STIM_025.jpg
526.507	0.718	1	incongruent	Block1	incongruent/STIM_025.jpg
530.75	1.235	1	incongruent	Block1	incongruent/STIM_026.jpg
533.936	1.427	1	incongruent	Block1	incongruent/STIM_026.jpg
538.086	0.88	1	incongruent	Block1	incongruent/STIM_026.jpg
541.15	0.952	1	incongruent	Block1	incongruent/STIM_026.jpg
545.095	0.717	1	incongruent	Block1	incongruent/STIM_026.jpg
549.468	1.334	1	incongruent	Block1	incongruent/STIM_027.jpg
552.863	0.844	1	incongruent	Block1	incongruent/STIM_027.jpg
556.776	0.982	1	incongruent	Block1	incongruent/STIM_027.jpg
560.757	0.794	1	incongruent	Block1	incongruent/STIM_027.jpg
564.037	1.104	1	incongruent	Block1	incongruent/STIM_027.jpg
568.682	1.085	1	incongruent	Block1	incongruent/STIM_028.jpg
573.187	0.937	1	incongruent	Block1	incongruent/STIM_028.jpg
576.735	1.133	1	incongruent	Block1	incongruent/STIM_028.jpg
580.762	0.834	1	incongruent	Block1	incongruent/STIM_028.jpg
585.193	1.042	0	incongruent	Block1	incongruent/STIM_028.jpg
588.923	1.253	1	incongruent	Block1	incongruent/STIM_029.jpg
592.497	1.296	1	incongruent	Block1	incongruent/STIM_029.jpg
595.963	0.67	0	incongruent	Block1	incongruent/STIM_029.jpg
599.994	1.074	1	incongruent	Block1	incongruent/STIM_029.jpg
604.272	1.012	1	incongruent	Block1	incongruent/STIM_029.jpg
607.813	0.859	1	congruent	Block1	congruent/STIM_000.jpg
611.84	0.675	1	congruent	Block1	congruent/STIM_000.jpg
615.103	0.684	1	congruent	Block1	congruent/STIM_000.jpg
619.729	0.819	1	congruent	Block1	congruent/STIM_000.jpg
623.373	0.731	1	congruent	Block1	congruent/STIM_000.jpg
626.949	0.626	1	congruent	Block1	congruent/STIM_001.jpg
630.839	0.595	1	congruent	Block1	congruent/STIM_001.jpg
634.16	0.795	0	congruent	Block1	congruent/STIM_001.jpg
637.632	0.598	1	congruent	Block1	congruent/STIM_001.jpg
641.253	0.896	1	congruent	Block1	congruent/STIM_001.jpg
645.091	0.482	1	congruent	Block1	congruent/STIM_002.jpg
649.387	0.493	1	congruent	Block1	congruent/STIM_002.jpg
652.078	0.837	1	congruent	Block1	congruent/STIM_002.jpg
656.185	0.555	1	congruent	Block1	congruent/STIM_002.jpg
660.279	0.788	1	congruent	Block1	congruent/STIM_002.jpg
663.507	0.565	1	congruent	Block1	congruent/STIM_003.jpg
666.174	0.75	1	congruent	Block1	congruent/STIM_003.jpg
668.938	0.645	1	congruent	Block1	congruent/STIM_003.jpg
672.627	0.973	1	congruent	Block1	congruent/STIM_003.jpg
675.695	0.919	1	congruent	Block1	congruent/STIM_003.jpg
678.986	0.713	1	congruent	Block1	congruent/STIM_004.jpg
682.574	0.896	1	congruent	Block1	congruent/STIM_004.jpg
685.841	0.938	1	congruent	Block1	congruent/STIM_004.jpg
690.487	0.694	1	congruent	Block1	congruent/STIM_004.jpg
694.014	0.904	1	congruent	Block1	congruent/STIM_004.jpg
698.382	0.589	1	congruent	Block1	congruent/STIM_005.jpg
701.939	0.691	1	congruent	Block1	congruent/STIM_005.jpg
706.514	0.985	1	congruent	Block1	congruent/STIM_005.jpg
711.328	0.824	1	congruent	Block1	congruent/STIM_005.jpg
715.982	0.939	1	congruent	Block1	congruent/STIM_005.jpg
720.63	0.682	1	congruent	Block1	congruent/STIM_006.jpg
724.195	0.601	1	congruent	Block1	congruent/STIM_006.jpg
728.279	0.582	1	congruent	Block1	congruent/STIM_006.jpg
731.43	0.826	1	congruent	Block1	congruent/STIM_006.jpg
735.078	0.94	1	congruent	Block1	congruent/STIM_006.jpg
739.154	0.921	1	congruent	Block1	congruent/STIM_007.jpg
743.216	0.882	1	congruent	Block1	congruent/STIM_007.jpg
746.846	0.536	1	congruent	Block1	congruent/STIM_007.jpg
749.983	0.62	1	congruent	Block1	congruent/STIM_007.jpg
752.629	0.673	1	congruent	Block1	congruent/STIM_007.jpg
755.754	0.665	1	congruent	Block1	congruent/STIM_008.jpg
759.456	0.882	1	congruent	Block1	congruent/STIM_008.jpg
763.294	0.943	1	congruent	Block1	congruent/STIM_008.jpg
767.666	0.727	1	congruent	Block1	congruent/STIM_008.jpg
771.688	0.808	0	congruent	Block1	congruent/STIM_008.jpg
775.866	0.929	1	congruent	Block1	congruent/STIM_009.jpg
780.418	0.68	1	congruent	Block1	congruent/STIM_009.jpg
783.555	0.504	1	congruent	Block1	congruent/STIM_009.jpg
786.348	0.612	1	congruent	Block1	congruent/STIM_009.jpg
790.085	0.918	1	congruent	Block1	congruent/STIM_009.jpg
793.351	0.83	1	congruent	Block1	congruent/STIM_010.jpg
797.795	0.972	1	congruent	Block1	congruent/STIM_010.jpg
800.76	0.696	1	congruent	Block1	congruent/STIM_010.jpg
805.192	0.744	1	congruent	Block1	congruent/STIM_010.jpg
809.905	0.846	1	congruent	Block1	congruent/STIM_010.jpg
813.609	0.661	1	congruent	Block1	congruent/STIM_011.jpg
816.603	0.605	1	congruent	Block1	congruent/STIM_011.jpg
821.144	0.885	1	congruent	Block1	congruent/STIM_011.jpg
825.147	0.875	1	congruent	Block1	congruent/STIM_011.jpg
828.969	0.842	1	congruent	Block1	congruent/STIM_011.jpg
832.282	1.011	1	congruent	Block1	congruent/STIM_012.jpg
837.004	0.919	1	congruent	Block1	congruent/STIM_012.jpg
841.682	0.672	1	congruent	Block1	congruent/STIM_012.jpg
844.576	0.734	1	congruent	Block1	congruent/STIM_012.jpg
848.845	0.66	1	congruent	Block1	congruent/STIM_012.jpg
852.496	0.893	1	congruent	Block1	congruent/STIM_013.jpg
855.358	0.912	1	congruent	Block1	congruent/STIM_013.jpg
859.146	0.792	1	congruent	Block1	congruent/STIM_013.jpg
862.819	0.676	1	congruent	Block1	congruent/STIM_013.jpg
866.648	0.654	1	congruent	Block1	congruent/STIM_013.jpg
869.576	0.755	1	congruent	Block1	congruent/STIM_014.jpg
874.181	0.674	1	congruent	Block1	congruent/STIM_014.jpg
877.639	0.66	1	congruent	Block1	congruent/STIM_014.jpg
880.993	0.583	1	congruent	Block1	congruent/STIM_014.jpg
885.32	0.519	1	congruent	Block1	congruent/STIM_014.jpg
889.622	0.859	1	congruent	Block1	congruent/STIM_015.jpg
894.211	0.783	1	congruent	Block1	congruent/STIM_015.jpg
897.061	0.794	1	congruent	Block1	congruent/STIM_015.jpg
899.972	0.699	1	congruent	Block1	congruent/STIM_015.jpg
903.145	0.952	1	congruent	Block1	congruent/STIM_015.jpg
906.546	0.51	1	congruent	Block1	congruent/STIM_016.jpg
910.397	0.619	1	congruent	Block1	congruent/STIM_016.jpg
914.705	0.58	1	congruent	Block1	congruent/STIM_016.jpg
918.583	0.873	1	congruent	Block1	congruent/STIM_016.jpg
922.514	0.526	1	congruent	Block1	congruent/STIM_016.jpg
926.123	0.746	1	congruent	Block1	congruent/STIM_017.jpg
930.736	0.956	1	congruent	Block1	congruent/STIM_017.jpg
934.179	0.823	1	congruent	Block1	congruent/STIM_017.jpg
938.205	0.49	1	congruent	Block1	congruent/STIM_017.jpg
941.281	0.936	1	congruent	Block1	congruent/STIM_017.jpg
944.281	0.7	1	congruent	Block1	congruent/STIM_018.jpg
947.737	0.703	1	congruent	Block1	congruent/STIM_018.jpg
950.481	0.517	1	congruent	Block1	congruent/STIM_018.jpg
953.861	0.681	1	congruent	Block1	congruent/STIM_018.jpg
956.699	0.901	1	congruent	Block1	congruent/STIM_018.jpg
961.419	0.906	1	congruent	Block1	congruent/STIM_019.jpg
964.853	0.707	1	congruent	Block1	congruent/STIM_019.jpg
968.361	0.706	1	congruent	Block1	congruent/STIM_019.jpg
972.842	0.76	1	congruent	Block1	congruent/STIM_019.jpg
976.531	0.652	1	congruent	Block1	congruent/STIM_019.jpg
979.986	0.926	1	congruent	Block1	congruent/STIM_020.jpg
983.129	0.812	0	congruent	Block1	congruent/STIM_020.jpg
987.361	0.494	1	congruent	Block1	congruent/STIM_020.jpg
991.179	0.582	1	congruent	Block1	congruent/STIM_020.jpg
994.922	0.733	1	congruent	Block1	congruent/STIM_020.jpg
999.053	0.917	1	congruent	Block1	congruent/STIM_021.jpg
1002.554	0.688	1	congruent	Block1	congruent/STIM_021.jpg
1006.59	0.639	1	congruent	Block1	congruent/STIM_021.jpg
1011.071	0.577	1	congruent	Block1	congruent/STIM_021.jpg
1013.911	0.582	0	congruent	Block1	congruent/STIM_021.jpg
1017.32	0.726	1	congruent	Block1	congruent/STIM_022.jpg
1021.7	0.843	1	congruent	Block1	congruent/STIM_022.jpg
1025.981	0.883	0	congruent	Block1	congruent/STIM_022.jpg
1029.171	0.669	1	congruent	Block1	congruent/STIM_022.jpg
1032.71	0.619	1	congruent	Block1	congruent/STIM_022.jpg
1036.911	0.571	1	congruent	Block1	congruent/STIM_023.jpg
1040.505	0.967	1	congruent	Block1	congruent/STIM_023.jpg
1044.852	0.55	1	congruent	Block1	congruent/STIM_023.jpg
1048.559	0.648	1	congruent	Block1	congruent/STIM_023.jpg
1051.653	0.905	1	congruent	Block1	congruent/STIM_023.jpg
1056.411	0.842	1	congruent	Block1	congruent/STIM_024.jpg
1059.388	0.826	1	congruent	Block1	congruent/STIM_024.jpg
1063.36	0.562	1	congruent	Block1	congruent/STIM_024.jpg
1067.338	0.746	1	congruent	Block1	congruent/STIM_024.jpg
1071.419	0.59	1	congruent	Block1	congruent/STIM_024.jpg
1074.463	0.944	1	congruent	Block1	congruent/STIM_025.jpg
1077.45	0.703	1	congruent	Block1	congruent/STIM_025.jpg
1080.098	0.761	1	congruent	Block1	congruent/STIM_025.jpg
1083.996	0.496	1	congruent	Block1	congruent/STIM_025.jpg
1087.826	0.813	1	congruent	Block1	congruent/STIM_025.jpg
1092.036	0.596	1	congruent	Block1	congruent/STIM_026.jpg
1094.758	0.76	1	congruent	Block1	congruent/STIM_026.jpg
1098.874	0.679	1	congruent	Block1	congruent/STIM_026.jpg
1102.794	0.854	1	congruent	Block1	congruent/STIM_026.jpg
1106.336	0.869	1	congruent	Block1	congruent/STIM_026.jpg
1109.684	0.549	1	congruent	Block1	congruent/STIM_027.jpg
1113.987	0.666	1	congruent	Block1	congruent/STIM_027.jpg
1117.555	0.792	1	congruent	Block1	congruent/STIM_027.jpg
1121.381	0.558	1	congruent	Block1	congruent/STIM_027.jpg
1125.138	0.896	1	congruent	Block1	congruent/STIM_027.jpg
1129.151	0.584	1	congruent	Block1	congruent/STIM_028.jpg
1132.193	0.82	1	congruent	Block1	congruent/STIM_028.jpg
1136.607	0.909	1	congruent	Block1	congruent/STIM_028.jpg
1139.442	0.898	1	congruent	Block1	congruent/STIM_028.jpg
1143.185	0.651	1	congruent	Block1	congruent/STIM_028.jpg
1147.263	0.858	1	congruent	Block1	congruent/STIM_029.jpg
1150.842	0.816	0	congruent	Block1	congruent/STIM_029.jpg
1154.022	0.693	1	congruent	Block1	congruent/STIM_029.jpg
1156.94	0.824	1	congruent	Block1	congruent/STIM_029.jpg
1160.658	0.535	1	congruent	Block1	congruent/STIM_029.jpg
1164.674	0.954	1	incongruent	Block2	incongruent/STIM_000.jpg
1169.107	0.894	1	incongruent	Block2	incongruent/STIM_000.jpg
1173.184	0.842	1	incongruent	Block2	incongruent/STIM_000.jpg
1177.46	1.079	1	incongruent	Block2	incongruent/STIM_000.jpg
1181.786	0.927	1	incongruent	Block2	incongruent/STIM_000.jpg
1186.253	0.824	1	incongruent	Block2	incongruent/STIM_001.jpg
1190.345	1.126	0	incongruent	Block2	incongruent/STIM_001.jpg
1193.541	1.152	0	incongruent	Block2	incongruent/STIM_001.jpg
1196.931	1.049	1	incongruent	Block2	incongruent/STIM_001.jpg
1201.364	1.069	1	incongruent	Block2	incongruent/STIM_001.jpg
1205.562	0.734	1	incongruent	Block2	incongruent/STIM_002.jpg
1209.112	0.866	0	incongruent	Block2	incongruent/STIM_002.jpg
1212.032	0.602	1	incongruent	Block2	incongruent/STIM_002.jpg
1215.716	0.828	1	incongruent	Block2	incongruent/STIM_002.jpg
1220.098	0.549	1	incongruent	Block2	incongruent/STIM_002.jpg
1223.222	0.739	1	incongruent	Block2	incongruent/STIM_003.jpg
1227.643	1.086	1	incongruent	Block2	incongruent/STIM_003.jpg
1232.085	1.016	1	incongruent	Block2	incongruent/STIM_003.jpg
1236.567	0.854	1	incongruent	Block2	incongruent/STIM_003.jpg
1240.27	0.616	1	incongruent	Block2	incongruent/STIM_003.jpg
1243.549	1.207	1	incongruent	Block2	incongruent/STIM_004.jpg
1247.892	1.243	1	incongruent	Block2	incongruent/STIM_004.jpg
1251.905	1.095	1	incongruent	Block2	incongruent/STIM_004.jpg
1256.409	1.053	1	incongruent	Block2	incongruent/STIM_004.jpg
1260.723	0.93	1	incongruent	Block2	incongruent/STIM_004.jpg
1264.014	1.135	1	incongruent	Block2	incongruent/STIM_005.jpg
1267.603	0.601	1	incongruent	Block2	incongruent/STIM_005.jpg
1271.773	1.067	1	incongruent	Block2	incongruent/STIM_005.jpg
1276.323	0.829	1	incongruent	Block2	incongruent/STIM_005.jpg
1280.743	0.741	1	incongruent	Block2	incongruent/STIM_005.jpg
1283.972	1.244	1	incongruent	Block2	incongruent/STIM_006.jpg
1287.588	1.179	1	incongruent	Block2	incongruent/STIM_006.jpg
1292.018	0.914	1	incongruent	Block2	incongruent/STIM_006.jpg
1295.882	0.86	1	incongruent	Block2	incongruent/STIM_006.jpg
1299.011	0.782	1	incongruent	Block2	incongruent/STIM_006.jpg
1302.65	1.233	1	incongruent	Block2	incongruent/STIM_007.jpg
1306.597	0.914	1	incongruent	Block2	incongruent/STIM_007.jpg
1310.565	0.77	1	incongruent	Block2	incongruent/STIM_007.jpg
1314.249	1.105	1	incongruent	Block2	incongruent/STIM_007.jpg
1318.654	0.739	1	incongruent	Block2	incongruent/STIM_007.jpg
1321.982	1.208	1	incongruent	Block2	incongruent/STIM_008.jpg
1325.558	0.73	1	incongruent	Block2	incongruent/STIM_008.jpg
1329.743	1.191	1	incongruent	Block2	incongruent/STIM_008.jpg
1333.28	0.98	1	incongruent	Block2	incongruent/STIM_008.jpg
1337.26	1.183	1	incongruent	Block2	incongruent/STIM_008.jpg
1341.874	0.645	1	incongruent	Block2	incongruent/STIM_009.jpg
1346.064	1.165	1	incongruent	Block2	incongruent/STIM_009.jpg
1350.29	0.823	1	incongruent	Block2	incongruent/STIM_009.jpg
1353.919	0.747	1	incongruent	Block2	incongruent/STIM_009.jpg
1356.974	0.717	1	incongruent	Block2	incongruent/STIM_009.jpg
1360.584	0.675	1	incongruent	Block2	incongruent/STIM_010.jpg
1363.832	1.052	1	incongruent	Block2	incongruent/STIM_010.jpg
1368.174	0.68	1	incongruent	Block2	incongruent/STIM_010.jpg
1371.109	0.92	1	incongruent	Block2	incongruent/STIM_010.jpg
1374.999	1.081	1	incongruent	Block2	incongruent/STIM_010.jpg
1378.335	1.31	1	incongruent	Block2	incongruent/STIM_011.jpg
1382.242	0.82	1	incongruent	Block2	incongruent/STIM_011.jpg
1386.65	0.742	1	incongruent	Block2	incongruent/STIM_011.jpg
1390.415	1.021	1	incongruent	Block2	incongruent/STIM_011.jpg
1394.209	0.878	1	incongruent	Block2	incongruent/STIM_011.jpg
1398.862	0.824	1	incongruent	Block2	incongruent/STIM_012.jpg
1402.754	1.027	1	incongruent	Block2	incongruent/STIM_012.jpg
1407.371	0.649	1	incongruent	Block2	incongruent/STIM_012.jpg
1411.683	1.115	1	incongruent	Block2	incongruent/STIM_012.jpg
1415.7	0.832	1	incongruent	Block2	incongruent/STIM_012.jpg
1420.11	0.572	1	incongruent	Block2	incongruent/STIM_013.jpg
1424.128	0.642	1	incongruent	Block2	incongruent/STIM_013.jpg
1427.815	0.743	1	incongruent	Block2	incongruent/STIM_013.jpg
1432.113	0.691	1	incongruent	Block2	incongruent/STIM_013.jpg
1436.276	0.668	1	incongruent	Block2	incongruent/STIM_013.jpg
1440.748	0.782	1	incongruent	Block2	incongruent/STIM_014.jpg
1443.887	0.647	1	incongruent	Block2	incongruent/STIM_014.jpg
1447.486	1.064	1	incongruent	Block2	incongruent/STIM_014.jpg
1451.387	0.882	1	incongruent	Block2	incongruent/STIM_014.jpg
1454.662	0.728	1	incongruent	Block2	incongruent/STIM_014.jpg
1457.614	1.257	1	incongruent	Block2	incongruent/STIM_015.jpg
1462.329	0.777	1	incongruent	Block2	incongruent/STIM_015.jpg
1466.934	0.648	1	incongruent	Block2	incongruent/STIM_015.jpg
1471.154	0.554	1	incongruent	Block2	incongruent/STIM_015.jpg
1473.811	0.888	1	incongruent	Block2	incongruent/STIM_015.jpg
1476.733	1.116	1	incongruent	Block2	incongruent/STIM_016.jpg
1481.032	1.126	1	incongruent	Block2	incongruent/STIM_016.jpg
1485.737	0.975	1	incongruent	Block2	incongruent/STIM_016.jpg
1490.506	0.67	1	incongruent	Block2	incongruent/STIM_016.jpg
1493.147	0.917	1	incongruent	Block2	incongruent/STIM_016.jpg
1497.785	0.78	1	incongruent	Block2	incongruent/STIM_017.jpg
1501.562	0.848	1	incongruent	Block2	incongruent/STIM_017.jpg
1504.534	0.672	1	incongruent	Block2	incongruent/STIM_017.jpg
1507.215	0.752	1	incongruent	Block2	incongruent/STIM_017.jpg
1511.539	1.098	1	incongruent	Block2	incongruent/STIM_017.jpg
1516.072	1.346	1	incongruent	Block2	incongruent/STIM_018.jpg
1520.097	0.942	0	incongruent	Block2	incongruent/STIM_018.jpg
1523.629	1.167	1	incongruent	Block2	incongruent/STIM_018.jpg
1528.249	0.825	1	incongruent	Block2	incongruent/STIM_018.jpg
1532.122	0.74	1	incongruent	Block2	incongruent/STIM_018.jpg
1536.626	1.231	1	incongruent	Block2	incongruent/STIM_019.jpg
1540.324	0.97	1	incongruent	Block2	incongruent/STIM_019.jpg
1544.374	0.838	1	incongruent	Block2	incongruent/STIM_019.jpg
1548.769	0.882	1	incongruent	Block2	incongruent/STIM_019.jpg
1552.977	0.962	1	incongruent	Block2	incongruent/STIM_019.jpg
1557.757	1.181	1	incongruent	Block2	incongruent/STIM_020.jpg
1561.341	0.911	1	incongruent	Block2	incongruent/STIM_020.jpg
1565.467	0.672	1	incongruent	Block2	incongruent/STIM_020.jpg
1569.782	0.719	1	incongruent	Block2	incongruent/STIM_020.jpg
1572.515	0.91	1	incongruent	Block2	incongruent/STIM_020.jpg
1576.876	0.753	1	incongruent	Block2	incongruent/STIM_021.jpg
1581.136	1.278	1	incongruent	Block2	incongruent/STIM_021.jpg
1584.569	0.924	1	incongruent	Block2	incongruent/STIM_021.jpg
1588.207	0.874	1	incongruent	Block2	incongruent/STIM_021.jpg
1591.828	0.947	0	incongruent	Block2	incongruent/STIM_021.jpg
1594.766	1.225	1	incongruent	Block2	incongruent/STIM_022.jpg
1597.936	0.706	0	incongruent	Block2	incongruent/STIM_022.jpg
1602.298	0.607	1	incongruent	Block2	incongruent/STIM_022.jpg
1606.091	0.7	1	incongruent	Block2	incongruent/STIM_022.jpg
1609.323	0.658	1	incongruent	Block2	incongruent/STIM_022.jpg
1613.443	1.303	0	incongruent	Block2	incongruent/STIM_023.jpg
1617.957	0.822	1	incongruent	Block2	incongruent/STIM_023.jpg
1621.623	0.713	1	incongruent	Block2	incongruent/STIM_023.jpg
1624.795	1.069	1	incongruent	Block2	incongruent/STIM_023.jpg
1628.347	0.663	1	incongruent	Block2	incongruent/STIM_023.jpg
1632.192	0.847	1	incongruent	Block2	incongruent/STIM_024.jpg
1635.377	1.001	1	incongruent	Block2	incongruent/STIM_024.jpg
1640.153	1.138	1	incongruent	Block2	incongruent/STIM_024.jpg
1644.952	0.594	1	incongruent	Block2	incongruent/STIM_024.jpg
1648.054	0.496	1	incongruent	Block2	incongruent/STIM_024.jpg
1650.978	1.302	1	incongruent	Block2	incongruent/STIM_025.jpg
1655.027	1.108	1	incongruent	Block2	incongruent/STIM_025.jpg
1658.833	0.806	1	incongruent	Block2	incongruent/STIM_025.jpg
1662.602	0.991	1	incongruent	Block2	incongruent/STIM_025.jpg
1666.176	0.794	1	incongruent	Block2	incongruent/STIM_025.jpg
1670.254	0.954	1	incongruent	Block2	incongruent/STIM_026.jpg
1674.026	1.202	1	incongruent	Block2	incongruent/STIM_026.jpg
1677.149	0.787	1	incongruent	Block2	incongruent/STIM_026.jpg
1680.952	1.053	1	incongruent	Block2	incongruent/STIM_026.jpg
1685.28	0.888	1	incongruent	Block2	incongruent/STIM_026.jpg
1688.445	0.783	1	incongruent	Block2	incongruent/STIM_027.jpg
1691.656	0.862	1	incongruent	Block2	incongruent/STIM_027.jpg
1695.989	0.614	1	incongruent	Block2	incongruent/STIM_027.jpg
1698.82	0.492	1	incongruent	Block2	incongruent/STIM_027.jpg
1703.255	0.789	1	incongruent	Block2	incongruent/STIM_027.jpg
1707.238	1.342	1	incongruent	Block2	incongruent/STIM_028.jpg
1711.894	0.974	1	incongruent	Block2	incongruent/STIM_028.jpg
1716.188	1.133	1	incongruent	Block2	incongruent/STIM_028.jpg
1719.507	0.667	1	incongruent	Block2	incongruent/STIM_028.jpg
1723.36	0.579	1	incongruent	Block2	incongruent/STIM_028.jpg
1727.229	1.28	1	incongruent	Block2	incongruent/STIM_029.jpg
1731.215	1.061	1	incongruent	Block2	incongruent/STIM_029.jpg
1735.069	1.254	1	incongruent	Block2	incongruent/STIM_029.jpg
1739.2	1.016	1	incongruent	Block2	incongruent/STIM_029.jpg
1743.533	0.516	1	incongruent	Block2	incongruent/STIM_029.jpg
1747.023	0.666	1	congruent	Block2	congruent/STIM_000.jpg
1749.856	0.853	1	congruent	Block2	congruent/STIM_000.jpg
1752.746	0.688	1	congruent	Block2	congruent/STIM_000.jpg
1756.695	0.797	1	congruent	Block2	congruent/STIM_000.jpg
1759.968	0.677	1	congruent	Block2	congruent/STIM_000.jpg
1763.337	0.926	1	congruent	Block2	congruent/STIM_001.jpg
1767.133	0.6	1	congruent	Block2	congruent/STIM_001.jpg
1769.895	0.833	1	congruent	Block2	congruent/STIM_001.jpg
1773.741	0.563	1	congruent	Block2	congruent/STIM_001.jpg
1777.771	0.728	1	congruent	Block2	congruent/STIM_001.jpg
1782.296	0.804	1	congruent	Block2	congruent/STIM_002.jpg
1785.357	0.86	1	congruent	Block2	congruent/STIM_002.jpg
1789.303	0.534	1	congruent	Block2	congruent/STIM_002.jpg
1791.882	0.919	1	congruent	Block2	congruent/STIM_002.jpg
1795.583	0.845	1	congruent	Block2	congruent/STIM_002.jpg
1799.598	0.582	1	congruent	Block2	congruent/STIM_003.jpg
1802.805	0.733	1	congruent	Block2	congruent/STIM_003.jpg
1805.868	0.816	1	congruent	Block2	congruent/STIM_003.jpg
1808.987	0.813	1	congruent	Block2	congruent/STIM_003.jpg
1812.847	0.865	1	congruent	Block2	congruent/STIM_003.jpg
1817.023	0.7	1	congruent	Block2	congruent/STIM_004.jpg
1819.785	0.948	1	congruent	Block2	congruent/STIM_004.jpg
1824.206	0.724	1	congruent	Block2	congruent/STIM_004.jpg
1828.252	0.689	1	congruent	Block2	congruent/STIM_004.jpg
1831.177	0.796	1	congruent	Block2	congruent/STIM_004.jpg
1835.865	0.776	1	congruent	Block2	congruent/STIM_005.jpg
1839.845	0.607	1	congruent	Block2	congruent/STIM_005.jpg
1842.473	0.55	1	congruent	Block2	congruent/STIM_005.jpg
1845.814	0.546	1	congruent	Block2	congruent/STIM_005.jpg
1848.547	0.971	1	congruent	Block2	congruent/STIM_005.jpg
1852.162	0.88	1	congruent	Block2	congruent/STIM_006.jpg
1856.709	0.748	1	congruent	Block2	congruent/STIM_006.jpg
1860.605	0.912	1	congruent	Block2	congruent/STIM_006.jpg
1864.319	0.725	0	congruent	Block2	congruent/STIM_006.jpg
1867.355	0.819	1	congruent	Block2	congruent/STIM_006.jpg
1871.249	0.668	1	congruent	Block2	congruent/STIM_007.jpg
1874.93	0.829	1	congruent	Block2	congruent/STIM_007.jpg
1878.697	0.777	1	congruent	Block2	congruent/STIM_007.jpg
1881.507	0.808	1	congruent	Block2	congruent/STIM_007.jpg
1884.978	0.603	0	congruent	Block2	congruent/STIM_007.jpg
1889.181	0.874	1	congruent	Block2	congruent/STIM_008.jpg
1892.985	0.759	1	congruent	Block2	congruent/STIM_008.jpg
1895.675	0.934	1	congruent	Block2	congruent/STIM_008.jpg
1899.159	0.647	1	congruent	Block2	congruent/STIM_008.jpg
1902.842	0.538	1	congruent	Block2	congruent/STIM_008.jpg
1906.666	0.968	1	congruent	Block2	congruent/STIM_009.jpg
1911.303	0.954	1	congruent	Block2	congruent/STIM_009.jpg
1915.054	0.668	1	congruent	Block2	congruent/STIM_009.jpg
1919.556	0.562	1	congruent	Block2	congruent/STIM_009.jpg
1923.613	0.589	1	congruent	Block2	congruent/STIM_009.jpg
1927.933	0.644	1	congruent	Block2	congruent/STIM_010.jpg
1930.679	0.604	1	congruent	Block2	congruent/STIM_010.jpg
1933.375	0.654	1	congruent	Block2	congruent/STIM_010.jpg
1937.37	0.932	1	congruent	Block2	congruent/STIM_010.jpg
1942.072	0.749	1	congruent	Block2	congruent/STIM_010.jpg
1946.409	0.923	1	congruent	Block2	congruent/STIM_011.jpg
1950.827	0.805	1	congruent	Block2	congruent/STIM_011.jpg
1955.09	0.859	0	congruent	Block2	congruent/STIM_011.jpg
1959.519	0.909	1	congruent	Block2	congruent/STIM_011.jpg
1963.772	0.622	1	congruent	Block2	congruent/STIM_011.jpg
1967.236	0.669	1	congruent	Block2	congruent/STIM_012.jpg
1970.259	0.779	1	congruent	Block2	congruent/STIM_012.jpg
1974.803	0.621	1	congruent	Block2	congruent/STIM_012.jpg
1978.918	0.96	1	congruent	Block2	congruent/STIM_012.jpg
1983.164	0.867	1	congruent	Block2	congruent/STIM_012.jpg
1987.705	0.657	1	congruent	Block2	congruent/STIM_013.jpg
1991.943	0.574	1	congruent	Block2	congruent/STIM_013.jpg
1996.005	0.677	1	congruent	Block2	congruent/STIM_013.jpg
2000.112	0.556	1	congruent	Block2	congruent/STIM_013.jpg
2003.947	0.865	1	congruent	Block2	congruent/STIM_013.jpg
2007.421	0.986	1	congruent	Block2	congruent/STIM_014.jpg
2011.887	0.986	1	congruent	Block2	congruent/STIM_014.jpg
2016.395	0.723	1	congruent	Block2	congruent/STIM_014.jpg
2019.779	0.643	1	congruent	Block2	congruent/STIM_014.jpg
2023.718	0.632	1	congruent	Block2	congruent/STIM_014.jpg
2026.742	0.604	0	congruent	Block2	congruent/STIM_015.jpg
2031.221	0.989	1	congruent	Block2	congruent/STIM_015.jpg
2034.556	0.811	1	congruent	Block2	congruent/STIM_015.jpg
2038.273	0.907	1	congruent	Block2	congruent/STIM_015.jpg
2042.753	0.444	1	congruent	Block2	congruent/STIM_015.jpg
2046.175	0.801	1	congruent	Block2	congruent/STIM_016.jpg
2049.151	0.625	1	congruent	Block2	congruent/STIM_016.jpg
2052.995	0.585	1	congruent	Block2	congruent/STIM_016.jpg
2057.291	0.942	1	congruent	Block2	congruent/STIM_016.jpg
2060.998	0.858	1	congruent	Block2	congruent/STIM_016.jpg
2065.61	0.567	1	congruent	Block2	congruent/STIM_017.jpg
2068.318	0.765	1	congruent	Block2	congruent/STIM_017.jpg
2071.359	0.684	1	congruent	Block2	congruent/STIM_017.jpg
2075.854	0.751	1	congruent	Block2	congruent/STIM_017.jpg
2079.288	0.601	1	congruent	Block2	congruent/STIM_017.jpg
2081.978	0.544	1	congruent	Block2	congruent/STIM_018.jpg
2086.296	0.683	1	congruent	Block2	congruent/STIM_018.jpg
2090.508	0.814	1	congruent	Block2	congruent/STIM_018.jpg
2094.263	0.674	1	congruent	Block2	congruent/STIM_018.jpg
2098.079	0.688	1	congruent	Block2	congruent/STIM_018.jpg
2101.985	0.629	1	congruent	Block2	congruent/STIM_019.jpg
2106.511	0.686	1	congruent	Block2	congruent/STIM_019.jpg
2109.639	0.798	1	congruent	Block2	congruent/STIM_019.jpg
2112.941	0.728	1	congruent	Block2	congruent/STIM_019.jpg
2116.054	0.623	1	congruent	Block2	congruent/STIM_019.jpg
2119.664	0.787	1	congruent	Block2	congruent/STIM_020.jpg
2124.147	0.777	1	congruent	Block2	congruent/STIM_020.jpg
2128.278	0.7	1	congruent	Block2	congruent/STIM_020.jpg
2130.946	0.714	1	congruent	Block2	congruent/STIM_020.jpg
2133.779	0.685	1	congruent	Block2	congruent/STIM_020.jpg
2138.138	0.51	1	congruent	Block2	congruent/STIM_021.jpg
2141.464	0.571	1	congruent	Block2	congruent/STIM_021.jpg
2144.14	0.769	1	congruent	Block2	congruent/STIM_021.jpg
2148.677	0.481	0	congruent	Block2	congruent/STIM_021.jpg
2152.805	0.727	1	congruent	Block2	congruent/STIM_021.jpg
2155.915	0.949	1	congruent	Block2	congruent/STIM_022.jpg
2159.933	0.82	1	congruent	Block2	congruent/STIM_022.jpg
2162.788	0.715	1	congruent	Block2	congruent/STIM_022.jpg
2167.11	0.826	1	congruent	Block2	congruent/STIM_022.jpg
2170.509	0.66	1	congruent	Block2	congruent/STIM_022.jpg
2174.316	0.838	1	congruent	Block2	congruent/STIM_023.jpg
2178.302	0.852	1	congruent	Block2	congruent/STIM_023.jpg
2182.845	0.62	1	congruent	Block2	congruent/STIM_023.jpg
2186.901	0.594	1	congruent	Block2	congruent/STIM_023.jpg
2191.34	0.731	1	congruent	Block2	congruent/STIM_023.jpg
2195.265	0.923	1	congruent	Block2	congruent/STIM_024.jpg
2199.185	0.816	1	congruent	Block2	congruent/STIM_024.jpg
2203.434	0.803	1	congruent	Block2	congruent/STIM_024.jpg
2207.453	0.677	1	congruent	Block2	congruent/STIM_024.jpg
2210.355	0.581	1	congruent	Block2	congruent/STIM_024.jpg
2214.108	0.704	1	congruent	Block2	congruent/STIM_025.jpg
2216.852	0.651	1	congruent	Block2	congruent/STIM_025.jpg
2219.518	0.758	1	congruent	Block2	congruent/STIM_025.jpg
2223.335	0.786	1	congruent	Block2	congruent/STIM_025.jpg
2226.12	0.908	1	congruent	Block2	congruent/STIM_025.jpg
2230.443	0.85	1	congruent	Block2	congruent/STIM_026.jpg
2233.437	0.756	1	congruent	Block2	congruent/STIM_026.jpg
2236.425	1.002	1	congruent	Block2	congruent/STIM_026.jpg
2241.187	0.75	1	congruent	Block2	congruent/STIM_026.jpg
2244.779	0.924	1	congruent	Block2	congruent/STIM_026.jpg
2248.151	0.77	1	congruent	Block2	congruent/STIM_027.jpg
2252.607	0.943	1	congruent	Block2	congruent/STIM_027.jpg
2256.658	0.965	1	congruent	Block2	congruent/STIM_027.jpg
2261.401	0.881	1	congruent	Block2	congruent/STIM_027.jpg
2264.764	0.707	1	congruent	Block2	congruent/STIM_027.jpg
2267.719	0.764	1	congruent	Block2	congruent/STIM_028.jpg
2271.544	0.925	1	congruent	Block2	congruent/STIM_028.jpg
2276.193	0.641	1	congruent	Block2	congruent/STIM_028.jpg
2279.863	0.748	1	congruent	Block2	congruent/STIM_028.jpg
2284.177	0.836	1	congruent	Block2	congruent/STIM_028.jpg
2288.49	0.679	1	congruent	Block2	congruent/STIM_029.jpg
2291.56	0.545	1	congruent	Block2	congruent/STIM_029.jpg
2294.792	0.878	1	congruent	Block2	congruent/STIM_029.jpg
2298.626	0.902	1	congruent	Block2	congruent/STIM_029.jpg
2303.312	0.812	1	congruent	Block2	congruent/STIM_029.jpg
2307.623	1.079	1	incongruent	Block3	incongruent/STIM_000.jpg
2312.098	0.817	1	incongruent	Block3	incongruent/STIM_000.jpg
2316.345	0.776	1	incongruent	Block3	incongruent/STIM_000.jpg
2319.367	0.941	1	incongruent	Block3	incongruent/STIM_000.jpg
2324.009	1.064	1	incongruent	Block3	incongruent/STIM_000.jpg
2328.444	0.862	1	incongruent	Block3	incongruent/STIM_001.jpg
2331.91	0.952	1	incongruent	Block3	incongruent/STIM_001.jpg
2335.866	0.886	1	incongruent	Block3	incongruent/STIM_001.jpg
2340.629	0.707	1	incongruent	Block3	incongruent/STIM_001.jpg
2344.8	1.002	1	incongruent	Block3	incongruent/STIM_001.jpg
2349.52	0.588	1	incongruent	Block3	incongruent/STIM_002.jpg
2352.579	0.848	1	incongruent	Block3	incongruent/STIM_002.jpg
2356.21	0.849	1	incongruent	Block3	incongruent/STIM_002.jpg
2360.491	0.815	1	incongruent	Block3	incongruent/STIM_002.jpg
2364.682	0.75	1	incongruent	Block3	incongruent/STIM_002.jpg
2368.278	1.068	1	incongruent	Block3	incongruent/STIM_003.jpg
2372.914	1.057	1	incongruent	Block3	incongruent/STIM_003.jpg
2377.738	0.832	1	incongruent	Block3	incongruent/STIM_003.jpg
2381.985	0.678	1	incongruent	Block3	incongruent/STIM_003.jpg
2386.028	0.754	1	incongruent	Block3	incongruent/STIM_003.jpg
2390.103	0.598	1	incongruent	Block3	incongruent/STIM_004.jpg
2394.053	0.923	1	incongruent	Block3	incongruent/STIM_004.jpg
2398.923	0.904	1	incongruent	Block3	incongruent/STIM_004.jpg
2402.846	0.702	1	incongruent	Block3	incongruent/STIM_004.jpg
2406.724	0.871	1	incongruent	Block3	incongruent/STIM_004.jpg
2410.771	0.537	1	incongruent	Block3	incongruent/STIM_005.jpg
2414.635	0.643	1	incongruent	Block3	incongruent/STIM_005.jpg
2418.694	1.072	1	incongruent	Block3	incongruent/STIM_005.jpg
2422.372	0.877	1	incongruent	Block3	incongruent/STIM_005.jpg
2425.745	0.918	1	incongruent	Block3	incongruent/STIM_005.jpg
2429.095	1.086	1	incongruent	Block3	incongruent/STIM_006.jpg
2433.259	0.935	1	incongruent	Block3	incongruent/STIM_006.jpg
2437.341	0.86	1	incongruent	Block3	incongruent/STIM_006.jpg
2440.206	1.013	1	incongruent	Block3	incongruent/STIM_006.jpg
2444.7	0.858	1	incongruent	Block3	incongruent/STIM_006.jpg
2449.157	0.929	1	incongruent	Block3	incongruent/STIM_007.jpg
2453.889	0.789	1	incongruent	Block3	incongruent/STIM_007.jpg
2457.427	1.024	1	incongruent	Block3	incongruent/STIM_007.jpg
2461.18	0.789	1	incongruent	Block3	incongruent/STIM_007.jpg
2465.147	0.579	1	incongruent	Block3	incongruent/STIM_007.jpg
2469.621	0.764	1	incongruent	Block3	incongruent/STIM_008.jpg
2474.342	0.752	1	incongruent	Block3	incongruent/STIM_008.jpg
2477.011	0.955	1	incongruent	Block3	incongruent/STIM_008.jpg
2481.005	1.09	1	incongruent	Block3	incongruent/STIM_008.jpg
2484.785	0.917	1	incongruent	Block3	incongruent/STIM_008.jpg
2487.933	0.8	1	incongruent	Block3	incongruent/STIM_009.jpg
2492.255	0.52	1	incongruent	Block3	incongruent/STIM_009.jpg
2496.553	1.032	1	incongruent	Block3	incongruent/STIM_009.jpg
2501.146	1.045	1	incongruent	Block3	incongruent/STIM_009.jpg
2504.195	0.809	1	incongruent	Block3	incongruent/STIM_009.jpg
2508.264	0.967	1	incongruent	Block3	incongruent/STIM_010.jpg
2512.597	0.702	1	incongruent	Block3	incongruent/STIM_010.jpg
2516.291	0.812	1	incongruent	Block3	incongruent/STIM_010.jpg
2520.089	1.168	1	incongruent	Block3	incongruent/STIM_010.jpg
2524.034	1.042	1	incongruent	Block3	incongruent/STIM_010.jpg
2528.835	0.648	1	incongruent	Block3	incongruent/STIM_011.jpg
2532.152	1.006	1	incongruent	Block3	incongruent/STIM_011.jpg
2536.557	0.813	1	incongruent	Block3	incongruent/STIM_011.jpg
2540.002	0.626	1	incongruent	Block3	incongruent/STIM_011.jpg
2543.035	0.897	1	incongruent	Block3	incongruent/STIM_011.jpg
2547.118	1.104	1	incongruent	Block3	incongruent/STIM_012.jpg
2550.188	0.862	1	incongruent	Block3	incongruent/STIM_012.jpg
2554.048	1.082	1	incongruent	Block3	incongruent/STIM_012.jpg
2558.046	0.944	1	incongruent	Block3	incongruent/STIM_012.jpg
2561.333	0.956	1	incongruent	Block3	incongruent/STIM_012.jpg
2565.096	0.768	1	incongruent	Block3	incongruent/STIM_013.jpg
2568.266	0.682	1	incongruent	Block3	incongruent/STIM_013.jpg
2572.637	0.565	1	incongruent	Block3	incongruent/STIM_013.jpg
2576.408	0.6	1	incongruent	Block3	incongruent/STIM_013.jpg
2580.667	0.972	1	incongruent	Block3	incongruent/STIM_013.jpg
2584.157	0.755	1	incongruent	Block3	incongruent/STIM_014.jpg
2587.287	0.824	1	incongruent	Block3	incongruent/STIM_014.jpg
2590.155	0.69	1	incongruent	Block3	incongruent/STIM_014.jpg
2593.764	0.868	1	incongruent	Block3	incongruent/STIM_014.jpg
2597.15	0.476	1	incongruent	Block3	incongruent/STIM_014.jpg
2600.289	0.722	1	incongruent	Block3	incongruent/STIM_015.jpg
2604.647	0.868	1	incongruent	Block3	incongruent/STIM_015.jpg
2609.051	0.735	1	incongruent	Block3	incongruent/STIM_015.jpg
2612.921	0.596	1	incongruent	Block3	incongruent/STIM_015.jpg
2617.255	0.867	1	incongruent	Block3	incongruent/STIM_015.jpg
2620.975	0.648	1	incongruent	Block3	incongruent/STIM_016.jpg
2624.264	0.646	1	incongruent	Block3	incongruent/STIM_016.jpg
2627.986	0.95	1	incongruent	Block3	incongruent/STIM_016.jpg
2632.775	0.728	1	incongruent	Block3	incongruent/STIM_016.jpg
2635.96	0.576	1	incongruent	Block3	incongruent/STIM_016.jpg
2638.802	1.007	1	incongruent	Block3	incongruent/STIM_017.jpg
2643.638	0.642	1	incongruent	Block3	incongruent/STIM_017.jpg
2646.863	0.904	1	incongruent	Block3	incongruent/STIM_017.jpg
2650.514	0.905	1	incongruent	Block3	incongruent/STIM_017.jpg
2654.792	0.807	1	incongruent	Block3	incongruent/STIM_017.jpg
2658.04	0.905	1	incongruent	Block3	incongruent/STIM_018.jpg
2660.991	1.017	1	incongruent	Block3	incongruent/STIM_018.jpg
2664.085	0.919	1	incongruent	Block3	incongruent/STIM_018.jpg
2668.013	0.658	1	incongruent	Block3	incongruent/STIM_018.jpg
2671.685	0.697	1	incongruent	Block3	incongruent/STIM_018.jpg
2676.308	0.541	1	incongruent	Block3	incongruent/STIM_019.jpg
2680.001	0.556	1	incongruent	Block3	incongruent/STIM_019.jpg
2682.684	1.109	1	incongruent	Block3	incongruent/STIM_019.jpg
2686.168	0.99	1	incongruent	Block3	incongruent/STIM_019.jpg
2689.364	0.991	1	incongruent	Block3	incongruent/STIM_019.jpg
2693.604	0.639	1	incongruent	Block3	incongruent/STIM_020.jpg
2697.626	0.695	1	incongruent	Block3	incongruent/STIM_020.jpg
2700.919	0.913	1	incongruent	Block3	incongruent/STIM_020.jpg
2704.849	0.668	1	incongruent	Block3	incongruent/STIM_020.jpg
2709.249	0.653	1	incongruent	Block3	incongruent/STIM_020.jpg
2713.718	0.965	1	incongruent	Block3	incongruent/STIM_021.jpg
2717.117	0.943	1	incongruent	Block3	incongruent/STIM_021.jpg
2722.024	0.752	1	incongruent	Block3	incongruent/STIM_021.jpg
2726.473	0.593	1	incongruent	Block3	incongruent/STIM_021.jpg
2729.314	0.896	1	incongruent	Block3	incongruent/STIM_021.jpg
2732.896	1.114	1	incongruent	Block3	incongruent/STIM_022.jpg
2737.069	1.019	1	incongruent	Block3	incongruent/STIM_022.jpg
2741.44	0.66	1	incongruent	Block3	incongruent/STIM_022.jpg
2744.365	0.855	1	incongruent	Block3	incongruent/STIM_022.jpg
2748.727	0.558	1	incongruent	Block3	incongruent/STIM_022.jpg
2752.19	0.834	1	incongruent	Block3	incongruent/STIM_023.jpg
2755.631	0.923	1	incongruent	Block3	incongruent/STIM_023.jpg
2760.217	0.61	1	incongruent	Block3	incongruent/STIM_023.jpg
2764.681	0.795	1	incongruent	Block3	incongruent/STIM_023.jpg
2769.136	1.02	1	incongruent	Block3	incongruent/STIM_023.jpg
2772.55	0.742	0	incongruent	Block3	incongruent/STIM_024.jpg
2776.485	0.694	1	incongruent	Block3	incongruent/STIM_024.jpg
2779.52	0.522	1	incongruent	Block3	incongruent/STIM_024.jpg
2783.303	0.861	1	incongruent	Block3	incongruent/STIM_024.jpg
2787.793	0.961	1	incongruent	Block3	incongruent/STIM_024.jpg
2792.683	0.763	1	incongruent	Block3	incongruent/STIM_025.jpg
2797.298	0.825	1	incongruent	Block3	incongruent/STIM_025.jpg
2800.586	1.091	1	incongruent	Block3	incongruent/STIM_025.jpg
2803.642	0.848	1	incongruent	Block3	incongruent/STIM_025.jpg
2808.168	0.729	1	incongruent	Block3	incongruent/STIM_025.jpg
2811.743	0.646	1	incongruent	Block3	incongruent/STIM_026.jpg
2816.378	0.633	1	incongruent	Block3	incongruent/STIM_026.jpg
2820.024	0.781	1	incongruent	Block3	incongruent/STIM_026.jpg
2824.019	0.877	1	incongruent	Block3	incongruent/STIM_026.jpg
2827.781	0.981	1	incongruent	Block3	incongruent/STIM_026.jpg
2831.473	1.007	1	incongruent	Block3	incongruent/STIM_027.jpg
2835.81	0.622	1	incongruent	Block3	incongruent/STIM_027.jpg
2840.325	1.064	1	incongruent	Block3	incongruent/STIM_027.jpg
2845.131	0.941	1	incongruent	Block3	incongruent/STIM_027.jpg
2849.622	0.663	1	incongruent	Block3	incongruent/STIM_027.jpg
2853.69	1.008	1	incongruent	Block3	incongruent/STIM_028.jpg
2858.274	0.796	1	incongruent	Block3	incongruent/STIM_028.jpg
2861.792	0.52	1	incongruent	Block3	incongruent/STIM_028.jpg
2865.044	0.821	1	incongruent	Block3	incongruent/STIM_028.jpg
2868.484	0.821	1	incongruent	Block3	incongruent/STIM_028.jpg
2872.988	0.851	1	incongruent	Block3	incongruent/STIM_029.jpg
2877.427	1.06	1	incongruent	Block3	incongruent/STIM_029.jpg
2881.406	0.611	1	incongruent	Block3	incongruent/STIM_029.jpg
2884.775	0.47	1	incongruent	Block3	incongruent/STIM_029.jpg
2889.241	0.766	1	incongruent	Block3	incongruent/STIM_029.jpg
2892.386	0.906	1	congruent	Block3	congruent/STIM_000.jpg
2897.046	0.814	1	congruent	Block3	congruent/STIM_000.jpg
2901.479	0.927	1	congruent	Block3	congruent/STIM_000.jpg
2904.483	0.575	1	congruent	Block3	congruent/STIM_000.jpg
2908.162	0.544	1	congruent	Block3	congruent/STIM_000.jpg
2911.702	0.77	1	congruent	Block3	congruent/STIM_001.jpg
2915.573	0.854	1	congruent	Block3	congruent/STIM_001.jpg
2919.396	0.733	1	congruent	Block3	congruent/STIM_001.jpg
2923.568	0.498	1	congruent	Block3	congruent/STIM_001.jpg
2926.862	0.582	1	congruent	Block3	congruent/STIM_001.jpg
2929.677	0.962	1	congruent	Block3	congruent/STIM_002.jpg
2933.531	0.745	1	congruent	Block3	congruent/STIM_002.jpg
2936.292	0.669	1	congruent	Block3	congruent/STIM_002.jpg
2940.631	0.592	1	congruent	Block3	congruent/STIM_002.jpg
2944.983	0.594	1	congruent	Block3	congruent/STIM_002.jpg
2949.311	0.879	1	congruent	Block3	congruent/STIM_003.jpg
2953.315	0.608	1	congruent	Block3	congruent/STIM_003.jpg
2957.728	0.631	1	congruent	Block3	congruent/STIM_003.jpg
2960.661	0.818	1	congruent	Block3	congruent/STIM_003.jpg
2964.588	0.9	1	congruent	Block3	congruent/STIM_003.jpg
2969.198	0.633	1	congruent	Block3	congruent/STIM_004.jpg
2973.099	0.906	1	congruent	Block3	congruent/STIM_004.jpg
2977.124	0.851	0	congruent	Block3	congruent/STIM_004.jpg
2980.126	1.001	1	congruent	Block3	congruent/STIM_004.jpg
2983.411	0.839	1	congruent	Block3	congruent/STIM_004.jpg
2986.503	0.751	1	congruent	Block3	congruent/STIM_005.jpg
2989.785	0.69	1	congruent	Block3	congruent/STIM_005.jpg
2992.711	0.754	1	congruent	Block3	congruent/STIM_005.jpg
2996.109	0.569	1	congruent	Block3	congruent/STIM_005.jpg
2999.71	0.869	1	congruent	Block3	congruent/STIM_005.jpg
3003.804	0.689	1	congruent	Block3	congruent/STIM_006.jpg
3007.962	0.931	1	congruent	Block3	congruent/STIM_006.jpg
3011.355	0.525	1	congruent	Block3	congruent/STIM_006.jpg
3015.766	1.01	1	congruent	Block3	congruent/STIM_006.jpg
3020.07	0.774	1	congruent	Block3	congruent/STIM_006.jpg
3023.297	0.789	1	congruent	Block3	congruent/STIM_007.jpg
3026.153	0.689	1	congruent	Block3	congruent/STIM_007.jpg
3029.941	0.615	1	congruent	Block3	congruent/STIM_007.jpg
3032.512	0.682	1	congruent	Block3	congruent/STIM_007.jpg
3035.509	0.673	1	congruent	Block3	congruent/STIM_007.jpg
3038.92	0.502	1	congruent	Block3	congruent/STIM_008.jpg
3043.204	0.851	1	congruent	Block3	congruent/STIM_008.jpg
3046.939	0.649	1	congruent	Block3	congruent/STIM_008.jpg
3049.505	1.007	0	congruent	Block3	congruent/STIM_008.jpg
3054.179	0.527	1	congruent	Block3	congruent/STIM_008.jpg
3057.167	0.698	1	congruent	Block3	congruent/STIM_009.jpg
3061.497	0.673	1	congruent	Block3	congruent/STIM_009.jpg
3064.98	0.809	1	congruent	Block3	congruent/STIM_009.jpg
3068.001	0.828	1	congruent	Block3	congruent/STIM_009.jpg
3072.052	0.86	1	congruent	Block3	congruent/STIM_009.jpg
3075.787	0.812	1	congruent	Block3	congruent/STIM_010.jpg
3078.578	0.546	1	congruent	Block3	congruent/STIM_010.jpg
3081.571	0.809	1	congruent	Block3	congruent/STIM_010.jpg
3085.357	0.896	1	congruent	Block3	congruent/STIM_010.jpg
3089.56	0.707	1	congruent	Block3	congruent/STIM_010.jpg
3093.127	0.89	1	congruent	Block3	congruent/STIM_011.jpg
3097.207	0.652	0	congruent	Block3	congruent/STIM_011.jpg
3101.157	0.575	1	congruent	Block3	congruent/STIM_011.jpg
3104.761	0.611	1	congruent	Block3	congruent/STIM_011.jpg
3107.597	0.976	0	congruent	Block3	congruent/STIM_011.jpg
3110.951	0.78	1	congruent	Block3	congruent/STIM_012.jpg
3113.688	0.676	1	congruent	Block3	congruent/STIM_012.jpg
3117.091	0.647	1	congruent	Block3	congruent/STIM_012.jpg
3121.461	0.764	1	congruent	Block3	congruent/STIM_012.jpg
3124.802	0.559	0	congruent	Block3	congruent/STIM_012.jpg
3129.282	0.978	1	congruent	Block3	congruent/STIM_013.jpg
3133.345	0.808	1	congruent	Block3	congruent/STIM_013.jpg
3137.671	0.561	1	congruent	Block3	congruent/STIM_013.jpg
3140.886	0.781	1	congruent	Block3	congruent/STIM_013.jpg
3143.769	0.871	1	congruent	Block3	congruent/STIM_013.jpg
3148.345	0.961	0	congruent	Block3	congruent/STIM_014.jpg
3152.218	0.548	1	congruent	Block3	congruent/STIM_014.jpg
3156.674	0.734	1	congruent	Block3	congruent/STIM_014.jpg
3160.781	0.863	1	congruent	Block3	congruent/STIM_014.jpg
3164.916	0.729	1	congruent	Block3	congruent/STIM_014.jpg
3168.263	0.672	1	congruent	Block3	congruent/STIM_015.jpg
3172.189	0.713	1	congruent	Block3	congruent/STIM_015.jpg
3175.394	0.805	0	congruent	Block3	congruent/STIM_015.jpg
3179.269	0.61	1	congruent	Block3	congruent/STIM_015.jpg
3183.657	0.855	1	congruent	Block3	congruent/STIM_015.jpg
3186.866	0.686	1	congruent	Block3	congruent/STIM_016.jpg
3190.898	0.662	1	congruent	Block3	congruent/STIM_016.jpg
3194.488	0.933	1	congruent	Block3	congruent/STIM_016.jpg
3197.857	0.808	1	congruent	Block3	congruent/STIM_016.jpg
3200.99	0.989	1	congruent	Block3	congruent/STIM_016.jpg
3205.377	0.6	1	congruent	Block3	congruent/STIM_017.jpg
3208.676	0.568	1	congruent	Block3	congruent/STIM_017.jpg
3212.165	0.682	1	congruent	Block3	congruent/STIM_017.jpg
3216.414	0.825	1	congruent	Block3	congruent/STIM_017.jpg
3220.354	0.699	1	congruent	Block3	congruent/STIM_017.jpg
3224.569	0.458	1	congruent	Block3	congruent/STIM_018.jpg
3227.959	0.556	1	congruent	Block3	congruent/STIM_018.jpg
3231.102	0.874	0	congruent	Block3	congruent/STIM_018.jpg
3234.569	0.612	1	congruent	Block3	congruent/STIM_018.jpg
3238.347	0.67	1	congruent	Block3	congruent/STIM_018.jpg
3242.608	0.773	1	congruent	Block3	congruent/STIM_019.jpg
3245.434	0.925	1	congruent	Block3	congruent/STIM_019.jpg
3249.148	0.654	1	congruent	Block3	congruent/STIM_019.jpg
3252.159	0.503	1	congruent	Block3	congruent/STIM_019.jpg
3255.746	0.862	1	congruent	Block3	congruent/STIM_019.jpg
3258.592	0.564	1	congruent	Block3	congruent/STIM_020.jpg
3262.144	0.605	1	congruent	Block3	congruent/STIM_020.jpg
3265.71	0.907	1	congruent	Block3	congruent/STIM_020.jpg
3269.971	0.859	1	congruent	Block3	congruent/STIM_020.jpg
3274.149	0.664	1	congruent	Block3	congruent/STIM_020.jpg
3278.243	0.611	1	congruent	Block3	congruent/STIM_021.jpg
3282.767	0.905	1	congruent	Block3	congruent/STIM_021.jpg
3287.072	0.58	1	congruent	Block3	congruent/STIM_021.jpg
3291.44	0.635	1	congruent	Block3	congruent/STIM_021.jpg
3295.791	0.546	1	congruent	Block3	congruent/STIM_021.jpg
3299.914	0.758	0	congruent	Block3	congruent/STIM_022.jpg
3303.807	0.65	1	congruent	Block3	congruent/STIM_022.jpg
3307.362	1.004	1	congruent	Block3	congruent/STIM_022.jpg
3311.374	0.756	1	congruent	Block3	congruent/STIM_022.jpg
3315.263	0.966	1	congruent	Block3	congruent/STIM_022.jpg
3318.694	0.899	1	congruent	Block3	congruent/STIM_023.jpg
3322.499	0.663	1	congruent	Block3	congruent/STIM_023.jpg
3325.448	0.699	1	congruent	Block3	congruent/STIM_023.jpg
3328.397	0.912	1	congruent	Block3	congruent/STIM_023.jpg
3331.491	0.58	1	congruent	Block3	congruent/STIM_023.jpg
3335.089	0.788	1	congruent	Block3	congruent/STIM_024.jpg
3339.699	0.573	0	congruent	Block3	congruent/STIM_024.jpg
3343.602	0.805	1	congruent	Block3	congruent/STIM_024.jpg
3347.28	0.96	1	congruent	Block3	congruent/STIM_024.jpg
3350.229	0.688	1	congruent	Block3	congruent/STIM_024.jpg
3352.971	0.757	1	congruent	Block3	congruent/STIM_025.jpg
3356.819	0.784	1	congruent	Block3	congruent/STIM_025.jpg
3360.99	0.856	1	congruent	Block3	congruent/STIM_025.jpg
3365.31	0.729	1	congruent	Block3	congruent/STIM_025.jpg
3368.458	0.684	1	congruent	Block3	congruent/STIM_025.jpg
3373.017	0.681	1	congruent	Block3	congruent/STIM_026.jpg
3377.042	0.689	1	congruent	Block3	congruent/STIM_026.jpg
3379.872	0.789	1	congruent	Block3	congruent/STIM_026.jpg
3384.213	0.769	0	congruent	Block3	congruent/STIM_026.jpg
3388.798	0.656	1	congruent	Block3	congruent/STIM_026.jpg
3392.839	0.887	1	congruent	Block3	congruent/STIM_027.jpg
3395.748	0.702	1	congruent	Block3	congruent/STIM_027.jpg
3400.239	0.933	1	congruent	Block3	congruent/STIM_027.jpg
3403.85	0.743	1	congruent	Block3	congruent/STIM_027.jpg
3407.835	0.906	1	congruent	Block3	congruent/STIM_027.jpg
3410.896	0.862	1	congruent	Block3	congruent/STIM_028.jpg
3414.714	0.778	1	congruent	Block3	congruent/STIM_028.jpg
3419.285	0.659	1	congruent	Block3	congruent/STIM_028.jpg
3423.036	0.835	1	congruent	Block3	congruent/STIM_028.jpg
3427.403	0.695	1	congruent	Block3	congruent/STIM_028.jpg
3431.392	0.648	1	congruent	Block3	congruent/STIM_029.jpg
3435.756	0.414	1	congruent	Block3	congruent/STIM_029.jpg
3440.234	0.707	1	congruent	Block3	congruent/STIM_029.jpg
3443.306	0.888	1	congruent	Block3	congruent/STIM_029.jpg
3446.268	0.884	1	congruent	Block3	congruent/STIM_029.jpg
