onset	duration	response_time_ms	trial_type	learning_stage	stimulus	response_port
0.0	0.967	967.1	incongruent	Block1	incongruent/STIM_000.jpg	99
3.406	1.007	1007.4	incongruent	Block1	incongruent/STIM_000.jpg	100
8.002	0.927	926.9	incongruent	Block1	incongruent/STIM_000.jpg	100
11.445	1.145	1144.8	incongruent	Block1	incongruent/STIM_000.jpg	100
15.864	0.822	821.6	incongruent	Block1	incongruent/STIM_000.jpg	99
19.067	1.587	1587.1	incongruent	Block1	incongruent/STIM_001.jpg	99
24.239	0.965	964.7	incongruent	Block1	incongruent/STIM_001.jpg	100
28.254	1.441	1441.4	incongruent	Block1	incongruent/STIM_001.jpg	99
33.092	1.135	1134.7	incongruent	Block1	incongruent/STIM_001.jpg	99
38.055	1.11	1109.5	incongruent	Block1	incongruent/STIM_001.jpg	99
41.421	1.16	1159.7	incongruent	Block1	incongruent/STIM_002.jpg	100
46.145	0.9	900.0	incongruent	Block1	incongruent/STIM_002.jpg	99
50.984	1.128	1127.7	incongruent	Block1	incongruent/STIM_002.jpg	99
54.569	1.319	1318.9	incongruent	Block1	incongruent/STIM_002.jpg	100
58.736	0.78	780.3	incongruent	Block1	incongruent/STIM_002.jpg	99
63.306	1.511	1510.6	incongruent	Block1	incongruent/STIM_003.jpg	100
68.545	0.722	721.5	incongruent	Block1	incongruent/STIM_003.jpg	100
73.028	1.203	1202.7	incongruent	Block1	incongruent/STIM_003.jpg	99
76.943	1.292	1292.1	incongruent	Block1	incongruent/STIM_003.jpg	100
80.181	0.731	730.7	incongruent	Block1	incongruent/STIM_003.jpg	99
84.535	1.397	1396.8	incongruent	Block1	incongruent/STIM_004.jpg	100
88.607	1.244	1244.1	incongruent	Block1	incongruent/STIM_004.jpg	100
92.199	1.052	1051.6	incongruent	Block1	incongruent/STIM_004.jpg	99
95.766	1.274	1274.3	incongruent	Block1	incongruent/STIM_004.jpg	100
100.87	1.169	1169.3	incongruent	Block1	incongruent/STIM_004.jpg	99
105.589	1.649	1649.1	incongruent	Block1	incongruent/STIM_005.jpg	99
109.592	1.092	1092.4	incongruent	Block1	incongruent/STIM_005.jpg	100
113.855	0.819	818.7	incongruent	Block1	incongruent/STIM_005.jpg	99
117.495	1.144	1144.3	incongruent	Block1	incongruent/STIM_005.jpg	100
121.71	0.97	969.7	incongruent	Block1	incongruent/STIM_005.jpg	99
125.232	0.814	813.8	incongruent	Block1	incongruent/STIM_006.jpg	100
129.326	0.872	871.5	incongruent	Block1	incongruent/STIM_006.jpg	100
133.597	0.934	933.6	incongruent	Block1	incongruent/STIM_006.jpg	100
136.608	0.907	907.2	incongruent	Block1	incongruent/STIM_006.jpg	99
141.148	1.215	1214.9	incongruent	Block1	incongruent/STIM_006.jpg	100
146.192	0.736	736.0	incongruent	Block1	incongruent/STIM_007.jpg	100
149.229	0.807	807.0	incongruent	Block1	incongruent/STIM_007.jpg	100
152.269	0.708	708.0	incongruent	Block1	incongruent/STIM_007.jpg	99
156.346	0.652	652.4	incongruent	Block1	incongruent/STIM_007.jpg	100
160.465	1.092	1092.0	incongruent	Block1	incongruent/STIM_007.jpg	99
164.619	0.78	780.5	incongruent	Block1	incongruent/STIM_008.jpg	99
167.45	1.353	1353.0	incongruent	Block1	incongruent/STIM_008.jpg	99
171.07	0.804	804.1	incongruent	Block1	incongruent/STIM_008.jpg	99
174.528	0.856	856.4	incongruent	Block1	incongruent/STIM_008.jpg	99
178.828	0.923	923.4	incongruent	Block1	incongruent/STIM_008.jpg	99
183.257	1.35	1350.2	incongruent	Block1	incongruent/STIM_009.jpg	99
188.464	1.468	1467.5	incongruent	Block1	incongruent/STIM_009.jpg	99
192.003	0.804	803.8	incongruent	Block1	incongruent/STIM_009.jpg	100
196.272	1.328	1327.6	incongruent	Block1	incongruent/STIM_009.jpg	99
200.228	0.641	640.6	incongruent	Block1	incongruent/STIM_009.jpg	99
204.6	1.112	1112.1	incongruent	Block1	incongruent/STIM_010.jpg	100
209.382	0.982	982.5	incongruent	Block1	incongruent/STIM_010.jpg	100
212.569	1.1	1099.5	incongruent	Block1	incongruent/STIM_010.jpg	100
216.194	0.82	819.9	incongruent	Block1	incongruent/STIM_010.jpg	100
219.899	1.134	1134.2	incongruent	Block1	incongruent/STIM_010.jpg	99
223.982	1.162	1161.6	incongruent	Block1	incongruent/STIM_011.jpg	100
228.256	1.244	1243.7	incongruent	Block1	incongruent/STIM_011.jpg	99
232.383	1.069	1068.8	incongruent	Block1	incongruent/STIM_011.jpg	99
237.153	0.716	716.3	incongruent	Block1	incongruent/STIM_011.jpg	100
241.622	0.774	774.3	incongruent	Block1	incongruent/STIM_011.jpg	100
245.194	1.048	1048.4	incongruent	Block1	incongruent/STIM_012.jpg	99
248.668	0.961	961.2	incongruent	Block1	incongruent/STIM_012.jpg	100
253.255	0.874	874.0	incongruent	Block1	incongruent/STIM_012.jpg	100
257.034	0.77	769.6	incongruent	Block1	incongruent/STIM_012.jpg	99
260.158	1.039	1038.6	incongruent	Block1	incongruent/STIM_012.jpg	99
265.088	1.128	1127.5	incongruent	Block1	incongruent/STIM_013.jpg	99
269.475	1.099	1098.9	incongruent	Block1	incongruent/STIM_013.jpg	100
272.542	0.872	871.7	incongruent	Block1	incongruent/STIM_013.jpg	100
276.104	1.109	1109.0	incongruent	Block1	incongruent/STIM_013.jpg	100
280.577	1.197	1197.2	incongruent	Block1	incongruent/STIM_013.jpg	100
284.4	1.141	1141.2	incongruent	Block1	incongruent/STIM_014.jpg	99
289.116	1.347	1347.4	incongruent	Block1	incongruent/STIM_014.jpg	99
294.013	1.162	1161.7	incongruent	Block1	incongruent/STIM_014.jpg	100
298.319	1.278	1277.5	incongruent	Block1	incongruent/STIM_014.jpg	100
302.79	0.723	722.6	incongruent	Block1	incongruent/STIM_014.jpg	99
307.278	1.424	1424.4	incongruent	Block1	incongruent/STIM_015.jpg	100
312.188	1.308	1307.6	incongruent	Block1	incongruent/STIM_015.jpg	100
316.887	1.286	1285.6	incongruent	Block1	incongruent/STIM_015.jpg	99
321.143	1.029	1028.9	incongruent	Block1	incongruent/STIM_015.jpg	100
325.647	0.62	620.0	incongruent	Block1	incongruent/STIM_015.jpg	99
329.535	1.162	1162.4	incongruent	Block1	incongruent/STIM_016.jpg	99
333.349	1.395	1394.9	incongruent	Block1	incongruent/STIM_016.jpg	99
338.259	1.164	1163.9	incongruent	Block1	incongruent/STIM_016.jpg	100
343.307	1.124	1124.1	incongruent	Block1	incongruent/STIM_016.jpg	100
346.783	0.771	771.2	incongruent	Block1	incongruent/STIM_016.jpg	99
350.726	0.877	877.0	incongruent	Block1	incongruent/STIM_017.jpg	100
355.401	0.824	824.4	incongruent	Block1	incongruent/STIM_017.jpg	99
359.509	1.178	1177.6	incongruent	Block1	incongruent/STIM_017.jpg	99
364.202	1.14	1140.0	incongruent	Block1	incongruent/STIM_017.jpg	99
369.038	1.193	1193.3	incongruent	Block1	incongruent/STIM_017.jpg	99
372.604	1.388	1387.7	incongruent	Block1	incongruent/STIM_018.jpg	100
377.354	1.427	1427.0	incongruent	Block1	incongruent/STIM_018.jpg	100
382.348	0.716	715.6	incongruent	Block1	incongruent/STIM_018.jpg	99
385.194	0.592	592.1	incongruent	Block1	incongruent/STIM_018.jpg	100
388.024	0.906	905.8	incongruent	Block1	incongruent/STIM_018.jpg	100
392.015	0.939	939.2	incongruent	Block1	incongruent/STIM_019.jpg	99
395.719	0.855	855.3	incongruent	Block1	incongruent/STIM_019.jpg	99
398.882	0.784	784.0	incongruent	Block1	incongruent/STIM_019.jpg	99
403.417	0.73	729.5	incongruent	Block1	incongruent/STIM_019.jpg	100
406.989	1.046	1045.5	incongruent	Block1	incongruent/STIM_019.jpg	100
410.074	1.4	1400.4	incongruent	Block1	incongruent/STIM_020.jpg	100
413.794	1.307	1307.0	incongruent	Block1	incongruent/STIM_020.jpg	99
418.793	1.359	1358.6	incongruent	Block1	incongruent/STIM_020.jpg	99
423.676	1.014	1013.5	incongruent	Block1	incongruent/STIM_020.jpg	100
427.496	0.617	616.6	incongruent	Block1	incongruent/STIM_020.jpg	99
430.44	1.256	1255.9	incongruent	Block1	incongruent/STIM_021.jpg	100
433.955	1.442	1441.9	incongruent	Block1	incongruent/STIM_021.jpg	99
439.098	1.014	1013.7	incongruent	Block1	incongruent/STIM_021.jpg	99
442.437	0.999	998.7	incongruent	Block1	incongruent/STIM_021.jpg	99
445.746	1.155	1154.9	incongruent	Block1	incongruent/STIM_021.jpg	100
449.499	0.866	866.4	incongruent	Block1	incongruent/STIM_022.jpg	99
453.459	1.31	1310.0	incongruent	Block1	incongruent/STIM_022.jpg	100
457.907	0.932	932.4	incongruent	Block1	incongruent/STIM_022.jpg	99
461.522	0.843	842.8	incongruent	Block1	incongruent/STIM_022.jpg	99
464.882	1.023	1023.0	incongruent	Block1	incongruent/STIM_022.jpg	100
468.927	0.977	977.2	incongruent	Block1	incongruent/STIM_023.jpg	99
473.309	1.529	1529.2	incongruent	Block1	incongruent/STIM_023.jpg	99
478.051	0.736	735.8	incongruent	Block1	incongruent/STIM_023.jpg	99
482.549	1.385	1385.4	incongruent	Block1	incongruent/STIM_023.jpg	100
487.268	0.974	973.5	incongruent	Block1	incongruent/STIM_023.jpg	100
490.879	1.556	1555.7	incongruent	Block1	incongruent/STIM_024.jpg	100
495.909	1.085	1084.9	incongruent	Block1	incongruent/STIM_024.jpg	99
500.644	0.813	812.6	incongruent	Block1	incongruent/STIM_024.jpg	99
505.053	1.127	1126.9	incongruent	Block1	incongruent/STIM_024.jpg	99
508.194	0.977	976.7	incongruent	Block1	incongruent/STIM_024.jpg	99
511.441	1.088	1088.3	incongruent	Block1	incongruent/STIM_025.jpg	100
515.505	1.023	1022.7	incongruent	Block1	incongruent/STIM_025.jpg	99
519.942	0.812	811.8	incongruent	Block1	incongruent/STIM_025.jpg	99
523.597	0.621	620.8	incongruent	Block1	incongruent/STIM_025.jpg	99
526.507	0.718	717.5	incongruent	Block1	incongruent/STIM_025.jpg	99
530.75	1.235	1235.1	incongruent	Block1	incongruent/STIM_026.jpg	99
533.936	1.427	1427.1	incongruent	Block1	incongruent/STIM_026.jpg	99
538.086	0.88	879.6	incongruent	Block1	incongruent/STIM_026.jpg	100
541.15	0.952	951.8	incongruent	Block1	incongruent/STIM_026.jpg	100
545.095	0.717	716.6	incongruent	Block1	incongruent/STIM_026.jpg	99
549.468	1.334	1334.0	incongruent	Block1	incongruent/STIM_027.jpg	99
552.863	0.844	843.6	incongruent	Block1	incongruent/STIM_027.jpg	100
556.776	0.982	982.2	incongruent	Block1	incongruent/STIM_027.jpg	100
560.757	0.794	794.1	incongruent	Block1	incongruent/STIM_027.jpg	100
564.037	1.104	1104.0	incongruent	Block1	incongruent/STIM_027.jpg	100
568.682	1.085	1085.1	incongruent	Block1	incongruent/STIM_028.jpg	99
573.187	0.937	936.8	incongruent	Block1	incongruent/STIM_028.jpg	100
576.735	1.133	1133.1	incongruent	Block1	incongruent/STIM_028.jpg	100
580.762	0.834	834.4	incongruent	Block1	incongruent/STIM_028.jpg	100
585.193	1.042	1042.2	incongruent	Block1	incongruent/STIM_028.jpg	99
588.923	1.253	1252.6	incongruent	Block1	incongruent/STIM_029.jpg	100
592.497	1.296	1296.2	incongruent	Block1	incongruent/STIM_029.jpg	99
595.963	0.67	670.5	incongruent	Block1	incongruent/STIM_029.jpg	99
599.994	1.074	1074.4	incongruent	Block1	incongruent/STIM_029.jpg	99
604.272	1.012	1012.2	incongruent	Block1	incongruent/STIM_029.jpg	100
607.813	0.859	858.8	congruent	Block1	congruent/STIM_000.jpg	99
611.84	0.675	675.3	congruent	Block1	congruent/STIM_000.jpg	99
615.103	0.684	684.1	congruent	Block1	congruent/STIM_000.jpg	99
619.729	0.819	819.1	congruent	Block1	congruent/STIM_000.jpg	99
623.373	0.731	730.7	congruent	Block1	congruent/STIM_000.jpg	99
626.949	0.626	625.6	congruent	Block1	congruent/STIM_001.jpg	100
630.839	0.595	594.7	congruent	Block1	congruent/STIM_001.jpg	99
634.16	0.795	794.7	congruent	Block1	congruent/STIM_001.jpg	99
637.632	0.598	597.5	congruent	Block1	congruent/STIM_001.jpg	100
641.253	0.896	895.6	congruent	Block1	congruent/STIM_001.jpg	100
645.091	0.482	481.5	congruent	Block1	congruent/STIM_002.jpg	99
649.387	0.493	492.7	congruent	Block1	congruent/STIM_002.jpg	100
652.078	0.837	836.8	congruent	Block1	congruent/STIM_002.jpg	100
656.185	0.555	554.6	congruent	Block1	congruent/STIM_002.jpg	100
660.279	0.788	788.3	congruent	Block1	congruent/STIM_002.jpg	99
663.507	0.565	564.8	congruent	Block1	congruent/STIM_003.jpg	100
666.174	0.75	750.3	congruent	Block1	congruent/STIM_003.jpg	100
668.938	0.645	645.0	congruent	Block1	congruent/STIM_003.jpg	100
672.627	0.973	973.0	congruent	Block1	congruent/STIM_003.jpg	99
675.695	0.919	919.3	congruent	Block1	congruent/STIM_003.jpg	100
678.986	0.713	712.8	congruent	Block1	congruent/STIM_004.jpg	100
682.574	0.896	895.5	congruent	Block1	congruent/STIM_004.jpg	100
685.841	0.938	938.1	congruent	Block1	congruent/STIM_004.jpg	99
690.487	0.694	693.7	congruent	Block1	congruent/STIM_004.jpg	99
694.014	0.904	903.5	congruent	Block1	congruent/STIM_004.jpg	99
698.382	0.589	588.7	congruent	Block1	congruent/STIM_005.jpg	99
701.939	0.691	690.7	congruent	Block1	congruent/STIM_005.jpg	100
706.514	0.985	984.7	congruent	Block1	congruent/STIM_005.jpg	99
711.328	0.824	824.5	congruent	Block1	congruent/STIM_005.jpg	99
715.982	0.939	939.0	congruent	Block1	congruent/STIM_005.jpg	99
720.63	0.682	682.3	congruent	Block1	congruent/STIM_006.jpg	100
724.195	0.601	600.6	congruent	Block1	congruent/STIM_006.jpg	99
728.279	0.582	581.8	congruent	Block1	congruent/STIM_006.jpg	99
731.43	0.826	825.8	congruent	Block1	congruent/STIM_006.jpg	99
735.078	0.94	939.9	congruent	Block1	congruent/STIM_006.jpg	100
739.154	0.921	921.0	congruent	Block1	congruent/STIM_007.jpg	99
743.216	0.882	882.3	congruent	Block1	congruent/STIM_007.jpg	99
746.846	0.536	536.2	congruent	Block1	congruent/STIM_007.jpg	100
749.983	0.62	619.6	congruent	Block1	congruent/STIM_007.jpg	99
752.629	0.673	673.4	congruent	Block1	congruent/STIM_007.jpg	99
755.754	0.665	665.2	congruent	Block1	congruent/STIM_008.jpg	99
759.456	0.882	882.0	congruent	Block1	congruent/STIM_008.jpg	99
763.294	0.943	943.1	congruent	Block1	congruent/STIM_008.jpg	100
767.666	0.727	726.6	congruent	Block1	congruent/STIM_008.jpg	100
771.688	0.808	808.2	congruent	Block1	congruent/STIM_008.jpg	100
775.866	0.929	928.9	congruent	Block1	congruent/STIM_009.jpg	100
780.418	0.68	679.5	congruent	Block1	congruent/STIM_009.jpg	100
783.555	0.504	504.1	congruent	Block1	congruent/STIM_009.jpg	100
786.348	0.612	612.0	congruent	Block1	congruent/STIM_009.jpg	100
790.085	0.918	918.3	congruent	Block1	congruent/STIM_009.jpg	99
793.351	0.83	830.3	congruent	Block1	congruent/STIM_010.jpg	99
797.795	0.972	972.0	congruent	Block1	congruent/STIM_010.jpg	100
800.76	0.696	695.5	congruent	Block1	congruent/STIM_010.jpg	99
805.192	0.744	744.3	congruent	Block1	congruent/STIM_010.jpg	99
809.905	0.846	845.8	congruent	Block1	congruent/STIM_010.jpg	99
813.609	0.661	661.2	congruent	Block1	congruent/STIM_011.jpg	100
816.603	0.605	604.8	congruent	Block1	congruent/STIM_011.jpg	99
821.144	0.885	884.9	congruent	Block1	congruent/STIM_011.jpg	99
825.147	0.875	874.9	congruent	Block1	congruent/STIM_011.jpg	99
828.969	0.842	842.3	congruent	Block1	congruent/STIM_011.jpg	99
832.282	1.011	1010.9	congruent	Block1	congruent/STIM_012.jpg	99
837.004	0.919	919.2	congruent	Block1	congruent/STIM_012.jpg	99
841.682	0.672	672.0	congruent	Block1	congruent/STIM_012.jpg	100
844.576	0.734	734.0	congruent	Block1	congruent/STIM_012.jpg	100
848.845	0.66	660.4	congruent	Block1	congruent/STIM_012.jpg	99
852.496	0.893	893.3	congruent	Block1	congruent/STIM_013.jpg	100
855.358	0.912	912.1	congruent	Block1	congruent/STIM_013.jpg	99
859.146	0.792	792.4	congruent	Block1	congruent/STIM_013.jpg	99
862.819	0.676	676.1	congruent	Block1	congruent/STIM_013.jpg	100
866.648	0.654	653.9	congruent	Block1	congruent/STIM_013.jpg	100
869.576	0.755	755.4	congruent	Block1	congruent/STIM_014.jpg	100
874.181	0.674	673.9	congruent	Block1	congruent/STIM_014.jpg	99
877.639	0.66	660.3	congruent	Block1	congruent/STIM_014.jpg	100
880.993	0.583	582.7	congruent	Block1	congruent/STIM_014.jpg	99
885.32	0.519	518.7	congruent	Block1	congruent/STIM_014.jpg	99
889.622	0.859	858.9	congruent	Block1	congruent/STIM_015.jpg	99
894.211	0.783	783.2	congruent	Block1	congruent/STIM_015.jpg	99
897.061	0.794	793.9	congruent	Block1	congruent/STIM_015.jpg	99
899.972	0.699	699.3	congruent	Block1	congruent/STIM_015.jpg	99
903.145	0.952	951.5	congruent	Block1	congruent/STIM_015.jpg	99
906.546	0.51	509.9	congruent	Block1	congruent/STIM_016.jpg	99
910.397	0.619	619.1	congruent	Block1	congruent/STIM_016.jpg	100
914.705	0.58	579.7	congruent	Block1	congruent/STIM_016.jpg	100
918.583	0.873	872.6	congruent	Block1	congruent/STIM_016.jpg	99
922.514	0.526	526.1	congruent	Block1	congruent/STIM_016.jpg	100
926.123	0.746	746.3	congruent	Block1	congruent/STIM_017.jpg	100
930.736	0.956	956.3	congruent	Block1	congruent/STIM_017.jpg	99
934.179	0.823	823.2	congruent	Block1	congruent/STIM_017.jpg	100
938.205	0.49	490.1	congruent	Block1	congruent/STIM_017.jpg	100
941.281	0.936	935.8	congruent	Block1	congruent/STIM_017.jpg	99
944.281	0.7	699.9	congruent	Block1	congruent/STIM_018.jpg	99
947.737	0.703	702.7	congruent	Block1	congruent/STIM_018.jpg	100
950.481	0.517	517.1	congruent	Block1	congruent/STIM_018.jpg	99
953.861	0.681	680.8	congruent	Block1	congruent/STIM_018.jpg	99
956.699	0.901	901.0	congruent	Block1	congruent/STIM_018.jpg	100
961.419	0.906	905.5	congruent	Block1	congruent/STIM_019.jpg	100
964.853	0.707	707.3	congruent	Block1	congruent/STIM_019.jpg	100
968.361	0.706	706.0	congruent	Block1	congruent/STIM_019.jpg	100
972.842	0.76	760.2	congruent	Block1	congruent/STIM_019.jpg	100
976.531	0.652	651.5	congruent	Block1	congruent/STIM_019.jpg	100
979.986	0.926	926.2	congruent	Block1	congruent/STIM_020.jpg	99
983.129	0.812	812.5	congruent	Block1	congruent/STIM_020.jpg	100
987.361	0.494	493.5	congruent	Block1	congruent/STIM_020.jpg	100
991.179	0.582	582.1	congruent	Block1	congruent/STIM_020.jpg	99
994.922	0.733	733.4	congruent	Block1	congruent/STIM_020.jpg	100
999.053	0.917	916.7	congruent	Block1	congruent/STIM_021.jpg	100
1002.554	0.688	687.7	congruent	Block1	congruent/STIM_021.jpg	99
1006.59	0.639	639.4	congruent	Block1	congruent/STIM_021.jpg	100
1011.071	0.577	576.7	congruent	Block1	congruent/STIM_021.jpg	99
1013.911	0.582	581.8	congruent	Block1	congruent/STIM_021.jpg	100
1017.32	0.726	726.2	congruent	Block1	congruent/STIM_022.jpg	100
1021.7	0.843	842.9	congruent	Block1	congruent/STIM_022.jpg	99
1025.981	0.883	882.8	congruent	Block1	congruent/STIM_022.jpg	99
1029.171	0.669	668.8	congruent	Block1	congruent/STIM_022.jpg	99
1032.71	0.619	618.9	congruent	Block1	congruent/STIM_022.jpg	100
1036.911	0.571	571.3	congruent	Block1	congruent/STIM_023.jpg	99
1040.505	0.967	967.0	congruent	Block1	congruent/STIM_023.jpg	99
1044.852	0.55	550.1	congruent	Block1	congruent/STIM_023.jpg	100
1048.559	0.648	648.5	congruent	Block1	congruent/STIM_023.jpg	99
1051.653	0.905	904.9	congruent	Block1	congruent/STIM_023.jpg	100
1056.411	0.842	842.0	congruent	Block1	congruent/STIM_024.jpg	99
1059.388	0.826	825.6	congruent	Block1	congruent/STIM_024.jpg	99
1063.36	0.562	561.7	congruent	Block1	congruent/STIM_024.jpg	99
1067.338	0.746	745.8	congruent	Block1	congruent/STIM_024.jpg	99
1071.419	0.59	590.0	congruent	Block1	congruent/STIM_024.jpg	99
1074.463	0.944	944.1	congruent	Block1	congruent/STIM_025.jpg	99
1077.45	0.703	702.8	congruent	Block1	congruent/STIM_025.jpg	100
1080.098	0.761	761.2	congruent	Block1	congruent/STIM_025.jpg	99
1083.996	0.496	496.2	congruent	Block1	congruent/STIM_025.jpg	99
1087.826	0.813	812.7	congruent	Block1	congruent/STIM_025.jpg	100
1092.036	0.596	596.1	congruent	Block1	congruent/STIM_026.jpg	99
1094.758	0.76	760.5	congruent	Block1	congruent/STIM_026.jpg	99
1098.874	0.679	678.6	congruent	Block1	congruent/STIM_026.jpg	100
1102.794	0.854	854.0	congruent	Block1	congruent/STIM_026.jpg	100
1106.336	0.869	869.4	congruent	Block1	congruent/STIM_026.jpg	100
1109.684	0.549	549.3	congruent	Block1	congruent/STIM_027.jpg	100
1113.987	0.666	666.4	congruent	Block1	congruent/STIM_027.jpg	99
1117.555	0.792	792.5	congruent	Block1	congruent/STIM_027.jpg	99
1121.381	0.558	558.0	congruent	Block1	congruent/STIM_027.jpg	99
1125.138	0.896	895.8	congruent	Block1	congruent/STIM_027.jpg	99
1129.151	0.584	584.3	congruent	Block1	congruent/STIM_028.jpg	99
1132.193	0.82	819.8	congruent	Block1	congruent/STIM_028.jpg	99
1136.607	0.909	908.9	congruent	Block1	congruent/STIM_028.jpg	99
1139.442	0.898	898.1	congruent	Block1	congruent/STIM_028.jpg	100
1143.185	0.651	650.9	congruent	Block1	congruent/STIM_028.jpg	99
1147.263	0.858	857.6	congruent	Block1	congruent/STIM_029.jpg	100
1150.842	0.816	816.2	congruent	Block1	congruent/STIM_029.jpg	99
1154.022	0.693	692.9	congruent	Block1	congruent/STIM_029.jpg	100
1156.94	0.824	823.6	congruent	Block1	congruent/STIM_029.jpg	99
1160.658	0.535	534.8	congruent	Block1	congruent/STIM_029.jpg	99
1164.674	0.954	953.5	incongruent	Block2	incongruent/STIM_000.jpg	99
1169.107	0.894	893.6	incongruent	Block2	incongruent/STIM_000.jpg	100
1173.184	0.842	842.3	incongruent	Block2	incongruent/STIM_000.jpg	100
1177.46	1.079	1079.3	incongruent	Block2	incongruent/STIM_000.jpg	99
1181.786	0.927	927.1	incongruent	Block2	incongruent/STIM_000.jpg	100
1186.253	0.824	823.7	incongruent	Block2	incongruent/STIM_001.jpg	100
1190.345	1.126	1125.5	incongruent	Block2	incongruent/STIM_001.jpg	99
1193.541	1.152	1152.5	incongruent	Block2	incongruent/STIM_001.jpg	99
1196.931	1.049	1049.3	incongruent	Block2	incongruent/STIM_001.jpg	99
1201.364	1.069	1069.3	incongruent	Block2	incongruent/STIM_001.jpg	99
1205.562	0.734	734.5	incongruent	Block2	incongruent/STIM_002.jpg	99
1209.112	0.866	865.9	incongruent	Block2	incongruent/STIM_002.jpg	100
1212.032	0.602	602.5	incongruent	Block2	incongruent/STIM_002.jpg	99
1215.716	0.828	828.0	incongruent	Block2	incongruent/STIM_002.jpg	100
1220.098	0.549	548.9	incongruent	Block2	incongruent/STIM_002.jpg	100
1223.222	0.739	739.2	incongruent	Block2	incongruent/STIM_003.jpg	99
1227.643	1.086	1086.1	incongruent	Block2	incongruent/STIM_003.jpg	99
1232.085	1.016	1016.0	incongruent	Block2	incongruent/STIM_003.jpg	99
1236.567	0.854	854.1	incongruent	Block2	incongruent/STIM_003.jpg	99
1240.27	0.616	615.8	incongruent	Block2	incongruent/STIM_003.jpg	99
1243.549	1.207	1207.4	incongruent	Block2	incongruent/STIM_004.jpg	100
1247.892	1.243	1243.4	incongruent	Block2	incongruent/STIM_004.jpg	99
1251.905	1.095	1095.4	incongruent	Block2	incongruent/STIM_004.jpg	99
1256.409	1.053	1052.8	incongruent	Block2	incongruent/STIM_004.jpg	99
1260.723	0.93	929.8	incongruent	Block2	incongruent/STIM_004.jpg	100
1264.014	1.135	1135.3	incongruent	Block2	incongruent/STIM_005.jpg	100
1267.603	0.601	601.4	incongruent	Block2	incongruent/STIM_005.jpg	99
1271.773	1.067	1067.3	incongruent	Block2	incongruent/STIM_005.jpg	99
1276.323	0.829	829.4	incongruent	Block2	incongruent/STIM_005.jpg	99
1280.743	0.741	741.3	incongruent	Block2	incongruent/STIM_005.jpg	100
1283.972	1.244	1243.6	incongruent	Block2	incongruent/STIM_006.jpg	99
1287.588	1.179	1179.0	incongruent	Block2	incongruent/STIM_006.jpg	100
1292.018	0.914	914.3	incongruent	Block2	incongruent/STIM_006.jpg	99
1295.882	0.86	860.5	incongruent	Block2	incongruent/STIM_006.jpg	100
1299.011	0.782	782.0	incongruent	Block2	incongruent/STIM_006.jpg	99
1302.65	1.233	1232.8	incongruent	Block2	incongruent/STIM_007.jpg	100
1306.597	0.914	913.9	incongruent	Block2	incongruent/STIM_007.jpg	100
1310.565	0.77	769.8	incongruent	Block2	incongruent/STIM_007.jpg	99
1314.249	1.105	1105.0	incongruent	Block2	incongruent/STIM_007.jpg	100
1318.654	0.739	739.1	incongruent	Block2	incongruent/STIM_007.jpg	100
1321.982	1.208	1207.8	incongruent	Block2	incongruent/STIM_008.jpg	100
1325.558	0.73	729.6	incongruent	Block2	incongruent/STIM_008.jpg	99
1329.743	1.191	1191.4	incongruent	Block2	incongruent/STIM_008.jpg	100
1333.28	0.98	979.8	incongruent	Block2	incongruent/STIM_008.jpg	100
1337.26	1.183	1182.6	incongruent	Block2	incongruent/STIM_008.jpg	100
1341.874	0.645	645.0	incongruent	Block2	incongruent/STIM_009.jpg	100
1346.064	1.165	1165.0	incongruent	Block2	incongruent/STIM_009.jpg	99
1350.29	0.823	822.7	incongruent	Block2	incongruent/STIM_009.jpg	99
1353.919	0.747	746.7	incongruent	Block2	incongruent/STIM_009.jpg	99
1356.974	0.717	717.3	incongruent	Block2	incongruent/STIM_009.jpg	99
1360.584	0.675	674.8	incongruent	Block2	incongruent/STIM_010.jpg	100
1363.832	1.052	1052.4	incongruent	Block2	incongruent/STIM_010.jpg	100
1368.174	0.68	679.8	incongruent	Block2	incongruent/STIM_010.jpg	99
1371.109	0.92	920.1	incongruent	Block2	incongruent/STIM_010.jpg	99
1374.999	1.081	1081.3	incongruent	Block2	incongruent/STIM_010.jpg	99
1378.335	1.31	1310.3	incongruent	Block2	incongruent/STIM_011.jpg	99
1382.242	0.82	819.5	incongruent	Block2	incongruent/STIM_011.jpg	99
1386.65	0.742	741.9	incongruent	Block2	incongruent/STIM_011.jpg	100
1390.415	1.021	1020.6	incongruent	Block2	incongruent/STIM_011.jpg	99
1394.209	0.878	877.6	incongruent	Block2	incongruent/STIM_011.jpg	99
1398.862	0.824	824.4	incongruent	Block2	incongruent/STIM_012.jpg	99
1402.754	1.027	1026.7	incongruent	Block2	incongruent/STIM_012.jpg	99
1407.371	0.649	649.3	incongruent	Block2	incongruent/STIM_012.jpg	100
1411.683	1.115	1115.1	incongruent	Block2	incongruent/STIM_012.jpg	99
1415.7	0.832	831.9	incongruent	Block2	incongruent/STIM_012.jpg	100
1420.11	0.572	571.9	incongruent	Block2	incongruent/STIM_013.jpg	99
1424.128	0.642	641.5	incongruent	Block2	incongruent/STIM_013.jpg	100
1427.815	0.743	743.0	incongruent	Block2	incongruent/STIM_013.jpg	99
1432.113	0.691	691.1	incongruent	Block2	incongruent/STIM_013.jpg	100
1436.276	0.668	668.3	incongruent	Block2	incongruent/STIM_013.jpg	99
1440.748	0.782	782.5	incongruent	Block2	incongruent/STIM_014.jpg	99
1443.887	0.647	647.2	incongruent	Block2	incongruent/STIM_014.jpg	100
1447.486	1.064	1064.3	incongruent	Block2	incongruent/STIM_014.jpg	99
1451.387	0.882	882.3	incongruent	Block2	incongruent/STIM_014.jpg	99
1454.662	0.728	727.7	incongruent	Block2	incongruent/STIM_014.jpg	99
1457.614	1.257	1256.6	incongruent	Block2	incongruent/STIM_015.jpg	99
1462.329	0.777	776.6	incongruent	Block2	incongruent/STIM_015.jpg	99
1466.934	0.648	647.9	incongruent	Block2	incongruent/STIM_015.jpg	99
1471.154	0.554	553.8	incongruent	Block2	incongruent/STIM_015.jpg	100
1473.811	0.888	888.4	incongruent	Block2	incongruent/STIM_015.jpg	99
1476.733	1.116	1116.4	incongruent	Block2	incongruent/STIM_016.jpg	100
1481.032	1.126	1126.0	incongruent	Block2	incongruent/STIM_016.jpg	99
1485.737	0.975	975.4	incongruent	Block2	incongruent/STIM_016.jpg	99
1490.506	0.67	670.0	incongruent	Block2	incongruent/STIM_016.jpg	99
1493.147	0.917	916.7	incongruent	Block2	incongruent/STIM_016.jpg	100
1497.785	0.78	779.6	incongruent	Block2	incongruent/STIM_017.jpg	100
1501.562	0.848	848.4	incongruent	Block2	incongruent/STIM_017.jpg	100
1504.534	0.672	672.4	incongruent	Block2	incongruent/STIM_017.jpg	100
1507.215	0.752	752.4	incongruent	Block2	incongruent/STIM_017.jpg	99
1511.539	1.098	1097.6	incongruent	Block2	incongruent/STIM_017.jpg	100
1516.072	1.346	1345.8	incongruent	Block2	incongruent/STIM_018.jpg	99
1520.097	0.942	941.9	incongruent	Block2	incongruent/STIM_018.jpg	100
1523.629	1.167	1167.3	incongruent	Block2	incongruent/STIM_018.jpg	100
1528.249	0.825	824.6	incongruent	Block2	incongruent/STIM_018.jpg	100
1532.122	0.74	739.6	incongruent	Block2	incongruent/STIM_018.jpg	100
1536.626	1.231	1231.1	incongruent	Block2	incongruent/STIM_019.jpg	100
1540.324	0.97	970.3	incongruent	Block2	incongruent/STIM_019.jpg	100
1544.374	0.838	838.3	incongruent	Block2	incongruent/STIM_019.jpg	99
1548.769	0.882	881.5	incongruent	Block2	incongruent/STIM_019.jpg	100
1552.977	0.962	961.5	incongruent	Block2	incongruent/STIM_019.jpg	99
1557.757	1.181	1180.6	incongruent	Block2	incongruent/STIM_020.jpg	99
1561.341	0.911	910.9	incongruent	Block2	incongruent/STIM_020.jpg	100
1565.467	0.672	672.5	incongruent	Block2	incongruent/STIM_020.jpg	100
1569.782	0.719	719.0	incongruent	Block2	incongruent/STIM_020.jpg	99
1572.515	0.91	910.4	incongruent	Block2	incongruent/STIM_020.jpg	99
1576.876	0.753	752.9	incongruent	Block2	incongruent/STIM_021.jpg	100
1581.136	1.278	1277.5	incongruent	Block2	incongruent/STIM_021.jpg	100
1584.569	0.924	923.8	incongruent	Block2	incongruent/STIM_021.jpg	99
1588.207	0.874	874.5	incongruent	Block2	incongruent/STIM_021.jpg	100
1591.828	0.947	946.8	incongruent	Block2	incongruent/STIM_021.jpg	99
1594.766	1.225	1225.0	incongruent	Block2	incongruent/STIM_022.jpg	100
1597.936	0.706	706.2	incongruent	Block2	incongruent/STIM_022.jpg	99
1602.298	0.607	607.0	incongruent	Block2	incongruent/STIM_022.jpg	100
1606.091	0.7	700.2	incongruent	Block2	incongruent/STIM_022.jpg	100
1609.323	0.658	658.5	incongruent	Block2	incongruent/STIM_022.jpg	100
1613.443	1.303	1303.2	incongruent	Block2	incongruent/STIM_023.jpg	99
1617.957	0.822	821.9	incongruent	Block2	incongruent/STIM_023.jpg	99
1621.623	0.713	712.8	incongruent	Block2	incongruent/STIM_023.jpg	99
1624.795	1.069	1068.9	incongruent	Block2	incongruent/STIM_023.jpg	99
1628.347	0.663	663.4	incongruent	Block2	incongruent/STIM_023.jpg	99
1632.192	0.847	847.1	incongruent	Block2	incongruent/STIM_024.jpg	99
1635.377	1.001	1001.0	incongruent	Block2	incongruent/STIM_024.jpg	99
1640.153	1.138	1137.8	incongruent	Block2	incongruent/STIM_024.jpg	100
1644.952	0.594	593.5	incongruent	Block2	incongruent/STIM_024.jpg	100
1648.054	0.496	495.8	incongruent	Block2	incongruent/STIM_024.jpg	99
1650.978	1.302	1302.1	incongruent	Block2	incongruent/STIM_025.jpg	100
1655.027	1.108	1107.9	incongruent	Block2	incongruent/STIM_025.jpg	99
1658.833	0.806	806.1	incongruent	Block2	incongruent/STIM_025.jpg	99
1662.602	0.991	991.0	incongruent	Block2	incongruent/STIM_025.jpg	100
1666.176	0.794	794.5	incongruent	Block2	incongruent/STIM_025.jpg	100
1670.254	0.954	953.8	incongruent	Block2	incongruent/STIM_026.jpg	99
1674.026	1.202	1202.5	incongruent	Block2	incongruent/STIM_026.jpg	100
1677.149	0.787	787.0	incongruent	Block2	incongruent/STIM_026.jpg	100
1680.952	1.053	1053.0	incongruent	Block2	incongruent/STIM_026.jpg	100
1685.28	0.888	888.5	incongruent	Block2	incongruent/STIM_026.jpg	100
1688.445	0.783	782.6	incongruent	Block2	incongruent/STIM_027.jpg	100
1691.656	0.862	861.6	incongruent	Block2	incongruent/STIM_027.jpg	100
1695.989	0.614	614.0	incongruent	Block2	incongruent/STIM_027.jpg	100
1698.82	0.492	491.9	incongruent	Block2	incongruent/STIM_027.jpg	100
1703.255	0.789	789.4	incongruent	Block2	incongruent/STIM_027.jpg	100
1707.238	1.342	1342.3	incongruent	Block2	incongruent/STIM_028.jpg	100
1711.894	0.974	973.9	incongruent	Block2	incongruent/STIM_028.jpg	99
1716.188	1.133	1133.3	incongruent	Block2	incongruent/STIM_028.jpg	100
1719.507	0.667	667.1	incongruent	Block2	incongruent/STIM_028.jpg	99
1723.36	0.579	579.2	incongruent	Block2	incongruent/STIM_028.jpg	99
1727.229	1.28	1280.5	incongruent	Block2	incongruent/STIM_029.jpg	99
1731.215	1.061	1060.8	incongruent	Block2	incongruent/STIM_029.jpg	99
1735.069	1.254	1253.8	incongruent	Block2	incongruent/STIM_029.jpg	100
1739.2	1.016	1016.5	incongruent	Block2	incongruent/STIM_029.jpg	99
1743.533	0.516	516.5	incongruent	Block2	incongruent/STIM_029.jpg	99
1747.023	0.666	665.6	congruent	Block2	congruent/STIM_000.jpg	99
1749.856	0.853	852.9	congruent	Block2	congruent/STIM_000.jpg	100
1752.746	0.688	687.8	congruent	Block2	congruent/STIM_000.jpg	100
1756.695	0.797	797.1	congruent	Block2	congruent/STIM_000.jpg	100
1759.968	0.677	677.1	congruent	Block2	congruent/STIM_000.jpg	100
1763.337	0.926	925.5	congruent	Block2	congruent/STIM_001.jpg	100
1767.133	0.6	600.0	congruent	Block2	congruent/STIM_001.jpg	100
1769.895	0.833	832.6	congruent	Block2	congruent/STIM_001.jpg	100
1773.741	0.563	562.9	congruent	Block2	congruent/STIM_001.jpg	100
1777.771	0.728	728.0	congruent	Block2	congruent/STIM_001.jpg	99
1782.296	0.804	804.4	congruent	Block2	congruent/STIM_002.jpg	100
1785.357	0.86	860.2	congruent	Block2	congruent/STIM_002.jpg	99
1789.303	0.534	534.1	congruent	Block2	congruent/STIM_002.jpg	99
1791.882	0.919	918.6	congruent	Block2	congruent/STIM_002.jpg	100
1795.583	0.845	844.9	congruent	Block2	congruent/STIM_002.jpg	100
1799.598	0.582	582.1	congruent	Block2	congruent/STIM_003.jpg	100
1802.805	0.733	733.2	congruent	Block2	congruent/STIM_003.jpg	100
1805.868	0.816	816.3	congruent	Block2	congruent/STIM_003.jpg	100
1808.987	0.813	813.3	congruent	Block2	congruent/STIM_003.jpg	100
1812.847	0.865	865.1	congruent	Block2	congruent/STIM_003.jpg	100
1817.023	0.7	700.1	congruent	Block2	congruent/STIM_004.jpg	100
1819.785	0.948	948.2	congruent	Block2	congruent/STIM_004.jpg	99
1824.206	0.724	723.9	congruent	Block2	congruent/STIM_004.jpg	99
1828.252	0.689	689.1	congruent	Block2	congruent/STIM_004.jpg	100
1831.177	0.796	796.1	congruent	Block2	congruent/STIM_004.jpg	99
1835.865	0.776	776.0	congruent	Block2	congruent/STIM_005.jpg	100
1839.845	0.607	607.4	congruent	Block2	congruent/STIM_005.jpg	100
1842.473	0.55	550.3	congruent	Block2	congruent/STIM_005.jpg	100
1845.814	0.546	545.9	congruent	Block2	congruent/STIM_005.jpg	99
1848.547	0.971	971.1	congruent	Block2	congruent/STIM_005.jpg	99
1852.162	0.88	880.0	congruent	Block2	congruent/STIM_006.jpg	99
1856.709	0.748	748.1	congruent	Block2	congruent/STIM_006.jpg	99
1860.605	0.912	911.9	congruent	Block2	congruent/STIM_006.jpg	99
1864.319	0.725	725.3	congruent	Block2	congruent/STIM_006.jpg	100
1867.355	0.819	819.1	congruent	Block2	congruent/STIM_006.jpg	100
1871.249	0.668	667.6	congruent	Block2	congruent/STIM_007.jpg	99
1874.93	0.829	829.1	congruent	Block2	congruent/STIM_007.jpg	99
1878.697	0.777	777.2	congruent	Block2	congruent/STIM_007.jpg	100
1881.507	0.808	808.1	congruent	Block2	congruent/STIM_007.jpg	99
1884.978	0.603	603.1	congruent	Block2	congruent/STIM_007.jpg	99
1889.181	0.874	873.6	congruent	Block2	congruent/STIM_008.jpg	100
1892.985	0.759	759.1	congruent	Block2	congruent/STIM_008.jpg	100
1895.675	0.934	934.1	congruent	Block2	congruent/STIM_008.jpg	100
1899.159	0.647	646.9	congruent	Block2	congruent/STIM_008.jpg	99
1902.842	0.538	538.2	congruent	Block2	congruent/STIM_008.jpg	100
1906.666	0.968	967.6	congruent	Block2	congruent/STIM_009.jpg	99
1911.303	0.954	953.5	congruent	Block2	congruent/STIM_009.jpg	99
1915.054	0.668	668.4	congruent	Block2	congruent/STIM_009.jpg	99
1919.556	0.562	562.4	congruent	Block2	congruent/STIM_009.jpg	100
1923.613	0.589	588.6	congruent	Block2	congruent/STIM_009.jpg	99
1927.933	0.644	643.6	congruent	Block2	congruent/STIM_010.jpg	100
1930.679	0.604	604.0	congruent	Block2	congruent/STIM_010.jpg	100
1933.375	0.654	653.9	congruent	Block2	congruent/STIM_010.jpg	99
1937.37	0.932	932.3	congruent	Block2	congruent/STIM_010.jpg	99
1942.072	0.749	749.2	congruent	Block2	congruent/STIM_010.jpg	99
1946.409	0.923	922.7	congruent	Block2	congruent/STIM_011.jpg	99
1950.827	0.805	805.0	congruent	Block2	congruent/STIM_011.jpg	100
1955.09	0.859	858.6	congruent	Block2	congruent/STIM_011.jpg	100
1959.519	0.909	909.4	congruent	Block2	congruent/STIM_011.jpg	99
1963.772	0.622	621.8	congruent	Block2	congruent/STIM_011.jpg	100
1967.236	0.669	668.6	congruent	Block2	congruent/STIM_012.jpg	99
1970.259	0.779	779.3	congruent	Block2	congruent/STIM_012.jpg	99
1974.803	0.621	620.8	congruent	Block2	congruent/STIM_012.jpg	100
1978.918	0.96	959.8	congruent	Block2	congruent/STIM_012.jpg	100
1983.164	0.867	867.1	congruent	Block2	congruent/STIM_012.jpg	100
1987.705	0.657	657.1	congruent	Block2	congruent/STIM_013.jpg	99
1991.943	0.574	574.0	congruent	Block2	congruent/STIM_013.jpg	99
1996.005	0.677	676.7	congruent	Block2	congruent/STIM_013.jpg	100
2000.112	0.556	556.4	congruent	Block2	congruent/STIM_013.jpg	100
2003.947	0.865	864.8	congruent	Block2	congruent/STIM_013.jpg	100
2007.421	0.986	986.0	congruent	Block2	congruent/STIM_014.jpg	99
2011.887	0.986	986.0	congruent	Block2	congruent/STIM_014.jpg	100
2016.395	0.723	723.1	congruent	Block2	congruent/STIM_014.jpg	99
2019.779	0.643	642.6	congruent	Block2	congruent/STIM_014.jpg	99
2023.718	0.632	632.5	congruent	Block2	congruent/STIM_014.jpg	100
2026.742	0.604	604.4	congruent	Block2	congruent/STIM_015.jpg	100
2031.221	0.989	989.3	congruent	Block2	congruent/STIM_015.jpg	100
2034.556	0.811	810.9	congruent	Block2	congruent/STIM_015.jpg	100
2038.273	0.907	907.4	congruent	Block2	congruent/STIM_015.jpg	100
2042.753	0.444	444.1	congruent	Block2	congruent/STIM_015.jpg	99
2046.175	0.801	800.8	congruent	Block2	congruent/STIM_016.jpg	99
2049.151	0.625	625.2	congruent	Block2	congruent/STIM_016.jpg	99
2052.995	0.585	585.3	congruent	Block2	congruent/STIM_016.jpg	100
2057.291	0.942	941.9	congruent	Block2	congruent/STIM_016.jpg	100
2060.998	0.858	858.0	congruent	Block2	congruent/STIM_016.jpg	99
2065.61	0.567	566.6	congruent	Block2	congruent/STIM_017.jpg	100
2068.318	0.765	764.9	congruent	Block2	congruent/STIM_017.jpg	100
2071.359	0.684	683.8	congruent	Block2	congruent/STIM_017.jpg	100
2075.854	0.751	751.2	congruent	Block2	congruent/STIM_017.jpg	100
2079.288	0.601	600.8	congruent	Block2	congruent/STIM_017.jpg	99
2081.978	0.544	543.9	congruent	Block2	congruent/STIM_018.jpg	100
2086.296	0.683	683.4	congruent	Block2	congruent/STIM_018.jpg	99
2090.508	0.814	813.8	congruent	Block2	congruent/STIM_018.jpg	100
2094.263	0.674	673.8	congruent	Block2	congruent/STIM_018.jpg	99
2098.079	0.688	688.0	congruent	Block2	congruent/STIM_018.jpg	99
2101.985	0.629	629.0	congruent	Block2	congruent/STIM_019.jpg	100
2106.511	0.686	686.1	congruent	Block2	congruent/STIM_019.jpg	99
2109.639	0.798	797.8	congruent	Block2	congruent/STIM_019.jpg	100
2112.941	0.728	727.6	congruent	Block2	congruent/STIM_019.jpg	100
2116.054	0.623	623.4	congruent	Block2	congruent/STIM_019.jpg	99
2119.664	0.787	787.3	congruent	Block2	congruent/STIM_020.jpg	99
2124.147	0.777	777.1	congruent	Block2	congruent/STIM_020.jpg	100
2128.278	0.7	700.5	congruent	Block2	congruent/STIM_020.jpg	100
2130.946	0.714	714.0	congruent	Block2	congruent/STIM_020.jpg	100
2133.779	0.685	685.1	congruent	Block2	congruent/STIM_020.jpg	100
2138.138	0.51	509.6	congruent	Block2	congruent/STIM_021.jpg	100
2141.464	0.571	571.2	congruent	Block2	congruent/STIM_021.jpg	100
2144.14	0.769	769.0	congruent	Block2	congruent/STIM_021.jpg	100
2148.677	0.481	481.3	congruent	Block2	congruent/STIM_021.jpg	99
2152.805	0.727	727.0	congruent	Block2	congruent/STIM_021.jpg	100
2155.915	0.949	949.0	congruent	Block2	congruent/STIM_022.jpg	99
2159.933	0.82	820.1	congruent	Block2	congruent/STIM_022.jpg	100
2162.788	0.715	714.6	congruent	Block2	congruent/STIM_022.jpg	99
2167.11	0.826	826.5	congruent	Block2	congruent/STIM_022.jpg	100
2170.509	0.66	660.0	congruent	Block2	congruent/STIM_022.jpg	100
2174.316	0.838	837.7	congruent	Block2	congruent/STIM_023.jpg	100
2178.302	0.852	851.7	congruent	Block2	congruent/STIM_023.jpg	100
2182.845	0.62	619.7	congruent	Block2	congruent/STIM_023.jpg	99
2186.901	0.594	593.7	congruent	Block2	congruent/STIM_023.jpg	100
2191.34	0.731	730.6	congruent	Block2	congruent/STIM_023.jpg	99
2195.265	0.923	923.2	congruent	Block2	congruent/STIM_024.jpg	99
2199.185	0.816	816.0	congruent	Block2	congruent/STIM_024.jpg	99
2203.434	0.803	803.2	congruent	Block2	congruent/STIM_024.jpg	99
2207.453	0.677	676.7	congruent	Block2	congruent/STIM_024.jpg	100
2210.355	0.581	581.3	congruent	Block2	congruent/STIM_024.jpg	99
2214.108	0.704	704.4	congruent	Block2	congruent/STIM_025.jpg	100
2216.852	0.651	650.9	congruent	Block2	congruent/STIM_025.jpg	100
2219.518	0.758	758.1	congruent	Block2	congruent/STIM_025.jpg	99
2223.335	0.786	786.4	congruent	Block2	congruent/STIM_025.jpg	100
2226.12	0.908	907.6	congruent	Block2	congruent/STIM_025.jpg	100
2230.443	0.85	850.5	congruent	Block2	congruent/STIM_026.jpg	99
2233.437	0.756	756.4	congruent	Block2	congruent/STIM_026.jpg	99
2236.425	1.002	1002.5	congruent	Block2	congruent/STIM_026.jpg	100
2241.187	0.75	750.4	congruent	Block2	congruent/STIM_026.jpg	100
2244.779	0.924	923.8	congruent	Block2	congruent/STIM_026.jpg	100
2248.151	0.77	769.9	congruent	Block2	congruent/STIM_027.jpg	99
2252.607	0.943	943.3	congruent	Block2	congruent/STIM_027.jpg	99
2256.658	0.965	965.0	congruent	Block2	congruent/STIM_027.jpg	99
2261.401	0.881	880.7	congruent	Block2	congruent/STIM_027.jpg	99
2264.764	0.707	707.3	congruent	Block2	congruent/STIM_027.jpg	99
2267.719	0.764	763.6	congruent	Block2	congruent/STIM_028.jpg	100
2271.544	0.925	925.1	congruent	Block2	congruent/STIM_028.jpg	99
2276.193	0.641	641.1	congruent	Block2	congruent/STIM_028.jpg	99
2279.863	0.748	747.6	congruent	Block2	congruent/STIM_028.jpg	100
2284.177	0.836	835.7	congruent	Block2	congruent/STIM_028.jpg	100
2288.49	0.679	679.3	congruent	Block2	congruent/STIM_029.jpg	100
2291.56	0.545	544.9	congruent	Block2	congruent/STIM_029.jpg	100
2294.792	0.878	878.0	congruent	Block2	congruent/STIM_029.jpg	99
2298.626	0.902	901.5	congruent	Block2	congruent/STIM_029.jpg	99
2303.312	0.812	812.0	congruent	Block2	congruent/STIM_029.jpg	99
2307.623	1.079	1079.4	incongruent	Block3	incongruent/STIM_000.jpg	100
2312.098	0.817	816.6	incongruent	Block3	incongruent/STIM_000.jpg	99
2316.345	0.776	775.5	incongruent	Block3	incongruent/STIM_000.jpg	100
2319.367	0.941	941.2	incongruent	Block3	incongruent/STIM_000.jpg	100
2324.009	1.064	1064.5	incongruent	Block3	incongruent/STIM_000.jpg	99
2328.444	0.862	862.4	incongruent	Block3	incongruent/STIM_001.jpg	100
2331.91	0.952	952.5	incongruent	Block3	incongruent/STIM_001.jpg	99
2335.866	0.886	885.5	incongruent	Block3	incongruent/STIM_001.jpg	99
2340.629	0.707	707.4	incongruent	Block3	incongruent/STIM_001.jpg	99
2344.8	1.002	1001.8	incongruent	Block3	incongruent/STIM_001.jpg	99
2349.52	0.588	588.1	incongruent	Block3	incongruent/STIM_002.jpg	99
2352.579	0.848	848.3	incongruent	Block3	incongruent/STIM_002.jpg	99
2356.21	0.849	849.1	incongruent	Block3	incongruent/STIM_002.jpg	99
2360.491	0.815	814.6	incongruent	Block3	incongruent/STIM_002.jpg	99
2364.682	0.75	749.6	incongruent	Block3	incongruent/STIM_002.jpg	100
2368.278	1.068	1067.8	incongruent	Block3	incongruent/STIM_003.jpg	100
2372.914	1.057	1056.8	incongruent	Block3	incongruent/STIM_003.jpg	100
2377.738	0.832	832.1	incongruent	Block3	incongruent/STIM_003.jpg	99
2381.985	0.678	678.3	incongruent	Block3	incongruent/STIM_003.jpg	100
2386.028	0.754	753.6	incongruent	Block3	incongruent/STIM_003.jpg	100
2390.103	0.598	597.5	incongruent	Block3	incongruent/STIM_004.jpg	99
2394.053	0.923	923.1	incongruent	Block3	incongruent/STIM_004.jpg	99
2398.923	0.904	903.7	incongruent	Block3	incongruent/STIM_004.jpg	99
2402.846	0.702	701.5	incongruent	Block3	incongruent/STIM_004.jpg	100
2406.724	0.871	871.0	incongruent	Block3	incongruent/STIM_004.jpg	99
2410.771	0.537	537.0	incongruent	Block3	incongruent/STIM_005.jpg	99
2414.635	0.643	643.0	incongruent	Block3	incongruent/STIM_005.jpg	99
2418.694	1.072	1072.2	incongruent	Block3	incongruent/STIM_005.jpg	99
2422.372	0.877	876.6	incongruent	Block3	incongruent/STIM_005.jpg	99
2425.745	0.918	918.0	incongruent	Block3	incongruent/STIM_005.jpg	99
2429.095	1.086	1086.4	incongruent	Block3	incongruent/STIM_006.jpg	100
2433.259	0.935	934.8	incongruent	Block3	incongruent/STIM_006.jpg	100
2437.341	0.86	860.5	incongruent	Block3	incongruent/STIM_006.jpg	99
2440.206	1.013	1013.3	incongruent	Block3	incongruent/STIM_006.jpg	100
2444.7	0.858	857.8	incongruent	Block3	incongruent/STIM_006.jpg	100
2449.157	0.929	929.3	incongruent	Block3	incongruent/STIM_007.jpg	99
2453.889	0.789	789.1	incongruent	Block3	incongruent/STIM_007.jpg	100
2457.427	1.024	1023.7	incongruent	Block3	incongruent/STIM_007.jpg	99
2461.18	0.789	788.7	incongruent	Block3	incongruent/STIM_007.jpg	99
2465.147	0.579	579.3	incongruent	Block3	incongruent/STIM_007.jpg	100
2469.621	0.764	763.6	incongruent	Block3	incongruent/STIM_008.jpg	99
2474.342	0.752	752.3	incongruent	Block3	incongruent/STIM_008.jpg	100
2477.011	0.955	955.3	incongruent	Block3	incongruent/STIM_008.jpg	100
2481.005	1.09	1090.3	incongruent	Block3	incongruent/STIM_008.jpg	99
2484.785	0.917	917.0	incongruent	Block3	incongruent/STIM_008.jpg	100
2487.933	0.8	800.5	incongruent	Block3	incongruent/STIM_009.jpg	99
2492.255	0.52	519.6	incongruent	Block3	incongruent/STIM_009.jpg	100
2496.553	1.032	1031.5	incongruent	Block3	incongruent/STIM_009.jpg	100
2501.146	1.045	1044.6	incongruent	Block3	incongruent/STIM_009.jpg	99
2504.195	0.809	809.3	incongruent	Block3	incongruent/STIM_009.jpg	100
2508.264	0.967	966.6	incongruent	Block3	incongruent/STIM_010.jpg	99
2512.597	0.702	702.4	incongruent	Block3	incongruent/STIM_010.jpg	100
2516.291	0.812	812.1	incongruent	Block3	incongruent/STIM_010.jpg	99
2520.089	1.168	1167.6	incongruent	Block3	incongruent/STIM_010.jpg	99
2524.034	1.042	1042.4	incongruent	Block3	incongruent/STIM_010.jpg	100
2528.835	0.648	648.5	incongruent	Block3	incongruent/STIM_011.jpg	100
2532.152	1.006	1005.6	incongruent	Block3	incongruent/STIM_011.jpg	99
2536.557	0.813	812.9	incongruent	Block3	incongruent/STIM_011.jpg	99
2540.002	0.626	625.9	incongruent	Block3	incongruent/STIM_011.jpg	100
2543.035	0.897	897.3	incongruent	Block3	incongruent/STIM_011.jpg	99
2547.118	1.104	1103.7	incongruent	Block3	incongruent/STIM_012.jpg	99
2550.188	0.862	861.7	incongruent	Block3	incongruent/STIM_012.jpg	100
2554.048	1.082	1082.5	incongruent	Block3	incongruent/STIM_012.jpg	100
2558.046	0.944	944.2	incongruent	Block3	incongruent/STIM_012.jpg	100
2561.333	0.956	956.0	incongruent	Block3	incongruent/STIM_012.jpg	99
2565.096	0.768	767.7	incongruent	Block3	incongruent/STIM_013.jpg	100
2568.266	0.682	682.4	incongruent	Block3	incongruent/STIM_013.jpg	99
2572.637	0.565	565.1	incongruent	Block3	incongruent/STIM_013.jpg	99
2576.408	0.6	600.4	incongruent	Block3	incongruent/STIM_013.jpg	100
2580.667	0.972	971.7	incongruent	Block3	incongruent/STIM_013.jpg	99
2584.157	0.755	755.3	incongruent	Block3	incongruent/STIM_014.jpg	100
2587.287	0.824	824.0	incongruent	Block3	incongruent/STIM_014.jpg	100
2590.155	0.69	689.7	incongruent	Block3	incongruent/STIM_014.jpg	100
2593.764	0.868	868.0	incongruent	Block3	incongruent/STIM_014.jpg	99
2597.15	0.476	475.5	incongruent	Block3	incongruent/STIM_014.jpg	100
2600.289	0.722	722.4	incongruent	Block3	incongruent/STIM_015.jpg	99
2604.647	0.868	868.2	incongruent	Block3	incongruent/STIM_015.jpg	99
2609.051	0.735	735.2	incongruent	Block3	incongruent/STIM_015.jpg	99
2612.921	0.596	595.7	incongruent	Block3	incongruent/STIM_015.jpg	99
2617.255	0.867	867.4	incongruent	Block3	incongruent/STIM_015.jpg	99
2620.975	0.648	647.6	incongruent	Block3	incongruent/STIM_016.jpg	100
2624.264	0.646	645.6	incongruent	Block3	incongruent/STIM_016.jpg	100
2627.986	0.95	950.2	incongruent	Block3	incongruent/STIM_016.jpg	99
2632.775	0.728	728.2	incongruent	Block3	incongruent/STIM_016.jpg	99
2635.96	0.576	575.9	incongruent	Block3	incongruent/STIM_016.jpg	99
2638.802	1.007	1006.6	incongruent	Block3	incongruent/STIM_017.jpg	99
2643.638	0.642	641.5	incongruent	Block3	incongruent/STIM_017.jpg	99
2646.863	0.904	903.8	incongruent	Block3	incongruent/STIM_017.jpg	99
2650.514	0.905	905.4	incongruent	Block3	incongruent/STIM_017.jpg	99
2654.792	0.807	806.6	incongruent	Block3	incongruent/STIM_017.jpg	100
2658.04	0.905	905.4	incongruent	Block3	incongruent/STIM_018.jpg	100
2660.991	1.017	1016.8	incongruent	Block3	incongruent/STIM_018.jpg	100
2664.085	0.919	919.4	incongruent	Block3	incongruent/STIM_018.jpg	100
2668.013	0.658	658.4	incongruent	Block3	incongruent/STIM_018.jpg	99
2671.685	0.697	697.2	incongruent	Block3	incongruent/STIM_018.jpg	100
2676.308	0.541	541.0	incongruent	Block3	incongruent/STIM_019.jpg	99
2680.001	0.556	556.5	incongruent	Block3	incongruent/STIM_019.jpg	99
2682.684	1.109	1109.0	incongruent	Block3	incongruent/STIM_019.jpg	100
2686.168	0.99	989.7	incongruent	Block3	incongruent/STIM_019.jpg	99
2689.364	0.991	991.1	incongruent	Block3	incongruent/STIM_019.jpg	100
2693.604	0.639	639.0	incongruent	Block3	incongruent/STIM_020.jpg	100
2697.626	0.695	695.2	incongruent	Block3	incongruent/STIM_020.jpg	99
2700.919	0.913	913.2	incongruent	Block3	incongruent/STIM_020.jpg	99
2704.849	0.668	668.5	incongruent	Block3	incongruent/STIM_020.jpg	99
2709.249	0.653	653.0	incongruent	Block3	incongruent/STIM_020.jpg	99
2713.718	0.965	965.4	incongruent	Block3	incongruent/STIM_021.jpg	100
2717.117	0.943	942.8	incongruent	Block3	incongruent/STIM_021.jpg	99
2722.024	0.752	752.0	incongruent	Block3	incongruent/STIM_021.jpg	100
2726.473	0.593	593.3	incongruent	Block3	incongruent/STIM_021.jpg	100
2729.314	0.896	896.4	incongruent	Block3	incongruent/STIM_021.jpg	99
2732.896	1.114	1114.3	incongruent	Block3	incongruent/STIM_022.jpg	100
2737.069	1.019	1018.8	incongruent	Block3	incongruent/STIM_022.jpg	100
2741.44	0.66	659.7	incongruent	Block3	incongruent/STIM_022.jpg	100
2744.365	0.855	854.6	incongruent	Block3	incongruent/STIM_022.jpg	100
2748.727	0.558	557.6	incongruent	Block3	incongruent/STIM_022.jpg	99
2752.19	0.834	833.9	incongruent	Block3	incongruent/STIM_023.jpg	100
2755.631	0.923	922.7	incongruent	Block3	incongruent/STIM_023.jpg	99
2760.217	0.61	610.5	incongruent	Block3	incongruent/STIM_023.jpg	100
2764.681	0.795	794.9	incongruent	Block3	incongruent/STIM_023.jpg	99
2769.136	1.02	1019.8	incongruent	Block3	incongruent/STIM_023.jpg	100
2772.55	0.742	741.8	incongruent	Block3	incongruent/STIM_024.jpg	100
2776.485	0.694	694.2	incongruent	Block3	incongruent/STIM_024.jpg	100
2779.52	0.522	522.5	incongruent	Block3	incongruent/STIM_024.jpg	99
2783.303	0.861	860.7	incongruent	Block3	incongruent/STIM_024.jpg	100
2787.793	0.961	961.0	incongruent	Block3	incongruent/STIM_024.jpg	99
2792.683	0.763	762.9	incongruent	Block3	incongruent/STIM_025.jpg	99
2797.298	0.825	825.3	incongruent	Block3	incongruent/STIM_025.jpg	100
2800.586	1.091	1090.9	incongruent	Block3	incongruent/STIM_025.jpg	100
2803.642	0.848	848.5	incongruent	Block3	incongruent/STIM_025.jpg	99
2808.168	0.729	728.7	incongruent	Block3	incongruent/STIM_025.jpg	100
2811.743	0.646	645.9	incongruent	Block3	incongruent/STIM_026.jpg	100
2816.378	0.633	632.9	incongruent	Block3	incongruent/STIM_026.jpg	100
2820.024	0.781	781.4	incongruent	Block3	incongruent/STIM_026.jpg	99
2824.019	0.877	876.6	incongruent	Block3	incongruent/STIM_026.jpg	100
2827.781	0.981	980.7	incongruent	Block3	incongruent/STIM_026.jpg	100
2831.473	1.007	1007.1	incongruent	Block3	incongruent/STIM_027.jpg	100
2835.81	0.622	621.6	incongruent	Block3	incongruent/STIM_027.jpg	100
2840.325	1.064	1064.3	incongruent	Block3	incongruent/STIM_027.jpg	100
2845.131	0.941	940.9	incongruent	Block3	incongruent/STIM_027.jpg	99
2849.622	0.663	663.3	incongruent	Block3	incongruent/STIM_027.jpg	99
2853.69	1.008	1007.9	incongruent	Block3	incongruent/STIM_028.jpg	100
2858.274	0.796	795.8	incongruent	Block3	incongruent/STIM_028.jpg	99
2861.792	0.52	520.0	incongruent	Block3	incongruent/STIM_028.jpg	99
2865.044	0.821	820.7	incongruent	Block3	incongruent/STIM_028.jpg	100
2868.484	0.821	820.6	incongruent	Block3	incongruent/STIM_028.jpg	99
2872.988	0.851	850.9	incongruent	Block3	incongruent/STIM_029.jpg	99
2877.427	1.06	1059.6	incongruent	Block3	incongruent/STIM_029.jpg	100
2881.406	0.611	611.0	incongruent	Block3	incongruent/STIM_029.jpg	100
2884.775	0.47	470.5	incongruent	Block3	incongruent/STIM_029.jpg	100
2889.241	0.766	766.0	incongruent	Block3	incongruent/STIM_029.jpg	100
2892.386	0.906	905.9	congruent	Block3	congruent/STIM_000.jpg	100
2897.046	0.814	814.1	congruent	Block3	congruent/STIM_000.jpg	100
2901.479	0.927	927.3	congruent	Block3	congruent/STIM_000.jpg	100
2904.483	0.575	574.6	congruent	Block3	congruent/STIM_000.jpg	99
2908.162	0.544	544.5	congruent	Block3	congruent/STIM_000.jpg	99
2911.702	0.77	769.5	congruent	Block3	congruent/STIM_001.jpg	99
2915.573	0.854	854.2	congruent	Block3	congruent/STIM_001.jpg	99
2919.396	0.733	732.6	congruent	Block3	congruent/STIM_001.jpg	99
2923.568	0.498	498.5	congruent	Block3	congruent/STIM_001.jpg	100
2926.862	0.582	581.8	congruent	Block3	congruent/STIM_001.jpg	99
2929.677	0.962	962.2	congruent	Block3	congruent/STIM_002.jpg	99
2933.531	0.745	745.0	congruent	Block3	congruent/STIM_002.jpg	100
2936.292	0.669	669.3	congruent	Block3	congruent/STIM_002.jpg	100
2940.631	0.592	591.6	congruent	Block3	congruent/STIM_002.jpg	100
2944.983	0.594	594.1	congruent	Block3	congruent/STIM_002.jpg	100
2949.311	0.879	878.8	congruent	Block3	congruent/STIM_003.jpg	100
2953.315	0.608	607.8	congruent	Block3	congruent/STIM_003.jpg	100
2957.728	0.631	631.1	congruent	Block3	congruent/STIM_003.jpg	99
2960.661	0.818	817.6	congruent	Block3	congruent/STIM_003.jpg	99
2964.588	0.9	900.1	congruent	Block3	congruent/STIM_003.jpg	99
2969.198	0.633	633.2	congruent	Block3	congruent/STIM_004.jpg	99
2973.099	0.906	906.1	congruent	Block3	congruent/STIM_004.jpg	100
2977.124	0.851	850.9	congruent	Block3	congruent/STIM_004.jpg	99
2980.126	1.001	1000.9	congruent	Block3	congruent/STIM_004.jpg	100
2983.411	0.839	838.9	congruent	Block3	congruent/STIM_004.jpg	100
2986.503	0.751	750.9	congruent	Block3	congruent/STIM_005.jpg	100
2989.785	0.69	690.1	congruent	Block3	congruent/STIM_005.jpg	99
2992.711	0.754	754.3	congruent	Block3	congruent/STIM_005.jpg	99
2996.109	0.569	568.9	congruent	Block3	congruent/STIM_005.jpg	99
2999.71	0.869	868.8	congruent	Block3	congruent/STIM_005.jpg	100
3003.804	0.689	689.1	congruent	Block3	congruent/STIM_006.jpg	100
3007.962	0.931	930.9	congruent	Block3	congruent/STIM_006.jpg	99
3011.355	0.525	525.4	congruent	Block3	congruent/STIM_006.jpg	99
3015.766	1.01	1010.2	congruent	Block3	congruent/STIM_006.jpg	100
3020.07	0.774	774.3	congruent	Block3	congruent/STIM_006.jpg	100
3023.297	0.789	788.6	congruent	Block3	congruent/STIM_007.jpg	99
3026.153	0.689	689.0	congruent	Block3	congruent/STIM_007.jpg	99
3029.941	0.615	615.4	congruent	Block3	congruent/STIM_007.jpg	99
3032.512	0.682	682.0	congruent	Block3	congruent/STIM_007.jpg	100
3035.509	0.673	672.8	congruent	Block3	congruent/STIM_007.jpg	99
3038.92	0.502	501.6	congruent	Block3	congruent/STIM_008.jpg	100
3043.204	0.851	851.4	congruent	Block3	congruent/STIM_008.jpg	99
3046.939	0.649	649.1	congruent	Block3	congruent/STIM_008.jpg	99
3049.505	1.007	1007.0	congruent	Block3	congruent/STIM_008.jpg	99
3054.179	0.527	527.0	congruent	Block3	congruent/STIM_008.jpg	100
3057.167	0.698	697.8	congruent	Block3	congruent/STIM_009.jpg	100
3061.497	0.673	673.3	congruent	Block3	congruent/STIM_009.jpg	100
3064.98	0.809	808.8	congruent	Block3	congruent/STIM_009.jpg	99
3068.001	0.828	827.8	congruent	Block3	congruent/STIM_009.jpg	100
3072.052	0.86	859.6	congruent	Block3	congruent/STIM_009.jpg	100
3075.787	0.812	812.3	congruent	Block3	congruent/STIM_010.jpg	100
3078.578	0.546	546.5	congruent	Block3	congruent/STIM_010.jpg	100
3081.571	0.809	809.4	congruent	Block3	congruent/STIM_010.jpg	100
3085.357	0.896	896.1	congruent	Block3	congruent/STIM_010.jpg	99
3089.56	0.707	707.3	congruent	Block3	congruent/STIM_010.jpg	99
3093.127	0.89	890.3	congruent	Block3	congruent/STIM_011.jpg	100
3097.207	0.652	652.3	congruent	Block3	congruent/STIM_011.jpg	100
3101.157	0.575	574.9	congruent	Block3	congruent/STIM_011.jpg	100
3104.761	0.611	611.4	congruent	Block3	congruent/STIM_011.jpg	100
3107.597	0.976	976.3	congruent	Block3	congruent/STIM_011.jpg	99
3110.951	0.78	780.3	congruent	Block3	congruent/STIM_012.jpg	99
3113.688	0.676	675.8	congruent	Block3	congruent/STIM_012.jpg	100
3117.091	0.647	646.8	congruent	Block3	congruent/STIM_012.jpg	100
3121.461	0.764	764.4	congruent	Block3	congruent/STIM_012.jpg	100
3124.802	0.559	558.7	congruent	Block3	congruent/STIM_012.jpg	99
3129.282	0.978	978.2	congruent	Block3	congruent/STIM_013.jpg	99
3133.345	0.808	808.4	congruent	Block3	congruent/STIM_013.jpg	100
3137.671	0.561	560.8	congruent	Block3	congruent/STIM_013.jpg	99
3140.886	0.781	781.1	congruent	Block3	congruent/STIM_013.jpg	100
3143.769	0.871	871.1	congruent	Block3	congruent/STIM_013.jpg	99
3148.345	0.961	961.3	congruent	Block3	congruent/STIM_014.jpg	99
3152.218	0.548	547.9	congruent	Block3	congruent/STIM_014.jpg	99
3156.674	0.734	733.9	congruent	Block3	congruent/STIM_014.jpg	100
3160.781	0.863	863.4	congruent	Block3	congruent/STIM_014.jpg	100
3164.916	0.729	729.4	congruent	Block3	congruent/STIM_014.jpg	100
3168.263	0.672	672.1	congruent	Block3	congruent/STIM_015.jpg	100
3172.189	0.713	713.4	congruent	Block3	congruent/STIM_015.jpg	99
3175.394	0.805	804.9	congruent	Block3	congruent/STIM_015.jpg	100
3179.269	0.61	610.0	congruent	Block3	congruent/STIM_015.jpg	100
3183.657	0.855	854.7	congruent	Block3	congruent/STIM_015.jpg	99
3186.866	0.686	686.4	congruent	Block3	congruent/STIM_016.jpg	100
3190.898	0.662	661.8	congruent	Block3	congruent/STIM_016.jpg	99
3194.488	0.933	933.1	congruent	Block3	congruent/STIM_016.jpg	100
3197.857	0.808	807.7	congruent	Block3	congruent/STIM_016.jpg	99
3200.99	0.989	988.8	congruent	Block3	congruent/STIM_016.jpg	100
3205.377	0.6	599.9	congruent	Block3	congruent/STIM_017.jpg	100
3208.676	0.568	567.6	congruent	Block3	congruent/STIM_017.jpg	100
3212.165	0.682	681.8	congruent	Block3	congruent/STIM_017.jpg	99
3216.414	0.825	825.4	congruent	Block3	congruent/STIM_017.jpg	100
3220.354	0.699	698.7	congruent	Block3	congruent/STIM_017.jpg	100
3224.569	0.458	457.7	congruent	Block3	congruent/STIM_018.jpg	99
3227.959	0.556	556.2	congruent	Block3	congruent/STIM_018.jpg	100
3231.102	0.874	874.2	congruent	Block3	congruent/STIM_018.jpg	99
3234.569	0.612	612.3	congruent	Block3	congruent/STIM_018.jpg	100
3238.347	0.67	669.9	congruent	Block3	congruent/STIM_018.jpg	99
3242.608	0.773	773.4	congruent	Block3	congruent/STIM_019.jpg	100
3245.434	0.925	924.9	congruent	Block3	congruent/STIM_019.jpg	99
3249.148	0.654	654.5	congruent	Block3	congruent/STIM_019.jpg	100
3252.159	0.503	502.9	congruent	Block3	congruent/STIM_019.jpg	99
3255.746	0.862	861.5	congruent	Block3	congruent/STIM_019.jpg	100
3258.592	0.564	564.5	congruent	Block3	congruent/STIM_020.jpg	100
3262.144	0.605	604.8	congruent	Block3	congruent/STIM_020.jpg	99
3265.71	0.907	907.4	congruent	Block3	congruent/STIM_020.jpg	99
3269.971	0.859	859.2	congruent	Block3	congruent/STIM_020.jpg	100
3274.149	0.664	663.5	congruent	Block3	congruent/STIM_020.jpg	100
3278.243	0.611	610.9	congruent	Block3	congruent/STIM_021.jpg	100
3282.767	0.905	905.0	congruent	Block3	congruent/STIM_021.jpg	100
3287.072	0.58	579.8	congruent	Block3	congruent/STIM_021.jpg	99
3291.44	0.635	635.4	congruent	Block3	congruent/STIM_021.jpg	100
3295.791	0.546	545.8	congruent	Block3	congruent/STIM_021.jpg	100
3299.914	0.758	758.5	congruent	Block3	congruent/STIM_022.jpg	99
3303.807	0.65	650.5	congruent	Block3	congruent/STIM_022.jpg	100
3307.362	1.004	1004.3	congruent	Block3	congruent/STIM_022.jpg	100
3311.374	0.756	755.6	congruent	Block3	congruent/STIM_022.jpg	99
3315.263	0.966	965.6	congruent	Block3	congruent/STIM_022.jpg	99
3318.694	0.899	899.4	congruent	Block3	congruent/STIM_023.jpg	99
3322.499	0.663	663.2	congruent	Block3	congruent/STIM_023.jpg	99
3325.448	0.699	699.4	congruent	Block3	congruent/STIM_023.jpg	99
3328.397	0.912	912.4	congruent	Block3	congruent/STIM_023.jpg	99
3331.491	0.58	579.6	congruent	Block3	congruent/STIM_023.jpg	99
3335.089	0.788	787.7	congruent	Block3	congruent/STIM_024.jpg	99
3339.699	0.573	572.8	congruent	Block3	congruent/STIM_024.jpg	100
3343.602	0.805	804.7	congruent	Block3	congruent/STIM_024.jpg	100
3347.28	0.96	959.7	congruent	Block3	congruent/STIM_024.jpg	100
3350.229	0.688	687.9	congruent	Block3	congruent/STIM_024.jpg	100
3352.971	0.757	756.8	congruent	Block3	congruent/STIM_025.jpg	99
3356.819	0.784	784.2	congruent	Block3	congruent/STIM_025.jpg	100
3360.99	0.856	856.2	congruent	Block3	congruent/STIM_025.jpg	100
3365.31	0.729	728.8	congruent	Block3	congruent/STIM_025.jpg	99
3368.458	0.684	684.1	congruent	Block3	congruent/STIM_025.jpg	100
3373.017	0.681	680.9	congruent	Block3	congruent/STIM_026.jpg	99
3377.042	0.689	689.3	congruent	Block3	congruent/STIM_026.jpg	99
3379.872	0.789	788.6	congruent	Block3	congruent/STIM_026.jpg	100
3384.213	0.769	769.2	congruent	Block3	congruent/STIM_026.jpg	99
3388.798	0.656	656.3	congruent	Block3	congruent/STIM_026.jpg	100
3392.839	0.887	887.0	congruent	Block3	congruent/STIM_027.jpg	100
3395.748	0.702	702.5	congruent	Block3	congruent/STIM_027.jpg	99
3400.239	0.933	932.6	congruent	Block3	congruent/STIM_027.jpg	100
3403.85	0.743	743.0	congruent	Block3	congruent/STIM_027.jpg	99
3407.835	0.906	905.8	congruent	Block3	congruent/STIM_027.jpg	99
3410.896	0.862	862.4	congruent	Block3	congruent/STIM_028.jpg	100
3414.714	0.778	777.5	congruent	Block3	congruent/STIM_028.jpg	99
3419.285	0.659	658.6	congruent	Block3	congruent/STIM_028.jpg	100
3423.036	0.835	834.6	congruent	Block3	congruent/STIM_028.jpg	99
3427.403	0.695	695.0	congruent	Block3	congruent/STIM_028.jpg	99
3431.392	0.648	647.8	congruent	Block3	congruent/STIM_029.jpg	100
3435.756	0.414	414.0	congruent	Block3	congruent/STIM_029.jpg	99
3440.234	0.707	707.3	congruent	Block3	congruent/STIM_029.jpg	100
3443.306	0.888	887.7	congruent	Block3	congruent/STIM_029.jpg	99
3446.268	0.884	883.8	congruent	Block3	congruent/STIM_029.jpg	99
