onset	duration	accuracy	trial_type	learning_stage	stimulus
0.0	1.622	correct	incongruent	Block1	incongruent/STIM_000.jpg
4.177	1.348	correct	incongruent	Block1	incongruent/STIM_000.jpg
8.381	1.217	correct	incongruent	Block1	incongruent/STIM_000.jpg
13.132	0.99	correct	incongruent	Block1	incongruent/STIM_000.jpg
16.288	0.958	correct	incongruent	Block1	incongruent/STIM_000.jpg
21.008	1.67	correct	incongruent	Block1	incongruent/STIM_001.jpg
26.626	0.797	correct	incongruent	Block1	incongruent/STIM_001.jpg
30.609	0.864	correct	incongruent	Block1	incongruent/STIM_001.jpg
34.036	0.843	incorrect	incongruent	Block1	incongruent/STIM_001.jpg
37.302	0.752	correct	incongruent	Block1	incongruent/STIM_001.jpg
40.738	1.134	correct	incongruent	Block1	incongruent/STIM_002.jpg
44.931	1.518	incorrect	incongruent	Block1	incongruent/STIM_002.jpg
48.533	1.473	correct	incongruent	Block1	incongruent/STIM_002.jpg
52.553	0.818	correct	incongruent	Block1	incongruent/STIM_002.jpg
56.41	0.826	correct	incongruent	Block1	incongruent/STIM_002.jpg
60.975	1.482	correct	incongruent	Block1	incongruent/STIM_003.jpg
66.064	1.16	correct	incongruent	Block1	incongruent/STIM_003.jpg
69.757	0.931	correct	incongruent	Block1	incongruent/STIM_003.jpg
73.829	0.714	correct	incongruent	Block1	incongruent/STIM_003.jpg
77.395	0.698	correct	incongruent	Block1	incongruent/STIM_003.jpg
81.823	1.064	correct	incongruent	Block1	incongruent/STIM_004.jpg
86.703	0.834	correct	incongruent	Block1	incongruent/STIM_004.jpg
91.076	0.88	correct	incongruent	Block1	incongruent/STIM_004.jpg
95.4	1.154	correct	incongruent	Block1	incongruent/STIM_004.jpg
100.182	1.014	correct	incongruent	Block1	incongruent/STIM_004.jpg
104.437	1.117	correct	incongruent	Block1	incongruent/STIM_005.jpg
108.82	1.452	correct	incongruent	Block1	incongruent/STIM_005.jpg
113.676	1.557	incorrect	incongruent	Block1	incongruent/STIM_005.jpg
118.751	1.296	correct	incongruent	Block1	incongruent/STIM_005.jpg
122.421	1.198	correct	incongruent	Block1	incongruent/STIM_005.jpg
126.486	0.95	incorrect	incongruent	Block1	incongruent/STIM_006.jpg
130.949	1.129	correct	incongruent	Block1	incongruent/STIM_006.jpg
134.359	0.923	correct	incongruent	Block1	incongruent/STIM_006.jpg
138.317	1.134	correct	incongruent	Block1	incongruent/STIM_006.jpg
141.95	0.762	correct	incongruent	Block1	incongruent/STIM_006.jpg
146.226	1.433	correct	incongruent	Block1	incongruent/STIM_007.jpg
151.593	1.398	correct	incongruent	Block1	incongruent/STIM_007.jpg
155.893	1.115	correct	incongruent	Block1	incongruent/STIM_007.jpg
160.285	1.226	correct	incongruent	Block1	incongruent/STIM_007.jpg
163.996	1.298	correct	incongruent	Block1	incongruent/STIM_007.jpg
168.666	0.872	correct	incongruent	Block1	incongruent/STIM_008.jpg
172.171	1.291	correct	incongruent	Block1	incongruent/STIM_008.jpg
177.334	1.342	correct	incongruent	Block1	incongruent/STIM_008.jpg
182.012	1.493	correct	incongruent	Block1	incongruent/STIM_008.jpg
187.448	1.111	correct	incongruent	Block1	incongruent/STIM_008.jpg
192.119	0.929	correct	incongruent	Block1	incongruent/STIM_009.jpg
195.956	1.152	correct	incongruent	Block1	incongruent/STIM_009.jpg
199.247	1.3	correct	incongruent	Block1	incongruent/STIM_009.jpg
202.656	0.859	correct	incongruent	Block1	incongruent/STIM_009.jpg
207.064	1.391	correct	incongruent	Block1	incongruent/STIM_009.jpg
211.046	1.288	incorrect	incongruent	Block1	incongruent/STIM_010.jpg
214.341	1.24	correct	incongruent	Block1	incongruent/STIM_010.jpg
218.872	1.28	correct	incongruent	Block1	incongruent/STIM_010.jpg
222.166	1.478	correct	incongruent	Block1	incongruent/STIM_010.jpg
226.787	1.27	correct	incongruent	Block1	incongruent/STIM_010.jpg
230.997	0.909	correct	incongruent	Block1	incongruent/STIM_011.jpg
235.235	1.661	incorrect	incongruent	Block1	incongruent/STIM_011.jpg
240.661	0.78	correct	incongruent	Block1	incongruent/STIM_011.jpg
245.298	1.023	correct	incongruent	Block1	incongruent/STIM_011.jpg
248.439	1.329	correct	incongruent	Block1	incongruent/STIM_011.jpg
252.473	1.638	correct	incongruent	Block1	incongruent/STIM_012.jpg
257.97	1.47	correct	incongruent	Block1	incongruent/STIM_012.jpg
262.421	1.221	incorrect	incongruent	Block1	incongruent/STIM_012.jpg
265.979	0.723	correct	incongruent	Block1	incongruent/STIM_012.jpg
269.656	1.352	incorrect	incongruent	Block1	incongruent/STIM_012.jpg
274.04	1.466	correct	incongruent	Block1	incongruent/STIM_013.jpg
278.855	1.023	incorrect	incongruent	Block1	incongruent/STIM_013.jpg
283.634	1.008	correct	incongruent	Block1	incongruent/STIM_013.jpg
288.512	1.092	incorrect	incongruent	Block1	incongruent/STIM_013.jpg
293.114	1.066	correct	incongruent	Block1	incongruent/STIM_013.jpg
296.927	1.094	correct	incongruent	Block1	incongruent/STIM_014.jpg
300.649	1.04	correct	incongruent	Block1	incongruent/STIM_014.jpg
304.192	0.756	correct	incongruent	Block1	incongruent/STIM_014.jpg
307.505	1.457	incorrect	incongruent	Block1	incongruent/STIM_014.jpg
311.96	1.292	correct	incongruent	Block1	incongruent/STIM_014.jpg
316.493	1.062	correct	incongruent	Block1	incongruent/STIM_015.jpg
320.403	1.269	correct	incongruent	Block1	incongruent/STIM_015.jpg
324.322	0.984	correct	incongruent	Block1	incongruent/STIM_015.jpg
329.25	1.274	correct	incongruent	Block1	incongruent/STIM_015.jpg
333.019	0.869	correct	incongruent	Block1	incongruent/STIM_015.jpg
335.998	1.37	correct	incongruent	Block1	incongruent/STIM_016.jpg
339.498	0.929	incorrect	incongruent	Block1	incongruent/STIM_016.jpg
343.39	0.746	correct	incongruent	Block1	incongruent/STIM_016.jpg
346.856	0.824	correct	incongruent	Block1	incongruent/STIM_016.jpg
351.184	1.108	correct	incongruent	Block1	incongruent/STIM_016.jpg
355.92	1.769	correct	incongruent	Block1	incongruent/STIM_017.jpg
359.717	1.01	correct	incongruent	Block1	incongruent/STIM_017.jpg
363.092	1.193	correct	incongruent	Block1	incongruent/STIM_017.jpg
367.261	0.951	correct	incongruent	Block1	incongruent/STIM_017.jpg
371.251	1.197	correct	incongruent	Block1	incongruent/STIM_017.jpg
376.413	0.833	correct	incongruent	Block1	incongruent/STIM_018.jpg
380.391	1.234	correct	incongruent	Block1	incongruent/STIM_018.jpg
385.281	0.832	correct	incongruent	Block1	incongruent/STIM_018.jpg
389.217	1.071	correct	incongruent	Block1	incongruent/STIM_018.jpg
392.481	1.118	incorrect	incongruent	Block1	incongruent/STIM_018.jpg
396.468	1.758	correct	incongruent	Block1	incongruent/STIM_019.jpg
400.28	1.501	correct	incongruent	Block1	incongruent/STIM_019.jpg
404.701	1.502	correct	incongruent	Block1	incongruent/STIM_019.jpg
408.218	0.792	correct	incongruent	Block1	incongruent/STIM_019.jpg
411.97	0.949	correct	incongruent	Block1	incongruent/STIM_019.jpg
416.354	1.314	correct	incongruent	Block1	incongruent/STIM_020.jpg
420.672	1.059	correct	incongruent	Block1	incongruent/STIM_020.jpg
425.218	1.096	correct	incongruent	Block1	incongruent/STIM_020.jpg
428.333	1.235	correct	incongruent	Block1	incongruent/STIM_020.jpg
432.222	1.279	correct	incongruent	Block1	incongruent/STIM_020.jpg
435.568	1.101	correct	incongruent	Block1	incongruent/STIM_021.jpg
439.489	1.644	correct	incongruent	Block1	incongruent/STIM_021.jpg
443.595	1.026	correct	incongruent	Block1	incongruent/STIM_021.jpg
446.748	1.375	correct	incongruent	Block1	incongruent/STIM_021.jpg
451.249	0.721	correct	incongruent	Block1	incongruent/STIM_021.jpg
454.317	1.323	correct	incongruent	Block1	incongruent/STIM_022.jpg
457.843	0.938	correct	incongruent	Block1	incongruent/STIM_022.jpg
460.962	1.18	correct	incongruent	Block1	incongruent/STIM_022.jpg
464.731	1.004	incorrect	incongruent	Block1	incongruent/STIM_022.jpg
468.409	0.933	correct	incongruent	Block1	incongruent/STIM_022.jpg
471.98	1.414	correct	incongruent	Block1	incongruent/STIM_023.jpg
476.023	1.544	correct	incongruent	Block1	incongruent/STIM_023.jpg
481.457	1.342	correct	incongruent	Block1	incongruent/STIM_023.jpg
485.498	1.317	correct	incongruent	Block1	incongruent/STIM_023.jpg
489.676	0.926	incorrect	incongruent	Block1	incongruent/STIM_023.jpg
493.662	1.457	correct	incongruent	Block1	incongruent/STIM_024.jpg
497.969	1.646	correct	incongruent	Block1	incongruent/STIM_024.jpg
502.571	1.228	correct	incongruent	Block1	incongruent/STIM_024.jpg
506.601	0.836	correct	incongruent	Block1	incongruent/STIM_024.jpg
510.319	0.687	correct	incongruent	Block1	incongruent/STIM_024.jpg
513.926	1.577	correct	incongruent	Block1	incongruent/STIM_025.jpg
519.35	1.615	correct	incongruent	Block1	incongruent/STIM_025.jpg
524.47	1.041	correct	incongruent	Block1	incongruent/STIM_025.jpg
527.915	0.967	correct	incongruent	Block1	incongruent/STIM_025.jpg
531.094	0.853	correct	incongruent	Block1	incongruent/STIM_025.jpg
534.565	0.993	correct	incongruent	Block1	incongruent/STIM_026.jpg
539.038	1.332	correct	incongruent	Block1	incongruent/STIM_026.jpg
542.641	1.233	correct	incongruent	Block1	incongruent/STIM_026.jpg
546.916	0.733	correct	incongruent	Block1	incongruent/STIM_026.jpg
549.794	1.169	correct	incongruent	Block1	incongruent/STIM_026.jpg
553.205	1.251	correct	incongruent	Block1	incongruent/STIM_027.jpg
557.213	1.181	correct	incongruent	Block1	incongruent/STIM_027.jpg
562.229	1.184	correct	incongruent	Block1	incongruent/STIM_027.jpg
565.55	1.142	correct	incongruent	Block1	incongruent/STIM_027.jpg
570.491	1.111	incorrect	incongruent	Block1	incongruent/STIM_027.jpg
574.505	1.24	correct	incongruent	Block1	incongruent/STIM_028.jpg
578.972	0.966	correct	incongruent	Block1	incongruent/STIM_028.jpg
583.013	1.042	correct	incongruent	Block1	incongruent/STIM_028.jpg
586.787	0.791	correct	incongruent	Block1	incongruent/STIM_028.jpg
590.266	0.866	correct	incongruent	Block1	incongruent/STIM_028.jpg
594.181	1.743	correct	incongruent	Block1	incongruent/STIM_029.jpg
598.842	1.093	correct	incongruent	Block1	incongruent/STIM_029.jpg
602.591	0.977	incorrect	incongruent	Block1	incongruent/STIM_029.jpg
606.124	1.281	correct	incongruent	Block1	incongruent/STIM_029.jpg
611.076	1.054	correct	incongruent	Block1	incongruent/STIM_029.jpg
616.082	0.681	correct	congruent	Block1	congruent/STIM_000.jpg
619.856	0.986	correct	congruent	Block1	congruent/STIM_000.jpg
623.195	0.979	correct	congruent	Block1	congruent/STIM_000.jpg
628.011	0.677	correct	congruent	Block1	congruent/STIM_000.jpg
631.455	0.704	correct	congruent	Block1	congruent/STIM_000.jpg
635.828	0.64	correct	congruent	Block1	congruent/STIM_001.jpg
639.499	0.998	correct	congruent	Block1	congruent/STIM_001.jpg
644.027	0.968	correct	congruent	Block1	congruent/STIM_001.jpg
647.083	0.742	correct	congruent	Block1	congruent/STIM_001.jpg
650.998	0.848	correct	congruent	Block1	congruent/STIM_001.jpg
655.044	0.896	correct	congruent	Block1	congruent/STIM_002.jpg
659.326	0.679	correct	congruent	Block1	congruent/STIM_002.jpg
662.028	0.95	correct	congruent	Block1	congruent/STIM_002.jpg
665.552	0.762	correct	congruent	Block1	congruent/STIM_002.jpg
668.477	0.645	correct	congruent	Block1	congruent/STIM_002.jpg
672.699	0.904	correct	congruent	Block1	congruent/STIM_003.jpg
677.57	1.008	correct	congruent	Block1	congruent/STIM_003.jpg
681.374	0.955	correct	congruent	Block1	congruent/STIM_003.jpg
684.44	0.902	correct	congruent	Block1	congruent/STIM_003.jpg
688.188	0.633	incorrect	congruent	Block1	congruent/STIM_003.jpg
691.329	0.679	correct	congruent	Block1	congruent/STIM_004.jpg
694.18	0.949	correct	congruent	Block1	congruent/STIM_004.jpg
697.995	1.001	correct	congruent	Block1	congruent/STIM_004.jpg
701.551	0.996	correct	congruent	Block1	congruent/STIM_004.jpg
705.721	0.885	correct	congruent	Block1	congruent/STIM_004.jpg
709.577	0.882	correct	congruent	Block1	congruent/STIM_005.jpg
713.834	1.044	correct	congruent	Block1	congruent/STIM_005.jpg
717.79	0.68	correct	congruent	Block1	congruent/STIM_005.jpg
720.575	0.689	correct	congruent	Block1	congruent/STIM_005.jpg
724.679	0.676	correct	congruent	Block1	congruent/STIM_005.jpg
728.223	0.742	correct	congruent	Block1	congruent/STIM_006.jpg
731.929	0.975	correct	congruent	Block1	congruent/STIM_006.jpg
736.25	1.014	correct	congruent	Block1	congruent/STIM_006.jpg
739.943	0.892	correct	congruent	Block1	congruent/STIM_006.jpg
743.516	0.594	correct	congruent	Block1	congruent/STIM_006.jpg
746.441	0.948	correct	congruent	Block1	congruent/STIM_007.jpg
749.486	0.669	correct	congruent	Block1	congruent/STIM_007.jpg
753.493	0.61	correct	congruent	Block1	congruent/STIM_007.jpg
757.163	0.626	correct	congruent	Block1	congruent/STIM_007.jpg
760.761	0.828	correct	congruent	Block1	congruent/STIM_007.jpg
763.882	0.605	correct	congruent	Block1	congruent/STIM_008.jpg
766.536	0.86	correct	congruent	Block1	congruent/STIM_008.jpg
769.889	0.805	correct	congruent	Block1	congruent/STIM_008.jpg
773.59	0.651	correct	congruent	Block1	congruent/STIM_008.jpg
776.866	0.67	correct	congruent	Block1	congruent/STIM_008.jpg
781.053	0.9	correct	congruent	Block1	congruent/STIM_009.jpg
784.689	0.875	correct	congruent	Block1	congruent/STIM_009.jpg
789.393	0.829	correct	congruent	Block1	congruent/STIM_009.jpg
793.871	0.784	correct	congruent	Block1	congruent/STIM_009.jpg
798.298	0.757	correct	congruent	Block1	congruent/STIM_009.jpg
802.161	0.69	correct	congruent	Block1	congruent/STIM_010.jpg
804.994	0.846	incorrect	congruent	Block1	congruent/STIM_010.jpg
808.704	0.817	correct	congruent	Block1	congruent/STIM_010.jpg
813.149	0.94	correct	congruent	Block1	congruent/STIM_010.jpg
817.012	0.65	correct	congruent	Block1	congruent/STIM_010.jpg
819.788	1.01	correct	congruent	Block1	congruent/STIM_011.jpg
822.92	0.762	correct	congruent	Block1	congruent/STIM_011.jpg
826.165	0.646	correct	congruent	Block1	congruent/STIM_011.jpg
829.807	0.822	correct	congruent	Block1	congruent/STIM_011.jpg
832.763	0.7	correct	congruent	Block1	congruent/STIM_011.jpg
836.91	0.908	correct	congruent	Block1	congruent/STIM_012.jpg
841.631	0.972	correct	congruent	Block1	congruent/STIM_012.jpg
846.418	0.803	correct	congruent	Block1	congruent/STIM_012.jpg
850.719	0.971	correct	congruent	Block1	congruent/STIM_012.jpg
854.417	1.048	correct	congruent	Block1	congruent/STIM_012.jpg
859.163	1.026	correct	congruent	Block1	congruent/STIM_013.jpg
863.754	0.92	correct	congruent	Block1	congruent/STIM_013.jpg
868.39	0.896	correct	congruent	Block1	congruent/STIM_013.jpg
871.572	0.677	correct	congruent	Block1	congruent/STIM_013.jpg
875.163	0.92	correct	congruent	Block1	congruent/STIM_013.jpg
878.118	0.669	correct	congruent	Block1	congruent/STIM_014.jpg
882.389	0.872	correct	congruent	Block1	congruent/STIM_014.jpg
886.101	0.868	correct	congruent	Block1	congruent/STIM_014.jpg
889.3	0.665	correct	congruent	Block1	congruent/STIM_014.jpg
892.51	0.895	correct	congruent	Block1	congruent/STIM_014.jpg
895.609	0.701	correct	congruent	Block1	congruent/STIM_015.jpg
899.644	0.905	correct	congruent	Block1	congruent/STIM_015.jpg
902.634	0.997	correct	congruent	Block1	congruent/STIM_015.jpg
905.631	0.772	correct	congruent	Block1	congruent/STIM_015.jpg
909.089	0.698	correct	congruent	Block1	congruent/STIM_015.jpg
912.377	0.804	correct	congruent	Block1	congruent/STIM_016.jpg
917.037	0.761	correct	congruent	Block1	congruent/STIM_016.jpg
920.611	0.882	correct	congruent	Block1	congruent/STIM_016.jpg
925.158	0.756	correct	congruent	Block1	congruent/STIM_016.jpg
929.422	0.727	correct	congruent	Block1	congruent/STIM_016.jpg
933.405	0.978	correct	congruent	Block1	congruent/STIM_017.jpg
938.294	1.042	correct	congruent	Block1	congruent/STIM_017.jpg
941.875	0.934	correct	congruent	Block1	congruent/STIM_017.jpg
945.52	0.785	correct	congruent	Block1	congruent/STIM_017.jpg
949.196	0.971	correct	congruent	Block1	congruent/STIM_017.jpg
953.848	0.75	correct	congruent	Block1	congruent/STIM_018.jpg
957.002	0.92	correct	congruent	Block1	congruent/STIM_018.jpg
961.215	0.634	correct	congruent	Block1	congruent/STIM_018.jpg
965.047	0.628	correct	congruent	Block1	congruent/STIM_018.jpg
967.93	1.034	correct	congruent	Block1	congruent/STIM_018.jpg
972.263	0.952	correct	congruent	Block1	congruent/STIM_019.jpg
976.957	1.037	correct	congruent	Block1	congruent/STIM_019.jpg
980.636	0.606	correct	congruent	Block1	congruent/STIM_019.jpg
984.811	0.653	correct	congruent	Block1	congruent/STIM_019.jpg
988.872	0.78	correct	congruent	Block1	congruent/STIM_019.jpg
992.089	0.8	correct	congruent	Block1	congruent/STIM_020.jpg
996.502	0.618	incorrect	congruent	Block1	congruent/STIM_020.jpg
1000.633	0.739	correct	congruent	Block1	congruent/STIM_020.jpg
1004.693	0.948	correct	congruent	Block1	congruent/STIM_020.jpg
1009.011	0.668	correct	congruent	Block1	congruent/STIM_020.jpg
1013.63	0.833	correct	congruent	Block1	congruent/STIM_021.jpg
1016.876	0.679	correct	congruent	Block1	congruent/STIM_021.jpg
1020.72	0.889	correct	congruent	Block1	congruent/STIM_021.jpg
1025.039	0.634	correct	congruent	Block1	congruent/STIM_021.jpg
1028.134	1.043	incorrect	congruent	Block1	congruent/STIM_021.jpg
1031.615	0.879	correct	congruent	Block1	congruent/STIM_022.jpg
1035.721	1.046	correct	congruent	Block1	congruent/STIM_022.jpg
1038.885	0.976	incorrect	congruent	Block1	congruent/STIM_022.jpg
1042.848	0.611	correct	congruent	Block1	congruent/STIM_022.jpg
1046.596	1.04	correct	congruent	Block1	congruent/STIM_022.jpg
1050.639	0.693	correct	congruent	Block1	congruent/STIM_023.jpg
1054.43	0.726	correct	congruent	Block1	congruent/STIM_023.jpg
1057.81	1.004	correct	congruent	Block1	congruent/STIM_023.jpg
1061.741	0.763	correct	congruent	Block1	congruent/STIM_023.jpg
1066.118	0.802	correct	congruent	Block1	congruent/STIM_023.jpg
1069.223	0.807	correct	congruent	Block1	congruent/STIM_024.jpg
1072.56	0.995	correct	congruent	Block1	congruent/STIM_024.jpg
1075.76	0.686	correct	congruent	Block1	congruent/STIM_024.jpg
1079.902	0.948	correct	congruent	Block1	congruent/STIM_024.jpg
1084.303	0.894	correct	congruent	Block1	congruent/STIM_024.jpg
1087.524	0.957	correct	congruent	Block1	congruent/STIM_025.jpg
1091.154	0.816	correct	congruent	Block1	congruent/STIM_025.jpg
1094.455	0.634	correct	congruent	Block1	congruent/STIM_025.jpg
1098.939	0.787	correct	congruent	Block1	congruent/STIM_025.jpg
1103.578	0.84	correct	congruent	Block1	congruent/STIM_025.jpg
1106.506	0.611	correct	congruent	Block1	congruent/STIM_026.jpg
1109.568	0.702	correct	congruent	Block1	congruent/STIM_026.jpg
1112.337	1.038	correct	congruent	Block1	congruent/STIM_026.jpg
1116.918	0.633	correct	congruent	Block1	congruent/STIM_026.jpg
1119.827	0.672	correct	congruent	Block1	congruent/STIM_026.jpg
1123.279	0.591	correct	congruent	Block1	congruent/STIM_027.jpg
1127.117	0.816	correct	congruent	Block1	congruent/STIM_027.jpg
1130.518	0.861	correct	congruent	Block1	congruent/STIM_027.jpg
1133.395	1.061	correct	congruent	Block1	congruent/STIM_027.jpg
1136.626	0.787	correct	congruent	Block1	congruent/STIM_027.jpg
1141.298	0.669	correct	congruent	Block1	congruent/STIM_028.jpg
1144.004	0.644	correct	congruent	Block1	congruent/STIM_028.jpg
1147.316	0.649	correct	congruent	Block1	congruent/STIM_028.jpg
1151.608	1.041	correct	congruent	Block1	congruent/STIM_028.jpg
1155.928	0.627	correct	congruent	Block1	congruent/STIM_028.jpg
1158.772	0.93	correct	congruent	Block1	congruent/STIM_029.jpg
1161.743	0.604	correct	congruent	Block1	congruent/STIM_029.jpg
1166.198	0.874	incorrect	congruent	Block1	congruent/STIM_029.jpg
1169.85	1.002	correct	congruent	Block1	congruent/STIM_029.jpg
1172.87	0.633	correct	congruent	Block1	congruent/STIM_029.jpg
1176.855	1.252	correct	incongruent	Block2	incongruent/STIM_000.jpg
1180.845	1.386	correct	incongruent	Block2	incongruent/STIM_000.jpg
1185.94	0.79	correct	incongruent	Block2	incongruent/STIM_000.jpg
1189.6	0.941	correct	incongruent	Block2	incongruent/STIM_000.jpg
1193.505	0.972	correct	incongruent	Block2	incongruent/STIM_000.jpg
1197.983	1.406	correct	incongruent	Block2	incongruent/STIM_001.jpg
1202.716	1.236	incorrect	incongruent	Block2	incongruent/STIM_001.jpg
1206.438	1.209	correct	incongruent	Block2	incongruent/STIM_001.jpg
1210.274	1.07	correct	incongruent	Block2	incongruent/STIM_001.jpg
1214.651	0.662	correct	incongruent	Block2	incongruent/STIM_001.jpg
1218.406	0.741	correct	incongruent	Block2	incongruent/STIM_002.jpg
1222.156	1.087	incorrect	incongruent	Block2	incongruent/STIM_002.jpg
1225.972	0.971	correct	incongruent	Block2	incongruent/STIM_002.jpg
1229.021	0.9	correct	incongruent	Block2	incongruent/STIM_002.jpg
1232.321	0.714	correct	incongruent	Block2	incongruent/STIM_002.jpg
1235.984	0.98	correct	incongruent	Block2	incongruent/STIM_003.jpg
1240.528	0.914	correct	incongruent	Block2	incongruent/STIM_003.jpg
1243.931	0.958	correct	incongruent	Block2	incongruent/STIM_003.jpg
1247.235	0.714	correct	incongruent	Block2	incongruent/STIM_003.jpg
1250.975	0.813	correct	incongruent	Block2	incongruent/STIM_003.jpg
1254.662	0.74	correct	incongruent	Block2	incongruent/STIM_004.jpg
1258.491	0.944	correct	incongruent	Block2	incongruent/STIM_004.jpg
1263.035	1.166	correct	incongruent	Block2	incongruent/STIM_004.jpg
1266.915	0.649	correct	incongruent	Block2	incongruent/STIM_004.jpg
1270.185	0.668	correct	incongruent	Block2	incongruent/STIM_004.jpg
1273.337	1.057	correct	incongruent	Block2	incongruent/STIM_005.jpg
1277.433	1.193	correct	incongruent	Block2	incongruent/STIM_005.jpg
1281.266	1.103	correct	incongruent	Block2	incongruent/STIM_005.jpg
1286.061	0.961	correct	incongruent	Block2	incongruent/STIM_005.jpg
1290.094	0.615	correct	incongruent	Block2	incongruent/STIM_005.jpg
1293.084	1.293	correct	incongruent	Block2	incongruent/STIM_006.jpg
1297.864	0.89	correct	incongruent	Block2	incongruent/STIM_006.jpg
1302.46	1.054	correct	incongruent	Block2	incongruent/STIM_006.jpg
1307.227	1.126	correct	incongruent	Block2	incongruent/STIM_006.jpg
1310.504	1.222	correct	incongruent	Block2	incongruent/STIM_006.jpg
1314.155	1.192	correct	incongruent	Block2	incongruent/STIM_007.jpg
1317.592	1.225	correct	incongruent	Block2	incongruent/STIM_007.jpg
1320.919	1.013	correct	incongruent	Block2	incongruent/STIM_007.jpg
1324.451	0.738	correct	incongruent	Block2	incongruent/STIM_007.jpg
1329.076	0.682	correct	incongruent	Block2	incongruent/STIM_007.jpg
1333.106	0.869	correct	incongruent	Block2	incongruent/STIM_008.jpg
1336.524	1.362	correct	incongruent	Block2	incongruent/STIM_008.jpg
1340.955	1.208	correct	incongruent	Block2	incongruent/STIM_008.jpg
1344.584	0.975	correct	incongruent	Block2	incongruent/STIM_008.jpg
1348.984	0.843	correct	incongruent	Block2	incongruent/STIM_008.jpg
1353.063	1.108	correct	incongruent	Block2	incongruent/STIM_009.jpg
1356.8	1.204	correct	incongruent	Block2	incongruent/STIM_009.jpg
1361.193	1.142	correct	incongruent	Block2	incongruent/STIM_009.jpg
1365.353	0.597	correct	incongruent	Block2	incongruent/STIM_009.jpg
1368.611	0.643	correct	incongruent	Block2	incongruent/STIM_009.jpg
1372.67	0.949	correct	incongruent	Block2	incongruent/STIM_010.jpg
1376.252	0.707	correct	incongruent	Block2	incongruent/STIM_010.jpg
1380.474	0.876	correct	incongruent	Block2	incongruent/STIM_010.jpg
1383.94	0.776	correct	incongruent	Block2	incongruent/STIM_010.jpg
1386.828	1.017	correct	incongruent	Block2	incongruent/STIM_010.jpg
1391.611	1.196	correct	incongruent	Block2	incongruent/STIM_011.jpg
1395.974	0.831	correct	incongruent	Block2	incongruent/STIM_011.jpg
1399.388	0.669	correct	incongruent	Block2	incongruent/STIM_011.jpg
1402.182	0.645	correct	incongruent	Block2	incongruent/STIM_011.jpg
1405.014	1.193	correct	incongruent	Block2	incongruent/STIM_011.jpg
1408.558	1.043	correct	incongruent	Block2	incongruent/STIM_012.jpg
1413.197	1.306	correct	incongruent	Block2	incongruent/STIM_012.jpg
1417.375	0.997	correct	incongruent	Block2	incongruent/STIM_012.jpg
1422.356	1.035	correct	incongruent	Block2	incongruent/STIM_012.jpg
1425.751	0.617	correct	incongruent	Block2	incongruent/STIM_012.jpg
1429.622	1.204	correct	incongruent	Block2	incongruent/STIM_013.jpg
1433.694	0.726	correct	incongruent	Block2	incongruent/STIM_013.jpg
1438.33	0.767	correct	incongruent	Block2	incongruent/STIM_013.jpg
1442.179	0.66	correct	incongruent	Block2	incongruent/STIM_013.jpg
1446.207	0.923	correct	incongruent	Block2	incongruent/STIM_013.jpg
1449.677	1.151	correct	incongruent	Block2	incongruent/STIM_014.jpg
1453.542	1.321	correct	incongruent	Block2	incongruent/STIM_014.jpg
1457.677	1.141	correct	incongruent	Block2	incongruent/STIM_014.jpg
1461.213	0.932	correct	incongruent	Block2	incongruent/STIM_014.jpg
1465.969	0.697	correct	incongruent	Block2	incongruent/STIM_014.jpg
1469.458	0.76	correct	incongruent	Block2	incongruent/STIM_015.jpg
1473.718	0.722	correct	incongruent	Block2	incongruent/STIM_015.jpg
1477.989	0.701	correct	incongruent	Block2	incongruent/STIM_015.jpg
1480.719	0.873	incorrect	incongruent	Block2	incongruent/STIM_015.jpg
1484.659	1.118	correct	incongruent	Block2	incongruent/STIM_015.jpg
1489.65	0.808	correct	incongruent	Block2	incongruent/STIM_016.jpg
1492.576	1.38	incorrect	incongruent	Block2	incongruent/STIM_016.jpg
1497.572	0.938	correct	incongruent	Block2	incongruent/STIM_016.jpg
1501.792	1.04	correct	incongruent	Block2	incongruent/STIM_016.jpg
1505.006	0.94	correct	incongruent	Block2	incongruent/STIM_016.jpg
1508.985	0.714	correct	incongruent	Block2	incongruent/STIM_017.jpg
1511.799	0.762	correct	incongruent	Block2	incongruent/STIM_017.jpg
1515.082	1.012	correct	incongruent	Block2	incongruent/STIM_017.jpg
1519.32	0.941	correct	incongruent	Block2	incongruent/STIM_017.jpg
1522.37	0.91	correct	incongruent	Block2	incongruent/STIM_017.jpg
1526.813	1.423	correct	incongruent	Block2	incongruent/STIM_018.jpg
1531.412	1.075	correct	incongruent	Block2	incongruent/STIM_018.jpg
1535.117	0.767	correct	incongruent	Block2	incongruent/STIM_018.jpg
1538.782	0.926	correct	incongruent	Block2	incongruent/STIM_018.jpg
1543.087	0.636	correct	incongruent	Block2	incongruent/STIM_018.jpg
1546.765	1.345	correct	incongruent	Block2	incongruent/STIM_019.jpg
1551.633	0.964	correct	incongruent	Block2	incongruent/STIM_019.jpg
1555.223	1.216	correct	incongruent	Block2	incongruent/STIM_019.jpg
1559.592	0.8	correct	incongruent	Block2	incongruent/STIM_019.jpg
1563.698	1.069	correct	incongruent	Block2	incongruent/STIM_019.jpg
1567.856	0.971	incorrect	incongruent	Block2	incongruent/STIM_020.jpg
1571.035	1.195	correct	incongruent	Block2	incongruent/STIM_020.jpg
1576.189	0.84	correct	incongruent	Block2	incongruent/STIM_020.jpg
1579.336	0.675	correct	incongruent	Block2	incongruent/STIM_020.jpg
1583.985	0.907	correct	incongruent	Block2	incongruent/STIM_020.jpg
1588.637	1.255	correct	incongruent	Block2	incongruent/STIM_021.jpg
1592.791	1.041	correct	incongruent	Block2	incongruent/STIM_021.jpg
1595.884	0.955	correct	incongruent	Block2	incongruent/STIM_021.jpg
1600.827	1.193	correct	incongruent	Block2	incongruent/STIM_021.jpg
1604.993	0.97	incorrect	incongruent	Block2	incongruent/STIM_021.jpg
1609.559	1.342	correct	incongruent	Block2	incongruent/STIM_022.jpg
1613.57	0.749	incorrect	incongruent	Block2	incongruent/STIM_022.jpg
1617.93	1.027	correct	incongruent	Block2	incongruent/STIM_022.jpg
1621.346	0.586	correct	incongruent	Block2	incongruent/STIM_022.jpg
1624.679	0.61	correct	incongruent	Block2	incongruent/STIM_022.jpg
1628.573	0.718	correct	incongruent	Block2	incongruent/STIM_023.jpg
1632.211	1.252	correct	incongruent	Block2	incongruent/STIM_023.jpg
1637.148	0.903	correct	incongruent	Block2	incongruent/STIM_023.jpg
1641.115	1.186	correct	incongruent	Block2	incongruent/STIM_023.jpg
1644.471	0.718	correct	incongruent	Block2	incongruent/STIM_023.jpg
1648.319	0.78	correct	incongruent	Block2	incongruent/STIM_024.jpg
1651.838	0.928	correct	incongruent	Block2	incongruent/STIM_024.jpg
1656.362	0.7	correct	incongruent	Block2	incongruent/STIM_024.jpg
1660.656	0.968	correct	incongruent	Block2	incongruent/STIM_024.jpg
1663.743	0.634	correct	incongruent	Block2	incongruent/STIM_024.jpg
1666.504	0.757	correct	incongruent	Block2	incongruent/STIM_025.jpg
1669.338	0.789	correct	incongruent	Block2	incongruent/STIM_025.jpg
1673.859	0.815	correct	incongruent	Block2	incongruent/STIM_025.jpg
1677.134	1.001	correct	incongruent	Block2	incongruent/STIM_025.jpg
1682.078	0.712	correct	incongruent	Block2	incongruent/STIM_025.jpg
1684.917	1.156	correct	incongruent	Block2	incongruent/STIM_026.jpg
1689.765	1.084	correct	incongruent	Block2	incongruent/STIM_026.jpg
1693.184	0.932	correct	incongruent	Block2	incongruent/STIM_026.jpg
1696.865	1.102	correct	incongruent	Block2	incongruent/STIM_026.jpg
1700.406	0.656	correct	incongruent	Block2	incongruent/STIM_026.jpg
1703.777	0.861	correct	incongruent	Block2	incongruent/STIM_027.jpg
1707.958	1.353	correct	incongruent	Block2	incongruent/STIM_027.jpg
1712.235	0.707	correct	incongruent	Block2	incongruent/STIM_027.jpg
1715.471	0.87	correct	incongruent	Block2	incongruent/STIM_027.jpg
1719.625	1.096	correct	incongruent	Block2	incongruent/STIM_027.jpg
1723.924	1.044	correct	incongruent	Block2	incongruent/STIM_028.jpg
1728.632	0.954	correct	incongruent	Block2	incongruent/STIM_028.jpg
1732.35	1.122	correct	incongruent	Block2	incongruent/STIM_028.jpg
1737.152	0.63	correct	incongruent	Block2	incongruent/STIM_028.jpg
1740.567	0.583	correct	incongruent	Block2	incongruent/STIM_028.jpg
1743.716	1.43	correct	incongruent	Block2	incongruent/STIM_029.jpg
1748.991	1.324	correct	incongruent	Block2	incongruent/STIM_029.jpg
1753.78	1.108	correct	incongruent	Block2	incongruent/STIM_029.jpg
1757.171	0.582	correct	incongruent	Block2	incongruent/STIM_029.jpg
1760.512	0.873	correct	incongruent	Block2	incongruent/STIM_029.jpg
1764.492	0.636	correct	congruent	Block2	congruent/STIM_000.jpg
1768.369	0.623	correct	congruent	Block2	congruent/STIM_000.jpg
1772.411	0.706	correct	congruent	Block2	congruent/STIM_000.jpg
1776.506	1.036	correct	congruent	Block2	congruent/STIM_000.jpg
1780.434	0.783	correct	congruent	Block2	congruent/STIM_000.jpg
1783.681	0.878	correct	congruent	Block2	congruent/STIM_001.jpg
1787.406	0.838	correct	congruent	Block2	congruent/STIM_001.jpg
1791.173	0.719	correct	congruent	Block2	congruent/STIM_001.jpg
1795.453	0.618	correct	congruent	Block2	congruent/STIM_001.jpg
1798.629	0.886	correct	congruent	Block2	congruent/STIM_001.jpg
1802.63	1.007	correct	congruent	Block2	congruent/STIM_002.jpg
1806.444	0.728	correct	congruent	Block2	congruent/STIM_002.jpg
1810.591	0.724	correct	congruent	Block2	congruent/STIM_002.jpg
1813.952	0.89	correct	congruent	Block2	congruent/STIM_002.jpg
1818.591	0.865	correct	congruent	Block2	congruent/STIM_002.jpg
1821.484	0.915	correct	congruent	Block2	congruent/STIM_003.jpg
1825.641	0.726	correct	congruent	Block2	congruent/STIM_003.jpg
1829.574	0.625	correct	congruent	Block2	congruent/STIM_003.jpg
1833.927	0.773	correct	congruent	Block2	congruent/STIM_003.jpg
1837.05	1.046	correct	congruent	Block2	congruent/STIM_003.jpg
1840.305	0.681	correct	congruent	Block2	congruent/STIM_004.jpg
1843.834	1.002	correct	congruent	Block2	congruent/STIM_004.jpg
1847.824	0.836	correct	congruent	Block2	congruent/STIM_004.jpg
1850.943	0.637	correct	congruent	Block2	congruent/STIM_004.jpg
1854.407	0.841	correct	congruent	Block2	congruent/STIM_004.jpg
1857.351	0.916	correct	congruent	Block2	congruent/STIM_005.jpg
1861.12	0.823	correct	congruent	Block2	congruent/STIM_005.jpg
1864.693	0.814	correct	congruent	Block2	congruent/STIM_005.jpg
1867.844	0.882	correct	congruent	Block2	congruent/STIM_005.jpg
1871.458	0.784	correct	congruent	Block2	congruent/STIM_005.jpg
1875.145	1.033	correct	congruent	Block2	congruent/STIM_006.jpg
1878.59	0.761	correct	congruent	Block2	congruent/STIM_006.jpg
1882.429	1.049	correct	congruent	Block2	congruent/STIM_006.jpg
1886.797	0.97	incorrect	congruent	Block2	congruent/STIM_006.jpg
1891.415	0.609	correct	congruent	Block2	congruent/STIM_006.jpg
1895.333	0.798	correct	congruent	Block2	congruent/STIM_007.jpg
1900.068	0.921	correct	congruent	Block2	congruent/STIM_007.jpg
1904.761	0.902	correct	congruent	Block2	congruent/STIM_007.jpg
1908.415	1.046	correct	congruent	Block2	congruent/STIM_007.jpg
1912.658	0.797	correct	congruent	Block2	congruent/STIM_007.jpg
1916.192	0.604	correct	congruent	Block2	congruent/STIM_008.jpg
1919.634	1.018	correct	congruent	Block2	congruent/STIM_008.jpg
1923.583	0.67	correct	congruent	Block2	congruent/STIM_008.jpg
1926.927	0.748	correct	congruent	Block2	congruent/STIM_008.jpg
1930.33	0.683	correct	congruent	Block2	congruent/STIM_008.jpg
1933.793	0.919	correct	congruent	Block2	congruent/STIM_009.jpg
1937.876	0.864	correct	congruent	Block2	congruent/STIM_009.jpg
1941.06	0.791	correct	congruent	Block2	congruent/STIM_009.jpg
1943.866	0.783	correct	congruent	Block2	congruent/STIM_009.jpg
1947.74	0.726	correct	congruent	Block2	congruent/STIM_009.jpg
1950.476	0.612	correct	congruent	Block2	congruent/STIM_010.jpg
1953.115	0.761	correct	congruent	Block2	congruent/STIM_010.jpg
1957.644	1.06	correct	congruent	Block2	congruent/STIM_010.jpg
1961.442	1.024	correct	congruent	Block2	congruent/STIM_010.jpg
1966.136	0.731	correct	congruent	Block2	congruent/STIM_010.jpg
1969.003	0.967	correct	congruent	Block2	congruent/STIM_011.jpg
1972.543	0.937	correct	congruent	Block2	congruent/STIM_011.jpg
1975.516	1.044	incorrect	congruent	Block2	congruent/STIM_011.jpg
1979.905	0.891	correct	congruent	Block2	congruent/STIM_011.jpg
1984.038	1.014	correct	congruent	Block2	congruent/STIM_011.jpg
1987.197	0.786	correct	congruent	Block2	congruent/STIM_012.jpg
1991.533	0.634	correct	congruent	Block2	congruent/STIM_012.jpg
1994.591	0.624	correct	congruent	Block2	congruent/STIM_012.jpg
1997.749	0.598	correct	congruent	Block2	congruent/STIM_012.jpg
2001.645	0.934	correct	congruent	Block2	congruent/STIM_012.jpg
2006.498	0.972	correct	congruent	Block2	congruent/STIM_013.jpg
2010.704	1.031	correct	congruent	Block2	congruent/STIM_013.jpg
2014.448	0.951	correct	congruent	Block2	congruent/STIM_013.jpg
2018.804	1.012	correct	congruent	Block2	congruent/STIM_013.jpg
2023.144	0.701	correct	congruent	Block2	congruent/STIM_013.jpg
2027.166	0.95	correct	congruent	Block2	congruent/STIM_014.jpg
2030.685	0.747	correct	congruent	Block2	congruent/STIM_014.jpg
2034.864	0.781	correct	congruent	Block2	congruent/STIM_014.jpg
2038.942	0.953	correct	congruent	Block2	congruent/STIM_014.jpg
2043.504	0.735	correct	congruent	Block2	congruent/STIM_014.jpg
2046.331	0.78	correct	congruent	Block2	congruent/STIM_015.jpg
2049.815	0.942	correct	congruent	Block2	congruent/STIM_015.jpg
2054.013	0.839	correct	congruent	Block2	congruent/STIM_015.jpg
2058.478	0.766	correct	congruent	Block2	congruent/STIM_015.jpg
2061.84	0.697	correct	congruent	Block2	congruent/STIM_015.jpg
2065.721	1.01	correct	congruent	Block2	congruent/STIM_016.jpg
2069.383	0.771	correct	congruent	Block2	congruent/STIM_016.jpg
2072.977	0.768	correct	congruent	Block2	congruent/STIM_016.jpg
2077.354	0.7	correct	congruent	Block2	congruent/STIM_016.jpg
2080.767	0.617	correct	congruent	Block2	congruent/STIM_016.jpg
2084.493	0.942	correct	congruent	Block2	congruent/STIM_017.jpg
2087.804	1.04	correct	congruent	Block2	congruent/STIM_017.jpg
2091.694	0.596	correct	congruent	Block2	congruent/STIM_017.jpg
2095.935	0.984	correct	congruent	Block2	congruent/STIM_017.jpg
2099.149	0.826	correct	congruent	Block2	congruent/STIM_017.jpg
2102.113	0.748	correct	congruent	Block2	congruent/STIM_018.jpg
2106.099	0.923	correct	congruent	Block2	congruent/STIM_018.jpg
2110.924	0.866	correct	congruent	Block2	congruent/STIM_018.jpg
2114.373	0.629	correct	congruent	Block2	congruent/STIM_018.jpg
2118.53	0.654	correct	congruent	Block2	congruent/STIM_018.jpg
2122.278	0.61	correct	congruent	Block2	congruent/STIM_019.jpg
2126.61	0.923	correct	congruent	Block2	congruent/STIM_019.jpg
2129.969	0.663	correct	congruent	Block2	congruent/STIM_019.jpg
2134.112	0.729	correct	congruent	Block2	congruent/STIM_019.jpg
2137.094	0.706	correct	congruent	Block2	congruent/STIM_019.jpg
2140.88	1.0	correct	congruent	Block2	congruent/STIM_020.jpg
2145.845	0.946	correct	congruent	Block2	congruent/STIM_020.jpg
2149.092	0.951	correct	congruent	Block2	congruent/STIM_020.jpg
2152.16	0.859	correct	congruent	Block2	congruent/STIM_020.jpg
2156.461	1.008	correct	congruent	Block2	congruent/STIM_020.jpg
2160.555	0.994	correct	congruent	Block2	congruent/STIM_021.jpg
2164.083	0.772	correct	congruent	Block2	congruent/STIM_021.jpg
2168.65	0.75	correct	congruent	Block2	congruent/STIM_021.jpg
2172.771	1.009	incorrect	congruent	Block2	congruent/STIM_021.jpg
2176.053	0.926	correct	congruent	Block2	congruent/STIM_021.jpg
2179.554	0.974	correct	congruent	Block2	congruent/STIM_022.jpg
2184.266	0.775	correct	congruent	Block2	congruent/STIM_022.jpg
2187.552	0.609	correct	congruent	Block2	congruent/STIM_022.jpg
2192.035	0.653	correct	congruent	Block2	congruent/STIM_022.jpg
2196.29	0.657	correct	congruent	Block2	congruent/STIM_022.jpg
2199.515	0.705	correct	congruent	Block2	congruent/STIM_023.jpg
2202.509	0.604	correct	congruent	Block2	congruent/STIM_023.jpg
2207.056	0.74	correct	congruent	Block2	congruent/STIM_023.jpg
2210.919	0.718	correct	congruent	Block2	congruent/STIM_023.jpg
2214.192	1.032	correct	congruent	Block2	congruent/STIM_023.jpg
2217.527	0.814	correct	congruent	Block2	congruent/STIM_024.jpg
2222.239	0.698	correct	congruent	Block2	congruent/STIM_024.jpg
2226.008	0.819	correct	congruent	Block2	congruent/STIM_024.jpg
2229.906	0.801	correct	congruent	Block2	congruent/STIM_024.jpg
2233.634	0.88	correct	congruent	Block2	congruent/STIM_024.jpg
2238.282	0.762	correct	congruent	Block2	congruent/STIM_025.jpg
2241.188	0.993	correct	congruent	Block2	congruent/STIM_025.jpg
2244.54	0.857	correct	congruent	Block2	congruent/STIM_025.jpg
2249.393	0.969	correct	congruent	Block2	congruent/STIM_025.jpg
2253.844	0.661	correct	congruent	Block2	congruent/STIM_025.jpg
2258.354	1.014	correct	congruent	Block2	congruent/STIM_026.jpg
2262.697	0.618	correct	congruent	Block2	congruent/STIM_026.jpg
2267.294	0.687	correct	congruent	Block2	congruent/STIM_026.jpg
2270.235	0.851	correct	congruent	Block2	congruent/STIM_026.jpg
2274.881	1.013	correct	congruent	Block2	congruent/STIM_026.jpg
2279.145	1.015	correct	congruent	Block2	congruent/STIM_027.jpg
2283.77	0.643	correct	congruent	Block2	congruent/STIM_027.jpg
2286.932	0.809	correct	congruent	Block2	congruent/STIM_027.jpg
2290.77	0.896	correct	congruent	Block2	congruent/STIM_027.jpg
2294.722	0.648	correct	congruent	Block2	congruent/STIM_027.jpg
2297.788	0.946	correct	congruent	Block2	congruent/STIM_028.jpg
2302.618	0.772	correct	congruent	Block2	congruent/STIM_028.jpg
2306.295	0.763	correct	congruent	Block2	congruent/STIM_028.jpg
2309.918	1.004	correct	congruent	Block2	congruent/STIM_028.jpg
2314.426	0.686	correct	congruent	Block2	congruent/STIM_028.jpg
2317.729	0.702	correct	congruent	Block2	congruent/STIM_029.jpg
2321.107	1.036	correct	congruent	Block2	congruent/STIM_029.jpg
2325.117	0.998	correct	congruent	Block2	congruent/STIM_029.jpg
2329.712	0.818	correct	congruent	Block2	congruent/STIM_029.jpg
2333.13	0.935	correct	congruent	Block2	congruent/STIM_029.jpg
2337.802	0.902	correct	incongruent	Block3	incongruent/STIM_000.jpg
2342.198	1.105	correct	incongruent	Block3	incongruent/STIM_000.jpg
2345.591	1.022	correct	incongruent	Block3	incongruent/STIM_000.jpg
2348.661	0.916	correct	incongruent	Block3	incongruent/STIM_000.jpg
2352.617	0.698	correct	incongruent	Block3	incongruent/STIM_000.jpg
2356.541	0.628	correct	incongruent	Block3	incongruent/STIM_001.jpg
2359.289	0.912	correct	incongruent	Block3	incongruent/STIM_001.jpg
2363.868	0.957	correct	incongruent	Block3	incongruent/STIM_001.jpg
2367.006	0.618	correct	incongruent	Block3	incongruent/STIM_001.jpg
2369.734	0.644	correct	incongruent	Block3	incongruent/STIM_001.jpg
2372.602	1.094	correct	incongruent	Block3	incongruent/STIM_002.jpg
2376.224	1.066	correct	incongruent	Block3	incongruent/STIM_002.jpg
2380.411	1.118	correct	incongruent	Block3	incongruent/STIM_002.jpg
2385.036	1.079	correct	incongruent	Block3	incongruent/STIM_002.jpg
2388.663	1.097	correct	incongruent	Block3	incongruent/STIM_002.jpg
2391.848	0.72	correct	incongruent	Block3	incongruent/STIM_003.jpg
2395.102	1.094	correct	incongruent	Block3	incongruent/STIM_003.jpg
2399.451	0.896	correct	incongruent	Block3	incongruent/STIM_003.jpg
2402.815	0.763	correct	incongruent	Block3	incongruent/STIM_003.jpg
2407.414	1.012	correct	incongruent	Block3	incongruent/STIM_003.jpg
2410.627	0.726	correct	incongruent	Block3	incongruent/STIM_004.jpg
2413.958	0.958	correct	incongruent	Block3	incongruent/STIM_004.jpg
2417.81	0.704	correct	incongruent	Block3	incongruent/STIM_004.jpg
2421.857	0.579	correct	incongruent	Block3	incongruent/STIM_004.jpg
2424.948	0.594	correct	incongruent	Block3	incongruent/STIM_004.jpg
2428.326	1.005	correct	incongruent	Block3	incongruent/STIM_005.jpg
2433.108	0.734	correct	incongruent	Block3	incongruent/STIM_005.jpg
2435.922	0.865	correct	incongruent	Block3	incongruent/STIM_005.jpg
2439.085	0.679	correct	incongruent	Block3	incongruent/STIM_005.jpg
2442.773	1.062	correct	incongruent	Block3	incongruent/STIM_005.jpg
2446.411	0.939	correct	incongruent	Block3	incongruent/STIM_006.jpg
2451.187	0.929	correct	incongruent	Block3	incongruent/STIM_006.jpg
2454.563	1.148	correct	incongruent	Block3	incongruent/STIM_006.jpg
2457.749	1.019	correct	incongruent	Block3	incongruent/STIM_006.jpg
2461.404	0.647	correct	incongruent	Block3	incongruent/STIM_006.jpg
2465.301	0.694	correct	incongruent	Block3	incongruent/STIM_007.jpg
2468.662	0.855	correct	incongruent	Block3	incongruent/STIM_007.jpg
2471.95	0.614	correct	incongruent	Block3	incongruent/STIM_007.jpg
2476.105	0.663	correct	incongruent	Block3	incongruent/STIM_007.jpg
2480.561	0.815	correct	incongruent	Block3	incongruent/STIM_007.jpg
2485.258	0.707	correct	incongruent	Block3	incongruent/STIM_008.jpg
2488.437	1.134	correct	incongruent	Block3	incongruent/STIM_008.jpg
2492.861	0.805	correct	incongruent	Block3	incongruent/STIM_008.jpg
2497.454	1.111	correct	incongruent	Block3	incongruent/STIM_008.jpg
2502.504	1.196	correct	incongruent	Block3	incongruent/STIM_008.jpg
2506.791	1.197	correct	incongruent	Block3	incongruent/STIM_009.jpg
2510.739	0.949	correct	incongruent	Block3	incongruent/STIM_009.jpg
2515.498	0.877	correct	incongruent	Block3	incongruent/STIM_009.jpg
2518.892	0.74	correct	incongruent	Block3	incongruent/STIM_009.jpg
2522.689	0.862	correct	incongruent	Block3	incongruent/STIM_009.jpg
2526.431	1.172	correct	incongruent	Block3	incongruent/STIM_010.jpg
2530.858	1.066	correct	incongruent	Block3	incongruent/STIM_010.jpg
2534.266	0.712	correct	incongruent	Block3	incongruent/STIM_010.jpg
2537.928	0.586	correct	incongruent	Block3	incongruent/STIM_010.jpg
2541.032	0.876	correct	incongruent	Block3	incongruent/STIM_010.jpg
2544.83	0.956	correct	incongruent	Block3	incongruent/STIM_011.jpg
2548.786	0.994	correct	incongruent	Block3	incongruent/STIM_011.jpg
2553.658	0.728	correct	incongruent	Block3	incongruent/STIM_011.jpg
2557.997	0.904	correct	incongruent	Block3	incongruent/STIM_011.jpg
2560.991	0.963	correct	incongruent	Block3	incongruent/STIM_011.jpg
2564.788	1.152	correct	incongruent	Block3	incongruent/STIM_012.jpg
2568.558	0.896	correct	incongruent	Block3	incongruent/STIM_012.jpg
2572.232	1.142	correct	incongruent	Block3	incongruent/STIM_012.jpg
2576.19	1.155	correct	incongruent	Block3	incongruent/STIM_012.jpg
2579.431	0.984	correct	incongruent	Block3	incongruent/STIM_012.jpg
2584.11	1.065	correct	incongruent	Block3	incongruent/STIM_013.jpg
2587.838	0.715	correct	incongruent	Block3	incongruent/STIM_013.jpg
2590.712	1.168	correct	incongruent	Block3	incongruent/STIM_013.jpg
2593.985	1.153	correct	incongruent	Block3	incongruent/STIM_013.jpg
2598.473	1.228	correct	incongruent	Block3	incongruent/STIM_013.jpg
2602.689	0.87	correct	incongruent	Block3	incongruent/STIM_014.jpg
2606.266	1.053	correct	incongruent	Block3	incongruent/STIM_014.jpg
2609.777	1.135	correct	incongruent	Block3	incongruent/STIM_014.jpg
2612.966	0.849	correct	incongruent	Block3	incongruent/STIM_014.jpg
2616.14	1.142	correct	incongruent	Block3	incongruent/STIM_014.jpg
2620.273	0.679	correct	incongruent	Block3	incongruent/STIM_015.jpg
2624.574	0.655	correct	incongruent	Block3	incongruent/STIM_015.jpg
2628.465	0.625	correct	incongruent	Block3	incongruent/STIM_015.jpg
2632.127	0.885	correct	incongruent	Block3	incongruent/STIM_015.jpg
2636.474	0.724	correct	incongruent	Block3	incongruent/STIM_015.jpg
2639.316	0.913	correct	incongruent	Block3	incongruent/STIM_016.jpg
2642.513	0.711	correct	incongruent	Block3	incongruent/STIM_016.jpg
2646.763	0.929	correct	incongruent	Block3	incongruent/STIM_016.jpg
2651.197	0.811	correct	incongruent	Block3	incongruent/STIM_016.jpg
2654.033	1.075	correct	incongruent	Block3	incongruent/STIM_016.jpg
2657.455	0.667	correct	incongruent	Block3	incongruent/STIM_017.jpg
2661.468	0.706	correct	incongruent	Block3	incongruent/STIM_017.jpg
2664.464	1.14	correct	incongruent	Block3	incongruent/STIM_017.jpg
2668.384	0.666	correct	incongruent	Block3	incongruent/STIM_017.jpg
2671.09	0.704	correct	incongruent	Block3	incongruent/STIM_017.jpg
2674.939	0.607	correct	incongruent	Block3	incongruent/STIM_018.jpg
2679.438	0.595	correct	incongruent	Block3	incongruent/STIM_018.jpg
2682.376	0.613	correct	incongruent	Block3	incongruent/STIM_018.jpg
2686.907	1.237	correct	incongruent	Block3	incongruent/STIM_018.jpg
2691.253	0.805	correct	incongruent	Block3	incongruent/STIM_018.jpg
2694.848	1.126	correct	incongruent	Block3	incongruent/STIM_019.jpg
2698.176	0.652	correct	incongruent	Block3	incongruent/STIM_019.jpg
2701.064	0.624	correct	incongruent	Block3	incongruent/STIM_019.jpg
2705.023	0.716	correct	incongruent	Block3	incongruent/STIM_019.jpg
2709.14	0.583	correct	incongruent	Block3	incongruent/STIM_019.jpg
2713.251	0.886	correct	incongruent	Block3	incongruent/STIM_020.jpg
2716.534	0.678	correct	incongruent	Block3	incongruent/STIM_020.jpg
2720.684	0.603	correct	incongruent	Block3	incongruent/STIM_020.jpg
2723.995	0.902	correct	incongruent	Block3	incongruent/STIM_020.jpg
2728.097	0.653	correct	incongruent	Block3	incongruent/STIM_020.jpg
2731.09	0.974	correct	incongruent	Block3	incongruent/STIM_021.jpg
2735.89	0.869	correct	incongruent	Block3	incongruent/STIM_021.jpg
2740.575	0.716	correct	incongruent	Block3	incongruent/STIM_021.jpg
2744.17	0.877	correct	incongruent	Block3	incongruent/STIM_021.jpg
2748.346	0.911	correct	incongruent	Block3	incongruent/STIM_021.jpg
2752.8	1.078	correct	incongruent	Block3	incongruent/STIM_022.jpg
2756.317	0.766	correct	incongruent	Block3	incongruent/STIM_022.jpg
2760.046	0.976	correct	incongruent	Block3	incongruent/STIM_022.jpg
2764.79	1.209	correct	incongruent	Block3	incongruent/STIM_022.jpg
2769.823	0.902	correct	incongruent	Block3	incongruent/STIM_022.jpg
2772.772	1.128	correct	incongruent	Block3	incongruent/STIM_023.jpg
2776.317	0.894	correct	incongruent	Block3	incongruent/STIM_023.jpg
2780.745	0.929	correct	incongruent	Block3	incongruent/STIM_023.jpg
2783.845	1.227	correct	incongruent	Block3	incongruent/STIM_023.jpg
2787.16	1.009	correct	incongruent	Block3	incongruent/STIM_023.jpg
2791.362	0.645	correct	incongruent	Block3	incongruent/STIM_024.jpg
2794.964	1.03	correct	incongruent	Block3	incongruent/STIM_024.jpg
2798.896	0.691	correct	incongruent	Block3	incongruent/STIM_024.jpg
2803.052	0.787	correct	incongruent	Block3	incongruent/STIM_024.jpg
2807.82	1.205	correct	incongruent	Block3	incongruent/STIM_024.jpg
2812.602	0.836	correct	incongruent	Block3	incongruent/STIM_025.jpg
2816.814	0.826	correct	incongruent	Block3	incongruent/STIM_025.jpg
2820.641	1.137	correct	incongruent	Block3	incongruent/STIM_025.jpg
2824.928	0.702	correct	incongruent	Block3	incongruent/STIM_025.jpg
2827.733	0.888	correct	incongruent	Block3	incongruent/STIM_025.jpg
2832.493	0.982	correct	incongruent	Block3	incongruent/STIM_026.jpg
2835.566	0.904	correct	incongruent	Block3	incongruent/STIM_026.jpg
2838.799	0.641	correct	incongruent	Block3	incongruent/STIM_026.jpg
2841.85	1.189	correct	incongruent	Block3	incongruent/STIM_026.jpg
2845.895	0.949	correct	incongruent	Block3	incongruent/STIM_026.jpg
2849.405	0.991	correct	incongruent	Block3	incongruent/STIM_027.jpg
2853.052	0.724	correct	incongruent	Block3	incongruent/STIM_027.jpg
2855.818	0.93	correct	incongruent	Block3	incongruent/STIM_027.jpg
2859.322	0.849	correct	incongruent	Block3	incongruent/STIM_027.jpg
2863.115	1.111	correct	incongruent	Block3	incongruent/STIM_027.jpg
2866.683	1.215	correct	incongruent	Block3	incongruent/STIM_028.jpg
2870.577	1.055	correct	incongruent	Block3	incongruent/STIM_028.jpg
2875.431	0.695	correct	incongruent	Block3	incongruent/STIM_028.jpg
2878.655	0.864	correct	incongruent	Block3	incongruent/STIM_028.jpg
2882.729	0.777	correct	incongruent	Block3	incongruent/STIM_028.jpg
2886.276	0.585	correct	incongruent	Block3	incongruent/STIM_029.jpg
2890.484	1.112	correct	incongruent	Block3	incongruent/STIM_029.jpg
2894.088	1.035	correct	incongruent	Block3	incongruent/STIM_029.jpg
2897.155	1.042	correct	incongruent	Block3	incongruent/STIM_029.jpg
2900.682	0.797	correct	incongruent	Block3	incongruent/STIM_029.jpg
2904.349	0.641	correct	congruent	Block3	congruent/STIM_000.jpg
2908.774	0.743	correct	congruent	Block3	congruent/STIM_000.jpg
2912.191	0.69	correct	congruent	Block3	congruent/STIM_000.jpg
2916.651	1.054	correct	congruent	Block3	congruent/STIM_000.jpg
2920.866	0.918	correct	congruent	Block3	congruent/STIM_000.jpg
2923.999	0.739	correct	congruent	Block3	congruent/STIM_001.jpg
2928.206	0.887	correct	congruent	Block3	congruent/STIM_001.jpg
2931.362	0.974	correct	congruent	Block3	congruent/STIM_001.jpg
2935.622	0.874	correct	congruent	Block3	congruent/STIM_001.jpg
2938.821	0.783	correct	congruent	Block3	congruent/STIM_001.jpg
2942.862	1.051	correct	congruent	Block3	congruent/STIM_002.jpg
2946.017	1.019	correct	congruent	Block3	congruent/STIM_002.jpg
2950.729	0.748	correct	congruent	Block3	congruent/STIM_002.jpg
2954.088	0.992	correct	congruent	Block3	congruent/STIM_002.jpg
2957.62	0.654	correct	congruent	Block3	congruent/STIM_002.jpg
2960.639	1.015	correct	congruent	Block3	congruent/STIM_003.jpg
2964.096	0.931	correct	congruent	Block3	congruent/STIM_003.jpg
2968.662	0.813	correct	congruent	Block3	congruent/STIM_003.jpg
2972.054	0.594	correct	congruent	Block3	congruent/STIM_003.jpg
2974.865	0.947	correct	congruent	Block3	congruent/STIM_003.jpg
2977.934	1.057	correct	congruent	Block3	congruent/STIM_004.jpg
2982.139	0.637	correct	congruent	Block3	congruent/STIM_004.jpg
2986.299	0.835	incorrect	congruent	Block3	congruent/STIM_004.jpg
2989.978	0.72	correct	congruent	Block3	congruent/STIM_004.jpg
2993.595	0.845	correct	congruent	Block3	congruent/STIM_004.jpg
2997.245	0.893	correct	congruent	Block3	congruent/STIM_005.jpg
3001.192	1.026	correct	congruent	Block3	congruent/STIM_005.jpg
3005.812	0.636	correct	congruent	Block3	congruent/STIM_005.jpg
3008.809	0.889	correct	congruent	Block3	congruent/STIM_005.jpg
3013.457	0.709	correct	congruent	Block3	congruent/STIM_005.jpg
3017.69	0.685	correct	congruent	Block3	congruent/STIM_006.jpg
3020.651	0.927	correct	congruent	Block3	congruent/STIM_006.jpg
3023.806	1.033	correct	congruent	Block3	congruent/STIM_006.jpg
3027.473	0.75	correct	congruent	Block3	congruent/STIM_006.jpg
3031.362	0.654	correct	congruent	Block3	congruent/STIM_006.jpg
3034.811	0.965	correct	congruent	Block3	congruent/STIM_007.jpg
3039.27	0.922	correct	congruent	Block3	congruent/STIM_007.jpg
3043.056	0.749	correct	congruent	Block3	congruent/STIM_007.jpg
3045.93	0.926	correct	congruent	Block3	congruent/STIM_007.jpg
3049.541	0.978	correct	congruent	Block3	congruent/STIM_007.jpg
3052.726	0.979	correct	congruent	Block3	congruent/STIM_008.jpg
3056.238	0.687	correct	congruent	Block3	congruent/STIM_008.jpg
3060.774	0.995	correct	congruent	Block3	congruent/STIM_008.jpg
3064.893	1.032	correct	congruent	Block3	congruent/STIM_008.jpg
3069.444	0.679	correct	congruent	Block3	congruent/STIM_008.jpg
3073.773	0.742	correct	congruent	Block3	congruent/STIM_009.jpg
3078.256	0.705	correct	congruent	Block3	congruent/STIM_009.jpg
3081.245	1.037	correct	congruent	Block3	congruent/STIM_009.jpg
3085.686	0.731	correct	congruent	Block3	congruent/STIM_009.jpg
3089.663	0.993	correct	congruent	Block3	congruent/STIM_009.jpg
3094.477	0.981	correct	congruent	Block3	congruent/STIM_010.jpg
3098.313	0.818	correct	congruent	Block3	congruent/STIM_010.jpg
3102.881	0.944	correct	congruent	Block3	congruent/STIM_010.jpg
3107.268	0.917	correct	congruent	Block3	congruent/STIM_010.jpg
3112.069	0.593	correct	congruent	Block3	congruent/STIM_010.jpg
3114.856	1.045	correct	congruent	Block3	congruent/STIM_011.jpg
3119.447	0.968	incorrect	congruent	Block3	congruent/STIM_011.jpg
3123.184	0.807	correct	congruent	Block3	congruent/STIM_011.jpg
3126.994	1.057	correct	congruent	Block3	congruent/STIM_011.jpg
3130.492	0.735	correct	congruent	Block3	congruent/STIM_011.jpg
3133.446	1.016	correct	congruent	Block3	congruent/STIM_012.jpg
3137.99	0.729	correct	congruent	Block3	congruent/STIM_012.jpg
3141.671	0.99	correct	congruent	Block3	congruent/STIM_012.jpg
3145.237	0.919	correct	congruent	Block3	congruent/STIM_012.jpg
3149.114	1.035	incorrect	congruent	Block3	congruent/STIM_012.jpg
3153.449	0.973	correct	congruent	Block3	congruent/STIM_013.jpg
3156.608	0.756	correct	congruent	Block3	congruent/STIM_013.jpg
3160.434	1.008	correct	congruent	Block3	congruent/STIM_013.jpg
3164.274	0.747	correct	congruent	Block3	congruent/STIM_013.jpg
3168.572	0.881	correct	congruent	Block3	congruent/STIM_013.jpg
3172.121	0.918	incorrect	congruent	Block3	congruent/STIM_014.jpg
3176.026	0.711	correct	congruent	Block3	congruent/STIM_014.jpg
3179.14	0.882	correct	congruent	Block3	congruent/STIM_014.jpg
3183.721	0.843	correct	congruent	Block3	congruent/STIM_014.jpg
3188.373	0.626	correct	congruent	Block3	congruent/STIM_014.jpg
3191.628	0.983	correct	congruent	Block3	congruent/STIM_015.jpg
3196.523	0.898	correct	congruent	Block3	congruent/STIM_015.jpg
3200.996	0.795	incorrect	congruent	Block3	congruent/STIM_015.jpg
3204.327	0.599	correct	congruent	Block3	congruent/STIM_015.jpg
3208.322	0.832	correct	congruent	Block3	congruent/STIM_015.jpg
3212.721	0.91	correct	congruent	Block3	congruent/STIM_016.jpg
3216.668	0.815	correct	congruent	Block3	congruent/STIM_016.jpg
3220.398	0.817	correct	congruent	Block3	congruent/STIM_016.jpg
3223.379	0.986	correct	congruent	Block3	congruent/STIM_016.jpg
3227.712	0.856	correct	congruent	Block3	congruent/STIM_016.jpg
3231.737	0.606	correct	congruent	Block3	congruent/STIM_017.jpg
3234.738	0.953	correct	congruent	Block3	congruent/STIM_017.jpg
3239.191	0.753	correct	congruent	Block3	congruent/STIM_017.jpg
3242.011	0.725	correct	congruent	Block3	congruent/STIM_017.jpg
3245.688	0.95	correct	congruent	Block3	congruent/STIM_017.jpg
3249.728	0.592	correct	congruent	Block3	congruent/STIM_018.jpg
3254.192	0.979	correct	congruent	Block3	congruent/STIM_018.jpg
3259.081	0.866	incorrect	congruent	Block3	congruent/STIM_018.jpg
3262.509	0.95	correct	congruent	Block3	congruent/STIM_018.jpg
3266.2	0.7	correct	congruent	Block3	congruent/STIM_018.jpg
3269.698	0.892	correct	congruent	Block3	congruent/STIM_019.jpg
3273.035	0.639	correct	congruent	Block3	congruent/STIM_019.jpg
3276.843	0.876	correct	congruent	Block3	congruent/STIM_019.jpg
3279.828	0.856	correct	congruent	Block3	congruent/STIM_019.jpg
3283.172	0.835	correct	congruent	Block3	congruent/STIM_019.jpg
3287.542	0.755	correct	congruent	Block3	congruent/STIM_020.jpg
3291.344	1.01	correct	congruent	Block3	congruent/STIM_020.jpg
3294.427	0.614	correct	congruent	Block3	congruent/STIM_020.jpg
3298.846	0.996	correct	congruent	Block3	congruent/STIM_020.jpg
3302.437	0.752	correct	congruent	Block3	congruent/STIM_020.jpg
3306.323	0.685	correct	congruent	Block3	congruent/STIM_021.jpg
3310.026	0.898	correct	congruent	Block3	congruent/STIM_021.jpg
3313.397	0.994	correct	congruent	Block3	congruent/STIM_021.jpg
3317.935	0.804	correct	congruent	Block3	congruent/STIM_021.jpg
3322.64	0.686	correct	congruent	Block3	congruent/STIM_021.jpg
3326.886	0.879	incorrect	congruent	Block3	congruent/STIM_022.jpg
3330.171	0.614	correct	congruent	Block3	congruent/STIM_022.jpg
3333.901	0.741	correct	congruent	Block3	congruent/STIM_022.jpg
3337.293	0.948	correct	congruent	Block3	congruent/STIM_022.jpg
3341.147	0.72	correct	congruent	Block3	congruent/STIM_022.jpg
3344.182	0.992	correct	congruent	Block3	congruent/STIM_023.jpg
3347.522	0.674	correct	congruent	Block3	congruent/STIM_023.jpg
3352.128	0.966	correct	congruent	Block3	congruent/STIM_023.jpg
3356.421	0.628	correct	congruent	Block3	congruent/STIM_023.jpg
3360.2	0.99	correct	congruent	Block3	congruent/STIM_023.jpg
3364.745	0.655	correct	congruent	Block3	congruent/STIM_024.jpg
3368.905	0.894	incorrect	congruent	Block3	congruent/STIM_024.jpg
3373.121	0.874	correct	congruent	Block3	congruent/STIM_024.jpg
3376.197	0.774	correct	congruent	Block3	congruent/STIM_024.jpg
3379.352	0.636	correct	congruent	Block3	congruent/STIM_024.jpg
3382.738	0.756	correct	congruent	Block3	congruent/STIM_025.jpg
3385.77	0.998	correct	congruent	Block3	congruent/STIM_025.jpg
3389.108	0.849	correct	congruent	Block3	congruent/STIM_025.jpg
3392.101	0.646	correct	congruent	Block3	congruent/STIM_025.jpg
3394.861	0.839	correct	congruent	Block3	congruent/STIM_025.jpg
3398.635	0.93	correct	congruent	Block3	congruent/STIM_026.jpg
3401.833	0.62	correct	congruent	Block3	congruent/STIM_026.jpg
3404.894	0.674	correct	congruent	Block3	congruent/STIM_026.jpg
3407.656	0.805	incorrect	congruent	Block3	congruent/STIM_026.jpg
3410.88	0.954	correct	congruent	Block3	congruent/STIM_026.jpg
3415.345	0.798	correct	congruent	Block3	congruent/STIM_027.jpg
3419.381	0.773	correct	congruent	Block3	congruent/STIM_027.jpg
3424.147	0.78	correct	congruent	Block3	congruent/STIM_027.jpg
3427.049	0.765	correct	congruent	Block3	congruent/STIM_027.jpg
3431.519	0.607	correct	congruent	Block3	congruent/STIM_027.jpg
3434.97	0.734	correct	congruent	Block3	congruent/STIM_028.jpg
3437.994	1.061	correct	congruent	Block3	congruent/STIM_028.jpg
3441.35	0.672	correct	congruent	Block3	congruent/STIM_028.jpg
3445.497	0.832	correct	congruent	Block3	congruent/STIM_028.jpg
3448.764	0.634	correct	congruent	Block3	congruent/STIM_028.jpg
3451.635	0.675	correct	congruent	Block3	congruent/STIM_029.jpg
3456.248	1.025	correct	congruent	Block3	congruent/STIM_029.jpg
3459.773	0.913	correct	congruent	Block3	congruent/STIM_029.jpg
3464.612	0.8	correct	congruent	Block3	congruent/STIM_029.jpg
3469.085	0.754	correct	congruent	Block3	congruent/STIM_029.jpg
