onset	duration	accuracy_binary	trial_type	learning_stage	stimulus
0.0	1.622	1	incongruent	Block1	incongruent/STIM_000.jpg
4.177	1.348	1	incongruent	Block1	incongruent/STIM_000.jpg
8.381	1.217	1	incongruent	Block1	incongruent/STIM_000.jpg
13.132	0.99	1	incongruent	Block1	incongruent/STIM_000.jpg
16.288	0.958	1	incongruent	Block1	incongruent/STIM_000.jpg
21.008	1.67	1	incongruent	Block1	incongruent/STIM_001.jpg
26.626	0.797	1	incongruent	Block1	incongruent/STIM_001.jpg
30.609	0.864	1	incongruent	Block1	incongruent/STIM_001.jpg
34.036	0.843	0	incongruent	Block1	incongruent/STIM_001.jpg
37.302	0.752	1	incongruent	Block1	incongruent/STIM_001.jpg
40.738	1.134	1	incongruent	Block1	incongruent/STIM_002.jpg
44.931	1.518	0	incongruent	Block1	incongruent/STIM_002.jpg
48.533	1.473	1	incongruent	Block1	incongruent/STIM_002.jpg
52.553	0.818	1	incongruent	Block1	incongruent/STIM_002.jpg
56.41	0.826	1	incongruent	Block1	incongruent/STIM_002.jpg
60.975	1.482	1	incongruent	Block1	incongruent/STIM_003.jpg
66.064	1.16	1	incongruent	Block1	incongruent/STIM_003.jpg
69.757	0.931	1	incongruent	Block1	incongruent/STIM_003.jpg
73.829	0.714	1	incongruent	Block1	incongruent/STIM_003.jpg
77.395	0.698	1	incongruent	Block1	incongruent/STIM_003.jpg
81.823	1.064	1	incongruent	Block1	incongruent/STIM_004.jpg
86.703	0.834	1	incongruent	Block1	incongruent/STIM_004.jpg
91.076	0.88	1	incongruent	Block1	incongruent/STIM_004.jpg
95.4	1.154	1	incongruent	Block1	incongruent/STIM_004.jpg
100.182	1.014	1	incongruent	Block1	incongruent/STIM_004.jpg
104.437	1.117	1	incongruent	Block1	incongruent/STIM_005.jpg
108.82	1.452	1	incongruent	Block1	incongruent/STIM_005.jpg
113.676	1.557	0	incongruent	Block1	incongruent/STIM_005.jpg
118.751	1.296	1	incongruent	Block1	incongruent/STIM_005.jpg
122.421	1.198	1	incongruent	Block1	incongruent/STIM_005.jpg
126.486	0.95	0	incongruent	Block1	incongruent/STIM_006.jpg
130.949	1.129	1	incongruent	Block1	incongruent/STIM_006.jpg
134.359	0.923	1	incongruent	Block1	incongruent/STIM_006.jpg
138.317	1.134	1	incongruent	Block1	incongruent/STIM_006.jpg
141.95	0.762	1	incongruent	Block1	incongruent/STIM_006.jpg
146.226	1.433	1	incongruent	Block1	incongruent/STIM_007.jpg
151.593	1.398	1	incongruent	Block1	incongruent/STIM_007.jpg
155.893	1.115	1	incongruent	Block1	incongruent/STIM_007.jpg
160.285	1.226	1	incongruent	Block1	incongruent/STIM_007.jpg
163.996	1.298	1	incongruent	Block1	incongruent/STIM_007.jpg
168.666	0.872	1	incongruent	Block1	incongruent/STIM_008.jpg
172.171	1.291	1	incongruent	Block1	incongruent/STIM_008.jpg
177.334	1.342	1	incongruent	Block1	incongruent/STIM_008.jpg
182.012	1.493	1	incongruent	Block1	incongruent/STIM_008.jpg
187.448	1.111	1	incongruent	Block1	incongruent/STIM_008.jpg
192.119	0.929	1	incongruent	Block1	incongruent/STIM_009.jpg
195.956	1.152	1	incongruent	Block1	incongruent/STIM_009.jpg
199.247	1.3	1	incongruent	Block1	incongruent/STIM_009.jpg
202.656	0.859	1	incongruent	Block1	incongruent/STIM_009.jpg
207.064	1.391	1	incongruent	Block1	incongruent/STIM_009.jpg
211.046	1.288	0	incongruent	Block1	incongruent/STIM_010.jpg
214.341	1.24	1	incongruent	Block1	incongruent/STIM_010.jpg
218.872	1.28	1	incongruent	Block1	incongruent/STIM_010.jpg
222.166	1.478	1	incongruent	Block1	incongruent/STIM_010.jpg
226.787	1.27	1	incongruent	Block1	incongruent/STIM_010.jpg
230.997	0.909	1	incongruent	Block1	incongruent/STIM_011.jpg
235.235	1.661	0	incongruent	Block1	incongruent/STIM_011.jpg
240.661	0.78	1	incongruent	Block1	incongruent/STIM_011.jpg
245.298	1.023	1	incongruent	Block1	incongruent/STIM_011.jpg
248.439	1.329	1	incongruent	Block1	incongruent/STIM_011.jpg
252.473	1.638	1	incongruent	Block1	incongruent/STIM_012.jpg
257.97	1.47	1	incongruent	Block1	incongruent/STIM_012.jpg
262.421	1.221	0	incongruent	Block1	incongruent/STIM_012.jpg
265.979	0.723	1	incongruent	Block1	incongruent/STIM_012.jpg
269.656	1.352	0	incongruent	Block1	incongruent/STIM_012.jpg
274.04	1.466	1	incongruent	Block1	incongruent/STIM_013.jpg
278.855	1.023	0	incongruent	Block1	incongruent/STIM_013.jpg
283.634	1.008	1	incongruent	Block1	incongruent/STIM_013.jpg
288.512	1.092	0	incongruent	Block1	incongruent/STIM_013.jpg
293.114	1.066	1	incongruent	Block1	incongruent/STIM_013.jpg
296.927	1.094	1	incongruent	Block1	incongruent/STIM_014.jpg
300.649	1.04	1	incongruent	Block1	incongruent/STIM_014.jpg
304.192	0.756	1	incongruent	Block1	incongruent/STIM_014.jpg
307.505	1.457	0	incongruent	Block1	incongruent/STIM_014.jpg
311.96	1.292	1	incongruent	Block1	incongruent/STIM_014.jpg
316.493	1.062	1	incongruent	Block1	incongruent/STIM_015.jpg
320.403	1.269	1	incongruent	Block1	incongruent/STIM_015.jpg
324.322	0.984	1	incongruent	Block1	incongruent/STIM_015.jpg
329.25	1.274	1	incongruent	Block1	incongruent/STIM_015.jpg
333.019	0.869	1	incongruent	Block1	incongruent/STIM_015.jpg
335.998	1.37	1	incongruent	Block1	incongruent/STIM_016.jpg
339.498	0.929	0	incongruent	Block1	incongruent/STIM_016.jpg
343.39	0.746	1	incongruent	Block1	incongruent/STIM_016.jpg
346.856	0.824	1	incongruent	Block1	incongruent/STIM_016.jpg
351.184	1.108	1	incongruent	Block1	incongruent/STIM_016.jpg
355.92	1.769	1	incongruent	Block1	incongruent/STIM_017.jpg
359.717	1.01	1	incongruent	Block1	incongruent/STIM_017.jpg
363.092	1.193	1	incongruent	Block1	incongruent/STIM_017.jpg
367.261	0.951	1	incongruent	Block1	incongruent/STIM_017.jpg
371.251	1.197	1	incongruent	Block1	incongruent/STIM_017.jpg
376.413	0.833	1	incongruent	Block1	incongruent/STIM_018.jpg
380.391	1.234	1	incongruent	Block1	incongruent/STIM_018.jpg
385.281	0.832	1	incongruent	Block1	incongruent/STIM_018.jpg
389.217	1.071	1	incongruent	Block1	incongruent/STIM_018.jpg
392.481	1.118	0	incongruent	Block1	incongruent/STIM_018.jpg
396.468	1.758	1	incongruent	Block1	incongruent/STIM_019.jpg
400.28	1.501	1	incongruent	Block1	incongruent/STIM_019.jpg
404.701	1.502	1	incongruent	Block1	incongruent/STIM_019.jpg
408.218	0.792	1	incongruent	Block1	incongruent/STIM_019.jpg
411.97	0.949	1	incongruent	Block1	incongruent/STIM_019.jpg
416.354	1.314	1	incongruent	Block1	incongruent/STIM_020.jpg
420.672	1.059	1	incongruent	Block1	incongruent/STIM_020.jpg
425.218	1.096	1	incongruent	Block1	incongruent/STIM_020.jpg
428.333	1.235	1	incongruent	Block1	incongruent/STIM_020.jpg
432.222	1.279	1	incongruent	Block1	incongruent/STIM_020.jpg
435.568	1.101	1	incongruent	Block1	incongruent/STIM_021.jpg
439.489	1.644	1	incongruent	Block1	incongruent/STIM_021.jpg
443.595	1.026	1	incongruent	Block1	incongruent/STIM_021.jpg
446.748	1.375	1	incongruent	Block1	incongruent/STIM_021.jpg
451.249	0.721	1	incongruent	Block1	incongruent/STIM_021.jpg
454.317	1.323	1	incongruent	Block1	incongruent/STIM_022.jpg
457.843	0.938	1	incongruent	Block1	incongruent/STIM_022.jpg
460.962	1.18	1	incongruent	Block1	incongruent/STIM_022.jpg
464.731	1.004	0	incongruent	Block1	incongruent/STIM_022.jpg
468.409	0.933	1	incongruent	Block1	incongruent/STIM_022.jpg
471.98	1.414	1	incongruent	Block1	incongruent/STIM_023.jpg
476.023	1.544	1	incongruent	Block1	incongruent/STIM_023.jpg
481.457	1.342	1	incongruent	Block1	incongruent/STIM_023.jpg
485.498	1.317	1	incongruent	Block1	incongruent/STIM_023.jpg
489.676	0.926	0	incongruent	Block1	incongruent/STIM_023.jpg
493.662	1.457	1	incongruent	Block1	incongruent/STIM_024.jpg
497.969	1.646	1	incongruent	Block1	incongruent/STIM_024.jpg
502.571	1.228	1	incongruent	Block1	incongruent/STIM_024.jpg
506.601	0.836	1	incongruent	Block1	incongruent/STIM_024.jpg
510.319	0.687	1	incongruent	Block1	incongruent/STIM_024.jpg
513.926	1.577	1	incongruent	Block1	incongruent/STIM_025.jpg
519.35	1.615	1	incongruent	Block1	incongruent/STIM_025.jpg
524.47	1.041	1	incongruent	Block1	incongruent/STIM_025.jpg
527.915	0.967	1	incongruent	Block1	incongruent/STIM_025.jpg
531.094	0.853	1	incongruent	Block1	incongruent/STIM_025.jpg
534.565	0.993	1	incongruent	Block1	incongruent/STIM_026.jpg
539.038	1.332	1	incongruent	Block1	incongruent/STIM_026.jpg
542.641	1.233	1	incongruent	Block1	incongruent/STIM_026.jpg
546.916	0.733	1	incongruent	Block1	incongruent/STIM_026.jpg
549.794	1.169	1	incongruent	Block1	incongruent/STIM_026.jpg
553.205	1.251	1	incongruent	Block1	incongruent/STIM_027.jpg
557.213	1.181	1	incongruent	Block1	incongruent/STIM_027.jpg
562.229	1.184	1	incongruent	Block1	incongruent/STIM_027.jpg
565.55	1.142	1	incongruent	Block1	incongruent/STIM_027.jpg
570.491	1.111	0	incongruent	Block1	incongruent/STIM_027.jpg
574.505	1.24	1	incongruent	Block1	incongruent/STIM_028.jpg
578.972	0.966	1	incongruent	Block1	incongruent/STIM_028.jpg
583.013	1.042	1	incongruent	Block1	incongruent/STIM_028.jpg
586.787	0.791	1	incongruent	Block1	incongruent/STIM_028.jpg
590.266	0.866	1	incongruent	Block1	incongruent/STIM_028.jpg
594.181	1.743	1	incongruent	Block1	incongruent/STIM_029.jpg
598.842	1.093	1	incongruent	Block1	incongruent/STIM_029.jpg
602.591	0.977	0	incongruent	Block1	incongruent/STIM_029.jpg
606.124	1.281	1	incongruent	Block1	incongruent/STIM_029.jpg
611.076	1.054	1	incongruent	Block1	incongruent/STIM_029.jpg
616.082	0.681	1	congruent	Block1	congruent/STIM_000.jpg
619.856	0.986	1	congruent	Block1	congruent/STIM_000.jpg
623.195	0.979	1	congruent	Block1	congruent/STIM_000.jpg
628.011	0.677	1	congruent	Block1	congruent/STIM_000.jpg
631.455	0.704	1	congruent	Block1	congruent/STIM_000.jpg
635.828	0.64	1	congruent	Block1	congruent/STIM_001.jpg
639.499	0.998	1	congruent	Block1	congruent/STIM_001.jpg
644.027	0.968	1	congruent	Block1	congruent/STIM_001.jpg
647.083	0.742	1	congruent	Block1	congruent/STIM_001.jpg
650.998	0.848	1	congruent	Block1	congruent/STIM_001.jpg
655.044	0.896	1	congruent	Block1	congruent/STIM_002.jpg
659.326	0.679	1	congruent	Block1	congruent/STIM_002.jpg
662.028	0.95	1	congruent	Block1	congruent/STIM_002.jpg
665.552	0.762	1	congruent	Block1	congruent/STIM_002.jpg
668.477	0.645	1	congruent	Block1	congruent/STIM_002.jpg
672.699	0.904	1	congruent	Block1	congruent/STIM_003.jpg
677.57	1.008	1	congruent	Block1	congruent/STIM_003.jpg
681.374	0.955	1	congruent	Block1	congruent/STIM_003.jpg
684.44	0.902	1	congruent	Block1	congruent/STIM_003.jpg
688.188	0.633	0	congruent	Block1	congruent/STIM_003.jpg
691.329	0.679	1	congruent	Block1	congruent/STIM_004.jpg
694.18	0.949	1	congruent	Block1	congruent/STIM_004.jpg
697.995	1.001	1	congruent	Block1	congruent/STIM_004.jpg
701.551	0.996	1	congruent	Block1	congruent/STIM_004.jpg
705.721	0.885	1	congruent	Block1	congruent/STIM_004.jpg
709.577	0.882	1	congruent	Block1	congruent/STIM_005.jpg
713.834	1.044	1	congruent	Block1	congruent/STIM_005.jpg
717.79	0.68	1	congruent	Block1	congruent/STIM_005.jpg
720.575	0.689	1	congruent	Block1	congruent/STIM_005.jpg
724.679	0.676	1	congruent	Block1	congruent/STIM_005.jpg
728.223	0.742	1	congruent	Block1	congruent/STIM_006.jpg
731.929	0.975	1	congruent	Block1	congruent/STIM_006.jpg
736.25	1.014	1	congruent	Block1	congruent/STIM_006.jpg
739.943	0.892	1	congruent	Block1	congruent/STIM_006.jpg
743.516	0.594	1	congruent	Block1	congruent/STIM_006.jpg
746.441	0.948	1	congruent	Block1	congruent/STIM_007.jpg
749.486	0.669	1	congruent	Block1	congruent/STIM_007.jpg
753.493	0.61	1	congruent	Block1	congruent/STIM_007.jpg
757.163	0.626	1	congruent	Block1	congruent/STIM_007.jpg
760.761	0.828	1	congruent	Block1	congruent/STIM_007.jpg
763.882	0.605	1	congruent	Block1	congruent/STIM_008.jpg
766.536	0.86	1	congruent	Block1	congruent/STIM_008.jpg
769.889	0.805	1	congruent	Block1	congruent/STIM_008.jpg
773.59	0.651	1	congruent	Block1	congruent/STIM_008.jpg
776.866	0.67	1	congruent	Block1	congruent/STIM_008.jpg
781.053	0.9	1	congruent	Block1	congruent/STIM_009.jpg
784.689	0.875	1	congruent	Block1	congruent/STIM_009.jpg
789.393	0.829	1	congruent	Block1	congruent/STIM_009.jpg
793.871	0.784	1	congruent	Block1	congruent/STIM_009.jpg
798.298	0.757	1	congruent	Block1	congruent/STIM_009.jpg
802.161	0.69	1	congruent	Block1	congruent/STIM_010.jpg
804.994	0.846	0	congruent	Block1	congruent/STIM_010.jpg
808.704	0.817	1	congruent	Block1	congruent/STIM_010.jpg
813.149	0.94	1	congruent	Block1	congruent/STIM_010.jpg
817.012	0.65	1	congruent	Block1	congruent/STIM_010.jpg
819.788	1.01	1	congruent	Block1	congruent/STIM_011.jpg
822.92	0.762	1	congruent	Block1	congruent/STIM_011.jpg
826.165	0.646	1	congruent	Block1	congruent/STIM_011.jpg
829.807	0.822	1	congruent	Block1	congruent/STIM_011.jpg
832.763	0.7	1	congruent	Block1	congruent/STIM_011.jpg
836.91	0.908	1	congruent	Block1	congruent/STIM_012.jpg
841.631	0.972	1	congruent	Block1	congruent/STIM_012.jpg
846.418	0.803	1	congruent	Block1	congruent/STIM_012.jpg
850.719	0.971	1	congruent	Block1	congruent/STIM_012.jpg
854.417	1.048	1	congruent	Block1	congruent/STIM_012.jpg
859.163	1.026	1	congruent	Block1	congruent/STIM_013.jpg
863.754	0.92	1	congruent	Block1	congruent/STIM_013.jpg
868.39	0.896	1	congruent	Block1	congruent/STIM_013.jpg
871.572	0.677	1	congruent	Block1	congruent/STIM_013.jpg
875.163	0.92	1	congruent	Block1	congruent/STIM_013.jpg
878.118	0.669	1	congruent	Block1	congruent/STIM_014.jpg
882.389	0.872	1	congruent	Block1	congruent/STIM_014.jpg
886.101	0.868	1	congruent	Block1	congruent/STIM_014.jpg
889.3	0.665	1	congruent	Block1	congruent/STIM_014.jpg
892.51	0.895	1	congruent	Block1	congruent/STIM_014.jpg
895.609	0.701	1	congruent	Block1	congruent/STIM_015.jpg
899.644	0.905	1	congruent	Block1	congruent/STIM_015.jpg
902.634	0.997	1	congruent	Block1	congruent/STIM_015.jpg
905.631	0.772	1	congruent	Block1	congruent/STIM_015.jpg
909.089	0.698	1	congruent	Block1	congruent/STIM_015.jpg
912.377	0.804	1	congruent	Block1	congruent/STIM_016.jpg
917.037	0.761	1	congruent	Block1	congruent/STIM_016.jpg
920.611	0.882	1	congruent	Block1	congruent/STIM_016.jpg
925.158	0.756	1	congruent	Block1	congruent/STIM_016.jpg
929.422	0.727	1	congruent	Block1	congruent/STIM_016.jpg
933.405	0.978	1	congruent	Block1	congruent/STIM_017.jpg
938.294	1.042	1	congruent	Block1	congruent/STIM_017.jpg
941.875	0.934	1	congruent	Block1	congruent/STIM_017.jpg
945.52	0.785	1	congruent	Block1	congruent/STIM_017.jpg
949.196	0.971	1	congruent	Block1	congruent/STIM_017.jpg
953.848	0.75	1	congruent	Block1	congruent/STIM_018.jpg
957.002	0.92	1	congruent	Block1	congruent/STIM_018.jpg
961.215	0.634	1	congruent	Block1	congruent/STIM_018.jpg
965.047	0.628	1	congruent	Block1	congruent/STIM_018.jpg
967.93	1.034	1	congruent	Block1	congruent/STIM_018.jpg
972.263	0.952	1	congruent	Block1	congruent/STIM_019.jpg
976.957	1.037	1	congruent	Block1	congruent/STIM_019.jpg
980.636	0.606	1	congruent	Block1	congruent/STIM_019.jpg
984.811	0.653	1	congruent	Block1	congruent/STIM_019.jpg
988.872	0.78	1	congruent	Block1	congruent/STIM_019.jpg
992.089	0.8	1	congruent	Block1	congruent/STIM_020.jpg
996.502	0.618	0	congruent	Block1	congruent/STIM_020.jpg
1000.633	0.739	1	congruent	Block1	congruent/STIM_020.jpg
1004.693	0.948	1	congruent	Block1	congruent/STIM_020.jpg
1009.011	0.668	1	congruent	Block1	congruent/STIM_020.jpg
1013.63	0.833	1	congruent	Block1	congruent/STIM_021.jpg
1016.876	0.679	1	congruent	Block1	congruent/STIM_021.jpg
1020.72	0.889	1	congruent	Block1	congruent/STIM_021.jpg
1025.039	0.634	1	congruent	Block1	congruent/STIM_021.jpg
1028.134	1.043	0	congruent	Block1	congruent/STIM_021.jpg
1031.615	0.879	1	congruent	Block1	congruent/STIM_022.jpg
1035.721	1.046	1	congruent	Block1	congruent/STIM_022.jpg
1038.885	0.976	0	congruent	Block1	congruent/STIM_022.jpg
1042.848	0.611	1	congruent	Block1	congruent/STIM_022.jpg
1046.596	1.04	1	congruent	Block1	congruent/STIM_022.jpg
1050.639	0.693	1	congruent	Block1	congruent/STIM_023.jpg
1054.43	0.726	1	congruent	Block1	congruent/STIM_023.jpg
1057.81	1.004	1	congruent	Block1	congruent/STIM_023.jpg
1061.741	0.763	1	congruent	Block1	congruent/STIM_023.jpg
1066.118	0.802	1	congruent	Block1	congruent/STIM_023.jpg
1069.223	0.807	1	congruent	Block1	congruent/STIM_024.jpg
1072.56	0.995	1	congruent	Block1	congruent/STIM_024.jpg
1075.76	0.686	1	congruent	Block1	congruent/STIM_024.jpg
1079.902	0.948	1	congruent	Block1	congruent/STIM_024.jpg
1084.303	0.894	1	congruent	Block1	congruent/STIM_024.jpg
1087.524	0.957	1	congruent	Block1	congruent/STIM_025.jpg
1091.154	0.816	1	congruent	Block1	congruent/STIM_025.jpg
1094.455	0.634	1	congruent	Block1	congruent/STIM_025.jpg
1098.939	0.787	1	congruent	Block1	congruent/STIM_025.jpg
1103.578	0.84	1	congruent	Block1	congruent/STIM_025.jpg
1106.506	0.611	1	congruent	Block1	congruent/STIM_026.jpg
1109.568	0.702	1	congruent	Block1	congruent/STIM_026.jpg
1112.337	1.038	1	congruent	Block1	congruent/STIM_026.jpg
1116.918	0.633	1	congruent	Block1	congruent/STIM_026.jpg
1119.827	0.672	1	congruent	Block1	congruent/STIM_026.jpg
1123.279	0.591	1	congruent	Block1	congruent/STIM_027.jpg
1127.117	0.816	1	congruent	Block1	congruent/STIM_027.jpg
1130.518	0.861	1	congruent	Block1	congruent/STIM_027.jpg
1133.395	1.061	1	congruent	Block1	congruent/STIM_027.jpg
1136.626	0.787	1	congruent	Block1	congruent/STIM_027.jpg
1141.298	0.669	1	congruent	Block1	congruent/STIM_028.jpg
1144.004	0.644	1	congruent	Block1	congruent/STIM_028.jpg
1147.316	0.649	1	congruent	Block1	congruent/STIM_028.jpg
1151.608	1.041	1	congruent	Block1	congruent/STIM_028.jpg
1155.928	0.627	1	congruent	Block1	congruent/STIM_028.jpg
1158.772	0.93	1	congruent	Block1	congruent/STIM_029.jpg
1161.743	0.604	1	congruent	Block1	congruent/STIM_029.jpg
1166.198	0.874	0	congruent	Block1	congruent/STIM_029.jpg
1169.85	1.002	1	congruent	Block1	congruent/STIM_029.jpg
1172.87	0.633	1	congruent	Block1	congruent/STIM_029.jpg
1176.855	1.252	1	incongruent	Block2	incongruent/STIM_000.jpg
1180.845	1.386	1	incongruent	Block2	incongruent/STIM_000.jpg
1185.94	0.79	1	incongruent	Block2	incongruent/STIM_000.jpg
1189.6	0.941	1	incongruent	Block2	incongruent/STIM_000.jpg
1193.505	0.972	1	incongruent	Block2	incongruent/STIM_000.jpg
1197.983	1.406	1	incongruent	Block2	incongruent/STIM_001.jpg
1202.716	1.236	0	incongruent	Block2	incongruent/STIM_001.jpg
1206.438	1.209	1	incongruent	Block2	incongruent/STIM_001.jpg
1210.274	1.07	1	incongruent	Block2	incongruent/STIM_001.jpg
1214.651	0.662	1	incongruent	Block2	incongruent/STIM_001.jpg
1218.406	0.741	1	incongruent	Block2	incongruent/STIM_002.jpg
1222.156	1.087	0	incongruent	Block2	incongruent/STIM_002.jpg
1225.972	0.971	1	incongruent	Block2	incongruent/STIM_002.jpg
1229.021	0.9	1	incongruent	Block2	incongruent/STIM_002.jpg
1232.321	0.714	1	incongruent	Block2	incongruent/STIM_002.jpg
1235.984	0.98	1	incongruent	Block2	incongruent/STIM_003.jpg
1240.528	0.914	1	incongruent	Block2	incongruent/STIM_003.jpg
1243.931	0.958	1	incongruent	Block2	incongruent/STIM_003.jpg
1247.235	0.714	1	incongruent	Block2	incongruent/STIM_003.jpg
1250.975	0.813	1	incongruent	Block2	incongruent/STIM_003.jpg
1254.662	0.74	1	incongruent	Block2	incongruent/STIM_004.jpg
1258.491	0.944	1	incongruent	Block2	incongruent/STIM_004.jpg
1263.035	1.166	1	incongruent	Block2	incongruent/STIM_004.jpg
1266.915	0.649	1	incongruent	Block2	incongruent/STIM_004.jpg
1270.185	0.668	1	incongruent	Block2	incongruent/STIM_004.jpg
1273.337	1.057	1	incongruent	Block2	incongruent/STIM_005.jpg
1277.433	1.193	1	incongruent	Block2	incongruent/STIM_005.jpg
1281.266	1.103	1	incongruent	Block2	incongruent/STIM_005.jpg
1286.061	0.961	1	incongruent	Block2	incongruent/STIM_005.jpg
1290.094	0.615	1	incongruent	Block2	incongruent/STIM_005.jpg
1293.084	1.293	1	incongruent	Block2	incongruent/STIM_006.jpg
1297.864	0.89	1	incongruent	Block2	incongruent/STIM_006.jpg
1302.46	1.054	1	incongruent	Block2	incongruent/STIM_006.jpg
1307.227	1.126	1	incongruent	Block2	incongruent/STIM_006.jpg
1310.504	1.222	1	incongruent	Block2	incongruent/STIM_006.jpg
1314.155	1.192	1	incongruent	Block2	incongruent/STIM_007.jpg
1317.592	1.225	1	incongruent	Block2	incongruent/STIM_007.jpg
1320.919	1.013	1	incongruent	Block2	incongruent/STIM_007.jpg
1324.451	0.738	1	incongruent	Block2	incongruent/STIM_007.jpg
1329.076	0.682	1	incongruent	Block2	incongruent/STIM_007.jpg
1333.106	0.869	1	incongruent	Block2	incongruent/STIM_008.jpg
1336.524	1.362	1	incongruent	Block2	incongruent/STIM_008.jpg
1340.955	1.208	1	incongruent	Block2	incongruent/STIM_008.jpg
1344.584	0.975	1	incongruent	Block2	incongruent/STIM_008.jpg
1348.984	0.843	1	incongruent	Block2	incongruent/STIM_008.jpg
1353.063	1.108	1	incongruent	Block2	incongruent/STIM_009.jpg
1356.8	1.204	1	incongruent	Block2	incongruent/STIM_009.jpg
1361.193	1.142	1	incongruent	Block2	incongruent/STIM_009.jpg
1365.353	0.597	1	incongruent	Block2	incongruent/STIM_009.jpg
1368.611	0.643	1	incongruent	Block2	incongruent/STIM_009.jpg
1372.67	0.949	1	incongruent	Block2	incongruent/STIM_010.jpg
1376.252	0.707	1	incongruent	Block2	incongruent/STIM_010.jpg
1380.474	0.876	1	incongruent	Block2	incongruent/STIM_010.jpg
1383.94	0.776	1	incongruent	Block2	incongruent/STIM_010.jpg
1386.828	1.017	1	incongruent	Block2	incongruent/STIM_010.jpg
1391.611	1.196	1	incongruent	Block2	incongruent/STIM_011.jpg
1395.974	0.831	1	incongruent	Block2	incongruent/STIM_011.jpg
1399.388	0.669	1	incongruent	Block2	incongruent/STIM_011.jpg
1402.182	0.645	1	incongruent	Block2	incongruent/STIM_011.jpg
1405.014	1.193	1	incongruent	Block2	incongruent/STIM_011.jpg
1408.558	1.043	1	incongruent	Block2	incongruent/STIM_012.jpg
1413.197	1.306	1	incongruent	Block2	incongruent/STIM_012.jpg
1417.375	0.997	1	incongruent	Block2	incongruent/STIM_012.jpg
1422.356	1.035	1	incongruent	Block2	incongruent/STIM_012.jpg
1425.751	0.617	1	incongruent	Block2	incongruent/STIM_012.jpg
1429.622	1.204	1	incongruent	Block2	incongruent/STIM_013.jpg
1433.694	0.726	1	incongruent	Block2	incongruent/STIM_013.jpg
1438.33	0.767	1	incongruent	Block2	incongruent/STIM_013.jpg
1442.179	0.66	1	incongruent	Block2	incongruent/STIM_013.jpg
1446.207	0.923	1	incongruent	Block2	incongruent/STIM_013.jpg
1449.677	1.151	1	incongruent	Block2	incongruent/STIM_014.jpg
1453.542	1.321	1	incongruent	Block2	incongruent/STIM_014.jpg
1457.677	1.141	1	incongruent	Block2	incongruent/STIM_014.jpg
1461.213	0.932	1	incongruent	Block2	incongruent/STIM_014.jpg
1465.969	0.697	1	incongruent	Block2	incongruent/STIM_014.jpg
1469.458	0.76	1	incongruent	Block2	incongruent/STIM_015.jpg
1473.718	0.722	1	incongruent	Block2	incongruent/STIM_015.jpg
1477.989	0.701	1	incongruent	Block2	incongruent/STIM_015.jpg
1480.719	0.873	0	incongruent	Block2	incongruent/STIM_015.jpg
1484.659	1.118	1	incongruent	Block2	incongruent/STIM_015.jpg
1489.65	0.808	1	incongruent	Block2	incongruent/STIM_016.jpg
1492.576	1.38	0	incongruent	Block2	incongruent/STIM_016.jpg
1497.572	0.938	1	incongruent	Block2	incongruent/STIM_016.jpg
1501.792	1.04	1	incongruent	Block2	incongruent/STIM_016.jpg
1505.006	0.94	1	incongruent	Block2	incongruent/STIM_016.jpg
1508.985	0.714	1	incongruent	Block2	incongruent/STIM_017.jpg
1511.799	0.762	1	incongruent	Block2	incongruent/STIM_017.jpg
1515.082	1.012	1	incongruent	Block2	incongruent/STIM_017.jpg
1519.32	0.941	1	incongruent	Block2	incongruent/STIM_017.jpg
1522.37	0.91	1	incongruent	Block2	incongruent/STIM_017.jpg
1526.813	1.423	1	incongruent	Block2	incongruent/STIM_018.jpg
1531.412	1.075	1	incongruent	Block2	incongruent/STIM_018.jpg
1535.117	0.767	1	incongruent	Block2	incongruent/STIM_018.jpg
1538.782	0.926	1	incongruent	Block2	incongruent/STIM_018.jpg
1543.087	0.636	1	incongruent	Block2	incongruent/STIM_018.jpg
1546.765	1.345	1	incongruent	Block2	incongruent/STIM_019.jpg
1551.633	0.964	1	incongruent	Block2	incongruent/STIM_019.jpg
1555.223	1.216	1	incongruent	Block2	incongruent/STIM_019.jpg
1559.592	0.8	1	incongruent	Block2	incongruent/STIM_019.jpg
1563.698	1.069	1	incongruent	Block2	incongruent/STIM_019.jpg
1567.856	0.971	0	incongruent	Block2	incongruent/STIM_020.jpg
1571.035	1.195	1	incongruent	Block2	incongruent/STIM_020.jpg
1576.189	0.84	1	incongruent	Block2	incongruent/STIM_020.jpg
1579.336	0.675	1	incongruent	Block2	incongruent/STIM_020.jpg
1583.985	0.907	1	incongruent	Block2	incongruent/STIM_020.jpg
1588.637	1.255	1	incongruent	Block2	incongruent/STIM_021.jpg
1592.791	1.041	1	incongruent	Block2	incongruent/STIM_021.jpg
1595.884	0.955	1	incongruent	Block2	incongruent/STIM_021.jpg
1600.827	1.193	1	incongruent	Block2	incongruent/STIM_021.jpg
1604.993	0.97	0	incongruent	Block2	incongruent/STIM_021.jpg
1609.559	1.342	1	incongruent	Block2	incongruent/STIM_022.jpg
1613.57	0.749	0	incongruent	Block2	incongruent/STIM_022.jpg
1617.93	1.027	1	incongruent	Block2	incongruent/STIM_022.jpg
1621.346	0.586	1	incongruent	Block2	incongruent/STIM_022.jpg
1624.679	0.61	1	incongruent	Block2	incongruent/STIM_022.jpg
1628.573	0.718	1	incongruent	Block2	incongruent/STIM_023.jpg
1632.211	1.252	1	incongruent	Block2	incongruent/STIM_023.jpg
1637.148	0.903	1	incongruent	Block2	incongruent/STIM_023.jpg
1641.115	1.186	1	incongruent	Block2	incongruent/STIM_023.jpg
1644.471	0.718	1	incongruent	Block2	incongruent/STIM_023.jpg
1648.319	0.78	1	incongruent	Block2	incongruent/STIM_024.jpg
1651.838	0.928	1	incongruent	Block2	incongruent/STIM_024.jpg
1656.362	0.7	1	incongruent	Block2	incongruent/STIM_024.jpg
1660.656	0.968	1	incongruent	Block2	incongruent/STIM_024.jpg
1663.743	0.634	1	incongruent	Block2	incongruent/STIM_024.jpg
1666.504	0.757	1	incongruent	Block2	incongruent/STIM_025.jpg
1669.338	0.789	1	incongruent	Block2	incongruent/STIM_025.jpg
1673.859	0.815	1	incongruent	Block2	incongruent/STIM_025.jpg
1677.134	1.001	1	incongruent	Block2	incongruent/STIM_025.jpg
1682.078	0.712	1	incongruent	Block2	incongruent/STIM_025.jpg
1684.917	1.156	1	incongruent	Block2	incongruent/STIM_026.jpg
1689.765	1.084	1	incongruent	Block2	incongruent/STIM_026.jpg
1693.184	0.932	1	incongruent	Block2	incongruent/STIM_026.jpg
1696.865	1.102	1	incongruent	Block2	incongruent/STIM_026.jpg
1700.406	0.656	1	incongruent	Block2	incongruent/STIM_026.jpg
1703.777	0.861	1	incongruent	Block2	incongruent/STIM_027.jpg
1707.958	1.353	1	incongruent	Block2	incongruent/STIM_027.jpg
1712.235	0.707	1	incongruent	Block2	incongruent/STIM_027.jpg
1715.471	0.87	1	incongruent	Block2	incongruent/STIM_027.jpg
1719.625	1.096	1	incongruent	Block2	incongruent/STIM_027.jpg
1723.924	1.044	1	incongruent	Block2	incongruent/STIM_028.jpg
1728.632	0.954	1	incongruent	Block2	incongruent/STIM_028.jpg
1732.35	1.122	1	incongruent	Block2	incongruent/STIM_028.jpg
1737.152	0.63	1	incongruent	Block2	incongruent/STIM_028.jpg
1740.567	0.583	1	incongruent	Block2	incongruent/STIM_028.jpg
1743.716	1.43	1	incongruent	Block2	incongruent/STIM_029.jpg
1748.991	1.324	1	incongruent	Block2	incongruent/STIM_029.jpg
1753.78	1.108	1	incongruent	Block2	incongruent/STIM_029.jpg
1757.171	0.582	1	incongruent	Block2	incongruent/STIM_029.jpg
1760.512	0.873	1	incongruent	Block2	incongruent/STIM_029.jpg
1764.492	0.636	1	congruent	Block2	congruent/STIM_000.jpg
1768.369	0.623	1	congruent	Block2	congruent/STIM_000.jpg
1772.411	0.706	1	congruent	Block2	congruent/STIM_000.jpg
1776.506	1.036	1	congruent	Block2	congruent/STIM_000.jpg
1780.434	0.783	1	congruent	Block2	congruent/STIM_000.jpg
1783.681	0.878	1	congruent	Block2	congruent/STIM_001.jpg
1787.406	0.838	1	congruent	Block2	congruent/STIM_001.jpg
1791.173	0.719	1	congruent	Block2	congruent/STIM_001.jpg
1795.453	0.618	1	congruent	Block2	congruent/STIM_001.jpg
1798.629	0.886	1	congruent	Block2	congruent/STIM_001.jpg
1802.63	1.007	1	congruent	Block2	congruent/STIM_002.jpg
1806.444	0.728	1	congruent	Block2	congruent/STIM_002.jpg
1810.591	0.724	1	congruent	Block2	congruent/STIM_002.jpg
1813.952	0.89	1	congruent	Block2	congruent/STIM_002.jpg
1818.591	0.865	1	congruent	Block2	congruent/STIM_002.jpg
1821.484	0.915	1	congruent	Block2	congruent/STIM_003.jpg
1825.641	0.726	1	congruent	Block2	congruent/STIM_003.jpg
1829.574	0.625	1	congruent	Block2	congruent/STIM_003.jpg
1833.927	0.773	1	congruent	Block2	congruent/STIM_003.jpg
1837.05	1.046	1	congruent	Block2	congruent/STIM_003.jpg
1840.305	0.681	1	congruent	Block2	congruent/STIM_004.jpg
1843.834	1.002	1	congruent	Block2	congruent/STIM_004.jpg
1847.824	0.836	1	congruent	Block2	congruent/STIM_004.jpg
1850.943	0.637	1	congruent	Block2	congruent/STIM_004.jpg
1854.407	0.841	1	congruent	Block2	congruent/STIM_004.jpg
1857.351	0.916	1	congruent	Block2	congruent/STIM_005.jpg
1861.12	0.823	1	congruent	Block2	congruent/STIM_005.jpg
1864.693	0.814	1	congruent	Block2	congruent/STIM_005.jpg
1867.844	0.882	1	congruent	Block2	congruent/STIM_005.jpg
1871.458	0.784	1	congruent	Block2	congruent/STIM_005.jpg
1875.145	1.033	1	congruent	Block2	congruent/STIM_006.jpg
1878.59	0.761	1	congruent	Block2	congruent/STIM_006.jpg
1882.429	1.049	1	congruent	Block2	congruent/STIM_006.jpg
1886.797	0.97	0	congruent	Block2	congruent/STIM_006.jpg
1891.415	0.609	1	congruent	Block2	congruent/STIM_006.jpg
1895.333	0.798	1	congruent	Block2	congruent/STIM_007.jpg
1900.068	0.921	1	congruent	Block2	congruent/STIM_007.jpg
1904.761	0.902	1	congruent	Block2	congruent/STIM_007.jpg
1908.415	1.046	1	congruent	Block2	congruent/STIM_007.jpg
1912.658	0.797	1	congruent	Block2	congruent/STIM_007.jpg
1916.192	0.604	1	congruent	Block2	congruent/STIM_008.jpg
1919.634	1.018	1	congruent	Block2	congruent/STIM_008.jpg
1923.583	0.67	1	congruent	Block2	congruent/STIM_008.jpg
1926.927	0.748	1	congruent	Block2	congruent/STIM_008.jpg
1930.33	0.683	1	congruent	Block2	congruent/STIM_008.jpg
1933.793	0.919	1	congruent	Block2	congruent/STIM_009.jpg
1937.876	0.864	1	congruent	Block2	congruent/STIM_009.jpg
1941.06	0.791	1	congruent	Block2	congruent/STIM_009.jpg
1943.866	0.783	1	congruent	Block2	congruent/STIM_009.jpg
1947.74	0.726	1	congruent	Block2	congruent/STIM_009.jpg
1950.476	0.612	1	congruent	Block2	congruent/STIM_010.jpg
1953.115	0.761	1	congruent	Block2	congruent/STIM_010.jpg
1957.644	1.06	1	congruent	Block2	congruent/STIM_010.jpg
1961.442	1.024	1	congruent	Block2	congruent/STIM_010.jpg
1966.136	0.731	1	congruent	Block2	congruent/STIM_010.jpg
1969.003	0.967	1	congruent	Block2	congruent/STIM_011.jpg
1972.543	0.937	1	congruent	Block2	congruent/STIM_011.jpg
1975.516	1.044	0	congruent	Block2	congruent/STIM_011.jpg
1979.905	0.891	1	congruent	Block2	congruent/STIM_011.jpg
1984.038	1.014	1	congruent	Block2	congruent/STIM_011.jpg
1987.197	0.786	1	congruent	Block2	congruent/STIM_012.jpg
1991.533	0.634	1	congruent	Block2	congruent/STIM_012.jpg
1994.591	0.624	1	congruent	Block2	congruent/STIM_012.jpg
1997.749	0.598	1	congruent	Block2	congruent/STIM_012.jpg
2001.645	0.934	1	congruent	Block2	congruent/STIM_012.jpg
2006.498	0.972	1	congruent	Block2	congruent/STIM_013.jpg
2010.704	1.031	1	congruent	Block2	congruent/STIM_013.jpg
2014.448	0.951	1	congruent	Block2	congruent/STIM_013.jpg
2018.804	1.012	1	congruent	Block2	congruent/STIM_013.jpg
2023.144	0.701	1	congruent	Block2	congruent/STIM_013.jpg
2027.166	0.95	1	congruent	Block2	congruent/STIM_014.jpg
2030.685	0.747	1	congruent	Block2	congruent/STIM_014.jpg
2034.864	0.781	1	congruent	Block2	congruent/STIM_014.jpg
2038.942	0.953	1	congruent	Block2	congruent/STIM_014.jpg
2043.504	0.735	1	congruent	Block2	congruent/STIM_014.jpg
2046.331	0.78	1	congruent	Block2	congruent/STIM_015.jpg
2049.815	0.942	1	congruent	Block2	congruent/STIM_015.jpg
2054.013	0.839	1	congruent	Block2	congruent/STIM_015.jpg
2058.478	0.766	1	congruent	Block2	congruent/STIM_015.jpg
2061.84	0.697	1	congruent	Block2	congruent/STIM_015.jpg
2065.721	1.01	1	congruent	Block2	congruent/STIM_016.jpg
2069.383	0.771	1	congruent	Block2	congruent/STIM_016.jpg
2072.977	0.768	1	congruent	Block2	congruent/STIM_016.jpg
2077.354	0.7	1	congruent	Block2	congruent/STIM_016.jpg
2080.767	0.617	1	congruent	Block2	congruent/STIM_016.jpg
2084.493	0.942	1	congruent	Block2	congruent/STIM_017.jpg
2087.804	1.04	1	congruent	Block2	congruent/STIM_017.jpg
2091.694	0.596	1	congruent	Block2	congruent/STIM_017.jpg
2095.935	0.984	1	congruent	Block2	congruent/STIM_017.jpg
2099.149	0.826	1	congruent	Block2	congruent/STIM_017.jpg
2102.113	0.748	1	congruent	Block2	congruent/STIM_018.jpg
2106.099	0.923	1	congruent	Block2	congruent/STIM_018.jpg
2110.924	0.866	1	congruent	Block2	congruent/STIM_018.jpg
2114.373	0.629	1	congruent	Block2	congruent/STIM_018.jpg
2118.53	0.654	1	congruent	Block2	congruent/STIM_018.jpg
2122.278	0.61	1	congruent	Block2	congruent/STIM_019.jpg
2126.61	0.923	1	congruent	Block2	congruent/STIM_019.jpg
2129.969	0.663	1	congruent	Block2	congruent/STIM_019.jpg
2134.112	0.729	1	congruent	Block2	congruent/STIM_019.jpg
2137.094	0.706	1	congruent	Block2	congruent/STIM_019.jpg
2140.88	1.0	1	congruent	Block2	congruent/STIM_020.jpg
2145.845	0.946	1	congruent	Block2	congruent/STIM_020.jpg
2149.092	0.951	1	congruent	Block2	congruent/STIM_020.jpg
2152.16	0.859	1	congruent	Block2	congruent/STIM_020.jpg
2156.461	1.008	1	congruent	Block2	congruent/STIM_020.jpg
2160.555	0.994	1	congruent	Block2	congruent/STIM_021.jpg
2164.083	0.772	1	congruent	Block2	congruent/STIM_021.jpg
2168.65	0.75	1	congruent	Block2	congruent/STIM_021.jpg
2172.771	1.009	0	congruent	Block2	congruent/STIM_021.jpg
2176.053	0.926	1	congruent	Block2	congruent/STIM_021.jpg
2179.554	0.974	1	congruent	Block2	congruent/STIM_022.jpg
2184.266	0.775	1	congruent	Block2	congruent/STIM_022.jpg
2187.552	0.609	1	congruent	Block2	congruent/STIM_022.jpg
2192.035	0.653	1	congruent	Block2	congruent/STIM_022.jpg
2196.29	0.657	1	congruent	Block2	congruent/STIM_022.jpg
2199.515	0.705	1	congruent	Block2	congruent/STIM_023.jpg
2202.509	0.604	1	congruent	Block2	congruent/STIM_023.jpg
2207.056	0.74	1	congruent	Block2	congruent/STIM_023.jpg
2210.919	0.718	1	congruent	Block2	congruent/STIM_023.jpg
2214.192	1.032	1	congruent	Block2	congruent/STIM_023.jpg
2217.527	0.814	1	congruent	Block2	congruent/STIM_024.jpg
2222.239	0.698	1	congruent	Block2	congruent/STIM_024.jpg
2226.008	0.819	1	congruent	Block2	congruent/STIM_024.jpg
2229.906	0.801	1	congruent	Block2	congruent/STIM_024.jpg
2233.634	0.88	1	congruent	Block2	congruent/STIM_024.jpg
2238.282	0.762	1	congruent	Block2	congruent/STIM_025.jpg
2241.188	0.993	1	congruent	Block2	congruent/STIM_025.jpg
2244.54	0.857	1	congruent	Block2	congruent/STIM_025.jpg
2249.393	0.969	1	congruent	Block2	congruent/STIM_025.jpg
2253.844	0.661	1	congruent	Block2	congruent/STIM_025.jpg
2258.354	1.014	1	congruent	Block2	congruent/STIM_026.jpg
2262.697	0.618	1	congruent	Block2	congruent/STIM_026.jpg
2267.294	0.687	1	congruent	Block2	congruent/STIM_026.jpg
2270.235	0.851	1	congruent	Block2	congruent/STIM_026.jpg
2274.881	1.013	1	congruent	Block2	congruent/STIM_026.jpg
2279.145	1.015	1	congruent	Block2	congruent/STIM_027.jpg
2283.77	0.643	1	congruent	Block2	congruent/STIM_027.jpg
2286.932	0.809	1	congruent	Block2	congruent/STIM_027.jpg
2290.77	0.896	1	congruent	Block2	congruent/STIM_027.jpg
2294.722	0.648	1	congruent	Block2	congruent/STIM_027.jpg
2297.788	0.946	1	congruent	Block2	congruent/STIM_028.jpg
2302.618	0.772	1	congruent	Block2	congruent/STIM_028.jpg
2306.295	0.763	1	congruent	Block2	congruent/STIM_028.jpg
2309.918	1.004	1	congruent	Block2	congruent/STIM_028.jpg
2314.426	0.686	1	congruent	Block2	congruent/STIM_028.jpg
2317.729	0.702	1	congruent	Block2	congruent/STIM_029.jpg
2321.107	1.036	1	congruent	Block2	congruent/STIM_029.jpg
2325.117	0.998	1	congruent	Block2	congruent/STIM_029.jpg
2329.712	0.818	1	congruent	Block2	congruent/STIM_029.jpg
2333.13	0.935	1	congruent	Block2	congruent/STIM_029.jpg
2337.802	0.902	1	incongruent	Block3	incongruent/STIM_000.jpg
2342.198	1.105	1	incongruent	Block3	incongruent/STIM_000.jpg
2345.591	1.022	1	incongruent	Block3	incongruent/STIM_000.jpg
2348.661	0.916	1	incongruent	Block3	incongruent/STIM_000.jpg
2352.617	0.698	1	incongruent	Block3	incongruent/STIM_000.jpg
2356.541	0.628	1	incongruent	Block3	incongruent/STIM_001.jpg
2359.289	0.912	1	incongruent	Block3	incongruent/STIM_001.jpg
2363.868	0.957	1	incongruent	Block3	incongruent/STIM_001.jpg
2367.006	0.618	1	incongruent	Block3	incongruent/STIM_001.jpg
2369.734	0.644	1	incongruent	Block3	incongruent/STIM_001.jpg
2372.602	1.094	1	incongruent	Block3	incongruent/STIM_002.jpg
2376.224	1.066	1	incongruent	Block3	incongruent/STIM_002.jpg
2380.411	1.118	1	incongruent	Block3	incongruent/STIM_002.jpg
2385.036	1.079	1	incongruent	Block3	incongruent/STIM_002.jpg
2388.663	1.097	1	incongruent	Block3	incongruent/STIM_002.jpg
2391.848	0.72	1	incongruent	Block3	incongruent/STIM_003.jpg
2395.102	1.094	1	incongruent	Block3	incongruent/STIM_003.jpg
2399.451	0.896	1	incongruent	Block3	incongruent/STIM_003.jpg
2402.815	0.763	1	incongruent	Block3	incongruent/STIM_003.jpg
2407.414	1.012	1	incongruent	Block3	incongruent/STIM_003.jpg
2410.627	0.726	1	incongruent	Block3	incongruent/STIM_004.jpg
2413.958	0.958	1	incongruent	Block3	incongruent/STIM_004.jpg
2417.81	0.704	1	incongruent	Block3	incongruent/STIM_004.jpg
2421.857	0.579	1	incongruent	Block3	incongruent/STIM_004.jpg
2424.948	0.594	1	incongruent	Block3	incongruent/STIM_004.jpg
2428.326	1.005	1	incongruent	Block3	incongruent/STIM_005.jpg
2433.108	0.734	1	incongruent	Block3	incongruent/STIM_005.jpg
2435.922	0.865	1	incongruent	Block3	incongruent/STIM_005.jpg
2439.085	0.679	1	incongruent	Block3	incongruent/STIM_005.jpg
2442.773	1.062	1	incongruent	Block3	incongruent/STIM_005.jpg
2446.411	0.939	1	incongruent	Block3	incongruent/STIM_006.jpg
2451.187	0.929	1	incongruent	Block3	incongruent/STIM_006.jpg
2454.563	1.148	1	incongruent	Block3	incongruent/STIM_006.jpg
2457.749	1.019	1	incongruent	Block3	incongruent/STIM_006.jpg
2461.404	0.647	1	incongruent	Block3	incongruent/STIM_006.jpg
2465.301	0.694	1	incongruent	Block3	incongruent/STIM_007.jpg
2468.662	0.855	1	incongruent	Block3	incongruent/STIM_007.jpg
2471.95	0.614	1	incongruent	Block3	incongruent/STIM_007.jpg
2476.105	0.663	1	incongruent	Block3	incongruent/STIM_007.jpg
2480.561	0.815	1	incongruent	Block3	incongruent/STIM_007.jpg
2485.258	0.707	1	incongruent	Block3	incongruent/STIM_008.jpg
2488.437	1.134	1	incongruent	Block3	incongruent/STIM_008.jpg
2492.861	0.805	1	incongruent	Block3	incongruent/STIM_008.jpg
2497.454	1.111	1	incongruent	Block3	incongruent/STIM_008.jpg
2502.504	1.196	1	incongruent	Block3	incongruent/STIM_008.jpg
2506.791	1.197	1	incongruent	Block3	incongruent/STIM_009.jpg
2510.739	0.949	1	incongruent	Block3	incongruent/STIM_009.jpg
2515.498	0.877	1	incongruent	Block3	incongruent/STIM_009.jpg
2518.892	0.74	1	incongruent	Block3	incongruent/STIM_009.jpg
2522.689	0.862	1	incongruent	Block3	incongruent/STIM_009.jpg
2526.431	1.172	1	incongruent	Block3	incongruent/STIM_010.jpg
2530.858	1.066	1	incongruent	Block3	incongruent/STIM_010.jpg
2534.266	0.712	1	incongruent	Block3	incongruent/STIM_010.jpg
2537.928	0.586	1	incongruent	Block3	incongruent/STIM_010.jpg
2541.032	0.876	1	incongruent	Block3	incongruent/STIM_010.jpg
2544.83	0.956	1	incongruent	Block3	incongruent/STIM_011.jpg
2548.786	0.994	1	incongruent	Block3	incongruent/STIM_011.jpg
2553.658	0.728	1	incongruent	Block3	incongruent/STIM_011.jpg
2557.997	0.904	1	incongruent	Block3	incongruent/STIM_011.jpg
2560.991	0.963	1	incongruent	Block3	incongruent/STIM_011.jpg
2564.788	1.152	1	incongruent	Block3	incongruent/STIM_012.jpg
2568.558	0.896	1	incongruent	Block3	incongruent/STIM_012.jpg
2572.232	1.142	1	incongruent	Block3	incongruent/STIM_012.jpg
2576.19	1.155	1	incongruent	Block3	incongruent/STIM_012.jpg
2579.431	0.984	1	incongruent	Block3	incongruent/STIM_012.jpg
2584.11	1.065	1	incongruent	Block3	incongruent/STIM_013.jpg
2587.838	0.715	1	incongruent	Block3	incongruent/STIM_013.jpg
2590.712	1.168	1	incongruent	Block3	incongruent/STIM_013.jpg
2593.985	1.153	1	incongruent	Block3	incongruent/STIM_013.jpg
2598.473	1.228	1	incongruent	Block3	incongruent/STIM_013.jpg
2602.689	0.87	1	incongruent	Block3	incongruent/STIM_014.jpg
2606.266	1.053	1	incongruent	Block3	incongruent/STIM_014.jpg
2609.777	1.135	1	incongruent	Block3	incongruent/STIM_014.jpg
2612.966	0.849	1	incongruent	Block3	incongruent/STIM_014.jpg
2616.14	1.142	1	incongruent	Block3	incongruent/STIM_014.jpg
2620.273	0.679	1	incongruent	Block3	incongruent/STIM_015.jpg
2624.574	0.655	1	incongruent	Block3	incongruent/STIM_015.jpg
2628.465	0.625	1	incongruent	Block3	incongruent/STIM_015.jpg
2632.127	0.885	1	incongruent	Block3	incongruent/STIM_015.jpg
2636.474	0.724	1	incongruent	Block3	incongruent/STIM_015.jpg
2639.316	0.913	1	incongruent	Block3	incongruent/STIM_016.jpg
2642.513	0.711	1	incongruent	Block3	incongruent/STIM_016.jpg
2646.763	0.929	1	incongruent	Block3	incongruent/STIM_016.jpg
2651.197	0.811	1	incongruent	Block3	incongruent/STIM_016.jpg
2654.033	1.075	1	incongruent	Block3	incongruent/STIM_016.jpg
2657.455	0.667	1	incongruent	Block3	incongruent/STIM_017.jpg
2661.468	0.706	1	incongruent	Block3	incongruent/STIM_017.jpg
2664.464	1.14	1	incongruent	Block3	incongruent/STIM_017.jpg
2668.384	0.666	1	incongruent	Block3	incongruent/STIM_017.jpg
2671.09	0.704	1	incongruent	Block3	incongruent/STIM_017.jpg
2674.939	0.607	1	incongruent	Block3	incongruent/STIM_018.jpg
2679.438	0.595	1	incongruent	Block3	incongruent/STIM_018.jpg
2682.376	0.613	1	incongruent	Block3	incongruent/STIM_018.jpg
2686.907	1.237	1	incongruent	Block3	incongruent/STIM_018.jpg
2691.253	0.805	1	incongruent	Block3	incongruent/STIM_018.jpg
2694.848	1.126	1	incongruent	Block3	incongruent/STIM_019.jpg
2698.176	0.652	1	incongruent	Block3	incongruent/STIM_019.jpg
2701.064	0.624	1	incongruent	Block3	incongruent/STIM_019.jpg
2705.023	0.716	1	incongruent	Block3	incongruent/STIM_019.jpg
2709.14	0.583	1	incongruent	Block3	incongruent/STIM_019.jpg
2713.251	0.886	1	incongruent	Block3	incongruent/STIM_020.jpg
2716.534	0.678	1	incongruent	Block3	incongruent/STIM_020.jpg
2720.684	0.603	1	incongruent	Block3	incongruent/STIM_020.jpg
2723.995	0.902	1	incongruent	Block3	incongruent/STIM_020.jpg
2728.097	0.653	1	incongruent	Block3	incongruent/STIM_020.jpg
2731.09	0.974	1	incongruent	Block3	incongruent/STIM_021.jpg
2735.89	0.869	1	incongruent	Block3	incongruent/STIM_021.jpg
2740.575	0.716	1	incongruent	Block3	incongruent/STIM_021.jpg
2744.17	0.877	1	incongruent	Block3	incongruent/STIM_021.jpg
2748.346	0.911	1	incongruent	Block3	incongruent/STIM_021.jpg
2752.8	1.078	1	incongruent	Block3	incongruent/STIM_022.jpg
2756.317	0.766	1	incongruent	Block3	incongruent/STIM_022.jpg
2760.046	0.976	1	incongruent	Block3	incongruent/STIM_022.jpg
2764.79	1.209	1	incongruent	Block3	incongruent/STIM_022.jpg
2769.823	0.902	1	incongruent	Block3	incongruent/STIM_022.jpg
2772.772	1.128	1	incongruent	Block3	incongruent/STIM_023.jpg
2776.317	0.894	1	incongruent	Block3	incongruent/STIM_023.jpg
2780.745	0.929	1	incongruent	Block3	incongruent/STIM_023.jpg
2783.845	1.227	1	incongruent	Block3	incongruent/STIM_023.jpg
2787.16	1.009	1	incongruent	Block3	incongruent/STIM_023.jpg
2791.362	0.645	1	incongruent	Block3	incongruent/STIM_024.jpg
2794.964	1.03	1	incongruent	Block3	incongruent/STIM_024.jpg
2798.896	0.691	1	incongruent	Block3	incongruent/STIM_024.jpg
2803.052	0.787	1	incongruent	Block3	incongruent/STIM_024.jpg
2807.82	1.205	1	incongruent	Block3	incongruent/STIM_024.jpg
2812.602	0.836	1	incongruent	Block3	incongruent/STIM_025.jpg
2816.814	0.826	1	incongruent	Block3	incongruent/STIM_025.jpg
2820.641	1.137	1	incongruent	Block3	incongruent/STIM_025.jpg
2824.928	0.702	1	incongruent	Block3	incongruent/STIM_025.jpg
2827.733	0.888	1	incongruent	Block3	incongruent/STIM_025.jpg
2832.493	0.982	1	incongruent	Block3	incongruent/STIM_026.jpg
2835.566	0.904	1	incongruent	Block3	incongruent/STIM_026.jpg
2838.799	0.641	1	incongruent	Block3	incongruent/STIM_026.jpg
2841.85	1.189	1	incongruent	Block3	incongruent/STIM_026.jpg
2845.895	0.949	1	incongruent	Block3	incongruent/STIM_026.jpg
2849.405	0.991	1	incongruent	Block3	incongruent/STIM_027.jpg
2853.052	0.724	1	incongruent	Block3	incongruent/STIM_027.jpg
2855.818	0.93	1	incongruent	Block3	incongruent/STIM_027.jpg
2859.322	0.849	1	incongruent	Block3	incongruent/STIM_027.jpg
2863.115	1.111	1	incongruent	Block3	incongruent/STIM_027.jpg
2866.683	1.215	1	incongruent	Block3	incongruent/STIM_028.jpg
2870.577	1.055	1	incongruent	Block3	incongruent/STIM_028.jpg
2875.431	0.695	1	incongruent	Block3	incongruent/STIM_028.jpg
2878.655	0.864	1	incongruent	Block3	incongruent/STIM_028.jpg
2882.729	0.777	1	incongruent	Block3	incongruent/STIM_028.jpg
2886.276	0.585	1	incongruent	Block3	incongruent/STIM_029.jpg
2890.484	1.112	1	incongruent	Block3	incongruent/STIM_029.jpg
2894.088	1.035	1	incongruent	Block3	incongruent/STIM_029.jpg
2897.155	1.042	1	incongruent	Block3	incongruent/STIM_029.jpg
2900.682	0.797	1	incongruent	Block3	incongruent/STIM_029.jpg
2904.349	0.641	1	congruent	Block3	congruent/STIM_000.jpg
2908.774	0.743	1	congruent	Block3	congruent/STIM_000.jpg
2912.191	0.69	1	congruent	Block3	congruent/STIM_000.jpg
2916.651	1.054	1	congruent	Block3	congruent/STIM_000.jpg
2920.866	0.918	1	congruent	Block3	congruent/STIM_000.jpg
2923.999	0.739	1	congruent	Block3	congruent/STIM_001.jpg
2928.206	0.887	1	congruent	Block3	congruent/STIM_001.jpg
2931.362	0.974	1	congruent	Block3	congruent/STIM_001.jpg
2935.622	0.874	1	congruent	Block3	congruent/STIM_001.jpg
2938.821	0.783	1	congruent	Block3	congruent/STIM_001.jpg
2942.862	1.051	1	congruent	Block3	congruent/STIM_002.jpg
2946.017	1.019	1	congruent	Block3	congruent/STIM_002.jpg
2950.729	0.748	1	congruent	Block3	congruent/STIM_002.jpg
2954.088	0.992	1	congruent	Block3	congruent/STIM_002.jpg
2957.62	0.654	1	congruent	Block3	congruent/STIM_002.jpg
2960.639	1.015	1	congruent	Block3	congruent/STIM_003.jpg
2964.096	0.931	1	congruent	Block3	congruent/STIM_003.jpg
2968.662	0.813	1	congruent	Block3	congruent/STIM_003.jpg
2972.054	0.594	1	congruent	Block3	congruent/STIM_003.jpg
2974.865	0.947	1	congruent	Block3	congruent/STIM_003.jpg
2977.934	1.057	1	congruent	Block3	congruent/STIM_004.jpg
2982.139	0.637	1	congruent	Block3	congruent/STIM_004.jpg
2986.299	0.835	0	congruent	Block3	congruent/STIM_004.jpg
2989.978	0.72	1	congruent	Block3	congruent/STIM_004.jpg
2993.595	0.845	1	congruent	Block3	congruent/STIM_004.jpg
2997.245	0.893	1	congruent	Block3	congruent/STIM_005.jpg
3001.192	1.026	1	congruent	Block3	congruent/STIM_005.jpg
3005.812	0.636	1	congruent	Block3	congruent/STIM_005.jpg
3008.809	0.889	1	congruent	Block3	congruent/STIM_005.jpg
3013.457	0.709	1	congruent	Block3	congruent/STIM_005.jpg
3017.69	0.685	1	congruent	Block3	congruent/STIM_006.jpg
3020.651	0.927	1	congruent	Block3	congruent/STIM_006.jpg
3023.806	1.033	1	congruent	Block3	congruent/STIM_006.jpg
3027.473	0.75	1	congruent	Block3	congruent/STIM_006.jpg
3031.362	0.654	1	congruent	Block3	congruent/STIM_006.jpg
3034.811	0.965	1	congruent	Block3	congruent/STIM_007.jpg
3039.27	0.922	1	congruent	Block3	congruent/STIM_007.jpg
3043.056	0.749	1	congruent	Block3	congruent/STIM_007.jpg
3045.93	0.926	1	congruent	Block3	congruent/STIM_007.jpg
3049.541	0.978	1	congruent	Block3	congruent/STIM_007.jpg
3052.726	0.979	1	congruent	Block3	congruent/STIM_008.jpg
3056.238	0.687	1	congruent	Block3	congruent/STIM_008.jpg
3060.774	0.995	1	congruent	Block3	congruent/STIM_008.jpg
3064.893	1.032	1	congruent	Block3	congruent/STIM_008.jpg
3069.444	0.679	1	congruent	Block3	congruent/STIM_008.jpg
3073.773	0.742	1	congruent	Block3	congruent/STIM_009.jpg
3078.256	0.705	1	congruent	Block3	congruent/STIM_009.jpg
3081.245	1.037	1	congruent	Block3	congruent/STIM_009.jpg
3085.686	0.731	1	congruent	Block3	congruent/STIM_009.jpg
3089.663	0.993	1	congruent	Block3	congruent/STIM_009.jpg
3094.477	0.981	1	congruent	Block3	congruent/STIM_010.jpg
3098.313	0.818	1	congruent	Block3	congruent/STIM_010.jpg
3102.881	0.944	1	congruent	Block3	congruent/STIM_010.jpg
3107.268	0.917	1	congruent	Block3	congruent/STIM_010.jpg
3112.069	0.593	1	congruent	Block3	congruent/STIM_010.jpg
3114.856	1.045	1	congruent	Block3	congruent/STIM_011.jpg
3119.447	0.968	0	congruent	Block3	congruent/STIM_011.jpg
3123.184	0.807	1	congruent	Block3	congruent/STIM_011.jpg
3126.994	1.057	1	congruent	Block3	congruent/STIM_011.jpg
3130.492	0.735	1	congruent	Block3	congruent/STIM_011.jpg
3133.446	1.016	1	congruent	Block3	congruent/STIM_012.jpg
3137.99	0.729	1	congruent	Block3	congruent/STIM_012.jpg
3141.671	0.99	1	congruent	Block3	congruent/STIM_012.jpg
3145.237	0.919	1	congruent	Block3	congruent/STIM_012.jpg
3149.114	1.035	0	congruent	Block3	congruent/STIM_012.jpg
3153.449	0.973	1	congruent	Block3	congruent/STIM_013.jpg
3156.608	0.756	1	congruent	Block3	congruent/STIM_013.jpg
3160.434	1.008	1	congruent	Block3	congruent/STIM_013.jpg
3164.274	0.747	1	congruent	Block3	congruent/STIM_013.jpg
3168.572	0.881	1	congruent	Block3	congruent/STIM_013.jpg
3172.121	0.918	0	congruent	Block3	congruent/STIM_014.jpg
3176.026	0.711	1	congruent	Block3	congruent/STIM_014.jpg
3179.14	0.882	1	congruent	Block3	congruent/STIM_014.jpg
3183.721	0.843	1	congruent	Block3	congruent/STIM_014.jpg
3188.373	0.626	1	congruent	Block3	congruent/STIM_014.jpg
3191.628	0.983	1	congruent	Block3	congruent/STIM_015.jpg
3196.523	0.898	1	congruent	Block3	congruent/STIM_015.jpg
3200.996	0.795	0	congruent	Block3	congruent/STIM_015.jpg
3204.327	0.599	1	congruent	Block3	congruent/STIM_015.jpg
3208.322	0.832	1	congruent	Block3	congruent/STIM_015.jpg
3212.721	0.91	1	congruent	Block3	congruent/STIM_016.jpg
3216.668	0.815	1	congruent	Block3	congruent/STIM_016.jpg
3220.398	0.817	1	congruent	Block3	congruent/STIM_016.jpg
3223.379	0.986	1	congruent	Block3	congruent/STIM_016.jpg
3227.712	0.856	1	congruent	Block3	congruent/STIM_016.jpg
3231.737	0.606	1	congruent	Block3	congruent/STIM_017.jpg
3234.738	0.953	1	congruent	Block3	congruent/STIM_017.jpg
3239.191	0.753	1	congruent	Block3	congruent/STIM_017.jpg
3242.011	0.725	1	congruent	Block3	congruent/STIM_017.jpg
3245.688	0.95	1	congruent	Block3	congruent/STIM_017.jpg
3249.728	0.592	1	congruent	Block3	congruent/STIM_018.jpg
3254.192	0.979	1	congruent	Block3	congruent/STIM_018.jpg
3259.081	0.866	0	congruent	Block3	congruent/STIM_018.jpg
3262.509	0.95	1	congruent	Block3	congruent/STIM_018.jpg
3266.2	0.7	1	congruent	Block3	congruent/STIM_018.jpg
3269.698	0.892	1	congruent	Block3	congruent/STIM_019.jpg
3273.035	0.639	1	congruent	Block3	congruent/STIM_019.jpg
3276.843	0.876	1	congruent	Block3	congruent/STIM_019.jpg
3279.828	0.856	1	congruent	Block3	congruent/STIM_019.jpg
3283.172	0.835	1	congruent	Block3	congruent/STIM_019.jpg
3287.542	0.755	1	congruent	Block3	congruent/STIM_020.jpg
3291.344	1.01	1	congruent	Block3	congruent/STIM_020.jpg
3294.427	0.614	1	congruent	Block3	congruent/STIM_020.jpg
3298.846	0.996	1	congruent	Block3	congruent/STIM_020.jpg
3302.437	0.752	1	congruent	Block3	congruent/STIM_020.jpg
3306.323	0.685	1	congruent	Block3	congruent/STIM_021.jpg
3310.026	0.898	1	congruent	Block3	congruent/STIM_021.jpg
3313.397	0.994	1	congruent	Block3	congruent/STIM_021.jpg
3317.935	0.804	1	congruent	Block3	congruent/STIM_021.jpg
3322.64	0.686	1	congruent	Block3	congruent/STIM_021.jpg
3326.886	0.879	0	congruent	Block3	congruent/STIM_022.jpg
3330.171	0.614	1	congruent	Block3	congruent/STIM_022.jpg
3333.901	0.741	1	congruent	Block3	congruent/STIM_022.jpg
3337.293	0.948	1	congruent	Block3	congruent/STIM_022.jpg
3341.147	0.72	1	congruent	Block3	congruent/STIM_022.jpg
3344.182	0.992	1	congruent	Block3	congruent/STIM_023.jpg
3347.522	0.674	1	congruent	Block3	congruent/STIM_023.jpg
3352.128	0.966	1	congruent	Block3	congruent/STIM_023.jpg
3356.421	0.628	1	congruent	Block3	congruent/STIM_023.jpg
3360.2	0.99	1	congruent	Block3	congruent/STIM_023.jpg
3364.745	0.655	1	congruent	Block3	congruent/STIM_024.jpg
3368.905	0.894	0	congruent	Block3	congruent/STIM_024.jpg
3373.121	0.874	1	congruent	Block3	congruent/STIM_024.jpg
3376.197	0.774	1	congruent	Block3	congruent/STIM_024.jpg
3379.352	0.636	1	congruent	Block3	congruent/STIM_024.jpg
3382.738	0.756	1	congruent	Block3	congruent/STIM_025.jpg
3385.77	0.998	1	congruent	Block3	congruent/STIM_025.jpg
3389.108	0.849	1	congruent	Block3	congruent/STIM_025.jpg
3392.101	0.646	1	congruent	Block3	congruent/STIM_025.jpg
3394.861	0.839	1	congruent	Block3	congruent/STIM_025.jpg
3398.635	0.93	1	congruent	Block3	congruent/STIM_026.jpg
3401.833	0.62	1	congruent	Block3	congruent/STIM_026.jpg
3404.894	0.674	1	congruent	Block3	congruent/STIM_026.jpg
3407.656	0.805	0	congruent	Block3	congruent/STIM_026.jpg
3410.88	0.954	1	congruent	Block3	congruent/STIM_026.jpg
3415.345	0.798	1	congruent	Block3	congruent/STIM_027.jpg
3419.381	0.773	1	congruent	Block3	congruent/STIM_027.jpg
3424.147	0.78	1	congruent	Block3	congruent/STIM_027.jpg
3427.049	0.765	1	congruent	Block3	congruent/STIM_027.jpg
3431.519	0.607	1	congruent	Block3	congruent/STIM_027.jpg
3434.97	0.734	1	congruent	Block3	congruent/STIM_028.jpg
3437.994	1.061	1	congruent	Block3	congruent/STIM_028.jpg
3441.35	0.672	1	congruent	Block3	congruent/STIM_028.jpg
3445.497	0.832	1	congruent	Block3	congruent/STIM_028.jpg
3448.764	0.634	1	congruent	Block3	congruent/STIM_028.jpg
3451.635	0.675	1	congruent	Block3	congruent/STIM_029.jpg
3456.248	1.025	1	congruent	Block3	congruent/STIM_029.jpg
3459.773	0.913	1	congruent	Block3	congruent/STIM_029.jpg
3464.612	0.8	1	congruent	Block3	congruent/STIM_029.jpg
3469.085	0.754	1	congruent	Block3	congruent/STIM_029.jpg
