onset	duration	response_time_ms	trial_type	learning_stage	stimulus	response_port
0.0	1.245	1244.6	2back	Block1	2back/STIM_000.jpg	99
4.477	1.277	1277.1	2back	Block1	2back/STIM_000.jpg	99
8.049	1.085	1084.6	2back	Block1	2back/STIM_000.jpg	99
12.717	1.06	1060.4	2back	Block1	2back/STIM_001.jpg	100
17.098	1.008	1008.2	2back	Block1	2back/STIM_001.jpg	100
20.801	1.138	1137.9	2back	Block1	2back/STIM_001.jpg	100
24.359	1.084	1084.3	2back	Block1	2back/STIM_002.jpg	100
29.389	1.127	1127.3	2back	Block1	2back/STIM_002.jpg	99
33.785	1.088	1088.3	2back	Block1	2back/STIM_002.jpg	100
38.231	1.309	1308.6	2back	Block1	2back/STIM_003.jpg	99
43.036	0.76	760.2	2back	Block1	2back/STIM_003.jpg	100
47.366	0.684	683.5	2back	Block1	2back/STIM_003.jpg	100
51.726	0.793	793.2	2back	Block1	2back/STIM_004.jpg	100
56.327	1.188	1188.3	2back	Block1	2back/STIM_004.jpg	100
60.441	0.626	625.8	2back	Block1	2back/STIM_004.jpg	100
64.012	1.361	1361.4	2back	Block1	2back/STIM_005.jpg	99
67.449	0.789	788.8	2back	Block1	2back/STIM_005.jpg	100
70.423	1.124	1123.5	2back	Block1	2back/STIM_005.jpg	100
74.954	1.448	1448.2	2back	Block1	2back/STIM_006.jpg	100
80.15	0.632	632.1	2back	Block1	2back/STIM_006.jpg	99
84.02	0.951	951.1	2back	Block1	2back/STIM_006.jpg	99
88.587	1.328	1328.3	2back	Block1	2back/STIM_007.jpg	100
93.641	0.591	590.9	2back	Block1	2back/STIM_007.jpg	100
96.348	1.14	1139.7	2back	Block1	2back/STIM_007.jpg	100
101.246	1.012	1012.1	2back	Block1	2back/STIM_008.jpg	100
105.533	1.057	1057.4	2back	Block1	2back/STIM_008.jpg	100
109.776	1.179	1179.0	2back	Block1	2back/STIM_008.jpg	100
114.611	1.097	1097.0	2back	Block1	2back/STIM_009.jpg	99
119.595	0.659	658.9	2back	Block1	2back/STIM_009.jpg	100
123.436	1.2	1199.8	2back	Block1	2back/STIM_009.jpg	99
127.277	0.686	686.5	2back	Block1	2back/STIM_010.jpg	99
130.412	0.651	651.1	2back	Block1	2back/STIM_010.jpg	100
134.491	0.895	894.8	2back	Block1	2back/STIM_010.jpg	100
138.328	1.169	1169.4	2back	Block1	2back/STIM_011.jpg	100
143.061	1.372	1371.5	2back	Block1	2back/STIM_011.jpg	100
147.729	0.673	673.4	2back	Block1	2back/STIM_011.jpg	99
152.245	0.879	878.7	2back	Block1	2back/STIM_012.jpg	99
156.793	0.899	899.0	2back	Block1	2back/STIM_012.jpg	99
159.85	0.816	815.5	2back	Block1	2back/STIM_012.jpg	99
163.057	1.305	1304.9	2back	Block1	2back/STIM_013.jpg	99
166.637	1.04	1039.9	2back	Block1	2back/STIM_013.jpg	99
171.119	0.656	655.6	2back	Block1	2back/STIM_013.jpg	99
175.194	0.957	957.4	2back	Block1	2back/STIM_014.jpg	100
180.076	1.044	1043.8	2back	Block1	2back/STIM_014.jpg	100
184.825	1.304	1303.7	2back	Block1	2back/STIM_014.jpg	100
189.337	1.077	1077.2	2back	Block1	2back/STIM_015.jpg	99
194.406	1.3	1300.5	2back	Block1	2back/STIM_015.jpg	100
198.569	0.724	723.5	2back	Block1	2back/STIM_015.jpg	99
202.416	1.307	1306.8	2back	Block1	2back/STIM_016.jpg	99
207.237	1.294	1294.0	2back	Block1	2back/STIM_016.jpg	100
210.475	1.215	1215.2	2back	Block1	2back/STIM_016.jpg	99
214.355	1.04	1040.5	2back	Block1	2back/STIM_017.jpg	99
217.634	0.659	658.9	2back	Block1	2back/STIM_017.jpg	100
221.171	1.2	1200.5	2back	Block1	2back/STIM_017.jpg	99
225.838	1.226	1226.0	2back	Block1	2back/STIM_018.jpg	99
230.46	0.537	537.3	2back	Block1	2back/STIM_018.jpg	100
234.92	0.75	750.5	2back	Block1	2back/STIM_018.jpg	100
238.229	0.79	789.8	2back	Block1	2back/STIM_019.jpg	99
241.195	0.738	737.5	2back	Block1	2back/STIM_019.jpg	99
245.528	0.924	924.4	2back	Block1	2back/STIM_019.jpg	100
249.454	1.459	1458.8	2back	Block1	2back/STIM_020.jpg	99
253.904	0.748	748.1	2back	Block1	2back/STIM_020.jpg	100
258.672	0.82	819.8	2back	Block1	2back/STIM_020.jpg	99
261.661	0.984	984.0	2back	Block1	2back/STIM_021.jpg	100
264.725	0.681	680.7	2back	Block1	2back/STIM_021.jpg	100
267.591	0.748	748.5	2back	Block1	2back/STIM_021.jpg	100
271.488	1.254	1253.5	2back	Block1	2back/STIM_022.jpg	99
276.098	0.701	701.1	2back	Block1	2back/STIM_022.jpg	99
278.955	1.263	1262.6	2back	Block1	2back/STIM_022.jpg	99
282.397	1.332	1332.5	2back	Block1	2back/STIM_023.jpg	100
286.795	1.28	1279.9	2back	Block1	2back/STIM_023.jpg	99
290.882	1.19	1189.7	2back	Block1	2back/STIM_023.jpg	99
294.266	0.798	798.0	2back	Block1	2back/STIM_024.jpg	99
297.872	0.959	958.6	2back	Block1	2back/STIM_024.jpg	100
301.701	1.103	1102.6	2back	Block1	2back/STIM_024.jpg	99
305.893	0.727	727.4	2back	Block1	2back/STIM_025.jpg	100
308.661	0.802	802.1	2back	Block1	2back/STIM_025.jpg	99
312.322	0.578	578.2	2back	Block1	2back/STIM_025.jpg	100
316.616	0.845	844.7	2back	Block1	2back/STIM_026.jpg	99
320.612	0.737	737.1	2back	Block1	2back/STIM_026.jpg	100
323.907	0.669	669.4	2back	Block1	2back/STIM_026.jpg	100
326.775	0.693	693.1	2back	Block1	2back/STIM_027.jpg	99
329.533	0.72	719.5	2back	Block1	2back/STIM_027.jpg	100
332.721	0.794	794.1	2back	Block1	2back/STIM_027.jpg	99
336.158	0.754	754.3	2back	Block1	2back/STIM_028.jpg	100
340.69	0.901	901.1	2back	Block1	2back/STIM_028.jpg	100
343.782	1.039	1039.4	2back	Block1	2back/STIM_028.jpg	100
347.806	1.034	1034.2	2back	Block1	2back/STIM_029.jpg	100
351.117	1.437	1436.6	2back	Block1	2back/STIM_029.jpg	100
356.301	0.714	714.3	2back	Block1	2back/STIM_029.jpg	99
359.376	1.197	1197.3	2back	Block1	2back/STIM_030.jpg	100
362.759	1.199	1199.3	2back	Block1	2back/STIM_030.jpg	100
367.021	1.321	1321.1	2back	Block1	2back/STIM_030.jpg	100
370.469	1.028	1027.8	2back	Block1	2back/STIM_031.jpg	100
374.215	0.808	808.1	2back	Block1	2back/STIM_031.jpg	99
378.247	1.001	1000.8	2back	Block1	2back/STIM_031.jpg	100
382.718	1.005	1005.3	2back	Block1	2back/STIM_032.jpg	99
386.718	1.389	1389.0	2back	Block1	2back/STIM_032.jpg	100
391.392	1.166	1166.4	2back	Block1	2back/STIM_032.jpg	100
395.691	1.11	1110.0	2back	Block1	2back/STIM_033.jpg	100
400.058	1.259	1258.6	2back	Block1	2back/STIM_033.jpg	99
405.037	0.832	831.6	2back	Block1	2back/STIM_033.jpg	99
408.576	0.8	800.2	2back	Block1	2back/STIM_034.jpg	99
412.502	1.284	1283.8	2back	Block1	2back/STIM_034.jpg	100
415.993	0.891	890.8	2back	Block1	2back/STIM_034.jpg	99
419.474	1.199	1199.3	2back	Block1	2back/STIM_035.jpg	99
423.663	0.701	700.6	2back	Block1	2back/STIM_035.jpg	100
427.723	1.199	1198.7	2back	Block1	2back/STIM_035.jpg	100
431.897	1.497	1497.2	2back	Block1	2back/STIM_036.jpg	99
436.208	1.012	1011.8	2back	Block1	2back/STIM_036.jpg	99
441.179	0.86	860.2	2back	Block1	2back/STIM_036.jpg	100
444.917	1.318	1317.9	2back	Block1	2back/STIM_037.jpg	100
448.853	0.779	778.6	2back	Block1	2back/STIM_037.jpg	100
452.504	1.162	1161.7	2back	Block1	2back/STIM_037.jpg	100
456.702	0.906	906.0	2back	Block1	2back/STIM_038.jpg	99
460.009	1.147	1146.6	2back	Block1	2back/STIM_038.jpg	99
463.961	0.711	711.3	2back	Block1	2back/STIM_038.jpg	100
468.286	1.398	1398.1	2back	Block1	2back/STIM_039.jpg	100
472.136	0.574	573.7	2back	Block1	2back/STIM_039.jpg	99
475.433	1.229	1229.4	2back	Block1	2back/STIM_039.jpg	100
479.285	0.536	536.4	0back	Block1	0back/STIM_000.jpg	99
482.7	0.644	644.0	0back	Block1	0back/STIM_000.jpg	99
485.81	0.553	553.1	0back	Block1	0back/STIM_000.jpg	100
490.012	0.768	767.9	0back	Block1	0back/STIM_001.jpg	100
493.918	0.514	514.0	0back	Block1	0back/STIM_001.jpg	99
497.938	0.455	454.8	0back	Block1	0back/STIM_001.jpg	99
501.262	0.903	902.7	0back	Block1	0back/STIM_002.jpg	99
504.362	0.792	792.5	0back	Block1	0back/STIM_002.jpg	99
508.414	0.786	786.0	0back	Block1	0back/STIM_002.jpg	99
512.676	0.745	744.6	0back	Block1	0back/STIM_003.jpg	99
516.652	0.799	799.4	0back	Block1	0back/STIM_003.jpg	100
519.981	0.641	640.7	0back	Block1	0back/STIM_003.jpg	99
522.591	0.751	751.1	0back	Block1	0back/STIM_004.jpg	100
525.633	0.677	676.6	0back	Block1	0back/STIM_004.jpg	100
529.965	0.653	653.0	0back	Block1	0back/STIM_004.jpg	99
533.149	0.724	723.9	0back	Block1	0back/STIM_005.jpg	100
536.703	0.684	683.5	0back	Block1	0back/STIM_005.jpg	100
540.444	0.748	747.6	0back	Block1	0back/STIM_005.jpg	100
544.238	0.629	629.3	0back	Block1	0back/STIM_006.jpg	100
547.295	0.689	688.6	0back	Block1	0back/STIM_006.jpg	99
551.513	0.746	746.2	0back	Block1	0back/STIM_006.jpg	99
555.526	0.8	799.5	0back	Block1	0back/STIM_007.jpg	100
558.784	0.684	683.6	0back	Block1	0back/STIM_007.jpg	99
562.389	0.53	529.9	0back	Block1	0back/STIM_007.jpg	100
566.781	0.719	718.9	0back	Block1	0back/STIM_008.jpg	99
569.595	0.317	316.7	0back	Block1	0back/STIM_008.jpg	100
572.377	0.705	705.2	0back	Block1	0back/STIM_008.jpg	100
575.618	0.559	559.0	0back	Block1	0back/STIM_009.jpg	99
579.124	0.505	505.2	0back	Block1	0back/STIM_009.jpg	99
583.442	0.6	600.2	0back	Block1	0back/STIM_009.jpg	99
587.702	0.655	655.4	0back	Block1	0back/STIM_010.jpg	100
591.038	0.694	694.2	0back	Block1	0back/STIM_010.jpg	99
594.136	0.594	594.1	0back	Block1	0back/STIM_010.jpg	99
597.679	0.628	628.0	0back	Block1	0back/STIM_011.jpg	100
601.276	0.664	663.5	0back	Block1	0back/STIM_011.jpg	99
604.758	0.495	495.1	0back	Block1	0back/STIM_011.jpg	99
608.046	0.651	651.1	0back	Block1	0back/STIM_012.jpg	100
612.3	0.506	506.4	0back	Block1	0back/STIM_012.jpg	100
615.512	0.752	752.2	0back	Block1	0back/STIM_012.jpg	99
619.161	0.629	629.3	0back	Block1	0back/STIM_013.jpg	100
623.292	0.528	528.4	0back	Block1	0back/STIM_013.jpg	100
626.396	0.892	892.5	0back	Block1	0back/STIM_013.jpg	100
630.559	0.584	583.9	0back	Block1	0back/STIM_014.jpg	99
634.888	0.479	478.9	0back	Block1	0back/STIM_014.jpg	100
638.821	0.786	785.8	0back	Block1	0back/STIM_014.jpg	100
642.937	0.461	460.9	0back	Block1	0back/STIM_015.jpg	100
646.337	0.526	525.7	0back	Block1	0back/STIM_015.jpg	99
649.653	0.675	675.4	0back	Block1	0back/STIM_015.jpg	100
653.295	0.791	790.8	0back	Block1	0back/STIM_016.jpg	100
657.336	0.59	590.2	0back	Block1	0back/STIM_016.jpg	100
661.349	0.862	862.1	0back	Block1	0back/STIM_016.jpg	100
665.927	0.912	911.8	0back	Block1	0back/STIM_017.jpg	100
670.175	0.63	629.5	0back	Block1	0back/STIM_017.jpg	100
674.479	0.384	384.4	0back	Block1	0back/STIM_017.jpg	99
677.023	0.851	851.3	0back	Block1	0back/STIM_018.jpg	99
680.509	0.646	645.8	0back	Block1	0back/STIM_018.jpg	100
684.398	0.499	498.6	0back	Block1	0back/STIM_018.jpg	99
687.461	0.623	622.9	0back	Block1	0back/STIM_019.jpg	99
691.163	0.634	633.9	0back	Block1	0back/STIM_019.jpg	100
694.302	0.464	464.1	0back	Block1	0back/STIM_019.jpg	100
698.635	0.848	847.9	2back	Block2	2back/STIM_000.jpg	99
701.42	0.527	526.8	2back	Block2	2back/STIM_000.jpg	100
704.616	0.948	948.2	2back	Block2	2back/STIM_000.jpg	99
709.107	0.563	562.9	2back	Block2	2back/STIM_001.jpg	99
712.803	0.632	632.3	2back	Block2	2back/STIM_001.jpg	100
716.632	0.599	599.0	2back	Block2	2back/STIM_001.jpg	100
721.131	0.647	647.3	2back	Block2	2back/STIM_002.jpg	100
724.058	0.503	503.1	2back	Block2	2back/STIM_002.jpg	99
727.647	0.485	484.9	2back	Block2	2back/STIM_002.jpg	99
731.913	1.222	1222.1	2back	Block2	2back/STIM_003.jpg	100
736.087	1.006	1006.3	2back	Block2	2back/STIM_003.jpg	100
741.043	0.823	822.7	2back	Block2	2back/STIM_003.jpg	100
743.999	1.122	1121.9	2back	Block2	2back/STIM_004.jpg	100
747.805	0.877	876.7	2back	Block2	2back/STIM_004.jpg	100
751.284	0.676	676.5	2back	Block2	2back/STIM_004.jpg	100
755.618	0.66	659.8	2back	Block2	2back/STIM_005.jpg	99
759.934	0.933	933.0	2back	Block2	2back/STIM_005.jpg	99
762.837	0.642	642.5	2back	Block2	2back/STIM_005.jpg	99
766.708	0.617	617.0	2back	Block2	2back/STIM_006.jpg	100
771.223	0.839	838.8	2back	Block2	2back/STIM_006.jpg	99
775.095	0.96	959.6	2back	Block2	2back/STIM_006.jpg	100
779.816	0.781	781.4	2back	Block2	2back/STIM_007.jpg	100
784.272	0.707	707.4	2back	Block2	2back/STIM_007.jpg	99
788.328	0.572	572.3	2back	Block2	2back/STIM_007.jpg	99
791.594	1.004	1004.1	2back	Block2	2back/STIM_008.jpg	100
796.119	0.932	931.6	2back	Block2	2back/STIM_008.jpg	99
799.913	0.478	477.8	2back	Block2	2back/STIM_008.jpg	99
802.425	0.711	710.7	2back	Block2	2back/STIM_009.jpg	100
805.955	0.736	735.8	2back	Block2	2back/STIM_009.jpg	100
809.376	0.923	922.8	2back	Block2	2back/STIM_009.jpg	99
813.888	0.529	528.9	2back	Block2	2back/STIM_010.jpg	99
817.625	0.65	649.7	2back	Block2	2back/STIM_010.jpg	100
822.102	0.904	903.7	2back	Block2	2back/STIM_010.jpg	99
825.123	1.107	1107.2	2back	Block2	2back/STIM_011.jpg	100
828.474	1.01	1009.5	2back	Block2	2back/STIM_011.jpg	99
832.08	0.508	508.3	2back	Block2	2back/STIM_011.jpg	100
835.694	0.807	806.6	2back	Block2	2back/STIM_012.jpg	100
839.4	1.127	1126.6	2back	Block2	2back/STIM_012.jpg	100
844.217	0.611	611.4	2back	Block2	2back/STIM_012.jpg	100
848.592	0.774	774.5	2back	Block2	2back/STIM_013.jpg	99
852.024	0.582	581.7	2back	Block2	2back/STIM_013.jpg	99
855.246	0.617	616.6	2back	Block2	2back/STIM_013.jpg	100
859.0	0.503	502.7	2back	Block2	2back/STIM_014.jpg	99
863.533	0.772	771.5	2back	Block2	2back/STIM_014.jpg	99
866.579	1.022	1021.8	2back	Block2	2back/STIM_014.jpg	99
870.716	0.543	543.1	2back	Block2	2back/STIM_015.jpg	100
874.888	0.669	669.4	2back	Block2	2back/STIM_015.jpg	100
878.341	0.752	752.1	2back	Block2	2back/STIM_015.jpg	99
882.053	1.098	1097.6	2back	Block2	2back/STIM_016.jpg	99
886.541	1.164	1164.2	2back	Block2	2back/STIM_016.jpg	100
891.601	1.028	1028.3	2back	Block2	2back/STIM_016.jpg	100
894.668	0.578	578.2	2back	Block2	2back/STIM_017.jpg	100
898.289	0.597	597.1	2back	Block2	2back/STIM_017.jpg	99
901.836	0.981	981.0	2back	Block2	2back/STIM_017.jpg	99
906.294	0.577	577.4	2back	Block2	2back/STIM_018.jpg	100
910.289	1.188	1187.7	2back	Block2	2back/STIM_018.jpg	100
914.903	0.608	608.1	2back	Block2	2back/STIM_018.jpg	100
917.821	0.782	782.0	2back	Block2	2back/STIM_019.jpg	99
922.474	0.853	853.0	2back	Block2	2back/STIM_019.jpg	100
927.102	0.495	495.0	2back	Block2	2back/STIM_019.jpg	100
930.832	0.61	610.4	2back	Block2	2back/STIM_020.jpg	100
933.739	0.726	726.4	2back	Block2	2back/STIM_020.jpg	99
937.9	0.932	932.3	2back	Block2	2back/STIM_020.jpg	99
942.049	0.529	529.0	2back	Block2	2back/STIM_021.jpg	100
944.74	0.762	761.6	2back	Block2	2back/STIM_021.jpg	99
949.218	0.87	869.7	2back	Block2	2back/STIM_021.jpg	100
952.244	0.54	539.7	2back	Block2	2back/STIM_022.jpg	100
955.763	1.104	1103.9	2back	Block2	2back/STIM_022.jpg	99
960.184	0.621	621.3	2back	Block2	2back/STIM_022.jpg	99
963.947	1.072	1072.4	2back	Block2	2back/STIM_023.jpg	99
967.105	0.535	535.1	2back	Block2	2back/STIM_023.jpg	99
970.388	0.565	564.7	2back	Block2	2back/STIM_023.jpg	100
974.029	0.802	802.5	2back	Block2	2back/STIM_024.jpg	100
977.956	0.5	500.0	2back	Block2	2back/STIM_024.jpg	100
981.599	0.603	603.4	2back	Block2	2back/STIM_024.jpg	99
984.947	0.685	685.1	2back	Block2	2back/STIM_025.jpg	99
988.997	0.856	856.2	2back	Block2	2back/STIM_025.jpg	100
992.852	1.042	1041.8	2back	Block2	2back/STIM_025.jpg	99
996.524	1.081	1080.9	2back	Block2	2back/STIM_026.jpg	100
1000.814	0.964	964.3	2back	Block2	2back/STIM_026.jpg	100
1004.214	1.186	1185.5	2back	Block2	2back/STIM_026.jpg	99
1008.667	1.109	1108.9	2back	Block2	2back/STIM_027.jpg	100
1011.99	1.196	1195.6	2back	Block2	2back/STIM_027.jpg	99
1016.326	0.68	680.2	2back	Block2	2back/STIM_027.jpg	100
1019.283	0.753	752.9	2back	Block2	2back/STIM_028.jpg	99
1022.06	0.695	695.2	2back	Block2	2back/STIM_028.jpg	100
1025.327	0.598	598.4	2back	Block2	2back/STIM_028.jpg	100
1029.195	0.583	582.7	2back	Block2	2back/STIM_029.jpg	100
1031.922	0.919	919.3	2back	Block2	2back/STIM_029.jpg	99
1036.723	1.063	1062.7	2back	Block2	2back/STIM_029.jpg	99
1041.016	0.848	847.8	2back	Block2	2back/STIM_030.jpg	100
1045.032	1.099	1098.6	2back	Block2	2back/STIM_030.jpg	100
1048.822	0.705	705.1	2back	Block2	2back/STIM_030.jpg	100
1051.848	1.062	1061.9	2back	Block2	2back/STIM_031.jpg	99
1055.815	0.856	855.9	2back	Block2	2back/STIM_031.jpg	99
1060.265	0.74	740.4	2back	Block2	2back/STIM_031.jpg	99
1064.917	0.579	579.4	2back	Block2	2back/STIM_032.jpg	99
1068.477	0.895	895.3	2back	Block2	2back/STIM_032.jpg	100
1072.632	0.912	912.2	2back	Block2	2back/STIM_032.jpg	99
1076.286	0.94	940.4	2back	Block2	2back/STIM_033.jpg	100
1080.369	0.593	593.3	2back	Block2	2back/STIM_033.jpg	99
1083.911	0.943	942.6	2back	Block2	2back/STIM_033.jpg	99
1086.96	0.668	667.9	2back	Block2	2back/STIM_034.jpg	100
1090.173	0.871	871.3	2back	Block2	2back/STIM_034.jpg	100
1094.432	0.796	795.8	2back	Block2	2back/STIM_034.jpg	99
1098.425	0.641	640.7	2back	Block2	2back/STIM_035.jpg	100
1101.856	0.918	917.5	2back	Block2	2back/STIM_035.jpg	100
1106.415	0.748	748.1	2back	Block2	2back/STIM_035.jpg	99
1110.889	1.092	1091.5	2back	Block2	2back/STIM_036.jpg	100
1115.931	0.959	959.3	2back	Block2	2back/STIM_036.jpg	99
1119.407	1.034	1034.1	2back	Block2	2back/STIM_036.jpg	100
1123.806	1.073	1073.2	2back	Block2	2back/STIM_037.jpg	99
1127.796	0.701	701.3	2back	Block2	2back/STIM_037.jpg	100
1132.094	0.57	569.8	2back	Block2	2back/STIM_037.jpg	99
1136.454	0.74	739.7	2back	Block2	2back/STIM_038.jpg	99
1139.863	0.695	695.3	2back	Block2	2back/STIM_038.jpg	99
1143.016	0.546	546.5	2back	Block2	2back/STIM_038.jpg	99
1146.23	0.907	906.9	2back	Block2	2back/STIM_039.jpg	99
1149.868	0.451	451.1	2back	Block2	2back/STIM_039.jpg	100
1153.911	0.924	924.1	2back	Block2	2back/STIM_039.jpg	99
1158.664	0.784	784.3	0back	Block2	0back/STIM_000.jpg	100
1163.267	0.729	729.0	0back	Block2	0back/STIM_000.jpg	100
1166.117	0.82	820.3	0back	Block2	0back/STIM_000.jpg	100
1169.577	0.629	629.0	0back	Block2	0back/STIM_001.jpg	100
1172.353	0.464	463.7	0back	Block2	0back/STIM_001.jpg	99
1175.729	0.771	771.3	0back	Block2	0back/STIM_001.jpg	100
1178.772	0.486	486.5	0back	Block2	0back/STIM_002.jpg	100
1182.742	0.549	549.1	0back	Block2	0back/STIM_002.jpg	99
1185.918	0.566	565.6	0back	Block2	0back/STIM_002.jpg	99
1189.975	0.652	651.6	0back	Block2	0back/STIM_003.jpg	99
1193.762	0.608	608.0	0back	Block2	0back/STIM_003.jpg	99
1197.741	0.665	665.0	0back	Block2	0back/STIM_003.jpg	99
1201.756	0.431	431.0	0back	Block2	0back/STIM_004.jpg	99
1204.99	0.53	529.8	0back	Block2	0back/STIM_004.jpg	100
1207.61	0.461	460.9	0back	Block2	0back/STIM_004.jpg	100
1211.999	0.76	760.0	0back	Block2	0back/STIM_005.jpg	99
1214.989	0.491	490.8	0back	Block2	0back/STIM_005.jpg	100
1218.953	0.862	862.2	0back	Block2	0back/STIM_005.jpg	100
1222.03	0.434	434.0	0back	Block2	0back/STIM_006.jpg	100
1224.924	0.515	514.6	0back	Block2	0back/STIM_006.jpg	100
1228.236	0.504	504.0	0back	Block2	0back/STIM_006.jpg	100
1232.658	0.646	646.3	0back	Block2	0back/STIM_007.jpg	99
1236.489	0.817	816.8	0back	Block2	0back/STIM_007.jpg	99
1240.696	0.594	593.9	0back	Block2	0back/STIM_007.jpg	99
1243.862	0.621	620.6	0back	Block2	0back/STIM_008.jpg	99
1246.718	0.897	897.2	0back	Block2	0back/STIM_008.jpg	100
1251.179	0.556	555.5	0back	Block2	0back/STIM_008.jpg	100
1255.776	0.638	637.7	0back	Block2	0back/STIM_009.jpg	100
1260.059	0.815	815.4	0back	Block2	0back/STIM_009.jpg	100
1264.269	0.562	562.5	0back	Block2	0back/STIM_009.jpg	99
1268.018	0.785	784.6	0back	Block2	0back/STIM_010.jpg	100
1271.579	0.464	464.5	0back	Block2	0back/STIM_010.jpg	100
1274.017	0.42	420.5	0back	Block2	0back/STIM_010.jpg	100
1277.155	0.635	635.3	0back	Block2	0back/STIM_011.jpg	99
1279.88	0.763	763.4	0back	Block2	0back/STIM_011.jpg	100
1282.842	0.697	697.1	0back	Block2	0back/STIM_011.jpg	99
1287.15	0.741	740.8	0back	Block2	0back/STIM_012.jpg	100
1291.459	0.804	803.8	0back	Block2	0back/STIM_012.jpg	100
1294.242	0.819	819.0	0back	Block2	0back/STIM_012.jpg	99
1298.979	0.82	820.5	0back	Block2	0back/STIM_013.jpg	100
1302.863	0.521	521.0	0back	Block2	0back/STIM_013.jpg	99
1307.096	0.79	790.1	0back	Block2	0back/STIM_013.jpg	99
1309.954	0.696	695.6	0back	Block2	0back/STIM_014.jpg	99
1313.231	0.691	691.2	0back	Block2	0back/STIM_014.jpg	100
1317.404	0.555	555.1	0back	Block2	0back/STIM_014.jpg	100
1321.43	0.652	652.1	0back	Block2	0back/STIM_015.jpg	99
1325.97	0.463	463.1	0back	Block2	0back/STIM_015.jpg	99
1330.322	0.567	567.4	0back	Block2	0back/STIM_015.jpg	99
1333.682	0.595	594.6	0back	Block2	0back/STIM_016.jpg	100
1337.224	0.528	528.1	0back	Block2	0back/STIM_016.jpg	99
1340.327	0.861	860.7	0back	Block2	0back/STIM_016.jpg	99
1343.744	0.603	603.4	0back	Block2	0back/STIM_017.jpg	100
1346.834	0.709	709.3	0back	Block2	0back/STIM_017.jpg	100
1350.318	0.803	803.0	0back	Block2	0back/STIM_017.jpg	100
1354.38	0.689	688.7	0back	Block2	0back/STIM_018.jpg	99
1357.314	0.498	497.9	0back	Block2	0back/STIM_018.jpg	99
1360.753	0.588	587.9	0back	Block2	0back/STIM_018.jpg	99
1363.851	0.544	544.1	0back	Block2	0back/STIM_019.jpg	99
1366.999	0.666	666.4	0back	Block2	0back/STIM_019.jpg	99
1369.837	0.75	750.2	0back	Block2	0back/STIM_019.jpg	99
1372.695	0.406	406.5	2back	Block3	2back/STIM_000.jpg	100
1376.149	0.969	969.1	2back	Block3	2back/STIM_000.jpg	99
1379.267	0.592	591.5	2back	Block3	2back/STIM_000.jpg	100
1382.651	1.056	1055.9	2back	Block3	2back/STIM_001.jpg	100
1386.63	0.523	522.9	2back	Block3	2back/STIM_001.jpg	99
1390.788	0.476	476.5	2back	Block3	2back/STIM_001.jpg	99
1393.897	0.657	657.4	2back	Block3	2back/STIM_002.jpg	99
1397.031	0.945	944.7	2back	Block3	2back/STIM_002.jpg	100
1400.726	0.678	677.5	2back	Block3	2back/STIM_002.jpg	100
1405.107	0.717	717.1	2back	Block3	2back/STIM_003.jpg	100
1407.77	0.724	723.7	2back	Block3	2back/STIM_003.jpg	100
1412.254	0.55	550.1	2back	Block3	2back/STIM_003.jpg	100
1415.048	0.908	907.8	2back	Block3	2back/STIM_004.jpg	99
1419.063	0.581	581.1	2back	Block3	2back/STIM_004.jpg	100
1423.058	0.925	924.6	2back	Block3	2back/STIM_004.jpg	100
1427.089	0.76	760.1	2back	Block3	2back/STIM_005.jpg	100
1430.217	0.731	730.9	2back	Block3	2back/STIM_005.jpg	100
1433.442	1.045	1045.4	2back	Block3	2back/STIM_005.jpg	99
1437.271	0.878	878.3	2back	Block3	2back/STIM_006.jpg	99
1440.674	0.744	743.8	2back	Block3	2back/STIM_006.jpg	99
1445.298	0.433	432.8	2back	Block3	2back/STIM_006.jpg	100
1449.289	0.602	601.6	2back	Block3	2back/STIM_007.jpg	99
1452.952	1.044	1043.9	2back	Block3	2back/STIM_007.jpg	99
1456.008	1.007	1006.8	2back	Block3	2back/STIM_007.jpg	100
1460.406	0.641	641.4	2back	Block3	2back/STIM_008.jpg	99
1463.678	0.829	828.9	2back	Block3	2back/STIM_008.jpg	99
1467.359	0.91	910.0	2back	Block3	2back/STIM_008.jpg	100
1472.065	0.679	678.8	2back	Block3	2back/STIM_009.jpg	100
1475.216	0.572	571.9	2back	Block3	2back/STIM_009.jpg	99
1478.571	0.563	563.4	2back	Block3	2back/STIM_009.jpg	99
1481.811	0.503	503.1	2back	Block3	2back/STIM_010.jpg	99
1485.719	0.461	460.9	2back	Block3	2back/STIM_010.jpg	99
1488.276	0.925	925.0	2back	Block3	2back/STIM_010.jpg	100
1491.466	0.879	878.8	2back	Block3	2back/STIM_011.jpg	99
1495.387	0.457	456.6	2back	Block3	2back/STIM_011.jpg	100
1499.547	0.529	528.8	2back	Block3	2back/STIM_011.jpg	100
1502.512	0.887	887.4	2back	Block3	2back/STIM_012.jpg	100
1505.443	0.99	990.2	2back	Block3	2back/STIM_012.jpg	100
1509.231	0.758	757.5	2back	Block3	2back/STIM_012.jpg	100
1512.434	1.029	1028.8	2back	Block3	2back/STIM_013.jpg	99
1515.552	0.558	558.0	2back	Block3	2back/STIM_013.jpg	99
1518.064	0.7	699.5	2back	Block3	2back/STIM_013.jpg	100
1520.903	0.624	623.9	2back	Block3	2back/STIM_014.jpg	100
1523.753	0.958	958.4	2back	Block3	2back/STIM_014.jpg	100
1527.985	0.731	731.2	2back	Block3	2back/STIM_014.jpg	99
1532.0	0.431	431.0	2back	Block3	2back/STIM_015.jpg	99
1534.944	0.765	764.8	2back	Block3	2back/STIM_015.jpg	99
1538.915	0.875	874.7	2back	Block3	2back/STIM_015.jpg	99
1542.037	0.548	547.8	2back	Block3	2back/STIM_016.jpg	99
1546.514	0.426	426.4	2back	Block3	2back/STIM_016.jpg	100
1549.441	0.445	444.6	2back	Block3	2back/STIM_016.jpg	100
1553.539	0.454	454.0	2back	Block3	2back/STIM_017.jpg	100
1556.191	0.88	880.1	2back	Block3	2back/STIM_017.jpg	99
1559.673	0.608	607.9	2back	Block3	2back/STIM_017.jpg	100
1564.135	0.636	635.7	2back	Block3	2back/STIM_018.jpg	100
1567.003	0.724	723.9	2back	Block3	2back/STIM_018.jpg	100
1570.007	0.601	600.8	2back	Block3	2back/STIM_018.jpg	100
1572.658	0.972	971.6	2back	Block3	2back/STIM_019.jpg	99
1575.867	0.449	448.6	2back	Block3	2back/STIM_019.jpg	100
1578.982	0.94	939.9	2back	Block3	2back/STIM_019.jpg	100
1582.044	0.572	572.2	2back	Block3	2back/STIM_020.jpg	99
1585.437	0.635	634.6	2back	Block3	2back/STIM_020.jpg	99
1589.904	0.571	570.6	2back	Block3	2back/STIM_020.jpg	99
1594.049	0.665	665.4	2back	Block3	2back/STIM_021.jpg	100
1598.369	0.516	516.2	2back	Block3	2back/STIM_021.jpg	99
1602.627	0.679	678.8	2back	Block3	2back/STIM_021.jpg	99
1605.699	0.958	958.0	2back	Block3	2back/STIM_022.jpg	100
1609.236	0.988	987.9	2back	Block3	2back/STIM_022.jpg	100
1613.357	0.859	859.2	2back	Block3	2back/STIM_022.jpg	100
1616.311	0.771	771.4	2back	Block3	2back/STIM_023.jpg	99
1620.635	0.493	493.2	2back	Block3	2back/STIM_023.jpg	99
1625.055	0.584	583.9	2back	Block3	2back/STIM_023.jpg	99
1628.397	0.42	419.9	2back	Block3	2back/STIM_024.jpg	99
1631.852	0.697	696.9	2back	Block3	2back/STIM_024.jpg	100
1635.425	0.724	723.9	2back	Block3	2back/STIM_024.jpg	100
1639.471	0.856	855.8	2back	Block3	2back/STIM_025.jpg	99
1642.897	1.011	1010.8	2back	Block3	2back/STIM_025.jpg	99
1645.999	0.69	690.5	2back	Block3	2back/STIM_025.jpg	99
1648.912	0.525	525.3	2back	Block3	2back/STIM_026.jpg	100
1651.767	0.763	762.8	2back	Block3	2back/STIM_026.jpg	100
1654.632	0.629	628.9	2back	Block3	2back/STIM_026.jpg	100
1657.826	0.574	574.1	2back	Block3	2back/STIM_027.jpg	100
1660.818	0.936	935.6	2back	Block3	2back/STIM_027.jpg	100
1664.676	0.9	899.6	2back	Block3	2back/STIM_027.jpg	99
1667.87	0.558	558.4	2back	Block3	2back/STIM_028.jpg	99
1671.869	0.426	426.1	2back	Block3	2back/STIM_028.jpg	100
1674.846	0.707	707.4	2back	Block3	2back/STIM_028.jpg	99
1677.484	0.492	491.7	2back	Block3	2back/STIM_029.jpg	99
1679.948	0.753	752.9	2back	Block3	2back/STIM_029.jpg	99
1684.575	0.551	551.2	2back	Block3	2back/STIM_029.jpg	99
1687.571	0.672	672.3	2back	Block3	2back/STIM_030.jpg	99
1690.924	0.408	407.7	2back	Block3	2back/STIM_030.jpg	100
1694.297	0.622	621.5	2back	Block3	2back/STIM_030.jpg	99
1698.582	0.961	961.4	2back	Block3	2back/STIM_031.jpg	100
1703.13	0.809	808.7	2back	Block3	2back/STIM_031.jpg	100
1707.671	0.922	922.2	2back	Block3	2back/STIM_031.jpg	100
1712.102	0.628	627.6	2back	Block3	2back/STIM_032.jpg	100
1716.206	1.027	1026.8	2back	Block3	2back/STIM_032.jpg	100
1719.496	0.774	774.5	2back	Block3	2back/STIM_032.jpg	99
1723.637	0.569	569.3	2back	Block3	2back/STIM_033.jpg	99
1726.377	0.939	938.6	2back	Block3	2back/STIM_033.jpg	99
1729.338	0.966	966.1	2back	Block3	2back/STIM_033.jpg	99
1732.536	0.983	983.3	2back	Block3	2back/STIM_034.jpg	99
1736.386	0.445	445.0	2back	Block3	2back/STIM_034.jpg	100
1740.246	0.413	412.7	2back	Block3	2back/STIM_034.jpg	100
1744.38	0.733	733.3	2back	Block3	2back/STIM_035.jpg	100
1748.784	0.599	599.3	2back	Block3	2back/STIM_035.jpg	99
1751.819	0.542	542.5	2back	Block3	2back/STIM_035.jpg	100
1755.947	0.722	721.7	2back	Block3	2back/STIM_036.jpg	100
1759.569	0.536	536.1	2back	Block3	2back/STIM_036.jpg	99
1763.199	0.764	764.2	2back	Block3	2back/STIM_036.jpg	100
1766.376	0.942	941.9	2back	Block3	2back/STIM_037.jpg	99
1770.836	0.79	789.9	2back	Block3	2back/STIM_037.jpg	99
1774.399	0.698	697.5	2back	Block3	2back/STIM_037.jpg	100
1779.01	0.794	793.7	2back	Block3	2back/STIM_038.jpg	100
1783.748	0.847	846.7	2back	Block3	2back/STIM_038.jpg	100
1786.727	0.622	622.4	2back	Block3	2back/STIM_038.jpg	99
1790.025	0.963	963.1	2back	Block3	2back/STIM_039.jpg	99
1793.395	0.517	517.0	2back	Block3	2back/STIM_039.jpg	99
1796.73	0.981	981.3	2back	Block3	2back/STIM_039.jpg	99
1800.577	0.482	481.7	0back	Block3	0back/STIM_000.jpg	99
1804.562	0.884	883.7	0back	Block3	0back/STIM_000.jpg	99
1807.996	0.589	588.9	0back	Block3	0back/STIM_000.jpg	99
1811.219	0.554	554.2	0back	Block3	0back/STIM_001.jpg	100
1814.424	0.621	620.8	0back	Block3	0back/STIM_001.jpg	99
1817.522	0.465	465.3	0back	Block3	0back/STIM_001.jpg	100
1821.959	0.656	656.5	0back	Block3	0back/STIM_002.jpg	100
1825.344	0.509	509.1	0back	Block3	0back/STIM_002.jpg	99
1829.429	0.752	752.3	0back	Block3	0back/STIM_002.jpg	100
1833.681	0.432	431.6	0back	Block3	0back/STIM_003.jpg	100
1837.717	0.539	538.9	0back	Block3	0back/STIM_003.jpg	100
1841.447	0.636	636.0	0back	Block3	0back/STIM_003.jpg	100
1844.625	0.729	729.1	0back	Block3	0back/STIM_004.jpg	99
1848.205	0.404	404.5	0back	Block3	0back/STIM_004.jpg	99
1850.864	0.447	446.9	0back	Block3	0back/STIM_004.jpg	100
1854.135	0.778	777.9	0back	Block3	0back/STIM_005.jpg	100
1857.483	0.58	579.5	0back	Block3	0back/STIM_005.jpg	100
1860.614	0.496	496.5	0back	Block3	0back/STIM_005.jpg	99
1864.641	0.488	488.5	0back	Block3	0back/STIM_006.jpg	99
1867.92	0.676	676.5	0back	Block3	0back/STIM_006.jpg	99
1872.523	0.807	807.3	0back	Block3	0back/STIM_006.jpg	99
1875.517	0.58	580.4	0back	Block3	0back/STIM_007.jpg	99
1879.743	0.548	548.4	0back	Block3	0back/STIM_007.jpg	100
1883.831	0.616	616.2	0back	Block3	0back/STIM_007.jpg	99
1886.475	0.661	660.9	0back	Block3	0back/STIM_008.jpg	100
1890.562	0.759	758.6	0back	Block3	0back/STIM_008.jpg	100
1894.61	0.808	807.6	0back	Block3	0back/STIM_008.jpg	99
1897.377	0.434	434.1	0back	Block3	0back/STIM_009.jpg	100
1900.296	0.564	564.5	0back	Block3	0back/STIM_009.jpg	100
1902.923	0.732	731.5	0back	Block3	0back/STIM_009.jpg	100
1907.505	0.762	761.6	0back	Block3	0back/STIM_010.jpg	99
1911.35	0.408	408.3	0back	Block3	0back/STIM_010.jpg	99
1915.754	0.6	599.6	0back	Block3	0back/STIM_010.jpg	100
1919.759	0.538	537.8	0back	Block3	0back/STIM_011.jpg	99
1923.933	0.438	438.5	0back	Block3	0back/STIM_011.jpg	99
1926.852	0.637	636.7	0back	Block3	0back/STIM_011.jpg	100
1930.517	0.53	530.2	0back	Block3	0back/STIM_012.jpg	99
1934.035	0.69	690.4	0back	Block3	0back/STIM_012.jpg	99
1938.467	0.525	525.4	0back	Block3	0back/STIM_012.jpg	99
1941.249	0.599	599.0	0back	Block3	0back/STIM_013.jpg	100
1944.692	0.553	553.1	0back	Block3	0back/STIM_013.jpg	99
1947.652	0.529	528.6	0back	Block3	0back/STIM_013.jpg	99
1951.973	0.641	640.9	0back	Block3	0back/STIM_014.jpg	100
1954.989	0.702	701.7	0back	Block3	0back/STIM_014.jpg	100
1959.015	0.56	559.7	0back	Block3	0back/STIM_014.jpg	99
1962.223	0.548	547.7	0back	Block3	0back/STIM_015.jpg	100
1966.555	0.677	676.7	0back	Block3	0back/STIM_015.jpg	100
1971.011	0.646	645.9	0back	Block3	0back/STIM_015.jpg	100
1973.665	0.454	454.1	0back	Block3	0back/STIM_016.jpg	100
1977.415	0.594	594.0	0back	Block3	0back/STIM_016.jpg	100
1980.426	0.637	637.4	0back	Block3	0back/STIM_016.jpg	99
1984.557	0.588	588.3	0back	Block3	0back/STIM_017.jpg	100
1988.056	0.529	529.1	0back	Block3	0back/STIM_017.jpg	99
1992.473	0.51	510.3	0back	Block3	0back/STIM_017.jpg	99
1996.613	0.547	547.3	0back	Block3	0back/STIM_018.jpg	100
2000.685	0.797	796.8	0back	Block3	0back/STIM_018.jpg	100
2004.47	0.49	489.5	0back	Block3	0back/STIM_018.jpg	99
2008.728	0.462	461.5	0back	Block3	0back/STIM_019.jpg	100
2013.136	0.619	618.8	0back	Block3	0back/STIM_019.jpg	99
2017.119	0.676	675.7	0back	Block3	0back/STIM_019.jpg	100
2020.85	1.088	1087.7	2back	Block4	2back/STIM_000.jpg	100
2024.384	0.918	918.5	2back	Block4	2back/STIM_000.jpg	99
2027.4	0.64	639.6	2back	Block4	2back/STIM_000.jpg	100
2031.086	0.707	706.7	2back	Block4	2back/STIM_001.jpg	100
2034.405	0.79	789.6	2back	Block4	2back/STIM_001.jpg	100
2038.745	0.861	860.8	2back	Block4	2back/STIM_001.jpg	100
2042.786	0.752	752.1	2back	Block4	2back/STIM_002.jpg	100
2046.53	0.85	849.5	2back	Block4	2back/STIM_002.jpg	99
2051.121	0.96	960.3	2back	Block4	2back/STIM_002.jpg	99
2054.06	0.456	456.0	2back	Block4	2back/STIM_003.jpg	99
2058.08	0.487	487.4	2back	Block4	2back/STIM_003.jpg	100
2061.271	0.616	616.2	2back	Block4	2back/STIM_003.jpg	100
2064.885	0.53	530.2	2back	Block4	2back/STIM_004.jpg	99
2068.289	0.499	499.0	2back	Block4	2back/STIM_004.jpg	100
2071.144	0.89	890.0	2back	Block4	2back/STIM_004.jpg	100
2074.44	0.526	526.4	2back	Block4	2back/STIM_005.jpg	99
2077.05	0.891	890.9	2back	Block4	2back/STIM_005.jpg	100
2080.114	0.545	544.8	2back	Block4	2back/STIM_005.jpg	100
2084.055	0.634	634.2	2back	Block4	2back/STIM_006.jpg	99
2088.541	1.006	1006.5	2back	Block4	2back/STIM_006.jpg	100
2091.873	0.572	572.3	2back	Block4	2back/STIM_006.jpg	100
2094.776	0.728	727.7	2back	Block4	2back/STIM_007.jpg	100
2098.828	0.781	781.4	2back	Block4	2back/STIM_007.jpg	99
2103.362	0.418	418.0	2back	Block4	2back/STIM_007.jpg	100
2106.914	0.904	904.5	2back	Block4	2back/STIM_008.jpg	100
2110.753	0.853	853.4	2back	Block4	2back/STIM_008.jpg	99
2114.363	0.676	675.6	2back	Block4	2back/STIM_008.jpg	100
2118.548	1.012	1012.3	2back	Block4	2back/STIM_009.jpg	100
2122.302	0.806	806.3	2back	Block4	2back/STIM_009.jpg	100
2125.832	0.895	895.4	2back	Block4	2back/STIM_009.jpg	100
2129.285	0.795	795.3	2back	Block4	2back/STIM_010.jpg	100
2133.939	1.028	1028.4	2back	Block4	2back/STIM_010.jpg	99
2137.624	0.846	846.4	2back	Block4	2back/STIM_010.jpg	100
2141.081	0.754	753.9	2back	Block4	2back/STIM_011.jpg	100
2144.682	0.841	841.0	2back	Block4	2back/STIM_011.jpg	99
2149.206	1.003	1003.4	2back	Block4	2back/STIM_011.jpg	100
2153.43	0.461	460.7	2back	Block4	2back/STIM_012.jpg	99
2157.844	0.552	552.2	2back	Block4	2back/STIM_012.jpg	99
2162.15	0.772	771.6	2back	Block4	2back/STIM_012.jpg	100
2165.286	0.817	816.8	2back	Block4	2back/STIM_013.jpg	99
2169.907	0.928	928.2	2back	Block4	2back/STIM_013.jpg	100
2173.226	0.957	957.4	2back	Block4	2back/STIM_013.jpg	100
2176.708	0.907	906.9	2back	Block4	2back/STIM_014.jpg	99
2180.583	0.729	729.1	2back	Block4	2back/STIM_014.jpg	99
2184.184	0.755	754.9	2back	Block4	2back/STIM_014.jpg	99
2188.156	1.047	1047.4	2back	Block4	2back/STIM_015.jpg	100
2191.302	0.714	714.4	2back	Block4	2back/STIM_015.jpg	99
2194.711	0.62	620.4	2back	Block4	2back/STIM_015.jpg	99
2197.784	0.431	431.0	2back	Block4	2back/STIM_016.jpg	100
2201.101	0.888	888.5	2back	Block4	2back/STIM_016.jpg	99
2204.91	0.822	822.1	2back	Block4	2back/STIM_016.jpg	100
2208.892	0.664	663.7	2back	Block4	2back/STIM_017.jpg	100
2212.388	0.761	761.0	2back	Block4	2back/STIM_017.jpg	100
2216.641	0.752	752.3	2back	Block4	2back/STIM_017.jpg	99
2219.41	0.9	899.6	2back	Block4	2back/STIM_018.jpg	99
2223.697	0.582	582.0	2back	Block4	2back/STIM_018.jpg	99
2227.001	0.616	616.2	2back	Block4	2back/STIM_018.jpg	100
2229.676	0.471	470.6	2back	Block4	2back/STIM_019.jpg	99
2233.005	0.809	808.8	2back	Block4	2back/STIM_019.jpg	100
2236.812	0.487	487.2	2back	Block4	2back/STIM_019.jpg	100
2240.509	0.626	625.8	2back	Block4	2back/STIM_020.jpg	100
2243.472	0.409	408.9	2back	Block4	2back/STIM_020.jpg	99
2246.174	0.774	774.4	2back	Block4	2back/STIM_020.jpg	99
2249.418	0.697	697.1	2back	Block4	2back/STIM_021.jpg	100
2252.35	0.683	683.2	2back	Block4	2back/STIM_021.jpg	100
2256.133	0.503	503.4	2back	Block4	2back/STIM_021.jpg	100
2260.44	0.836	835.6	2back	Block4	2back/STIM_022.jpg	100
2264.255	0.965	964.9	2back	Block4	2back/STIM_022.jpg	99
2268.431	0.649	649.4	2back	Block4	2back/STIM_022.jpg	100
2272.844	0.885	884.9	2back	Block4	2back/STIM_023.jpg	100
2275.71	0.62	619.5	2back	Block4	2back/STIM_023.jpg	100
2279.162	0.62	619.9	2back	Block4	2back/STIM_023.jpg	100
2282.99	0.685	685.4	2back	Block4	2back/STIM_024.jpg	99
2287.638	0.582	581.5	2back	Block4	2back/STIM_024.jpg	100
2291.01	0.638	638.1	2back	Block4	2back/STIM_024.jpg	100
2293.847	0.994	994.1	2back	Block4	2back/STIM_025.jpg	100
2297.792	0.914	914.5	2back	Block4	2back/STIM_025.jpg	99
2301.06	0.795	794.8	2back	Block4	2back/STIM_025.jpg	99
2304.429	0.545	545.1	2back	Block4	2back/STIM_026.jpg	100
2308.897	0.569	569.2	2back	Block4	2back/STIM_026.jpg	100
2311.962	0.658	657.9	2back	Block4	2back/STIM_026.jpg	99
2314.7	0.619	618.9	2back	Block4	2back/STIM_027.jpg	99
2317.665	0.593	593.4	2back	Block4	2back/STIM_027.jpg	100
2321.695	0.994	993.6	2back	Block4	2back/STIM_027.jpg	100
2324.755	0.836	835.8	2back	Block4	2back/STIM_028.jpg	99
2329.417	1.038	1037.6	2back	Block4	2back/STIM_028.jpg	99
2333.569	0.696	696.0	2back	Block4	2back/STIM_028.jpg	99
2338.143	0.666	666.1	2back	Block4	2back/STIM_029.jpg	100
2341.258	0.978	978.1	2back	Block4	2back/STIM_029.jpg	99
2344.827	0.937	936.7	2back	Block4	2back/STIM_029.jpg	100
2347.755	0.543	543.1	2back	Block4	2back/STIM_030.jpg	99
2350.81	0.453	452.9	2back	Block4	2back/STIM_030.jpg	99
2353.504	0.641	640.7	2back	Block4	2back/STIM_030.jpg	99
2356.965	0.761	761.3	2back	Block4	2back/STIM_031.jpg	99
2359.797	0.56	560.2	2back	Block4	2back/STIM_031.jpg	99
2364.292	1.089	1089.4	2back	Block4	2back/STIM_031.jpg	99
2367.667	0.697	696.6	2back	Block4	2back/STIM_032.jpg	100
2371.455	0.641	640.9	2back	Block4	2back/STIM_032.jpg	100
2374.95	0.449	448.9	2back	Block4	2back/STIM_032.jpg	100
2377.792	0.941	940.7	2back	Block4	2back/STIM_033.jpg	100
2382.504	0.509	509.0	2back	Block4	2back/STIM_033.jpg	100
2385.2	0.847	846.7	2back	Block4	2back/STIM_033.jpg	100
2388.776	0.565	565.3	2back	Block4	2back/STIM_034.jpg	100
2391.916	0.524	524.0	2back	Block4	2back/STIM_034.jpg	100
2395.506	0.88	880.1	2back	Block4	2back/STIM_034.jpg	99
2400.287	0.616	615.9	2back	Block4	2back/STIM_035.jpg	99
2403.968	0.369	368.9	2back	Block4	2back/STIM_035.jpg	100
2407.318	0.639	639.0	2back	Block4	2back/STIM_035.jpg	99
2410.244	1.06	1059.6	2back	Block4	2back/STIM_036.jpg	100
2414.964	0.885	885.3	2back	Block4	2back/STIM_036.jpg	99
2418.816	0.672	671.6	2back	Block4	2back/STIM_036.jpg	100
2422.507	0.607	606.6	2back	Block4	2back/STIM_037.jpg	100
2426.516	0.556	555.9	2back	Block4	2back/STIM_037.jpg	100
2430.728	0.668	668.1	2back	Block4	2back/STIM_037.jpg	99
2434.126	0.844	844.1	2back	Block4	2back/STIM_038.jpg	99
2438.959	0.597	597.0	2back	Block4	2back/STIM_038.jpg	99
2443.21	0.731	731.1	2back	Block4	2back/STIM_038.jpg	99
2447.574	0.585	584.9	2back	Block4	2back/STIM_039.jpg	100
2451.377	0.625	625.4	2back	Block4	2back/STIM_039.jpg	100
2455.562	0.666	666.0	2back	Block4	2back/STIM_039.jpg	99
2458.794	0.697	697.1	0back	Block4	0back/STIM_000.jpg	100
2462.547	0.663	663.4	0back	Block4	0back/STIM_000.jpg	100
2466.848	0.672	671.7	0back	Block4	0back/STIM_000.jpg	99
2470.284	0.501	501.4	0back	Block4	0back/STIM_001.jpg	99
2473.292	0.808	808.2	0back	Block4	0back/STIM_001.jpg	100
2476.379	0.694	693.9	0back	Block4	0back/STIM_001.jpg	99
2480.868	0.517	516.9	0back	Block4	0back/STIM_002.jpg	100
2484.463	0.458	457.7	0back	Block4	0back/STIM_002.jpg	99
2486.979	0.618	617.7	0back	Block4	0back/STIM_002.jpg	99
2490.868	0.782	781.5	0back	Block4	0back/STIM_003.jpg	99
2494.808	0.828	828.3	0back	Block4	0back/STIM_003.jpg	99
2498.722	0.617	616.7	0back	Block4	0back/STIM_003.jpg	99
2503.17	0.773	772.6	0back	Block4	0back/STIM_004.jpg	100
2506.467	0.633	632.9	0back	Block4	0back/STIM_004.jpg	99
2509.113	0.798	798.1	0back	Block4	0back/STIM_004.jpg	99
2513.444	0.577	577.2	0back	Block4	0back/STIM_005.jpg	99
2516.527	0.473	473.2	0back	Block4	0back/STIM_005.jpg	100
2520.61	0.62	619.9	0back	Block4	0back/STIM_005.jpg	100
2524.741	0.739	739.1	0back	Block4	0back/STIM_006.jpg	99
2528.264	0.515	514.9	0back	Block4	0back/STIM_006.jpg	100
2531.912	0.523	523.3	0back	Block4	0back/STIM_006.jpg	100
2535.294	0.397	396.9	0back	Block4	0back/STIM_007.jpg	100
2538.794	0.47	469.9	0back	Block4	0back/STIM_007.jpg	100
2541.619	0.407	407.2	0back	Block4	0back/STIM_007.jpg	99
2544.066	0.412	411.7	0back	Block4	0back/STIM_008.jpg	100
2547.09	0.556	556.4	0back	Block4	0back/STIM_008.jpg	100
2551.222	0.771	770.6	0back	Block4	0back/STIM_008.jpg	100
2554.762	0.709	708.6	0back	Block4	0back/STIM_009.jpg	99
2559.25	0.68	680.0	0back	Block4	0back/STIM_009.jpg	99
2563.498	0.76	760.0	0back	Block4	0back/STIM_009.jpg	99
2567.53	0.788	788.0	0back	Block4	0back/STIM_010.jpg	100
2570.22	0.833	833.0	0back	Block4	0back/STIM_010.jpg	99
2574.032	0.739	739.4	0back	Block4	0back/STIM_010.jpg	100
2576.88	0.775	775.2	0back	Block4	0back/STIM_011.jpg	99
2580.808	0.62	619.7	0back	Block4	0back/STIM_011.jpg	99
2585.289	0.532	532.1	0back	Block4	0back/STIM_011.jpg	100
2588.328	0.71	710.2	0back	Block4	0back/STIM_012.jpg	99
2591.508	0.605	604.8	0back	Block4	0back/STIM_012.jpg	99
2595.395	0.786	786.2	0back	Block4	0back/STIM_012.jpg	100
2599.167	0.466	465.5	0back	Block4	0back/STIM_013.jpg	100
2603.351	0.539	538.7	0back	Block4	0back/STIM_013.jpg	99
2606.35	0.666	665.9	0back	Block4	0back/STIM_013.jpg	99
2609.422	0.578	578.4	0back	Block4	0back/STIM_014.jpg	100
2613.08	0.447	447.3	0back	Block4	0back/STIM_014.jpg	100
2616.683	0.766	765.6	0back	Block4	0back/STIM_014.jpg	99
2620.939	0.866	865.5	0back	Block4	0back/STIM_015.jpg	100
2624.612	0.561	560.6	0back	Block4	0back/STIM_015.jpg	99
2628.07	0.72	719.8	0back	Block4	0back/STIM_015.jpg	99
2632.336	0.675	675.1	0back	Block4	0back/STIM_016.jpg	99
2636.494	0.8	799.6	0back	Block4	0back/STIM_016.jpg	100
2640.673	0.819	818.6	0back	Block4	0back/STIM_016.jpg	99
2643.45	0.688	687.7	0back	Block4	0back/STIM_017.jpg	99
2646.417	0.653	653.0	0back	Block4	0back/STIM_017.jpg	100
2650.154	0.743	743.3	0back	Block4	0back/STIM_017.jpg	100
2653.025	0.779	779.2	0back	Block4	0back/STIM_018.jpg	100
2655.789	0.669	669.2	0back	Block4	0back/STIM_018.jpg	99
2659.497	0.598	598.2	0back	Block4	0back/STIM_018.jpg	99
2663.289	0.507	507.3	0back	Block4	0back/STIM_019.jpg	100
2666.141	0.62	619.7	0back	Block4	0back/STIM_019.jpg	99
2670.145	0.624	623.6	0back	Block4	0back/STIM_019.jpg	99
