onset	duration	accuracy_binary	trial_type	learning_stage	stimulus
0.0	1.149	1	2back	Block1	2back/STIM_000.jpg
5.117	0.96	1	2back	Block1	2back/STIM_000.jpg
9.072	0.938	1	2back	Block1	2back/STIM_000.jpg
12.669	1.068	1	2back	Block1	2back/STIM_001.jpg
17.012	1.089	1	2back	Block1	2back/STIM_001.jpg
20.841	0.939	1	2back	Block1	2back/STIM_001.jpg
24.203	0.94	1	2back	Block1	2back/STIM_002.jpg
27.791	0.617	1	2back	Block1	2back/STIM_002.jpg
31.766	0.816	1	2back	Block1	2back/STIM_002.jpg
34.923	0.813	1	2back	Block1	2back/STIM_003.jpg
39.205	0.611	1	2back	Block1	2back/STIM_003.jpg
42.592	0.615	1	2back	Block1	2back/STIM_003.jpg
45.487	1.298	1	2back	Block1	2back/STIM_004.jpg
49.383	1.034	1	2back	Block1	2back/STIM_004.jpg
53.744	0.855	0	2back	Block1	2back/STIM_004.jpg
57.803	0.721	1	2back	Block1	2back/STIM_005.jpg
62.251	1.118	1	2back	Block1	2back/STIM_005.jpg
66.616	0.75	1	2back	Block1	2back/STIM_005.jpg
71.248	1.064	1	2back	Block1	2back/STIM_006.jpg
76.197	0.753	1	2back	Block1	2back/STIM_006.jpg
80.266	1.022	1	2back	Block1	2back/STIM_006.jpg
83.475	0.746	1	2back	Block1	2back/STIM_007.jpg
87.846	0.744	1	2back	Block1	2back/STIM_007.jpg
91.196	1.135	0	2back	Block1	2back/STIM_007.jpg
94.915	0.86	1	2back	Block1	2back/STIM_008.jpg
99.745	0.745	1	2back	Block1	2back/STIM_008.jpg
102.513	0.955	1	2back	Block1	2back/STIM_008.jpg
107.31	1.068	1	2back	Block1	2back/STIM_009.jpg
111.796	1.16	1	2back	Block1	2back/STIM_009.jpg
115.18	0.587	1	2back	Block1	2back/STIM_009.jpg
118.899	1.148	1	2back	Block1	2back/STIM_010.jpg
123.272	0.666	1	2back	Block1	2back/STIM_010.jpg
126.364	0.912	1	2back	Block1	2back/STIM_010.jpg
129.693	1.004	1	2back	Block1	2back/STIM_011.jpg
132.877	0.585	1	2back	Block1	2back/STIM_011.jpg
137.115	1.129	0	2back	Block1	2back/STIM_011.jpg
140.986	0.893	1	2back	Block1	2back/STIM_012.jpg
145.573	0.941	1	2back	Block1	2back/STIM_012.jpg
149.396	0.808	1	2back	Block1	2back/STIM_012.jpg
152.863	1.252	1	2back	Block1	2back/STIM_013.jpg
156.505	0.608	1	2back	Block1	2back/STIM_013.jpg
160.254	0.742	0	2back	Block1	2back/STIM_013.jpg
164.883	0.659	0	2back	Block1	2back/STIM_014.jpg
168.279	0.605	1	2back	Block1	2back/STIM_014.jpg
172.525	0.556	1	2back	Block1	2back/STIM_014.jpg
176.206	1.305	1	2back	Block1	2back/STIM_015.jpg
179.579	0.916	1	2back	Block1	2back/STIM_015.jpg
184.296	1.057	1	2back	Block1	2back/STIM_015.jpg
188.36	0.771	1	2back	Block1	2back/STIM_016.jpg
192.059	1.164	1	2back	Block1	2back/STIM_016.jpg
196.228	0.825	1	2back	Block1	2back/STIM_016.jpg
199.846	0.591	1	2back	Block1	2back/STIM_017.jpg
203.357	1.042	1	2back	Block1	2back/STIM_017.jpg
206.995	0.977	1	2back	Block1	2back/STIM_017.jpg
210.497	1.173	1	2back	Block1	2back/STIM_018.jpg
214.271	0.645	1	2back	Block1	2back/STIM_018.jpg
217.391	0.672	1	2back	Block1	2back/STIM_018.jpg
221.336	0.615	1	2back	Block1	2back/STIM_019.jpg
225.337	0.916	1	2back	Block1	2back/STIM_019.jpg
228.458	0.514	0	2back	Block1	2back/STIM_019.jpg
232.435	0.572	1	2back	Block1	2back/STIM_020.jpg
235.885	1.099	1	2back	Block1	2back/STIM_020.jpg
240.179	0.873	1	2back	Block1	2back/STIM_020.jpg
243.461	1.21	1	2back	Block1	2back/STIM_021.jpg
246.977	0.708	1	2back	Block1	2back/STIM_021.jpg
249.791	0.785	1	2back	Block1	2back/STIM_021.jpg
253.629	0.811	1	2back	Block1	2back/STIM_022.jpg
258.299	1.162	1	2back	Block1	2back/STIM_022.jpg
262.427	0.674	1	2back	Block1	2back/STIM_022.jpg
265.463	0.894	1	2back	Block1	2back/STIM_023.jpg
269.891	0.616	1	2back	Block1	2back/STIM_023.jpg
273.45	0.894	1	2back	Block1	2back/STIM_023.jpg
277.868	0.935	1	2back	Block1	2back/STIM_024.jpg
281.761	0.751	0	2back	Block1	2back/STIM_024.jpg
284.754	0.961	1	2back	Block1	2back/STIM_024.jpg
288.101	0.998	1	2back	Block1	2back/STIM_025.jpg
291.344	1.199	1	2back	Block1	2back/STIM_025.jpg
295.717	0.732	1	2back	Block1	2back/STIM_025.jpg
298.524	0.95	1	2back	Block1	2back/STIM_026.jpg
301.926	0.736	1	2back	Block1	2back/STIM_026.jpg
305.142	0.933	1	2back	Block1	2back/STIM_026.jpg
308.655	0.918	1	2back	Block1	2back/STIM_027.jpg
311.797	0.835	1	2back	Block1	2back/STIM_027.jpg
315.204	0.528	1	2back	Block1	2back/STIM_027.jpg
318.939	0.708	1	2back	Block1	2back/STIM_028.jpg
321.89	0.947	1	2back	Block1	2back/STIM_028.jpg
325.05	0.818	0	2back	Block1	2back/STIM_028.jpg
329.127	1.259	0	2back	Block1	2back/STIM_029.jpg
332.619	0.851	0	2back	Block1	2back/STIM_029.jpg
337.286	0.704	1	2back	Block1	2back/STIM_029.jpg
341.05	0.913	1	2back	Block1	2back/STIM_030.jpg
345.1	0.759	1	2back	Block1	2back/STIM_030.jpg
347.957	1.128	1	2back	Block1	2back/STIM_030.jpg
351.392	0.913	1	2back	Block1	2back/STIM_031.jpg
356.083	0.97	1	2back	Block1	2back/STIM_031.jpg
359.234	1.181	1	2back	Block1	2back/STIM_031.jpg
363.809	1.22	0	2back	Block1	2back/STIM_032.jpg
367.99	0.71	1	2back	Block1	2back/STIM_032.jpg
371.668	1.02	0	2back	Block1	2back/STIM_032.jpg
374.869	1.175	1	2back	Block1	2back/STIM_033.jpg
378.333	1.105	1	2back	Block1	2back/STIM_033.jpg
381.641	0.631	1	2back	Block1	2back/STIM_033.jpg
384.723	0.774	1	2back	Block1	2back/STIM_034.jpg
388.883	0.656	1	2back	Block1	2back/STIM_034.jpg
393.462	0.967	1	2back	Block1	2back/STIM_034.jpg
397.458	0.779	0	2back	Block1	2back/STIM_035.jpg
402.176	1.144	0	2back	Block1	2back/STIM_035.jpg
406.154	0.514	1	2back	Block1	2back/STIM_035.jpg
409.876	1.312	1	2back	Block1	2back/STIM_036.jpg
414.249	0.907	1	2back	Block1	2back/STIM_036.jpg
418.451	0.81	1	2back	Block1	2back/STIM_036.jpg
421.865	0.84	1	2back	Block1	2back/STIM_037.jpg
424.742	0.703	1	2back	Block1	2back/STIM_037.jpg
428.586	0.878	1	2back	Block1	2back/STIM_037.jpg
432.132	0.894	1	2back	Block1	2back/STIM_038.jpg
435.349	1.086	1	2back	Block1	2back/STIM_038.jpg
438.873	1.138	1	2back	Block1	2back/STIM_038.jpg
443.227	0.578	1	2back	Block1	2back/STIM_039.jpg
446.287	1.116	1	2back	Block1	2back/STIM_039.jpg
450.859	0.862	1	2back	Block1	2back/STIM_039.jpg
455.454	0.379	0	0back	Block1	0back/STIM_000.jpg
459.358	0.628	1	0back	Block1	0back/STIM_000.jpg
463.665	0.391	1	0back	Block1	0back/STIM_000.jpg
466.185	0.66	1	0back	Block1	0back/STIM_001.jpg
469.153	0.617	1	0back	Block1	0back/STIM_001.jpg
472.776	0.75	1	0back	Block1	0back/STIM_001.jpg
476.199	0.465	1	0back	Block1	0back/STIM_002.jpg
479.545	0.534	1	0back	Block1	0back/STIM_002.jpg
483.885	0.432	1	0back	Block1	0back/STIM_002.jpg
487.486	0.745	1	0back	Block1	0back/STIM_003.jpg
491.497	0.592	1	0back	Block1	0back/STIM_003.jpg
494.546	0.66	1	0back	Block1	0back/STIM_003.jpg
497.473	0.555	1	0back	Block1	0back/STIM_004.jpg
500.029	0.715	1	0back	Block1	0back/STIM_004.jpg
504.322	0.469	1	0back	Block1	0back/STIM_004.jpg
507.803	0.622	1	0back	Block1	0back/STIM_005.jpg
510.852	0.463	1	0back	Block1	0back/STIM_005.jpg
513.987	0.563	1	0back	Block1	0back/STIM_005.jpg
518.375	0.429	1	0back	Block1	0back/STIM_006.jpg
521.683	0.56	1	0back	Block1	0back/STIM_006.jpg
525.565	0.629	1	0back	Block1	0back/STIM_006.jpg
529.718	0.749	1	0back	Block1	0back/STIM_007.jpg
533.824	0.416	1	0back	Block1	0back/STIM_007.jpg
537.16	0.523	1	0back	Block1	0back/STIM_007.jpg
539.863	0.398	1	0back	Block1	0back/STIM_008.jpg
543.174	0.631	1	0back	Block1	0back/STIM_008.jpg
546.829	0.706	1	0back	Block1	0back/STIM_008.jpg
550.107	0.556	1	0back	Block1	0back/STIM_009.jpg
553.465	0.668	1	0back	Block1	0back/STIM_009.jpg
557.585	0.509	1	0back	Block1	0back/STIM_009.jpg
561.704	0.501	1	0back	Block1	0back/STIM_010.jpg
565.506	0.712	1	0back	Block1	0back/STIM_010.jpg
568.763	0.547	1	0back	Block1	0back/STIM_010.jpg
572.003	0.72	1	0back	Block1	0back/STIM_011.jpg
575.333	0.488	1	0back	Block1	0back/STIM_011.jpg
578.514	0.662	1	0back	Block1	0back/STIM_011.jpg
582.52	0.435	1	0back	Block1	0back/STIM_012.jpg
586.88	0.563	1	0back	Block1	0back/STIM_012.jpg
590.394	0.736	1	0back	Block1	0back/STIM_012.jpg
593.704	0.482	1	0back	Block1	0back/STIM_013.jpg
597.504	0.402	1	0back	Block1	0back/STIM_013.jpg
600.822	0.39	1	0back	Block1	0back/STIM_013.jpg
603.816	0.452	1	0back	Block1	0back/STIM_014.jpg
606.889	0.478	1	0back	Block1	0back/STIM_014.jpg
610.151	0.699	1	0back	Block1	0back/STIM_014.jpg
613.411	0.564	1	0back	Block1	0back/STIM_015.jpg
617.144	0.707	1	0back	Block1	0back/STIM_015.jpg
621.603	0.444	1	0back	Block1	0back/STIM_015.jpg
624.744	0.591	1	0back	Block1	0back/STIM_016.jpg
629.205	0.494	1	0back	Block1	0back/STIM_016.jpg
631.937	0.682	1	0back	Block1	0back/STIM_016.jpg
634.843	0.41	1	0back	Block1	0back/STIM_017.jpg
637.835	0.707	1	0back	Block1	0back/STIM_017.jpg
641.805	0.661	1	0back	Block1	0back/STIM_017.jpg
646.047	0.647	1	0back	Block1	0back/STIM_018.jpg
650.127	0.439	1	0back	Block1	0back/STIM_018.jpg
652.574	0.649	1	0back	Block1	0back/STIM_018.jpg
655.756	0.476	0	0back	Block1	0back/STIM_019.jpg
658.504	0.621	1	0back	Block1	0back/STIM_019.jpg
662.361	0.68	1	0back	Block1	0back/STIM_019.jpg
666.245	1.069	1	2back	Block2	2back/STIM_000.jpg
669.854	1.019	1	2back	Block2	2back/STIM_000.jpg
673.089	0.966	1	2back	Block2	2back/STIM_000.jpg
677.327	0.598	1	2back	Block2	2back/STIM_001.jpg
680.79	0.514	1	2back	Block2	2back/STIM_001.jpg
685.281	0.649	1	2back	Block2	2back/STIM_001.jpg
688.721	0.813	1	2back	Block2	2back/STIM_002.jpg
692.085	0.718	1	2back	Block2	2back/STIM_002.jpg
695.341	0.796	1	2back	Block2	2back/STIM_002.jpg
699.925	0.751	1	2back	Block2	2back/STIM_003.jpg
704.253	0.935	1	2back	Block2	2back/STIM_003.jpg
708.068	0.623	1	2back	Block2	2back/STIM_003.jpg
711.224	1.072	1	2back	Block2	2back/STIM_004.jpg
714.538	0.816	1	2back	Block2	2back/STIM_004.jpg
717.555	0.809	1	2back	Block2	2back/STIM_004.jpg
721.231	1.037	1	2back	Block2	2back/STIM_005.jpg
725.905	0.911	1	2back	Block2	2back/STIM_005.jpg
728.984	0.527	1	2back	Block2	2back/STIM_005.jpg
732.659	0.95	1	2back	Block2	2back/STIM_006.jpg
736.047	0.808	1	2back	Block2	2back/STIM_006.jpg
739.503	0.652	1	2back	Block2	2back/STIM_006.jpg
742.863	0.633	1	2back	Block2	2back/STIM_007.jpg
745.622	0.64	1	2back	Block2	2back/STIM_007.jpg
749.996	0.694	1	2back	Block2	2back/STIM_007.jpg
753.881	0.979	1	2back	Block2	2back/STIM_008.jpg
757.812	0.528	1	2back	Block2	2back/STIM_008.jpg
760.639	0.69	1	2back	Block2	2back/STIM_008.jpg
763.675	0.576	1	2back	Block2	2back/STIM_009.jpg
768.083	0.852	1	2back	Block2	2back/STIM_009.jpg
771.881	0.96	1	2back	Block2	2back/STIM_009.jpg
776.642	0.622	1	2back	Block2	2back/STIM_010.jpg
779.722	0.772	1	2back	Block2	2back/STIM_010.jpg
782.749	0.502	1	2back	Block2	2back/STIM_010.jpg
786.922	0.721	1	2back	Block2	2back/STIM_011.jpg
789.789	0.731	1	2back	Block2	2back/STIM_011.jpg
794.377	0.878	1	2back	Block2	2back/STIM_011.jpg
797.769	0.725	1	2back	Block2	2back/STIM_012.jpg
801.886	0.907	0	2back	Block2	2back/STIM_012.jpg
806.77	0.941	1	2back	Block2	2back/STIM_012.jpg
811.306	0.781	1	2back	Block2	2back/STIM_013.jpg
814.19	0.799	1	2back	Block2	2back/STIM_013.jpg
817.131	0.709	1	2back	Block2	2back/STIM_013.jpg
821.709	0.836	1	2back	Block2	2back/STIM_014.jpg
825.514	0.595	1	2back	Block2	2back/STIM_014.jpg
828.679	0.5	1	2back	Block2	2back/STIM_014.jpg
832.806	1.089	1	2back	Block2	2back/STIM_015.jpg
836.587	0.656	1	2back	Block2	2back/STIM_015.jpg
840.089	0.972	1	2back	Block2	2back/STIM_015.jpg
843.343	0.632	1	2back	Block2	2back/STIM_016.jpg
846.657	0.951	1	2back	Block2	2back/STIM_016.jpg
850.474	0.93	1	2back	Block2	2back/STIM_016.jpg
854.542	0.733	1	2back	Block2	2back/STIM_017.jpg
858.121	0.778	1	2back	Block2	2back/STIM_017.jpg
861.382	0.662	1	2back	Block2	2back/STIM_017.jpg
865.358	1.04	1	2back	Block2	2back/STIM_018.jpg
868.991	0.525	1	2back	Block2	2back/STIM_018.jpg
872.5	0.795	1	2back	Block2	2back/STIM_018.jpg
875.609	0.502	1	2back	Block2	2back/STIM_019.jpg
879.316	0.544	1	2back	Block2	2back/STIM_019.jpg
882.328	0.559	1	2back	Block2	2back/STIM_019.jpg
885.486	1.072	1	2back	Block2	2back/STIM_020.jpg
890.081	0.93	1	2back	Block2	2back/STIM_020.jpg
893.874	0.63	1	2back	Block2	2back/STIM_020.jpg
896.935	0.923	1	2back	Block2	2back/STIM_021.jpg
901.822	1.015	1	2back	Block2	2back/STIM_021.jpg
906.273	0.694	1	2back	Block2	2back/STIM_021.jpg
910.772	0.769	1	2back	Block2	2back/STIM_022.jpg
915.21	0.994	1	2back	Block2	2back/STIM_022.jpg
919.205	0.578	1	2back	Block2	2back/STIM_022.jpg
922.814	0.916	1	2back	Block2	2back/STIM_023.jpg
927.706	0.891	1	2back	Block2	2back/STIM_023.jpg
931.324	0.685	1	2back	Block2	2back/STIM_023.jpg
935.642	0.833	1	2back	Block2	2back/STIM_024.jpg
938.777	0.565	1	2back	Block2	2back/STIM_024.jpg
941.529	0.959	1	2back	Block2	2back/STIM_024.jpg
945.477	0.944	1	2back	Block2	2back/STIM_025.jpg
949.245	0.945	1	2back	Block2	2back/STIM_025.jpg
953.325	0.508	0	2back	Block2	2back/STIM_025.jpg
956.067	0.975	1	2back	Block2	2back/STIM_026.jpg
960.3	0.605	1	2back	Block2	2back/STIM_026.jpg
963.996	0.433	1	2back	Block2	2back/STIM_026.jpg
968.081	0.629	1	2back	Block2	2back/STIM_027.jpg
970.843	0.652	1	2back	Block2	2back/STIM_027.jpg
973.669	0.727	1	2back	Block2	2back/STIM_027.jpg
978.294	0.894	1	2back	Block2	2back/STIM_028.jpg
981.967	0.802	1	2back	Block2	2back/STIM_028.jpg
985.155	0.664	1	2back	Block2	2back/STIM_028.jpg
989.75	1.024	1	2back	Block2	2back/STIM_029.jpg
993.821	0.594	1	2back	Block2	2back/STIM_029.jpg
998.32	0.823	1	2back	Block2	2back/STIM_029.jpg
1002.997	0.826	1	2back	Block2	2back/STIM_030.jpg
1007.337	0.57	1	2back	Block2	2back/STIM_030.jpg
1011.655	0.865	1	2back	Block2	2back/STIM_030.jpg
1015.894	0.674	1	2back	Block2	2back/STIM_031.jpg
1019.15	0.848	1	2back	Block2	2back/STIM_031.jpg
1023.975	0.527	1	2back	Block2	2back/STIM_031.jpg
1027.872	0.566	1	2back	Block2	2back/STIM_032.jpg
1030.858	0.818	1	2back	Block2	2back/STIM_032.jpg
1035.327	0.46	1	2back	Block2	2back/STIM_032.jpg
1038.572	0.61	1	2back	Block2	2back/STIM_033.jpg
1043.091	0.971	1	2back	Block2	2back/STIM_033.jpg
1047.467	0.536	1	2back	Block2	2back/STIM_033.jpg
1051.41	0.741	1	2back	Block2	2back/STIM_034.jpg
1055.179	0.642	1	2back	Block2	2back/STIM_034.jpg
1059.632	0.47	1	2back	Block2	2back/STIM_034.jpg
1063.338	1.016	1	2back	Block2	2back/STIM_035.jpg
1067.941	0.566	1	2back	Block2	2back/STIM_035.jpg
1070.695	0.566	1	2back	Block2	2back/STIM_035.jpg
1074.881	0.763	1	2back	Block2	2back/STIM_036.jpg
1079.412	0.858	1	2back	Block2	2back/STIM_036.jpg
1082.36	0.486	1	2back	Block2	2back/STIM_036.jpg
1085.626	1.015	1	2back	Block2	2back/STIM_037.jpg
1090.017	0.879	1	2back	Block2	2back/STIM_037.jpg
1094.22	0.465	1	2back	Block2	2back/STIM_037.jpg
1097.041	0.882	1	2back	Block2	2back/STIM_038.jpg
1100.299	0.93	1	2back	Block2	2back/STIM_038.jpg
1103.307	0.561	1	2back	Block2	2back/STIM_038.jpg
1106.49	0.948	1	2back	Block2	2back/STIM_039.jpg
1110.787	0.66	1	2back	Block2	2back/STIM_039.jpg
1114.583	0.727	1	2back	Block2	2back/STIM_039.jpg
1119.089	0.651	1	0back	Block2	0back/STIM_000.jpg
1122.919	0.649	1	0back	Block2	0back/STIM_000.jpg
1127.464	0.617	1	0back	Block2	0back/STIM_000.jpg
1131.108	0.536	1	0back	Block2	0back/STIM_001.jpg
1135.074	0.379	1	0back	Block2	0back/STIM_001.jpg
1137.514	0.628	1	0back	Block2	0back/STIM_001.jpg
1141.045	0.737	1	0back	Block2	0back/STIM_002.jpg
1143.793	0.488	1	0back	Block2	0back/STIM_002.jpg
1147.915	0.4	1	0back	Block2	0back/STIM_002.jpg
1150.892	0.597	1	0back	Block2	0back/STIM_003.jpg
1154.92	0.722	1	0back	Block2	0back/STIM_003.jpg
1159.204	0.746	1	0back	Block2	0back/STIM_003.jpg
1162.081	0.439	1	0back	Block2	0back/STIM_004.jpg
1165.824	0.383	1	0back	Block2	0back/STIM_004.jpg
1169.611	0.567	1	0back	Block2	0back/STIM_004.jpg
1173.968	0.45	0	0back	Block2	0back/STIM_005.jpg
1177.383	0.727	1	0back	Block2	0back/STIM_005.jpg
1180.475	0.494	0	0back	Block2	0back/STIM_005.jpg
1183.434	0.471	1	0back	Block2	0back/STIM_006.jpg
1185.975	0.444	1	0back	Block2	0back/STIM_006.jpg
1190.044	0.533	1	0back	Block2	0back/STIM_006.jpg
1194.56	0.603	1	0back	Block2	0back/STIM_007.jpg
1198.671	0.383	1	0back	Block2	0back/STIM_007.jpg
1202.616	0.581	0	0back	Block2	0back/STIM_007.jpg
1206.491	0.435	1	0back	Block2	0back/STIM_008.jpg
1210.555	0.453	1	0back	Block2	0back/STIM_008.jpg
1213.386	0.411	1	0back	Block2	0back/STIM_008.jpg
1215.926	0.682	1	0back	Block2	0back/STIM_009.jpg
1220.337	0.625	1	0back	Block2	0back/STIM_009.jpg
1223.349	0.503	1	0back	Block2	0back/STIM_009.jpg
1227.147	0.519	1	0back	Block2	0back/STIM_010.jpg
1231.496	0.409	1	0back	Block2	0back/STIM_010.jpg
1234.658	0.405	1	0back	Block2	0back/STIM_010.jpg
1237.111	0.7	1	0back	Block2	0back/STIM_011.jpg
1241.503	0.455	1	0back	Block2	0back/STIM_011.jpg
1245.738	0.552	1	0back	Block2	0back/STIM_011.jpg
1248.863	0.736	1	0back	Block2	0back/STIM_012.jpg
1251.746	0.496	1	0back	Block2	0back/STIM_012.jpg
1255.665	0.379	1	0back	Block2	0back/STIM_012.jpg
1258.557	0.539	1	0back	Block2	0back/STIM_013.jpg
1263.052	0.605	1	0back	Block2	0back/STIM_013.jpg
1266.44	0.5	1	0back	Block2	0back/STIM_013.jpg
1269.974	0.59	1	0back	Block2	0back/STIM_014.jpg
1274.393	0.506	1	0back	Block2	0back/STIM_014.jpg
1277.272	0.479	1	0back	Block2	0back/STIM_014.jpg
1281.501	0.736	1	0back	Block2	0back/STIM_015.jpg
1284.681	0.645	1	0back	Block2	0back/STIM_015.jpg
1287.515	0.622	1	0back	Block2	0back/STIM_015.jpg
1291.738	0.577	1	0back	Block2	0back/STIM_016.jpg
1295.297	0.729	1	0back	Block2	0back/STIM_016.jpg
1298.771	0.547	1	0back	Block2	0back/STIM_016.jpg
1301.828	0.696	1	0back	Block2	0back/STIM_017.jpg
1305.28	0.491	1	0back	Block2	0back/STIM_017.jpg
1308.299	0.392	1	0back	Block2	0back/STIM_017.jpg
1311.625	0.465	1	0back	Block2	0back/STIM_018.jpg
1314.241	0.754	1	0back	Block2	0back/STIM_018.jpg
1317.73	0.605	1	0back	Block2	0back/STIM_018.jpg
1321.256	0.521	1	0back	Block2	0back/STIM_019.jpg
1324.779	0.471	1	0back	Block2	0back/STIM_019.jpg
1329.108	0.406	1	0back	Block2	0back/STIM_019.jpg
1331.55	0.772	1	2back	Block3	2back/STIM_000.jpg
1336.263	0.652	1	2back	Block3	2back/STIM_000.jpg
1340.568	0.729	1	2back	Block3	2back/STIM_000.jpg
1344.693	0.473	1	2back	Block3	2back/STIM_001.jpg
1348.058	0.58	1	2back	Block3	2back/STIM_001.jpg
1351.451	0.44	1	2back	Block3	2back/STIM_001.jpg
1355.757	0.5	1	2back	Block3	2back/STIM_002.jpg
1359.081	0.732	1	2back	Block3	2back/STIM_002.jpg
1362.614	0.526	1	2back	Block3	2back/STIM_002.jpg
1366.855	0.8	1	2back	Block3	2back/STIM_003.jpg
1370.852	0.783	1	2back	Block3	2back/STIM_003.jpg
1375.237	0.407	1	2back	Block3	2back/STIM_003.jpg
1379.246	0.613	1	2back	Block3	2back/STIM_004.jpg
1383.472	0.905	1	2back	Block3	2back/STIM_004.jpg
1387.4	0.463	1	2back	Block3	2back/STIM_004.jpg
1391.325	0.465	1	2back	Block3	2back/STIM_005.jpg
1395.053	0.659	1	2back	Block3	2back/STIM_005.jpg
1399.697	0.673	1	2back	Block3	2back/STIM_005.jpg
1402.549	0.836	1	2back	Block3	2back/STIM_006.jpg
1406.906	0.763	1	2back	Block3	2back/STIM_006.jpg
1410.255	0.536	1	2back	Block3	2back/STIM_006.jpg
1413.487	0.651	1	2back	Block3	2back/STIM_007.jpg
1417.584	0.786	1	2back	Block3	2back/STIM_007.jpg
1421.328	0.556	1	2back	Block3	2back/STIM_007.jpg
1424.676	0.918	1	2back	Block3	2back/STIM_008.jpg
1429.166	0.557	1	2back	Block3	2back/STIM_008.jpg
1432.815	0.617	1	2back	Block3	2back/STIM_008.jpg
1436.407	0.629	1	2back	Block3	2back/STIM_009.jpg
1439.482	0.699	1	2back	Block3	2back/STIM_009.jpg
1443.746	0.489	1	2back	Block3	2back/STIM_009.jpg
1446.319	0.796	1	2back	Block3	2back/STIM_010.jpg
1450.892	0.858	1	2back	Block3	2back/STIM_010.jpg
1454.183	0.586	1	2back	Block3	2back/STIM_010.jpg
1457.384	0.587	1	2back	Block3	2back/STIM_011.jpg
1461.697	0.58	1	2back	Block3	2back/STIM_011.jpg
1465.402	0.525	1	2back	Block3	2back/STIM_011.jpg
1469.309	0.529	1	2back	Block3	2back/STIM_012.jpg
1471.999	0.807	1	2back	Block3	2back/STIM_012.jpg
1476.616	0.49	1	2back	Block3	2back/STIM_012.jpg
1479.321	0.541	1	2back	Block3	2back/STIM_013.jpg
1482.8	0.56	1	2back	Block3	2back/STIM_013.jpg
1487.015	0.51	1	2back	Block3	2back/STIM_013.jpg
1490.076	0.851	1	2back	Block3	2back/STIM_014.jpg
1494.619	0.87	1	2back	Block3	2back/STIM_014.jpg
1499.138	0.704	1	2back	Block3	2back/STIM_014.jpg
1503.634	0.462	1	2back	Block3	2back/STIM_015.jpg
1508.056	0.723	1	2back	Block3	2back/STIM_015.jpg
1511.507	0.896	1	2back	Block3	2back/STIM_015.jpg
1515.649	0.702	1	2back	Block3	2back/STIM_016.jpg
1519.664	0.575	1	2back	Block3	2back/STIM_016.jpg
1522.542	0.716	1	2back	Block3	2back/STIM_016.jpg
1526.041	0.81	1	2back	Block3	2back/STIM_017.jpg
1530.18	0.851	1	2back	Block3	2back/STIM_017.jpg
1534.807	0.462	0	2back	Block3	2back/STIM_017.jpg
1537.885	0.617	1	2back	Block3	2back/STIM_018.jpg
1541.717	0.85	1	2back	Block3	2back/STIM_018.jpg
1545.211	0.644	1	2back	Block3	2back/STIM_018.jpg
1548.13	0.81	1	2back	Block3	2back/STIM_019.jpg
1552.333	0.86	1	2back	Block3	2back/STIM_019.jpg
1555.94	0.746	1	2back	Block3	2back/STIM_019.jpg
1558.793	0.74	1	2back	Block3	2back/STIM_020.jpg
1562.586	0.779	1	2back	Block3	2back/STIM_020.jpg
1566.179	0.813	1	2back	Block3	2back/STIM_020.jpg
1569.165	0.558	1	2back	Block3	2back/STIM_021.jpg
1572.295	0.808	1	2back	Block3	2back/STIM_021.jpg
1575.313	0.907	1	2back	Block3	2back/STIM_021.jpg
1579.614	0.756	1	2back	Block3	2back/STIM_022.jpg
1583.418	0.611	1	2back	Block3	2back/STIM_022.jpg
1587.436	0.601	1	2back	Block3	2back/STIM_022.jpg
1590.896	0.759	1	2back	Block3	2back/STIM_023.jpg
1594.12	0.6	1	2back	Block3	2back/STIM_023.jpg
1597.127	0.402	1	2back	Block3	2back/STIM_023.jpg
1599.688	0.89	0	2back	Block3	2back/STIM_024.jpg
1603.445	0.648	1	2back	Block3	2back/STIM_024.jpg
1606.888	0.523	1	2back	Block3	2back/STIM_024.jpg
1610.164	0.7	1	2back	Block3	2back/STIM_025.jpg
1613.355	0.926	1	2back	Block3	2back/STIM_025.jpg
1616.472	0.712	1	2back	Block3	2back/STIM_025.jpg
1619.206	0.626	1	2back	Block3	2back/STIM_026.jpg
1622.977	0.5	1	2back	Block3	2back/STIM_026.jpg
1627.422	0.747	1	2back	Block3	2back/STIM_026.jpg
1631.173	0.543	1	2back	Block3	2back/STIM_027.jpg
1634.891	0.577	1	2back	Block3	2back/STIM_027.jpg
1639.063	0.773	1	2back	Block3	2back/STIM_027.jpg
1642.893	0.69	1	2back	Block3	2back/STIM_028.jpg
1645.704	0.54	1	2back	Block3	2back/STIM_028.jpg
1649.661	0.446	1	2back	Block3	2back/STIM_028.jpg
1652.934	0.475	1	2back	Block3	2back/STIM_029.jpg
1656.585	0.814	1	2back	Block3	2back/STIM_029.jpg
1660.175	0.838	1	2back	Block3	2back/STIM_029.jpg
1664.871	0.632	1	2back	Block3	2back/STIM_030.jpg
1668.71	0.503	1	2back	Block3	2back/STIM_030.jpg
1671.679	0.917	1	2back	Block3	2back/STIM_030.jpg
1675.915	0.826	1	2back	Block3	2back/STIM_031.jpg
1679.237	0.918	1	2back	Block3	2back/STIM_031.jpg
1684.014	0.652	1	2back	Block3	2back/STIM_031.jpg
1687.232	0.794	1	2back	Block3	2back/STIM_032.jpg
1691.364	0.692	1	2back	Block3	2back/STIM_032.jpg
1694.955	0.88	1	2back	Block3	2back/STIM_032.jpg
1699.068	0.461	1	2back	Block3	2back/STIM_033.jpg
1702.876	0.398	1	2back	Block3	2back/STIM_033.jpg
1706.497	0.429	1	2back	Block3	2back/STIM_033.jpg
1710.314	0.822	1	2back	Block3	2back/STIM_034.jpg
1714.495	0.618	1	2back	Block3	2back/STIM_034.jpg
1718.172	0.446	1	2back	Block3	2back/STIM_034.jpg
1721.468	0.694	1	2back	Block3	2back/STIM_035.jpg
1725.34	0.73	1	2back	Block3	2back/STIM_035.jpg
1729.375	0.558	1	2back	Block3	2back/STIM_035.jpg
1733.041	0.826	1	2back	Block3	2back/STIM_036.jpg
1736.346	0.502	1	2back	Block3	2back/STIM_036.jpg
1739.389	0.588	1	2back	Block3	2back/STIM_036.jpg
1743.522	0.772	1	2back	Block3	2back/STIM_037.jpg
1746.695	0.416	1	2back	Block3	2back/STIM_037.jpg
1749.595	0.408	1	2back	Block3	2back/STIM_037.jpg
1753.307	0.843	1	2back	Block3	2back/STIM_038.jpg
1757.661	0.619	1	2back	Block3	2back/STIM_038.jpg
1760.724	0.473	1	2back	Block3	2back/STIM_038.jpg
1765.007	0.682	1	2back	Block3	2back/STIM_039.jpg
1768.409	0.429	1	2back	Block3	2back/STIM_039.jpg
1772.157	0.851	1	2back	Block3	2back/STIM_039.jpg
1775.532	0.453	1	0back	Block3	0back/STIM_000.jpg
1778.261	0.639	1	0back	Block3	0back/STIM_000.jpg
1780.914	0.663	1	0back	Block3	0back/STIM_000.jpg
1783.688	0.656	1	0back	Block3	0back/STIM_001.jpg
1788.093	0.527	1	0back	Block3	0back/STIM_001.jpg
1791.996	0.648	1	0back	Block3	0back/STIM_001.jpg
1796.397	0.444	1	0back	Block3	0back/STIM_002.jpg
1799.676	0.396	1	0back	Block3	0back/STIM_002.jpg
1803.638	0.68	1	0back	Block3	0back/STIM_002.jpg
1806.991	0.632	1	0back	Block3	0back/STIM_003.jpg
1810.829	0.733	1	0back	Block3	0back/STIM_003.jpg
1815.547	0.584	1	0back	Block3	0back/STIM_003.jpg
1818.52	0.514	1	0back	Block3	0back/STIM_004.jpg
1822.989	0.534	1	0back	Block3	0back/STIM_004.jpg
1826.403	0.552	1	0back	Block3	0back/STIM_004.jpg
1830.435	0.594	1	0back	Block3	0back/STIM_005.jpg
1834.085	0.575	1	0back	Block3	0back/STIM_005.jpg
1837.344	0.656	1	0back	Block3	0back/STIM_005.jpg
1840.486	0.444	1	0back	Block3	0back/STIM_006.jpg
1843.741	0.599	1	0back	Block3	0back/STIM_006.jpg
1846.724	0.596	1	0back	Block3	0back/STIM_006.jpg
1850.311	0.601	1	0back	Block3	0back/STIM_007.jpg
1853.364	0.732	1	0back	Block3	0back/STIM_007.jpg
1856.57	0.604	1	0back	Block3	0back/STIM_007.jpg
1859.947	0.516	1	0back	Block3	0back/STIM_008.jpg
1863.98	0.736	1	0back	Block3	0back/STIM_008.jpg
1868.205	0.477	1	0back	Block3	0back/STIM_008.jpg
1871.76	0.743	1	0back	Block3	0back/STIM_009.jpg
1875.158	0.565	1	0back	Block3	0back/STIM_009.jpg
1878.968	0.58	1	0back	Block3	0back/STIM_009.jpg
1882.397	0.519	1	0back	Block3	0back/STIM_010.jpg
1886.527	0.693	1	0back	Block3	0back/STIM_010.jpg
1890.902	0.403	1	0back	Block3	0back/STIM_010.jpg
1894.809	0.388	1	0back	Block3	0back/STIM_011.jpg
1897.483	0.391	1	0back	Block3	0back/STIM_011.jpg
1901.22	0.506	1	0back	Block3	0back/STIM_011.jpg
1905.459	0.502	1	0back	Block3	0back/STIM_012.jpg
1908.612	0.652	1	0back	Block3	0back/STIM_012.jpg
1912.22	0.583	1	0back	Block3	0back/STIM_012.jpg
1915.856	0.502	1	0back	Block3	0back/STIM_013.jpg
1919.473	0.698	1	0back	Block3	0back/STIM_013.jpg
1922.421	0.589	1	0back	Block3	0back/STIM_013.jpg
1926.69	0.692	1	0back	Block3	0back/STIM_014.jpg
1931.196	0.669	1	0back	Block3	0back/STIM_014.jpg
1934.481	0.471	1	0back	Block3	0back/STIM_014.jpg
1938.754	0.537	1	0back	Block3	0back/STIM_015.jpg
1941.827	0.416	1	0back	Block3	0back/STIM_015.jpg
1945.568	0.723	1	0back	Block3	0back/STIM_015.jpg
1949.628	0.737	1	0back	Block3	0back/STIM_016.jpg
1952.726	0.531	1	0back	Block3	0back/STIM_016.jpg
1956.509	0.413	1	0back	Block3	0back/STIM_016.jpg
1960.494	0.447	1	0back	Block3	0back/STIM_017.jpg
1963.196	0.676	1	0back	Block3	0back/STIM_017.jpg
1967.824	0.414	1	0back	Block3	0back/STIM_017.jpg
1971.501	0.464	1	0back	Block3	0back/STIM_018.jpg
1975.416	0.494	1	0back	Block3	0back/STIM_018.jpg
1978.465	0.451	1	0back	Block3	0back/STIM_018.jpg
1982.235	0.734	1	0back	Block3	0back/STIM_019.jpg
1986.089	0.654	1	0back	Block3	0back/STIM_019.jpg
1989.092	0.744	1	0back	Block3	0back/STIM_019.jpg
1992.773	0.426	1	2back	Block4	2back/STIM_000.jpg
1996.16	0.819	1	2back	Block4	2back/STIM_000.jpg
2000.367	0.668	1	2back	Block4	2back/STIM_000.jpg
2004.819	0.591	1	2back	Block4	2back/STIM_001.jpg
2008.818	0.482	1	2back	Block4	2back/STIM_001.jpg
2011.481	0.455	1	2back	Block4	2back/STIM_001.jpg
2015.762	0.8	1	2back	Block4	2back/STIM_002.jpg
2018.973	0.852	1	2back	Block4	2back/STIM_002.jpg
2023.153	0.431	1	2back	Block4	2back/STIM_002.jpg
2026.093	0.739	1	2back	Block4	2back/STIM_003.jpg
2030.798	0.533	1	2back	Block4	2back/STIM_003.jpg
2034.7	0.838	1	2back	Block4	2back/STIM_003.jpg
2038.68	0.818	1	2back	Block4	2back/STIM_004.jpg
2041.645	0.557	1	2back	Block4	2back/STIM_004.jpg
2046.15	0.847	1	2back	Block4	2back/STIM_004.jpg
2050.49	0.574	1	2back	Block4	2back/STIM_005.jpg
2054.851	0.487	1	2back	Block4	2back/STIM_005.jpg
2057.829	0.482	1	2back	Block4	2back/STIM_005.jpg
2062.01	0.776	1	2back	Block4	2back/STIM_006.jpg
2066.409	0.814	1	2back	Block4	2back/STIM_006.jpg
2070.4	0.412	1	2back	Block4	2back/STIM_006.jpg
2073.657	0.665	1	2back	Block4	2back/STIM_007.jpg
2077.71	0.902	1	2back	Block4	2back/STIM_007.jpg
2081.561	0.884	1	2back	Block4	2back/STIM_007.jpg
2085.575	0.577	1	2back	Block4	2back/STIM_008.jpg
2088.976	0.667	1	2back	Block4	2back/STIM_008.jpg
2093.338	0.911	1	2back	Block4	2back/STIM_008.jpg
2097.468	0.757	1	2back	Block4	2back/STIM_009.jpg
2100.574	0.637	1	2back	Block4	2back/STIM_009.jpg
2104.162	0.629	1	2back	Block4	2back/STIM_009.jpg
2106.965	0.87	1	2back	Block4	2back/STIM_010.jpg
2110.026	0.417	1	2back	Block4	2back/STIM_010.jpg
2112.874	0.517	1	2back	Block4	2back/STIM_010.jpg
2116.865	0.458	1	2back	Block4	2back/STIM_011.jpg
2119.936	0.894	1	2back	Block4	2back/STIM_011.jpg
2122.873	0.917	1	2back	Block4	2back/STIM_011.jpg
2127.543	0.586	1	2back	Block4	2back/STIM_012.jpg
2130.837	0.452	1	2back	Block4	2back/STIM_012.jpg
2134.968	0.402	1	2back	Block4	2back/STIM_012.jpg
2138.561	0.488	1	2back	Block4	2back/STIM_013.jpg
2142.367	0.778	1	2back	Block4	2back/STIM_013.jpg
2145.37	0.868	1	2back	Block4	2back/STIM_013.jpg
2149.05	0.465	1	2back	Block4	2back/STIM_014.jpg
2151.89	0.456	1	2back	Block4	2back/STIM_014.jpg
2156.233	0.739	1	2back	Block4	2back/STIM_014.jpg
2160.853	0.81	1	2back	Block4	2back/STIM_015.jpg
2165.443	0.605	1	2back	Block4	2back/STIM_015.jpg
2168.452	0.84	1	2back	Block4	2back/STIM_015.jpg
2172.943	0.436	1	2back	Block4	2back/STIM_016.jpg
2175.588	0.818	1	2back	Block4	2back/STIM_016.jpg
2178.638	0.594	1	2back	Block4	2back/STIM_016.jpg
2181.658	0.498	1	2back	Block4	2back/STIM_017.jpg
2184.458	0.914	1	2back	Block4	2back/STIM_017.jpg
2187.523	0.797	1	2back	Block4	2back/STIM_017.jpg
2192.113	0.802	1	2back	Block4	2back/STIM_018.jpg
2195.615	0.884	1	2back	Block4	2back/STIM_018.jpg
2199.673	0.914	1	2back	Block4	2back/STIM_018.jpg
2202.767	0.496	1	2back	Block4	2back/STIM_019.jpg
2206.187	0.793	1	2back	Block4	2back/STIM_019.jpg
2210.695	0.546	1	2back	Block4	2back/STIM_019.jpg
2214.207	0.909	1	2back	Block4	2back/STIM_020.jpg
2218.648	0.862	0	2back	Block4	2back/STIM_020.jpg
2221.622	0.438	1	2back	Block4	2back/STIM_020.jpg
2224.707	0.707	1	2back	Block4	2back/STIM_021.jpg
2228.359	0.853	1	2back	Block4	2back/STIM_021.jpg
2231.486	0.446	1	2back	Block4	2back/STIM_021.jpg
2235.523	0.437	1	2back	Block4	2back/STIM_022.jpg
2239.806	0.895	1	2back	Block4	2back/STIM_022.jpg
2244.009	0.431	1	2back	Block4	2back/STIM_022.jpg
2247.056	0.542	1	2back	Block4	2back/STIM_023.jpg
2249.94	0.852	1	2back	Block4	2back/STIM_023.jpg
2253.969	0.605	1	2back	Block4	2back/STIM_023.jpg
2257.451	0.549	1	2back	Block4	2back/STIM_024.jpg
2261.802	0.676	1	2back	Block4	2back/STIM_024.jpg
2266.135	0.817	1	2back	Block4	2back/STIM_024.jpg
2269.499	0.427	1	2back	Block4	2back/STIM_025.jpg
2272.592	0.494	1	2back	Block4	2back/STIM_025.jpg
2275.443	0.615	1	2back	Block4	2back/STIM_025.jpg
2279.943	0.608	1	2back	Block4	2back/STIM_026.jpg
2284.334	0.541	0	2back	Block4	2back/STIM_026.jpg
2288.439	0.439	1	2back	Block4	2back/STIM_026.jpg
2290.923	0.424	1	2back	Block4	2back/STIM_027.jpg
2294.982	0.79	1	2back	Block4	2back/STIM_027.jpg
2299.147	0.528	1	2back	Block4	2back/STIM_027.jpg
2303.374	0.482	1	2back	Block4	2back/STIM_028.jpg
2306.859	0.642	1	2back	Block4	2back/STIM_028.jpg
2309.805	0.591	1	2back	Block4	2back/STIM_028.jpg
2313.067	0.509	1	2back	Block4	2back/STIM_029.jpg
2316.785	0.569	1	2back	Block4	2back/STIM_029.jpg
2320.493	0.757	1	2back	Block4	2back/STIM_029.jpg
2324.886	0.492	1	2back	Block4	2back/STIM_030.jpg
2329.089	0.856	1	2back	Block4	2back/STIM_030.jpg
2332.058	0.739	1	2back	Block4	2back/STIM_030.jpg
2336.15	0.761	1	2back	Block4	2back/STIM_031.jpg
2340.131	0.736	1	2back	Block4	2back/STIM_031.jpg
2343.337	0.574	1	2back	Block4	2back/STIM_031.jpg
2347.779	0.682	1	2back	Block4	2back/STIM_032.jpg
2352.112	0.515	1	2back	Block4	2back/STIM_032.jpg
2355.102	0.709	1	2back	Block4	2back/STIM_032.jpg
2359.373	0.53	1	2back	Block4	2back/STIM_033.jpg
2363.64	0.406	1	2back	Block4	2back/STIM_033.jpg
2367.809	0.428	1	2back	Block4	2back/STIM_033.jpg
2371.268	0.907	1	2back	Block4	2back/STIM_034.jpg
2375.599	0.404	1	2back	Block4	2back/STIM_034.jpg
2378.341	0.539	1	2back	Block4	2back/STIM_034.jpg
2382.769	0.458	0	2back	Block4	2back/STIM_035.jpg
2386.048	0.418	1	2back	Block4	2back/STIM_035.jpg
2388.838	0.884	1	2back	Block4	2back/STIM_035.jpg
2393.681	0.735	1	2back	Block4	2back/STIM_036.jpg
2396.578	0.553	1	2back	Block4	2back/STIM_036.jpg
2401.105	0.72	1	2back	Block4	2back/STIM_036.jpg
2404.845	0.704	1	2back	Block4	2back/STIM_037.jpg
2408.683	0.73	1	2back	Block4	2back/STIM_037.jpg
2413.033	0.651	1	2back	Block4	2back/STIM_037.jpg
2417.41	0.646	1	2back	Block4	2back/STIM_038.jpg
2420.568	0.549	1	2back	Block4	2back/STIM_038.jpg
2424.026	0.511	1	2back	Block4	2back/STIM_038.jpg
2427.641	0.429	1	2back	Block4	2back/STIM_039.jpg
2430.608	0.579	1	2back	Block4	2back/STIM_039.jpg
2434.585	0.533	1	2back	Block4	2back/STIM_039.jpg
2438.73	0.751	1	0back	Block4	0back/STIM_000.jpg
2443.424	0.624	1	0back	Block4	0back/STIM_000.jpg
2447.485	0.441	1	0back	Block4	0back/STIM_000.jpg
2450.845	0.404	1	0back	Block4	0back/STIM_001.jpg
2453.653	0.495	1	0back	Block4	0back/STIM_001.jpg
2456.467	0.697	1	0back	Block4	0back/STIM_001.jpg
2459.287	0.411	1	0back	Block4	0back/STIM_002.jpg
2462.004	0.523	1	0back	Block4	0back/STIM_002.jpg
2464.689	0.596	1	0back	Block4	0back/STIM_002.jpg
2468.489	0.61	1	0back	Block4	0back/STIM_003.jpg
2471.786	0.654	1	0back	Block4	0back/STIM_003.jpg
2474.522	0.709	1	0back	Block4	0back/STIM_003.jpg
2477.233	0.552	1	0back	Block4	0back/STIM_004.jpg
2479.962	0.727	1	0back	Block4	0back/STIM_004.jpg
2482.868	0.546	1	0back	Block4	0back/STIM_004.jpg
2486.562	0.494	1	0back	Block4	0back/STIM_005.jpg
2489.637	0.732	1	0back	Block4	0back/STIM_005.jpg
2493.711	0.605	1	0back	Block4	0back/STIM_005.jpg
2497.072	0.526	1	0back	Block4	0back/STIM_006.jpg
2499.712	0.534	1	0back	Block4	0back/STIM_006.jpg
2504.196	0.718	1	0back	Block4	0back/STIM_006.jpg
2507.933	0.748	1	0back	Block4	0back/STIM_007.jpg
2511.63	0.682	1	0back	Block4	0back/STIM_007.jpg
2516.046	0.681	1	0back	Block4	0back/STIM_007.jpg
2519.21	0.394	1	0back	Block4	0back/STIM_008.jpg
2522.631	0.428	1	0back	Block4	0back/STIM_008.jpg
2525.799	0.402	1	0back	Block4	0back/STIM_008.jpg
2528.253	0.744	1	0back	Block4	0back/STIM_009.jpg
2531.166	0.507	1	0back	Block4	0back/STIM_009.jpg
2534.6	0.528	1	0back	Block4	0back/STIM_009.jpg
2538.851	0.384	1	0back	Block4	0back/STIM_010.jpg
2543.22	0.735	1	0back	Block4	0back/STIM_010.jpg
2546.809	0.389	1	0back	Block4	0back/STIM_010.jpg
2550.257	0.464	1	0back	Block4	0back/STIM_011.jpg
2553.31	0.526	1	0back	Block4	0back/STIM_011.jpg
2555.947	0.409	1	0back	Block4	0back/STIM_011.jpg
2559.491	0.681	1	0back	Block4	0back/STIM_012.jpg
2564.062	0.737	1	0back	Block4	0back/STIM_012.jpg
2567.943	0.529	1	0back	Block4	0back/STIM_012.jpg
2571.248	0.65	1	0back	Block4	0back/STIM_013.jpg
2574.455	0.603	1	0back	Block4	0back/STIM_013.jpg
2578.12	0.631	1	0back	Block4	0back/STIM_013.jpg
2582.572	0.624	1	0back	Block4	0back/STIM_014.jpg
2586.754	0.608	1	0back	Block4	0back/STIM_014.jpg
2591.163	0.398	1	0back	Block4	0back/STIM_014.jpg
2593.74	0.567	1	0back	Block4	0back/STIM_015.jpg
2597.351	0.62	0	0back	Block4	0back/STIM_015.jpg
2600.551	0.607	1	0back	Block4	0back/STIM_015.jpg
2603.632	0.668	1	0back	Block4	0back/STIM_016.jpg
2607.89	0.396	1	0back	Block4	0back/STIM_016.jpg
2611.314	0.684	1	0back	Block4	0back/STIM_016.jpg
2615.945	0.695	1	0back	Block4	0back/STIM_017.jpg
2620.234	0.438	1	0back	Block4	0back/STIM_017.jpg
2623.758	0.433	1	0back	Block4	0back/STIM_017.jpg
2627.72	0.574	1	0back	Block4	0back/STIM_018.jpg
2631.805	0.424	1	0back	Block4	0back/STIM_018.jpg
2634.594	0.676	1	0back	Block4	0back/STIM_018.jpg
2637.354	0.514	1	0back	Block4	0back/STIM_019.jpg
2641.615	0.461	1	0back	Block4	0back/STIM_019.jpg
2644.364	0.512	1	0back	Block4	0back/STIM_019.jpg
