onset	duration	accuracy_binary	trial_type	learning_stage	stimulus
0.0	1.245	1	2back	Block1	2back/STIM_000.jpg
4.477	1.277	1	2back	Block1	2back/STIM_000.jpg
8.049	1.085	1	2back	Block1	2back/STIM_000.jpg
12.717	1.06	1	2back	Block1	2back/STIM_001.jpg
17.098	1.008	1	2back	Block1	2back/STIM_001.jpg
20.801	1.138	1	2back	Block1	2back/STIM_001.jpg
24.359	1.084	1	2back	Block1	2back/STIM_002.jpg
29.389	1.127	1	2back	Block1	2back/STIM_002.jpg
33.785	1.088	1	2back	Block1	2back/STIM_002.jpg
38.231	1.309	1	2back	Block1	2back/STIM_003.jpg
43.036	0.76	1	2back	Block1	2back/STIM_003.jpg
47.366	0.684	1	2back	Block1	2back/STIM_003.jpg
51.726	0.793	1	2back	Block1	2back/STIM_004.jpg
56.327	1.188	1	2back	Block1	2back/STIM_004.jpg
60.441	0.626	0	2back	Block1	2back/STIM_004.jpg
64.012	1.361	1	2back	Block1	2back/STIM_005.jpg
67.449	0.789	1	2back	Block1	2back/STIM_005.jpg
70.423	1.124	0	2back	Block1	2back/STIM_005.jpg
74.954	1.448	1	2back	Block1	2back/STIM_006.jpg
80.15	0.632	1	2back	Block1	2back/STIM_006.jpg
84.02	0.951	1	2back	Block1	2back/STIM_006.jpg
88.587	1.328	1	2back	Block1	2back/STIM_007.jpg
93.641	0.591	1	2back	Block1	2back/STIM_007.jpg
96.348	1.14	0	2back	Block1	2back/STIM_007.jpg
101.246	1.012	1	2back	Block1	2back/STIM_008.jpg
105.533	1.057	1	2back	Block1	2back/STIM_008.jpg
109.776	1.179	1	2back	Block1	2back/STIM_008.jpg
114.611	1.097	1	2back	Block1	2back/STIM_009.jpg
119.595	0.659	1	2back	Block1	2back/STIM_009.jpg
123.436	1.2	1	2back	Block1	2back/STIM_009.jpg
127.277	0.686	1	2back	Block1	2back/STIM_010.jpg
130.412	0.651	1	2back	Block1	2back/STIM_010.jpg
134.491	0.895	1	2back	Block1	2back/STIM_010.jpg
138.328	1.169	1	2back	Block1	2back/STIM_011.jpg
143.061	1.372	1	2back	Block1	2back/STIM_011.jpg
147.729	0.673	0	2back	Block1	2back/STIM_011.jpg
152.245	0.879	1	2back	Block1	2back/STIM_012.jpg
156.793	0.899	1	2back	Block1	2back/STIM_012.jpg
159.85	0.816	1	2back	Block1	2back/STIM_012.jpg
163.057	1.305	1	2back	Block1	2back/STIM_013.jpg
166.637	1.04	1	2back	Block1	2back/STIM_013.jpg
171.119	0.656	0	2back	Block1	2back/STIM_013.jpg
175.194	0.957	0	2back	Block1	2back/STIM_014.jpg
180.076	1.044	1	2back	Block1	2back/STIM_014.jpg
184.825	1.304	1	2back	Block1	2back/STIM_014.jpg
189.337	1.077	1	2back	Block1	2back/STIM_015.jpg
194.406	1.3	1	2back	Block1	2back/STIM_015.jpg
198.569	0.724	1	2back	Block1	2back/STIM_015.jpg
202.416	1.307	1	2back	Block1	2back/STIM_016.jpg
207.237	1.294	1	2back	Block1	2back/STIM_016.jpg
210.475	1.215	1	2back	Block1	2back/STIM_016.jpg
214.355	1.04	1	2back	Block1	2back/STIM_017.jpg
217.634	0.659	1	2back	Block1	2back/STIM_017.jpg
221.171	1.2	1	2back	Block1	2back/STIM_017.jpg
225.838	1.226	0	2back	Block1	2back/STIM_018.jpg
230.46	0.537	1	2back	Block1	2back/STIM_018.jpg
234.92	0.75	1	2back	Block1	2back/STIM_018.jpg
238.229	0.79	1	2back	Block1	2back/STIM_019.jpg
241.195	0.738	1	2back	Block1	2back/STIM_019.jpg
245.528	0.924	0	2back	Block1	2back/STIM_019.jpg
249.454	1.459	0	2back	Block1	2back/STIM_020.jpg
253.904	0.748	1	2back	Block1	2back/STIM_020.jpg
258.672	0.82	1	2back	Block1	2back/STIM_020.jpg
261.661	0.984	1	2back	Block1	2back/STIM_021.jpg
264.725	0.681	1	2back	Block1	2back/STIM_021.jpg
267.591	0.748	1	2back	Block1	2back/STIM_021.jpg
271.488	1.254	0	2back	Block1	2back/STIM_022.jpg
276.098	0.701	1	2back	Block1	2back/STIM_022.jpg
278.955	1.263	1	2back	Block1	2back/STIM_022.jpg
282.397	1.332	1	2back	Block1	2back/STIM_023.jpg
286.795	1.28	1	2back	Block1	2back/STIM_023.jpg
290.882	1.19	1	2back	Block1	2back/STIM_023.jpg
294.266	0.798	1	2back	Block1	2back/STIM_024.jpg
297.872	0.959	0	2back	Block1	2back/STIM_024.jpg
301.701	1.103	1	2back	Block1	2back/STIM_024.jpg
305.893	0.727	1	2back	Block1	2back/STIM_025.jpg
308.661	0.802	1	2back	Block1	2back/STIM_025.jpg
312.322	0.578	1	2back	Block1	2back/STIM_025.jpg
316.616	0.845	1	2back	Block1	2back/STIM_026.jpg
320.612	0.737	0	2back	Block1	2back/STIM_026.jpg
323.907	0.669	1	2back	Block1	2back/STIM_026.jpg
326.775	0.693	1	2back	Block1	2back/STIM_027.jpg
329.533	0.72	1	2back	Block1	2back/STIM_027.jpg
332.721	0.794	1	2back	Block1	2back/STIM_027.jpg
336.158	0.754	1	2back	Block1	2back/STIM_028.jpg
340.69	0.901	1	2back	Block1	2back/STIM_028.jpg
343.782	1.039	0	2back	Block1	2back/STIM_028.jpg
347.806	1.034	0	2back	Block1	2back/STIM_029.jpg
351.117	1.437	1	2back	Block1	2back/STIM_029.jpg
356.301	0.714	1	2back	Block1	2back/STIM_029.jpg
359.376	1.197	1	2back	Block1	2back/STIM_030.jpg
362.759	1.199	0	2back	Block1	2back/STIM_030.jpg
367.021	1.321	1	2back	Block1	2back/STIM_030.jpg
370.469	1.028	1	2back	Block1	2back/STIM_031.jpg
374.215	0.808	1	2back	Block1	2back/STIM_031.jpg
378.247	1.001	1	2back	Block1	2back/STIM_031.jpg
382.718	1.005	1	2back	Block1	2back/STIM_032.jpg
386.718	1.389	1	2back	Block1	2back/STIM_032.jpg
391.392	1.166	0	2back	Block1	2back/STIM_032.jpg
395.691	1.11	1	2back	Block1	2back/STIM_033.jpg
400.058	1.259	1	2back	Block1	2back/STIM_033.jpg
405.037	0.832	1	2back	Block1	2back/STIM_033.jpg
408.576	0.8	1	2back	Block1	2back/STIM_034.jpg
412.502	1.284	1	2back	Block1	2back/STIM_034.jpg
415.993	0.891	1	2back	Block1	2back/STIM_034.jpg
419.474	1.199	0	2back	Block1	2back/STIM_035.jpg
423.663	0.701	0	2back	Block1	2back/STIM_035.jpg
427.723	1.199	1	2back	Block1	2back/STIM_035.jpg
431.897	1.497	0	2back	Block1	2back/STIM_036.jpg
436.208	1.012	1	2back	Block1	2back/STIM_036.jpg
441.179	0.86	1	2back	Block1	2back/STIM_036.jpg
444.917	1.318	1	2back	Block1	2back/STIM_037.jpg
448.853	0.779	1	2back	Block1	2back/STIM_037.jpg
452.504	1.162	1	2back	Block1	2back/STIM_037.jpg
456.702	0.906	1	2back	Block1	2back/STIM_038.jpg
460.009	1.147	1	2back	Block1	2back/STIM_038.jpg
463.961	0.711	1	2back	Block1	2back/STIM_038.jpg
468.286	1.398	1	2back	Block1	2back/STIM_039.jpg
472.136	0.574	1	2back	Block1	2back/STIM_039.jpg
475.433	1.229	1	2back	Block1	2back/STIM_039.jpg
479.285	0.536	0	0back	Block1	0back/STIM_000.jpg
482.7	0.644	1	0back	Block1	0back/STIM_000.jpg
485.81	0.553	1	0back	Block1	0back/STIM_000.jpg
490.012	0.768	1	0back	Block1	0back/STIM_001.jpg
493.918	0.514	1	0back	Block1	0back/STIM_001.jpg
497.938	0.455	1	0back	Block1	0back/STIM_001.jpg
501.262	0.903	1	0back	Block1	0back/STIM_002.jpg
504.362	0.792	1	0back	Block1	0back/STIM_002.jpg
508.414	0.786	1	0back	Block1	0back/STIM_002.jpg
512.676	0.745	1	0back	Block1	0back/STIM_003.jpg
516.652	0.799	1	0back	Block1	0back/STIM_003.jpg
519.981	0.641	1	0back	Block1	0back/STIM_003.jpg
522.591	0.751	1	0back	Block1	0back/STIM_004.jpg
525.633	0.677	1	0back	Block1	0back/STIM_004.jpg
529.965	0.653	1	0back	Block1	0back/STIM_004.jpg
533.149	0.724	1	0back	Block1	0back/STIM_005.jpg
536.703	0.684	1	0back	Block1	0back/STIM_005.jpg
540.444	0.748	1	0back	Block1	0back/STIM_005.jpg
544.238	0.629	0	0back	Block1	0back/STIM_006.jpg
547.295	0.689	1	0back	Block1	0back/STIM_006.jpg
551.513	0.746	1	0back	Block1	0back/STIM_006.jpg
555.526	0.8	1	0back	Block1	0back/STIM_007.jpg
558.784	0.684	1	0back	Block1	0back/STIM_007.jpg
562.389	0.53	1	0back	Block1	0back/STIM_007.jpg
566.781	0.719	1	0back	Block1	0back/STIM_008.jpg
569.595	0.317	1	0back	Block1	0back/STIM_008.jpg
572.377	0.705	1	0back	Block1	0back/STIM_008.jpg
575.618	0.559	0	0back	Block1	0back/STIM_009.jpg
579.124	0.505	1	0back	Block1	0back/STIM_009.jpg
583.442	0.6	1	0back	Block1	0back/STIM_009.jpg
587.702	0.655	1	0back	Block1	0back/STIM_010.jpg
591.038	0.694	1	0back	Block1	0back/STIM_010.jpg
594.136	0.594	1	0back	Block1	0back/STIM_010.jpg
597.679	0.628	1	0back	Block1	0back/STIM_011.jpg
601.276	0.664	1	0back	Block1	0back/STIM_011.jpg
604.758	0.495	1	0back	Block1	0back/STIM_011.jpg
608.046	0.651	1	0back	Block1	0back/STIM_012.jpg
612.3	0.506	1	0back	Block1	0back/STIM_012.jpg
615.512	0.752	1	0back	Block1	0back/STIM_012.jpg
619.161	0.629	1	0back	Block1	0back/STIM_013.jpg
623.292	0.528	1	0back	Block1	0back/STIM_013.jpg
626.396	0.892	1	0back	Block1	0back/STIM_013.jpg
630.559	0.584	1	0back	Block1	0back/STIM_014.jpg
634.888	0.479	1	0back	Block1	0back/STIM_014.jpg
638.821	0.786	1	0back	Block1	0back/STIM_014.jpg
642.937	0.461	1	0back	Block1	0back/STIM_015.jpg
646.337	0.526	1	0back	Block1	0back/STIM_015.jpg
649.653	0.675	1	0back	Block1	0back/STIM_015.jpg
653.295	0.791	1	0back	Block1	0back/STIM_016.jpg
657.336	0.59	1	0back	Block1	0back/STIM_016.jpg
661.349	0.862	1	0back	Block1	0back/STIM_016.jpg
665.927	0.912	1	0back	Block1	0back/STIM_017.jpg
670.175	0.63	1	0back	Block1	0back/STIM_017.jpg
674.479	0.384	1	0back	Block1	0back/STIM_017.jpg
677.023	0.851	1	0back	Block1	0back/STIM_018.jpg
680.509	0.646	1	0back	Block1	0back/STIM_018.jpg
684.398	0.499	1	0back	Block1	0back/STIM_018.jpg
687.461	0.623	0	0back	Block1	0back/STIM_019.jpg
691.163	0.634	1	0back	Block1	0back/STIM_019.jpg
694.302	0.464	1	0back	Block1	0back/STIM_019.jpg
698.635	0.848	1	2back	Block2	2back/STIM_000.jpg
701.42	0.527	1	2back	Block2	2back/STIM_000.jpg
704.616	0.948	1	2back	Block2	2back/STIM_000.jpg
709.107	0.563	1	2back	Block2	2back/STIM_001.jpg
712.803	0.632	1	2back	Block2	2back/STIM_001.jpg
716.632	0.599	1	2back	Block2	2back/STIM_001.jpg
721.131	0.647	1	2back	Block2	2back/STIM_002.jpg
724.058	0.503	1	2back	Block2	2back/STIM_002.jpg
727.647	0.485	0	2back	Block2	2back/STIM_002.jpg
731.913	1.222	0	2back	Block2	2back/STIM_003.jpg
736.087	1.006	1	2back	Block2	2back/STIM_003.jpg
741.043	0.823	1	2back	Block2	2back/STIM_003.jpg
743.999	1.122	1	2back	Block2	2back/STIM_004.jpg
747.805	0.877	1	2back	Block2	2back/STIM_004.jpg
751.284	0.676	1	2back	Block2	2back/STIM_004.jpg
755.618	0.66	1	2back	Block2	2back/STIM_005.jpg
759.934	0.933	1	2back	Block2	2back/STIM_005.jpg
762.837	0.642	1	2back	Block2	2back/STIM_005.jpg
766.708	0.617	1	2back	Block2	2back/STIM_006.jpg
771.223	0.839	1	2back	Block2	2back/STIM_006.jpg
775.095	0.96	1	2back	Block2	2back/STIM_006.jpg
779.816	0.781	1	2back	Block2	2back/STIM_007.jpg
784.272	0.707	1	2back	Block2	2back/STIM_007.jpg
788.328	0.572	1	2back	Block2	2back/STIM_007.jpg
791.594	1.004	1	2back	Block2	2back/STIM_008.jpg
796.119	0.932	0	2back	Block2	2back/STIM_008.jpg
799.913	0.478	0	2back	Block2	2back/STIM_008.jpg
802.425	0.711	1	2back	Block2	2back/STIM_009.jpg
805.955	0.736	1	2back	Block2	2back/STIM_009.jpg
809.376	0.923	0	2back	Block2	2back/STIM_009.jpg
813.888	0.529	1	2back	Block2	2back/STIM_010.jpg
817.625	0.65	1	2back	Block2	2back/STIM_010.jpg
822.102	0.904	1	2back	Block2	2back/STIM_010.jpg
825.123	1.107	1	2back	Block2	2back/STIM_011.jpg
828.474	1.01	1	2back	Block2	2back/STIM_011.jpg
832.08	0.508	1	2back	Block2	2back/STIM_011.jpg
835.694	0.807	0	2back	Block2	2back/STIM_012.jpg
839.4	1.127	0	2back	Block2	2back/STIM_012.jpg
844.217	0.611	1	2back	Block2	2back/STIM_012.jpg
848.592	0.774	1	2back	Block2	2back/STIM_013.jpg
852.024	0.582	1	2back	Block2	2back/STIM_013.jpg
855.246	0.617	0	2back	Block2	2back/STIM_013.jpg
859.0	0.503	1	2back	Block2	2back/STIM_014.jpg
863.533	0.772	1	2back	Block2	2back/STIM_014.jpg
866.579	1.022	1	2back	Block2	2back/STIM_014.jpg
870.716	0.543	1	2back	Block2	2back/STIM_015.jpg
874.888	0.669	1	2back	Block2	2back/STIM_015.jpg
878.341	0.752	1	2back	Block2	2back/STIM_015.jpg
882.053	1.098	1	2back	Block2	2back/STIM_016.jpg
886.541	1.164	1	2back	Block2	2back/STIM_016.jpg
891.601	1.028	1	2back	Block2	2back/STIM_016.jpg
894.668	0.578	1	2back	Block2	2back/STIM_017.jpg
898.289	0.597	1	2back	Block2	2back/STIM_017.jpg
901.836	0.981	1	2back	Block2	2back/STIM_017.jpg
906.294	0.577	1	2back	Block2	2back/STIM_018.jpg
910.289	1.188	1	2back	Block2	2back/STIM_018.jpg
914.903	0.608	1	2back	Block2	2back/STIM_018.jpg
917.821	0.782	1	2back	Block2	2back/STIM_019.jpg
922.474	0.853	1	2back	Block2	2back/STIM_019.jpg
927.102	0.495	1	2back	Block2	2back/STIM_019.jpg
930.832	0.61	1	2back	Block2	2back/STIM_020.jpg
933.739	0.726	1	2back	Block2	2back/STIM_020.jpg
937.9	0.932	1	2back	Block2	2back/STIM_020.jpg
942.049	0.529	1	2back	Block2	2back/STIM_021.jpg
944.74	0.762	1	2back	Block2	2back/STIM_021.jpg
949.218	0.87	1	2back	Block2	2back/STIM_021.jpg
952.244	0.54	1	2back	Block2	2back/STIM_022.jpg
955.763	1.104	1	2back	Block2	2back/STIM_022.jpg
960.184	0.621	1	2back	Block2	2back/STIM_022.jpg
963.947	1.072	1	2back	Block2	2back/STIM_023.jpg
967.105	0.535	1	2back	Block2	2back/STIM_023.jpg
970.388	0.565	1	2back	Block2	2back/STIM_023.jpg
974.029	0.802	1	2back	Block2	2back/STIM_024.jpg
977.956	0.5	1	2back	Block2	2back/STIM_024.jpg
981.599	0.603	1	2back	Block2	2back/STIM_024.jpg
984.947	0.685	1	2back	Block2	2back/STIM_025.jpg
988.997	0.856	1	2back	Block2	2back/STIM_025.jpg
992.852	1.042	0	2back	Block2	2back/STIM_025.jpg
996.524	1.081	1	2back	Block2	2back/STIM_026.jpg
1000.814	0.964	1	2back	Block2	2back/STIM_026.jpg
1004.214	1.186	1	2back	Block2	2back/STIM_026.jpg
1008.667	1.109	1	2back	Block2	2back/STIM_027.jpg
1011.99	1.196	1	2back	Block2	2back/STIM_027.jpg
1016.326	0.68	1	2back	Block2	2back/STIM_027.jpg
1019.283	0.753	1	2back	Block2	2back/STIM_028.jpg
1022.06	0.695	1	2back	Block2	2back/STIM_028.jpg
1025.327	0.598	1	2back	Block2	2back/STIM_028.jpg
1029.195	0.583	1	2back	Block2	2back/STIM_029.jpg
1031.922	0.919	1	2back	Block2	2back/STIM_029.jpg
1036.723	1.063	0	2back	Block2	2back/STIM_029.jpg
1041.016	0.848	1	2back	Block2	2back/STIM_030.jpg
1045.032	1.099	1	2back	Block2	2back/STIM_030.jpg
1048.822	0.705	1	2back	Block2	2back/STIM_030.jpg
1051.848	1.062	1	2back	Block2	2back/STIM_031.jpg
1055.815	0.856	1	2back	Block2	2back/STIM_031.jpg
1060.265	0.74	1	2back	Block2	2back/STIM_031.jpg
1064.917	0.579	1	2back	Block2	2back/STIM_032.jpg
1068.477	0.895	1	2back	Block2	2back/STIM_032.jpg
1072.632	0.912	1	2back	Block2	2back/STIM_032.jpg
1076.286	0.94	1	2back	Block2	2back/STIM_033.jpg
1080.369	0.593	1	2back	Block2	2back/STIM_033.jpg
1083.911	0.943	1	2back	Block2	2back/STIM_033.jpg
1086.96	0.668	1	2back	Block2	2back/STIM_034.jpg
1090.173	0.871	1	2back	Block2	2back/STIM_034.jpg
1094.432	0.796	1	2back	Block2	2back/STIM_034.jpg
1098.425	0.641	1	2back	Block2	2back/STIM_035.jpg
1101.856	0.918	0	2back	Block2	2back/STIM_035.jpg
1106.415	0.748	0	2back	Block2	2back/STIM_035.jpg
1110.889	1.092	1	2back	Block2	2back/STIM_036.jpg
1115.931	0.959	1	2back	Block2	2back/STIM_036.jpg
1119.407	1.034	1	2back	Block2	2back/STIM_036.jpg
1123.806	1.073	1	2back	Block2	2back/STIM_037.jpg
1127.796	0.701	1	2back	Block2	2back/STIM_037.jpg
1132.094	0.57	1	2back	Block2	2back/STIM_037.jpg
1136.454	0.74	0	2back	Block2	2back/STIM_038.jpg
1139.863	0.695	1	2back	Block2	2back/STIM_038.jpg
1143.016	0.546	1	2back	Block2	2back/STIM_038.jpg
1146.23	0.907	1	2back	Block2	2back/STIM_039.jpg
1149.868	0.451	1	2back	Block2	2back/STIM_039.jpg
1153.911	0.924	1	2back	Block2	2back/STIM_039.jpg
1158.664	0.784	1	0back	Block2	0back/STIM_000.jpg
1163.267	0.729	1	0back	Block2	0back/STIM_000.jpg
1166.117	0.82	1	0back	Block2	0back/STIM_000.jpg
1169.577	0.629	1	0back	Block2	0back/STIM_001.jpg
1172.353	0.464	1	0back	Block2	0back/STIM_001.jpg
1175.729	0.771	1	0back	Block2	0back/STIM_001.jpg
1178.772	0.486	1	0back	Block2	0back/STIM_002.jpg
1182.742	0.549	1	0back	Block2	0back/STIM_002.jpg
1185.918	0.566	1	0back	Block2	0back/STIM_002.jpg
1189.975	0.652	1	0back	Block2	0back/STIM_003.jpg
1193.762	0.608	1	0back	Block2	0back/STIM_003.jpg
1197.741	0.665	1	0back	Block2	0back/STIM_003.jpg
1201.756	0.431	1	0back	Block2	0back/STIM_004.jpg
1204.99	0.53	1	0back	Block2	0back/STIM_004.jpg
1207.61	0.461	1	0back	Block2	0back/STIM_004.jpg
1211.999	0.76	0	0back	Block2	0back/STIM_005.jpg
1214.989	0.491	1	0back	Block2	0back/STIM_005.jpg
1218.953	0.862	1	0back	Block2	0back/STIM_005.jpg
1222.03	0.434	1	0back	Block2	0back/STIM_006.jpg
1224.924	0.515	1	0back	Block2	0back/STIM_006.jpg
1228.236	0.504	1	0back	Block2	0back/STIM_006.jpg
1232.658	0.646	1	0back	Block2	0back/STIM_007.jpg
1236.489	0.817	1	0back	Block2	0back/STIM_007.jpg
1240.696	0.594	0	0back	Block2	0back/STIM_007.jpg
1243.862	0.621	1	0back	Block2	0back/STIM_008.jpg
1246.718	0.897	1	0back	Block2	0back/STIM_008.jpg
1251.179	0.556	1	0back	Block2	0back/STIM_008.jpg
1255.776	0.638	1	0back	Block2	0back/STIM_009.jpg
1260.059	0.815	1	0back	Block2	0back/STIM_009.jpg
1264.269	0.562	1	0back	Block2	0back/STIM_009.jpg
1268.018	0.785	0	0back	Block2	0back/STIM_010.jpg
1271.579	0.464	1	0back	Block2	0back/STIM_010.jpg
1274.017	0.42	1	0back	Block2	0back/STIM_010.jpg
1277.155	0.635	1	0back	Block2	0back/STIM_011.jpg
1279.88	0.763	1	0back	Block2	0back/STIM_011.jpg
1282.842	0.697	1	0back	Block2	0back/STIM_011.jpg
1287.15	0.741	1	0back	Block2	0back/STIM_012.jpg
1291.459	0.804	1	0back	Block2	0back/STIM_012.jpg
1294.242	0.819	1	0back	Block2	0back/STIM_012.jpg
1298.979	0.82	1	0back	Block2	0back/STIM_013.jpg
1302.863	0.521	1	0back	Block2	0back/STIM_013.jpg
1307.096	0.79	1	0back	Block2	0back/STIM_013.jpg
1309.954	0.696	1	0back	Block2	0back/STIM_014.jpg
1313.231	0.691	1	0back	Block2	0back/STIM_014.jpg
1317.404	0.555	1	0back	Block2	0back/STIM_014.jpg
1321.43	0.652	1	0back	Block2	0back/STIM_015.jpg
1325.97	0.463	1	0back	Block2	0back/STIM_015.jpg
1330.322	0.567	1	0back	Block2	0back/STIM_015.jpg
1333.682	0.595	1	0back	Block2	0back/STIM_016.jpg
1337.224	0.528	1	0back	Block2	0back/STIM_016.jpg
1340.327	0.861	1	0back	Block2	0back/STIM_016.jpg
1343.744	0.603	1	0back	Block2	0back/STIM_017.jpg
1346.834	0.709	1	0back	Block2	0back/STIM_017.jpg
1350.318	0.803	1	0back	Block2	0back/STIM_017.jpg
1354.38	0.689	1	0back	Block2	0back/STIM_018.jpg
1357.314	0.498	1	0back	Block2	0back/STIM_018.jpg
1360.753	0.588	1	0back	Block2	0back/STIM_018.jpg
1363.851	0.544	1	0back	Block2	0back/STIM_019.jpg
1366.999	0.666	1	0back	Block2	0back/STIM_019.jpg
1369.837	0.75	1	0back	Block2	0back/STIM_019.jpg
1372.695	0.406	1	2back	Block3	2back/STIM_000.jpg
1376.149	0.969	1	2back	Block3	2back/STIM_000.jpg
1379.267	0.592	1	2back	Block3	2back/STIM_000.jpg
1382.651	1.056	1	2back	Block3	2back/STIM_001.jpg
1386.63	0.523	1	2back	Block3	2back/STIM_001.jpg
1390.788	0.476	1	2back	Block3	2back/STIM_001.jpg
1393.897	0.657	1	2back	Block3	2back/STIM_002.jpg
1397.031	0.945	1	2back	Block3	2back/STIM_002.jpg
1400.726	0.678	1	2back	Block3	2back/STIM_002.jpg
1405.107	0.717	1	2back	Block3	2back/STIM_003.jpg
1407.77	0.724	1	2back	Block3	2back/STIM_003.jpg
1412.254	0.55	1	2back	Block3	2back/STIM_003.jpg
1415.048	0.908	1	2back	Block3	2back/STIM_004.jpg
1419.063	0.581	1	2back	Block3	2back/STIM_004.jpg
1423.058	0.925	1	2back	Block3	2back/STIM_004.jpg
1427.089	0.76	1	2back	Block3	2back/STIM_005.jpg
1430.217	0.731	1	2back	Block3	2back/STIM_005.jpg
1433.442	1.045	1	2back	Block3	2back/STIM_005.jpg
1437.271	0.878	1	2back	Block3	2back/STIM_006.jpg
1440.674	0.744	1	2back	Block3	2back/STIM_006.jpg
1445.298	0.433	1	2back	Block3	2back/STIM_006.jpg
1449.289	0.602	1	2back	Block3	2back/STIM_007.jpg
1452.952	1.044	1	2back	Block3	2back/STIM_007.jpg
1456.008	1.007	1	2back	Block3	2back/STIM_007.jpg
1460.406	0.641	1	2back	Block3	2back/STIM_008.jpg
1463.678	0.829	1	2back	Block3	2back/STIM_008.jpg
1467.359	0.91	1	2back	Block3	2back/STIM_008.jpg
1472.065	0.679	0	2back	Block3	2back/STIM_009.jpg
1475.216	0.572	1	2back	Block3	2back/STIM_009.jpg
1478.571	0.563	1	2back	Block3	2back/STIM_009.jpg
1481.811	0.503	1	2back	Block3	2back/STIM_010.jpg
1485.719	0.461	1	2back	Block3	2back/STIM_010.jpg
1488.276	0.925	1	2back	Block3	2back/STIM_010.jpg
1491.466	0.879	1	2back	Block3	2back/STIM_011.jpg
1495.387	0.457	1	2back	Block3	2back/STIM_011.jpg
1499.547	0.529	1	2back	Block3	2back/STIM_011.jpg
1502.512	0.887	1	2back	Block3	2back/STIM_012.jpg
1505.443	0.99	1	2back	Block3	2back/STIM_012.jpg
1509.231	0.758	1	2back	Block3	2back/STIM_012.jpg
1512.434	1.029	1	2back	Block3	2back/STIM_013.jpg
1515.552	0.558	1	2back	Block3	2back/STIM_013.jpg
1518.064	0.7	1	2back	Block3	2back/STIM_013.jpg
1520.903	0.624	1	2back	Block3	2back/STIM_014.jpg
1523.753	0.958	1	2back	Block3	2back/STIM_014.jpg
1527.985	0.731	1	2back	Block3	2back/STIM_014.jpg
1532.0	0.431	1	2back	Block3	2back/STIM_015.jpg
1534.944	0.765	1	2back	Block3	2back/STIM_015.jpg
1538.915	0.875	1	2back	Block3	2back/STIM_015.jpg
1542.037	0.548	1	2back	Block3	2back/STIM_016.jpg
1546.514	0.426	1	2back	Block3	2back/STIM_016.jpg
1549.441	0.445	1	2back	Block3	2back/STIM_016.jpg
1553.539	0.454	1	2back	Block3	2back/STIM_017.jpg
1556.191	0.88	1	2back	Block3	2back/STIM_017.jpg
1559.673	0.608	0	2back	Block3	2back/STIM_017.jpg
1564.135	0.636	1	2back	Block3	2back/STIM_018.jpg
1567.003	0.724	1	2back	Block3	2back/STIM_018.jpg
1570.007	0.601	1	2back	Block3	2back/STIM_018.jpg
1572.658	0.972	1	2back	Block3	2back/STIM_019.jpg
1575.867	0.449	1	2back	Block3	2back/STIM_019.jpg
1578.982	0.94	1	2back	Block3	2back/STIM_019.jpg
1582.044	0.572	1	2back	Block3	2back/STIM_020.jpg
1585.437	0.635	1	2back	Block3	2back/STIM_020.jpg
1589.904	0.571	1	2back	Block3	2back/STIM_020.jpg
1594.049	0.665	1	2back	Block3	2back/STIM_021.jpg
1598.369	0.516	1	2back	Block3	2back/STIM_021.jpg
1602.627	0.679	1	2back	Block3	2back/STIM_021.jpg
1605.699	0.958	1	2back	Block3	2back/STIM_022.jpg
1609.236	0.988	1	2back	Block3	2back/STIM_022.jpg
1613.357	0.859	1	2back	Block3	2back/STIM_022.jpg
1616.311	0.771	1	2back	Block3	2back/STIM_023.jpg
1620.635	0.493	1	2back	Block3	2back/STIM_023.jpg
1625.055	0.584	1	2back	Block3	2back/STIM_023.jpg
1628.397	0.42	0	2back	Block3	2back/STIM_024.jpg
1631.852	0.697	1	2back	Block3	2back/STIM_024.jpg
1635.425	0.724	1	2back	Block3	2back/STIM_024.jpg
1639.471	0.856	1	2back	Block3	2back/STIM_025.jpg
1642.897	1.011	1	2back	Block3	2back/STIM_025.jpg
1645.999	0.69	1	2back	Block3	2back/STIM_025.jpg
1648.912	0.525	1	2back	Block3	2back/STIM_026.jpg
1651.767	0.763	1	2back	Block3	2back/STIM_026.jpg
1654.632	0.629	1	2back	Block3	2back/STIM_026.jpg
1657.826	0.574	1	2back	Block3	2back/STIM_027.jpg
1660.818	0.936	1	2back	Block3	2back/STIM_027.jpg
1664.676	0.9	1	2back	Block3	2back/STIM_027.jpg
1667.87	0.558	1	2back	Block3	2back/STIM_028.jpg
1671.869	0.426	1	2back	Block3	2back/STIM_028.jpg
1674.846	0.707	1	2back	Block3	2back/STIM_028.jpg
1677.484	0.492	1	2back	Block3	2back/STIM_029.jpg
1679.948	0.753	1	2back	Block3	2back/STIM_029.jpg
1684.575	0.551	1	2back	Block3	2back/STIM_029.jpg
1687.571	0.672	1	2back	Block3	2back/STIM_030.jpg
1690.924	0.408	1	2back	Block3	2back/STIM_030.jpg
1694.297	0.622	1	2back	Block3	2back/STIM_030.jpg
1698.582	0.961	1	2back	Block3	2back/STIM_031.jpg
1703.13	0.809	1	2back	Block3	2back/STIM_031.jpg
1707.671	0.922	1	2back	Block3	2back/STIM_031.jpg
1712.102	0.628	1	2back	Block3	2back/STIM_032.jpg
1716.206	1.027	1	2back	Block3	2back/STIM_032.jpg
1719.496	0.774	1	2back	Block3	2back/STIM_032.jpg
1723.637	0.569	1	2back	Block3	2back/STIM_033.jpg
1726.377	0.939	1	2back	Block3	2back/STIM_033.jpg
1729.338	0.966	1	2back	Block3	2back/STIM_033.jpg
1732.536	0.983	1	2back	Block3	2back/STIM_034.jpg
1736.386	0.445	1	2back	Block3	2back/STIM_034.jpg
1740.246	0.413	1	2back	Block3	2back/STIM_034.jpg
1744.38	0.733	1	2back	Block3	2back/STIM_035.jpg
1748.784	0.599	1	2back	Block3	2back/STIM_035.jpg
1751.819	0.542	1	2back	Block3	2back/STIM_035.jpg
1755.947	0.722	1	2back	Block3	2back/STIM_036.jpg
1759.569	0.536	1	2back	Block3	2back/STIM_036.jpg
1763.199	0.764	1	2back	Block3	2back/STIM_036.jpg
1766.376	0.942	1	2back	Block3	2back/STIM_037.jpg
1770.836	0.79	1	2back	Block3	2back/STIM_037.jpg
1774.399	0.698	1	2back	Block3	2back/STIM_037.jpg
1779.01	0.794	1	2back	Block3	2back/STIM_038.jpg
1783.748	0.847	1	2back	Block3	2back/STIM_038.jpg
1786.727	0.622	1	2back	Block3	2back/STIM_038.jpg
1790.025	0.963	1	2back	Block3	2back/STIM_039.jpg
1793.395	0.517	1	2back	Block3	2back/STIM_039.jpg
1796.73	0.981	1	2back	Block3	2back/STIM_039.jpg
1800.577	0.482	1	0back	Block3	0back/STIM_000.jpg
1804.562	0.884	1	0back	Block3	0back/STIM_000.jpg
1807.996	0.589	1	0back	Block3	0back/STIM_000.jpg
1811.219	0.554	1	0back	Block3	0back/STIM_001.jpg
1814.424	0.621	1	0back	Block3	0back/STIM_001.jpg
1817.522	0.465	1	0back	Block3	0back/STIM_001.jpg
1821.959	0.656	1	0back	Block3	0back/STIM_002.jpg
1825.344	0.509	1	0back	Block3	0back/STIM_002.jpg
1829.429	0.752	1	0back	Block3	0back/STIM_002.jpg
1833.681	0.432	1	0back	Block3	0back/STIM_003.jpg
1837.717	0.539	1	0back	Block3	0back/STIM_003.jpg
1841.447	0.636	1	0back	Block3	0back/STIM_003.jpg
1844.625	0.729	1	0back	Block3	0back/STIM_004.jpg
1848.205	0.404	1	0back	Block3	0back/STIM_004.jpg
1850.864	0.447	1	0back	Block3	0back/STIM_004.jpg
1854.135	0.778	1	0back	Block3	0back/STIM_005.jpg
1857.483	0.58	1	0back	Block3	0back/STIM_005.jpg
1860.614	0.496	1	0back	Block3	0back/STIM_005.jpg
1864.641	0.488	1	0back	Block3	0back/STIM_006.jpg
1867.92	0.676	1	0back	Block3	0back/STIM_006.jpg
1872.523	0.807	1	0back	Block3	0back/STIM_006.jpg
1875.517	0.58	1	0back	Block3	0back/STIM_007.jpg
1879.743	0.548	1	0back	Block3	0back/STIM_007.jpg
1883.831	0.616	1	0back	Block3	0back/STIM_007.jpg
1886.475	0.661	1	0back	Block3	0back/STIM_008.jpg
1890.562	0.759	1	0back	Block3	0back/STIM_008.jpg
1894.61	0.808	1	0back	Block3	0back/STIM_008.jpg
1897.377	0.434	1	0back	Block3	0back/STIM_009.jpg
1900.296	0.564	1	0back	Block3	0back/STIM_009.jpg
1902.923	0.732	1	0back	Block3	0back/STIM_009.jpg
1907.505	0.762	1	0back	Block3	0back/STIM_010.jpg
1911.35	0.408	1	0back	Block3	0back/STIM_010.jpg
1915.754	0.6	1	0back	Block3	0back/STIM_010.jpg
1919.759	0.538	1	0back	Block3	0back/STIM_011.jpg
1923.933	0.438	1	0back	Block3	0back/STIM_011.jpg
1926.852	0.637	1	0back	Block3	0back/STIM_011.jpg
1930.517	0.53	1	0back	Block3	0back/STIM_012.jpg
1934.035	0.69	1	0back	Block3	0back/STIM_012.jpg
1938.467	0.525	1	0back	Block3	0back/STIM_012.jpg
1941.249	0.599	1	0back	Block3	0back/STIM_013.jpg
1944.692	0.553	1	0back	Block3	0back/STIM_013.jpg
1947.652	0.529	1	0back	Block3	0back/STIM_013.jpg
1951.973	0.641	1	0back	Block3	0back/STIM_014.jpg
1954.989	0.702	1	0back	Block3	0back/STIM_014.jpg
1959.015	0.56	1	0back	Block3	0back/STIM_014.jpg
1962.223	0.548	1	0back	Block3	0back/STIM_015.jpg
1966.555	0.677	1	0back	Block3	0back/STIM_015.jpg
1971.011	0.646	1	0back	Block3	0back/STIM_015.jpg
1973.665	0.454	1	0back	Block3	0back/STIM_016.jpg
1977.415	0.594	1	0back	Block3	0back/STIM_016.jpg
1980.426	0.637	1	0back	Block3	0back/STIM_016.jpg
1984.557	0.588	1	0back	Block3	0back/STIM_017.jpg
1988.056	0.529	1	0back	Block3	0back/STIM_017.jpg
1992.473	0.51	1	0back	Block3	0back/STIM_017.jpg
1996.613	0.547	1	0back	Block3	0back/STIM_018.jpg
2000.685	0.797	1	0back	Block3	0back/STIM_018.jpg
2004.47	0.49	1	0back	Block3	0back/STIM_018.jpg
2008.728	0.462	1	0back	Block3	0back/STIM_019.jpg
2013.136	0.619	1	0back	Block3	0back/STIM_019.jpg
2017.119	0.676	1	0back	Block3	0back/STIM_019.jpg
2020.85	1.088	1	2back	Block4	2back/STIM_000.jpg
2024.384	0.918	1	2back	Block4	2back/STIM_000.jpg
2027.4	0.64	1	2back	Block4	2back/STIM_000.jpg
2031.086	0.707	1	2back	Block4	2back/STIM_001.jpg
2034.405	0.79	1	2back	Block4	2back/STIM_001.jpg
2038.745	0.861	1	2back	Block4	2back/STIM_001.jpg
2042.786	0.752	1	2back	Block4	2back/STIM_002.jpg
2046.53	0.85	1	2back	Block4	2back/STIM_002.jpg
2051.121	0.96	1	2back	Block4	2back/STIM_002.jpg
2054.06	0.456	1	2back	Block4	2back/STIM_003.jpg
2058.08	0.487	1	2back	Block4	2back/STIM_003.jpg
2061.271	0.616	1	2back	Block4	2back/STIM_003.jpg
2064.885	0.53	1	2back	Block4	2back/STIM_004.jpg
2068.289	0.499	1	2back	Block4	2back/STIM_004.jpg
2071.144	0.89	1	2back	Block4	2back/STIM_004.jpg
2074.44	0.526	1	2back	Block4	2back/STIM_005.jpg
2077.05	0.891	1	2back	Block4	2back/STIM_005.jpg
2080.114	0.545	1	2back	Block4	2back/STIM_005.jpg
2084.055	0.634	0	2back	Block4	2back/STIM_006.jpg
2088.541	1.006	1	2back	Block4	2back/STIM_006.jpg
2091.873	0.572	1	2back	Block4	2back/STIM_006.jpg
2094.776	0.728	1	2back	Block4	2back/STIM_007.jpg
2098.828	0.781	1	2back	Block4	2back/STIM_007.jpg
2103.362	0.418	1	2back	Block4	2back/STIM_007.jpg
2106.914	0.904	1	2back	Block4	2back/STIM_008.jpg
2110.753	0.853	1	2back	Block4	2back/STIM_008.jpg
2114.363	0.676	1	2back	Block4	2back/STIM_008.jpg
2118.548	1.012	1	2back	Block4	2back/STIM_009.jpg
2122.302	0.806	1	2back	Block4	2back/STIM_009.jpg
2125.832	0.895	1	2back	Block4	2back/STIM_009.jpg
2129.285	0.795	1	2back	Block4	2back/STIM_010.jpg
2133.939	1.028	1	2back	Block4	2back/STIM_010.jpg
2137.624	0.846	1	2back	Block4	2back/STIM_010.jpg
2141.081	0.754	1	2back	Block4	2back/STIM_011.jpg
2144.682	0.841	1	2back	Block4	2back/STIM_011.jpg
2149.206	1.003	1	2back	Block4	2back/STIM_011.jpg
2153.43	0.461	1	2back	Block4	2back/STIM_012.jpg
2157.844	0.552	1	2back	Block4	2back/STIM_012.jpg
2162.15	0.772	1	2back	Block4	2back/STIM_012.jpg
2165.286	0.817	1	2back	Block4	2back/STIM_013.jpg
2169.907	0.928	1	2back	Block4	2back/STIM_013.jpg
2173.226	0.957	1	2back	Block4	2back/STIM_013.jpg
2176.708	0.907	1	2back	Block4	2back/STIM_014.jpg
2180.583	0.729	1	2back	Block4	2back/STIM_014.jpg
2184.184	0.755	1	2back	Block4	2back/STIM_014.jpg
2188.156	1.047	1	2back	Block4	2back/STIM_015.jpg
2191.302	0.714	1	2back	Block4	2back/STIM_015.jpg
2194.711	0.62	1	2back	Block4	2back/STIM_015.jpg
2197.784	0.431	1	2back	Block4	2back/STIM_016.jpg
2201.101	0.888	1	2back	Block4	2back/STIM_016.jpg
2204.91	0.822	1	2back	Block4	2back/STIM_016.jpg
2208.892	0.664	1	2back	Block4	2back/STIM_017.jpg
2212.388	0.761	1	2back	Block4	2back/STIM_017.jpg
2216.641	0.752	1	2back	Block4	2back/STIM_017.jpg
2219.41	0.9	1	2back	Block4	2back/STIM_018.jpg
2223.697	0.582	1	2back	Block4	2back/STIM_018.jpg
2227.001	0.616	1	2back	Block4	2back/STIM_018.jpg
2229.676	0.471	1	2back	Block4	2back/STIM_019.jpg
2233.005	0.809	1	2back	Block4	2back/STIM_019.jpg
2236.812	0.487	1	2back	Block4	2back/STIM_019.jpg
2240.509	0.626	1	2back	Block4	2back/STIM_020.jpg
2243.472	0.409	0	2back	Block4	2back/STIM_020.jpg
2246.174	0.774	1	2back	Block4	2back/STIM_020.jpg
2249.418	0.697	1	2back	Block4	2back/STIM_021.jpg
2252.35	0.683	1	2back	Block4	2back/STIM_021.jpg
2256.133	0.503	1	2back	Block4	2back/STIM_021.jpg
2260.44	0.836	1	2back	Block4	2back/STIM_022.jpg
2264.255	0.965	1	2back	Block4	2back/STIM_022.jpg
2268.431	0.649	1	2back	Block4	2back/STIM_022.jpg
2272.844	0.885	1	2back	Block4	2back/STIM_023.jpg
2275.71	0.62	1	2back	Block4	2back/STIM_023.jpg
2279.162	0.62	1	2back	Block4	2back/STIM_023.jpg
2282.99	0.685	1	2back	Block4	2back/STIM_024.jpg
2287.638	0.582	1	2back	Block4	2back/STIM_024.jpg
2291.01	0.638	1	2back	Block4	2back/STIM_024.jpg
2293.847	0.994	1	2back	Block4	2back/STIM_025.jpg
2297.792	0.914	1	2back	Block4	2back/STIM_025.jpg
2301.06	0.795	1	2back	Block4	2back/STIM_025.jpg
2304.429	0.545	1	2back	Block4	2back/STIM_026.jpg
2308.897	0.569	0	2back	Block4	2back/STIM_026.jpg
2311.962	0.658	1	2back	Block4	2back/STIM_026.jpg
2314.7	0.619	1	2back	Block4	2back/STIM_027.jpg
2317.665	0.593	1	2back	Block4	2back/STIM_027.jpg
2321.695	0.994	1	2back	Block4	2back/STIM_027.jpg
2324.755	0.836	1	2back	Block4	2back/STIM_028.jpg
2329.417	1.038	1	2back	Block4	2back/STIM_028.jpg
2333.569	0.696	1	2back	Block4	2back/STIM_028.jpg
2338.143	0.666	1	2back	Block4	2back/STIM_029.jpg
2341.258	0.978	1	2back	Block4	2back/STIM_029.jpg
2344.827	0.937	1	2back	Block4	2back/STIM_029.jpg
2347.755	0.543	1	2back	Block4	2back/STIM_030.jpg
2350.81	0.453	1	2back	Block4	2back/STIM_030.jpg
2353.504	0.641	1	2back	Block4	2back/STIM_030.jpg
2356.965	0.761	1	2back	Block4	2back/STIM_031.jpg
2359.797	0.56	1	2back	Block4	2back/STIM_031.jpg
2364.292	1.089	1	2back	Block4	2back/STIM_031.jpg
2367.667	0.697	1	2back	Block4	2back/STIM_032.jpg
2371.455	0.641	1	2back	Block4	2back/STIM_032.jpg
2374.95	0.449	1	2back	Block4	2back/STIM_032.jpg
2377.792	0.941	1	2back	Block4	2back/STIM_033.jpg
2382.504	0.509	1	2back	Block4	2back/STIM_033.jpg
2385.2	0.847	1	2back	Block4	2back/STIM_033.jpg
2388.776	0.565	1	2back	Block4	2back/STIM_034.jpg
2391.916	0.524	1	2back	Block4	2back/STIM_034.jpg
2395.506	0.88	1	2back	Block4	2back/STIM_034.jpg
2400.287	0.616	0	2back	Block4	2back/STIM_035.jpg
2403.968	0.369	1	2back	Block4	2back/STIM_035.jpg
2407.318	0.639	1	2back	Block4	2back/STIM_035.jpg
2410.244	1.06	1	2back	Block4	2back/STIM_036.jpg
2414.964	0.885	1	2back	Block4	2back/STIM_036.jpg
2418.816	0.672	1	2back	Block4	2back/STIM_036.jpg
2422.507	0.607	1	2back	Block4	2back/STIM_037.jpg
2426.516	0.556	1	2back	Block4	2back/STIM_037.jpg
2430.728	0.668	1	2back	Block4	2back/STIM_037.jpg
2434.126	0.844	1	2back	Block4	2back/STIM_038.jpg
2438.959	0.597	1	2back	Block4	2back/STIM_038.jpg
2443.21	0.731	1	2back	Block4	2back/STIM_038.jpg
2447.574	0.585	1	2back	Block4	2back/STIM_039.jpg
2451.377	0.625	1	2back	Block4	2back/STIM_039.jpg
2455.562	0.666	1	2back	Block4	2back/STIM_039.jpg
2458.794	0.697	1	0back	Block4	0back/STIM_000.jpg
2462.547	0.663	1	0back	Block4	0back/STIM_000.jpg
2466.848	0.672	1	0back	Block4	0back/STIM_000.jpg
2470.284	0.501	1	0back	Block4	0back/STIM_001.jpg
2473.292	0.808	1	0back	Block4	0back/STIM_001.jpg
2476.379	0.694	1	0back	Block4	0back/STIM_001.jpg
2480.868	0.517	1	0back	Block4	0back/STIM_002.jpg
2484.463	0.458	1	0back	Block4	0back/STIM_002.jpg
2486.979	0.618	1	0back	Block4	0back/STIM_002.jpg
2490.868	0.782	1	0back	Block4	0back/STIM_003.jpg
2494.808	0.828	1	0back	Block4	0back/STIM_003.jpg
2498.722	0.617	1	0back	Block4	0back/STIM_003.jpg
2503.17	0.773	1	0back	Block4	0back/STIM_004.jpg
2506.467	0.633	1	0back	Block4	0back/STIM_004.jpg
2509.113	0.798	1	0back	Block4	0back/STIM_004.jpg
2513.444	0.577	1	0back	Block4	0back/STIM_005.jpg
2516.527	0.473	1	0back	Block4	0back/STIM_005.jpg
2520.61	0.62	1	0back	Block4	0back/STIM_005.jpg
2524.741	0.739	1	0back	Block4	0back/STIM_006.jpg
2528.264	0.515	1	0back	Block4	0back/STIM_006.jpg
2531.912	0.523	1	0back	Block4	0back/STIM_006.jpg
2535.294	0.397	1	0back	Block4	0back/STIM_007.jpg
2538.794	0.47	1	0back	Block4	0back/STIM_007.jpg
2541.619	0.407	1	0back	Block4	0back/STIM_007.jpg
2544.066	0.412	0	0back	Block4	0back/STIM_008.jpg
2547.09	0.556	1	0back	Block4	0back/STIM_008.jpg
2551.222	0.771	1	0back	Block4	0back/STIM_008.jpg
2554.762	0.709	1	0back	Block4	0back/STIM_009.jpg
2559.25	0.68	1	0back	Block4	0back/STIM_009.jpg
2563.498	0.76	1	0back	Block4	0back/STIM_009.jpg
2567.53	0.788	1	0back	Block4	0back/STIM_010.jpg
2570.22	0.833	1	0back	Block4	0back/STIM_010.jpg
2574.032	0.739	1	0back	Block4	0back/STIM_010.jpg
2576.88	0.775	1	0back	Block4	0back/STIM_011.jpg
2580.808	0.62	1	0back	Block4	0back/STIM_011.jpg
2585.289	0.532	1	0back	Block4	0back/STIM_011.jpg
2588.328	0.71	1	0back	Block4	0back/STIM_012.jpg
2591.508	0.605	1	0back	Block4	0back/STIM_012.jpg
2595.395	0.786	1	0back	Block4	0back/STIM_012.jpg
2599.167	0.466	1	0back	Block4	0back/STIM_013.jpg
2603.351	0.539	1	0back	Block4	0back/STIM_013.jpg
2606.35	0.666	1	0back	Block4	0back/STIM_013.jpg
2609.422	0.578	1	0back	Block4	0back/STIM_014.jpg
2613.08	0.447	1	0back	Block4	0back/STIM_014.jpg
2616.683	0.766	1	0back	Block4	0back/STIM_014.jpg
2620.939	0.866	1	0back	Block4	0back/STIM_015.jpg
2624.612	0.561	0	0back	Block4	0back/STIM_015.jpg
2628.07	0.72	1	0back	Block4	0back/STIM_015.jpg
2632.336	0.675	1	0back	Block4	0back/STIM_016.jpg
2636.494	0.8	1	0back	Block4	0back/STIM_016.jpg
2640.673	0.819	1	0back	Block4	0back/STIM_016.jpg
2643.45	0.688	1	0back	Block4	0back/STIM_017.jpg
2646.417	0.653	1	0back	Block4	0back/STIM_017.jpg
2650.154	0.743	1	0back	Block4	0back/STIM_017.jpg
2653.025	0.779	1	0back	Block4	0back/STIM_018.jpg
2655.789	0.669	1	0back	Block4	0back/STIM_018.jpg
2659.497	0.598	1	0back	Block4	0back/STIM_018.jpg
2663.289	0.507	1	0back	Block4	0back/STIM_019.jpg
2666.141	0.62	1	0back	Block4	0back/STIM_019.jpg
2670.145	0.624	1	0back	Block4	0back/STIM_019.jpg
