onset	duration	accuracy_binary	trial_type	learning_stage	stimulus
0.0	1.898	1	regulate	Run1	regulate/STIM_000.jpg
5.675	3.457	1	regulate	Run1	regulate/STIM_000.jpg
11.919	2.812	0	regulate	Run1	regulate/STIM_000.jpg
17.723	2.856	0	regulate	Run1	regulate/STIM_000.jpg
23.786	3.08	1	regulate	Run1	regulate/STIM_001.jpg
28.677	3.59	1	regulate	Run1	regulate/STIM_001.jpg
34.127	2.932	1	regulate	Run1	regulate/STIM_001.jpg
39.282	2.033	1	regulate	Run1	regulate/STIM_001.jpg
43.687	3.01	1	regulate	Run1	regulate/STIM_002.jpg
49.199	3.386	0	regulate	Run1	regulate/STIM_002.jpg
56.067	3.372	1	regulate	Run1	regulate/STIM_002.jpg
62.468	1.587	1	regulate	Run1	regulate/STIM_002.jpg
67.106	2.243	0	regulate	Run1	regulate/STIM_003.jpg
71.447	2.382	1	regulate	Run1	regulate/STIM_003.jpg
77.388	2.872	1	regulate	Run1	regulate/STIM_003.jpg
83.304	3.135	1	regulate	Run1	regulate/STIM_003.jpg
90.009	2.821	1	regulate	Run1	regulate/STIM_004.jpg
95.545	3.152	1	regulate	Run1	regulate/STIM_004.jpg
101.951	2.665	1	regulate	Run1	regulate/STIM_004.jpg
108.117	2.312	1	regulate	Run1	regulate/STIM_004.jpg
112.303	1.773	1	regulate	Run1	regulate/STIM_005.jpg
116.461	3.321	1	regulate	Run1	regulate/STIM_005.jpg
122.743	2.871	1	regulate	Run1	regulate/STIM_005.jpg
127.895	1.51	1	regulate	Run1	regulate/STIM_005.jpg
132.218	2.905	1	regulate	Run1	regulate/STIM_006.jpg
136.974	2.294	1	regulate	Run1	regulate/STIM_006.jpg
143.039	2.902	1	regulate	Run1	regulate/STIM_006.jpg
149.21	1.675	1	regulate	Run1	regulate/STIM_006.jpg
153.312	2.475	1	regulate	Run1	regulate/STIM_007.jpg
158.744	2.048	1	regulate	Run1	regulate/STIM_007.jpg
162.979	2.777	1	regulate	Run1	regulate/STIM_007.jpg
168.927	1.844	1	regulate	Run1	regulate/STIM_007.jpg
172.688	2.235	0	regulate	Run1	regulate/STIM_008.jpg
176.754	3.421	1	regulate	Run1	regulate/STIM_008.jpg
183.051	2.303	1	regulate	Run1	regulate/STIM_008.jpg
187.802	1.453	1	regulate	Run1	regulate/STIM_008.jpg
191.368	3.018	0	regulate	Run1	regulate/STIM_009.jpg
196.947	1.858	1	regulate	Run1	regulate/STIM_009.jpg
202.292	2.587	1	regulate	Run1	regulate/STIM_009.jpg
207.97	3.021	1	regulate	Run1	regulate/STIM_009.jpg
213.935	2.862	1	regulate	Run1	regulate/STIM_010.jpg
219.586	3.07	0	regulate	Run1	regulate/STIM_010.jpg
225.466	3.063	1	regulate	Run1	regulate/STIM_010.jpg
231.126	1.612	1	regulate	Run1	regulate/STIM_010.jpg
235.072	2.849	1	regulate	Run1	regulate/STIM_011.jpg
240.777	2.659	0	regulate	Run1	regulate/STIM_011.jpg
245.281	3.355	1	regulate	Run1	regulate/STIM_011.jpg
250.94	2.828	1	regulate	Run1	regulate/STIM_011.jpg
255.526	1.679	1	regulate	Run1	regulate/STIM_012.jpg
260.785	2.906	1	regulate	Run1	regulate/STIM_012.jpg
267.029	2.803	0	regulate	Run1	regulate/STIM_012.jpg
272.264	1.811	0	regulate	Run1	regulate/STIM_012.jpg
276.349	2.455	0	regulate	Run1	regulate/STIM_013.jpg
280.637	3.02	0	regulate	Run1	regulate/STIM_013.jpg
285.752	2.205	1	regulate	Run1	regulate/STIM_013.jpg
289.984	2.015	1	regulate	Run1	regulate/STIM_013.jpg
294.284	3.814	0	regulate	Run1	regulate/STIM_014.jpg
300.097	2.96	1	regulate	Run1	regulate/STIM_014.jpg
305.268	2.735	1	regulate	Run1	regulate/STIM_014.jpg
311.175	2.674	0	regulate	Run1	regulate/STIM_014.jpg
315.622	1.872	1	regulate	Run1	regulate/STIM_015.jpg
321.167	2.483	1	regulate	Run1	regulate/STIM_015.jpg
327.223	2.232	1	regulate	Run1	regulate/STIM_015.jpg
331.383	2.597	1	regulate	Run1	regulate/STIM_015.jpg
337.415	3.532	1	regulate	Run1	regulate/STIM_016.jpg
344.101	2.952	0	regulate	Run1	regulate/STIM_016.jpg
349.49	2.855	1	regulate	Run1	regulate/STIM_016.jpg
355.076	2.625	1	regulate	Run1	regulate/STIM_016.jpg
359.754	3.846	1	regulate	Run1	regulate/STIM_017.jpg
366.814	2.455	0	regulate	Run1	regulate/STIM_017.jpg
372.459	1.944	1	regulate	Run1	regulate/STIM_017.jpg
377.384	2.537	1	regulate	Run1	regulate/STIM_017.jpg
382.303	2.067	0	regulate	Run1	regulate/STIM_018.jpg
388.035	3.696	1	regulate	Run1	regulate/STIM_018.jpg
393.686	2.283	1	regulate	Run1	regulate/STIM_018.jpg
398.527	2.524	1	regulate	Run1	regulate/STIM_018.jpg
403.852	2.39	1	regulate	Run1	regulate/STIM_019.jpg
408.488	2.281	1	regulate	Run1	regulate/STIM_019.jpg
413.948	3.338	1	regulate	Run1	regulate/STIM_019.jpg
419.756	2.03	1	regulate	Run1	regulate/STIM_019.jpg
425.395	2.518	1	regulate	Run1	regulate/STIM_020.jpg
431.469	3.115	1	regulate	Run1	regulate/STIM_020.jpg
436.946	2.354	1	regulate	Run1	regulate/STIM_020.jpg
441.677	2.691	1	regulate	Run1	regulate/STIM_020.jpg
447.581	2.623	1	regulate	Run1	regulate/STIM_021.jpg
452.166	3.308	1	regulate	Run1	regulate/STIM_021.jpg
459.045	2.135	1	regulate	Run1	regulate/STIM_021.jpg
463.965	1.919	1	regulate	Run1	regulate/STIM_021.jpg
468.525	2.832	1	regulate	Run1	regulate/STIM_022.jpg
473.486	3.534	1	regulate	Run1	regulate/STIM_022.jpg
479.703	3.043	1	regulate	Run1	regulate/STIM_022.jpg
485.957	3.357	1	regulate	Run1	regulate/STIM_022.jpg
492.81	1.856	1	regulate	Run1	regulate/STIM_023.jpg
498.057	2.953	1	regulate	Run1	regulate/STIM_023.jpg
504.459	2.76	1	regulate	Run1	regulate/STIM_023.jpg
510.042	2.221	1	regulate	Run1	regulate/STIM_023.jpg
515.229	3.756	1	regulate	Run1	regulate/STIM_024.jpg
520.96	1.666	1	regulate	Run1	regulate/STIM_024.jpg
525.216	3.068	1	regulate	Run1	regulate/STIM_024.jpg
531.733	1.567	1	regulate	Run1	regulate/STIM_024.jpg
536.42	2.142	0	regulate	Run1	regulate/STIM_025.jpg
541.615	2.152	0	regulate	Run1	regulate/STIM_025.jpg
547.446	2.77	1	regulate	Run1	regulate/STIM_025.jpg
553.441	3.222	1	regulate	Run1	regulate/STIM_025.jpg
560.298	2.529	1	regulate	Run1	regulate/STIM_026.jpg
564.625	2.167	1	regulate	Run1	regulate/STIM_026.jpg
570.025	1.674	1	regulate	Run1	regulate/STIM_026.jpg
574.497	3.121	1	regulate	Run1	regulate/STIM_026.jpg
579.476	3.429	1	regulate	Run1	regulate/STIM_027.jpg
586.466	3.656	1	regulate	Run1	regulate/STIM_027.jpg
593.422	2.723	1	regulate	Run1	regulate/STIM_027.jpg
598.384	1.681	0	regulate	Run1	regulate/STIM_027.jpg
602.141	2.028	1	regulate	Run1	regulate/STIM_028.jpg
607.755	3.291	1	regulate	Run1	regulate/STIM_028.jpg
614.368	3.078	1	regulate	Run1	regulate/STIM_028.jpg
620.033	1.957	1	regulate	Run1	regulate/STIM_028.jpg
624.516	3.77	1	regulate	Run1	regulate/STIM_029.jpg
630.801	2.129	1	regulate	Run1	regulate/STIM_029.jpg
635.86	2.242	1	regulate	Run1	regulate/STIM_029.jpg
640.023	2.198	1	regulate	Run1	regulate/STIM_029.jpg
644.793	1.443	1	observe	Run1	observe/STIM_000.jpg
650.039	1.577	1	observe	Run1	observe/STIM_000.jpg
654.695	1.218	1	observe	Run1	observe/STIM_000.jpg
659.438	1.164	1	observe	Run1	observe/STIM_000.jpg
663.324	1.309	1	observe	Run1	observe/STIM_001.jpg
667.436	1.145	1	observe	Run1	observe/STIM_001.jpg
670.793	1.135	1	observe	Run1	observe/STIM_001.jpg
674.633	1.487	1	observe	Run1	observe/STIM_001.jpg
679.1	1.307	1	observe	Run1	observe/STIM_002.jpg
682.776	1.231	1	observe	Run1	observe/STIM_002.jpg
686.68	1.123	0	observe	Run1	observe/STIM_002.jpg
690.575	1.184	1	observe	Run1	observe/STIM_002.jpg
695.294	1.441	1	observe	Run1	observe/STIM_003.jpg
699.938	1.307	1	observe	Run1	observe/STIM_003.jpg
705.113	1.583	1	observe	Run1	observe/STIM_003.jpg
710.532	1.374	1	observe	Run1	observe/STIM_003.jpg
714.264	1.396	1	observe	Run1	observe/STIM_004.jpg
718.1	1.478	1	observe	Run1	observe/STIM_004.jpg
723.358	1.396	1	observe	Run1	observe/STIM_004.jpg
726.711	1.056	0	observe	Run1	observe/STIM_004.jpg
730.77	1.283	1	observe	Run1	observe/STIM_005.jpg
734.394	1.634	0	observe	Run1	observe/STIM_005.jpg
738.358	1.051	1	observe	Run1	observe/STIM_005.jpg
743.099	1.669	1	observe	Run1	observe/STIM_005.jpg
747.003	0.9	1	observe	Run1	observe/STIM_006.jpg
750.067	1.904	1	observe	Run1	observe/STIM_006.jpg
754.471	1.68	1	observe	Run1	observe/STIM_006.jpg
758.14	0.902	0	observe	Run1	observe/STIM_006.jpg
762.951	0.959	1	observe	Run1	observe/STIM_007.jpg
766.028	1.335	1	observe	Run1	observe/STIM_007.jpg
770.508	1.251	1	observe	Run1	observe/STIM_007.jpg
774.22	0.974	1	observe	Run1	observe/STIM_007.jpg
778.041	1.612	1	observe	Run1	observe/STIM_008.jpg
782.595	0.964	1	observe	Run1	observe/STIM_008.jpg
785.815	1.042	1	observe	Run1	observe/STIM_008.jpg
790.175	1.123	1	observe	Run1	observe/STIM_008.jpg
794.932	1.492	0	observe	Run1	observe/STIM_009.jpg
799.098	0.907	1	observe	Run1	observe/STIM_009.jpg
803.557	1.051	1	observe	Run1	observe/STIM_009.jpg
807.932	1.032	1	observe	Run1	observe/STIM_009.jpg
811.726	1.453	1	observe	Run1	observe/STIM_010.jpg
816.169	1.088	1	observe	Run1	observe/STIM_010.jpg
820.19	1.353	1	observe	Run1	observe/STIM_010.jpg
824.435	1.081	1	observe	Run1	observe/STIM_010.jpg
827.754	1.117	1	observe	Run1	observe/STIM_011.jpg
831.166	1.798	1	observe	Run1	observe/STIM_011.jpg
834.916	1.447	1	observe	Run1	observe/STIM_011.jpg
839.635	1.733	1	observe	Run1	observe/STIM_011.jpg
844.896	1.571	1	observe	Run1	observe/STIM_012.jpg
849.306	1.639	1	observe	Run1	observe/STIM_012.jpg
853.618	1.716	0	observe	Run1	observe/STIM_012.jpg
857.321	1.67	1	observe	Run1	observe/STIM_012.jpg
862.168	0.963	1	observe	Run1	observe/STIM_013.jpg
865.167	1.37	1	observe	Run1	observe/STIM_013.jpg
869.094	1.59	1	observe	Run1	observe/STIM_013.jpg
874.283	1.402	1	observe	Run1	observe/STIM_013.jpg
878.513	1.747	1	observe	Run1	observe/STIM_014.jpg
883.965	0.885	1	observe	Run1	observe/STIM_014.jpg
888.806	1.033	1	observe	Run1	observe/STIM_014.jpg
892.38	1.211	1	observe	Run1	observe/STIM_014.jpg
896.453	1.684	1	observe	Run1	observe/STIM_015.jpg
901.112	1.552	1	observe	Run1	observe/STIM_015.jpg
905.53	1.157	1	observe	Run1	observe/STIM_015.jpg
909.592	1.822	1	observe	Run1	observe/STIM_015.jpg
914.089	1.545	1	observe	Run1	observe/STIM_016.jpg
918.261	1.286	1	observe	Run1	observe/STIM_016.jpg
922.858	1.418	1	observe	Run1	observe/STIM_016.jpg
927.557	0.937	1	observe	Run1	observe/STIM_016.jpg
932.277	0.958	1	observe	Run1	observe/STIM_017.jpg
935.524	1.596	1	observe	Run1	observe/STIM_017.jpg
939.905	1.639	1	observe	Run1	observe/STIM_017.jpg
943.53	1.207	1	observe	Run1	observe/STIM_017.jpg
946.618	1.443	1	observe	Run1	observe/STIM_018.jpg
950.383	1.615	1	observe	Run1	observe/STIM_018.jpg
955.086	1.259	1	observe	Run1	observe/STIM_018.jpg
958.661	1.256	1	observe	Run1	observe/STIM_018.jpg
963.668	1.474	1	observe	Run1	observe/STIM_019.jpg
967.356	1.557	1	observe	Run1	observe/STIM_019.jpg
970.879	1.077	1	observe	Run1	observe/STIM_019.jpg
973.954	0.955	1	observe	Run1	observe/STIM_019.jpg
978.076	2.876	1	regulate	Run2	regulate/STIM_000.jpg
983.014	3.024	1	regulate	Run2	regulate/STIM_000.jpg
987.9	2.877	1	regulate	Run2	regulate/STIM_000.jpg
993.603	2.676	1	regulate	Run2	regulate/STIM_000.jpg
999.905	2.487	1	regulate	Run2	regulate/STIM_001.jpg
1004.55	1.576	1	regulate	Run2	regulate/STIM_001.jpg
1009.667	2.194	1	regulate	Run2	regulate/STIM_001.jpg
1015.618	1.866	1	regulate	Run2	regulate/STIM_001.jpg
1019.351	2.155	1	regulate	Run2	regulate/STIM_002.jpg
1023.881	2.97	1	regulate	Run2	regulate/STIM_002.jpg
1029.579	1.607	1	regulate	Run2	regulate/STIM_002.jpg
1033.074	2.794	1	regulate	Run2	regulate/STIM_002.jpg
1038.985	1.408	1	regulate	Run2	regulate/STIM_003.jpg
1042.888	2.498	1	regulate	Run2	regulate/STIM_003.jpg
1048.641	2.082	1	regulate	Run2	regulate/STIM_003.jpg
1053.746	1.998	0	regulate	Run2	regulate/STIM_003.jpg
1058.569	2.648	1	regulate	Run2	regulate/STIM_004.jpg
1064.606	1.893	1	regulate	Run2	regulate/STIM_004.jpg
1068.963	2.249	0	regulate	Run2	regulate/STIM_004.jpg
1073.024	1.369	1	regulate	Run2	regulate/STIM_004.jpg
1077.961	1.69	1	regulate	Run2	regulate/STIM_005.jpg
1082.107	2.514	1	regulate	Run2	regulate/STIM_005.jpg
1087.124	2.941	1	regulate	Run2	regulate/STIM_005.jpg
1091.852	1.99	1	regulate	Run2	regulate/STIM_005.jpg
1096.323	2.482	1	regulate	Run2	regulate/STIM_006.jpg
1101.656	1.508	0	regulate	Run2	regulate/STIM_006.jpg
1106.714	2.185	0	regulate	Run2	regulate/STIM_006.jpg
1111.025	1.789	1	regulate	Run2	regulate/STIM_006.jpg
1114.903	2.084	1	regulate	Run2	regulate/STIM_007.jpg
1119.208	2.787	1	regulate	Run2	regulate/STIM_007.jpg
1124.323	2.176	1	regulate	Run2	regulate/STIM_007.jpg
1129.348	1.159	1	regulate	Run2	regulate/STIM_007.jpg
1132.702	3.263	1	regulate	Run2	regulate/STIM_008.jpg
1138.277	2.81	1	regulate	Run2	regulate/STIM_008.jpg
1143.132	2.089	1	regulate	Run2	regulate/STIM_008.jpg
1147.712	1.452	1	regulate	Run2	regulate/STIM_008.jpg
1151.931	1.475	1	regulate	Run2	regulate/STIM_009.jpg
1155.586	1.382	1	regulate	Run2	regulate/STIM_009.jpg
1160.211	2.413	1	regulate	Run2	regulate/STIM_009.jpg
1165.849	1.541	1	regulate	Run2	regulate/STIM_009.jpg
1169.736	2.406	1	regulate	Run2	regulate/STIM_010.jpg
1174.905	3.087	1	regulate	Run2	regulate/STIM_010.jpg
1179.643	2.677	1	regulate	Run2	regulate/STIM_010.jpg
1185.396	2.304	1	regulate	Run2	regulate/STIM_010.jpg
1189.851	3.15	1	regulate	Run2	regulate/STIM_011.jpg
1196.182	1.568	1	regulate	Run2	regulate/STIM_011.jpg
1200.499	2.037	1	regulate	Run2	regulate/STIM_011.jpg
1204.946	2.494	1	regulate	Run2	regulate/STIM_011.jpg
1210.583	2.312	1	regulate	Run2	regulate/STIM_012.jpg
1214.934	1.639	1	regulate	Run2	regulate/STIM_012.jpg
1220.244	2.594	0	regulate	Run2	regulate/STIM_012.jpg
1226.342	1.196	1	regulate	Run2	regulate/STIM_012.jpg
1231.389	2.391	1	regulate	Run2	regulate/STIM_013.jpg
1236.012	2.993	1	regulate	Run2	regulate/STIM_013.jpg
1242.229	1.401	1	regulate	Run2	regulate/STIM_013.jpg
1247.0	1.401	1	regulate	Run2	regulate/STIM_013.jpg
1250.74	3.041	1	regulate	Run2	regulate/STIM_014.jpg
1257.172	1.867	1	regulate	Run2	regulate/STIM_014.jpg
1262.485	2.109	1	regulate	Run2	regulate/STIM_014.jpg
1267.215	2.375	1	regulate	Run2	regulate/STIM_014.jpg
1272.239	1.672	1	regulate	Run2	regulate/STIM_015.jpg
1275.803	2.968	1	regulate	Run2	regulate/STIM_015.jpg
1281.149	2.075	1	regulate	Run2	regulate/STIM_015.jpg
1286.033	2.212	1	regulate	Run2	regulate/STIM_015.jpg
1291.864	2.54	1	regulate	Run2	regulate/STIM_016.jpg
1296.671	1.746	1	regulate	Run2	regulate/STIM_016.jpg
1301.426	2.3	1	regulate	Run2	regulate/STIM_016.jpg
1306.53	1.398	1	regulate	Run2	regulate/STIM_016.jpg
1311.782	2.756	0	regulate	Run2	regulate/STIM_017.jpg
1317.191	3.087	1	regulate	Run2	regulate/STIM_017.jpg
1322.927	1.719	1	regulate	Run2	regulate/STIM_017.jpg
1328.331	2.112	0	regulate	Run2	regulate/STIM_017.jpg
1334.114	3.254	0	regulate	Run2	regulate/STIM_018.jpg
1339.195	1.489	1	regulate	Run2	regulate/STIM_018.jpg
1344.217	1.382	0	regulate	Run2	regulate/STIM_018.jpg
1348.085	1.976	1	regulate	Run2	regulate/STIM_018.jpg
1352.272	2.578	1	regulate	Run2	regulate/STIM_019.jpg
1357.512	1.481	1	regulate	Run2	regulate/STIM_019.jpg
1361.836	2.942	0	regulate	Run2	regulate/STIM_019.jpg
1366.732	2.682	1	regulate	Run2	regulate/STIM_019.jpg
1372.781	1.929	1	regulate	Run2	regulate/STIM_020.jpg
1378.104	1.663	0	regulate	Run2	regulate/STIM_020.jpg
1382.621	2.063	1	regulate	Run2	regulate/STIM_020.jpg
1388.328	1.675	1	regulate	Run2	regulate/STIM_020.jpg
1392.761	2.071	1	regulate	Run2	regulate/STIM_021.jpg
1397.713	2.031	1	regulate	Run2	regulate/STIM_021.jpg
1403.304	2.005	1	regulate	Run2	regulate/STIM_021.jpg
1408.219	2.168	1	regulate	Run2	regulate/STIM_021.jpg
1413.428	1.648	0	regulate	Run2	regulate/STIM_022.jpg
1417.895	2.465	0	regulate	Run2	regulate/STIM_022.jpg
1422.229	2.753	1	regulate	Run2	regulate/STIM_022.jpg
1427.839	1.976	1	regulate	Run2	regulate/STIM_022.jpg
1432.515	1.949	0	regulate	Run2	regulate/STIM_023.jpg
1437.861	2.628	1	regulate	Run2	regulate/STIM_023.jpg
1443.125	2.752	1	regulate	Run2	regulate/STIM_023.jpg
1447.752	1.242	1	regulate	Run2	regulate/STIM_023.jpg
1452.489	1.913	1	regulate	Run2	regulate/STIM_024.jpg
1457.01	1.966	1	regulate	Run2	regulate/STIM_024.jpg
1461.726	2.793	1	regulate	Run2	regulate/STIM_024.jpg
1466.576	2.414	1	regulate	Run2	regulate/STIM_024.jpg
1471.278	3.179	1	regulate	Run2	regulate/STIM_025.jpg
1477.883	2.04	1	regulate	Run2	regulate/STIM_025.jpg
1482.093	2.573	1	regulate	Run2	regulate/STIM_025.jpg
1487.799	1.907	1	regulate	Run2	regulate/STIM_025.jpg
1492.268	2.268	1	regulate	Run2	regulate/STIM_026.jpg
1497.532	1.842	1	regulate	Run2	regulate/STIM_026.jpg
1502.759	2.398	1	regulate	Run2	regulate/STIM_026.jpg
1507.375	1.665	1	regulate	Run2	regulate/STIM_026.jpg
1510.979	1.986	1	regulate	Run2	regulate/STIM_027.jpg
1515.865	2.537	1	regulate	Run2	regulate/STIM_027.jpg
1520.375	2.34	1	regulate	Run2	regulate/STIM_027.jpg
1526.121	2.212	1	regulate	Run2	regulate/STIM_027.jpg
1530.815	2.54	0	regulate	Run2	regulate/STIM_028.jpg
1535.572	1.844	1	regulate	Run2	regulate/STIM_028.jpg
1540.047	1.601	1	regulate	Run2	regulate/STIM_028.jpg
1544.506	2.51	0	regulate	Run2	regulate/STIM_028.jpg
1549.878	2.972	1	regulate	Run2	regulate/STIM_029.jpg
1555.055	1.874	1	regulate	Run2	regulate/STIM_029.jpg
1559.961	1.75	0	regulate	Run2	regulate/STIM_029.jpg
1565.053	1.862	1	regulate	Run2	regulate/STIM_029.jpg
1569.577	1.234	1	observe	Run2	observe/STIM_000.jpg
1573.682	1.073	0	observe	Run2	observe/STIM_000.jpg
1577.218	1.39	1	observe	Run2	observe/STIM_000.jpg
1581.452	1.109	1	observe	Run2	observe/STIM_000.jpg
1586.039	1.07	1	observe	Run2	observe/STIM_001.jpg
1590.54	1.439	1	observe	Run2	observe/STIM_001.jpg
1594.653	1.745	1	observe	Run2	observe/STIM_001.jpg
1599.424	1.003	1	observe	Run2	observe/STIM_001.jpg
1603.946	1.376	1	observe	Run2	observe/STIM_002.jpg
1607.675	1.224	1	observe	Run2	observe/STIM_002.jpg
1611.82	1.157	1	observe	Run2	observe/STIM_002.jpg
1616.705	1.231	0	observe	Run2	observe/STIM_002.jpg
1619.988	1.126	1	observe	Run2	observe/STIM_003.jpg
1623.207	1.394	0	observe	Run2	observe/STIM_003.jpg
1627.038	1.281	1	observe	Run2	observe/STIM_003.jpg
1632.142	1.699	1	observe	Run2	observe/STIM_003.jpg
1635.777	1.58	1	observe	Run2	observe/STIM_004.jpg
1640.596	0.95	1	observe	Run2	observe/STIM_004.jpg
1644.6	1.598	0	observe	Run2	observe/STIM_004.jpg
1648.409	1.638	1	observe	Run2	observe/STIM_004.jpg
1653.652	1.449	0	observe	Run2	observe/STIM_005.jpg
1658.307	1.686	1	observe	Run2	observe/STIM_005.jpg
1662.688	1.422	1	observe	Run2	observe/STIM_005.jpg
1666.205	1.044	1	observe	Run2	observe/STIM_005.jpg
1670.989	1.536	1	observe	Run2	observe/STIM_006.jpg
1675.286	1.465	1	observe	Run2	observe/STIM_006.jpg
1678.678	1.732	1	observe	Run2	observe/STIM_006.jpg
1683.278	1.712	1	observe	Run2	observe/STIM_006.jpg
1687.086	1.211	1	observe	Run2	observe/STIM_007.jpg
1691.733	1.147	1	observe	Run2	observe/STIM_007.jpg
1696.676	1.326	1	observe	Run2	observe/STIM_007.jpg
1701.094	1.17	1	observe	Run2	observe/STIM_007.jpg
1704.406	1.082	1	observe	Run2	observe/STIM_008.jpg
1708.01	1.537	1	observe	Run2	observe/STIM_008.jpg
1713.292	1.76	1	observe	Run2	observe/STIM_008.jpg
1717.923	0.97	1	observe	Run2	observe/STIM_008.jpg
1721.157	1.646	1	observe	Run2	observe/STIM_009.jpg
1725.157	0.98	1	observe	Run2	observe/STIM_009.jpg
1729.609	1.382	1	observe	Run2	observe/STIM_009.jpg
1733.725	0.964	1	observe	Run2	observe/STIM_009.jpg
1736.755	1.707	1	observe	Run2	observe/STIM_010.jpg
1740.737	1.011	1	observe	Run2	observe/STIM_010.jpg
1745.452	1.239	1	observe	Run2	observe/STIM_010.jpg
1750.432	0.949	0	observe	Run2	observe/STIM_010.jpg
1753.62	0.867	1	observe	Run2	observe/STIM_011.jpg
1756.91	1.728	1	observe	Run2	observe/STIM_011.jpg
1760.857	1.554	1	observe	Run2	observe/STIM_011.jpg
1765.942	1.772	1	observe	Run2	observe/STIM_011.jpg
1770.746	0.952	1	observe	Run2	observe/STIM_012.jpg
1774.825	1.175	1	observe	Run2	observe/STIM_012.jpg
1778.611	0.993	1	observe	Run2	observe/STIM_012.jpg
1782.988	1.254	1	observe	Run2	observe/STIM_012.jpg
1786.486	1.196	1	observe	Run2	observe/STIM_013.jpg
1790.393	1.235	1	observe	Run2	observe/STIM_013.jpg
1794.297	1.416	0	observe	Run2	observe/STIM_013.jpg
1798.531	1.548	1	observe	Run2	observe/STIM_013.jpg
1802.353	1.16	1	observe	Run2	observe/STIM_014.jpg
1805.688	0.934	1	observe	Run2	observe/STIM_014.jpg
1808.63	1.549	1	observe	Run2	observe/STIM_014.jpg
1812.944	1.564	0	observe	Run2	observe/STIM_014.jpg
1816.441	1.001	1	observe	Run2	observe/STIM_015.jpg
1820.035	1.797	1	observe	Run2	observe/STIM_015.jpg
1825.216	1.685	1	observe	Run2	observe/STIM_015.jpg
1830.365	1.504	1	observe	Run2	observe/STIM_015.jpg
1834.688	1.325	1	observe	Run2	observe/STIM_016.jpg
1839.33	1.173	1	observe	Run2	observe/STIM_016.jpg
1843.258	1.253	1	observe	Run2	observe/STIM_016.jpg
1847.84	0.885	1	observe	Run2	observe/STIM_016.jpg
1851.163	1.716	1	observe	Run2	observe/STIM_017.jpg
1856.323	1.581	0	observe	Run2	observe/STIM_017.jpg
1860.903	1.127	1	observe	Run2	observe/STIM_017.jpg
1864.656	1.727	0	observe	Run2	observe/STIM_017.jpg
1870.079	1.746	1	observe	Run2	observe/STIM_018.jpg
1873.685	1.033	1	observe	Run2	observe/STIM_018.jpg
1877.256	1.229	1	observe	Run2	observe/STIM_018.jpg
1880.349	1.147	1	observe	Run2	observe/STIM_018.jpg
1884.543	1.518	1	observe	Run2	observe/STIM_019.jpg
1888.487	1.318	1	observe	Run2	observe/STIM_019.jpg
1893.593	1.309	1	observe	Run2	observe/STIM_019.jpg
1897.731	1.108	1	observe	Run2	observe/STIM_019.jpg
1900.957	2.066	1	regulate	Run3	regulate/STIM_000.jpg
1905.901	1.751	0	regulate	Run3	regulate/STIM_000.jpg
1909.661	1.806	1	regulate	Run3	regulate/STIM_000.jpg
1915.063	1.745	1	regulate	Run3	regulate/STIM_000.jpg
1919.13	1.193	1	regulate	Run3	regulate/STIM_001.jpg
1923.692	1.798	1	regulate	Run3	regulate/STIM_001.jpg
1928.837	1.81	1	regulate	Run3	regulate/STIM_001.jpg
1933.866	1.322	1	regulate	Run3	regulate/STIM_001.jpg
1937.207	2.158	1	regulate	Run3	regulate/STIM_002.jpg
1943.031	2.283	1	regulate	Run3	regulate/STIM_002.jpg
1948.088	1.476	1	regulate	Run3	regulate/STIM_002.jpg
1951.494	1.843	1	regulate	Run3	regulate/STIM_002.jpg
1956.751	2.514	1	regulate	Run3	regulate/STIM_003.jpg
1962.747	1.516	1	regulate	Run3	regulate/STIM_003.jpg
1967.101	1.418	1	regulate	Run3	regulate/STIM_003.jpg
1972.075	1.816	1	regulate	Run3	regulate/STIM_003.jpg
1977.017	2.428	1	regulate	Run3	regulate/STIM_004.jpg
1981.335	1.91	1	regulate	Run3	regulate/STIM_004.jpg
1986.6	1.39	1	regulate	Run3	regulate/STIM_004.jpg
1990.962	1.362	1	regulate	Run3	regulate/STIM_004.jpg
1995.933	2.506	1	regulate	Run3	regulate/STIM_005.jpg
2000.347	1.795	1	regulate	Run3	regulate/STIM_005.jpg
2003.955	1.973	1	regulate	Run3	regulate/STIM_005.jpg
2008.496	1.49	1	regulate	Run3	regulate/STIM_005.jpg
2012.521	2.051	1	regulate	Run3	regulate/STIM_006.jpg
2018.26	1.459	1	regulate	Run3	regulate/STIM_006.jpg
2022.484	1.881	1	regulate	Run3	regulate/STIM_006.jpg
2026.973	1.978	1	regulate	Run3	regulate/STIM_006.jpg
2031.198	2.188	1	regulate	Run3	regulate/STIM_007.jpg
2035.257	2.209	1	regulate	Run3	regulate/STIM_007.jpg
2041.098	2.568	1	regulate	Run3	regulate/STIM_007.jpg
2047.056	2.398	1	regulate	Run3	regulate/STIM_007.jpg
2052.393	2.069	1	regulate	Run3	regulate/STIM_008.jpg
2057.629	1.867	1	regulate	Run3	regulate/STIM_008.jpg
2062.877	1.356	0	regulate	Run3	regulate/STIM_008.jpg
2067.474	1.639	1	regulate	Run3	regulate/STIM_008.jpg
2072.301	2.336	1	regulate	Run3	regulate/STIM_009.jpg
2077.291	2.654	1	regulate	Run3	regulate/STIM_009.jpg
2082.603	2.452	1	regulate	Run3	regulate/STIM_009.jpg
2088.596	1.28	1	regulate	Run3	regulate/STIM_009.jpg
2092.843	1.975	1	regulate	Run3	regulate/STIM_010.jpg
2098.419	2.369	1	regulate	Run3	regulate/STIM_010.jpg
2103.14	1.487	1	regulate	Run3	regulate/STIM_010.jpg
2106.51	2.595	1	regulate	Run3	regulate/STIM_010.jpg
2111.182	2.592	1	regulate	Run3	regulate/STIM_011.jpg
2116.357	1.198	1	regulate	Run3	regulate/STIM_011.jpg
2120.59	1.328	1	regulate	Run3	regulate/STIM_011.jpg
2124.995	2.426	1	regulate	Run3	regulate/STIM_011.jpg
2130.151	1.624	0	regulate	Run3	regulate/STIM_012.jpg
2133.863	1.475	1	regulate	Run3	regulate/STIM_012.jpg
2138.016	1.464	1	regulate	Run3	regulate/STIM_012.jpg
2141.754	1.886	1	regulate	Run3	regulate/STIM_012.jpg
2146.043	1.942	1	regulate	Run3	regulate/STIM_013.jpg
2150.569	1.409	0	regulate	Run3	regulate/STIM_013.jpg
2154.873	1.701	1	regulate	Run3	regulate/STIM_013.jpg
2158.692	1.48	1	regulate	Run3	regulate/STIM_013.jpg
2162.264	1.349	1	regulate	Run3	regulate/STIM_014.jpg
2167.017	2.552	1	regulate	Run3	regulate/STIM_014.jpg
2172.927	2.457	1	regulate	Run3	regulate/STIM_014.jpg
2178.342	2.05	1	regulate	Run3	regulate/STIM_014.jpg
2182.372	2.101	1	regulate	Run3	regulate/STIM_015.jpg
2187.58	1.324	1	regulate	Run3	regulate/STIM_015.jpg
2192.417	1.297	1	regulate	Run3	regulate/STIM_015.jpg
2195.699	1.181	1	regulate	Run3	regulate/STIM_015.jpg
2199.827	1.345	1	regulate	Run3	regulate/STIM_016.jpg
2204.485	2.043	1	regulate	Run3	regulate/STIM_016.jpg
2209.637	1.55	1	regulate	Run3	regulate/STIM_016.jpg
2213.609	2.348	1	regulate	Run3	regulate/STIM_016.jpg
2219.372	1.666	1	regulate	Run3	regulate/STIM_017.jpg
2223.753	2.574	1	regulate	Run3	regulate/STIM_017.jpg
2229.363	1.756	1	regulate	Run3	regulate/STIM_017.jpg
2234.63	2.083	1	regulate	Run3	regulate/STIM_017.jpg
2240.228	1.191	1	regulate	Run3	regulate/STIM_018.jpg
2243.806	1.693	1	regulate	Run3	regulate/STIM_018.jpg
2248.464	1.972	1	regulate	Run3	regulate/STIM_018.jpg
2253.879	2.271	1	regulate	Run3	regulate/STIM_018.jpg
2259.825	1.476	1	regulate	Run3	regulate/STIM_019.jpg
2264.62	1.74	1	regulate	Run3	regulate/STIM_019.jpg
2269.023	2.418	0	regulate	Run3	regulate/STIM_019.jpg
2274.632	1.81	1	regulate	Run3	regulate/STIM_019.jpg
2280.106	2.424	1	regulate	Run3	regulate/STIM_020.jpg
2285.699	1.988	1	regulate	Run3	regulate/STIM_020.jpg
2289.734	2.376	1	regulate	Run3	regulate/STIM_020.jpg
2294.48	2.435	1	regulate	Run3	regulate/STIM_020.jpg
2300.041	1.346	1	regulate	Run3	regulate/STIM_021.jpg
2305.12	2.566	1	regulate	Run3	regulate/STIM_021.jpg
2311.236	2.354	1	regulate	Run3	regulate/STIM_021.jpg
2316.306	1.856	1	regulate	Run3	regulate/STIM_021.jpg
2320.247	2.626	1	regulate	Run3	regulate/STIM_022.jpg
2325.381	2.434	1	regulate	Run3	regulate/STIM_022.jpg
2331.154	1.586	1	regulate	Run3	regulate/STIM_022.jpg
2336.106	1.306	1	regulate	Run3	regulate/STIM_022.jpg
2340.777	1.399	1	regulate	Run3	regulate/STIM_023.jpg
2344.611	2.752	1	regulate	Run3	regulate/STIM_023.jpg
2350.154	2.248	1	regulate	Run3	regulate/STIM_023.jpg
2356.09	1.671	1	regulate	Run3	regulate/STIM_023.jpg
2361.22	2.174	1	regulate	Run3	regulate/STIM_024.jpg
2366.366	1.667	1	regulate	Run3	regulate/STIM_024.jpg
2370.42	2.395	1	regulate	Run3	regulate/STIM_024.jpg
2375.659	1.466	1	regulate	Run3	regulate/STIM_024.jpg
2380.12	2.518	1	regulate	Run3	regulate/STIM_025.jpg
2385.056	1.145	1	regulate	Run3	regulate/STIM_025.jpg
2389.572	2.541	1	regulate	Run3	regulate/STIM_025.jpg
2394.267	2.069	1	regulate	Run3	regulate/STIM_025.jpg
2399.239	1.433	1	regulate	Run3	regulate/STIM_026.jpg
2403.739	1.841	1	regulate	Run3	regulate/STIM_026.jpg
2407.603	1.39	1	regulate	Run3	regulate/STIM_026.jpg
2411.087	1.634	1	regulate	Run3	regulate/STIM_026.jpg
2414.642	2.494	1	regulate	Run3	regulate/STIM_027.jpg
2420.0	2.636	0	regulate	Run3	regulate/STIM_027.jpg
2424.57	1.609	1	regulate	Run3	regulate/STIM_027.jpg
2429.138	1.706	0	regulate	Run3	regulate/STIM_027.jpg
2433.1	2.432	1	regulate	Run3	regulate/STIM_028.jpg
2438.813	1.467	0	regulate	Run3	regulate/STIM_028.jpg
2442.941	2.104	1	regulate	Run3	regulate/STIM_028.jpg
2448.418	1.431	1	regulate	Run3	regulate/STIM_028.jpg
2452.936	1.341	1	regulate	Run3	regulate/STIM_029.jpg
2456.306	2.176	1	regulate	Run3	regulate/STIM_029.jpg
2460.504	2.576	1	regulate	Run3	regulate/STIM_029.jpg
2465.836	2.416	1	regulate	Run3	regulate/STIM_029.jpg
2470.217	1.342	1	observe	Run3	observe/STIM_000.jpg
2475.333	1.251	1	observe	Run3	observe/STIM_000.jpg
2478.609	1.558	1	observe	Run3	observe/STIM_000.jpg
2482.498	1.753	1	observe	Run3	observe/STIM_000.jpg
2486.27	1.308	1	observe	Run3	observe/STIM_001.jpg
2490.088	1.284	1	observe	Run3	observe/STIM_001.jpg
2494.215	1.372	1	observe	Run3	observe/STIM_001.jpg
2497.67	0.857	1	observe	Run3	observe/STIM_001.jpg
2501.248	1.616	0	observe	Run3	observe/STIM_002.jpg
2505.133	1.133	1	observe	Run3	observe/STIM_002.jpg
2509.643	0.999	1	observe	Run3	observe/STIM_002.jpg
2513.702	1.639	1	observe	Run3	observe/STIM_002.jpg
2518.496	1.346	1	observe	Run3	observe/STIM_003.jpg
2521.632	1.56	1	observe	Run3	observe/STIM_003.jpg
2525.734	1.15	1	observe	Run3	observe/STIM_003.jpg
2530.044	1.333	1	observe	Run3	observe/STIM_003.jpg
2534.187	1.344	1	observe	Run3	observe/STIM_004.jpg
2538.27	1.266	1	observe	Run3	observe/STIM_004.jpg
2542.603	1.744	1	observe	Run3	observe/STIM_004.jpg
2547.103	1.093	1	observe	Run3	observe/STIM_004.jpg
2551.46	0.927	1	observe	Run3	observe/STIM_005.jpg
2554.681	1.365	1	observe	Run3	observe/STIM_005.jpg
2559.817	1.146	1	observe	Run3	observe/STIM_005.jpg
2564.787	1.025	1	observe	Run3	observe/STIM_005.jpg
2569.05	1.095	1	observe	Run3	observe/STIM_006.jpg
2572.713	0.994	1	observe	Run3	observe/STIM_006.jpg
2575.847	0.864	1	observe	Run3	observe/STIM_006.jpg
2580.566	1.318	1	observe	Run3	observe/STIM_006.jpg
2585.301	1.297	1	observe	Run3	observe/STIM_007.jpg
2590.362	0.97	1	observe	Run3	observe/STIM_007.jpg
2593.785	1.403	1	observe	Run3	observe/STIM_007.jpg
2598.214	1.2	1	observe	Run3	observe/STIM_007.jpg
2601.322	1.137	1	observe	Run3	observe/STIM_008.jpg
2605.672	1.579	0	observe	Run3	observe/STIM_008.jpg
2610.223	1.516	1	observe	Run3	observe/STIM_008.jpg
2615.364	1.375	1	observe	Run3	observe/STIM_008.jpg
2618.817	1.626	1	observe	Run3	observe/STIM_009.jpg
2622.996	1.349	1	observe	Run3	observe/STIM_009.jpg
2627.383	1.586	1	observe	Run3	observe/STIM_009.jpg
2632.271	1.308	1	observe	Run3	observe/STIM_009.jpg
2637.269	1.423	1	observe	Run3	observe/STIM_010.jpg
2642.278	1.046	1	observe	Run3	observe/STIM_010.jpg
2646.741	1.678	1	observe	Run3	observe/STIM_010.jpg
2651.289	0.965	1	observe	Run3	observe/STIM_010.jpg
2656.055	1.637	1	observe	Run3	observe/STIM_011.jpg
2660.271	1.508	1	observe	Run3	observe/STIM_011.jpg
2665.374	1.405	1	observe	Run3	observe/STIM_011.jpg
2669.498	1.1	1	observe	Run3	observe/STIM_011.jpg
2674.265	1.204	1	observe	Run3	observe/STIM_012.jpg
2678.163	1.454	0	observe	Run3	observe/STIM_012.jpg
2682.251	1.328	1	observe	Run3	observe/STIM_012.jpg
2687.412	1.127	1	observe	Run3	observe/STIM_012.jpg
2690.927	1.441	1	observe	Run3	observe/STIM_013.jpg
2695.637	1.344	1	observe	Run3	observe/STIM_013.jpg
2700.769	1.258	1	observe	Run3	observe/STIM_013.jpg
2704.9	1.406	1	observe	Run3	observe/STIM_013.jpg
2708.26	0.945	1	observe	Run3	observe/STIM_014.jpg
2712.31	1.75	1	observe	Run3	observe/STIM_014.jpg
2717.823	1.57	1	observe	Run3	observe/STIM_014.jpg
2722.618	1.765	1	observe	Run3	observe/STIM_014.jpg
2726.569	1.204	1	observe	Run3	observe/STIM_015.jpg
2730.608	1.325	1	observe	Run3	observe/STIM_015.jpg
2735.735	1.244	0	observe	Run3	observe/STIM_015.jpg
2739.31	1.84	1	observe	Run3	observe/STIM_015.jpg
2744.496	1.39	0	observe	Run3	observe/STIM_016.jpg
2748.263	1.247	0	observe	Run3	observe/STIM_016.jpg
2751.657	1.363	1	observe	Run3	observe/STIM_016.jpg
2756.731	1.534	1	observe	Run3	observe/STIM_016.jpg
2760.467	1.309	1	observe	Run3	observe/STIM_017.jpg
2764.601	1.615	0	observe	Run3	observe/STIM_017.jpg
2769.417	1.671	0	observe	Run3	observe/STIM_017.jpg
2774.455	1.356	1	observe	Run3	observe/STIM_017.jpg
2779.089	0.964	1	observe	Run3	observe/STIM_018.jpg
2783.315	1.383	0	observe	Run3	observe/STIM_018.jpg
2786.983	1.683	1	observe	Run3	observe/STIM_018.jpg
2790.609	1.09	0	observe	Run3	observe/STIM_018.jpg
2793.678	1.179	1	observe	Run3	observe/STIM_019.jpg
2797.155	1.148	0	observe	Run3	observe/STIM_019.jpg
2802.04	0.93	1	observe	Run3	observe/STIM_019.jpg
2806.726	1.424	1	observe	Run3	observe/STIM_019.jpg
