onset	duration	response_time_ms	trial_type	learning_stage	stimulus	response_port
0.0	2.279	2279.3	navigation	Trial1	navigation/STIM_000.jpg	100
5.729	2.744	2744.1	navigation	Trial1	navigation/STIM_000.jpg	100
11.475	2.224	2223.5	navigation	Trial1	navigation/STIM_000.jpg	100
17.301	2.756	2756.0	navigation	Trial1	navigation/STIM_000.jpg	100
23.178	1.542	1541.5	navigation	Trial1	navigation/STIM_000.jpg	99
28.171	1.844	1843.5	navigation	Trial1	navigation/STIM_000.jpg	99
33.612	4.124	4124.4	navigation	Trial1	navigation/STIM_001.jpg	99
40.422	3.85	3849.8	navigation	Trial1	navigation/STIM_001.jpg	100
46.345	2.032	2031.9	navigation	Trial1	navigation/STIM_001.jpg	100
50.826	1.867	1867.0	navigation	Trial1	navigation/STIM_001.jpg	99
54.934	1.512	1512.3	navigation	Trial1	navigation/STIM_001.jpg	100
59.155	2.005	2005.0	navigation	Trial1	navigation/STIM_001.jpg	100
63.374	2.801	2800.9	navigation	Trial1	navigation/STIM_002.jpg	100
68.744	3.521	3521.4	navigation	Trial1	navigation/STIM_002.jpg	100
75.176	2.534	2533.9	navigation	Trial1	navigation/STIM_002.jpg	100
80.411	3.389	3389.4	navigation	Trial1	navigation/STIM_002.jpg	100
86.539	2.107	2106.8	navigation	Trial1	navigation/STIM_002.jpg	99
91.023	2.32	2320.1	navigation	Trial1	navigation/STIM_002.jpg	100
95.986	2.503	2502.9	navigation	Trial1	navigation/STIM_003.jpg	100
100.527	3.17	3170.1	navigation	Trial1	navigation/STIM_003.jpg	99
106.304	1.575	1574.9	navigation	Trial1	navigation/STIM_003.jpg	100
111.26	3.29	3289.7	navigation	Trial1	navigation/STIM_003.jpg	100
117.108	3.032	3031.8	navigation	Trial1	navigation/STIM_003.jpg	100
123.35	1.619	1619.3	navigation	Trial1	navigation/STIM_003.jpg	99
128.518	3.602	3601.8	navigation	Trial1	navigation/STIM_004.jpg	100
134.272	3.182	3182.2	navigation	Trial1	navigation/STIM_004.jpg	100
139.862	3.688	3688.1	navigation	Trial1	navigation/STIM_004.jpg	99
146.523	1.581	1580.6	navigation	Trial1	navigation/STIM_004.jpg	100
152.0	2.408	2407.9	navigation	Trial1	navigation/STIM_004.jpg	99
157.709	3.113	3113.3	navigation	Trial1	navigation/STIM_004.jpg	100
164.57	3.337	3337.4	navigation	Trial1	navigation/STIM_005.jpg	100
171.351	2.95	2950.5	navigation	Trial1	navigation/STIM_005.jpg	100
176.387	1.522	1522.3	navigation	Trial1	navigation/STIM_005.jpg	99
179.975	2.987	2987.4	navigation	Trial1	navigation/STIM_005.jpg	100
186.263	1.618	1617.5	navigation	Trial1	navigation/STIM_005.jpg	99
190.363	2.152	2152.5	navigation	Trial1	navigation/STIM_005.jpg	99
195.081	2.405	2405.2	navigation	Trial1	navigation/STIM_006.jpg	100
199.763	2.909	2909.0	navigation	Trial1	navigation/STIM_006.jpg	100
205.834	2.624	2624.1	navigation	Trial1	navigation/STIM_006.jpg	99
211.231	2.729	2729.3	navigation	Trial1	navigation/STIM_006.jpg	100
217.45	1.397	1396.7	navigation	Trial1	navigation/STIM_006.jpg	99
221.034	2.551	2550.7	navigation	Trial1	navigation/STIM_006.jpg	99
226.907	3.099	3098.6	navigation	Trial1	navigation/STIM_007.jpg	100
232.226	2.148	2147.6	navigation	Trial1	navigation/STIM_007.jpg	100
236.803	2.412	2412.2	navigation	Trial1	navigation/STIM_007.jpg	99
241.883	2.566	2565.5	navigation	Trial1	navigation/STIM_007.jpg	99
247.209	3.013	3012.9	navigation	Trial1	navigation/STIM_007.jpg	100
253.786	2.768	2767.8	navigation	Trial1	navigation/STIM_007.jpg	99
259.157	1.723	1722.6	navigation	Trial1	navigation/STIM_008.jpg	100
264.785	3.976	3975.8	navigation	Trial1	navigation/STIM_008.jpg	99
272.759	1.772	1771.7	navigation	Trial1	navigation/STIM_008.jpg	100
277.186	2.649	2648.7	navigation	Trial1	navigation/STIM_008.jpg	100
283.022	1.977	1977.3	navigation	Trial1	navigation/STIM_008.jpg	99
288.493	1.589	1589.0	navigation	Trial1	navigation/STIM_008.jpg	100
293.943	3.094	3094.1	navigation	Trial1	navigation/STIM_009.jpg	99
299.162	3.481	3480.9	navigation	Trial1	navigation/STIM_009.jpg	99
305.329	1.77	1770.1	navigation	Trial1	navigation/STIM_009.jpg	99
309.521	2.451	2451.0	navigation	Trial1	navigation/STIM_009.jpg	99
314.697	1.944	1943.8	navigation	Trial1	navigation/STIM_009.jpg	99
320.624	2.235	2235.4	navigation	Trial1	navigation/STIM_009.jpg	100
326.216	3.235	3234.8	navigation	Trial1	navigation/STIM_010.jpg	99
332.01	2.685	2685.1	navigation	Trial1	navigation/STIM_010.jpg	99
337.453	3.379	3378.8	navigation	Trial1	navigation/STIM_010.jpg	100
343.213	3.234	3233.9	navigation	Trial1	navigation/STIM_010.jpg	100
350.071	1.539	1538.8	navigation	Trial1	navigation/STIM_010.jpg	99
354.612	3.052	3051.7	navigation	Trial1	navigation/STIM_010.jpg	100
360.567	3.107	3107.1	navigation	Trial1	navigation/STIM_011.jpg	100
367.553	3.001	3000.9	navigation	Trial1	navigation/STIM_011.jpg	100
373.772	3.198	3198.2	navigation	Trial1	navigation/STIM_011.jpg	99
379.946	2.95	2950.0	navigation	Trial1	navigation/STIM_011.jpg	99
386.767	2.232	2232.3	navigation	Trial1	navigation/STIM_011.jpg	100
392.922	2.841	2840.8	navigation	Trial1	navigation/STIM_011.jpg	99
399.592	1.259	1259.0	pointing	Trial1	pointing/STIM_000.jpg	100
403.145	1.21	1210.2	pointing	Trial1	pointing/STIM_000.jpg	100
408.354	0.817	816.6	pointing	Trial1	pointing/STIM_000.jpg	100
411.437	0.903	902.8	pointing	Trial1	pointing/STIM_000.jpg	100
415.258	0.885	884.7	pointing	Trial1	pointing/STIM_000.jpg	99
419.474	1.219	1219.2	pointing	Trial1	pointing/STIM_000.jpg	99
424.593	0.778	777.8	pointing	Trial1	pointing/STIM_001.jpg	100
428.029	1.072	1071.8	pointing	Trial1	pointing/STIM_001.jpg	100
432.67	1.06	1060.5	pointing	Trial1	pointing/STIM_001.jpg	99
436.899	0.816	816.0	pointing	Trial1	pointing/STIM_001.jpg	100
441.65	1.049	1049.3	pointing	Trial1	pointing/STIM_001.jpg	99
446.692	1.151	1151.4	pointing	Trial1	pointing/STIM_001.jpg	100
451.419	1.058	1058.3	pointing	Trial1	pointing/STIM_002.jpg	99
454.963	1.217	1217.2	pointing	Trial1	pointing/STIM_002.jpg	99
459.206	1.122	1121.6	pointing	Trial1	pointing/STIM_002.jpg	99
464.189	0.705	705.1	pointing	Trial1	pointing/STIM_002.jpg	100
468.799	0.824	823.7	pointing	Trial1	pointing/STIM_002.jpg	99
472.069	1.11	1110.5	pointing	Trial1	pointing/STIM_002.jpg	100
476.676	0.834	833.7	pointing	Trial1	pointing/STIM_003.jpg	99
481.31	1.17	1170.4	pointing	Trial1	pointing/STIM_003.jpg	99
484.558	0.789	788.7	pointing	Trial1	pointing/STIM_003.jpg	100
487.76	1.203	1202.8	pointing	Trial1	pointing/STIM_003.jpg	100
492.612	0.93	930.0	pointing	Trial1	pointing/STIM_003.jpg	100
497.45	1.192	1192.1	pointing	Trial1	pointing/STIM_003.jpg	99
501.658	0.845	845.0	pointing	Trial1	pointing/STIM_004.jpg	100
505.145	0.899	898.9	pointing	Trial1	pointing/STIM_004.jpg	100
509.161	1.134	1134.3	pointing	Trial1	pointing/STIM_004.jpg	100
513.794	0.971	971.1	pointing	Trial1	pointing/STIM_004.jpg	100
518.758	0.881	880.6	pointing	Trial1	pointing/STIM_004.jpg	100
523.328	0.688	688.1	pointing	Trial1	pointing/STIM_004.jpg	99
526.515	0.938	937.7	pointing	Trial1	pointing/STIM_005.jpg	100
529.656	1.029	1029.1	pointing	Trial1	pointing/STIM_005.jpg	99
533.514	0.989	988.9	pointing	Trial1	pointing/STIM_005.jpg	100
538.086	1.249	1248.6	pointing	Trial1	pointing/STIM_005.jpg	100
542.589	0.719	719.1	pointing	Trial1	pointing/STIM_005.jpg	100
546.865	0.871	870.9	pointing	Trial1	pointing/STIM_005.jpg	100
551.152	1.161	1161.4	pointing	Trial1	pointing/STIM_006.jpg	99
554.589	0.764	764.0	pointing	Trial1	pointing/STIM_006.jpg	99
557.967	0.916	915.5	pointing	Trial1	pointing/STIM_006.jpg	99
561.404	0.829	828.8	pointing	Trial1	pointing/STIM_006.jpg	99
564.657	0.929	928.9	pointing	Trial1	pointing/STIM_006.jpg	100
569.384	0.709	708.6	pointing	Trial1	pointing/STIM_006.jpg	100
572.128	0.85	850.0	pointing	Trial1	pointing/STIM_007.jpg	100
575.806	1.159	1158.7	pointing	Trial1	pointing/STIM_007.jpg	99
579.099	0.769	769.2	pointing	Trial1	pointing/STIM_007.jpg	99
582.258	1.111	1110.9	pointing	Trial1	pointing/STIM_007.jpg	100
587.064	1.083	1082.7	pointing	Trial1	pointing/STIM_007.jpg	100
591.231	0.857	857.0	pointing	Trial1	pointing/STIM_007.jpg	99
594.765	0.797	796.9	pointing	Trial1	pointing/STIM_008.jpg	100
599.427	1.161	1161.1	pointing	Trial1	pointing/STIM_008.jpg	99
604.409	1.056	1056.3	pointing	Trial1	pointing/STIM_008.jpg	99
608.505	0.998	997.5	pointing	Trial1	pointing/STIM_008.jpg	99
612.503	0.811	811.3	pointing	Trial1	pointing/STIM_008.jpg	99
615.416	1.212	1212.3	pointing	Trial1	pointing/STIM_008.jpg	99
619.145	1.052	1052.2	pointing	Trial1	pointing/STIM_009.jpg	100
622.75	0.871	870.7	pointing	Trial1	pointing/STIM_009.jpg	99
627.449	0.845	845.1	pointing	Trial1	pointing/STIM_009.jpg	100
631.7	1.138	1138.0	pointing	Trial1	pointing/STIM_009.jpg	100
635.157	1.214	1213.6	pointing	Trial1	pointing/STIM_009.jpg	99
639.905	0.726	726.5	pointing	Trial1	pointing/STIM_009.jpg	100
642.691	1.042	1042.4	pointing	Trial1	pointing/STIM_010.jpg	99
647.242	0.954	954.2	pointing	Trial1	pointing/STIM_010.jpg	99
650.962	1.057	1056.8	pointing	Trial1	pointing/STIM_010.jpg	99
655.257	1.15	1149.6	pointing	Trial1	pointing/STIM_010.jpg	100
660.104	0.714	714.4	pointing	Trial1	pointing/STIM_010.jpg	100
663.665	1.248	1248.0	pointing	Trial1	pointing/STIM_010.jpg	99
668.766	1.044	1044.4	pointing	Trial1	pointing/STIM_011.jpg	100
671.844	1.045	1044.7	pointing	Trial1	pointing/STIM_011.jpg	99
675.165	1.217	1217.1	pointing	Trial1	pointing/STIM_011.jpg	99
679.626	0.846	846.2	pointing	Trial1	pointing/STIM_011.jpg	100
683.524	0.915	914.6	pointing	Trial1	pointing/STIM_011.jpg	100
686.898	1.104	1104.1	pointing	Trial1	pointing/STIM_011.jpg	99
690.749	1.58	1580.1	navigation	Trial2	navigation/STIM_000.jpg	99
696.22	1.591	1591.3	navigation	Trial2	navigation/STIM_000.jpg	99
700.979	2.18	2180.1	navigation	Trial2	navigation/STIM_000.jpg	99
705.633	2.373	2372.9	navigation	Trial2	navigation/STIM_000.jpg	99
710.863	1.934	1933.7	navigation	Trial2	navigation/STIM_000.jpg	99
716.687	1.539	1539.1	navigation	Trial2	navigation/STIM_000.jpg	100
720.93	2.567	2566.8	navigation	Trial2	navigation/STIM_001.jpg	100
726.564	2.576	2575.5	navigation	Trial2	navigation/STIM_001.jpg	100
731.421	2.453	2452.8	navigation	Trial2	navigation/STIM_001.jpg	99
737.117	1.602	1602.5	navigation	Trial2	navigation/STIM_001.jpg	99
741.125	1.909	1909.2	navigation	Trial2	navigation/STIM_001.jpg	100
746.656	1.819	1818.6	navigation	Trial2	navigation/STIM_001.jpg	100
751.391	3.571	3570.7	navigation	Trial2	navigation/STIM_002.jpg	99
758.608	3.339	3338.9	navigation	Trial2	navigation/STIM_002.jpg	99
765.784	2.506	2505.5	navigation	Trial2	navigation/STIM_002.jpg	100
771.75	2.524	2523.8	navigation	Trial2	navigation/STIM_002.jpg	99
777.953	1.884	1883.9	navigation	Trial2	navigation/STIM_002.jpg	100
782.235	2.187	2187.3	navigation	Trial2	navigation/STIM_002.jpg	99
786.741	2.085	2085.1	navigation	Trial2	navigation/STIM_003.jpg	100
790.871	3.176	3176.5	navigation	Trial2	navigation/STIM_003.jpg	100
796.074	1.903	1903.4	navigation	Trial2	navigation/STIM_003.jpg	99
801.664	1.793	1793.3	navigation	Trial2	navigation/STIM_003.jpg	99
807.274	1.488	1487.9	navigation	Trial2	navigation/STIM_003.jpg	100
811.05	2.371	2370.6	navigation	Trial2	navigation/STIM_003.jpg	100
816.596	2.868	2868.3	navigation	Trial2	navigation/STIM_004.jpg	100
823.447	2.026	2026.1	navigation	Trial2	navigation/STIM_004.jpg	99
828.474	3.094	3094.1	navigation	Trial2	navigation/STIM_004.jpg	100
835.021	1.35	1349.7	navigation	Trial2	navigation/STIM_004.jpg	99
838.581	2.931	2930.9	navigation	Trial2	navigation/STIM_004.jpg	99
845.087	1.234	1234.2	navigation	Trial2	navigation/STIM_004.jpg	99
849.264	2.423	2423.4	navigation	Trial2	navigation/STIM_005.jpg	100
855.09	1.777	1776.6	navigation	Trial2	navigation/STIM_005.jpg	99
859.402	2.209	2208.6	navigation	Trial2	navigation/STIM_005.jpg	99
864.681	2.514	2514.5	navigation	Trial2	navigation/STIM_005.jpg	100
870.613	2.334	2334.3	navigation	Trial2	navigation/STIM_005.jpg	99
875.411	1.72	1720.4	navigation	Trial2	navigation/STIM_005.jpg	99
879.613	2.942	2942.4	navigation	Trial2	navigation/STIM_006.jpg	100
886.242	2.384	2384.4	navigation	Trial2	navigation/STIM_006.jpg	100
892.188	2.883	2883.1	navigation	Trial2	navigation/STIM_006.jpg	100
898.507	1.73	1730.3	navigation	Trial2	navigation/STIM_006.jpg	99
903.901	2.339	2339.1	navigation	Trial2	navigation/STIM_006.jpg	100
908.31	2.953	2952.9	navigation	Trial2	navigation/STIM_006.jpg	99
914.476	2.684	2684.2	navigation	Trial2	navigation/STIM_007.jpg	100
919.664	2.247	2246.6	navigation	Trial2	navigation/STIM_007.jpg	100
925.736	1.739	1738.8	navigation	Trial2	navigation/STIM_007.jpg	100
930.85	1.305	1305.0	navigation	Trial2	navigation/STIM_007.jpg	100
935.648	1.207	1207.3	navigation	Trial2	navigation/STIM_007.jpg	99
940.37	2.104	2103.7	navigation	Trial2	navigation/STIM_007.jpg	99
946.264	2.106	2106.2	navigation	Trial2	navigation/STIM_008.jpg	100
951.206	3.111	3111.0	navigation	Trial2	navigation/STIM_008.jpg	100
956.705	1.46	1460.1	navigation	Trial2	navigation/STIM_008.jpg	99
960.272	2.793	2792.6	navigation	Trial2	navigation/STIM_008.jpg	99
965.609	1.654	1654.0	navigation	Trial2	navigation/STIM_008.jpg	99
970.068	1.345	1344.8	navigation	Trial2	navigation/STIM_008.jpg	100
974.203	2.127	2126.8	navigation	Trial2	navigation/STIM_009.jpg	100
978.427	1.894	1894.1	navigation	Trial2	navigation/STIM_009.jpg	100
982.678	1.749	1748.6	navigation	Trial2	navigation/STIM_009.jpg	99
986.829	2.601	2600.7	navigation	Trial2	navigation/STIM_009.jpg	99
991.748	2.239	2239.4	navigation	Trial2	navigation/STIM_009.jpg	99
997.158	2.831	2830.8	navigation	Trial2	navigation/STIM_009.jpg	99
1003.725	2.106	2105.6	navigation	Trial2	navigation/STIM_010.jpg	99
1007.833	2.018	2017.9	navigation	Trial2	navigation/STIM_010.jpg	100
1012.367	2.948	2947.8	navigation	Trial2	navigation/STIM_010.jpg	99
1018.444	2.071	2071.4	navigation	Trial2	navigation/STIM_010.jpg	100
1023.667	2.593	2592.6	navigation	Trial2	navigation/STIM_010.jpg	99
1028.727	1.996	1995.6	navigation	Trial2	navigation/STIM_010.jpg	100
1033.846	1.626	1626.0	navigation	Trial2	navigation/STIM_011.jpg	99
1038.066	2.077	2077.2	navigation	Trial2	navigation/STIM_011.jpg	99
1043.277	3.136	3135.7	navigation	Trial2	navigation/STIM_011.jpg	100
1049.757	1.389	1389.0	navigation	Trial2	navigation/STIM_011.jpg	100
1053.696	1.441	1441.4	navigation	Trial2	navigation/STIM_011.jpg	99
1057.974	1.67	1670.4	navigation	Trial2	navigation/STIM_011.jpg	100
1063.127	1.25	1249.6	pointing	Trial2	pointing/STIM_000.jpg	100
1067.087	1.174	1174.3	pointing	Trial2	pointing/STIM_000.jpg	100
1070.391	0.731	730.7	pointing	Trial2	pointing/STIM_000.jpg	100
1074.626	0.914	913.7	pointing	Trial2	pointing/STIM_000.jpg	100
1077.909	1.232	1231.7	pointing	Trial2	pointing/STIM_000.jpg	99
1081.689	0.867	867.3	pointing	Trial2	pointing/STIM_000.jpg	99
1085.57	0.886	886.1	pointing	Trial2	pointing/STIM_001.jpg	100
1090.312	1.227	1227.4	pointing	Trial2	pointing/STIM_001.jpg	100
1093.909	0.724	723.6	pointing	Trial2	pointing/STIM_001.jpg	100
1098.344	0.865	864.7	pointing	Trial2	pointing/STIM_001.jpg	100
1101.468	1.188	1188.2	pointing	Trial2	pointing/STIM_001.jpg	100
1105.188	0.676	676.5	pointing	Trial2	pointing/STIM_001.jpg	99
1108.18	0.87	870.0	pointing	Trial2	pointing/STIM_002.jpg	99
1112.267	0.703	703.4	pointing	Trial2	pointing/STIM_002.jpg	99
1115.916	0.803	802.6	pointing	Trial2	pointing/STIM_002.jpg	99
1119.752	0.727	726.9	pointing	Trial2	pointing/STIM_002.jpg	99
1123.477	0.997	996.6	pointing	Trial2	pointing/STIM_002.jpg	99
1127.555	1.057	1057.4	pointing	Trial2	pointing/STIM_002.jpg	99
1130.977	1.198	1197.5	pointing	Trial2	pointing/STIM_003.jpg	100
1135.508	0.755	754.8	pointing	Trial2	pointing/STIM_003.jpg	99
1139.243	0.898	897.7	pointing	Trial2	pointing/STIM_003.jpg	99
1143.688	1.137	1136.6	pointing	Trial2	pointing/STIM_003.jpg	100
1146.862	1.23	1229.7	pointing	Trial2	pointing/STIM_003.jpg	99
1150.872	1.23	1230.3	pointing	Trial2	pointing/STIM_003.jpg	99
1154.635	1.23	1230.3	pointing	Trial2	pointing/STIM_004.jpg	100
1158.181	0.962	961.5	pointing	Trial2	pointing/STIM_004.jpg	100
1161.877	1.16	1159.7	pointing	Trial2	pointing/STIM_004.jpg	99
1166.796	1.05	1050.4	pointing	Trial2	pointing/STIM_004.jpg	100
1170.12	0.767	766.7	pointing	Trial2	pointing/STIM_004.jpg	99
1174.299	0.771	771.1	pointing	Trial2	pointing/STIM_004.jpg	100
1178.366	1.11	1110.2	pointing	Trial2	pointing/STIM_005.jpg	100
1182.758	0.752	752.3	pointing	Trial2	pointing/STIM_005.jpg	99
1187.02	0.996	996.2	pointing	Trial2	pointing/STIM_005.jpg	100
1191.464	0.7	699.5	pointing	Trial2	pointing/STIM_005.jpg	100
1194.339	0.961	961.4	pointing	Trial2	pointing/STIM_005.jpg	100
1197.578	1.152	1152.2	pointing	Trial2	pointing/STIM_005.jpg	99
1201.708	0.743	742.6	pointing	Trial2	pointing/STIM_006.jpg	99
1205.85	0.985	984.7	pointing	Trial2	pointing/STIM_006.jpg	99
1209.561	1.222	1221.8	pointing	Trial2	pointing/STIM_006.jpg	99
1213.07	0.785	784.6	pointing	Trial2	pointing/STIM_006.jpg	99
1216.809	0.796	796.3	pointing	Trial2	pointing/STIM_006.jpg	100
1220.09	1.234	1234.4	pointing	Trial2	pointing/STIM_006.jpg	100
1223.383	0.852	852.0	pointing	Trial2	pointing/STIM_007.jpg	100
1226.942	1.079	1078.9	pointing	Trial2	pointing/STIM_007.jpg	99
1231.024	1.161	1161.4	pointing	Trial2	pointing/STIM_007.jpg	100
1235.253	1.031	1031.4	pointing	Trial2	pointing/STIM_007.jpg	100
1239.406	1.181	1180.6	pointing	Trial2	pointing/STIM_007.jpg	100
1243.261	0.697	696.9	pointing	Trial2	pointing/STIM_007.jpg	99
1246.772	1.023	1023.4	pointing	Trial2	pointing/STIM_008.jpg	99
1250.347	1.265	1265.1	pointing	Trial2	pointing/STIM_008.jpg	99
1254.168	0.955	955.2	pointing	Trial2	pointing/STIM_008.jpg	100
1258.451	0.934	934.4	pointing	Trial2	pointing/STIM_008.jpg	99
1261.587	0.849	848.6	pointing	Trial2	pointing/STIM_008.jpg	99
1265.109	1.231	1230.6	pointing	Trial2	pointing/STIM_008.jpg	100
1268.926	0.793	792.7	pointing	Trial2	pointing/STIM_009.jpg	99
1272.485	1.06	1059.5	pointing	Trial2	pointing/STIM_009.jpg	100
1277.331	1.036	1035.5	pointing	Trial2	pointing/STIM_009.jpg	100
1281.826	1.083	1082.8	pointing	Trial2	pointing/STIM_009.jpg	99
1286.379	1.233	1232.8	pointing	Trial2	pointing/STIM_009.jpg	99
1290.81	1.21	1209.8	pointing	Trial2	pointing/STIM_009.jpg	99
1295.065	1.175	1174.6	pointing	Trial2	pointing/STIM_010.jpg	99
1299.328	0.899	899.4	pointing	Trial2	pointing/STIM_010.jpg	99
1303.827	0.676	675.8	pointing	Trial2	pointing/STIM_010.jpg	100
1308.456	0.7	700.0	pointing	Trial2	pointing/STIM_010.jpg	100
1312.589	1.166	1165.9	pointing	Trial2	pointing/STIM_010.jpg	100
1316.4	1.168	1167.9	pointing	Trial2	pointing/STIM_010.jpg	99
1320.865	0.777	776.7	pointing	Trial2	pointing/STIM_011.jpg	99
1324.059	0.975	975.4	pointing	Trial2	pointing/STIM_011.jpg	100
1327.727	1.021	1021.0	pointing	Trial2	pointing/STIM_011.jpg	99
1332.346	1.262	1262.5	pointing	Trial2	pointing/STIM_011.jpg	99
1336.126	1.114	1113.9	pointing	Trial2	pointing/STIM_011.jpg	100
1340.991	0.833	833.3	pointing	Trial2	pointing/STIM_011.jpg	100
1344.214	2.688	2688.5	navigation	Trial3	navigation/STIM_000.jpg	100
1350.436	1.666	1665.9	navigation	Trial3	navigation/STIM_000.jpg	99
1355.769	2.482	2482.0	navigation	Trial3	navigation/STIM_000.jpg	100
1361.908	1.988	1987.9	navigation	Trial3	navigation/STIM_000.jpg	99
1366.4	1.697	1697.0	navigation	Trial3	navigation/STIM_000.jpg	100
1370.885	1.822	1821.9	navigation	Trial3	navigation/STIM_000.jpg	99
1376.542	2.101	2101.4	navigation	Trial3	navigation/STIM_001.jpg	100
1380.83	2.394	2393.9	navigation	Trial3	navigation/STIM_001.jpg	100
1386.804	2.536	2535.5	navigation	Trial3	navigation/STIM_001.jpg	100
1392.857	1.444	1443.5	navigation	Trial3	navigation/STIM_001.jpg	100
1396.992	2.159	2159.1	navigation	Trial3	navigation/STIM_001.jpg	100
1402.482	1.941	1940.7	navigation	Trial3	navigation/STIM_001.jpg	99
1406.628	2.704	2704.1	navigation	Trial3	navigation/STIM_002.jpg	99
1413.175	2.855	2854.9	navigation	Trial3	navigation/STIM_002.jpg	100
1418.043	1.554	1554.2	navigation	Trial3	navigation/STIM_002.jpg	100
1422.531	1.496	1495.6	navigation	Trial3	navigation/STIM_002.jpg	99
1426.262	2.63	2629.6	navigation	Trial3	navigation/STIM_002.jpg	100
1432.223	2.444	2444.0	navigation	Trial3	navigation/STIM_002.jpg	99
1438.515	1.355	1354.9	navigation	Trial3	navigation/STIM_003.jpg	100
1443.033	2.428	2427.5	navigation	Trial3	navigation/STIM_003.jpg	100
1447.795	2.732	2732.1	navigation	Trial3	navigation/STIM_003.jpg	100
1453.149	2.64	2640.4	navigation	Trial3	navigation/STIM_003.jpg	100
1457.838	1.248	1248.0	navigation	Trial3	navigation/STIM_003.jpg	99
1462.743	2.618	2617.8	navigation	Trial3	navigation/STIM_003.jpg	99
1468.148	1.938	1937.9	navigation	Trial3	navigation/STIM_004.jpg	100
1472.962	1.98	1979.9	navigation	Trial3	navigation/STIM_004.jpg	99
1478.928	2.097	2097.2	navigation	Trial3	navigation/STIM_004.jpg	100
1484.58	1.888	1887.9	navigation	Trial3	navigation/STIM_004.jpg	99
1489.824	2.542	2542.4	navigation	Trial3	navigation/STIM_004.jpg	100
1494.611	2.022	2022.5	navigation	Trial3	navigation/STIM_004.jpg	99
1499.881	1.896	1895.5	navigation	Trial3	navigation/STIM_005.jpg	100
1504.491	1.512	1511.7	navigation	Trial3	navigation/STIM_005.jpg	99
1508.023	1.804	1804.1	navigation	Trial3	navigation/STIM_005.jpg	100
1512.627	1.464	1464.0	navigation	Trial3	navigation/STIM_005.jpg	100
1516.543	2.496	2496.2	navigation	Trial3	navigation/STIM_005.jpg	99
1522.133	2.47	2469.5	navigation	Trial3	navigation/STIM_005.jpg	99
1528.559	2.098	2098.0	navigation	Trial3	navigation/STIM_006.jpg	99
1534.371	1.867	1867.2	navigation	Trial3	navigation/STIM_006.jpg	99
1539.648	1.776	1776.4	navigation	Trial3	navigation/STIM_006.jpg	99
1543.844	1.381	1380.9	navigation	Trial3	navigation/STIM_006.jpg	99
1549.06	2.749	2749.2	navigation	Trial3	navigation/STIM_006.jpg	100
1554.231	1.65	1649.8	navigation	Trial3	navigation/STIM_006.jpg	100
1558.202	1.329	1329.2	navigation	Trial3	navigation/STIM_007.jpg	99
1563.378	1.218	1218.4	navigation	Trial3	navigation/STIM_007.jpg	99
1566.902	2.75	2749.8	navigation	Trial3	navigation/STIM_007.jpg	99
1573.538	2.003	2003.0	navigation	Trial3	navigation/STIM_007.jpg	99
1577.616	2.703	2702.7	navigation	Trial3	navigation/STIM_007.jpg	100
1582.968	1.583	1583.2	navigation	Trial3	navigation/STIM_007.jpg	99
1588.212	1.864	1863.6	navigation	Trial3	navigation/STIM_008.jpg	99
1593.176	2.563	2562.9	navigation	Trial3	navigation/STIM_008.jpg	100
1598.802	2.916	2915.5	navigation	Trial3	navigation/STIM_008.jpg	100
1604.402	1.688	1688.0	navigation	Trial3	navigation/STIM_008.jpg	99
1609.849	1.203	1203.1	navigation	Trial3	navigation/STIM_008.jpg	99
1614.12	1.459	1459.4	navigation	Trial3	navigation/STIM_008.jpg	99
1617.941	2.214	2214.1	navigation	Trial3	navigation/STIM_009.jpg	99
1624.084	1.207	1207.1	navigation	Trial3	navigation/STIM_009.jpg	100
1628.212	1.249	1249.3	navigation	Trial3	navigation/STIM_009.jpg	99
1632.355	1.824	1823.8	navigation	Trial3	navigation/STIM_009.jpg	100
1638.102	2.074	2073.8	navigation	Trial3	navigation/STIM_009.jpg	99
1644.121	2.899	2898.8	navigation	Trial3	navigation/STIM_009.jpg	100
1649.065	2.288	2287.9	navigation	Trial3	navigation/STIM_010.jpg	99
1654.947	1.238	1237.6	navigation	Trial3	navigation/STIM_010.jpg	100
1660.103	2.559	2558.7	navigation	Trial3	navigation/STIM_010.jpg	99
1665.034	1.365	1365.2	navigation	Trial3	navigation/STIM_010.jpg	99
1669.349	2.308	2307.6	navigation	Trial3	navigation/STIM_010.jpg	100
1675.026	2.209	2208.7	navigation	Trial3	navigation/STIM_010.jpg	100
1680.294	2.22	2219.6	navigation	Trial3	navigation/STIM_011.jpg	100
1684.657	1.98	1980.3	navigation	Trial3	navigation/STIM_011.jpg	100
1690.582	2.909	2909.4	navigation	Trial3	navigation/STIM_011.jpg	100
1696.259	1.961	1960.6	navigation	Trial3	navigation/STIM_011.jpg	99
1701.914	1.858	1857.9	navigation	Trial3	navigation/STIM_011.jpg	100
1706.444	2.255	2255.2	navigation	Trial3	navigation/STIM_011.jpg	100
1711.255	1.236	1235.7	pointing	Trial3	pointing/STIM_000.jpg	99
1715.323	0.796	796.2	pointing	Trial3	pointing/STIM_000.jpg	99
1718.417	1.109	1108.8	pointing	Trial3	pointing/STIM_000.jpg	100
1722.226	0.805	804.7	pointing	Trial3	pointing/STIM_000.jpg	99
1727.021	0.695	695.4	pointing	Trial3	pointing/STIM_000.jpg	99
1731.397	0.676	676.5	pointing	Trial3	pointing/STIM_000.jpg	99
1734.441	1.208	1207.8	pointing	Trial3	pointing/STIM_001.jpg	100
1738.882	0.993	992.8	pointing	Trial3	pointing/STIM_001.jpg	99
1742.989	0.83	829.8	pointing	Trial3	pointing/STIM_001.jpg	99
1746.667	1.038	1037.8	pointing	Trial3	pointing/STIM_001.jpg	99
1751.277	0.881	880.7	pointing	Trial3	pointing/STIM_001.jpg	100
1755.432	1.103	1103.1	pointing	Trial3	pointing/STIM_001.jpg	100
1760.046	0.748	748.4	pointing	Trial3	pointing/STIM_002.jpg	99
1763.677	0.788	788.5	pointing	Trial3	pointing/STIM_002.jpg	100
1766.762	0.93	929.7	pointing	Trial3	pointing/STIM_002.jpg	99
1769.755	0.915	915.2	pointing	Trial3	pointing/STIM_002.jpg	99
1773.625	1.073	1073.4	pointing	Trial3	pointing/STIM_002.jpg	100
1776.83	0.938	938.3	pointing	Trial3	pointing/STIM_002.jpg	100
1779.871	0.946	945.8	pointing	Trial3	pointing/STIM_003.jpg	100
1784.652	1.01	1010.0	pointing	Trial3	pointing/STIM_003.jpg	99
1789.198	1.105	1104.6	pointing	Trial3	pointing/STIM_003.jpg	99
1792.65	1.259	1258.6	pointing	Trial3	pointing/STIM_003.jpg	99
1796.916	0.72	719.5	pointing	Trial3	pointing/STIM_003.jpg	99
1800.348	0.816	815.7	pointing	Trial3	pointing/STIM_003.jpg	99
1803.448	1.246	1246.4	pointing	Trial3	pointing/STIM_004.jpg	100
1807.802	1.119	1118.9	pointing	Trial3	pointing/STIM_004.jpg	100
1811.216	0.901	901.2	pointing	Trial3	pointing/STIM_004.jpg	100
1815.494	0.718	717.8	pointing	Trial3	pointing/STIM_004.jpg	99
1819.51	1.24	1239.7	pointing	Trial3	pointing/STIM_004.jpg	99
1823.612	0.964	963.5	pointing	Trial3	pointing/STIM_004.jpg	100
1827.041	1.13	1130.2	pointing	Trial3	pointing/STIM_005.jpg	99
1830.855	0.864	863.8	pointing	Trial3	pointing/STIM_005.jpg	99
1834.468	0.932	931.9	pointing	Trial3	pointing/STIM_005.jpg	100
1839.392	1.228	1227.6	pointing	Trial3	pointing/STIM_005.jpg	99
1844.313	1.157	1157.2	pointing	Trial3	pointing/STIM_005.jpg	100
1849.434	0.832	832.5	pointing	Trial3	pointing/STIM_005.jpg	100
1853.16	0.947	946.9	pointing	Trial3	pointing/STIM_006.jpg	99
1857.47	0.969	969.3	pointing	Trial3	pointing/STIM_006.jpg	99
1862.117	1.226	1226.5	pointing	Trial3	pointing/STIM_006.jpg	100
1866.757	1.25	1250.0	pointing	Trial3	pointing/STIM_006.jpg	100
1870.237	0.732	731.7	pointing	Trial3	pointing/STIM_006.jpg	100
1874.468	1.115	1115.1	pointing	Trial3	pointing/STIM_006.jpg	99
1878.683	1.196	1195.6	pointing	Trial3	pointing/STIM_007.jpg	99
1882.024	1.009	1008.6	pointing	Trial3	pointing/STIM_007.jpg	100
1886.063	1.258	1258.3	pointing	Trial3	pointing/STIM_007.jpg	99
1891.31	0.992	992.3	pointing	Trial3	pointing/STIM_007.jpg	100
1896.093	0.996	995.8	pointing	Trial3	pointing/STIM_007.jpg	100
1899.217	1.151	1151.3	pointing	Trial3	pointing/STIM_007.jpg	99
1903.159	1.1	1100.2	pointing	Trial3	pointing/STIM_008.jpg	99
1907.909	0.784	783.6	pointing	Trial3	pointing/STIM_008.jpg	100
1912.268	1.219	1219.0	pointing	Trial3	pointing/STIM_008.jpg	99
1917.018	0.876	875.8	pointing	Trial3	pointing/STIM_008.jpg	99
1921.607	0.893	893.3	pointing	Trial3	pointing/STIM_008.jpg	100
1925.473	0.854	853.6	pointing	Trial3	pointing/STIM_008.jpg	99
1928.628	0.79	790.4	pointing	Trial3	pointing/STIM_009.jpg	99
1933.112	1.165	1165.0	pointing	Trial3	pointing/STIM_009.jpg	100
1938.262	0.774	774.2	pointing	Trial3	pointing/STIM_009.jpg	100
1941.098	0.944	944.5	pointing	Trial3	pointing/STIM_009.jpg	100
1944.752	0.816	816.4	pointing	Trial3	pointing/STIM_009.jpg	99
1947.625	1.138	1137.9	pointing	Trial3	pointing/STIM_009.jpg	100
1951.519	0.972	971.8	pointing	Trial3	pointing/STIM_010.jpg	99
1955.802	0.898	898.4	pointing	Trial3	pointing/STIM_010.jpg	100
1958.761	0.912	912.5	pointing	Trial3	pointing/STIM_010.jpg	99
1962.773	0.782	782.3	pointing	Trial3	pointing/STIM_010.jpg	100
1965.768	1.168	1168.3	pointing	Trial3	pointing/STIM_010.jpg	99
1969.729	0.838	838.2	pointing	Trial3	pointing/STIM_010.jpg	99
1974.037	0.782	782.1	pointing	Trial3	pointing/STIM_011.jpg	100
1978.17	0.756	756.5	pointing	Trial3	pointing/STIM_011.jpg	100
1980.993	1.205	1204.9	pointing	Trial3	pointing/STIM_011.jpg	99
1986.188	0.894	894.4	pointing	Trial3	pointing/STIM_011.jpg	100
1989.801	0.841	840.7	pointing	Trial3	pointing/STIM_011.jpg	100
1994.079	1.256	1255.9	pointing	Trial3	pointing/STIM_011.jpg	99
