onset	duration	accuracy_binary	trial_type	learning_stage	stimulus
0.0	2.279	0	navigation	Trial1	navigation/STIM_000.jpg
5.729	2.744	1	navigation	Trial1	navigation/STIM_000.jpg
11.475	2.224	0	navigation	Trial1	navigation/STIM_000.jpg
17.301	2.756	1	navigation	Trial1	navigation/STIM_000.jpg
23.178	1.542	0	navigation	Trial1	navigation/STIM_000.jpg
28.171	1.844	1	navigation	Trial1	navigation/STIM_000.jpg
33.612	4.124	1	navigation	Trial1	navigation/STIM_001.jpg
40.422	3.85	1	navigation	Trial1	navigation/STIM_001.jpg
46.345	2.032	0	navigation	Trial1	navigation/STIM_001.jpg
50.826	1.867	1	navigation	Trial1	navigation/STIM_001.jpg
54.934	1.512	0	navigation	Trial1	navigation/STIM_001.jpg
59.155	2.005	0	navigation	Trial1	navigation/STIM_001.jpg
63.374	2.801	0	navigation	Trial1	navigation/STIM_002.jpg
68.744	3.521	0	navigation	Trial1	navigation/STIM_002.jpg
75.176	2.534	1	navigation	Trial1	navigation/STIM_002.jpg
80.411	3.389	0	navigation	Trial1	navigation/STIM_002.jpg
86.539	2.107	0	navigation	Trial1	navigation/STIM_002.jpg
91.023	2.32	0	navigation	Trial1	navigation/STIM_002.jpg
95.986	2.503	0	navigation	Trial1	navigation/STIM_003.jpg
100.527	3.17	1	navigation	Trial1	navigation/STIM_003.jpg
106.304	1.575	1	navigation	Trial1	navigation/STIM_003.jpg
111.26	3.29	1	navigation	Trial1	navigation/STIM_003.jpg
117.108	3.032	1	navigation	Trial1	navigation/STIM_003.jpg
123.35	1.619	0	navigation	Trial1	navigation/STIM_003.jpg
128.518	3.602	1	navigation	Trial1	navigation/STIM_004.jpg
134.272	3.182	0	navigation	Trial1	navigation/STIM_004.jpg
139.862	3.688	1	navigation	Trial1	navigation/STIM_004.jpg
146.523	1.581	1	navigation	Trial1	navigation/STIM_004.jpg
152.0	2.408	1	navigation	Trial1	navigation/STIM_004.jpg
157.709	3.113	1	navigation	Trial1	navigation/STIM_004.jpg
164.57	3.337	1	navigation	Trial1	navigation/STIM_005.jpg
171.351	2.95	1	navigation	Trial1	navigation/STIM_005.jpg
176.387	1.522	1	navigation	Trial1	navigation/STIM_005.jpg
179.975	2.987	0	navigation	Trial1	navigation/STIM_005.jpg
186.263	1.618	1	navigation	Trial1	navigation/STIM_005.jpg
190.363	2.152	1	navigation	Trial1	navigation/STIM_005.jpg
195.081	2.405	1	navigation	Trial1	navigation/STIM_006.jpg
199.763	2.909	1	navigation	Trial1	navigation/STIM_006.jpg
205.834	2.624	1	navigation	Trial1	navigation/STIM_006.jpg
211.231	2.729	1	navigation	Trial1	navigation/STIM_006.jpg
217.45	1.397	0	navigation	Trial1	navigation/STIM_006.jpg
221.034	2.551	1	navigation	Trial1	navigation/STIM_006.jpg
226.907	3.099	1	navigation	Trial1	navigation/STIM_007.jpg
232.226	2.148	1	navigation	Trial1	navigation/STIM_007.jpg
236.803	2.412	1	navigation	Trial1	navigation/STIM_007.jpg
241.883	2.566	0	navigation	Trial1	navigation/STIM_007.jpg
247.209	3.013	0	navigation	Trial1	navigation/STIM_007.jpg
253.786	2.768	0	navigation	Trial1	navigation/STIM_007.jpg
259.157	1.723	1	navigation	Trial1	navigation/STIM_008.jpg
264.785	3.976	1	navigation	Trial1	navigation/STIM_008.jpg
272.759	1.772	0	navigation	Trial1	navigation/STIM_008.jpg
277.186	2.649	0	navigation	Trial1	navigation/STIM_008.jpg
283.022	1.977	1	navigation	Trial1	navigation/STIM_008.jpg
288.493	1.589	1	navigation	Trial1	navigation/STIM_008.jpg
293.943	3.094	0	navigation	Trial1	navigation/STIM_009.jpg
299.162	3.481	1	navigation	Trial1	navigation/STIM_009.jpg
305.329	1.77	1	navigation	Trial1	navigation/STIM_009.jpg
309.521	2.451	1	navigation	Trial1	navigation/STIM_009.jpg
314.697	1.944	1	navigation	Trial1	navigation/STIM_009.jpg
320.624	2.235	0	navigation	Trial1	navigation/STIM_009.jpg
326.216	3.235	1	navigation	Trial1	navigation/STIM_010.jpg
332.01	2.685	1	navigation	Trial1	navigation/STIM_010.jpg
337.453	3.379	1	navigation	Trial1	navigation/STIM_010.jpg
343.213	3.234	1	navigation	Trial1	navigation/STIM_010.jpg
350.071	1.539	1	navigation	Trial1	navigation/STIM_010.jpg
354.612	3.052	1	navigation	Trial1	navigation/STIM_010.jpg
360.567	3.107	1	navigation	Trial1	navigation/STIM_011.jpg
367.553	3.001	1	navigation	Trial1	navigation/STIM_011.jpg
373.772	3.198	1	navigation	Trial1	navigation/STIM_011.jpg
379.946	2.95	1	navigation	Trial1	navigation/STIM_011.jpg
386.767	2.232	1	navigation	Trial1	navigation/STIM_011.jpg
392.922	2.841	1	navigation	Trial1	navigation/STIM_011.jpg
399.592	1.259	1	pointing	Trial1	pointing/STIM_000.jpg
403.145	1.21	1	pointing	Trial1	pointing/STIM_000.jpg
408.354	0.817	1	pointing	Trial1	pointing/STIM_000.jpg
411.437	0.903	1	pointing	Trial1	pointing/STIM_000.jpg
415.258	0.885	1	pointing	Trial1	pointing/STIM_000.jpg
419.474	1.219	1	pointing	Trial1	pointing/STIM_000.jpg
424.593	0.778	1	pointing	Trial1	pointing/STIM_001.jpg
428.029	1.072	1	pointing	Trial1	pointing/STIM_001.jpg
432.67	1.06	1	pointing	Trial1	pointing/STIM_001.jpg
436.899	0.816	1	pointing	Trial1	pointing/STIM_001.jpg
441.65	1.049	1	pointing	Trial1	pointing/STIM_001.jpg
446.692	1.151	1	pointing	Trial1	pointing/STIM_001.jpg
451.419	1.058	1	pointing	Trial1	pointing/STIM_002.jpg
454.963	1.217	1	pointing	Trial1	pointing/STIM_002.jpg
459.206	1.122	1	pointing	Trial1	pointing/STIM_002.jpg
464.189	0.705	1	pointing	Trial1	pointing/STIM_002.jpg
468.799	0.824	1	pointing	Trial1	pointing/STIM_002.jpg
472.069	1.11	1	pointing	Trial1	pointing/STIM_002.jpg
476.676	0.834	1	pointing	Trial1	pointing/STIM_003.jpg
481.31	1.17	0	pointing	Trial1	pointing/STIM_003.jpg
484.558	0.789	1	pointing	Trial1	pointing/STIM_003.jpg
487.76	1.203	1	pointing	Trial1	pointing/STIM_003.jpg
492.612	0.93	1	pointing	Trial1	pointing/STIM_003.jpg
497.45	1.192	1	pointing	Trial1	pointing/STIM_003.jpg
501.658	0.845	1	pointing	Trial1	pointing/STIM_004.jpg
505.145	0.899	1	pointing	Trial1	pointing/STIM_004.jpg
509.161	1.134	1	pointing	Trial1	pointing/STIM_004.jpg
513.794	0.971	1	pointing	Trial1	pointing/STIM_004.jpg
518.758	0.881	1	pointing	Trial1	pointing/STIM_004.jpg
523.328	0.688	1	pointing	Trial1	pointing/STIM_004.jpg
526.515	0.938	1	pointing	Trial1	pointing/STIM_005.jpg
529.656	1.029	1	pointing	Trial1	pointing/STIM_005.jpg
533.514	0.989	1	pointing	Trial1	pointing/STIM_005.jpg
538.086	1.249	1	pointing	Trial1	pointing/STIM_005.jpg
542.589	0.719	1	pointing	Trial1	pointing/STIM_005.jpg
546.865	0.871	1	pointing	Trial1	pointing/STIM_005.jpg
551.152	1.161	1	pointing	Trial1	pointing/STIM_006.jpg
554.589	0.764	1	pointing	Trial1	pointing/STIM_006.jpg
557.967	0.916	1	pointing	Trial1	pointing/STIM_006.jpg
561.404	0.829	1	pointing	Trial1	pointing/STIM_006.jpg
564.657	0.929	1	pointing	Trial1	pointing/STIM_006.jpg
569.384	0.709	0	pointing	Trial1	pointing/STIM_006.jpg
572.128	0.85	1	pointing	Trial1	pointing/STIM_007.jpg
575.806	1.159	1	pointing	Trial1	pointing/STIM_007.jpg
579.099	0.769	1	pointing	Trial1	pointing/STIM_007.jpg
582.258	1.111	1	pointing	Trial1	pointing/STIM_007.jpg
587.064	1.083	1	pointing	Trial1	pointing/STIM_007.jpg
591.231	0.857	1	pointing	Trial1	pointing/STIM_007.jpg
594.765	0.797	1	pointing	Trial1	pointing/STIM_008.jpg
599.427	1.161	1	pointing	Trial1	pointing/STIM_008.jpg
604.409	1.056	1	pointing	Trial1	pointing/STIM_008.jpg
608.505	0.998	1	pointing	Trial1	pointing/STIM_008.jpg
612.503	0.811	1	pointing	Trial1	pointing/STIM_008.jpg
615.416	1.212	1	pointing	Trial1	pointing/STIM_008.jpg
619.145	1.052	1	pointing	Trial1	pointing/STIM_009.jpg
622.75	0.871	1	pointing	Trial1	pointing/STIM_009.jpg
627.449	0.845	0	pointing	Trial1	pointing/STIM_009.jpg
631.7	1.138	1	pointing	Trial1	pointing/STIM_009.jpg
635.157	1.214	1	pointing	Trial1	pointing/STIM_009.jpg
639.905	0.726	1	pointing	Trial1	pointing/STIM_009.jpg
642.691	1.042	1	pointing	Trial1	pointing/STIM_010.jpg
647.242	0.954	1	pointing	Trial1	pointing/STIM_010.jpg
650.962	1.057	1	pointing	Trial1	pointing/STIM_010.jpg
655.257	1.15	1	pointing	Trial1	pointing/STIM_010.jpg
660.104	0.714	1	pointing	Trial1	pointing/STIM_010.jpg
663.665	1.248	1	pointing	Trial1	pointing/STIM_010.jpg
668.766	1.044	1	pointing	Trial1	pointing/STIM_011.jpg
671.844	1.045	1	pointing	Trial1	pointing/STIM_011.jpg
675.165	1.217	1	pointing	Trial1	pointing/STIM_011.jpg
679.626	0.846	1	pointing	Trial1	pointing/STIM_011.jpg
683.524	0.915	1	pointing	Trial1	pointing/STIM_011.jpg
686.898	1.104	1	pointing	Trial1	pointing/STIM_011.jpg
690.749	1.58	1	navigation	Trial2	navigation/STIM_000.jpg
696.22	1.591	1	navigation	Trial2	navigation/STIM_000.jpg
700.979	2.18	1	navigation	Trial2	navigation/STIM_000.jpg
705.633	2.373	0	navigation	Trial2	navigation/STIM_000.jpg
710.863	1.934	1	navigation	Trial2	navigation/STIM_000.jpg
716.687	1.539	1	navigation	Trial2	navigation/STIM_000.jpg
720.93	2.567	0	navigation	Trial2	navigation/STIM_001.jpg
726.564	2.576	1	navigation	Trial2	navigation/STIM_001.jpg
731.421	2.453	1	navigation	Trial2	navigation/STIM_001.jpg
737.117	1.602	1	navigation	Trial2	navigation/STIM_001.jpg
741.125	1.909	1	navigation	Trial2	navigation/STIM_001.jpg
746.656	1.819	1	navigation	Trial2	navigation/STIM_001.jpg
751.391	3.571	1	navigation	Trial2	navigation/STIM_002.jpg
758.608	3.339	1	navigation	Trial2	navigation/STIM_002.jpg
765.784	2.506	1	navigation	Trial2	navigation/STIM_002.jpg
771.75	2.524	1	navigation	Trial2	navigation/STIM_002.jpg
777.953	1.884	0	navigation	Trial2	navigation/STIM_002.jpg
782.235	2.187	1	navigation	Trial2	navigation/STIM_002.jpg
786.741	2.085	1	navigation	Trial2	navigation/STIM_003.jpg
790.871	3.176	1	navigation	Trial2	navigation/STIM_003.jpg
796.074	1.903	1	navigation	Trial2	navigation/STIM_003.jpg
801.664	1.793	1	navigation	Trial2	navigation/STIM_003.jpg
807.274	1.488	1	navigation	Trial2	navigation/STIM_003.jpg
811.05	2.371	1	navigation	Trial2	navigation/STIM_003.jpg
816.596	2.868	0	navigation	Trial2	navigation/STIM_004.jpg
823.447	2.026	1	navigation	Trial2	navigation/STIM_004.jpg
828.474	3.094	1	navigation	Trial2	navigation/STIM_004.jpg
835.021	1.35	1	navigation	Trial2	navigation/STIM_004.jpg
838.581	2.931	1	navigation	Trial2	navigation/STIM_004.jpg
845.087	1.234	1	navigation	Trial2	navigation/STIM_004.jpg
849.264	2.423	1	navigation	Trial2	navigation/STIM_005.jpg
855.09	1.777	1	navigation	Trial2	navigation/STIM_005.jpg
859.402	2.209	1	navigation	Trial2	navigation/STIM_005.jpg
864.681	2.514	1	navigation	Trial2	navigation/STIM_005.jpg
870.613	2.334	1	navigation	Trial2	navigation/STIM_005.jpg
875.411	1.72	1	navigation	Trial2	navigation/STIM_005.jpg
879.613	2.942	1	navigation	Trial2	navigation/STIM_006.jpg
886.242	2.384	1	navigation	Trial2	navigation/STIM_006.jpg
892.188	2.883	1	navigation	Trial2	navigation/STIM_006.jpg
898.507	1.73	0	navigation	Trial2	navigation/STIM_006.jpg
903.901	2.339	1	navigation	Trial2	navigation/STIM_006.jpg
908.31	2.953	1	navigation	Trial2	navigation/STIM_006.jpg
914.476	2.684	1	navigation	Trial2	navigation/STIM_007.jpg
919.664	2.247	0	navigation	Trial2	navigation/STIM_007.jpg
925.736	1.739	1	navigation	Trial2	navigation/STIM_007.jpg
930.85	1.305	1	navigation	Trial2	navigation/STIM_007.jpg
935.648	1.207	1	navigation	Trial2	navigation/STIM_007.jpg
940.37	2.104	1	navigation	Trial2	navigation/STIM_007.jpg
946.264	2.106	1	navigation	Trial2	navigation/STIM_008.jpg
951.206	3.111	1	navigation	Trial2	navigation/STIM_008.jpg
956.705	1.46	1	navigation	Trial2	navigation/STIM_008.jpg
960.272	2.793	1	navigation	Trial2	navigation/STIM_008.jpg
965.609	1.654	1	navigation	Trial2	navigation/STIM_008.jpg
970.068	1.345	1	navigation	Trial2	navigation/STIM_008.jpg
974.203	2.127	1	navigation	Trial2	navigation/STIM_009.jpg
978.427	1.894	0	navigation	Trial2	navigation/STIM_009.jpg
982.678	1.749	1	navigation	Trial2	navigation/STIM_009.jpg
986.829	2.601	0	navigation	Trial2	navigation/STIM_009.jpg
991.748	2.239	1	navigation	Trial2	navigation/STIM_009.jpg
997.158	2.831	1	navigation	Trial2	navigation/STIM_009.jpg
1003.725	2.106	1	navigation	Trial2	navigation/STIM_010.jpg
1007.833	2.018	0	navigation	Trial2	navigation/STIM_010.jpg
1012.367	2.948	0	navigation	Trial2	navigation/STIM_010.jpg
1018.444	2.071	1	navigation	Trial2	navigation/STIM_010.jpg
1023.667	2.593	1	navigation	Trial2	navigation/STIM_010.jpg
1028.727	1.996	1	navigation	Trial2	navigation/STIM_010.jpg
1033.846	1.626	1	navigation	Trial2	navigation/STIM_011.jpg
1038.066	2.077	1	navigation	Trial2	navigation/STIM_011.jpg
1043.277	3.136	1	navigation	Trial2	navigation/STIM_011.jpg
1049.757	1.389	1	navigation	Trial2	navigation/STIM_011.jpg
1053.696	1.441	1	navigation	Trial2	navigation/STIM_011.jpg
1057.974	1.67	1	navigation	Trial2	navigation/STIM_011.jpg
1063.127	1.25	1	pointing	Trial2	pointing/STIM_000.jpg
1067.087	1.174	1	pointing	Trial2	pointing/STIM_000.jpg
1070.391	0.731	1	pointing	Trial2	pointing/STIM_000.jpg
1074.626	0.914	1	pointing	Trial2	pointing/STIM_000.jpg
1077.909	1.232	1	pointing	Trial2	pointing/STIM_000.jpg
1081.689	0.867	1	pointing	Trial2	pointing/STIM_000.jpg
1085.57	0.886	1	pointing	Trial2	pointing/STIM_001.jpg
1090.312	1.227	1	pointing	Trial2	pointing/STIM_001.jpg
1093.909	0.724	1	pointing	Trial2	pointing/STIM_001.jpg
1098.344	0.865	1	pointing	Trial2	pointing/STIM_001.jpg
1101.468	1.188	1	pointing	Trial2	pointing/STIM_001.jpg
1105.188	0.676	1	pointing	Trial2	pointing/STIM_001.jpg
1108.18	0.87	1	pointing	Trial2	pointing/STIM_002.jpg
1112.267	0.703	1	pointing	Trial2	pointing/STIM_002.jpg
1115.916	0.803	1	pointing	Trial2	pointing/STIM_002.jpg
1119.752	0.727	1	pointing	Trial2	pointing/STIM_002.jpg
1123.477	0.997	1	pointing	Trial2	pointing/STIM_002.jpg
1127.555	1.057	1	pointing	Trial2	pointing/STIM_002.jpg
1130.977	1.198	1	pointing	Trial2	pointing/STIM_003.jpg
1135.508	0.755	1	pointing	Trial2	pointing/STIM_003.jpg
1139.243	0.898	1	pointing	Trial2	pointing/STIM_003.jpg
1143.688	1.137	1	pointing	Trial2	pointing/STIM_003.jpg
1146.862	1.23	1	pointing	Trial2	pointing/STIM_003.jpg
1150.872	1.23	1	pointing	Trial2	pointing/STIM_003.jpg
1154.635	1.23	1	pointing	Trial2	pointing/STIM_004.jpg
1158.181	0.962	1	pointing	Trial2	pointing/STIM_004.jpg
1161.877	1.16	1	pointing	Trial2	pointing/STIM_004.jpg
1166.796	1.05	1	pointing	Trial2	pointing/STIM_004.jpg
1170.12	0.767	1	pointing	Trial2	pointing/STIM_004.jpg
1174.299	0.771	1	pointing	Trial2	pointing/STIM_004.jpg
1178.366	1.11	1	pointing	Trial2	pointing/STIM_005.jpg
1182.758	0.752	1	pointing	Trial2	pointing/STIM_005.jpg
1187.02	0.996	1	pointing	Trial2	pointing/STIM_005.jpg
1191.464	0.7	1	pointing	Trial2	pointing/STIM_005.jpg
1194.339	0.961	1	pointing	Trial2	pointing/STIM_005.jpg
1197.578	1.152	1	pointing	Trial2	pointing/STIM_005.jpg
1201.708	0.743	1	pointing	Trial2	pointing/STIM_006.jpg
1205.85	0.985	1	pointing	Trial2	pointing/STIM_006.jpg
1209.561	1.222	1	pointing	Trial2	pointing/STIM_006.jpg
1213.07	0.785	1	pointing	Trial2	pointing/STIM_006.jpg
1216.809	0.796	1	pointing	Trial2	pointing/STIM_006.jpg
1220.09	1.234	1	pointing	Trial2	pointing/STIM_006.jpg
1223.383	0.852	1	pointing	Trial2	pointing/STIM_007.jpg
1226.942	1.079	1	pointing	Trial2	pointing/STIM_007.jpg
1231.024	1.161	1	pointing	Trial2	pointing/STIM_007.jpg
1235.253	1.031	1	pointing	Trial2	pointing/STIM_007.jpg
1239.406	1.181	0	pointing	Trial2	pointing/STIM_007.jpg
1243.261	0.697	1	pointing	Trial2	pointing/STIM_007.jpg
1246.772	1.023	1	pointing	Trial2	pointing/STIM_008.jpg
1250.347	1.265	1	pointing	Trial2	pointing/STIM_008.jpg
1254.168	0.955	1	pointing	Trial2	pointing/STIM_008.jpg
1258.451	0.934	1	pointing	Trial2	pointing/STIM_008.jpg
1261.587	0.849	1	pointing	Trial2	pointing/STIM_008.jpg
1265.109	1.231	1	pointing	Trial2	pointing/STIM_008.jpg
1268.926	0.793	1	pointing	Trial2	pointing/STIM_009.jpg
1272.485	1.06	1	pointing	Trial2	pointing/STIM_009.jpg
1277.331	1.036	1	pointing	Trial2	pointing/STIM_009.jpg
1281.826	1.083	1	pointing	Trial2	pointing/STIM_009.jpg
1286.379	1.233	1	pointing	Trial2	pointing/STIM_009.jpg
1290.81	1.21	1	pointing	Trial2	pointing/STIM_009.jpg
1295.065	1.175	1	pointing	Trial2	pointing/STIM_010.jpg
1299.328	0.899	1	pointing	Trial2	pointing/STIM_010.jpg
1303.827	0.676	1	pointing	Trial2	pointing/STIM_010.jpg
1308.456	0.7	1	pointing	Trial2	pointing/STIM_010.jpg
1312.589	1.166	1	pointing	Trial2	pointing/STIM_010.jpg
1316.4	1.168	1	pointing	Trial2	pointing/STIM_010.jpg
1320.865	0.777	1	pointing	Trial2	pointing/STIM_011.jpg
1324.059	0.975	1	pointing	Trial2	pointing/STIM_011.jpg
1327.727	1.021	1	pointing	Trial2	pointing/STIM_011.jpg
1332.346	1.262	1	pointing	Trial2	pointing/STIM_011.jpg
1336.126	1.114	1	pointing	Trial2	pointing/STIM_011.jpg
1340.991	0.833	1	pointing	Trial2	pointing/STIM_011.jpg
1344.214	2.688	1	navigation	Trial3	navigation/STIM_000.jpg
1350.436	1.666	1	navigation	Trial3	navigation/STIM_000.jpg
1355.769	2.482	0	navigation	Trial3	navigation/STIM_000.jpg
1361.908	1.988	1	navigation	Trial3	navigation/STIM_000.jpg
1366.4	1.697	1	navigation	Trial3	navigation/STIM_000.jpg
1370.885	1.822	1	navigation	Trial3	navigation/STIM_000.jpg
1376.542	2.101	1	navigation	Trial3	navigation/STIM_001.jpg
1380.83	2.394	1	navigation	Trial3	navigation/STIM_001.jpg
1386.804	2.536	1	navigation	Trial3	navigation/STIM_001.jpg
1392.857	1.444	1	navigation	Trial3	navigation/STIM_001.jpg
1396.992	2.159	1	navigation	Trial3	navigation/STIM_001.jpg
1402.482	1.941	1	navigation	Trial3	navigation/STIM_001.jpg
1406.628	2.704	1	navigation	Trial3	navigation/STIM_002.jpg
1413.175	2.855	1	navigation	Trial3	navigation/STIM_002.jpg
1418.043	1.554	1	navigation	Trial3	navigation/STIM_002.jpg
1422.531	1.496	1	navigation	Trial3	navigation/STIM_002.jpg
1426.262	2.63	1	navigation	Trial3	navigation/STIM_002.jpg
1432.223	2.444	1	navigation	Trial3	navigation/STIM_002.jpg
1438.515	1.355	1	navigation	Trial3	navigation/STIM_003.jpg
1443.033	2.428	1	navigation	Trial3	navigation/STIM_003.jpg
1447.795	2.732	1	navigation	Trial3	navigation/STIM_003.jpg
1453.149	2.64	1	navigation	Trial3	navigation/STIM_003.jpg
1457.838	1.248	1	navigation	Trial3	navigation/STIM_003.jpg
1462.743	2.618	1	navigation	Trial3	navigation/STIM_003.jpg
1468.148	1.938	1	navigation	Trial3	navigation/STIM_004.jpg
1472.962	1.98	1	navigation	Trial3	navigation/STIM_004.jpg
1478.928	2.097	1	navigation	Trial3	navigation/STIM_004.jpg
1484.58	1.888	1	navigation	Trial3	navigation/STIM_004.jpg
1489.824	2.542	1	navigation	Trial3	navigation/STIM_004.jpg
1494.611	2.022	1	navigation	Trial3	navigation/STIM_004.jpg
1499.881	1.896	1	navigation	Trial3	navigation/STIM_005.jpg
1504.491	1.512	1	navigation	Trial3	navigation/STIM_005.jpg
1508.023	1.804	0	navigation	Trial3	navigation/STIM_005.jpg
1512.627	1.464	1	navigation	Trial3	navigation/STIM_005.jpg
1516.543	2.496	1	navigation	Trial3	navigation/STIM_005.jpg
1522.133	2.47	1	navigation	Trial3	navigation/STIM_005.jpg
1528.559	2.098	1	navigation	Trial3	navigation/STIM_006.jpg
1534.371	1.867	1	navigation	Trial3	navigation/STIM_006.jpg
1539.648	1.776	1	navigation	Trial3	navigation/STIM_006.jpg
1543.844	1.381	1	navigation	Trial3	navigation/STIM_006.jpg
1549.06	2.749	1	navigation	Trial3	navigation/STIM_006.jpg
1554.231	1.65	1	navigation	Trial3	navigation/STIM_006.jpg
1558.202	1.329	1	navigation	Trial3	navigation/STIM_007.jpg
1563.378	1.218	1	navigation	Trial3	navigation/STIM_007.jpg
1566.902	2.75	1	navigation	Trial3	navigation/STIM_007.jpg
1573.538	2.003	1	navigation	Trial3	navigation/STIM_007.jpg
1577.616	2.703	1	navigation	Trial3	navigation/STIM_007.jpg
1582.968	1.583	1	navigation	Trial3	navigation/STIM_007.jpg
1588.212	1.864	1	navigation	Trial3	navigation/STIM_008.jpg
1593.176	2.563	0	navigation	Trial3	navigation/STIM_008.jpg
1598.802	2.916	1	navigation	Trial3	navigation/STIM_008.jpg
1604.402	1.688	1	navigation	Trial3	navigation/STIM_008.jpg
1609.849	1.203	1	navigation	Trial3	navigation/STIM_008.jpg
1614.12	1.459	1	navigation	Trial3	navigation/STIM_008.jpg
1617.941	2.214	1	navigation	Trial3	navigation/STIM_009.jpg
1624.084	1.207	1	navigation	Trial3	navigation/STIM_009.jpg
1628.212	1.249	1	navigation	Trial3	navigation/STIM_009.jpg
1632.355	1.824	1	navigation	Trial3	navigation/STIM_009.jpg
1638.102	2.074	1	navigation	Trial3	navigation/STIM_009.jpg
1644.121	2.899	1	navigation	Trial3	navigation/STIM_009.jpg
1649.065	2.288	1	navigation	Trial3	navigation/STIM_010.jpg
1654.947	1.238	1	navigation	Trial3	navigation/STIM_010.jpg
1660.103	2.559	1	navigation	Trial3	navigation/STIM_010.jpg
1665.034	1.365	1	navigation	Trial3	navigation/STIM_010.jpg
1669.349	2.308	1	navigation	Trial3	navigation/STIM_010.jpg
1675.026	2.209	1	navigation	Trial3	navigation/STIM_010.jpg
1680.294	2.22	1	navigation	Trial3	navigation/STIM_011.jpg
1684.657	1.98	1	navigation	Trial3	navigation/STIM_011.jpg
1690.582	2.909	1	navigation	Trial3	navigation/STIM_011.jpg
1696.259	1.961	1	navigation	Trial3	navigation/STIM_011.jpg
1701.914	1.858	1	navigation	Trial3	navigation/STIM_011.jpg
1706.444	2.255	1	navigation	Trial3	navigation/STIM_011.jpg
1711.255	1.236	1	pointing	Trial3	pointing/STIM_000.jpg
1715.323	0.796	1	pointing	Trial3	pointing/STIM_000.jpg
1718.417	1.109	1	pointing	Trial3	pointing/STIM_000.jpg
1722.226	0.805	1	pointing	Trial3	pointing/STIM_000.jpg
1727.021	0.695	1	pointing	Trial3	pointing/STIM_000.jpg
1731.397	0.676	1	pointing	Trial3	pointing/STIM_000.jpg
1734.441	1.208	1	pointing	Trial3	pointing/STIM_001.jpg
1738.882	0.993	1	pointing	Trial3	pointing/STIM_001.jpg
1742.989	0.83	1	pointing	Trial3	pointing/STIM_001.jpg
1746.667	1.038	1	pointing	Trial3	pointing/STIM_001.jpg
1751.277	0.881	1	pointing	Trial3	pointing/STIM_001.jpg
1755.432	1.103	1	pointing	Trial3	pointing/STIM_001.jpg
1760.046	0.748	1	pointing	Trial3	pointing/STIM_002.jpg
1763.677	0.788	1	pointing	Trial3	pointing/STIM_002.jpg
1766.762	0.93	1	pointing	Trial3	pointing/STIM_002.jpg
1769.755	0.915	1	pointing	Trial3	pointing/STIM_002.jpg
1773.625	1.073	1	pointing	Trial3	pointing/STIM_002.jpg
1776.83	0.938	1	pointing	Trial3	pointing/STIM_002.jpg
1779.871	0.946	1	pointing	Trial3	pointing/STIM_003.jpg
1784.652	1.01	1	pointing	Trial3	pointing/STIM_003.jpg
1789.198	1.105	1	pointing	Trial3	pointing/STIM_003.jpg
1792.65	1.259	1	pointing	Trial3	pointing/STIM_003.jpg
1796.916	0.72	1	pointing	Trial3	pointing/STIM_003.jpg
1800.348	0.816	1	pointing	Trial3	pointing/STIM_003.jpg
1803.448	1.246	1	pointing	Trial3	pointing/STIM_004.jpg
1807.802	1.119	1	pointing	Trial3	pointing/STIM_004.jpg
1811.216	0.901	1	pointing	Trial3	pointing/STIM_004.jpg
1815.494	0.718	0	pointing	Trial3	pointing/STIM_004.jpg
1819.51	1.24	1	pointing	Trial3	pointing/STIM_004.jpg
1823.612	0.964	1	pointing	Trial3	pointing/STIM_004.jpg
1827.041	1.13	1	pointing	Trial3	pointing/STIM_005.jpg
1830.855	0.864	1	pointing	Trial3	pointing/STIM_005.jpg
1834.468	0.932	1	pointing	Trial3	pointing/STIM_005.jpg
1839.392	1.228	1	pointing	Trial3	pointing/STIM_005.jpg
1844.313	1.157	1	pointing	Trial3	pointing/STIM_005.jpg
1849.434	0.832	1	pointing	Trial3	pointing/STIM_005.jpg
1853.16	0.947	1	pointing	Trial3	pointing/STIM_006.jpg
1857.47	0.969	1	pointing	Trial3	pointing/STIM_006.jpg
1862.117	1.226	1	pointing	Trial3	pointing/STIM_006.jpg
1866.757	1.25	1	pointing	Trial3	pointing/STIM_006.jpg
1870.237	0.732	1	pointing	Trial3	pointing/STIM_006.jpg
1874.468	1.115	1	pointing	Trial3	pointing/STIM_006.jpg
1878.683	1.196	1	pointing	Trial3	pointing/STIM_007.jpg
1882.024	1.009	0	pointing	Trial3	pointing/STIM_007.jpg
1886.063	1.258	1	pointing	Trial3	pointing/STIM_007.jpg
1891.31	0.992	1	pointing	Trial3	pointing/STIM_007.jpg
1896.093	0.996	1	pointing	Trial3	pointing/STIM_007.jpg
1899.217	1.151	1	pointing	Trial3	pointing/STIM_007.jpg
1903.159	1.1	1	pointing	Trial3	pointing/STIM_008.jpg
1907.909	0.784	1	pointing	Trial3	pointing/STIM_008.jpg
1912.268	1.219	1	pointing	Trial3	pointing/STIM_008.jpg
1917.018	0.876	1	pointing	Trial3	pointing/STIM_008.jpg
1921.607	0.893	1	pointing	Trial3	pointing/STIM_008.jpg
1925.473	0.854	1	pointing	Trial3	pointing/STIM_008.jpg
1928.628	0.79	1	pointing	Trial3	pointing/STIM_009.jpg
1933.112	1.165	1	pointing	Trial3	pointing/STIM_009.jpg
1938.262	0.774	1	pointing	Trial3	pointing/STIM_009.jpg
1941.098	0.944	1	pointing	Trial3	pointing/STIM_009.jpg
1944.752	0.816	1	pointing	Trial3	pointing/STIM_009.jpg
1947.625	1.138	1	pointing	Trial3	pointing/STIM_009.jpg
1951.519	0.972	1	pointing	Trial3	pointing/STIM_010.jpg
1955.802	0.898	1	pointing	Trial3	pointing/STIM_010.jpg
1958.761	0.912	1	pointing	Trial3	pointing/STIM_010.jpg
1962.773	0.782	1	pointing	Trial3	pointing/STIM_010.jpg
1965.768	1.168	1	pointing	Trial3	pointing/STIM_010.jpg
1969.729	0.838	1	pointing	Trial3	pointing/STIM_010.jpg
1974.037	0.782	1	pointing	Trial3	pointing/STIM_011.jpg
1978.17	0.756	1	pointing	Trial3	pointing/STIM_011.jpg
1980.993	1.205	1	pointing	Trial3	pointing/STIM_011.jpg
1986.188	0.894	1	pointing	Trial3	pointing/STIM_011.jpg
1989.801	0.841	1	pointing	Trial3	pointing/STIM_011.jpg
1994.079	1.256	1	pointing	Trial3	pointing/STIM_011.jpg
