onset	duration	accuracy	trial_type	learning_stage	stimulus
0.0	0.99	correct	2back	Block1	2back/STIM_000.jpg
4.674	0.867	incorrect	2back	Block1	2back/STIM_000.jpg
8.535	0.858	correct	2back	Block1	2back/STIM_000.jpg
13.244	0.683	correct	2back	Block1	2back/STIM_001.jpg
16.079	1.094	correct	2back	Block1	2back/STIM_001.jpg
19.303	1.193	correct	2back	Block1	2back/STIM_001.jpg
24.326	0.829	correct	2back	Block1	2back/STIM_002.jpg
28.355	0.888	correct	2back	Block1	2back/STIM_002.jpg
32.19	0.627	correct	2back	Block1	2back/STIM_002.jpg
34.909	1.282	correct	2back	Block1	2back/STIM_003.jpg
39.306	1.268	correct	2back	Block1	2back/STIM_003.jpg
44.481	1.12	correct	2back	Block1	2back/STIM_003.jpg
47.815	1.307	correct	2back	Block1	2back/STIM_004.jpg
51.472	1.26	correct	2back	Block1	2back/STIM_004.jpg
56.325	0.674	correct	2back	Block1	2back/STIM_004.jpg
60.767	1.229	correct	2back	Block1	2back/STIM_005.jpg
65.449	0.931	correct	2back	Block1	2back/STIM_005.jpg
68.812	1.142	correct	2back	Block1	2back/STIM_005.jpg
73.73	1.109	incorrect	2back	Block1	2back/STIM_006.jpg
77.524	0.729	incorrect	2back	Block1	2back/STIM_006.jpg
81.554	0.814	correct	2back	Block1	2back/STIM_006.jpg
86.325	0.801	correct	2back	Block1	2back/STIM_007.jpg
89.631	0.885	correct	2back	Block1	2back/STIM_007.jpg
93.905	0.974	correct	2back	Block1	2back/STIM_007.jpg
98.317	0.967	correct	2back	Block1	2back/STIM_008.jpg
102.258	1.158	incorrect	2back	Block1	2back/STIM_008.jpg
105.681	1.243	correct	2back	Block1	2back/STIM_008.jpg
108.995	1.298	incorrect	2back	Block1	2back/STIM_009.jpg
113.425	1.254	correct	2back	Block1	2back/STIM_009.jpg
117.671	1.211	correct	2back	Block1	2back/STIM_009.jpg
121.731	1.32	correct	2back	Block1	2back/STIM_010.jpg
126.031	1.262	correct	2back	Block1	2back/STIM_010.jpg
129.888	0.956	correct	2back	Block1	2back/STIM_010.jpg
134.652	0.877	correct	2back	Block1	2back/STIM_011.jpg
138.968	0.682	correct	2back	Block1	2back/STIM_011.jpg
141.854	0.936	incorrect	2back	Block1	2back/STIM_011.jpg
146.49	1.026	correct	2back	Block1	2back/STIM_012.jpg
150.668	1.312	correct	2back	Block1	2back/STIM_012.jpg
155.501	0.861	correct	2back	Block1	2back/STIM_012.jpg
158.376	0.602	correct	2back	Block1	2back/STIM_013.jpg
162.773	0.926	correct	2back	Block1	2back/STIM_013.jpg
165.745	0.812	correct	2back	Block1	2back/STIM_013.jpg
168.977	0.765	correct	2back	Block1	2back/STIM_014.jpg
173.613	1.182	correct	2back	Block1	2back/STIM_014.jpg
177.881	0.673	correct	2back	Block1	2back/STIM_014.jpg
180.789	1.216	correct	2back	Block1	2back/STIM_015.jpg
186.007	1.149	correct	2back	Block1	2back/STIM_015.jpg
189.928	0.853	correct	2back	Block1	2back/STIM_015.jpg
194.449	0.961	correct	2back	Block1	2back/STIM_016.jpg
197.742	0.971	incorrect	2back	Block1	2back/STIM_016.jpg
201.354	1.162	correct	2back	Block1	2back/STIM_016.jpg
204.571	1.09	correct	2back	Block1	2back/STIM_017.jpg
209.411	0.88	correct	2back	Block1	2back/STIM_017.jpg
214.281	0.809	correct	2back	Block1	2back/STIM_017.jpg
217.656	1.289	correct	2back	Block1	2back/STIM_018.jpg
221.314	0.626	correct	2back	Block1	2back/STIM_018.jpg
224.858	1.204	incorrect	2back	Block1	2back/STIM_018.jpg
229.782	1.069	correct	2back	Block1	2back/STIM_019.jpg
233.477	0.982	correct	2back	Block1	2back/STIM_019.jpg
238.064	0.974	correct	2back	Block1	2back/STIM_019.jpg
242.073	0.786	incorrect	2back	Block1	2back/STIM_020.jpg
246.258	1.076	incorrect	2back	Block1	2back/STIM_020.jpg
250.509	0.677	correct	2back	Block1	2back/STIM_020.jpg
253.471	0.833	incorrect	2back	Block1	2back/STIM_021.jpg
257.434	1.233	correct	2back	Block1	2back/STIM_021.jpg
261.958	0.664	correct	2back	Block1	2back/STIM_021.jpg
265.294	1.015	correct	2back	Block1	2back/STIM_022.jpg
269.393	1.068	correct	2back	Block1	2back/STIM_022.jpg
273.81	0.626	correct	2back	Block1	2back/STIM_022.jpg
277.94	0.938	correct	2back	Block1	2back/STIM_023.jpg
281.812	1.077	correct	2back	Block1	2back/STIM_023.jpg
285.174	0.8	correct	2back	Block1	2back/STIM_023.jpg
288.439	0.961	correct	2back	Block1	2back/STIM_024.jpg
293.291	0.766	incorrect	2back	Block1	2back/STIM_024.jpg
297.902	1.136	correct	2back	Block1	2back/STIM_024.jpg
302.125	1.094	incorrect	2back	Block1	2back/STIM_025.jpg
305.762	1.136	correct	2back	Block1	2back/STIM_025.jpg
309.211	0.731	correct	2back	Block1	2back/STIM_025.jpg
312.376	0.738	correct	2back	Block1	2back/STIM_026.jpg
316.608	0.702	correct	2back	Block1	2back/STIM_026.jpg
320.022	0.759	correct	2back	Block1	2back/STIM_026.jpg
323.786	1.253	correct	2back	Block1	2back/STIM_027.jpg
327.886	0.841	correct	2back	Block1	2back/STIM_027.jpg
332.418	0.855	incorrect	2back	Block1	2back/STIM_027.jpg
335.83	0.93	incorrect	2back	Block1	2back/STIM_028.jpg
339.042	0.593	correct	2back	Block1	2back/STIM_028.jpg
341.922	1.144	incorrect	2back	Block1	2back/STIM_028.jpg
346.981	1.356	correct	2back	Block1	2back/STIM_029.jpg
351.399	0.633	incorrect	2back	Block1	2back/STIM_029.jpg
354.26	1.049	correct	2back	Block1	2back/STIM_029.jpg
358.784	1.095	correct	2back	Block1	2back/STIM_030.jpg
362.353	0.649	correct	2back	Block1	2back/STIM_030.jpg
366.421	0.86	incorrect	2back	Block1	2back/STIM_030.jpg
369.362	1.385	correct	2back	Block1	2back/STIM_031.jpg
373.426	1.134	correct	2back	Block1	2back/STIM_031.jpg
376.651	1.099	correct	2back	Block1	2back/STIM_031.jpg
381.216	1.242	correct	2back	Block1	2back/STIM_032.jpg
385.809	1.104	correct	2back	Block1	2back/STIM_032.jpg
389.797	0.666	correct	2back	Block1	2back/STIM_032.jpg
393.866	0.866	correct	2back	Block1	2back/STIM_033.jpg
396.879	1.258	incorrect	2back	Block1	2back/STIM_033.jpg
401.563	1.056	correct	2back	Block1	2back/STIM_033.jpg
406.428	0.629	correct	2back	Block1	2back/STIM_034.jpg
410.136	1.042	incorrect	2back	Block1	2back/STIM_034.jpg
413.619	1.109	correct	2back	Block1	2back/STIM_034.jpg
418.104	1.225	correct	2back	Block1	2back/STIM_035.jpg
421.716	0.682	correct	2back	Block1	2back/STIM_035.jpg
425.133	1.226	correct	2back	Block1	2back/STIM_035.jpg
430.192	0.94	correct	2back	Block1	2back/STIM_036.jpg
433.671	1.002	incorrect	2back	Block1	2back/STIM_036.jpg
437.447	0.686	correct	2back	Block1	2back/STIM_036.jpg
440.312	0.94	correct	2back	Block1	2back/STIM_037.jpg
444.791	0.931	correct	2back	Block1	2back/STIM_037.jpg
448.17	0.635	correct	2back	Block1	2back/STIM_037.jpg
452.761	0.802	incorrect	2back	Block1	2back/STIM_038.jpg
457.143	1.159	incorrect	2back	Block1	2back/STIM_038.jpg
460.797	0.632	correct	2back	Block1	2back/STIM_038.jpg
464.509	0.862	correct	2back	Block1	2back/STIM_039.jpg
467.716	1.033	incorrect	2back	Block1	2back/STIM_039.jpg
471.476	1.029	correct	2back	Block1	2back/STIM_039.jpg
475.651	0.607	correct	0back	Block1	0back/STIM_000.jpg
478.704	0.508	correct	0back	Block1	0back/STIM_000.jpg
481.47	0.469	correct	0back	Block1	0back/STIM_000.jpg
484.376	0.715	correct	0back	Block1	0back/STIM_001.jpg
489.0	0.759	correct	0back	Block1	0back/STIM_001.jpg
493.543	0.739	correct	0back	Block1	0back/STIM_001.jpg
497.011	0.512	correct	0back	Block1	0back/STIM_002.jpg
500.824	0.524	correct	0back	Block1	0back/STIM_002.jpg
504.541	0.646	correct	0back	Block1	0back/STIM_002.jpg
508.82	0.556	correct	0back	Block1	0back/STIM_003.jpg
512.837	0.531	correct	0back	Block1	0back/STIM_003.jpg
516.182	0.63	correct	0back	Block1	0back/STIM_003.jpg
519.742	0.525	correct	0back	Block1	0back/STIM_004.jpg
523.551	0.403	correct	0back	Block1	0back/STIM_004.jpg
527.626	0.735	correct	0back	Block1	0back/STIM_004.jpg
530.602	0.783	correct	0back	Block1	0back/STIM_005.jpg
534.084	0.399	correct	0back	Block1	0back/STIM_005.jpg
538.303	0.488	correct	0back	Block1	0back/STIM_005.jpg
541.196	0.698	correct	0back	Block1	0back/STIM_006.jpg
545.886	0.458	correct	0back	Block1	0back/STIM_006.jpg
549.149	0.585	correct	0back	Block1	0back/STIM_006.jpg
552.995	0.792	correct	0back	Block1	0back/STIM_007.jpg
557.41	0.75	correct	0back	Block1	0back/STIM_007.jpg
560.615	0.519	correct	0back	Block1	0back/STIM_007.jpg
564.732	0.761	correct	0back	Block1	0back/STIM_008.jpg
569.215	0.78	correct	0back	Block1	0back/STIM_008.jpg
573.621	0.706	correct	0back	Block1	0back/STIM_008.jpg
578.223	0.683	correct	0back	Block1	0back/STIM_009.jpg
580.991	0.478	correct	0back	Block1	0back/STIM_009.jpg
583.985	0.613	incorrect	0back	Block1	0back/STIM_009.jpg
586.768	0.68	incorrect	0back	Block1	0back/STIM_010.jpg
590.033	0.757	correct	0back	Block1	0back/STIM_010.jpg
593.098	0.728	correct	0back	Block1	0back/STIM_010.jpg
596.95	0.431	correct	0back	Block1	0back/STIM_011.jpg
600.354	0.771	correct	0back	Block1	0back/STIM_011.jpg
604.515	0.735	correct	0back	Block1	0back/STIM_011.jpg
608.478	0.716	correct	0back	Block1	0back/STIM_012.jpg
613.152	0.46	correct	0back	Block1	0back/STIM_012.jpg
617.544	0.695	correct	0back	Block1	0back/STIM_012.jpg
620.844	0.71	correct	0back	Block1	0back/STIM_013.jpg
623.938	0.445	correct	0back	Block1	0back/STIM_013.jpg
627.208	0.523	correct	0back	Block1	0back/STIM_013.jpg
631.072	0.519	incorrect	0back	Block1	0back/STIM_014.jpg
634.776	0.764	correct	0back	Block1	0back/STIM_014.jpg
637.756	0.486	correct	0back	Block1	0back/STIM_014.jpg
641.161	0.628	correct	0back	Block1	0back/STIM_015.jpg
644.069	0.552	correct	0back	Block1	0back/STIM_015.jpg
648.061	0.538	correct	0back	Block1	0back/STIM_015.jpg
651.176	0.723	correct	0back	Block1	0back/STIM_016.jpg
655.702	0.69	correct	0back	Block1	0back/STIM_016.jpg
660.317	0.772	correct	0back	Block1	0back/STIM_016.jpg
663.143	0.63	correct	0back	Block1	0back/STIM_017.jpg
667.653	0.738	correct	0back	Block1	0back/STIM_017.jpg
670.633	0.618	correct	0back	Block1	0back/STIM_017.jpg
673.428	0.718	correct	0back	Block1	0back/STIM_018.jpg
678.081	0.602	correct	0back	Block1	0back/STIM_018.jpg
682.496	0.698	correct	0back	Block1	0back/STIM_018.jpg
686.49	0.574	correct	0back	Block1	0back/STIM_019.jpg
690.008	0.668	incorrect	0back	Block1	0back/STIM_019.jpg
693.236	0.424	correct	0back	Block1	0back/STIM_019.jpg
696.7	1.033	correct	2back	Block2	2back/STIM_000.jpg
699.865	0.727	correct	2back	Block2	2back/STIM_000.jpg
704.002	0.753	correct	2back	Block2	2back/STIM_000.jpg
706.777	1.16	correct	2back	Block2	2back/STIM_001.jpg
710.573	0.832	correct	2back	Block2	2back/STIM_001.jpg
714.69	0.907	correct	2back	Block2	2back/STIM_001.jpg
718.106	1.071	incorrect	2back	Block2	2back/STIM_002.jpg
722.594	0.662	correct	2back	Block2	2back/STIM_002.jpg
726.638	0.569	correct	2back	Block2	2back/STIM_002.jpg
730.313	1.069	correct	2back	Block2	2back/STIM_003.jpg
733.434	0.922	correct	2back	Block2	2back/STIM_003.jpg
736.873	0.632	correct	2back	Block2	2back/STIM_003.jpg
740.283	0.552	correct	2back	Block2	2back/STIM_004.jpg
743.449	0.811	incorrect	2back	Block2	2back/STIM_004.jpg
746.907	0.776	correct	2back	Block2	2back/STIM_004.jpg
750.33	1.032	correct	2back	Block2	2back/STIM_005.jpg
753.56	0.805	correct	2back	Block2	2back/STIM_005.jpg
757.079	0.53	correct	2back	Block2	2back/STIM_005.jpg
760.117	0.68	correct	2back	Block2	2back/STIM_006.jpg
763.438	0.898	correct	2back	Block2	2back/STIM_006.jpg
767.687	0.65	correct	2back	Block2	2back/STIM_006.jpg
772.181	1.099	correct	2back	Block2	2back/STIM_007.jpg
776.346	0.497	correct	2back	Block2	2back/STIM_007.jpg
779.09	0.562	correct	2back	Block2	2back/STIM_007.jpg
781.92	0.765	correct	2back	Block2	2back/STIM_008.jpg
785.351	0.839	correct	2back	Block2	2back/STIM_008.jpg
789.014	0.52	correct	2back	Block2	2back/STIM_008.jpg
792.977	0.916	correct	2back	Block2	2back/STIM_009.jpg
796.715	0.484	correct	2back	Block2	2back/STIM_009.jpg
800.09	0.66	correct	2back	Block2	2back/STIM_009.jpg
803.851	0.968	correct	2back	Block2	2back/STIM_010.jpg
807.321	0.584	correct	2back	Block2	2back/STIM_010.jpg
811.472	0.614	correct	2back	Block2	2back/STIM_010.jpg
814.168	0.999	correct	2back	Block2	2back/STIM_011.jpg
818.479	0.812	correct	2back	Block2	2back/STIM_011.jpg
822.53	0.971	correct	2back	Block2	2back/STIM_011.jpg
827.195	0.62	incorrect	2back	Block2	2back/STIM_012.jpg
830.495	0.643	correct	2back	Block2	2back/STIM_012.jpg
833.687	0.485	correct	2back	Block2	2back/STIM_012.jpg
836.81	0.996	correct	2back	Block2	2back/STIM_013.jpg
840.921	0.54	correct	2back	Block2	2back/STIM_013.jpg
844.063	0.751	correct	2back	Block2	2back/STIM_013.jpg
848.431	0.723	correct	2back	Block2	2back/STIM_014.jpg
852.845	0.687	correct	2back	Block2	2back/STIM_014.jpg
855.971	0.76	correct	2back	Block2	2back/STIM_014.jpg
859.446	0.722	correct	2back	Block2	2back/STIM_015.jpg
863.427	0.789	correct	2back	Block2	2back/STIM_015.jpg
866.25	0.726	incorrect	2back	Block2	2back/STIM_015.jpg
870.954	0.665	correct	2back	Block2	2back/STIM_016.jpg
875.28	0.786	correct	2back	Block2	2back/STIM_016.jpg
879.79	0.695	correct	2back	Block2	2back/STIM_016.jpg
883.077	0.706	correct	2back	Block2	2back/STIM_017.jpg
886.132	0.873	correct	2back	Block2	2back/STIM_017.jpg
890.723	0.506	correct	2back	Block2	2back/STIM_017.jpg
893.456	0.884	correct	2back	Block2	2back/STIM_018.jpg
896.793	0.71	correct	2back	Block2	2back/STIM_018.jpg
901.202	0.599	correct	2back	Block2	2back/STIM_018.jpg
905.346	1.172	correct	2back	Block2	2back/STIM_019.jpg
909.562	0.688	correct	2back	Block2	2back/STIM_019.jpg
913.375	0.906	correct	2back	Block2	2back/STIM_019.jpg
917.388	0.716	correct	2back	Block2	2back/STIM_020.jpg
921.054	1.044	correct	2back	Block2	2back/STIM_020.jpg
925.151	0.891	correct	2back	Block2	2back/STIM_020.jpg
928.739	0.558	correct	2back	Block2	2back/STIM_021.jpg
932.112	0.622	correct	2back	Block2	2back/STIM_021.jpg
936.611	0.942	correct	2back	Block2	2back/STIM_021.jpg
939.603	0.946	correct	2back	Block2	2back/STIM_022.jpg
942.59	0.657	correct	2back	Block2	2back/STIM_022.jpg
946.027	0.471	correct	2back	Block2	2back/STIM_022.jpg
950.422	0.699	correct	2back	Block2	2back/STIM_023.jpg
953.386	1.029	correct	2back	Block2	2back/STIM_023.jpg
957.714	0.888	correct	2back	Block2	2back/STIM_023.jpg
962.401	0.688	correct	2back	Block2	2back/STIM_024.jpg
966.164	0.6	incorrect	2back	Block2	2back/STIM_024.jpg
969.569	1.018	incorrect	2back	Block2	2back/STIM_024.jpg
974.028	0.987	correct	2back	Block2	2back/STIM_025.jpg
978.084	0.507	correct	2back	Block2	2back/STIM_025.jpg
982.377	0.503	correct	2back	Block2	2back/STIM_025.jpg
986.251	0.924	correct	2back	Block2	2back/STIM_026.jpg
990.982	1.03	correct	2back	Block2	2back/STIM_026.jpg
995.391	0.715	correct	2back	Block2	2back/STIM_026.jpg
998.945	0.532	correct	2back	Block2	2back/STIM_027.jpg
1003.229	0.901	correct	2back	Block2	2back/STIM_027.jpg
1007.22	0.688	correct	2back	Block2	2back/STIM_027.jpg
1009.923	1.063	incorrect	2back	Block2	2back/STIM_028.jpg
1014.76	0.941	incorrect	2back	Block2	2back/STIM_028.jpg
1019.089	0.7	correct	2back	Block2	2back/STIM_028.jpg
1023.164	1.052	correct	2back	Block2	2back/STIM_029.jpg
1027.787	1.003	correct	2back	Block2	2back/STIM_029.jpg
1032.546	0.619	correct	2back	Block2	2back/STIM_029.jpg
1037.028	0.714	correct	2back	Block2	2back/STIM_030.jpg
1040.585	0.79	correct	2back	Block2	2back/STIM_030.jpg
1044.749	0.74	correct	2back	Block2	2back/STIM_030.jpg
1049.187	0.621	correct	2back	Block2	2back/STIM_031.jpg
1053.792	0.781	correct	2back	Block2	2back/STIM_031.jpg
1057.475	0.578	correct	2back	Block2	2back/STIM_031.jpg
1061.565	0.562	correct	2back	Block2	2back/STIM_032.jpg
1066.012	1.034	correct	2back	Block2	2back/STIM_032.jpg
1069.106	0.694	correct	2back	Block2	2back/STIM_032.jpg
1073.676	0.556	correct	2back	Block2	2back/STIM_033.jpg
1077.227	0.888	incorrect	2back	Block2	2back/STIM_033.jpg
1081.469	0.92	correct	2back	Block2	2back/STIM_033.jpg
1085.972	0.515	correct	2back	Block2	2back/STIM_034.jpg
1088.577	0.48	incorrect	2back	Block2	2back/STIM_034.jpg
1091.489	0.941	correct	2back	Block2	2back/STIM_034.jpg
1096.364	0.985	correct	2back	Block2	2back/STIM_035.jpg
1100.865	0.585	incorrect	2back	Block2	2back/STIM_035.jpg
1105.284	0.633	correct	2back	Block2	2back/STIM_035.jpg
1109.601	0.914	correct	2back	Block2	2back/STIM_036.jpg
1113.141	1.056	correct	2back	Block2	2back/STIM_036.jpg
1117.255	0.478	correct	2back	Block2	2back/STIM_036.jpg
1119.933	0.973	correct	2back	Block2	2back/STIM_037.jpg
1124.013	0.692	correct	2back	Block2	2back/STIM_037.jpg
1126.896	0.751	correct	2back	Block2	2back/STIM_037.jpg
1129.781	0.876	correct	2back	Block2	2back/STIM_038.jpg
1133.329	0.701	correct	2back	Block2	2back/STIM_038.jpg
1136.272	0.463	correct	2back	Block2	2back/STIM_038.jpg
1139.235	0.676	correct	2back	Block2	2back/STIM_039.jpg
1141.923	1.072	correct	2back	Block2	2back/STIM_039.jpg
1146.422	0.812	correct	2back	Block2	2back/STIM_039.jpg
1149.921	0.591	correct	0back	Block2	0back/STIM_000.jpg
1153.433	0.502	correct	0back	Block2	0back/STIM_000.jpg
1156.113	0.621	correct	0back	Block2	0back/STIM_000.jpg
1159.037	0.684	correct	0back	Block2	0back/STIM_001.jpg
1162.404	0.779	correct	0back	Block2	0back/STIM_001.jpg
1166.94	0.651	correct	0back	Block2	0back/STIM_001.jpg
1170.086	0.425	correct	0back	Block2	0back/STIM_002.jpg
1172.575	0.721	correct	0back	Block2	0back/STIM_002.jpg
1175.593	0.641	correct	0back	Block2	0back/STIM_002.jpg
1180.06	0.417	correct	0back	Block2	0back/STIM_003.jpg
1183.856	0.407	correct	0back	Block2	0back/STIM_003.jpg
1187.957	0.582	correct	0back	Block2	0back/STIM_003.jpg
1191.485	0.516	correct	0back	Block2	0back/STIM_004.jpg
1195.313	0.593	correct	0back	Block2	0back/STIM_004.jpg
1199.815	0.665	correct	0back	Block2	0back/STIM_004.jpg
1203.278	0.499	correct	0back	Block2	0back/STIM_005.jpg
1206.975	0.587	correct	0back	Block2	0back/STIM_005.jpg
1210.268	0.677	correct	0back	Block2	0back/STIM_005.jpg
1214.91	0.777	correct	0back	Block2	0back/STIM_006.jpg
1219.357	0.718	correct	0back	Block2	0back/STIM_006.jpg
1222.678	0.418	correct	0back	Block2	0back/STIM_006.jpg
1225.55	0.412	correct	0back	Block2	0back/STIM_007.jpg
1229.245	0.464	correct	0back	Block2	0back/STIM_007.jpg
1232.905	0.727	incorrect	0back	Block2	0back/STIM_007.jpg
1237.033	0.537	correct	0back	Block2	0back/STIM_008.jpg
1239.844	0.684	correct	0back	Block2	0back/STIM_008.jpg
1243.772	0.447	correct	0back	Block2	0back/STIM_008.jpg
1247.964	0.424	correct	0back	Block2	0back/STIM_009.jpg
1250.645	0.492	correct	0back	Block2	0back/STIM_009.jpg
1253.31	0.467	correct	0back	Block2	0back/STIM_009.jpg
1255.988	0.641	correct	0back	Block2	0back/STIM_010.jpg
1258.913	0.526	correct	0back	Block2	0back/STIM_010.jpg
1262.915	0.781	correct	0back	Block2	0back/STIM_010.jpg
1266.46	0.761	correct	0back	Block2	0back/STIM_011.jpg
1269.879	0.552	correct	0back	Block2	0back/STIM_011.jpg
1272.726	0.468	correct	0back	Block2	0back/STIM_011.jpg
1276.746	0.733	correct	0back	Block2	0back/STIM_012.jpg
1281.372	0.603	incorrect	0back	Block2	0back/STIM_012.jpg
1284.611	0.726	correct	0back	Block2	0back/STIM_012.jpg
1287.529	0.511	correct	0back	Block2	0back/STIM_013.jpg
1290.597	0.532	correct	0back	Block2	0back/STIM_013.jpg
1294.613	0.497	correct	0back	Block2	0back/STIM_013.jpg
1297.623	0.567	correct	0back	Block2	0back/STIM_014.jpg
1301.169	0.734	correct	0back	Block2	0back/STIM_014.jpg
1305.182	0.725	correct	0back	Block2	0back/STIM_014.jpg
1308.095	0.695	correct	0back	Block2	0back/STIM_015.jpg
1311.262	0.792	correct	0back	Block2	0back/STIM_015.jpg
1314.945	0.712	correct	0back	Block2	0back/STIM_015.jpg
1318.683	0.519	correct	0back	Block2	0back/STIM_016.jpg
1322.134	0.544	correct	0back	Block2	0back/STIM_016.jpg
1324.759	0.496	correct	0back	Block2	0back/STIM_016.jpg
1328.136	0.47	correct	0back	Block2	0back/STIM_017.jpg
1330.787	0.627	correct	0back	Block2	0back/STIM_017.jpg
1333.459	0.452	correct	0back	Block2	0back/STIM_017.jpg
1337.869	0.544	correct	0back	Block2	0back/STIM_018.jpg
1341.631	0.667	correct	0back	Block2	0back/STIM_018.jpg
1345.06	0.53	correct	0back	Block2	0back/STIM_018.jpg
1348.463	0.453	correct	0back	Block2	0back/STIM_019.jpg
1352.036	0.67	correct	0back	Block2	0back/STIM_019.jpg
1355.364	0.757	correct	0back	Block2	0back/STIM_019.jpg
1358.897	0.58	correct	2back	Block3	2back/STIM_000.jpg
1362.472	0.882	correct	2back	Block3	2back/STIM_000.jpg
1366.056	0.762	correct	2back	Block3	2back/STIM_000.jpg
1368.966	0.783	correct	2back	Block3	2back/STIM_001.jpg
1372.511	0.724	correct	2back	Block3	2back/STIM_001.jpg
1375.795	0.968	correct	2back	Block3	2back/STIM_001.jpg
1379.991	0.756	correct	2back	Block3	2back/STIM_002.jpg
1383.753	0.789	correct	2back	Block3	2back/STIM_002.jpg
1387.933	0.906	correct	2back	Block3	2back/STIM_002.jpg
1392.479	0.712	correct	2back	Block3	2back/STIM_003.jpg
1396.634	0.487	correct	2back	Block3	2back/STIM_003.jpg
1400.537	0.748	correct	2back	Block3	2back/STIM_003.jpg
1404.236	0.821	correct	2back	Block3	2back/STIM_004.jpg
1408.916	0.704	correct	2back	Block3	2back/STIM_004.jpg
1412.662	0.794	correct	2back	Block3	2back/STIM_004.jpg
1417.301	0.45	correct	2back	Block3	2back/STIM_005.jpg
1421.668	0.556	correct	2back	Block3	2back/STIM_005.jpg
1424.795	0.479	incorrect	2back	Block3	2back/STIM_005.jpg
1428.524	0.639	correct	2back	Block3	2back/STIM_006.jpg
1431.183	0.482	correct	2back	Block3	2back/STIM_006.jpg
1434.241	0.737	correct	2back	Block3	2back/STIM_006.jpg
1437.775	0.569	correct	2back	Block3	2back/STIM_007.jpg
1440.948	0.498	correct	2back	Block3	2back/STIM_007.jpg
1444.041	0.932	correct	2back	Block3	2back/STIM_007.jpg
1447.1	0.596	correct	2back	Block3	2back/STIM_008.jpg
1451.506	0.706	correct	2back	Block3	2back/STIM_008.jpg
1455.234	0.795	correct	2back	Block3	2back/STIM_008.jpg
1459.012	0.428	correct	2back	Block3	2back/STIM_009.jpg
1461.832	0.971	correct	2back	Block3	2back/STIM_009.jpg
1465.751	0.901	correct	2back	Block3	2back/STIM_009.jpg
1468.955	0.873	correct	2back	Block3	2back/STIM_010.jpg
1473.676	0.43	correct	2back	Block3	2back/STIM_010.jpg
1476.796	0.655	correct	2back	Block3	2back/STIM_010.jpg
1481.284	0.584	correct	2back	Block3	2back/STIM_011.jpg
1484.16	0.81	correct	2back	Block3	2back/STIM_011.jpg
1486.988	0.711	correct	2back	Block3	2back/STIM_011.jpg
1490.785	0.502	correct	2back	Block3	2back/STIM_012.jpg
1495.138	0.499	correct	2back	Block3	2back/STIM_012.jpg
1498.9	0.852	correct	2back	Block3	2back/STIM_012.jpg
1503.039	0.53	correct	2back	Block3	2back/STIM_013.jpg
1506.754	0.649	correct	2back	Block3	2back/STIM_013.jpg
1510.347	0.534	correct	2back	Block3	2back/STIM_013.jpg
1513.449	0.716	correct	2back	Block3	2back/STIM_014.jpg
1517.695	0.872	correct	2back	Block3	2back/STIM_014.jpg
1522.062	0.704	incorrect	2back	Block3	2back/STIM_014.jpg
1526.733	0.572	correct	2back	Block3	2back/STIM_015.jpg
1530.208	0.969	correct	2back	Block3	2back/STIM_015.jpg
1533.61	0.829	correct	2back	Block3	2back/STIM_015.jpg
1536.459	0.882	correct	2back	Block3	2back/STIM_016.jpg
1540.128	0.518	correct	2back	Block3	2back/STIM_016.jpg
1543.114	0.425	correct	2back	Block3	2back/STIM_016.jpg
1546.292	0.97	correct	2back	Block3	2back/STIM_017.jpg
1549.432	0.72	correct	2back	Block3	2back/STIM_017.jpg
1554.123	0.669	correct	2back	Block3	2back/STIM_017.jpg
1558.472	0.729	correct	2back	Block3	2back/STIM_018.jpg
1561.406	0.563	correct	2back	Block3	2back/STIM_018.jpg
1565.742	0.574	correct	2back	Block3	2back/STIM_018.jpg
1569.064	0.528	correct	2back	Block3	2back/STIM_019.jpg
1573.053	0.768	correct	2back	Block3	2back/STIM_019.jpg
1576.832	0.971	correct	2back	Block3	2back/STIM_019.jpg
1580.253	0.82	correct	2back	Block3	2back/STIM_020.jpg
1584.105	0.539	correct	2back	Block3	2back/STIM_020.jpg
1588.484	0.925	correct	2back	Block3	2back/STIM_020.jpg
1592.857	0.64	correct	2back	Block3	2back/STIM_021.jpg
1596.263	0.889	correct	2back	Block3	2back/STIM_021.jpg
1599.528	0.822	correct	2back	Block3	2back/STIM_021.jpg
1603.575	0.617	correct	2back	Block3	2back/STIM_022.jpg
1608.036	0.766	correct	2back	Block3	2back/STIM_022.jpg
1611.409	0.684	correct	2back	Block3	2back/STIM_022.jpg
1614.76	0.693	correct	2back	Block3	2back/STIM_023.jpg
1618.421	0.816	correct	2back	Block3	2back/STIM_023.jpg
1623.168	0.939	correct	2back	Block3	2back/STIM_023.jpg
1627.475	0.672	correct	2back	Block3	2back/STIM_024.jpg
1631.264	0.761	correct	2back	Block3	2back/STIM_024.jpg
1635.858	0.721	correct	2back	Block3	2back/STIM_024.jpg
1639.671	0.747	incorrect	2back	Block3	2back/STIM_025.jpg
1643.371	0.693	correct	2back	Block3	2back/STIM_025.jpg
1646.17	0.561	correct	2back	Block3	2back/STIM_025.jpg
1649.377	0.434	correct	2back	Block3	2back/STIM_026.jpg
1653.367	0.423	correct	2back	Block3	2back/STIM_026.jpg
1657.769	0.572	correct	2back	Block3	2back/STIM_026.jpg
1661.842	0.724	correct	2back	Block3	2back/STIM_027.jpg
1666.49	0.842	correct	2back	Block3	2back/STIM_027.jpg
1669.721	0.539	correct	2back	Block3	2back/STIM_027.jpg
1672.825	0.615	correct	2back	Block3	2back/STIM_028.jpg
1676.701	0.616	correct	2back	Block3	2back/STIM_028.jpg
1679.651	0.856	correct	2back	Block3	2back/STIM_028.jpg
1684.244	0.522	correct	2back	Block3	2back/STIM_029.jpg
1687.867	0.486	correct	2back	Block3	2back/STIM_029.jpg
1691.757	0.74	correct	2back	Block3	2back/STIM_029.jpg
1695.271	0.461	correct	2back	Block3	2back/STIM_030.jpg
1698.221	0.621	correct	2back	Block3	2back/STIM_030.jpg
1702.114	0.589	correct	2back	Block3	2back/STIM_030.jpg
1706.045	0.953	correct	2back	Block3	2back/STIM_031.jpg
1710.258	0.531	correct	2back	Block3	2back/STIM_031.jpg
1713.057	0.885	correct	2back	Block3	2back/STIM_031.jpg
1716.53	0.663	incorrect	2back	Block3	2back/STIM_032.jpg
1719.981	0.69	correct	2back	Block3	2back/STIM_032.jpg
1723.873	0.665	correct	2back	Block3	2back/STIM_032.jpg
1728.486	0.888	correct	2back	Block3	2back/STIM_033.jpg
1731.876	0.635	correct	2back	Block3	2back/STIM_033.jpg
1734.993	0.791	correct	2back	Block3	2back/STIM_033.jpg
1738.941	0.865	correct	2back	Block3	2back/STIM_034.jpg
1742.449	0.899	correct	2back	Block3	2back/STIM_034.jpg
1745.811	0.831	correct	2back	Block3	2back/STIM_034.jpg
1749.682	0.634	correct	2back	Block3	2back/STIM_035.jpg
1753.658	0.643	correct	2back	Block3	2back/STIM_035.jpg
1757.787	0.727	correct	2back	Block3	2back/STIM_035.jpg
1761.796	0.567	correct	2back	Block3	2back/STIM_036.jpg
1765.581	0.64	correct	2back	Block3	2back/STIM_036.jpg
1769.361	0.728	correct	2back	Block3	2back/STIM_036.jpg
1773.47	0.808	correct	2back	Block3	2back/STIM_037.jpg
1776.808	0.83	correct	2back	Block3	2back/STIM_037.jpg
1780.892	0.659	correct	2back	Block3	2back/STIM_037.jpg
1785.451	0.825	correct	2back	Block3	2back/STIM_038.jpg
1790.168	0.592	correct	2back	Block3	2back/STIM_038.jpg
1794.676	0.904	correct	2back	Block3	2back/STIM_038.jpg
1799.27	0.6	correct	2back	Block3	2back/STIM_039.jpg
1802.557	0.698	correct	2back	Block3	2back/STIM_039.jpg
1806.876	0.924	correct	2back	Block3	2back/STIM_039.jpg
1809.97	0.726	correct	0back	Block3	0back/STIM_000.jpg
1812.764	0.569	correct	0back	Block3	0back/STIM_000.jpg
1815.369	0.596	correct	0back	Block3	0back/STIM_000.jpg
1818.629	0.427	correct	0back	Block3	0back/STIM_001.jpg
1822.662	0.436	correct	0back	Block3	0back/STIM_001.jpg
1826.251	0.62	correct	0back	Block3	0back/STIM_001.jpg
1829.408	0.541	correct	0back	Block3	0back/STIM_002.jpg
1832.905	0.729	correct	0back	Block3	0back/STIM_002.jpg
1835.81	0.642	correct	0back	Block3	0back/STIM_002.jpg
1839.857	0.468	correct	0back	Block3	0back/STIM_003.jpg
1842.364	0.68	correct	0back	Block3	0back/STIM_003.jpg
1846.849	0.633	correct	0back	Block3	0back/STIM_003.jpg
1849.899	0.748	correct	0back	Block3	0back/STIM_004.jpg
1854.311	0.503	correct	0back	Block3	0back/STIM_004.jpg
1858.397	0.542	correct	0back	Block3	0back/STIM_004.jpg
1862.54	0.54	correct	0back	Block3	0back/STIM_005.jpg
1865.481	0.651	correct	0back	Block3	0back/STIM_005.jpg
1870.068	0.7	correct	0back	Block3	0back/STIM_005.jpg
1874.091	0.573	correct	0back	Block3	0back/STIM_006.jpg
1877.637	0.454	correct	0back	Block3	0back/STIM_006.jpg
1881.277	0.601	correct	0back	Block3	0back/STIM_006.jpg
1884.917	0.541	correct	0back	Block3	0back/STIM_007.jpg
1887.684	0.676	correct	0back	Block3	0back/STIM_007.jpg
1891.01	0.518	incorrect	0back	Block3	0back/STIM_007.jpg
1894.283	0.504	correct	0back	Block3	0back/STIM_008.jpg
1897.022	0.541	correct	0back	Block3	0back/STIM_008.jpg
1900.356	0.457	correct	0back	Block3	0back/STIM_008.jpg
1904.694	0.756	correct	0back	Block3	0back/STIM_009.jpg
1909.202	0.596	correct	0back	Block3	0back/STIM_009.jpg
1912.805	0.464	correct	0back	Block3	0back/STIM_009.jpg
1916.197	0.487	correct	0back	Block3	0back/STIM_010.jpg
1920.448	0.629	correct	0back	Block3	0back/STIM_010.jpg
1923.276	0.476	correct	0back	Block3	0back/STIM_010.jpg
1925.951	0.515	correct	0back	Block3	0back/STIM_011.jpg
1930.258	0.401	correct	0back	Block3	0back/STIM_011.jpg
1934.657	0.546	correct	0back	Block3	0back/STIM_011.jpg
1938.744	0.664	correct	0back	Block3	0back/STIM_012.jpg
1941.708	0.419	correct	0back	Block3	0back/STIM_012.jpg
1945.747	0.422	correct	0back	Block3	0back/STIM_012.jpg
1948.546	0.692	correct	0back	Block3	0back/STIM_013.jpg
1951.448	0.49	correct	0back	Block3	0back/STIM_013.jpg
1955.173	0.736	correct	0back	Block3	0back/STIM_013.jpg
1958.447	0.423	correct	0back	Block3	0back/STIM_014.jpg
1962.861	0.423	correct	0back	Block3	0back/STIM_014.jpg
1965.434	0.766	correct	0back	Block3	0back/STIM_014.jpg
1968.294	0.733	correct	0back	Block3	0back/STIM_015.jpg
1972.071	0.77	correct	0back	Block3	0back/STIM_015.jpg
1975.188	0.748	correct	0back	Block3	0back/STIM_015.jpg
1979.5	0.725	correct	0back	Block3	0back/STIM_016.jpg
1983.151	0.604	correct	0back	Block3	0back/STIM_016.jpg
1987.548	0.47	correct	0back	Block3	0back/STIM_016.jpg
1990.206	0.461	correct	0back	Block3	0back/STIM_017.jpg
1992.749	0.554	correct	0back	Block3	0back/STIM_017.jpg
1995.447	0.438	correct	0back	Block3	0back/STIM_017.jpg
1998.622	0.782	correct	0back	Block3	0back/STIM_018.jpg
2002.86	0.757	correct	0back	Block3	0back/STIM_018.jpg
2006.397	0.56	correct	0back	Block3	0back/STIM_018.jpg
2010.629	0.702	correct	0back	Block3	0back/STIM_019.jpg
2014.487	0.754	correct	0back	Block3	0back/STIM_019.jpg
2018.334	0.552	correct	0back	Block3	0back/STIM_019.jpg
2022.388	0.606	correct	2back	Block4	2back/STIM_000.jpg
2025.256	0.568	correct	2back	Block4	2back/STIM_000.jpg
2029.132	0.932	correct	2back	Block4	2back/STIM_000.jpg
2033.556	0.798	correct	2back	Block4	2back/STIM_001.jpg
2038.203	0.429	correct	2back	Block4	2back/STIM_001.jpg
2041.536	0.508	correct	2back	Block4	2back/STIM_001.jpg
2045.722	0.43	correct	2back	Block4	2back/STIM_002.jpg
2049.133	0.563	correct	2back	Block4	2back/STIM_002.jpg
2052.632	0.444	correct	2back	Block4	2back/STIM_002.jpg
2056.407	0.491	correct	2back	Block4	2back/STIM_003.jpg
2059.439	0.866	correct	2back	Block4	2back/STIM_003.jpg
2062.334	0.689	correct	2back	Block4	2back/STIM_003.jpg
2065.746	0.748	correct	2back	Block4	2back/STIM_004.jpg
2070.11	0.65	correct	2back	Block4	2back/STIM_004.jpg
2073.058	0.839	incorrect	2back	Block4	2back/STIM_004.jpg
2077.381	0.526	correct	2back	Block4	2back/STIM_005.jpg
2080.599	0.722	correct	2back	Block4	2back/STIM_005.jpg
2084.698	0.742	correct	2back	Block4	2back/STIM_005.jpg
2089.192	0.889	correct	2back	Block4	2back/STIM_006.jpg
2093.56	0.493	correct	2back	Block4	2back/STIM_006.jpg
2096.515	0.654	correct	2back	Block4	2back/STIM_006.jpg
2100.031	0.899	correct	2back	Block4	2back/STIM_007.jpg
2103.65	0.688	correct	2back	Block4	2back/STIM_007.jpg
2107.675	0.715	correct	2back	Block4	2back/STIM_007.jpg
2111.215	0.881	correct	2back	Block4	2back/STIM_008.jpg
2115.441	0.716	correct	2back	Block4	2back/STIM_008.jpg
2118.851	0.721	incorrect	2back	Block4	2back/STIM_008.jpg
2122.535	0.822	correct	2back	Block4	2back/STIM_009.jpg
2125.58	0.687	correct	2back	Block4	2back/STIM_009.jpg
2128.475	0.418	correct	2back	Block4	2back/STIM_009.jpg
2132.168	0.59	correct	2back	Block4	2back/STIM_010.jpg
2136.41	0.962	correct	2back	Block4	2back/STIM_010.jpg
2139.457	0.626	correct	2back	Block4	2back/STIM_010.jpg
2143.762	0.808	correct	2back	Block4	2back/STIM_011.jpg
2147.259	0.929	correct	2back	Block4	2back/STIM_011.jpg
2152.097	0.86	correct	2back	Block4	2back/STIM_011.jpg
2155.853	0.61	correct	2back	Block4	2back/STIM_012.jpg
2158.759	0.754	correct	2back	Block4	2back/STIM_012.jpg
2161.676	0.774	incorrect	2back	Block4	2back/STIM_012.jpg
2165.956	0.475	correct	2back	Block4	2back/STIM_013.jpg
2169.581	0.518	correct	2back	Block4	2back/STIM_013.jpg
2172.91	0.69	correct	2back	Block4	2back/STIM_013.jpg
2176.416	0.791	correct	2back	Block4	2back/STIM_014.jpg
2179.346	0.643	correct	2back	Block4	2back/STIM_014.jpg
2182.374	0.451	correct	2back	Block4	2back/STIM_014.jpg
2185.386	0.551	correct	2back	Block4	2back/STIM_015.jpg
2189.482	0.72	correct	2back	Block4	2back/STIM_015.jpg
2192.315	0.602	correct	2back	Block4	2back/STIM_015.jpg
2196.601	0.598	correct	2back	Block4	2back/STIM_016.jpg
2199.457	0.85	correct	2back	Block4	2back/STIM_016.jpg
2202.376	0.812	correct	2back	Block4	2back/STIM_016.jpg
2205.753	0.837	correct	2back	Block4	2back/STIM_017.jpg
2210.326	0.512	correct	2back	Block4	2back/STIM_017.jpg
2213.172	0.891	correct	2back	Block4	2back/STIM_017.jpg
2216.775	0.904	correct	2back	Block4	2back/STIM_018.jpg
2221.286	0.664	correct	2back	Block4	2back/STIM_018.jpg
2225.724	0.687	correct	2back	Block4	2back/STIM_018.jpg
2230.07	0.605	correct	2back	Block4	2back/STIM_019.jpg
2233.788	0.899	correct	2back	Block4	2back/STIM_019.jpg
2238.676	0.968	correct	2back	Block4	2back/STIM_019.jpg
2243.115	0.858	correct	2back	Block4	2back/STIM_020.jpg
2246.13	0.933	correct	2back	Block4	2back/STIM_020.jpg
2249.11	0.452	correct	2back	Block4	2back/STIM_020.jpg
2251.633	0.96	correct	2back	Block4	2back/STIM_021.jpg
2256.326	0.555	correct	2back	Block4	2back/STIM_021.jpg
2259.961	0.817	correct	2back	Block4	2back/STIM_021.jpg
2263.138	0.831	correct	2back	Block4	2back/STIM_022.jpg
2266.206	0.519	correct	2back	Block4	2back/STIM_022.jpg
2269.112	0.491	correct	2back	Block4	2back/STIM_022.jpg
2273.05	0.886	correct	2back	Block4	2back/STIM_023.jpg
2276.871	0.518	correct	2back	Block4	2back/STIM_023.jpg
2279.486	0.474	correct	2back	Block4	2back/STIM_023.jpg
2283.852	0.505	correct	2back	Block4	2back/STIM_024.jpg
2286.863	0.872	correct	2back	Block4	2back/STIM_024.jpg
2289.835	0.778	correct	2back	Block4	2back/STIM_024.jpg
2293.556	0.592	correct	2back	Block4	2back/STIM_025.jpg
2296.617	0.77	correct	2back	Block4	2back/STIM_025.jpg
2301.257	0.691	correct	2back	Block4	2back/STIM_025.jpg
2305.452	0.555	correct	2back	Block4	2back/STIM_026.jpg
2309.068	0.623	correct	2back	Block4	2back/STIM_026.jpg
2312.941	0.455	correct	2back	Block4	2back/STIM_026.jpg
2317.033	0.581	correct	2back	Block4	2back/STIM_027.jpg
2320.781	0.748	correct	2back	Block4	2back/STIM_027.jpg
2324.866	0.775	correct	2back	Block4	2back/STIM_027.jpg
2328.647	0.578	correct	2back	Block4	2back/STIM_028.jpg
2331.762	0.458	correct	2back	Block4	2back/STIM_028.jpg
2334.912	0.521	correct	2back	Block4	2back/STIM_028.jpg
2337.645	0.535	correct	2back	Block4	2back/STIM_029.jpg
2341.041	0.508	correct	2back	Block4	2back/STIM_029.jpg
2344.587	0.663	correct	2back	Block4	2back/STIM_029.jpg
2348.715	0.806	correct	2back	Block4	2back/STIM_030.jpg
2352.108	0.526	correct	2back	Block4	2back/STIM_030.jpg
2356.033	0.632	correct	2back	Block4	2back/STIM_030.jpg
2360.452	0.608	correct	2back	Block4	2back/STIM_031.jpg
2363.137	0.671	correct	2back	Block4	2back/STIM_031.jpg
2366.722	0.827	correct	2back	Block4	2back/STIM_031.jpg
2370.04	0.805	correct	2back	Block4	2back/STIM_032.jpg
2373.112	0.946	correct	2back	Block4	2back/STIM_032.jpg
2377.871	0.831	correct	2back	Block4	2back/STIM_032.jpg
2382.705	0.546	correct	2back	Block4	2back/STIM_033.jpg
2386.79	0.897	correct	2back	Block4	2back/STIM_033.jpg
2390.74	0.692	correct	2back	Block4	2back/STIM_033.jpg
2393.511	0.832	correct	2back	Block4	2back/STIM_034.jpg
2398.011	0.706	correct	2back	Block4	2back/STIM_034.jpg
2401.577	0.914	correct	2back	Block4	2back/STIM_034.jpg
2405.792	0.732	correct	2back	Block4	2back/STIM_035.jpg
2410.112	0.88	correct	2back	Block4	2back/STIM_035.jpg
2413.852	0.522	correct	2back	Block4	2back/STIM_035.jpg
2416.772	0.486	correct	2back	Block4	2back/STIM_036.jpg
2421.117	0.59	correct	2back	Block4	2back/STIM_036.jpg
2425.128	0.498	correct	2back	Block4	2back/STIM_036.jpg
2428.338	0.604	correct	2back	Block4	2back/STIM_037.jpg
2432.387	0.661	correct	2back	Block4	2back/STIM_037.jpg
2435.878	0.422	correct	2back	Block4	2back/STIM_037.jpg
2440.273	0.881	correct	2back	Block4	2back/STIM_038.jpg
2443.278	0.486	correct	2back	Block4	2back/STIM_038.jpg
2447.521	0.839	correct	2back	Block4	2back/STIM_038.jpg
2451.447	0.548	correct	2back	Block4	2back/STIM_039.jpg
2454.894	0.718	correct	2back	Block4	2back/STIM_039.jpg
2457.772	0.689	correct	2back	Block4	2back/STIM_039.jpg
2462.009	0.694	correct	0back	Block4	0back/STIM_000.jpg
2465.599	0.524	correct	0back	Block4	0back/STIM_000.jpg
2469.145	0.467	correct	0back	Block4	0back/STIM_000.jpg
2473.242	0.58	correct	0back	Block4	0back/STIM_001.jpg
2476.108	0.418	correct	0back	Block4	0back/STIM_001.jpg
2479.495	0.433	correct	0back	Block4	0back/STIM_001.jpg
2482.856	0.428	correct	0back	Block4	0back/STIM_002.jpg
2485.322	0.721	correct	0back	Block4	0back/STIM_002.jpg
2489.77	0.764	correct	0back	Block4	0back/STIM_002.jpg
2492.611	0.465	correct	0back	Block4	0back/STIM_003.jpg
2495.9	0.402	correct	0back	Block4	0back/STIM_003.jpg
2498.699	0.449	correct	0back	Block4	0back/STIM_003.jpg
2501.65	0.693	correct	0back	Block4	0back/STIM_004.jpg
2505.221	0.47	correct	0back	Block4	0back/STIM_004.jpg
2507.957	0.42	correct	0back	Block4	0back/STIM_004.jpg
2512.285	0.748	correct	0back	Block4	0back/STIM_005.jpg
2515.589	0.5	correct	0back	Block4	0back/STIM_005.jpg
2519.485	0.699	correct	0back	Block4	0back/STIM_005.jpg
2522.649	0.593	correct	0back	Block4	0back/STIM_006.jpg
2526.336	0.68	correct	0back	Block4	0back/STIM_006.jpg
2529.565	0.567	correct	0back	Block4	0back/STIM_006.jpg
2532.362	0.58	correct	0back	Block4	0back/STIM_007.jpg
2536.834	0.79	correct	0back	Block4	0back/STIM_007.jpg
2540.677	0.735	correct	0back	Block4	0back/STIM_007.jpg
2544.782	0.419	correct	0back	Block4	0back/STIM_008.jpg
2547.531	0.684	correct	0back	Block4	0back/STIM_008.jpg
2551.296	0.768	correct	0back	Block4	0back/STIM_008.jpg
2555.277	0.47	correct	0back	Block4	0back/STIM_009.jpg
2559.736	0.747	correct	0back	Block4	0back/STIM_009.jpg
2564.162	0.746	correct	0back	Block4	0back/STIM_009.jpg
2567.706	0.768	correct	0back	Block4	0back/STIM_010.jpg
2572.167	0.564	correct	0back	Block4	0back/STIM_010.jpg
2575.189	0.757	correct	0back	Block4	0back/STIM_010.jpg
2578.425	0.684	correct	0back	Block4	0back/STIM_011.jpg
2581.887	0.525	correct	0back	Block4	0back/STIM_011.jpg
2586.32	0.511	correct	0back	Block4	0back/STIM_011.jpg
2589.245	0.764	correct	0back	Block4	0back/STIM_012.jpg
2592.724	0.51	correct	0back	Block4	0back/STIM_012.jpg
2596.087	0.757	correct	0back	Block4	0back/STIM_012.jpg
2600.323	0.597	correct	0back	Block4	0back/STIM_013.jpg
2603.961	0.587	correct	0back	Block4	0back/STIM_013.jpg
2608.402	0.522	correct	0back	Block4	0back/STIM_013.jpg
2612.551	0.583	correct	0back	Block4	0back/STIM_014.jpg
2616.625	0.422	correct	0back	Block4	0back/STIM_014.jpg
2620.369	0.507	incorrect	0back	Block4	0back/STIM_014.jpg
2624.487	0.638	correct	0back	Block4	0back/STIM_015.jpg
2627.168	0.542	correct	0back	Block4	0back/STIM_015.jpg
2631.206	0.769	correct	0back	Block4	0back/STIM_015.jpg
2635.106	0.504	correct	0back	Block4	0back/STIM_016.jpg
2638.959	0.407	correct	0back	Block4	0back/STIM_016.jpg
2643.136	0.594	correct	0back	Block4	0back/STIM_016.jpg
2646.353	0.53	correct	0back	Block4	0back/STIM_017.jpg
2648.949	0.404	correct	0back	Block4	0back/STIM_017.jpg
2652.947	0.628	correct	0back	Block4	0back/STIM_017.jpg
2656.116	0.459	correct	0back	Block4	0back/STIM_018.jpg
2660.511	0.699	correct	0back	Block4	0back/STIM_018.jpg
2664.162	0.499	correct	0back	Block4	0back/STIM_018.jpg
2666.782	0.68	correct	0back	Block4	0back/STIM_019.jpg
2670.042	0.458	correct	0back	Block4	0back/STIM_019.jpg
2673.354	0.516	correct	0back	Block4	0back/STIM_019.jpg
