onset	duration	response_time_ms	trial_type	learning_stage	stimulus	response_port
0.0	0.944	943.8	2back	Block1	2back/STIM_000.jpg	100
3.961	1.803	1803.0	2back	Block1	2back/STIM_000.jpg	99
9.641	1.628	1627.9	2back	Block1	2back/STIM_000.jpg	99
13.728	1.287	1287.2	2back	Block1	2back/STIM_001.jpg	100
18.168	1.621	1620.6	2back	Block1	2back/STIM_001.jpg	99
23.063	1.541	1541.4	2back	Block1	2back/STIM_001.jpg	99
27.602	1.367	1366.9	2back	Block1	2back/STIM_002.jpg	100
31.051	0.806	806.3	2back	Block1	2back/STIM_002.jpg	100
35.679	0.862	862.5	2back	Block1	2back/STIM_002.jpg	99
40.267	1.834	1834.0	2back	Block1	2back/STIM_003.jpg	99
44.111	1.709	1709.4	2back	Block1	2back/STIM_003.jpg	99
48.633	1.379	1379.1	2back	Block1	2back/STIM_003.jpg	100
53.128	1.584	1583.5	2back	Block1	2back/STIM_004.jpg	99
57.382	1.41	1410.5	2back	Block1	2back/STIM_004.jpg	99
61.943	0.989	989.0	2back	Block1	2back/STIM_004.jpg	99
65.385	1.435	1435.4	2back	Block1	2back/STIM_005.jpg	99
69.002	1.277	1276.9	2back	Block1	2back/STIM_005.jpg	99
72.546	0.832	831.7	2back	Block1	2back/STIM_005.jpg	99
77.137	1.928	1928.2	2back	Block1	2back/STIM_006.jpg	99
81.299	0.826	825.9	2back	Block1	2back/STIM_006.jpg	100
84.22	0.822	822.4	2back	Block1	2back/STIM_006.jpg	99
88.399	1.687	1686.9	2back	Block1	2back/STIM_007.jpg	100
92.277	1.045	1045.3	2back	Block1	2back/STIM_007.jpg	100
96.217	1.716	1715.9	2back	Block1	2back/STIM_007.jpg	99
101.369	1.912	1911.7	2back	Block1	2back/STIM_008.jpg	100
105.848	1.78	1779.8	2back	Block1	2back/STIM_008.jpg	99
110.835	0.98	979.5	2back	Block1	2back/STIM_008.jpg	99
113.951	1.209	1209.3	2back	Block1	2back/STIM_009.jpg	100
118.745	0.967	966.6	2back	Block1	2back/STIM_009.jpg	100
122.847	1.545	1544.7	2back	Block1	2back/STIM_009.jpg	99
127.244	1.53	1529.9	2back	Block1	2back/STIM_010.jpg	99
131.668	1.177	1176.8	2back	Block1	2back/STIM_010.jpg	100
135.893	0.95	949.9	2back	Block1	2back/STIM_010.jpg	99
139.177	1.805	1805.1	2back	Block1	2back/STIM_011.jpg	99
144.535	1.628	1628.2	2back	Block1	2back/STIM_011.jpg	100
149.102	0.902	901.8	2back	Block1	2back/STIM_011.jpg	99
152.401	0.967	967.0	2back	Block1	2back/STIM_012.jpg	99
157.157	1.649	1649.0	2back	Block1	2back/STIM_012.jpg	99
161.078	0.869	868.8	2back	Block1	2back/STIM_012.jpg	100
164.93	1.367	1367.1	2back	Block1	2back/STIM_013.jpg	99
168.798	1.263	1262.8	2back	Block1	2back/STIM_013.jpg	99
173.925	1.21	1209.7	2back	Block1	2back/STIM_013.jpg	99
177.318	1.796	1796.2	2back	Block1	2back/STIM_014.jpg	100
181.9	1.08	1080.1	2back	Block1	2back/STIM_014.jpg	100
186.086	1.205	1205.1	2back	Block1	2back/STIM_014.jpg	100
189.741	0.964	964.4	2back	Block1	2back/STIM_015.jpg	100
193.958	1.137	1136.6	2back	Block1	2back/STIM_015.jpg	100
198.975	1.317	1317.4	2back	Block1	2back/STIM_015.jpg	100
202.433	1.767	1766.8	2back	Block1	2back/STIM_016.jpg	100
207.461	0.966	966.5	2back	Block1	2back/STIM_016.jpg	100
210.83	1.041	1041.0	2back	Block1	2back/STIM_016.jpg	99
215.478	1.351	1350.7	2back	Block1	2back/STIM_017.jpg	100
219.352	1.197	1197.4	2back	Block1	2back/STIM_017.jpg	100
223.199	1.424	1423.7	2back	Block1	2back/STIM_017.jpg	100
227.884	1.611	1610.9	2back	Block1	2back/STIM_018.jpg	99
233.05	0.974	973.7	2back	Block1	2back/STIM_018.jpg	99
237.089	1.72	1720.5	2back	Block1	2back/STIM_018.jpg	99
242.131	1.057	1056.6	2back	Block1	2back/STIM_019.jpg	100
246.327	1.07	1069.8	2back	Block1	2back/STIM_019.jpg	100
250.55	1.569	1569.3	2back	Block1	2back/STIM_019.jpg	100
254.414	1.057	1057.3	2back	Block1	2back/STIM_020.jpg	100
257.757	1.066	1065.5	2back	Block1	2back/STIM_020.jpg	99
261.238	1.525	1524.7	2back	Block1	2back/STIM_020.jpg	99
265.444	1.756	1756.5	2back	Block1	2back/STIM_021.jpg	99
269.896	1.819	1819.4	2back	Block1	2back/STIM_021.jpg	100
275.447	1.235	1235.3	2back	Block1	2back/STIM_021.jpg	99
280.468	1.561	1561.3	2back	Block1	2back/STIM_022.jpg	99
284.457	1.331	1331.4	2back	Block1	2back/STIM_022.jpg	99
287.835	1.419	1419.1	2back	Block1	2back/STIM_022.jpg	100
291.348	0.996	995.7	2back	Block1	2back/STIM_023.jpg	100
294.861	1.273	1273.4	2back	Block1	2back/STIM_023.jpg	100
299.145	1.007	1007.4	2back	Block1	2back/STIM_023.jpg	99
303.802	1.287	1286.9	2back	Block1	2back/STIM_024.jpg	100
308.493	1.405	1404.7	2back	Block1	2back/STIM_024.jpg	99
312.562	1.533	1533.3	2back	Block1	2back/STIM_024.jpg	100
316.973	1.344	1344.0	2back	Block1	2back/STIM_025.jpg	100
320.39	1.193	1192.9	2back	Block1	2back/STIM_025.jpg	100
324.921	0.824	823.8	2back	Block1	2back/STIM_025.jpg	99
328.135	1.516	1516.5	2back	Block1	2back/STIM_026.jpg	100
333.572	1.504	1504.1	2back	Block1	2back/STIM_026.jpg	99
338.804	1.183	1183.0	2back	Block1	2back/STIM_026.jpg	100
343.878	1.906	1905.8	2back	Block1	2back/STIM_027.jpg	100
348.215	0.81	810.1	2back	Block1	2back/STIM_027.jpg	99
351.722	1.341	1340.8	2back	Block1	2back/STIM_027.jpg	100
355.394	1.731	1731.2	2back	Block1	2back/STIM_028.jpg	99
360.751	1.702	1701.8	2back	Block1	2back/STIM_028.jpg	100
366.429	1.078	1078.1	2back	Block1	2back/STIM_028.jpg	100
369.959	0.984	983.7	2back	Block1	2back/STIM_029.jpg	99
373.233	1.598	1598.2	2back	Block1	2back/STIM_029.jpg	100
378.009	1.305	1304.8	2back	Block1	2back/STIM_029.jpg	100
383.232	1.865	1864.6	2back	Block1	2back/STIM_030.jpg	99
389.081	1.652	1652.3	2back	Block1	2back/STIM_030.jpg	99
394.081	1.545	1545.4	2back	Block1	2back/STIM_030.jpg	99
397.713	1.829	1828.8	2back	Block1	2back/STIM_031.jpg	100
401.965	1.337	1337.0	2back	Block1	2back/STIM_031.jpg	100
406.975	0.779	779.3	2back	Block1	2back/STIM_031.jpg	99
409.877	1.791	1791.4	2back	Block1	2back/STIM_032.jpg	100
415.06	0.827	827.2	2back	Block1	2back/STIM_032.jpg	99
419.379	1.635	1634.6	2back	Block1	2back/STIM_032.jpg	99
423.676	1.122	1122.5	2back	Block1	2back/STIM_033.jpg	100
427.738	1.453	1452.7	2back	Block1	2back/STIM_033.jpg	99
431.276	1.164	1163.5	2back	Block1	2back/STIM_033.jpg	100
435.043	0.939	939.3	2back	Block1	2back/STIM_034.jpg	100
438.188	1.178	1177.9	2back	Block1	2back/STIM_034.jpg	99
441.421	0.818	818.1	2back	Block1	2back/STIM_034.jpg	100
445.787	1.795	1794.8	2back	Block1	2back/STIM_035.jpg	99
449.873	1.533	1533.2	2back	Block1	2back/STIM_035.jpg	99
454.067	1.253	1252.9	2back	Block1	2back/STIM_035.jpg	99
458.084	1.916	1916.5	2back	Block1	2back/STIM_036.jpg	100
463.432	1.698	1697.7	2back	Block1	2back/STIM_036.jpg	99
468.667	1.641	1641.4	2back	Block1	2back/STIM_036.jpg	99
472.635	1.501	1501.2	2back	Block1	2back/STIM_037.jpg	99
476.483	1.361	1361.0	2back	Block1	2back/STIM_037.jpg	99
480.108	1.42	1419.7	2back	Block1	2back/STIM_037.jpg	99
484.893	1.423	1423.1	2back	Block1	2back/STIM_038.jpg	100
489.87	1.113	1112.8	2back	Block1	2back/STIM_038.jpg	100
493.709	0.983	982.8	2back	Block1	2back/STIM_038.jpg	100
498.53	1.895	1895.3	2back	Block1	2back/STIM_039.jpg	100
504.094	1.42	1419.5	2back	Block1	2back/STIM_039.jpg	99
507.768	1.218	1217.5	2back	Block1	2back/STIM_039.jpg	99
511.536	0.935	935.2	0back	Block1	0back/STIM_000.jpg	100
514.833	0.918	918.3	0back	Block1	0back/STIM_000.jpg	99
518.408	0.818	818.3	0back	Block1	0back/STIM_000.jpg	100
522.809	0.933	932.6	0back	Block1	0back/STIM_001.jpg	100
527.416	0.905	904.6	0back	Block1	0back/STIM_001.jpg	100
532.034	1.034	1033.8	0back	Block1	0back/STIM_001.jpg	100
536.48	0.882	882.1	0back	Block1	0back/STIM_002.jpg	100
540.692	0.636	636.0	0back	Block1	0back/STIM_002.jpg	100
545.087	0.652	651.6	0back	Block1	0back/STIM_002.jpg	99
549.349	0.938	937.5	0back	Block1	0back/STIM_003.jpg	99
553.258	0.976	975.9	0back	Block1	0back/STIM_003.jpg	100
557.251	0.569	568.7	0back	Block1	0back/STIM_003.jpg	100
561.243	0.93	929.5	0back	Block1	0back/STIM_004.jpg	100
564.511	0.818	818.1	0back	Block1	0back/STIM_004.jpg	99
569.288	0.624	623.5	0back	Block1	0back/STIM_004.jpg	100
573.05	1.079	1079.4	0back	Block1	0back/STIM_005.jpg	100
577.107	0.884	883.9	0back	Block1	0back/STIM_005.jpg	100
580.343	0.705	705.3	0back	Block1	0back/STIM_005.jpg	100
584.587	0.843	842.9	0back	Block1	0back/STIM_006.jpg	100
588.985	0.604	603.6	0back	Block1	0back/STIM_006.jpg	99
591.604	0.861	860.7	0back	Block1	0back/STIM_006.jpg	100
596.414	0.553	553.4	0back	Block1	0back/STIM_007.jpg	99
599.313	0.558	558.4	0back	Block1	0back/STIM_007.jpg	99
602.715	0.699	698.7	0back	Block1	0back/STIM_007.jpg	100
606.718	0.87	870.2	0back	Block1	0back/STIM_008.jpg	100
610.166	0.676	676.4	0back	Block1	0back/STIM_008.jpg	100
614.818	0.989	989.3	0back	Block1	0back/STIM_008.jpg	99
619.547	0.659	659.0	0back	Block1	0back/STIM_009.jpg	100
622.955	0.647	646.7	0back	Block1	0back/STIM_009.jpg	99
625.666	0.738	737.9	0back	Block1	0back/STIM_009.jpg	100
629.806	0.802	802.5	0back	Block1	0back/STIM_010.jpg	100
632.641	0.933	933.1	0back	Block1	0back/STIM_010.jpg	100
637.501	0.823	823.2	0back	Block1	0back/STIM_010.jpg	99
642.276	0.906	905.6	0back	Block1	0back/STIM_011.jpg	99
646.88	0.772	772.4	0back	Block1	0back/STIM_011.jpg	99
650.621	0.854	854.2	0back	Block1	0back/STIM_011.jpg	99
653.832	0.739	738.8	0back	Block1	0back/STIM_012.jpg	100
657.329	0.77	769.9	0back	Block1	0back/STIM_012.jpg	99
660.368	1.084	1084.1	0back	Block1	0back/STIM_012.jpg	100
664.246	0.78	780.1	0back	Block1	0back/STIM_013.jpg	100
667.194	1.05	1049.5	0back	Block1	0back/STIM_013.jpg	100
670.489	0.702	702.3	0back	Block1	0back/STIM_013.jpg	99
674.817	0.677	676.9	0back	Block1	0back/STIM_014.jpg	99
677.744	0.835	834.7	0back	Block1	0back/STIM_014.jpg	100
682.403	0.946	945.9	0back	Block1	0back/STIM_014.jpg	100
686.19	0.767	767.2	0back	Block1	0back/STIM_015.jpg	99
689.916	0.938	938.3	0back	Block1	0back/STIM_015.jpg	100
693.706	0.726	725.5	0back	Block1	0back/STIM_015.jpg	100
696.951	0.907	906.7	0back	Block1	0back/STIM_016.jpg	100
700.607	1.014	1014.1	0back	Block1	0back/STIM_016.jpg	99
704.811	0.914	914.4	0back	Block1	0back/STIM_016.jpg	99
708.218	0.688	688.2	0back	Block1	0back/STIM_017.jpg	100
712.068	1.059	1059.2	0back	Block1	0back/STIM_017.jpg	99
716.454	0.654	653.6	0back	Block1	0back/STIM_017.jpg	99
721.051	0.695	695.1	0back	Block1	0back/STIM_018.jpg	99
724.048	0.798	797.5	0back	Block1	0back/STIM_018.jpg	99
728.8	1.022	1021.6	0back	Block1	0back/STIM_018.jpg	99
733.068	0.695	694.9	0back	Block1	0back/STIM_019.jpg	99
735.817	1.079	1079.4	0back	Block1	0back/STIM_019.jpg	100
740.253	0.921	921.1	0back	Block1	0back/STIM_019.jpg	100
744.461	0.75	749.5	2back	Block2	2back/STIM_000.jpg	99
747.877	0.854	854.1	2back	Block2	2back/STIM_000.jpg	100
752.324	1.372	1372.0	2back	Block2	2back/STIM_000.jpg	99
755.718	0.823	823.4	2back	Block2	2back/STIM_001.jpg	99
759.62	0.823	823.3	2back	Block2	2back/STIM_001.jpg	99
764.112	0.697	696.8	2back	Block2	2back/STIM_001.jpg	100
768.087	1.004	1004.3	2back	Block2	2back/STIM_002.jpg	99
772.301	1.313	1312.6	2back	Block2	2back/STIM_002.jpg	100
777.563	1.006	1006.5	2back	Block2	2back/STIM_002.jpg	100
781.31	0.895	894.8	2back	Block2	2back/STIM_003.jpg	99
786.143	1.406	1406.0	2back	Block2	2back/STIM_003.jpg	100
790.258	0.913	912.6	2back	Block2	2back/STIM_003.jpg	100
795.158	0.976	975.7	2back	Block2	2back/STIM_004.jpg	99
798.671	1.116	1115.6	2back	Block2	2back/STIM_004.jpg	99
802.366	1.161	1161.0	2back	Block2	2back/STIM_004.jpg	100
807.424	0.931	930.6	2back	Block2	2back/STIM_005.jpg	100
810.365	0.734	734.4	2back	Block2	2back/STIM_005.jpg	100
814.795	0.684	683.6	2back	Block2	2back/STIM_005.jpg	99
817.731	0.974	973.8	2back	Block2	2back/STIM_006.jpg	99
821.165	1.477	1476.7	2back	Block2	2back/STIM_006.jpg	100
825.469	0.759	759.0	2back	Block2	2back/STIM_006.jpg	100
829.964	0.735	734.6	2back	Block2	2back/STIM_007.jpg	100
833.905	1.191	1191.0	2back	Block2	2back/STIM_007.jpg	100
838.474	1.297	1297.4	2back	Block2	2back/STIM_007.jpg	99
842.589	1.157	1156.8	2back	Block2	2back/STIM_008.jpg	99
846.501	0.977	977.1	2back	Block2	2back/STIM_008.jpg	100
850.345	1.326	1325.6	2back	Block2	2back/STIM_008.jpg	100
854.822	1.029	1029.0	2back	Block2	2back/STIM_009.jpg	100
858.684	1.226	1225.5	2back	Block2	2back/STIM_009.jpg	99
862.044	0.966	965.5	2back	Block2	2back/STIM_009.jpg	99
865.183	1.518	1517.5	2back	Block2	2back/STIM_010.jpg	99
868.822	1.302	1302.0	2back	Block2	2back/STIM_010.jpg	100
873.403	0.748	747.5	2back	Block2	2back/STIM_010.jpg	100
877.667	0.849	849.3	2back	Block2	2back/STIM_011.jpg	100
880.934	1.398	1397.8	2back	Block2	2back/STIM_011.jpg	100
885.023	0.799	799.3	2back	Block2	2back/STIM_011.jpg	100
889.38	1.067	1067.1	2back	Block2	2back/STIM_012.jpg	99
893.356	0.921	921.0	2back	Block2	2back/STIM_012.jpg	100
896.324	1.367	1367.3	2back	Block2	2back/STIM_012.jpg	99
899.963	1.459	1458.7	2back	Block2	2back/STIM_013.jpg	100
904.0	0.939	938.9	2back	Block2	2back/STIM_013.jpg	99
907.23	1.072	1071.7	2back	Block2	2back/STIM_013.jpg	99
912.224	0.886	886.1	2back	Block2	2back/STIM_014.jpg	99
916.925	0.931	931.4	2back	Block2	2back/STIM_014.jpg	99
920.169	1.155	1154.9	2back	Block2	2back/STIM_014.jpg	100
924.338	0.94	939.6	2back	Block2	2back/STIM_015.jpg	99
927.538	1.286	1286.0	2back	Block2	2back/STIM_015.jpg	99
931.401	1.087	1087.4	2back	Block2	2back/STIM_015.jpg	100
935.926	0.928	927.8	2back	Block2	2back/STIM_016.jpg	100
940.472	1.138	1138.4	2back	Block2	2back/STIM_016.jpg	99
944.469	0.978	977.6	2back	Block2	2back/STIM_016.jpg	100
948.915	1.584	1583.6	2back	Block2	2back/STIM_017.jpg	99
953.633	0.886	885.9	2back	Block2	2back/STIM_017.jpg	99
958.38	0.755	755.0	2back	Block2	2back/STIM_017.jpg	100
961.709	0.949	949.2	2back	Block2	2back/STIM_018.jpg	100
964.895	1.058	1057.5	2back	Block2	2back/STIM_018.jpg	100
968.411	1.207	1207.1	2back	Block2	2back/STIM_018.jpg	100
972.474	1.344	1344.2	2back	Block2	2back/STIM_019.jpg	100
975.983	0.968	968.4	2back	Block2	2back/STIM_019.jpg	99
979.628	1.338	1337.6	2back	Block2	2back/STIM_019.jpg	99
983.765	0.879	879.4	2back	Block2	2back/STIM_020.jpg	100
987.33	1.52	1519.9	2back	Block2	2back/STIM_020.jpg	99
991.577	0.745	744.6	2back	Block2	2back/STIM_020.jpg	99
996.312	1.014	1013.7	2back	Block2	2back/STIM_021.jpg	100
1001.169	1.375	1374.9	2back	Block2	2back/STIM_021.jpg	99
1005.051	1.042	1042.2	2back	Block2	2back/STIM_021.jpg	99
1009.298	0.946	946.0	2back	Block2	2back/STIM_022.jpg	100
1014.158	0.704	704.5	2back	Block2	2back/STIM_022.jpg	100
1018.483	0.67	669.8	2back	Block2	2back/STIM_022.jpg	100
1023.024	1.341	1340.8	2back	Block2	2back/STIM_023.jpg	99
1027.876	0.8	800.3	2back	Block2	2back/STIM_023.jpg	99
1031.669	1.303	1303.2	2back	Block2	2back/STIM_023.jpg	100
1036.138	0.832	832.2	2back	Block2	2back/STIM_024.jpg	100
1039.647	1.038	1037.8	2back	Block2	2back/STIM_024.jpg	100
1044.115	0.98	979.7	2back	Block2	2back/STIM_024.jpg	100
1047.57	1.636	1635.9	2back	Block2	2back/STIM_025.jpg	100
1051.979	0.898	897.5	2back	Block2	2back/STIM_025.jpg	99
1056.134	1.135	1135.3	2back	Block2	2back/STIM_025.jpg	99
1059.29	1.154	1153.5	2back	Block2	2back/STIM_026.jpg	100
1062.514	1.251	1250.6	2back	Block2	2back/STIM_026.jpg	100
1066.929	0.983	983.2	2back	Block2	2back/STIM_026.jpg	99
1071.374	1.616	1616.5	2back	Block2	2back/STIM_027.jpg	100
1076.279	1.191	1191.1	2back	Block2	2back/STIM_027.jpg	99
1081.437	1.084	1083.6	2back	Block2	2back/STIM_027.jpg	99
1086.181	1.261	1260.9	2back	Block2	2back/STIM_028.jpg	99
1090.995	1.234	1233.6	2back	Block2	2back/STIM_028.jpg	100
1094.554	0.818	817.6	2back	Block2	2back/STIM_028.jpg	100
1098.722	1.573	1573.2	2back	Block2	2back/STIM_029.jpg	100
1103.92	0.666	665.8	2back	Block2	2back/STIM_029.jpg	99
1107.453	1.333	1332.9	2back	Block2	2back/STIM_029.jpg	99
1111.838	0.935	934.9	2back	Block2	2back/STIM_030.jpg	100
1115.572	1.236	1236.1	2back	Block2	2back/STIM_030.jpg	99
1120.726	0.686	685.7	2back	Block2	2back/STIM_030.jpg	100
1125.322	0.979	978.9	2back	Block2	2back/STIM_031.jpg	99
1129.908	0.914	913.8	2back	Block2	2back/STIM_031.jpg	100
1134.148	0.786	786.0	2back	Block2	2back/STIM_031.jpg	100
1137.265	0.76	760.3	2back	Block2	2back/STIM_032.jpg	100
1140.736	1.257	1256.9	2back	Block2	2back/STIM_032.jpg	99
1144.874	0.768	767.5	2back	Block2	2back/STIM_032.jpg	100
1147.835	0.895	894.6	2back	Block2	2back/STIM_033.jpg	100
1151.978	1.523	1523.4	2back	Block2	2back/STIM_033.jpg	100
1155.573	1.309	1308.8	2back	Block2	2back/STIM_033.jpg	100
1159.555	1.53	1529.6	2back	Block2	2back/STIM_034.jpg	100
1163.271	0.982	981.5	2back	Block2	2back/STIM_034.jpg	99
1166.426	0.736	736.2	2back	Block2	2back/STIM_034.jpg	100
1169.494	1.297	1296.8	2back	Block2	2back/STIM_035.jpg	100
1173.348	1.185	1184.6	2back	Block2	2back/STIM_035.jpg	100
1177.699	1.11	1110.1	2back	Block2	2back/STIM_035.jpg	99
1181.614	1.271	1271.4	2back	Block2	2back/STIM_036.jpg	100
1186.162	1.503	1502.6	2back	Block2	2back/STIM_036.jpg	99
1191.089	1.272	1272.3	2back	Block2	2back/STIM_036.jpg	100
1194.528	1.19	1190.4	2back	Block2	2back/STIM_037.jpg	99
1198.292	1.292	1291.6	2back	Block2	2back/STIM_037.jpg	99
1202.938	1.102	1102.4	2back	Block2	2back/STIM_037.jpg	100
1207.323	1.568	1568.3	2back	Block2	2back/STIM_038.jpg	100
1212.728	1.48	1480.3	2back	Block2	2back/STIM_038.jpg	99
1217.444	0.94	940.4	2back	Block2	2back/STIM_038.jpg	100
1220.998	1.307	1306.7	2back	Block2	2back/STIM_039.jpg	100
1225.114	1.394	1393.5	2back	Block2	2back/STIM_039.jpg	99
1229.753	1.147	1147.1	2back	Block2	2back/STIM_039.jpg	99
1234.066	0.762	761.7	0back	Block2	0back/STIM_000.jpg	99
1237.043	0.79	789.8	0back	Block2	0back/STIM_000.jpg	100
1241.59	0.849	848.8	0back	Block2	0back/STIM_000.jpg	100
1245.551	1.013	1013.0	0back	Block2	0back/STIM_001.jpg	99
1249.676	0.597	596.9	0back	Block2	0back/STIM_001.jpg	100
1253.683	0.561	560.9	0back	Block2	0back/STIM_001.jpg	100
1256.896	0.69	690.3	0back	Block2	0back/STIM_002.jpg	99
1260.389	0.625	625.3	0back	Block2	0back/STIM_002.jpg	100
1264.296	1.089	1088.8	0back	Block2	0back/STIM_002.jpg	99
1269.276	0.932	931.8	0back	Block2	0back/STIM_003.jpg	99
1272.77	0.678	678.4	0back	Block2	0back/STIM_003.jpg	99
1276.452	0.983	982.7	0back	Block2	0back/STIM_003.jpg	99
1280.674	0.946	945.6	0back	Block2	0back/STIM_004.jpg	100
1284.181	0.554	554.2	0back	Block2	0back/STIM_004.jpg	99
1288.544	1.103	1102.9	0back	Block2	0back/STIM_004.jpg	100
1293.287	1.057	1057.3	0back	Block2	0back/STIM_005.jpg	99
1297.699	0.62	619.8	0back	Block2	0back/STIM_005.jpg	99
1300.664	0.65	649.8	0back	Block2	0back/STIM_005.jpg	99
1304.505	0.792	791.7	0back	Block2	0back/STIM_006.jpg	100
1308.351	0.704	703.9	0back	Block2	0back/STIM_006.jpg	99
1312.635	0.657	656.7	0back	Block2	0back/STIM_006.jpg	100
1315.78	0.676	676.2	0back	Block2	0back/STIM_007.jpg	99
1320.19	0.695	694.9	0back	Block2	0back/STIM_007.jpg	100
1324.021	1.1	1100.0	0back	Block2	0back/STIM_007.jpg	100
1329.103	1.063	1062.7	0back	Block2	0back/STIM_008.jpg	100
1333.993	0.586	585.8	0back	Block2	0back/STIM_008.jpg	99
1337.02	0.625	624.6	0back	Block2	0back/STIM_008.jpg	99
1340.877	1.027	1026.8	0back	Block2	0back/STIM_009.jpg	100
1344.386	0.788	787.5	0back	Block2	0back/STIM_009.jpg	100
1349.138	0.706	706.2	0back	Block2	0back/STIM_009.jpg	100
1352.362	0.636	635.5	0back	Block2	0back/STIM_010.jpg	100
1355.19	0.672	672.4	0back	Block2	0back/STIM_010.jpg	99
1358.285	0.951	951.0	0back	Block2	0back/STIM_010.jpg	100
1362.593	0.976	975.8	0back	Block2	0back/STIM_011.jpg	100
1366.118	0.964	964.3	0back	Block2	0back/STIM_011.jpg	100
1369.819	0.878	878.3	0back	Block2	0back/STIM_011.jpg	99
1373.603	0.601	601.4	0back	Block2	0back/STIM_012.jpg	99
1377.862	0.875	875.1	0back	Block2	0back/STIM_012.jpg	99
1381.522	0.81	809.6	0back	Block2	0back/STIM_012.jpg	100
1385.172	0.808	807.6	0back	Block2	0back/STIM_013.jpg	100
1388.95	0.796	796.5	0back	Block2	0back/STIM_013.jpg	99
1393.721	0.949	948.9	0back	Block2	0back/STIM_013.jpg	100
1397.337	0.676	676.0	0back	Block2	0back/STIM_014.jpg	100
1400.294	0.668	668.5	0back	Block2	0back/STIM_014.jpg	100
1404.197	1.101	1100.9	0back	Block2	0back/STIM_014.jpg	100
1409.22	1.023	1023.0	0back	Block2	0back/STIM_015.jpg	99
1413.675	0.636	635.8	0back	Block2	0back/STIM_015.jpg	99
1416.657	0.848	848.1	0back	Block2	0back/STIM_015.jpg	100
1421.082	0.861	861.3	0back	Block2	0back/STIM_016.jpg	99
1424.442	0.864	863.7	0back	Block2	0back/STIM_016.jpg	99
1427.555	0.778	777.6	0back	Block2	0back/STIM_016.jpg	99
1431.643	0.717	716.8	0back	Block2	0back/STIM_017.jpg	99
1435.609	1.015	1014.9	0back	Block2	0back/STIM_017.jpg	99
1439.273	0.77	769.6	0back	Block2	0back/STIM_017.jpg	100
1443.876	0.733	732.9	0back	Block2	0back/STIM_018.jpg	100
1448.422	1.051	1050.8	0back	Block2	0back/STIM_018.jpg	99
1451.641	1.021	1020.6	0back	Block2	0back/STIM_018.jpg	99
1455.34	0.901	900.8	0back	Block2	0back/STIM_019.jpg	100
1458.616	0.972	972.2	0back	Block2	0back/STIM_019.jpg	100
1463.522	0.697	697.0	0back	Block2	0back/STIM_019.jpg	99
1466.777	0.772	772.0	2back	Block3	2back/STIM_000.jpg	100
1471.377	0.787	786.8	2back	Block3	2back/STIM_000.jpg	99
1474.183	1.109	1109.2	2back	Block3	2back/STIM_000.jpg	99
1477.846	1.042	1042.0	2back	Block3	2back/STIM_001.jpg	100
1481.037	1.34	1339.9	2back	Block3	2back/STIM_001.jpg	99
1484.638	0.939	939.2	2back	Block3	2back/STIM_001.jpg	100
1488.611	0.776	776.1	2back	Block3	2back/STIM_002.jpg	100
1493.177	0.744	743.9	2back	Block3	2back/STIM_002.jpg	99
1496.039	0.728	728.1	2back	Block3	2back/STIM_002.jpg	99
1499.382	1.307	1306.9	2back	Block3	2back/STIM_003.jpg	99
1503.395	0.755	755.0	2back	Block3	2back/STIM_003.jpg	100
1507.546	1.257	1257.0	2back	Block3	2back/STIM_003.jpg	99
1511.039	1.245	1244.7	2back	Block3	2back/STIM_004.jpg	99
1515.196	0.921	920.8	2back	Block3	2back/STIM_004.jpg	100
1518.473	0.615	614.8	2back	Block3	2back/STIM_004.jpg	99
1522.524	0.747	746.9	2back	Block3	2back/STIM_005.jpg	99
1525.553	1.105	1105.3	2back	Block3	2back/STIM_005.jpg	99
1529.743	0.737	737.3	2back	Block3	2back/STIM_005.jpg	99
1532.512	0.694	693.5	2back	Block3	2back/STIM_006.jpg	99
1535.876	1.029	1028.7	2back	Block3	2back/STIM_006.jpg	100
1539.613	1.117	1117.4	2back	Block3	2back/STIM_006.jpg	99
1543.279	0.854	853.7	2back	Block3	2back/STIM_007.jpg	99
1547.51	0.951	951.0	2back	Block3	2back/STIM_007.jpg	100
1552.208	1.188	1187.8	2back	Block3	2back/STIM_007.jpg	99
1556.459	0.665	664.9	2back	Block3	2back/STIM_008.jpg	100
1560.734	0.696	696.3	2back	Block3	2back/STIM_008.jpg	100
1565.094	1.269	1268.8	2back	Block3	2back/STIM_008.jpg	100
1569.96	0.872	872.0	2back	Block3	2back/STIM_009.jpg	100
1573.608	0.989	989.1	2back	Block3	2back/STIM_009.jpg	100
1577.826	0.906	905.7	2back	Block3	2back/STIM_009.jpg	100
1582.199	0.821	821.4	2back	Block3	2back/STIM_010.jpg	99
1586.289	1.183	1183.3	2back	Block3	2back/STIM_010.jpg	100
1590.354	1.168	1168.0	2back	Block3	2back/STIM_010.jpg	99
1594.405	0.756	755.6	2back	Block3	2back/STIM_011.jpg	99
1597.727	1.0	1000.1	2back	Block3	2back/STIM_011.jpg	99
1602.207	1.169	1168.6	2back	Block3	2back/STIM_011.jpg	100
1606.474	0.644	644.0	2back	Block3	2back/STIM_012.jpg	100
1609.869	1.023	1023.4	2back	Block3	2back/STIM_012.jpg	100
1613.87	1.165	1164.6	2back	Block3	2back/STIM_012.jpg	100
1618.005	0.695	695.2	2back	Block3	2back/STIM_013.jpg	100
1620.931	1.13	1130.1	2back	Block3	2back/STIM_013.jpg	99
1624.868	0.712	712.5	2back	Block3	2back/STIM_013.jpg	100
1628.566	0.66	660.4	2back	Block3	2back/STIM_014.jpg	100
1632.686	1.188	1187.5	2back	Block3	2back/STIM_014.jpg	100
1636.649	0.66	659.5	2back	Block3	2back/STIM_014.jpg	100
1640.815	1.158	1158.3	2back	Block3	2back/STIM_015.jpg	100
1645.851	0.716	715.7	2back	Block3	2back/STIM_015.jpg	99
1649.3	1.085	1084.8	2back	Block3	2back/STIM_015.jpg	99
1654.176	1.223	1223.4	2back	Block3	2back/STIM_016.jpg	100
1658.199	1.04	1039.9	2back	Block3	2back/STIM_016.jpg	100
1661.485	1.038	1037.5	2back	Block3	2back/STIM_016.jpg	100
1666.245	1.011	1011.2	2back	Block3	2back/STIM_017.jpg	100
1669.958	1.284	1283.8	2back	Block3	2back/STIM_017.jpg	99
1674.465	1.11	1110.1	2back	Block3	2back/STIM_017.jpg	99
1677.582	1.077	1077.0	2back	Block3	2back/STIM_018.jpg	99
1681.618	0.649	649.4	2back	Block3	2back/STIM_018.jpg	100
1685.874	1.069	1068.8	2back	Block3	2back/STIM_018.jpg	100
1689.949	1.335	1335.2	2back	Block3	2back/STIM_019.jpg	99
1693.3	1.147	1147.1	2back	Block3	2back/STIM_019.jpg	99
1698.298	0.847	847.4	2back	Block3	2back/STIM_019.jpg	100
1702.528	1.188	1188.0	2back	Block3	2back/STIM_020.jpg	100
1706.067	1.256	1256.5	2back	Block3	2back/STIM_020.jpg	99
1710.405	0.953	952.6	2back	Block3	2back/STIM_020.jpg	100
1713.358	0.631	631.0	2back	Block3	2back/STIM_021.jpg	99
1716.936	1.261	1261.1	2back	Block3	2back/STIM_021.jpg	99
1721.14	1.141	1141.1	2back	Block3	2back/STIM_021.jpg	100
1725.138	0.614	614.1	2back	Block3	2back/STIM_022.jpg	99
1727.928	1.33	1329.5	2back	Block3	2back/STIM_022.jpg	100
1732.595	1.213	1212.7	2back	Block3	2back/STIM_022.jpg	100
1736.717	1.241	1241.4	2back	Block3	2back/STIM_023.jpg	99
1740.82	0.626	626.4	2back	Block3	2back/STIM_023.jpg	99
1743.612	1.231	1230.8	2back	Block3	2back/STIM_023.jpg	99
1747.642	1.342	1342.4	2back	Block3	2back/STIM_024.jpg	100
1752.476	1.106	1105.7	2back	Block3	2back/STIM_024.jpg	100
1756.53	0.65	650.5	2back	Block3	2back/STIM_024.jpg	100
1759.684	1.33	1330.3	2back	Block3	2back/STIM_025.jpg	99
1763.232	0.981	981.2	2back	Block3	2back/STIM_025.jpg	100
1767.806	0.792	792.3	2back	Block3	2back/STIM_025.jpg	99
1770.741	0.87	869.5	2back	Block3	2back/STIM_026.jpg	99
1774.361	1.212	1211.5	2back	Block3	2back/STIM_026.jpg	99
1778.018	0.898	898.4	2back	Block3	2back/STIM_026.jpg	99
1782.804	0.919	918.6	2back	Block3	2back/STIM_027.jpg	99
1786.436	1.199	1199.1	2back	Block3	2back/STIM_027.jpg	100
1791.391	0.655	654.6	2back	Block3	2back/STIM_027.jpg	99
1794.465	0.731	730.6	2back	Block3	2back/STIM_028.jpg	100
1797.854	0.684	684.3	2back	Block3	2back/STIM_028.jpg	99
1802.014	0.739	739.0	2back	Block3	2back/STIM_028.jpg	99
1805.039	0.637	637.0	2back	Block3	2back/STIM_029.jpg	100
1808.939	1.352	1352.2	2back	Block3	2back/STIM_029.jpg	100
1813.394	1.199	1199.0	2back	Block3	2back/STIM_029.jpg	100
1817.88	0.611	611.2	2back	Block3	2back/STIM_030.jpg	99
1820.848	1.075	1074.9	2back	Block3	2back/STIM_030.jpg	99
1825.736	1.272	1271.7	2back	Block3	2back/STIM_030.jpg	99
1829.152	0.915	914.7	2back	Block3	2back/STIM_031.jpg	99
1833.725	0.944	944.5	2back	Block3	2back/STIM_031.jpg	99
1837.128	1.131	1130.8	2back	Block3	2back/STIM_031.jpg	99
1841.938	0.725	725.0	2back	Block3	2back/STIM_032.jpg	100
1844.739	1.083	1082.7	2back	Block3	2back/STIM_032.jpg	100
1849.743	0.756	756.3	2back	Block3	2back/STIM_032.jpg	100
1853.996	0.776	775.8	2back	Block3	2back/STIM_033.jpg	100
1856.871	0.984	984.1	2back	Block3	2back/STIM_033.jpg	100
1861.281	0.622	622.3	2back	Block3	2back/STIM_033.jpg	99
1865.023	0.798	798.1	2back	Block3	2back/STIM_034.jpg	99
1868.734	1.13	1129.5	2back	Block3	2back/STIM_034.jpg	100
1872.466	0.84	840.0	2back	Block3	2back/STIM_034.jpg	100
1876.892	1.175	1175.4	2back	Block3	2back/STIM_035.jpg	99
1880.255	1.276	1276.3	2back	Block3	2back/STIM_035.jpg	99
1884.013	1.231	1231.0	2back	Block3	2back/STIM_035.jpg	100
1888.586	0.78	779.9	2back	Block3	2back/STIM_036.jpg	100
1893.113	1.12	1120.1	2back	Block3	2back/STIM_036.jpg	99
1897.786	1.117	1116.9	2back	Block3	2back/STIM_036.jpg	99
1901.288	1.299	1298.7	2back	Block3	2back/STIM_037.jpg	99
1905.755	1.03	1030.1	2back	Block3	2back/STIM_037.jpg	99
1910.48	0.811	810.9	2back	Block3	2back/STIM_037.jpg	100
1913.976	0.616	615.8	2back	Block3	2back/STIM_038.jpg	99
1918.422	1.068	1067.7	2back	Block3	2back/STIM_038.jpg	100
1922.0	1.344	1344.3	2back	Block3	2back/STIM_038.jpg	99
1926.373	0.679	679.3	2back	Block3	2back/STIM_039.jpg	100
1929.273	0.791	790.7	2back	Block3	2back/STIM_039.jpg	99
1932.714	1.209	1208.8	2back	Block3	2back/STIM_039.jpg	99
1936.355	0.61	609.7	0back	Block3	0back/STIM_000.jpg	100
1939.262	0.834	834.1	0back	Block3	0back/STIM_000.jpg	100
1942.135	0.715	714.6	0back	Block3	0back/STIM_000.jpg	99
1946.017	1.054	1054.1	0back	Block3	0back/STIM_001.jpg	100
1949.239	1.104	1104.0	0back	Block3	0back/STIM_001.jpg	100
1953.242	0.981	980.7	0back	Block3	0back/STIM_001.jpg	99
1957.132	0.99	989.6	0back	Block3	0back/STIM_002.jpg	99
1960.32	0.617	616.7	0back	Block3	0back/STIM_002.jpg	99
1963.823	0.779	778.7	0back	Block3	0back/STIM_002.jpg	99
1966.637	0.611	611.1	0back	Block3	0back/STIM_003.jpg	100
1970.558	1.004	1004.1	0back	Block3	0back/STIM_003.jpg	100
1974.53	0.684	684.1	0back	Block3	0back/STIM_003.jpg	100
1977.577	0.848	847.5	0back	Block3	0back/STIM_004.jpg	100
1981.205	0.849	848.9	0back	Block3	0back/STIM_004.jpg	99
1985.888	0.568	567.8	0back	Block3	0back/STIM_004.jpg	100
1989.571	1.079	1078.7	0back	Block3	0back/STIM_005.jpg	99
1993.826	0.903	903.4	0back	Block3	0back/STIM_005.jpg	100
1998.541	0.919	918.6	0back	Block3	0back/STIM_005.jpg	99
2003.353	0.613	613.4	0back	Block3	0back/STIM_006.jpg	100
2007.489	1.061	1060.7	0back	Block3	0back/STIM_006.jpg	100
2011.595	0.631	630.9	0back	Block3	0back/STIM_006.jpg	100
2014.676	0.633	633.2	0back	Block3	0back/STIM_007.jpg	100
2019.073	0.873	872.7	0back	Block3	0back/STIM_007.jpg	100
2022.923	0.647	646.7	0back	Block3	0back/STIM_007.jpg	100
2026.403	0.847	847.0	0back	Block3	0back/STIM_008.jpg	99
2029.5	0.598	598.5	0back	Block3	0back/STIM_008.jpg	100
2033.859	0.916	916.4	0back	Block3	0back/STIM_008.jpg	100
2038.235	0.895	895.1	0back	Block3	0back/STIM_009.jpg	100
2041.302	1.026	1026.1	0back	Block3	0back/STIM_009.jpg	100
2044.518	0.946	946.3	0back	Block3	0back/STIM_009.jpg	99
2048.938	0.77	770.2	0back	Block3	0back/STIM_010.jpg	100
2051.72	0.574	574.5	0back	Block3	0back/STIM_010.jpg	99
2054.447	0.749	748.7	0back	Block3	0back/STIM_010.jpg	100
2057.729	0.951	951.3	0back	Block3	0back/STIM_011.jpg	100
2061.877	0.791	790.6	0back	Block3	0back/STIM_011.jpg	99
2066.111	1.012	1011.5	0back	Block3	0back/STIM_011.jpg	100
2069.755	0.861	860.6	0back	Block3	0back/STIM_012.jpg	99
2072.857	0.904	904.0	0back	Block3	0back/STIM_012.jpg	100
2075.84	0.845	845.3	0back	Block3	0back/STIM_012.jpg	99
2080.089	0.762	762.4	0back	Block3	0back/STIM_013.jpg	100
2083.301	0.635	634.9	0back	Block3	0back/STIM_013.jpg	99
2087.161	0.747	747.1	0back	Block3	0back/STIM_013.jpg	100
2091.858	0.926	926.0	0back	Block3	0back/STIM_014.jpg	100
2095.189	0.838	838.1	0back	Block3	0back/STIM_014.jpg	100
2098.472	1.106	1106.0	0back	Block3	0back/STIM_014.jpg	100
2102.165	0.984	984.1	0back	Block3	0back/STIM_015.jpg	100
2105.367	0.964	964.1	0back	Block3	0back/STIM_015.jpg	99
2109.071	1.046	1045.9	0back	Block3	0back/STIM_015.jpg	99
2113.033	0.995	994.8	0back	Block3	0back/STIM_016.jpg	99
2117.331	0.709	709.0	0back	Block3	0back/STIM_016.jpg	100
2120.686	0.969	969.1	0back	Block3	0back/STIM_016.jpg	100
2124.686	0.68	679.6	0back	Block3	0back/STIM_017.jpg	100
2127.936	1.088	1087.8	0back	Block3	0back/STIM_017.jpg	100
2131.364	0.865	865.0	0back	Block3	0back/STIM_017.jpg	99
2135.526	1.011	1011.3	0back	Block3	0back/STIM_018.jpg	99
2140.322	0.928	928.2	0back	Block3	0back/STIM_018.jpg	99
2143.493	0.817	817.4	0back	Block3	0back/STIM_018.jpg	100
2147.201	0.937	936.6	0back	Block3	0back/STIM_019.jpg	100
2151.934	0.971	970.6	0back	Block3	0back/STIM_019.jpg	100
2156.001	0.83	829.8	0back	Block3	0back/STIM_019.jpg	100
2159.827	0.98	980.2	2back	Block4	2back/STIM_000.jpg	99
2164.492	0.716	716.4	2back	Block4	2back/STIM_000.jpg	100
2167.885	1.237	1236.7	2back	Block4	2back/STIM_000.jpg	100
2172.419	0.656	656.3	2back	Block4	2back/STIM_001.jpg	99
2176.232	0.775	775.1	2back	Block4	2back/STIM_001.jpg	100
2179.899	0.946	946.1	2back	Block4	2back/STIM_001.jpg	99
2183.242	0.763	763.0	2back	Block4	2back/STIM_002.jpg	99
2187.509	0.995	994.9	2back	Block4	2back/STIM_002.jpg	100
2191.382	0.736	736.1	2back	Block4	2back/STIM_002.jpg	99
2195.152	0.963	963.3	2back	Block4	2back/STIM_003.jpg	100
2199.987	0.888	888.2	2back	Block4	2back/STIM_003.jpg	99
2203.995	1.063	1063.3	2back	Block4	2back/STIM_003.jpg	100
2208.517	0.628	628.3	2back	Block4	2back/STIM_004.jpg	100
2212.854	0.91	909.9	2back	Block4	2back/STIM_004.jpg	99
2216.526	0.998	998.0	2back	Block4	2back/STIM_004.jpg	100
2220.708	1.073	1072.6	2back	Block4	2back/STIM_005.jpg	99
2225.107	0.622	622.3	2back	Block4	2back/STIM_005.jpg	99
2228.637	0.822	822.5	2back	Block4	2back/STIM_005.jpg	100
2232.305	0.808	808.4	2back	Block4	2back/STIM_006.jpg	99
2235.6	0.608	608.0	2back	Block4	2back/STIM_006.jpg	100
2238.416	0.628	628.0	2back	Block4	2back/STIM_006.jpg	99
2242.329	1.245	1244.7	2back	Block4	2back/STIM_007.jpg	100
2247.146	0.608	607.6	2back	Block4	2back/STIM_007.jpg	100
2250.13	1.076	1075.5	2back	Block4	2back/STIM_007.jpg	100
2254.129	0.943	942.8	2back	Block4	2back/STIM_008.jpg	99
2258.406	1.341	1341.1	2back	Block4	2back/STIM_008.jpg	99
2262.952	1.276	1276.0	2back	Block4	2back/STIM_008.jpg	100
2268.019	1.287	1287.1	2back	Block4	2back/STIM_009.jpg	99
2272.308	1.006	1006.1	2back	Block4	2back/STIM_009.jpg	99
2276.823	1.268	1268.1	2back	Block4	2back/STIM_009.jpg	99
2280.899	1.264	1263.7	2back	Block4	2back/STIM_010.jpg	100
2284.943	1.233	1233.4	2back	Block4	2back/STIM_010.jpg	100
2289.913	1.126	1126.0	2back	Block4	2back/STIM_010.jpg	100
2294.097	0.843	842.6	2back	Block4	2back/STIM_011.jpg	99
2297.564	0.791	791.4	2back	Block4	2back/STIM_011.jpg	100
2300.702	0.784	783.6	2back	Block4	2back/STIM_011.jpg	99
2304.208	0.676	675.9	2back	Block4	2back/STIM_012.jpg	100
2308.374	1.233	1233.4	2back	Block4	2back/STIM_012.jpg	100
2312.323	1.255	1254.6	2back	Block4	2back/STIM_012.jpg	99
2316.608	1.019	1018.6	2back	Block4	2back/STIM_013.jpg	100
2320.379	0.697	697.0	2back	Block4	2back/STIM_013.jpg	100
2323.222	0.604	604.3	2back	Block4	2back/STIM_013.jpg	99
2327.236	0.949	948.9	2back	Block4	2back/STIM_014.jpg	100
2332.118	0.902	901.5	2back	Block4	2back/STIM_014.jpg	99
2335.414	0.81	810.0	2back	Block4	2back/STIM_014.jpg	100
2338.914	0.875	875.0	2back	Block4	2back/STIM_015.jpg	99
2342.168	0.592	592.0	2back	Block4	2back/STIM_015.jpg	99
2345.285	1.066	1065.5	2back	Block4	2back/STIM_015.jpg	100
2349.725	1.171	1170.8	2back	Block4	2back/STIM_016.jpg	99
2354.0	1.026	1026.3	2back	Block4	2back/STIM_016.jpg	100
2358.529	1.261	1261.4	2back	Block4	2back/STIM_016.jpg	100
2362.051	1.009	1009.4	2back	Block4	2back/STIM_017.jpg	100
2366.157	0.628	628.5	2back	Block4	2back/STIM_017.jpg	100
2370.081	1.005	1004.9	2back	Block4	2back/STIM_017.jpg	99
2374.65	1.106	1105.6	2back	Block4	2back/STIM_018.jpg	99
2378.259	0.607	606.6	2back	Block4	2back/STIM_018.jpg	99
2382.528	0.759	758.6	2back	Block4	2back/STIM_018.jpg	100
2385.624	0.591	590.6	2back	Block4	2back/STIM_019.jpg	100
2390.074	0.802	801.9	2back	Block4	2back/STIM_019.jpg	99
2393.239	0.791	791.1	2back	Block4	2back/STIM_019.jpg	100
2397.317	1.295	1294.9	2back	Block4	2back/STIM_020.jpg	99
2401.641	0.868	868.2	2back	Block4	2back/STIM_020.jpg	99
2404.68	1.114	1113.5	2back	Block4	2back/STIM_020.jpg	100
2409.765	1.273	1272.8	2back	Block4	2back/STIM_021.jpg	100
2414.436	1.273	1272.8	2back	Block4	2back/STIM_021.jpg	99
2418.484	1.321	1320.6	2back	Block4	2back/STIM_021.jpg	99
2422.553	0.877	877.0	2back	Block4	2back/STIM_022.jpg	100
2426.938	1.231	1231.4	2back	Block4	2back/STIM_022.jpg	99
2431.486	0.854	853.8	2back	Block4	2back/STIM_022.jpg	99
2434.515	0.621	620.7	2back	Block4	2back/STIM_023.jpg	99
2437.612	1.138	1137.5	2back	Block4	2back/STIM_023.jpg	99
2442.369	1.256	1255.5	2back	Block4	2back/STIM_023.jpg	99
2446.039	1.223	1222.9	2back	Block4	2back/STIM_024.jpg	99
2449.636	0.678	678.3	2back	Block4	2back/STIM_024.jpg	99
2453.58	0.61	609.7	2back	Block4	2back/STIM_024.jpg	100
2456.625	1.106	1106.1	2back	Block4	2back/STIM_025.jpg	100
2461.064	0.926	926.3	2back	Block4	2back/STIM_025.jpg	99
2465.716	0.836	836.2	2back	Block4	2back/STIM_025.jpg	100
2470.176	0.611	611.4	2back	Block4	2back/STIM_026.jpg	100
2473.53	1.016	1016.5	2back	Block4	2back/STIM_026.jpg	99
2478.252	0.9	899.8	2back	Block4	2back/STIM_026.jpg	100
2481.633	1.139	1138.8	2back	Block4	2back/STIM_027.jpg	100
2486.58	0.754	753.9	2back	Block4	2back/STIM_027.jpg	99
2490.358	0.767	767.3	2back	Block4	2back/STIM_027.jpg	99
2493.799	0.652	651.7	2back	Block4	2back/STIM_028.jpg	99
2496.944	0.75	750.5	2back	Block4	2back/STIM_028.jpg	99
2501.695	0.776	775.5	2back	Block4	2back/STIM_028.jpg	99
2506.304	0.605	605.0	2back	Block4	2back/STIM_029.jpg	99
2509.558	1.241	1241.3	2back	Block4	2back/STIM_029.jpg	99
2514.077	1.253	1253.0	2back	Block4	2back/STIM_029.jpg	99
2518.386	1.274	1274.1	2back	Block4	2back/STIM_030.jpg	100
2522.056	0.88	880.3	2back	Block4	2back/STIM_030.jpg	99
2526.353	0.738	738.4	2back	Block4	2back/STIM_030.jpg	99
2529.893	1.297	1297.1	2back	Block4	2back/STIM_031.jpg	99
2534.492	1.29	1290.0	2back	Block4	2back/STIM_031.jpg	99
2539.389	1.122	1121.6	2back	Block4	2back/STIM_031.jpg	99
2544.138	1.351	1351.4	2back	Block4	2back/STIM_032.jpg	99
2548.57	1.227	1226.6	2back	Block4	2back/STIM_032.jpg	100
2552.603	1.305	1305.4	2back	Block4	2back/STIM_032.jpg	100
2557.161	0.994	994.4	2back	Block4	2back/STIM_033.jpg	100
2561.042	1.195	1195.3	2back	Block4	2back/STIM_033.jpg	100
2565.062	0.825	825.1	2back	Block4	2back/STIM_033.jpg	99
2569.364	1.071	1070.9	2back	Block4	2back/STIM_034.jpg	99
2573.623	1.034	1034.1	2back	Block4	2back/STIM_034.jpg	100
2577.033	0.649	648.6	2back	Block4	2back/STIM_034.jpg	100
2580.913	1.054	1054.2	2back	Block4	2back/STIM_035.jpg	100
2584.547	0.71	709.9	2back	Block4	2back/STIM_035.jpg	99
2587.926	1.151	1151.3	2back	Block4	2back/STIM_035.jpg	99
2591.079	0.787	786.9	2back	Block4	2back/STIM_036.jpg	99
2594.314	0.61	610.2	2back	Block4	2back/STIM_036.jpg	99
2598.073	1.308	1307.6	2back	Block4	2back/STIM_036.jpg	100
2602.636	1.224	1224.0	2back	Block4	2back/STIM_037.jpg	100
2607.306	0.63	629.9	2back	Block4	2back/STIM_037.jpg	99
2610.929	0.737	736.9	2back	Block4	2back/STIM_037.jpg	100
2613.867	0.997	997.4	2back	Block4	2back/STIM_038.jpg	99
2617.244	0.745	744.9	2back	Block4	2back/STIM_038.jpg	99
2621.05	0.666	665.5	2back	Block4	2back/STIM_038.jpg	99
2623.978	0.894	894.0	2back	Block4	2back/STIM_039.jpg	99
2628.803	1.221	1221.0	2back	Block4	2back/STIM_039.jpg	100
2632.361	0.984	984.0	2back	Block4	2back/STIM_039.jpg	99
2637.27	0.65	650.5	0back	Block4	0back/STIM_000.jpg	100
2641.808	1.016	1016.0	0back	Block4	0back/STIM_000.jpg	100
2646.21	0.732	731.8	0back	Block4	0back/STIM_000.jpg	99
2649.193	0.903	903.2	0back	Block4	0back/STIM_001.jpg	99
2652.42	0.859	858.6	0back	Block4	0back/STIM_001.jpg	100
2655.348	0.979	979.4	0back	Block4	0back/STIM_001.jpg	99
2658.525	0.799	798.9	0back	Block4	0back/STIM_002.jpg	100
2662.163	0.948	948.0	0back	Block4	0back/STIM_002.jpg	100
2665.51	0.961	960.7	0back	Block4	0back/STIM_002.jpg	100
2669.188	0.631	631.0	0back	Block4	0back/STIM_003.jpg	99
2672.765	0.974	973.8	0back	Block4	0back/STIM_003.jpg	100
2676.309	0.75	749.5	0back	Block4	0back/STIM_003.jpg	100
2680.068	0.859	858.6	0back	Block4	0back/STIM_004.jpg	100
2683.573	1.008	1008.2	0back	Block4	0back/STIM_004.jpg	99
2688.568	0.686	686.0	0back	Block4	0back/STIM_004.jpg	99
2691.846	0.898	897.6	0back	Block4	0back/STIM_005.jpg	99
2695.304	0.831	831.1	0back	Block4	0back/STIM_005.jpg	100
2698.914	0.999	998.8	0back	Block4	0back/STIM_005.jpg	100
2702.589	0.968	968.3	0back	Block4	0back/STIM_006.jpg	100
2706.645	0.935	935.4	0back	Block4	0back/STIM_006.jpg	99
2710.819	0.638	638.3	0back	Block4	0back/STIM_006.jpg	99
2715.456	0.832	832.2	0back	Block4	0back/STIM_007.jpg	100
2719.668	0.742	742.5	0back	Block4	0back/STIM_007.jpg	100
2722.871	0.611	610.8	0back	Block4	0back/STIM_007.jpg	99
2726.86	1.036	1035.8	0back	Block4	0back/STIM_008.jpg	100
2730.088	0.973	973.3	0back	Block4	0back/STIM_008.jpg	99
2734.915	0.897	897.1	0back	Block4	0back/STIM_008.jpg	100
2739.064	0.582	581.9	0back	Block4	0back/STIM_009.jpg	100
2742.735	0.83	829.7	0back	Block4	0back/STIM_009.jpg	99
2747.551	1.0	999.6	0back	Block4	0back/STIM_009.jpg	100
2750.734	0.888	887.7	0back	Block4	0back/STIM_010.jpg	99
2754.806	0.657	657.2	0back	Block4	0back/STIM_010.jpg	99
2757.57	0.982	981.6	0back	Block4	0back/STIM_010.jpg	99
2762.067	0.91	909.6	0back	Block4	0back/STIM_011.jpg	100
2765.746	1.023	1023.4	0back	Block4	0back/STIM_011.jpg	99
2768.948	0.831	831.2	0back	Block4	0back/STIM_011.jpg	100
2773.251	0.565	565.2	0back	Block4	0back/STIM_012.jpg	99
2777.722	0.778	777.6	0back	Block4	0back/STIM_012.jpg	100
2782.055	1.004	1004.3	0back	Block4	0back/STIM_012.jpg	100
2785.337	0.75	750.5	0back	Block4	0back/STIM_013.jpg	99
2788.946	0.657	657.3	0back	Block4	0back/STIM_013.jpg	99
2793.428	0.905	905.4	0back	Block4	0back/STIM_013.jpg	100
2796.791	0.638	638.4	0back	Block4	0back/STIM_014.jpg	99
2801.182	0.907	906.7	0back	Block4	0back/STIM_014.jpg	99
2804.505	0.918	917.7	0back	Block4	0back/STIM_014.jpg	100
2809.374	1.091	1090.8	0back	Block4	0back/STIM_015.jpg	100
2813.542	0.929	929.3	0back	Block4	0back/STIM_015.jpg	100
2818.468	0.758	757.8	0back	Block4	0back/STIM_015.jpg	100
2822.864	0.995	994.6	0back	Block4	0back/STIM_016.jpg	100
2826.24	0.686	686.2	0back	Block4	0back/STIM_016.jpg	100
2829.771	0.782	781.7	0back	Block4	0back/STIM_016.jpg	99
2833.912	0.71	709.6	0back	Block4	0back/STIM_017.jpg	100
2838.039	0.842	842.2	0back	Block4	0back/STIM_017.jpg	100
2841.9	0.926	926.1	0back	Block4	0back/STIM_017.jpg	100
2844.937	0.833	832.9	0back	Block4	0back/STIM_018.jpg	99
2848.576	0.772	771.8	0back	Block4	0back/STIM_018.jpg	100
2853.068	0.63	630.5	0back	Block4	0back/STIM_018.jpg	99
2857.648	0.946	946.1	0back	Block4	0back/STIM_019.jpg	99
2862.593	0.654	654.2	0back	Block4	0back/STIM_019.jpg	100
2865.438	0.569	568.8	0back	Block4	0back/STIM_019.jpg	99
