onset	duration	accuracy	trial_type	learning_stage	stimulus
0.0	0.944	correct	2back	Block1	2back/STIM_000.jpg
3.961	1.803	correct	2back	Block1	2back/STIM_000.jpg
9.641	1.628	correct	2back	Block1	2back/STIM_000.jpg
13.728	1.287	correct	2back	Block1	2back/STIM_001.jpg
18.168	1.621	correct	2back	Block1	2back/STIM_001.jpg
23.063	1.541	correct	2back	Block1	2back/STIM_001.jpg
27.602	1.367	incorrect	2back	Block1	2back/STIM_002.jpg
31.051	0.806	correct	2back	Block1	2back/STIM_002.jpg
35.679	0.862	correct	2back	Block1	2back/STIM_002.jpg
40.267	1.834	correct	2back	Block1	2back/STIM_003.jpg
44.111	1.709	correct	2back	Block1	2back/STIM_003.jpg
48.633	1.379	correct	2back	Block1	2back/STIM_003.jpg
53.128	1.584	correct	2back	Block1	2back/STIM_004.jpg
57.382	1.41	correct	2back	Block1	2back/STIM_004.jpg
61.943	0.989	correct	2back	Block1	2back/STIM_004.jpg
65.385	1.435	correct	2back	Block1	2back/STIM_005.jpg
69.002	1.277	correct	2back	Block1	2back/STIM_005.jpg
72.546	0.832	correct	2back	Block1	2back/STIM_005.jpg
77.137	1.928	incorrect	2back	Block1	2back/STIM_006.jpg
81.299	0.826	incorrect	2back	Block1	2back/STIM_006.jpg
84.22	0.822	correct	2back	Block1	2back/STIM_006.jpg
88.399	1.687	correct	2back	Block1	2back/STIM_007.jpg
92.277	1.045	incorrect	2back	Block1	2back/STIM_007.jpg
96.217	1.716	correct	2back	Block1	2back/STIM_007.jpg
101.369	1.912	correct	2back	Block1	2back/STIM_008.jpg
105.848	1.78	incorrect	2back	Block1	2back/STIM_008.jpg
110.835	0.98	correct	2back	Block1	2back/STIM_008.jpg
113.951	1.209	correct	2back	Block1	2back/STIM_009.jpg
118.745	0.967	correct	2back	Block1	2back/STIM_009.jpg
122.847	1.545	correct	2back	Block1	2back/STIM_009.jpg
127.244	1.53	correct	2back	Block1	2back/STIM_010.jpg
131.668	1.177	correct	2back	Block1	2back/STIM_010.jpg
135.893	0.95	correct	2back	Block1	2back/STIM_010.jpg
139.177	1.805	correct	2back	Block1	2back/STIM_011.jpg
144.535	1.628	correct	2back	Block1	2back/STIM_011.jpg
149.102	0.902	correct	2back	Block1	2back/STIM_011.jpg
152.401	0.967	correct	2back	Block1	2back/STIM_012.jpg
157.157	1.649	correct	2back	Block1	2back/STIM_012.jpg
161.078	0.869	correct	2back	Block1	2back/STIM_012.jpg
164.93	1.367	correct	2back	Block1	2back/STIM_013.jpg
168.798	1.263	correct	2back	Block1	2back/STIM_013.jpg
173.925	1.21	correct	2back	Block1	2back/STIM_013.jpg
177.318	1.796	correct	2back	Block1	2back/STIM_014.jpg
181.9	1.08	correct	2back	Block1	2back/STIM_014.jpg
186.086	1.205	correct	2back	Block1	2back/STIM_014.jpg
189.741	0.964	correct	2back	Block1	2back/STIM_015.jpg
193.958	1.137	correct	2back	Block1	2back/STIM_015.jpg
198.975	1.317	correct	2back	Block1	2back/STIM_015.jpg
202.433	1.767	incorrect	2back	Block1	2back/STIM_016.jpg
207.461	0.966	correct	2back	Block1	2back/STIM_016.jpg
210.83	1.041	correct	2back	Block1	2back/STIM_016.jpg
215.478	1.351	correct	2back	Block1	2back/STIM_017.jpg
219.352	1.197	correct	2back	Block1	2back/STIM_017.jpg
223.199	1.424	correct	2back	Block1	2back/STIM_017.jpg
227.884	1.611	correct	2back	Block1	2back/STIM_018.jpg
233.05	0.974	correct	2back	Block1	2back/STIM_018.jpg
237.089	1.72	incorrect	2back	Block1	2back/STIM_018.jpg
242.131	1.057	correct	2back	Block1	2back/STIM_019.jpg
246.327	1.07	correct	2back	Block1	2back/STIM_019.jpg
250.55	1.569	correct	2back	Block1	2back/STIM_019.jpg
254.414	1.057	correct	2back	Block1	2back/STIM_020.jpg
257.757	1.066	incorrect	2back	Block1	2back/STIM_020.jpg
261.238	1.525	correct	2back	Block1	2back/STIM_020.jpg
265.444	1.756	incorrect	2back	Block1	2back/STIM_021.jpg
269.896	1.819	correct	2back	Block1	2back/STIM_021.jpg
275.447	1.235	incorrect	2back	Block1	2back/STIM_021.jpg
280.468	1.561	correct	2back	Block1	2back/STIM_022.jpg
284.457	1.331	correct	2back	Block1	2back/STIM_022.jpg
287.835	1.419	correct	2back	Block1	2back/STIM_022.jpg
291.348	0.996	correct	2back	Block1	2back/STIM_023.jpg
294.861	1.273	correct	2back	Block1	2back/STIM_023.jpg
299.145	1.007	correct	2back	Block1	2back/STIM_023.jpg
303.802	1.287	correct	2back	Block1	2back/STIM_024.jpg
308.493	1.405	correct	2back	Block1	2back/STIM_024.jpg
312.562	1.533	correct	2back	Block1	2back/STIM_024.jpg
316.973	1.344	correct	2back	Block1	2back/STIM_025.jpg
320.39	1.193	correct	2back	Block1	2back/STIM_025.jpg
324.921	0.824	correct	2back	Block1	2back/STIM_025.jpg
328.135	1.516	correct	2back	Block1	2back/STIM_026.jpg
333.572	1.504	correct	2back	Block1	2back/STIM_026.jpg
338.804	1.183	correct	2back	Block1	2back/STIM_026.jpg
343.878	1.906	correct	2back	Block1	2back/STIM_027.jpg
348.215	0.81	correct	2back	Block1	2back/STIM_027.jpg
351.722	1.341	correct	2back	Block1	2back/STIM_027.jpg
355.394	1.731	incorrect	2back	Block1	2back/STIM_028.jpg
360.751	1.702	correct	2back	Block1	2back/STIM_028.jpg
366.429	1.078	incorrect	2back	Block1	2back/STIM_028.jpg
369.959	0.984	correct	2back	Block1	2back/STIM_029.jpg
373.233	1.598	incorrect	2back	Block1	2back/STIM_029.jpg
378.009	1.305	correct	2back	Block1	2back/STIM_029.jpg
383.232	1.865	correct	2back	Block1	2back/STIM_030.jpg
389.081	1.652	correct	2back	Block1	2back/STIM_030.jpg
394.081	1.545	incorrect	2back	Block1	2back/STIM_030.jpg
397.713	1.829	correct	2back	Block1	2back/STIM_031.jpg
401.965	1.337	correct	2back	Block1	2back/STIM_031.jpg
406.975	0.779	correct	2back	Block1	2back/STIM_031.jpg
409.877	1.791	correct	2back	Block1	2back/STIM_032.jpg
415.06	0.827	correct	2back	Block1	2back/STIM_032.jpg
419.379	1.635	correct	2back	Block1	2back/STIM_032.jpg
423.676	1.122	correct	2back	Block1	2back/STIM_033.jpg
427.738	1.453	correct	2back	Block1	2back/STIM_033.jpg
431.276	1.164	correct	2back	Block1	2back/STIM_033.jpg
435.043	0.939	correct	2back	Block1	2back/STIM_034.jpg
438.188	1.178	incorrect	2back	Block1	2back/STIM_034.jpg
441.421	0.818	correct	2back	Block1	2back/STIM_034.jpg
445.787	1.795	correct	2back	Block1	2back/STIM_035.jpg
449.873	1.533	correct	2back	Block1	2back/STIM_035.jpg
454.067	1.253	correct	2back	Block1	2back/STIM_035.jpg
458.084	1.916	correct	2back	Block1	2back/STIM_036.jpg
463.432	1.698	incorrect	2back	Block1	2back/STIM_036.jpg
468.667	1.641	correct	2back	Block1	2back/STIM_036.jpg
472.635	1.501	correct	2back	Block1	2back/STIM_037.jpg
476.483	1.361	correct	2back	Block1	2back/STIM_037.jpg
480.108	1.42	correct	2back	Block1	2back/STIM_037.jpg
484.893	1.423	incorrect	2back	Block1	2back/STIM_038.jpg
489.87	1.113	incorrect	2back	Block1	2back/STIM_038.jpg
493.709	0.983	correct	2back	Block1	2back/STIM_038.jpg
498.53	1.895	correct	2back	Block1	2back/STIM_039.jpg
504.094	1.42	incorrect	2back	Block1	2back/STIM_039.jpg
507.768	1.218	correct	2back	Block1	2back/STIM_039.jpg
511.536	0.935	correct	0back	Block1	0back/STIM_000.jpg
514.833	0.918	correct	0back	Block1	0back/STIM_000.jpg
518.408	0.818	correct	0back	Block1	0back/STIM_000.jpg
522.809	0.933	correct	0back	Block1	0back/STIM_001.jpg
527.416	0.905	correct	0back	Block1	0back/STIM_001.jpg
532.034	1.034	correct	0back	Block1	0back/STIM_001.jpg
536.48	0.882	correct	0back	Block1	0back/STIM_002.jpg
540.692	0.636	correct	0back	Block1	0back/STIM_002.jpg
545.087	0.652	correct	0back	Block1	0back/STIM_002.jpg
549.349	0.938	correct	0back	Block1	0back/STIM_003.jpg
553.258	0.976	correct	0back	Block1	0back/STIM_003.jpg
557.251	0.569	correct	0back	Block1	0back/STIM_003.jpg
561.243	0.93	correct	0back	Block1	0back/STIM_004.jpg
564.511	0.818	correct	0back	Block1	0back/STIM_004.jpg
569.288	0.624	correct	0back	Block1	0back/STIM_004.jpg
573.05	1.079	correct	0back	Block1	0back/STIM_005.jpg
577.107	0.884	correct	0back	Block1	0back/STIM_005.jpg
580.343	0.705	correct	0back	Block1	0back/STIM_005.jpg
584.587	0.843	correct	0back	Block1	0back/STIM_006.jpg
588.985	0.604	correct	0back	Block1	0back/STIM_006.jpg
591.604	0.861	correct	0back	Block1	0back/STIM_006.jpg
596.414	0.553	correct	0back	Block1	0back/STIM_007.jpg
599.313	0.558	correct	0back	Block1	0back/STIM_007.jpg
602.715	0.699	correct	0back	Block1	0back/STIM_007.jpg
606.718	0.87	correct	0back	Block1	0back/STIM_008.jpg
610.166	0.676	correct	0back	Block1	0back/STIM_008.jpg
614.818	0.989	correct	0back	Block1	0back/STIM_008.jpg
619.547	0.659	correct	0back	Block1	0back/STIM_009.jpg
622.955	0.647	correct	0back	Block1	0back/STIM_009.jpg
625.666	0.738	incorrect	0back	Block1	0back/STIM_009.jpg
629.806	0.802	correct	0back	Block1	0back/STIM_010.jpg
632.641	0.933	correct	0back	Block1	0back/STIM_010.jpg
637.501	0.823	correct	0back	Block1	0back/STIM_010.jpg
642.276	0.906	correct	0back	Block1	0back/STIM_011.jpg
646.88	0.772	correct	0back	Block1	0back/STIM_011.jpg
650.621	0.854	correct	0back	Block1	0back/STIM_011.jpg
653.832	0.739	correct	0back	Block1	0back/STIM_012.jpg
657.329	0.77	correct	0back	Block1	0back/STIM_012.jpg
660.368	1.084	correct	0back	Block1	0back/STIM_012.jpg
664.246	0.78	correct	0back	Block1	0back/STIM_013.jpg
667.194	1.05	correct	0back	Block1	0back/STIM_013.jpg
670.489	0.702	incorrect	0back	Block1	0back/STIM_013.jpg
674.817	0.677	correct	0back	Block1	0back/STIM_014.jpg
677.744	0.835	correct	0back	Block1	0back/STIM_014.jpg
682.403	0.946	correct	0back	Block1	0back/STIM_014.jpg
686.19	0.767	correct	0back	Block1	0back/STIM_015.jpg
689.916	0.938	correct	0back	Block1	0back/STIM_015.jpg
693.706	0.726	correct	0back	Block1	0back/STIM_015.jpg
696.951	0.907	correct	0back	Block1	0back/STIM_016.jpg
700.607	1.014	correct	0back	Block1	0back/STIM_016.jpg
704.811	0.914	correct	0back	Block1	0back/STIM_016.jpg
708.218	0.688	correct	0back	Block1	0back/STIM_017.jpg
712.068	1.059	correct	0back	Block1	0back/STIM_017.jpg
716.454	0.654	correct	0back	Block1	0back/STIM_017.jpg
721.051	0.695	correct	0back	Block1	0back/STIM_018.jpg
724.048	0.798	correct	0back	Block1	0back/STIM_018.jpg
728.8	1.022	correct	0back	Block1	0back/STIM_018.jpg
733.068	0.695	correct	0back	Block1	0back/STIM_019.jpg
735.817	1.079	incorrect	0back	Block1	0back/STIM_019.jpg
740.253	0.921	correct	0back	Block1	0back/STIM_019.jpg
744.461	0.75	correct	2back	Block2	2back/STIM_000.jpg
747.877	0.854	correct	2back	Block2	2back/STIM_000.jpg
752.324	1.372	correct	2back	Block2	2back/STIM_000.jpg
755.718	0.823	correct	2back	Block2	2back/STIM_001.jpg
759.62	0.823	correct	2back	Block2	2back/STIM_001.jpg
764.112	0.697	correct	2back	Block2	2back/STIM_001.jpg
768.087	1.004	incorrect	2back	Block2	2back/STIM_002.jpg
772.301	1.313	correct	2back	Block2	2back/STIM_002.jpg
777.563	1.006	correct	2back	Block2	2back/STIM_002.jpg
781.31	0.895	correct	2back	Block2	2back/STIM_003.jpg
786.143	1.406	correct	2back	Block2	2back/STIM_003.jpg
790.258	0.913	correct	2back	Block2	2back/STIM_003.jpg
795.158	0.976	correct	2back	Block2	2back/STIM_004.jpg
798.671	1.116	correct	2back	Block2	2back/STIM_004.jpg
802.366	1.161	correct	2back	Block2	2back/STIM_004.jpg
807.424	0.931	correct	2back	Block2	2back/STIM_005.jpg
810.365	0.734	correct	2back	Block2	2back/STIM_005.jpg
814.795	0.684	correct	2back	Block2	2back/STIM_005.jpg
817.731	0.974	correct	2back	Block2	2back/STIM_006.jpg
821.165	1.477	correct	2back	Block2	2back/STIM_006.jpg
825.469	0.759	correct	2back	Block2	2back/STIM_006.jpg
829.964	0.735	correct	2back	Block2	2back/STIM_007.jpg
833.905	1.191	correct	2back	Block2	2back/STIM_007.jpg
838.474	1.297	correct	2back	Block2	2back/STIM_007.jpg
842.589	1.157	correct	2back	Block2	2back/STIM_008.jpg
846.501	0.977	correct	2back	Block2	2back/STIM_008.jpg
850.345	1.326	correct	2back	Block2	2back/STIM_008.jpg
854.822	1.029	correct	2back	Block2	2back/STIM_009.jpg
858.684	1.226	correct	2back	Block2	2back/STIM_009.jpg
862.044	0.966	correct	2back	Block2	2back/STIM_009.jpg
865.183	1.518	correct	2back	Block2	2back/STIM_010.jpg
868.822	1.302	correct	2back	Block2	2back/STIM_010.jpg
873.403	0.748	correct	2back	Block2	2back/STIM_010.jpg
877.667	0.849	correct	2back	Block2	2back/STIM_011.jpg
880.934	1.398	correct	2back	Block2	2back/STIM_011.jpg
885.023	0.799	correct	2back	Block2	2back/STIM_011.jpg
889.38	1.067	correct	2back	Block2	2back/STIM_012.jpg
893.356	0.921	correct	2back	Block2	2back/STIM_012.jpg
896.324	1.367	correct	2back	Block2	2back/STIM_012.jpg
899.963	1.459	correct	2back	Block2	2back/STIM_013.jpg
904.0	0.939	correct	2back	Block2	2back/STIM_013.jpg
907.23	1.072	correct	2back	Block2	2back/STIM_013.jpg
912.224	0.886	correct	2back	Block2	2back/STIM_014.jpg
916.925	0.931	correct	2back	Block2	2back/STIM_014.jpg
920.169	1.155	correct	2back	Block2	2back/STIM_014.jpg
924.338	0.94	correct	2back	Block2	2back/STIM_015.jpg
927.538	1.286	correct	2back	Block2	2back/STIM_015.jpg
931.401	1.087	incorrect	2back	Block2	2back/STIM_015.jpg
935.926	0.928	correct	2back	Block2	2back/STIM_016.jpg
940.472	1.138	incorrect	2back	Block2	2back/STIM_016.jpg
944.469	0.978	correct	2back	Block2	2back/STIM_016.jpg
948.915	1.584	correct	2back	Block2	2back/STIM_017.jpg
953.633	0.886	correct	2back	Block2	2back/STIM_017.jpg
958.38	0.755	correct	2back	Block2	2back/STIM_017.jpg
961.709	0.949	correct	2back	Block2	2back/STIM_018.jpg
964.895	1.058	correct	2back	Block2	2back/STIM_018.jpg
968.411	1.207	correct	2back	Block2	2back/STIM_018.jpg
972.474	1.344	correct	2back	Block2	2back/STIM_019.jpg
975.983	0.968	correct	2back	Block2	2back/STIM_019.jpg
979.628	1.338	incorrect	2back	Block2	2back/STIM_019.jpg
983.765	0.879	correct	2back	Block2	2back/STIM_020.jpg
987.33	1.52	correct	2back	Block2	2back/STIM_020.jpg
991.577	0.745	correct	2back	Block2	2back/STIM_020.jpg
996.312	1.014	correct	2back	Block2	2back/STIM_021.jpg
1001.169	1.375	correct	2back	Block2	2back/STIM_021.jpg
1005.051	1.042	correct	2back	Block2	2back/STIM_021.jpg
1009.298	0.946	correct	2back	Block2	2back/STIM_022.jpg
1014.158	0.704	incorrect	2back	Block2	2back/STIM_022.jpg
1018.483	0.67	correct	2back	Block2	2back/STIM_022.jpg
1023.024	1.341	correct	2back	Block2	2back/STIM_023.jpg
1027.876	0.8	correct	2back	Block2	2back/STIM_023.jpg
1031.669	1.303	correct	2back	Block2	2back/STIM_023.jpg
1036.138	0.832	correct	2back	Block2	2back/STIM_024.jpg
1039.647	1.038	incorrect	2back	Block2	2back/STIM_024.jpg
1044.115	0.98	correct	2back	Block2	2back/STIM_024.jpg
1047.57	1.636	correct	2back	Block2	2back/STIM_025.jpg
1051.979	0.898	correct	2back	Block2	2back/STIM_025.jpg
1056.134	1.135	correct	2back	Block2	2back/STIM_025.jpg
1059.29	1.154	correct	2back	Block2	2back/STIM_026.jpg
1062.514	1.251	correct	2back	Block2	2back/STIM_026.jpg
1066.929	0.983	correct	2back	Block2	2back/STIM_026.jpg
1071.374	1.616	correct	2back	Block2	2back/STIM_027.jpg
1076.279	1.191	correct	2back	Block2	2back/STIM_027.jpg
1081.437	1.084	correct	2back	Block2	2back/STIM_027.jpg
1086.181	1.261	correct	2back	Block2	2back/STIM_028.jpg
1090.995	1.234	incorrect	2back	Block2	2back/STIM_028.jpg
1094.554	0.818	correct	2back	Block2	2back/STIM_028.jpg
1098.722	1.573	correct	2back	Block2	2back/STIM_029.jpg
1103.92	0.666	correct	2back	Block2	2back/STIM_029.jpg
1107.453	1.333	correct	2back	Block2	2back/STIM_029.jpg
1111.838	0.935	correct	2back	Block2	2back/STIM_030.jpg
1115.572	1.236	correct	2back	Block2	2back/STIM_030.jpg
1120.726	0.686	correct	2back	Block2	2back/STIM_030.jpg
1125.322	0.979	correct	2back	Block2	2back/STIM_031.jpg
1129.908	0.914	correct	2back	Block2	2back/STIM_031.jpg
1134.148	0.786	correct	2back	Block2	2back/STIM_031.jpg
1137.265	0.76	correct	2back	Block2	2back/STIM_032.jpg
1140.736	1.257	correct	2back	Block2	2back/STIM_032.jpg
1144.874	0.768	correct	2back	Block2	2back/STIM_032.jpg
1147.835	0.895	correct	2back	Block2	2back/STIM_033.jpg
1151.978	1.523	correct	2back	Block2	2back/STIM_033.jpg
1155.573	1.309	correct	2back	Block2	2back/STIM_033.jpg
1159.555	1.53	correct	2back	Block2	2back/STIM_034.jpg
1163.271	0.982	incorrect	2back	Block2	2back/STIM_034.jpg
1166.426	0.736	correct	2back	Block2	2back/STIM_034.jpg
1169.494	1.297	correct	2back	Block2	2back/STIM_035.jpg
1173.348	1.185	correct	2back	Block2	2back/STIM_035.jpg
1177.699	1.11	correct	2back	Block2	2back/STIM_035.jpg
1181.614	1.271	correct	2back	Block2	2back/STIM_036.jpg
1186.162	1.503	correct	2back	Block2	2back/STIM_036.jpg
1191.089	1.272	correct	2back	Block2	2back/STIM_036.jpg
1194.528	1.19	correct	2back	Block2	2back/STIM_037.jpg
1198.292	1.292	correct	2back	Block2	2back/STIM_037.jpg
1202.938	1.102	correct	2back	Block2	2back/STIM_037.jpg
1207.323	1.568	incorrect	2back	Block2	2back/STIM_038.jpg
1212.728	1.48	correct	2back	Block2	2back/STIM_038.jpg
1217.444	0.94	correct	2back	Block2	2back/STIM_038.jpg
1220.998	1.307	correct	2back	Block2	2back/STIM_039.jpg
1225.114	1.394	correct	2back	Block2	2back/STIM_039.jpg
1229.753	1.147	correct	2back	Block2	2back/STIM_039.jpg
1234.066	0.762	correct	0back	Block2	0back/STIM_000.jpg
1237.043	0.79	correct	0back	Block2	0back/STIM_000.jpg
1241.59	0.849	correct	0back	Block2	0back/STIM_000.jpg
1245.551	1.013	correct	0back	Block2	0back/STIM_001.jpg
1249.676	0.597	correct	0back	Block2	0back/STIM_001.jpg
1253.683	0.561	correct	0back	Block2	0back/STIM_001.jpg
1256.896	0.69	correct	0back	Block2	0back/STIM_002.jpg
1260.389	0.625	correct	0back	Block2	0back/STIM_002.jpg
1264.296	1.089	correct	0back	Block2	0back/STIM_002.jpg
1269.276	0.932	correct	0back	Block2	0back/STIM_003.jpg
1272.77	0.678	correct	0back	Block2	0back/STIM_003.jpg
1276.452	0.983	correct	0back	Block2	0back/STIM_003.jpg
1280.674	0.946	correct	0back	Block2	0back/STIM_004.jpg
1284.181	0.554	correct	0back	Block2	0back/STIM_004.jpg
1288.544	1.103	correct	0back	Block2	0back/STIM_004.jpg
1293.287	1.057	correct	0back	Block2	0back/STIM_005.jpg
1297.699	0.62	correct	0back	Block2	0back/STIM_005.jpg
1300.664	0.65	correct	0back	Block2	0back/STIM_005.jpg
1304.505	0.792	correct	0back	Block2	0back/STIM_006.jpg
1308.351	0.704	correct	0back	Block2	0back/STIM_006.jpg
1312.635	0.657	correct	0back	Block2	0back/STIM_006.jpg
1315.78	0.676	correct	0back	Block2	0back/STIM_007.jpg
1320.19	0.695	correct	0back	Block2	0back/STIM_007.jpg
1324.021	1.1	correct	0back	Block2	0back/STIM_007.jpg
1329.103	1.063	correct	0back	Block2	0back/STIM_008.jpg
1333.993	0.586	correct	0back	Block2	0back/STIM_008.jpg
1337.02	0.625	correct	0back	Block2	0back/STIM_008.jpg
1340.877	1.027	correct	0back	Block2	0back/STIM_009.jpg
1344.386	0.788	correct	0back	Block2	0back/STIM_009.jpg
1349.138	0.706	correct	0back	Block2	0back/STIM_009.jpg
1352.362	0.636	correct	0back	Block2	0back/STIM_010.jpg
1355.19	0.672	correct	0back	Block2	0back/STIM_010.jpg
1358.285	0.951	correct	0back	Block2	0back/STIM_010.jpg
1362.593	0.976	correct	0back	Block2	0back/STIM_011.jpg
1366.118	0.964	correct	0back	Block2	0back/STIM_011.jpg
1369.819	0.878	correct	0back	Block2	0back/STIM_011.jpg
1373.603	0.601	correct	0back	Block2	0back/STIM_012.jpg
1377.862	0.875	correct	0back	Block2	0back/STIM_012.jpg
1381.522	0.81	correct	0back	Block2	0back/STIM_012.jpg
1385.172	0.808	correct	0back	Block2	0back/STIM_013.jpg
1388.95	0.796	correct	0back	Block2	0back/STIM_013.jpg
1393.721	0.949	correct	0back	Block2	0back/STIM_013.jpg
1397.337	0.676	correct	0back	Block2	0back/STIM_014.jpg
1400.294	0.668	correct	0back	Block2	0back/STIM_014.jpg
1404.197	1.101	correct	0back	Block2	0back/STIM_014.jpg
1409.22	1.023	correct	0back	Block2	0back/STIM_015.jpg
1413.675	0.636	correct	0back	Block2	0back/STIM_015.jpg
1416.657	0.848	correct	0back	Block2	0back/STIM_015.jpg
1421.082	0.861	correct	0back	Block2	0back/STIM_016.jpg
1424.442	0.864	correct	0back	Block2	0back/STIM_016.jpg
1427.555	0.778	correct	0back	Block2	0back/STIM_016.jpg
1431.643	0.717	correct	0back	Block2	0back/STIM_017.jpg
1435.609	1.015	correct	0back	Block2	0back/STIM_017.jpg
1439.273	0.77	correct	0back	Block2	0back/STIM_017.jpg
1443.876	0.733	correct	0back	Block2	0back/STIM_018.jpg
1448.422	1.051	correct	0back	Block2	0back/STIM_018.jpg
1451.641	1.021	correct	0back	Block2	0back/STIM_018.jpg
1455.34	0.901	correct	0back	Block2	0back/STIM_019.jpg
1458.616	0.972	correct	0back	Block2	0back/STIM_019.jpg
1463.522	0.697	correct	0back	Block2	0back/STIM_019.jpg
1466.777	0.772	correct	2back	Block3	2back/STIM_000.jpg
1471.377	0.787	correct	2back	Block3	2back/STIM_000.jpg
1474.183	1.109	correct	2back	Block3	2back/STIM_000.jpg
1477.846	1.042	correct	2back	Block3	2back/STIM_001.jpg
1481.037	1.34	correct	2back	Block3	2back/STIM_001.jpg
1484.638	0.939	correct	2back	Block3	2back/STIM_001.jpg
1488.611	0.776	correct	2back	Block3	2back/STIM_002.jpg
1493.177	0.744	correct	2back	Block3	2back/STIM_002.jpg
1496.039	0.728	correct	2back	Block3	2back/STIM_002.jpg
1499.382	1.307	correct	2back	Block3	2back/STIM_003.jpg
1503.395	0.755	correct	2back	Block3	2back/STIM_003.jpg
1507.546	1.257	correct	2back	Block3	2back/STIM_003.jpg
1511.039	1.245	correct	2back	Block3	2back/STIM_004.jpg
1515.196	0.921	correct	2back	Block3	2back/STIM_004.jpg
1518.473	0.615	correct	2back	Block3	2back/STIM_004.jpg
1522.524	0.747	correct	2back	Block3	2back/STIM_005.jpg
1525.553	1.105	correct	2back	Block3	2back/STIM_005.jpg
1529.743	0.737	correct	2back	Block3	2back/STIM_005.jpg
1532.512	0.694	correct	2back	Block3	2back/STIM_006.jpg
1535.876	1.029	correct	2back	Block3	2back/STIM_006.jpg
1539.613	1.117	correct	2back	Block3	2back/STIM_006.jpg
1543.279	0.854	correct	2back	Block3	2back/STIM_007.jpg
1547.51	0.951	correct	2back	Block3	2back/STIM_007.jpg
1552.208	1.188	correct	2back	Block3	2back/STIM_007.jpg
1556.459	0.665	correct	2back	Block3	2back/STIM_008.jpg
1560.734	0.696	correct	2back	Block3	2back/STIM_008.jpg
1565.094	1.269	correct	2back	Block3	2back/STIM_008.jpg
1569.96	0.872	correct	2back	Block3	2back/STIM_009.jpg
1573.608	0.989	correct	2back	Block3	2back/STIM_009.jpg
1577.826	0.906	correct	2back	Block3	2back/STIM_009.jpg
1582.199	0.821	correct	2back	Block3	2back/STIM_010.jpg
1586.289	1.183	correct	2back	Block3	2back/STIM_010.jpg
1590.354	1.168	correct	2back	Block3	2back/STIM_010.jpg
1594.405	0.756	correct	2back	Block3	2back/STIM_011.jpg
1597.727	1.0	correct	2back	Block3	2back/STIM_011.jpg
1602.207	1.169	correct	2back	Block3	2back/STIM_011.jpg
1606.474	0.644	correct	2back	Block3	2back/STIM_012.jpg
1609.869	1.023	correct	2back	Block3	2back/STIM_012.jpg
1613.87	1.165	correct	2back	Block3	2back/STIM_012.jpg
1618.005	0.695	correct	2back	Block3	2back/STIM_013.jpg
1620.931	1.13	correct	2back	Block3	2back/STIM_013.jpg
1624.868	0.712	correct	2back	Block3	2back/STIM_013.jpg
1628.566	0.66	correct	2back	Block3	2back/STIM_014.jpg
1632.686	1.188	correct	2back	Block3	2back/STIM_014.jpg
1636.649	0.66	correct	2back	Block3	2back/STIM_014.jpg
1640.815	1.158	correct	2back	Block3	2back/STIM_015.jpg
1645.851	0.716	correct	2back	Block3	2back/STIM_015.jpg
1649.3	1.085	correct	2back	Block3	2back/STIM_015.jpg
1654.176	1.223	correct	2back	Block3	2back/STIM_016.jpg
1658.199	1.04	correct	2back	Block3	2back/STIM_016.jpg
1661.485	1.038	correct	2back	Block3	2back/STIM_016.jpg
1666.245	1.011	correct	2back	Block3	2back/STIM_017.jpg
1669.958	1.284	correct	2back	Block3	2back/STIM_017.jpg
1674.465	1.11	correct	2back	Block3	2back/STIM_017.jpg
1677.582	1.077	correct	2back	Block3	2back/STIM_018.jpg
1681.618	0.649	correct	2back	Block3	2back/STIM_018.jpg
1685.874	1.069	correct	2back	Block3	2back/STIM_018.jpg
1689.949	1.335	correct	2back	Block3	2back/STIM_019.jpg
1693.3	1.147	correct	2back	Block3	2back/STIM_019.jpg
1698.298	0.847	correct	2back	Block3	2back/STIM_019.jpg
1702.528	1.188	correct	2back	Block3	2back/STIM_020.jpg
1706.067	1.256	correct	2back	Block3	2back/STIM_020.jpg
1710.405	0.953	correct	2back	Block3	2back/STIM_020.jpg
1713.358	0.631	correct	2back	Block3	2back/STIM_021.jpg
1716.936	1.261	correct	2back	Block3	2back/STIM_021.jpg
1721.14	1.141	correct	2back	Block3	2back/STIM_021.jpg
1725.138	0.614	correct	2back	Block3	2back/STIM_022.jpg
1727.928	1.33	correct	2back	Block3	2back/STIM_022.jpg
1732.595	1.213	correct	2back	Block3	2back/STIM_022.jpg
1736.717	1.241	correct	2back	Block3	2back/STIM_023.jpg
1740.82	0.626	correct	2back	Block3	2back/STIM_023.jpg
1743.612	1.231	correct	2back	Block3	2back/STIM_023.jpg
1747.642	1.342	correct	2back	Block3	2back/STIM_024.jpg
1752.476	1.106	correct	2back	Block3	2back/STIM_024.jpg
1756.53	0.65	correct	2back	Block3	2back/STIM_024.jpg
1759.684	1.33	correct	2back	Block3	2back/STIM_025.jpg
1763.232	0.981	correct	2back	Block3	2back/STIM_025.jpg
1767.806	0.792	correct	2back	Block3	2back/STIM_025.jpg
1770.741	0.87	correct	2back	Block3	2back/STIM_026.jpg
1774.361	1.212	correct	2back	Block3	2back/STIM_026.jpg
1778.018	0.898	correct	2back	Block3	2back/STIM_026.jpg
1782.804	0.919	correct	2back	Block3	2back/STIM_027.jpg
1786.436	1.199	correct	2back	Block3	2back/STIM_027.jpg
1791.391	0.655	correct	2back	Block3	2back/STIM_027.jpg
1794.465	0.731	correct	2back	Block3	2back/STIM_028.jpg
1797.854	0.684	correct	2back	Block3	2back/STIM_028.jpg
1802.014	0.739	correct	2back	Block3	2back/STIM_028.jpg
1805.039	0.637	correct	2back	Block3	2back/STIM_029.jpg
1808.939	1.352	correct	2back	Block3	2back/STIM_029.jpg
1813.394	1.199	correct	2back	Block3	2back/STIM_029.jpg
1817.88	0.611	correct	2back	Block3	2back/STIM_030.jpg
1820.848	1.075	correct	2back	Block3	2back/STIM_030.jpg
1825.736	1.272	correct	2back	Block3	2back/STIM_030.jpg
1829.152	0.915	correct	2back	Block3	2back/STIM_031.jpg
1833.725	0.944	correct	2back	Block3	2back/STIM_031.jpg
1837.128	1.131	correct	2back	Block3	2back/STIM_031.jpg
1841.938	0.725	incorrect	2back	Block3	2back/STIM_032.jpg
1844.739	1.083	correct	2back	Block3	2back/STIM_032.jpg
1849.743	0.756	correct	2back	Block3	2back/STIM_032.jpg
1853.996	0.776	correct	2back	Block3	2back/STIM_033.jpg
1856.871	0.984	correct	2back	Block3	2back/STIM_033.jpg
1861.281	0.622	correct	2back	Block3	2back/STIM_033.jpg
1865.023	0.798	incorrect	2back	Block3	2back/STIM_034.jpg
1868.734	1.13	correct	2back	Block3	2back/STIM_034.jpg
1872.466	0.84	correct	2back	Block3	2back/STIM_034.jpg
1876.892	1.175	correct	2back	Block3	2back/STIM_035.jpg
1880.255	1.276	correct	2back	Block3	2back/STIM_035.jpg
1884.013	1.231	correct	2back	Block3	2back/STIM_035.jpg
1888.586	0.78	correct	2back	Block3	2back/STIM_036.jpg
1893.113	1.12	correct	2back	Block3	2back/STIM_036.jpg
1897.786	1.117	correct	2back	Block3	2back/STIM_036.jpg
1901.288	1.299	correct	2back	Block3	2back/STIM_037.jpg
1905.755	1.03	correct	2back	Block3	2back/STIM_037.jpg
1910.48	0.811	correct	2back	Block3	2back/STIM_037.jpg
1913.976	0.616	correct	2back	Block3	2back/STIM_038.jpg
1918.422	1.068	correct	2back	Block3	2back/STIM_038.jpg
1922.0	1.344	correct	2back	Block3	2back/STIM_038.jpg
1926.373	0.679	correct	2back	Block3	2back/STIM_039.jpg
1929.273	0.791	correct	2back	Block3	2back/STIM_039.jpg
1932.714	1.209	correct	2back	Block3	2back/STIM_039.jpg
1936.355	0.61	correct	0back	Block3	0back/STIM_000.jpg
1939.262	0.834	correct	0back	Block3	0back/STIM_000.jpg
1942.135	0.715	correct	0back	Block3	0back/STIM_000.jpg
1946.017	1.054	correct	0back	Block3	0back/STIM_001.jpg
1949.239	1.104	correct	0back	Block3	0back/STIM_001.jpg
1953.242	0.981	correct	0back	Block3	0back/STIM_001.jpg
1957.132	0.99	correct	0back	Block3	0back/STIM_002.jpg
1960.32	0.617	correct	0back	Block3	0back/STIM_002.jpg
1963.823	0.779	incorrect	0back	Block3	0back/STIM_002.jpg
1966.637	0.611	correct	0back	Block3	0back/STIM_003.jpg
1970.558	1.004	correct	0back	Block3	0back/STIM_003.jpg
1974.53	0.684	correct	0back	Block3	0back/STIM_003.jpg
1977.577	0.848	correct	0back	Block3	0back/STIM_004.jpg
1981.205	0.849	correct	0back	Block3	0back/STIM_004.jpg
1985.888	0.568	correct	0back	Block3	0back/STIM_004.jpg
1989.571	1.079	correct	0back	Block3	0back/STIM_005.jpg
1993.826	0.903	correct	0back	Block3	0back/STIM_005.jpg
1998.541	0.919	correct	0back	Block3	0back/STIM_005.jpg
2003.353	0.613	correct	0back	Block3	0back/STIM_006.jpg
2007.489	1.061	correct	0back	Block3	0back/STIM_006.jpg
2011.595	0.631	correct	0back	Block3	0back/STIM_006.jpg
2014.676	0.633	correct	0back	Block3	0back/STIM_007.jpg
2019.073	0.873	correct	0back	Block3	0back/STIM_007.jpg
2022.923	0.647	correct	0back	Block3	0back/STIM_007.jpg
2026.403	0.847	correct	0back	Block3	0back/STIM_008.jpg
2029.5	0.598	correct	0back	Block3	0back/STIM_008.jpg
2033.859	0.916	correct	0back	Block3	0back/STIM_008.jpg
2038.235	0.895	incorrect	0back	Block3	0back/STIM_009.jpg
2041.302	1.026	correct	0back	Block3	0back/STIM_009.jpg
2044.518	0.946	correct	0back	Block3	0back/STIM_009.jpg
2048.938	0.77	correct	0back	Block3	0back/STIM_010.jpg
2051.72	0.574	correct	0back	Block3	0back/STIM_010.jpg
2054.447	0.749	correct	0back	Block3	0back/STIM_010.jpg
2057.729	0.951	correct	0back	Block3	0back/STIM_011.jpg
2061.877	0.791	correct	0back	Block3	0back/STIM_011.jpg
2066.111	1.012	correct	0back	Block3	0back/STIM_011.jpg
2069.755	0.861	correct	0back	Block3	0back/STIM_012.jpg
2072.857	0.904	correct	0back	Block3	0back/STIM_012.jpg
2075.84	0.845	correct	0back	Block3	0back/STIM_012.jpg
2080.089	0.762	correct	0back	Block3	0back/STIM_013.jpg
2083.301	0.635	correct	0back	Block3	0back/STIM_013.jpg
2087.161	0.747	correct	0back	Block3	0back/STIM_013.jpg
2091.858	0.926	correct	0back	Block3	0back/STIM_014.jpg
2095.189	0.838	correct	0back	Block3	0back/STIM_014.jpg
2098.472	1.106	correct	0back	Block3	0back/STIM_014.jpg
2102.165	0.984	correct	0back	Block3	0back/STIM_015.jpg
2105.367	0.964	correct	0back	Block3	0back/STIM_015.jpg
2109.071	1.046	correct	0back	Block3	0back/STIM_015.jpg
2113.033	0.995	correct	0back	Block3	0back/STIM_016.jpg
2117.331	0.709	correct	0back	Block3	0back/STIM_016.jpg
2120.686	0.969	correct	0back	Block3	0back/STIM_016.jpg
2124.686	0.68	correct	0back	Block3	0back/STIM_017.jpg
2127.936	1.088	correct	0back	Block3	0back/STIM_017.jpg
2131.364	0.865	correct	0back	Block3	0back/STIM_017.jpg
2135.526	1.011	correct	0back	Block3	0back/STIM_018.jpg
2140.322	0.928	correct	0back	Block3	0back/STIM_018.jpg
2143.493	0.817	correct	0back	Block3	0back/STIM_018.jpg
2147.201	0.937	correct	0back	Block3	0back/STIM_019.jpg
2151.934	0.971	correct	0back	Block3	0back/STIM_019.jpg
2156.001	0.83	correct	0back	Block3	0back/STIM_019.jpg
2159.827	0.98	correct	2back	Block4	2back/STIM_000.jpg
2164.492	0.716	correct	2back	Block4	2back/STIM_000.jpg
2167.885	1.237	correct	2back	Block4	2back/STIM_000.jpg
2172.419	0.656	correct	2back	Block4	2back/STIM_001.jpg
2176.232	0.775	correct	2back	Block4	2back/STIM_001.jpg
2179.899	0.946	correct	2back	Block4	2back/STIM_001.jpg
2183.242	0.763	correct	2back	Block4	2back/STIM_002.jpg
2187.509	0.995	correct	2back	Block4	2back/STIM_002.jpg
2191.382	0.736	correct	2back	Block4	2back/STIM_002.jpg
2195.152	0.963	correct	2back	Block4	2back/STIM_003.jpg
2199.987	0.888	correct	2back	Block4	2back/STIM_003.jpg
2203.995	1.063	correct	2back	Block4	2back/STIM_003.jpg
2208.517	0.628	correct	2back	Block4	2back/STIM_004.jpg
2212.854	0.91	correct	2back	Block4	2back/STIM_004.jpg
2216.526	0.998	incorrect	2back	Block4	2back/STIM_004.jpg
2220.708	1.073	correct	2back	Block4	2back/STIM_005.jpg
2225.107	0.622	correct	2back	Block4	2back/STIM_005.jpg
2228.637	0.822	correct	2back	Block4	2back/STIM_005.jpg
2232.305	0.808	correct	2back	Block4	2back/STIM_006.jpg
2235.6	0.608	correct	2back	Block4	2back/STIM_006.jpg
2238.416	0.628	correct	2back	Block4	2back/STIM_006.jpg
2242.329	1.245	correct	2back	Block4	2back/STIM_007.jpg
2247.146	0.608	correct	2back	Block4	2back/STIM_007.jpg
2250.13	1.076	correct	2back	Block4	2back/STIM_007.jpg
2254.129	0.943	correct	2back	Block4	2back/STIM_008.jpg
2258.406	1.341	correct	2back	Block4	2back/STIM_008.jpg
2262.952	1.276	incorrect	2back	Block4	2back/STIM_008.jpg
2268.019	1.287	correct	2back	Block4	2back/STIM_009.jpg
2272.308	1.006	correct	2back	Block4	2back/STIM_009.jpg
2276.823	1.268	correct	2back	Block4	2back/STIM_009.jpg
2280.899	1.264	correct	2back	Block4	2back/STIM_010.jpg
2284.943	1.233	correct	2back	Block4	2back/STIM_010.jpg
2289.913	1.126	correct	2back	Block4	2back/STIM_010.jpg
2294.097	0.843	correct	2back	Block4	2back/STIM_011.jpg
2297.564	0.791	correct	2back	Block4	2back/STIM_011.jpg
2300.702	0.784	correct	2back	Block4	2back/STIM_011.jpg
2304.208	0.676	correct	2back	Block4	2back/STIM_012.jpg
2308.374	1.233	correct	2back	Block4	2back/STIM_012.jpg
2312.323	1.255	incorrect	2back	Block4	2back/STIM_012.jpg
2316.608	1.019	correct	2back	Block4	2back/STIM_013.jpg
2320.379	0.697	correct	2back	Block4	2back/STIM_013.jpg
2323.222	0.604	correct	2back	Block4	2back/STIM_013.jpg
2327.236	0.949	correct	2back	Block4	2back/STIM_014.jpg
2332.118	0.902	correct	2back	Block4	2back/STIM_014.jpg
2335.414	0.81	correct	2back	Block4	2back/STIM_014.jpg
2338.914	0.875	correct	2back	Block4	2back/STIM_015.jpg
2342.168	0.592	correct	2back	Block4	2back/STIM_015.jpg
2345.285	1.066	correct	2back	Block4	2back/STIM_015.jpg
2349.725	1.171	correct	2back	Block4	2back/STIM_016.jpg
2354.0	1.026	correct	2back	Block4	2back/STIM_016.jpg
2358.529	1.261	correct	2back	Block4	2back/STIM_016.jpg
2362.051	1.009	correct	2back	Block4	2back/STIM_017.jpg
2366.157	0.628	correct	2back	Block4	2back/STIM_017.jpg
2370.081	1.005	correct	2back	Block4	2back/STIM_017.jpg
2374.65	1.106	correct	2back	Block4	2back/STIM_018.jpg
2378.259	0.607	correct	2back	Block4	2back/STIM_018.jpg
2382.528	0.759	correct	2back	Block4	2back/STIM_018.jpg
2385.624	0.591	correct	2back	Block4	2back/STIM_019.jpg
2390.074	0.802	correct	2back	Block4	2back/STIM_019.jpg
2393.239	0.791	correct	2back	Block4	2back/STIM_019.jpg
2397.317	1.295	correct	2back	Block4	2back/STIM_020.jpg
2401.641	0.868	correct	2back	Block4	2back/STIM_020.jpg
2404.68	1.114	correct	2back	Block4	2back/STIM_020.jpg
2409.765	1.273	correct	2back	Block4	2back/STIM_021.jpg
2414.436	1.273	correct	2back	Block4	2back/STIM_021.jpg
2418.484	1.321	correct	2back	Block4	2back/STIM_021.jpg
2422.553	0.877	correct	2back	Block4	2back/STIM_022.jpg
2426.938	1.231	correct	2back	Block4	2back/STIM_022.jpg
2431.486	0.854	correct	2back	Block4	2back/STIM_022.jpg
2434.515	0.621	correct	2back	Block4	2back/STIM_023.jpg
2437.612	1.138	correct	2back	Block4	2back/STIM_023.jpg
2442.369	1.256	correct	2back	Block4	2back/STIM_023.jpg
2446.039	1.223	correct	2back	Block4	2back/STIM_024.jpg
2449.636	0.678	correct	2back	Block4	2back/STIM_024.jpg
2453.58	0.61	correct	2back	Block4	2back/STIM_024.jpg
2456.625	1.106	correct	2back	Block4	2back/STIM_025.jpg
2461.064	0.926	correct	2back	Block4	2back/STIM_025.jpg
2465.716	0.836	correct	2back	Block4	2back/STIM_025.jpg
2470.176	0.611	correct	2back	Block4	2back/STIM_026.jpg
2473.53	1.016	correct	2back	Block4	2back/STIM_026.jpg
2478.252	0.9	correct	2back	Block4	2back/STIM_026.jpg
2481.633	1.139	correct	2back	Block4	2back/STIM_027.jpg
2486.58	0.754	correct	2back	Block4	2back/STIM_027.jpg
2490.358	0.767	correct	2back	Block4	2back/STIM_027.jpg
2493.799	0.652	correct	2back	Block4	2back/STIM_028.jpg
2496.944	0.75	correct	2back	Block4	2back/STIM_028.jpg
2501.695	0.776	correct	2back	Block4	2back/STIM_028.jpg
2506.304	0.605	correct	2back	Block4	2back/STIM_029.jpg
2509.558	1.241	correct	2back	Block4	2back/STIM_029.jpg
2514.077	1.253	correct	2back	Block4	2back/STIM_029.jpg
2518.386	1.274	correct	2back	Block4	2back/STIM_030.jpg
2522.056	0.88	correct	2back	Block4	2back/STIM_030.jpg
2526.353	0.738	correct	2back	Block4	2back/STIM_030.jpg
2529.893	1.297	correct	2back	Block4	2back/STIM_031.jpg
2534.492	1.29	correct	2back	Block4	2back/STIM_031.jpg
2539.389	1.122	correct	2back	Block4	2back/STIM_031.jpg
2544.138	1.351	correct	2back	Block4	2back/STIM_032.jpg
2548.57	1.227	correct	2back	Block4	2back/STIM_032.jpg
2552.603	1.305	correct	2back	Block4	2back/STIM_032.jpg
2557.161	0.994	correct	2back	Block4	2back/STIM_033.jpg
2561.042	1.195	correct	2back	Block4	2back/STIM_033.jpg
2565.062	0.825	correct	2back	Block4	2back/STIM_033.jpg
2569.364	1.071	correct	2back	Block4	2back/STIM_034.jpg
2573.623	1.034	correct	2back	Block4	2back/STIM_034.jpg
2577.033	0.649	correct	2back	Block4	2back/STIM_034.jpg
2580.913	1.054	correct	2back	Block4	2back/STIM_035.jpg
2584.547	0.71	correct	2back	Block4	2back/STIM_035.jpg
2587.926	1.151	correct	2back	Block4	2back/STIM_035.jpg
2591.079	0.787	correct	2back	Block4	2back/STIM_036.jpg
2594.314	0.61	correct	2back	Block4	2back/STIM_036.jpg
2598.073	1.308	correct	2back	Block4	2back/STIM_036.jpg
2602.636	1.224	correct	2back	Block4	2back/STIM_037.jpg
2607.306	0.63	correct	2back	Block4	2back/STIM_037.jpg
2610.929	0.737	correct	2back	Block4	2back/STIM_037.jpg
2613.867	0.997	correct	2back	Block4	2back/STIM_038.jpg
2617.244	0.745	correct	2back	Block4	2back/STIM_038.jpg
2621.05	0.666	correct	2back	Block4	2back/STIM_038.jpg
2623.978	0.894	correct	2back	Block4	2back/STIM_039.jpg
2628.803	1.221	correct	2back	Block4	2back/STIM_039.jpg
2632.361	0.984	correct	2back	Block4	2back/STIM_039.jpg
2637.27	0.65	correct	0back	Block4	0back/STIM_000.jpg
2641.808	1.016	correct	0back	Block4	0back/STIM_000.jpg
2646.21	0.732	correct	0back	Block4	0back/STIM_000.jpg
2649.193	0.903	correct	0back	Block4	0back/STIM_001.jpg
2652.42	0.859	correct	0back	Block4	0back/STIM_001.jpg
2655.348	0.979	correct	0back	Block4	0back/STIM_001.jpg
2658.525	0.799	correct	0back	Block4	0back/STIM_002.jpg
2662.163	0.948	correct	0back	Block4	0back/STIM_002.jpg
2665.51	0.961	correct	0back	Block4	0back/STIM_002.jpg
2669.188	0.631	correct	0back	Block4	0back/STIM_003.jpg
2672.765	0.974	correct	0back	Block4	0back/STIM_003.jpg
2676.309	0.75	correct	0back	Block4	0back/STIM_003.jpg
2680.068	0.859	correct	0back	Block4	0back/STIM_004.jpg
2683.573	1.008	correct	0back	Block4	0back/STIM_004.jpg
2688.568	0.686	correct	0back	Block4	0back/STIM_004.jpg
2691.846	0.898	correct	0back	Block4	0back/STIM_005.jpg
2695.304	0.831	correct	0back	Block4	0back/STIM_005.jpg
2698.914	0.999	correct	0back	Block4	0back/STIM_005.jpg
2702.589	0.968	correct	0back	Block4	0back/STIM_006.jpg
2706.645	0.935	correct	0back	Block4	0back/STIM_006.jpg
2710.819	0.638	correct	0back	Block4	0back/STIM_006.jpg
2715.456	0.832	correct	0back	Block4	0back/STIM_007.jpg
2719.668	0.742	correct	0back	Block4	0back/STIM_007.jpg
2722.871	0.611	correct	0back	Block4	0back/STIM_007.jpg
2726.86	1.036	correct	0back	Block4	0back/STIM_008.jpg
2730.088	0.973	correct	0back	Block4	0back/STIM_008.jpg
2734.915	0.897	correct	0back	Block4	0back/STIM_008.jpg
2739.064	0.582	correct	0back	Block4	0back/STIM_009.jpg
2742.735	0.83	correct	0back	Block4	0back/STIM_009.jpg
2747.551	1.0	correct	0back	Block4	0back/STIM_009.jpg
2750.734	0.888	correct	0back	Block4	0back/STIM_010.jpg
2754.806	0.657	correct	0back	Block4	0back/STIM_010.jpg
2757.57	0.982	correct	0back	Block4	0back/STIM_010.jpg
2762.067	0.91	correct	0back	Block4	0back/STIM_011.jpg
2765.746	1.023	correct	0back	Block4	0back/STIM_011.jpg
2768.948	0.831	correct	0back	Block4	0back/STIM_011.jpg
2773.251	0.565	correct	0back	Block4	0back/STIM_012.jpg
2777.722	0.778	correct	0back	Block4	0back/STIM_012.jpg
2782.055	1.004	correct	0back	Block4	0back/STIM_012.jpg
2785.337	0.75	correct	0back	Block4	0back/STIM_013.jpg
2788.946	0.657	correct	0back	Block4	0back/STIM_013.jpg
2793.428	0.905	correct	0back	Block4	0back/STIM_013.jpg
2796.791	0.638	correct	0back	Block4	0back/STIM_014.jpg
2801.182	0.907	correct	0back	Block4	0back/STIM_014.jpg
2804.505	0.918	incorrect	0back	Block4	0back/STIM_014.jpg
2809.374	1.091	correct	0back	Block4	0back/STIM_015.jpg
2813.542	0.929	correct	0back	Block4	0back/STIM_015.jpg
2818.468	0.758	correct	0back	Block4	0back/STIM_015.jpg
2822.864	0.995	correct	0back	Block4	0back/STIM_016.jpg
2826.24	0.686	correct	0back	Block4	0back/STIM_016.jpg
2829.771	0.782	correct	0back	Block4	0back/STIM_016.jpg
2833.912	0.71	correct	0back	Block4	0back/STIM_017.jpg
2838.039	0.842	correct	0back	Block4	0back/STIM_017.jpg
2841.9	0.926	correct	0back	Block4	0back/STIM_017.jpg
2844.937	0.833	correct	0back	Block4	0back/STIM_018.jpg
2848.576	0.772	correct	0back	Block4	0back/STIM_018.jpg
2853.068	0.63	correct	0back	Block4	0back/STIM_018.jpg
2857.648	0.946	correct	0back	Block4	0back/STIM_019.jpg
2862.593	0.654	correct	0back	Block4	0back/STIM_019.jpg
2865.438	0.569	correct	0back	Block4	0back/STIM_019.jpg
