onset	duration	response_time_ms	trial_type	learning_stage	stimulus	response_port
0.0	3.151	3151.2	navigation	Trial1	navigation/STIM_000.jpg	99
5.427	4.328	4328.1	navigation	Trial1	navigation/STIM_000.jpg	100
12.446	2.349	2349.3	navigation	Trial1	navigation/STIM_000.jpg	100
18.612	3.545	3544.7	navigation	Trial1	navigation/STIM_000.jpg	100
25.916	1.929	1928.8	navigation	Trial1	navigation/STIM_000.jpg	99
30.604	1.99	1990.1	navigation	Trial1	navigation/STIM_000.jpg	100
36.057	3.926	3925.9	navigation	Trial1	navigation/STIM_001.jpg	100
42.315	2.438	2437.7	navigation	Trial1	navigation/STIM_001.jpg	99
48.127	2.416	2415.6	navigation	Trial1	navigation/STIM_001.jpg	100
53.565	3.819	3818.7	navigation	Trial1	navigation/STIM_001.jpg	100
60.591	3.817	3817.3	navigation	Trial1	navigation/STIM_001.jpg	99
66.725	1.956	1955.6	navigation	Trial1	navigation/STIM_001.jpg	99
71.352	4.176	4176.5	navigation	Trial1	navigation/STIM_002.jpg	100
78.681	3.584	3584.2	navigation	Trial1	navigation/STIM_002.jpg	99
84.813	4.414	4414.0	navigation	Trial1	navigation/STIM_002.jpg	99
91.154	3.081	3081.3	navigation	Trial1	navigation/STIM_002.jpg	99
96.789	2.82	2819.9	navigation	Trial1	navigation/STIM_002.jpg	100
102.259	3.799	3798.9	navigation	Trial1	navigation/STIM_002.jpg	100
109.675	2.86	2860.3	navigation	Trial1	navigation/STIM_003.jpg	100
115.466	3.004	3003.6	navigation	Trial1	navigation/STIM_003.jpg	100
120.636	3.377	3376.6	navigation	Trial1	navigation/STIM_003.jpg	99
127.409	2.968	2968.4	navigation	Trial1	navigation/STIM_003.jpg	99
133.751	2.586	2586.0	navigation	Trial1	navigation/STIM_003.jpg	100
138.985	3.019	3018.9	navigation	Trial1	navigation/STIM_003.jpg	100
145.078	2.17	2170.0	navigation	Trial1	navigation/STIM_004.jpg	100
150.396	2.304	2303.7	navigation	Trial1	navigation/STIM_004.jpg	99
154.893	2.461	2461.0	navigation	Trial1	navigation/STIM_004.jpg	100
159.869	2.759	2759.0	navigation	Trial1	navigation/STIM_004.jpg	100
164.944	3.31	3309.7	navigation	Trial1	navigation/STIM_004.jpg	99
171.34	3.704	3704.5	navigation	Trial1	navigation/STIM_004.jpg	99
177.574	2.58	2580.0	navigation	Trial1	navigation/STIM_005.jpg	100
182.805	3.147	3146.8	navigation	Trial1	navigation/STIM_005.jpg	99
189.303	3.738	3737.5	navigation	Trial1	navigation/STIM_005.jpg	100
196.652	4.019	4018.9	navigation	Trial1	navigation/STIM_005.jpg	99
202.659	2.781	2781.4	navigation	Trial1	navigation/STIM_005.jpg	100
207.598	1.766	1766.5	navigation	Trial1	navigation/STIM_005.jpg	100
212.412	3.598	3598.3	navigation	Trial1	navigation/STIM_006.jpg	99
218.027	2.778	2777.8	navigation	Trial1	navigation/STIM_006.jpg	100
223.584	3.168	3168.4	navigation	Trial1	navigation/STIM_006.jpg	99
229.317	2.784	2784.5	navigation	Trial1	navigation/STIM_006.jpg	100
234.241	1.945	1945.3	navigation	Trial1	navigation/STIM_006.jpg	99
239.219	3.26	3260.0	navigation	Trial1	navigation/STIM_006.jpg	99
245.426	2.247	2247.4	navigation	Trial1	navigation/STIM_007.jpg	100
250.543	3.377	3376.7	navigation	Trial1	navigation/STIM_007.jpg	99
257.267	3.301	3300.7	navigation	Trial1	navigation/STIM_007.jpg	99
263.893	2.628	2628.0	navigation	Trial1	navigation/STIM_007.jpg	100
270.083	4.061	4061.2	navigation	Trial1	navigation/STIM_007.jpg	99
276.996	2.402	2402.1	navigation	Trial1	navigation/STIM_007.jpg	99
282.425	2.233	2232.7	navigation	Trial1	navigation/STIM_008.jpg	99
286.825	4.625	4625.3	navigation	Trial1	navigation/STIM_008.jpg	100
294.859	4.614	4613.9	navigation	Trial1	navigation/STIM_008.jpg	100
302.986	3.277	3277.4	navigation	Trial1	navigation/STIM_008.jpg	100
309.659	3.468	3467.9	navigation	Trial1	navigation/STIM_008.jpg	100
317.014	1.843	1843.3	navigation	Trial1	navigation/STIM_008.jpg	100
322.354	3.232	3231.5	navigation	Trial1	navigation/STIM_009.jpg	99
329.06	4.474	4473.8	navigation	Trial1	navigation/STIM_009.jpg	100
336.681	3.191	3191.3	navigation	Trial1	navigation/STIM_009.jpg	100
343.139	3.853	3853.1	navigation	Trial1	navigation/STIM_009.jpg	99
349.295	1.921	1920.6	navigation	Trial1	navigation/STIM_009.jpg	99
354.288	3.191	3191.1	navigation	Trial1	navigation/STIM_009.jpg	99
360.808	3.581	3580.7	navigation	Trial1	navigation/STIM_010.jpg	100
367.827	4.077	4076.9	navigation	Trial1	navigation/STIM_010.jpg	99
374.96	3.416	3416.2	navigation	Trial1	navigation/STIM_010.jpg	100
382.126	2.353	2353.4	navigation	Trial1	navigation/STIM_010.jpg	100
387.376	2.165	2165.3	navigation	Trial1	navigation/STIM_010.jpg	99
393.107	3.315	3314.6	navigation	Trial1	navigation/STIM_010.jpg	99
400.198	5.129	5129.0	navigation	Trial1	navigation/STIM_011.jpg	100
409.091	2.333	2333.3	navigation	Trial1	navigation/STIM_011.jpg	99
415.307	3.525	3524.8	navigation	Trial1	navigation/STIM_011.jpg	100
422.131	2.791	2791.1	navigation	Trial1	navigation/STIM_011.jpg	100
427.885	3.387	3386.9	navigation	Trial1	navigation/STIM_011.jpg	99
433.797	2.827	2827.4	navigation	Trial1	navigation/STIM_011.jpg	99
439.709	1.287	1286.9	pointing	Trial1	pointing/STIM_000.jpg	99
443.287	1.188	1187.5	pointing	Trial1	pointing/STIM_000.jpg	100
448.1	1.018	1018.0	pointing	Trial1	pointing/STIM_000.jpg	100
451.678	1.101	1101.1	pointing	Trial1	pointing/STIM_000.jpg	100
454.895	1.507	1507.2	pointing	Trial1	pointing/STIM_000.jpg	100
460.155	1.217	1217.4	pointing	Trial1	pointing/STIM_000.jpg	99
464.333	0.899	898.8	pointing	Trial1	pointing/STIM_001.jpg	99
468.213	1.004	1003.6	pointing	Trial1	pointing/STIM_001.jpg	99
472.1	1.07	1070.1	pointing	Trial1	pointing/STIM_001.jpg	100
476.652	1.203	1203.3	pointing	Trial1	pointing/STIM_001.jpg	99
481.73	1.042	1041.8	pointing	Trial1	pointing/STIM_001.jpg	99
485.264	0.87	870.4	pointing	Trial1	pointing/STIM_001.jpg	100
488.49	1.235	1234.8	pointing	Trial1	pointing/STIM_002.jpg	100
493.559	0.963	962.6	pointing	Trial1	pointing/STIM_002.jpg	100
496.717	1.02	1019.7	pointing	Trial1	pointing/STIM_002.jpg	100
500.507	0.905	905.1	pointing	Trial1	pointing/STIM_002.jpg	100
503.803	1.095	1094.9	pointing	Trial1	pointing/STIM_002.jpg	100
508.287	1.462	1462.3	pointing	Trial1	pointing/STIM_002.jpg	100
511.912	1.505	1504.6	pointing	Trial1	pointing/STIM_003.jpg	100
515.86	1.227	1226.7	pointing	Trial1	pointing/STIM_003.jpg	100
520.71	1.144	1144.5	pointing	Trial1	pointing/STIM_003.jpg	99
525.221	1.139	1139.2	pointing	Trial1	pointing/STIM_003.jpg	100
528.375	1.004	1004.3	pointing	Trial1	pointing/STIM_003.jpg	100
531.355	1.392	1392.2	pointing	Trial1	pointing/STIM_003.jpg	99
536.247	1.212	1211.9	pointing	Trial1	pointing/STIM_004.jpg	99
539.944	1.381	1381.3	pointing	Trial1	pointing/STIM_004.jpg	99
543.838	1.18	1180.4	pointing	Trial1	pointing/STIM_004.jpg	99
547.441	1.177	1177.3	pointing	Trial1	pointing/STIM_004.jpg	99
550.733	0.896	896.5	pointing	Trial1	pointing/STIM_004.jpg	100
553.959	1.51	1510.5	pointing	Trial1	pointing/STIM_004.jpg	100
557.585	1.149	1149.2	pointing	Trial1	pointing/STIM_005.jpg	100
561.33	1.181	1180.9	pointing	Trial1	pointing/STIM_005.jpg	99
564.756	1.301	1301.0	pointing	Trial1	pointing/STIM_005.jpg	100
569.588	0.888	888.3	pointing	Trial1	pointing/STIM_005.jpg	99
573.337	1.372	1372.4	pointing	Trial1	pointing/STIM_005.jpg	100
578.473	1.329	1328.9	pointing	Trial1	pointing/STIM_005.jpg	99
582.922	1.273	1272.8	pointing	Trial1	pointing/STIM_006.jpg	100
587.086	1.336	1335.6	pointing	Trial1	pointing/STIM_006.jpg	99
591.206	1.267	1266.7	pointing	Trial1	pointing/STIM_006.jpg	100
595.835	1.384	1383.5	pointing	Trial1	pointing/STIM_006.jpg	100
600.523	1.07	1070.3	pointing	Trial1	pointing/STIM_006.jpg	100
604.362	1.478	1477.7	pointing	Trial1	pointing/STIM_006.jpg	100
609.047	1.508	1507.9	pointing	Trial1	pointing/STIM_007.jpg	99
613.151	0.961	961.3	pointing	Trial1	pointing/STIM_007.jpg	99
618.03	0.87	870.1	pointing	Trial1	pointing/STIM_007.jpg	99
621.846	1.111	1111.1	pointing	Trial1	pointing/STIM_007.jpg	100
625.673	1.192	1191.5	pointing	Trial1	pointing/STIM_007.jpg	99
630.714	1.288	1288.0	pointing	Trial1	pointing/STIM_007.jpg	99
634.907	1.324	1323.5	pointing	Trial1	pointing/STIM_008.jpg	99
639.035	1.499	1499.0	pointing	Trial1	pointing/STIM_008.jpg	100
643.371	1.353	1352.6	pointing	Trial1	pointing/STIM_008.jpg	99
647.61	1.412	1412.3	pointing	Trial1	pointing/STIM_008.jpg	100
652.742	0.866	866.0	pointing	Trial1	pointing/STIM_008.jpg	99
657.128	1.493	1493.4	pointing	Trial1	pointing/STIM_008.jpg	99
662.132	1.246	1246.0	pointing	Trial1	pointing/STIM_009.jpg	100
666.691	1.504	1503.8	pointing	Trial1	pointing/STIM_009.jpg	99
671.087	1.446	1446.2	pointing	Trial1	pointing/STIM_009.jpg	100
675.454	1.427	1426.6	pointing	Trial1	pointing/STIM_009.jpg	99
679.775	1.139	1139.2	pointing	Trial1	pointing/STIM_009.jpg	99
684.058	1.364	1364.3	pointing	Trial1	pointing/STIM_009.jpg	99
688.226	1.308	1307.6	pointing	Trial1	pointing/STIM_010.jpg	99
691.506	0.96	960.4	pointing	Trial1	pointing/STIM_010.jpg	100
694.471	1.305	1305.4	pointing	Trial1	pointing/STIM_010.jpg	100
699.272	1.337	1337.2	pointing	Trial1	pointing/STIM_010.jpg	99
704.241	1.257	1257.1	pointing	Trial1	pointing/STIM_010.jpg	99
708.189	1.096	1096.0	pointing	Trial1	pointing/STIM_010.jpg	100
712.524	0.874	874.4	pointing	Trial1	pointing/STIM_011.jpg	99
716.482	0.914	914.5	pointing	Trial1	pointing/STIM_011.jpg	100
719.409	1.048	1047.6	pointing	Trial1	pointing/STIM_011.jpg	100
723.5	1.224	1224.5	pointing	Trial1	pointing/STIM_011.jpg	100
728.041	1.021	1021.2	pointing	Trial1	pointing/STIM_011.jpg	99
731.977	1.496	1495.5	pointing	Trial1	pointing/STIM_011.jpg	99
736.455	1.891	1891.3	navigation	Trial2	navigation/STIM_000.jpg	100
741.505	2.674	2674.3	navigation	Trial2	navigation/STIM_000.jpg	99
747.967	1.708	1708.4	navigation	Trial2	navigation/STIM_000.jpg	99
752.105	2.661	2660.7	navigation	Trial2	navigation/STIM_000.jpg	99
757.356	3.468	3467.8	navigation	Trial2	navigation/STIM_000.jpg	99
764.617	3.135	3135.3	navigation	Trial2	navigation/STIM_000.jpg	100
770.403	3.588	3588.1	navigation	Trial2	navigation/STIM_001.jpg	99
776.977	1.951	1951.4	navigation	Trial2	navigation/STIM_001.jpg	100
780.983	2.211	2211.4	navigation	Trial2	navigation/STIM_001.jpg	99
786.583	1.874	1873.7	navigation	Trial2	navigation/STIM_001.jpg	99
791.027	2.528	2527.8	navigation	Trial2	navigation/STIM_001.jpg	100
797.312	2.276	2275.9	navigation	Trial2	navigation/STIM_001.jpg	99
802.5	2.624	2624.4	navigation	Trial2	navigation/STIM_002.jpg	99
807.682	2.927	2927.3	navigation	Trial2	navigation/STIM_002.jpg	99
812.961	3.285	3285.4	navigation	Trial2	navigation/STIM_002.jpg	99
819.827	2.818	2817.9	navigation	Trial2	navigation/STIM_002.jpg	100
825.512	3.422	3421.9	navigation	Trial2	navigation/STIM_002.jpg	99
831.763	3.576	3575.6	navigation	Trial2	navigation/STIM_002.jpg	99
838.669	1.776	1776.4	navigation	Trial2	navigation/STIM_003.jpg	99
842.498	2.444	2444.2	navigation	Trial2	navigation/STIM_003.jpg	100
848.405	2.396	2396.4	navigation	Trial2	navigation/STIM_003.jpg	99
852.911	3.097	3097.3	navigation	Trial2	navigation/STIM_003.jpg	99
859.052	2.639	2639.1	navigation	Trial2	navigation/STIM_003.jpg	100
864.774	1.618	1617.6	navigation	Trial2	navigation/STIM_003.jpg	99
868.671	2.538	2537.6	navigation	Trial2	navigation/STIM_004.jpg	99
873.631	3.758	3758.3	navigation	Trial2	navigation/STIM_004.jpg	99
880.454	3.394	3394.0	navigation	Trial2	navigation/STIM_004.jpg	99
887.752	2.123	2123.3	navigation	Trial2	navigation/STIM_004.jpg	99
891.829	1.473	1473.3	navigation	Trial2	navigation/STIM_004.jpg	100
896.616	3.486	3485.6	navigation	Trial2	navigation/STIM_004.jpg	99
903.319	3.704	3704.5	navigation	Trial2	navigation/STIM_005.jpg	100
909.68	2.36	2359.7	navigation	Trial2	navigation/STIM_005.jpg	100
914.584	2.043	2042.9	navigation	Trial2	navigation/STIM_005.jpg	99
920.119	2.088	2087.8	navigation	Trial2	navigation/STIM_005.jpg	100
924.917	2.428	2428.2	navigation	Trial2	navigation/STIM_005.jpg	99
929.966	2.622	2621.5	navigation	Trial2	navigation/STIM_005.jpg	100
935.367	3.733	3732.8	navigation	Trial2	navigation/STIM_006.jpg	100
942.152	2.769	2769.0	navigation	Trial2	navigation/STIM_006.jpg	100
948.364	2.691	2690.8	navigation	Trial2	navigation/STIM_006.jpg	100
953.435	2.896	2895.7	navigation	Trial2	navigation/STIM_006.jpg	100
958.784	2.336	2336.4	navigation	Trial2	navigation/STIM_006.jpg	99
963.943	2.22	2220.3	navigation	Trial2	navigation/STIM_006.jpg	100
969.703	2.504	2503.6	navigation	Trial2	navigation/STIM_007.jpg	100
975.879	2.058	2058.2	navigation	Trial2	navigation/STIM_007.jpg	100
980.332	3.043	3043.0	navigation	Trial2	navigation/STIM_007.jpg	100
986.564	1.568	1568.2	navigation	Trial2	navigation/STIM_007.jpg	99
990.931	1.51	1510.3	navigation	Trial2	navigation/STIM_007.jpg	100
995.824	2.715	2715.4	navigation	Trial2	navigation/STIM_007.jpg	100
1001.982	2.58	2580.0	navigation	Trial2	navigation/STIM_008.jpg	99
1007.927	3.062	3062.4	navigation	Trial2	navigation/STIM_008.jpg	99
1013.708	2.517	2516.6	navigation	Trial2	navigation/STIM_008.jpg	99
1019.726	2.548	2548.2	navigation	Trial2	navigation/STIM_008.jpg	100
1025.333	3.046	3046.4	navigation	Trial2	navigation/STIM_008.jpg	99
1031.972	3.285	3284.9	navigation	Trial2	navigation/STIM_008.jpg	100
1037.821	2.847	2847.3	navigation	Trial2	navigation/STIM_009.jpg	99
1044.337	1.987	1986.9	navigation	Trial2	navigation/STIM_009.jpg	100
1049.985	3.547	3546.9	navigation	Trial2	navigation/STIM_009.jpg	100
1057.438	2.011	2011.0	navigation	Trial2	navigation/STIM_009.jpg	99
1063.032	2.405	2404.8	navigation	Trial2	navigation/STIM_009.jpg	100
1067.979	1.926	1926.1	navigation	Trial2	navigation/STIM_009.jpg	100
1073.503	3.299	3299.3	navigation	Trial2	navigation/STIM_010.jpg	100
1078.963	3.95	3950.2	navigation	Trial2	navigation/STIM_010.jpg	99
1086.347	2.149	2149.3	navigation	Trial2	navigation/STIM_010.jpg	100
1092.057	3.564	3564.4	navigation	Trial2	navigation/STIM_010.jpg	99
1098.152	3.11	3109.6	navigation	Trial2	navigation/STIM_010.jpg	100
1103.243	2.509	2509.4	navigation	Trial2	navigation/STIM_010.jpg	99
1108.16	3.3	3299.6	navigation	Trial2	navigation/STIM_011.jpg	100
1114.893	2.781	2780.9	navigation	Trial2	navigation/STIM_011.jpg	99
1120.121	3.66	3660.5	navigation	Trial2	navigation/STIM_011.jpg	99
1126.589	2.606	2606.1	navigation	Trial2	navigation/STIM_011.jpg	99
1131.582	3.433	3433.3	navigation	Trial2	navigation/STIM_011.jpg	100
1138.273	2.201	2201.2	navigation	Trial2	navigation/STIM_011.jpg	99
1142.863	1.3	1300.0	pointing	Trial2	pointing/STIM_000.jpg	99
1146.91	1.145	1144.7	pointing	Trial2	pointing/STIM_000.jpg	99
1151.389	1.162	1161.6	pointing	Trial2	pointing/STIM_000.jpg	99
1156.36	0.91	910.3	pointing	Trial2	pointing/STIM_000.jpg	99
1160.469	0.86	859.9	pointing	Trial2	pointing/STIM_000.jpg	99
1164.657	1.365	1365.3	pointing	Trial2	pointing/STIM_000.jpg	100
1169.057	1.279	1279.1	pointing	Trial2	pointing/STIM_001.jpg	100
1173.03	1.099	1099.2	pointing	Trial2	pointing/STIM_001.jpg	100
1177.385	1.414	1414.5	pointing	Trial2	pointing/STIM_001.jpg	100
1181.693	1.028	1028.0	pointing	Trial2	pointing/STIM_001.jpg	100
1184.91	1.158	1157.6	pointing	Trial2	pointing/STIM_001.jpg	100
1188.752	0.91	910.2	pointing	Trial2	pointing/STIM_001.jpg	99
1192.802	1.489	1488.8	pointing	Trial2	pointing/STIM_002.jpg	100
1196.944	0.984	984.3	pointing	Trial2	pointing/STIM_002.jpg	99
1201.522	1.42	1419.6	pointing	Trial2	pointing/STIM_002.jpg	100
1206.564	1.381	1381.3	pointing	Trial2	pointing/STIM_002.jpg	100
1211.635	0.857	857.2	pointing	Trial2	pointing/STIM_002.jpg	99
1215.904	1.475	1474.8	pointing	Trial2	pointing/STIM_002.jpg	100
1220.34	1.248	1247.7	pointing	Trial2	pointing/STIM_003.jpg	100
1224.24	1.056	1055.9	pointing	Trial2	pointing/STIM_003.jpg	100
1228.578	1.048	1048.0	pointing	Trial2	pointing/STIM_003.jpg	99
1233.323	0.972	972.4	pointing	Trial2	pointing/STIM_003.jpg	99
1238.007	1.492	1492.5	pointing	Trial2	pointing/STIM_003.jpg	99
1242.924	1.442	1442.0	pointing	Trial2	pointing/STIM_003.jpg	99
1247.16	0.839	838.6	pointing	Trial2	pointing/STIM_004.jpg	99
1250.991	1.521	1521.3	pointing	Trial2	pointing/STIM_004.jpg	99
1255.749	0.946	945.5	pointing	Trial2	pointing/STIM_004.jpg	99
1259.77	1.133	1132.7	pointing	Trial2	pointing/STIM_004.jpg	100
1264.078	0.956	956.1	pointing	Trial2	pointing/STIM_004.jpg	99
1268.695	1.224	1224.3	pointing	Trial2	pointing/STIM_004.jpg	100
1272.822	1.18	1180.1	pointing	Trial2	pointing/STIM_005.jpg	100
1276.947	1.319	1319.0	pointing	Trial2	pointing/STIM_005.jpg	99
1281.697	0.86	859.8	pointing	Trial2	pointing/STIM_005.jpg	99
1284.665	1.018	1018.3	pointing	Trial2	pointing/STIM_005.jpg	100
1289.297	1.233	1233.2	pointing	Trial2	pointing/STIM_005.jpg	99
1293.854	1.48	1480.1	pointing	Trial2	pointing/STIM_005.jpg	100
1299.229	1.159	1158.6	pointing	Trial2	pointing/STIM_006.jpg	100
1303.844	1.292	1292.4	pointing	Trial2	pointing/STIM_006.jpg	100
1308.379	1.096	1095.8	pointing	Trial2	pointing/STIM_006.jpg	100
1312.559	1.353	1353.1	pointing	Trial2	pointing/STIM_006.jpg	100
1316.53	1.223	1223.2	pointing	Trial2	pointing/STIM_006.jpg	100
1320.846	1.031	1031.1	pointing	Trial2	pointing/STIM_006.jpg	100
1324.908	1.253	1253.2	pointing	Trial2	pointing/STIM_007.jpg	100
1328.193	1.413	1412.9	pointing	Trial2	pointing/STIM_007.jpg	99
1332.336	1.153	1152.7	pointing	Trial2	pointing/STIM_007.jpg	99
1335.834	1.52	1519.9	pointing	Trial2	pointing/STIM_007.jpg	100
1340.333	1.294	1294.3	pointing	Trial2	pointing/STIM_007.jpg	100
1344.021	1.053	1052.6	pointing	Trial2	pointing/STIM_007.jpg	99
1348.724	1.293	1293.2	pointing	Trial2	pointing/STIM_008.jpg	100
1353.365	0.845	845.0	pointing	Trial2	pointing/STIM_008.jpg	100
1356.437	1.246	1246.2	pointing	Trial2	pointing/STIM_008.jpg	99
1360.31	1.098	1098.3	pointing	Trial2	pointing/STIM_008.jpg	99
1364.771	1.119	1119.4	pointing	Trial2	pointing/STIM_008.jpg	100
1368.537	1.101	1100.7	pointing	Trial2	pointing/STIM_008.jpg	100
1373.248	1.003	1003.1	pointing	Trial2	pointing/STIM_009.jpg	100
1376.638	1.261	1261.1	pointing	Trial2	pointing/STIM_009.jpg	100
1380.249	1.354	1354.0	pointing	Trial2	pointing/STIM_009.jpg	100
1385.56	0.928	927.5	pointing	Trial2	pointing/STIM_009.jpg	99
1390.164	0.886	885.5	pointing	Trial2	pointing/STIM_009.jpg	99
1394.898	1.522	1521.5	pointing	Trial2	pointing/STIM_009.jpg	99
1398.771	1.24	1240.1	pointing	Trial2	pointing/STIM_010.jpg	100
1402.477	1.518	1517.9	pointing	Trial2	pointing/STIM_010.jpg	100
1407.023	0.949	948.6	pointing	Trial2	pointing/STIM_010.jpg	100
1410.856	0.926	926.1	pointing	Trial2	pointing/STIM_010.jpg	100
1413.868	1.11	1110.2	pointing	Trial2	pointing/STIM_010.jpg	99
1417.952	1.259	1259.1	pointing	Trial2	pointing/STIM_010.jpg	99
1422.791	1.113	1113.3	pointing	Trial2	pointing/STIM_011.jpg	99
1426.731	1.184	1184.2	pointing	Trial2	pointing/STIM_011.jpg	99
1431.884	1.458	1458.2	pointing	Trial2	pointing/STIM_011.jpg	100
1437.026	1.461	1461.3	pointing	Trial2	pointing/STIM_011.jpg	99
1441.444	1.526	1525.7	pointing	Trial2	pointing/STIM_011.jpg	100
1445.805	0.926	926.5	pointing	Trial2	pointing/STIM_011.jpg	100
1449.927	1.832	1832.0	navigation	Trial3	navigation/STIM_000.jpg	99
1454.576	2.534	2533.6	navigation	Trial3	navigation/STIM_000.jpg	99
1460.822	2.024	2023.9	navigation	Trial3	navigation/STIM_000.jpg	99
1465.071	3.328	3327.5	navigation	Trial3	navigation/STIM_000.jpg	100
1471.028	3.167	3167.4	navigation	Trial3	navigation/STIM_000.jpg	99
1477.776	2.225	2225.4	navigation	Trial3	navigation/STIM_000.jpg	99
1483.052	2.712	2712.4	navigation	Trial3	navigation/STIM_001.jpg	100
1488.773	3.318	3318.4	navigation	Trial3	navigation/STIM_001.jpg	100
1494.958	1.583	1582.7	navigation	Trial3	navigation/STIM_001.jpg	99
1499.291	2.541	2541.0	navigation	Trial3	navigation/STIM_001.jpg	100
1504.635	2.622	2622.3	navigation	Trial3	navigation/STIM_001.jpg	99
1509.233	2.881	2881.2	navigation	Trial3	navigation/STIM_001.jpg	99
1514.292	3.539	3539.0	navigation	Trial3	navigation/STIM_002.jpg	99
1520.657	3.447	3446.7	navigation	Trial3	navigation/STIM_002.jpg	99
1526.901	3.201	3200.6	navigation	Trial3	navigation/STIM_002.jpg	100
1533.561	2.347	2347.0	navigation	Trial3	navigation/STIM_002.jpg	99
1538.499	3.511	3511.3	navigation	Trial3	navigation/STIM_002.jpg	99
1545.144	2.729	2728.6	navigation	Trial3	navigation/STIM_002.jpg	99
1551.779	1.67	1670.3	navigation	Trial3	navigation/STIM_003.jpg	99
1556.489	3.585	3584.7	navigation	Trial3	navigation/STIM_003.jpg	99
1563.057	2.145	2145.4	navigation	Trial3	navigation/STIM_003.jpg	100
1568.558	2.485	2484.6	navigation	Trial3	navigation/STIM_003.jpg	100
1573.355	3.126	3126.1	navigation	Trial3	navigation/STIM_003.jpg	99
1579.503	3.473	3472.8	navigation	Trial3	navigation/STIM_003.jpg	99
1585.827	2.312	2311.6	navigation	Trial3	navigation/STIM_004.jpg	100
1590.142	3.256	3256.3	navigation	Trial3	navigation/STIM_004.jpg	100
1596.217	1.504	1503.5	navigation	Trial3	navigation/STIM_004.jpg	100
1600.901	3.358	3358.3	navigation	Trial3	navigation/STIM_004.jpg	99
1606.176	2.464	2464.0	navigation	Trial3	navigation/STIM_004.jpg	100
1612.486	3.075	3075.1	navigation	Trial3	navigation/STIM_004.jpg	99
1619.331	2.506	2505.6	navigation	Trial3	navigation/STIM_005.jpg	99
1625.038	2.8	2799.5	navigation	Trial3	navigation/STIM_005.jpg	99
1630.736	2.209	2209.4	navigation	Trial3	navigation/STIM_005.jpg	100
1635.774	2.977	2976.8	navigation	Trial3	navigation/STIM_005.jpg	99
1641.766	1.907	1907.3	navigation	Trial3	navigation/STIM_005.jpg	99
1647.589	2.738	2738.1	navigation	Trial3	navigation/STIM_005.jpg	100
1653.904	1.81	1810.5	navigation	Trial3	navigation/STIM_006.jpg	99
1658.486	3.462	3462.4	navigation	Trial3	navigation/STIM_006.jpg	100
1665.232	2.393	2393.3	navigation	Trial3	navigation/STIM_006.jpg	99
1670.7	1.924	1924.5	navigation	Trial3	navigation/STIM_006.jpg	100
1675.349	1.954	1953.7	navigation	Trial3	navigation/STIM_006.jpg	99
1680.56	2.464	2464.0	navigation	Trial3	navigation/STIM_006.jpg	99
1686.763	3.435	3435.0	navigation	Trial3	navigation/STIM_007.jpg	100
1693.162	3.298	3298.2	navigation	Trial3	navigation/STIM_007.jpg	100
1699.866	1.994	1994.3	navigation	Trial3	navigation/STIM_007.jpg	99
1705.098	2.998	2997.8	navigation	Trial3	navigation/STIM_007.jpg	99
1710.681	3.524	3524.4	navigation	Trial3	navigation/STIM_007.jpg	100
1716.832	2.785	2785.3	navigation	Trial3	navigation/STIM_007.jpg	100
1721.787	2.409	2408.8	navigation	Trial3	navigation/STIM_008.jpg	100
1726.908	2.821	2820.7	navigation	Trial3	navigation/STIM_008.jpg	100
1732.559	1.788	1787.9	navigation	Trial3	navigation/STIM_008.jpg	99
1737.247	1.96	1959.7	navigation	Trial3	navigation/STIM_008.jpg	100
1742.605	1.66	1660.4	navigation	Trial3	navigation/STIM_008.jpg	99
1747.705	2.42	2419.9	navigation	Trial3	navigation/STIM_008.jpg	99
1752.739	1.609	1609.2	navigation	Trial3	navigation/STIM_009.jpg	99
1756.307	2.277	2276.8	navigation	Trial3	navigation/STIM_009.jpg	99
1760.839	3.23	3229.7	navigation	Trial3	navigation/STIM_009.jpg	99
1766.639	2.514	2513.8	navigation	Trial3	navigation/STIM_009.jpg	100
1771.642	2.966	2965.5	navigation	Trial3	navigation/STIM_009.jpg	99
1778.022	2.571	2570.9	navigation	Trial3	navigation/STIM_009.jpg	99
1783.386	3.396	3395.9	navigation	Trial3	navigation/STIM_010.jpg	99
1788.946	2.461	2460.7	navigation	Trial3	navigation/STIM_010.jpg	100
1795.026	2.331	2331.2	navigation	Trial3	navigation/STIM_010.jpg	99
1800.056	2.102	2101.6	navigation	Trial3	navigation/STIM_010.jpg	99
1805.92	2.313	2312.6	navigation	Trial3	navigation/STIM_010.jpg	100
1811.032	2.893	2892.9	navigation	Trial3	navigation/STIM_010.jpg	100
1815.987	3.248	3247.7	navigation	Trial3	navigation/STIM_011.jpg	100
1822.453	3.443	3443.3	navigation	Trial3	navigation/STIM_011.jpg	99
1828.071	2.224	2224.1	navigation	Trial3	navigation/STIM_011.jpg	100
1834.178	3.469	3469.0	navigation	Trial3	navigation/STIM_011.jpg	100
1839.868	1.84	1839.5	navigation	Trial3	navigation/STIM_011.jpg	100
1843.869	2.898	2898.5	navigation	Trial3	navigation/STIM_011.jpg	99
1849.176	1.503	1502.6	pointing	Trial3	pointing/STIM_000.jpg	99
1853.578	1.526	1525.5	pointing	Trial3	pointing/STIM_000.jpg	100
1859.01	1.209	1208.7	pointing	Trial3	pointing/STIM_000.jpg	100
1863.037	1.213	1213.2	pointing	Trial3	pointing/STIM_000.jpg	99
1867.118	1.034	1034.3	pointing	Trial3	pointing/STIM_000.jpg	99
1871.522	0.902	902.1	pointing	Trial3	pointing/STIM_000.jpg	99
1875.068	0.879	879.2	pointing	Trial3	pointing/STIM_001.jpg	100
1879.661	0.986	985.8	pointing	Trial3	pointing/STIM_001.jpg	99
1882.749	1.361	1360.8	pointing	Trial3	pointing/STIM_001.jpg	100
1887.351	1.102	1101.8	pointing	Trial3	pointing/STIM_001.jpg	99
1891.086	1.47	1470.0	pointing	Trial3	pointing/STIM_001.jpg	100
1896.05	1.398	1397.9	pointing	Trial3	pointing/STIM_001.jpg	99
1899.849	1.102	1102.2	pointing	Trial3	pointing/STIM_002.jpg	100
1903.676	1.488	1488.3	pointing	Trial3	pointing/STIM_002.jpg	99
1907.155	1.517	1516.9	pointing	Trial3	pointing/STIM_002.jpg	99
1911.889	1.038	1037.8	pointing	Trial3	pointing/STIM_002.jpg	99
1914.933	1.084	1084.5	pointing	Trial3	pointing/STIM_002.jpg	99
1919.161	1.254	1254.1	pointing	Trial3	pointing/STIM_002.jpg	99
1923.634	1.394	1394.0	pointing	Trial3	pointing/STIM_003.jpg	99
1927.118	1.112	1112.3	pointing	Trial3	pointing/STIM_003.jpg	100
1930.749	0.832	831.5	pointing	Trial3	pointing/STIM_003.jpg	99
1934.52	1.007	1006.8	pointing	Trial3	pointing/STIM_003.jpg	99
1937.661	1.305	1305.3	pointing	Trial3	pointing/STIM_003.jpg	99
1942.242	1.426	1425.9	pointing	Trial3	pointing/STIM_003.jpg	99
1946.813	0.889	889.2	pointing	Trial3	pointing/STIM_004.jpg	99
1951.249	1.119	1118.6	pointing	Trial3	pointing/STIM_004.jpg	100
1955.624	1.487	1487.2	pointing	Trial3	pointing/STIM_004.jpg	99
1960.534	1.178	1177.9	pointing	Trial3	pointing/STIM_004.jpg	99
1965.369	1.078	1078.5	pointing	Trial3	pointing/STIM_004.jpg	100
1970.17	1.535	1535.2	pointing	Trial3	pointing/STIM_004.jpg	100
1974.228	1.406	1405.8	pointing	Trial3	pointing/STIM_005.jpg	99
1978.871	1.459	1459.2	pointing	Trial3	pointing/STIM_005.jpg	99
1984.101	1.408	1407.8	pointing	Trial3	pointing/STIM_005.jpg	100
1987.794	1.13	1130.2	pointing	Trial3	pointing/STIM_005.jpg	99
1992.338	0.846	846.0	pointing	Trial3	pointing/STIM_005.jpg	100
1995.776	0.867	867.0	pointing	Trial3	pointing/STIM_005.jpg	99
1998.646	1.439	1438.6	pointing	Trial3	pointing/STIM_006.jpg	100
2003.338	1.018	1018.2	pointing	Trial3	pointing/STIM_006.jpg	100
2008.198	1.299	1299.3	pointing	Trial3	pointing/STIM_006.jpg	100
2013.263	1.135	1135.1	pointing	Trial3	pointing/STIM_006.jpg	99
2018.343	0.973	973.3	pointing	Trial3	pointing/STIM_006.jpg	99
2022.929	0.862	862.5	pointing	Trial3	pointing/STIM_006.jpg	99
2025.863	1.112	1111.9	pointing	Trial3	pointing/STIM_007.jpg	100
2029.15	0.978	978.4	pointing	Trial3	pointing/STIM_007.jpg	100
2033.593	0.823	822.9	pointing	Trial3	pointing/STIM_007.jpg	100
2037.698	1.225	1224.9	pointing	Trial3	pointing/STIM_007.jpg	100
2042.291	1.216	1216.4	pointing	Trial3	pointing/STIM_007.jpg	100
2046.353	1.09	1089.9	pointing	Trial3	pointing/STIM_007.jpg	99
2051.1	1.041	1041.4	pointing	Trial3	pointing/STIM_008.jpg	99
2054.427	1.512	1512.0	pointing	Trial3	pointing/STIM_008.jpg	100
2059.14	0.861	860.7	pointing	Trial3	pointing/STIM_008.jpg	100
2063.708	1.276	1276.2	pointing	Trial3	pointing/STIM_008.jpg	99
2067.253	1.108	1107.8	pointing	Trial3	pointing/STIM_008.jpg	100
2072.048	1.466	1465.5	pointing	Trial3	pointing/STIM_008.jpg	99
2075.554	1.522	1521.8	pointing	Trial3	pointing/STIM_009.jpg	100
2079.459	1.508	1507.7	pointing	Trial3	pointing/STIM_009.jpg	100
2084.08	0.988	988.2	pointing	Trial3	pointing/STIM_009.jpg	100
2087.242	1.074	1073.6	pointing	Trial3	pointing/STIM_009.jpg	100
2092.051	1.495	1494.7	pointing	Trial3	pointing/STIM_009.jpg	99
2097.412	1.398	1398.0	pointing	Trial3	pointing/STIM_009.jpg	100
2102.346	1.481	1480.8	pointing	Trial3	pointing/STIM_010.jpg	100
2106.752	1.524	1523.5	pointing	Trial3	pointing/STIM_010.jpg	100
2110.892	1.354	1353.5	pointing	Trial3	pointing/STIM_010.jpg	99
2114.982	1.416	1416.5	pointing	Trial3	pointing/STIM_010.jpg	99
2118.992	0.85	849.6	pointing	Trial3	pointing/STIM_010.jpg	99
2122.275	1.536	1535.7	pointing	Trial3	pointing/STIM_010.jpg	99
2127.431	0.826	825.5	pointing	Trial3	pointing/STIM_011.jpg	100
2130.555	1.066	1065.8	pointing	Trial3	pointing/STIM_011.jpg	99
2134.629	0.948	948.3	pointing	Trial3	pointing/STIM_011.jpg	99
2138.623	1.152	1152.3	pointing	Trial3	pointing/STIM_011.jpg	99
2143.263	1.103	1102.6	pointing	Trial3	pointing/STIM_011.jpg	99
2147.315	1.154	1153.8	pointing	Trial3	pointing/STIM_011.jpg	100
