onset	duration	accuracy_binary	trial_type	learning_stage	stimulus
0.0	2.638	1	navigation	Trial1	navigation/STIM_000.jpg
6.568	2.388	0	navigation	Trial1	navigation/STIM_000.jpg
12.597	2.988	1	navigation	Trial1	navigation/STIM_000.jpg
17.756	1.643	0	navigation	Trial1	navigation/STIM_000.jpg
21.596	1.502	1	navigation	Trial1	navigation/STIM_000.jpg
26.527	2.284	0	navigation	Trial1	navigation/STIM_000.jpg
30.942	2.281	1	navigation	Trial1	navigation/STIM_001.jpg
37.023	2.949	0	navigation	Trial1	navigation/STIM_001.jpg
42.34	2.016	1	navigation	Trial1	navigation/STIM_001.jpg
48.22	2.505	0	navigation	Trial1	navigation/STIM_001.jpg
54.725	2.881	1	navigation	Trial1	navigation/STIM_001.jpg
60.518	1.625	0	navigation	Trial1	navigation/STIM_001.jpg
64.204	3.53	0	navigation	Trial1	navigation/STIM_002.jpg
71.461	2.577	1	navigation	Trial1	navigation/STIM_002.jpg
77.611	1.885	0	navigation	Trial1	navigation/STIM_002.jpg
83.291	1.978	1	navigation	Trial1	navigation/STIM_002.jpg
89.112	1.336	1	navigation	Trial1	navigation/STIM_002.jpg
93.21	1.992	1	navigation	Trial1	navigation/STIM_002.jpg
98.443	3.0	0	navigation	Trial1	navigation/STIM_003.jpg
105.326	2.475	1	navigation	Trial1	navigation/STIM_003.jpg
110.806	1.793	1	navigation	Trial1	navigation/STIM_003.jpg
115.432	1.63	1	navigation	Trial1	navigation/STIM_003.jpg
119.345	2.064	0	navigation	Trial1	navigation/STIM_003.jpg
125.024	2.729	1	navigation	Trial1	navigation/STIM_003.jpg
131.183	1.884	0	navigation	Trial1	navigation/STIM_004.jpg
135.227	1.723	0	navigation	Trial1	navigation/STIM_004.jpg
139.859	1.619	1	navigation	Trial1	navigation/STIM_004.jpg
144.371	2.426	0	navigation	Trial1	navigation/STIM_004.jpg
149.006	2.165	0	navigation	Trial1	navigation/STIM_004.jpg
153.749	2.941	1	navigation	Trial1	navigation/STIM_004.jpg
160.679	3.457	1	navigation	Trial1	navigation/STIM_005.jpg
167.52	3.182	1	navigation	Trial1	navigation/STIM_005.jpg
174.535	1.765	0	navigation	Trial1	navigation/STIM_005.jpg
179.04	2.06	0	navigation	Trial1	navigation/STIM_005.jpg
184.661	1.896	1	navigation	Trial1	navigation/STIM_005.jpg
189.484	1.902	1	navigation	Trial1	navigation/STIM_005.jpg
194.427	3.682	0	navigation	Trial1	navigation/STIM_006.jpg
201.43	3.225	1	navigation	Trial1	navigation/STIM_006.jpg
208.601	2.551	1	navigation	Trial1	navigation/STIM_006.jpg
213.341	1.842	0	navigation	Trial1	navigation/STIM_006.jpg
217.909	1.653	0	navigation	Trial1	navigation/STIM_006.jpg
221.749	1.846	1	navigation	Trial1	navigation/STIM_006.jpg
226.716	2.74	0	navigation	Trial1	navigation/STIM_007.jpg
232.43	2.902	0	navigation	Trial1	navigation/STIM_007.jpg
238.464	2.945	0	navigation	Trial1	navigation/STIM_007.jpg
245.405	2.463	0	navigation	Trial1	navigation/STIM_007.jpg
251.38	1.522	0	navigation	Trial1	navigation/STIM_007.jpg
256.875	2.207	1	navigation	Trial1	navigation/STIM_007.jpg
261.412	3.459	1	navigation	Trial1	navigation/STIM_008.jpg
267.765	2.381	0	navigation	Trial1	navigation/STIM_008.jpg
272.763	3.468	0	navigation	Trial1	navigation/STIM_008.jpg
278.334	3.248	1	navigation	Trial1	navigation/STIM_008.jpg
283.952	2.504	1	navigation	Trial1	navigation/STIM_008.jpg
288.658	2.792	0	navigation	Trial1	navigation/STIM_008.jpg
295.251	3.211	0	navigation	Trial1	navigation/STIM_009.jpg
301.519	1.877	0	navigation	Trial1	navigation/STIM_009.jpg
306.67	3.521	0	navigation	Trial1	navigation/STIM_009.jpg
312.739	3.305	1	navigation	Trial1	navigation/STIM_009.jpg
319.892	1.613	1	navigation	Trial1	navigation/STIM_009.jpg
323.708	1.769	1	navigation	Trial1	navigation/STIM_009.jpg
327.677	3.178	1	navigation	Trial1	navigation/STIM_010.jpg
333.903	1.684	0	navigation	Trial1	navigation/STIM_010.jpg
337.818	2.518	1	navigation	Trial1	navigation/STIM_010.jpg
342.685	2.269	1	navigation	Trial1	navigation/STIM_010.jpg
347.447	3.076	1	navigation	Trial1	navigation/STIM_010.jpg
353.744	2.561	1	navigation	Trial1	navigation/STIM_010.jpg
359.209	2.583	0	navigation	Trial1	navigation/STIM_011.jpg
364.488	3.616	1	navigation	Trial1	navigation/STIM_011.jpg
371.74	2.371	0	navigation	Trial1	navigation/STIM_011.jpg
376.174	1.65	0	navigation	Trial1	navigation/STIM_011.jpg
381.08	2.548	0	navigation	Trial1	navigation/STIM_011.jpg
386.824	2.377	1	navigation	Trial1	navigation/STIM_011.jpg
392.423	0.691	1	pointing	Trial1	pointing/STIM_000.jpg
396.557	0.738	1	pointing	Trial1	pointing/STIM_000.jpg
400.216	0.859	1	pointing	Trial1	pointing/STIM_000.jpg
404.047	0.652	1	pointing	Trial1	pointing/STIM_000.jpg
406.849	1.124	0	pointing	Trial1	pointing/STIM_000.jpg
410.678	0.919	1	pointing	Trial1	pointing/STIM_000.jpg
415.084	0.782	1	pointing	Trial1	pointing/STIM_001.jpg
419.312	1.166	1	pointing	Trial1	pointing/STIM_001.jpg
423.446	0.763	0	pointing	Trial1	pointing/STIM_001.jpg
426.413	0.907	1	pointing	Trial1	pointing/STIM_001.jpg
431.133	0.938	1	pointing	Trial1	pointing/STIM_001.jpg
435.101	0.928	1	pointing	Trial1	pointing/STIM_001.jpg
438.066	1.171	1	pointing	Trial1	pointing/STIM_002.jpg
443.045	0.86	1	pointing	Trial1	pointing/STIM_002.jpg
447.005	0.77	1	pointing	Trial1	pointing/STIM_002.jpg
451.254	0.733	1	pointing	Trial1	pointing/STIM_002.jpg
454.613	0.821	1	pointing	Trial1	pointing/STIM_002.jpg
457.725	0.879	1	pointing	Trial1	pointing/STIM_002.jpg
461.455	0.993	0	pointing	Trial1	pointing/STIM_003.jpg
466.344	0.982	1	pointing	Trial1	pointing/STIM_003.jpg
470.969	0.701	1	pointing	Trial1	pointing/STIM_003.jpg
474.122	0.985	0	pointing	Trial1	pointing/STIM_003.jpg
478.864	0.742	1	pointing	Trial1	pointing/STIM_003.jpg
481.779	0.846	1	pointing	Trial1	pointing/STIM_003.jpg
485.351	0.853	1	pointing	Trial1	pointing/STIM_004.jpg
489.182	0.989	1	pointing	Trial1	pointing/STIM_004.jpg
493.015	1.03	1	pointing	Trial1	pointing/STIM_004.jpg
497.972	0.868	1	pointing	Trial1	pointing/STIM_004.jpg
501.327	0.808	1	pointing	Trial1	pointing/STIM_004.jpg
505.094	0.804	1	pointing	Trial1	pointing/STIM_004.jpg
508.005	1.1	1	pointing	Trial1	pointing/STIM_005.jpg
511.293	1.042	1	pointing	Trial1	pointing/STIM_005.jpg
515.727	0.71	1	pointing	Trial1	pointing/STIM_005.jpg
520.249	0.702	1	pointing	Trial1	pointing/STIM_005.jpg
524.786	1.155	1	pointing	Trial1	pointing/STIM_005.jpg
528.959	0.872	1	pointing	Trial1	pointing/STIM_005.jpg
532.672	1.045	1	pointing	Trial1	pointing/STIM_006.jpg
535.884	0.651	1	pointing	Trial1	pointing/STIM_006.jpg
539.6	0.975	1	pointing	Trial1	pointing/STIM_006.jpg
543.703	1.151	1	pointing	Trial1	pointing/STIM_006.jpg
548.012	0.684	1	pointing	Trial1	pointing/STIM_006.jpg
551.373	0.87	0	pointing	Trial1	pointing/STIM_006.jpg
554.283	1.075	0	pointing	Trial1	pointing/STIM_007.jpg
558.825	0.807	1	pointing	Trial1	pointing/STIM_007.jpg
563.086	0.727	1	pointing	Trial1	pointing/STIM_007.jpg
566.801	0.864	1	pointing	Trial1	pointing/STIM_007.jpg
569.77	0.74	1	pointing	Trial1	pointing/STIM_007.jpg
573.391	0.908	1	pointing	Trial1	pointing/STIM_007.jpg
576.911	0.723	1	pointing	Trial1	pointing/STIM_008.jpg
581.365	1.085	0	pointing	Trial1	pointing/STIM_008.jpg
585.523	0.767	1	pointing	Trial1	pointing/STIM_008.jpg
589.137	0.85	1	pointing	Trial1	pointing/STIM_008.jpg
592.325	0.652	1	pointing	Trial1	pointing/STIM_008.jpg
595.844	0.87	1	pointing	Trial1	pointing/STIM_008.jpg
599.036	0.683	1	pointing	Trial1	pointing/STIM_009.jpg
602.608	0.976	1	pointing	Trial1	pointing/STIM_009.jpg
605.731	0.897	1	pointing	Trial1	pointing/STIM_009.jpg
608.767	1.121	1	pointing	Trial1	pointing/STIM_009.jpg
612.691	0.826	1	pointing	Trial1	pointing/STIM_009.jpg
617.132	0.647	0	pointing	Trial1	pointing/STIM_009.jpg
620.77	0.746	1	pointing	Trial1	pointing/STIM_010.jpg
625.237	0.811	1	pointing	Trial1	pointing/STIM_010.jpg
629.95	0.735	1	pointing	Trial1	pointing/STIM_010.jpg
632.787	1.081	1	pointing	Trial1	pointing/STIM_010.jpg
637.669	1.162	1	pointing	Trial1	pointing/STIM_010.jpg
641.539	1.093	0	pointing	Trial1	pointing/STIM_010.jpg
645.587	1.014	1	pointing	Trial1	pointing/STIM_011.jpg
650.205	0.732	1	pointing	Trial1	pointing/STIM_011.jpg
654.8	0.732	0	pointing	Trial1	pointing/STIM_011.jpg
658.208	0.701	1	pointing	Trial1	pointing/STIM_011.jpg
662.21	0.904	1	pointing	Trial1	pointing/STIM_011.jpg
666.328	1.009	1	pointing	Trial1	pointing/STIM_011.jpg
669.759	2.069	1	navigation	Trial2	navigation/STIM_000.jpg
674.911	2.229	1	navigation	Trial2	navigation/STIM_000.jpg
679.504	1.744	1	navigation	Trial2	navigation/STIM_000.jpg
685.2	1.274	1	navigation	Trial2	navigation/STIM_000.jpg
689.672	1.449	1	navigation	Trial2	navigation/STIM_000.jpg
693.948	2.683	1	navigation	Trial2	navigation/STIM_000.jpg
698.907	2.088	1	navigation	Trial2	navigation/STIM_001.jpg
704.537	1.898	0	navigation	Trial2	navigation/STIM_001.jpg
709.959	1.957	1	navigation	Trial2	navigation/STIM_001.jpg
715.615	2.055	0	navigation	Trial2	navigation/STIM_001.jpg
721.1	2.562	1	navigation	Trial2	navigation/STIM_001.jpg
726.004	1.983	1	navigation	Trial2	navigation/STIM_001.jpg
731.33	2.231	0	navigation	Trial2	navigation/STIM_002.jpg
736.273	2.814	0	navigation	Trial2	navigation/STIM_002.jpg
742.881	2.428	1	navigation	Trial2	navigation/STIM_002.jpg
748.187	1.6	0	navigation	Trial2	navigation/STIM_002.jpg
752.639	1.561	1	navigation	Trial2	navigation/STIM_002.jpg
757.849	1.338	1	navigation	Trial2	navigation/STIM_002.jpg
762.245	2.1	1	navigation	Trial2	navigation/STIM_003.jpg
766.681	1.611	0	navigation	Trial2	navigation/STIM_003.jpg
771.489	2.895	1	navigation	Trial2	navigation/STIM_003.jpg
777.308	2.576	1	navigation	Trial2	navigation/STIM_003.jpg
782.743	1.867	1	navigation	Trial2	navigation/STIM_003.jpg
786.71	2.302	1	navigation	Trial2	navigation/STIM_003.jpg
792.499	1.981	0	navigation	Trial2	navigation/STIM_004.jpg
797.941	2.099	0	navigation	Trial2	navigation/STIM_004.jpg
802.221	1.245	1	navigation	Trial2	navigation/STIM_004.jpg
805.742	2.626	1	navigation	Trial2	navigation/STIM_004.jpg
810.652	1.552	1	navigation	Trial2	navigation/STIM_004.jpg
814.784	1.157	1	navigation	Trial2	navigation/STIM_004.jpg
819.391	2.88	1	navigation	Trial2	navigation/STIM_005.jpg
824.634	1.356	1	navigation	Trial2	navigation/STIM_005.jpg
829.211	1.802	1	navigation	Trial2	navigation/STIM_005.jpg
834.537	1.597	1	navigation	Trial2	navigation/STIM_005.jpg
839.868	2.091	1	navigation	Trial2	navigation/STIM_005.jpg
845.223	2.666	1	navigation	Trial2	navigation/STIM_005.jpg
851.082	2.412	1	navigation	Trial2	navigation/STIM_006.jpg
855.842	3.123	1	navigation	Trial2	navigation/STIM_006.jpg
862.228	1.826	1	navigation	Trial2	navigation/STIM_006.jpg
866.812	2.371	0	navigation	Trial2	navigation/STIM_006.jpg
872.703	1.48	0	navigation	Trial2	navigation/STIM_006.jpg
877.2	1.762	0	navigation	Trial2	navigation/STIM_006.jpg
882.78	2.128	1	navigation	Trial2	navigation/STIM_007.jpg
887.42	1.792	1	navigation	Trial2	navigation/STIM_007.jpg
892.994	2.938	1	navigation	Trial2	navigation/STIM_007.jpg
898.909	1.149	1	navigation	Trial2	navigation/STIM_007.jpg
903.398	2.644	1	navigation	Trial2	navigation/STIM_007.jpg
909.407	2.611	1	navigation	Trial2	navigation/STIM_007.jpg
914.185	1.867	1	navigation	Trial2	navigation/STIM_008.jpg
918.195	1.715	1	navigation	Trial2	navigation/STIM_008.jpg
922.24	2.147	1	navigation	Trial2	navigation/STIM_008.jpg
928.025	2.753	1	navigation	Trial2	navigation/STIM_008.jpg
933.002	2.49	1	navigation	Trial2	navigation/STIM_008.jpg
938.599	1.81	1	navigation	Trial2	navigation/STIM_008.jpg
942.997	3.114	0	navigation	Trial2	navigation/STIM_009.jpg
949.788	2.25	0	navigation	Trial2	navigation/STIM_009.jpg
954.652	1.193	1	navigation	Trial2	navigation/STIM_009.jpg
958.518	1.948	0	navigation	Trial2	navigation/STIM_009.jpg
962.705	1.986	1	navigation	Trial2	navigation/STIM_009.jpg
966.902	1.186	1	navigation	Trial2	navigation/STIM_009.jpg
971.611	2.303	1	navigation	Trial2	navigation/STIM_010.jpg
977.343	2.663	1	navigation	Trial2	navigation/STIM_010.jpg
982.425	1.525	1	navigation	Trial2	navigation/STIM_010.jpg
986.239	1.832	1	navigation	Trial2	navigation/STIM_010.jpg
990.731	1.238	1	navigation	Trial2	navigation/STIM_010.jpg
995.271	1.749	1	navigation	Trial2	navigation/STIM_010.jpg
999.4	3.115	0	navigation	Trial2	navigation/STIM_011.jpg
1006.274	2.876	1	navigation	Trial2	navigation/STIM_011.jpg
1012.035	2.954	1	navigation	Trial2	navigation/STIM_011.jpg
1018.004	1.604	1	navigation	Trial2	navigation/STIM_011.jpg
1023.465	1.338	0	navigation	Trial2	navigation/STIM_011.jpg
1028.582	2.696	1	navigation	Trial2	navigation/STIM_011.jpg
1034.359	0.726	1	pointing	Trial2	pointing/STIM_000.jpg
1038.812	0.709	1	pointing	Trial2	pointing/STIM_000.jpg
1041.632	0.937	0	pointing	Trial2	pointing/STIM_000.jpg
1046.151	1.073	1	pointing	Trial2	pointing/STIM_000.jpg
1050.692	1.151	1	pointing	Trial2	pointing/STIM_000.jpg
1054.416	1.111	0	pointing	Trial2	pointing/STIM_000.jpg
1059.05	1.163	1	pointing	Trial2	pointing/STIM_001.jpg
1063.583	0.924	1	pointing	Trial2	pointing/STIM_001.jpg
1067.05	0.915	1	pointing	Trial2	pointing/STIM_001.jpg
1070.44	1.096	1	pointing	Trial2	pointing/STIM_001.jpg
1075.104	1.076	1	pointing	Trial2	pointing/STIM_001.jpg
1079.497	0.941	1	pointing	Trial2	pointing/STIM_001.jpg
1082.738	0.676	1	pointing	Trial2	pointing/STIM_002.jpg
1087.218	0.773	1	pointing	Trial2	pointing/STIM_002.jpg
1091.236	1.074	1	pointing	Trial2	pointing/STIM_002.jpg
1095.927	1.18	1	pointing	Trial2	pointing/STIM_002.jpg
1100.353	0.887	1	pointing	Trial2	pointing/STIM_002.jpg
1104.678	0.929	1	pointing	Trial2	pointing/STIM_002.jpg
1108.154	0.836	1	pointing	Trial2	pointing/STIM_003.jpg
1112.918	1.043	0	pointing	Trial2	pointing/STIM_003.jpg
1116.706	1.08	1	pointing	Trial2	pointing/STIM_003.jpg
1120.519	1.142	1	pointing	Trial2	pointing/STIM_003.jpg
1123.98	0.801	1	pointing	Trial2	pointing/STIM_003.jpg
1127.988	0.75	1	pointing	Trial2	pointing/STIM_003.jpg
1132.723	1.175	1	pointing	Trial2	pointing/STIM_004.jpg
1136.556	1.176	1	pointing	Trial2	pointing/STIM_004.jpg
1139.745	0.928	0	pointing	Trial2	pointing/STIM_004.jpg
1143.135	0.866	1	pointing	Trial2	pointing/STIM_004.jpg
1147.252	1.008	1	pointing	Trial2	pointing/STIM_004.jpg
1151.829	1.022	1	pointing	Trial2	pointing/STIM_004.jpg
1155.35	1.143	1	pointing	Trial2	pointing/STIM_005.jpg
1160.296	0.871	1	pointing	Trial2	pointing/STIM_005.jpg
1163.358	0.923	1	pointing	Trial2	pointing/STIM_005.jpg
1168.149	0.892	1	pointing	Trial2	pointing/STIM_005.jpg
1172.042	0.996	1	pointing	Trial2	pointing/STIM_005.jpg
1176.406	0.736	1	pointing	Trial2	pointing/STIM_005.jpg
1179.625	1.076	1	pointing	Trial2	pointing/STIM_006.jpg
1182.909	0.801	1	pointing	Trial2	pointing/STIM_006.jpg
1185.923	0.878	1	pointing	Trial2	pointing/STIM_006.jpg
1188.85	1.138	1	pointing	Trial2	pointing/STIM_006.jpg
1192.749	0.862	1	pointing	Trial2	pointing/STIM_006.jpg
1196.142	1.07	0	pointing	Trial2	pointing/STIM_006.jpg
1200.03	0.876	1	pointing	Trial2	pointing/STIM_007.jpg
1203.57	0.676	1	pointing	Trial2	pointing/STIM_007.jpg
1206.716	0.684	1	pointing	Trial2	pointing/STIM_007.jpg
1209.711	1.023	1	pointing	Trial2	pointing/STIM_007.jpg
1214.729	1.109	1	pointing	Trial2	pointing/STIM_007.jpg
1218.212	0.748	1	pointing	Trial2	pointing/STIM_007.jpg
1221.193	0.68	1	pointing	Trial2	pointing/STIM_008.jpg
1225.711	0.998	1	pointing	Trial2	pointing/STIM_008.jpg
1230.401	0.673	1	pointing	Trial2	pointing/STIM_008.jpg
1234.836	0.664	0	pointing	Trial2	pointing/STIM_008.jpg
1238.944	1.05	1	pointing	Trial2	pointing/STIM_008.jpg
1243.65	0.969	1	pointing	Trial2	pointing/STIM_008.jpg
1248.546	0.8	0	pointing	Trial2	pointing/STIM_009.jpg
1251.731	1.028	1	pointing	Trial2	pointing/STIM_009.jpg
1254.814	0.796	1	pointing	Trial2	pointing/STIM_009.jpg
1257.864	0.963	1	pointing	Trial2	pointing/STIM_009.jpg
1261.86	0.868	1	pointing	Trial2	pointing/STIM_009.jpg
1266.64	0.745	1	pointing	Trial2	pointing/STIM_009.jpg
1271.271	1.096	1	pointing	Trial2	pointing/STIM_010.jpg
1275.981	0.996	1	pointing	Trial2	pointing/STIM_010.jpg
1280.947	0.983	1	pointing	Trial2	pointing/STIM_010.jpg
1285.689	0.96	1	pointing	Trial2	pointing/STIM_010.jpg
1288.874	0.909	1	pointing	Trial2	pointing/STIM_010.jpg
1293.678	0.729	1	pointing	Trial2	pointing/STIM_010.jpg
1297.279	0.689	1	pointing	Trial2	pointing/STIM_011.jpg
1301.721	0.942	1	pointing	Trial2	pointing/STIM_011.jpg
1305.206	0.856	1	pointing	Trial2	pointing/STIM_011.jpg
1309.259	0.937	1	pointing	Trial2	pointing/STIM_011.jpg
1313.948	1.073	1	pointing	Trial2	pointing/STIM_011.jpg
1317.154	0.703	1	pointing	Trial2	pointing/STIM_011.jpg
1321.3	1.279	1	navigation	Trial3	navigation/STIM_000.jpg
1324.692	2.087	1	navigation	Trial3	navigation/STIM_000.jpg
1329.723	2.69	1	navigation	Trial3	navigation/STIM_000.jpg
1335.583	2.062	1	navigation	Trial3	navigation/STIM_000.jpg
1340.041	1.619	1	navigation	Trial3	navigation/STIM_000.jpg
1344.162	1.334	1	navigation	Trial3	navigation/STIM_000.jpg
1348.966	2.075	0	navigation	Trial3	navigation/STIM_001.jpg
1353.288	1.739	1	navigation	Trial3	navigation/STIM_001.jpg
1357.443	2.2	1	navigation	Trial3	navigation/STIM_001.jpg
1362.356	1.884	1	navigation	Trial3	navigation/STIM_001.jpg
1367.054	1.896	1	navigation	Trial3	navigation/STIM_001.jpg
1371.658	1.334	1	navigation	Trial3	navigation/STIM_001.jpg
1375.962	1.759	1	navigation	Trial3	navigation/STIM_002.jpg
1381.276	1.901	1	navigation	Trial3	navigation/STIM_002.jpg
1385.322	1.846	1	navigation	Trial3	navigation/STIM_002.jpg
1390.84	1.713	1	navigation	Trial3	navigation/STIM_002.jpg
1394.842	1.675	1	navigation	Trial3	navigation/STIM_002.jpg
1398.9	2.358	1	navigation	Trial3	navigation/STIM_002.jpg
1404.339	1.38	1	navigation	Trial3	navigation/STIM_003.jpg
1408.399	2.345	1	navigation	Trial3	navigation/STIM_003.jpg
1414.146	2.485	1	navigation	Trial3	navigation/STIM_003.jpg
1420.048	1.244	1	navigation	Trial3	navigation/STIM_003.jpg
1423.661	1.244	1	navigation	Trial3	navigation/STIM_003.jpg
1427.479	1.931	1	navigation	Trial3	navigation/STIM_003.jpg
1431.423	1.175	1	navigation	Trial3	navigation/STIM_004.jpg
1436.055	1.825	0	navigation	Trial3	navigation/STIM_004.jpg
1440.005	2.53	1	navigation	Trial3	navigation/STIM_004.jpg
1445.354	2.302	1	navigation	Trial3	navigation/STIM_004.jpg
1450.377	2.614	1	navigation	Trial3	navigation/STIM_004.jpg
1456.146	1.846	1	navigation	Trial3	navigation/STIM_004.jpg
1460.808	2.023	0	navigation	Trial3	navigation/STIM_005.jpg
1466.829	1.87	0	navigation	Trial3	navigation/STIM_005.jpg
1471.898	1.97	1	navigation	Trial3	navigation/STIM_005.jpg
1475.877	1.131	1	navigation	Trial3	navigation/STIM_005.jpg
1480.67	1.866	1	navigation	Trial3	navigation/STIM_005.jpg
1486.217	1.15	1	navigation	Trial3	navigation/STIM_005.jpg
1490.19	2.728	1	navigation	Trial3	navigation/STIM_006.jpg
1495.05	2.05	1	navigation	Trial3	navigation/STIM_006.jpg
1501.008	1.643	1	navigation	Trial3	navigation/STIM_006.jpg
1505.484	1.634	0	navigation	Trial3	navigation/STIM_006.jpg
1509.442	1.237	1	navigation	Trial3	navigation/STIM_006.jpg
1514.039	2.391	1	navigation	Trial3	navigation/STIM_006.jpg
1520.083	1.622	1	navigation	Trial3	navigation/STIM_007.jpg
1525.094	1.323	1	navigation	Trial3	navigation/STIM_007.jpg
1529.444	1.616	1	navigation	Trial3	navigation/STIM_007.jpg
1534.608	1.891	0	navigation	Trial3	navigation/STIM_007.jpg
1540.113	2.083	1	navigation	Trial3	navigation/STIM_007.jpg
1545.363	2.262	1	navigation	Trial3	navigation/STIM_007.jpg
1551.085	2.398	1	navigation	Trial3	navigation/STIM_008.jpg
1555.756	2.102	1	navigation	Trial3	navigation/STIM_008.jpg
1560.303	2.762	1	navigation	Trial3	navigation/STIM_008.jpg
1566.178	2.616	1	navigation	Trial3	navigation/STIM_008.jpg
1572.671	1.694	1	navigation	Trial3	navigation/STIM_008.jpg
1577.406	1.858	1	navigation	Trial3	navigation/STIM_008.jpg
1581.31	1.857	1	navigation	Trial3	navigation/STIM_009.jpg
1586.005	2.215	1	navigation	Trial3	navigation/STIM_009.jpg
1591.698	1.689	1	navigation	Trial3	navigation/STIM_009.jpg
1596.484	1.432	1	navigation	Trial3	navigation/STIM_009.jpg
1601.844	2.366	1	navigation	Trial3	navigation/STIM_009.jpg
1608.165	2.526	1	navigation	Trial3	navigation/STIM_009.jpg
1613.165	2.282	1	navigation	Trial3	navigation/STIM_010.jpg
1618.442	1.181	1	navigation	Trial3	navigation/STIM_010.jpg
1622.938	2.441	1	navigation	Trial3	navigation/STIM_010.jpg
1629.032	2.532	1	navigation	Trial3	navigation/STIM_010.jpg
1635.086	1.729	1	navigation	Trial3	navigation/STIM_010.jpg
1640.538	2.404	1	navigation	Trial3	navigation/STIM_010.jpg
1645.251	1.874	1	navigation	Trial3	navigation/STIM_011.jpg
1649.77	2.732	1	navigation	Trial3	navigation/STIM_011.jpg
1654.595	2.59	0	navigation	Trial3	navigation/STIM_011.jpg
1659.334	2.167	1	navigation	Trial3	navigation/STIM_011.jpg
1663.564	1.19	1	navigation	Trial3	navigation/STIM_011.jpg
1668.348	2.061	1	navigation	Trial3	navigation/STIM_011.jpg
1674.381	1.146	1	pointing	Trial3	pointing/STIM_000.jpg
1679.11	0.873	1	pointing	Trial3	pointing/STIM_000.jpg
1683.193	1.044	1	pointing	Trial3	pointing/STIM_000.jpg
1687.527	0.822	1	pointing	Trial3	pointing/STIM_000.jpg
1690.699	0.765	1	pointing	Trial3	pointing/STIM_000.jpg
1693.557	1.014	1	pointing	Trial3	pointing/STIM_000.jpg
1698.045	1.055	1	pointing	Trial3	pointing/STIM_001.jpg
1701.866	0.638	1	pointing	Trial3	pointing/STIM_001.jpg
1705.401	0.846	1	pointing	Trial3	pointing/STIM_001.jpg
1708.88	1.06	1	pointing	Trial3	pointing/STIM_001.jpg
1711.986	0.673	1	pointing	Trial3	pointing/STIM_001.jpg
1716.565	0.991	1	pointing	Trial3	pointing/STIM_001.jpg
1720.003	1.045	1	pointing	Trial3	pointing/STIM_002.jpg
1724.973	1.15	1	pointing	Trial3	pointing/STIM_002.jpg
1729.402	0.804	1	pointing	Trial3	pointing/STIM_002.jpg
1732.519	0.989	1	pointing	Trial3	pointing/STIM_002.jpg
1736.339	0.738	1	pointing	Trial3	pointing/STIM_002.jpg
1739.655	0.975	1	pointing	Trial3	pointing/STIM_002.jpg
1744.316	0.913	1	pointing	Trial3	pointing/STIM_003.jpg
1748.676	1.047	1	pointing	Trial3	pointing/STIM_003.jpg
1752.7	1.122	1	pointing	Trial3	pointing/STIM_003.jpg
1757.737	0.701	1	pointing	Trial3	pointing/STIM_003.jpg
1760.67	1.185	1	pointing	Trial3	pointing/STIM_003.jpg
1764.359	0.896	1	pointing	Trial3	pointing/STIM_003.jpg
1768.068	1.16	0	pointing	Trial3	pointing/STIM_004.jpg
1771.412	0.72	1	pointing	Trial3	pointing/STIM_004.jpg
1775.069	1.175	1	pointing	Trial3	pointing/STIM_004.jpg
1778.895	1.078	1	pointing	Trial3	pointing/STIM_004.jpg
1783.435	1.132	1	pointing	Trial3	pointing/STIM_004.jpg
1787.98	0.761	1	pointing	Trial3	pointing/STIM_004.jpg
1791.388	1.172	0	pointing	Trial3	pointing/STIM_005.jpg
1795.675	0.741	1	pointing	Trial3	pointing/STIM_005.jpg
1799.409	1.16	1	pointing	Trial3	pointing/STIM_005.jpg
1804.098	1.169	1	pointing	Trial3	pointing/STIM_005.jpg
1808.219	1.006	1	pointing	Trial3	pointing/STIM_005.jpg
1812.475	0.782	1	pointing	Trial3	pointing/STIM_005.jpg
1816.394	0.637	1	pointing	Trial3	pointing/STIM_006.jpg
1820.946	0.896	0	pointing	Trial3	pointing/STIM_006.jpg
1825.079	0.736	1	pointing	Trial3	pointing/STIM_006.jpg
1828.762	1.064	1	pointing	Trial3	pointing/STIM_006.jpg
1832.051	0.987	1	pointing	Trial3	pointing/STIM_006.jpg
1835.432	1.099	1	pointing	Trial3	pointing/STIM_006.jpg
1840.341	1.12	1	pointing	Trial3	pointing/STIM_007.jpg
1843.949	1.054	1	pointing	Trial3	pointing/STIM_007.jpg
1848.954	1.087	1	pointing	Trial3	pointing/STIM_007.jpg
1853.142	1.168	1	pointing	Trial3	pointing/STIM_007.jpg
1856.677	0.947	1	pointing	Trial3	pointing/STIM_007.jpg
1861.259	1.078	1	pointing	Trial3	pointing/STIM_007.jpg
1865.18	1.082	1	pointing	Trial3	pointing/STIM_008.jpg
1869.991	0.846	1	pointing	Trial3	pointing/STIM_008.jpg
1873.071	0.947	1	pointing	Trial3	pointing/STIM_008.jpg
1877.674	0.981	1	pointing	Trial3	pointing/STIM_008.jpg
1881.969	1.006	1	pointing	Trial3	pointing/STIM_008.jpg
1886.972	1.091	1	pointing	Trial3	pointing/STIM_008.jpg
1890.519	1.051	1	pointing	Trial3	pointing/STIM_009.jpg
1894.282	0.889	1	pointing	Trial3	pointing/STIM_009.jpg
1897.751	0.888	1	pointing	Trial3	pointing/STIM_009.jpg
1901.087	1.179	1	pointing	Trial3	pointing/STIM_009.jpg
1905.183	0.994	1	pointing	Trial3	pointing/STIM_009.jpg
1910.167	0.644	1	pointing	Trial3	pointing/STIM_009.jpg
1914.575	0.945	1	pointing	Trial3	pointing/STIM_010.jpg
1918.297	1.015	1	pointing	Trial3	pointing/STIM_010.jpg
1922.834	0.716	1	pointing	Trial3	pointing/STIM_010.jpg
1926.459	0.743	1	pointing	Trial3	pointing/STIM_010.jpg
1930.075	0.864	1	pointing	Trial3	pointing/STIM_010.jpg
1934.761	1.0	0	pointing	Trial3	pointing/STIM_010.jpg
1938.061	0.647	1	pointing	Trial3	pointing/STIM_011.jpg
1940.802	1.046	1	pointing	Trial3	pointing/STIM_011.jpg
1944.849	0.915	1	pointing	Trial3	pointing/STIM_011.jpg
1948.216	1.023	1	pointing	Trial3	pointing/STIM_011.jpg
1952.082	0.94	1	pointing	Trial3	pointing/STIM_011.jpg
1956.174	1.16	0	pointing	Trial3	pointing/STIM_011.jpg
