onset	duration	response_time_ms	trial_type	learning_stage	stimulus	response_port
0.0	0.883	882.7	incongruent	Block1	incongruent/STIM_000.jpg	100
2.959	1.148	1148.0	incongruent	Block1	incongruent/STIM_000.jpg	100
6.385	1.235	1234.8	incongruent	Block1	incongruent/STIM_000.jpg	99
10.07	0.951	951.2	incongruent	Block1	incongruent/STIM_000.jpg	99
13.783	0.584	584.0	incongruent	Block1	incongruent/STIM_000.jpg	99
18.079	1.121	1120.6	incongruent	Block1	incongruent/STIM_001.jpg	100
22.797	1.171	1171.1	incongruent	Block1	incongruent/STIM_001.jpg	99
26.842	1.021	1021.0	incongruent	Block1	incongruent/STIM_001.jpg	99
30.457	1.036	1036.2	incongruent	Block1	incongruent/STIM_001.jpg	99
33.745	0.694	693.8	incongruent	Block1	incongruent/STIM_001.jpg	100
38.26	1.122	1122.0	incongruent	Block1	incongruent/STIM_002.jpg	99
43.052	1.168	1168.0	incongruent	Block1	incongruent/STIM_002.jpg	100
46.909	0.864	863.8	incongruent	Block1	incongruent/STIM_002.jpg	100
51.58	0.774	774.5	incongruent	Block1	incongruent/STIM_002.jpg	99
55.643	1.065	1065.3	incongruent	Block1	incongruent/STIM_002.jpg	99
59.842	1.215	1214.7	incongruent	Block1	incongruent/STIM_003.jpg	100
64.345	1.284	1284.3	incongruent	Block1	incongruent/STIM_003.jpg	99
68.076	0.94	939.5	incongruent	Block1	incongruent/STIM_003.jpg	100
72.078	0.673	672.9	incongruent	Block1	incongruent/STIM_003.jpg	100
75.932	1.152	1152.2	incongruent	Block1	incongruent/STIM_003.jpg	99
80.971	1.409	1409.2	incongruent	Block1	incongruent/STIM_004.jpg	100
86.124	1.42	1419.7	incongruent	Block1	incongruent/STIM_004.jpg	100
90.249	0.777	776.8	incongruent	Block1	incongruent/STIM_004.jpg	100
94.565	1.172	1172.3	incongruent	Block1	incongruent/STIM_004.jpg	99
97.781	0.957	956.8	incongruent	Block1	incongruent/STIM_004.jpg	100
101.985	1.481	1481.0	incongruent	Block1	incongruent/STIM_005.jpg	100
106.196	1.378	1377.8	incongruent	Block1	incongruent/STIM_005.jpg	99
110.199	1.3	1299.6	incongruent	Block1	incongruent/STIM_005.jpg	99
114.417	0.686	685.8	incongruent	Block1	incongruent/STIM_005.jpg	100
118.298	0.849	848.9	incongruent	Block1	incongruent/STIM_005.jpg	100
122.687	0.792	791.7	incongruent	Block1	incongruent/STIM_006.jpg	99
125.639	1.281	1281.1	incongruent	Block1	incongruent/STIM_006.jpg	99
130.0	0.642	641.7	incongruent	Block1	incongruent/STIM_006.jpg	100
134.585	0.62	619.8	incongruent	Block1	incongruent/STIM_006.jpg	99
138.387	1.125	1124.8	incongruent	Block1	incongruent/STIM_006.jpg	100
142.134	1.277	1277.1	incongruent	Block1	incongruent/STIM_007.jpg	100
146.433	1.424	1424.2	incongruent	Block1	incongruent/STIM_007.jpg	99
150.219	1.269	1269.1	incongruent	Block1	incongruent/STIM_007.jpg	99
153.955	1.046	1045.8	incongruent	Block1	incongruent/STIM_007.jpg	100
158.741	0.95	949.6	incongruent	Block1	incongruent/STIM_007.jpg	99
163.259	0.85	849.7	incongruent	Block1	incongruent/STIM_008.jpg	100
166.595	0.968	968.1	incongruent	Block1	incongruent/STIM_008.jpg	100
171.14	1.221	1221.1	incongruent	Block1	incongruent/STIM_008.jpg	100
174.663	1.248	1248.4	incongruent	Block1	incongruent/STIM_008.jpg	100
178.847	0.672	672.2	incongruent	Block1	incongruent/STIM_008.jpg	100
181.911	1.016	1015.7	incongruent	Block1	incongruent/STIM_009.jpg	99
186.587	1.325	1325.1	incongruent	Block1	incongruent/STIM_009.jpg	100
189.979	1.108	1107.7	incongruent	Block1	incongruent/STIM_009.jpg	100
194.764	1.08	1080.1	incongruent	Block1	incongruent/STIM_009.jpg	99
198.098	1.018	1017.5	incongruent	Block1	incongruent/STIM_009.jpg	99
202.855	1.142	1142.5	incongruent	Block1	incongruent/STIM_010.jpg	100
207.168	1.152	1152.5	incongruent	Block1	incongruent/STIM_010.jpg	100
211.108	0.846	846.2	incongruent	Block1	incongruent/STIM_010.jpg	99
214.484	0.865	864.6	incongruent	Block1	incongruent/STIM_010.jpg	99
218.652	0.89	889.9	incongruent	Block1	incongruent/STIM_010.jpg	99
223.119	0.703	702.6	incongruent	Block1	incongruent/STIM_011.jpg	100
226.45	1.11	1110.3	incongruent	Block1	incongruent/STIM_011.jpg	99
229.896	1.05	1049.5	incongruent	Block1	incongruent/STIM_011.jpg	100
234.867	1.129	1129.0	incongruent	Block1	incongruent/STIM_011.jpg	99
238.061	0.664	663.8	incongruent	Block1	incongruent/STIM_011.jpg	99
242.606	1.288	1288.0	incongruent	Block1	incongruent/STIM_012.jpg	100
246.769	0.956	956.0	incongruent	Block1	incongruent/STIM_012.jpg	100
251.0	1.144	1144.5	incongruent	Block1	incongruent/STIM_012.jpg	100
254.718	1.018	1018.2	incongruent	Block1	incongruent/STIM_012.jpg	99
259.302	0.682	681.7	incongruent	Block1	incongruent/STIM_012.jpg	99
263.228	1.126	1126.1	incongruent	Block1	incongruent/STIM_013.jpg	99
267.351	0.906	906.2	incongruent	Block1	incongruent/STIM_013.jpg	99
272.047	0.751	751.2	incongruent	Block1	incongruent/STIM_013.jpg	100
275.207	1.155	1154.7	incongruent	Block1	incongruent/STIM_013.jpg	100
279.053	0.916	915.7	incongruent	Block1	incongruent/STIM_013.jpg	100
283.615	1.097	1096.8	incongruent	Block1	incongruent/STIM_014.jpg	100
286.943	1.382	1381.6	incongruent	Block1	incongruent/STIM_014.jpg	99
291.866	1.156	1155.6	incongruent	Block1	incongruent/STIM_014.jpg	99
296.67	0.84	839.8	incongruent	Block1	incongruent/STIM_014.jpg	99
300.379	0.983	982.7	incongruent	Block1	incongruent/STIM_014.jpg	100
304.538	1.048	1047.9	incongruent	Block1	incongruent/STIM_015.jpg	99
307.746	1.295	1294.8	incongruent	Block1	incongruent/STIM_015.jpg	100
312.306	0.651	651.2	incongruent	Block1	incongruent/STIM_015.jpg	100
316.771	1.228	1227.6	incongruent	Block1	incongruent/STIM_015.jpg	99
321.386	0.927	926.6	incongruent	Block1	incongruent/STIM_015.jpg	100
325.64	1.166	1166.0	incongruent	Block1	incongruent/STIM_016.jpg	99
329.363	1.016	1015.6	incongruent	Block1	incongruent/STIM_016.jpg	99
333.995	0.753	752.9	incongruent	Block1	incongruent/STIM_016.jpg	100
337.18	1.023	1022.8	incongruent	Block1	incongruent/STIM_016.jpg	99
341.958	1.006	1005.6	incongruent	Block1	incongruent/STIM_016.jpg	99
345.805	1.243	1242.8	incongruent	Block1	incongruent/STIM_017.jpg	100
350.86	1.21	1209.5	incongruent	Block1	incongruent/STIM_017.jpg	100
355.742	0.666	665.9	incongruent	Block1	incongruent/STIM_017.jpg	100
360.181	0.927	927.3	incongruent	Block1	incongruent/STIM_017.jpg	99
364.537	0.617	617.1	incongruent	Block1	incongruent/STIM_017.jpg	99
368.854	0.959	959.1	incongruent	Block1	incongruent/STIM_018.jpg	100
372.108	0.903	902.8	incongruent	Block1	incongruent/STIM_018.jpg	100
375.656	0.752	752.4	incongruent	Block1	incongruent/STIM_018.jpg	100
379.913	0.931	930.8	incongruent	Block1	incongruent/STIM_018.jpg	100
384.35	1.094	1094.1	incongruent	Block1	incongruent/STIM_018.jpg	99
389.338	1.258	1257.7	incongruent	Block1	incongruent/STIM_019.jpg	100
393.792	1.031	1030.6	incongruent	Block1	incongruent/STIM_019.jpg	100
397.571	1.316	1316.1	incongruent	Block1	incongruent/STIM_019.jpg	100
402.387	1.033	1033.2	incongruent	Block1	incongruent/STIM_019.jpg	99
406.971	1.097	1097.0	incongruent	Block1	incongruent/STIM_019.jpg	100
410.762	1.157	1156.7	incongruent	Block1	incongruent/STIM_020.jpg	100
414.609	1.305	1305.2	incongruent	Block1	incongruent/STIM_020.jpg	99
417.913	0.853	852.7	incongruent	Block1	incongruent/STIM_020.jpg	100
421.595	0.96	960.1	incongruent	Block1	incongruent/STIM_020.jpg	100
425.498	0.79	790.3	incongruent	Block1	incongruent/STIM_020.jpg	99
428.772	1.487	1486.7	incongruent	Block1	incongruent/STIM_021.jpg	99
433.995	0.861	861.3	incongruent	Block1	incongruent/STIM_021.jpg	99
438.314	0.649	649.0	incongruent	Block1	incongruent/STIM_021.jpg	99
442.365	0.885	884.7	incongruent	Block1	incongruent/STIM_021.jpg	100
445.383	1.006	1006.2	incongruent	Block1	incongruent/STIM_021.jpg	99
450.344	1.361	1361.1	incongruent	Block1	incongruent/STIM_022.jpg	100
454.537	1.176	1176.5	incongruent	Block1	incongruent/STIM_022.jpg	100
459.337	1.254	1253.6	incongruent	Block1	incongruent/STIM_022.jpg	100
464.395	0.622	621.8	incongruent	Block1	incongruent/STIM_022.jpg	99
468.282	1.18	1180.2	incongruent	Block1	incongruent/STIM_022.jpg	99
473.119	1.495	1495.3	incongruent	Block1	incongruent/STIM_023.jpg	100
476.922	1.209	1208.9	incongruent	Block1	incongruent/STIM_023.jpg	100
480.628	1.088	1087.5	incongruent	Block1	incongruent/STIM_023.jpg	100
483.853	0.892	891.9	incongruent	Block1	incongruent/STIM_023.jpg	99
487.449	1.133	1132.7	incongruent	Block1	incongruent/STIM_023.jpg	99
492.217	1.277	1277.1	incongruent	Block1	incongruent/STIM_024.jpg	99
495.57	0.876	875.7	incongruent	Block1	incongruent/STIM_024.jpg	100
500.129	1.207	1207.2	incongruent	Block1	incongruent/STIM_024.jpg	99
505.08	0.725	725.3	incongruent	Block1	incongruent/STIM_024.jpg	99
508.373	0.773	773.0	incongruent	Block1	incongruent/STIM_024.jpg	100
512.35	1.298	1297.7	incongruent	Block1	incongruent/STIM_025.jpg	99
516.647	0.826	825.5	incongruent	Block1	incongruent/STIM_025.jpg	100
521.362	0.724	724.1	incongruent	Block1	incongruent/STIM_025.jpg	100
524.193	1.259	1259.2	incongruent	Block1	incongruent/STIM_025.jpg	100
528.422	1.182	1182.1	incongruent	Block1	incongruent/STIM_025.jpg	100
532.687	0.859	859.0	incongruent	Block1	incongruent/STIM_026.jpg	100
535.871	0.769	768.8	incongruent	Block1	incongruent/STIM_026.jpg	99
538.955	1.188	1187.5	incongruent	Block1	incongruent/STIM_026.jpg	100
543.883	1.211	1211.3	incongruent	Block1	incongruent/STIM_026.jpg	100
547.458	0.723	723.4	incongruent	Block1	incongruent/STIM_026.jpg	99
551.905	0.724	724.4	incongruent	Block1	incongruent/STIM_027.jpg	99
555.805	1.288	1288.4	incongruent	Block1	incongruent/STIM_027.jpg	99
560.729	0.986	986.0	incongruent	Block1	incongruent/STIM_027.jpg	99
565.263	0.945	944.6	incongruent	Block1	incongruent/STIM_027.jpg	100
569.108	0.874	874.2	incongruent	Block1	incongruent/STIM_027.jpg	100
573.172	0.895	894.7	incongruent	Block1	incongruent/STIM_028.jpg	99
577.307	1.299	1299.1	incongruent	Block1	incongruent/STIM_028.jpg	99
580.686	0.67	670.4	incongruent	Block1	incongruent/STIM_028.jpg	100
583.84	0.603	602.9	incongruent	Block1	incongruent/STIM_028.jpg	99
587.513	1.12	1119.7	incongruent	Block1	incongruent/STIM_028.jpg	99
591.312	1.229	1228.9	incongruent	Block1	incongruent/STIM_029.jpg	100
594.559	0.976	976.5	incongruent	Block1	incongruent/STIM_029.jpg	99
598.759	1.083	1083.4	incongruent	Block1	incongruent/STIM_029.jpg	100
602.115	0.809	808.8	incongruent	Block1	incongruent/STIM_029.jpg	100
605.576	0.764	764.5	incongruent	Block1	incongruent/STIM_029.jpg	99
608.456	0.825	825.3	congruent	Block1	congruent/STIM_000.jpg	99
612.058	0.823	823.1	congruent	Block1	congruent/STIM_000.jpg	100
616.43	0.677	677.2	congruent	Block1	congruent/STIM_000.jpg	99
620.333	0.651	650.7	congruent	Block1	congruent/STIM_000.jpg	99
623.905	0.621	620.6	congruent	Block1	congruent/STIM_000.jpg	100
628.481	0.511	510.7	congruent	Block1	congruent/STIM_001.jpg	99
631.19	0.786	786.2	congruent	Block1	congruent/STIM_001.jpg	100
634.732	0.896	896.2	congruent	Block1	congruent/STIM_001.jpg	99
638.039	0.885	885.0	congruent	Block1	congruent/STIM_001.jpg	100
641.457	0.609	609.0	congruent	Block1	congruent/STIM_001.jpg	100
644.349	0.514	513.9	congruent	Block1	congruent/STIM_002.jpg	100
647.982	0.896	895.5	congruent	Block1	congruent/STIM_002.jpg	99
651.059	0.667	666.9	congruent	Block1	congruent/STIM_002.jpg	100
655.57	0.532	532.4	congruent	Block1	congruent/STIM_002.jpg	100
658.833	0.71	710.3	congruent	Block1	congruent/STIM_002.jpg	100
661.943	0.629	628.7	congruent	Block1	congruent/STIM_003.jpg	100
666.452	0.689	689.3	congruent	Block1	congruent/STIM_003.jpg	100
669.661	0.808	807.5	congruent	Block1	congruent/STIM_003.jpg	100
673.058	0.607	606.6	congruent	Block1	congruent/STIM_003.jpg	99
677.29	0.796	795.7	congruent	Block1	congruent/STIM_003.jpg	100
680.557	0.555	554.8	congruent	Block1	congruent/STIM_004.jpg	99
684.595	0.865	864.8	congruent	Block1	congruent/STIM_004.jpg	99
687.677	0.856	855.9	congruent	Block1	congruent/STIM_004.jpg	99
691.41	0.882	882.1	congruent	Block1	congruent/STIM_004.jpg	99
695.926	0.79	790.0	congruent	Block1	congruent/STIM_004.jpg	100
699.164	0.838	837.9	congruent	Block1	congruent/STIM_005.jpg	99
702.794	0.697	696.7	congruent	Block1	congruent/STIM_005.jpg	100
705.999	0.836	835.5	congruent	Block1	congruent/STIM_005.jpg	100
710.267	0.857	857.4	congruent	Block1	congruent/STIM_005.jpg	99
713.196	0.508	507.6	congruent	Block1	congruent/STIM_005.jpg	99
717.268	0.746	746.1	congruent	Block1	congruent/STIM_006.jpg	99
720.649	0.68	680.5	congruent	Block1	congruent/STIM_006.jpg	100
725.252	0.72	720.5	congruent	Block1	congruent/STIM_006.jpg	100
728.198	0.551	550.7	congruent	Block1	congruent/STIM_006.jpg	99
731.081	0.542	542.4	congruent	Block1	congruent/STIM_006.jpg	99
734.994	0.823	822.8	congruent	Block1	congruent/STIM_007.jpg	100
739.591	0.542	542.1	congruent	Block1	congruent/STIM_007.jpg	100
742.244	0.722	722.1	congruent	Block1	congruent/STIM_007.jpg	99
746.435	0.7	700.4	congruent	Block1	congruent/STIM_007.jpg	100
749.171	0.801	800.6	congruent	Block1	congruent/STIM_007.jpg	100
753.753	0.6	600.3	congruent	Block1	congruent/STIM_008.jpg	99
756.946	0.879	879.2	congruent	Block1	congruent/STIM_008.jpg	100
761.806	0.591	590.6	congruent	Block1	congruent/STIM_008.jpg	99
764.814	0.756	755.5	congruent	Block1	congruent/STIM_008.jpg	99
769.324	0.639	638.7	congruent	Block1	congruent/STIM_008.jpg	99
772.587	0.678	678.4	congruent	Block1	congruent/STIM_009.jpg	99
776.188	0.892	892.0	congruent	Block1	congruent/STIM_009.jpg	100
780.831	0.838	838.3	congruent	Block1	congruent/STIM_009.jpg	100
784.663	0.836	835.7	congruent	Block1	congruent/STIM_009.jpg	99
787.569	0.577	577.3	congruent	Block1	congruent/STIM_009.jpg	99
791.836	0.8	800.0	congruent	Block1	congruent/STIM_010.jpg	99
795.618	0.782	782.4	congruent	Block1	congruent/STIM_010.jpg	99
800.264	0.732	732.1	congruent	Block1	congruent/STIM_010.jpg	100
803.062	0.868	868.3	congruent	Block1	congruent/STIM_010.jpg	99
807.748	0.848	847.8	congruent	Block1	congruent/STIM_010.jpg	99
811.793	0.633	633.2	congruent	Block1	congruent/STIM_011.jpg	100
815.617	0.856	856.3	congruent	Block1	congruent/STIM_011.jpg	100
820.285	0.748	748.0	congruent	Block1	congruent/STIM_011.jpg	99
824.714	0.504	504.3	congruent	Block1	congruent/STIM_011.jpg	99
827.231	0.728	728.2	congruent	Block1	congruent/STIM_011.jpg	99
831.738	0.734	734.5	congruent	Block1	congruent/STIM_012.jpg	99
836.15	0.803	802.7	congruent	Block1	congruent/STIM_012.jpg	100
840.93	0.887	887.4	congruent	Block1	congruent/STIM_012.jpg	99
844.498	0.541	540.8	congruent	Block1	congruent/STIM_012.jpg	99
847.758	0.705	705.3	congruent	Block1	congruent/STIM_012.jpg	99
851.405	0.57	569.6	congruent	Block1	congruent/STIM_013.jpg	100
854.055	0.548	548.3	congruent	Block1	congruent/STIM_013.jpg	99
857.774	0.773	773.1	congruent	Block1	congruent/STIM_013.jpg	100
860.643	0.885	885.3	congruent	Block1	congruent/STIM_013.jpg	100
863.912	0.836	836.2	congruent	Block1	congruent/STIM_013.jpg	99
867.982	0.816	816.1	congruent	Block1	congruent/STIM_014.jpg	99
871.669	0.75	749.8	congruent	Block1	congruent/STIM_014.jpg	99
874.84	0.556	556.1	congruent	Block1	congruent/STIM_014.jpg	100
877.941	0.764	764.0	congruent	Block1	congruent/STIM_014.jpg	100
881.078	0.585	585.4	congruent	Block1	congruent/STIM_014.jpg	100
884.544	0.878	877.8	congruent	Block1	congruent/STIM_015.jpg	100
888.703	0.871	871.0	congruent	Block1	congruent/STIM_015.jpg	99
892.877	0.598	598.2	congruent	Block1	congruent/STIM_015.jpg	100
896.192	0.617	616.8	congruent	Block1	congruent/STIM_015.jpg	99
899.437	0.853	852.9	congruent	Block1	congruent/STIM_015.jpg	100
903.254	0.893	893.2	congruent	Block1	congruent/STIM_016.jpg	100
906.257	0.591	591.3	congruent	Block1	congruent/STIM_016.jpg	99
910.821	0.556	556.5	congruent	Block1	congruent/STIM_016.jpg	100
914.09	0.779	779.0	congruent	Block1	congruent/STIM_016.jpg	100
917.225	0.737	736.6	congruent	Block1	congruent/STIM_016.jpg	100
920.263	0.855	854.8	congruent	Block1	congruent/STIM_017.jpg	100
925.079	0.656	656.5	congruent	Block1	congruent/STIM_017.jpg	100
927.879	0.735	735.3	congruent	Block1	congruent/STIM_017.jpg	99
930.864	0.72	720.0	congruent	Block1	congruent/STIM_017.jpg	99
934.367	0.855	855.4	congruent	Block1	congruent/STIM_017.jpg	100
938.759	0.672	671.6	congruent	Block1	congruent/STIM_018.jpg	99
943.185	0.566	566.2	congruent	Block1	congruent/STIM_018.jpg	99
946.247	0.894	893.5	congruent	Block1	congruent/STIM_018.jpg	99
950.051	0.522	521.5	congruent	Block1	congruent/STIM_018.jpg	100
952.941	0.706	705.9	congruent	Block1	congruent/STIM_018.jpg	99
956.436	0.641	640.9	congruent	Block1	congruent/STIM_019.jpg	99
960.867	0.866	865.5	congruent	Block1	congruent/STIM_019.jpg	99
965.04	0.777	777.4	congruent	Block1	congruent/STIM_019.jpg	99
968.007	0.628	628.0	congruent	Block1	congruent/STIM_019.jpg	99
970.712	0.506	505.6	congruent	Block1	congruent/STIM_019.jpg	99
974.645	0.55	550.1	congruent	Block1	congruent/STIM_020.jpg	100
977.774	0.871	871.3	congruent	Block1	congruent/STIM_020.jpg	100
981.398	0.786	786.3	congruent	Block1	congruent/STIM_020.jpg	99
984.211	0.878	878.0	congruent	Block1	congruent/STIM_020.jpg	100
988.295	0.793	793.0	congruent	Block1	congruent/STIM_020.jpg	100
991.413	0.765	765.0	congruent	Block1	congruent/STIM_021.jpg	100
995.368	0.735	735.4	congruent	Block1	congruent/STIM_021.jpg	100
998.62	0.502	502.4	congruent	Block1	congruent/STIM_021.jpg	99
1002.707	0.532	531.6	congruent	Block1	congruent/STIM_021.jpg	100
1005.576	0.759	758.6	congruent	Block1	congruent/STIM_021.jpg	99
1009.147	0.561	560.9	congruent	Block1	congruent/STIM_022.jpg	100
1012.97	0.888	888.4	congruent	Block1	congruent/STIM_022.jpg	99
1016.219	0.714	713.7	congruent	Block1	congruent/STIM_022.jpg	100
1019.976	0.717	717.2	congruent	Block1	congruent/STIM_022.jpg	99
1022.96	0.843	843.1	congruent	Block1	congruent/STIM_022.jpg	99
1026.613	0.614	614.2	congruent	Block1	congruent/STIM_023.jpg	99
1030.285	0.716	716.3	congruent	Block1	congruent/STIM_023.jpg	100
1033.053	0.575	574.9	congruent	Block1	congruent/STIM_023.jpg	99
1037.062	0.673	672.8	congruent	Block1	congruent/STIM_023.jpg	99
1040.389	0.682	682.3	congruent	Block1	congruent/STIM_023.jpg	100
1044.167	0.808	808.3	congruent	Block1	congruent/STIM_024.jpg	99
1047.469	0.827	827.2	congruent	Block1	congruent/STIM_024.jpg	100
1051.131	0.505	505.2	congruent	Block1	congruent/STIM_024.jpg	99
1053.672	0.856	856.4	congruent	Block1	congruent/STIM_024.jpg	100
1057.172	0.799	799.3	congruent	Block1	congruent/STIM_024.jpg	100
1061.215	0.508	507.7	congruent	Block1	congruent/STIM_025.jpg	99
1063.968	0.758	757.6	congruent	Block1	congruent/STIM_025.jpg	100
1068.011	0.6	599.7	congruent	Block1	congruent/STIM_025.jpg	99
1072.022	0.663	662.9	congruent	Block1	congruent/STIM_025.jpg	99
1076.66	0.565	565.2	congruent	Block1	congruent/STIM_025.jpg	99
1079.953	0.595	595.0	congruent	Block1	congruent/STIM_026.jpg	99
1082.992	0.598	597.7	congruent	Block1	congruent/STIM_026.jpg	100
1087.12	0.797	796.8	congruent	Block1	congruent/STIM_026.jpg	99
1090.51	0.709	708.9	congruent	Block1	congruent/STIM_026.jpg	99
1094.347	0.615	615.1	congruent	Block1	congruent/STIM_026.jpg	99
1098.55	0.823	822.9	congruent	Block1	congruent/STIM_027.jpg	100
1101.989	0.888	888.1	congruent	Block1	congruent/STIM_027.jpg	100
1105.36	0.505	505.5	congruent	Block1	congruent/STIM_027.jpg	99
1108.952	0.639	639.3	congruent	Block1	congruent/STIM_027.jpg	99
1111.629	0.607	607.0	congruent	Block1	congruent/STIM_027.jpg	99
1115.147	0.646	646.0	congruent	Block1	congruent/STIM_028.jpg	99
1118.369	0.606	606.2	congruent	Block1	congruent/STIM_028.jpg	99
1122.901	0.645	645.3	congruent	Block1	congruent/STIM_028.jpg	100
1125.908	0.729	729.2	congruent	Block1	congruent/STIM_028.jpg	100
1129.961	0.504	503.6	congruent	Block1	congruent/STIM_028.jpg	99
1132.868	0.637	637.0	congruent	Block1	congruent/STIM_029.jpg	99
1136.642	0.591	591.0	congruent	Block1	congruent/STIM_029.jpg	100
1140.358	0.665	664.6	congruent	Block1	congruent/STIM_029.jpg	100
1144.096	0.773	772.8	congruent	Block1	congruent/STIM_029.jpg	99
1148.551	0.531	531.3	congruent	Block1	congruent/STIM_029.jpg	100
1152.515	0.723	723.4	incongruent	Block2	incongruent/STIM_000.jpg	99
1155.342	1.119	1118.7	incongruent	Block2	incongruent/STIM_000.jpg	99
1159.61	0.779	779.1	incongruent	Block2	incongruent/STIM_000.jpg	100
1163.225	0.604	603.7	incongruent	Block2	incongruent/STIM_000.jpg	100
1166.577	0.941	941.3	incongruent	Block2	incongruent/STIM_000.jpg	99
1170.638	0.795	795.0	incongruent	Block2	incongruent/STIM_001.jpg	99
1174.113	0.777	777.2	incongruent	Block2	incongruent/STIM_001.jpg	99
1177.899	0.565	564.8	incongruent	Block2	incongruent/STIM_001.jpg	100
1181.014	0.783	782.6	incongruent	Block2	incongruent/STIM_001.jpg	100
1185.139	0.92	920.0	incongruent	Block2	incongruent/STIM_001.jpg	100
1190.003	1.277	1277.0	incongruent	Block2	incongruent/STIM_002.jpg	100
1194.207	1.0	1000.2	incongruent	Block2	incongruent/STIM_002.jpg	100
1197.699	0.59	589.5	incongruent	Block2	incongruent/STIM_002.jpg	99
1201.815	0.622	622.4	incongruent	Block2	incongruent/STIM_002.jpg	100
1205.264	0.578	577.8	incongruent	Block2	incongruent/STIM_002.jpg	100
1208.942	0.805	805.1	incongruent	Block2	incongruent/STIM_003.jpg	100
1213.717	0.596	596.3	incongruent	Block2	incongruent/STIM_003.jpg	100
1217.096	0.812	811.6	incongruent	Block2	incongruent/STIM_003.jpg	99
1220.049	0.917	917.4	incongruent	Block2	incongruent/STIM_003.jpg	99
1224.621	0.582	582.2	incongruent	Block2	incongruent/STIM_003.jpg	99
1228.07	0.966	965.7	incongruent	Block2	incongruent/STIM_004.jpg	99
1232.138	0.771	771.0	incongruent	Block2	incongruent/STIM_004.jpg	99
1235.297	1.006	1006.0	incongruent	Block2	incongruent/STIM_004.jpg	99
1239.426	0.719	719.0	incongruent	Block2	incongruent/STIM_004.jpg	100
1243.146	0.817	817.1	incongruent	Block2	incongruent/STIM_004.jpg	100
1246.359	0.841	841.3	incongruent	Block2	incongruent/STIM_005.jpg	100
1250.782	0.673	672.8	incongruent	Block2	incongruent/STIM_005.jpg	99
1254.591	0.566	565.6	incongruent	Block2	incongruent/STIM_005.jpg	100
1257.264	0.757	756.7	incongruent	Block2	incongruent/STIM_005.jpg	99
1261.907	0.775	775.2	incongruent	Block2	incongruent/STIM_005.jpg	100
1265.591	0.989	988.8	incongruent	Block2	incongruent/STIM_006.jpg	100
1269.237	0.888	887.7	incongruent	Block2	incongruent/STIM_006.jpg	99
1272.647	0.563	563.4	incongruent	Block2	incongruent/STIM_006.jpg	100
1275.237	0.514	514.3	incongruent	Block2	incongruent/STIM_006.jpg	99
1278.468	0.63	629.6	incongruent	Block2	incongruent/STIM_006.jpg	100
1282.724	1.122	1121.5	incongruent	Block2	incongruent/STIM_007.jpg	100
1286.748	0.66	660.1	incongruent	Block2	incongruent/STIM_007.jpg	100
1289.602	0.953	952.8	incongruent	Block2	incongruent/STIM_007.jpg	100
1292.92	0.765	764.7	incongruent	Block2	incongruent/STIM_007.jpg	99
1296.993	0.73	730.2	incongruent	Block2	incongruent/STIM_007.jpg	99
1300.255	0.628	628.1	incongruent	Block2	incongruent/STIM_008.jpg	100
1304.053	1.002	1001.6	incongruent	Block2	incongruent/STIM_008.jpg	99
1307.865	1.081	1080.7	incongruent	Block2	incongruent/STIM_008.jpg	99
1311.456	0.967	967.2	incongruent	Block2	incongruent/STIM_008.jpg	100
1314.475	1.034	1034.1	incongruent	Block2	incongruent/STIM_008.jpg	99
1318.362	0.603	602.7	incongruent	Block2	incongruent/STIM_009.jpg	99
1322.134	1.111	1111.3	incongruent	Block2	incongruent/STIM_009.jpg	100
1326.564	1.057	1057.3	incongruent	Block2	incongruent/STIM_009.jpg	99
1330.417	0.935	935.4	incongruent	Block2	incongruent/STIM_009.jpg	100
1333.884	0.773	773.0	incongruent	Block2	incongruent/STIM_009.jpg	99
1338.144	0.994	993.9	incongruent	Block2	incongruent/STIM_010.jpg	100
1343.105	0.632	632.3	incongruent	Block2	incongruent/STIM_010.jpg	99
1345.921	0.799	798.8	incongruent	Block2	incongruent/STIM_010.jpg	99
1350.146	0.986	985.6	incongruent	Block2	incongruent/STIM_010.jpg	100
1353.71	0.6	599.5	incongruent	Block2	incongruent/STIM_010.jpg	100
1356.735	1.159	1159.2	incongruent	Block2	incongruent/STIM_011.jpg	100
1360.118	0.588	587.7	incongruent	Block2	incongruent/STIM_011.jpg	99
1362.955	0.562	561.9	incongruent	Block2	incongruent/STIM_011.jpg	100
1366.582	1.026	1025.9	incongruent	Block2	incongruent/STIM_011.jpg	99
1370.896	0.596	595.5	incongruent	Block2	incongruent/STIM_011.jpg	100
1374.028	1.115	1115.0	incongruent	Block2	incongruent/STIM_012.jpg	100
1377.591	1.127	1127.3	incongruent	Block2	incongruent/STIM_012.jpg	100
1381.011	0.713	713.0	incongruent	Block2	incongruent/STIM_012.jpg	99
1385.296	0.525	525.1	incongruent	Block2	incongruent/STIM_012.jpg	100
1387.956	1.043	1043.2	incongruent	Block2	incongruent/STIM_012.jpg	100
1392.257	0.658	658.3	incongruent	Block2	incongruent/STIM_013.jpg	100
1396.629	1.146	1145.6	incongruent	Block2	incongruent/STIM_013.jpg	100
1401.326	0.624	623.8	incongruent	Block2	incongruent/STIM_013.jpg	99
1405.061	0.557	556.6	incongruent	Block2	incongruent/STIM_013.jpg	99
1409.156	1.042	1042.3	incongruent	Block2	incongruent/STIM_013.jpg	100
1412.91	1.093	1093.2	incongruent	Block2	incongruent/STIM_014.jpg	99
1417.624	0.752	752.3	incongruent	Block2	incongruent/STIM_014.jpg	99
1421.808	0.982	981.7	incongruent	Block2	incongruent/STIM_014.jpg	100
1426.151	0.498	498.2	incongruent	Block2	incongruent/STIM_014.jpg	99
1429.939	0.956	956.5	incongruent	Block2	incongruent/STIM_014.jpg	99
1433.619	0.778	778.5	incongruent	Block2	incongruent/STIM_015.jpg	99
1436.683	0.696	696.4	incongruent	Block2	incongruent/STIM_015.jpg	100
1441.067	0.855	855.0	incongruent	Block2	incongruent/STIM_015.jpg	100
1445.507	0.789	789.2	incongruent	Block2	incongruent/STIM_015.jpg	99
1448.796	0.849	848.6	incongruent	Block2	incongruent/STIM_015.jpg	99
1452.318	0.662	661.8	incongruent	Block2	incongruent/STIM_016.jpg	100
1456.764	0.625	624.9	incongruent	Block2	incongruent/STIM_016.jpg	100
1461.357	1.038	1038.4	incongruent	Block2	incongruent/STIM_016.jpg	99
1465.854	0.559	559.2	incongruent	Block2	incongruent/STIM_016.jpg	99
1469.253	1.01	1010.5	incongruent	Block2	incongruent/STIM_016.jpg	99
1473.296	0.893	893.0	incongruent	Block2	incongruent/STIM_017.jpg	99
1477.518	0.597	597.3	incongruent	Block2	incongruent/STIM_017.jpg	99
1482.044	1.018	1018.0	incongruent	Block2	incongruent/STIM_017.jpg	99
1485.62	0.775	774.8	incongruent	Block2	incongruent/STIM_017.jpg	100
1489.056	0.686	686.3	incongruent	Block2	incongruent/STIM_017.jpg	99
1493.012	0.928	927.6	incongruent	Block2	incongruent/STIM_018.jpg	100
1496.453	0.874	873.9	incongruent	Block2	incongruent/STIM_018.jpg	99
1499.864	1.12	1119.8	incongruent	Block2	incongruent/STIM_018.jpg	99
1503.33	1.003	1002.8	incongruent	Block2	incongruent/STIM_018.jpg	100
1506.956	0.74	740.3	incongruent	Block2	incongruent/STIM_018.jpg	99
1510.491	0.861	861.2	incongruent	Block2	incongruent/STIM_019.jpg	100
1514.71	0.563	563.4	incongruent	Block2	incongruent/STIM_019.jpg	100
1517.764	1.035	1034.7	incongruent	Block2	incongruent/STIM_019.jpg	99
1521.572	0.78	780.3	incongruent	Block2	incongruent/STIM_019.jpg	99
1525.252	0.692	692.0	incongruent	Block2	incongruent/STIM_019.jpg	99
1528.56	0.867	866.7	incongruent	Block2	incongruent/STIM_020.jpg	99
1533.16	0.583	582.8	incongruent	Block2	incongruent/STIM_020.jpg	99
1536.696	1.001	1000.9	incongruent	Block2	incongruent/STIM_020.jpg	100
1539.873	0.923	923.0	incongruent	Block2	incongruent/STIM_020.jpg	99
1543.59	0.503	503.4	incongruent	Block2	incongruent/STIM_020.jpg	99
1548.077	1.05	1050.2	incongruent	Block2	incongruent/STIM_021.jpg	100
1551.357	0.567	566.8	incongruent	Block2	incongruent/STIM_021.jpg	99
1554.301	0.963	962.8	incongruent	Block2	incongruent/STIM_021.jpg	100
1557.999	0.848	848.2	incongruent	Block2	incongruent/STIM_021.jpg	100
1561.542	0.941	940.7	incongruent	Block2	incongruent/STIM_021.jpg	99
1566.392	0.716	716.5	incongruent	Block2	incongruent/STIM_022.jpg	99
1570.562	1.06	1060.2	incongruent	Block2	incongruent/STIM_022.jpg	99
1573.654	1.014	1013.5	incongruent	Block2	incongruent/STIM_022.jpg	99
1576.969	0.67	670.1	incongruent	Block2	incongruent/STIM_022.jpg	100
1581.209	0.685	685.4	incongruent	Block2	incongruent/STIM_022.jpg	100
1585.761	0.987	987.3	incongruent	Block2	incongruent/STIM_023.jpg	99
1590.627	1.06	1059.5	incongruent	Block2	incongruent/STIM_023.jpg	100
1594.504	0.902	901.6	incongruent	Block2	incongruent/STIM_023.jpg	99
1597.857	0.535	534.7	incongruent	Block2	incongruent/STIM_023.jpg	100
1600.706	0.517	517.2	incongruent	Block2	incongruent/STIM_023.jpg	99
1604.026	0.995	995.2	incongruent	Block2	incongruent/STIM_024.jpg	99
1608.379	0.8	800.1	incongruent	Block2	incongruent/STIM_024.jpg	99
1611.809	0.749	749.0	incongruent	Block2	incongruent/STIM_024.jpg	100
1615.2	0.83	830.4	incongruent	Block2	incongruent/STIM_024.jpg	100
1618.907	0.654	653.6	incongruent	Block2	incongruent/STIM_024.jpg	99
1623.392	0.884	884.2	incongruent	Block2	incongruent/STIM_025.jpg	99
1627.716	1.028	1027.9	incongruent	Block2	incongruent/STIM_025.jpg	99
1632.644	0.878	878.5	incongruent	Block2	incongruent/STIM_025.jpg	99
1636.556	0.579	578.6	incongruent	Block2	incongruent/STIM_025.jpg	99
1640.744	0.725	724.8	incongruent	Block2	incongruent/STIM_025.jpg	99
1644.559	0.631	631.1	incongruent	Block2	incongruent/STIM_026.jpg	99
1647.696	0.582	582.0	incongruent	Block2	incongruent/STIM_026.jpg	99
1652.113	0.873	873.4	incongruent	Block2	incongruent/STIM_026.jpg	100
1656.112	0.561	560.8	incongruent	Block2	incongruent/STIM_026.jpg	100
1659.364	0.668	668.5	incongruent	Block2	incongruent/STIM_026.jpg	100
1663.45	1.201	1200.7	incongruent	Block2	incongruent/STIM_027.jpg	99
1666.969	1.028	1027.7	incongruent	Block2	incongruent/STIM_027.jpg	99
1671.509	0.942	942.4	incongruent	Block2	incongruent/STIM_027.jpg	100
1675.349	0.888	887.7	incongruent	Block2	incongruent/STIM_027.jpg	100
1679.525	0.758	757.7	incongruent	Block2	incongruent/STIM_027.jpg	100
1682.324	0.759	758.7	incongruent	Block2	incongruent/STIM_028.jpg	100
1685.89	1.071	1070.9	incongruent	Block2	incongruent/STIM_028.jpg	100
1689.88	0.574	574.1	incongruent	Block2	incongruent/STIM_028.jpg	99
1693.02	0.677	677.3	incongruent	Block2	incongruent/STIM_028.jpg	99
1697.243	0.983	983.1	incongruent	Block2	incongruent/STIM_028.jpg	99
1701.976	0.642	641.7	incongruent	Block2	incongruent/STIM_029.jpg	99
1705.475	0.96	960.1	incongruent	Block2	incongruent/STIM_029.jpg	100
1709.312	0.68	680.2	incongruent	Block2	incongruent/STIM_029.jpg	100
1713.582	0.924	924.1	incongruent	Block2	incongruent/STIM_029.jpg	99
1717.776	0.864	863.6	incongruent	Block2	incongruent/STIM_029.jpg	100
1722.498	0.885	885.0	congruent	Block2	congruent/STIM_000.jpg	99
1726.814	0.889	889.1	congruent	Block2	congruent/STIM_000.jpg	99
1730.984	0.718	717.5	congruent	Block2	congruent/STIM_000.jpg	99
1735.037	0.727	727.1	congruent	Block2	congruent/STIM_000.jpg	99
1739.332	0.529	529.4	congruent	Block2	congruent/STIM_000.jpg	99
1742.997	0.554	553.7	congruent	Block2	congruent/STIM_001.jpg	100
1746.212	0.723	722.9	congruent	Block2	congruent/STIM_001.jpg	99
1749.772	0.656	656.5	congruent	Block2	congruent/STIM_001.jpg	99
1754.391	0.806	805.5	congruent	Block2	congruent/STIM_001.jpg	100
1757.78	0.709	708.8	congruent	Block2	congruent/STIM_001.jpg	99
1760.743	0.889	889.2	congruent	Block2	congruent/STIM_002.jpg	100
1763.969	0.554	553.8	congruent	Block2	congruent/STIM_002.jpg	99
1766.781	0.804	803.6	congruent	Block2	congruent/STIM_002.jpg	99
1770.861	0.735	735.3	congruent	Block2	congruent/STIM_002.jpg	99
1774.555	0.824	823.9	congruent	Block2	congruent/STIM_002.jpg	100
1778.74	0.801	800.7	congruent	Block2	congruent/STIM_003.jpg	99
1782.179	0.728	728.5	congruent	Block2	congruent/STIM_003.jpg	100
1785.514	0.714	713.7	congruent	Block2	congruent/STIM_003.jpg	100
1788.903	0.759	759.1	congruent	Block2	congruent/STIM_003.jpg	100
1793.522	0.639	638.9	congruent	Block2	congruent/STIM_003.jpg	100
1797.022	0.646	646.0	congruent	Block2	congruent/STIM_004.jpg	99
1800.904	0.801	801.2	congruent	Block2	congruent/STIM_004.jpg	99
1805.294	0.634	634.1	congruent	Block2	congruent/STIM_004.jpg	100
1808.186	0.852	852.5	congruent	Block2	congruent/STIM_004.jpg	99
1811.257	0.605	605.4	congruent	Block2	congruent/STIM_004.jpg	100
1814.451	0.614	614.1	congruent	Block2	congruent/STIM_005.jpg	100
1817.322	0.595	594.9	congruent	Block2	congruent/STIM_005.jpg	99
1820.368	0.653	652.9	congruent	Block2	congruent/STIM_005.jpg	99
1824.905	0.665	664.9	congruent	Block2	congruent/STIM_005.jpg	99
1827.694	0.744	744.3	congruent	Block2	congruent/STIM_005.jpg	100
1830.791	0.818	818.2	congruent	Block2	congruent/STIM_006.jpg	100
1833.612	0.776	776.3	congruent	Block2	congruent/STIM_006.jpg	99
1836.455	0.83	829.6	congruent	Block2	congruent/STIM_006.jpg	99
1840.22	0.581	581.4	congruent	Block2	congruent/STIM_006.jpg	100
1843.529	0.769	769.0	congruent	Block2	congruent/STIM_006.jpg	100
1846.85	0.728	728.5	congruent	Block2	congruent/STIM_007.jpg	100
1850.383	0.902	901.9	congruent	Block2	congruent/STIM_007.jpg	99
1853.807	0.666	666.5	congruent	Block2	congruent/STIM_007.jpg	99
1858.079	0.605	604.9	congruent	Block2	congruent/STIM_007.jpg	100
1862.114	0.875	875.3	congruent	Block2	congruent/STIM_007.jpg	100
1866.88	0.894	893.8	congruent	Block2	congruent/STIM_008.jpg	100
1870.766	0.809	809.1	congruent	Block2	congruent/STIM_008.jpg	99
1874.983	0.85	850.4	congruent	Block2	congruent/STIM_008.jpg	100
1879.644	0.566	566.2	congruent	Block2	congruent/STIM_008.jpg	100
1883.456	0.563	562.9	congruent	Block2	congruent/STIM_008.jpg	100
1886.541	0.519	519.4	congruent	Block2	congruent/STIM_009.jpg	100
1890.529	0.82	819.6	congruent	Block2	congruent/STIM_009.jpg	99
1893.524	0.72	720.5	congruent	Block2	congruent/STIM_009.jpg	100
1897.418	0.611	610.6	congruent	Block2	congruent/STIM_009.jpg	100
1900.429	0.855	855.2	congruent	Block2	congruent/STIM_009.jpg	99
1904.395	0.643	643.0	congruent	Block2	congruent/STIM_010.jpg	100
1908.328	0.547	547.1	congruent	Block2	congruent/STIM_010.jpg	100
1912.533	0.715	715.0	congruent	Block2	congruent/STIM_010.jpg	100
1915.732	0.571	571.3	congruent	Block2	congruent/STIM_010.jpg	100
1919.28	0.813	812.6	congruent	Block2	congruent/STIM_010.jpg	99
1922.454	0.755	754.7	congruent	Block2	congruent/STIM_011.jpg	99
1926.763	0.552	551.5	congruent	Block2	congruent/STIM_011.jpg	99
1930.071	0.678	677.6	congruent	Block2	congruent/STIM_011.jpg	100
1933.033	0.815	814.9	congruent	Block2	congruent/STIM_011.jpg	100
1936.565	0.73	730.4	congruent	Block2	congruent/STIM_011.jpg	99
1940.241	0.722	722.5	congruent	Block2	congruent/STIM_012.jpg	100
1944.919	0.504	503.7	congruent	Block2	congruent/STIM_012.jpg	99
1948.15	0.661	661.3	congruent	Block2	congruent/STIM_012.jpg	99
1952.509	0.621	621.0	congruent	Block2	congruent/STIM_012.jpg	99
1955.763	0.541	541.3	congruent	Block2	congruent/STIM_012.jpg	100
1959.638	0.64	640.1	congruent	Block2	congruent/STIM_013.jpg	99
1963.613	0.757	756.8	congruent	Block2	congruent/STIM_013.jpg	99
1967.558	0.885	885.1	congruent	Block2	congruent/STIM_013.jpg	100
1971.854	0.533	533.0	congruent	Block2	congruent/STIM_013.jpg	100
1975.482	0.673	672.9	congruent	Block2	congruent/STIM_013.jpg	100
1978.539	0.546	546.5	congruent	Block2	congruent/STIM_014.jpg	99
1981.947	0.701	701.1	congruent	Block2	congruent/STIM_014.jpg	100
1986.24	0.664	663.9	congruent	Block2	congruent/STIM_014.jpg	99
1990.737	0.868	868.0	congruent	Block2	congruent/STIM_014.jpg	99
1993.871	0.767	767.0	congruent	Block2	congruent/STIM_014.jpg	99
1997.166	0.74	740.5	congruent	Block2	congruent/STIM_015.jpg	100
2001.196	0.804	804.2	congruent	Block2	congruent/STIM_015.jpg	100
2005.106	0.59	590.0	congruent	Block2	congruent/STIM_015.jpg	99
2008.102	0.505	505.3	congruent	Block2	congruent/STIM_015.jpg	99
2012.333	0.799	799.0	congruent	Block2	congruent/STIM_015.jpg	100
2015.692	0.637	636.7	congruent	Block2	congruent/STIM_016.jpg	99
2020.041	0.607	607.0	congruent	Block2	congruent/STIM_016.jpg	100
2024.2	0.577	577.4	congruent	Block2	congruent/STIM_016.jpg	99
2027.001	0.688	687.6	congruent	Block2	congruent/STIM_016.jpg	100
2031.483	0.788	788.4	congruent	Block2	congruent/STIM_016.jpg	100
2034.545	0.803	802.6	congruent	Block2	congruent/STIM_017.jpg	100
2037.425	0.85	850.4	congruent	Block2	congruent/STIM_017.jpg	100
2041.182	0.514	513.6	congruent	Block2	congruent/STIM_017.jpg	99
2043.732	0.691	691.2	congruent	Block2	congruent/STIM_017.jpg	100
2047.098	0.84	839.6	congruent	Block2	congruent/STIM_017.jpg	100
2050.835	0.669	669.4	congruent	Block2	congruent/STIM_018.jpg	99
2053.616	0.772	772.3	congruent	Block2	congruent/STIM_018.jpg	100
2056.815	0.691	690.6	congruent	Block2	congruent/STIM_018.jpg	99
2059.507	0.721	721.4	congruent	Block2	congruent/STIM_018.jpg	99
2062.615	0.622	621.8	congruent	Block2	congruent/STIM_018.jpg	99
2066.393	0.862	862.2	congruent	Block2	congruent/STIM_019.jpg	99
2069.574	0.536	536.5	congruent	Block2	congruent/STIM_019.jpg	99
2073.912	0.848	848.0	congruent	Block2	congruent/STIM_019.jpg	100
2077.525	0.635	634.7	congruent	Block2	congruent/STIM_019.jpg	99
2081.256	0.57	570.0	congruent	Block2	congruent/STIM_019.jpg	100
2085.067	0.591	590.8	congruent	Block2	congruent/STIM_020.jpg	100
2088.618	0.52	520.1	congruent	Block2	congruent/STIM_020.jpg	100
2091.496	0.701	701.2	congruent	Block2	congruent/STIM_020.jpg	99
2096.047	0.851	851.3	congruent	Block2	congruent/STIM_020.jpg	99
2099.859	0.632	632.4	congruent	Block2	congruent/STIM_020.jpg	100
2103.403	0.625	624.9	congruent	Block2	congruent/STIM_021.jpg	100
2107.608	0.792	791.5	congruent	Block2	congruent/STIM_021.jpg	100
2111.7	0.591	591.0	congruent	Block2	congruent/STIM_021.jpg	100
2115.089	0.681	680.7	congruent	Block2	congruent/STIM_021.jpg	99
2118.4	0.722	721.7	congruent	Block2	congruent/STIM_021.jpg	100
2121.58	0.841	841.4	congruent	Block2	congruent/STIM_022.jpg	100
2124.814	0.512	511.7	congruent	Block2	congruent/STIM_022.jpg	100
2127.792	0.758	758.3	congruent	Block2	congruent/STIM_022.jpg	100
2130.893	0.532	531.9	congruent	Block2	congruent/STIM_022.jpg	100
2133.882	0.715	715.1	congruent	Block2	congruent/STIM_022.jpg	99
2137.566	0.704	703.5	congruent	Block2	congruent/STIM_023.jpg	100
2140.748	0.589	589.0	congruent	Block2	congruent/STIM_023.jpg	99
2143.911	0.787	786.9	congruent	Block2	congruent/STIM_023.jpg	99
2148.678	0.516	516.0	congruent	Block2	congruent/STIM_023.jpg	100
2152.898	0.582	582.2	congruent	Block2	congruent/STIM_023.jpg	100
2155.719	0.687	686.9	congruent	Block2	congruent/STIM_024.jpg	99
2159.497	0.665	664.7	congruent	Block2	congruent/STIM_024.jpg	99
2163.998	0.524	524.0	congruent	Block2	congruent/STIM_024.jpg	99
2166.991	0.755	754.7	congruent	Block2	congruent/STIM_024.jpg	100
2170.384	0.707	706.7	congruent	Block2	congruent/STIM_024.jpg	99
2173.32	0.709	709.0	congruent	Block2	congruent/STIM_025.jpg	100
2177.502	0.714	713.9	congruent	Block2	congruent/STIM_025.jpg	100
2180.46	0.735	735.0	congruent	Block2	congruent/STIM_025.jpg	99
2183.483	0.816	816.4	congruent	Block2	congruent/STIM_025.jpg	99
2186.841	0.584	583.6	congruent	Block2	congruent/STIM_025.jpg	99
2190.491	0.621	621.4	congruent	Block2	congruent/STIM_026.jpg	99
2195.001	0.611	610.8	congruent	Block2	congruent/STIM_026.jpg	99
2198.261	0.776	775.7	congruent	Block2	congruent/STIM_026.jpg	100
2202.697	0.583	583.0	congruent	Block2	congruent/STIM_026.jpg	100
2205.708	0.858	858.1	congruent	Block2	congruent/STIM_026.jpg	100
2208.843	0.591	591.0	congruent	Block2	congruent/STIM_027.jpg	99
2213.366	0.806	806.4	congruent	Block2	congruent/STIM_027.jpg	100
2218.03	0.801	801.0	congruent	Block2	congruent/STIM_027.jpg	100
2221.925	0.876	876.3	congruent	Block2	congruent/STIM_027.jpg	100
2226.738	0.58	580.1	congruent	Block2	congruent/STIM_027.jpg	100
2231.057	0.771	771.1	congruent	Block2	congruent/STIM_028.jpg	99
2235.652	0.618	618.2	congruent	Block2	congruent/STIM_028.jpg	99
2239.254	0.814	814.0	congruent	Block2	congruent/STIM_028.jpg	99
2242.076	0.674	674.2	congruent	Block2	congruent/STIM_028.jpg	99
2246.361	0.815	814.7	congruent	Block2	congruent/STIM_028.jpg	99
2251.066	0.858	857.5	congruent	Block2	congruent/STIM_029.jpg	100
2255.727	0.802	801.7	congruent	Block2	congruent/STIM_029.jpg	100
2259.592	0.555	555.0	congruent	Block2	congruent/STIM_029.jpg	100
2262.156	0.856	855.9	congruent	Block2	congruent/STIM_029.jpg	99
2265.082	0.841	841.4	congruent	Block2	congruent/STIM_029.jpg	99
2269.854	1.015	1014.7	incongruent	Block3	incongruent/STIM_000.jpg	100
2274.654	1.003	1002.6	incongruent	Block3	incongruent/STIM_000.jpg	100
2279.574	0.997	997.4	incongruent	Block3	incongruent/STIM_000.jpg	100
2283.359	0.913	912.6	incongruent	Block3	incongruent/STIM_000.jpg	99
2287.173	0.601	601.4	incongruent	Block3	incongruent/STIM_000.jpg	100
2291.612	0.497	497.1	incongruent	Block3	incongruent/STIM_001.jpg	100
2295.217	0.733	732.9	incongruent	Block3	incongruent/STIM_001.jpg	100
2298.27	0.614	614.4	incongruent	Block3	incongruent/STIM_001.jpg	99
2302.411	0.925	925.4	incongruent	Block3	incongruent/STIM_001.jpg	100
2306.875	0.73	730.3	incongruent	Block3	incongruent/STIM_001.jpg	99
2310.483	0.906	906.5	incongruent	Block3	incongruent/STIM_002.jpg	100
2314.156	0.968	968.5	incongruent	Block3	incongruent/STIM_002.jpg	100
2318.284	0.816	816.5	incongruent	Block3	incongruent/STIM_002.jpg	100
2321.413	0.635	634.6	incongruent	Block3	incongruent/STIM_002.jpg	99
2325.544	0.999	999.0	incongruent	Block3	incongruent/STIM_002.jpg	100
2329.928	1.031	1030.6	incongruent	Block3	incongruent/STIM_003.jpg	99
2334.114	0.798	798.5	incongruent	Block3	incongruent/STIM_003.jpg	100
2337.041	0.578	577.6	incongruent	Block3	incongruent/STIM_003.jpg	99
2340.239	0.583	582.6	incongruent	Block3	incongruent/STIM_003.jpg	100
2343.534	1.043	1042.8	incongruent	Block3	incongruent/STIM_003.jpg	99
2347.446	0.908	907.9	incongruent	Block3	incongruent/STIM_004.jpg	99
2351.736	0.753	752.9	incongruent	Block3	incongruent/STIM_004.jpg	100
2354.805	0.641	640.8	incongruent	Block3	incongruent/STIM_004.jpg	100
2357.624	0.942	941.7	incongruent	Block3	incongruent/STIM_004.jpg	99
2361.24	0.67	669.9	incongruent	Block3	incongruent/STIM_004.jpg	100
2365.368	0.612	612.1	incongruent	Block3	incongruent/STIM_005.jpg	99
2368.365	0.81	809.9	incongruent	Block3	incongruent/STIM_005.jpg	99
2372.796	0.541	541.1	incongruent	Block3	incongruent/STIM_005.jpg	100
2376.177	1.006	1006.5	incongruent	Block3	incongruent/STIM_005.jpg	99
2380.553	0.646	645.5	incongruent	Block3	incongruent/STIM_005.jpg	99
2384.75	0.67	669.8	incongruent	Block3	incongruent/STIM_006.jpg	100
2389.212	0.59	590.5	incongruent	Block3	incongruent/STIM_006.jpg	99
2392.974	0.766	766.2	incongruent	Block3	incongruent/STIM_006.jpg	100
2395.861	0.682	681.7	incongruent	Block3	incongruent/STIM_006.jpg	99
2399.465	0.588	588.3	incongruent	Block3	incongruent/STIM_006.jpg	100
2402.313	0.584	584.2	incongruent	Block3	incongruent/STIM_007.jpg	100
2406.366	1.033	1032.8	incongruent	Block3	incongruent/STIM_007.jpg	99
2410.562	0.758	758.4	incongruent	Block3	incongruent/STIM_007.jpg	99
2414.484	0.716	716.0	incongruent	Block3	incongruent/STIM_007.jpg	100
2417.881	0.983	983.2	incongruent	Block3	incongruent/STIM_007.jpg	100
2422.347	0.946	946.1	incongruent	Block3	incongruent/STIM_008.jpg	100
2426.272	0.612	612.2	incongruent	Block3	incongruent/STIM_008.jpg	100
2429.999	0.785	785.0	incongruent	Block3	incongruent/STIM_008.jpg	100
2434.541	0.905	905.4	incongruent	Block3	incongruent/STIM_008.jpg	99
2437.65	0.902	902.4	incongruent	Block3	incongruent/STIM_008.jpg	100
2441.968	0.686	685.9	incongruent	Block3	incongruent/STIM_009.jpg	100
2446.592	0.703	703.3	incongruent	Block3	incongruent/STIM_009.jpg	99
2450.056	0.923	922.7	incongruent	Block3	incongruent/STIM_009.jpg	99
2454.353	0.637	637.3	incongruent	Block3	incongruent/STIM_009.jpg	99
2457.439	0.948	947.7	incongruent	Block3	incongruent/STIM_009.jpg	99
2461.48	0.726	726.3	incongruent	Block3	incongruent/STIM_010.jpg	99
2464.783	0.979	979.3	incongruent	Block3	incongruent/STIM_010.jpg	100
2468.142	0.852	851.6	incongruent	Block3	incongruent/STIM_010.jpg	99
2472.103	0.574	574.3	incongruent	Block3	incongruent/STIM_010.jpg	99
2475.488	0.985	985.1	incongruent	Block3	incongruent/STIM_010.jpg	99
2479.191	0.63	630.2	incongruent	Block3	incongruent/STIM_011.jpg	100
2482.206	0.663	663.3	incongruent	Block3	incongruent/STIM_011.jpg	99
2486.207	0.764	764.0	incongruent	Block3	incongruent/STIM_011.jpg	99
2489.758	0.766	766.2	incongruent	Block3	incongruent/STIM_011.jpg	99
2493.731	0.508	508.2	incongruent	Block3	incongruent/STIM_011.jpg	99
2496.554	0.661	660.9	incongruent	Block3	incongruent/STIM_012.jpg	100
2500.731	0.609	609.4	incongruent	Block3	incongruent/STIM_012.jpg	100
2504.084	0.796	796.0	incongruent	Block3	incongruent/STIM_012.jpg	100
2506.907	0.888	887.7	incongruent	Block3	incongruent/STIM_012.jpg	100
2511.054	0.934	933.7	incongruent	Block3	incongruent/STIM_012.jpg	100
2514.4	0.923	922.8	incongruent	Block3	incongruent/STIM_013.jpg	99
2518.186	0.57	570.0	incongruent	Block3	incongruent/STIM_013.jpg	99
2521.332	0.957	956.8	incongruent	Block3	incongruent/STIM_013.jpg	100
2525.571	0.587	587.0	incongruent	Block3	incongruent/STIM_013.jpg	100
2528.863	0.726	725.5	incongruent	Block3	incongruent/STIM_013.jpg	100
2532.101	0.936	936.5	incongruent	Block3	incongruent/STIM_014.jpg	100
2535.8	1.029	1029.2	incongruent	Block3	incongruent/STIM_014.jpg	100
2539.375	0.624	623.9	incongruent	Block3	incongruent/STIM_014.jpg	100
2542.073	0.54	540.4	incongruent	Block3	incongruent/STIM_014.jpg	100
2545.986	0.506	505.9	incongruent	Block3	incongruent/STIM_014.jpg	99
2550.353	0.516	516.1	incongruent	Block3	incongruent/STIM_015.jpg	100
2553.674	1.02	1019.5	incongruent	Block3	incongruent/STIM_015.jpg	99
2556.958	0.764	763.9	incongruent	Block3	incongruent/STIM_015.jpg	99
2560.459	0.592	591.5	incongruent	Block3	incongruent/STIM_015.jpg	100
2563.207	0.818	818.2	incongruent	Block3	incongruent/STIM_015.jpg	99
2567.082	0.774	774.3	incongruent	Block3	incongruent/STIM_016.jpg	99
2571.813	0.632	632.2	incongruent	Block3	incongruent/STIM_016.jpg	100
2576.186	0.884	884.0	incongruent	Block3	incongruent/STIM_016.jpg	100
2579.937	0.976	975.8	incongruent	Block3	incongruent/STIM_016.jpg	99
2584.292	0.744	744.3	incongruent	Block3	incongruent/STIM_016.jpg	100
2587.469	0.572	571.7	incongruent	Block3	incongruent/STIM_017.jpg	99
2590.996	0.647	647.1	incongruent	Block3	incongruent/STIM_017.jpg	99
2594.432	0.572	572.4	incongruent	Block3	incongruent/STIM_017.jpg	100
2597.967	0.699	699.4	incongruent	Block3	incongruent/STIM_017.jpg	100
2602.045	0.925	925.1	incongruent	Block3	incongruent/STIM_017.jpg	99
2606.638	0.777	777.2	incongruent	Block3	incongruent/STIM_018.jpg	99
2611.098	0.656	655.7	incongruent	Block3	incongruent/STIM_018.jpg	99
2613.871	0.739	738.8	incongruent	Block3	incongruent/STIM_018.jpg	99
2617.428	0.86	859.8	incongruent	Block3	incongruent/STIM_018.jpg	99
2621.462	0.543	543.3	incongruent	Block3	incongruent/STIM_018.jpg	100
2624.817	0.573	573.1	incongruent	Block3	incongruent/STIM_019.jpg	100
2628.432	0.511	510.7	incongruent	Block3	incongruent/STIM_019.jpg	100
2631.562	0.597	596.7	incongruent	Block3	incongruent/STIM_019.jpg	100
2634.811	0.559	559.1	incongruent	Block3	incongruent/STIM_019.jpg	99
2637.965	0.862	861.9	incongruent	Block3	incongruent/STIM_019.jpg	100
2641.913	0.984	983.5	incongruent	Block3	incongruent/STIM_020.jpg	99
2646.027	0.549	549.0	incongruent	Block3	incongruent/STIM_020.jpg	99
2649.883	0.893	893.3	incongruent	Block3	incongruent/STIM_020.jpg	99
2654.154	0.746	746.2	incongruent	Block3	incongruent/STIM_020.jpg	100
2657.857	0.583	582.6	incongruent	Block3	incongruent/STIM_020.jpg	100
2661.974	0.79	790.5	incongruent	Block3	incongruent/STIM_021.jpg	99
2665.302	0.664	664.1	incongruent	Block3	incongruent/STIM_021.jpg	99
2668.89	0.638	638.1	incongruent	Block3	incongruent/STIM_021.jpg	99
2672.033	0.643	642.8	incongruent	Block3	incongruent/STIM_021.jpg	100
2676.228	0.587	587.1	incongruent	Block3	incongruent/STIM_021.jpg	100
2679.25	1.009	1009.1	incongruent	Block3	incongruent/STIM_022.jpg	99
2682.425	0.746	746.1	incongruent	Block3	incongruent/STIM_022.jpg	99
2685.774	0.918	917.7	incongruent	Block3	incongruent/STIM_022.jpg	99
2689.356	0.723	723.3	incongruent	Block3	incongruent/STIM_022.jpg	99
2692.961	0.53	529.5	incongruent	Block3	incongruent/STIM_022.jpg	100
2695.728	0.92	919.6	incongruent	Block3	incongruent/STIM_023.jpg	100
2699.831	0.525	524.8	incongruent	Block3	incongruent/STIM_023.jpg	100
2704.22	0.667	666.7	incongruent	Block3	incongruent/STIM_023.jpg	99
2708.329	0.504	503.9	incongruent	Block3	incongruent/STIM_023.jpg	100
2711.661	0.881	881.3	incongruent	Block3	incongruent/STIM_023.jpg	99
2715.816	0.839	838.8	incongruent	Block3	incongruent/STIM_024.jpg	99
2720.228	0.819	819.2	incongruent	Block3	incongruent/STIM_024.jpg	99
2724.931	0.924	924.5	incongruent	Block3	incongruent/STIM_024.jpg	99
2729.237	0.893	892.9	incongruent	Block3	incongruent/STIM_024.jpg	100
2732.807	1.052	1052.0	incongruent	Block3	incongruent/STIM_024.jpg	100
2737.054	0.854	854.1	incongruent	Block3	incongruent/STIM_025.jpg	99
2741.437	0.656	656.0	incongruent	Block3	incongruent/STIM_025.jpg	99
2744.321	0.622	622.1	incongruent	Block3	incongruent/STIM_025.jpg	99
2747.98	0.564	563.8	incongruent	Block3	incongruent/STIM_025.jpg	99
2752.188	0.694	694.2	incongruent	Block3	incongruent/STIM_025.jpg	100
2755.699	0.871	871.4	incongruent	Block3	incongruent/STIM_026.jpg	99
2760.247	0.634	633.5	incongruent	Block3	incongruent/STIM_026.jpg	99
2764.314	1.05	1050.1	incongruent	Block3	incongruent/STIM_026.jpg	100
2769.312	1.049	1049.2	incongruent	Block3	incongruent/STIM_026.jpg	100
2774.087	0.548	548.1	incongruent	Block3	incongruent/STIM_026.jpg	99
2778.25	0.828	827.9	incongruent	Block3	incongruent/STIM_027.jpg	99
2781.944	0.492	492.4	incongruent	Block3	incongruent/STIM_027.jpg	99
2784.813	0.658	657.5	incongruent	Block3	incongruent/STIM_027.jpg	100
2788.614	0.527	527.2	incongruent	Block3	incongruent/STIM_027.jpg	100
2791.906	0.57	569.5	incongruent	Block3	incongruent/STIM_027.jpg	99
2795.559	0.61	610.1	incongruent	Block3	incongruent/STIM_028.jpg	99
2799.175	0.886	886.4	incongruent	Block3	incongruent/STIM_028.jpg	99
2802.251	0.93	930.5	incongruent	Block3	incongruent/STIM_028.jpg	100
2805.602	1.03	1030.2	incongruent	Block3	incongruent/STIM_028.jpg	99
2809.128	0.501	500.8	incongruent	Block3	incongruent/STIM_028.jpg	100
2812.986	0.681	681.4	incongruent	Block3	incongruent/STIM_029.jpg	100
2816.958	0.806	805.8	incongruent	Block3	incongruent/STIM_029.jpg	100
2820.933	0.959	958.9	incongruent	Block3	incongruent/STIM_029.jpg	99
2825.533	1.049	1049.1	incongruent	Block3	incongruent/STIM_029.jpg	100
2830.158	0.572	571.6	incongruent	Block3	incongruent/STIM_029.jpg	100
2833.739	0.808	807.7	congruent	Block3	congruent/STIM_000.jpg	100
2838.516	0.538	538.2	congruent	Block3	congruent/STIM_000.jpg	100
2843.046	0.526	525.8	congruent	Block3	congruent/STIM_000.jpg	100
2845.836	0.631	630.7	congruent	Block3	congruent/STIM_000.jpg	100
2850.403	0.642	642.3	congruent	Block3	congruent/STIM_000.jpg	99
2854.848	0.896	895.9	congruent	Block3	congruent/STIM_001.jpg	99
2858.342	0.754	754.4	congruent	Block3	congruent/STIM_001.jpg	100
2861.978	0.522	522.5	congruent	Block3	congruent/STIM_001.jpg	99
2866.107	0.785	784.6	congruent	Block3	congruent/STIM_001.jpg	100
2870.302	0.542	542.4	congruent	Block3	congruent/STIM_001.jpg	100
2873.059	0.53	530.1	congruent	Block3	congruent/STIM_002.jpg	99
2876.156	0.537	536.7	congruent	Block3	congruent/STIM_002.jpg	99
2879.971	0.515	515.0	congruent	Block3	congruent/STIM_002.jpg	100
2883.903	0.599	599.3	congruent	Block3	congruent/STIM_002.jpg	99
2886.629	0.702	702.4	congruent	Block3	congruent/STIM_002.jpg	100
2890.914	0.898	898.3	congruent	Block3	congruent/STIM_003.jpg	100
2894.619	0.53	530.2	congruent	Block3	congruent/STIM_003.jpg	99
2897.86	0.802	802.1	congruent	Block3	congruent/STIM_003.jpg	99
2902.512	0.751	750.9	congruent	Block3	congruent/STIM_003.jpg	99
2907.009	0.502	501.9	congruent	Block3	congruent/STIM_003.jpg	100
2910.074	0.667	666.6	congruent	Block3	congruent/STIM_004.jpg	100
2914.646	0.691	690.7	congruent	Block3	congruent/STIM_004.jpg	100
2919.087	0.779	778.8	congruent	Block3	congruent/STIM_004.jpg	100
2923.631	0.861	860.6	congruent	Block3	congruent/STIM_004.jpg	100
2928.402	0.535	535.4	congruent	Block3	congruent/STIM_004.jpg	99
2931.665	0.549	548.7	congruent	Block3	congruent/STIM_005.jpg	100
2934.669	0.658	657.8	congruent	Block3	congruent/STIM_005.jpg	100
2937.805	0.891	891.1	congruent	Block3	congruent/STIM_005.jpg	99
2941.354	0.57	569.8	congruent	Block3	congruent/STIM_005.jpg	99
2944.195	0.661	660.6	congruent	Block3	congruent/STIM_005.jpg	99
2948.695	0.792	792.1	congruent	Block3	congruent/STIM_006.jpg	99
2952.409	0.793	793.4	congruent	Block3	congruent/STIM_006.jpg	100
2956.642	0.663	662.7	congruent	Block3	congruent/STIM_006.jpg	100
2961.299	0.711	710.7	congruent	Block3	congruent/STIM_006.jpg	100
2965.33	0.864	864.2	congruent	Block3	congruent/STIM_006.jpg	100
2969.128	0.752	752.3	congruent	Block3	congruent/STIM_007.jpg	99
2972.734	0.611	611.4	congruent	Block3	congruent/STIM_007.jpg	100
2977.018	0.889	888.7	congruent	Block3	congruent/STIM_007.jpg	99
2980.088	0.735	734.9	congruent	Block3	congruent/STIM_007.jpg	99
2982.862	0.524	524.0	congruent	Block3	congruent/STIM_007.jpg	100
2986.473	0.86	859.7	congruent	Block3	congruent/STIM_008.jpg	100
2990.587	0.647	647.2	congruent	Block3	congruent/STIM_008.jpg	99
2994.234	0.787	787.1	congruent	Block3	congruent/STIM_008.jpg	99
2997.413	0.668	667.8	congruent	Block3	congruent/STIM_008.jpg	100
3000.905	0.532	532.5	congruent	Block3	congruent/STIM_008.jpg	99
3004.477	0.556	555.7	congruent	Block3	congruent/STIM_009.jpg	99
3007.965	0.766	766.3	congruent	Block3	congruent/STIM_009.jpg	99
3011.794	0.689	689.4	congruent	Block3	congruent/STIM_009.jpg	100
3015.687	0.844	844.2	congruent	Block3	congruent/STIM_009.jpg	99
3018.7	0.621	621.1	congruent	Block3	congruent/STIM_009.jpg	100
3022.155	0.774	773.6	congruent	Block3	congruent/STIM_010.jpg	99
3024.975	0.693	693.0	congruent	Block3	congruent/STIM_010.jpg	99
3029.037	0.53	529.7	congruent	Block3	congruent/STIM_010.jpg	99
3033.404	0.889	889.3	congruent	Block3	congruent/STIM_010.jpg	99
3037.897	0.791	791.2	congruent	Block3	congruent/STIM_010.jpg	100
3041.205	0.661	660.9	congruent	Block3	congruent/STIM_011.jpg	99
3045.069	0.576	576.1	congruent	Block3	congruent/STIM_011.jpg	99
3047.779	0.776	775.7	congruent	Block3	congruent/STIM_011.jpg	100
3051.476	0.778	777.7	congruent	Block3	congruent/STIM_011.jpg	100
3055.389	0.563	563.4	congruent	Block3	congruent/STIM_011.jpg	99
3059.693	0.762	761.9	congruent	Block3	congruent/STIM_012.jpg	100
3063.618	0.696	696.0	congruent	Block3	congruent/STIM_012.jpg	100
3066.618	0.505	505.0	congruent	Block3	congruent/STIM_012.jpg	100
3070.692	0.758	757.7	congruent	Block3	congruent/STIM_012.jpg	100
3075.276	0.648	648.0	congruent	Block3	congruent/STIM_012.jpg	99
3078.457	0.566	565.5	congruent	Block3	congruent/STIM_013.jpg	100
3082.01	0.792	791.6	congruent	Block3	congruent/STIM_013.jpg	99
3086.493	0.859	859.1	congruent	Block3	congruent/STIM_013.jpg	99
3090.75	0.895	895.0	congruent	Block3	congruent/STIM_013.jpg	100
3094.032	0.7	699.7	congruent	Block3	congruent/STIM_013.jpg	100
3096.896	0.729	729.2	congruent	Block3	congruent/STIM_014.jpg	99
3099.651	0.539	539.3	congruent	Block3	congruent/STIM_014.jpg	99
3103.706	0.707	707.3	congruent	Block3	congruent/STIM_014.jpg	100
3108.08	0.839	838.6	congruent	Block3	congruent/STIM_014.jpg	99
3112.187	0.568	568.4	congruent	Block3	congruent/STIM_014.jpg	99
3116.626	0.531	530.7	congruent	Block3	congruent/STIM_015.jpg	99
3120.929	0.725	725.3	congruent	Block3	congruent/STIM_015.jpg	99
3125.11	0.78	779.6	congruent	Block3	congruent/STIM_015.jpg	100
3128.148	0.846	846.5	congruent	Block3	congruent/STIM_015.jpg	100
3132.115	0.674	673.6	congruent	Block3	congruent/STIM_015.jpg	99
3136.406	0.837	836.8	congruent	Block3	congruent/STIM_016.jpg	100
3140.045	0.817	817.0	congruent	Block3	congruent/STIM_016.jpg	100
3144.496	0.818	818.1	congruent	Block3	congruent/STIM_016.jpg	100
3148.625	0.752	751.9	congruent	Block3	congruent/STIM_016.jpg	100
3152.619	0.569	568.7	congruent	Block3	congruent/STIM_016.jpg	100
3155.425	0.699	698.7	congruent	Block3	congruent/STIM_017.jpg	99
3158.672	0.641	641.3	congruent	Block3	congruent/STIM_017.jpg	99
3161.594	0.774	773.7	congruent	Block3	congruent/STIM_017.jpg	99
3165.404	0.86	860.5	congruent	Block3	congruent/STIM_017.jpg	100
3169.911	0.712	712.4	congruent	Block3	congruent/STIM_017.jpg	99
3174.021	0.819	819.1	congruent	Block3	congruent/STIM_018.jpg	99
3178.036	0.572	571.9	congruent	Block3	congruent/STIM_018.jpg	99
3182.361	0.553	553.4	congruent	Block3	congruent/STIM_018.jpg	99
3185.131	0.873	873.3	congruent	Block3	congruent/STIM_018.jpg	99
3189.529	0.726	725.6	congruent	Block3	congruent/STIM_018.jpg	99
3193.638	0.837	837.1	congruent	Block3	congruent/STIM_019.jpg	99
3196.608	0.856	855.5	congruent	Block3	congruent/STIM_019.jpg	100
3200.427	0.631	631.2	congruent	Block3	congruent/STIM_019.jpg	99
3203.671	0.606	605.9	congruent	Block3	congruent/STIM_019.jpg	100
3206.48	0.9	900.2	congruent	Block3	congruent/STIM_019.jpg	99
3209.749	0.82	819.9	congruent	Block3	congruent/STIM_020.jpg	99
3213.015	0.698	697.7	congruent	Block3	congruent/STIM_020.jpg	99
3217.064	0.506	506.1	congruent	Block3	congruent/STIM_020.jpg	99
3219.633	0.545	544.7	congruent	Block3	congruent/STIM_020.jpg	100
3223.786	0.503	503.0	congruent	Block3	congruent/STIM_020.jpg	100
3226.672	0.854	853.5	congruent	Block3	congruent/STIM_021.jpg	99
3231.125	0.584	584.2	congruent	Block3	congruent/STIM_021.jpg	100
3235.293	0.769	768.9	congruent	Block3	congruent/STIM_021.jpg	100
3238.165	0.691	690.8	congruent	Block3	congruent/STIM_021.jpg	99
3242.456	0.77	769.5	congruent	Block3	congruent/STIM_021.jpg	99
3245.505	0.651	651.3	congruent	Block3	congruent/STIM_022.jpg	99
3249.493	0.645	645.3	congruent	Block3	congruent/STIM_022.jpg	99
3253.247	0.869	869.2	congruent	Block3	congruent/STIM_022.jpg	100
3257.429	0.565	564.8	congruent	Block3	congruent/STIM_022.jpg	99
3260.725	0.548	548.0	congruent	Block3	congruent/STIM_022.jpg	100
3263.813	0.737	736.9	congruent	Block3	congruent/STIM_023.jpg	99
3267.714	0.59	590.1	congruent	Block3	congruent/STIM_023.jpg	100
3271.074	0.86	860.5	congruent	Block3	congruent/STIM_023.jpg	100
3275.754	0.711	711.1	congruent	Block3	congruent/STIM_023.jpg	100
3280.33	0.517	517.3	congruent	Block3	congruent/STIM_023.jpg	99
3284.544	0.857	856.6	congruent	Block3	congruent/STIM_024.jpg	100
3289.106	0.536	535.7	congruent	Block3	congruent/STIM_024.jpg	100
3293.411	0.583	583.1	congruent	Block3	congruent/STIM_024.jpg	99
3296.276	0.624	623.8	congruent	Block3	congruent/STIM_024.jpg	100
3300.752	0.708	707.9	congruent	Block3	congruent/STIM_024.jpg	99
3305.036	0.877	877.1	congruent	Block3	congruent/STIM_025.jpg	99
3309.885	0.772	772.1	congruent	Block3	congruent/STIM_025.jpg	99
3312.842	0.894	893.6	congruent	Block3	congruent/STIM_025.jpg	100
3316.202	0.766	766.4	congruent	Block3	congruent/STIM_025.jpg	99
3320.433	0.788	787.7	congruent	Block3	congruent/STIM_025.jpg	99
3323.435	0.585	584.9	congruent	Block3	congruent/STIM_026.jpg	99
3326.968	0.622	621.8	congruent	Block3	congruent/STIM_026.jpg	100
3330.939	0.519	518.9	congruent	Block3	congruent/STIM_026.jpg	99
3334.652	0.84	840.3	congruent	Block3	congruent/STIM_026.jpg	99
3339.04	0.709	709.2	congruent	Block3	congruent/STIM_026.jpg	100
3342.252	0.764	764.3	congruent	Block3	congruent/STIM_027.jpg	100
3346.092	0.661	660.7	congruent	Block3	congruent/STIM_027.jpg	100
3349.842	0.733	732.7	congruent	Block3	congruent/STIM_027.jpg	99
3353.162	0.85	849.5	congruent	Block3	congruent/STIM_027.jpg	100
3357.915	0.517	516.6	congruent	Block3	congruent/STIM_027.jpg	99
3361.182	0.818	818.3	congruent	Block3	congruent/STIM_028.jpg	99
3365.232	0.834	834.0	congruent	Block3	congruent/STIM_028.jpg	100
3369.807	0.6	599.6	congruent	Block3	congruent/STIM_028.jpg	99
3373.282	0.893	892.6	congruent	Block3	congruent/STIM_028.jpg	99
3376.828	0.833	833.1	congruent	Block3	congruent/STIM_028.jpg	99
3380.283	0.81	809.6	congruent	Block3	congruent/STIM_029.jpg	100
3384.686	0.624	623.6	congruent	Block3	congruent/STIM_029.jpg	99
3388.541	0.814	813.9	congruent	Block3	congruent/STIM_029.jpg	99
3392.752	0.869	868.9	congruent	Block3	congruent/STIM_029.jpg	99
3396.873	0.843	842.8	congruent	Block3	congruent/STIM_029.jpg	99
