onset	duration	response_time_ms	trial_type	learning_stage	stimulus	response_port
0.0	1.053	1053.4	incongruent	Block1	incongruent/STIM_000.jpg	100
4.22	1.05	1050.3	incongruent	Block1	incongruent/STIM_000.jpg	100
7.653	0.57	570.2	incongruent	Block1	incongruent/STIM_000.jpg	99
10.647	0.477	476.8	incongruent	Block1	incongruent/STIM_000.jpg	99
14.434	0.866	865.7	incongruent	Block1	incongruent/STIM_000.jpg	99
17.461	0.609	609.2	incongruent	Block1	incongruent/STIM_001.jpg	100
21.148	0.65	650.0	incongruent	Block1	incongruent/STIM_001.jpg	99
24.696	0.649	649.2	incongruent	Block1	incongruent/STIM_001.jpg	99
27.716	0.935	934.7	incongruent	Block1	incongruent/STIM_001.jpg	99
32.27	0.853	853.3	incongruent	Block1	incongruent/STIM_001.jpg	100
36.091	0.59	590.3	incongruent	Block1	incongruent/STIM_002.jpg	99
40.03	0.638	638.0	incongruent	Block1	incongruent/STIM_002.jpg	100
43.918	0.917	916.7	incongruent	Block1	incongruent/STIM_002.jpg	100
47.124	0.508	508.4	incongruent	Block1	incongruent/STIM_002.jpg	99
50.274	0.548	548.4	incongruent	Block1	incongruent/STIM_002.jpg	99
54.143	0.739	739.4	incongruent	Block1	incongruent/STIM_003.jpg	100
57.91	1.012	1011.9	incongruent	Block1	incongruent/STIM_003.jpg	99
61.489	0.712	711.6	incongruent	Block1	incongruent/STIM_003.jpg	100
65.738	0.769	769.1	incongruent	Block1	incongruent/STIM_003.jpg	100
69.115	0.894	893.7	incongruent	Block1	incongruent/STIM_003.jpg	99
73.152	1.009	1009.2	incongruent	Block1	incongruent/STIM_004.jpg	100
76.97	0.538	538.1	incongruent	Block1	incongruent/STIM_004.jpg	100
80.095	0.508	507.7	incongruent	Block1	incongruent/STIM_004.jpg	100
82.611	0.509	508.7	incongruent	Block1	incongruent/STIM_004.jpg	99
85.175	0.436	436.1	incongruent	Block1	incongruent/STIM_004.jpg	100
87.963	0.749	749.2	incongruent	Block1	incongruent/STIM_005.jpg	100
90.749	0.73	730.4	incongruent	Block1	incongruent/STIM_005.jpg	99
95.3	0.603	602.7	incongruent	Block1	incongruent/STIM_005.jpg	99
98.08	0.522	521.9	incongruent	Block1	incongruent/STIM_005.jpg	100
101.538	0.594	593.6	incongruent	Block1	incongruent/STIM_005.jpg	100
104.966	0.928	927.8	incongruent	Block1	incongruent/STIM_006.jpg	99
109.779	0.66	659.9	incongruent	Block1	incongruent/STIM_006.jpg	99
113.273	0.688	688.3	incongruent	Block1	incongruent/STIM_006.jpg	100
117.151	0.943	943.0	incongruent	Block1	incongruent/STIM_006.jpg	99
120.882	0.65	649.6	incongruent	Block1	incongruent/STIM_006.jpg	100
124.336	1.023	1022.6	incongruent	Block1	incongruent/STIM_007.jpg	100
128.99	1.057	1057.3	incongruent	Block1	incongruent/STIM_007.jpg	99
133.269	0.602	602.1	incongruent	Block1	incongruent/STIM_007.jpg	99
136.794	0.817	816.8	incongruent	Block1	incongruent/STIM_007.jpg	100
140.923	0.837	836.9	incongruent	Block1	incongruent/STIM_007.jpg	99
144.356	0.79	790.1	incongruent	Block1	incongruent/STIM_008.jpg	100
148.216	0.581	581.1	incongruent	Block1	incongruent/STIM_008.jpg	100
151.856	0.896	896.5	incongruent	Block1	incongruent/STIM_008.jpg	100
156.369	0.82	820.1	incongruent	Block1	incongruent/STIM_008.jpg	100
160.217	0.746	746.4	incongruent	Block1	incongruent/STIM_008.jpg	100
164.302	0.722	722.1	incongruent	Block1	incongruent/STIM_009.jpg	99
167.652	0.715	715.3	incongruent	Block1	incongruent/STIM_009.jpg	100
172.153	1.017	1016.6	incongruent	Block1	incongruent/STIM_009.jpg	100
177.081	0.779	778.6	incongruent	Block1	incongruent/STIM_009.jpg	99
181.191	0.624	624.1	incongruent	Block1	incongruent/STIM_009.jpg	99
185.668	0.827	827.2	incongruent	Block1	incongruent/STIM_010.jpg	100
190.377	0.599	599.2	incongruent	Block1	incongruent/STIM_010.jpg	100
193.691	0.996	996.5	incongruent	Block1	incongruent/STIM_010.jpg	99
198.477	0.826	825.9	incongruent	Block1	incongruent/STIM_010.jpg	99
203.017	0.812	812.5	incongruent	Block1	incongruent/STIM_010.jpg	99
206.146	1.126	1126.2	incongruent	Block1	incongruent/STIM_011.jpg	100
209.354	1.051	1051.1	incongruent	Block1	incongruent/STIM_011.jpg	99
213.061	0.695	695.2	incongruent	Block1	incongruent/STIM_011.jpg	100
216.031	0.873	872.8	incongruent	Block1	incongruent/STIM_011.jpg	99
219.091	0.6	599.9	incongruent	Block1	incongruent/STIM_011.jpg	99
222.034	1.009	1008.7	incongruent	Block1	incongruent/STIM_012.jpg	100
226.675	1.081	1080.8	incongruent	Block1	incongruent/STIM_012.jpg	100
231.733	0.819	818.9	incongruent	Block1	incongruent/STIM_012.jpg	100
235.32	0.613	612.6	incongruent	Block1	incongruent/STIM_012.jpg	99
237.982	0.716	715.8	incongruent	Block1	incongruent/STIM_012.jpg	99
242.377	0.658	658.5	incongruent	Block1	incongruent/STIM_013.jpg	99
246.297	0.731	731.3	incongruent	Block1	incongruent/STIM_013.jpg	99
249.609	0.815	814.7	incongruent	Block1	incongruent/STIM_013.jpg	100
254.246	0.854	853.6	incongruent	Block1	incongruent/STIM_013.jpg	100
258.811	0.712	712.1	incongruent	Block1	incongruent/STIM_013.jpg	100
263.253	1.059	1058.6	incongruent	Block1	incongruent/STIM_014.jpg	100
266.944	0.558	558.1	incongruent	Block1	incongruent/STIM_014.jpg	99
270.011	0.591	591.4	incongruent	Block1	incongruent/STIM_014.jpg	99
273.514	0.865	864.7	incongruent	Block1	incongruent/STIM_014.jpg	99
277.926	0.856	855.9	incongruent	Block1	incongruent/STIM_014.jpg	100
282.016	0.582	581.8	incongruent	Block1	incongruent/STIM_015.jpg	99
285.141	0.995	995.0	incongruent	Block1	incongruent/STIM_015.jpg	100
288.886	0.806	806.2	incongruent	Block1	incongruent/STIM_015.jpg	100
292.211	0.627	627.2	incongruent	Block1	incongruent/STIM_015.jpg	99
295.226	0.593	593.1	incongruent	Block1	incongruent/STIM_015.jpg	100
299.573	0.578	578.3	incongruent	Block1	incongruent/STIM_016.jpg	99
302.91	0.81	809.8	incongruent	Block1	incongruent/STIM_016.jpg	99
307.704	0.959	959.3	incongruent	Block1	incongruent/STIM_016.jpg	100
311.262	0.471	470.8	incongruent	Block1	incongruent/STIM_016.jpg	99
314.402	0.596	595.9	incongruent	Block1	incongruent/STIM_016.jpg	99
318.287	1.011	1010.8	incongruent	Block1	incongruent/STIM_017.jpg	100
322.582	0.939	938.7	incongruent	Block1	incongruent/STIM_017.jpg	100
326.158	0.958	958.3	incongruent	Block1	incongruent/STIM_017.jpg	100
329.176	0.738	738.5	incongruent	Block1	incongruent/STIM_017.jpg	99
332.593	0.771	770.6	incongruent	Block1	incongruent/STIM_017.jpg	99
336.69	0.928	927.7	incongruent	Block1	incongruent/STIM_018.jpg	100
340.821	0.745	744.7	incongruent	Block1	incongruent/STIM_018.jpg	100
345.077	0.555	555.4	incongruent	Block1	incongruent/STIM_018.jpg	100
348.811	0.775	775.0	incongruent	Block1	incongruent/STIM_018.jpg	100
353.56	0.614	614.2	incongruent	Block1	incongruent/STIM_018.jpg	99
357.997	0.699	699.4	incongruent	Block1	incongruent/STIM_019.jpg	100
361.866	0.861	860.9	incongruent	Block1	incongruent/STIM_019.jpg	100
365.047	0.996	995.8	incongruent	Block1	incongruent/STIM_019.jpg	100
369.916	0.794	794.3	incongruent	Block1	incongruent/STIM_019.jpg	99
374.092	0.532	531.7	incongruent	Block1	incongruent/STIM_019.jpg	100
377.85	0.974	974.0	incongruent	Block1	incongruent/STIM_020.jpg	100
382.462	0.603	603.3	incongruent	Block1	incongruent/STIM_020.jpg	99
385.523	0.571	570.6	incongruent	Block1	incongruent/STIM_020.jpg	100
389.773	0.497	497.0	incongruent	Block1	incongruent/STIM_020.jpg	100
392.594	0.608	607.5	incongruent	Block1	incongruent/STIM_020.jpg	99
395.82	1.105	1104.9	incongruent	Block1	incongruent/STIM_021.jpg	99
399.2	0.728	728.5	incongruent	Block1	incongruent/STIM_021.jpg	99
403.059	0.559	559.1	incongruent	Block1	incongruent/STIM_021.jpg	99
406.307	0.492	491.7	incongruent	Block1	incongruent/STIM_021.jpg	100
409.332	0.582	582.2	incongruent	Block1	incongruent/STIM_021.jpg	99
413.216	1.108	1107.6	incongruent	Block1	incongruent/STIM_022.jpg	100
418.058	0.923	923.0	incongruent	Block1	incongruent/STIM_022.jpg	100
422.319	0.773	773.4	incongruent	Block1	incongruent/STIM_022.jpg	100
426.833	0.531	531.1	incongruent	Block1	incongruent/STIM_022.jpg	99
430.744	0.723	722.6	incongruent	Block1	incongruent/STIM_022.jpg	99
434.856	0.588	588.4	incongruent	Block1	incongruent/STIM_023.jpg	100
437.954	0.9	899.9	incongruent	Block1	incongruent/STIM_023.jpg	100
441.622	1.007	1007.3	incongruent	Block1	incongruent/STIM_023.jpg	100
446.036	0.941	941.1	incongruent	Block1	incongruent/STIM_023.jpg	99
450.83	0.853	853.2	incongruent	Block1	incongruent/STIM_023.jpg	99
453.855	1.124	1123.9	incongruent	Block1	incongruent/STIM_024.jpg	99
457.911	0.994	994.2	incongruent	Block1	incongruent/STIM_024.jpg	100
461.839	0.932	932.4	incongruent	Block1	incongruent/STIM_024.jpg	99
464.824	0.692	691.5	incongruent	Block1	incongruent/STIM_024.jpg	99
468.279	0.691	691.1	incongruent	Block1	incongruent/STIM_024.jpg	100
472.913	0.876	875.7	incongruent	Block1	incongruent/STIM_025.jpg	99
476.043	0.939	938.6	incongruent	Block1	incongruent/STIM_025.jpg	100
480.303	0.77	769.9	incongruent	Block1	incongruent/STIM_025.jpg	100
484.326	0.979	979.4	incongruent	Block1	incongruent/STIM_025.jpg	100
488.112	0.717	717.3	incongruent	Block1	incongruent/STIM_025.jpg	100
491.717	1.121	1121.1	incongruent	Block1	incongruent/STIM_026.jpg	100
495.761	0.775	774.7	incongruent	Block1	incongruent/STIM_026.jpg	99
498.975	0.502	501.8	incongruent	Block1	incongruent/STIM_026.jpg	100
502.275	0.86	860.3	incongruent	Block1	incongruent/STIM_026.jpg	100
506.319	0.828	827.8	incongruent	Block1	incongruent/STIM_026.jpg	99
509.156	0.583	582.6	incongruent	Block1	incongruent/STIM_027.jpg	99
513.687	0.571	570.7	incongruent	Block1	incongruent/STIM_027.jpg	99
517.575	0.96	960.0	incongruent	Block1	incongruent/STIM_027.jpg	99
522.444	0.46	459.7	incongruent	Block1	incongruent/STIM_027.jpg	100
526.872	0.665	665.4	incongruent	Block1	incongruent/STIM_027.jpg	100
530.994	0.999	999.1	incongruent	Block1	incongruent/STIM_028.jpg	99
534.005	0.749	748.6	incongruent	Block1	incongruent/STIM_028.jpg	99
536.839	0.808	808.5	incongruent	Block1	incongruent/STIM_028.jpg	100
539.703	0.934	933.5	incongruent	Block1	incongruent/STIM_028.jpg	99
542.683	0.876	876.1	incongruent	Block1	incongruent/STIM_028.jpg	99
546.346	1.137	1136.6	incongruent	Block1	incongruent/STIM_029.jpg	100
549.917	0.958	958.3	incongruent	Block1	incongruent/STIM_029.jpg	99
553.957	0.873	872.6	incongruent	Block1	incongruent/STIM_029.jpg	100
556.913	0.72	719.7	incongruent	Block1	incongruent/STIM_029.jpg	100
559.787	0.763	763.0	incongruent	Block1	incongruent/STIM_029.jpg	99
562.681	0.55	549.5	congruent	Block1	congruent/STIM_000.jpg	99
566.142	0.542	541.7	congruent	Block1	congruent/STIM_000.jpg	100
568.965	0.548	547.6	congruent	Block1	congruent/STIM_000.jpg	99
571.827	0.548	548.3	congruent	Block1	congruent/STIM_000.jpg	99
574.455	0.451	451.2	congruent	Block1	congruent/STIM_000.jpg	100
577.149	0.539	538.9	congruent	Block1	congruent/STIM_001.jpg	99
580.828	0.541	540.8	congruent	Block1	congruent/STIM_001.jpg	100
584.728	0.672	672.4	congruent	Block1	congruent/STIM_001.jpg	99
587.758	0.566	566.2	congruent	Block1	congruent/STIM_001.jpg	100
592.006	0.662	661.9	congruent	Block1	congruent/STIM_001.jpg	100
594.767	0.411	411.2	congruent	Block1	congruent/STIM_002.jpg	100
597.236	0.41	410.2	congruent	Block1	congruent/STIM_002.jpg	99
600.197	0.664	663.6	congruent	Block1	congruent/STIM_002.jpg	100
603.252	0.456	455.7	congruent	Block1	congruent/STIM_002.jpg	100
606.983	0.443	442.6	congruent	Block1	congruent/STIM_002.jpg	100
610.597	0.492	492.3	congruent	Block1	congruent/STIM_003.jpg	100
614.076	0.448	448.1	congruent	Block1	congruent/STIM_003.jpg	100
617.275	0.426	425.6	congruent	Block1	congruent/STIM_003.jpg	100
620.126	0.462	462.5	congruent	Block1	congruent/STIM_003.jpg	99
623.124	0.594	594.5	congruent	Block1	congruent/STIM_003.jpg	100
625.902	0.609	609.3	congruent	Block1	congruent/STIM_004.jpg	99
629.141	0.487	487.1	congruent	Block1	congruent/STIM_004.jpg	99
633.338	0.689	689.4	congruent	Block1	congruent/STIM_004.jpg	99
637.709	0.558	557.5	congruent	Block1	congruent/STIM_004.jpg	99
641.229	0.396	395.5	congruent	Block1	congruent/STIM_004.jpg	100
645.5	0.578	578.3	congruent	Block1	congruent/STIM_005.jpg	99
649.966	0.415	415.4	congruent	Block1	congruent/STIM_005.jpg	100
653.14	0.593	592.7	congruent	Block1	congruent/STIM_005.jpg	100
656.872	0.414	414.2	congruent	Block1	congruent/STIM_005.jpg	99
661.059	0.406	406.1	congruent	Block1	congruent/STIM_005.jpg	99
663.879	0.663	662.8	congruent	Block1	congruent/STIM_006.jpg	99
667.217	0.433	433.0	congruent	Block1	congruent/STIM_006.jpg	100
669.867	0.415	415.1	congruent	Block1	congruent/STIM_006.jpg	100
673.376	0.426	426.2	congruent	Block1	congruent/STIM_006.jpg	99
677.33	0.468	468.2	congruent	Block1	congruent/STIM_006.jpg	99
680.421	0.534	533.5	congruent	Block1	congruent/STIM_007.jpg	100
684.89	0.485	485.2	congruent	Block1	congruent/STIM_007.jpg	100
688.166	0.435	435.0	congruent	Block1	congruent/STIM_007.jpg	99
691.308	0.564	563.6	congruent	Block1	congruent/STIM_007.jpg	100
694.115	0.559	559.1	congruent	Block1	congruent/STIM_007.jpg	100
697.146	0.435	434.8	congruent	Block1	congruent/STIM_008.jpg	99
699.677	0.596	596.4	congruent	Block1	congruent/STIM_008.jpg	100
702.651	0.475	474.8	congruent	Block1	congruent/STIM_008.jpg	99
705.296	0.43	429.5	congruent	Block1	congruent/STIM_008.jpg	99
708.737	0.513	513.0	congruent	Block1	congruent/STIM_008.jpg	99
712.929	0.562	561.8	congruent	Block1	congruent/STIM_009.jpg	99
715.783	0.402	402.5	congruent	Block1	congruent/STIM_009.jpg	100
720.015	0.484	484.5	congruent	Block1	congruent/STIM_009.jpg	100
723.854	0.572	572.0	congruent	Block1	congruent/STIM_009.jpg	99
726.802	0.609	609.3	congruent	Block1	congruent/STIM_009.jpg	99
730.725	0.529	529.1	congruent	Block1	congruent/STIM_010.jpg	99
733.999	0.397	396.7	congruent	Block1	congruent/STIM_010.jpg	99
737.044	0.679	679.4	congruent	Block1	congruent/STIM_010.jpg	100
740.261	0.659	658.6	congruent	Block1	congruent/STIM_010.jpg	99
743.392	0.492	491.7	congruent	Block1	congruent/STIM_010.jpg	99
745.916	0.544	543.5	congruent	Block1	congruent/STIM_011.jpg	100
750.344	0.543	542.7	congruent	Block1	congruent/STIM_011.jpg	100
753.985	0.394	394.1	congruent	Block1	congruent/STIM_011.jpg	99
757.462	0.42	419.5	congruent	Block1	congruent/STIM_011.jpg	99
761.229	0.623	623.3	congruent	Block1	congruent/STIM_011.jpg	99
765.696	0.464	463.9	congruent	Block1	congruent/STIM_012.jpg	99
768.668	0.456	455.6	congruent	Block1	congruent/STIM_012.jpg	100
772.38	0.451	450.9	congruent	Block1	congruent/STIM_012.jpg	99
775.171	0.63	630.2	congruent	Block1	congruent/STIM_012.jpg	99
779.637	0.425	424.7	congruent	Block1	congruent/STIM_012.jpg	99
783.162	0.594	594.3	congruent	Block1	congruent/STIM_013.jpg	100
786.47	0.423	423.4	congruent	Block1	congruent/STIM_013.jpg	99
790.579	0.585	584.8	congruent	Block1	congruent/STIM_013.jpg	100
794.387	0.58	579.9	congruent	Block1	congruent/STIM_013.jpg	100
798.697	0.496	496.5	congruent	Block1	congruent/STIM_013.jpg	99
803.155	0.507	507.5	congruent	Block1	congruent/STIM_014.jpg	99
806.538	0.55	550.0	congruent	Block1	congruent/STIM_014.jpg	99
809.345	0.602	602.3	congruent	Block1	congruent/STIM_014.jpg	100
813.245	0.606	606.4	congruent	Block1	congruent/STIM_014.jpg	100
817.741	0.641	640.9	congruent	Block1	congruent/STIM_014.jpg	100
821.476	0.437	436.7	congruent	Block1	congruent/STIM_015.jpg	100
824.541	0.472	471.5	congruent	Block1	congruent/STIM_015.jpg	99
827.115	0.51	509.8	congruent	Block1	congruent/STIM_015.jpg	100
829.829	0.668	668.5	congruent	Block1	congruent/STIM_015.jpg	99
834.128	0.682	682.5	congruent	Block1	congruent/STIM_015.jpg	100
837.132	0.495	494.9	congruent	Block1	congruent/STIM_016.jpg	100
840.186	0.602	602.1	congruent	Block1	congruent/STIM_016.jpg	99
844.332	0.571	571.1	congruent	Block1	congruent/STIM_016.jpg	100
848.107	0.65	649.7	congruent	Block1	congruent/STIM_016.jpg	100
850.824	0.453	452.7	congruent	Block1	congruent/STIM_016.jpg	100
854.728	0.64	639.9	congruent	Block1	congruent/STIM_017.jpg	100
858.799	0.61	610.0	congruent	Block1	congruent/STIM_017.jpg	100
863.014	0.483	482.8	congruent	Block1	congruent/STIM_017.jpg	99
865.969	0.437	437.0	congruent	Block1	congruent/STIM_017.jpg	99
868.912	0.42	419.7	congruent	Block1	congruent/STIM_017.jpg	100
872.455	0.59	590.5	congruent	Block1	congruent/STIM_018.jpg	99
876.405	0.586	586.5	congruent	Block1	congruent/STIM_018.jpg	99
879.187	0.496	495.8	congruent	Block1	congruent/STIM_018.jpg	99
883.109	0.607	606.8	congruent	Block1	congruent/STIM_018.jpg	100
887.502	0.598	597.9	congruent	Block1	congruent/STIM_018.jpg	99
891.332	0.486	486.1	congruent	Block1	congruent/STIM_019.jpg	99
895.113	0.501	501.0	congruent	Block1	congruent/STIM_019.jpg	99
898.77	0.406	405.6	congruent	Block1	congruent/STIM_019.jpg	99
901.955	0.446	445.9	congruent	Block1	congruent/STIM_019.jpg	99
905.715	0.491	491.1	congruent	Block1	congruent/STIM_019.jpg	99
909.964	0.591	591.3	congruent	Block1	congruent/STIM_020.jpg	100
913.254	0.528	528.5	congruent	Block1	congruent/STIM_020.jpg	100
917.088	0.56	559.9	congruent	Block1	congruent/STIM_020.jpg	99
920.761	0.415	415.2	congruent	Block1	congruent/STIM_020.jpg	100
925.166	0.486	486.4	congruent	Block1	congruent/STIM_020.jpg	100
929.608	0.469	469.1	congruent	Block1	congruent/STIM_021.jpg	100
933.946	0.616	616.0	congruent	Block1	congruent/STIM_021.jpg	100
936.824	0.433	432.8	congruent	Block1	congruent/STIM_021.jpg	99
940.152	0.639	638.6	congruent	Block1	congruent/STIM_021.jpg	100
944.633	0.464	463.6	congruent	Block1	congruent/STIM_021.jpg	99
947.388	0.671	670.9	congruent	Block1	congruent/STIM_022.jpg	100
950.665	0.639	638.9	congruent	Block1	congruent/STIM_022.jpg	99
953.77	0.437	437.1	congruent	Block1	congruent/STIM_022.jpg	100
958.047	0.534	533.9	congruent	Block1	congruent/STIM_022.jpg	99
962.489	0.561	560.6	congruent	Block1	congruent/STIM_022.jpg	99
965.828	0.558	558.3	congruent	Block1	congruent/STIM_023.jpg	99
969.516	0.534	533.6	congruent	Block1	congruent/STIM_023.jpg	100
972.814	0.441	440.6	congruent	Block1	congruent/STIM_023.jpg	99
975.265	0.538	537.6	congruent	Block1	congruent/STIM_023.jpg	99
979.271	0.528	528.4	congruent	Block1	congruent/STIM_023.jpg	100
982.957	0.593	593.4	congruent	Block1	congruent/STIM_024.jpg	99
986.161	0.413	412.7	congruent	Block1	congruent/STIM_024.jpg	100
990.424	0.53	530.4	congruent	Block1	congruent/STIM_024.jpg	99
993.3	0.482	481.8	congruent	Block1	congruent/STIM_024.jpg	100
996.361	0.487	486.7	congruent	Block1	congruent/STIM_024.jpg	100
998.895	0.671	670.7	congruent	Block1	congruent/STIM_025.jpg	99
1003.393	0.646	646.5	congruent	Block1	congruent/STIM_025.jpg	100
1006.206	0.513	512.6	congruent	Block1	congruent/STIM_025.jpg	99
1010.029	0.599	599.4	congruent	Block1	congruent/STIM_025.jpg	99
1014.025	0.548	548.1	congruent	Block1	congruent/STIM_025.jpg	99
1016.695	0.574	574.3	congruent	Block1	congruent/STIM_026.jpg	99
1020.548	0.576	576.1	congruent	Block1	congruent/STIM_026.jpg	100
1023.362	0.527	527.1	congruent	Block1	congruent/STIM_026.jpg	99
1027.526	0.457	457.0	congruent	Block1	congruent/STIM_026.jpg	99
1030.108	0.498	498.1	congruent	Block1	congruent/STIM_026.jpg	99
1032.856	0.52	520.4	congruent	Block1	congruent/STIM_027.jpg	100
1035.855	0.686	686.4	congruent	Block1	congruent/STIM_027.jpg	100
1039.871	0.519	519.1	congruent	Block1	congruent/STIM_027.jpg	99
1043.363	0.476	476.3	congruent	Block1	congruent/STIM_027.jpg	99
1046.552	0.661	661.0	congruent	Block1	congruent/STIM_027.jpg	99
1050.126	0.638	638.5	congruent	Block1	congruent/STIM_028.jpg	99
1054.735	0.52	520.5	congruent	Block1	congruent/STIM_028.jpg	99
1058.59	0.614	614.2	congruent	Block1	congruent/STIM_028.jpg	100
1061.87	0.407	406.7	congruent	Block1	congruent/STIM_028.jpg	100
1065.035	0.496	495.6	congruent	Block1	congruent/STIM_028.jpg	99
1068.446	0.646	646.4	congruent	Block1	congruent/STIM_029.jpg	99
1071.191	0.592	592.2	congruent	Block1	congruent/STIM_029.jpg	100
1073.92	0.549	549.3	congruent	Block1	congruent/STIM_029.jpg	100
1077.495	0.419	419.2	congruent	Block1	congruent/STIM_029.jpg	99
1080.105	0.523	523.2	congruent	Block1	congruent/STIM_029.jpg	100
1083.021	0.524	523.5	incongruent	Block2	incongruent/STIM_000.jpg	99
1087.012	0.624	623.6	incongruent	Block2	incongruent/STIM_000.jpg	99
1090.196	0.846	846.2	incongruent	Block2	incongruent/STIM_000.jpg	100
1093.614	0.498	497.9	incongruent	Block2	incongruent/STIM_000.jpg	100
1097.852	0.726	725.6	incongruent	Block2	incongruent/STIM_000.jpg	99
1102.545	0.975	974.7	incongruent	Block2	incongruent/STIM_001.jpg	99
1105.966	0.642	641.9	incongruent	Block2	incongruent/STIM_001.jpg	99
1110.259	0.539	539.1	incongruent	Block2	incongruent/STIM_001.jpg	100
1113.091	0.752	752.2	incongruent	Block2	incongruent/STIM_001.jpg	100
1116.25	0.594	594.3	incongruent	Block2	incongruent/STIM_001.jpg	100
1119.587	0.741	741.1	incongruent	Block2	incongruent/STIM_002.jpg	100
1122.708	0.45	450.1	incongruent	Block2	incongruent/STIM_002.jpg	100
1125.706	0.507	507.3	incongruent	Block2	incongruent/STIM_002.jpg	99
1128.74	0.471	471.2	incongruent	Block2	incongruent/STIM_002.jpg	100
1132.73	0.795	795.0	incongruent	Block2	incongruent/STIM_002.jpg	100
1137.03	0.975	975.2	incongruent	Block2	incongruent/STIM_003.jpg	100
1140.333	0.748	748.5	incongruent	Block2	incongruent/STIM_003.jpg	100
1144.031	0.584	584.2	incongruent	Block2	incongruent/STIM_003.jpg	99
1148.497	0.753	753.0	incongruent	Block2	incongruent/STIM_003.jpg	99
1153.183	0.443	442.8	incongruent	Block2	incongruent/STIM_003.jpg	99
1155.774	0.508	507.6	incongruent	Block2	incongruent/STIM_004.jpg	99
1159.556	0.546	545.8	incongruent	Block2	incongruent/STIM_004.jpg	99
1162.847	0.812	811.9	incongruent	Block2	incongruent/STIM_004.jpg	99
1167.232	0.709	708.7	incongruent	Block2	incongruent/STIM_004.jpg	100
1170.614	0.459	459.3	incongruent	Block2	incongruent/STIM_004.jpg	100
1173.727	0.846	846.0	incongruent	Block2	incongruent/STIM_005.jpg	100
1177.269	0.676	675.9	incongruent	Block2	incongruent/STIM_005.jpg	99
1180.309	0.842	841.5	incongruent	Block2	incongruent/STIM_005.jpg	100
1184.721	0.392	391.7	incongruent	Block2	incongruent/STIM_005.jpg	99
1188.922	0.686	686.4	incongruent	Block2	incongruent/STIM_005.jpg	100
1193.008	0.595	595.1	incongruent	Block2	incongruent/STIM_006.jpg	100
1196.04	0.458	457.6	incongruent	Block2	incongruent/STIM_006.jpg	99
1199.131	0.538	538.4	incongruent	Block2	incongruent/STIM_006.jpg	100
1203.062	0.661	661.3	incongruent	Block2	incongruent/STIM_006.jpg	99
1206.719	0.507	506.9	incongruent	Block2	incongruent/STIM_006.jpg	100
1209.269	0.764	763.8	incongruent	Block2	incongruent/STIM_007.jpg	100
1212.197	0.516	515.8	incongruent	Block2	incongruent/STIM_007.jpg	100
1215.471	0.804	804.1	incongruent	Block2	incongruent/STIM_007.jpg	100
1218.703	0.64	639.8	incongruent	Block2	incongruent/STIM_007.jpg	99
1223.096	0.456	456.3	incongruent	Block2	incongruent/STIM_007.jpg	99
1226.338	0.813	812.6	incongruent	Block2	incongruent/STIM_008.jpg	100
1229.599	0.605	605.1	incongruent	Block2	incongruent/STIM_008.jpg	99
1232.49	0.484	484.1	incongruent	Block2	incongruent/STIM_008.jpg	99
1235.665	0.596	596.5	incongruent	Block2	incongruent/STIM_008.jpg	100
1238.566	0.455	455.1	incongruent	Block2	incongruent/STIM_008.jpg	99
1242.874	0.751	751.4	incongruent	Block2	incongruent/STIM_009.jpg	99
1246.649	0.825	824.8	incongruent	Block2	incongruent/STIM_009.jpg	100
1251.205	0.506	506.5	incongruent	Block2	incongruent/STIM_009.jpg	99
1254.079	0.719	718.9	incongruent	Block2	incongruent/STIM_009.jpg	100
1258.762	0.75	749.7	incongruent	Block2	incongruent/STIM_009.jpg	99
1261.714	0.546	546.0	incongruent	Block2	incongruent/STIM_010.jpg	100
1265.062	0.538	538.4	incongruent	Block2	incongruent/STIM_010.jpg	99
1269.353	0.638	637.9	incongruent	Block2	incongruent/STIM_010.jpg	99
1272.484	0.747	746.7	incongruent	Block2	incongruent/STIM_010.jpg	100
1276.527	0.577	577.1	incongruent	Block2	incongruent/STIM_010.jpg	100
1279.799	0.977	976.6	incongruent	Block2	incongruent/STIM_011.jpg	100
1284.32	0.618	618.5	incongruent	Block2	incongruent/STIM_011.jpg	99
1287.553	0.729	729.1	incongruent	Block2	incongruent/STIM_011.jpg	100
1290.777	0.519	519.3	incongruent	Block2	incongruent/STIM_011.jpg	99
1294.585	0.79	790.4	incongruent	Block2	incongruent/STIM_011.jpg	100
1298.986	0.593	592.7	incongruent	Block2	incongruent/STIM_012.jpg	100
1302.048	0.902	902.3	incongruent	Block2	incongruent/STIM_012.jpg	100
1306.243	0.667	666.7	incongruent	Block2	incongruent/STIM_012.jpg	99
1310.189	0.732	731.5	incongruent	Block2	incongruent/STIM_012.jpg	100
1313.061	0.568	568.4	incongruent	Block2	incongruent/STIM_012.jpg	100
1317.215	0.519	519.1	incongruent	Block2	incongruent/STIM_013.jpg	100
1319.985	0.876	876.4	incongruent	Block2	incongruent/STIM_013.jpg	100
1323.044	0.494	494.3	incongruent	Block2	incongruent/STIM_013.jpg	99
1326.315	0.418	417.8	incongruent	Block2	incongruent/STIM_013.jpg	99
1330.669	0.503	503.0	incongruent	Block2	incongruent/STIM_013.jpg	100
1334.677	0.843	843.4	incongruent	Block2	incongruent/STIM_014.jpg	99
1337.889	0.846	845.7	incongruent	Block2	incongruent/STIM_014.jpg	99
1342.321	0.633	633.3	incongruent	Block2	incongruent/STIM_014.jpg	100
1346.465	0.691	690.6	incongruent	Block2	incongruent/STIM_014.jpg	99
1350.793	0.464	463.7	incongruent	Block2	incongruent/STIM_014.jpg	99
1355.14	0.95	949.8	incongruent	Block2	incongruent/STIM_015.jpg	99
1358.839	0.83	830.1	incongruent	Block2	incongruent/STIM_015.jpg	100
1362.349	0.77	770.1	incongruent	Block2	incongruent/STIM_015.jpg	100
1365.99	0.404	404.2	incongruent	Block2	incongruent/STIM_015.jpg	99
1369.199	0.732	732.0	incongruent	Block2	incongruent/STIM_015.jpg	99
1372.948	0.554	553.5	incongruent	Block2	incongruent/STIM_016.jpg	100
1375.955	0.817	816.7	incongruent	Block2	incongruent/STIM_016.jpg	100
1378.889	0.842	842.5	incongruent	Block2	incongruent/STIM_016.jpg	99
1383.578	0.621	620.7	incongruent	Block2	incongruent/STIM_016.jpg	99
1387.043	0.753	753.0	incongruent	Block2	incongruent/STIM_016.jpg	99
1391.2	0.977	977.1	incongruent	Block2	incongruent/STIM_017.jpg	99
1395.027	0.622	622.2	incongruent	Block2	incongruent/STIM_017.jpg	99
1398.284	0.752	752.3	incongruent	Block2	incongruent/STIM_017.jpg	99
1401.463	0.588	587.6	incongruent	Block2	incongruent/STIM_017.jpg	100
1404.678	0.415	414.6	incongruent	Block2	incongruent/STIM_017.jpg	99
1408.763	0.759	758.7	incongruent	Block2	incongruent/STIM_018.jpg	100
1412.58	0.75	749.6	incongruent	Block2	incongruent/STIM_018.jpg	99
1416.134	0.816	815.8	incongruent	Block2	incongruent/STIM_018.jpg	99
1420.648	0.66	659.8	incongruent	Block2	incongruent/STIM_018.jpg	100
1424.994	0.429	428.8	incongruent	Block2	incongruent/STIM_018.jpg	99
1427.593	0.933	933.0	incongruent	Block2	incongruent/STIM_019.jpg	100
1432.288	0.824	823.9	incongruent	Block2	incongruent/STIM_019.jpg	100
1436.82	0.799	799.0	incongruent	Block2	incongruent/STIM_019.jpg	99
1440.566	0.47	469.5	incongruent	Block2	incongruent/STIM_019.jpg	99
1443.824	0.766	766.1	incongruent	Block2	incongruent/STIM_019.jpg	99
1446.982	0.886	886.4	incongruent	Block2	incongruent/STIM_020.jpg	99
1451.324	0.631	630.7	incongruent	Block2	incongruent/STIM_020.jpg	99
1455.675	0.584	583.7	incongruent	Block2	incongruent/STIM_020.jpg	100
1459.976	0.806	805.8	incongruent	Block2	incongruent/STIM_020.jpg	99
1464.12	0.488	487.9	incongruent	Block2	incongruent/STIM_020.jpg	99
1468.599	0.728	728.5	incongruent	Block2	incongruent/STIM_021.jpg	100
1471.343	0.832	832.3	incongruent	Block2	incongruent/STIM_021.jpg	99
1474.928	0.774	774.0	incongruent	Block2	incongruent/STIM_021.jpg	100
1479.131	0.493	493.3	incongruent	Block2	incongruent/STIM_021.jpg	100
1482.923	0.524	524.1	incongruent	Block2	incongruent/STIM_021.jpg	99
1486.35	0.879	879.3	incongruent	Block2	incongruent/STIM_022.jpg	99
1489.919	0.559	558.9	incongruent	Block2	incongruent/STIM_022.jpg	99
1493.552	0.646	646.2	incongruent	Block2	incongruent/STIM_022.jpg	99
1496.357	0.473	473.4	incongruent	Block2	incongruent/STIM_022.jpg	100
1500.439	0.393	393.3	incongruent	Block2	incongruent/STIM_022.jpg	100
1504.076	0.52	520.2	incongruent	Block2	incongruent/STIM_023.jpg	99
1507.472	0.91	909.9	incongruent	Block2	incongruent/STIM_023.jpg	100
1511.148	0.452	451.8	incongruent	Block2	incongruent/STIM_023.jpg	99
1515.187	0.42	420.1	incongruent	Block2	incongruent/STIM_023.jpg	100
1518.451	0.778	777.6	incongruent	Block2	incongruent/STIM_023.jpg	99
1521.905	0.677	677.0	incongruent	Block2	incongruent/STIM_024.jpg	99
1525.928	0.702	701.5	incongruent	Block2	incongruent/STIM_024.jpg	99
1530.17	0.69	689.5	incongruent	Block2	incongruent/STIM_024.jpg	100
1533.102	0.405	404.9	incongruent	Block2	incongruent/STIM_024.jpg	100
1535.735	0.794	794.5	incongruent	Block2	incongruent/STIM_024.jpg	99
1539.292	0.685	685.1	incongruent	Block2	incongruent/STIM_025.jpg	99
1542.505	0.753	752.6	incongruent	Block2	incongruent/STIM_025.jpg	99
1547.116	0.587	587.2	incongruent	Block2	incongruent/STIM_025.jpg	99
1551.588	0.801	801.1	incongruent	Block2	incongruent/STIM_025.jpg	99
1555.851	0.655	655.3	incongruent	Block2	incongruent/STIM_025.jpg	99
1558.986	0.466	466.3	incongruent	Block2	incongruent/STIM_026.jpg	99
1562.854	0.457	457.0	incongruent	Block2	incongruent/STIM_026.jpg	99
1566.17	0.707	707.3	incongruent	Block2	incongruent/STIM_026.jpg	100
1569.672	0.584	583.5	incongruent	Block2	incongruent/STIM_026.jpg	100
1573.469	0.481	480.7	incongruent	Block2	incongruent/STIM_026.jpg	100
1576.16	0.481	480.7	incongruent	Block2	incongruent/STIM_027.jpg	99
1579.789	0.686	685.6	incongruent	Block2	incongruent/STIM_027.jpg	99
1584.083	0.523	523.1	incongruent	Block2	incongruent/STIM_027.jpg	100
1587.095	0.545	544.9	incongruent	Block2	incongruent/STIM_027.jpg	100
1591.327	0.586	586.5	incongruent	Block2	incongruent/STIM_027.jpg	100
1594.279	0.504	503.7	incongruent	Block2	incongruent/STIM_028.jpg	100
1598.387	0.515	515.1	incongruent	Block2	incongruent/STIM_028.jpg	100
1601.081	0.59	590.0	incongruent	Block2	incongruent/STIM_028.jpg	99
1603.819	0.402	402.5	incongruent	Block2	incongruent/STIM_028.jpg	99
1606.544	0.64	640.3	incongruent	Block2	incongruent/STIM_028.jpg	99
1609.895	0.949	949.1	incongruent	Block2	incongruent/STIM_029.jpg	99
1612.961	0.611	611.2	incongruent	Block2	incongruent/STIM_029.jpg	100
1617.487	0.549	548.6	incongruent	Block2	incongruent/STIM_029.jpg	100
1621.48	0.72	719.8	incongruent	Block2	incongruent/STIM_029.jpg	99
1625.673	0.441	441.2	incongruent	Block2	incongruent/STIM_029.jpg	100
1629.051	0.561	560.7	congruent	Block2	congruent/STIM_000.jpg	99
1633.485	0.393	393.1	congruent	Block2	congruent/STIM_000.jpg	99
1636.218	0.414	414.3	congruent	Block2	congruent/STIM_000.jpg	99
1639.634	0.649	649.3	congruent	Block2	congruent/STIM_000.jpg	99
1643.847	0.423	423.3	congruent	Block2	congruent/STIM_000.jpg	99
1646.853	0.6	600.4	congruent	Block2	congruent/STIM_001.jpg	100
1649.831	0.419	418.7	congruent	Block2	congruent/STIM_001.jpg	99
1653.694	0.683	683.1	congruent	Block2	congruent/STIM_001.jpg	99
1657.63	0.683	683.0	congruent	Block2	congruent/STIM_001.jpg	100
1660.327	0.658	658.5	congruent	Block2	congruent/STIM_001.jpg	99
1664.062	0.612	612.3	congruent	Block2	congruent/STIM_002.jpg	100
1666.715	0.679	679.2	congruent	Block2	congruent/STIM_002.jpg	99
1670.54	0.624	624.1	congruent	Block2	congruent/STIM_002.jpg	99
1673.252	0.445	444.6	congruent	Block2	congruent/STIM_002.jpg	99
1676.581	0.411	410.8	congruent	Block2	congruent/STIM_002.jpg	100
1680.241	0.672	671.5	congruent	Block2	congruent/STIM_003.jpg	99
1683.023	0.628	627.6	congruent	Block2	congruent/STIM_003.jpg	100
1686.759	0.514	514.3	congruent	Block2	congruent/STIM_003.jpg	100
1689.308	0.451	451.3	congruent	Block2	congruent/STIM_003.jpg	100
1692.313	0.447	446.7	congruent	Block2	congruent/STIM_003.jpg	100
1695.598	0.572	572.2	congruent	Block2	congruent/STIM_004.jpg	99
1699.469	0.609	608.7	congruent	Block2	congruent/STIM_004.jpg	99
1702.576	0.494	494.3	congruent	Block2	congruent/STIM_004.jpg	100
1706.412	0.621	620.8	congruent	Block2	congruent/STIM_004.jpg	99
1710.245	0.451	451.2	congruent	Block2	congruent/STIM_004.jpg	100
1713.117	0.504	503.8	congruent	Block2	congruent/STIM_005.jpg	100
1715.796	0.428	428.2	congruent	Block2	congruent/STIM_005.jpg	99
1719.069	0.427	426.7	congruent	Block2	congruent/STIM_005.jpg	99
1721.848	0.643	643.0	congruent	Block2	congruent/STIM_005.jpg	99
1725.638	0.396	395.9	congruent	Block2	congruent/STIM_005.jpg	100
1730.005	0.503	502.6	congruent	Block2	congruent/STIM_006.jpg	100
1733.201	0.405	405.3	congruent	Block2	congruent/STIM_006.jpg	99
1736.339	0.396	396.1	congruent	Block2	congruent/STIM_006.jpg	99
1739.737	0.685	684.9	congruent	Block2	congruent/STIM_006.jpg	100
1742.964	0.485	484.9	congruent	Block2	congruent/STIM_006.jpg	100
1745.966	0.403	403.4	congruent	Block2	congruent/STIM_007.jpg	100
1749.901	0.506	505.7	congruent	Block2	congruent/STIM_007.jpg	99
1753.609	0.478	477.8	congruent	Block2	congruent/STIM_007.jpg	99
1756.939	0.588	588.0	congruent	Block2	congruent/STIM_007.jpg	100
1759.702	0.407	407.2	congruent	Block2	congruent/STIM_007.jpg	100
1762.726	0.656	656.4	congruent	Block2	congruent/STIM_008.jpg	100
1767.051	0.657	656.6	congruent	Block2	congruent/STIM_008.jpg	99
1771.131	0.529	528.6	congruent	Block2	congruent/STIM_008.jpg	100
1775.318	0.484	484.5	congruent	Block2	congruent/STIM_008.jpg	100
1778.838	0.665	665.4	congruent	Block2	congruent/STIM_008.jpg	100
1781.724	0.577	576.9	congruent	Block2	congruent/STIM_009.jpg	100
1785.251	0.52	520.4	congruent	Block2	congruent/STIM_009.jpg	99
1788.526	0.685	685.1	congruent	Block2	congruent/STIM_009.jpg	100
1791.25	0.463	462.7	congruent	Block2	congruent/STIM_009.jpg	100
1795.522	0.402	401.9	congruent	Block2	congruent/STIM_009.jpg	99
1798.062	0.483	483.1	congruent	Block2	congruent/STIM_010.jpg	100
1802.349	0.576	575.7	congruent	Block2	congruent/STIM_010.jpg	100
1805.699	0.52	519.6	congruent	Block2	congruent/STIM_010.jpg	100
1808.658	0.447	447.2	congruent	Block2	congruent/STIM_010.jpg	100
1812.413	0.603	603.1	congruent	Block2	congruent/STIM_010.jpg	99
1815.829	0.435	434.8	congruent	Block2	congruent/STIM_011.jpg	99
1820.055	0.524	524.4	congruent	Block2	congruent/STIM_011.jpg	99
1823.397	0.666	666.3	congruent	Block2	congruent/STIM_011.jpg	100
1826.238	0.399	399.0	congruent	Block2	congruent/STIM_011.jpg	100
1829.85	0.683	682.9	congruent	Block2	congruent/STIM_011.jpg	99
1833.922	0.65	649.7	congruent	Block2	congruent/STIM_012.jpg	100
1838.097	0.649	649.4	congruent	Block2	congruent/STIM_012.jpg	99
1841.567	0.518	517.6	congruent	Block2	congruent/STIM_012.jpg	99
1845.111	0.473	473.1	congruent	Block2	congruent/STIM_012.jpg	99
1849.08	0.537	537.1	congruent	Block2	congruent/STIM_012.jpg	100
1852.615	0.578	578.3	congruent	Block2	congruent/STIM_013.jpg	99
1855.738	0.4	399.6	congruent	Block2	congruent/STIM_013.jpg	99
1858.872	0.566	565.7	congruent	Block2	congruent/STIM_013.jpg	100
1863.113	0.402	401.5	congruent	Block2	congruent/STIM_013.jpg	100
1867.436	0.44	439.7	congruent	Block2	congruent/STIM_013.jpg	100
1871.298	0.424	424.0	congruent	Block2	congruent/STIM_014.jpg	99
1875.208	0.52	519.5	congruent	Block2	congruent/STIM_014.jpg	100
1879.51	0.626	626.0	congruent	Block2	congruent/STIM_014.jpg	99
1883.169	0.533	532.9	congruent	Block2	congruent/STIM_014.jpg	99
1886.879	0.501	501.1	congruent	Block2	congruent/STIM_014.jpg	99
1890.05	0.401	401.1	congruent	Block2	congruent/STIM_015.jpg	100
1894.032	0.558	558.2	congruent	Block2	congruent/STIM_015.jpg	100
1898.107	0.556	556.1	congruent	Block2	congruent/STIM_015.jpg	99
1901.775	0.428	428.3	congruent	Block2	congruent/STIM_015.jpg	99
1905.236	0.599	598.6	congruent	Block2	congruent/STIM_015.jpg	100
1908.582	0.681	681.1	congruent	Block2	congruent/STIM_016.jpg	99
1912.475	0.476	475.8	congruent	Block2	congruent/STIM_016.jpg	100
1915.882	0.481	481.3	congruent	Block2	congruent/STIM_016.jpg	99
1919.658	0.692	692.5	congruent	Block2	congruent/STIM_016.jpg	100
1922.398	0.592	592.5	congruent	Block2	congruent/STIM_016.jpg	100
1926.483	0.511	510.9	congruent	Block2	congruent/STIM_017.jpg	100
1930.58	0.668	668.2	congruent	Block2	congruent/STIM_017.jpg	100
1934.158	0.616	615.7	congruent	Block2	congruent/STIM_017.jpg	99
1938.693	0.599	598.8	congruent	Block2	congruent/STIM_017.jpg	100
1941.514	0.615	615.3	congruent	Block2	congruent/STIM_017.jpg	100
1944.419	0.425	424.8	congruent	Block2	congruent/STIM_018.jpg	99
1948.042	0.532	531.5	congruent	Block2	congruent/STIM_018.jpg	100
1951.237	0.604	603.5	congruent	Block2	congruent/STIM_018.jpg	99
1955.377	0.658	657.5	congruent	Block2	congruent/STIM_018.jpg	99
1958.793	0.396	395.8	congruent	Block2	congruent/STIM_018.jpg	99
1962.693	0.482	482.5	congruent	Block2	congruent/STIM_019.jpg	99
1966.162	0.588	587.6	congruent	Block2	congruent/STIM_019.jpg	99
1969.765	0.466	465.7	congruent	Block2	congruent/STIM_019.jpg	100
1973.568	0.429	429.3	congruent	Block2	congruent/STIM_019.jpg	99
1977.815	0.442	441.8	congruent	Block2	congruent/STIM_019.jpg	100
1981.119	0.666	666.1	congruent	Block2	congruent/STIM_020.jpg	100
1983.799	0.587	586.6	congruent	Block2	congruent/STIM_020.jpg	100
1986.72	0.64	640.3	congruent	Block2	congruent/STIM_020.jpg	99
1989.571	0.566	566.0	congruent	Block2	congruent/STIM_020.jpg	99
1993.221	0.4	400.5	congruent	Block2	congruent/STIM_020.jpg	100
1997.516	0.55	550.0	congruent	Block2	congruent/STIM_021.jpg	100
2000.402	0.39	390.1	congruent	Block2	congruent/STIM_021.jpg	100
2003.81	0.58	580.0	congruent	Block2	congruent/STIM_021.jpg	100
2008.24	0.58	579.9	congruent	Block2	congruent/STIM_021.jpg	99
2012.369	0.388	388.5	congruent	Block2	congruent/STIM_021.jpg	100
2015.645	0.44	440.5	congruent	Block2	congruent/STIM_022.jpg	100
2018.811	0.424	423.6	congruent	Block2	congruent/STIM_022.jpg	100
2023.205	0.52	519.6	congruent	Block2	congruent/STIM_022.jpg	100
2027.166	0.551	551.1	congruent	Block2	congruent/STIM_022.jpg	100
2031.59	0.449	449.2	congruent	Block2	congruent/STIM_022.jpg	99
2035.043	0.618	618.4	congruent	Block2	congruent/STIM_023.jpg	100
2039.476	0.526	526.5	congruent	Block2	congruent/STIM_023.jpg	99
2043.467	0.505	505.5	congruent	Block2	congruent/STIM_023.jpg	99
2047.386	0.492	491.8	congruent	Block2	congruent/STIM_023.jpg	100
2051.201	0.53	530.2	congruent	Block2	congruent/STIM_023.jpg	100
2055.457	0.526	525.9	congruent	Block2	congruent/STIM_024.jpg	99
2059.202	0.627	626.6	congruent	Block2	congruent/STIM_024.jpg	99
2062.041	0.584	583.6	congruent	Block2	congruent/STIM_024.jpg	99
2065.525	0.569	568.7	congruent	Block2	congruent/STIM_024.jpg	100
2069.938	0.596	596.1	congruent	Block2	congruent/STIM_024.jpg	99
2074.449	0.648	648.0	congruent	Block2	congruent/STIM_025.jpg	100
2078.009	0.633	633.4	congruent	Block2	congruent/STIM_025.jpg	100
2081.025	0.417	417.3	congruent	Block2	congruent/STIM_025.jpg	99
2084.471	0.475	475.4	congruent	Block2	congruent/STIM_025.jpg	99
2087.029	0.62	620.0	congruent	Block2	congruent/STIM_025.jpg	99
2091.269	0.644	644.3	congruent	Block2	congruent/STIM_026.jpg	99
2094.916	0.682	681.9	congruent	Block2	congruent/STIM_026.jpg	99
2098.407	0.528	527.5	congruent	Block2	congruent/STIM_026.jpg	100
2101.287	0.431	431.4	congruent	Block2	congruent/STIM_026.jpg	100
2104.987	0.492	491.9	congruent	Block2	congruent/STIM_026.jpg	100
2107.962	0.544	543.7	congruent	Block2	congruent/STIM_027.jpg	99
2110.88	0.5	500.5	congruent	Block2	congruent/STIM_027.jpg	100
2115.168	0.536	536.2	congruent	Block2	congruent/STIM_027.jpg	100
2119.133	0.518	517.9	congruent	Block2	congruent/STIM_027.jpg	100
2122.621	0.59	590.1	congruent	Block2	congruent/STIM_027.jpg	100
2125.471	0.66	659.9	congruent	Block2	congruent/STIM_028.jpg	99
2128.571	0.44	440.2	congruent	Block2	congruent/STIM_028.jpg	99
2131.984	0.444	443.6	congruent	Block2	congruent/STIM_028.jpg	99
2135.381	0.493	493.0	congruent	Block2	congruent/STIM_028.jpg	99
2139.225	0.428	427.9	congruent	Block2	congruent/STIM_028.jpg	99
2142.504	0.599	598.8	congruent	Block2	congruent/STIM_029.jpg	100
2145.735	0.645	644.8	congruent	Block2	congruent/STIM_029.jpg	100
2150.032	0.632	631.9	congruent	Block2	congruent/STIM_029.jpg	100
2154.177	0.532	531.9	congruent	Block2	congruent/STIM_029.jpg	99
2157.27	0.44	440.0	congruent	Block2	congruent/STIM_029.jpg	99
2161.444	0.554	554.1	incongruent	Block3	incongruent/STIM_000.jpg	100
2164.811	0.619	619.4	incongruent	Block3	incongruent/STIM_000.jpg	100
2168.6	0.756	756.3	incongruent	Block3	incongruent/STIM_000.jpg	100
2171.717	0.526	525.7	incongruent	Block3	incongruent/STIM_000.jpg	99
2175.43	0.512	512.1	incongruent	Block3	incongruent/STIM_000.jpg	100
2178.202	0.553	552.8	incongruent	Block3	incongruent/STIM_001.jpg	100
2182.539	0.652	651.7	incongruent	Block3	incongruent/STIM_001.jpg	100
2186.583	0.792	791.8	incongruent	Block3	incongruent/STIM_001.jpg	99
2190.168	0.518	517.7	incongruent	Block3	incongruent/STIM_001.jpg	100
2194.06	0.624	623.8	incongruent	Block3	incongruent/STIM_001.jpg	99
2197.084	0.543	543.2	incongruent	Block3	incongruent/STIM_002.jpg	100
2201.562	0.392	392.4	incongruent	Block3	incongruent/STIM_002.jpg	100
2204.308	0.658	658.2	incongruent	Block3	incongruent/STIM_002.jpg	100
2207.518	0.734	733.9	incongruent	Block3	incongruent/STIM_002.jpg	99
2211.234	0.651	651.4	incongruent	Block3	incongruent/STIM_002.jpg	100
2215.249	0.462	462.5	incongruent	Block3	incongruent/STIM_003.jpg	99
2218.253	0.395	394.6	incongruent	Block3	incongruent/STIM_003.jpg	100
2220.808	0.756	755.7	incongruent	Block3	incongruent/STIM_003.jpg	99
2224.03	0.732	731.8	incongruent	Block3	incongruent/STIM_003.jpg	100
2228.072	0.61	610.2	incongruent	Block3	incongruent/STIM_003.jpg	99
2230.911	0.6	600.3	incongruent	Block3	incongruent/STIM_004.jpg	99
2233.671	0.582	581.7	incongruent	Block3	incongruent/STIM_004.jpg	100
2236.7	0.448	448.4	incongruent	Block3	incongruent/STIM_004.jpg	100
2240.799	0.77	770.4	incongruent	Block3	incongruent/STIM_004.jpg	99
2244.706	0.472	471.6	incongruent	Block3	incongruent/STIM_004.jpg	100
2247.235	0.565	565.2	incongruent	Block3	incongruent/STIM_005.jpg	99
2250.995	0.799	799.0	incongruent	Block3	incongruent/STIM_005.jpg	99
2255.597	0.661	661.4	incongruent	Block3	incongruent/STIM_005.jpg	100
2259.413	0.458	457.6	incongruent	Block3	incongruent/STIM_005.jpg	99
2262.022	0.73	730.2	incongruent	Block3	incongruent/STIM_005.jpg	99
2265.041	0.417	417.2	incongruent	Block3	incongruent/STIM_006.jpg	100
2269.299	0.802	802.0	incongruent	Block3	incongruent/STIM_006.jpg	99
2273.567	0.501	500.6	incongruent	Block3	incongruent/STIM_006.jpg	100
2277.244	0.404	403.9	incongruent	Block3	incongruent/STIM_006.jpg	99
2281.275	0.573	572.6	incongruent	Block3	incongruent/STIM_006.jpg	100
2285.71	0.741	740.9	incongruent	Block3	incongruent/STIM_007.jpg	100
2289.812	0.445	444.6	incongruent	Block3	incongruent/STIM_007.jpg	99
2292.564	0.44	440.2	incongruent	Block3	incongruent/STIM_007.jpg	99
2295.735	0.538	537.9	incongruent	Block3	incongruent/STIM_007.jpg	100
2299.207	0.433	432.6	incongruent	Block3	incongruent/STIM_007.jpg	100
2303.552	0.627	627.2	incongruent	Block3	incongruent/STIM_008.jpg	100
2307.068	0.573	573.2	incongruent	Block3	incongruent/STIM_008.jpg	100
2310.24	0.516	516.0	incongruent	Block3	incongruent/STIM_008.jpg	100
2312.873	0.806	805.8	incongruent	Block3	incongruent/STIM_008.jpg	99
2316.136	0.676	676.4	incongruent	Block3	incongruent/STIM_008.jpg	100
2319.361	0.474	474.2	incongruent	Block3	incongruent/STIM_009.jpg	100
2322.525	0.592	592.2	incongruent	Block3	incongruent/STIM_009.jpg	99
2327.023	0.716	715.5	incongruent	Block3	incongruent/STIM_009.jpg	99
2330.492	0.617	616.7	incongruent	Block3	incongruent/STIM_009.jpg	99
2335.028	0.669	668.9	incongruent	Block3	incongruent/STIM_009.jpg	99
2339.336	0.601	601.3	incongruent	Block3	incongruent/STIM_010.jpg	99
2343.356	0.486	485.9	incongruent	Block3	incongruent/STIM_010.jpg	100
2347.599	0.409	409.1	incongruent	Block3	incongruent/STIM_010.jpg	99
2351.554	0.494	493.6	incongruent	Block3	incongruent/STIM_010.jpg	99
2354.908	0.584	584.3	incongruent	Block3	incongruent/STIM_010.jpg	99
2357.563	0.788	788.2	incongruent	Block3	incongruent/STIM_011.jpg	100
2361.057	0.446	445.7	incongruent	Block3	incongruent/STIM_011.jpg	99
2363.653	0.514	513.8	incongruent	Block3	incongruent/STIM_011.jpg	99
2368.078	0.605	604.6	incongruent	Block3	incongruent/STIM_011.jpg	99
2371.115	0.652	652.4	incongruent	Block3	incongruent/STIM_011.jpg	99
2374.02	0.736	736.4	incongruent	Block3	incongruent/STIM_012.jpg	100
2377.928	0.41	409.9	incongruent	Block3	incongruent/STIM_012.jpg	100
2380.474	0.68	680.0	incongruent	Block3	incongruent/STIM_012.jpg	100
2385.095	0.465	464.7	incongruent	Block3	incongruent/STIM_012.jpg	100
2388.266	0.712	711.9	incongruent	Block3	incongruent/STIM_012.jpg	100
2392.833	0.425	424.6	incongruent	Block3	incongruent/STIM_013.jpg	99
2395.557	0.392	392.1	incongruent	Block3	incongruent/STIM_013.jpg	99
2398.418	0.644	644.4	incongruent	Block3	incongruent/STIM_013.jpg	100
2402.648	0.566	566.5	incongruent	Block3	incongruent/STIM_013.jpg	100
2405.372	0.422	422.2	incongruent	Block3	incongruent/STIM_013.jpg	100
2407.821	0.484	484.2	incongruent	Block3	incongruent/STIM_014.jpg	100
2410.611	0.594	593.9	incongruent	Block3	incongruent/STIM_014.jpg	100
2414.372	0.529	529.1	incongruent	Block3	incongruent/STIM_014.jpg	100
2418.08	0.635	634.9	incongruent	Block3	incongruent/STIM_014.jpg	100
2421.656	0.457	457.0	incongruent	Block3	incongruent/STIM_014.jpg	99
2425.65	0.788	787.8	incongruent	Block3	incongruent/STIM_015.jpg	100
2428.761	0.425	425.3	incongruent	Block3	incongruent/STIM_015.jpg	99
2431.402	0.46	460.5	incongruent	Block3	incongruent/STIM_015.jpg	99
2434.146	0.571	570.6	incongruent	Block3	incongruent/STIM_015.jpg	100
2437.508	0.698	698.2	incongruent	Block3	incongruent/STIM_015.jpg	99
2441.491	0.604	603.9	incongruent	Block3	incongruent/STIM_016.jpg	99
2446.092	0.505	505.0	incongruent	Block3	incongruent/STIM_016.jpg	100
2449.388	0.462	462.4	incongruent	Block3	incongruent/STIM_016.jpg	100
2452.517	0.589	588.7	incongruent	Block3	incongruent/STIM_016.jpg	99
2455.895	0.65	650.0	incongruent	Block3	incongruent/STIM_016.jpg	100
2459.737	0.774	773.8	incongruent	Block3	incongruent/STIM_017.jpg	99
2463.967	0.805	804.8	incongruent	Block3	incongruent/STIM_017.jpg	99
2467.182	0.491	491.3	incongruent	Block3	incongruent/STIM_017.jpg	100
2470.377	0.533	532.7	incongruent	Block3	incongruent/STIM_017.jpg	100
2474.335	0.443	443.4	incongruent	Block3	incongruent/STIM_017.jpg	99
2476.859	0.474	473.5	incongruent	Block3	incongruent/STIM_018.jpg	99
2479.565	0.511	511.2	incongruent	Block3	incongruent/STIM_018.jpg	99
2483.358	0.596	596.2	incongruent	Block3	incongruent/STIM_018.jpg	99
2486.655	0.596	595.6	incongruent	Block3	incongruent/STIM_018.jpg	99
2489.98	0.616	616.2	incongruent	Block3	incongruent/STIM_018.jpg	100
2494.57	0.521	521.3	incongruent	Block3	incongruent/STIM_019.jpg	100
2497.94	0.455	455.4	incongruent	Block3	incongruent/STIM_019.jpg	100
2500.776	0.703	703.0	incongruent	Block3	incongruent/STIM_019.jpg	100
2504.575	0.467	467.2	incongruent	Block3	incongruent/STIM_019.jpg	99
2507.073	0.664	663.5	incongruent	Block3	incongruent/STIM_019.jpg	100
2511.024	0.656	655.6	incongruent	Block3	incongruent/STIM_020.jpg	99
2515.651	0.671	671.0	incongruent	Block3	incongruent/STIM_020.jpg	99
2520.057	0.472	472.4	incongruent	Block3	incongruent/STIM_020.jpg	99
2524.265	0.486	485.9	incongruent	Block3	incongruent/STIM_020.jpg	100
2528.031	0.682	681.8	incongruent	Block3	incongruent/STIM_020.jpg	100
2532.509	0.434	434.5	incongruent	Block3	incongruent/STIM_021.jpg	99
2536.681	0.622	622.5	incongruent	Block3	incongruent/STIM_021.jpg	99
2540.213	0.612	612.4	incongruent	Block3	incongruent/STIM_021.jpg	99
2542.941	0.68	680.3	incongruent	Block3	incongruent/STIM_021.jpg	100
2546.092	0.584	583.6	incongruent	Block3	incongruent/STIM_021.jpg	100
2548.881	0.542	541.9	incongruent	Block3	incongruent/STIM_022.jpg	99
2553.173	0.414	414.0	incongruent	Block3	incongruent/STIM_022.jpg	99
2555.954	0.727	727.3	incongruent	Block3	incongruent/STIM_022.jpg	99
2559.227	0.799	799.3	incongruent	Block3	incongruent/STIM_022.jpg	99
2562.065	0.763	763.1	incongruent	Block3	incongruent/STIM_022.jpg	100
2564.928	0.599	598.6	incongruent	Block3	incongruent/STIM_023.jpg	100
2568.622	0.422	421.9	incongruent	Block3	incongruent/STIM_023.jpg	100
2571.137	0.385	385.1	incongruent	Block3	incongruent/STIM_023.jpg	99
2575.173	0.68	679.7	incongruent	Block3	incongruent/STIM_023.jpg	100
2578.372	0.435	435.2	incongruent	Block3	incongruent/STIM_023.jpg	99
2582.511	0.512	512.1	incongruent	Block3	incongruent/STIM_024.jpg	99
2586.635	0.673	673.3	incongruent	Block3	incongruent/STIM_024.jpg	99
2591.157	0.549	549.2	incongruent	Block3	incongruent/STIM_024.jpg	99
2594.403	0.795	795.3	incongruent	Block3	incongruent/STIM_024.jpg	100
2597.999	0.752	751.9	incongruent	Block3	incongruent/STIM_024.jpg	100
2601.845	0.666	665.5	incongruent	Block3	incongruent/STIM_025.jpg	99
2605.256	0.637	636.7	incongruent	Block3	incongruent/STIM_025.jpg	99
2608.959	0.54	539.6	incongruent	Block3	incongruent/STIM_025.jpg	99
2611.982	0.468	467.8	incongruent	Block3	incongruent/STIM_025.jpg	99
2615.931	0.382	382.2	incongruent	Block3	incongruent/STIM_025.jpg	100
2619.367	0.411	411.1	incongruent	Block3	incongruent/STIM_026.jpg	99
2622.405	0.456	455.6	incongruent	Block3	incongruent/STIM_026.jpg	99
2626.321	0.632	631.9	incongruent	Block3	incongruent/STIM_026.jpg	100
2630.884	0.694	693.9	incongruent	Block3	incongruent/STIM_026.jpg	100
2634.322	0.727	726.7	incongruent	Block3	incongruent/STIM_026.jpg	99
2638.676	0.788	788.4	incongruent	Block3	incongruent/STIM_027.jpg	99
2642.216	0.427	427.1	incongruent	Block3	incongruent/STIM_027.jpg	99
2646.129	0.731	730.8	incongruent	Block3	incongruent/STIM_027.jpg	100
2650.028	0.764	763.5	incongruent	Block3	incongruent/STIM_027.jpg	100
2653.658	0.403	402.9	incongruent	Block3	incongruent/STIM_027.jpg	99
2657.513	0.739	738.7	incongruent	Block3	incongruent/STIM_028.jpg	99
2661.046	0.688	687.5	incongruent	Block3	incongruent/STIM_028.jpg	99
2664.222	0.598	597.5	incongruent	Block3	incongruent/STIM_028.jpg	100
2667.258	0.434	434.0	incongruent	Block3	incongruent/STIM_028.jpg	99
2670.629	0.508	507.8	incongruent	Block3	incongruent/STIM_028.jpg	100
2673.159	0.633	633.1	incongruent	Block3	incongruent/STIM_029.jpg	100
2676.816	0.484	483.8	incongruent	Block3	incongruent/STIM_029.jpg	100
2679.633	0.551	551.0	incongruent	Block3	incongruent/STIM_029.jpg	99
2682.948	0.791	791.4	incongruent	Block3	incongruent/STIM_029.jpg	100
2686.106	0.496	495.5	incongruent	Block3	incongruent/STIM_029.jpg	100
2688.694	0.609	609.0	congruent	Block3	congruent/STIM_000.jpg	100
2692.592	0.515	515.4	congruent	Block3	congruent/STIM_000.jpg	100
2695.726	0.44	439.7	congruent	Block3	congruent/STIM_000.jpg	100
2698.681	0.398	398.0	congruent	Block3	congruent/STIM_000.jpg	100
2702.138	0.692	692.4	congruent	Block3	congruent/STIM_000.jpg	99
2706.227	0.406	406.4	congruent	Block3	congruent/STIM_001.jpg	99
2708.883	0.493	492.8	congruent	Block3	congruent/STIM_001.jpg	100
2712.695	0.432	432.0	congruent	Block3	congruent/STIM_001.jpg	99
2715.685	0.675	675.1	congruent	Block3	congruent/STIM_001.jpg	100
2718.777	0.51	509.8	congruent	Block3	congruent/STIM_001.jpg	100
2722.056	0.51	509.6	congruent	Block3	congruent/STIM_002.jpg	99
2724.922	0.401	401.4	congruent	Block3	congruent/STIM_002.jpg	99
2727.544	0.578	578.2	congruent	Block3	congruent/STIM_002.jpg	100
2730.92	0.55	550.3	congruent	Block3	congruent/STIM_002.jpg	99
2735.403	0.494	494.4	congruent	Block3	congruent/STIM_002.jpg	100
2739.638	0.685	684.7	congruent	Block3	congruent/STIM_003.jpg	100
2743.795	0.647	647.3	congruent	Block3	congruent/STIM_003.jpg	99
2747.063	0.522	521.9	congruent	Block3	congruent/STIM_003.jpg	99
2750.794	0.59	589.5	congruent	Block3	congruent/STIM_003.jpg	99
2755.318	0.608	608.0	congruent	Block3	congruent/STIM_003.jpg	100
2758.445	0.479	478.7	congruent	Block3	congruent/STIM_004.jpg	100
2761.974	0.443	443.1	congruent	Block3	congruent/STIM_004.jpg	100
2766.041	0.592	592.1	congruent	Block3	congruent/STIM_004.jpg	100
2769.037	0.452	451.5	congruent	Block3	congruent/STIM_004.jpg	100
2772.975	0.521	520.8	congruent	Block3	congruent/STIM_004.jpg	99
2775.914	0.417	417.3	congruent	Block3	congruent/STIM_005.jpg	100
2779.851	0.538	538.4	congruent	Block3	congruent/STIM_005.jpg	100
2783.852	0.411	411.4	congruent	Block3	congruent/STIM_005.jpg	99
2787.65	0.542	542.0	congruent	Block3	congruent/STIM_005.jpg	99
2790.531	0.435	435.0	congruent	Block3	congruent/STIM_005.jpg	99
2794.74	0.408	408.5	congruent	Block3	congruent/STIM_006.jpg	99
2797.964	0.547	547.2	congruent	Block3	congruent/STIM_006.jpg	100
2800.972	0.669	669.4	congruent	Block3	congruent/STIM_006.jpg	100
2804.496	0.558	558.3	congruent	Block3	congruent/STIM_006.jpg	100
2808.188	0.593	593.0	congruent	Block3	congruent/STIM_006.jpg	100
2810.781	0.543	542.6	congruent	Block3	congruent/STIM_007.jpg	99
2814.944	0.474	473.9	congruent	Block3	congruent/STIM_007.jpg	100
2817.979	0.422	422.1	congruent	Block3	congruent/STIM_007.jpg	99
2821.905	0.662	661.8	congruent	Block3	congruent/STIM_007.jpg	99
2825.968	0.474	473.7	congruent	Block3	congruent/STIM_007.jpg	100
2829.539	0.442	441.6	congruent	Block3	congruent/STIM_008.jpg	100
2832.714	0.52	520.1	congruent	Block3	congruent/STIM_008.jpg	99
2835.29	0.452	451.5	congruent	Block3	congruent/STIM_008.jpg	99
2838.435	0.503	502.6	congruent	Block3	congruent/STIM_008.jpg	100
2841.445	0.55	549.8	congruent	Block3	congruent/STIM_008.jpg	99
2844.723	0.608	608.1	congruent	Block3	congruent/STIM_009.jpg	99
2848.653	0.631	630.7	congruent	Block3	congruent/STIM_009.jpg	99
2851.755	0.585	584.8	congruent	Block3	congruent/STIM_009.jpg	100
2855.17	0.553	553.4	congruent	Block3	congruent/STIM_009.jpg	99
2858.5	0.524	523.5	congruent	Block3	congruent/STIM_009.jpg	100
2862.428	0.457	457.4	congruent	Block3	congruent/STIM_010.jpg	99
2864.899	0.566	565.8	congruent	Block3	congruent/STIM_010.jpg	99
2868.292	0.531	531.2	congruent	Block3	congruent/STIM_010.jpg	99
2872.35	0.507	506.8	congruent	Block3	congruent/STIM_010.jpg	99
2875.084	0.495	494.9	congruent	Block3	congruent/STIM_010.jpg	100
2877.728	0.535	535.0	congruent	Block3	congruent/STIM_011.jpg	99
2880.938	0.491	491.3	congruent	Block3	congruent/STIM_011.jpg	99
2883.923	0.644	644.4	congruent	Block3	congruent/STIM_011.jpg	100
2888.204	0.586	586.5	congruent	Block3	congruent/STIM_011.jpg	100
2891.979	0.454	454.3	congruent	Block3	congruent/STIM_011.jpg	99
2896.397	0.553	553.3	congruent	Block3	congruent/STIM_012.jpg	100
2900.76	0.468	467.8	congruent	Block3	congruent/STIM_012.jpg	100
2903.942	0.482	481.5	congruent	Block3	congruent/STIM_012.jpg	100
2907.908	0.555	555.3	congruent	Block3	congruent/STIM_012.jpg	100
2911.273	0.586	586.5	congruent	Block3	congruent/STIM_012.jpg	99
2915.358	0.4	399.5	congruent	Block3	congruent/STIM_013.jpg	100
2918.653	0.658	657.7	congruent	Block3	congruent/STIM_013.jpg	99
2923.227	0.656	655.7	congruent	Block3	congruent/STIM_013.jpg	99
2926.27	0.447	447.4	congruent	Block3	congruent/STIM_013.jpg	100
2930.128	0.43	429.6	congruent	Block3	congruent/STIM_013.jpg	100
2933.373	0.446	446.0	congruent	Block3	congruent/STIM_014.jpg	99
2936.39	0.447	447.2	congruent	Block3	congruent/STIM_014.jpg	99
2939.951	0.539	539.1	congruent	Block3	congruent/STIM_014.jpg	100
2943.752	0.516	515.6	congruent	Block3	congruent/STIM_014.jpg	99
2947.207	0.406	406.0	congruent	Block3	congruent/STIM_014.jpg	99
2950.802	0.443	443.1	congruent	Block3	congruent/STIM_015.jpg	99
2953.273	0.398	398.1	congruent	Block3	congruent/STIM_015.jpg	99
2956.987	0.392	392.1	congruent	Block3	congruent/STIM_015.jpg	100
2961.284	0.518	518.2	congruent	Block3	congruent/STIM_015.jpg	100
2964.214	0.68	680.5	congruent	Block3	congruent/STIM_015.jpg	99
2968.204	0.433	432.7	congruent	Block3	congruent/STIM_016.jpg	100
2972.568	0.606	605.8	congruent	Block3	congruent/STIM_016.jpg	100
2975.832	0.614	614.4	congruent	Block3	congruent/STIM_016.jpg	100
2979.474	0.503	502.6	congruent	Block3	congruent/STIM_016.jpg	100
2982.277	0.59	590.0	congruent	Block3	congruent/STIM_016.jpg	100
2985.163	0.608	607.7	congruent	Block3	congruent/STIM_017.jpg	99
2987.819	0.392	392.5	congruent	Block3	congruent/STIM_017.jpg	99
2990.93	0.535	534.8	congruent	Block3	congruent/STIM_017.jpg	99
2994.735	0.496	496.1	congruent	Block3	congruent/STIM_017.jpg	100
2999.101	0.415	415.4	congruent	Block3	congruent/STIM_017.jpg	99
3002.918	0.687	687.2	congruent	Block3	congruent/STIM_018.jpg	99
3006.622	0.69	690.4	congruent	Block3	congruent/STIM_018.jpg	99
3010.967	0.633	632.7	congruent	Block3	congruent/STIM_018.jpg	99
3015.393	0.641	640.7	congruent	Block3	congruent/STIM_018.jpg	99
3019.202	0.597	597.0	congruent	Block3	congruent/STIM_018.jpg	99
3022.97	0.64	640.1	congruent	Block3	congruent/STIM_019.jpg	99
3025.947	0.481	481.3	congruent	Block3	congruent/STIM_019.jpg	100
3029.13	0.461	460.6	congruent	Block3	congruent/STIM_019.jpg	99
3031.619	0.598	597.8	congruent	Block3	congruent/STIM_019.jpg	100
3034.341	0.63	630.3	congruent	Block3	congruent/STIM_019.jpg	99
3037.004	0.524	524.5	congruent	Block3	congruent/STIM_020.jpg	99
3040.491	0.469	468.6	congruent	Block3	congruent/STIM_020.jpg	99
3043.263	0.593	592.7	congruent	Block3	congruent/STIM_020.jpg	99
3045.963	0.594	593.8	congruent	Block3	congruent/STIM_020.jpg	100
3048.905	0.55	550.4	congruent	Block3	congruent/STIM_020.jpg	100
3053.257	0.399	399.3	congruent	Block3	congruent/STIM_021.jpg	99
3057.017	0.564	563.8	congruent	Block3	congruent/STIM_021.jpg	100
3059.996	0.526	525.8	congruent	Block3	congruent/STIM_021.jpg	100
3063.256	0.646	646.1	congruent	Block3	congruent/STIM_021.jpg	99
3066.459	0.646	646.5	congruent	Block3	congruent/STIM_021.jpg	99
3071.007	0.388	387.8	congruent	Block3	congruent/STIM_022.jpg	99
3074.102	0.427	427.4	congruent	Block3	congruent/STIM_022.jpg	99
3076.872	0.619	619.4	congruent	Block3	congruent/STIM_022.jpg	100
3080.147	0.574	574.2	congruent	Block3	congruent/STIM_022.jpg	99
3083.392	0.678	678.5	congruent	Block3	congruent/STIM_022.jpg	100
3087.995	0.64	640.0	congruent	Block3	congruent/STIM_023.jpg	99
3091.287	0.462	461.6	congruent	Block3	congruent/STIM_023.jpg	100
3094.35	0.53	530.5	congruent	Block3	congruent/STIM_023.jpg	100
3098.53	0.629	628.8	congruent	Block3	congruent/STIM_023.jpg	100
3102.742	0.428	428.0	congruent	Block3	congruent/STIM_023.jpg	99
3105.475	0.669	668.7	congruent	Block3	congruent/STIM_024.jpg	100
3108.247	0.652	652.0	congruent	Block3	congruent/STIM_024.jpg	100
3112.636	0.565	564.7	congruent	Block3	congruent/STIM_024.jpg	99
3116.048	0.41	410.5	congruent	Block3	congruent/STIM_024.jpg	100
3118.498	0.587	586.8	congruent	Block3	congruent/STIM_024.jpg	99
3121.662	0.477	476.7	congruent	Block3	congruent/STIM_025.jpg	99
3124.739	0.674	674.3	congruent	Block3	congruent/STIM_025.jpg	99
3127.788	0.438	437.8	congruent	Block3	congruent/STIM_025.jpg	100
3131.276	0.572	571.9	congruent	Block3	congruent/STIM_025.jpg	99
3134.903	0.442	441.7	congruent	Block3	congruent/STIM_025.jpg	99
3137.729	0.641	641.2	congruent	Block3	congruent/STIM_026.jpg	99
3140.816	0.474	474.0	congruent	Block3	congruent/STIM_026.jpg	100
3143.981	0.62	620.5	congruent	Block3	congruent/STIM_026.jpg	99
3148.167	0.504	503.8	congruent	Block3	congruent/STIM_026.jpg	99
3150.988	0.464	464.3	congruent	Block3	congruent/STIM_026.jpg	100
3154.335	0.514	513.9	congruent	Block3	congruent/STIM_027.jpg	100
3157.092	0.446	445.6	congruent	Block3	congruent/STIM_027.jpg	100
3161.479	0.665	665.3	congruent	Block3	congruent/STIM_027.jpg	99
3164.58	0.475	474.7	congruent	Block3	congruent/STIM_027.jpg	100
3168.207	0.469	468.7	congruent	Block3	congruent/STIM_027.jpg	99
3171.621	0.678	678.1	congruent	Block3	congruent/STIM_028.jpg	99
3174.787	0.404	403.9	congruent	Block3	congruent/STIM_028.jpg	100
3177.338	0.452	451.6	congruent	Block3	congruent/STIM_028.jpg	99
3180.978	0.477	477.1	congruent	Block3	congruent/STIM_028.jpg	99
3185.315	0.573	573.1	congruent	Block3	congruent/STIM_028.jpg	99
3189.006	0.448	448.3	congruent	Block3	congruent/STIM_029.jpg	100
3191.918	0.692	692.4	congruent	Block3	congruent/STIM_029.jpg	99
3195.805	0.475	475.4	congruent	Block3	congruent/STIM_029.jpg	99
3200.001	0.592	592.2	congruent	Block3	congruent/STIM_029.jpg	99
3202.751	0.393	392.9	congruent	Block3	congruent/STIM_029.jpg	99
