onset	duration	accuracy_binary	trial_type	learning_stage	stimulus
0.0	0.883	1	incongruent	Block1	incongruent/STIM_000.jpg
2.959	1.148	1	incongruent	Block1	incongruent/STIM_000.jpg
6.385	1.235	1	incongruent	Block1	incongruent/STIM_000.jpg
10.07	0.951	1	incongruent	Block1	incongruent/STIM_000.jpg
13.783	0.584	1	incongruent	Block1	incongruent/STIM_000.jpg
18.079	1.121	1	incongruent	Block1	incongruent/STIM_001.jpg
22.797	1.171	1	incongruent	Block1	incongruent/STIM_001.jpg
26.842	1.021	0	incongruent	Block1	incongruent/STIM_001.jpg
30.457	1.036	1	incongruent	Block1	incongruent/STIM_001.jpg
33.745	0.694	0	incongruent	Block1	incongruent/STIM_001.jpg
38.26	1.122	1	incongruent	Block1	incongruent/STIM_002.jpg
43.052	1.168	1	incongruent	Block1	incongruent/STIM_002.jpg
46.909	0.864	1	incongruent	Block1	incongruent/STIM_002.jpg
51.58	0.774	1	incongruent	Block1	incongruent/STIM_002.jpg
55.643	1.065	0	incongruent	Block1	incongruent/STIM_002.jpg
59.842	1.215	1	incongruent	Block1	incongruent/STIM_003.jpg
64.345	1.284	1	incongruent	Block1	incongruent/STIM_003.jpg
68.076	0.94	0	incongruent	Block1	incongruent/STIM_003.jpg
72.078	0.673	1	incongruent	Block1	incongruent/STIM_003.jpg
75.932	1.152	1	incongruent	Block1	incongruent/STIM_003.jpg
80.971	1.409	0	incongruent	Block1	incongruent/STIM_004.jpg
86.124	1.42	1	incongruent	Block1	incongruent/STIM_004.jpg
90.249	0.777	1	incongruent	Block1	incongruent/STIM_004.jpg
94.565	1.172	1	incongruent	Block1	incongruent/STIM_004.jpg
97.781	0.957	1	incongruent	Block1	incongruent/STIM_004.jpg
101.985	1.481	1	incongruent	Block1	incongruent/STIM_005.jpg
106.196	1.378	1	incongruent	Block1	incongruent/STIM_005.jpg
110.199	1.3	0	incongruent	Block1	incongruent/STIM_005.jpg
114.417	0.686	1	incongruent	Block1	incongruent/STIM_005.jpg
118.298	0.849	1	incongruent	Block1	incongruent/STIM_005.jpg
122.687	0.792	0	incongruent	Block1	incongruent/STIM_006.jpg
125.639	1.281	1	incongruent	Block1	incongruent/STIM_006.jpg
130.0	0.642	0	incongruent	Block1	incongruent/STIM_006.jpg
134.585	0.62	0	incongruent	Block1	incongruent/STIM_006.jpg
138.387	1.125	1	incongruent	Block1	incongruent/STIM_006.jpg
142.134	1.277	1	incongruent	Block1	incongruent/STIM_007.jpg
146.433	1.424	1	incongruent	Block1	incongruent/STIM_007.jpg
150.219	1.269	1	incongruent	Block1	incongruent/STIM_007.jpg
153.955	1.046	1	incongruent	Block1	incongruent/STIM_007.jpg
158.741	0.95	1	incongruent	Block1	incongruent/STIM_007.jpg
163.259	0.85	1	incongruent	Block1	incongruent/STIM_008.jpg
166.595	0.968	1	incongruent	Block1	incongruent/STIM_008.jpg
171.14	1.221	1	incongruent	Block1	incongruent/STIM_008.jpg
174.663	1.248	1	incongruent	Block1	incongruent/STIM_008.jpg
178.847	0.672	1	incongruent	Block1	incongruent/STIM_008.jpg
181.911	1.016	1	incongruent	Block1	incongruent/STIM_009.jpg
186.587	1.325	1	incongruent	Block1	incongruent/STIM_009.jpg
189.979	1.108	1	incongruent	Block1	incongruent/STIM_009.jpg
194.764	1.08	1	incongruent	Block1	incongruent/STIM_009.jpg
198.098	1.018	1	incongruent	Block1	incongruent/STIM_009.jpg
202.855	1.142	1	incongruent	Block1	incongruent/STIM_010.jpg
207.168	1.152	1	incongruent	Block1	incongruent/STIM_010.jpg
211.108	0.846	1	incongruent	Block1	incongruent/STIM_010.jpg
214.484	0.865	0	incongruent	Block1	incongruent/STIM_010.jpg
218.652	0.89	1	incongruent	Block1	incongruent/STIM_010.jpg
223.119	0.703	1	incongruent	Block1	incongruent/STIM_011.jpg
226.45	1.11	1	incongruent	Block1	incongruent/STIM_011.jpg
229.896	1.05	1	incongruent	Block1	incongruent/STIM_011.jpg
234.867	1.129	1	incongruent	Block1	incongruent/STIM_011.jpg
238.061	0.664	1	incongruent	Block1	incongruent/STIM_011.jpg
242.606	1.288	1	incongruent	Block1	incongruent/STIM_012.jpg
246.769	0.956	1	incongruent	Block1	incongruent/STIM_012.jpg
251.0	1.144	1	incongruent	Block1	incongruent/STIM_012.jpg
254.718	1.018	1	incongruent	Block1	incongruent/STIM_012.jpg
259.302	0.682	1	incongruent	Block1	incongruent/STIM_012.jpg
263.228	1.126	1	incongruent	Block1	incongruent/STIM_013.jpg
267.351	0.906	1	incongruent	Block1	incongruent/STIM_013.jpg
272.047	0.751	1	incongruent	Block1	incongruent/STIM_013.jpg
275.207	1.155	1	incongruent	Block1	incongruent/STIM_013.jpg
279.053	0.916	1	incongruent	Block1	incongruent/STIM_013.jpg
283.615	1.097	1	incongruent	Block1	incongruent/STIM_014.jpg
286.943	1.382	1	incongruent	Block1	incongruent/STIM_014.jpg
291.866	1.156	1	incongruent	Block1	incongruent/STIM_014.jpg
296.67	0.84	1	incongruent	Block1	incongruent/STIM_014.jpg
300.379	0.983	1	incongruent	Block1	incongruent/STIM_014.jpg
304.538	1.048	1	incongruent	Block1	incongruent/STIM_015.jpg
307.746	1.295	1	incongruent	Block1	incongruent/STIM_015.jpg
312.306	0.651	1	incongruent	Block1	incongruent/STIM_015.jpg
316.771	1.228	1	incongruent	Block1	incongruent/STIM_015.jpg
321.386	0.927	1	incongruent	Block1	incongruent/STIM_015.jpg
325.64	1.166	1	incongruent	Block1	incongruent/STIM_016.jpg
329.363	1.016	1	incongruent	Block1	incongruent/STIM_016.jpg
333.995	0.753	1	incongruent	Block1	incongruent/STIM_016.jpg
337.18	1.023	1	incongruent	Block1	incongruent/STIM_016.jpg
341.958	1.006	1	incongruent	Block1	incongruent/STIM_016.jpg
345.805	1.243	0	incongruent	Block1	incongruent/STIM_017.jpg
350.86	1.21	1	incongruent	Block1	incongruent/STIM_017.jpg
355.742	0.666	1	incongruent	Block1	incongruent/STIM_017.jpg
360.181	0.927	1	incongruent	Block1	incongruent/STIM_017.jpg
364.537	0.617	1	incongruent	Block1	incongruent/STIM_017.jpg
368.854	0.959	1	incongruent	Block1	incongruent/STIM_018.jpg
372.108	0.903	1	incongruent	Block1	incongruent/STIM_018.jpg
375.656	0.752	1	incongruent	Block1	incongruent/STIM_018.jpg
379.913	0.931	1	incongruent	Block1	incongruent/STIM_018.jpg
384.35	1.094	1	incongruent	Block1	incongruent/STIM_018.jpg
389.338	1.258	1	incongruent	Block1	incongruent/STIM_019.jpg
393.792	1.031	1	incongruent	Block1	incongruent/STIM_019.jpg
397.571	1.316	1	incongruent	Block1	incongruent/STIM_019.jpg
402.387	1.033	1	incongruent	Block1	incongruent/STIM_019.jpg
406.971	1.097	1	incongruent	Block1	incongruent/STIM_019.jpg
410.762	1.157	1	incongruent	Block1	incongruent/STIM_020.jpg
414.609	1.305	1	incongruent	Block1	incongruent/STIM_020.jpg
417.913	0.853	1	incongruent	Block1	incongruent/STIM_020.jpg
421.595	0.96	1	incongruent	Block1	incongruent/STIM_020.jpg
425.498	0.79	1	incongruent	Block1	incongruent/STIM_020.jpg
428.772	1.487	1	incongruent	Block1	incongruent/STIM_021.jpg
433.995	0.861	1	incongruent	Block1	incongruent/STIM_021.jpg
438.314	0.649	1	incongruent	Block1	incongruent/STIM_021.jpg
442.365	0.885	1	incongruent	Block1	incongruent/STIM_021.jpg
445.383	1.006	1	incongruent	Block1	incongruent/STIM_021.jpg
450.344	1.361	1	incongruent	Block1	incongruent/STIM_022.jpg
454.537	1.176	1	incongruent	Block1	incongruent/STIM_022.jpg
459.337	1.254	1	incongruent	Block1	incongruent/STIM_022.jpg
464.395	0.622	1	incongruent	Block1	incongruent/STIM_022.jpg
468.282	1.18	1	incongruent	Block1	incongruent/STIM_022.jpg
473.119	1.495	1	incongruent	Block1	incongruent/STIM_023.jpg
476.922	1.209	0	incongruent	Block1	incongruent/STIM_023.jpg
480.628	1.088	1	incongruent	Block1	incongruent/STIM_023.jpg
483.853	0.892	1	incongruent	Block1	incongruent/STIM_023.jpg
487.449	1.133	1	incongruent	Block1	incongruent/STIM_023.jpg
492.217	1.277	1	incongruent	Block1	incongruent/STIM_024.jpg
495.57	0.876	1	incongruent	Block1	incongruent/STIM_024.jpg
500.129	1.207	0	incongruent	Block1	incongruent/STIM_024.jpg
505.08	0.725	1	incongruent	Block1	incongruent/STIM_024.jpg
508.373	0.773	1	incongruent	Block1	incongruent/STIM_024.jpg
512.35	1.298	1	incongruent	Block1	incongruent/STIM_025.jpg
516.647	0.826	1	incongruent	Block1	incongruent/STIM_025.jpg
521.362	0.724	1	incongruent	Block1	incongruent/STIM_025.jpg
524.193	1.259	1	incongruent	Block1	incongruent/STIM_025.jpg
528.422	1.182	1	incongruent	Block1	incongruent/STIM_025.jpg
532.687	0.859	1	incongruent	Block1	incongruent/STIM_026.jpg
535.871	0.769	1	incongruent	Block1	incongruent/STIM_026.jpg
538.955	1.188	1	incongruent	Block1	incongruent/STIM_026.jpg
543.883	1.211	1	incongruent	Block1	incongruent/STIM_026.jpg
547.458	0.723	1	incongruent	Block1	incongruent/STIM_026.jpg
551.905	0.724	1	incongruent	Block1	incongruent/STIM_027.jpg
555.805	1.288	1	incongruent	Block1	incongruent/STIM_027.jpg
560.729	0.986	1	incongruent	Block1	incongruent/STIM_027.jpg
565.263	0.945	1	incongruent	Block1	incongruent/STIM_027.jpg
569.108	0.874	0	incongruent	Block1	incongruent/STIM_027.jpg
573.172	0.895	0	incongruent	Block1	incongruent/STIM_028.jpg
577.307	1.299	1	incongruent	Block1	incongruent/STIM_028.jpg
580.686	0.67	0	incongruent	Block1	incongruent/STIM_028.jpg
583.84	0.603	1	incongruent	Block1	incongruent/STIM_028.jpg
587.513	1.12	1	incongruent	Block1	incongruent/STIM_028.jpg
591.312	1.229	1	incongruent	Block1	incongruent/STIM_029.jpg
594.559	0.976	1	incongruent	Block1	incongruent/STIM_029.jpg
598.759	1.083	0	incongruent	Block1	incongruent/STIM_029.jpg
602.115	0.809	1	incongruent	Block1	incongruent/STIM_029.jpg
605.576	0.764	0	incongruent	Block1	incongruent/STIM_029.jpg
608.456	0.825	1	congruent	Block1	congruent/STIM_000.jpg
612.058	0.823	1	congruent	Block1	congruent/STIM_000.jpg
616.43	0.677	1	congruent	Block1	congruent/STIM_000.jpg
620.333	0.651	1	congruent	Block1	congruent/STIM_000.jpg
623.905	0.621	1	congruent	Block1	congruent/STIM_000.jpg
628.481	0.511	1	congruent	Block1	congruent/STIM_001.jpg
631.19	0.786	1	congruent	Block1	congruent/STIM_001.jpg
634.732	0.896	1	congruent	Block1	congruent/STIM_001.jpg
638.039	0.885	1	congruent	Block1	congruent/STIM_001.jpg
641.457	0.609	1	congruent	Block1	congruent/STIM_001.jpg
644.349	0.514	1	congruent	Block1	congruent/STIM_002.jpg
647.982	0.896	1	congruent	Block1	congruent/STIM_002.jpg
651.059	0.667	1	congruent	Block1	congruent/STIM_002.jpg
655.57	0.532	1	congruent	Block1	congruent/STIM_002.jpg
658.833	0.71	0	congruent	Block1	congruent/STIM_002.jpg
661.943	0.629	1	congruent	Block1	congruent/STIM_003.jpg
666.452	0.689	1	congruent	Block1	congruent/STIM_003.jpg
669.661	0.808	1	congruent	Block1	congruent/STIM_003.jpg
673.058	0.607	1	congruent	Block1	congruent/STIM_003.jpg
677.29	0.796	1	congruent	Block1	congruent/STIM_003.jpg
680.557	0.555	1	congruent	Block1	congruent/STIM_004.jpg
684.595	0.865	1	congruent	Block1	congruent/STIM_004.jpg
687.677	0.856	1	congruent	Block1	congruent/STIM_004.jpg
691.41	0.882	1	congruent	Block1	congruent/STIM_004.jpg
695.926	0.79	1	congruent	Block1	congruent/STIM_004.jpg
699.164	0.838	1	congruent	Block1	congruent/STIM_005.jpg
702.794	0.697	1	congruent	Block1	congruent/STIM_005.jpg
705.999	0.836	1	congruent	Block1	congruent/STIM_005.jpg
710.267	0.857	1	congruent	Block1	congruent/STIM_005.jpg
713.196	0.508	1	congruent	Block1	congruent/STIM_005.jpg
717.268	0.746	1	congruent	Block1	congruent/STIM_006.jpg
720.649	0.68	1	congruent	Block1	congruent/STIM_006.jpg
725.252	0.72	1	congruent	Block1	congruent/STIM_006.jpg
728.198	0.551	1	congruent	Block1	congruent/STIM_006.jpg
731.081	0.542	1	congruent	Block1	congruent/STIM_006.jpg
734.994	0.823	1	congruent	Block1	congruent/STIM_007.jpg
739.591	0.542	1	congruent	Block1	congruent/STIM_007.jpg
742.244	0.722	1	congruent	Block1	congruent/STIM_007.jpg
746.435	0.7	1	congruent	Block1	congruent/STIM_007.jpg
749.171	0.801	1	congruent	Block1	congruent/STIM_007.jpg
753.753	0.6	1	congruent	Block1	congruent/STIM_008.jpg
756.946	0.879	1	congruent	Block1	congruent/STIM_008.jpg
761.806	0.591	1	congruent	Block1	congruent/STIM_008.jpg
764.814	0.756	1	congruent	Block1	congruent/STIM_008.jpg
769.324	0.639	1	congruent	Block1	congruent/STIM_008.jpg
772.587	0.678	1	congruent	Block1	congruent/STIM_009.jpg
776.188	0.892	1	congruent	Block1	congruent/STIM_009.jpg
780.831	0.838	1	congruent	Block1	congruent/STIM_009.jpg
784.663	0.836	0	congruent	Block1	congruent/STIM_009.jpg
787.569	0.577	1	congruent	Block1	congruent/STIM_009.jpg
791.836	0.8	1	congruent	Block1	congruent/STIM_010.jpg
795.618	0.782	1	congruent	Block1	congruent/STIM_010.jpg
800.264	0.732	1	congruent	Block1	congruent/STIM_010.jpg
803.062	0.868	1	congruent	Block1	congruent/STIM_010.jpg
807.748	0.848	1	congruent	Block1	congruent/STIM_010.jpg
811.793	0.633	1	congruent	Block1	congruent/STIM_011.jpg
815.617	0.856	1	congruent	Block1	congruent/STIM_011.jpg
820.285	0.748	1	congruent	Block1	congruent/STIM_011.jpg
824.714	0.504	1	congruent	Block1	congruent/STIM_011.jpg
827.231	0.728	0	congruent	Block1	congruent/STIM_011.jpg
831.738	0.734	1	congruent	Block1	congruent/STIM_012.jpg
836.15	0.803	1	congruent	Block1	congruent/STIM_012.jpg
840.93	0.887	1	congruent	Block1	congruent/STIM_012.jpg
844.498	0.541	1	congruent	Block1	congruent/STIM_012.jpg
847.758	0.705	1	congruent	Block1	congruent/STIM_012.jpg
851.405	0.57	1	congruent	Block1	congruent/STIM_013.jpg
854.055	0.548	1	congruent	Block1	congruent/STIM_013.jpg
857.774	0.773	1	congruent	Block1	congruent/STIM_013.jpg
860.643	0.885	1	congruent	Block1	congruent/STIM_013.jpg
863.912	0.836	1	congruent	Block1	congruent/STIM_013.jpg
867.982	0.816	1	congruent	Block1	congruent/STIM_014.jpg
871.669	0.75	1	congruent	Block1	congruent/STIM_014.jpg
874.84	0.556	1	congruent	Block1	congruent/STIM_014.jpg
877.941	0.764	1	congruent	Block1	congruent/STIM_014.jpg
881.078	0.585	1	congruent	Block1	congruent/STIM_014.jpg
884.544	0.878	1	congruent	Block1	congruent/STIM_015.jpg
888.703	0.871	1	congruent	Block1	congruent/STIM_015.jpg
892.877	0.598	1	congruent	Block1	congruent/STIM_015.jpg
896.192	0.617	1	congruent	Block1	congruent/STIM_015.jpg
899.437	0.853	1	congruent	Block1	congruent/STIM_015.jpg
903.254	0.893	1	congruent	Block1	congruent/STIM_016.jpg
906.257	0.591	1	congruent	Block1	congruent/STIM_016.jpg
910.821	0.556	1	congruent	Block1	congruent/STIM_016.jpg
914.09	0.779	1	congruent	Block1	congruent/STIM_016.jpg
917.225	0.737	1	congruent	Block1	congruent/STIM_016.jpg
920.263	0.855	1	congruent	Block1	congruent/STIM_017.jpg
925.079	0.656	1	congruent	Block1	congruent/STIM_017.jpg
927.879	0.735	1	congruent	Block1	congruent/STIM_017.jpg
930.864	0.72	1	congruent	Block1	congruent/STIM_017.jpg
934.367	0.855	1	congruent	Block1	congruent/STIM_017.jpg
938.759	0.672	1	congruent	Block1	congruent/STIM_018.jpg
943.185	0.566	1	congruent	Block1	congruent/STIM_018.jpg
946.247	0.894	1	congruent	Block1	congruent/STIM_018.jpg
950.051	0.522	0	congruent	Block1	congruent/STIM_018.jpg
952.941	0.706	1	congruent	Block1	congruent/STIM_018.jpg
956.436	0.641	1	congruent	Block1	congruent/STIM_019.jpg
960.867	0.866	1	congruent	Block1	congruent/STIM_019.jpg
965.04	0.777	1	congruent	Block1	congruent/STIM_019.jpg
968.007	0.628	1	congruent	Block1	congruent/STIM_019.jpg
970.712	0.506	1	congruent	Block1	congruent/STIM_019.jpg
974.645	0.55	1	congruent	Block1	congruent/STIM_020.jpg
977.774	0.871	1	congruent	Block1	congruent/STIM_020.jpg
981.398	0.786	1	congruent	Block1	congruent/STIM_020.jpg
984.211	0.878	1	congruent	Block1	congruent/STIM_020.jpg
988.295	0.793	0	congruent	Block1	congruent/STIM_020.jpg
991.413	0.765	1	congruent	Block1	congruent/STIM_021.jpg
995.368	0.735	1	congruent	Block1	congruent/STIM_021.jpg
998.62	0.502	1	congruent	Block1	congruent/STIM_021.jpg
1002.707	0.532	1	congruent	Block1	congruent/STIM_021.jpg
1005.576	0.759	1	congruent	Block1	congruent/STIM_021.jpg
1009.147	0.561	1	congruent	Block1	congruent/STIM_022.jpg
1012.97	0.888	1	congruent	Block1	congruent/STIM_022.jpg
1016.219	0.714	1	congruent	Block1	congruent/STIM_022.jpg
1019.976	0.717	0	congruent	Block1	congruent/STIM_022.jpg
1022.96	0.843	1	congruent	Block1	congruent/STIM_022.jpg
1026.613	0.614	1	congruent	Block1	congruent/STIM_023.jpg
1030.285	0.716	1	congruent	Block1	congruent/STIM_023.jpg
1033.053	0.575	1	congruent	Block1	congruent/STIM_023.jpg
1037.062	0.673	1	congruent	Block1	congruent/STIM_023.jpg
1040.389	0.682	1	congruent	Block1	congruent/STIM_023.jpg
1044.167	0.808	1	congruent	Block1	congruent/STIM_024.jpg
1047.469	0.827	1	congruent	Block1	congruent/STIM_024.jpg
1051.131	0.505	1	congruent	Block1	congruent/STIM_024.jpg
1053.672	0.856	1	congruent	Block1	congruent/STIM_024.jpg
1057.172	0.799	1	congruent	Block1	congruent/STIM_024.jpg
1061.215	0.508	1	congruent	Block1	congruent/STIM_025.jpg
1063.968	0.758	1	congruent	Block1	congruent/STIM_025.jpg
1068.011	0.6	1	congruent	Block1	congruent/STIM_025.jpg
1072.022	0.663	1	congruent	Block1	congruent/STIM_025.jpg
1076.66	0.565	1	congruent	Block1	congruent/STIM_025.jpg
1079.953	0.595	1	congruent	Block1	congruent/STIM_026.jpg
1082.992	0.598	1	congruent	Block1	congruent/STIM_026.jpg
1087.12	0.797	1	congruent	Block1	congruent/STIM_026.jpg
1090.51	0.709	1	congruent	Block1	congruent/STIM_026.jpg
1094.347	0.615	1	congruent	Block1	congruent/STIM_026.jpg
1098.55	0.823	1	congruent	Block1	congruent/STIM_027.jpg
1101.989	0.888	1	congruent	Block1	congruent/STIM_027.jpg
1105.36	0.505	1	congruent	Block1	congruent/STIM_027.jpg
1108.952	0.639	1	congruent	Block1	congruent/STIM_027.jpg
1111.629	0.607	1	congruent	Block1	congruent/STIM_027.jpg
1115.147	0.646	1	congruent	Block1	congruent/STIM_028.jpg
1118.369	0.606	1	congruent	Block1	congruent/STIM_028.jpg
1122.901	0.645	1	congruent	Block1	congruent/STIM_028.jpg
1125.908	0.729	1	congruent	Block1	congruent/STIM_028.jpg
1129.961	0.504	1	congruent	Block1	congruent/STIM_028.jpg
1132.868	0.637	1	congruent	Block1	congruent/STIM_029.jpg
1136.642	0.591	1	congruent	Block1	congruent/STIM_029.jpg
1140.358	0.665	1	congruent	Block1	congruent/STIM_029.jpg
1144.096	0.773	1	congruent	Block1	congruent/STIM_029.jpg
1148.551	0.531	1	congruent	Block1	congruent/STIM_029.jpg
1152.515	0.723	1	incongruent	Block2	incongruent/STIM_000.jpg
1155.342	1.119	1	incongruent	Block2	incongruent/STIM_000.jpg
1159.61	0.779	0	incongruent	Block2	incongruent/STIM_000.jpg
1163.225	0.604	1	incongruent	Block2	incongruent/STIM_000.jpg
1166.577	0.941	1	incongruent	Block2	incongruent/STIM_000.jpg
1170.638	0.795	1	incongruent	Block2	incongruent/STIM_001.jpg
1174.113	0.777	1	incongruent	Block2	incongruent/STIM_001.jpg
1177.899	0.565	1	incongruent	Block2	incongruent/STIM_001.jpg
1181.014	0.783	1	incongruent	Block2	incongruent/STIM_001.jpg
1185.139	0.92	1	incongruent	Block2	incongruent/STIM_001.jpg
1190.003	1.277	0	incongruent	Block2	incongruent/STIM_002.jpg
1194.207	1.0	1	incongruent	Block2	incongruent/STIM_002.jpg
1197.699	0.59	1	incongruent	Block2	incongruent/STIM_002.jpg
1201.815	0.622	1	incongruent	Block2	incongruent/STIM_002.jpg
1205.264	0.578	0	incongruent	Block2	incongruent/STIM_002.jpg
1208.942	0.805	1	incongruent	Block2	incongruent/STIM_003.jpg
1213.717	0.596	1	incongruent	Block2	incongruent/STIM_003.jpg
1217.096	0.812	1	incongruent	Block2	incongruent/STIM_003.jpg
1220.049	0.917	1	incongruent	Block2	incongruent/STIM_003.jpg
1224.621	0.582	1	incongruent	Block2	incongruent/STIM_003.jpg
1228.07	0.966	1	incongruent	Block2	incongruent/STIM_004.jpg
1232.138	0.771	1	incongruent	Block2	incongruent/STIM_004.jpg
1235.297	1.006	1	incongruent	Block2	incongruent/STIM_004.jpg
1239.426	0.719	1	incongruent	Block2	incongruent/STIM_004.jpg
1243.146	0.817	1	incongruent	Block2	incongruent/STIM_004.jpg
1246.359	0.841	0	incongruent	Block2	incongruent/STIM_005.jpg
1250.782	0.673	1	incongruent	Block2	incongruent/STIM_005.jpg
1254.591	0.566	1	incongruent	Block2	incongruent/STIM_005.jpg
1257.264	0.757	1	incongruent	Block2	incongruent/STIM_005.jpg
1261.907	0.775	1	incongruent	Block2	incongruent/STIM_005.jpg
1265.591	0.989	1	incongruent	Block2	incongruent/STIM_006.jpg
1269.237	0.888	1	incongruent	Block2	incongruent/STIM_006.jpg
1272.647	0.563	1	incongruent	Block2	incongruent/STIM_006.jpg
1275.237	0.514	1	incongruent	Block2	incongruent/STIM_006.jpg
1278.468	0.63	1	incongruent	Block2	incongruent/STIM_006.jpg
1282.724	1.122	1	incongruent	Block2	incongruent/STIM_007.jpg
1286.748	0.66	1	incongruent	Block2	incongruent/STIM_007.jpg
1289.602	0.953	1	incongruent	Block2	incongruent/STIM_007.jpg
1292.92	0.765	1	incongruent	Block2	incongruent/STIM_007.jpg
1296.993	0.73	1	incongruent	Block2	incongruent/STIM_007.jpg
1300.255	0.628	1	incongruent	Block2	incongruent/STIM_008.jpg
1304.053	1.002	1	incongruent	Block2	incongruent/STIM_008.jpg
1307.865	1.081	1	incongruent	Block2	incongruent/STIM_008.jpg
1311.456	0.967	1	incongruent	Block2	incongruent/STIM_008.jpg
1314.475	1.034	1	incongruent	Block2	incongruent/STIM_008.jpg
1318.362	0.603	1	incongruent	Block2	incongruent/STIM_009.jpg
1322.134	1.111	1	incongruent	Block2	incongruent/STIM_009.jpg
1326.564	1.057	1	incongruent	Block2	incongruent/STIM_009.jpg
1330.417	0.935	1	incongruent	Block2	incongruent/STIM_009.jpg
1333.884	0.773	1	incongruent	Block2	incongruent/STIM_009.jpg
1338.144	0.994	1	incongruent	Block2	incongruent/STIM_010.jpg
1343.105	0.632	1	incongruent	Block2	incongruent/STIM_010.jpg
1345.921	0.799	1	incongruent	Block2	incongruent/STIM_010.jpg
1350.146	0.986	1	incongruent	Block2	incongruent/STIM_010.jpg
1353.71	0.6	1	incongruent	Block2	incongruent/STIM_010.jpg
1356.735	1.159	1	incongruent	Block2	incongruent/STIM_011.jpg
1360.118	0.588	1	incongruent	Block2	incongruent/STIM_011.jpg
1362.955	0.562	1	incongruent	Block2	incongruent/STIM_011.jpg
1366.582	1.026	1	incongruent	Block2	incongruent/STIM_011.jpg
1370.896	0.596	1	incongruent	Block2	incongruent/STIM_011.jpg
1374.028	1.115	1	incongruent	Block2	incongruent/STIM_012.jpg
1377.591	1.127	1	incongruent	Block2	incongruent/STIM_012.jpg
1381.011	0.713	1	incongruent	Block2	incongruent/STIM_012.jpg
1385.296	0.525	1	incongruent	Block2	incongruent/STIM_012.jpg
1387.956	1.043	1	incongruent	Block2	incongruent/STIM_012.jpg
1392.257	0.658	1	incongruent	Block2	incongruent/STIM_013.jpg
1396.629	1.146	1	incongruent	Block2	incongruent/STIM_013.jpg
1401.326	0.624	1	incongruent	Block2	incongruent/STIM_013.jpg
1405.061	0.557	1	incongruent	Block2	incongruent/STIM_013.jpg
1409.156	1.042	1	incongruent	Block2	incongruent/STIM_013.jpg
1412.91	1.093	1	incongruent	Block2	incongruent/STIM_014.jpg
1417.624	0.752	1	incongruent	Block2	incongruent/STIM_014.jpg
1421.808	0.982	1	incongruent	Block2	incongruent/STIM_014.jpg
1426.151	0.498	1	incongruent	Block2	incongruent/STIM_014.jpg
1429.939	0.956	1	incongruent	Block2	incongruent/STIM_014.jpg
1433.619	0.778	1	incongruent	Block2	incongruent/STIM_015.jpg
1436.683	0.696	1	incongruent	Block2	incongruent/STIM_015.jpg
1441.067	0.855	1	incongruent	Block2	incongruent/STIM_015.jpg
1445.507	0.789	1	incongruent	Block2	incongruent/STIM_015.jpg
1448.796	0.849	1	incongruent	Block2	incongruent/STIM_015.jpg
1452.318	0.662	1	incongruent	Block2	incongruent/STIM_016.jpg
1456.764	0.625	1	incongruent	Block2	incongruent/STIM_016.jpg
1461.357	1.038	1	incongruent	Block2	incongruent/STIM_016.jpg
1465.854	0.559	1	incongruent	Block2	incongruent/STIM_016.jpg
1469.253	1.01	1	incongruent	Block2	incongruent/STIM_016.jpg
1473.296	0.893	1	incongruent	Block2	incongruent/STIM_017.jpg
1477.518	0.597	1	incongruent	Block2	incongruent/STIM_017.jpg
1482.044	1.018	1	incongruent	Block2	incongruent/STIM_017.jpg
1485.62	0.775	1	incongruent	Block2	incongruent/STIM_017.jpg
1489.056	0.686	1	incongruent	Block2	incongruent/STIM_017.jpg
1493.012	0.928	1	incongruent	Block2	incongruent/STIM_018.jpg
1496.453	0.874	1	incongruent	Block2	incongruent/STIM_018.jpg
1499.864	1.12	1	incongruent	Block2	incongruent/STIM_018.jpg
1503.33	1.003	1	incongruent	Block2	incongruent/STIM_018.jpg
1506.956	0.74	1	incongruent	Block2	incongruent/STIM_018.jpg
1510.491	0.861	1	incongruent	Block2	incongruent/STIM_019.jpg
1514.71	0.563	1	incongruent	Block2	incongruent/STIM_019.jpg
1517.764	1.035	1	incongruent	Block2	incongruent/STIM_019.jpg
1521.572	0.78	1	incongruent	Block2	incongruent/STIM_019.jpg
1525.252	0.692	1	incongruent	Block2	incongruent/STIM_019.jpg
1528.56	0.867	1	incongruent	Block2	incongruent/STIM_020.jpg
1533.16	0.583	1	incongruent	Block2	incongruent/STIM_020.jpg
1536.696	1.001	1	incongruent	Block2	incongruent/STIM_020.jpg
1539.873	0.923	1	incongruent	Block2	incongruent/STIM_020.jpg
1543.59	0.503	1	incongruent	Block2	incongruent/STIM_020.jpg
1548.077	1.05	1	incongruent	Block2	incongruent/STIM_021.jpg
1551.357	0.567	1	incongruent	Block2	incongruent/STIM_021.jpg
1554.301	0.963	1	incongruent	Block2	incongruent/STIM_021.jpg
1557.999	0.848	1	incongruent	Block2	incongruent/STIM_021.jpg
1561.542	0.941	1	incongruent	Block2	incongruent/STIM_021.jpg
1566.392	0.716	0	incongruent	Block2	incongruent/STIM_022.jpg
1570.562	1.06	1	incongruent	Block2	incongruent/STIM_022.jpg
1573.654	1.014	0	incongruent	Block2	incongruent/STIM_022.jpg
1576.969	0.67	1	incongruent	Block2	incongruent/STIM_022.jpg
1581.209	0.685	1	incongruent	Block2	incongruent/STIM_022.jpg
1585.761	0.987	1	incongruent	Block2	incongruent/STIM_023.jpg
1590.627	1.06	1	incongruent	Block2	incongruent/STIM_023.jpg
1594.504	0.902	1	incongruent	Block2	incongruent/STIM_023.jpg
1597.857	0.535	1	incongruent	Block2	incongruent/STIM_023.jpg
1600.706	0.517	1	incongruent	Block2	incongruent/STIM_023.jpg
1604.026	0.995	1	incongruent	Block2	incongruent/STIM_024.jpg
1608.379	0.8	0	incongruent	Block2	incongruent/STIM_024.jpg
1611.809	0.749	1	incongruent	Block2	incongruent/STIM_024.jpg
1615.2	0.83	1	incongruent	Block2	incongruent/STIM_024.jpg
1618.907	0.654	1	incongruent	Block2	incongruent/STIM_024.jpg
1623.392	0.884	1	incongruent	Block2	incongruent/STIM_025.jpg
1627.716	1.028	1	incongruent	Block2	incongruent/STIM_025.jpg
1632.644	0.878	1	incongruent	Block2	incongruent/STIM_025.jpg
1636.556	0.579	1	incongruent	Block2	incongruent/STIM_025.jpg
1640.744	0.725	1	incongruent	Block2	incongruent/STIM_025.jpg
1644.559	0.631	1	incongruent	Block2	incongruent/STIM_026.jpg
1647.696	0.582	1	incongruent	Block2	incongruent/STIM_026.jpg
1652.113	0.873	0	incongruent	Block2	incongruent/STIM_026.jpg
1656.112	0.561	1	incongruent	Block2	incongruent/STIM_026.jpg
1659.364	0.668	1	incongruent	Block2	incongruent/STIM_026.jpg
1663.45	1.201	1	incongruent	Block2	incongruent/STIM_027.jpg
1666.969	1.028	1	incongruent	Block2	incongruent/STIM_027.jpg
1671.509	0.942	1	incongruent	Block2	incongruent/STIM_027.jpg
1675.349	0.888	1	incongruent	Block2	incongruent/STIM_027.jpg
1679.525	0.758	1	incongruent	Block2	incongruent/STIM_027.jpg
1682.324	0.759	0	incongruent	Block2	incongruent/STIM_028.jpg
1685.89	1.071	1	incongruent	Block2	incongruent/STIM_028.jpg
1689.88	0.574	0	incongruent	Block2	incongruent/STIM_028.jpg
1693.02	0.677	1	incongruent	Block2	incongruent/STIM_028.jpg
1697.243	0.983	1	incongruent	Block2	incongruent/STIM_028.jpg
1701.976	0.642	1	incongruent	Block2	incongruent/STIM_029.jpg
1705.475	0.96	1	incongruent	Block2	incongruent/STIM_029.jpg
1709.312	0.68	1	incongruent	Block2	incongruent/STIM_029.jpg
1713.582	0.924	1	incongruent	Block2	incongruent/STIM_029.jpg
1717.776	0.864	1	incongruent	Block2	incongruent/STIM_029.jpg
1722.498	0.885	1	congruent	Block2	congruent/STIM_000.jpg
1726.814	0.889	1	congruent	Block2	congruent/STIM_000.jpg
1730.984	0.718	1	congruent	Block2	congruent/STIM_000.jpg
1735.037	0.727	1	congruent	Block2	congruent/STIM_000.jpg
1739.332	0.529	1	congruent	Block2	congruent/STIM_000.jpg
1742.997	0.554	1	congruent	Block2	congruent/STIM_001.jpg
1746.212	0.723	1	congruent	Block2	congruent/STIM_001.jpg
1749.772	0.656	1	congruent	Block2	congruent/STIM_001.jpg
1754.391	0.806	1	congruent	Block2	congruent/STIM_001.jpg
1757.78	0.709	1	congruent	Block2	congruent/STIM_001.jpg
1760.743	0.889	1	congruent	Block2	congruent/STIM_002.jpg
1763.969	0.554	1	congruent	Block2	congruent/STIM_002.jpg
1766.781	0.804	1	congruent	Block2	congruent/STIM_002.jpg
1770.861	0.735	1	congruent	Block2	congruent/STIM_002.jpg
1774.555	0.824	1	congruent	Block2	congruent/STIM_002.jpg
1778.74	0.801	1	congruent	Block2	congruent/STIM_003.jpg
1782.179	0.728	1	congruent	Block2	congruent/STIM_003.jpg
1785.514	0.714	1	congruent	Block2	congruent/STIM_003.jpg
1788.903	0.759	1	congruent	Block2	congruent/STIM_003.jpg
1793.522	0.639	1	congruent	Block2	congruent/STIM_003.jpg
1797.022	0.646	1	congruent	Block2	congruent/STIM_004.jpg
1800.904	0.801	1	congruent	Block2	congruent/STIM_004.jpg
1805.294	0.634	1	congruent	Block2	congruent/STIM_004.jpg
1808.186	0.852	1	congruent	Block2	congruent/STIM_004.jpg
1811.257	0.605	0	congruent	Block2	congruent/STIM_004.jpg
1814.451	0.614	0	congruent	Block2	congruent/STIM_005.jpg
1817.322	0.595	1	congruent	Block2	congruent/STIM_005.jpg
1820.368	0.653	1	congruent	Block2	congruent/STIM_005.jpg
1824.905	0.665	0	congruent	Block2	congruent/STIM_005.jpg
1827.694	0.744	1	congruent	Block2	congruent/STIM_005.jpg
1830.791	0.818	1	congruent	Block2	congruent/STIM_006.jpg
1833.612	0.776	1	congruent	Block2	congruent/STIM_006.jpg
1836.455	0.83	1	congruent	Block2	congruent/STIM_006.jpg
1840.22	0.581	1	congruent	Block2	congruent/STIM_006.jpg
1843.529	0.769	1	congruent	Block2	congruent/STIM_006.jpg
1846.85	0.728	1	congruent	Block2	congruent/STIM_007.jpg
1850.383	0.902	1	congruent	Block2	congruent/STIM_007.jpg
1853.807	0.666	1	congruent	Block2	congruent/STIM_007.jpg
1858.079	0.605	1	congruent	Block2	congruent/STIM_007.jpg
1862.114	0.875	1	congruent	Block2	congruent/STIM_007.jpg
1866.88	0.894	1	congruent	Block2	congruent/STIM_008.jpg
1870.766	0.809	1	congruent	Block2	congruent/STIM_008.jpg
1874.983	0.85	1	congruent	Block2	congruent/STIM_008.jpg
1879.644	0.566	1	congruent	Block2	congruent/STIM_008.jpg
1883.456	0.563	1	congruent	Block2	congruent/STIM_008.jpg
1886.541	0.519	1	congruent	Block2	congruent/STIM_009.jpg
1890.529	0.82	1	congruent	Block2	congruent/STIM_009.jpg
1893.524	0.72	1	congruent	Block2	congruent/STIM_009.jpg
1897.418	0.611	1	congruent	Block2	congruent/STIM_009.jpg
1900.429	0.855	1	congruent	Block2	congruent/STIM_009.jpg
1904.395	0.643	1	congruent	Block2	congruent/STIM_010.jpg
1908.328	0.547	1	congruent	Block2	congruent/STIM_010.jpg
1912.533	0.715	1	congruent	Block2	congruent/STIM_010.jpg
1915.732	0.571	1	congruent	Block2	congruent/STIM_010.jpg
1919.28	0.813	1	congruent	Block2	congruent/STIM_010.jpg
1922.454	0.755	1	congruent	Block2	congruent/STIM_011.jpg
1926.763	0.552	1	congruent	Block2	congruent/STIM_011.jpg
1930.071	0.678	1	congruent	Block2	congruent/STIM_011.jpg
1933.033	0.815	0	congruent	Block2	congruent/STIM_011.jpg
1936.565	0.73	1	congruent	Block2	congruent/STIM_011.jpg
1940.241	0.722	1	congruent	Block2	congruent/STIM_012.jpg
1944.919	0.504	1	congruent	Block2	congruent/STIM_012.jpg
1948.15	0.661	1	congruent	Block2	congruent/STIM_012.jpg
1952.509	0.621	1	congruent	Block2	congruent/STIM_012.jpg
1955.763	0.541	1	congruent	Block2	congruent/STIM_012.jpg
1959.638	0.64	1	congruent	Block2	congruent/STIM_013.jpg
1963.613	0.757	1	congruent	Block2	congruent/STIM_013.jpg
1967.558	0.885	1	congruent	Block2	congruent/STIM_013.jpg
1971.854	0.533	1	congruent	Block2	congruent/STIM_013.jpg
1975.482	0.673	1	congruent	Block2	congruent/STIM_013.jpg
1978.539	0.546	1	congruent	Block2	congruent/STIM_014.jpg
1981.947	0.701	1	congruent	Block2	congruent/STIM_014.jpg
1986.24	0.664	0	congruent	Block2	congruent/STIM_014.jpg
1990.737	0.868	1	congruent	Block2	congruent/STIM_014.jpg
1993.871	0.767	1	congruent	Block2	congruent/STIM_014.jpg
1997.166	0.74	1	congruent	Block2	congruent/STIM_015.jpg
2001.196	0.804	1	congruent	Block2	congruent/STIM_015.jpg
2005.106	0.59	1	congruent	Block2	congruent/STIM_015.jpg
2008.102	0.505	1	congruent	Block2	congruent/STIM_015.jpg
2012.333	0.799	1	congruent	Block2	congruent/STIM_015.jpg
2015.692	0.637	1	congruent	Block2	congruent/STIM_016.jpg
2020.041	0.607	1	congruent	Block2	congruent/STIM_016.jpg
2024.2	0.577	1	congruent	Block2	congruent/STIM_016.jpg
2027.001	0.688	1	congruent	Block2	congruent/STIM_016.jpg
2031.483	0.788	1	congruent	Block2	congruent/STIM_016.jpg
2034.545	0.803	1	congruent	Block2	congruent/STIM_017.jpg
2037.425	0.85	1	congruent	Block2	congruent/STIM_017.jpg
2041.182	0.514	1	congruent	Block2	congruent/STIM_017.jpg
2043.732	0.691	1	congruent	Block2	congruent/STIM_017.jpg
2047.098	0.84	1	congruent	Block2	congruent/STIM_017.jpg
2050.835	0.669	0	congruent	Block2	congruent/STIM_018.jpg
2053.616	0.772	1	congruent	Block2	congruent/STIM_018.jpg
2056.815	0.691	1	congruent	Block2	congruent/STIM_018.jpg
2059.507	0.721	1	congruent	Block2	congruent/STIM_018.jpg
2062.615	0.622	1	congruent	Block2	congruent/STIM_018.jpg
2066.393	0.862	1	congruent	Block2	congruent/STIM_019.jpg
2069.574	0.536	1	congruent	Block2	congruent/STIM_019.jpg
2073.912	0.848	1	congruent	Block2	congruent/STIM_019.jpg
2077.525	0.635	1	congruent	Block2	congruent/STIM_019.jpg
2081.256	0.57	1	congruent	Block2	congruent/STIM_019.jpg
2085.067	0.591	0	congruent	Block2	congruent/STIM_020.jpg
2088.618	0.52	1	congruent	Block2	congruent/STIM_020.jpg
2091.496	0.701	1	congruent	Block2	congruent/STIM_020.jpg
2096.047	0.851	1	congruent	Block2	congruent/STIM_020.jpg
2099.859	0.632	1	congruent	Block2	congruent/STIM_020.jpg
2103.403	0.625	1	congruent	Block2	congruent/STIM_021.jpg
2107.608	0.792	1	congruent	Block2	congruent/STIM_021.jpg
2111.7	0.591	1	congruent	Block2	congruent/STIM_021.jpg
2115.089	0.681	1	congruent	Block2	congruent/STIM_021.jpg
2118.4	0.722	1	congruent	Block2	congruent/STIM_021.jpg
2121.58	0.841	1	congruent	Block2	congruent/STIM_022.jpg
2124.814	0.512	1	congruent	Block2	congruent/STIM_022.jpg
2127.792	0.758	1	congruent	Block2	congruent/STIM_022.jpg
2130.893	0.532	1	congruent	Block2	congruent/STIM_022.jpg
2133.882	0.715	1	congruent	Block2	congruent/STIM_022.jpg
2137.566	0.704	0	congruent	Block2	congruent/STIM_023.jpg
2140.748	0.589	1	congruent	Block2	congruent/STIM_023.jpg
2143.911	0.787	1	congruent	Block2	congruent/STIM_023.jpg
2148.678	0.516	1	congruent	Block2	congruent/STIM_023.jpg
2152.898	0.582	1	congruent	Block2	congruent/STIM_023.jpg
2155.719	0.687	1	congruent	Block2	congruent/STIM_024.jpg
2159.497	0.665	1	congruent	Block2	congruent/STIM_024.jpg
2163.998	0.524	1	congruent	Block2	congruent/STIM_024.jpg
2166.991	0.755	1	congruent	Block2	congruent/STIM_024.jpg
2170.384	0.707	1	congruent	Block2	congruent/STIM_024.jpg
2173.32	0.709	1	congruent	Block2	congruent/STIM_025.jpg
2177.502	0.714	1	congruent	Block2	congruent/STIM_025.jpg
2180.46	0.735	1	congruent	Block2	congruent/STIM_025.jpg
2183.483	0.816	1	congruent	Block2	congruent/STIM_025.jpg
2186.841	0.584	1	congruent	Block2	congruent/STIM_025.jpg
2190.491	0.621	1	congruent	Block2	congruent/STIM_026.jpg
2195.001	0.611	1	congruent	Block2	congruent/STIM_026.jpg
2198.261	0.776	1	congruent	Block2	congruent/STIM_026.jpg
2202.697	0.583	1	congruent	Block2	congruent/STIM_026.jpg
2205.708	0.858	1	congruent	Block2	congruent/STIM_026.jpg
2208.843	0.591	1	congruent	Block2	congruent/STIM_027.jpg
2213.366	0.806	1	congruent	Block2	congruent/STIM_027.jpg
2218.03	0.801	0	congruent	Block2	congruent/STIM_027.jpg
2221.925	0.876	1	congruent	Block2	congruent/STIM_027.jpg
2226.738	0.58	1	congruent	Block2	congruent/STIM_027.jpg
2231.057	0.771	1	congruent	Block2	congruent/STIM_028.jpg
2235.652	0.618	1	congruent	Block2	congruent/STIM_028.jpg
2239.254	0.814	1	congruent	Block2	congruent/STIM_028.jpg
2242.076	0.674	1	congruent	Block2	congruent/STIM_028.jpg
2246.361	0.815	1	congruent	Block2	congruent/STIM_028.jpg
2251.066	0.858	1	congruent	Block2	congruent/STIM_029.jpg
2255.727	0.802	1	congruent	Block2	congruent/STIM_029.jpg
2259.592	0.555	1	congruent	Block2	congruent/STIM_029.jpg
2262.156	0.856	1	congruent	Block2	congruent/STIM_029.jpg
2265.082	0.841	1	congruent	Block2	congruent/STIM_029.jpg
2269.854	1.015	1	incongruent	Block3	incongruent/STIM_000.jpg
2274.654	1.003	1	incongruent	Block3	incongruent/STIM_000.jpg
2279.574	0.997	1	incongruent	Block3	incongruent/STIM_000.jpg
2283.359	0.913	1	incongruent	Block3	incongruent/STIM_000.jpg
2287.173	0.601	1	incongruent	Block3	incongruent/STIM_000.jpg
2291.612	0.497	1	incongruent	Block3	incongruent/STIM_001.jpg
2295.217	0.733	1	incongruent	Block3	incongruent/STIM_001.jpg
2298.27	0.614	1	incongruent	Block3	incongruent/STIM_001.jpg
2302.411	0.925	1	incongruent	Block3	incongruent/STIM_001.jpg
2306.875	0.73	1	incongruent	Block3	incongruent/STIM_001.jpg
2310.483	0.906	1	incongruent	Block3	incongruent/STIM_002.jpg
2314.156	0.968	1	incongruent	Block3	incongruent/STIM_002.jpg
2318.284	0.816	1	incongruent	Block3	incongruent/STIM_002.jpg
2321.413	0.635	1	incongruent	Block3	incongruent/STIM_002.jpg
2325.544	0.999	1	incongruent	Block3	incongruent/STIM_002.jpg
2329.928	1.031	1	incongruent	Block3	incongruent/STIM_003.jpg
2334.114	0.798	1	incongruent	Block3	incongruent/STIM_003.jpg
2337.041	0.578	1	incongruent	Block3	incongruent/STIM_003.jpg
2340.239	0.583	1	incongruent	Block3	incongruent/STIM_003.jpg
2343.534	1.043	1	incongruent	Block3	incongruent/STIM_003.jpg
2347.446	0.908	1	incongruent	Block3	incongruent/STIM_004.jpg
2351.736	0.753	1	incongruent	Block3	incongruent/STIM_004.jpg
2354.805	0.641	1	incongruent	Block3	incongruent/STIM_004.jpg
2357.624	0.942	1	incongruent	Block3	incongruent/STIM_004.jpg
2361.24	0.67	0	incongruent	Block3	incongruent/STIM_004.jpg
2365.368	0.612	1	incongruent	Block3	incongruent/STIM_005.jpg
2368.365	0.81	1	incongruent	Block3	incongruent/STIM_005.jpg
2372.796	0.541	1	incongruent	Block3	incongruent/STIM_005.jpg
2376.177	1.006	1	incongruent	Block3	incongruent/STIM_005.jpg
2380.553	0.646	1	incongruent	Block3	incongruent/STIM_005.jpg
2384.75	0.67	0	incongruent	Block3	incongruent/STIM_006.jpg
2389.212	0.59	1	incongruent	Block3	incongruent/STIM_006.jpg
2392.974	0.766	1	incongruent	Block3	incongruent/STIM_006.jpg
2395.861	0.682	1	incongruent	Block3	incongruent/STIM_006.jpg
2399.465	0.588	1	incongruent	Block3	incongruent/STIM_006.jpg
2402.313	0.584	1	incongruent	Block3	incongruent/STIM_007.jpg
2406.366	1.033	1	incongruent	Block3	incongruent/STIM_007.jpg
2410.562	0.758	1	incongruent	Block3	incongruent/STIM_007.jpg
2414.484	0.716	1	incongruent	Block3	incongruent/STIM_007.jpg
2417.881	0.983	1	incongruent	Block3	incongruent/STIM_007.jpg
2422.347	0.946	1	incongruent	Block3	incongruent/STIM_008.jpg
2426.272	0.612	1	incongruent	Block3	incongruent/STIM_008.jpg
2429.999	0.785	1	incongruent	Block3	incongruent/STIM_008.jpg
2434.541	0.905	1	incongruent	Block3	incongruent/STIM_008.jpg
2437.65	0.902	1	incongruent	Block3	incongruent/STIM_008.jpg
2441.968	0.686	1	incongruent	Block3	incongruent/STIM_009.jpg
2446.592	0.703	0	incongruent	Block3	incongruent/STIM_009.jpg
2450.056	0.923	1	incongruent	Block3	incongruent/STIM_009.jpg
2454.353	0.637	1	incongruent	Block3	incongruent/STIM_009.jpg
2457.439	0.948	1	incongruent	Block3	incongruent/STIM_009.jpg
2461.48	0.726	1	incongruent	Block3	incongruent/STIM_010.jpg
2464.783	0.979	1	incongruent	Block3	incongruent/STIM_010.jpg
2468.142	0.852	1	incongruent	Block3	incongruent/STIM_010.jpg
2472.103	0.574	1	incongruent	Block3	incongruent/STIM_010.jpg
2475.488	0.985	1	incongruent	Block3	incongruent/STIM_010.jpg
2479.191	0.63	1	incongruent	Block3	incongruent/STIM_011.jpg
2482.206	0.663	1	incongruent	Block3	incongruent/STIM_011.jpg
2486.207	0.764	1	incongruent	Block3	incongruent/STIM_011.jpg
2489.758	0.766	1	incongruent	Block3	incongruent/STIM_011.jpg
2493.731	0.508	1	incongruent	Block3	incongruent/STIM_011.jpg
2496.554	0.661	1	incongruent	Block3	incongruent/STIM_012.jpg
2500.731	0.609	1	incongruent	Block3	incongruent/STIM_012.jpg
2504.084	0.796	1	incongruent	Block3	incongruent/STIM_012.jpg
2506.907	0.888	1	incongruent	Block3	incongruent/STIM_012.jpg
2511.054	0.934	1	incongruent	Block3	incongruent/STIM_012.jpg
2514.4	0.923	1	incongruent	Block3	incongruent/STIM_013.jpg
2518.186	0.57	1	incongruent	Block3	incongruent/STIM_013.jpg
2521.332	0.957	1	incongruent	Block3	incongruent/STIM_013.jpg
2525.571	0.587	1	incongruent	Block3	incongruent/STIM_013.jpg
2528.863	0.726	1	incongruent	Block3	incongruent/STIM_013.jpg
2532.101	0.936	1	incongruent	Block3	incongruent/STIM_014.jpg
2535.8	1.029	1	incongruent	Block3	incongruent/STIM_014.jpg
2539.375	0.624	1	incongruent	Block3	incongruent/STIM_014.jpg
2542.073	0.54	1	incongruent	Block3	incongruent/STIM_014.jpg
2545.986	0.506	1	incongruent	Block3	incongruent/STIM_014.jpg
2550.353	0.516	1	incongruent	Block3	incongruent/STIM_015.jpg
2553.674	1.02	1	incongruent	Block3	incongruent/STIM_015.jpg
2556.958	0.764	1	incongruent	Block3	incongruent/STIM_015.jpg
2560.459	0.592	1	incongruent	Block3	incongruent/STIM_015.jpg
2563.207	0.818	1	incongruent	Block3	incongruent/STIM_015.jpg
2567.082	0.774	1	incongruent	Block3	incongruent/STIM_016.jpg
2571.813	0.632	1	incongruent	Block3	incongruent/STIM_016.jpg
2576.186	0.884	1	incongruent	Block3	incongruent/STIM_016.jpg
2579.937	0.976	1	incongruent	Block3	incongruent/STIM_016.jpg
2584.292	0.744	1	incongruent	Block3	incongruent/STIM_016.jpg
2587.469	0.572	1	incongruent	Block3	incongruent/STIM_017.jpg
2590.996	0.647	1	incongruent	Block3	incongruent/STIM_017.jpg
2594.432	0.572	1	incongruent	Block3	incongruent/STIM_017.jpg
2597.967	0.699	1	incongruent	Block3	incongruent/STIM_017.jpg
2602.045	0.925	1	incongruent	Block3	incongruent/STIM_017.jpg
2606.638	0.777	1	incongruent	Block3	incongruent/STIM_018.jpg
2611.098	0.656	1	incongruent	Block3	incongruent/STIM_018.jpg
2613.871	0.739	1	incongruent	Block3	incongruent/STIM_018.jpg
2617.428	0.86	1	incongruent	Block3	incongruent/STIM_018.jpg
2621.462	0.543	1	incongruent	Block3	incongruent/STIM_018.jpg
2624.817	0.573	1	incongruent	Block3	incongruent/STIM_019.jpg
2628.432	0.511	1	incongruent	Block3	incongruent/STIM_019.jpg
2631.562	0.597	1	incongruent	Block3	incongruent/STIM_019.jpg
2634.811	0.559	1	incongruent	Block3	incongruent/STIM_019.jpg
2637.965	0.862	1	incongruent	Block3	incongruent/STIM_019.jpg
2641.913	0.984	1	incongruent	Block3	incongruent/STIM_020.jpg
2646.027	0.549	1	incongruent	Block3	incongruent/STIM_020.jpg
2649.883	0.893	1	incongruent	Block3	incongruent/STIM_020.jpg
2654.154	0.746	1	incongruent	Block3	incongruent/STIM_020.jpg
2657.857	0.583	1	incongruent	Block3	incongruent/STIM_020.jpg
2661.974	0.79	1	incongruent	Block3	incongruent/STIM_021.jpg
2665.302	0.664	1	incongruent	Block3	incongruent/STIM_021.jpg
2668.89	0.638	1	incongruent	Block3	incongruent/STIM_021.jpg
2672.033	0.643	1	incongruent	Block3	incongruent/STIM_021.jpg
2676.228	0.587	1	incongruent	Block3	incongruent/STIM_021.jpg
2679.25	1.009	1	incongruent	Block3	incongruent/STIM_022.jpg
2682.425	0.746	1	incongruent	Block3	incongruent/STIM_022.jpg
2685.774	0.918	1	incongruent	Block3	incongruent/STIM_022.jpg
2689.356	0.723	1	incongruent	Block3	incongruent/STIM_022.jpg
2692.961	0.53	1	incongruent	Block3	incongruent/STIM_022.jpg
2695.728	0.92	1	incongruent	Block3	incongruent/STIM_023.jpg
2699.831	0.525	1	incongruent	Block3	incongruent/STIM_023.jpg
2704.22	0.667	1	incongruent	Block3	incongruent/STIM_023.jpg
2708.329	0.504	1	incongruent	Block3	incongruent/STIM_023.jpg
2711.661	0.881	1	incongruent	Block3	incongruent/STIM_023.jpg
2715.816	0.839	1	incongruent	Block3	incongruent/STIM_024.jpg
2720.228	0.819	1	incongruent	Block3	incongruent/STIM_024.jpg
2724.931	0.924	1	incongruent	Block3	incongruent/STIM_024.jpg
2729.237	0.893	1	incongruent	Block3	incongruent/STIM_024.jpg
2732.807	1.052	1	incongruent	Block3	incongruent/STIM_024.jpg
2737.054	0.854	1	incongruent	Block3	incongruent/STIM_025.jpg
2741.437	0.656	1	incongruent	Block3	incongruent/STIM_025.jpg
2744.321	0.622	1	incongruent	Block3	incongruent/STIM_025.jpg
2747.98	0.564	1	incongruent	Block3	incongruent/STIM_025.jpg
2752.188	0.694	1	incongruent	Block3	incongruent/STIM_025.jpg
2755.699	0.871	1	incongruent	Block3	incongruent/STIM_026.jpg
2760.247	0.634	1	incongruent	Block3	incongruent/STIM_026.jpg
2764.314	1.05	1	incongruent	Block3	incongruent/STIM_026.jpg
2769.312	1.049	1	incongruent	Block3	incongruent/STIM_026.jpg
2774.087	0.548	1	incongruent	Block3	incongruent/STIM_026.jpg
2778.25	0.828	1	incongruent	Block3	incongruent/STIM_027.jpg
2781.944	0.492	1	incongruent	Block3	incongruent/STIM_027.jpg
2784.813	0.658	1	incongruent	Block3	incongruent/STIM_027.jpg
2788.614	0.527	1	incongruent	Block3	incongruent/STIM_027.jpg
2791.906	0.57	1	incongruent	Block3	incongruent/STIM_027.jpg
2795.559	0.61	1	incongruent	Block3	incongruent/STIM_028.jpg
2799.175	0.886	1	incongruent	Block3	incongruent/STIM_028.jpg
2802.251	0.93	1	incongruent	Block3	incongruent/STIM_028.jpg
2805.602	1.03	1	incongruent	Block3	incongruent/STIM_028.jpg
2809.128	0.501	1	incongruent	Block3	incongruent/STIM_028.jpg
2812.986	0.681	1	incongruent	Block3	incongruent/STIM_029.jpg
2816.958	0.806	1	incongruent	Block3	incongruent/STIM_029.jpg
2820.933	0.959	1	incongruent	Block3	incongruent/STIM_029.jpg
2825.533	1.049	1	incongruent	Block3	incongruent/STIM_029.jpg
2830.158	0.572	1	incongruent	Block3	incongruent/STIM_029.jpg
2833.739	0.808	1	congruent	Block3	congruent/STIM_000.jpg
2838.516	0.538	1	congruent	Block3	congruent/STIM_000.jpg
2843.046	0.526	1	congruent	Block3	congruent/STIM_000.jpg
2845.836	0.631	0	congruent	Block3	congruent/STIM_000.jpg
2850.403	0.642	1	congruent	Block3	congruent/STIM_000.jpg
2854.848	0.896	1	congruent	Block3	congruent/STIM_001.jpg
2858.342	0.754	1	congruent	Block3	congruent/STIM_001.jpg
2861.978	0.522	1	congruent	Block3	congruent/STIM_001.jpg
2866.107	0.785	1	congruent	Block3	congruent/STIM_001.jpg
2870.302	0.542	1	congruent	Block3	congruent/STIM_001.jpg
2873.059	0.53	1	congruent	Block3	congruent/STIM_002.jpg
2876.156	0.537	1	congruent	Block3	congruent/STIM_002.jpg
2879.971	0.515	1	congruent	Block3	congruent/STIM_002.jpg
2883.903	0.599	1	congruent	Block3	congruent/STIM_002.jpg
2886.629	0.702	1	congruent	Block3	congruent/STIM_002.jpg
2890.914	0.898	1	congruent	Block3	congruent/STIM_003.jpg
2894.619	0.53	1	congruent	Block3	congruent/STIM_003.jpg
2897.86	0.802	1	congruent	Block3	congruent/STIM_003.jpg
2902.512	0.751	1	congruent	Block3	congruent/STIM_003.jpg
2907.009	0.502	1	congruent	Block3	congruent/STIM_003.jpg
2910.074	0.667	1	congruent	Block3	congruent/STIM_004.jpg
2914.646	0.691	1	congruent	Block3	congruent/STIM_004.jpg
2919.087	0.779	1	congruent	Block3	congruent/STIM_004.jpg
2923.631	0.861	1	congruent	Block3	congruent/STIM_004.jpg
2928.402	0.535	1	congruent	Block3	congruent/STIM_004.jpg
2931.665	0.549	1	congruent	Block3	congruent/STIM_005.jpg
2934.669	0.658	1	congruent	Block3	congruent/STIM_005.jpg
2937.805	0.891	0	congruent	Block3	congruent/STIM_005.jpg
2941.354	0.57	0	congruent	Block3	congruent/STIM_005.jpg
2944.195	0.661	1	congruent	Block3	congruent/STIM_005.jpg
2948.695	0.792	1	congruent	Block3	congruent/STIM_006.jpg
2952.409	0.793	1	congruent	Block3	congruent/STIM_006.jpg
2956.642	0.663	1	congruent	Block3	congruent/STIM_006.jpg
2961.299	0.711	1	congruent	Block3	congruent/STIM_006.jpg
2965.33	0.864	1	congruent	Block3	congruent/STIM_006.jpg
2969.128	0.752	1	congruent	Block3	congruent/STIM_007.jpg
2972.734	0.611	0	congruent	Block3	congruent/STIM_007.jpg
2977.018	0.889	1	congruent	Block3	congruent/STIM_007.jpg
2980.088	0.735	1	congruent	Block3	congruent/STIM_007.jpg
2982.862	0.524	1	congruent	Block3	congruent/STIM_007.jpg
2986.473	0.86	1	congruent	Block3	congruent/STIM_008.jpg
2990.587	0.647	1	congruent	Block3	congruent/STIM_008.jpg
2994.234	0.787	1	congruent	Block3	congruent/STIM_008.jpg
2997.413	0.668	1	congruent	Block3	congruent/STIM_008.jpg
3000.905	0.532	0	congruent	Block3	congruent/STIM_008.jpg
3004.477	0.556	1	congruent	Block3	congruent/STIM_009.jpg
3007.965	0.766	1	congruent	Block3	congruent/STIM_009.jpg
3011.794	0.689	1	congruent	Block3	congruent/STIM_009.jpg
3015.687	0.844	1	congruent	Block3	congruent/STIM_009.jpg
3018.7	0.621	1	congruent	Block3	congruent/STIM_009.jpg
3022.155	0.774	1	congruent	Block3	congruent/STIM_010.jpg
3024.975	0.693	1	congruent	Block3	congruent/STIM_010.jpg
3029.037	0.53	1	congruent	Block3	congruent/STIM_010.jpg
3033.404	0.889	1	congruent	Block3	congruent/STIM_010.jpg
3037.897	0.791	1	congruent	Block3	congruent/STIM_010.jpg
3041.205	0.661	1	congruent	Block3	congruent/STIM_011.jpg
3045.069	0.576	1	congruent	Block3	congruent/STIM_011.jpg
3047.779	0.776	1	congruent	Block3	congruent/STIM_011.jpg
3051.476	0.778	1	congruent	Block3	congruent/STIM_011.jpg
3055.389	0.563	1	congruent	Block3	congruent/STIM_011.jpg
3059.693	0.762	1	congruent	Block3	congruent/STIM_012.jpg
3063.618	0.696	1	congruent	Block3	congruent/STIM_012.jpg
3066.618	0.505	1	congruent	Block3	congruent/STIM_012.jpg
3070.692	0.758	1	congruent	Block3	congruent/STIM_012.jpg
3075.276	0.648	1	congruent	Block3	congruent/STIM_012.jpg
3078.457	0.566	1	congruent	Block3	congruent/STIM_013.jpg
3082.01	0.792	1	congruent	Block3	congruent/STIM_013.jpg
3086.493	0.859	1	congruent	Block3	congruent/STIM_013.jpg
3090.75	0.895	1	congruent	Block3	congruent/STIM_013.jpg
3094.032	0.7	1	congruent	Block3	congruent/STIM_013.jpg
3096.896	0.729	1	congruent	Block3	congruent/STIM_014.jpg
3099.651	0.539	1	congruent	Block3	congruent/STIM_014.jpg
3103.706	0.707	1	congruent	Block3	congruent/STIM_014.jpg
3108.08	0.839	1	congruent	Block3	congruent/STIM_014.jpg
3112.187	0.568	1	congruent	Block3	congruent/STIM_014.jpg
3116.626	0.531	1	congruent	Block3	congruent/STIM_015.jpg
3120.929	0.725	1	congruent	Block3	congruent/STIM_015.jpg
3125.11	0.78	1	congruent	Block3	congruent/STIM_015.jpg
3128.148	0.846	1	congruent	Block3	congruent/STIM_015.jpg
3132.115	0.674	1	congruent	Block3	congruent/STIM_015.jpg
3136.406	0.837	1	congruent	Block3	congruent/STIM_016.jpg
3140.045	0.817	1	congruent	Block3	congruent/STIM_016.jpg
3144.496	0.818	1	congruent	Block3	congruent/STIM_016.jpg
3148.625	0.752	1	congruent	Block3	congruent/STIM_016.jpg
3152.619	0.569	1	congruent	Block3	congruent/STIM_016.jpg
3155.425	0.699	1	congruent	Block3	congruent/STIM_017.jpg
3158.672	0.641	1	congruent	Block3	congruent/STIM_017.jpg
3161.594	0.774	1	congruent	Block3	congruent/STIM_017.jpg
3165.404	0.86	1	congruent	Block3	congruent/STIM_017.jpg
3169.911	0.712	1	congruent	Block3	congruent/STIM_017.jpg
3174.021	0.819	1	congruent	Block3	congruent/STIM_018.jpg
3178.036	0.572	1	congruent	Block3	congruent/STIM_018.jpg
3182.361	0.553	1	congruent	Block3	congruent/STIM_018.jpg
3185.131	0.873	1	congruent	Block3	congruent/STIM_018.jpg
3189.529	0.726	1	congruent	Block3	congruent/STIM_018.jpg
3193.638	0.837	1	congruent	Block3	congruent/STIM_019.jpg
3196.608	0.856	1	congruent	Block3	congruent/STIM_019.jpg
3200.427	0.631	1	congruent	Block3	congruent/STIM_019.jpg
3203.671	0.606	1	congruent	Block3	congruent/STIM_019.jpg
3206.48	0.9	1	congruent	Block3	congruent/STIM_019.jpg
3209.749	0.82	1	congruent	Block3	congruent/STIM_020.jpg
3213.015	0.698	1	congruent	Block3	congruent/STIM_020.jpg
3217.064	0.506	1	congruent	Block3	congruent/STIM_020.jpg
3219.633	0.545	1	congruent	Block3	congruent/STIM_020.jpg
3223.786	0.503	1	congruent	Block3	congruent/STIM_020.jpg
3226.672	0.854	1	congruent	Block3	congruent/STIM_021.jpg
3231.125	0.584	0	congruent	Block3	congruent/STIM_021.jpg
3235.293	0.769	1	congruent	Block3	congruent/STIM_021.jpg
3238.165	0.691	1	congruent	Block3	congruent/STIM_021.jpg
3242.456	0.77	1	congruent	Block3	congruent/STIM_021.jpg
3245.505	0.651	1	congruent	Block3	congruent/STIM_022.jpg
3249.493	0.645	1	congruent	Block3	congruent/STIM_022.jpg
3253.247	0.869	1	congruent	Block3	congruent/STIM_022.jpg
3257.429	0.565	1	congruent	Block3	congruent/STIM_022.jpg
3260.725	0.548	1	congruent	Block3	congruent/STIM_022.jpg
3263.813	0.737	1	congruent	Block3	congruent/STIM_023.jpg
3267.714	0.59	1	congruent	Block3	congruent/STIM_023.jpg
3271.074	0.86	1	congruent	Block3	congruent/STIM_023.jpg
3275.754	0.711	1	congruent	Block3	congruent/STIM_023.jpg
3280.33	0.517	1	congruent	Block3	congruent/STIM_023.jpg
3284.544	0.857	1	congruent	Block3	congruent/STIM_024.jpg
3289.106	0.536	1	congruent	Block3	congruent/STIM_024.jpg
3293.411	0.583	1	congruent	Block3	congruent/STIM_024.jpg
3296.276	0.624	1	congruent	Block3	congruent/STIM_024.jpg
3300.752	0.708	1	congruent	Block3	congruent/STIM_024.jpg
3305.036	0.877	1	congruent	Block3	congruent/STIM_025.jpg
3309.885	0.772	0	congruent	Block3	congruent/STIM_025.jpg
3312.842	0.894	1	congruent	Block3	congruent/STIM_025.jpg
3316.202	0.766	1	congruent	Block3	congruent/STIM_025.jpg
3320.433	0.788	1	congruent	Block3	congruent/STIM_025.jpg
3323.435	0.585	1	congruent	Block3	congruent/STIM_026.jpg
3326.968	0.622	1	congruent	Block3	congruent/STIM_026.jpg
3330.939	0.519	1	congruent	Block3	congruent/STIM_026.jpg
3334.652	0.84	1	congruent	Block3	congruent/STIM_026.jpg
3339.04	0.709	1	congruent	Block3	congruent/STIM_026.jpg
3342.252	0.764	1	congruent	Block3	congruent/STIM_027.jpg
3346.092	0.661	1	congruent	Block3	congruent/STIM_027.jpg
3349.842	0.733	1	congruent	Block3	congruent/STIM_027.jpg
3353.162	0.85	1	congruent	Block3	congruent/STIM_027.jpg
3357.915	0.517	1	congruent	Block3	congruent/STIM_027.jpg
3361.182	0.818	1	congruent	Block3	congruent/STIM_028.jpg
3365.232	0.834	1	congruent	Block3	congruent/STIM_028.jpg
3369.807	0.6	1	congruent	Block3	congruent/STIM_028.jpg
3373.282	0.893	1	congruent	Block3	congruent/STIM_028.jpg
3376.828	0.833	1	congruent	Block3	congruent/STIM_028.jpg
3380.283	0.81	1	congruent	Block3	congruent/STIM_029.jpg
3384.686	0.624	1	congruent	Block3	congruent/STIM_029.jpg
3388.541	0.814	0	congruent	Block3	congruent/STIM_029.jpg
3392.752	0.869	1	congruent	Block3	congruent/STIM_029.jpg
3396.873	0.843	1	congruent	Block3	congruent/STIM_029.jpg
