onset	duration	accuracy_binary	trial_type	learning_stage	stimulus
0.0	0.655	1	incongruent	Block1	incongruent/STIM_000.jpg
4.324	0.837	1	incongruent	Block1	incongruent/STIM_000.jpg
8.841	0.568	0	incongruent	Block1	incongruent/STIM_000.jpg
13.479	0.585	1	incongruent	Block1	incongruent/STIM_000.jpg
16.206	1.006	1	incongruent	Block1	incongruent/STIM_000.jpg
20.348	1.019	1	incongruent	Block1	incongruent/STIM_001.jpg
25.379	0.643	1	incongruent	Block1	incongruent/STIM_001.jpg
29.191	1.05	1	incongruent	Block1	incongruent/STIM_001.jpg
32.823	0.617	1	incongruent	Block1	incongruent/STIM_001.jpg
36.722	0.531	1	incongruent	Block1	incongruent/STIM_001.jpg
39.391	1.263	1	incongruent	Block1	incongruent/STIM_002.jpg
44.003	1.118	0	incongruent	Block1	incongruent/STIM_002.jpg
47.335	0.933	1	incongruent	Block1	incongruent/STIM_002.jpg
51.266	0.657	1	incongruent	Block1	incongruent/STIM_002.jpg
55.305	0.797	1	incongruent	Block1	incongruent/STIM_002.jpg
60.144	0.956	1	incongruent	Block1	incongruent/STIM_003.jpg
64.607	0.959	1	incongruent	Block1	incongruent/STIM_003.jpg
69.288	0.837	1	incongruent	Block1	incongruent/STIM_003.jpg
73.248	0.974	0	incongruent	Block1	incongruent/STIM_003.jpg
76.995	0.758	1	incongruent	Block1	incongruent/STIM_003.jpg
79.957	1.316	1	incongruent	Block1	incongruent/STIM_004.jpg
83.97	0.858	1	incongruent	Block1	incongruent/STIM_004.jpg
87.175	1.007	1	incongruent	Block1	incongruent/STIM_004.jpg
91.341	1.085	1	incongruent	Block1	incongruent/STIM_004.jpg
96.241	0.97	1	incongruent	Block1	incongruent/STIM_004.jpg
99.894	1.143	0	incongruent	Block1	incongruent/STIM_005.jpg
103.983	0.99	1	incongruent	Block1	incongruent/STIM_005.jpg
108.956	1.036	1	incongruent	Block1	incongruent/STIM_005.jpg
113.494	0.978	1	incongruent	Block1	incongruent/STIM_005.jpg
117.761	0.52	1	incongruent	Block1	incongruent/STIM_005.jpg
120.744	0.989	1	incongruent	Block1	incongruent/STIM_006.jpg
125.324	1.171	1	incongruent	Block1	incongruent/STIM_006.jpg
129.41	0.847	1	incongruent	Block1	incongruent/STIM_006.jpg
132.402	1.05	1	incongruent	Block1	incongruent/STIM_006.jpg
136.253	0.586	1	incongruent	Block1	incongruent/STIM_006.jpg
139.667	0.964	1	incongruent	Block1	incongruent/STIM_007.jpg
143.13	0.806	1	incongruent	Block1	incongruent/STIM_007.jpg
146.449	1.095	1	incongruent	Block1	incongruent/STIM_007.jpg
151.44	0.712	1	incongruent	Block1	incongruent/STIM_007.jpg
155.33	0.603	1	incongruent	Block1	incongruent/STIM_007.jpg
158.406	0.985	1	incongruent	Block1	incongruent/STIM_008.jpg
163.409	1.181	1	incongruent	Block1	incongruent/STIM_008.jpg
168.343	1.175	1	incongruent	Block1	incongruent/STIM_008.jpg
173.434	0.636	1	incongruent	Block1	incongruent/STIM_008.jpg
177.894	0.821	1	incongruent	Block1	incongruent/STIM_008.jpg
181.151	1.307	0	incongruent	Block1	incongruent/STIM_009.jpg
185.365	1.134	1	incongruent	Block1	incongruent/STIM_009.jpg
188.851	0.912	1	incongruent	Block1	incongruent/STIM_009.jpg
192.589	1.047	1	incongruent	Block1	incongruent/STIM_009.jpg
196.453	0.976	1	incongruent	Block1	incongruent/STIM_009.jpg
199.971	1.025	0	incongruent	Block1	incongruent/STIM_010.jpg
203.782	1.048	1	incongruent	Block1	incongruent/STIM_010.jpg
207.391	0.561	1	incongruent	Block1	incongruent/STIM_010.jpg
211.072	0.91	1	incongruent	Block1	incongruent/STIM_010.jpg
215.427	1.045	1	incongruent	Block1	incongruent/STIM_010.jpg
220.453	0.938	1	incongruent	Block1	incongruent/STIM_011.jpg
224.627	0.699	1	incongruent	Block1	incongruent/STIM_011.jpg
228.947	0.948	1	incongruent	Block1	incongruent/STIM_011.jpg
233.337	0.985	1	incongruent	Block1	incongruent/STIM_011.jpg
237.233	0.847	0	incongruent	Block1	incongruent/STIM_011.jpg
242.127	0.702	1	incongruent	Block1	incongruent/STIM_012.jpg
246.444	1.055	1	incongruent	Block1	incongruent/STIM_012.jpg
250.393	0.902	1	incongruent	Block1	incongruent/STIM_012.jpg
253.541	0.678	1	incongruent	Block1	incongruent/STIM_012.jpg
256.4	1.032	1	incongruent	Block1	incongruent/STIM_012.jpg
261.139	0.942	1	incongruent	Block1	incongruent/STIM_013.jpg
265.009	1.067	1	incongruent	Block1	incongruent/STIM_013.jpg
268.863	0.703	1	incongruent	Block1	incongruent/STIM_013.jpg
273.064	0.53	1	incongruent	Block1	incongruent/STIM_013.jpg
275.718	0.651	1	incongruent	Block1	incongruent/STIM_013.jpg
279.347	1.059	1	incongruent	Block1	incongruent/STIM_014.jpg
284.003	1.223	1	incongruent	Block1	incongruent/STIM_014.jpg
288.837	0.679	1	incongruent	Block1	incongruent/STIM_014.jpg
291.856	0.583	1	incongruent	Block1	incongruent/STIM_014.jpg
295.509	0.929	0	incongruent	Block1	incongruent/STIM_014.jpg
298.886	1.15	1	incongruent	Block1	incongruent/STIM_015.jpg
304.132	0.62	1	incongruent	Block1	incongruent/STIM_015.jpg
308.618	0.635	1	incongruent	Block1	incongruent/STIM_015.jpg
312.468	0.647	1	incongruent	Block1	incongruent/STIM_015.jpg
315.241	1.002	1	incongruent	Block1	incongruent/STIM_015.jpg
320.094	0.993	1	incongruent	Block1	incongruent/STIM_016.jpg
323.439	0.914	1	incongruent	Block1	incongruent/STIM_016.jpg
328.41	1.185	1	incongruent	Block1	incongruent/STIM_016.jpg
332.266	1.05	1	incongruent	Block1	incongruent/STIM_016.jpg
337.302	0.813	1	incongruent	Block1	incongruent/STIM_016.jpg
342.219	0.912	1	incongruent	Block1	incongruent/STIM_017.jpg
346.296	0.961	1	incongruent	Block1	incongruent/STIM_017.jpg
350.619	0.71	1	incongruent	Block1	incongruent/STIM_017.jpg
354.995	0.806	1	incongruent	Block1	incongruent/STIM_017.jpg
359.589	1.051	1	incongruent	Block1	incongruent/STIM_017.jpg
364.599	1.225	1	incongruent	Block1	incongruent/STIM_018.jpg
368.584	0.821	1	incongruent	Block1	incongruent/STIM_018.jpg
372.398	1.009	1	incongruent	Block1	incongruent/STIM_018.jpg
376.111	0.718	1	incongruent	Block1	incongruent/STIM_018.jpg
379.214	0.856	1	incongruent	Block1	incongruent/STIM_018.jpg
382.259	0.962	1	incongruent	Block1	incongruent/STIM_019.jpg
386.697	0.725	1	incongruent	Block1	incongruent/STIM_019.jpg
390.308	0.924	1	incongruent	Block1	incongruent/STIM_019.jpg
394.895	0.927	1	incongruent	Block1	incongruent/STIM_019.jpg
398.939	0.512	1	incongruent	Block1	incongruent/STIM_019.jpg
402.787	0.758	1	incongruent	Block1	incongruent/STIM_020.jpg
407.496	1.138	1	incongruent	Block1	incongruent/STIM_020.jpg
411.337	0.732	1	incongruent	Block1	incongruent/STIM_020.jpg
415.414	0.944	0	incongruent	Block1	incongruent/STIM_020.jpg
419.733	0.896	1	incongruent	Block1	incongruent/STIM_020.jpg
423.006	1.156	0	incongruent	Block1	incongruent/STIM_021.jpg
427.051	0.718	1	incongruent	Block1	incongruent/STIM_021.jpg
430.987	0.634	1	incongruent	Block1	incongruent/STIM_021.jpg
434.855	1.095	1	incongruent	Block1	incongruent/STIM_021.jpg
438.296	0.711	1	incongruent	Block1	incongruent/STIM_021.jpg
442.835	0.648	1	incongruent	Block1	incongruent/STIM_022.jpg
447.545	0.603	0	incongruent	Block1	incongruent/STIM_022.jpg
450.365	0.558	1	incongruent	Block1	incongruent/STIM_022.jpg
453.408	1.014	1	incongruent	Block1	incongruent/STIM_022.jpg
457.887	0.644	1	incongruent	Block1	incongruent/STIM_022.jpg
462.197	0.63	0	incongruent	Block1	incongruent/STIM_023.jpg
465.105	1.009	0	incongruent	Block1	incongruent/STIM_023.jpg
469.096	0.743	1	incongruent	Block1	incongruent/STIM_023.jpg
472.64	0.555	1	incongruent	Block1	incongruent/STIM_023.jpg
475.673	0.617	1	incongruent	Block1	incongruent/STIM_023.jpg
479.497	0.626	1	incongruent	Block1	incongruent/STIM_024.jpg
483.911	0.694	1	incongruent	Block1	incongruent/STIM_024.jpg
488.147	0.623	1	incongruent	Block1	incongruent/STIM_024.jpg
491.019	0.652	1	incongruent	Block1	incongruent/STIM_024.jpg
495.344	0.835	1	incongruent	Block1	incongruent/STIM_024.jpg
499.23	0.947	1	incongruent	Block1	incongruent/STIM_025.jpg
502.448	0.663	1	incongruent	Block1	incongruent/STIM_025.jpg
506.089	1.075	1	incongruent	Block1	incongruent/STIM_025.jpg
509.869	1.077	0	incongruent	Block1	incongruent/STIM_025.jpg
514.843	0.706	0	incongruent	Block1	incongruent/STIM_025.jpg
518.901	0.767	1	incongruent	Block1	incongruent/STIM_026.jpg
522.093	0.774	1	incongruent	Block1	incongruent/STIM_026.jpg
526.164	0.623	1	incongruent	Block1	incongruent/STIM_026.jpg
529.785	0.726	1	incongruent	Block1	incongruent/STIM_026.jpg
533.623	0.821	1	incongruent	Block1	incongruent/STIM_026.jpg
538.32	1.306	1	incongruent	Block1	incongruent/STIM_027.jpg
542.003	0.608	1	incongruent	Block1	incongruent/STIM_027.jpg
545.952	0.791	1	incongruent	Block1	incongruent/STIM_027.jpg
549.885	0.633	1	incongruent	Block1	incongruent/STIM_027.jpg
553.972	0.59	1	incongruent	Block1	incongruent/STIM_027.jpg
558.544	0.966	0	incongruent	Block1	incongruent/STIM_028.jpg
562.243	1.141	1	incongruent	Block1	incongruent/STIM_028.jpg
566.637	1.01	1	incongruent	Block1	incongruent/STIM_028.jpg
570.205	0.79	1	incongruent	Block1	incongruent/STIM_028.jpg
573.859	0.568	0	incongruent	Block1	incongruent/STIM_028.jpg
577.702	1.149	0	incongruent	Block1	incongruent/STIM_029.jpg
582.009	0.659	0	incongruent	Block1	incongruent/STIM_029.jpg
586.102	0.752	1	incongruent	Block1	incongruent/STIM_029.jpg
590.184	0.814	1	incongruent	Block1	incongruent/STIM_029.jpg
593.632	0.924	1	incongruent	Block1	incongruent/STIM_029.jpg
597.829	0.789	1	congruent	Block1	congruent/STIM_000.jpg
601.058	0.602	1	congruent	Block1	congruent/STIM_000.jpg
605.113	0.576	1	congruent	Block1	congruent/STIM_000.jpg
608.271	0.48	0	congruent	Block1	congruent/STIM_000.jpg
611.721	0.604	1	congruent	Block1	congruent/STIM_000.jpg
616.212	0.56	1	congruent	Block1	congruent/STIM_001.jpg
619.96	0.787	1	congruent	Block1	congruent/STIM_001.jpg
624.647	0.486	1	congruent	Block1	congruent/STIM_001.jpg
627.83	0.481	1	congruent	Block1	congruent/STIM_001.jpg
631.303	0.586	1	congruent	Block1	congruent/STIM_001.jpg
634.705	0.474	0	congruent	Block1	congruent/STIM_002.jpg
638.44	0.67	1	congruent	Block1	congruent/STIM_002.jpg
642.017	0.627	1	congruent	Block1	congruent/STIM_002.jpg
646.428	0.509	1	congruent	Block1	congruent/STIM_002.jpg
650.445	0.645	1	congruent	Block1	congruent/STIM_002.jpg
654.585	0.561	1	congruent	Block1	congruent/STIM_003.jpg
658.117	0.654	1	congruent	Block1	congruent/STIM_003.jpg
662.828	0.507	1	congruent	Block1	congruent/STIM_003.jpg
666.919	0.648	1	congruent	Block1	congruent/STIM_003.jpg
669.805	0.671	1	congruent	Block1	congruent/STIM_003.jpg
673.887	0.626	1	congruent	Block1	congruent/STIM_004.jpg
678.054	0.594	1	congruent	Block1	congruent/STIM_004.jpg
681.627	0.766	1	congruent	Block1	congruent/STIM_004.jpg
684.866	0.75	0	congruent	Block1	congruent/STIM_004.jpg
687.762	0.673	1	congruent	Block1	congruent/STIM_004.jpg
690.891	0.726	1	congruent	Block1	congruent/STIM_005.jpg
694.356	0.463	1	congruent	Block1	congruent/STIM_005.jpg
698.18	0.642	1	congruent	Block1	congruent/STIM_005.jpg
702.473	0.489	1	congruent	Block1	congruent/STIM_005.jpg
706.229	0.788	1	congruent	Block1	congruent/STIM_005.jpg
710.244	0.476	1	congruent	Block1	congruent/STIM_006.jpg
714.073	0.586	1	congruent	Block1	congruent/STIM_006.jpg
717.133	0.564	1	congruent	Block1	congruent/STIM_006.jpg
721.733	0.54	1	congruent	Block1	congruent/STIM_006.jpg
725.518	0.519	1	congruent	Block1	congruent/STIM_006.jpg
729.83	0.471	1	congruent	Block1	congruent/STIM_007.jpg
732.719	0.495	1	congruent	Block1	congruent/STIM_007.jpg
737.01	0.492	1	congruent	Block1	congruent/STIM_007.jpg
741.197	0.772	1	congruent	Block1	congruent/STIM_007.jpg
744.887	0.653	1	congruent	Block1	congruent/STIM_007.jpg
748.318	0.63	1	congruent	Block1	congruent/STIM_008.jpg
751.789	0.517	1	congruent	Block1	congruent/STIM_008.jpg
755.627	0.479	1	congruent	Block1	congruent/STIM_008.jpg
758.647	0.456	1	congruent	Block1	congruent/STIM_008.jpg
762.398	0.679	1	congruent	Block1	congruent/STIM_008.jpg
765.545	0.596	1	congruent	Block1	congruent/STIM_009.jpg
769.175	0.642	1	congruent	Block1	congruent/STIM_009.jpg
772.677	0.567	1	congruent	Block1	congruent/STIM_009.jpg
776.752	0.726	1	congruent	Block1	congruent/STIM_009.jpg
781.55	0.7	1	congruent	Block1	congruent/STIM_009.jpg
784.521	0.475	1	congruent	Block1	congruent/STIM_010.jpg
788.492	0.655	1	congruent	Block1	congruent/STIM_010.jpg
792.001	0.785	1	congruent	Block1	congruent/STIM_010.jpg
796.554	0.484	1	congruent	Block1	congruent/STIM_010.jpg
800.725	0.59	1	congruent	Block1	congruent/STIM_010.jpg
804.508	0.547	1	congruent	Block1	congruent/STIM_011.jpg
808.515	0.635	1	congruent	Block1	congruent/STIM_011.jpg
812.907	0.656	1	congruent	Block1	congruent/STIM_011.jpg
816.953	0.508	1	congruent	Block1	congruent/STIM_011.jpg
821.005	0.753	1	congruent	Block1	congruent/STIM_011.jpg
824.447	0.593	1	congruent	Block1	congruent/STIM_012.jpg
827.942	0.573	1	congruent	Block1	congruent/STIM_012.jpg
830.888	0.462	1	congruent	Block1	congruent/STIM_012.jpg
834.975	0.782	1	congruent	Block1	congruent/STIM_012.jpg
838.222	0.574	1	congruent	Block1	congruent/STIM_012.jpg
842.192	0.588	1	congruent	Block1	congruent/STIM_013.jpg
845.142	0.468	1	congruent	Block1	congruent/STIM_013.jpg
849.563	0.556	1	congruent	Block1	congruent/STIM_013.jpg
852.325	0.715	1	congruent	Block1	congruent/STIM_013.jpg
855.266	0.789	1	congruent	Block1	congruent/STIM_013.jpg
859.971	0.498	1	congruent	Block1	congruent/STIM_014.jpg
863.93	0.455	1	congruent	Block1	congruent/STIM_014.jpg
867.763	0.619	1	congruent	Block1	congruent/STIM_014.jpg
871.865	0.566	1	congruent	Block1	congruent/STIM_014.jpg
876.247	0.531	1	congruent	Block1	congruent/STIM_014.jpg
880.397	0.68	1	congruent	Block1	congruent/STIM_015.jpg
883.776	0.639	1	congruent	Block1	congruent/STIM_015.jpg
887.215	0.732	1	congruent	Block1	congruent/STIM_015.jpg
891.061	0.766	1	congruent	Block1	congruent/STIM_015.jpg
894.602	0.628	1	congruent	Block1	congruent/STIM_015.jpg
899.099	0.673	1	congruent	Block1	congruent/STIM_016.jpg
902.158	0.505	1	congruent	Block1	congruent/STIM_016.jpg
905.438	0.75	1	congruent	Block1	congruent/STIM_016.jpg
908.453	0.665	1	congruent	Block1	congruent/STIM_016.jpg
911.997	0.758	1	congruent	Block1	congruent/STIM_016.jpg
916.582	0.788	1	congruent	Block1	congruent/STIM_017.jpg
920.13	0.624	1	congruent	Block1	congruent/STIM_017.jpg
924.509	0.79	1	congruent	Block1	congruent/STIM_017.jpg
927.584	0.461	1	congruent	Block1	congruent/STIM_017.jpg
931.666	0.601	1	congruent	Block1	congruent/STIM_017.jpg
935.74	0.659	1	congruent	Block1	congruent/STIM_018.jpg
939.063	0.578	1	congruent	Block1	congruent/STIM_018.jpg
942.809	0.559	1	congruent	Block1	congruent/STIM_018.jpg
945.569	0.525	1	congruent	Block1	congruent/STIM_018.jpg
948.59	0.743	1	congruent	Block1	congruent/STIM_018.jpg
951.888	0.506	1	congruent	Block1	congruent/STIM_019.jpg
956.163	0.552	1	congruent	Block1	congruent/STIM_019.jpg
959.469	0.674	1	congruent	Block1	congruent/STIM_019.jpg
963.687	0.45	1	congruent	Block1	congruent/STIM_019.jpg
967.268	0.487	1	congruent	Block1	congruent/STIM_019.jpg
971.296	0.588	1	congruent	Block1	congruent/STIM_020.jpg
975.687	0.7	1	congruent	Block1	congruent/STIM_020.jpg
978.562	0.483	1	congruent	Block1	congruent/STIM_020.jpg
981.295	0.735	1	congruent	Block1	congruent/STIM_020.jpg
985.944	0.442	1	congruent	Block1	congruent/STIM_020.jpg
990.005	0.745	1	congruent	Block1	congruent/STIM_021.jpg
994.13	0.447	1	congruent	Block1	congruent/STIM_021.jpg
998.578	0.771	1	congruent	Block1	congruent/STIM_021.jpg
1001.999	0.583	1	congruent	Block1	congruent/STIM_021.jpg
1006.039	0.686	1	congruent	Block1	congruent/STIM_021.jpg
1010.22	0.537	0	congruent	Block1	congruent/STIM_022.jpg
1014.367	0.698	1	congruent	Block1	congruent/STIM_022.jpg
1018.703	0.691	1	congruent	Block1	congruent/STIM_022.jpg
1023.344	0.643	1	congruent	Block1	congruent/STIM_022.jpg
1026.696	0.768	1	congruent	Block1	congruent/STIM_022.jpg
1029.865	0.557	1	congruent	Block1	congruent/STIM_023.jpg
1032.686	0.572	1	congruent	Block1	congruent/STIM_023.jpg
1037.133	0.49	1	congruent	Block1	congruent/STIM_023.jpg
1040.023	0.734	1	congruent	Block1	congruent/STIM_023.jpg
1044.609	0.762	1	congruent	Block1	congruent/STIM_023.jpg
1049.139	0.56	1	congruent	Block1	congruent/STIM_024.jpg
1052.218	0.766	1	congruent	Block1	congruent/STIM_024.jpg
1056.286	0.607	1	congruent	Block1	congruent/STIM_024.jpg
1060.299	0.634	1	congruent	Block1	congruent/STIM_024.jpg
1064.236	0.662	0	congruent	Block1	congruent/STIM_024.jpg
1067.833	0.546	0	congruent	Block1	congruent/STIM_025.jpg
1071.832	0.668	1	congruent	Block1	congruent/STIM_025.jpg
1076.162	0.528	1	congruent	Block1	congruent/STIM_025.jpg
1080.099	0.689	1	congruent	Block1	congruent/STIM_025.jpg
1084.43	0.658	1	congruent	Block1	congruent/STIM_025.jpg
1088.469	0.758	1	congruent	Block1	congruent/STIM_026.jpg
1092.141	0.672	1	congruent	Block1	congruent/STIM_026.jpg
1095.636	0.712	1	congruent	Block1	congruent/STIM_026.jpg
1099.795	0.544	1	congruent	Block1	congruent/STIM_026.jpg
1102.747	0.518	1	congruent	Block1	congruent/STIM_026.jpg
1107.017	0.756	1	congruent	Block1	congruent/STIM_027.jpg
1110.826	0.687	1	congruent	Block1	congruent/STIM_027.jpg
1115.007	0.454	1	congruent	Block1	congruent/STIM_027.jpg
1118.95	0.639	1	congruent	Block1	congruent/STIM_027.jpg
1122.683	0.655	1	congruent	Block1	congruent/STIM_027.jpg
1125.824	0.687	1	congruent	Block1	congruent/STIM_028.jpg
1128.724	0.776	1	congruent	Block1	congruent/STIM_028.jpg
1132.53	0.54	1	congruent	Block1	congruent/STIM_028.jpg
1135.328	0.529	1	congruent	Block1	congruent/STIM_028.jpg
1138.453	0.549	1	congruent	Block1	congruent/STIM_028.jpg
1141.745	0.777	1	congruent	Block1	congruent/STIM_029.jpg
1145.783	0.506	1	congruent	Block1	congruent/STIM_029.jpg
1148.371	0.557	1	congruent	Block1	congruent/STIM_029.jpg
1152.002	0.506	1	congruent	Block1	congruent/STIM_029.jpg
1154.896	0.606	1	congruent	Block1	congruent/STIM_029.jpg
1158.281	0.813	1	incongruent	Block2	incongruent/STIM_000.jpg
1161.896	1.051	1	incongruent	Block2	incongruent/STIM_000.jpg
1165.266	0.533	1	incongruent	Block2	incongruent/STIM_000.jpg
1168.174	0.882	1	incongruent	Block2	incongruent/STIM_000.jpg
1172.277	0.574	1	incongruent	Block2	incongruent/STIM_000.jpg
1175.585	0.692	1	incongruent	Block2	incongruent/STIM_001.jpg
1178.397	0.515	1	incongruent	Block2	incongruent/STIM_001.jpg
1182.827	0.698	1	incongruent	Block2	incongruent/STIM_001.jpg
1185.839	0.733	1	incongruent	Block2	incongruent/STIM_001.jpg
1189.845	0.855	1	incongruent	Block2	incongruent/STIM_001.jpg
1192.94	0.596	1	incongruent	Block2	incongruent/STIM_002.jpg
1197.008	0.727	1	incongruent	Block2	incongruent/STIM_002.jpg
1200.179	0.892	1	incongruent	Block2	incongruent/STIM_002.jpg
1204.494	0.914	1	incongruent	Block2	incongruent/STIM_002.jpg
1208.662	0.476	1	incongruent	Block2	incongruent/STIM_002.jpg
1211.596	1.001	1	incongruent	Block2	incongruent/STIM_003.jpg
1216.596	0.499	1	incongruent	Block2	incongruent/STIM_003.jpg
1220.318	0.494	1	incongruent	Block2	incongruent/STIM_003.jpg
1223.463	0.792	1	incongruent	Block2	incongruent/STIM_003.jpg
1228.017	0.534	1	incongruent	Block2	incongruent/STIM_003.jpg
1231.257	0.854	1	incongruent	Block2	incongruent/STIM_004.jpg
1235.719	0.511	1	incongruent	Block2	incongruent/STIM_004.jpg
1240.2	0.955	1	incongruent	Block2	incongruent/STIM_004.jpg
1244.458	0.535	1	incongruent	Block2	incongruent/STIM_004.jpg
1248.983	0.501	1	incongruent	Block2	incongruent/STIM_004.jpg
1251.554	0.801	1	incongruent	Block2	incongruent/STIM_005.jpg
1255.477	0.769	1	incongruent	Block2	incongruent/STIM_005.jpg
1259.168	0.592	1	incongruent	Block2	incongruent/STIM_005.jpg
1262.17	0.517	1	incongruent	Block2	incongruent/STIM_005.jpg
1266.112	0.518	1	incongruent	Block2	incongruent/STIM_005.jpg
1269.95	0.796	1	incongruent	Block2	incongruent/STIM_006.jpg
1273.06	0.693	1	incongruent	Block2	incongruent/STIM_006.jpg
1277.124	0.94	0	incongruent	Block2	incongruent/STIM_006.jpg
1280.482	0.764	1	incongruent	Block2	incongruent/STIM_006.jpg
1285.016	0.698	1	incongruent	Block2	incongruent/STIM_006.jpg
1288.444	0.92	1	incongruent	Block2	incongruent/STIM_007.jpg
1292.668	0.682	1	incongruent	Block2	incongruent/STIM_007.jpg
1295.909	0.975	1	incongruent	Block2	incongruent/STIM_007.jpg
1299.073	0.635	1	incongruent	Block2	incongruent/STIM_007.jpg
1303.175	0.473	1	incongruent	Block2	incongruent/STIM_007.jpg
1306.236	1.048	1	incongruent	Block2	incongruent/STIM_008.jpg
1311.203	0.704	1	incongruent	Block2	incongruent/STIM_008.jpg
1315.339	0.959	0	incongruent	Block2	incongruent/STIM_008.jpg
1319.79	0.634	1	incongruent	Block2	incongruent/STIM_008.jpg
1323.311	0.69	1	incongruent	Block2	incongruent/STIM_008.jpg
1327.741	0.872	1	incongruent	Block2	incongruent/STIM_009.jpg
1331.807	0.856	1	incongruent	Block2	incongruent/STIM_009.jpg
1336.448	0.497	1	incongruent	Block2	incongruent/STIM_009.jpg
1339.101	0.68	1	incongruent	Block2	incongruent/STIM_009.jpg
1342.57	0.564	1	incongruent	Block2	incongruent/STIM_009.jpg
1346.127	1.062	1	incongruent	Block2	incongruent/STIM_010.jpg
1350.36	1.051	1	incongruent	Block2	incongruent/STIM_010.jpg
1354.264	0.567	1	incongruent	Block2	incongruent/STIM_010.jpg
1357.297	0.476	1	incongruent	Block2	incongruent/STIM_010.jpg
1361.041	0.546	1	incongruent	Block2	incongruent/STIM_010.jpg
1363.789	0.886	1	incongruent	Block2	incongruent/STIM_011.jpg
1368.679	0.592	1	incongruent	Block2	incongruent/STIM_011.jpg
1371.74	0.678	1	incongruent	Block2	incongruent/STIM_011.jpg
1375.268	0.816	1	incongruent	Block2	incongruent/STIM_011.jpg
1379.162	0.528	0	incongruent	Block2	incongruent/STIM_011.jpg
1383.705	1.068	1	incongruent	Block2	incongruent/STIM_012.jpg
1387.036	0.732	1	incongruent	Block2	incongruent/STIM_012.jpg
1390.355	0.704	1	incongruent	Block2	incongruent/STIM_012.jpg
1393.449	0.535	1	incongruent	Block2	incongruent/STIM_012.jpg
1396.253	0.62	0	incongruent	Block2	incongruent/STIM_012.jpg
1400.14	0.988	1	incongruent	Block2	incongruent/STIM_013.jpg
1404.18	1.038	1	incongruent	Block2	incongruent/STIM_013.jpg
1407.602	0.594	1	incongruent	Block2	incongruent/STIM_013.jpg
1410.634	0.708	1	incongruent	Block2	incongruent/STIM_013.jpg
1414.84	0.914	1	incongruent	Block2	incongruent/STIM_013.jpg
1418.244	0.639	1	incongruent	Block2	incongruent/STIM_014.jpg
1421.657	0.575	1	incongruent	Block2	incongruent/STIM_014.jpg
1425.859	0.725	1	incongruent	Block2	incongruent/STIM_014.jpg
1429.052	0.5	1	incongruent	Block2	incongruent/STIM_014.jpg
1432.689	0.799	1	incongruent	Block2	incongruent/STIM_014.jpg
1435.731	1.115	1	incongruent	Block2	incongruent/STIM_015.jpg
1439.338	0.646	1	incongruent	Block2	incongruent/STIM_015.jpg
1442.774	0.925	1	incongruent	Block2	incongruent/STIM_015.jpg
1447.08	0.737	1	incongruent	Block2	incongruent/STIM_015.jpg
1451.701	0.77	1	incongruent	Block2	incongruent/STIM_015.jpg
1455.271	1.102	1	incongruent	Block2	incongruent/STIM_016.jpg
1458.801	0.849	1	incongruent	Block2	incongruent/STIM_016.jpg
1461.976	0.876	1	incongruent	Block2	incongruent/STIM_016.jpg
1465.644	0.871	1	incongruent	Block2	incongruent/STIM_016.jpg
1470.588	0.707	1	incongruent	Block2	incongruent/STIM_016.jpg
1475.192	0.966	1	incongruent	Block2	incongruent/STIM_017.jpg
1479.114	0.716	1	incongruent	Block2	incongruent/STIM_017.jpg
1482.005	0.489	0	incongruent	Block2	incongruent/STIM_017.jpg
1485.426	0.92	1	incongruent	Block2	incongruent/STIM_017.jpg
1488.778	0.458	1	incongruent	Block2	incongruent/STIM_017.jpg
1491.757	0.885	1	incongruent	Block2	incongruent/STIM_018.jpg
1496.087	0.603	1	incongruent	Block2	incongruent/STIM_018.jpg
1498.83	0.832	1	incongruent	Block2	incongruent/STIM_018.jpg
1503.447	0.638	1	incongruent	Block2	incongruent/STIM_018.jpg
1507.857	0.541	1	incongruent	Block2	incongruent/STIM_018.jpg
1511.048	1.029	1	incongruent	Block2	incongruent/STIM_019.jpg
1515.485	0.986	1	incongruent	Block2	incongruent/STIM_019.jpg
1518.961	0.667	1	incongruent	Block2	incongruent/STIM_019.jpg
1522.955	0.681	1	incongruent	Block2	incongruent/STIM_019.jpg
1527.446	0.868	1	incongruent	Block2	incongruent/STIM_019.jpg
1531.517	0.797	1	incongruent	Block2	incongruent/STIM_020.jpg
1534.514	0.731	1	incongruent	Block2	incongruent/STIM_020.jpg
1537.672	0.629	1	incongruent	Block2	incongruent/STIM_020.jpg
1542.048	0.909	0	incongruent	Block2	incongruent/STIM_020.jpg
1546.996	0.458	1	incongruent	Block2	incongruent/STIM_020.jpg
1549.847	0.747	1	incongruent	Block2	incongruent/STIM_021.jpg
1554.198	0.537	1	incongruent	Block2	incongruent/STIM_021.jpg
1557.685	0.887	1	incongruent	Block2	incongruent/STIM_021.jpg
1561.62	0.494	1	incongruent	Block2	incongruent/STIM_021.jpg
1565.927	0.442	1	incongruent	Block2	incongruent/STIM_021.jpg
1570.183	0.696	1	incongruent	Block2	incongruent/STIM_022.jpg
1573.29	0.721	1	incongruent	Block2	incongruent/STIM_022.jpg
1577.796	0.619	1	incongruent	Block2	incongruent/STIM_022.jpg
1580.944	0.722	1	incongruent	Block2	incongruent/STIM_022.jpg
1584.162	0.482	1	incongruent	Block2	incongruent/STIM_022.jpg
1588.208	0.996	0	incongruent	Block2	incongruent/STIM_023.jpg
1591.854	0.872	1	incongruent	Block2	incongruent/STIM_023.jpg
1596.396	0.91	1	incongruent	Block2	incongruent/STIM_023.jpg
1599.563	0.677	1	incongruent	Block2	incongruent/STIM_023.jpg
1603.427	0.832	1	incongruent	Block2	incongruent/STIM_023.jpg
1607.809	0.973	1	incongruent	Block2	incongruent/STIM_024.jpg
1611.192	1.024	0	incongruent	Block2	incongruent/STIM_024.jpg
1614.798	0.949	1	incongruent	Block2	incongruent/STIM_024.jpg
1618.972	0.648	1	incongruent	Block2	incongruent/STIM_024.jpg
1623.205	0.479	1	incongruent	Block2	incongruent/STIM_024.jpg
1626.686	0.658	1	incongruent	Block2	incongruent/STIM_025.jpg
1630.38	0.881	1	incongruent	Block2	incongruent/STIM_025.jpg
1633.544	0.591	1	incongruent	Block2	incongruent/STIM_025.jpg
1638.044	0.449	1	incongruent	Block2	incongruent/STIM_025.jpg
1641.352	0.435	1	incongruent	Block2	incongruent/STIM_025.jpg
1645.205	1.049	1	incongruent	Block2	incongruent/STIM_026.jpg
1649.929	0.819	1	incongruent	Block2	incongruent/STIM_026.jpg
1653.656	0.779	1	incongruent	Block2	incongruent/STIM_026.jpg
1657.292	0.587	1	incongruent	Block2	incongruent/STIM_026.jpg
1660.533	0.502	1	incongruent	Block2	incongruent/STIM_026.jpg
1663.744	0.729	1	incongruent	Block2	incongruent/STIM_027.jpg
1666.584	0.922	1	incongruent	Block2	incongruent/STIM_027.jpg
1670.798	0.973	1	incongruent	Block2	incongruent/STIM_027.jpg
1674.469	0.472	1	incongruent	Block2	incongruent/STIM_027.jpg
1677.401	0.715	1	incongruent	Block2	incongruent/STIM_027.jpg
1682.129	0.737	1	incongruent	Block2	incongruent/STIM_028.jpg
1685.744	0.536	1	incongruent	Block2	incongruent/STIM_028.jpg
1690.334	0.546	1	incongruent	Block2	incongruent/STIM_028.jpg
1693.628	0.897	1	incongruent	Block2	incongruent/STIM_028.jpg
1698.222	0.56	1	incongruent	Block2	incongruent/STIM_028.jpg
1700.915	1.031	1	incongruent	Block2	incongruent/STIM_029.jpg
1705.522	0.911	1	incongruent	Block2	incongruent/STIM_029.jpg
1709.354	0.83	1	incongruent	Block2	incongruent/STIM_029.jpg
1712.605	0.78	1	incongruent	Block2	incongruent/STIM_029.jpg
1715.546	0.651	1	incongruent	Block2	incongruent/STIM_029.jpg
1719.314	0.675	1	congruent	Block2	congruent/STIM_000.jpg
1723.784	0.467	1	congruent	Block2	congruent/STIM_000.jpg
1726.806	0.586	1	congruent	Block2	congruent/STIM_000.jpg
1730.439	0.6	0	congruent	Block2	congruent/STIM_000.jpg
1734.645	0.529	1	congruent	Block2	congruent/STIM_000.jpg
1738.417	0.565	1	congruent	Block2	congruent/STIM_001.jpg
1741.355	0.58	1	congruent	Block2	congruent/STIM_001.jpg
1744.112	0.485	1	congruent	Block2	congruent/STIM_001.jpg
1746.851	0.727	1	congruent	Block2	congruent/STIM_001.jpg
1750.758	0.451	1	congruent	Block2	congruent/STIM_001.jpg
1755.0	0.711	1	congruent	Block2	congruent/STIM_002.jpg
1759.645	0.477	1	congruent	Block2	congruent/STIM_002.jpg
1762.212	0.58	1	congruent	Block2	congruent/STIM_002.jpg
1765.72	0.669	1	congruent	Block2	congruent/STIM_002.jpg
1769.493	0.477	1	congruent	Block2	congruent/STIM_002.jpg
1772.049	0.449	1	congruent	Block2	congruent/STIM_003.jpg
1775.683	0.622	1	congruent	Block2	congruent/STIM_003.jpg
1778.517	0.569	1	congruent	Block2	congruent/STIM_003.jpg
1782.455	0.551	1	congruent	Block2	congruent/STIM_003.jpg
1785.193	0.449	1	congruent	Block2	congruent/STIM_003.jpg
1788.681	0.563	1	congruent	Block2	congruent/STIM_004.jpg
1791.491	0.7	1	congruent	Block2	congruent/STIM_004.jpg
1794.746	0.492	1	congruent	Block2	congruent/STIM_004.jpg
1798.277	0.514	1	congruent	Block2	congruent/STIM_004.jpg
1802.291	0.61	1	congruent	Block2	congruent/STIM_004.jpg
1805.533	0.594	1	congruent	Block2	congruent/STIM_005.jpg
1808.768	0.499	0	congruent	Block2	congruent/STIM_005.jpg
1811.374	0.732	1	congruent	Block2	congruent/STIM_005.jpg
1814.859	0.586	1	congruent	Block2	congruent/STIM_005.jpg
1818.365	0.532	1	congruent	Block2	congruent/STIM_005.jpg
1822.563	0.448	1	congruent	Block2	congruent/STIM_006.jpg
1826.721	0.791	1	congruent	Block2	congruent/STIM_006.jpg
1830.241	0.779	1	congruent	Block2	congruent/STIM_006.jpg
1834.924	0.788	1	congruent	Block2	congruent/STIM_006.jpg
1838.044	0.669	1	congruent	Block2	congruent/STIM_006.jpg
1841.94	0.515	1	congruent	Block2	congruent/STIM_007.jpg
1844.732	0.609	1	congruent	Block2	congruent/STIM_007.jpg
1847.738	0.711	1	congruent	Block2	congruent/STIM_007.jpg
1850.564	0.49	1	congruent	Block2	congruent/STIM_007.jpg
1853.791	0.484	1	congruent	Block2	congruent/STIM_007.jpg
1857.553	0.563	1	congruent	Block2	congruent/STIM_008.jpg
1861.602	0.494	1	congruent	Block2	congruent/STIM_008.jpg
1865.292	0.475	1	congruent	Block2	congruent/STIM_008.jpg
1869.095	0.784	1	congruent	Block2	congruent/STIM_008.jpg
1873.679	0.617	1	congruent	Block2	congruent/STIM_008.jpg
1876.415	0.489	1	congruent	Block2	congruent/STIM_009.jpg
1880.903	0.628	1	congruent	Block2	congruent/STIM_009.jpg
1883.944	0.504	1	congruent	Block2	congruent/STIM_009.jpg
1886.813	0.735	1	congruent	Block2	congruent/STIM_009.jpg
1890.054	0.632	1	congruent	Block2	congruent/STIM_009.jpg
1894.586	0.654	1	congruent	Block2	congruent/STIM_010.jpg
1897.4	0.454	1	congruent	Block2	congruent/STIM_010.jpg
1901.229	0.605	1	congruent	Block2	congruent/STIM_010.jpg
1904.608	0.526	1	congruent	Block2	congruent/STIM_010.jpg
1907.544	0.696	1	congruent	Block2	congruent/STIM_010.jpg
1911.403	0.593	1	congruent	Block2	congruent/STIM_011.jpg
1915.218	0.79	1	congruent	Block2	congruent/STIM_011.jpg
1919.393	0.483	1	congruent	Block2	congruent/STIM_011.jpg
1922.739	0.589	1	congruent	Block2	congruent/STIM_011.jpg
1927.363	0.477	1	congruent	Block2	congruent/STIM_011.jpg
1931.716	0.544	1	congruent	Block2	congruent/STIM_012.jpg
1936.262	0.506	1	congruent	Block2	congruent/STIM_012.jpg
1939.554	0.753	1	congruent	Block2	congruent/STIM_012.jpg
1944.076	0.494	1	congruent	Block2	congruent/STIM_012.jpg
1947.444	0.629	1	congruent	Block2	congruent/STIM_012.jpg
1951.798	0.646	1	congruent	Block2	congruent/STIM_013.jpg
1954.535	0.516	1	congruent	Block2	congruent/STIM_013.jpg
1958.86	0.627	1	congruent	Block2	congruent/STIM_013.jpg
1961.612	0.61	1	congruent	Block2	congruent/STIM_013.jpg
1965.989	0.491	1	congruent	Block2	congruent/STIM_013.jpg
1969.792	0.501	1	congruent	Block2	congruent/STIM_014.jpg
1972.91	0.523	1	congruent	Block2	congruent/STIM_014.jpg
1976.142	0.54	1	congruent	Block2	congruent/STIM_014.jpg
1978.778	0.658	1	congruent	Block2	congruent/STIM_014.jpg
1982.099	0.783	1	congruent	Block2	congruent/STIM_014.jpg
1986.083	0.721	1	congruent	Block2	congruent/STIM_015.jpg
1989.257	0.732	1	congruent	Block2	congruent/STIM_015.jpg
1992.937	0.453	1	congruent	Block2	congruent/STIM_015.jpg
1995.615	0.748	1	congruent	Block2	congruent/STIM_015.jpg
2000.19	0.466	0	congruent	Block2	congruent/STIM_015.jpg
2002.941	0.456	1	congruent	Block2	congruent/STIM_016.jpg
2006.365	0.69	0	congruent	Block2	congruent/STIM_016.jpg
2009.264	0.568	1	congruent	Block2	congruent/STIM_016.jpg
2012.875	0.477	1	congruent	Block2	congruent/STIM_016.jpg
2016.796	0.564	1	congruent	Block2	congruent/STIM_016.jpg
2020.991	0.743	1	congruent	Block2	congruent/STIM_017.jpg
2024.312	0.718	1	congruent	Block2	congruent/STIM_017.jpg
2027.799	0.769	1	congruent	Block2	congruent/STIM_017.jpg
2031.572	0.585	1	congruent	Block2	congruent/STIM_017.jpg
2036.203	0.78	1	congruent	Block2	congruent/STIM_017.jpg
2039.73	0.68	1	congruent	Block2	congruent/STIM_018.jpg
2043.125	0.448	1	congruent	Block2	congruent/STIM_018.jpg
2046.198	0.496	1	congruent	Block2	congruent/STIM_018.jpg
2050.477	0.748	1	congruent	Block2	congruent/STIM_018.jpg
2053.824	0.664	1	congruent	Block2	congruent/STIM_018.jpg
2058.01	0.692	1	congruent	Block2	congruent/STIM_019.jpg
2061.025	0.747	1	congruent	Block2	congruent/STIM_019.jpg
2065.859	0.778	1	congruent	Block2	congruent/STIM_019.jpg
2068.906	0.719	1	congruent	Block2	congruent/STIM_019.jpg
2072.911	0.455	0	congruent	Block2	congruent/STIM_019.jpg
2077.279	0.457	1	congruent	Block2	congruent/STIM_020.jpg
2080.026	0.451	1	congruent	Block2	congruent/STIM_020.jpg
2083.177	0.558	1	congruent	Block2	congruent/STIM_020.jpg
2086.432	0.616	1	congruent	Block2	congruent/STIM_020.jpg
2089.599	0.512	1	congruent	Block2	congruent/STIM_020.jpg
2092.411	0.547	1	congruent	Block2	congruent/STIM_021.jpg
2096.422	0.661	1	congruent	Block2	congruent/STIM_021.jpg
2100.651	0.56	1	congruent	Block2	congruent/STIM_021.jpg
2105.172	0.637	1	congruent	Block2	congruent/STIM_021.jpg
2109.808	0.594	1	congruent	Block2	congruent/STIM_021.jpg
2113.489	0.66	1	congruent	Block2	congruent/STIM_022.jpg
2116.34	0.733	1	congruent	Block2	congruent/STIM_022.jpg
2120.297	0.443	1	congruent	Block2	congruent/STIM_022.jpg
2124.651	0.48	1	congruent	Block2	congruent/STIM_022.jpg
2128.617	0.645	1	congruent	Block2	congruent/STIM_022.jpg
2132.792	0.551	1	congruent	Block2	congruent/STIM_023.jpg
2135.461	0.605	1	congruent	Block2	congruent/STIM_023.jpg
2138.249	0.715	1	congruent	Block2	congruent/STIM_023.jpg
2142.547	0.67	1	congruent	Block2	congruent/STIM_023.jpg
2145.537	0.559	1	congruent	Block2	congruent/STIM_023.jpg
2148.242	0.768	1	congruent	Block2	congruent/STIM_024.jpg
2151.814	0.712	1	congruent	Block2	congruent/STIM_024.jpg
2156.057	0.784	1	congruent	Block2	congruent/STIM_024.jpg
2160.746	0.522	1	congruent	Block2	congruent/STIM_024.jpg
2164.284	0.707	0	congruent	Block2	congruent/STIM_024.jpg
2168.327	0.608	1	congruent	Block2	congruent/STIM_025.jpg
2171.415	0.477	1	congruent	Block2	congruent/STIM_025.jpg
2175.181	0.517	1	congruent	Block2	congruent/STIM_025.jpg
2178.698	0.597	1	congruent	Block2	congruent/STIM_025.jpg
2182.55	0.68	1	congruent	Block2	congruent/STIM_025.jpg
2185.427	0.639	1	congruent	Block2	congruent/STIM_026.jpg
2188.698	0.496	1	congruent	Block2	congruent/STIM_026.jpg
2193.094	0.683	1	congruent	Block2	congruent/STIM_026.jpg
2196.498	0.608	1	congruent	Block2	congruent/STIM_026.jpg
2199.206	0.765	1	congruent	Block2	congruent/STIM_026.jpg
2202.979	0.724	1	congruent	Block2	congruent/STIM_027.jpg
2207.166	0.522	1	congruent	Block2	congruent/STIM_027.jpg
2209.81	0.518	1	congruent	Block2	congruent/STIM_027.jpg
2214.025	0.448	1	congruent	Block2	congruent/STIM_027.jpg
2216.813	0.532	1	congruent	Block2	congruent/STIM_027.jpg
2220.393	0.671	1	congruent	Block2	congruent/STIM_028.jpg
2224.29	0.77	1	congruent	Block2	congruent/STIM_028.jpg
2227.905	0.772	1	congruent	Block2	congruent/STIM_028.jpg
2231.345	0.501	1	congruent	Block2	congruent/STIM_028.jpg
2235.642	0.655	1	congruent	Block2	congruent/STIM_028.jpg
2238.926	0.53	1	congruent	Block2	congruent/STIM_029.jpg
2243.278	0.757	1	congruent	Block2	congruent/STIM_029.jpg
2246.976	0.731	1	congruent	Block2	congruent/STIM_029.jpg
2250.673	0.629	1	congruent	Block2	congruent/STIM_029.jpg
2254.313	0.484	1	congruent	Block2	congruent/STIM_029.jpg
2257.305	0.789	1	incongruent	Block3	incongruent/STIM_000.jpg
2261.518	0.695	1	incongruent	Block3	incongruent/STIM_000.jpg
2264.812	0.625	1	incongruent	Block3	incongruent/STIM_000.jpg
2268.957	0.642	1	incongruent	Block3	incongruent/STIM_000.jpg
2272.778	0.919	1	incongruent	Block3	incongruent/STIM_000.jpg
2276.689	0.711	1	incongruent	Block3	incongruent/STIM_001.jpg
2281.474	0.859	1	incongruent	Block3	incongruent/STIM_001.jpg
2286.332	0.519	1	incongruent	Block3	incongruent/STIM_001.jpg
2289.131	0.676	1	incongruent	Block3	incongruent/STIM_001.jpg
2293.445	0.631	1	incongruent	Block3	incongruent/STIM_001.jpg
2297.763	0.527	1	incongruent	Block3	incongruent/STIM_002.jpg
2301.537	0.832	1	incongruent	Block3	incongruent/STIM_002.jpg
2305.564	0.491	1	incongruent	Block3	incongruent/STIM_002.jpg
2309.744	0.817	1	incongruent	Block3	incongruent/STIM_002.jpg
2313.855	0.819	1	incongruent	Block3	incongruent/STIM_002.jpg
2318.015	0.589	1	incongruent	Block3	incongruent/STIM_003.jpg
2321.859	0.658	1	incongruent	Block3	incongruent/STIM_003.jpg
2325.763	0.554	1	incongruent	Block3	incongruent/STIM_003.jpg
2330.286	0.443	1	incongruent	Block3	incongruent/STIM_003.jpg
2333.553	0.656	1	incongruent	Block3	incongruent/STIM_003.jpg
2337.447	0.8	1	incongruent	Block3	incongruent/STIM_004.jpg
2340.976	0.805	1	incongruent	Block3	incongruent/STIM_004.jpg
2344.423	0.675	1	incongruent	Block3	incongruent/STIM_004.jpg
2347.86	0.439	1	incongruent	Block3	incongruent/STIM_004.jpg
2350.744	0.653	1	incongruent	Block3	incongruent/STIM_004.jpg
2353.578	0.513	1	incongruent	Block3	incongruent/STIM_005.jpg
2357.719	0.439	1	incongruent	Block3	incongruent/STIM_005.jpg
2360.503	0.504	1	incongruent	Block3	incongruent/STIM_005.jpg
2363.603	0.904	1	incongruent	Block3	incongruent/STIM_005.jpg
2367.4	0.875	1	incongruent	Block3	incongruent/STIM_005.jpg
2371.209	0.537	1	incongruent	Block3	incongruent/STIM_006.jpg
2374.381	0.581	1	incongruent	Block3	incongruent/STIM_006.jpg
2378.314	0.811	1	incongruent	Block3	incongruent/STIM_006.jpg
2382.154	0.829	1	incongruent	Block3	incongruent/STIM_006.jpg
2386.572	0.882	1	incongruent	Block3	incongruent/STIM_006.jpg
2390.1	0.719	1	incongruent	Block3	incongruent/STIM_007.jpg
2394.162	0.507	1	incongruent	Block3	incongruent/STIM_007.jpg
2398.223	0.785	1	incongruent	Block3	incongruent/STIM_007.jpg
2402.996	0.62	1	incongruent	Block3	incongruent/STIM_007.jpg
2407.298	0.645	1	incongruent	Block3	incongruent/STIM_007.jpg
2410.804	0.799	1	incongruent	Block3	incongruent/STIM_008.jpg
2414.716	0.514	1	incongruent	Block3	incongruent/STIM_008.jpg
2418.198	0.743	1	incongruent	Block3	incongruent/STIM_008.jpg
2422.222	0.649	1	incongruent	Block3	incongruent/STIM_008.jpg
2426.529	0.501	1	incongruent	Block3	incongruent/STIM_008.jpg
2430.376	0.685	1	incongruent	Block3	incongruent/STIM_009.jpg
2434.033	0.849	1	incongruent	Block3	incongruent/STIM_009.jpg
2438.781	0.678	1	incongruent	Block3	incongruent/STIM_009.jpg
2442.63	0.483	1	incongruent	Block3	incongruent/STIM_009.jpg
2445.369	0.796	1	incongruent	Block3	incongruent/STIM_009.jpg
2449.92	0.647	1	incongruent	Block3	incongruent/STIM_010.jpg
2454.396	0.674	1	incongruent	Block3	incongruent/STIM_010.jpg
2458.34	0.797	1	incongruent	Block3	incongruent/STIM_010.jpg
2461.718	0.783	1	incongruent	Block3	incongruent/STIM_010.jpg
2464.958	0.634	1	incongruent	Block3	incongruent/STIM_010.jpg
2468.494	0.71	0	incongruent	Block3	incongruent/STIM_011.jpg
2471.532	0.524	1	incongruent	Block3	incongruent/STIM_011.jpg
2474.945	0.869	1	incongruent	Block3	incongruent/STIM_011.jpg
2479.272	0.845	1	incongruent	Block3	incongruent/STIM_011.jpg
2483.032	0.746	1	incongruent	Block3	incongruent/STIM_011.jpg
2486.084	0.754	1	incongruent	Block3	incongruent/STIM_012.jpg
2490.143	0.788	1	incongruent	Block3	incongruent/STIM_012.jpg
2494.105	0.721	1	incongruent	Block3	incongruent/STIM_012.jpg
2498.894	0.896	1	incongruent	Block3	incongruent/STIM_012.jpg
2502.624	0.493	1	incongruent	Block3	incongruent/STIM_012.jpg
2506.742	0.59	1	incongruent	Block3	incongruent/STIM_013.jpg
2511.028	0.797	1	incongruent	Block3	incongruent/STIM_013.jpg
2514.428	0.911	1	incongruent	Block3	incongruent/STIM_013.jpg
2518.736	0.539	1	incongruent	Block3	incongruent/STIM_013.jpg
2522.408	0.549	1	incongruent	Block3	incongruent/STIM_013.jpg
2527.001	0.602	1	incongruent	Block3	incongruent/STIM_014.jpg
2530.766	0.449	1	incongruent	Block3	incongruent/STIM_014.jpg
2534.088	0.778	1	incongruent	Block3	incongruent/STIM_014.jpg
2537.928	0.451	1	incongruent	Block3	incongruent/STIM_014.jpg
2540.739	0.842	0	incongruent	Block3	incongruent/STIM_014.jpg
2545.17	0.867	1	incongruent	Block3	incongruent/STIM_015.jpg
2549.961	0.715	1	incongruent	Block3	incongruent/STIM_015.jpg
2553.377	0.48	1	incongruent	Block3	incongruent/STIM_015.jpg
2556.42	0.515	1	incongruent	Block3	incongruent/STIM_015.jpg
2560.034	0.838	1	incongruent	Block3	incongruent/STIM_015.jpg
2564.503	0.715	1	incongruent	Block3	incongruent/STIM_016.jpg
2567.422	0.869	1	incongruent	Block3	incongruent/STIM_016.jpg
2572.206	0.645	1	incongruent	Block3	incongruent/STIM_016.jpg
2574.959	0.532	1	incongruent	Block3	incongruent/STIM_016.jpg
2578.507	0.456	1	incongruent	Block3	incongruent/STIM_016.jpg
2581.724	0.45	1	incongruent	Block3	incongruent/STIM_017.jpg
2585.718	0.842	1	incongruent	Block3	incongruent/STIM_017.jpg
2589.193	0.724	1	incongruent	Block3	incongruent/STIM_017.jpg
2592.801	0.847	1	incongruent	Block3	incongruent/STIM_017.jpg
2597.111	0.839	1	incongruent	Block3	incongruent/STIM_017.jpg
2602.007	0.608	1	incongruent	Block3	incongruent/STIM_018.jpg
2605.508	0.649	1	incongruent	Block3	incongruent/STIM_018.jpg
2609.897	0.852	1	incongruent	Block3	incongruent/STIM_018.jpg
2613.839	0.846	1	incongruent	Block3	incongruent/STIM_018.jpg
2618.223	0.664	1	incongruent	Block3	incongruent/STIM_018.jpg
2621.654	0.507	1	incongruent	Block3	incongruent/STIM_019.jpg
2625.544	0.621	1	incongruent	Block3	incongruent/STIM_019.jpg
2629.307	0.545	1	incongruent	Block3	incongruent/STIM_019.jpg
2633.637	0.528	1	incongruent	Block3	incongruent/STIM_019.jpg
2638.059	0.581	1	incongruent	Block3	incongruent/STIM_019.jpg
2642.094	0.504	1	incongruent	Block3	incongruent/STIM_020.jpg
2645.816	0.862	1	incongruent	Block3	incongruent/STIM_020.jpg
2650.082	0.756	1	incongruent	Block3	incongruent/STIM_020.jpg
2654.863	0.852	1	incongruent	Block3	incongruent/STIM_020.jpg
2657.861	0.805	1	incongruent	Block3	incongruent/STIM_020.jpg
2661.19	0.791	0	incongruent	Block3	incongruent/STIM_021.jpg
2665.969	0.506	1	incongruent	Block3	incongruent/STIM_021.jpg
2670.466	0.871	1	incongruent	Block3	incongruent/STIM_021.jpg
2674.698	0.517	1	incongruent	Block3	incongruent/STIM_021.jpg
2679.211	0.632	1	incongruent	Block3	incongruent/STIM_021.jpg
2683.767	0.873	1	incongruent	Block3	incongruent/STIM_022.jpg
2688.635	0.748	1	incongruent	Block3	incongruent/STIM_022.jpg
2692.042	0.457	1	incongruent	Block3	incongruent/STIM_022.jpg
2694.801	0.666	1	incongruent	Block3	incongruent/STIM_022.jpg
2698.078	0.728	1	incongruent	Block3	incongruent/STIM_022.jpg
2702.35	0.675	1	incongruent	Block3	incongruent/STIM_023.jpg
2705.729	0.806	0	incongruent	Block3	incongruent/STIM_023.jpg
2709.878	0.619	1	incongruent	Block3	incongruent/STIM_023.jpg
2714.073	0.834	1	incongruent	Block3	incongruent/STIM_023.jpg
2718.51	0.888	1	incongruent	Block3	incongruent/STIM_023.jpg
2721.634	0.432	1	incongruent	Block3	incongruent/STIM_024.jpg
2725.872	0.711	1	incongruent	Block3	incongruent/STIM_024.jpg
2729.788	0.799	1	incongruent	Block3	incongruent/STIM_024.jpg
2734.335	0.62	1	incongruent	Block3	incongruent/STIM_024.jpg
2738.254	0.739	1	incongruent	Block3	incongruent/STIM_024.jpg
2741.672	0.725	0	incongruent	Block3	incongruent/STIM_025.jpg
2745.91	0.845	1	incongruent	Block3	incongruent/STIM_025.jpg
2749.998	0.558	1	incongruent	Block3	incongruent/STIM_025.jpg
2753.589	0.631	1	incongruent	Block3	incongruent/STIM_025.jpg
2757.653	0.493	1	incongruent	Block3	incongruent/STIM_025.jpg
2760.761	0.66	1	incongruent	Block3	incongruent/STIM_026.jpg
2764.026	0.876	1	incongruent	Block3	incongruent/STIM_026.jpg
2767.204	0.587	1	incongruent	Block3	incongruent/STIM_026.jpg
2771.521	0.774	1	incongruent	Block3	incongruent/STIM_026.jpg
2775.239	0.77	1	incongruent	Block3	incongruent/STIM_026.jpg
2779.477	0.511	1	incongruent	Block3	incongruent/STIM_027.jpg
2782.396	0.816	1	incongruent	Block3	incongruent/STIM_027.jpg
2786.387	0.728	1	incongruent	Block3	incongruent/STIM_027.jpg
2790.03	0.631	1	incongruent	Block3	incongruent/STIM_027.jpg
2792.82	0.545	1	incongruent	Block3	incongruent/STIM_027.jpg
2795.786	0.786	1	incongruent	Block3	incongruent/STIM_028.jpg
2799.77	0.507	1	incongruent	Block3	incongruent/STIM_028.jpg
2802.762	0.565	1	incongruent	Block3	incongruent/STIM_028.jpg
2805.788	0.877	1	incongruent	Block3	incongruent/STIM_028.jpg
2810.579	0.562	1	incongruent	Block3	incongruent/STIM_028.jpg
2813.61	0.661	1	incongruent	Block3	incongruent/STIM_029.jpg
2817.514	0.835	1	incongruent	Block3	incongruent/STIM_029.jpg
2822.333	0.462	1	incongruent	Block3	incongruent/STIM_029.jpg
2826.18	0.721	1	incongruent	Block3	incongruent/STIM_029.jpg
2830.126	0.557	1	incongruent	Block3	incongruent/STIM_029.jpg
2833.127	0.566	1	congruent	Block3	congruent/STIM_000.jpg
2836.722	0.724	1	congruent	Block3	congruent/STIM_000.jpg
2841.498	0.637	1	congruent	Block3	congruent/STIM_000.jpg
2844.783	0.606	1	congruent	Block3	congruent/STIM_000.jpg
2847.784	0.446	1	congruent	Block3	congruent/STIM_000.jpg
2851.105	0.652	1	congruent	Block3	congruent/STIM_001.jpg
2854.961	0.501	1	congruent	Block3	congruent/STIM_001.jpg
2857.726	0.481	1	congruent	Block3	congruent/STIM_001.jpg
2861.435	0.449	1	congruent	Block3	congruent/STIM_001.jpg
2865.02	0.701	1	congruent	Block3	congruent/STIM_001.jpg
2869.12	0.47	1	congruent	Block3	congruent/STIM_002.jpg
2872.484	0.454	1	congruent	Block3	congruent/STIM_002.jpg
2876.61	0.6	1	congruent	Block3	congruent/STIM_002.jpg
2879.86	0.49	1	congruent	Block3	congruent/STIM_002.jpg
2883.143	0.763	1	congruent	Block3	congruent/STIM_002.jpg
2886.059	0.577	1	congruent	Block3	congruent/STIM_003.jpg
2889.063	0.659	1	congruent	Block3	congruent/STIM_003.jpg
2893.2	0.75	1	congruent	Block3	congruent/STIM_003.jpg
2897.986	0.471	1	congruent	Block3	congruent/STIM_003.jpg
2901.059	0.51	1	congruent	Block3	congruent/STIM_003.jpg
2904.834	0.719	1	congruent	Block3	congruent/STIM_004.jpg
2909.139	0.752	1	congruent	Block3	congruent/STIM_004.jpg
2913.321	0.6	0	congruent	Block3	congruent/STIM_004.jpg
2916.808	0.728	1	congruent	Block3	congruent/STIM_004.jpg
2920.494	0.736	1	congruent	Block3	congruent/STIM_004.jpg
2924.8	0.736	1	congruent	Block3	congruent/STIM_005.jpg
2928.74	0.624	1	congruent	Block3	congruent/STIM_005.jpg
2932.726	0.735	1	congruent	Block3	congruent/STIM_005.jpg
2937.055	0.466	1	congruent	Block3	congruent/STIM_005.jpg
2939.584	0.707	1	congruent	Block3	congruent/STIM_005.jpg
2942.715	0.603	1	congruent	Block3	congruent/STIM_006.jpg
2946.776	0.562	0	congruent	Block3	congruent/STIM_006.jpg
2950.785	0.704	1	congruent	Block3	congruent/STIM_006.jpg
2953.959	0.534	1	congruent	Block3	congruent/STIM_006.jpg
2957.452	0.582	1	congruent	Block3	congruent/STIM_006.jpg
2960.8	0.58	1	congruent	Block3	congruent/STIM_007.jpg
2963.544	0.644	1	congruent	Block3	congruent/STIM_007.jpg
2967.739	0.655	1	congruent	Block3	congruent/STIM_007.jpg
2970.614	0.585	1	congruent	Block3	congruent/STIM_007.jpg
2973.849	0.718	1	congruent	Block3	congruent/STIM_007.jpg
2977.513	0.496	1	congruent	Block3	congruent/STIM_008.jpg
2981.587	0.684	1	congruent	Block3	congruent/STIM_008.jpg
2985.307	0.618	1	congruent	Block3	congruent/STIM_008.jpg
2989.506	0.487	1	congruent	Block3	congruent/STIM_008.jpg
2992.926	0.469	1	congruent	Block3	congruent/STIM_008.jpg
2995.619	0.562	1	congruent	Block3	congruent/STIM_009.jpg
2998.482	0.685	1	congruent	Block3	congruent/STIM_009.jpg
3002.126	0.787	1	congruent	Block3	congruent/STIM_009.jpg
3005.961	0.533	1	congruent	Block3	congruent/STIM_009.jpg
3010.024	0.551	1	congruent	Block3	congruent/STIM_009.jpg
3013.058	0.742	1	congruent	Block3	congruent/STIM_010.jpg
3016.764	0.674	1	congruent	Block3	congruent/STIM_010.jpg
3020.047	0.685	0	congruent	Block3	congruent/STIM_010.jpg
3024.822	0.738	0	congruent	Block3	congruent/STIM_010.jpg
3027.846	0.49	1	congruent	Block3	congruent/STIM_010.jpg
3030.951	0.631	1	congruent	Block3	congruent/STIM_011.jpg
3034.559	0.441	1	congruent	Block3	congruent/STIM_011.jpg
3037.765	0.532	1	congruent	Block3	congruent/STIM_011.jpg
3040.979	0.608	1	congruent	Block3	congruent/STIM_011.jpg
3045.452	0.718	1	congruent	Block3	congruent/STIM_011.jpg
3048.872	0.535	1	congruent	Block3	congruent/STIM_012.jpg
3051.893	0.659	1	congruent	Block3	congruent/STIM_012.jpg
3054.864	0.492	1	congruent	Block3	congruent/STIM_012.jpg
3058.413	0.648	1	congruent	Block3	congruent/STIM_012.jpg
3061.594	0.703	1	congruent	Block3	congruent/STIM_012.jpg
3065.482	0.542	1	congruent	Block3	congruent/STIM_013.jpg
3068.369	0.638	1	congruent	Block3	congruent/STIM_013.jpg
3072.464	0.578	0	congruent	Block3	congruent/STIM_013.jpg
3075.525	0.598	1	congruent	Block3	congruent/STIM_013.jpg
3078.557	0.792	1	congruent	Block3	congruent/STIM_013.jpg
3082.47	0.605	1	congruent	Block3	congruent/STIM_014.jpg
3086.314	0.493	1	congruent	Block3	congruent/STIM_014.jpg
3089.844	0.674	1	congruent	Block3	congruent/STIM_014.jpg
3093.508	0.46	1	congruent	Block3	congruent/STIM_014.jpg
3097.626	0.761	1	congruent	Block3	congruent/STIM_014.jpg
3101.836	0.462	1	congruent	Block3	congruent/STIM_015.jpg
3105.216	0.512	1	congruent	Block3	congruent/STIM_015.jpg
3108.078	0.596	1	congruent	Block3	congruent/STIM_015.jpg
3110.972	0.477	1	congruent	Block3	congruent/STIM_015.jpg
3113.827	0.572	1	congruent	Block3	congruent/STIM_015.jpg
3117.293	0.742	1	congruent	Block3	congruent/STIM_016.jpg
3120.983	0.684	1	congruent	Block3	congruent/STIM_016.jpg
3125.236	0.646	1	congruent	Block3	congruent/STIM_016.jpg
3129.185	0.77	1	congruent	Block3	congruent/STIM_016.jpg
3133.241	0.65	1	congruent	Block3	congruent/STIM_016.jpg
3137.691	0.581	1	congruent	Block3	congruent/STIM_017.jpg
3141.297	0.461	1	congruent	Block3	congruent/STIM_017.jpg
3145.698	0.456	1	congruent	Block3	congruent/STIM_017.jpg
3149.231	0.664	1	congruent	Block3	congruent/STIM_017.jpg
3152.311	0.571	0	congruent	Block3	congruent/STIM_017.jpg
3156.311	0.564	1	congruent	Block3	congruent/STIM_018.jpg
3160.461	0.45	0	congruent	Block3	congruent/STIM_018.jpg
3164.699	0.687	1	congruent	Block3	congruent/STIM_018.jpg
3169.137	0.7	1	congruent	Block3	congruent/STIM_018.jpg
3173.062	0.61	1	congruent	Block3	congruent/STIM_018.jpg
3175.968	0.646	1	congruent	Block3	congruent/STIM_019.jpg
3180.284	0.763	1	congruent	Block3	congruent/STIM_019.jpg
3183.423	0.527	1	congruent	Block3	congruent/STIM_019.jpg
3187.863	0.673	1	congruent	Block3	congruent/STIM_019.jpg
3192.043	0.77	1	congruent	Block3	congruent/STIM_019.jpg
3196.732	0.475	1	congruent	Block3	congruent/STIM_020.jpg
3200.138	0.466	1	congruent	Block3	congruent/STIM_020.jpg
3203.311	0.7	1	congruent	Block3	congruent/STIM_020.jpg
3207.548	0.752	1	congruent	Block3	congruent/STIM_020.jpg
3211.421	0.454	1	congruent	Block3	congruent/STIM_020.jpg
3215.653	0.639	1	congruent	Block3	congruent/STIM_021.jpg
3218.709	0.555	1	congruent	Block3	congruent/STIM_021.jpg
3221.838	0.765	1	congruent	Block3	congruent/STIM_021.jpg
3225.987	0.501	1	congruent	Block3	congruent/STIM_021.jpg
3230.378	0.498	1	congruent	Block3	congruent/STIM_021.jpg
3234.927	0.786	1	congruent	Block3	congruent/STIM_022.jpg
3238.12	0.498	1	congruent	Block3	congruent/STIM_022.jpg
3241.93	0.652	1	congruent	Block3	congruent/STIM_022.jpg
3246.526	0.721	1	congruent	Block3	congruent/STIM_022.jpg
3251.177	0.479	1	congruent	Block3	congruent/STIM_022.jpg
3255.507	0.646	1	congruent	Block3	congruent/STIM_023.jpg
3260.08	0.521	1	congruent	Block3	congruent/STIM_023.jpg
3264.365	0.541	1	congruent	Block3	congruent/STIM_023.jpg
3267.367	0.529	1	congruent	Block3	congruent/STIM_023.jpg
3270.283	0.643	0	congruent	Block3	congruent/STIM_023.jpg
3274.853	0.787	1	congruent	Block3	congruent/STIM_024.jpg
3279.233	0.615	1	congruent	Block3	congruent/STIM_024.jpg
3282.488	0.479	1	congruent	Block3	congruent/STIM_024.jpg
3286.018	0.543	1	congruent	Block3	congruent/STIM_024.jpg
3290.507	0.621	1	congruent	Block3	congruent/STIM_024.jpg
3294.977	0.529	1	congruent	Block3	congruent/STIM_025.jpg
3298.645	0.78	1	congruent	Block3	congruent/STIM_025.jpg
3302.709	0.763	1	congruent	Block3	congruent/STIM_025.jpg
3306.453	0.462	1	congruent	Block3	congruent/STIM_025.jpg
3310.97	0.678	0	congruent	Block3	congruent/STIM_025.jpg
3314.611	0.524	0	congruent	Block3	congruent/STIM_026.jpg
3319.141	0.563	1	congruent	Block3	congruent/STIM_026.jpg
3322.327	0.489	1	congruent	Block3	congruent/STIM_026.jpg
3326.396	0.789	1	congruent	Block3	congruent/STIM_026.jpg
3331.034	0.459	1	congruent	Block3	congruent/STIM_026.jpg
3334.903	0.497	1	congruent	Block3	congruent/STIM_027.jpg
3338.729	0.704	1	congruent	Block3	congruent/STIM_027.jpg
3342.618	0.552	0	congruent	Block3	congruent/STIM_027.jpg
3346.432	0.691	1	congruent	Block3	congruent/STIM_027.jpg
3350.388	0.586	1	congruent	Block3	congruent/STIM_027.jpg
3355.021	0.604	1	congruent	Block3	congruent/STIM_028.jpg
3357.732	0.491	1	congruent	Block3	congruent/STIM_028.jpg
3360.316	0.498	1	congruent	Block3	congruent/STIM_028.jpg
3363.994	0.448	1	congruent	Block3	congruent/STIM_028.jpg
3366.965	0.731	1	congruent	Block3	congruent/STIM_028.jpg
3369.913	0.667	1	congruent	Block3	congruent/STIM_029.jpg
3372.734	0.678	1	congruent	Block3	congruent/STIM_029.jpg
3376.308	0.527	1	congruent	Block3	congruent/STIM_029.jpg
3380.85	0.508	1	congruent	Block3	congruent/STIM_029.jpg
3384.45	0.454	1	congruent	Block3	congruent/STIM_029.jpg
