onset	duration	response_time_ms	trial_type	learning_stage	stimulus	response_port
0.0	0.926	926.2	incongruent	Block1	incongruent/STIM_000.jpg	99
4.762	0.875	875.4	incongruent	Block1	incongruent/STIM_000.jpg	100
8.902	0.653	653.4	incongruent	Block1	incongruent/STIM_000.jpg	100
11.587	0.628	628.0	incongruent	Block1	incongruent/STIM_000.jpg	99
15.614	1.014	1014.5	incongruent	Block1	incongruent/STIM_000.jpg	100
19.652	1.112	1112.4	incongruent	Block1	incongruent/STIM_001.jpg	100
24.278	1.063	1062.8	incongruent	Block1	incongruent/STIM_001.jpg	99
29.298	0.652	651.5	incongruent	Block1	incongruent/STIM_001.jpg	100
33.537	0.714	714.5	incongruent	Block1	incongruent/STIM_001.jpg	99
36.783	0.769	769.4	incongruent	Block1	incongruent/STIM_001.jpg	99
39.787	0.787	786.8	incongruent	Block1	incongruent/STIM_002.jpg	100
44.428	0.79	790.4	incongruent	Block1	incongruent/STIM_002.jpg	99
48.774	0.924	924.1	incongruent	Block1	incongruent/STIM_002.jpg	99
53.168	0.647	646.9	incongruent	Block1	incongruent/STIM_002.jpg	99
55.843	0.975	974.9	incongruent	Block1	incongruent/STIM_002.jpg	99
60.144	1.2	1200.5	incongruent	Block1	incongruent/STIM_003.jpg	99
64.956	0.909	909.3	incongruent	Block1	incongruent/STIM_003.jpg	100
68.111	1.28	1280.0	incongruent	Block1	incongruent/STIM_003.jpg	99
72.053	0.657	657.0	incongruent	Block1	incongruent/STIM_003.jpg	99
75.248	0.851	851.1	incongruent	Block1	incongruent/STIM_003.jpg	100
78.888	0.831	831.2	incongruent	Block1	incongruent/STIM_004.jpg	99
82.407	1.345	1345.3	incongruent	Block1	incongruent/STIM_004.jpg	100
86.707	0.974	973.6	incongruent	Block1	incongruent/STIM_004.jpg	99
89.843	1.015	1014.6	incongruent	Block1	incongruent/STIM_004.jpg	99
94.129	1.022	1021.7	incongruent	Block1	incongruent/STIM_004.jpg	100
97.998	1.122	1122.2	incongruent	Block1	incongruent/STIM_005.jpg	100
102.009	1.088	1088.1	incongruent	Block1	incongruent/STIM_005.jpg	99
105.885	0.993	992.8	incongruent	Block1	incongruent/STIM_005.jpg	99
109.355	0.806	806.3	incongruent	Block1	incongruent/STIM_005.jpg	100
114.023	0.664	663.6	incongruent	Block1	incongruent/STIM_005.jpg	100
117.892	1.436	1436.2	incongruent	Block1	incongruent/STIM_006.jpg	99
122.767	1.266	1266.0	incongruent	Block1	incongruent/STIM_006.jpg	100
127.493	0.947	946.8	incongruent	Block1	incongruent/STIM_006.jpg	100
131.558	0.918	918.2	incongruent	Block1	incongruent/STIM_006.jpg	99
134.713	1.018	1018.3	incongruent	Block1	incongruent/STIM_006.jpg	100
139.509	0.928	927.9	incongruent	Block1	incongruent/STIM_007.jpg	100
142.917	1.171	1171.2	incongruent	Block1	incongruent/STIM_007.jpg	100
147.184	1.074	1074.0	incongruent	Block1	incongruent/STIM_007.jpg	99
150.965	0.907	907.2	incongruent	Block1	incongruent/STIM_007.jpg	100
155.814	0.73	729.5	incongruent	Block1	incongruent/STIM_007.jpg	99
160.524	1.092	1091.6	incongruent	Block1	incongruent/STIM_008.jpg	100
164.077	0.929	928.9	incongruent	Block1	incongruent/STIM_008.jpg	99
168.805	0.764	764.4	incongruent	Block1	incongruent/STIM_008.jpg	100
173.434	0.9	900.4	incongruent	Block1	incongruent/STIM_008.jpg	99
177.543	0.824	824.0	incongruent	Block1	incongruent/STIM_008.jpg	99
181.906	0.817	816.6	incongruent	Block1	incongruent/STIM_009.jpg	99
186.391	1.345	1345.3	incongruent	Block1	incongruent/STIM_009.jpg	100
191.086	1.174	1174.4	incongruent	Block1	incongruent/STIM_009.jpg	99
195.506	0.983	983.3	incongruent	Block1	incongruent/STIM_009.jpg	99
199.505	0.627	626.9	incongruent	Block1	incongruent/STIM_009.jpg	99
204.129	1.283	1283.2	incongruent	Block1	incongruent/STIM_010.jpg	100
208.046	1.076	1076.5	incongruent	Block1	incongruent/STIM_010.jpg	99
212.691	0.686	685.8	incongruent	Block1	incongruent/STIM_010.jpg	100
216.425	0.663	663.3	incongruent	Block1	incongruent/STIM_010.jpg	100
221.081	0.706	706.1	incongruent	Block1	incongruent/STIM_010.jpg	100
224.671	1.165	1165.2	incongruent	Block1	incongruent/STIM_011.jpg	100
228.412	1.011	1010.7	incongruent	Block1	incongruent/STIM_011.jpg	99
233.039	1.2	1199.9	incongruent	Block1	incongruent/STIM_011.jpg	100
237.525	1.044	1043.7	incongruent	Block1	incongruent/STIM_011.jpg	99
242.441	0.621	621.2	incongruent	Block1	incongruent/STIM_011.jpg	99
245.32	0.747	747.1	incongruent	Block1	incongruent/STIM_012.jpg	100
249.257	0.728	728.5	incongruent	Block1	incongruent/STIM_012.jpg	99
252.787	1.111	1111.3	incongruent	Block1	incongruent/STIM_012.jpg	99
256.895	0.878	877.7	incongruent	Block1	incongruent/STIM_012.jpg	99
260.028	0.953	953.4	incongruent	Block1	incongruent/STIM_012.jpg	100
263.383	1.228	1227.8	incongruent	Block1	incongruent/STIM_013.jpg	99
267.884	1.27	1270.4	incongruent	Block1	incongruent/STIM_013.jpg	99
271.294	0.689	689.3	incongruent	Block1	incongruent/STIM_013.jpg	100
275.336	0.766	765.5	incongruent	Block1	incongruent/STIM_013.jpg	100
278.563	1.055	1055.0	incongruent	Block1	incongruent/STIM_013.jpg	100
283.282	0.841	840.9	incongruent	Block1	incongruent/STIM_014.jpg	100
287.118	0.685	684.8	incongruent	Block1	incongruent/STIM_014.jpg	100
291.417	0.688	687.7	incongruent	Block1	incongruent/STIM_014.jpg	99
295.592	0.742	742.2	incongruent	Block1	incongruent/STIM_014.jpg	100
299.421	0.641	641.3	incongruent	Block1	incongruent/STIM_014.jpg	99
302.234	1.314	1313.7	incongruent	Block1	incongruent/STIM_015.jpg	99
306.02	1.355	1354.6	incongruent	Block1	incongruent/STIM_015.jpg	100
310.523	1.299	1298.6	incongruent	Block1	incongruent/STIM_015.jpg	100
314.858	0.804	803.6	incongruent	Block1	incongruent/STIM_015.jpg	100
318.201	0.978	978.5	incongruent	Block1	incongruent/STIM_015.jpg	99
323.074	1.36	1359.9	incongruent	Block1	incongruent/STIM_016.jpg	100
326.984	0.683	682.8	incongruent	Block1	incongruent/STIM_016.jpg	100
331.476	0.766	766.2	incongruent	Block1	incongruent/STIM_016.jpg	100
336.055	0.869	868.9	incongruent	Block1	incongruent/STIM_016.jpg	100
339.492	1.098	1098.2	incongruent	Block1	incongruent/STIM_016.jpg	100
344.151	0.945	944.6	incongruent	Block1	incongruent/STIM_017.jpg	99
347.133	1.258	1258.2	incongruent	Block1	incongruent/STIM_017.jpg	99
350.824	0.89	890.3	incongruent	Block1	incongruent/STIM_017.jpg	99
355.666	0.866	866.5	incongruent	Block1	incongruent/STIM_017.jpg	99
358.795	0.565	564.8	incongruent	Block1	incongruent/STIM_017.jpg	99
361.919	1.228	1228.0	incongruent	Block1	incongruent/STIM_018.jpg	100
366.448	0.711	711.2	incongruent	Block1	incongruent/STIM_018.jpg	100
369.911	0.897	897.1	incongruent	Block1	incongruent/STIM_018.jpg	100
373.802	1.144	1144.3	incongruent	Block1	incongruent/STIM_018.jpg	99
377.033	0.781	781.4	incongruent	Block1	incongruent/STIM_018.jpg	99
380.8	0.886	885.6	incongruent	Block1	incongruent/STIM_019.jpg	100
385.37	0.963	962.6	incongruent	Block1	incongruent/STIM_019.jpg	99
388.346	0.814	814.5	incongruent	Block1	incongruent/STIM_019.jpg	99
392.419	0.817	817.4	incongruent	Block1	incongruent/STIM_019.jpg	99
396.12	1.061	1060.8	incongruent	Block1	incongruent/STIM_019.jpg	99
399.447	1.078	1077.8	incongruent	Block1	incongruent/STIM_020.jpg	100
403.354	0.657	657.4	incongruent	Block1	incongruent/STIM_020.jpg	99
407.744	1.279	1278.8	incongruent	Block1	incongruent/STIM_020.jpg	99
412.078	0.934	934.2	incongruent	Block1	incongruent/STIM_020.jpg	99
415.537	0.6	600.5	incongruent	Block1	incongruent/STIM_020.jpg	99
418.174	1.221	1220.6	incongruent	Block1	incongruent/STIM_021.jpg	100
423.359	0.799	799.2	incongruent	Block1	incongruent/STIM_021.jpg	100
426.929	1.059	1058.8	incongruent	Block1	incongruent/STIM_021.jpg	100
430.253	1.026	1026.1	incongruent	Block1	incongruent/STIM_021.jpg	99
434.357	0.702	701.6	incongruent	Block1	incongruent/STIM_021.jpg	99
438.492	0.743	743.4	incongruent	Block1	incongruent/STIM_022.jpg	99
442.231	0.946	946.5	incongruent	Block1	incongruent/STIM_022.jpg	100
446.213	0.824	824.5	incongruent	Block1	incongruent/STIM_022.jpg	99
449.498	0.894	893.5	incongruent	Block1	incongruent/STIM_022.jpg	100
454.039	1.132	1131.7	incongruent	Block1	incongruent/STIM_022.jpg	99
458.791	1.105	1105.3	incongruent	Block1	incongruent/STIM_023.jpg	100
463.058	1.282	1282.3	incongruent	Block1	incongruent/STIM_023.jpg	100
466.341	1.06	1059.5	incongruent	Block1	incongruent/STIM_023.jpg	100
471.061	0.722	722.1	incongruent	Block1	incongruent/STIM_023.jpg	100
475.611	1.152	1151.5	incongruent	Block1	incongruent/STIM_023.jpg	100
480.664	0.941	941.3	incongruent	Block1	incongruent/STIM_024.jpg	100
483.875	1.33	1330.0	incongruent	Block1	incongruent/STIM_024.jpg	100
488.278	0.8	800.1	incongruent	Block1	incongruent/STIM_024.jpg	100
492.851	0.765	764.6	incongruent	Block1	incongruent/STIM_024.jpg	99
496.723	1.102	1102.5	incongruent	Block1	incongruent/STIM_024.jpg	99
501.158	1.099	1099.1	incongruent	Block1	incongruent/STIM_025.jpg	100
504.943	1.032	1032.5	incongruent	Block1	incongruent/STIM_025.jpg	99
508.927	1.051	1051.0	incongruent	Block1	incongruent/STIM_025.jpg	99
512.662	1.148	1148.4	incongruent	Block1	incongruent/STIM_025.jpg	99
515.883	1.129	1128.9	incongruent	Block1	incongruent/STIM_025.jpg	100
520.606	1.346	1346.3	incongruent	Block1	incongruent/STIM_026.jpg	99
525.317	1.106	1105.9	incongruent	Block1	incongruent/STIM_026.jpg	99
529.012	0.819	818.6	incongruent	Block1	incongruent/STIM_026.jpg	100
533.0	0.824	823.6	incongruent	Block1	incongruent/STIM_026.jpg	99
536.805	0.784	784.0	incongruent	Block1	incongruent/STIM_026.jpg	99
540.942	1.373	1372.9	incongruent	Block1	incongruent/STIM_027.jpg	100
545.648	1.339	1339.3	incongruent	Block1	incongruent/STIM_027.jpg	99
550.829	0.836	835.6	incongruent	Block1	incongruent/STIM_027.jpg	99
554.527	0.795	795.0	incongruent	Block1	incongruent/STIM_027.jpg	99
558.042	1.122	1122.1	incongruent	Block1	incongruent/STIM_027.jpg	100
561.332	0.872	872.0	incongruent	Block1	incongruent/STIM_028.jpg	99
564.806	0.774	773.5	incongruent	Block1	incongruent/STIM_028.jpg	99
567.716	1.161	1161.1	incongruent	Block1	incongruent/STIM_028.jpg	99
571.88	0.984	984.4	incongruent	Block1	incongruent/STIM_028.jpg	99
575.223	0.888	888.1	incongruent	Block1	incongruent/STIM_028.jpg	99
580.068	1.251	1251.4	incongruent	Block1	incongruent/STIM_029.jpg	100
585.053	1.156	1155.8	incongruent	Block1	incongruent/STIM_029.jpg	100
589.078	0.76	759.9	incongruent	Block1	incongruent/STIM_029.jpg	100
593.774	0.583	583.4	incongruent	Block1	incongruent/STIM_029.jpg	100
597.724	0.588	588.3	incongruent	Block1	incongruent/STIM_029.jpg	100
600.47	0.495	495.1	congruent	Block1	congruent/STIM_000.jpg	100
603.058	0.661	660.6	congruent	Block1	congruent/STIM_000.jpg	99
606.248	0.492	491.6	congruent	Block1	congruent/STIM_000.jpg	99
608.752	0.551	551.1	congruent	Block1	congruent/STIM_000.jpg	99
612.493	0.515	515.4	congruent	Block1	congruent/STIM_000.jpg	99
616.775	0.622	622.1	congruent	Block1	congruent/STIM_001.jpg	99
619.74	0.622	622.3	congruent	Block1	congruent/STIM_001.jpg	99
623.293	0.819	818.6	congruent	Block1	congruent/STIM_001.jpg	99
627.611	0.5	499.7	congruent	Block1	congruent/STIM_001.jpg	99
630.605	0.862	862.0	congruent	Block1	congruent/STIM_001.jpg	99
633.953	0.658	658.4	congruent	Block1	congruent/STIM_002.jpg	99
637.738	0.516	515.7	congruent	Block1	congruent/STIM_002.jpg	99
642.068	0.812	811.6	congruent	Block1	congruent/STIM_002.jpg	99
645.946	0.716	715.5	congruent	Block1	congruent/STIM_002.jpg	99
648.936	0.641	641.4	congruent	Block1	congruent/STIM_002.jpg	99
651.96	0.672	671.8	congruent	Block1	congruent/STIM_003.jpg	100
655.131	0.752	752.2	congruent	Block1	congruent/STIM_003.jpg	100
659.278	0.832	832.4	congruent	Block1	congruent/STIM_003.jpg	99
662.3	0.709	708.7	congruent	Block1	congruent/STIM_003.jpg	100
666.906	0.788	788.2	congruent	Block1	congruent/STIM_003.jpg	99
670.395	0.521	520.7	congruent	Block1	congruent/STIM_004.jpg	99
673.191	0.519	518.7	congruent	Block1	congruent/STIM_004.jpg	99
676.824	0.781	780.6	congruent	Block1	congruent/STIM_004.jpg	100
680.56	0.656	656.0	congruent	Block1	congruent/STIM_004.jpg	100
684.59	0.565	564.9	congruent	Block1	congruent/STIM_004.jpg	100
687.417	0.868	867.9	congruent	Block1	congruent/STIM_005.jpg	100
691.358	0.849	849.4	congruent	Block1	congruent/STIM_005.jpg	100
695.689	0.67	669.8	congruent	Block1	congruent/STIM_005.jpg	99
699.158	0.51	509.9	congruent	Block1	congruent/STIM_005.jpg	100
703.645	0.598	598.2	congruent	Block1	congruent/STIM_005.jpg	99
707.784	0.725	724.9	congruent	Block1	congruent/STIM_006.jpg	100
712.098	0.826	826.0	congruent	Block1	congruent/STIM_006.jpg	100
714.938	0.845	845.4	congruent	Block1	congruent/STIM_006.jpg	100
719.513	0.738	737.9	congruent	Block1	congruent/STIM_006.jpg	100
723.536	0.506	505.9	congruent	Block1	congruent/STIM_006.jpg	100
726.635	0.552	552.3	congruent	Block1	congruent/STIM_007.jpg	100
729.255	0.659	658.9	congruent	Block1	congruent/STIM_007.jpg	100
733.137	0.508	507.9	congruent	Block1	congruent/STIM_007.jpg	99
736.875	0.529	529.0	congruent	Block1	congruent/STIM_007.jpg	99
741.036	0.725	724.7	congruent	Block1	congruent/STIM_007.jpg	100
744.936	0.613	613.3	congruent	Block1	congruent/STIM_008.jpg	100
748.293	0.489	489.3	congruent	Block1	congruent/STIM_008.jpg	100
752.707	0.56	560.0	congruent	Block1	congruent/STIM_008.jpg	99
756.756	0.548	548.1	congruent	Block1	congruent/STIM_008.jpg	99
760.894	0.808	808.2	congruent	Block1	congruent/STIM_008.jpg	99
765.157	0.782	782.3	congruent	Block1	congruent/STIM_009.jpg	99
768.936	0.654	653.8	congruent	Block1	congruent/STIM_009.jpg	100
773.435	0.781	781.3	congruent	Block1	congruent/STIM_009.jpg	100
776.856	0.488	487.6	congruent	Block1	congruent/STIM_009.jpg	100
780.677	0.627	627.3	congruent	Block1	congruent/STIM_009.jpg	99
784.108	0.497	497.3	congruent	Block1	congruent/STIM_010.jpg	99
788.071	0.776	775.8	congruent	Block1	congruent/STIM_010.jpg	99
791.924	0.688	687.6	congruent	Block1	congruent/STIM_010.jpg	100
795.494	0.811	811.4	congruent	Block1	congruent/STIM_010.jpg	100
798.614	0.552	551.5	congruent	Block1	congruent/STIM_010.jpg	100
801.757	0.551	550.9	congruent	Block1	congruent/STIM_011.jpg	99
805.048	0.816	815.9	congruent	Block1	congruent/STIM_011.jpg	99
809.765	0.776	776.3	congruent	Block1	congruent/STIM_011.jpg	99
814.118	0.834	834.3	congruent	Block1	congruent/STIM_011.jpg	99
817.376	0.586	586.3	congruent	Block1	congruent/STIM_011.jpg	100
820.609	0.698	697.5	congruent	Block1	congruent/STIM_012.jpg	99
824.55	0.832	831.8	congruent	Block1	congruent/STIM_012.jpg	100
828.933	0.666	666.1	congruent	Block1	congruent/STIM_012.jpg	99
831.72	0.681	681.3	congruent	Block1	congruent/STIM_012.jpg	99
835.416	0.785	785.3	congruent	Block1	congruent/STIM_012.jpg	100
839.76	0.853	852.7	congruent	Block1	congruent/STIM_013.jpg	99
843.498	0.695	695.3	congruent	Block1	congruent/STIM_013.jpg	100
846.99	0.501	501.0	congruent	Block1	congruent/STIM_013.jpg	100
850.863	0.73	730.0	congruent	Block1	congruent/STIM_013.jpg	100
854.042	0.699	698.7	congruent	Block1	congruent/STIM_013.jpg	99
857.493	0.607	606.8	congruent	Block1	congruent/STIM_014.jpg	100
861.839	0.522	522.1	congruent	Block1	congruent/STIM_014.jpg	100
864.699	0.828	828.0	congruent	Block1	congruent/STIM_014.jpg	99
867.93	0.791	790.8	congruent	Block1	congruent/STIM_014.jpg	99
872.308	0.85	849.5	congruent	Block1	congruent/STIM_014.jpg	99
876.516	0.745	744.7	congruent	Block1	congruent/STIM_015.jpg	100
879.538	0.649	649.2	congruent	Block1	congruent/STIM_015.jpg	100
884.174	0.678	678.1	congruent	Block1	congruent/STIM_015.jpg	100
888.824	0.753	753.2	congruent	Block1	congruent/STIM_015.jpg	100
892.93	0.642	641.8	congruent	Block1	congruent/STIM_015.jpg	100
897.113	0.713	712.6	congruent	Block1	congruent/STIM_016.jpg	100
901.239	0.848	848.0	congruent	Block1	congruent/STIM_016.jpg	100
905.305	0.734	733.8	congruent	Block1	congruent/STIM_016.jpg	99
909.679	0.7	699.5	congruent	Block1	congruent/STIM_016.jpg	99
912.967	0.598	598.1	congruent	Block1	congruent/STIM_016.jpg	99
916.883	0.521	521.2	congruent	Block1	congruent/STIM_017.jpg	99
920.286	0.56	560.0	congruent	Block1	congruent/STIM_017.jpg	100
924.708	0.855	854.8	congruent	Block1	congruent/STIM_017.jpg	100
928.65	0.501	501.3	congruent	Block1	congruent/STIM_017.jpg	100
932.089	0.731	730.9	congruent	Block1	congruent/STIM_017.jpg	100
936.322	0.505	505.4	congruent	Block1	congruent/STIM_018.jpg	100
939.271	0.6	600.4	congruent	Block1	congruent/STIM_018.jpg	99
942.839	0.772	772.4	congruent	Block1	congruent/STIM_018.jpg	100
945.883	0.513	512.9	congruent	Block1	congruent/STIM_018.jpg	100
949.725	0.637	636.9	congruent	Block1	congruent/STIM_018.jpg	100
953.979	0.72	720.0	congruent	Block1	congruent/STIM_019.jpg	99
956.924	0.701	700.7	congruent	Block1	congruent/STIM_019.jpg	100
960.391	0.782	782.3	congruent	Block1	congruent/STIM_019.jpg	99
963.738	0.855	855.4	congruent	Block1	congruent/STIM_019.jpg	100
968.3	0.526	526.0	congruent	Block1	congruent/STIM_019.jpg	99
972.563	0.515	514.6	congruent	Block1	congruent/STIM_020.jpg	100
975.324	0.661	660.6	congruent	Block1	congruent/STIM_020.jpg	100
978.268	0.507	506.6	congruent	Block1	congruent/STIM_020.jpg	100
981.12	0.848	848.4	congruent	Block1	congruent/STIM_020.jpg	99
985.07	0.601	600.9	congruent	Block1	congruent/STIM_020.jpg	99
989.365	0.65	650.5	congruent	Block1	congruent/STIM_021.jpg	100
992.488	0.639	638.8	congruent	Block1	congruent/STIM_021.jpg	100
996.889	0.809	808.8	congruent	Block1	congruent/STIM_021.jpg	99
999.738	0.678	677.9	congruent	Block1	congruent/STIM_021.jpg	99
1002.495	0.584	584.1	congruent	Block1	congruent/STIM_021.jpg	100
1006.724	0.678	678.0	congruent	Block1	congruent/STIM_022.jpg	99
1010.552	0.761	760.6	congruent	Block1	congruent/STIM_022.jpg	99
1015.259	0.733	732.9	congruent	Block1	congruent/STIM_022.jpg	99
1019.842	0.648	647.5	congruent	Block1	congruent/STIM_022.jpg	99
1023.856	0.769	768.8	congruent	Block1	congruent/STIM_022.jpg	99
1027.411	0.848	848.5	congruent	Block1	congruent/STIM_023.jpg	99
1031.244	0.533	533.4	congruent	Block1	congruent/STIM_023.jpg	100
1034.819	0.699	698.9	congruent	Block1	congruent/STIM_023.jpg	99
1038.823	0.515	514.7	congruent	Block1	congruent/STIM_023.jpg	99
1042.918	0.52	519.9	congruent	Block1	congruent/STIM_023.jpg	100
1047.243	0.802	801.6	congruent	Block1	congruent/STIM_024.jpg	99
1051.44	0.532	532.4	congruent	Block1	congruent/STIM_024.jpg	100
1055.053	0.543	543.2	congruent	Block1	congruent/STIM_024.jpg	100
1058.046	0.798	797.9	congruent	Block1	congruent/STIM_024.jpg	100
1060.854	0.51	509.7	congruent	Block1	congruent/STIM_024.jpg	100
1065.125	0.582	581.5	congruent	Block1	congruent/STIM_025.jpg	100
1069.166	0.758	758.1	congruent	Block1	congruent/STIM_025.jpg	99
1072.333	0.503	503.3	congruent	Block1	congruent/STIM_025.jpg	100
1076.027	0.639	638.7	congruent	Block1	congruent/STIM_025.jpg	100
1080.532	0.85	849.6	congruent	Block1	congruent/STIM_025.jpg	99
1083.875	0.61	609.5	congruent	Block1	congruent/STIM_026.jpg	100
1086.83	0.605	605.4	congruent	Block1	congruent/STIM_026.jpg	100
1089.946	0.66	660.4	congruent	Block1	congruent/STIM_026.jpg	100
1092.984	0.77	770.5	congruent	Block1	congruent/STIM_026.jpg	99
1097.068	0.588	588.0	congruent	Block1	congruent/STIM_026.jpg	100
1100.825	0.518	517.5	congruent	Block1	congruent/STIM_027.jpg	100
1105.23	0.489	488.6	congruent	Block1	congruent/STIM_027.jpg	99
1109.431	0.618	618.0	congruent	Block1	congruent/STIM_027.jpg	99
1112.445	0.684	684.3	congruent	Block1	congruent/STIM_027.jpg	100
1116.752	0.65	650.3	congruent	Block1	congruent/STIM_027.jpg	100
1119.44	0.544	544.4	congruent	Block1	congruent/STIM_028.jpg	100
1122.744	0.794	794.4	congruent	Block1	congruent/STIM_028.jpg	100
1125.716	0.739	738.9	congruent	Block1	congruent/STIM_028.jpg	99
1130.395	0.486	486.1	congruent	Block1	congruent/STIM_028.jpg	99
1132.983	0.74	739.7	congruent	Block1	congruent/STIM_028.jpg	99
1137.282	0.638	638.5	congruent	Block1	congruent/STIM_029.jpg	100
1141.228	0.786	785.8	congruent	Block1	congruent/STIM_029.jpg	100
1145.351	0.737	737.3	congruent	Block1	congruent/STIM_029.jpg	100
1148.469	0.609	609.2	congruent	Block1	congruent/STIM_029.jpg	99
1151.878	0.618	618.4	congruent	Block1	congruent/STIM_029.jpg	99
1156.397	0.863	863.4	incongruent	Block2	incongruent/STIM_000.jpg	100
1159.782	0.638	638.0	incongruent	Block2	incongruent/STIM_000.jpg	100
1164.075	0.581	581.2	incongruent	Block2	incongruent/STIM_000.jpg	100
1166.7	0.685	684.6	incongruent	Block2	incongruent/STIM_000.jpg	100
1170.865	0.916	915.7	incongruent	Block2	incongruent/STIM_000.jpg	99
1174.935	0.636	636.0	incongruent	Block2	incongruent/STIM_001.jpg	99
1178.04	0.892	892.1	incongruent	Block2	incongruent/STIM_001.jpg	99
1182.079	0.894	893.5	incongruent	Block2	incongruent/STIM_001.jpg	99
1186.007	0.877	876.7	incongruent	Block2	incongruent/STIM_001.jpg	99
1189.401	0.509	509.1	incongruent	Block2	incongruent/STIM_001.jpg	100
1192.737	0.761	761.0	incongruent	Block2	incongruent/STIM_002.jpg	100
1197.046	0.736	735.5	incongruent	Block2	incongruent/STIM_002.jpg	100
1200.368	0.952	952.0	incongruent	Block2	incongruent/STIM_002.jpg	99
1205.238	0.777	777.2	incongruent	Block2	incongruent/STIM_002.jpg	100
1209.863	0.5	499.7	incongruent	Block2	incongruent/STIM_002.jpg	99
1213.119	0.728	727.7	incongruent	Block2	incongruent/STIM_003.jpg	99
1217.664	0.927	926.6	incongruent	Block2	incongruent/STIM_003.jpg	99
1220.835	0.555	555.4	incongruent	Block2	incongruent/STIM_003.jpg	99
1225.201	0.854	854.5	incongruent	Block2	incongruent/STIM_003.jpg	100
1228.501	0.626	626.4	incongruent	Block2	incongruent/STIM_003.jpg	99
1232.898	1.079	1079.4	incongruent	Block2	incongruent/STIM_004.jpg	100
1237.54	1.157	1157.2	incongruent	Block2	incongruent/STIM_004.jpg	100
1241.391	1.047	1046.9	incongruent	Block2	incongruent/STIM_004.jpg	100
1245.838	0.89	890.3	incongruent	Block2	incongruent/STIM_004.jpg	99
1248.748	0.698	697.5	incongruent	Block2	incongruent/STIM_004.jpg	100
1253.424	0.701	700.7	incongruent	Block2	incongruent/STIM_005.jpg	99
1256.726	1.027	1027.3	incongruent	Block2	incongruent/STIM_005.jpg	99
1260.435	0.917	917.1	incongruent	Block2	incongruent/STIM_005.jpg	99
1265.105	0.672	671.5	incongruent	Block2	incongruent/STIM_005.jpg	100
1269.763	0.946	946.2	incongruent	Block2	incongruent/STIM_005.jpg	99
1272.851	0.932	932.2	incongruent	Block2	incongruent/STIM_006.jpg	99
1276.991	0.632	631.7	incongruent	Block2	incongruent/STIM_006.jpg	100
1280.761	0.989	989.3	incongruent	Block2	incongruent/STIM_006.jpg	100
1284.986	0.563	562.8	incongruent	Block2	incongruent/STIM_006.jpg	100
1288.956	0.646	645.5	incongruent	Block2	incongruent/STIM_006.jpg	99
1292.892	0.85	850.1	incongruent	Block2	incongruent/STIM_007.jpg	100
1296.065	0.817	817.2	incongruent	Block2	incongruent/STIM_007.jpg	100
1299.142	0.781	780.9	incongruent	Block2	incongruent/STIM_007.jpg	100
1302.137	0.89	890.1	incongruent	Block2	incongruent/STIM_007.jpg	99
1306.873	0.734	734.5	incongruent	Block2	incongruent/STIM_007.jpg	99
1310.634	0.61	609.5	incongruent	Block2	incongruent/STIM_008.jpg	99
1313.288	1.085	1085.4	incongruent	Block2	incongruent/STIM_008.jpg	99
1317.725	0.968	968.0	incongruent	Block2	incongruent/STIM_008.jpg	99
1320.848	0.538	538.3	incongruent	Block2	incongruent/STIM_008.jpg	99
1325.33	0.564	564.0	incongruent	Block2	incongruent/STIM_008.jpg	100
1329.782	0.995	994.8	incongruent	Block2	incongruent/STIM_009.jpg	100
1334.421	0.893	892.7	incongruent	Block2	incongruent/STIM_009.jpg	100
1339.27	0.931	930.7	incongruent	Block2	incongruent/STIM_009.jpg	100
1342.412	0.73	729.8	incongruent	Block2	incongruent/STIM_009.jpg	99
1347.0	0.793	792.7	incongruent	Block2	incongruent/STIM_009.jpg	99
1351.748	0.933	932.8	incongruent	Block2	incongruent/STIM_010.jpg	100
1354.913	0.891	890.8	incongruent	Block2	incongruent/STIM_010.jpg	100
1358.843	0.539	539.3	incongruent	Block2	incongruent/STIM_010.jpg	99
1362.074	0.482	482.5	incongruent	Block2	incongruent/STIM_010.jpg	100
1366.464	0.779	779.1	incongruent	Block2	incongruent/STIM_010.jpg	100
1369.349	1.09	1090.5	incongruent	Block2	incongruent/STIM_011.jpg	100
1373.565	1.045	1045.1	incongruent	Block2	incongruent/STIM_011.jpg	100
1378.272	1.035	1035.0	incongruent	Block2	incongruent/STIM_011.jpg	100
1382.236	0.492	492.2	incongruent	Block2	incongruent/STIM_011.jpg	100
1386.398	0.504	504.2	incongruent	Block2	incongruent/STIM_011.jpg	100
1389.45	0.802	801.8	incongruent	Block2	incongruent/STIM_012.jpg	99
1392.352	0.691	690.6	incongruent	Block2	incongruent/STIM_012.jpg	100
1395.299	0.611	611.4	incongruent	Block2	incongruent/STIM_012.jpg	99
1399.249	0.767	767.1	incongruent	Block2	incongruent/STIM_012.jpg	99
1403.141	0.641	641.1	incongruent	Block2	incongruent/STIM_012.jpg	100
1405.973	1.116	1116.1	incongruent	Block2	incongruent/STIM_013.jpg	99
1410.234	0.633	633.4	incongruent	Block2	incongruent/STIM_013.jpg	99
1413.112	0.998	998.0	incongruent	Block2	incongruent/STIM_013.jpg	100
1417.221	0.652	651.7	incongruent	Block2	incongruent/STIM_013.jpg	100
1421.663	0.547	547.2	incongruent	Block2	incongruent/STIM_013.jpg	100
1425.047	0.603	602.6	incongruent	Block2	incongruent/STIM_014.jpg	100
1428.113	0.841	841.1	incongruent	Block2	incongruent/STIM_014.jpg	99
1431.153	0.633	632.6	incongruent	Block2	incongruent/STIM_014.jpg	99
1434.187	0.62	620.5	incongruent	Block2	incongruent/STIM_014.jpg	99
1437.604	0.719	718.6	incongruent	Block2	incongruent/STIM_014.jpg	100
1441.852	0.854	853.7	incongruent	Block2	incongruent/STIM_015.jpg	100
1444.941	0.958	958.2	incongruent	Block2	incongruent/STIM_015.jpg	99
1448.134	1.042	1042.4	incongruent	Block2	incongruent/STIM_015.jpg	100
1451.898	0.878	877.9	incongruent	Block2	incongruent/STIM_015.jpg	99
1456.091	0.975	975.1	incongruent	Block2	incongruent/STIM_015.jpg	99
1459.751	0.735	735.1	incongruent	Block2	incongruent/STIM_016.jpg	100
1462.774	1.131	1131.3	incongruent	Block2	incongruent/STIM_016.jpg	99
1466.043	0.574	574.4	incongruent	Block2	incongruent/STIM_016.jpg	100
1470.35	0.75	750.2	incongruent	Block2	incongruent/STIM_016.jpg	100
1474.974	0.526	526.3	incongruent	Block2	incongruent/STIM_016.jpg	99
1478.068	1.225	1225.2	incongruent	Block2	incongruent/STIM_017.jpg	100
1481.706	1.028	1027.9	incongruent	Block2	incongruent/STIM_017.jpg	100
1485.861	0.851	851.0	incongruent	Block2	incongruent/STIM_017.jpg	99
1490.34	0.515	514.7	incongruent	Block2	incongruent/STIM_017.jpg	100
1493.537	0.834	833.5	incongruent	Block2	incongruent/STIM_017.jpg	99
1497.601	0.933	933.4	incongruent	Block2	incongruent/STIM_018.jpg	99
1501.114	0.614	614.5	incongruent	Block2	incongruent/STIM_018.jpg	100
1505.219	0.756	755.7	incongruent	Block2	incongruent/STIM_018.jpg	100
1509.188	0.977	977.4	incongruent	Block2	incongruent/STIM_018.jpg	100
1513.593	0.774	773.7	incongruent	Block2	incongruent/STIM_018.jpg	100
1517.02	0.647	647.1	incongruent	Block2	incongruent/STIM_019.jpg	99
1521.337	0.736	736.1	incongruent	Block2	incongruent/STIM_019.jpg	100
1524.585	0.801	801.2	incongruent	Block2	incongruent/STIM_019.jpg	100
1529.342	1.005	1004.9	incongruent	Block2	incongruent/STIM_019.jpg	99
1533.368	0.53	529.5	incongruent	Block2	incongruent/STIM_019.jpg	100
1536.702	0.978	977.9	incongruent	Block2	incongruent/STIM_020.jpg	99
1541.595	0.85	849.9	incongruent	Block2	incongruent/STIM_020.jpg	100
1544.873	0.982	982.3	incongruent	Block2	incongruent/STIM_020.jpg	99
1549.257	0.929	929.3	incongruent	Block2	incongruent/STIM_020.jpg	99
1552.761	0.642	642.1	incongruent	Block2	incongruent/STIM_020.jpg	100
1556.136	1.227	1227.1	incongruent	Block2	incongruent/STIM_021.jpg	100
1560.579	0.934	934.0	incongruent	Block2	incongruent/STIM_021.jpg	99
1563.755	0.54	539.9	incongruent	Block2	incongruent/STIM_021.jpg	100
1567.853	0.681	681.0	incongruent	Block2	incongruent/STIM_021.jpg	99
1571.063	0.904	903.6	incongruent	Block2	incongruent/STIM_021.jpg	99
1575.329	0.792	792.5	incongruent	Block2	incongruent/STIM_022.jpg	100
1578.249	0.749	748.6	incongruent	Block2	incongruent/STIM_022.jpg	100
1582.515	1.024	1023.7	incongruent	Block2	incongruent/STIM_022.jpg	99
1585.931	0.543	543.1	incongruent	Block2	incongruent/STIM_022.jpg	100
1590.339	0.558	558.1	incongruent	Block2	incongruent/STIM_022.jpg	100
1592.96	0.6	600.4	incongruent	Block2	incongruent/STIM_023.jpg	99
1597.28	0.933	932.9	incongruent	Block2	incongruent/STIM_023.jpg	99
1601.886	0.778	777.8	incongruent	Block2	incongruent/STIM_023.jpg	99
1606.481	0.727	727.2	incongruent	Block2	incongruent/STIM_023.jpg	99
1609.244	0.584	583.8	incongruent	Block2	incongruent/STIM_023.jpg	100
1612.919	0.8	800.4	incongruent	Block2	incongruent/STIM_024.jpg	99
1615.845	0.657	657.3	incongruent	Block2	incongruent/STIM_024.jpg	100
1619.438	0.718	717.8	incongruent	Block2	incongruent/STIM_024.jpg	99
1623.009	0.839	839.0	incongruent	Block2	incongruent/STIM_024.jpg	99
1626.524	0.754	753.6	incongruent	Block2	incongruent/STIM_024.jpg	99
1631.211	1.008	1007.9	incongruent	Block2	incongruent/STIM_025.jpg	100
1634.494	0.94	940.5	incongruent	Block2	incongruent/STIM_025.jpg	99
1638.696	0.98	980.2	incongruent	Block2	incongruent/STIM_025.jpg	99
1642.963	0.593	593.4	incongruent	Block2	incongruent/STIM_025.jpg	99
1647.16	0.786	786.2	incongruent	Block2	incongruent/STIM_025.jpg	100
1651.924	0.793	792.8	incongruent	Block2	incongruent/STIM_026.jpg	99
1655.171	0.567	567.0	incongruent	Block2	incongruent/STIM_026.jpg	100
1658.793	0.828	828.4	incongruent	Block2	incongruent/STIM_026.jpg	99
1662.935	0.785	784.9	incongruent	Block2	incongruent/STIM_026.jpg	99
1666.862	0.686	686.4	incongruent	Block2	incongruent/STIM_026.jpg	99
1670.773	1.149	1149.2	incongruent	Block2	incongruent/STIM_027.jpg	100
1674.559	0.86	859.9	incongruent	Block2	incongruent/STIM_027.jpg	99
1678.573	1.032	1032.3	incongruent	Block2	incongruent/STIM_027.jpg	100
1683.345	0.689	689.2	incongruent	Block2	incongruent/STIM_027.jpg	100
1686.769	0.558	558.5	incongruent	Block2	incongruent/STIM_027.jpg	99
1689.627	0.954	954.1	incongruent	Block2	incongruent/STIM_028.jpg	100
1694.293	1.041	1041.0	incongruent	Block2	incongruent/STIM_028.jpg	99
1698.94	0.819	819.2	incongruent	Block2	incongruent/STIM_028.jpg	100
1701.951	0.624	624.3	incongruent	Block2	incongruent/STIM_028.jpg	100
1706.445	0.673	673.1	incongruent	Block2	incongruent/STIM_028.jpg	100
1709.82	0.823	823.2	incongruent	Block2	incongruent/STIM_029.jpg	99
1712.652	0.55	549.9	incongruent	Block2	incongruent/STIM_029.jpg	99
1715.906	0.905	905.0	incongruent	Block2	incongruent/STIM_029.jpg	100
1719.113	0.714	714.3	incongruent	Block2	incongruent/STIM_029.jpg	99
1722.139	0.65	649.8	incongruent	Block2	incongruent/STIM_029.jpg	100
1725.243	0.649	649.1	congruent	Block2	congruent/STIM_000.jpg	99
1729.852	0.512	511.8	congruent	Block2	congruent/STIM_000.jpg	99
1733.203	0.814	814.0	congruent	Block2	congruent/STIM_000.jpg	100
1737.248	0.574	574.2	congruent	Block2	congruent/STIM_000.jpg	99
1741.694	0.677	677.3	congruent	Block2	congruent/STIM_000.jpg	100
1744.538	0.699	699.2	congruent	Block2	congruent/STIM_001.jpg	100
1747.673	0.628	628.3	congruent	Block2	congruent/STIM_001.jpg	100
1750.334	0.627	627.3	congruent	Block2	congruent/STIM_001.jpg	99
1754.618	0.513	513.1	congruent	Block2	congruent/STIM_001.jpg	100
1758.038	0.507	506.8	congruent	Block2	congruent/STIM_001.jpg	100
1762.378	0.862	861.5	congruent	Block2	congruent/STIM_002.jpg	99
1767.213	0.719	719.0	congruent	Block2	congruent/STIM_002.jpg	100
1771.032	0.525	525.0	congruent	Block2	congruent/STIM_002.jpg	100
1774.04	0.66	660.0	congruent	Block2	congruent/STIM_002.jpg	99
1778.398	0.492	491.6	congruent	Block2	congruent/STIM_002.jpg	100
1781.013	0.69	689.8	congruent	Block2	congruent/STIM_003.jpg	99
1785.18	0.611	610.7	congruent	Block2	congruent/STIM_003.jpg	99
1788.568	0.814	813.9	congruent	Block2	congruent/STIM_003.jpg	100
1791.635	0.633	633.1	congruent	Block2	congruent/STIM_003.jpg	100
1794.38	0.499	499.3	congruent	Block2	congruent/STIM_003.jpg	99
1798.32	0.694	694.0	congruent	Block2	congruent/STIM_004.jpg	100
1802.586	0.627	627.1	congruent	Block2	congruent/STIM_004.jpg	99
1806.821	0.753	752.8	congruent	Block2	congruent/STIM_004.jpg	100
1811.236	0.534	534.2	congruent	Block2	congruent/STIM_004.jpg	99
1813.863	0.631	630.9	congruent	Block2	congruent/STIM_004.jpg	99
1817.228	0.616	616.2	congruent	Block2	congruent/STIM_005.jpg	100
1820.556	0.549	548.8	congruent	Block2	congruent/STIM_005.jpg	99
1823.283	0.843	843.4	congruent	Block2	congruent/STIM_005.jpg	99
1827.719	0.843	842.7	congruent	Block2	congruent/STIM_005.jpg	100
1831.636	0.505	505.0	congruent	Block2	congruent/STIM_005.jpg	100
1835.095	0.783	783.1	congruent	Block2	congruent/STIM_006.jpg	99
1839.544	0.791	790.8	congruent	Block2	congruent/STIM_006.jpg	99
1843.903	0.766	766.4	congruent	Block2	congruent/STIM_006.jpg	100
1847.952	0.86	859.9	congruent	Block2	congruent/STIM_006.jpg	99
1851.777	0.485	485.0	congruent	Block2	congruent/STIM_006.jpg	100
1855.0	0.487	487.3	congruent	Block2	congruent/STIM_007.jpg	100
1857.737	0.797	797.0	congruent	Block2	congruent/STIM_007.jpg	99
1862.013	0.689	689.0	congruent	Block2	congruent/STIM_007.jpg	99
1864.897	0.83	830.4	congruent	Block2	congruent/STIM_007.jpg	100
1868.888	0.748	747.6	congruent	Block2	congruent/STIM_007.jpg	99
1873.005	0.595	594.7	congruent	Block2	congruent/STIM_008.jpg	99
1877.459	0.513	513.4	congruent	Block2	congruent/STIM_008.jpg	99
1880.513	0.817	817.3	congruent	Block2	congruent/STIM_008.jpg	99
1884.411	0.865	865.4	congruent	Block2	congruent/STIM_008.jpg	100
1888.436	0.684	683.5	congruent	Block2	congruent/STIM_008.jpg	99
1892.197	0.558	558.0	congruent	Block2	congruent/STIM_009.jpg	99
1896.375	0.678	677.6	congruent	Block2	congruent/STIM_009.jpg	99
1900.726	0.617	617.2	congruent	Block2	congruent/STIM_009.jpg	99
1904.358	0.623	622.6	congruent	Block2	congruent/STIM_009.jpg	99
1907.995	0.538	538.0	congruent	Block2	congruent/STIM_009.jpg	100
1911.093	0.761	761.4	congruent	Block2	congruent/STIM_010.jpg	99
1914.303	0.716	715.5	congruent	Block2	congruent/STIM_010.jpg	100
1918.267	0.714	713.9	congruent	Block2	congruent/STIM_010.jpg	99
1921.555	0.728	728.0	congruent	Block2	congruent/STIM_010.jpg	100
1925.55	0.751	751.1	congruent	Block2	congruent/STIM_010.jpg	99
1929.81	0.509	508.8	congruent	Block2	congruent/STIM_011.jpg	99
1932.658	0.787	786.9	congruent	Block2	congruent/STIM_011.jpg	99
1935.873	0.638	637.7	congruent	Block2	congruent/STIM_011.jpg	99
1940.306	0.69	690.2	congruent	Block2	congruent/STIM_011.jpg	100
1944.61	0.514	513.8	congruent	Block2	congruent/STIM_011.jpg	100
1947.355	0.639	639.1	congruent	Block2	congruent/STIM_012.jpg	99
1951.828	0.641	640.7	congruent	Block2	congruent/STIM_012.jpg	100
1956.338	0.784	783.6	congruent	Block2	congruent/STIM_012.jpg	99
1960.921	0.826	825.6	congruent	Block2	congruent/STIM_012.jpg	99
1964.348	0.509	508.6	congruent	Block2	congruent/STIM_012.jpg	100
1967.043	0.531	531.3	congruent	Block2	congruent/STIM_013.jpg	99
1970.849	0.833	832.8	congruent	Block2	congruent/STIM_013.jpg	100
1974.035	0.489	488.8	congruent	Block2	congruent/STIM_013.jpg	99
1977.521	0.865	865.2	congruent	Block2	congruent/STIM_013.jpg	100
1981.886	0.665	665.3	congruent	Block2	congruent/STIM_013.jpg	100
1985.341	0.856	856.0	congruent	Block2	congruent/STIM_014.jpg	100
1990.053	0.852	851.9	congruent	Block2	congruent/STIM_014.jpg	100
1994.319	0.568	567.9	congruent	Block2	congruent/STIM_014.jpg	99
1998.733	0.795	794.9	congruent	Block2	congruent/STIM_014.jpg	99
2001.906	0.865	865.0	congruent	Block2	congruent/STIM_014.jpg	100
2005.616	0.581	581.1	congruent	Block2	congruent/STIM_015.jpg	100
2009.282	0.77	770.0	congruent	Block2	congruent/STIM_015.jpg	100
2012.683	0.504	503.6	congruent	Block2	congruent/STIM_015.jpg	100
2016.218	0.76	760.0	congruent	Block2	congruent/STIM_015.jpg	100
2020.522	0.82	819.9	congruent	Block2	congruent/STIM_015.jpg	100
2023.696	0.598	597.5	congruent	Block2	congruent/STIM_016.jpg	100
2027.352	0.734	733.7	congruent	Block2	congruent/STIM_016.jpg	100
2030.661	0.596	596.3	congruent	Block2	congruent/STIM_016.jpg	100
2034.817	0.537	536.6	congruent	Block2	congruent/STIM_016.jpg	99
2039.057	0.731	731.0	congruent	Block2	congruent/STIM_016.jpg	99
2043.593	0.776	775.5	congruent	Block2	congruent/STIM_017.jpg	100
2048.277	0.753	753.3	congruent	Block2	congruent/STIM_017.jpg	100
2052.059	0.713	712.8	congruent	Block2	congruent/STIM_017.jpg	100
2056.671	0.746	746.4	congruent	Block2	congruent/STIM_017.jpg	100
2059.981	0.712	711.9	congruent	Block2	congruent/STIM_017.jpg	100
2063.712	0.615	614.6	congruent	Block2	congruent/STIM_018.jpg	100
2066.968	0.503	503.3	congruent	Block2	congruent/STIM_018.jpg	100
2071.134	0.824	823.7	congruent	Block2	congruent/STIM_018.jpg	100
2074.447	0.565	565.1	congruent	Block2	congruent/STIM_018.jpg	99
2078.486	0.486	485.8	congruent	Block2	congruent/STIM_018.jpg	99
2080.975	0.504	503.9	congruent	Block2	congruent/STIM_019.jpg	99
2085.043	0.502	502.1	congruent	Block2	congruent/STIM_019.jpg	99
2089.238	0.644	643.7	congruent	Block2	congruent/STIM_019.jpg	100
2093.075	0.782	782.4	congruent	Block2	congruent/STIM_019.jpg	99
2097.033	0.66	660.2	congruent	Block2	congruent/STIM_019.jpg	100
2101.609	0.564	564.5	congruent	Block2	congruent/STIM_020.jpg	99
2105.89	0.841	840.7	congruent	Block2	congruent/STIM_020.jpg	99
2109.569	0.854	853.9	congruent	Block2	congruent/STIM_020.jpg	100
2113.846	0.643	643.2	congruent	Block2	congruent/STIM_020.jpg	99
2118.191	0.509	508.6	congruent	Block2	congruent/STIM_020.jpg	99
2121.893	0.753	753.1	congruent	Block2	congruent/STIM_021.jpg	99
2124.801	0.565	564.7	congruent	Block2	congruent/STIM_021.jpg	100
2127.469	0.858	858.1	congruent	Block2	congruent/STIM_021.jpg	99
2131.759	0.755	755.2	congruent	Block2	congruent/STIM_021.jpg	99
2136.242	0.681	680.6	congruent	Block2	congruent/STIM_021.jpg	100
2139.947	0.56	560.1	congruent	Block2	congruent/STIM_022.jpg	100
2142.824	0.826	826.0	congruent	Block2	congruent/STIM_022.jpg	100
2146.446	0.838	837.8	congruent	Block2	congruent/STIM_022.jpg	99
2150.412	0.825	824.7	congruent	Block2	congruent/STIM_022.jpg	99
2153.435	0.629	629.3	congruent	Block2	congruent/STIM_022.jpg	99
2156.213	0.663	663.0	congruent	Block2	congruent/STIM_023.jpg	99
2159.077	0.804	803.8	congruent	Block2	congruent/STIM_023.jpg	99
2162.074	0.771	771.4	congruent	Block2	congruent/STIM_023.jpg	99
2166.125	0.773	772.6	congruent	Block2	congruent/STIM_023.jpg	99
2169.347	0.72	719.7	congruent	Block2	congruent/STIM_023.jpg	100
2173.672	0.616	615.8	congruent	Block2	congruent/STIM_024.jpg	99
2176.548	0.508	508.0	congruent	Block2	congruent/STIM_024.jpg	99
2179.505	0.836	836.4	congruent	Block2	congruent/STIM_024.jpg	99
2182.91	0.779	778.8	congruent	Block2	congruent/STIM_024.jpg	100
2186.483	0.586	586.0	congruent	Block2	congruent/STIM_024.jpg	99
2190.211	0.702	701.9	congruent	Block2	congruent/STIM_025.jpg	99
2193.784	0.658	657.8	congruent	Block2	congruent/STIM_025.jpg	99
2198.067	0.841	840.9	congruent	Block2	congruent/STIM_025.jpg	99
2201.003	0.858	858.1	congruent	Block2	congruent/STIM_025.jpg	99
2205.393	0.688	687.5	congruent	Block2	congruent/STIM_025.jpg	99
2208.919	0.61	609.9	congruent	Block2	congruent/STIM_026.jpg	99
2212.169	0.833	833.4	congruent	Block2	congruent/STIM_026.jpg	100
2215.995	0.669	668.6	congruent	Block2	congruent/STIM_026.jpg	99
2220.133	0.556	556.5	congruent	Block2	congruent/STIM_026.jpg	100
2223.618	0.843	843.2	congruent	Block2	congruent/STIM_026.jpg	99
2228.152	0.562	561.7	congruent	Block2	congruent/STIM_027.jpg	100
2231.167	0.531	531.0	congruent	Block2	congruent/STIM_027.jpg	100
2235.287	0.773	773.0	congruent	Block2	congruent/STIM_027.jpg	99
2238.291	0.727	727.0	congruent	Block2	congruent/STIM_027.jpg	99
2241.961	0.567	567.2	congruent	Block2	congruent/STIM_027.jpg	100
2244.863	0.854	854.2	congruent	Block2	congruent/STIM_028.jpg	99
2248.064	0.563	563.1	congruent	Block2	congruent/STIM_028.jpg	100
2250.691	0.636	635.5	congruent	Block2	congruent/STIM_028.jpg	100
2255.163	0.486	485.8	congruent	Block2	congruent/STIM_028.jpg	99
2258.759	0.824	824.4	congruent	Block2	congruent/STIM_028.jpg	100
2262.562	0.68	679.9	congruent	Block2	congruent/STIM_029.jpg	99
2266.603	0.799	798.9	congruent	Block2	congruent/STIM_029.jpg	99
2269.503	0.623	622.6	congruent	Block2	congruent/STIM_029.jpg	100
2274.086	0.683	683.1	congruent	Block2	congruent/STIM_029.jpg	99
2276.838	0.672	672.1	congruent	Block2	congruent/STIM_029.jpg	100
2279.757	0.48	479.7	incongruent	Block3	incongruent/STIM_000.jpg	100
2283.714	0.691	690.6	incongruent	Block3	incongruent/STIM_000.jpg	99
2288.053	0.555	554.6	incongruent	Block3	incongruent/STIM_000.jpg	99
2291.382	0.971	971.2	incongruent	Block3	incongruent/STIM_000.jpg	99
2294.615	0.787	787.0	incongruent	Block3	incongruent/STIM_000.jpg	99
2297.487	0.476	475.8	incongruent	Block3	incongruent/STIM_001.jpg	99
2301.933	0.589	589.2	incongruent	Block3	incongruent/STIM_001.jpg	99
2305.656	0.549	549.1	incongruent	Block3	incongruent/STIM_001.jpg	99
2308.899	0.796	796.2	incongruent	Block3	incongruent/STIM_001.jpg	100
2313.019	0.679	678.7	incongruent	Block3	incongruent/STIM_001.jpg	100
2316.466	0.53	529.9	incongruent	Block3	incongruent/STIM_002.jpg	100
2319.8	0.564	563.9	incongruent	Block3	incongruent/STIM_002.jpg	100
2323.561	0.764	764.1	incongruent	Block3	incongruent/STIM_002.jpg	100
2326.511	0.834	834.1	incongruent	Block3	incongruent/STIM_002.jpg	99
2330.469	0.573	573.3	incongruent	Block3	incongruent/STIM_002.jpg	100
2334.677	0.542	542.0	incongruent	Block3	incongruent/STIM_003.jpg	100
2338.245	0.566	565.9	incongruent	Block3	incongruent/STIM_003.jpg	100
2342.11	0.948	947.9	incongruent	Block3	incongruent/STIM_003.jpg	100
2346.339	0.518	517.6	incongruent	Block3	incongruent/STIM_003.jpg	99
2349.342	0.894	894.2	incongruent	Block3	incongruent/STIM_003.jpg	99
2353.606	0.834	834.2	incongruent	Block3	incongruent/STIM_004.jpg	99
2357.284	0.629	628.8	incongruent	Block3	incongruent/STIM_004.jpg	99
2360.819	0.866	866.0	incongruent	Block3	incongruent/STIM_004.jpg	99
2364.412	0.884	884.1	incongruent	Block3	incongruent/STIM_004.jpg	99
2368.959	0.624	623.6	incongruent	Block3	incongruent/STIM_004.jpg	100
2372.256	0.657	657.3	incongruent	Block3	incongruent/STIM_005.jpg	100
2375.613	0.62	620.0	incongruent	Block3	incongruent/STIM_005.jpg	100
2379.593	0.507	507.5	incongruent	Block3	incongruent/STIM_005.jpg	100
2383.585	0.787	787.4	incongruent	Block3	incongruent/STIM_005.jpg	100
2388.045	0.643	643.1	incongruent	Block3	incongruent/STIM_005.jpg	100
2390.878	0.513	513.3	incongruent	Block3	incongruent/STIM_006.jpg	100
2395.103	0.872	871.5	incongruent	Block3	incongruent/STIM_006.jpg	99
2399.816	0.817	817.1	incongruent	Block3	incongruent/STIM_006.jpg	99
2403.476	0.643	642.6	incongruent	Block3	incongruent/STIM_006.jpg	100
2407.666	0.481	481.1	incongruent	Block3	incongruent/STIM_006.jpg	100
2411.214	0.528	527.9	incongruent	Block3	incongruent/STIM_007.jpg	100
2413.944	0.998	998.1	incongruent	Block3	incongruent/STIM_007.jpg	99
2418.928	0.959	959.3	incongruent	Block3	incongruent/STIM_007.jpg	100
2422.664	0.52	519.5	incongruent	Block3	incongruent/STIM_007.jpg	100
2426.595	0.576	575.5	incongruent	Block3	incongruent/STIM_007.jpg	100
2430.78	0.886	885.5	incongruent	Block3	incongruent/STIM_008.jpg	100
2435.18	0.639	639.3	incongruent	Block3	incongruent/STIM_008.jpg	99
2438.951	0.786	785.9	incongruent	Block3	incongruent/STIM_008.jpg	100
2442.468	0.685	685.2	incongruent	Block3	incongruent/STIM_008.jpg	100
2446.56	0.569	569.4	incongruent	Block3	incongruent/STIM_008.jpg	100
2449.661	0.477	476.8	incongruent	Block3	incongruent/STIM_009.jpg	99
2453.901	0.761	760.8	incongruent	Block3	incongruent/STIM_009.jpg	100
2457.492	0.784	784.4	incongruent	Block3	incongruent/STIM_009.jpg	100
2460.751	0.608	608.0	incongruent	Block3	incongruent/STIM_009.jpg	99
2464.922	0.997	996.6	incongruent	Block3	incongruent/STIM_009.jpg	100
2469.031	0.629	628.8	incongruent	Block3	incongruent/STIM_010.jpg	99
2473.475	0.898	898.0	incongruent	Block3	incongruent/STIM_010.jpg	100
2476.839	0.817	817.2	incongruent	Block3	incongruent/STIM_010.jpg	100
2479.797	0.598	597.5	incongruent	Block3	incongruent/STIM_010.jpg	99
2482.873	0.92	920.5	incongruent	Block3	incongruent/STIM_010.jpg	99
2486.709	0.621	620.7	incongruent	Block3	incongruent/STIM_011.jpg	99
2490.74	0.52	520.0	incongruent	Block3	incongruent/STIM_011.jpg	100
2495.066	1.001	1001.1	incongruent	Block3	incongruent/STIM_011.jpg	99
2498.207	0.948	947.6	incongruent	Block3	incongruent/STIM_011.jpg	100
2501.979	0.621	621.0	incongruent	Block3	incongruent/STIM_011.jpg	100
2504.73	0.984	984.4	incongruent	Block3	incongruent/STIM_012.jpg	100
2508.924	0.884	884.1	incongruent	Block3	incongruent/STIM_012.jpg	100
2512.22	0.823	823.3	incongruent	Block3	incongruent/STIM_012.jpg	100
2516.838	0.584	584.4	incongruent	Block3	incongruent/STIM_012.jpg	100
2520.698	0.83	830.1	incongruent	Block3	incongruent/STIM_012.jpg	100
2525.298	0.832	832.3	incongruent	Block3	incongruent/STIM_013.jpg	100
2528.54	0.73	730.4	incongruent	Block3	incongruent/STIM_013.jpg	100
2531.721	0.932	931.6	incongruent	Block3	incongruent/STIM_013.jpg	100
2534.83	0.581	581.1	incongruent	Block3	incongruent/STIM_013.jpg	99
2538.891	0.54	540.1	incongruent	Block3	incongruent/STIM_013.jpg	100
2541.767	0.675	674.9	incongruent	Block3	incongruent/STIM_014.jpg	100
2545.428	0.884	884.2	incongruent	Block3	incongruent/STIM_014.jpg	99
2548.385	0.778	778.3	incongruent	Block3	incongruent/STIM_014.jpg	100
2551.34	0.718	717.7	incongruent	Block3	incongruent/STIM_014.jpg	100
2554.36	0.494	494.3	incongruent	Block3	incongruent/STIM_014.jpg	99
2558.291	1.0	1000.5	incongruent	Block3	incongruent/STIM_015.jpg	99
2562.429	0.646	646.1	incongruent	Block3	incongruent/STIM_015.jpg	100
2566.057	0.525	525.3	incongruent	Block3	incongruent/STIM_015.jpg	99
2570.119	0.724	724.4	incongruent	Block3	incongruent/STIM_015.jpg	99
2574.824	0.693	693.1	incongruent	Block3	incongruent/STIM_015.jpg	99
2578.328	0.987	987.1	incongruent	Block3	incongruent/STIM_016.jpg	100
2581.711	0.479	478.6	incongruent	Block3	incongruent/STIM_016.jpg	100
2585.869	0.944	943.5	incongruent	Block3	incongruent/STIM_016.jpg	99
2590.252	0.753	753.0	incongruent	Block3	incongruent/STIM_016.jpg	99
2594.309	0.777	776.7	incongruent	Block3	incongruent/STIM_016.jpg	99
2598.931	0.966	966.2	incongruent	Block3	incongruent/STIM_017.jpg	100
2603.459	0.921	921.4	incongruent	Block3	incongruent/STIM_017.jpg	99
2607.4	0.823	823.4	incongruent	Block3	incongruent/STIM_017.jpg	99
2611.059	0.875	874.8	incongruent	Block3	incongruent/STIM_017.jpg	99
2614.004	0.772	771.7	incongruent	Block3	incongruent/STIM_017.jpg	100
2617.395	0.476	476.2	incongruent	Block3	incongruent/STIM_018.jpg	100
2621.836	0.528	528.1	incongruent	Block3	incongruent/STIM_018.jpg	99
2625.063	0.568	567.7	incongruent	Block3	incongruent/STIM_018.jpg	100
2629.198	0.706	705.5	incongruent	Block3	incongruent/STIM_018.jpg	99
2633.208	0.985	985.4	incongruent	Block3	incongruent/STIM_018.jpg	100
2637.345	0.835	835.3	incongruent	Block3	incongruent/STIM_019.jpg	100
2640.596	0.883	882.9	incongruent	Block3	incongruent/STIM_019.jpg	99
2644.402	0.777	777.0	incongruent	Block3	incongruent/STIM_019.jpg	100
2647.387	0.574	573.6	incongruent	Block3	incongruent/STIM_019.jpg	99
2650.926	0.969	969.4	incongruent	Block3	incongruent/STIM_019.jpg	100
2654.106	0.972	971.7	incongruent	Block3	incongruent/STIM_020.jpg	99
2657.257	0.525	524.7	incongruent	Block3	incongruent/STIM_020.jpg	99
2659.913	0.482	481.8	incongruent	Block3	incongruent/STIM_020.jpg	99
2662.422	0.871	870.8	incongruent	Block3	incongruent/STIM_020.jpg	99
2666.259	0.524	523.5	incongruent	Block3	incongruent/STIM_020.jpg	99
2668.8	0.983	983.2	incongruent	Block3	incongruent/STIM_021.jpg	100
2672.437	0.596	596.1	incongruent	Block3	incongruent/STIM_021.jpg	100
2675.178	0.555	555.3	incongruent	Block3	incongruent/STIM_021.jpg	100
2679.577	0.992	992.1	incongruent	Block3	incongruent/STIM_021.jpg	99
2684.034	0.838	837.7	incongruent	Block3	incongruent/STIM_021.jpg	99
2688.186	0.78	780.4	incongruent	Block3	incongruent/STIM_022.jpg	99
2692.518	0.859	859.0	incongruent	Block3	incongruent/STIM_022.jpg	100
2696.16	0.956	956.5	incongruent	Block3	incongruent/STIM_022.jpg	99
2699.787	0.712	712.0	incongruent	Block3	incongruent/STIM_022.jpg	100
2704.056	0.888	887.5	incongruent	Block3	incongruent/STIM_022.jpg	99
2708.736	1.002	1002.1	incongruent	Block3	incongruent/STIM_023.jpg	100
2711.93	0.542	542.5	incongruent	Block3	incongruent/STIM_023.jpg	99
2715.026	0.81	810.2	incongruent	Block3	incongruent/STIM_023.jpg	100
2719.546	0.939	938.9	incongruent	Block3	incongruent/STIM_023.jpg	100
2724.215	0.67	669.6	incongruent	Block3	incongruent/STIM_023.jpg	99
2728.202	0.658	658.4	incongruent	Block3	incongruent/STIM_024.jpg	100
2731.246	0.623	623.4	incongruent	Block3	incongruent/STIM_024.jpg	99
2734.261	0.811	811.2	incongruent	Block3	incongruent/STIM_024.jpg	99
2738.119	0.528	527.8	incongruent	Block3	incongruent/STIM_024.jpg	100
2740.674	1.006	1005.8	incongruent	Block3	incongruent/STIM_024.jpg	100
2744.381	0.497	497.4	incongruent	Block3	incongruent/STIM_025.jpg	100
2747.448	0.866	866.2	incongruent	Block3	incongruent/STIM_025.jpg	99
2751.653	1.004	1003.8	incongruent	Block3	incongruent/STIM_025.jpg	99
2755.609	0.623	623.3	incongruent	Block3	incongruent/STIM_025.jpg	99
2758.683	0.632	631.7	incongruent	Block3	incongruent/STIM_025.jpg	100
2761.328	0.791	791.3	incongruent	Block3	incongruent/STIM_026.jpg	99
2765.26	0.683	683.4	incongruent	Block3	incongruent/STIM_026.jpg	100
2769.608	0.918	918.0	incongruent	Block3	incongruent/STIM_026.jpg	99
2773.709	0.825	825.1	incongruent	Block3	incongruent/STIM_026.jpg	100
2778.014	0.872	872.3	incongruent	Block3	incongruent/STIM_026.jpg	99
2781.321	0.684	683.8	incongruent	Block3	incongruent/STIM_027.jpg	100
2784.67	0.589	589.1	incongruent	Block3	incongruent/STIM_027.jpg	100
2787.581	0.678	678.2	incongruent	Block3	incongruent/STIM_027.jpg	99
2792.215	0.851	850.8	incongruent	Block3	incongruent/STIM_027.jpg	99
2796.357	0.794	793.7	incongruent	Block3	incongruent/STIM_027.jpg	100
2799.405	0.877	877.4	incongruent	Block3	incongruent/STIM_028.jpg	100
2802.533	0.98	979.6	incongruent	Block3	incongruent/STIM_028.jpg	100
2805.818	0.724	724.3	incongruent	Block3	incongruent/STIM_028.jpg	99
2810.332	0.986	985.5	incongruent	Block3	incongruent/STIM_028.jpg	99
2814.572	0.518	517.8	incongruent	Block3	incongruent/STIM_028.jpg	99
2818.149	0.982	982.5	incongruent	Block3	incongruent/STIM_029.jpg	99
2821.247	0.95	949.5	incongruent	Block3	incongruent/STIM_029.jpg	100
2825.656	0.634	634.0	incongruent	Block3	incongruent/STIM_029.jpg	99
2829.921	0.861	860.6	incongruent	Block3	incongruent/STIM_029.jpg	99
2833.701	0.572	572.4	incongruent	Block3	incongruent/STIM_029.jpg	100
2837.798	0.619	618.7	congruent	Block3	congruent/STIM_000.jpg	99
2841.022	0.856	856.4	congruent	Block3	congruent/STIM_000.jpg	99
2845.456	0.49	490.5	congruent	Block3	congruent/STIM_000.jpg	99
2849.452	0.746	745.5	congruent	Block3	congruent/STIM_000.jpg	100
2852.294	0.858	857.7	congruent	Block3	congruent/STIM_000.jpg	99
2855.988	0.868	867.5	congruent	Block3	congruent/STIM_001.jpg	99
2860.379	0.745	744.8	congruent	Block3	congruent/STIM_001.jpg	99
2865.015	0.633	633.4	congruent	Block3	congruent/STIM_001.jpg	100
2868.54	0.788	788.4	congruent	Block3	congruent/STIM_001.jpg	99
2872.005	0.581	581.1	congruent	Block3	congruent/STIM_001.jpg	100
2875.798	0.621	620.9	congruent	Block3	congruent/STIM_002.jpg	99
2879.351	0.84	839.7	congruent	Block3	congruent/STIM_002.jpg	99
2883.416	0.738	738.0	congruent	Block3	congruent/STIM_002.jpg	100
2887.741	0.636	636.5	congruent	Block3	congruent/STIM_002.jpg	99
2891.294	0.722	722.1	congruent	Block3	congruent/STIM_002.jpg	100
2894.923	0.657	657.1	congruent	Block3	congruent/STIM_003.jpg	100
2897.937	0.827	827.1	congruent	Block3	congruent/STIM_003.jpg	99
2902.484	0.732	732.2	congruent	Block3	congruent/STIM_003.jpg	99
2906.173	0.566	566.0	congruent	Block3	congruent/STIM_003.jpg	99
2910.333	0.494	494.0	congruent	Block3	congruent/STIM_003.jpg	99
2913.736	0.774	774.3	congruent	Block3	congruent/STIM_004.jpg	100
2917.888	0.5	500.5	congruent	Block3	congruent/STIM_004.jpg	99
2922.183	0.867	867.0	congruent	Block3	congruent/STIM_004.jpg	100
2925.225	0.492	491.6	congruent	Block3	congruent/STIM_004.jpg	99
2928.545	0.546	545.5	congruent	Block3	congruent/STIM_004.jpg	100
2931.625	0.729	728.6	congruent	Block3	congruent/STIM_005.jpg	99
2934.763	0.766	766.0	congruent	Block3	congruent/STIM_005.jpg	99
2939.398	0.837	836.9	congruent	Block3	congruent/STIM_005.jpg	99
2943.083	0.535	535.1	congruent	Block3	congruent/STIM_005.jpg	100
2947.505	0.664	664.0	congruent	Block3	congruent/STIM_005.jpg	100
2950.846	0.856	855.8	congruent	Block3	congruent/STIM_006.jpg	100
2954.028	0.574	574.3	congruent	Block3	congruent/STIM_006.jpg	99
2958.543	0.627	627.0	congruent	Block3	congruent/STIM_006.jpg	99
2962.958	0.498	497.9	congruent	Block3	congruent/STIM_006.jpg	100
2965.698	0.803	803.1	congruent	Block3	congruent/STIM_006.jpg	99
2968.878	0.579	578.7	congruent	Block3	congruent/STIM_007.jpg	100
2972.234	0.554	554.3	congruent	Block3	congruent/STIM_007.jpg	100
2974.853	0.851	851.1	congruent	Block3	congruent/STIM_007.jpg	99
2978.052	0.58	579.9	congruent	Block3	congruent/STIM_007.jpg	100
2980.933	0.656	656.2	congruent	Block3	congruent/STIM_007.jpg	99
2984.918	0.85	850.4	congruent	Block3	congruent/STIM_008.jpg	99
2989.297	0.588	588.3	congruent	Block3	congruent/STIM_008.jpg	100
2992.819	0.483	482.9	congruent	Block3	congruent/STIM_008.jpg	99
2995.557	0.759	758.7	congruent	Block3	congruent/STIM_008.jpg	99
3000.095	0.788	787.9	congruent	Block3	congruent/STIM_008.jpg	99
3004.087	0.844	844.4	congruent	Block3	congruent/STIM_009.jpg	100
3007.493	0.771	770.8	congruent	Block3	congruent/STIM_009.jpg	99
3010.373	0.865	864.7	congruent	Block3	congruent/STIM_009.jpg	99
3013.241	0.797	796.9	congruent	Block3	congruent/STIM_009.jpg	99
3016.055	0.69	690.2	congruent	Block3	congruent/STIM_009.jpg	100
3019.35	0.644	643.7	congruent	Block3	congruent/STIM_010.jpg	100
3023.991	0.816	815.8	congruent	Block3	congruent/STIM_010.jpg	100
3028.61	0.854	853.9	congruent	Block3	congruent/STIM_010.jpg	99
3032.518	0.763	763.1	congruent	Block3	congruent/STIM_010.jpg	99
3036.3	0.801	800.9	congruent	Block3	congruent/STIM_010.jpg	100
3039.799	0.67	669.8	congruent	Block3	congruent/STIM_011.jpg	99
3043.483	0.613	613.3	congruent	Block3	congruent/STIM_011.jpg	100
3046.843	0.49	489.9	congruent	Block3	congruent/STIM_011.jpg	99
3050.442	0.766	766.3	congruent	Block3	congruent/STIM_011.jpg	100
3055.207	0.819	819.4	congruent	Block3	congruent/STIM_011.jpg	100
3060.002	0.693	693.3	congruent	Block3	congruent/STIM_012.jpg	100
3063.25	0.636	636.4	congruent	Block3	congruent/STIM_012.jpg	99
3066.043	0.796	796.5	congruent	Block3	congruent/STIM_012.jpg	100
3070.243	0.725	724.6	congruent	Block3	congruent/STIM_012.jpg	99
3074.904	0.815	814.8	congruent	Block3	congruent/STIM_012.jpg	100
3079.238	0.714	714.0	congruent	Block3	congruent/STIM_013.jpg	100
3082.699	0.514	514.0	congruent	Block3	congruent/STIM_013.jpg	100
3086.24	0.586	585.7	congruent	Block3	congruent/STIM_013.jpg	100
3089.601	0.622	622.0	congruent	Block3	congruent/STIM_013.jpg	100
3093.973	0.809	809.3	congruent	Block3	congruent/STIM_013.jpg	99
3098.564	0.673	672.6	congruent	Block3	congruent/STIM_014.jpg	100
3102.849	0.645	644.9	congruent	Block3	congruent/STIM_014.jpg	99
3105.743	0.669	669.4	congruent	Block3	congruent/STIM_014.jpg	99
3109.355	0.645	645.1	congruent	Block3	congruent/STIM_014.jpg	100
3113.104	0.66	659.5	congruent	Block3	congruent/STIM_014.jpg	99
3117.263	0.513	512.7	congruent	Block3	congruent/STIM_015.jpg	100
3120.847	0.842	841.7	congruent	Block3	congruent/STIM_015.jpg	99
3124.286	0.522	522.3	congruent	Block3	congruent/STIM_015.jpg	99
3127.521	0.723	722.6	congruent	Block3	congruent/STIM_015.jpg	99
3131.04	0.694	693.5	congruent	Block3	congruent/STIM_015.jpg	100
3135.481	0.803	803.3	congruent	Block3	congruent/STIM_016.jpg	99
3139.587	0.6	600.4	congruent	Block3	congruent/STIM_016.jpg	99
3143.965	0.683	682.6	congruent	Block3	congruent/STIM_016.jpg	99
3148.235	0.594	594.4	congruent	Block3	congruent/STIM_016.jpg	100
3152.565	0.841	841.0	congruent	Block3	congruent/STIM_016.jpg	100
3155.876	0.696	695.7	congruent	Block3	congruent/STIM_017.jpg	99
3159.196	0.557	557.4	congruent	Block3	congruent/STIM_017.jpg	100
3163.098	0.848	847.5	congruent	Block3	congruent/STIM_017.jpg	100
3166.744	0.73	729.8	congruent	Block3	congruent/STIM_017.jpg	100
3170.567	0.7	700.2	congruent	Block3	congruent/STIM_017.jpg	100
3174.62	0.776	776.2	congruent	Block3	congruent/STIM_018.jpg	99
3177.745	0.77	770.0	congruent	Block3	congruent/STIM_018.jpg	99
3181.371	0.58	580.1	congruent	Block3	congruent/STIM_018.jpg	99
3185.832	0.655	655.2	congruent	Block3	congruent/STIM_018.jpg	100
3188.913	0.54	539.5	congruent	Block3	congruent/STIM_018.jpg	100
3192.326	0.651	650.7	congruent	Block3	congruent/STIM_019.jpg	100
3196.611	0.588	588.0	congruent	Block3	congruent/STIM_019.jpg	99
3199.845	0.788	787.8	congruent	Block3	congruent/STIM_019.jpg	99
3203.472	0.836	835.8	congruent	Block3	congruent/STIM_019.jpg	99
3206.903	0.837	837.2	congruent	Block3	congruent/STIM_019.jpg	99
3211.266	0.806	806.5	congruent	Block3	congruent/STIM_020.jpg	99
3215.525	0.606	605.9	congruent	Block3	congruent/STIM_020.jpg	99
3218.834	0.542	542.1	congruent	Block3	congruent/STIM_020.jpg	99
3222.661	0.711	711.1	congruent	Block3	congruent/STIM_020.jpg	99
3226.295	0.543	543.4	congruent	Block3	congruent/STIM_020.jpg	100
3230.314	0.76	760.0	congruent	Block3	congruent/STIM_021.jpg	100
3234.508	0.528	528.4	congruent	Block3	congruent/STIM_021.jpg	100
3237.849	0.757	757.4	congruent	Block3	congruent/STIM_021.jpg	99
3241.105	0.683	683.3	congruent	Block3	congruent/STIM_021.jpg	100
3244.551	0.54	540.4	congruent	Block3	congruent/STIM_021.jpg	100
3247.661	0.79	790.5	congruent	Block3	congruent/STIM_022.jpg	100
3250.616	0.505	504.6	congruent	Block3	congruent/STIM_022.jpg	99
3253.808	0.566	565.9	congruent	Block3	congruent/STIM_022.jpg	99
3257.145	0.514	514.4	congruent	Block3	congruent/STIM_022.jpg	100
3260.113	0.528	527.9	congruent	Block3	congruent/STIM_022.jpg	100
3262.761	0.86	860.5	congruent	Block3	congruent/STIM_023.jpg	100
3267.03	0.522	521.9	congruent	Block3	congruent/STIM_023.jpg	100
3271.231	0.852	851.8	congruent	Block3	congruent/STIM_023.jpg	100
3276.039	0.537	537.1	congruent	Block3	congruent/STIM_023.jpg	99
3278.83	0.512	511.9	congruent	Block3	congruent/STIM_023.jpg	99
3282.396	0.6	599.9	congruent	Block3	congruent/STIM_024.jpg	100
3286.957	0.827	827.2	congruent	Block3	congruent/STIM_024.jpg	99
3290.584	0.819	819.4	congruent	Block3	congruent/STIM_024.jpg	99
3294.624	0.852	852.2	congruent	Block3	congruent/STIM_024.jpg	100
3298.734	0.81	810.0	congruent	Block3	congruent/STIM_024.jpg	100
3302.41	0.483	482.7	congruent	Block3	congruent/STIM_025.jpg	100
3305.861	0.808	807.6	congruent	Block3	congruent/STIM_025.jpg	100
3309.07	0.571	570.8	congruent	Block3	congruent/STIM_025.jpg	99
3313.515	0.655	655.1	congruent	Block3	congruent/STIM_025.jpg	100
3317.278	0.827	827.3	congruent	Block3	congruent/STIM_025.jpg	100
3320.348	0.858	857.6	congruent	Block3	congruent/STIM_026.jpg	100
3324.644	0.852	852.0	congruent	Block3	congruent/STIM_026.jpg	100
3328.922	0.822	822.0	congruent	Block3	congruent/STIM_026.jpg	100
3331.88	0.507	506.6	congruent	Block3	congruent/STIM_026.jpg	99
3334.848	0.655	655.2	congruent	Block3	congruent/STIM_026.jpg	99
3338.822	0.544	544.2	congruent	Block3	congruent/STIM_027.jpg	100
3341.497	0.526	525.6	congruent	Block3	congruent/STIM_027.jpg	100
3344.056	0.656	656.5	congruent	Block3	congruent/STIM_027.jpg	100
3347.48	0.841	840.8	congruent	Block3	congruent/STIM_027.jpg	100
3351.259	0.804	804.3	congruent	Block3	congruent/STIM_027.jpg	99
3354.151	0.807	806.8	congruent	Block3	congruent/STIM_028.jpg	99
3357.995	0.529	529.2	congruent	Block3	congruent/STIM_028.jpg	100
3360.93	0.737	737.4	congruent	Block3	congruent/STIM_028.jpg	99
3364.284	0.848	847.9	congruent	Block3	congruent/STIM_028.jpg	99
3368.958	0.866	865.7	congruent	Block3	congruent/STIM_028.jpg	100
3373.029	0.712	711.9	congruent	Block3	congruent/STIM_029.jpg	100
3376.477	0.616	616.2	congruent	Block3	congruent/STIM_029.jpg	100
3380.427	0.544	544.0	congruent	Block3	congruent/STIM_029.jpg	100
3383.66	0.626	625.9	congruent	Block3	congruent/STIM_029.jpg	99
3386.835	0.741	741.1	congruent	Block3	congruent/STIM_029.jpg	100
