onset	duration	response_time_ms	trial_type	learning_stage	stimulus	response_port
0.0	0.655	654.8	incongruent	Block1	incongruent/STIM_000.jpg	99
4.324	0.837	837.1	incongruent	Block1	incongruent/STIM_000.jpg	100
8.841	0.568	568.4	incongruent	Block1	incongruent/STIM_000.jpg	100
13.479	0.585	584.9	incongruent	Block1	incongruent/STIM_000.jpg	99
16.206	1.006	1005.8	incongruent	Block1	incongruent/STIM_000.jpg	100
20.348	1.019	1019.2	incongruent	Block1	incongruent/STIM_001.jpg	100
25.379	0.643	643.4	incongruent	Block1	incongruent/STIM_001.jpg	99
29.191	1.05	1049.5	incongruent	Block1	incongruent/STIM_001.jpg	100
32.823	0.617	616.7	incongruent	Block1	incongruent/STIM_001.jpg	99
36.722	0.531	531.1	incongruent	Block1	incongruent/STIM_001.jpg	99
39.391	1.263	1262.7	incongruent	Block1	incongruent/STIM_002.jpg	100
44.003	1.118	1118.3	incongruent	Block1	incongruent/STIM_002.jpg	99
47.335	0.933	932.7	incongruent	Block1	incongruent/STIM_002.jpg	99
51.266	0.657	656.9	incongruent	Block1	incongruent/STIM_002.jpg	99
55.305	0.797	796.7	incongruent	Block1	incongruent/STIM_002.jpg	99
60.144	0.956	955.9	incongruent	Block1	incongruent/STIM_003.jpg	99
64.607	0.959	958.7	incongruent	Block1	incongruent/STIM_003.jpg	100
69.288	0.837	836.6	incongruent	Block1	incongruent/STIM_003.jpg	99
73.248	0.974	974.3	incongruent	Block1	incongruent/STIM_003.jpg	99
76.995	0.758	757.6	incongruent	Block1	incongruent/STIM_003.jpg	100
79.957	1.316	1316.0	incongruent	Block1	incongruent/STIM_004.jpg	99
83.97	0.858	858.2	incongruent	Block1	incongruent/STIM_004.jpg	100
87.175	1.007	1006.9	incongruent	Block1	incongruent/STIM_004.jpg	99
91.341	1.085	1084.7	incongruent	Block1	incongruent/STIM_004.jpg	99
96.241	0.97	970.5	incongruent	Block1	incongruent/STIM_004.jpg	100
99.894	1.143	1142.7	incongruent	Block1	incongruent/STIM_005.jpg	100
103.983	0.99	990.4	incongruent	Block1	incongruent/STIM_005.jpg	99
108.956	1.036	1035.5	incongruent	Block1	incongruent/STIM_005.jpg	99
113.494	0.978	977.8	incongruent	Block1	incongruent/STIM_005.jpg	100
117.761	0.52	520.5	incongruent	Block1	incongruent/STIM_005.jpg	100
120.744	0.989	989.4	incongruent	Block1	incongruent/STIM_006.jpg	99
125.324	1.171	1170.9	incongruent	Block1	incongruent/STIM_006.jpg	100
129.41	0.847	847.3	incongruent	Block1	incongruent/STIM_006.jpg	100
132.402	1.05	1050.2	incongruent	Block1	incongruent/STIM_006.jpg	99
136.253	0.586	585.6	incongruent	Block1	incongruent/STIM_006.jpg	100
139.667	0.964	964.4	incongruent	Block1	incongruent/STIM_007.jpg	100
143.13	0.806	805.6	incongruent	Block1	incongruent/STIM_007.jpg	100
146.449	1.095	1095.2	incongruent	Block1	incongruent/STIM_007.jpg	99
151.44	0.712	712.1	incongruent	Block1	incongruent/STIM_007.jpg	100
155.33	0.603	603.2	incongruent	Block1	incongruent/STIM_007.jpg	99
158.406	0.985	985.3	incongruent	Block1	incongruent/STIM_008.jpg	100
163.409	1.181	1180.8	incongruent	Block1	incongruent/STIM_008.jpg	99
168.343	1.175	1175.4	incongruent	Block1	incongruent/STIM_008.jpg	100
173.434	0.636	635.8	incongruent	Block1	incongruent/STIM_008.jpg	99
177.894	0.821	820.8	incongruent	Block1	incongruent/STIM_008.jpg	99
181.151	1.307	1306.6	incongruent	Block1	incongruent/STIM_009.jpg	99
185.365	1.134	1134.4	incongruent	Block1	incongruent/STIM_009.jpg	100
188.851	0.912	912.4	incongruent	Block1	incongruent/STIM_009.jpg	99
192.589	1.047	1046.9	incongruent	Block1	incongruent/STIM_009.jpg	99
196.453	0.976	975.5	incongruent	Block1	incongruent/STIM_009.jpg	99
199.971	1.025	1025.1	incongruent	Block1	incongruent/STIM_010.jpg	100
203.782	1.048	1048.0	incongruent	Block1	incongruent/STIM_010.jpg	99
207.391	0.561	560.6	incongruent	Block1	incongruent/STIM_010.jpg	100
211.072	0.91	910.1	incongruent	Block1	incongruent/STIM_010.jpg	100
215.427	1.045	1045.1	incongruent	Block1	incongruent/STIM_010.jpg	100
220.453	0.938	937.7	incongruent	Block1	incongruent/STIM_011.jpg	100
224.627	0.699	699.0	incongruent	Block1	incongruent/STIM_011.jpg	99
228.947	0.948	948.0	incongruent	Block1	incongruent/STIM_011.jpg	100
233.337	0.985	985.4	incongruent	Block1	incongruent/STIM_011.jpg	99
237.233	0.847	846.9	incongruent	Block1	incongruent/STIM_011.jpg	99
242.127	0.702	701.7	incongruent	Block1	incongruent/STIM_012.jpg	100
246.444	1.055	1055.0	incongruent	Block1	incongruent/STIM_012.jpg	99
250.393	0.902	901.9	incongruent	Block1	incongruent/STIM_012.jpg	99
253.541	0.678	678.1	incongruent	Block1	incongruent/STIM_012.jpg	99
256.4	1.032	1032.4	incongruent	Block1	incongruent/STIM_012.jpg	100
261.139	0.942	941.6	incongruent	Block1	incongruent/STIM_013.jpg	99
265.009	1.067	1066.8	incongruent	Block1	incongruent/STIM_013.jpg	99
268.863	0.703	703.3	incongruent	Block1	incongruent/STIM_013.jpg	100
273.064	0.53	530.2	incongruent	Block1	incongruent/STIM_013.jpg	100
275.718	0.651	650.9	incongruent	Block1	incongruent/STIM_013.jpg	100
279.347	1.059	1059.4	incongruent	Block1	incongruent/STIM_014.jpg	100
284.003	1.223	1223.3	incongruent	Block1	incongruent/STIM_014.jpg	100
288.837	0.679	679.2	incongruent	Block1	incongruent/STIM_014.jpg	99
291.856	0.583	582.6	incongruent	Block1	incongruent/STIM_014.jpg	100
295.509	0.929	929.1	incongruent	Block1	incongruent/STIM_014.jpg	99
298.886	1.15	1150.3	incongruent	Block1	incongruent/STIM_015.jpg	99
304.132	0.62	620.2	incongruent	Block1	incongruent/STIM_015.jpg	100
308.618	0.635	634.9	incongruent	Block1	incongruent/STIM_015.jpg	100
312.468	0.647	646.8	incongruent	Block1	incongruent/STIM_015.jpg	100
315.241	1.002	1001.8	incongruent	Block1	incongruent/STIM_015.jpg	99
320.094	0.993	993.1	incongruent	Block1	incongruent/STIM_016.jpg	100
323.439	0.914	914.3	incongruent	Block1	incongruent/STIM_016.jpg	100
328.41	1.185	1185.4	incongruent	Block1	incongruent/STIM_016.jpg	100
332.266	1.05	1049.9	incongruent	Block1	incongruent/STIM_016.jpg	100
337.302	0.813	813.4	incongruent	Block1	incongruent/STIM_016.jpg	100
342.219	0.912	911.7	incongruent	Block1	incongruent/STIM_017.jpg	99
346.296	0.961	961.2	incongruent	Block1	incongruent/STIM_017.jpg	99
350.619	0.71	709.9	incongruent	Block1	incongruent/STIM_017.jpg	99
354.995	0.806	806.1	incongruent	Block1	incongruent/STIM_017.jpg	99
359.589	1.051	1050.7	incongruent	Block1	incongruent/STIM_017.jpg	99
364.599	1.225	1225.1	incongruent	Block1	incongruent/STIM_018.jpg	100
368.584	0.821	821.1	incongruent	Block1	incongruent/STIM_018.jpg	100
372.398	1.009	1008.7	incongruent	Block1	incongruent/STIM_018.jpg	100
376.111	0.718	717.8	incongruent	Block1	incongruent/STIM_018.jpg	99
379.214	0.856	855.7	incongruent	Block1	incongruent/STIM_018.jpg	99
382.259	0.962	962.2	incongruent	Block1	incongruent/STIM_019.jpg	100
386.697	0.725	724.6	incongruent	Block1	incongruent/STIM_019.jpg	99
390.308	0.924	923.8	incongruent	Block1	incongruent/STIM_019.jpg	99
394.895	0.927	927.2	incongruent	Block1	incongruent/STIM_019.jpg	99
398.939	0.512	511.7	incongruent	Block1	incongruent/STIM_019.jpg	99
402.787	0.758	757.9	incongruent	Block1	incongruent/STIM_020.jpg	100
407.496	1.138	1138.3	incongruent	Block1	incongruent/STIM_020.jpg	99
411.337	0.732	732.5	incongruent	Block1	incongruent/STIM_020.jpg	99
415.414	0.944	943.8	incongruent	Block1	incongruent/STIM_020.jpg	99
419.733	0.896	895.9	incongruent	Block1	incongruent/STIM_020.jpg	99
423.006	1.156	1156.0	incongruent	Block1	incongruent/STIM_021.jpg	100
427.051	0.718	718.3	incongruent	Block1	incongruent/STIM_021.jpg	100
430.987	0.634	634.5	incongruent	Block1	incongruent/STIM_021.jpg	100
434.855	1.095	1095.3	incongruent	Block1	incongruent/STIM_021.jpg	99
438.296	0.711	710.9	incongruent	Block1	incongruent/STIM_021.jpg	99
442.835	0.648	647.9	incongruent	Block1	incongruent/STIM_022.jpg	99
447.545	0.603	603.1	incongruent	Block1	incongruent/STIM_022.jpg	100
450.365	0.558	557.8	incongruent	Block1	incongruent/STIM_022.jpg	99
453.408	1.014	1014.4	incongruent	Block1	incongruent/STIM_022.jpg	100
457.887	0.644	643.6	incongruent	Block1	incongruent/STIM_022.jpg	99
462.197	0.63	629.8	incongruent	Block1	incongruent/STIM_023.jpg	100
465.105	1.009	1009.4	incongruent	Block1	incongruent/STIM_023.jpg	100
469.096	0.743	743.3	incongruent	Block1	incongruent/STIM_023.jpg	100
472.64	0.555	555.1	incongruent	Block1	incongruent/STIM_023.jpg	100
475.673	0.617	617.3	incongruent	Block1	incongruent/STIM_023.jpg	100
479.497	0.626	626.1	incongruent	Block1	incongruent/STIM_024.jpg	100
483.911	0.694	693.9	incongruent	Block1	incongruent/STIM_024.jpg	100
488.147	0.623	622.7	incongruent	Block1	incongruent/STIM_024.jpg	100
491.019	0.652	652.0	incongruent	Block1	incongruent/STIM_024.jpg	99
495.344	0.835	834.8	incongruent	Block1	incongruent/STIM_024.jpg	99
499.23	0.947	946.8	incongruent	Block1	incongruent/STIM_025.jpg	100
502.448	0.663	662.7	incongruent	Block1	incongruent/STIM_025.jpg	99
506.089	1.075	1075.4	incongruent	Block1	incongruent/STIM_025.jpg	99
509.869	1.077	1076.9	incongruent	Block1	incongruent/STIM_025.jpg	99
514.843	0.706	705.6	incongruent	Block1	incongruent/STIM_025.jpg	100
518.901	0.767	767.2	incongruent	Block1	incongruent/STIM_026.jpg	99
522.093	0.774	773.7	incongruent	Block1	incongruent/STIM_026.jpg	99
526.164	0.623	623.4	incongruent	Block1	incongruent/STIM_026.jpg	100
529.785	0.726	725.8	incongruent	Block1	incongruent/STIM_026.jpg	99
533.623	0.821	821.3	incongruent	Block1	incongruent/STIM_026.jpg	99
538.32	1.306	1305.5	incongruent	Block1	incongruent/STIM_027.jpg	100
542.003	0.608	607.8	incongruent	Block1	incongruent/STIM_027.jpg	99
545.952	0.791	791.1	incongruent	Block1	incongruent/STIM_027.jpg	99
549.885	0.633	632.6	incongruent	Block1	incongruent/STIM_027.jpg	99
553.972	0.59	590.0	incongruent	Block1	incongruent/STIM_027.jpg	100
558.544	0.966	966.5	incongruent	Block1	incongruent/STIM_028.jpg	99
562.243	1.141	1140.9	incongruent	Block1	incongruent/STIM_028.jpg	99
566.637	1.01	1010.0	incongruent	Block1	incongruent/STIM_028.jpg	99
570.205	0.79	790.5	incongruent	Block1	incongruent/STIM_028.jpg	99
573.859	0.568	567.7	incongruent	Block1	incongruent/STIM_028.jpg	99
577.702	1.149	1149.2	incongruent	Block1	incongruent/STIM_029.jpg	100
582.009	0.659	659.3	incongruent	Block1	incongruent/STIM_029.jpg	100
586.102	0.752	752.5	incongruent	Block1	incongruent/STIM_029.jpg	100
590.184	0.814	813.9	incongruent	Block1	incongruent/STIM_029.jpg	100
593.632	0.924	924.0	incongruent	Block1	incongruent/STIM_029.jpg	100
597.829	0.789	789.2	congruent	Block1	congruent/STIM_000.jpg	100
601.058	0.602	601.9	congruent	Block1	congruent/STIM_000.jpg	99
605.113	0.576	576.3	congruent	Block1	congruent/STIM_000.jpg	99
608.271	0.48	479.5	congruent	Block1	congruent/STIM_000.jpg	99
611.721	0.604	604.0	congruent	Block1	congruent/STIM_000.jpg	99
616.212	0.56	560.3	congruent	Block1	congruent/STIM_001.jpg	99
619.96	0.787	787.4	congruent	Block1	congruent/STIM_001.jpg	99
624.647	0.486	486.2	congruent	Block1	congruent/STIM_001.jpg	99
627.83	0.481	480.7	congruent	Block1	congruent/STIM_001.jpg	99
631.303	0.586	585.6	congruent	Block1	congruent/STIM_001.jpg	99
634.705	0.474	473.8	congruent	Block1	congruent/STIM_002.jpg	99
638.44	0.67	669.6	congruent	Block1	congruent/STIM_002.jpg	99
642.017	0.627	626.6	congruent	Block1	congruent/STIM_002.jpg	99
646.428	0.509	509.4	congruent	Block1	congruent/STIM_002.jpg	99
650.445	0.645	644.8	congruent	Block1	congruent/STIM_002.jpg	99
654.585	0.561	560.9	congruent	Block1	congruent/STIM_003.jpg	100
658.117	0.654	654.1	congruent	Block1	congruent/STIM_003.jpg	100
662.828	0.507	506.8	congruent	Block1	congruent/STIM_003.jpg	99
666.919	0.648	647.7	congruent	Block1	congruent/STIM_003.jpg	100
669.805	0.671	670.9	congruent	Block1	congruent/STIM_003.jpg	99
673.887	0.626	626.0	congruent	Block1	congruent/STIM_004.jpg	99
678.054	0.594	594.3	congruent	Block1	congruent/STIM_004.jpg	99
681.627	0.766	766.2	congruent	Block1	congruent/STIM_004.jpg	100
684.866	0.75	750.5	congruent	Block1	congruent/STIM_004.jpg	100
687.762	0.673	673.3	congruent	Block1	congruent/STIM_004.jpg	100
690.891	0.726	726.2	congruent	Block1	congruent/STIM_005.jpg	100
694.356	0.463	462.7	congruent	Block1	congruent/STIM_005.jpg	100
698.18	0.642	641.6	congruent	Block1	congruent/STIM_005.jpg	99
702.473	0.489	489.3	congruent	Block1	congruent/STIM_005.jpg	100
706.229	0.788	788.1	congruent	Block1	congruent/STIM_005.jpg	99
710.244	0.476	475.8	congruent	Block1	congruent/STIM_006.jpg	100
714.073	0.586	585.5	congruent	Block1	congruent/STIM_006.jpg	100
717.133	0.564	563.5	congruent	Block1	congruent/STIM_006.jpg	100
721.733	0.54	539.5	congruent	Block1	congruent/STIM_006.jpg	100
725.518	0.519	519.1	congruent	Block1	congruent/STIM_006.jpg	100
729.83	0.471	470.9	congruent	Block1	congruent/STIM_007.jpg	100
732.719	0.495	494.9	congruent	Block1	congruent/STIM_007.jpg	100
737.01	0.492	492.1	congruent	Block1	congruent/STIM_007.jpg	99
741.197	0.772	772.3	congruent	Block1	congruent/STIM_007.jpg	99
744.887	0.653	653.4	congruent	Block1	congruent/STIM_007.jpg	100
748.318	0.63	629.5	congruent	Block1	congruent/STIM_008.jpg	100
751.789	0.517	516.7	congruent	Block1	congruent/STIM_008.jpg	100
755.627	0.479	478.6	congruent	Block1	congruent/STIM_008.jpg	99
758.647	0.456	456.3	congruent	Block1	congruent/STIM_008.jpg	99
762.398	0.679	679.2	congruent	Block1	congruent/STIM_008.jpg	99
765.545	0.596	595.8	congruent	Block1	congruent/STIM_009.jpg	99
769.175	0.642	641.6	congruent	Block1	congruent/STIM_009.jpg	100
772.677	0.567	567.1	congruent	Block1	congruent/STIM_009.jpg	100
776.752	0.726	726.2	congruent	Block1	congruent/STIM_009.jpg	100
781.55	0.7	699.8	congruent	Block1	congruent/STIM_009.jpg	99
784.521	0.475	474.6	congruent	Block1	congruent/STIM_010.jpg	99
788.492	0.655	654.7	congruent	Block1	congruent/STIM_010.jpg	99
792.001	0.785	784.6	congruent	Block1	congruent/STIM_010.jpg	100
796.554	0.484	483.7	congruent	Block1	congruent/STIM_010.jpg	100
800.725	0.59	590.0	congruent	Block1	congruent/STIM_010.jpg	100
804.508	0.547	546.6	congruent	Block1	congruent/STIM_011.jpg	99
808.515	0.635	634.7	congruent	Block1	congruent/STIM_011.jpg	99
812.907	0.656	655.6	congruent	Block1	congruent/STIM_011.jpg	99
816.953	0.508	507.7	congruent	Block1	congruent/STIM_011.jpg	99
821.005	0.753	752.8	congruent	Block1	congruent/STIM_011.jpg	100
824.447	0.593	592.8	congruent	Block1	congruent/STIM_012.jpg	99
827.942	0.573	572.9	congruent	Block1	congruent/STIM_012.jpg	100
830.888	0.462	461.8	congruent	Block1	congruent/STIM_012.jpg	99
834.975	0.782	782.2	congruent	Block1	congruent/STIM_012.jpg	99
838.222	0.574	574.2	congruent	Block1	congruent/STIM_012.jpg	100
842.192	0.588	588.3	congruent	Block1	congruent/STIM_013.jpg	99
845.142	0.468	467.9	congruent	Block1	congruent/STIM_013.jpg	100
849.563	0.556	555.7	congruent	Block1	congruent/STIM_013.jpg	100
852.325	0.715	715.3	congruent	Block1	congruent/STIM_013.jpg	100
855.266	0.789	788.6	congruent	Block1	congruent/STIM_013.jpg	99
859.971	0.498	498.0	congruent	Block1	congruent/STIM_014.jpg	100
863.93	0.455	455.0	congruent	Block1	congruent/STIM_014.jpg	100
867.763	0.619	618.6	congruent	Block1	congruent/STIM_014.jpg	99
871.865	0.566	565.7	congruent	Block1	congruent/STIM_014.jpg	99
876.247	0.531	531.4	congruent	Block1	congruent/STIM_014.jpg	99
880.397	0.68	679.9	congruent	Block1	congruent/STIM_015.jpg	100
883.776	0.639	638.7	congruent	Block1	congruent/STIM_015.jpg	100
887.215	0.732	731.5	congruent	Block1	congruent/STIM_015.jpg	100
891.061	0.766	766.1	congruent	Block1	congruent/STIM_015.jpg	100
894.602	0.628	628.4	congruent	Block1	congruent/STIM_015.jpg	100
899.099	0.673	673.3	congruent	Block1	congruent/STIM_016.jpg	100
902.158	0.505	505.2	congruent	Block1	congruent/STIM_016.jpg	100
905.438	0.75	750.5	congruent	Block1	congruent/STIM_016.jpg	99
908.453	0.665	664.8	congruent	Block1	congruent/STIM_016.jpg	99
911.997	0.758	758.1	congruent	Block1	congruent/STIM_016.jpg	99
916.582	0.788	788.3	congruent	Block1	congruent/STIM_017.jpg	99
920.13	0.624	624.5	congruent	Block1	congruent/STIM_017.jpg	100
924.509	0.79	789.8	congruent	Block1	congruent/STIM_017.jpg	100
927.584	0.461	460.9	congruent	Block1	congruent/STIM_017.jpg	100
931.666	0.601	601.1	congruent	Block1	congruent/STIM_017.jpg	100
935.74	0.659	658.6	congruent	Block1	congruent/STIM_018.jpg	100
939.063	0.578	578.3	congruent	Block1	congruent/STIM_018.jpg	99
942.809	0.559	559.0	congruent	Block1	congruent/STIM_018.jpg	100
945.569	0.525	525.4	congruent	Block1	congruent/STIM_018.jpg	100
948.59	0.743	743.0	congruent	Block1	congruent/STIM_018.jpg	100
951.888	0.506	506.1	congruent	Block1	congruent/STIM_019.jpg	99
956.163	0.552	551.9	congruent	Block1	congruent/STIM_019.jpg	100
959.469	0.674	674.0	congruent	Block1	congruent/STIM_019.jpg	99
963.687	0.45	449.8	congruent	Block1	congruent/STIM_019.jpg	100
967.268	0.487	486.9	congruent	Block1	congruent/STIM_019.jpg	99
971.296	0.588	587.5	congruent	Block1	congruent/STIM_020.jpg	100
975.687	0.7	700.1	congruent	Block1	congruent/STIM_020.jpg	100
978.562	0.483	483.4	congruent	Block1	congruent/STIM_020.jpg	100
981.295	0.735	734.6	congruent	Block1	congruent/STIM_020.jpg	99
985.944	0.442	442.5	congruent	Block1	congruent/STIM_020.jpg	99
990.005	0.745	744.7	congruent	Block1	congruent/STIM_021.jpg	100
994.13	0.447	447.2	congruent	Block1	congruent/STIM_021.jpg	100
998.578	0.771	770.7	congruent	Block1	congruent/STIM_021.jpg	99
1001.999	0.583	583.1	congruent	Block1	congruent/STIM_021.jpg	99
1006.039	0.686	685.9	congruent	Block1	congruent/STIM_021.jpg	100
1010.22	0.537	536.8	congruent	Block1	congruent/STIM_022.jpg	99
1014.367	0.698	697.5	congruent	Block1	congruent/STIM_022.jpg	99
1018.703	0.691	691.4	congruent	Block1	congruent/STIM_022.jpg	99
1023.344	0.643	642.6	congruent	Block1	congruent/STIM_022.jpg	99
1026.696	0.768	767.9	congruent	Block1	congruent/STIM_022.jpg	99
1029.865	0.557	557.3	congruent	Block1	congruent/STIM_023.jpg	99
1032.686	0.572	572.3	congruent	Block1	congruent/STIM_023.jpg	100
1037.133	0.49	490.0	congruent	Block1	congruent/STIM_023.jpg	99
1040.023	0.734	734.4	congruent	Block1	congruent/STIM_023.jpg	99
1044.609	0.762	761.7	congruent	Block1	congruent/STIM_023.jpg	100
1049.139	0.56	559.9	congruent	Block1	congruent/STIM_024.jpg	99
1052.218	0.766	766.5	congruent	Block1	congruent/STIM_024.jpg	100
1056.286	0.607	606.8	congruent	Block1	congruent/STIM_024.jpg	100
1060.299	0.634	633.8	congruent	Block1	congruent/STIM_024.jpg	100
1064.236	0.662	662.2	congruent	Block1	congruent/STIM_024.jpg	100
1067.833	0.546	545.7	congruent	Block1	congruent/STIM_025.jpg	100
1071.832	0.668	667.7	congruent	Block1	congruent/STIM_025.jpg	99
1076.162	0.528	528.1	congruent	Block1	congruent/STIM_025.jpg	100
1080.099	0.689	689.0	congruent	Block1	congruent/STIM_025.jpg	100
1084.43	0.658	657.5	congruent	Block1	congruent/STIM_025.jpg	99
1088.469	0.758	757.7	congruent	Block1	congruent/STIM_026.jpg	100
1092.141	0.672	672.0	congruent	Block1	congruent/STIM_026.jpg	100
1095.636	0.712	712.5	congruent	Block1	congruent/STIM_026.jpg	100
1099.795	0.544	543.6	congruent	Block1	congruent/STIM_026.jpg	99
1102.747	0.518	518.5	congruent	Block1	congruent/STIM_026.jpg	100
1107.017	0.756	755.8	congruent	Block1	congruent/STIM_027.jpg	100
1110.826	0.687	686.8	congruent	Block1	congruent/STIM_027.jpg	99
1115.007	0.454	454.5	congruent	Block1	congruent/STIM_027.jpg	99
1118.95	0.639	639.2	congruent	Block1	congruent/STIM_027.jpg	100
1122.683	0.655	655.2	congruent	Block1	congruent/STIM_027.jpg	100
1125.824	0.687	687.3	congruent	Block1	congruent/STIM_028.jpg	100
1128.724	0.776	775.7	congruent	Block1	congruent/STIM_028.jpg	100
1132.53	0.54	540.5	congruent	Block1	congruent/STIM_028.jpg	99
1135.328	0.529	528.8	congruent	Block1	congruent/STIM_028.jpg	99
1138.453	0.549	548.8	congruent	Block1	congruent/STIM_028.jpg	99
1141.745	0.777	776.9	congruent	Block1	congruent/STIM_029.jpg	100
1145.783	0.506	505.6	congruent	Block1	congruent/STIM_029.jpg	100
1148.371	0.557	556.8	congruent	Block1	congruent/STIM_029.jpg	100
1152.002	0.506	506.4	congruent	Block1	congruent/STIM_029.jpg	99
1154.896	0.606	606.2	congruent	Block1	congruent/STIM_029.jpg	99
1158.281	0.813	813.0	incongruent	Block2	incongruent/STIM_000.jpg	100
1161.896	1.051	1051.4	incongruent	Block2	incongruent/STIM_000.jpg	100
1165.266	0.533	532.7	incongruent	Block2	incongruent/STIM_000.jpg	100
1168.174	0.882	881.8	incongruent	Block2	incongruent/STIM_000.jpg	100
1172.277	0.574	574.4	incongruent	Block2	incongruent/STIM_000.jpg	99
1175.585	0.692	691.6	incongruent	Block2	incongruent/STIM_001.jpg	99
1178.397	0.515	515.4	incongruent	Block2	incongruent/STIM_001.jpg	99
1182.827	0.698	698.4	incongruent	Block2	incongruent/STIM_001.jpg	99
1185.839	0.733	732.7	incongruent	Block2	incongruent/STIM_001.jpg	99
1189.845	0.855	855.4	incongruent	Block2	incongruent/STIM_001.jpg	100
1192.94	0.596	595.8	incongruent	Block2	incongruent/STIM_002.jpg	100
1197.008	0.727	727.1	incongruent	Block2	incongruent/STIM_002.jpg	100
1200.179	0.892	892.0	incongruent	Block2	incongruent/STIM_002.jpg	99
1204.494	0.914	914.0	incongruent	Block2	incongruent/STIM_002.jpg	100
1208.662	0.476	475.6	incongruent	Block2	incongruent/STIM_002.jpg	99
1211.596	1.001	1000.9	incongruent	Block2	incongruent/STIM_003.jpg	99
1216.596	0.499	499.2	incongruent	Block2	incongruent/STIM_003.jpg	99
1220.318	0.494	494.2	incongruent	Block2	incongruent/STIM_003.jpg	99
1223.463	0.792	791.9	incongruent	Block2	incongruent/STIM_003.jpg	100
1228.017	0.534	534.2	incongruent	Block2	incongruent/STIM_003.jpg	99
1231.257	0.854	854.5	incongruent	Block2	incongruent/STIM_004.jpg	100
1235.719	0.511	511.1	incongruent	Block2	incongruent/STIM_004.jpg	100
1240.2	0.955	954.7	incongruent	Block2	incongruent/STIM_004.jpg	100
1244.458	0.535	534.7	incongruent	Block2	incongruent/STIM_004.jpg	99
1248.983	0.501	501.0	incongruent	Block2	incongruent/STIM_004.jpg	100
1251.554	0.801	801.3	incongruent	Block2	incongruent/STIM_005.jpg	99
1255.477	0.769	769.3	incongruent	Block2	incongruent/STIM_005.jpg	99
1259.168	0.592	592.5	incongruent	Block2	incongruent/STIM_005.jpg	99
1262.17	0.517	516.7	incongruent	Block2	incongruent/STIM_005.jpg	100
1266.112	0.518	517.5	incongruent	Block2	incongruent/STIM_005.jpg	99
1269.95	0.796	795.6	incongruent	Block2	incongruent/STIM_006.jpg	99
1273.06	0.693	692.9	incongruent	Block2	incongruent/STIM_006.jpg	100
1277.124	0.94	940.2	incongruent	Block2	incongruent/STIM_006.jpg	100
1280.482	0.764	763.5	incongruent	Block2	incongruent/STIM_006.jpg	100
1285.016	0.698	698.4	incongruent	Block2	incongruent/STIM_006.jpg	99
1288.444	0.92	920.0	incongruent	Block2	incongruent/STIM_007.jpg	100
1292.668	0.682	681.5	incongruent	Block2	incongruent/STIM_007.jpg	100
1295.909	0.975	974.7	incongruent	Block2	incongruent/STIM_007.jpg	100
1299.073	0.635	635.2	incongruent	Block2	incongruent/STIM_007.jpg	99
1303.175	0.473	472.8	incongruent	Block2	incongruent/STIM_007.jpg	99
1306.236	1.048	1048.5	incongruent	Block2	incongruent/STIM_008.jpg	99
1311.203	0.704	704.0	incongruent	Block2	incongruent/STIM_008.jpg	99
1315.339	0.959	958.9	incongruent	Block2	incongruent/STIM_008.jpg	99
1319.79	0.634	634.4	incongruent	Block2	incongruent/STIM_008.jpg	99
1323.311	0.69	689.8	incongruent	Block2	incongruent/STIM_008.jpg	100
1327.741	0.872	872.1	incongruent	Block2	incongruent/STIM_009.jpg	100
1331.807	0.856	856.2	incongruent	Block2	incongruent/STIM_009.jpg	100
1336.448	0.497	497.3	incongruent	Block2	incongruent/STIM_009.jpg	100
1339.101	0.68	679.8	incongruent	Block2	incongruent/STIM_009.jpg	99
1342.57	0.564	563.9	incongruent	Block2	incongruent/STIM_009.jpg	99
1346.127	1.062	1062.5	incongruent	Block2	incongruent/STIM_010.jpg	100
1350.36	1.051	1051.4	incongruent	Block2	incongruent/STIM_010.jpg	100
1354.264	0.567	567.0	incongruent	Block2	incongruent/STIM_010.jpg	99
1357.297	0.476	475.5	incongruent	Block2	incongruent/STIM_010.jpg	100
1361.041	0.546	546.0	incongruent	Block2	incongruent/STIM_010.jpg	100
1363.789	0.886	886.5	incongruent	Block2	incongruent/STIM_011.jpg	100
1368.679	0.592	592.2	incongruent	Block2	incongruent/STIM_011.jpg	100
1371.74	0.678	678.5	incongruent	Block2	incongruent/STIM_011.jpg	100
1375.268	0.816	815.7	incongruent	Block2	incongruent/STIM_011.jpg	100
1379.162	0.528	527.5	incongruent	Block2	incongruent/STIM_011.jpg	100
1383.705	1.068	1068.1	incongruent	Block2	incongruent/STIM_012.jpg	99
1387.036	0.732	732.5	incongruent	Block2	incongruent/STIM_012.jpg	100
1390.355	0.704	704.3	incongruent	Block2	incongruent/STIM_012.jpg	99
1393.449	0.535	535.3	incongruent	Block2	incongruent/STIM_012.jpg	99
1396.253	0.62	619.5	incongruent	Block2	incongruent/STIM_012.jpg	100
1400.14	0.988	987.9	incongruent	Block2	incongruent/STIM_013.jpg	99
1404.18	1.038	1037.5	incongruent	Block2	incongruent/STIM_013.jpg	99
1407.602	0.594	594.0	incongruent	Block2	incongruent/STIM_013.jpg	100
1410.634	0.708	707.9	incongruent	Block2	incongruent/STIM_013.jpg	100
1414.84	0.914	914.0	incongruent	Block2	incongruent/STIM_013.jpg	100
1418.244	0.639	638.8	incongruent	Block2	incongruent/STIM_014.jpg	100
1421.657	0.575	575.4	incongruent	Block2	incongruent/STIM_014.jpg	99
1425.859	0.725	725.3	incongruent	Block2	incongruent/STIM_014.jpg	99
1429.052	0.5	500.0	incongruent	Block2	incongruent/STIM_014.jpg	99
1432.689	0.799	798.9	incongruent	Block2	incongruent/STIM_014.jpg	100
1435.731	1.115	1115.1	incongruent	Block2	incongruent/STIM_015.jpg	100
1439.338	0.646	645.5	incongruent	Block2	incongruent/STIM_015.jpg	99
1442.774	0.925	924.7	incongruent	Block2	incongruent/STIM_015.jpg	100
1447.08	0.737	737.2	incongruent	Block2	incongruent/STIM_015.jpg	99
1451.701	0.77	770.3	incongruent	Block2	incongruent/STIM_015.jpg	99
1455.271	1.102	1101.8	incongruent	Block2	incongruent/STIM_016.jpg	100
1458.801	0.849	848.7	incongruent	Block2	incongruent/STIM_016.jpg	99
1461.976	0.876	876.5	incongruent	Block2	incongruent/STIM_016.jpg	100
1465.644	0.871	871.2	incongruent	Block2	incongruent/STIM_016.jpg	100
1470.588	0.707	707.1	incongruent	Block2	incongruent/STIM_016.jpg	99
1475.192	0.966	965.9	incongruent	Block2	incongruent/STIM_017.jpg	100
1479.114	0.716	716.2	incongruent	Block2	incongruent/STIM_017.jpg	100
1482.005	0.489	488.6	incongruent	Block2	incongruent/STIM_017.jpg	99
1485.426	0.92	920.3	incongruent	Block2	incongruent/STIM_017.jpg	100
1488.778	0.458	457.8	incongruent	Block2	incongruent/STIM_017.jpg	99
1491.757	0.885	884.7	incongruent	Block2	incongruent/STIM_018.jpg	99
1496.087	0.603	602.6	incongruent	Block2	incongruent/STIM_018.jpg	100
1498.83	0.832	831.7	incongruent	Block2	incongruent/STIM_018.jpg	100
1503.447	0.638	637.7	incongruent	Block2	incongruent/STIM_018.jpg	100
1507.857	0.541	540.6	incongruent	Block2	incongruent/STIM_018.jpg	100
1511.048	1.029	1029.3	incongruent	Block2	incongruent/STIM_019.jpg	99
1515.485	0.986	986.0	incongruent	Block2	incongruent/STIM_019.jpg	100
1518.961	0.667	667.4	incongruent	Block2	incongruent/STIM_019.jpg	100
1522.955	0.681	680.6	incongruent	Block2	incongruent/STIM_019.jpg	99
1527.446	0.868	867.6	incongruent	Block2	incongruent/STIM_019.jpg	100
1531.517	0.797	796.8	incongruent	Block2	incongruent/STIM_020.jpg	99
1534.514	0.731	731.0	incongruent	Block2	incongruent/STIM_020.jpg	100
1537.672	0.629	629.3	incongruent	Block2	incongruent/STIM_020.jpg	99
1542.048	0.909	909.4	incongruent	Block2	incongruent/STIM_020.jpg	99
1546.996	0.458	457.9	incongruent	Block2	incongruent/STIM_020.jpg	100
1549.847	0.747	747.0	incongruent	Block2	incongruent/STIM_021.jpg	100
1554.198	0.537	537.4	incongruent	Block2	incongruent/STIM_021.jpg	99
1557.685	0.887	887.0	incongruent	Block2	incongruent/STIM_021.jpg	100
1561.62	0.494	493.7	incongruent	Block2	incongruent/STIM_021.jpg	99
1565.927	0.442	441.7	incongruent	Block2	incongruent/STIM_021.jpg	99
1570.183	0.696	695.7	incongruent	Block2	incongruent/STIM_022.jpg	100
1573.29	0.721	720.7	incongruent	Block2	incongruent/STIM_022.jpg	100
1577.796	0.619	619.4	incongruent	Block2	incongruent/STIM_022.jpg	99
1580.944	0.722	721.9	incongruent	Block2	incongruent/STIM_022.jpg	100
1584.162	0.482	481.5	incongruent	Block2	incongruent/STIM_022.jpg	100
1588.208	0.996	996.0	incongruent	Block2	incongruent/STIM_023.jpg	99
1591.854	0.872	872.4	incongruent	Block2	incongruent/STIM_023.jpg	99
1596.396	0.91	909.9	incongruent	Block2	incongruent/STIM_023.jpg	99
1599.563	0.677	677.0	incongruent	Block2	incongruent/STIM_023.jpg	99
1603.427	0.832	831.6	incongruent	Block2	incongruent/STIM_023.jpg	100
1607.809	0.973	972.9	incongruent	Block2	incongruent/STIM_024.jpg	99
1611.192	1.024	1023.6	incongruent	Block2	incongruent/STIM_024.jpg	100
1614.798	0.949	949.2	incongruent	Block2	incongruent/STIM_024.jpg	99
1618.972	0.648	648.0	incongruent	Block2	incongruent/STIM_024.jpg	99
1623.205	0.479	479.2	incongruent	Block2	incongruent/STIM_024.jpg	99
1626.686	0.658	657.7	incongruent	Block2	incongruent/STIM_025.jpg	100
1630.38	0.881	881.2	incongruent	Block2	incongruent/STIM_025.jpg	99
1633.544	0.591	590.8	incongruent	Block2	incongruent/STIM_025.jpg	99
1638.044	0.449	448.7	incongruent	Block2	incongruent/STIM_025.jpg	99
1641.352	0.435	434.7	incongruent	Block2	incongruent/STIM_025.jpg	100
1645.205	1.049	1049.3	incongruent	Block2	incongruent/STIM_026.jpg	99
1649.929	0.819	819.3	incongruent	Block2	incongruent/STIM_026.jpg	100
1653.656	0.779	778.8	incongruent	Block2	incongruent/STIM_026.jpg	99
1657.292	0.587	586.6	incongruent	Block2	incongruent/STIM_026.jpg	99
1660.533	0.502	501.7	incongruent	Block2	incongruent/STIM_026.jpg	99
1663.744	0.729	728.8	incongruent	Block2	incongruent/STIM_027.jpg	100
1666.584	0.922	922.2	incongruent	Block2	incongruent/STIM_027.jpg	99
1670.798	0.973	972.7	incongruent	Block2	incongruent/STIM_027.jpg	100
1674.469	0.472	472.3	incongruent	Block2	incongruent/STIM_027.jpg	100
1677.401	0.715	715.2	incongruent	Block2	incongruent/STIM_027.jpg	99
1682.129	0.737	736.7	incongruent	Block2	incongruent/STIM_028.jpg	100
1685.744	0.536	535.5	incongruent	Block2	incongruent/STIM_028.jpg	99
1690.334	0.546	546.3	incongruent	Block2	incongruent/STIM_028.jpg	100
1693.628	0.897	897.0	incongruent	Block2	incongruent/STIM_028.jpg	100
1698.222	0.56	560.5	incongruent	Block2	incongruent/STIM_028.jpg	100
1700.915	1.031	1030.8	incongruent	Block2	incongruent/STIM_029.jpg	99
1705.522	0.911	911.4	incongruent	Block2	incongruent/STIM_029.jpg	99
1709.354	0.83	830.0	incongruent	Block2	incongruent/STIM_029.jpg	100
1712.605	0.78	779.6	incongruent	Block2	incongruent/STIM_029.jpg	99
1715.546	0.651	651.1	incongruent	Block2	incongruent/STIM_029.jpg	100
1719.314	0.675	675.4	congruent	Block2	congruent/STIM_000.jpg	99
1723.784	0.467	467.0	congruent	Block2	congruent/STIM_000.jpg	99
1726.806	0.586	585.9	congruent	Block2	congruent/STIM_000.jpg	100
1730.439	0.6	599.5	congruent	Block2	congruent/STIM_000.jpg	99
1734.645	0.529	529.3	congruent	Block2	congruent/STIM_000.jpg	100
1738.417	0.565	565.4	congruent	Block2	congruent/STIM_001.jpg	100
1741.355	0.58	579.6	congruent	Block2	congruent/STIM_001.jpg	100
1744.112	0.485	484.8	congruent	Block2	congruent/STIM_001.jpg	99
1746.851	0.727	726.8	congruent	Block2	congruent/STIM_001.jpg	100
1750.758	0.451	450.6	congruent	Block2	congruent/STIM_001.jpg	100
1755.0	0.711	710.7	congruent	Block2	congruent/STIM_002.jpg	99
1759.645	0.477	476.9	congruent	Block2	congruent/STIM_002.jpg	100
1762.212	0.58	580.5	congruent	Block2	congruent/STIM_002.jpg	100
1765.72	0.669	669.0	congruent	Block2	congruent/STIM_002.jpg	99
1769.493	0.477	476.8	congruent	Block2	congruent/STIM_002.jpg	100
1772.049	0.449	449.2	congruent	Block2	congruent/STIM_003.jpg	99
1775.683	0.622	622.2	congruent	Block2	congruent/STIM_003.jpg	99
1778.517	0.569	568.9	congruent	Block2	congruent/STIM_003.jpg	100
1782.455	0.551	551.1	congruent	Block2	congruent/STIM_003.jpg	100
1785.193	0.449	449.0	congruent	Block2	congruent/STIM_003.jpg	99
1788.681	0.563	563.4	congruent	Block2	congruent/STIM_004.jpg	100
1791.491	0.7	699.6	congruent	Block2	congruent/STIM_004.jpg	99
1794.746	0.492	491.5	congruent	Block2	congruent/STIM_004.jpg	100
1798.277	0.514	513.9	congruent	Block2	congruent/STIM_004.jpg	99
1802.291	0.61	609.6	congruent	Block2	congruent/STIM_004.jpg	99
1805.533	0.594	593.8	congruent	Block2	congruent/STIM_005.jpg	100
1808.768	0.499	499.3	congruent	Block2	congruent/STIM_005.jpg	99
1811.374	0.732	732.3	congruent	Block2	congruent/STIM_005.jpg	99
1814.859	0.586	586.2	congruent	Block2	congruent/STIM_005.jpg	100
1818.365	0.532	532.5	congruent	Block2	congruent/STIM_005.jpg	100
1822.563	0.448	448.0	congruent	Block2	congruent/STIM_006.jpg	99
1826.721	0.791	791.4	congruent	Block2	congruent/STIM_006.jpg	99
1830.241	0.779	778.6	congruent	Block2	congruent/STIM_006.jpg	100
1834.924	0.788	787.9	congruent	Block2	congruent/STIM_006.jpg	99
1838.044	0.669	668.7	congruent	Block2	congruent/STIM_006.jpg	100
1841.94	0.515	515.0	congruent	Block2	congruent/STIM_007.jpg	100
1844.732	0.609	609.4	congruent	Block2	congruent/STIM_007.jpg	99
1847.738	0.711	711.2	congruent	Block2	congruent/STIM_007.jpg	99
1850.564	0.49	489.8	congruent	Block2	congruent/STIM_007.jpg	100
1853.791	0.484	483.5	congruent	Block2	congruent/STIM_007.jpg	99
1857.553	0.563	563.1	congruent	Block2	congruent/STIM_008.jpg	99
1861.602	0.494	494.4	congruent	Block2	congruent/STIM_008.jpg	99
1865.292	0.475	475.3	congruent	Block2	congruent/STIM_008.jpg	99
1869.095	0.784	784.2	congruent	Block2	congruent/STIM_008.jpg	100
1873.679	0.617	617.1	congruent	Block2	congruent/STIM_008.jpg	99
1876.415	0.489	488.6	congruent	Block2	congruent/STIM_009.jpg	99
1880.903	0.628	627.9	congruent	Block2	congruent/STIM_009.jpg	99
1883.944	0.504	503.8	congruent	Block2	congruent/STIM_009.jpg	99
1886.813	0.735	735.1	congruent	Block2	congruent/STIM_009.jpg	99
1890.054	0.632	632.3	congruent	Block2	congruent/STIM_009.jpg	100
1894.586	0.654	654.2	congruent	Block2	congruent/STIM_010.jpg	99
1897.4	0.454	454.4	congruent	Block2	congruent/STIM_010.jpg	100
1901.229	0.605	604.7	congruent	Block2	congruent/STIM_010.jpg	99
1904.608	0.526	526.4	congruent	Block2	congruent/STIM_010.jpg	100
1907.544	0.696	695.6	congruent	Block2	congruent/STIM_010.jpg	99
1911.403	0.593	593.2	congruent	Block2	congruent/STIM_011.jpg	99
1915.218	0.79	790.4	congruent	Block2	congruent/STIM_011.jpg	99
1919.393	0.483	482.6	congruent	Block2	congruent/STIM_011.jpg	99
1922.739	0.589	589.1	congruent	Block2	congruent/STIM_011.jpg	100
1927.363	0.477	477.1	congruent	Block2	congruent/STIM_011.jpg	100
1931.716	0.544	544.3	congruent	Block2	congruent/STIM_012.jpg	99
1936.262	0.506	506.3	congruent	Block2	congruent/STIM_012.jpg	100
1939.554	0.753	752.8	congruent	Block2	congruent/STIM_012.jpg	99
1944.076	0.494	493.7	congruent	Block2	congruent/STIM_012.jpg	99
1947.444	0.629	629.3	congruent	Block2	congruent/STIM_012.jpg	100
1951.798	0.646	645.5	congruent	Block2	congruent/STIM_013.jpg	99
1954.535	0.516	515.6	congruent	Block2	congruent/STIM_013.jpg	100
1958.86	0.627	626.9	congruent	Block2	congruent/STIM_013.jpg	99
1961.612	0.61	609.6	congruent	Block2	congruent/STIM_013.jpg	100
1965.989	0.491	491.0	congruent	Block2	congruent/STIM_013.jpg	100
1969.792	0.501	500.6	congruent	Block2	congruent/STIM_014.jpg	100
1972.91	0.523	522.6	congruent	Block2	congruent/STIM_014.jpg	100
1976.142	0.54	540.0	congruent	Block2	congruent/STIM_014.jpg	99
1978.778	0.658	657.7	congruent	Block2	congruent/STIM_014.jpg	99
1982.099	0.783	783.4	congruent	Block2	congruent/STIM_014.jpg	100
1986.083	0.721	721.4	congruent	Block2	congruent/STIM_015.jpg	100
1989.257	0.732	731.7	congruent	Block2	congruent/STIM_015.jpg	100
1992.937	0.453	453.3	congruent	Block2	congruent/STIM_015.jpg	100
1995.615	0.748	748.3	congruent	Block2	congruent/STIM_015.jpg	100
2000.19	0.466	465.9	congruent	Block2	congruent/STIM_015.jpg	100
2002.941	0.456	455.9	congruent	Block2	congruent/STIM_016.jpg	100
2006.365	0.69	689.9	congruent	Block2	congruent/STIM_016.jpg	100
2009.264	0.568	568.4	congruent	Block2	congruent/STIM_016.jpg	100
2012.875	0.477	477.1	congruent	Block2	congruent/STIM_016.jpg	99
2016.796	0.564	563.5	congruent	Block2	congruent/STIM_016.jpg	99
2020.991	0.743	742.6	congruent	Block2	congruent/STIM_017.jpg	100
2024.312	0.718	717.7	congruent	Block2	congruent/STIM_017.jpg	100
2027.799	0.769	769.0	congruent	Block2	congruent/STIM_017.jpg	100
2031.572	0.585	585.3	congruent	Block2	congruent/STIM_017.jpg	100
2036.203	0.78	779.7	congruent	Block2	congruent/STIM_017.jpg	100
2039.73	0.68	680.3	congruent	Block2	congruent/STIM_018.jpg	100
2043.125	0.448	447.8	congruent	Block2	congruent/STIM_018.jpg	100
2046.198	0.496	496.0	congruent	Block2	congruent/STIM_018.jpg	100
2050.477	0.748	748.5	congruent	Block2	congruent/STIM_018.jpg	99
2053.824	0.664	664.5	congruent	Block2	congruent/STIM_018.jpg	99
2058.01	0.692	691.6	congruent	Block2	congruent/STIM_019.jpg	99
2061.025	0.747	747.2	congruent	Block2	congruent/STIM_019.jpg	99
2065.859	0.778	778.0	congruent	Block2	congruent/STIM_019.jpg	100
2068.906	0.719	719.3	congruent	Block2	congruent/STIM_019.jpg	99
2072.911	0.455	455.3	congruent	Block2	congruent/STIM_019.jpg	100
2077.279	0.457	457.3	congruent	Block2	congruent/STIM_020.jpg	99
2080.026	0.451	450.7	congruent	Block2	congruent/STIM_020.jpg	99
2083.177	0.558	558.5	congruent	Block2	congruent/STIM_020.jpg	100
2086.432	0.616	616.2	congruent	Block2	congruent/STIM_020.jpg	99
2089.599	0.512	512.0	congruent	Block2	congruent/STIM_020.jpg	99
2092.411	0.547	546.8	congruent	Block2	congruent/STIM_021.jpg	99
2096.422	0.661	660.6	congruent	Block2	congruent/STIM_021.jpg	100
2100.651	0.56	560.3	congruent	Block2	congruent/STIM_021.jpg	99
2105.172	0.637	636.8	congruent	Block2	congruent/STIM_021.jpg	99
2109.808	0.594	594.5	congruent	Block2	congruent/STIM_021.jpg	100
2113.489	0.66	660.4	congruent	Block2	congruent/STIM_022.jpg	100
2116.34	0.733	732.7	congruent	Block2	congruent/STIM_022.jpg	100
2120.297	0.443	442.9	congruent	Block2	congruent/STIM_022.jpg	99
2124.651	0.48	479.5	congruent	Block2	congruent/STIM_022.jpg	99
2128.617	0.645	644.9	congruent	Block2	congruent/STIM_022.jpg	99
2132.792	0.551	550.9	congruent	Block2	congruent/STIM_023.jpg	99
2135.461	0.605	604.6	congruent	Block2	congruent/STIM_023.jpg	99
2138.249	0.715	714.6	congruent	Block2	congruent/STIM_023.jpg	99
2142.547	0.67	669.5	congruent	Block2	congruent/STIM_023.jpg	99
2145.537	0.559	559.0	congruent	Block2	congruent/STIM_023.jpg	100
2148.242	0.768	767.7	congruent	Block2	congruent/STIM_024.jpg	99
2151.814	0.712	712.0	congruent	Block2	congruent/STIM_024.jpg	99
2156.057	0.784	784.0	congruent	Block2	congruent/STIM_024.jpg	99
2160.746	0.522	522.5	congruent	Block2	congruent/STIM_024.jpg	100
2164.284	0.707	707.3	congruent	Block2	congruent/STIM_024.jpg	99
2168.327	0.608	608.4	congruent	Block2	congruent/STIM_025.jpg	99
2171.415	0.477	477.4	congruent	Block2	congruent/STIM_025.jpg	99
2175.181	0.517	517.0	congruent	Block2	congruent/STIM_025.jpg	99
2178.698	0.597	596.7	congruent	Block2	congruent/STIM_025.jpg	99
2182.55	0.68	680.1	congruent	Block2	congruent/STIM_025.jpg	99
2185.427	0.639	639.2	congruent	Block2	congruent/STIM_026.jpg	99
2188.698	0.496	496.4	congruent	Block2	congruent/STIM_026.jpg	100
2193.094	0.683	683.4	congruent	Block2	congruent/STIM_026.jpg	99
2196.498	0.608	607.7	congruent	Block2	congruent/STIM_026.jpg	100
2199.206	0.765	765.3	congruent	Block2	congruent/STIM_026.jpg	99
2202.979	0.724	724.2	congruent	Block2	congruent/STIM_027.jpg	100
2207.166	0.522	521.7	congruent	Block2	congruent/STIM_027.jpg	100
2209.81	0.518	518.0	congruent	Block2	congruent/STIM_027.jpg	99
2214.025	0.448	448.5	congruent	Block2	congruent/STIM_027.jpg	99
2216.813	0.532	532.3	congruent	Block2	congruent/STIM_027.jpg	100
2220.393	0.671	671.3	congruent	Block2	congruent/STIM_028.jpg	99
2224.29	0.77	770.1	congruent	Block2	congruent/STIM_028.jpg	100
2227.905	0.772	771.6	congruent	Block2	congruent/STIM_028.jpg	100
2231.345	0.501	501.1	congruent	Block2	congruent/STIM_028.jpg	99
2235.642	0.655	655.3	congruent	Block2	congruent/STIM_028.jpg	100
2238.926	0.53	529.6	congruent	Block2	congruent/STIM_029.jpg	99
2243.278	0.757	756.9	congruent	Block2	congruent/STIM_029.jpg	99
2246.976	0.731	731.2	congruent	Block2	congruent/STIM_029.jpg	100
2250.673	0.629	628.8	congruent	Block2	congruent/STIM_029.jpg	99
2254.313	0.484	483.9	congruent	Block2	congruent/STIM_029.jpg	100
2257.305	0.789	788.7	incongruent	Block3	incongruent/STIM_000.jpg	100
2261.518	0.695	694.7	incongruent	Block3	incongruent/STIM_000.jpg	99
2264.812	0.625	625.4	incongruent	Block3	incongruent/STIM_000.jpg	99
2268.957	0.642	642.3	incongruent	Block3	incongruent/STIM_000.jpg	99
2272.778	0.919	918.9	incongruent	Block3	incongruent/STIM_000.jpg	99
2276.689	0.711	711.1	incongruent	Block3	incongruent/STIM_001.jpg	99
2281.474	0.859	859.2	incongruent	Block3	incongruent/STIM_001.jpg	99
2286.332	0.519	518.8	incongruent	Block3	incongruent/STIM_001.jpg	99
2289.131	0.676	675.7	incongruent	Block3	incongruent/STIM_001.jpg	100
2293.445	0.631	631.1	incongruent	Block3	incongruent/STIM_001.jpg	100
2297.763	0.527	526.9	incongruent	Block3	incongruent/STIM_002.jpg	100
2301.537	0.832	832.2	incongruent	Block3	incongruent/STIM_002.jpg	100
2305.564	0.491	491.4	incongruent	Block3	incongruent/STIM_002.jpg	100
2309.744	0.817	816.7	incongruent	Block3	incongruent/STIM_002.jpg	99
2313.855	0.819	818.7	incongruent	Block3	incongruent/STIM_002.jpg	100
2318.015	0.589	589.1	incongruent	Block3	incongruent/STIM_003.jpg	100
2321.859	0.658	658.5	incongruent	Block3	incongruent/STIM_003.jpg	100
2325.763	0.554	553.9	incongruent	Block3	incongruent/STIM_003.jpg	100
2330.286	0.443	443.3	incongruent	Block3	incongruent/STIM_003.jpg	99
2333.553	0.656	656.3	incongruent	Block3	incongruent/STIM_003.jpg	99
2337.447	0.8	799.8	incongruent	Block3	incongruent/STIM_004.jpg	99
2340.976	0.805	805.4	incongruent	Block3	incongruent/STIM_004.jpg	99
2344.423	0.675	675.2	incongruent	Block3	incongruent/STIM_004.jpg	99
2347.86	0.439	439.4	incongruent	Block3	incongruent/STIM_004.jpg	99
2350.744	0.653	653.4	incongruent	Block3	incongruent/STIM_004.jpg	100
2353.578	0.513	512.9	incongruent	Block3	incongruent/STIM_005.jpg	100
2357.719	0.439	438.8	incongruent	Block3	incongruent/STIM_005.jpg	100
2360.503	0.504	504.4	incongruent	Block3	incongruent/STIM_005.jpg	100
2363.603	0.904	903.7	incongruent	Block3	incongruent/STIM_005.jpg	100
2367.4	0.875	874.6	incongruent	Block3	incongruent/STIM_005.jpg	100
2371.209	0.537	537.2	incongruent	Block3	incongruent/STIM_006.jpg	100
2374.381	0.581	580.8	incongruent	Block3	incongruent/STIM_006.jpg	99
2378.314	0.811	810.7	incongruent	Block3	incongruent/STIM_006.jpg	99
2382.154	0.829	829.2	incongruent	Block3	incongruent/STIM_006.jpg	100
2386.572	0.882	881.9	incongruent	Block3	incongruent/STIM_006.jpg	100
2390.1	0.719	718.6	incongruent	Block3	incongruent/STIM_007.jpg	100
2394.162	0.507	507.5	incongruent	Block3	incongruent/STIM_007.jpg	99
2398.223	0.785	784.8	incongruent	Block3	incongruent/STIM_007.jpg	100
2402.996	0.62	619.5	incongruent	Block3	incongruent/STIM_007.jpg	100
2407.298	0.645	644.8	incongruent	Block3	incongruent/STIM_007.jpg	100
2410.804	0.799	798.6	incongruent	Block3	incongruent/STIM_008.jpg	100
2414.716	0.514	513.8	incongruent	Block3	incongruent/STIM_008.jpg	99
2418.198	0.743	742.9	incongruent	Block3	incongruent/STIM_008.jpg	100
2422.222	0.649	648.9	incongruent	Block3	incongruent/STIM_008.jpg	100
2426.529	0.501	500.6	incongruent	Block3	incongruent/STIM_008.jpg	100
2430.376	0.685	684.6	incongruent	Block3	incongruent/STIM_009.jpg	99
2434.033	0.849	849.0	incongruent	Block3	incongruent/STIM_009.jpg	100
2438.781	0.678	678.1	incongruent	Block3	incongruent/STIM_009.jpg	100
2442.63	0.483	483.4	incongruent	Block3	incongruent/STIM_009.jpg	99
2445.369	0.796	795.9	incongruent	Block3	incongruent/STIM_009.jpg	100
2449.92	0.647	646.9	incongruent	Block3	incongruent/STIM_010.jpg	99
2454.396	0.674	674.0	incongruent	Block3	incongruent/STIM_010.jpg	100
2458.34	0.797	797.2	incongruent	Block3	incongruent/STIM_010.jpg	100
2461.718	0.783	783.4	incongruent	Block3	incongruent/STIM_010.jpg	99
2464.958	0.634	633.6	incongruent	Block3	incongruent/STIM_010.jpg	99
2468.494	0.71	710.1	incongruent	Block3	incongruent/STIM_011.jpg	99
2471.532	0.524	524.5	incongruent	Block3	incongruent/STIM_011.jpg	100
2474.945	0.869	868.8	incongruent	Block3	incongruent/STIM_011.jpg	99
2479.272	0.845	845.4	incongruent	Block3	incongruent/STIM_011.jpg	100
2483.032	0.746	745.8	incongruent	Block3	incongruent/STIM_011.jpg	100
2486.084	0.754	754.2	incongruent	Block3	incongruent/STIM_012.jpg	100
2490.143	0.788	788.4	incongruent	Block3	incongruent/STIM_012.jpg	100
2494.105	0.721	721.2	incongruent	Block3	incongruent/STIM_012.jpg	100
2498.894	0.896	896.1	incongruent	Block3	incongruent/STIM_012.jpg	100
2502.624	0.493	493.1	incongruent	Block3	incongruent/STIM_012.jpg	100
2506.742	0.59	590.2	incongruent	Block3	incongruent/STIM_013.jpg	100
2511.028	0.797	796.8	incongruent	Block3	incongruent/STIM_013.jpg	100
2514.428	0.911	910.6	incongruent	Block3	incongruent/STIM_013.jpg	100
2518.736	0.539	539.4	incongruent	Block3	incongruent/STIM_013.jpg	99
2522.408	0.549	549.2	incongruent	Block3	incongruent/STIM_013.jpg	100
2527.001	0.602	602.1	incongruent	Block3	incongruent/STIM_014.jpg	100
2530.766	0.449	449.2	incongruent	Block3	incongruent/STIM_014.jpg	99
2534.088	0.778	778.4	incongruent	Block3	incongruent/STIM_014.jpg	100
2537.928	0.451	451.4	incongruent	Block3	incongruent/STIM_014.jpg	100
2540.739	0.842	842.3	incongruent	Block3	incongruent/STIM_014.jpg	99
2545.17	0.867	866.8	incongruent	Block3	incongruent/STIM_015.jpg	99
2549.961	0.715	714.9	incongruent	Block3	incongruent/STIM_015.jpg	100
2553.377	0.48	480.2	incongruent	Block3	incongruent/STIM_015.jpg	99
2556.42	0.515	514.8	incongruent	Block3	incongruent/STIM_015.jpg	99
2560.034	0.838	838.0	incongruent	Block3	incongruent/STIM_015.jpg	99
2564.503	0.715	714.6	incongruent	Block3	incongruent/STIM_016.jpg	100
2567.422	0.869	869.4	incongruent	Block3	incongruent/STIM_016.jpg	100
2572.206	0.645	644.7	incongruent	Block3	incongruent/STIM_016.jpg	99
2574.959	0.532	531.6	incongruent	Block3	incongruent/STIM_016.jpg	99
2578.507	0.456	456.2	incongruent	Block3	incongruent/STIM_016.jpg	99
2581.724	0.45	449.5	incongruent	Block3	incongruent/STIM_017.jpg	100
2585.718	0.842	842.4	incongruent	Block3	incongruent/STIM_017.jpg	99
2589.193	0.724	724.3	incongruent	Block3	incongruent/STIM_017.jpg	99
2592.801	0.847	847.2	incongruent	Block3	incongruent/STIM_017.jpg	99
2597.111	0.839	838.9	incongruent	Block3	incongruent/STIM_017.jpg	100
2602.007	0.608	608.1	incongruent	Block3	incongruent/STIM_018.jpg	100
2605.508	0.649	649.2	incongruent	Block3	incongruent/STIM_018.jpg	99
2609.897	0.852	851.6	incongruent	Block3	incongruent/STIM_018.jpg	100
2613.839	0.846	846.5	incongruent	Block3	incongruent/STIM_018.jpg	99
2618.223	0.664	663.9	incongruent	Block3	incongruent/STIM_018.jpg	100
2621.654	0.507	507.5	incongruent	Block3	incongruent/STIM_019.jpg	100
2625.544	0.621	621.2	incongruent	Block3	incongruent/STIM_019.jpg	99
2629.307	0.545	544.9	incongruent	Block3	incongruent/STIM_019.jpg	100
2633.637	0.528	528.4	incongruent	Block3	incongruent/STIM_019.jpg	99
2638.059	0.581	581.1	incongruent	Block3	incongruent/STIM_019.jpg	100
2642.094	0.504	503.9	incongruent	Block3	incongruent/STIM_020.jpg	99
2645.816	0.862	862.0	incongruent	Block3	incongruent/STIM_020.jpg	99
2650.082	0.756	756.0	incongruent	Block3	incongruent/STIM_020.jpg	99
2654.863	0.852	851.6	incongruent	Block3	incongruent/STIM_020.jpg	99
2657.861	0.805	805.1	incongruent	Block3	incongruent/STIM_020.jpg	99
2661.19	0.791	791.2	incongruent	Block3	incongruent/STIM_021.jpg	100
2665.969	0.506	505.6	incongruent	Block3	incongruent/STIM_021.jpg	100
2670.466	0.871	871.0	incongruent	Block3	incongruent/STIM_021.jpg	100
2674.698	0.517	517.0	incongruent	Block3	incongruent/STIM_021.jpg	99
2679.211	0.632	632.0	incongruent	Block3	incongruent/STIM_021.jpg	99
2683.767	0.873	873.3	incongruent	Block3	incongruent/STIM_022.jpg	99
2688.635	0.748	747.6	incongruent	Block3	incongruent/STIM_022.jpg	100
2692.042	0.457	457.4	incongruent	Block3	incongruent/STIM_022.jpg	99
2694.801	0.666	665.9	incongruent	Block3	incongruent/STIM_022.jpg	100
2698.078	0.728	728.2	incongruent	Block3	incongruent/STIM_022.jpg	99
2702.35	0.675	674.6	incongruent	Block3	incongruent/STIM_023.jpg	100
2705.729	0.806	805.5	incongruent	Block3	incongruent/STIM_023.jpg	99
2709.878	0.619	618.9	incongruent	Block3	incongruent/STIM_023.jpg	100
2714.073	0.834	834.1	incongruent	Block3	incongruent/STIM_023.jpg	100
2718.51	0.888	888.3	incongruent	Block3	incongruent/STIM_023.jpg	99
2721.634	0.432	431.8	incongruent	Block3	incongruent/STIM_024.jpg	100
2725.872	0.711	711.3	incongruent	Block3	incongruent/STIM_024.jpg	99
2729.788	0.799	799.0	incongruent	Block3	incongruent/STIM_024.jpg	99
2734.335	0.62	619.5	incongruent	Block3	incongruent/STIM_024.jpg	100
2738.254	0.739	739.4	incongruent	Block3	incongruent/STIM_024.jpg	100
2741.672	0.725	725.3	incongruent	Block3	incongruent/STIM_025.jpg	100
2745.91	0.845	844.7	incongruent	Block3	incongruent/STIM_025.jpg	99
2749.998	0.558	558.4	incongruent	Block3	incongruent/STIM_025.jpg	99
2753.589	0.631	631.1	incongruent	Block3	incongruent/STIM_025.jpg	99
2757.653	0.493	492.8	incongruent	Block3	incongruent/STIM_025.jpg	100
2760.761	0.66	659.7	incongruent	Block3	incongruent/STIM_026.jpg	99
2764.026	0.876	876.4	incongruent	Block3	incongruent/STIM_026.jpg	100
2767.204	0.587	586.7	incongruent	Block3	incongruent/STIM_026.jpg	99
2771.521	0.774	773.5	incongruent	Block3	incongruent/STIM_026.jpg	100
2775.239	0.77	769.5	incongruent	Block3	incongruent/STIM_026.jpg	99
2779.477	0.511	511.4	incongruent	Block3	incongruent/STIM_027.jpg	100
2782.396	0.816	816.1	incongruent	Block3	incongruent/STIM_027.jpg	100
2786.387	0.728	727.5	incongruent	Block3	incongruent/STIM_027.jpg	99
2790.03	0.631	631.4	incongruent	Block3	incongruent/STIM_027.jpg	99
2792.82	0.545	545.0	incongruent	Block3	incongruent/STIM_027.jpg	100
2795.786	0.786	785.8	incongruent	Block3	incongruent/STIM_028.jpg	100
2799.77	0.507	506.6	incongruent	Block3	incongruent/STIM_028.jpg	100
2802.762	0.565	564.6	incongruent	Block3	incongruent/STIM_028.jpg	99
2805.788	0.877	876.7	incongruent	Block3	incongruent/STIM_028.jpg	99
2810.579	0.562	562.4	incongruent	Block3	incongruent/STIM_028.jpg	99
2813.61	0.661	661.4	incongruent	Block3	incongruent/STIM_029.jpg	99
2817.514	0.835	835.2	incongruent	Block3	incongruent/STIM_029.jpg	100
2822.333	0.462	462.2	incongruent	Block3	incongruent/STIM_029.jpg	99
2826.18	0.721	721.3	incongruent	Block3	incongruent/STIM_029.jpg	99
2830.126	0.557	556.9	incongruent	Block3	incongruent/STIM_029.jpg	100
2833.127	0.566	565.7	congruent	Block3	congruent/STIM_000.jpg	99
2836.722	0.724	724.1	congruent	Block3	congruent/STIM_000.jpg	99
2841.498	0.637	636.8	congruent	Block3	congruent/STIM_000.jpg	99
2844.783	0.606	605.6	congruent	Block3	congruent/STIM_000.jpg	100
2847.784	0.446	446.1	congruent	Block3	congruent/STIM_000.jpg	99
2851.105	0.652	651.7	congruent	Block3	congruent/STIM_001.jpg	99
2854.961	0.501	501.2	congruent	Block3	congruent/STIM_001.jpg	99
2857.726	0.481	481.0	congruent	Block3	congruent/STIM_001.jpg	100
2861.435	0.449	448.8	congruent	Block3	congruent/STIM_001.jpg	99
2865.02	0.701	700.6	congruent	Block3	congruent/STIM_001.jpg	100
2869.12	0.47	469.8	congruent	Block3	congruent/STIM_002.jpg	99
2872.484	0.454	453.8	congruent	Block3	congruent/STIM_002.jpg	99
2876.61	0.6	600.5	congruent	Block3	congruent/STIM_002.jpg	100
2879.86	0.49	490.5	congruent	Block3	congruent/STIM_002.jpg	99
2883.143	0.763	763.2	congruent	Block3	congruent/STIM_002.jpg	100
2886.059	0.577	576.8	congruent	Block3	congruent/STIM_003.jpg	100
2889.063	0.659	658.6	congruent	Block3	congruent/STIM_003.jpg	99
2893.2	0.75	749.6	congruent	Block3	congruent/STIM_003.jpg	99
2897.986	0.471	471.0	congruent	Block3	congruent/STIM_003.jpg	99
2901.059	0.51	510.5	congruent	Block3	congruent/STIM_003.jpg	99
2904.834	0.719	718.6	congruent	Block3	congruent/STIM_004.jpg	100
2909.139	0.752	752.2	congruent	Block3	congruent/STIM_004.jpg	99
2913.321	0.6	599.8	congruent	Block3	congruent/STIM_004.jpg	100
2916.808	0.728	728.4	congruent	Block3	congruent/STIM_004.jpg	99
2920.494	0.736	736.0	congruent	Block3	congruent/STIM_004.jpg	100
2924.8	0.736	735.5	congruent	Block3	congruent/STIM_005.jpg	99
2928.74	0.624	624.3	congruent	Block3	congruent/STIM_005.jpg	99
2932.726	0.735	735.3	congruent	Block3	congruent/STIM_005.jpg	99
2937.055	0.466	465.8	congruent	Block3	congruent/STIM_005.jpg	100
2939.584	0.707	707.0	congruent	Block3	congruent/STIM_005.jpg	100
2942.715	0.603	603.0	congruent	Block3	congruent/STIM_006.jpg	100
2946.776	0.562	561.8	congruent	Block3	congruent/STIM_006.jpg	99
2950.785	0.704	704.3	congruent	Block3	congruent/STIM_006.jpg	99
2953.959	0.534	534.0	congruent	Block3	congruent/STIM_006.jpg	100
2957.452	0.582	582.1	congruent	Block3	congruent/STIM_006.jpg	99
2960.8	0.58	580.2	congruent	Block3	congruent/STIM_007.jpg	100
2963.544	0.644	643.9	congruent	Block3	congruent/STIM_007.jpg	100
2967.739	0.655	654.7	congruent	Block3	congruent/STIM_007.jpg	99
2970.614	0.585	585.2	congruent	Block3	congruent/STIM_007.jpg	100
2973.849	0.718	718.5	congruent	Block3	congruent/STIM_007.jpg	99
2977.513	0.496	496.4	congruent	Block3	congruent/STIM_008.jpg	99
2981.587	0.684	684.2	congruent	Block3	congruent/STIM_008.jpg	100
2985.307	0.618	618.0	congruent	Block3	congruent/STIM_008.jpg	99
2989.506	0.487	487.0	congruent	Block3	congruent/STIM_008.jpg	99
2992.926	0.469	469.3	congruent	Block3	congruent/STIM_008.jpg	99
2995.619	0.562	561.8	congruent	Block3	congruent/STIM_009.jpg	100
2998.482	0.685	684.8	congruent	Block3	congruent/STIM_009.jpg	99
3002.126	0.787	786.6	congruent	Block3	congruent/STIM_009.jpg	99
3005.961	0.533	532.9	congruent	Block3	congruent/STIM_009.jpg	99
3010.024	0.551	550.6	congruent	Block3	congruent/STIM_009.jpg	100
3013.058	0.742	742.1	congruent	Block3	congruent/STIM_010.jpg	100
3016.764	0.674	674.5	congruent	Block3	congruent/STIM_010.jpg	100
3020.047	0.685	685.4	congruent	Block3	congruent/STIM_010.jpg	99
3024.822	0.738	737.6	congruent	Block3	congruent/STIM_010.jpg	99
3027.846	0.49	489.6	congruent	Block3	congruent/STIM_010.jpg	100
3030.951	0.631	631.4	congruent	Block3	congruent/STIM_011.jpg	99
3034.559	0.441	441.1	congruent	Block3	congruent/STIM_011.jpg	100
3037.765	0.532	531.9	congruent	Block3	congruent/STIM_011.jpg	99
3040.979	0.608	607.7	congruent	Block3	congruent/STIM_011.jpg	100
3045.452	0.718	717.9	congruent	Block3	congruent/STIM_011.jpg	100
3048.872	0.535	534.7	congruent	Block3	congruent/STIM_012.jpg	100
3051.893	0.659	658.9	congruent	Block3	congruent/STIM_012.jpg	99
3054.864	0.492	492.2	congruent	Block3	congruent/STIM_012.jpg	100
3058.413	0.648	647.5	congruent	Block3	congruent/STIM_012.jpg	99
3061.594	0.703	702.8	congruent	Block3	congruent/STIM_012.jpg	100
3065.482	0.542	542.1	congruent	Block3	congruent/STIM_013.jpg	100
3068.369	0.638	638.0	congruent	Block3	congruent/STIM_013.jpg	100
3072.464	0.578	577.7	congruent	Block3	congruent/STIM_013.jpg	100
3075.525	0.598	598.0	congruent	Block3	congruent/STIM_013.jpg	100
3078.557	0.792	792.4	congruent	Block3	congruent/STIM_013.jpg	99
3082.47	0.605	605.4	congruent	Block3	congruent/STIM_014.jpg	100
3086.314	0.493	492.8	congruent	Block3	congruent/STIM_014.jpg	99
3089.844	0.674	674.4	congruent	Block3	congruent/STIM_014.jpg	99
3093.508	0.46	459.5	congruent	Block3	congruent/STIM_014.jpg	100
3097.626	0.761	760.8	congruent	Block3	congruent/STIM_014.jpg	99
3101.836	0.462	462.0	congruent	Block3	congruent/STIM_015.jpg	100
3105.216	0.512	511.8	congruent	Block3	congruent/STIM_015.jpg	99
3108.078	0.596	596.5	congruent	Block3	congruent/STIM_015.jpg	99
3110.972	0.477	477.3	congruent	Block3	congruent/STIM_015.jpg	99
3113.827	0.572	572.0	congruent	Block3	congruent/STIM_015.jpg	100
3117.293	0.742	742.1	congruent	Block3	congruent/STIM_016.jpg	99
3120.983	0.684	684.3	congruent	Block3	congruent/STIM_016.jpg	99
3125.236	0.646	646.5	congruent	Block3	congruent/STIM_016.jpg	99
3129.185	0.77	769.9	congruent	Block3	congruent/STIM_016.jpg	100
3133.241	0.65	649.8	congruent	Block3	congruent/STIM_016.jpg	100
3137.691	0.581	581.2	congruent	Block3	congruent/STIM_017.jpg	99
3141.297	0.461	460.8	congruent	Block3	congruent/STIM_017.jpg	100
3145.698	0.456	456.1	congruent	Block3	congruent/STIM_017.jpg	100
3149.231	0.664	664.4	congruent	Block3	congruent/STIM_017.jpg	100
3152.311	0.571	570.9	congruent	Block3	congruent/STIM_017.jpg	100
3156.311	0.564	563.6	congruent	Block3	congruent/STIM_018.jpg	99
3160.461	0.45	449.5	congruent	Block3	congruent/STIM_018.jpg	99
3164.699	0.687	687.4	congruent	Block3	congruent/STIM_018.jpg	99
3169.137	0.7	699.8	congruent	Block3	congruent/STIM_018.jpg	100
3173.062	0.61	610.0	congruent	Block3	congruent/STIM_018.jpg	100
3175.968	0.646	646.0	congruent	Block3	congruent/STIM_019.jpg	100
3180.284	0.763	762.7	congruent	Block3	congruent/STIM_019.jpg	99
3183.423	0.527	527.2	congruent	Block3	congruent/STIM_019.jpg	99
3187.863	0.673	673.0	congruent	Block3	congruent/STIM_019.jpg	99
3192.043	0.77	770.1	congruent	Block3	congruent/STIM_019.jpg	99
3196.732	0.475	474.9	congruent	Block3	congruent/STIM_020.jpg	99
3200.138	0.466	466.2	congruent	Block3	congruent/STIM_020.jpg	99
3203.311	0.7	700.5	congruent	Block3	congruent/STIM_020.jpg	99
3207.548	0.752	751.5	congruent	Block3	congruent/STIM_020.jpg	99
3211.421	0.454	453.5	congruent	Block3	congruent/STIM_020.jpg	100
3215.653	0.639	639.2	congruent	Block3	congruent/STIM_021.jpg	100
3218.709	0.555	554.6	congruent	Block3	congruent/STIM_021.jpg	100
3221.838	0.765	764.7	congruent	Block3	congruent/STIM_021.jpg	99
3225.987	0.501	501.4	congruent	Block3	congruent/STIM_021.jpg	100
3230.378	0.498	497.5	congruent	Block3	congruent/STIM_021.jpg	100
3234.927	0.786	786.4	congruent	Block3	congruent/STIM_022.jpg	100
3238.12	0.498	498.5	congruent	Block3	congruent/STIM_022.jpg	99
3241.93	0.652	652.4	congruent	Block3	congruent/STIM_022.jpg	99
3246.526	0.721	721.1	congruent	Block3	congruent/STIM_022.jpg	100
3251.177	0.479	478.8	congruent	Block3	congruent/STIM_022.jpg	100
3255.507	0.646	646.4	congruent	Block3	congruent/STIM_023.jpg	100
3260.08	0.521	521.1	congruent	Block3	congruent/STIM_023.jpg	100
3264.365	0.541	540.6	congruent	Block3	congruent/STIM_023.jpg	100
3267.367	0.529	528.7	congruent	Block3	congruent/STIM_023.jpg	99
3270.283	0.643	642.7	congruent	Block3	congruent/STIM_023.jpg	99
3274.853	0.787	786.8	congruent	Block3	congruent/STIM_024.jpg	100
3279.233	0.615	614.6	congruent	Block3	congruent/STIM_024.jpg	99
3282.488	0.479	478.6	congruent	Block3	congruent/STIM_024.jpg	99
3286.018	0.543	542.7	congruent	Block3	congruent/STIM_024.jpg	100
3290.507	0.621	620.6	congruent	Block3	congruent/STIM_024.jpg	100
3294.977	0.529	529.2	congruent	Block3	congruent/STIM_025.jpg	100
3298.645	0.78	780.5	congruent	Block3	congruent/STIM_025.jpg	100
3302.709	0.763	763.1	congruent	Block3	congruent/STIM_025.jpg	99
3306.453	0.462	461.9	congruent	Block3	congruent/STIM_025.jpg	100
3310.97	0.678	677.6	congruent	Block3	congruent/STIM_025.jpg	100
3314.611	0.524	523.5	congruent	Block3	congruent/STIM_026.jpg	100
3319.141	0.563	563.2	congruent	Block3	congruent/STIM_026.jpg	100
3322.327	0.489	489.3	congruent	Block3	congruent/STIM_026.jpg	100
3326.396	0.789	788.9	congruent	Block3	congruent/STIM_026.jpg	99
3331.034	0.459	458.7	congruent	Block3	congruent/STIM_026.jpg	99
3334.903	0.497	497.2	congruent	Block3	congruent/STIM_027.jpg	100
3338.729	0.704	704.4	congruent	Block3	congruent/STIM_027.jpg	100
3342.618	0.552	551.9	congruent	Block3	congruent/STIM_027.jpg	100
3346.432	0.691	690.8	congruent	Block3	congruent/STIM_027.jpg	100
3350.388	0.586	586.3	congruent	Block3	congruent/STIM_027.jpg	99
3355.021	0.604	604.0	congruent	Block3	congruent/STIM_028.jpg	99
3357.732	0.491	491.0	congruent	Block3	congruent/STIM_028.jpg	100
3360.316	0.498	497.9	congruent	Block3	congruent/STIM_028.jpg	99
3363.994	0.448	447.8	congruent	Block3	congruent/STIM_028.jpg	99
3366.965	0.731	730.8	congruent	Block3	congruent/STIM_028.jpg	100
3369.913	0.667	667.2	congruent	Block3	congruent/STIM_029.jpg	100
3372.734	0.678	677.9	congruent	Block3	congruent/STIM_029.jpg	100
3376.308	0.527	526.9	congruent	Block3	congruent/STIM_029.jpg	100
3380.85	0.508	508.2	congruent	Block3	congruent/STIM_029.jpg	99
3384.45	0.454	453.6	congruent	Block3	congruent/STIM_029.jpg	100
