onset	duration	accuracy_binary	trial_type	learning_stage	stimulus
0.0	1.409	1	study	Phase1	study/STIM_000.jpg
4.439	1.07	1	study	Phase1	study/STIM_000.jpg
9.064	1.039	1	study	Phase1	study/STIM_000.jpg
13.262	1.188	1	study	Phase1	study/STIM_001.jpg
18.165	1.199	1	study	Phase1	study/STIM_001.jpg
23.246	1.276	1	study	Phase1	study/STIM_001.jpg
27.884	1.18	0	study	Phase1	study/STIM_002.jpg
32.517	1.472	1	study	Phase1	study/STIM_002.jpg
36.488	1.024	0	study	Phase1	study/STIM_002.jpg
41.101	1.327	1	study	Phase1	study/STIM_003.jpg
45.437	1.023	1	study	Phase1	study/STIM_003.jpg
50.402	0.95	1	study	Phase1	study/STIM_003.jpg
54.369	1.32	1	study	Phase1	study/STIM_004.jpg
58.989	1.036	1	study	Phase1	study/STIM_004.jpg
62.204	1.386	1	study	Phase1	study/STIM_004.jpg
66.819	1.066	1	study	Phase1	study/STIM_005.jpg
71.924	0.74	1	study	Phase1	study/STIM_005.jpg
76.442	1.02	1	study	Phase1	study/STIM_005.jpg
80.313	1.205	1	study	Phase1	study/STIM_006.jpg
84.827	1.058	1	study	Phase1	study/STIM_006.jpg
89.215	0.759	1	study	Phase1	study/STIM_006.jpg
92.101	1.046	1	study	Phase1	study/STIM_007.jpg
95.424	1.269	1	study	Phase1	study/STIM_007.jpg
100.153	0.84	1	study	Phase1	study/STIM_007.jpg
103.842	0.732	1	study	Phase1	study/STIM_008.jpg
108.088	0.891	1	study	Phase1	study/STIM_008.jpg
112.871	0.858	1	study	Phase1	study/STIM_008.jpg
117.503	1.353	0	study	Phase1	study/STIM_009.jpg
122.109	1.277	1	study	Phase1	study/STIM_009.jpg
127.167	0.84	1	study	Phase1	study/STIM_009.jpg
131.44	1.465	1	study	Phase1	study/STIM_010.jpg
135.179	0.768	1	study	Phase1	study/STIM_010.jpg
139.413	1.405	1	study	Phase1	study/STIM_010.jpg
144.104	1.481	1	study	Phase1	study/STIM_011.jpg
149.627	1.207	1	study	Phase1	study/STIM_011.jpg
154.41	1.22	1	study	Phase1	study/STIM_011.jpg
158.355	1.25	1	study	Phase1	study/STIM_012.jpg
162.142	1.381	1	study	Phase1	study/STIM_012.jpg
167.374	1.087	1	study	Phase1	study/STIM_012.jpg
172.261	1.393	1	study	Phase1	study/STIM_013.jpg
176.805	1.393	1	study	Phase1	study/STIM_013.jpg
180.884	0.664	1	study	Phase1	study/STIM_013.jpg
184.842	0.951	0	study	Phase1	study/STIM_014.jpg
188.035	1.013	1	study	Phase1	study/STIM_014.jpg
192.674	1.091	1	study	Phase1	study/STIM_014.jpg
196.181	1.039	1	study	Phase1	study/STIM_015.jpg
199.363	1.511	1	study	Phase1	study/STIM_015.jpg
204.364	0.824	1	study	Phase1	study/STIM_015.jpg
209.052	0.983	1	study	Phase1	study/STIM_016.jpg
212.931	0.87	1	study	Phase1	study/STIM_016.jpg
217.044	1.373	1	study	Phase1	study/STIM_016.jpg
221.243	1.17	1	study	Phase1	study/STIM_017.jpg
226.501	1.198	1	study	Phase1	study/STIM_017.jpg
230.397	1.12	1	study	Phase1	study/STIM_017.jpg
234.653	1.575	0	study	Phase1	study/STIM_018.jpg
238.853	0.82	1	study	Phase1	study/STIM_018.jpg
243.757	1.132	1	study	Phase1	study/STIM_018.jpg
247.851	1.501	1	study	Phase1	study/STIM_019.jpg
251.551	0.719	1	study	Phase1	study/STIM_019.jpg
255.189	1.437	0	study	Phase1	study/STIM_019.jpg
260.672	1.148	1	study	Phase1	study/STIM_020.jpg
264.529	1.158	1	study	Phase1	study/STIM_020.jpg
269.164	0.836	1	study	Phase1	study/STIM_020.jpg
273.357	0.997	1	study	Phase1	study/STIM_021.jpg
277.221	1.22	1	study	Phase1	study/STIM_021.jpg
281.441	0.668	1	study	Phase1	study/STIM_021.jpg
285.803	1.47	1	study	Phase1	study/STIM_022.jpg
290.28	0.846	1	study	Phase1	study/STIM_022.jpg
294.371	1.0	1	study	Phase1	study/STIM_022.jpg
299.386	0.845	1	study	Phase1	study/STIM_023.jpg
303.462	1.401	1	study	Phase1	study/STIM_023.jpg
308.87	0.975	1	study	Phase1	study/STIM_023.jpg
313.161	1.299	1	study	Phase1	study/STIM_024.jpg
318.494	1.397	0	study	Phase1	study/STIM_024.jpg
324.023	1.46	1	study	Phase1	study/STIM_024.jpg
329.336	0.958	0	study	Phase1	study/STIM_025.jpg
334.106	1.168	0	study	Phase1	study/STIM_025.jpg
339.064	0.962	1	study	Phase1	study/STIM_025.jpg
343.184	1.148	1	study	Phase1	study/STIM_026.jpg
347.411	1.257	1	study	Phase1	study/STIM_026.jpg
351.022	0.686	1	study	Phase1	study/STIM_026.jpg
355.118	0.732	1	study	Phase1	study/STIM_027.jpg
358.231	1.083	1	study	Phase1	study/STIM_027.jpg
362.536	1.145	1	study	Phase1	study/STIM_027.jpg
366.718	1.458	1	study	Phase1	study/STIM_028.jpg
371.573	1.346	1	study	Phase1	study/STIM_028.jpg
375.507	0.858	1	study	Phase1	study/STIM_028.jpg
378.957	1.211	1	study	Phase1	study/STIM_029.jpg
382.604	1.036	1	study	Phase1	study/STIM_029.jpg
387.158	0.845	1	study	Phase1	study/STIM_029.jpg
392.026	0.938	0	test	Phase1	test/STIM_000.jpg
396.094	0.756	0	test	Phase1	test/STIM_000.jpg
400.612	0.627	1	test	Phase1	test/STIM_000.jpg
404.574	0.836	1	test	Phase1	test/STIM_001.jpg
407.822	1.095	1	test	Phase1	test/STIM_001.jpg
411.754	0.614	1	test	Phase1	test/STIM_001.jpg
415.136	0.853	1	test	Phase1	test/STIM_002.jpg
418.191	0.621	1	test	Phase1	test/STIM_002.jpg
422.855	1.046	0	test	Phase1	test/STIM_002.jpg
426.651	0.633	1	test	Phase1	test/STIM_003.jpg
431.166	1.17	1	test	Phase1	test/STIM_003.jpg
434.593	0.642	1	test	Phase1	test/STIM_003.jpg
437.626	0.621	1	test	Phase1	test/STIM_004.jpg
441.014	0.642	0	test	Phase1	test/STIM_004.jpg
444.774	0.67	1	test	Phase1	test/STIM_004.jpg
448.908	0.75	1	test	Phase1	test/STIM_005.jpg
453.524	1.127	1	test	Phase1	test/STIM_005.jpg
458.117	0.59	1	test	Phase1	test/STIM_005.jpg
461.623	0.67	1	test	Phase1	test/STIM_006.jpg
466.192	0.705	1	test	Phase1	test/STIM_006.jpg
469.364	0.976	1	test	Phase1	test/STIM_006.jpg
472.572	0.652	1	test	Phase1	test/STIM_007.jpg
475.8	1.166	1	test	Phase1	test/STIM_007.jpg
480.031	0.583	1	test	Phase1	test/STIM_007.jpg
484.254	0.753	1	test	Phase1	test/STIM_008.jpg
487.543	1.047	1	test	Phase1	test/STIM_008.jpg
491.496	0.998	1	test	Phase1	test/STIM_008.jpg
495.665	0.676	0	test	Phase1	test/STIM_009.jpg
499.277	0.824	0	test	Phase1	test/STIM_009.jpg
504.051	0.893	0	test	Phase1	test/STIM_009.jpg
508.994	0.774	1	test	Phase1	test/STIM_010.jpg
512.309	1.014	1	test	Phase1	test/STIM_010.jpg
515.743	0.83	0	test	Phase1	test/STIM_010.jpg
519.582	0.681	1	test	Phase1	test/STIM_011.jpg
523.874	0.924	1	test	Phase1	test/STIM_011.jpg
527.291	1.097	1	test	Phase1	test/STIM_011.jpg
531.673	0.928	1	test	Phase1	test/STIM_012.jpg
534.814	0.737	1	test	Phase1	test/STIM_012.jpg
538.767	0.806	1	test	Phase1	test/STIM_012.jpg
541.958	0.66	1	test	Phase1	test/STIM_013.jpg
545.177	0.681	1	test	Phase1	test/STIM_013.jpg
549.444	0.808	0	test	Phase1	test/STIM_013.jpg
553.364	0.718	1	test	Phase1	test/STIM_014.jpg
557.925	0.666	1	test	Phase1	test/STIM_014.jpg
562.554	1.031	1	test	Phase1	test/STIM_014.jpg
565.908	1.133	0	test	Phase1	test/STIM_015.jpg
569.891	0.752	1	test	Phase1	test/STIM_015.jpg
572.925	0.721	1	test	Phase1	test/STIM_015.jpg
577.66	0.881	1	test	Phase1	test/STIM_016.jpg
580.893	0.693	0	test	Phase1	test/STIM_016.jpg
584.41	1.122	1	test	Phase1	test/STIM_016.jpg
588.843	1.121	1	test	Phase1	test/STIM_017.jpg
593.139	0.892	1	test	Phase1	test/STIM_017.jpg
596.963	1.078	1	test	Phase1	test/STIM_017.jpg
600.994	0.615	1	test	Phase1	test/STIM_018.jpg
603.841	0.711	1	test	Phase1	test/STIM_018.jpg
608.438	0.935	1	test	Phase1	test/STIM_018.jpg
611.949	0.633	1	test	Phase1	test/STIM_019.jpg
616.445	1.068	1	test	Phase1	test/STIM_019.jpg
621.597	0.699	1	test	Phase1	test/STIM_019.jpg
624.938	1.158	1	test	Phase1	test/STIM_020.jpg
628.952	0.843	1	test	Phase1	test/STIM_020.jpg
632.436	0.84	1	test	Phase1	test/STIM_020.jpg
636.913	0.823	0	test	Phase1	test/STIM_021.jpg
640.087	1.092	1	test	Phase1	test/STIM_021.jpg
643.429	1.016	1	test	Phase1	test/STIM_021.jpg
648.026	0.757	0	test	Phase1	test/STIM_022.jpg
651.465	0.885	1	test	Phase1	test/STIM_022.jpg
655.787	0.832	1	test	Phase1	test/STIM_022.jpg
658.71	0.716	0	test	Phase1	test/STIM_023.jpg
662.687	1.172	1	test	Phase1	test/STIM_023.jpg
666.747	1.0	1	test	Phase1	test/STIM_023.jpg
671.077	0.764	1	test	Phase1	test/STIM_024.jpg
674.852	0.881	1	test	Phase1	test/STIM_024.jpg
678.7	0.74	1	test	Phase1	test/STIM_024.jpg
682.656	0.793	1	test	Phase1	test/STIM_025.jpg
686.585	0.645	0	test	Phase1	test/STIM_025.jpg
691.0	1.117	0	test	Phase1	test/STIM_025.jpg
695.905	0.607	1	test	Phase1	test/STIM_026.jpg
699.77	0.971	1	test	Phase1	test/STIM_026.jpg
704.724	0.936	1	test	Phase1	test/STIM_026.jpg
707.973	0.911	1	test	Phase1	test/STIM_027.jpg
712.714	0.55	1	test	Phase1	test/STIM_027.jpg
715.652	1.105	1	test	Phase1	test/STIM_027.jpg
719.219	1.059	0	test	Phase1	test/STIM_028.jpg
722.515	0.563	1	test	Phase1	test/STIM_028.jpg
726.565	0.817	0	test	Phase1	test/STIM_028.jpg
729.741	0.998	1	test	Phase1	test/STIM_029.jpg
733.515	0.91	1	test	Phase1	test/STIM_029.jpg
736.571	0.573	1	test	Phase1	test/STIM_029.jpg
740.897	1.271	1	study	Phase2	study/STIM_000.jpg
744.396	1.121	1	study	Phase2	study/STIM_000.jpg
749.467	1.086	1	study	Phase2	study/STIM_000.jpg
753.587	0.996	1	study	Phase2	study/STIM_001.jpg
757.718	0.637	1	study	Phase2	study/STIM_001.jpg
760.429	0.563	1	study	Phase2	study/STIM_001.jpg
764.852	1.379	1	study	Phase2	study/STIM_002.jpg
768.629	0.592	1	study	Phase2	study/STIM_002.jpg
772.0	0.876	0	study	Phase2	study/STIM_002.jpg
776.783	1.254	1	study	Phase2	study/STIM_003.jpg
781.031	0.735	1	study	Phase2	study/STIM_003.jpg
784.266	0.762	1	study	Phase2	study/STIM_003.jpg
788.852	0.95	1	study	Phase2	study/STIM_004.jpg
793.062	1.13	1	study	Phase2	study/STIM_004.jpg
798.126	0.669	1	study	Phase2	study/STIM_004.jpg
801.966	0.867	1	study	Phase2	study/STIM_005.jpg
806.686	0.817	1	study	Phase2	study/STIM_005.jpg
809.716	0.904	1	study	Phase2	study/STIM_005.jpg
814.577	0.65	1	study	Phase2	study/STIM_006.jpg
818.916	1.113	1	study	Phase2	study/STIM_006.jpg
824.032	1.134	0	study	Phase2	study/STIM_006.jpg
828.656	0.943	1	study	Phase2	study/STIM_007.jpg
833.282	1.034	1	study	Phase2	study/STIM_007.jpg
837.639	0.668	1	study	Phase2	study/STIM_007.jpg
841.164	0.678	0	study	Phase2	study/STIM_008.jpg
845.49	0.994	1	study	Phase2	study/STIM_008.jpg
850.494	0.671	1	study	Phase2	study/STIM_008.jpg
853.889	0.746	1	study	Phase2	study/STIM_009.jpg
857.286	0.946	1	study	Phase2	study/STIM_009.jpg
860.939	0.911	1	study	Phase2	study/STIM_009.jpg
865.18	1.324	1	study	Phase2	study/STIM_010.jpg
869.311	0.646	1	study	Phase2	study/STIM_010.jpg
873.178	0.919	1	study	Phase2	study/STIM_010.jpg
876.946	1.35	1	study	Phase2	study/STIM_011.jpg
880.885	0.583	1	study	Phase2	study/STIM_011.jpg
885.023	0.616	1	study	Phase2	study/STIM_011.jpg
889.649	0.994	1	study	Phase2	study/STIM_012.jpg
893.03	0.905	1	study	Phase2	study/STIM_012.jpg
896.089	0.895	1	study	Phase2	study/STIM_012.jpg
900.303	1.034	1	study	Phase2	study/STIM_013.jpg
903.649	0.898	1	study	Phase2	study/STIM_013.jpg
907.192	0.803	1	study	Phase2	study/STIM_013.jpg
911.121	0.616	1	study	Phase2	study/STIM_014.jpg
915.547	1.077	1	study	Phase2	study/STIM_014.jpg
918.815	0.664	1	study	Phase2	study/STIM_014.jpg
921.856	1.193	1	study	Phase2	study/STIM_015.jpg
925.813	0.608	1	study	Phase2	study/STIM_015.jpg
928.998	0.564	1	study	Phase2	study/STIM_015.jpg
932.407	0.877	1	study	Phase2	study/STIM_016.jpg
935.984	0.878	1	study	Phase2	study/STIM_016.jpg
940.154	1.154	1	study	Phase2	study/STIM_016.jpg
945.108	0.758	1	study	Phase2	study/STIM_017.jpg
949.347	0.791	1	study	Phase2	study/STIM_017.jpg
953.553	0.859	1	study	Phase2	study/STIM_017.jpg
956.517	0.863	1	study	Phase2	study/STIM_018.jpg
961.19	1.156	1	study	Phase2	study/STIM_018.jpg
965.466	0.67	1	study	Phase2	study/STIM_018.jpg
970.056	0.776	1	study	Phase2	study/STIM_019.jpg
974.359	1.124	1	study	Phase2	study/STIM_019.jpg
977.753	0.87	1	study	Phase2	study/STIM_019.jpg
982.481	1.114	1	study	Phase2	study/STIM_020.jpg
985.761	0.732	1	study	Phase2	study/STIM_020.jpg
989.632	0.94	1	study	Phase2	study/STIM_020.jpg
994.012	0.937	1	study	Phase2	study/STIM_021.jpg
997.532	0.824	1	study	Phase2	study/STIM_021.jpg
1000.908	0.8	1	study	Phase2	study/STIM_021.jpg
1004.47	0.658	0	study	Phase2	study/STIM_022.jpg
1008.738	1.115	1	study	Phase2	study/STIM_022.jpg
1013.503	0.677	1	study	Phase2	study/STIM_022.jpg
1016.353	1.183	1	study	Phase2	study/STIM_023.jpg
1021.205	1.218	1	study	Phase2	study/STIM_023.jpg
1025.25	1.203	1	study	Phase2	study/STIM_023.jpg
1029.339	1.062	1	study	Phase2	study/STIM_024.jpg
1032.871	0.696	1	study	Phase2	study/STIM_024.jpg
1036.098	1.143	1	study	Phase2	study/STIM_024.jpg
1039.363	0.848	1	study	Phase2	study/STIM_025.jpg
1043.774	0.942	1	study	Phase2	study/STIM_025.jpg
1047.728	0.975	1	study	Phase2	study/STIM_025.jpg
1051.792	1.035	1	study	Phase2	study/STIM_026.jpg
1056.839	0.823	1	study	Phase2	study/STIM_026.jpg
1060.613	1.044	0	study	Phase2	study/STIM_026.jpg
1064.877	0.867	1	study	Phase2	study/STIM_027.jpg
1068.888	1.015	1	study	Phase2	study/STIM_027.jpg
1073.68	1.029	1	study	Phase2	study/STIM_027.jpg
1078.289	0.62	1	study	Phase2	study/STIM_028.jpg
1082.025	0.95	1	study	Phase2	study/STIM_028.jpg
1086.682	0.573	1	study	Phase2	study/STIM_028.jpg
1089.336	0.797	1	study	Phase2	study/STIM_029.jpg
1092.965	0.995	1	study	Phase2	study/STIM_029.jpg
1097.321	0.658	1	study	Phase2	study/STIM_029.jpg
1101.153	1.172	1	test	Phase2	test/STIM_000.jpg
1106.439	1.105	1	test	Phase2	test/STIM_000.jpg
1111.159	0.857	1	test	Phase2	test/STIM_000.jpg
1115.243	0.601	1	test	Phase2	test/STIM_001.jpg
1118.631	1.054	1	test	Phase2	test/STIM_001.jpg
1123.554	0.66	1	test	Phase2	test/STIM_001.jpg
1128.012	0.686	1	test	Phase2	test/STIM_002.jpg
1131.341	1.058	1	test	Phase2	test/STIM_002.jpg
1135.844	0.776	1	test	Phase2	test/STIM_002.jpg
1138.949	0.664	1	test	Phase2	test/STIM_003.jpg
1143.584	0.837	1	test	Phase2	test/STIM_003.jpg
1147.113	0.839	1	test	Phase2	test/STIM_003.jpg
1151.946	0.709	1	test	Phase2	test/STIM_004.jpg
1155.706	0.818	1	test	Phase2	test/STIM_004.jpg
1159.601	0.711	0	test	Phase2	test/STIM_004.jpg
1163.268	0.729	0	test	Phase2	test/STIM_005.jpg
1166.314	1.137	1	test	Phase2	test/STIM_005.jpg
1169.959	1.041	1	test	Phase2	test/STIM_005.jpg
1174.304	1.12	1	test	Phase2	test/STIM_006.jpg
1177.788	0.887	1	test	Phase2	test/STIM_006.jpg
1181.174	0.606	1	test	Phase2	test/STIM_006.jpg
1185.771	1.076	1	test	Phase2	test/STIM_007.jpg
1189.455	0.895	0	test	Phase2	test/STIM_007.jpg
1194.114	0.809	0	test	Phase2	test/STIM_007.jpg
1198.172	0.777	1	test	Phase2	test/STIM_008.jpg
1202.022	0.854	1	test	Phase2	test/STIM_008.jpg
1205.94	0.865	1	test	Phase2	test/STIM_008.jpg
1209.186	1.134	1	test	Phase2	test/STIM_009.jpg
1213.066	0.73	1	test	Phase2	test/STIM_009.jpg
1217.158	1.119	1	test	Phase2	test/STIM_009.jpg
1221.957	0.781	1	test	Phase2	test/STIM_010.jpg
1226.604	0.848	1	test	Phase2	test/STIM_010.jpg
1231.354	1.136	1	test	Phase2	test/STIM_010.jpg
1234.651	0.562	1	test	Phase2	test/STIM_011.jpg
1238.977	1.096	1	test	Phase2	test/STIM_011.jpg
1243.805	1.094	1	test	Phase2	test/STIM_011.jpg
1248.696	0.749	1	test	Phase2	test/STIM_012.jpg
1252.159	0.64	1	test	Phase2	test/STIM_012.jpg
1256.682	1.156	0	test	Phase2	test/STIM_012.jpg
1261.286	1.154	1	test	Phase2	test/STIM_013.jpg
1266.243	0.73	1	test	Phase2	test/STIM_013.jpg
1270.883	0.579	1	test	Phase2	test/STIM_013.jpg
1274.535	1.112	1	test	Phase2	test/STIM_014.jpg
1279.656	0.743	1	test	Phase2	test/STIM_014.jpg
1282.524	1.167	1	test	Phase2	test/STIM_014.jpg
1287.674	0.795	0	test	Phase2	test/STIM_015.jpg
1291.394	0.747	1	test	Phase2	test/STIM_015.jpg
1295.763	0.673	1	test	Phase2	test/STIM_015.jpg
1299.848	0.908	1	test	Phase2	test/STIM_016.jpg
1303.079	0.568	1	test	Phase2	test/STIM_016.jpg
1307.198	1.054	1	test	Phase2	test/STIM_016.jpg
1310.745	1.072	1	test	Phase2	test/STIM_017.jpg
1315.252	0.637	1	test	Phase2	test/STIM_017.jpg
1319.879	1.156	1	test	Phase2	test/STIM_017.jpg
1323.638	0.631	1	test	Phase2	test/STIM_018.jpg
1327.58	0.818	1	test	Phase2	test/STIM_018.jpg
1331.433	1.044	1	test	Phase2	test/STIM_018.jpg
1334.617	1.123	1	test	Phase2	test/STIM_019.jpg
1338.341	1.172	1	test	Phase2	test/STIM_019.jpg
1342.28	1.116	1	test	Phase2	test/STIM_019.jpg
1347.367	0.695	1	test	Phase2	test/STIM_020.jpg
1350.239	0.829	1	test	Phase2	test/STIM_020.jpg
1353.791	0.994	1	test	Phase2	test/STIM_020.jpg
1357.747	0.55	1	test	Phase2	test/STIM_021.jpg
1360.84	0.552	1	test	Phase2	test/STIM_021.jpg
1364.499	0.622	1	test	Phase2	test/STIM_021.jpg
1367.307	1.033	1	test	Phase2	test/STIM_022.jpg
1371.676	0.848	1	test	Phase2	test/STIM_022.jpg
1375.975	0.686	1	test	Phase2	test/STIM_022.jpg
1380.349	0.64	1	test	Phase2	test/STIM_023.jpg
1384.264	1.151	1	test	Phase2	test/STIM_023.jpg
1389.168	0.839	1	test	Phase2	test/STIM_023.jpg
1393.068	0.822	1	test	Phase2	test/STIM_024.jpg
1396.683	0.79	1	test	Phase2	test/STIM_024.jpg
1400.173	1.127	1	test	Phase2	test/STIM_024.jpg
1403.677	0.559	1	test	Phase2	test/STIM_025.jpg
1406.545	0.905	0	test	Phase2	test/STIM_025.jpg
1410.526	0.604	1	test	Phase2	test/STIM_025.jpg
1413.607	0.602	1	test	Phase2	test/STIM_026.jpg
1416.329	0.933	1	test	Phase2	test/STIM_026.jpg
1420.23	1.051	0	test	Phase2	test/STIM_026.jpg
1424.876	0.988	1	test	Phase2	test/STIM_027.jpg
1429.124	0.643	1	test	Phase2	test/STIM_027.jpg
1432.72	0.997	1	test	Phase2	test/STIM_027.jpg
1436.321	1.03	1	test	Phase2	test/STIM_028.jpg
1440.223	1.014	1	test	Phase2	test/STIM_028.jpg
1444.888	0.713	1	test	Phase2	test/STIM_028.jpg
1447.865	1.017	1	test	Phase2	test/STIM_029.jpg
1452.681	0.628	1	test	Phase2	test/STIM_029.jpg
1456.044	0.924	1	test	Phase2	test/STIM_029.jpg
1460.83	0.958	1	study	Phase3	study/STIM_000.jpg
1464.831	0.902	1	study	Phase3	study/STIM_000.jpg
1469.109	0.604	1	study	Phase3	study/STIM_000.jpg
1472.697	1.012	1	study	Phase3	study/STIM_001.jpg
1476.024	0.731	1	study	Phase3	study/STIM_001.jpg
1479.103	0.67	1	study	Phase3	study/STIM_001.jpg
1483.207	0.82	0	study	Phase3	study/STIM_002.jpg
1486.721	0.764	1	study	Phase3	study/STIM_002.jpg
1489.604	0.688	1	study	Phase3	study/STIM_002.jpg
1492.377	0.729	1	study	Phase3	study/STIM_003.jpg
1497.013	0.587	1	study	Phase3	study/STIM_003.jpg
1500.19	0.821	1	study	Phase3	study/STIM_003.jpg
1504.066	0.988	1	study	Phase3	study/STIM_004.jpg
1507.818	0.721	1	study	Phase3	study/STIM_004.jpg
1510.638	0.961	1	study	Phase3	study/STIM_004.jpg
1514.323	0.919	1	study	Phase3	study/STIM_005.jpg
1517.669	0.681	1	study	Phase3	study/STIM_005.jpg
1520.429	0.881	1	study	Phase3	study/STIM_005.jpg
1524.845	0.84	1	study	Phase3	study/STIM_006.jpg
1529.196	0.854	1	study	Phase3	study/STIM_006.jpg
1533.537	1.016	1	study	Phase3	study/STIM_006.jpg
1538.578	0.79	1	study	Phase3	study/STIM_007.jpg
1543.331	0.744	1	study	Phase3	study/STIM_007.jpg
1547.267	1.043	1	study	Phase3	study/STIM_007.jpg
1552.081	0.609	1	study	Phase3	study/STIM_008.jpg
1555.657	0.672	1	study	Phase3	study/STIM_008.jpg
1558.426	0.681	1	study	Phase3	study/STIM_008.jpg
1562.938	0.524	1	study	Phase3	study/STIM_009.jpg
1566.406	1.022	1	study	Phase3	study/STIM_009.jpg
1570.638	1.13	1	study	Phase3	study/STIM_009.jpg
1575.658	1.061	1	study	Phase3	study/STIM_010.jpg
1579.319	0.587	1	study	Phase3	study/STIM_010.jpg
1583.017	1.093	1	study	Phase3	study/STIM_010.jpg
1588.202	0.758	1	study	Phase3	study/STIM_011.jpg
1592.971	0.886	1	study	Phase3	study/STIM_011.jpg
1597.003	0.85	1	study	Phase3	study/STIM_011.jpg
1600.753	0.839	1	study	Phase3	study/STIM_012.jpg
1603.694	1.021	1	study	Phase3	study/STIM_012.jpg
1608.254	0.994	1	study	Phase3	study/STIM_012.jpg
1613.258	1.075	1	study	Phase3	study/STIM_013.jpg
1617.899	0.95	1	study	Phase3	study/STIM_013.jpg
1622.488	0.792	1	study	Phase3	study/STIM_013.jpg
1626.853	0.816	1	study	Phase3	study/STIM_014.jpg
1631.038	0.717	1	study	Phase3	study/STIM_014.jpg
1635.631	0.703	1	study	Phase3	study/STIM_014.jpg
1638.488	0.587	1	study	Phase3	study/STIM_015.jpg
1642.945	0.866	1	study	Phase3	study/STIM_015.jpg
1646.722	0.883	1	study	Phase3	study/STIM_015.jpg
1650.009	0.822	1	study	Phase3	study/STIM_016.jpg
1653.061	0.633	1	study	Phase3	study/STIM_016.jpg
1656.997	0.953	1	study	Phase3	study/STIM_016.jpg
1661.248	0.723	1	study	Phase3	study/STIM_017.jpg
1664.174	0.584	1	study	Phase3	study/STIM_017.jpg
1667.734	0.98	1	study	Phase3	study/STIM_017.jpg
1672.405	1.126	1	study	Phase3	study/STIM_018.jpg
1675.798	0.836	1	study	Phase3	study/STIM_018.jpg
1679.128	0.85	1	study	Phase3	study/STIM_018.jpg
1683.316	0.782	1	study	Phase3	study/STIM_019.jpg
1687.74	0.995	1	study	Phase3	study/STIM_019.jpg
1692.372	0.836	1	study	Phase3	study/STIM_019.jpg
1696.861	0.93	1	study	Phase3	study/STIM_020.jpg
1701.038	1.071	1	study	Phase3	study/STIM_020.jpg
1705.887	0.843	1	study	Phase3	study/STIM_020.jpg
1709.987	1.044	1	study	Phase3	study/STIM_021.jpg
1714.476	0.542	1	study	Phase3	study/STIM_021.jpg
1717.355	0.652	1	study	Phase3	study/STIM_021.jpg
1721.158	1.011	1	study	Phase3	study/STIM_022.jpg
1726.166	0.718	1	study	Phase3	study/STIM_022.jpg
1730.501	0.922	1	study	Phase3	study/STIM_022.jpg
1734.559	0.554	1	study	Phase3	study/STIM_023.jpg
1737.381	0.566	1	study	Phase3	study/STIM_023.jpg
1741.789	0.941	1	study	Phase3	study/STIM_023.jpg
1746.622	0.947	1	study	Phase3	study/STIM_024.jpg
1751.161	0.947	1	study	Phase3	study/STIM_024.jpg
1754.425	0.55	1	study	Phase3	study/STIM_024.jpg
1758.277	0.836	1	study	Phase3	study/STIM_025.jpg
1761.973	1.026	1	study	Phase3	study/STIM_025.jpg
1765.212	0.633	1	study	Phase3	study/STIM_025.jpg
1768.295	0.595	1	study	Phase3	study/STIM_026.jpg
1772.92	0.652	1	study	Phase3	study/STIM_026.jpg
1776.895	0.662	1	study	Phase3	study/STIM_026.jpg
1780.813	0.939	1	study	Phase3	study/STIM_027.jpg
1785.297	0.539	1	study	Phase3	study/STIM_027.jpg
1788.756	0.566	1	study	Phase3	study/STIM_027.jpg
1792.064	0.592	1	study	Phase3	study/STIM_028.jpg
1795.879	0.648	1	study	Phase3	study/STIM_028.jpg
1799.978	0.892	1	study	Phase3	study/STIM_028.jpg
1804.35	0.812	1	study	Phase3	study/STIM_029.jpg
1807.778	1.095	1	study	Phase3	study/STIM_029.jpg
1812.623	0.6	1	study	Phase3	study/STIM_029.jpg
1817.143	1.117	1	test	Phase3	test/STIM_000.jpg
1821.728	0.7	1	test	Phase3	test/STIM_000.jpg
1825.07	1.048	1	test	Phase3	test/STIM_000.jpg
1828.664	0.71	1	test	Phase3	test/STIM_001.jpg
1832.625	0.889	1	test	Phase3	test/STIM_001.jpg
1836.537	1.129	1	test	Phase3	test/STIM_001.jpg
1840.747	0.708	1	test	Phase3	test/STIM_002.jpg
1843.971	1.074	1	test	Phase3	test/STIM_002.jpg
1848.98	0.617	1	test	Phase3	test/STIM_002.jpg
1852.949	0.602	1	test	Phase3	test/STIM_003.jpg
1856.402	0.865	1	test	Phase3	test/STIM_003.jpg
1860.663	0.801	1	test	Phase3	test/STIM_003.jpg
1863.962	1.032	1	test	Phase3	test/STIM_004.jpg
1868.459	0.548	1	test	Phase3	test/STIM_004.jpg
1871.227	0.798	1	test	Phase3	test/STIM_004.jpg
1875.358	1.106	1	test	Phase3	test/STIM_005.jpg
1880.023	0.946	0	test	Phase3	test/STIM_005.jpg
1883.951	0.66	1	test	Phase3	test/STIM_005.jpg
1886.965	1.039	1	test	Phase3	test/STIM_006.jpg
1890.335	0.871	0	test	Phase3	test/STIM_006.jpg
1894.303	0.704	1	test	Phase3	test/STIM_006.jpg
1897.099	0.631	1	test	Phase3	test/STIM_007.jpg
1901.094	0.568	1	test	Phase3	test/STIM_007.jpg
1904.126	0.635	0	test	Phase3	test/STIM_007.jpg
1907.812	1.018	1	test	Phase3	test/STIM_008.jpg
1912.671	0.88	1	test	Phase3	test/STIM_008.jpg
1917.354	1.123	1	test	Phase3	test/STIM_008.jpg
1920.978	1.168	1	test	Phase3	test/STIM_009.jpg
1925.984	0.91	1	test	Phase3	test/STIM_009.jpg
1929.378	0.87	1	test	Phase3	test/STIM_009.jpg
1933.107	0.854	1	test	Phase3	test/STIM_010.jpg
1937.529	0.605	1	test	Phase3	test/STIM_010.jpg
1941.769	0.994	1	test	Phase3	test/STIM_010.jpg
1945.651	0.848	1	test	Phase3	test/STIM_011.jpg
1949.974	0.674	1	test	Phase3	test/STIM_011.jpg
1954.214	0.659	1	test	Phase3	test/STIM_011.jpg
1957.821	0.951	1	test	Phase3	test/STIM_012.jpg
1961.23	0.64	1	test	Phase3	test/STIM_012.jpg
1964.748	0.601	1	test	Phase3	test/STIM_012.jpg
1969.411	1.093	1	test	Phase3	test/STIM_013.jpg
1973.479	0.755	1	test	Phase3	test/STIM_013.jpg
1976.353	0.643	1	test	Phase3	test/STIM_013.jpg
1980.919	1.128	1	test	Phase3	test/STIM_014.jpg
1985.138	0.711	1	test	Phase3	test/STIM_014.jpg
1989.895	1.084	1	test	Phase3	test/STIM_014.jpg
1994.802	1.015	1	test	Phase3	test/STIM_015.jpg
1998.914	0.835	1	test	Phase3	test/STIM_015.jpg
2002.481	0.566	1	test	Phase3	test/STIM_015.jpg
2006.281	0.798	1	test	Phase3	test/STIM_016.jpg
2009.245	0.704	1	test	Phase3	test/STIM_016.jpg
2013.222	0.765	1	test	Phase3	test/STIM_016.jpg
2017.428	0.57	1	test	Phase3	test/STIM_017.jpg
2020.628	1.037	1	test	Phase3	test/STIM_017.jpg
2024.115	1.041	1	test	Phase3	test/STIM_017.jpg
2028.196	0.659	1	test	Phase3	test/STIM_018.jpg
2031.809	0.635	1	test	Phase3	test/STIM_018.jpg
2036.141	0.86	1	test	Phase3	test/STIM_018.jpg
2040.862	1.012	1	test	Phase3	test/STIM_019.jpg
2044.518	0.603	1	test	Phase3	test/STIM_019.jpg
2048.44	1.06	1	test	Phase3	test/STIM_019.jpg
2051.923	0.828	0	test	Phase3	test/STIM_020.jpg
2056.57	0.715	1	test	Phase3	test/STIM_020.jpg
2060.459	0.938	1	test	Phase3	test/STIM_020.jpg
2064.788	0.767	1	test	Phase3	test/STIM_021.jpg
2067.753	0.876	1	test	Phase3	test/STIM_021.jpg
2072.211	0.635	1	test	Phase3	test/STIM_021.jpg
2075.569	0.797	1	test	Phase3	test/STIM_022.jpg
2078.71	0.694	1	test	Phase3	test/STIM_022.jpg
2083.426	0.663	1	test	Phase3	test/STIM_022.jpg
2086.391	0.983	1	test	Phase3	test/STIM_023.jpg
2090.429	0.976	0	test	Phase3	test/STIM_023.jpg
2094.817	0.609	1	test	Phase3	test/STIM_023.jpg
2098.663	0.686	1	test	Phase3	test/STIM_024.jpg
2102.872	0.948	1	test	Phase3	test/STIM_024.jpg
2107.124	0.864	1	test	Phase3	test/STIM_024.jpg
2111.648	0.75	1	test	Phase3	test/STIM_025.jpg
2115.668	1.037	1	test	Phase3	test/STIM_025.jpg
2118.845	1.169	1	test	Phase3	test/STIM_025.jpg
2123.875	1.115	1	test	Phase3	test/STIM_026.jpg
2128.659	0.844	1	test	Phase3	test/STIM_026.jpg
2131.887	0.833	1	test	Phase3	test/STIM_026.jpg
2135.805	0.684	0	test	Phase3	test/STIM_027.jpg
2140.308	1.059	1	test	Phase3	test/STIM_027.jpg
2144.459	0.924	1	test	Phase3	test/STIM_027.jpg
2148.803	0.975	0	test	Phase3	test/STIM_028.jpg
2152.366	0.822	1	test	Phase3	test/STIM_028.jpg
2156.77	1.032	1	test	Phase3	test/STIM_028.jpg
2161.711	0.622	1	test	Phase3	test/STIM_029.jpg
2165.811	1.066	1	test	Phase3	test/STIM_029.jpg
2170.965	0.861	1	test	Phase3	test/STIM_029.jpg
