onset	duration	accuracy	trial_type	learning_stage	stimulus
0.0	2.864	correct	navigation	Trial1	navigation/STIM_000.jpg
6.106	2.171	correct	navigation	Trial1	navigation/STIM_000.jpg
12.022	3.514	correct	navigation	Trial1	navigation/STIM_000.jpg
19.427	1.619	incorrect	navigation	Trial1	navigation/STIM_000.jpg
24.224	2.55	correct	navigation	Trial1	navigation/STIM_000.jpg
29.915	2.592	correct	navigation	Trial1	navigation/STIM_000.jpg
35.53	2.955	correct	navigation	Trial1	navigation/STIM_001.jpg
40.641	1.714	incorrect	navigation	Trial1	navigation/STIM_001.jpg
44.93	1.621	correct	navigation	Trial1	navigation/STIM_001.jpg
48.671	1.731	incorrect	navigation	Trial1	navigation/STIM_001.jpg
53.751	1.547	correct	navigation	Trial1	navigation/STIM_001.jpg
59.287	2.524	correct	navigation	Trial1	navigation/STIM_001.jpg
64.62	3.333	correct	navigation	Trial1	navigation/STIM_002.jpg
71.279	3.511	correct	navigation	Trial1	navigation/STIM_002.jpg
78.042	3.988	correct	navigation	Trial1	navigation/STIM_002.jpg
84.175	3.418	correct	navigation	Trial1	navigation/STIM_002.jpg
91.296	1.914	correct	navigation	Trial1	navigation/STIM_002.jpg
95.908	2.165	incorrect	navigation	Trial1	navigation/STIM_002.jpg
100.999	2.854	correct	navigation	Trial1	navigation/STIM_003.jpg
107.279	3.744	incorrect	navigation	Trial1	navigation/STIM_003.jpg
113.424	3.615	correct	navigation	Trial1	navigation/STIM_003.jpg
119.796	2.892	incorrect	navigation	Trial1	navigation/STIM_003.jpg
125.274	1.494	incorrect	navigation	Trial1	navigation/STIM_003.jpg
130.337	2.012	correct	navigation	Trial1	navigation/STIM_003.jpg
135.413	2.33	incorrect	navigation	Trial1	navigation/STIM_004.jpg
140.129	3.116	incorrect	navigation	Trial1	navigation/STIM_004.jpg
145.431	3.832	correct	navigation	Trial1	navigation/STIM_004.jpg
153.098	1.739	incorrect	navigation	Trial1	navigation/STIM_004.jpg
158.412	2.75	correct	navigation	Trial1	navigation/STIM_004.jpg
164.552	3.141	correct	navigation	Trial1	navigation/STIM_004.jpg
170.051	4.102	incorrect	navigation	Trial1	navigation/STIM_005.jpg
177.649	2.732	correct	navigation	Trial1	navigation/STIM_005.jpg
183.089	2.581	correct	navigation	Trial1	navigation/STIM_005.jpg
187.813	2.903	correct	navigation	Trial1	navigation/STIM_005.jpg
193.131	2.147	correct	navigation	Trial1	navigation/STIM_005.jpg
198.492	3.175	incorrect	navigation	Trial1	navigation/STIM_005.jpg
203.99	1.919	correct	navigation	Trial1	navigation/STIM_006.jpg
208.177	3.242	correct	navigation	Trial1	navigation/STIM_006.jpg
215.213	2.488	correct	navigation	Trial1	navigation/STIM_006.jpg
220.23	3.575	correct	navigation	Trial1	navigation/STIM_006.jpg
227.315	1.981	correct	navigation	Trial1	navigation/STIM_006.jpg
231.817	2.816	correct	navigation	Trial1	navigation/STIM_006.jpg
237.607	1.899	correct	navigation	Trial1	navigation/STIM_007.jpg
242.182	3.847	correct	navigation	Trial1	navigation/STIM_007.jpg
248.314	2.054	correct	navigation	Trial1	navigation/STIM_007.jpg
253.711	2.243	correct	navigation	Trial1	navigation/STIM_007.jpg
257.972	3.292	correct	navigation	Trial1	navigation/STIM_007.jpg
265.208	2.548	correct	navigation	Trial1	navigation/STIM_007.jpg
270.83	1.936	incorrect	navigation	Trial1	navigation/STIM_008.jpg
274.837	3.205	correct	navigation	Trial1	navigation/STIM_008.jpg
282.037	3.064	incorrect	navigation	Trial1	navigation/STIM_008.jpg
288.514	2.706	correct	navigation	Trial1	navigation/STIM_008.jpg
294.837	1.707	incorrect	navigation	Trial1	navigation/STIM_008.jpg
300.339	2.662	correct	navigation	Trial1	navigation/STIM_008.jpg
306.464	2.651	correct	navigation	Trial1	navigation/STIM_009.jpg
313.072	2.372	correct	navigation	Trial1	navigation/STIM_009.jpg
317.786	2.236	correct	navigation	Trial1	navigation/STIM_009.jpg
323.062	2.074	correct	navigation	Trial1	navigation/STIM_009.jpg
328.72	2.695	correct	navigation	Trial1	navigation/STIM_009.jpg
334.887	2.807	incorrect	navigation	Trial1	navigation/STIM_009.jpg
341.172	4.114	incorrect	navigation	Trial1	navigation/STIM_010.jpg
348.95	3.752	correct	navigation	Trial1	navigation/STIM_010.jpg
356.087	1.934	correct	navigation	Trial1	navigation/STIM_010.jpg
360.223	2.594	correct	navigation	Trial1	navigation/STIM_010.jpg
365.584	1.667	correct	navigation	Trial1	navigation/STIM_010.jpg
369.64	1.548	correct	navigation	Trial1	navigation/STIM_010.jpg
374.956	2.046	correct	navigation	Trial1	navigation/STIM_011.jpg
379.908	2.769	correct	navigation	Trial1	navigation/STIM_011.jpg
385.368	2.929	correct	navigation	Trial1	navigation/STIM_011.jpg
391.1	2.254	correct	navigation	Trial1	navigation/STIM_011.jpg
395.692	1.641	correct	navigation	Trial1	navigation/STIM_011.jpg
400.661	2.217	correct	navigation	Trial1	navigation/STIM_011.jpg
405.563	1.126	correct	pointing	Trial1	pointing/STIM_000.jpg
409.988	1.249	correct	pointing	Trial1	pointing/STIM_000.jpg
414.265	1.092	correct	pointing	Trial1	pointing/STIM_000.jpg
417.597	1.082	correct	pointing	Trial1	pointing/STIM_000.jpg
421.593	1.136	correct	pointing	Trial1	pointing/STIM_000.jpg
424.824	1.278	correct	pointing	Trial1	pointing/STIM_000.jpg
429.007	1.102	correct	pointing	Trial1	pointing/STIM_001.jpg
432.885	1.021	correct	pointing	Trial1	pointing/STIM_001.jpg
436.568	0.923	correct	pointing	Trial1	pointing/STIM_001.jpg
440.962	0.766	correct	pointing	Trial1	pointing/STIM_001.jpg
445.042	0.87	correct	pointing	Trial1	pointing/STIM_001.jpg
448.717	0.829	correct	pointing	Trial1	pointing/STIM_001.jpg
451.917	0.728	correct	pointing	Trial1	pointing/STIM_002.jpg
454.831	0.983	correct	pointing	Trial1	pointing/STIM_002.jpg
458.849	1.175	correct	pointing	Trial1	pointing/STIM_002.jpg
463.981	0.939	correct	pointing	Trial1	pointing/STIM_002.jpg
467.856	1.285	correct	pointing	Trial1	pointing/STIM_002.jpg
472.339	0.979	correct	pointing	Trial1	pointing/STIM_002.jpg
476.435	1.229	correct	pointing	Trial1	pointing/STIM_003.jpg
481.585	1.147	correct	pointing	Trial1	pointing/STIM_003.jpg
486.729	0.821	correct	pointing	Trial1	pointing/STIM_003.jpg
490.742	0.946	correct	pointing	Trial1	pointing/STIM_003.jpg
495.377	0.718	correct	pointing	Trial1	pointing/STIM_003.jpg
500.004	0.903	incorrect	pointing	Trial1	pointing/STIM_003.jpg
504.028	1.296	correct	pointing	Trial1	pointing/STIM_004.jpg
507.346	0.838	correct	pointing	Trial1	pointing/STIM_004.jpg
510.748	1.252	correct	pointing	Trial1	pointing/STIM_004.jpg
515.341	0.954	correct	pointing	Trial1	pointing/STIM_004.jpg
519.414	1.131	correct	pointing	Trial1	pointing/STIM_004.jpg
522.923	1.138	correct	pointing	Trial1	pointing/STIM_004.jpg
526.302	0.908	correct	pointing	Trial1	pointing/STIM_005.jpg
529.425	1.044	correct	pointing	Trial1	pointing/STIM_005.jpg
532.986	1.181	correct	pointing	Trial1	pointing/STIM_005.jpg
536.225	0.995	correct	pointing	Trial1	pointing/STIM_005.jpg
539.296	1.23	correct	pointing	Trial1	pointing/STIM_005.jpg
544.083	1.035	incorrect	pointing	Trial1	pointing/STIM_005.jpg
549.02	0.953	correct	pointing	Trial1	pointing/STIM_006.jpg
553.345	0.903	correct	pointing	Trial1	pointing/STIM_006.jpg
556.853	0.97	correct	pointing	Trial1	pointing/STIM_006.jpg
560.621	1.307	correct	pointing	Trial1	pointing/STIM_006.jpg
564.491	1.299	correct	pointing	Trial1	pointing/STIM_006.jpg
568.296	1.333	correct	pointing	Trial1	pointing/STIM_006.jpg
573.589	0.911	correct	pointing	Trial1	pointing/STIM_007.jpg
577.941	0.718	correct	pointing	Trial1	pointing/STIM_007.jpg
580.665	0.962	correct	pointing	Trial1	pointing/STIM_007.jpg
584.875	1.005	correct	pointing	Trial1	pointing/STIM_007.jpg
588.404	1.17	correct	pointing	Trial1	pointing/STIM_007.jpg
593.454	0.782	correct	pointing	Trial1	pointing/STIM_007.jpg
597.853	0.957	correct	pointing	Trial1	pointing/STIM_008.jpg
601.42	0.847	correct	pointing	Trial1	pointing/STIM_008.jpg
606.214	1.24	correct	pointing	Trial1	pointing/STIM_008.jpg
609.966	1.167	correct	pointing	Trial1	pointing/STIM_008.jpg
613.291	1.338	correct	pointing	Trial1	pointing/STIM_008.jpg
616.677	0.908	correct	pointing	Trial1	pointing/STIM_008.jpg
620.613	1.101	correct	pointing	Trial1	pointing/STIM_009.jpg
624.649	0.823	correct	pointing	Trial1	pointing/STIM_009.jpg
627.855	1.075	correct	pointing	Trial1	pointing/STIM_009.jpg
630.962	1.161	correct	pointing	Trial1	pointing/STIM_009.jpg
635.748	0.804	correct	pointing	Trial1	pointing/STIM_009.jpg
639.795	1.264	correct	pointing	Trial1	pointing/STIM_009.jpg
643.855	1.292	correct	pointing	Trial1	pointing/STIM_010.jpg
649.045	1.247	correct	pointing	Trial1	pointing/STIM_010.jpg
653.088	1.012	correct	pointing	Trial1	pointing/STIM_010.jpg
657.829	1.03	correct	pointing	Trial1	pointing/STIM_010.jpg
662.286	0.741	correct	pointing	Trial1	pointing/STIM_010.jpg
666.958	0.73	correct	pointing	Trial1	pointing/STIM_010.jpg
671.185	1.094	correct	pointing	Trial1	pointing/STIM_011.jpg
674.496	0.749	correct	pointing	Trial1	pointing/STIM_011.jpg
677.658	1.16	correct	pointing	Trial1	pointing/STIM_011.jpg
681.74	0.842	correct	pointing	Trial1	pointing/STIM_011.jpg
684.602	0.746	correct	pointing	Trial1	pointing/STIM_011.jpg
689.142	0.816	correct	pointing	Trial1	pointing/STIM_011.jpg
692.596	3.455	correct	navigation	Trial2	navigation/STIM_000.jpg
699.654	3.546	correct	navigation	Trial2	navigation/STIM_000.jpg
706.931	2.93	correct	navigation	Trial2	navigation/STIM_000.jpg
712.515	2.682	correct	navigation	Trial2	navigation/STIM_000.jpg
718.331	1.824	correct	navigation	Trial2	navigation/STIM_000.jpg
722.857	1.932	correct	navigation	Trial2	navigation/STIM_000.jpg
727.149	3.225	correct	navigation	Trial2	navigation/STIM_001.jpg
734.057	2.679	correct	navigation	Trial2	navigation/STIM_001.jpg
740.611	2.324	correct	navigation	Trial2	navigation/STIM_001.jpg
746.122	1.44	incorrect	navigation	Trial2	navigation/STIM_001.jpg
750.642	2.896	correct	navigation	Trial2	navigation/STIM_001.jpg
757.031	1.663	correct	navigation	Trial2	navigation/STIM_001.jpg
762.192	2.929	correct	navigation	Trial2	navigation/STIM_002.jpg
768.039	3.052	correct	navigation	Trial2	navigation/STIM_002.jpg
774.874	1.841	incorrect	navigation	Trial2	navigation/STIM_002.jpg
780.429	2.352	correct	navigation	Trial2	navigation/STIM_002.jpg
786.268	2.406	correct	navigation	Trial2	navigation/STIM_002.jpg
791.833	2.362	correct	navigation	Trial2	navigation/STIM_002.jpg
796.674	1.622	correct	navigation	Trial2	navigation/STIM_003.jpg
802.108	2.526	correct	navigation	Trial2	navigation/STIM_003.jpg
807.479	1.918	correct	navigation	Trial2	navigation/STIM_003.jpg
812.71	1.625	correct	navigation	Trial2	navigation/STIM_003.jpg
817.015	1.458	correct	navigation	Trial2	navigation/STIM_003.jpg
820.953	1.697	correct	navigation	Trial2	navigation/STIM_003.jpg
826.286	3.37	correct	navigation	Trial2	navigation/STIM_004.jpg
832.26	2.906	correct	navigation	Trial2	navigation/STIM_004.jpg
838.119	3.17	correct	navigation	Trial2	navigation/STIM_004.jpg
844.815	1.476	correct	navigation	Trial2	navigation/STIM_004.jpg
848.506	1.322	correct	navigation	Trial2	navigation/STIM_004.jpg
853.677	2.832	correct	navigation	Trial2	navigation/STIM_004.jpg
860.064	2.822	correct	navigation	Trial2	navigation/STIM_005.jpg
865.269	2.265	correct	navigation	Trial2	navigation/STIM_005.jpg
871.031	1.418	incorrect	navigation	Trial2	navigation/STIM_005.jpg
876.346	2.443	correct	navigation	Trial2	navigation/STIM_005.jpg
882.162	1.912	correct	navigation	Trial2	navigation/STIM_005.jpg
887.645	1.283	correct	navigation	Trial2	navigation/STIM_005.jpg
892.209	2.703	correct	navigation	Trial2	navigation/STIM_006.jpg
898.617	3.292	correct	navigation	Trial2	navigation/STIM_006.jpg
905.078	1.347	incorrect	navigation	Trial2	navigation/STIM_006.jpg
909.951	2.236	correct	navigation	Trial2	navigation/STIM_006.jpg
915.511	3.004	correct	navigation	Trial2	navigation/STIM_006.jpg
922.187	2.029	correct	navigation	Trial2	navigation/STIM_006.jpg
927.31	3.454	correct	navigation	Trial2	navigation/STIM_007.jpg
934.177	2.534	correct	navigation	Trial2	navigation/STIM_007.jpg
939.58	3.156	correct	navigation	Trial2	navigation/STIM_007.jpg
945.28	2.656	correct	navigation	Trial2	navigation/STIM_007.jpg
950.81	1.315	correct	navigation	Trial2	navigation/STIM_007.jpg
954.249	2.699	correct	navigation	Trial2	navigation/STIM_007.jpg
959.014	3.327	incorrect	navigation	Trial2	navigation/STIM_008.jpg
966.002	2.067	correct	navigation	Trial2	navigation/STIM_008.jpg
972.065	1.696	correct	navigation	Trial2	navigation/STIM_008.jpg
976.049	2.007	correct	navigation	Trial2	navigation/STIM_008.jpg
981.379	1.917	correct	navigation	Trial2	navigation/STIM_008.jpg
985.479	1.676	correct	navigation	Trial2	navigation/STIM_008.jpg
989.355	3.618	correct	navigation	Trial2	navigation/STIM_009.jpg
995.291	3.139	correct	navigation	Trial2	navigation/STIM_009.jpg
1001.36	3.209	correct	navigation	Trial2	navigation/STIM_009.jpg
1007.596	2.637	correct	navigation	Trial2	navigation/STIM_009.jpg
1012.432	1.995	correct	navigation	Trial2	navigation/STIM_009.jpg
1017.417	2.002	incorrect	navigation	Trial2	navigation/STIM_009.jpg
1023.025	3.141	correct	navigation	Trial2	navigation/STIM_010.jpg
1029.76	1.873	correct	navigation	Trial2	navigation/STIM_010.jpg
1034.814	2.202	incorrect	navigation	Trial2	navigation/STIM_010.jpg
1039.846	2.992	correct	navigation	Trial2	navigation/STIM_010.jpg
1045.835	2.578	correct	navigation	Trial2	navigation/STIM_010.jpg
1050.508	1.549	correct	navigation	Trial2	navigation/STIM_010.jpg
1054.158	3.195	correct	navigation	Trial2	navigation/STIM_011.jpg
1061.07	1.658	correct	navigation	Trial2	navigation/STIM_011.jpg
1065.807	1.529	incorrect	navigation	Trial2	navigation/STIM_011.jpg
1070.182	1.596	incorrect	navigation	Trial2	navigation/STIM_011.jpg
1075.347	2.243	incorrect	navigation	Trial2	navigation/STIM_011.jpg
1080.368	1.706	correct	navigation	Trial2	navigation/STIM_011.jpg
1084.841	1.317	correct	pointing	Trial2	pointing/STIM_000.jpg
1088.499	0.738	correct	pointing	Trial2	pointing/STIM_000.jpg
1092.781	1.241	correct	pointing	Trial2	pointing/STIM_000.jpg
1096.386	1.029	correct	pointing	Trial2	pointing/STIM_000.jpg
1100.59	0.952	correct	pointing	Trial2	pointing/STIM_000.jpg
1103.945	0.85	incorrect	pointing	Trial2	pointing/STIM_000.jpg
1108.444	1.059	correct	pointing	Trial2	pointing/STIM_001.jpg
1111.713	0.98	correct	pointing	Trial2	pointing/STIM_001.jpg
1116.054	1.242	correct	pointing	Trial2	pointing/STIM_001.jpg
1120.432	0.872	correct	pointing	Trial2	pointing/STIM_001.jpg
1125.222	0.847	correct	pointing	Trial2	pointing/STIM_001.jpg
1128.819	1.238	correct	pointing	Trial2	pointing/STIM_001.jpg
1132.507	0.828	correct	pointing	Trial2	pointing/STIM_002.jpg
1136.87	1.269	correct	pointing	Trial2	pointing/STIM_002.jpg
1141.304	1.182	correct	pointing	Trial2	pointing/STIM_002.jpg
1145.709	0.949	correct	pointing	Trial2	pointing/STIM_002.jpg
1149.889	1.111	correct	pointing	Trial2	pointing/STIM_002.jpg
1154.559	1.259	correct	pointing	Trial2	pointing/STIM_002.jpg
1159.204	1.321	correct	pointing	Trial2	pointing/STIM_003.jpg
1163.36	0.809	correct	pointing	Trial2	pointing/STIM_003.jpg
1166.636	0.982	correct	pointing	Trial2	pointing/STIM_003.jpg
1170.259	0.959	correct	pointing	Trial2	pointing/STIM_003.jpg
1174.159	1.12	correct	pointing	Trial2	pointing/STIM_003.jpg
1178.826	1.249	correct	pointing	Trial2	pointing/STIM_003.jpg
1182.352	1.069	correct	pointing	Trial2	pointing/STIM_004.jpg
1187.375	1.261	correct	pointing	Trial2	pointing/STIM_004.jpg
1192.112	1.325	correct	pointing	Trial2	pointing/STIM_004.jpg
1197.274	0.763	correct	pointing	Trial2	pointing/STIM_004.jpg
1201.419	1.133	correct	pointing	Trial2	pointing/STIM_004.jpg
1204.97	1.101	correct	pointing	Trial2	pointing/STIM_004.jpg
1209.779	0.881	correct	pointing	Trial2	pointing/STIM_005.jpg
1213.772	0.929	correct	pointing	Trial2	pointing/STIM_005.jpg
1217.633	0.758	correct	pointing	Trial2	pointing/STIM_005.jpg
1220.657	0.975	correct	pointing	Trial2	pointing/STIM_005.jpg
1224.797	0.897	correct	pointing	Trial2	pointing/STIM_005.jpg
1228.755	0.748	correct	pointing	Trial2	pointing/STIM_005.jpg
1232.93	1.109	correct	pointing	Trial2	pointing/STIM_006.jpg
1236.958	0.926	correct	pointing	Trial2	pointing/STIM_006.jpg
1239.952	0.767	correct	pointing	Trial2	pointing/STIM_006.jpg
1242.995	0.87	correct	pointing	Trial2	pointing/STIM_006.jpg
1247.864	0.722	correct	pointing	Trial2	pointing/STIM_006.jpg
1251.723	0.973	correct	pointing	Trial2	pointing/STIM_006.jpg
1255.604	1.096	correct	pointing	Trial2	pointing/STIM_007.jpg
1260.432	0.722	correct	pointing	Trial2	pointing/STIM_007.jpg
1264.363	0.924	correct	pointing	Trial2	pointing/STIM_007.jpg
1268.61	1.315	correct	pointing	Trial2	pointing/STIM_007.jpg
1273.063	0.807	correct	pointing	Trial2	pointing/STIM_007.jpg
1277.547	1.21	correct	pointing	Trial2	pointing/STIM_007.jpg
1282.12	0.99	correct	pointing	Trial2	pointing/STIM_008.jpg
1286.431	0.766	correct	pointing	Trial2	pointing/STIM_008.jpg
1289.922	1.043	incorrect	pointing	Trial2	pointing/STIM_008.jpg
1293.588	0.822	correct	pointing	Trial2	pointing/STIM_008.jpg
1298.023	0.898	correct	pointing	Trial2	pointing/STIM_008.jpg
1301.308	0.752	correct	pointing	Trial2	pointing/STIM_008.jpg
1305.29	0.931	correct	pointing	Trial2	pointing/STIM_009.jpg
1308.636	1.276	correct	pointing	Trial2	pointing/STIM_009.jpg
1313.858	1.008	correct	pointing	Trial2	pointing/STIM_009.jpg
1317.423	0.976	correct	pointing	Trial2	pointing/STIM_009.jpg
1320.768	0.821	correct	pointing	Trial2	pointing/STIM_009.jpg
1324.767	0.919	correct	pointing	Trial2	pointing/STIM_009.jpg
1329.447	1.09	correct	pointing	Trial2	pointing/STIM_010.jpg
1334.309	1.015	correct	pointing	Trial2	pointing/STIM_010.jpg
1338.789	1.125	correct	pointing	Trial2	pointing/STIM_010.jpg
1343.867	0.957	correct	pointing	Trial2	pointing/STIM_010.jpg
1348.165	1.246	correct	pointing	Trial2	pointing/STIM_010.jpg
1352.515	0.869	correct	pointing	Trial2	pointing/STIM_010.jpg
1355.503	0.896	correct	pointing	Trial2	pointing/STIM_011.jpg
1359.929	1.237	correct	pointing	Trial2	pointing/STIM_011.jpg
1364.277	0.756	correct	pointing	Trial2	pointing/STIM_011.jpg
1368.498	1.292	correct	pointing	Trial2	pointing/STIM_011.jpg
1371.975	1.055	correct	pointing	Trial2	pointing/STIM_011.jpg
1375.885	1.107	correct	pointing	Trial2	pointing/STIM_011.jpg
1380.251	1.253	correct	navigation	Trial3	navigation/STIM_000.jpg
1383.566	2.358	correct	navigation	Trial3	navigation/STIM_000.jpg
1389.75	2.666	correct	navigation	Trial3	navigation/STIM_000.jpg
1394.7	2.671	correct	navigation	Trial3	navigation/STIM_000.jpg
1400.449	1.364	correct	navigation	Trial3	navigation/STIM_000.jpg
1405.003	2.293	correct	navigation	Trial3	navigation/STIM_000.jpg
1410.607	2.695	correct	navigation	Trial3	navigation/STIM_001.jpg
1416.267	1.857	correct	navigation	Trial3	navigation/STIM_001.jpg
1420.664	2.175	correct	navigation	Trial3	navigation/STIM_001.jpg
1425.349	2.493	incorrect	navigation	Trial3	navigation/STIM_001.jpg
1429.87	2.63	correct	navigation	Trial3	navigation/STIM_001.jpg
1436.141	2.462	correct	navigation	Trial3	navigation/STIM_001.jpg
1440.966	2.32	incorrect	navigation	Trial3	navigation/STIM_002.jpg
1445.48	2.074	correct	navigation	Trial3	navigation/STIM_002.jpg
1451.173	1.265	correct	navigation	Trial3	navigation/STIM_002.jpg
1455.793	2.303	correct	navigation	Trial3	navigation/STIM_002.jpg
1460.6	1.744	correct	navigation	Trial3	navigation/STIM_002.jpg
1466.203	2.829	correct	navigation	Trial3	navigation/STIM_002.jpg
1472.196	3.122	correct	navigation	Trial3	navigation/STIM_003.jpg
1477.404	2.438	correct	navigation	Trial3	navigation/STIM_003.jpg
1482.383	2.497	correct	navigation	Trial3	navigation/STIM_003.jpg
1487.608	2.972	incorrect	navigation	Trial3	navigation/STIM_003.jpg
1493.238	1.337	correct	navigation	Trial3	navigation/STIM_003.jpg
1498.16	3.033	correct	navigation	Trial3	navigation/STIM_003.jpg
1505.043	1.53	correct	navigation	Trial3	navigation/STIM_004.jpg
1509.771	2.834	correct	navigation	Trial3	navigation/STIM_004.jpg
1516.533	2.685	correct	navigation	Trial3	navigation/STIM_004.jpg
1521.958	2.772	incorrect	navigation	Trial3	navigation/STIM_004.jpg
1527.63	1.388	correct	navigation	Trial3	navigation/STIM_004.jpg
1532.525	2.366	correct	navigation	Trial3	navigation/STIM_004.jpg
1538.102	2.511	correct	navigation	Trial3	navigation/STIM_005.jpg
1543.67	1.564	correct	navigation	Trial3	navigation/STIM_005.jpg
1547.433	2.204	correct	navigation	Trial3	navigation/STIM_005.jpg
1553.083	1.866	correct	navigation	Trial3	navigation/STIM_005.jpg
1557.313	1.765	correct	navigation	Trial3	navigation/STIM_005.jpg
1562.667	2.702	correct	navigation	Trial3	navigation/STIM_005.jpg
1568.602	1.601	correct	navigation	Trial3	navigation/STIM_006.jpg
1573.979	2.746	incorrect	navigation	Trial3	navigation/STIM_006.jpg
1579.164	2.661	correct	navigation	Trial3	navigation/STIM_006.jpg
1583.972	2.15	correct	navigation	Trial3	navigation/STIM_006.jpg
1590.081	1.414	correct	navigation	Trial3	navigation/STIM_006.jpg
1593.961	3.042	correct	navigation	Trial3	navigation/STIM_006.jpg
1599.192	1.615	correct	navigation	Trial3	navigation/STIM_007.jpg
1604.28	2.761	incorrect	navigation	Trial3	navigation/STIM_007.jpg
1610.056	2.327	correct	navigation	Trial3	navigation/STIM_007.jpg
1614.99	3.118	correct	navigation	Trial3	navigation/STIM_007.jpg
1620.486	2.891	correct	navigation	Trial3	navigation/STIM_007.jpg
1626.143	1.481	correct	navigation	Trial3	navigation/STIM_007.jpg
1630.97	2.413	correct	navigation	Trial3	navigation/STIM_008.jpg
1636.939	1.744	correct	navigation	Trial3	navigation/STIM_008.jpg
1642.017	2.079	correct	navigation	Trial3	navigation/STIM_008.jpg
1646.464	1.668	correct	navigation	Trial3	navigation/STIM_008.jpg
1651.845	1.313	correct	navigation	Trial3	navigation/STIM_008.jpg
1655.709	2.485	correct	navigation	Trial3	navigation/STIM_008.jpg
1660.492	2.214	correct	navigation	Trial3	navigation/STIM_009.jpg
1665.246	2.487	correct	navigation	Trial3	navigation/STIM_009.jpg
1670.349	1.347	correct	navigation	Trial3	navigation/STIM_009.jpg
1675.487	1.45	correct	navigation	Trial3	navigation/STIM_009.jpg
1679.672	1.771	correct	navigation	Trial3	navigation/STIM_009.jpg
1683.641	2.875	correct	navigation	Trial3	navigation/STIM_009.jpg
1688.554	2.693	correct	navigation	Trial3	navigation/STIM_010.jpg
1693.96	2.985	correct	navigation	Trial3	navigation/STIM_010.jpg
1699.838	2.503	correct	navigation	Trial3	navigation/STIM_010.jpg
1706.05	2.452	correct	navigation	Trial3	navigation/STIM_010.jpg
1711.456	2.356	correct	navigation	Trial3	navigation/STIM_010.jpg
1716.923	1.918	correct	navigation	Trial3	navigation/STIM_010.jpg
1722.425	2.332	correct	navigation	Trial3	navigation/STIM_011.jpg
1727.901	1.39	incorrect	navigation	Trial3	navigation/STIM_011.jpg
1731.434	1.744	correct	navigation	Trial3	navigation/STIM_011.jpg
1736.051	2.269	correct	navigation	Trial3	navigation/STIM_011.jpg
1740.447	1.274	correct	navigation	Trial3	navigation/STIM_011.jpg
1745.193	2.198	correct	navigation	Trial3	navigation/STIM_011.jpg
1750.182	0.932	correct	pointing	Trial3	pointing/STIM_000.jpg
1753.527	1.321	correct	pointing	Trial3	pointing/STIM_000.jpg
1756.987	1.237	correct	pointing	Trial3	pointing/STIM_000.jpg
1761.35	1.182	correct	pointing	Trial3	pointing/STIM_000.jpg
1765.346	0.825	correct	pointing	Trial3	pointing/STIM_000.jpg
1769.945	1.151	correct	pointing	Trial3	pointing/STIM_000.jpg
1773.685	1.121	incorrect	pointing	Trial3	pointing/STIM_001.jpg
1778.124	0.928	correct	pointing	Trial3	pointing/STIM_001.jpg
1782.943	0.997	correct	pointing	Trial3	pointing/STIM_001.jpg
1786.233	0.932	correct	pointing	Trial3	pointing/STIM_001.jpg
1789.657	1.115	correct	pointing	Trial3	pointing/STIM_001.jpg
1794.497	0.724	correct	pointing	Trial3	pointing/STIM_001.jpg
1797.328	0.817	incorrect	pointing	Trial3	pointing/STIM_002.jpg
1802.045	0.733	correct	pointing	Trial3	pointing/STIM_002.jpg
1805.73	1.08	correct	pointing	Trial3	pointing/STIM_002.jpg
1808.837	1.054	correct	pointing	Trial3	pointing/STIM_002.jpg
1811.941	1.19	correct	pointing	Trial3	pointing/STIM_002.jpg
1815.572	0.751	correct	pointing	Trial3	pointing/STIM_002.jpg
1818.52	0.788	correct	pointing	Trial3	pointing/STIM_003.jpg
1821.318	0.954	correct	pointing	Trial3	pointing/STIM_003.jpg
1825.585	0.726	correct	pointing	Trial3	pointing/STIM_003.jpg
1828.539	1.13	correct	pointing	Trial3	pointing/STIM_003.jpg
1831.904	1.312	correct	pointing	Trial3	pointing/STIM_003.jpg
1837.167	0.792	correct	pointing	Trial3	pointing/STIM_003.jpg
1841.096	0.776	correct	pointing	Trial3	pointing/STIM_004.jpg
1845.726	1.243	correct	pointing	Trial3	pointing/STIM_004.jpg
1850.35	1.095	correct	pointing	Trial3	pointing/STIM_004.jpg
1854.21	1.267	correct	pointing	Trial3	pointing/STIM_004.jpg
1857.688	1.265	correct	pointing	Trial3	pointing/STIM_004.jpg
1862.192	1.193	correct	pointing	Trial3	pointing/STIM_004.jpg
1865.646	1.12	correct	pointing	Trial3	pointing/STIM_005.jpg
1869.511	1.064	correct	pointing	Trial3	pointing/STIM_005.jpg
1873.867	1.206	correct	pointing	Trial3	pointing/STIM_005.jpg
1878.823	0.85	correct	pointing	Trial3	pointing/STIM_005.jpg
1883.001	1.168	incorrect	pointing	Trial3	pointing/STIM_005.jpg
1886.714	0.91	correct	pointing	Trial3	pointing/STIM_005.jpg
1891.178	1.151	correct	pointing	Trial3	pointing/STIM_006.jpg
1895.757	0.979	correct	pointing	Trial3	pointing/STIM_006.jpg
1900.51	1.296	correct	pointing	Trial3	pointing/STIM_006.jpg
1905.278	0.983	correct	pointing	Trial3	pointing/STIM_006.jpg
1908.42	0.985	incorrect	pointing	Trial3	pointing/STIM_006.jpg
1911.782	0.899	correct	pointing	Trial3	pointing/STIM_006.jpg
1916.067	1.173	correct	pointing	Trial3	pointing/STIM_007.jpg
1920.461	1.08	correct	pointing	Trial3	pointing/STIM_007.jpg
1924.059	1.211	correct	pointing	Trial3	pointing/STIM_007.jpg
1928.626	1.257	correct	pointing	Trial3	pointing/STIM_007.jpg
1933.415	1.326	correct	pointing	Trial3	pointing/STIM_007.jpg
1937.971	1.217	correct	pointing	Trial3	pointing/STIM_007.jpg
1941.696	1.281	correct	pointing	Trial3	pointing/STIM_008.jpg
1945.138	1.312	correct	pointing	Trial3	pointing/STIM_008.jpg
1948.793	1.173	correct	pointing	Trial3	pointing/STIM_008.jpg
1953.856	1.298	correct	pointing	Trial3	pointing/STIM_008.jpg
1957.376	1.326	correct	pointing	Trial3	pointing/STIM_008.jpg
1962.559	0.991	correct	pointing	Trial3	pointing/STIM_008.jpg
1965.738	0.742	correct	pointing	Trial3	pointing/STIM_009.jpg
1969.536	0.964	correct	pointing	Trial3	pointing/STIM_009.jpg
1973.657	1.011	correct	pointing	Trial3	pointing/STIM_009.jpg
1976.762	1.282	correct	pointing	Trial3	pointing/STIM_009.jpg
1981.503	0.866	correct	pointing	Trial3	pointing/STIM_009.jpg
1985.926	0.752	correct	pointing	Trial3	pointing/STIM_009.jpg
1989.539	0.892	correct	pointing	Trial3	pointing/STIM_010.jpg
1994.006	0.775	correct	pointing	Trial3	pointing/STIM_010.jpg
1996.871	1.176	correct	pointing	Trial3	pointing/STIM_010.jpg
2000.907	0.853	correct	pointing	Trial3	pointing/STIM_010.jpg
2005.639	1.101	correct	pointing	Trial3	pointing/STIM_010.jpg
2010.338	1.175	correct	pointing	Trial3	pointing/STIM_010.jpg
2014.39	1.052	correct	pointing	Trial3	pointing/STIM_011.jpg
2018.141	0.717	correct	pointing	Trial3	pointing/STIM_011.jpg
2022.326	1.312	correct	pointing	Trial3	pointing/STIM_011.jpg
2026.991	0.964	correct	pointing	Trial3	pointing/STIM_011.jpg
2030.18	0.832	correct	pointing	Trial3	pointing/STIM_011.jpg
2033.682	1.186	correct	pointing	Trial3	pointing/STIM_011.jpg
