onset	duration	response_time_ms	trial_type	learning_stage	stimulus	response_port
0.0	2.864	2863.5	navigation	Trial1	navigation/STIM_000.jpg	99
6.106	2.171	2170.8	navigation	Trial1	navigation/STIM_000.jpg	99
12.022	3.514	3513.7	navigation	Trial1	navigation/STIM_000.jpg	99
19.427	1.619	1618.9	navigation	Trial1	navigation/STIM_000.jpg	99
24.224	2.55	2549.7	navigation	Trial1	navigation/STIM_000.jpg	99
29.915	2.592	2592.1	navigation	Trial1	navigation/STIM_000.jpg	99
35.53	2.955	2954.8	navigation	Trial1	navigation/STIM_001.jpg	100
40.641	1.714	1713.6	navigation	Trial1	navigation/STIM_001.jpg	100
44.93	1.621	1621.3	navigation	Trial1	navigation/STIM_001.jpg	100
48.671	1.731	1730.8	navigation	Trial1	navigation/STIM_001.jpg	100
53.751	1.547	1547.3	navigation	Trial1	navigation/STIM_001.jpg	100
59.287	2.524	2523.5	navigation	Trial1	navigation/STIM_001.jpg	99
64.62	3.333	3332.6	navigation	Trial1	navigation/STIM_002.jpg	99
71.279	3.511	3511.4	navigation	Trial1	navigation/STIM_002.jpg	99
78.042	3.988	3988.4	navigation	Trial1	navigation/STIM_002.jpg	100
84.175	3.418	3418.4	navigation	Trial1	navigation/STIM_002.jpg	100
91.296	1.914	1914.3	navigation	Trial1	navigation/STIM_002.jpg	100
95.908	2.165	2165.1	navigation	Trial1	navigation/STIM_002.jpg	100
100.999	2.854	2854.4	navigation	Trial1	navigation/STIM_003.jpg	99
107.279	3.744	3744.5	navigation	Trial1	navigation/STIM_003.jpg	99
113.424	3.615	3615.4	navigation	Trial1	navigation/STIM_003.jpg	100
119.796	2.892	2891.9	navigation	Trial1	navigation/STIM_003.jpg	100
125.274	1.494	1494.3	navigation	Trial1	navigation/STIM_003.jpg	99
130.337	2.012	2011.8	navigation	Trial1	navigation/STIM_003.jpg	99
135.413	2.33	2329.5	navigation	Trial1	navigation/STIM_004.jpg	100
140.129	3.116	3115.8	navigation	Trial1	navigation/STIM_004.jpg	100
145.431	3.832	3831.8	navigation	Trial1	navigation/STIM_004.jpg	100
153.098	1.739	1739.0	navigation	Trial1	navigation/STIM_004.jpg	99
158.412	2.75	2750.1	navigation	Trial1	navigation/STIM_004.jpg	100
164.552	3.141	3141.1	navigation	Trial1	navigation/STIM_004.jpg	100
170.051	4.102	4102.4	navigation	Trial1	navigation/STIM_005.jpg	100
177.649	2.732	2732.4	navigation	Trial1	navigation/STIM_005.jpg	100
183.089	2.581	2581.4	navigation	Trial1	navigation/STIM_005.jpg	99
187.813	2.903	2903.3	navigation	Trial1	navigation/STIM_005.jpg	99
193.131	2.147	2146.9	navigation	Trial1	navigation/STIM_005.jpg	100
198.492	3.175	3175.1	navigation	Trial1	navigation/STIM_005.jpg	100
203.99	1.919	1918.7	navigation	Trial1	navigation/STIM_006.jpg	99
208.177	3.242	3241.5	navigation	Trial1	navigation/STIM_006.jpg	100
215.213	2.488	2487.6	navigation	Trial1	navigation/STIM_006.jpg	99
220.23	3.575	3574.6	navigation	Trial1	navigation/STIM_006.jpg	100
227.315	1.981	1981.4	navigation	Trial1	navigation/STIM_006.jpg	100
231.817	2.816	2816.4	navigation	Trial1	navigation/STIM_006.jpg	99
237.607	1.899	1898.9	navigation	Trial1	navigation/STIM_007.jpg	100
242.182	3.847	3846.8	navigation	Trial1	navigation/STIM_007.jpg	100
248.314	2.054	2054.0	navigation	Trial1	navigation/STIM_007.jpg	100
253.711	2.243	2242.6	navigation	Trial1	navigation/STIM_007.jpg	100
257.972	3.292	3292.3	navigation	Trial1	navigation/STIM_007.jpg	100
265.208	2.548	2548.3	navigation	Trial1	navigation/STIM_007.jpg	100
270.83	1.936	1936.5	navigation	Trial1	navigation/STIM_008.jpg	99
274.837	3.205	3204.8	navigation	Trial1	navigation/STIM_008.jpg	100
282.037	3.064	3063.5	navigation	Trial1	navigation/STIM_008.jpg	100
288.514	2.706	2705.9	navigation	Trial1	navigation/STIM_008.jpg	100
294.837	1.707	1707.1	navigation	Trial1	navigation/STIM_008.jpg	100
300.339	2.662	2661.5	navigation	Trial1	navigation/STIM_008.jpg	99
306.464	2.651	2651.0	navigation	Trial1	navigation/STIM_009.jpg	99
313.072	2.372	2371.6	navigation	Trial1	navigation/STIM_009.jpg	100
317.786	2.236	2236.4	navigation	Trial1	navigation/STIM_009.jpg	100
323.062	2.074	2073.9	navigation	Trial1	navigation/STIM_009.jpg	99
328.72	2.695	2694.6	navigation	Trial1	navigation/STIM_009.jpg	99
334.887	2.807	2806.9	navigation	Trial1	navigation/STIM_009.jpg	99
341.172	4.114	4114.0	navigation	Trial1	navigation/STIM_010.jpg	99
348.95	3.752	3752.2	navigation	Trial1	navigation/STIM_010.jpg	99
356.087	1.934	1934.4	navigation	Trial1	navigation/STIM_010.jpg	99
360.223	2.594	2594.0	navigation	Trial1	navigation/STIM_010.jpg	100
365.584	1.667	1667.4	navigation	Trial1	navigation/STIM_010.jpg	99
369.64	1.548	1548.5	navigation	Trial1	navigation/STIM_010.jpg	99
374.956	2.046	2046.0	navigation	Trial1	navigation/STIM_011.jpg	100
379.908	2.769	2769.4	navigation	Trial1	navigation/STIM_011.jpg	100
385.368	2.929	2928.6	navigation	Trial1	navigation/STIM_011.jpg	100
391.1	2.254	2253.8	navigation	Trial1	navigation/STIM_011.jpg	100
395.692	1.641	1641.0	navigation	Trial1	navigation/STIM_011.jpg	100
400.661	2.217	2216.6	navigation	Trial1	navigation/STIM_011.jpg	99
405.563	1.126	1126.1	pointing	Trial1	pointing/STIM_000.jpg	99
409.988	1.249	1248.9	pointing	Trial1	pointing/STIM_000.jpg	99
414.265	1.092	1091.9	pointing	Trial1	pointing/STIM_000.jpg	99
417.597	1.082	1082.4	pointing	Trial1	pointing/STIM_000.jpg	99
421.593	1.136	1135.6	pointing	Trial1	pointing/STIM_000.jpg	100
424.824	1.278	1277.5	pointing	Trial1	pointing/STIM_000.jpg	99
429.007	1.102	1101.9	pointing	Trial1	pointing/STIM_001.jpg	99
432.885	1.021	1020.6	pointing	Trial1	pointing/STIM_001.jpg	100
436.568	0.923	923.0	pointing	Trial1	pointing/STIM_001.jpg	100
440.962	0.766	766.2	pointing	Trial1	pointing/STIM_001.jpg	100
445.042	0.87	870.5	pointing	Trial1	pointing/STIM_001.jpg	100
448.717	0.829	829.3	pointing	Trial1	pointing/STIM_001.jpg	100
451.917	0.728	728.0	pointing	Trial1	pointing/STIM_002.jpg	100
454.831	0.983	983.4	pointing	Trial1	pointing/STIM_002.jpg	99
458.849	1.175	1175.2	pointing	Trial1	pointing/STIM_002.jpg	100
463.981	0.939	938.8	pointing	Trial1	pointing/STIM_002.jpg	100
467.856	1.285	1285.3	pointing	Trial1	pointing/STIM_002.jpg	100
472.339	0.979	978.6	pointing	Trial1	pointing/STIM_002.jpg	100
476.435	1.229	1229.4	pointing	Trial1	pointing/STIM_003.jpg	99
481.585	1.147	1147.4	pointing	Trial1	pointing/STIM_003.jpg	100
486.729	0.821	820.7	pointing	Trial1	pointing/STIM_003.jpg	100
490.742	0.946	945.9	pointing	Trial1	pointing/STIM_003.jpg	99
495.377	0.718	718.1	pointing	Trial1	pointing/STIM_003.jpg	100
500.004	0.903	903.1	pointing	Trial1	pointing/STIM_003.jpg	100
504.028	1.296	1296.1	pointing	Trial1	pointing/STIM_004.jpg	100
507.346	0.838	838.1	pointing	Trial1	pointing/STIM_004.jpg	99
510.748	1.252	1251.9	pointing	Trial1	pointing/STIM_004.jpg	100
515.341	0.954	953.9	pointing	Trial1	pointing/STIM_004.jpg	100
519.414	1.131	1131.0	pointing	Trial1	pointing/STIM_004.jpg	99
522.923	1.138	1137.9	pointing	Trial1	pointing/STIM_004.jpg	99
526.302	0.908	908.5	pointing	Trial1	pointing/STIM_005.jpg	99
529.425	1.044	1044.2	pointing	Trial1	pointing/STIM_005.jpg	100
532.986	1.181	1181.0	pointing	Trial1	pointing/STIM_005.jpg	100
536.225	0.995	995.0	pointing	Trial1	pointing/STIM_005.jpg	99
539.296	1.23	1230.5	pointing	Trial1	pointing/STIM_005.jpg	99
544.083	1.035	1034.6	pointing	Trial1	pointing/STIM_005.jpg	99
549.02	0.953	952.6	pointing	Trial1	pointing/STIM_006.jpg	99
553.345	0.903	903.4	pointing	Trial1	pointing/STIM_006.jpg	100
556.853	0.97	970.3	pointing	Trial1	pointing/STIM_006.jpg	100
560.621	1.307	1306.7	pointing	Trial1	pointing/STIM_006.jpg	99
564.491	1.299	1298.7	pointing	Trial1	pointing/STIM_006.jpg	100
568.296	1.333	1332.9	pointing	Trial1	pointing/STIM_006.jpg	100
573.589	0.911	911.4	pointing	Trial1	pointing/STIM_007.jpg	100
577.941	0.718	718.0	pointing	Trial1	pointing/STIM_007.jpg	100
580.665	0.962	962.5	pointing	Trial1	pointing/STIM_007.jpg	99
584.875	1.005	1004.8	pointing	Trial1	pointing/STIM_007.jpg	99
588.404	1.17	1170.2	pointing	Trial1	pointing/STIM_007.jpg	100
593.454	0.782	781.8	pointing	Trial1	pointing/STIM_007.jpg	100
597.853	0.957	956.8	pointing	Trial1	pointing/STIM_008.jpg	100
601.42	0.847	846.6	pointing	Trial1	pointing/STIM_008.jpg	100
606.214	1.24	1239.7	pointing	Trial1	pointing/STIM_008.jpg	99
609.966	1.167	1167.3	pointing	Trial1	pointing/STIM_008.jpg	100
613.291	1.338	1338.3	pointing	Trial1	pointing/STIM_008.jpg	99
616.677	0.908	908.0	pointing	Trial1	pointing/STIM_008.jpg	99
620.613	1.101	1101.2	pointing	Trial1	pointing/STIM_009.jpg	100
624.649	0.823	822.9	pointing	Trial1	pointing/STIM_009.jpg	100
627.855	1.075	1074.9	pointing	Trial1	pointing/STIM_009.jpg	99
630.962	1.161	1160.8	pointing	Trial1	pointing/STIM_009.jpg	99
635.748	0.804	804.5	pointing	Trial1	pointing/STIM_009.jpg	100
639.795	1.264	1263.7	pointing	Trial1	pointing/STIM_009.jpg	99
643.855	1.292	1291.7	pointing	Trial1	pointing/STIM_010.jpg	100
649.045	1.247	1246.9	pointing	Trial1	pointing/STIM_010.jpg	100
653.088	1.012	1012.5	pointing	Trial1	pointing/STIM_010.jpg	100
657.829	1.03	1029.9	pointing	Trial1	pointing/STIM_010.jpg	99
662.286	0.741	740.6	pointing	Trial1	pointing/STIM_010.jpg	99
666.958	0.73	730.3	pointing	Trial1	pointing/STIM_010.jpg	99
671.185	1.094	1093.7	pointing	Trial1	pointing/STIM_011.jpg	100
674.496	0.749	748.8	pointing	Trial1	pointing/STIM_011.jpg	100
677.658	1.16	1160.5	pointing	Trial1	pointing/STIM_011.jpg	99
681.74	0.842	841.5	pointing	Trial1	pointing/STIM_011.jpg	100
684.602	0.746	746.5	pointing	Trial1	pointing/STIM_011.jpg	100
689.142	0.816	815.5	pointing	Trial1	pointing/STIM_011.jpg	100
692.596	3.455	3454.6	navigation	Trial2	navigation/STIM_000.jpg	100
699.654	3.546	3546.5	navigation	Trial2	navigation/STIM_000.jpg	100
706.931	2.93	2929.6	navigation	Trial2	navigation/STIM_000.jpg	99
712.515	2.682	2682.0	navigation	Trial2	navigation/STIM_000.jpg	100
718.331	1.824	1824.1	navigation	Trial2	navigation/STIM_000.jpg	99
722.857	1.932	1932.3	navigation	Trial2	navigation/STIM_000.jpg	99
727.149	3.225	3224.8	navigation	Trial2	navigation/STIM_001.jpg	100
734.057	2.679	2679.3	navigation	Trial2	navigation/STIM_001.jpg	100
740.611	2.324	2323.8	navigation	Trial2	navigation/STIM_001.jpg	100
746.122	1.44	1440.5	navigation	Trial2	navigation/STIM_001.jpg	100
750.642	2.896	2895.8	navigation	Trial2	navigation/STIM_001.jpg	99
757.031	1.663	1663.3	navigation	Trial2	navigation/STIM_001.jpg	100
762.192	2.929	2928.7	navigation	Trial2	navigation/STIM_002.jpg	99
768.039	3.052	3052.0	navigation	Trial2	navigation/STIM_002.jpg	100
774.874	1.841	1840.9	navigation	Trial2	navigation/STIM_002.jpg	99
780.429	2.352	2352.3	navigation	Trial2	navigation/STIM_002.jpg	99
786.268	2.406	2406.3	navigation	Trial2	navigation/STIM_002.jpg	100
791.833	2.362	2361.6	navigation	Trial2	navigation/STIM_002.jpg	99
796.674	1.622	1621.9	navigation	Trial2	navigation/STIM_003.jpg	99
802.108	2.526	2525.8	navigation	Trial2	navigation/STIM_003.jpg	99
807.479	1.918	1918.4	navigation	Trial2	navigation/STIM_003.jpg	100
812.71	1.625	1624.6	navigation	Trial2	navigation/STIM_003.jpg	100
817.015	1.458	1457.7	navigation	Trial2	navigation/STIM_003.jpg	99
820.953	1.697	1697.0	navigation	Trial2	navigation/STIM_003.jpg	100
826.286	3.37	3369.9	navigation	Trial2	navigation/STIM_004.jpg	100
832.26	2.906	2905.5	navigation	Trial2	navigation/STIM_004.jpg	100
838.119	3.17	3170.5	navigation	Trial2	navigation/STIM_004.jpg	99
844.815	1.476	1476.2	navigation	Trial2	navigation/STIM_004.jpg	99
848.506	1.322	1321.6	navigation	Trial2	navigation/STIM_004.jpg	99
853.677	2.832	2831.6	navigation	Trial2	navigation/STIM_004.jpg	99
860.064	2.822	2821.5	navigation	Trial2	navigation/STIM_005.jpg	100
865.269	2.265	2264.9	navigation	Trial2	navigation/STIM_005.jpg	100
871.031	1.418	1418.0	navigation	Trial2	navigation/STIM_005.jpg	99
876.346	2.443	2443.2	navigation	Trial2	navigation/STIM_005.jpg	99
882.162	1.912	1912.3	navigation	Trial2	navigation/STIM_005.jpg	99
887.645	1.283	1283.4	navigation	Trial2	navigation/STIM_005.jpg	99
892.209	2.703	2703.0	navigation	Trial2	navigation/STIM_006.jpg	99
898.617	3.292	3292.3	navigation	Trial2	navigation/STIM_006.jpg	99
905.078	1.347	1347.3	navigation	Trial2	navigation/STIM_006.jpg	100
909.951	2.236	2236.3	navigation	Trial2	navigation/STIM_006.jpg	100
915.511	3.004	3004.5	navigation	Trial2	navigation/STIM_006.jpg	100
922.187	2.029	2028.8	navigation	Trial2	navigation/STIM_006.jpg	99
927.31	3.454	3454.4	navigation	Trial2	navigation/STIM_007.jpg	99
934.177	2.534	2534.4	navigation	Trial2	navigation/STIM_007.jpg	99
939.58	3.156	3155.9	navigation	Trial2	navigation/STIM_007.jpg	99
945.28	2.656	2655.6	navigation	Trial2	navigation/STIM_007.jpg	100
950.81	1.315	1314.8	navigation	Trial2	navigation/STIM_007.jpg	100
954.249	2.699	2699.4	navigation	Trial2	navigation/STIM_007.jpg	100
959.014	3.327	3326.8	navigation	Trial2	navigation/STIM_008.jpg	100
966.002	2.067	2066.6	navigation	Trial2	navigation/STIM_008.jpg	100
972.065	1.696	1695.6	navigation	Trial2	navigation/STIM_008.jpg	99
976.049	2.007	2006.8	navigation	Trial2	navigation/STIM_008.jpg	99
981.379	1.917	1917.2	navigation	Trial2	navigation/STIM_008.jpg	100
985.479	1.676	1675.6	navigation	Trial2	navigation/STIM_008.jpg	100
989.355	3.618	3618.5	navigation	Trial2	navigation/STIM_009.jpg	99
995.291	3.139	3139.2	navigation	Trial2	navigation/STIM_009.jpg	100
1001.36	3.209	3209.0	navigation	Trial2	navigation/STIM_009.jpg	100
1007.596	2.637	2637.2	navigation	Trial2	navigation/STIM_009.jpg	99
1012.432	1.995	1995.1	navigation	Trial2	navigation/STIM_009.jpg	100
1017.417	2.002	2001.7	navigation	Trial2	navigation/STIM_009.jpg	100
1023.025	3.141	3141.4	navigation	Trial2	navigation/STIM_010.jpg	100
1029.76	1.873	1872.8	navigation	Trial2	navigation/STIM_010.jpg	100
1034.814	2.202	2202.5	navigation	Trial2	navigation/STIM_010.jpg	99
1039.846	2.992	2992.2	navigation	Trial2	navigation/STIM_010.jpg	99
1045.835	2.578	2578.5	navigation	Trial2	navigation/STIM_010.jpg	100
1050.508	1.549	1549.1	navigation	Trial2	navigation/STIM_010.jpg	100
1054.158	3.195	3195.3	navigation	Trial2	navigation/STIM_011.jpg	100
1061.07	1.658	1658.0	navigation	Trial2	navigation/STIM_011.jpg	100
1065.807	1.529	1528.6	navigation	Trial2	navigation/STIM_011.jpg	99
1070.182	1.596	1596.0	navigation	Trial2	navigation/STIM_011.jpg	100
1075.347	2.243	2243.2	navigation	Trial2	navigation/STIM_011.jpg	99
1080.368	1.706	1705.5	navigation	Trial2	navigation/STIM_011.jpg	100
1084.841	1.317	1317.3	pointing	Trial2	pointing/STIM_000.jpg	100
1088.499	0.738	738.1	pointing	Trial2	pointing/STIM_000.jpg	100
1092.781	1.241	1240.8	pointing	Trial2	pointing/STIM_000.jpg	99
1096.386	1.029	1028.7	pointing	Trial2	pointing/STIM_000.jpg	99
1100.59	0.952	952.2	pointing	Trial2	pointing/STIM_000.jpg	99
1103.945	0.85	850.0	pointing	Trial2	pointing/STIM_000.jpg	100
1108.444	1.059	1058.8	pointing	Trial2	pointing/STIM_001.jpg	100
1111.713	0.98	979.8	pointing	Trial2	pointing/STIM_001.jpg	99
1116.054	1.242	1241.7	pointing	Trial2	pointing/STIM_001.jpg	100
1120.432	0.872	872.2	pointing	Trial2	pointing/STIM_001.jpg	100
1125.222	0.847	846.9	pointing	Trial2	pointing/STIM_001.jpg	100
1128.819	1.238	1237.8	pointing	Trial2	pointing/STIM_001.jpg	99
1132.507	0.828	828.5	pointing	Trial2	pointing/STIM_002.jpg	100
1136.87	1.269	1269.0	pointing	Trial2	pointing/STIM_002.jpg	99
1141.304	1.182	1182.3	pointing	Trial2	pointing/STIM_002.jpg	100
1145.709	0.949	948.9	pointing	Trial2	pointing/STIM_002.jpg	99
1149.889	1.111	1111.2	pointing	Trial2	pointing/STIM_002.jpg	100
1154.559	1.259	1259.4	pointing	Trial2	pointing/STIM_002.jpg	100
1159.204	1.321	1320.6	pointing	Trial2	pointing/STIM_003.jpg	100
1163.36	0.809	809.4	pointing	Trial2	pointing/STIM_003.jpg	100
1166.636	0.982	982.4	pointing	Trial2	pointing/STIM_003.jpg	100
1170.259	0.959	958.8	pointing	Trial2	pointing/STIM_003.jpg	100
1174.159	1.12	1119.6	pointing	Trial2	pointing/STIM_003.jpg	100
1178.826	1.249	1249.4	pointing	Trial2	pointing/STIM_003.jpg	99
1182.352	1.069	1069.4	pointing	Trial2	pointing/STIM_004.jpg	99
1187.375	1.261	1260.9	pointing	Trial2	pointing/STIM_004.jpg	99
1192.112	1.325	1324.6	pointing	Trial2	pointing/STIM_004.jpg	99
1197.274	0.763	762.7	pointing	Trial2	pointing/STIM_004.jpg	99
1201.419	1.133	1133.0	pointing	Trial2	pointing/STIM_004.jpg	99
1204.97	1.101	1101.1	pointing	Trial2	pointing/STIM_004.jpg	99
1209.779	0.881	880.7	pointing	Trial2	pointing/STIM_005.jpg	99
1213.772	0.929	929.4	pointing	Trial2	pointing/STIM_005.jpg	100
1217.633	0.758	757.6	pointing	Trial2	pointing/STIM_005.jpg	99
1220.657	0.975	974.7	pointing	Trial2	pointing/STIM_005.jpg	100
1224.797	0.897	896.9	pointing	Trial2	pointing/STIM_005.jpg	100
1228.755	0.748	748.3	pointing	Trial2	pointing/STIM_005.jpg	100
1232.93	1.109	1108.7	pointing	Trial2	pointing/STIM_006.jpg	99
1236.958	0.926	926.1	pointing	Trial2	pointing/STIM_006.jpg	99
1239.952	0.767	766.8	pointing	Trial2	pointing/STIM_006.jpg	100
1242.995	0.87	869.9	pointing	Trial2	pointing/STIM_006.jpg	100
1247.864	0.722	722.4	pointing	Trial2	pointing/STIM_006.jpg	100
1251.723	0.973	973.1	pointing	Trial2	pointing/STIM_006.jpg	99
1255.604	1.096	1096.0	pointing	Trial2	pointing/STIM_007.jpg	100
1260.432	0.722	722.1	pointing	Trial2	pointing/STIM_007.jpg	100
1264.363	0.924	923.9	pointing	Trial2	pointing/STIM_007.jpg	99
1268.61	1.315	1315.3	pointing	Trial2	pointing/STIM_007.jpg	99
1273.063	0.807	806.6	pointing	Trial2	pointing/STIM_007.jpg	99
1277.547	1.21	1210.3	pointing	Trial2	pointing/STIM_007.jpg	100
1282.12	0.99	990.5	pointing	Trial2	pointing/STIM_008.jpg	100
1286.431	0.766	766.1	pointing	Trial2	pointing/STIM_008.jpg	99
1289.922	1.043	1042.7	pointing	Trial2	pointing/STIM_008.jpg	100
1293.588	0.822	821.9	pointing	Trial2	pointing/STIM_008.jpg	100
1298.023	0.898	898.5	pointing	Trial2	pointing/STIM_008.jpg	99
1301.308	0.752	752.1	pointing	Trial2	pointing/STIM_008.jpg	100
1305.29	0.931	931.1	pointing	Trial2	pointing/STIM_009.jpg	100
1308.636	1.276	1276.0	pointing	Trial2	pointing/STIM_009.jpg	99
1313.858	1.008	1007.9	pointing	Trial2	pointing/STIM_009.jpg	100
1317.423	0.976	976.2	pointing	Trial2	pointing/STIM_009.jpg	100
1320.768	0.821	821.1	pointing	Trial2	pointing/STIM_009.jpg	100
1324.767	0.919	919.4	pointing	Trial2	pointing/STIM_009.jpg	100
1329.447	1.09	1090.4	pointing	Trial2	pointing/STIM_010.jpg	99
1334.309	1.015	1014.6	pointing	Trial2	pointing/STIM_010.jpg	100
1338.789	1.125	1125.4	pointing	Trial2	pointing/STIM_010.jpg	100
1343.867	0.957	957.1	pointing	Trial2	pointing/STIM_010.jpg	100
1348.165	1.246	1246.2	pointing	Trial2	pointing/STIM_010.jpg	100
1352.515	0.869	869.2	pointing	Trial2	pointing/STIM_010.jpg	100
1355.503	0.896	896.1	pointing	Trial2	pointing/STIM_011.jpg	100
1359.929	1.237	1237.0	pointing	Trial2	pointing/STIM_011.jpg	100
1364.277	0.756	755.9	pointing	Trial2	pointing/STIM_011.jpg	99
1368.498	1.292	1292.3	pointing	Trial2	pointing/STIM_011.jpg	99
1371.975	1.055	1054.8	pointing	Trial2	pointing/STIM_011.jpg	100
1375.885	1.107	1106.9	pointing	Trial2	pointing/STIM_011.jpg	100
1380.251	1.253	1252.6	navigation	Trial3	navigation/STIM_000.jpg	99
1383.566	2.358	2358.5	navigation	Trial3	navigation/STIM_000.jpg	99
1389.75	2.666	2665.8	navigation	Trial3	navigation/STIM_000.jpg	100
1394.7	2.671	2671.4	navigation	Trial3	navigation/STIM_000.jpg	100
1400.449	1.364	1363.6	navigation	Trial3	navigation/STIM_000.jpg	100
1405.003	2.293	2293.4	navigation	Trial3	navigation/STIM_000.jpg	100
1410.607	2.695	2694.9	navigation	Trial3	navigation/STIM_001.jpg	100
1416.267	1.857	1856.8	navigation	Trial3	navigation/STIM_001.jpg	99
1420.664	2.175	2175.4	navigation	Trial3	navigation/STIM_001.jpg	100
1425.349	2.493	2493.2	navigation	Trial3	navigation/STIM_001.jpg	100
1429.87	2.63	2629.7	navigation	Trial3	navigation/STIM_001.jpg	99
1436.141	2.462	2462.2	navigation	Trial3	navigation/STIM_001.jpg	99
1440.966	2.32	2319.6	navigation	Trial3	navigation/STIM_002.jpg	100
1445.48	2.074	2074.4	navigation	Trial3	navigation/STIM_002.jpg	100
1451.173	1.265	1265.1	navigation	Trial3	navigation/STIM_002.jpg	100
1455.793	2.303	2303.0	navigation	Trial3	navigation/STIM_002.jpg	99
1460.6	1.744	1743.6	navigation	Trial3	navigation/STIM_002.jpg	99
1466.203	2.829	2829.4	navigation	Trial3	navigation/STIM_002.jpg	100
1472.196	3.122	3122.2	navigation	Trial3	navigation/STIM_003.jpg	99
1477.404	2.438	2438.1	navigation	Trial3	navigation/STIM_003.jpg	100
1482.383	2.497	2496.7	navigation	Trial3	navigation/STIM_003.jpg	100
1487.608	2.972	2972.0	navigation	Trial3	navigation/STIM_003.jpg	100
1493.238	1.337	1337.4	navigation	Trial3	navigation/STIM_003.jpg	99
1498.16	3.033	3032.8	navigation	Trial3	navigation/STIM_003.jpg	99
1505.043	1.53	1529.7	navigation	Trial3	navigation/STIM_004.jpg	99
1509.771	2.834	2833.9	navigation	Trial3	navigation/STIM_004.jpg	99
1516.533	2.685	2684.6	navigation	Trial3	navigation/STIM_004.jpg	99
1521.958	2.772	2772.2	navigation	Trial3	navigation/STIM_004.jpg	100
1527.63	1.388	1387.7	navigation	Trial3	navigation/STIM_004.jpg	99
1532.525	2.366	2365.9	navigation	Trial3	navigation/STIM_004.jpg	99
1538.102	2.511	2511.4	navigation	Trial3	navigation/STIM_005.jpg	99
1543.67	1.564	1563.8	navigation	Trial3	navigation/STIM_005.jpg	100
1547.433	2.204	2203.6	navigation	Trial3	navigation/STIM_005.jpg	99
1553.083	1.866	1865.5	navigation	Trial3	navigation/STIM_005.jpg	99
1557.313	1.765	1765.3	navigation	Trial3	navigation/STIM_005.jpg	100
1562.667	2.702	2702.3	navigation	Trial3	navigation/STIM_005.jpg	99
1568.602	1.601	1600.8	navigation	Trial3	navigation/STIM_006.jpg	99
1573.979	2.746	2746.4	navigation	Trial3	navigation/STIM_006.jpg	99
1579.164	2.661	2660.6	navigation	Trial3	navigation/STIM_006.jpg	99
1583.972	2.15	2150.5	navigation	Trial3	navigation/STIM_006.jpg	99
1590.081	1.414	1413.9	navigation	Trial3	navigation/STIM_006.jpg	100
1593.961	3.042	3042.2	navigation	Trial3	navigation/STIM_006.jpg	99
1599.192	1.615	1615.4	navigation	Trial3	navigation/STIM_007.jpg	99
1604.28	2.761	2760.9	navigation	Trial3	navigation/STIM_007.jpg	100
1610.056	2.327	2326.6	navigation	Trial3	navigation/STIM_007.jpg	99
1614.99	3.118	3117.9	navigation	Trial3	navigation/STIM_007.jpg	100
1620.486	2.891	2891.2	navigation	Trial3	navigation/STIM_007.jpg	100
1626.143	1.481	1481.3	navigation	Trial3	navigation/STIM_007.jpg	99
1630.97	2.413	2412.9	navigation	Trial3	navigation/STIM_008.jpg	100
1636.939	1.744	1743.8	navigation	Trial3	navigation/STIM_008.jpg	100
1642.017	2.079	2079.1	navigation	Trial3	navigation/STIM_008.jpg	100
1646.464	1.668	1667.6	navigation	Trial3	navigation/STIM_008.jpg	100
1651.845	1.313	1313.1	navigation	Trial3	navigation/STIM_008.jpg	100
1655.709	2.485	2485.2	navigation	Trial3	navigation/STIM_008.jpg	99
1660.492	2.214	2213.9	navigation	Trial3	navigation/STIM_009.jpg	100
1665.246	2.487	2486.8	navigation	Trial3	navigation/STIM_009.jpg	99
1670.349	1.347	1346.8	navigation	Trial3	navigation/STIM_009.jpg	99
1675.487	1.45	1449.7	navigation	Trial3	navigation/STIM_009.jpg	100
1679.672	1.771	1771.4	navigation	Trial3	navigation/STIM_009.jpg	99
1683.641	2.875	2874.8	navigation	Trial3	navigation/STIM_009.jpg	99
1688.554	2.693	2692.9	navigation	Trial3	navigation/STIM_010.jpg	100
1693.96	2.985	2984.8	navigation	Trial3	navigation/STIM_010.jpg	99
1699.838	2.503	2502.7	navigation	Trial3	navigation/STIM_010.jpg	100
1706.05	2.452	2452.1	navigation	Trial3	navigation/STIM_010.jpg	100
1711.456	2.356	2356.4	navigation	Trial3	navigation/STIM_010.jpg	99
1716.923	1.918	1918.3	navigation	Trial3	navigation/STIM_010.jpg	100
1722.425	2.332	2331.9	navigation	Trial3	navigation/STIM_011.jpg	100
1727.901	1.39	1390.3	navigation	Trial3	navigation/STIM_011.jpg	100
1731.434	1.744	1744.4	navigation	Trial3	navigation/STIM_011.jpg	100
1736.051	2.269	2268.7	navigation	Trial3	navigation/STIM_011.jpg	100
1740.447	1.274	1273.9	navigation	Trial3	navigation/STIM_011.jpg	100
1745.193	2.198	2198.0	navigation	Trial3	navigation/STIM_011.jpg	99
1750.182	0.932	932.4	pointing	Trial3	pointing/STIM_000.jpg	100
1753.527	1.321	1321.1	pointing	Trial3	pointing/STIM_000.jpg	100
1756.987	1.237	1237.3	pointing	Trial3	pointing/STIM_000.jpg	100
1761.35	1.182	1182.0	pointing	Trial3	pointing/STIM_000.jpg	99
1765.346	0.825	824.6	pointing	Trial3	pointing/STIM_000.jpg	99
1769.945	1.151	1151.1	pointing	Trial3	pointing/STIM_000.jpg	100
1773.685	1.121	1120.7	pointing	Trial3	pointing/STIM_001.jpg	99
1778.124	0.928	928.2	pointing	Trial3	pointing/STIM_001.jpg	100
1782.943	0.997	996.9	pointing	Trial3	pointing/STIM_001.jpg	100
1786.233	0.932	931.7	pointing	Trial3	pointing/STIM_001.jpg	99
1789.657	1.115	1114.6	pointing	Trial3	pointing/STIM_001.jpg	99
1794.497	0.724	723.6	pointing	Trial3	pointing/STIM_001.jpg	100
1797.328	0.817	817.1	pointing	Trial3	pointing/STIM_002.jpg	100
1802.045	0.733	732.9	pointing	Trial3	pointing/STIM_002.jpg	99
1805.73	1.08	1080.2	pointing	Trial3	pointing/STIM_002.jpg	100
1808.837	1.054	1054.1	pointing	Trial3	pointing/STIM_002.jpg	100
1811.941	1.19	1189.8	pointing	Trial3	pointing/STIM_002.jpg	100
1815.572	0.751	750.8	pointing	Trial3	pointing/STIM_002.jpg	100
1818.52	0.788	788.0	pointing	Trial3	pointing/STIM_003.jpg	100
1821.318	0.954	954.1	pointing	Trial3	pointing/STIM_003.jpg	100
1825.585	0.726	726.2	pointing	Trial3	pointing/STIM_003.jpg	100
1828.539	1.13	1130.1	pointing	Trial3	pointing/STIM_003.jpg	99
1831.904	1.312	1312.0	pointing	Trial3	pointing/STIM_003.jpg	99
1837.167	0.792	792.2	pointing	Trial3	pointing/STIM_003.jpg	99
1841.096	0.776	775.7	pointing	Trial3	pointing/STIM_004.jpg	100
1845.726	1.243	1243.2	pointing	Trial3	pointing/STIM_004.jpg	99
1850.35	1.095	1095.0	pointing	Trial3	pointing/STIM_004.jpg	99
1854.21	1.267	1267.0	pointing	Trial3	pointing/STIM_004.jpg	99
1857.688	1.265	1265.1	pointing	Trial3	pointing/STIM_004.jpg	99
1862.192	1.193	1192.9	pointing	Trial3	pointing/STIM_004.jpg	99
1865.646	1.12	1120.1	pointing	Trial3	pointing/STIM_005.jpg	99
1869.511	1.064	1063.9	pointing	Trial3	pointing/STIM_005.jpg	99
1873.867	1.206	1206.0	pointing	Trial3	pointing/STIM_005.jpg	99
1878.823	0.85	849.9	pointing	Trial3	pointing/STIM_005.jpg	100
1883.001	1.168	1168.4	pointing	Trial3	pointing/STIM_005.jpg	100
1886.714	0.91	910.5	pointing	Trial3	pointing/STIM_005.jpg	99
1891.178	1.151	1150.6	pointing	Trial3	pointing/STIM_006.jpg	100
1895.757	0.979	978.6	pointing	Trial3	pointing/STIM_006.jpg	99
1900.51	1.296	1295.5	pointing	Trial3	pointing/STIM_006.jpg	100
1905.278	0.983	983.3	pointing	Trial3	pointing/STIM_006.jpg	99
1908.42	0.985	985.3	pointing	Trial3	pointing/STIM_006.jpg	100
1911.782	0.899	898.8	pointing	Trial3	pointing/STIM_006.jpg	100
1916.067	1.173	1173.0	pointing	Trial3	pointing/STIM_007.jpg	99
1920.461	1.08	1079.8	pointing	Trial3	pointing/STIM_007.jpg	100
1924.059	1.211	1210.9	pointing	Trial3	pointing/STIM_007.jpg	100
1928.626	1.257	1256.6	pointing	Trial3	pointing/STIM_007.jpg	100
1933.415	1.326	1326.0	pointing	Trial3	pointing/STIM_007.jpg	99
1937.971	1.217	1217.4	pointing	Trial3	pointing/STIM_007.jpg	100
1941.696	1.281	1280.8	pointing	Trial3	pointing/STIM_008.jpg	100
1945.138	1.312	1311.9	pointing	Trial3	pointing/STIM_008.jpg	100
1948.793	1.173	1172.7	pointing	Trial3	pointing/STIM_008.jpg	99
1953.856	1.298	1298.5	pointing	Trial3	pointing/STIM_008.jpg	100
1957.376	1.326	1326.5	pointing	Trial3	pointing/STIM_008.jpg	99
1962.559	0.991	991.1	pointing	Trial3	pointing/STIM_008.jpg	100
1965.738	0.742	742.1	pointing	Trial3	pointing/STIM_009.jpg	100
1969.536	0.964	963.5	pointing	Trial3	pointing/STIM_009.jpg	100
1973.657	1.011	1010.6	pointing	Trial3	pointing/STIM_009.jpg	99
1976.762	1.282	1281.8	pointing	Trial3	pointing/STIM_009.jpg	99
1981.503	0.866	866.4	pointing	Trial3	pointing/STIM_009.jpg	100
1985.926	0.752	752.4	pointing	Trial3	pointing/STIM_009.jpg	99
1989.539	0.892	892.4	pointing	Trial3	pointing/STIM_010.jpg	99
1994.006	0.775	775.1	pointing	Trial3	pointing/STIM_010.jpg	100
1996.871	1.176	1176.2	pointing	Trial3	pointing/STIM_010.jpg	99
2000.907	0.853	852.7	pointing	Trial3	pointing/STIM_010.jpg	99
2005.639	1.101	1100.6	pointing	Trial3	pointing/STIM_010.jpg	99
2010.338	1.175	1175.2	pointing	Trial3	pointing/STIM_010.jpg	99
2014.39	1.052	1051.6	pointing	Trial3	pointing/STIM_011.jpg	99
2018.141	0.717	716.7	pointing	Trial3	pointing/STIM_011.jpg	99
2022.326	1.312	1311.9	pointing	Trial3	pointing/STIM_011.jpg	99
2026.991	0.964	964.3	pointing	Trial3	pointing/STIM_011.jpg	99
2030.18	0.832	832.5	pointing	Trial3	pointing/STIM_011.jpg	99
2033.682	1.186	1185.9	pointing	Trial3	pointing/STIM_011.jpg	99
