onset	duration	accuracy	trial_type	learning_stage	stimulus
0.0	1.16	correct	incongruent	Block1	incongruent/STIM_000.jpg
3.45	0.63	correct	incongruent	Block1	incongruent/STIM_000.jpg
6.709	1.212	correct	incongruent	Block1	incongruent/STIM_000.jpg
11.793	0.922	correct	incongruent	Block1	incongruent/STIM_000.jpg
15.012	0.666	correct	incongruent	Block1	incongruent/STIM_000.jpg
19.064	0.8	incorrect	incongruent	Block1	incongruent/STIM_001.jpg
22.752	0.811	correct	incongruent	Block1	incongruent/STIM_001.jpg
26.062	1.091	correct	incongruent	Block1	incongruent/STIM_001.jpg
31.148	0.567	correct	incongruent	Block1	incongruent/STIM_001.jpg
35.408	1.104	correct	incongruent	Block1	incongruent/STIM_001.jpg
39.063	1.269	correct	incongruent	Block1	incongruent/STIM_002.jpg
43.407	0.89	correct	incongruent	Block1	incongruent/STIM_002.jpg
47.823	0.857	correct	incongruent	Block1	incongruent/STIM_002.jpg
51.515	1.112	correct	incongruent	Block1	incongruent/STIM_002.jpg
56.507	0.677	correct	incongruent	Block1	incongruent/STIM_002.jpg
61.061	1.102	correct	incongruent	Block1	incongruent/STIM_003.jpg
65.284	1.032	correct	incongruent	Block1	incongruent/STIM_003.jpg
70.046	0.784	correct	incongruent	Block1	incongruent/STIM_003.jpg
73.879	1.101	correct	incongruent	Block1	incongruent/STIM_003.jpg
77.795	0.796	correct	incongruent	Block1	incongruent/STIM_003.jpg
81.116	1.163	correct	incongruent	Block1	incongruent/STIM_004.jpg
85.625	0.827	correct	incongruent	Block1	incongruent/STIM_004.jpg
90.394	0.923	correct	incongruent	Block1	incongruent/STIM_004.jpg
93.905	0.98	correct	incongruent	Block1	incongruent/STIM_004.jpg
96.92	0.979	correct	incongruent	Block1	incongruent/STIM_004.jpg
101.377	0.868	correct	incongruent	Block1	incongruent/STIM_005.jpg
104.702	0.664	correct	incongruent	Block1	incongruent/STIM_005.jpg
107.552	0.947	correct	incongruent	Block1	incongruent/STIM_005.jpg
111.039	0.814	correct	incongruent	Block1	incongruent/STIM_005.jpg
114.191	1.074	correct	incongruent	Block1	incongruent/STIM_005.jpg
119.156	1.061	correct	incongruent	Block1	incongruent/STIM_006.jpg
122.58	0.795	correct	incongruent	Block1	incongruent/STIM_006.jpg
125.721	0.934	correct	incongruent	Block1	incongruent/STIM_006.jpg
129.386	1.044	correct	incongruent	Block1	incongruent/STIM_006.jpg
132.71	0.982	correct	incongruent	Block1	incongruent/STIM_006.jpg
135.845	1.298	correct	incongruent	Block1	incongruent/STIM_007.jpg
140.719	1.117	correct	incongruent	Block1	incongruent/STIM_007.jpg
145.522	1.236	correct	incongruent	Block1	incongruent/STIM_007.jpg
149.734	0.706	correct	incongruent	Block1	incongruent/STIM_007.jpg
154.432	0.903	correct	incongruent	Block1	incongruent/STIM_007.jpg
159.258	1.294	correct	incongruent	Block1	incongruent/STIM_008.jpg
163.177	0.72	correct	incongruent	Block1	incongruent/STIM_008.jpg
166.378	0.805	correct	incongruent	Block1	incongruent/STIM_008.jpg
169.689	0.611	correct	incongruent	Block1	incongruent/STIM_008.jpg
172.702	0.716	correct	incongruent	Block1	incongruent/STIM_008.jpg
175.635	0.768	correct	incongruent	Block1	incongruent/STIM_009.jpg
178.784	0.969	correct	incongruent	Block1	incongruent/STIM_009.jpg
182.699	1.037	correct	incongruent	Block1	incongruent/STIM_009.jpg
186.469	1.107	correct	incongruent	Block1	incongruent/STIM_009.jpg
189.951	1.092	correct	incongruent	Block1	incongruent/STIM_009.jpg
194.446	1.114	correct	incongruent	Block1	incongruent/STIM_010.jpg
199.065	1.112	correct	incongruent	Block1	incongruent/STIM_010.jpg
202.293	0.752	correct	incongruent	Block1	incongruent/STIM_010.jpg
205.222	0.737	correct	incongruent	Block1	incongruent/STIM_010.jpg
208.357	1.03	correct	incongruent	Block1	incongruent/STIM_010.jpg
213.291	1.024	correct	incongruent	Block1	incongruent/STIM_011.jpg
217.491	1.093	correct	incongruent	Block1	incongruent/STIM_011.jpg
222.232	1.19	correct	incongruent	Block1	incongruent/STIM_011.jpg
226.621	0.859	correct	incongruent	Block1	incongruent/STIM_011.jpg
230.795	0.729	correct	incongruent	Block1	incongruent/STIM_011.jpg
234.293	0.952	correct	incongruent	Block1	incongruent/STIM_012.jpg
237.596	0.743	correct	incongruent	Block1	incongruent/STIM_012.jpg
241.728	0.82	incorrect	incongruent	Block1	incongruent/STIM_012.jpg
245.842	0.99	correct	incongruent	Block1	incongruent/STIM_012.jpg
250.698	1.077	correct	incongruent	Block1	incongruent/STIM_012.jpg
255.607	0.891	correct	incongruent	Block1	incongruent/STIM_013.jpg
258.866	0.826	correct	incongruent	Block1	incongruent/STIM_013.jpg
262.686	0.739	correct	incongruent	Block1	incongruent/STIM_013.jpg
267.045	0.686	correct	incongruent	Block1	incongruent/STIM_013.jpg
270.356	1.059	correct	incongruent	Block1	incongruent/STIM_013.jpg
274.681	0.908	correct	incongruent	Block1	incongruent/STIM_014.jpg
278.432	1.242	correct	incongruent	Block1	incongruent/STIM_014.jpg
282.791	0.64	correct	incongruent	Block1	incongruent/STIM_014.jpg
285.572	0.841	correct	incongruent	Block1	incongruent/STIM_014.jpg
288.527	0.546	correct	incongruent	Block1	incongruent/STIM_014.jpg
292.91	0.932	correct	incongruent	Block1	incongruent/STIM_015.jpg
296.403	1.193	correct	incongruent	Block1	incongruent/STIM_015.jpg
300.409	0.635	correct	incongruent	Block1	incongruent/STIM_015.jpg
303.659	1.059	correct	incongruent	Block1	incongruent/STIM_015.jpg
308.615	0.693	correct	incongruent	Block1	incongruent/STIM_015.jpg
312.13	0.779	correct	incongruent	Block1	incongruent/STIM_016.jpg
315.367	1.073	correct	incongruent	Block1	incongruent/STIM_016.jpg
319.808	1.08	correct	incongruent	Block1	incongruent/STIM_016.jpg
324.761	0.864	correct	incongruent	Block1	incongruent/STIM_016.jpg
328.401	0.64	correct	incongruent	Block1	incongruent/STIM_016.jpg
332.196	0.726	correct	incongruent	Block1	incongruent/STIM_017.jpg
336.175	1.142	correct	incongruent	Block1	incongruent/STIM_017.jpg
340.2	1.131	correct	incongruent	Block1	incongruent/STIM_017.jpg
344.985	0.714	correct	incongruent	Block1	incongruent/STIM_017.jpg
348.766	0.91	correct	incongruent	Block1	incongruent/STIM_017.jpg
352.928	0.831	correct	incongruent	Block1	incongruent/STIM_018.jpg
356.509	0.976	correct	incongruent	Block1	incongruent/STIM_018.jpg
359.918	0.92	correct	incongruent	Block1	incongruent/STIM_018.jpg
363.524	0.761	correct	incongruent	Block1	incongruent/STIM_018.jpg
366.38	1.057	correct	incongruent	Block1	incongruent/STIM_018.jpg
369.484	1.098	correct	incongruent	Block1	incongruent/STIM_019.jpg
374.492	0.865	correct	incongruent	Block1	incongruent/STIM_019.jpg
378.757	1.216	correct	incongruent	Block1	incongruent/STIM_019.jpg
382.834	0.735	correct	incongruent	Block1	incongruent/STIM_019.jpg
386.425	0.691	correct	incongruent	Block1	incongruent/STIM_019.jpg
390.969	0.659	correct	incongruent	Block1	incongruent/STIM_020.jpg
394.248	0.896	correct	incongruent	Block1	incongruent/STIM_020.jpg
397.179	0.694	correct	incongruent	Block1	incongruent/STIM_020.jpg
401.048	0.645	correct	incongruent	Block1	incongruent/STIM_020.jpg
404.419	0.842	correct	incongruent	Block1	incongruent/STIM_020.jpg
407.904	1.106	correct	incongruent	Block1	incongruent/STIM_021.jpg
412.618	0.933	correct	incongruent	Block1	incongruent/STIM_021.jpg
416.027	0.644	correct	incongruent	Block1	incongruent/STIM_021.jpg
419.777	1.013	correct	incongruent	Block1	incongruent/STIM_021.jpg
423.374	0.741	correct	incongruent	Block1	incongruent/STIM_021.jpg
426.344	1.057	correct	incongruent	Block1	incongruent/STIM_022.jpg
431.252	0.667	correct	incongruent	Block1	incongruent/STIM_022.jpg
434.698	1.063	correct	incongruent	Block1	incongruent/STIM_022.jpg
438.167	1.023	correct	incongruent	Block1	incongruent/STIM_022.jpg
442.304	0.98	correct	incongruent	Block1	incongruent/STIM_022.jpg
447.185	1.098	correct	incongruent	Block1	incongruent/STIM_023.jpg
451.068	0.784	correct	incongruent	Block1	incongruent/STIM_023.jpg
454.265	0.963	correct	incongruent	Block1	incongruent/STIM_023.jpg
459.086	0.754	correct	incongruent	Block1	incongruent/STIM_023.jpg
463.369	0.549	correct	incongruent	Block1	incongruent/STIM_023.jpg
467.336	1.325	correct	incongruent	Block1	incongruent/STIM_024.jpg
471.109	0.717	correct	incongruent	Block1	incongruent/STIM_024.jpg
475.395	1.056	correct	incongruent	Block1	incongruent/STIM_024.jpg
479.031	1.069	correct	incongruent	Block1	incongruent/STIM_024.jpg
483.35	1.072	correct	incongruent	Block1	incongruent/STIM_024.jpg
486.626	1.075	correct	incongruent	Block1	incongruent/STIM_025.jpg
489.836	0.788	correct	incongruent	Block1	incongruent/STIM_025.jpg
492.756	0.989	correct	incongruent	Block1	incongruent/STIM_025.jpg
496.119	1.016	correct	incongruent	Block1	incongruent/STIM_025.jpg
501.066	0.704	correct	incongruent	Block1	incongruent/STIM_025.jpg
504.614	1.025	correct	incongruent	Block1	incongruent/STIM_026.jpg
508.463	0.746	correct	incongruent	Block1	incongruent/STIM_026.jpg
513.195	0.726	correct	incongruent	Block1	incongruent/STIM_026.jpg
517.887	0.937	correct	incongruent	Block1	incongruent/STIM_026.jpg
521.618	1.012	incorrect	incongruent	Block1	incongruent/STIM_026.jpg
524.725	1.393	correct	incongruent	Block1	incongruent/STIM_027.jpg
528.178	0.732	correct	incongruent	Block1	incongruent/STIM_027.jpg
531.193	1.01	incorrect	incongruent	Block1	incongruent/STIM_027.jpg
534.246	0.771	correct	incongruent	Block1	incongruent/STIM_027.jpg
537.119	0.693	correct	incongruent	Block1	incongruent/STIM_027.jpg
540.83	1.357	correct	incongruent	Block1	incongruent/STIM_028.jpg
546.011	1.07	correct	incongruent	Block1	incongruent/STIM_028.jpg
549.832	1.058	correct	incongruent	Block1	incongruent/STIM_028.jpg
554.25	0.639	correct	incongruent	Block1	incongruent/STIM_028.jpg
557.246	0.533	correct	incongruent	Block1	incongruent/STIM_028.jpg
561.133	1.201	correct	incongruent	Block1	incongruent/STIM_029.jpg
565.174	0.954	correct	incongruent	Block1	incongruent/STIM_029.jpg
568.824	1.158	correct	incongruent	Block1	incongruent/STIM_029.jpg
573.629	1.007	correct	incongruent	Block1	incongruent/STIM_029.jpg
577.784	0.748	correct	incongruent	Block1	incongruent/STIM_029.jpg
582.122	0.793	correct	congruent	Block1	congruent/STIM_000.jpg
586.217	0.678	correct	congruent	Block1	congruent/STIM_000.jpg
590.146	0.484	correct	congruent	Block1	congruent/STIM_000.jpg
593.045	0.629	correct	congruent	Block1	congruent/STIM_000.jpg
596.917	0.613	correct	congruent	Block1	congruent/STIM_000.jpg
599.576	0.568	correct	congruent	Block1	congruent/STIM_001.jpg
602.637	0.741	correct	congruent	Block1	congruent/STIM_001.jpg
605.622	0.654	correct	congruent	Block1	congruent/STIM_001.jpg
608.791	0.514	correct	congruent	Block1	congruent/STIM_001.jpg
611.773	0.755	correct	congruent	Block1	congruent/STIM_001.jpg
615.976	0.751	correct	congruent	Block1	congruent/STIM_002.jpg
620.424	0.779	correct	congruent	Block1	congruent/STIM_002.jpg
624.383	0.672	correct	congruent	Block1	congruent/STIM_002.jpg
627.071	0.63	correct	congruent	Block1	congruent/STIM_002.jpg
629.907	0.782	correct	congruent	Block1	congruent/STIM_002.jpg
633.021	0.636	correct	congruent	Block1	congruent/STIM_003.jpg
636.817	0.552	correct	congruent	Block1	congruent/STIM_003.jpg
640.894	0.571	correct	congruent	Block1	congruent/STIM_003.jpg
645.15	0.693	correct	congruent	Block1	congruent/STIM_003.jpg
648.392	0.673	incorrect	congruent	Block1	congruent/STIM_003.jpg
651.848	0.551	correct	congruent	Block1	congruent/STIM_004.jpg
655.436	0.643	correct	congruent	Block1	congruent/STIM_004.jpg
658.202	0.485	incorrect	congruent	Block1	congruent/STIM_004.jpg
662.092	0.757	correct	congruent	Block1	congruent/STIM_004.jpg
666.37	0.763	correct	congruent	Block1	congruent/STIM_004.jpg
669.753	0.474	correct	congruent	Block1	congruent/STIM_005.jpg
673.224	0.702	correct	congruent	Block1	congruent/STIM_005.jpg
675.946	0.548	correct	congruent	Block1	congruent/STIM_005.jpg
680.013	0.712	correct	congruent	Block1	congruent/STIM_005.jpg
684.362	0.683	correct	congruent	Block1	congruent/STIM_005.jpg
688.268	0.816	correct	congruent	Block1	congruent/STIM_006.jpg
692.141	0.65	incorrect	congruent	Block1	congruent/STIM_006.jpg
696.654	0.622	correct	congruent	Block1	congruent/STIM_006.jpg
699.535	0.633	incorrect	congruent	Block1	congruent/STIM_006.jpg
703.406	0.713	correct	congruent	Block1	congruent/STIM_006.jpg
708.08	0.798	correct	congruent	Block1	congruent/STIM_007.jpg
712.021	0.536	correct	congruent	Block1	congruent/STIM_007.jpg
716.185	0.544	correct	congruent	Block1	congruent/STIM_007.jpg
720.724	0.748	correct	congruent	Block1	congruent/STIM_007.jpg
724.43	0.547	correct	congruent	Block1	congruent/STIM_007.jpg
728.781	0.497	correct	congruent	Block1	congruent/STIM_008.jpg
732.582	0.778	correct	congruent	Block1	congruent/STIM_008.jpg
736.06	0.706	correct	congruent	Block1	congruent/STIM_008.jpg
739.627	0.609	correct	congruent	Block1	congruent/STIM_008.jpg
742.313	0.538	correct	congruent	Block1	congruent/STIM_008.jpg
745.195	0.64	correct	congruent	Block1	congruent/STIM_009.jpg
748.445	0.831	correct	congruent	Block1	congruent/STIM_009.jpg
753.053	0.749	correct	congruent	Block1	congruent/STIM_009.jpg
756.856	0.676	correct	congruent	Block1	congruent/STIM_009.jpg
759.691	0.481	correct	congruent	Block1	congruent/STIM_009.jpg
762.891	0.58	correct	congruent	Block1	congruent/STIM_010.jpg
766.134	0.818	correct	congruent	Block1	congruent/STIM_010.jpg
770.825	0.501	correct	congruent	Block1	congruent/STIM_010.jpg
773.417	0.539	correct	congruent	Block1	congruent/STIM_010.jpg
777.008	0.785	correct	congruent	Block1	congruent/STIM_010.jpg
779.965	0.816	correct	congruent	Block1	congruent/STIM_011.jpg
782.893	0.682	correct	congruent	Block1	congruent/STIM_011.jpg
786.317	0.622	correct	congruent	Block1	congruent/STIM_011.jpg
789.759	0.559	correct	congruent	Block1	congruent/STIM_011.jpg
792.38	0.587	correct	congruent	Block1	congruent/STIM_011.jpg
794.982	0.624	correct	congruent	Block1	congruent/STIM_012.jpg
797.688	0.524	correct	congruent	Block1	congruent/STIM_012.jpg
801.477	0.524	correct	congruent	Block1	congruent/STIM_012.jpg
804.874	0.486	correct	congruent	Block1	congruent/STIM_012.jpg
808.591	0.472	correct	congruent	Block1	congruent/STIM_012.jpg
811.853	0.757	correct	congruent	Block1	congruent/STIM_013.jpg
815.037	0.798	correct	congruent	Block1	congruent/STIM_013.jpg
817.958	0.668	correct	congruent	Block1	congruent/STIM_013.jpg
822.41	0.645	correct	congruent	Block1	congruent/STIM_013.jpg
826.215	0.726	correct	congruent	Block1	congruent/STIM_013.jpg
829.217	0.754	correct	congruent	Block1	congruent/STIM_014.jpg
832.546	0.617	incorrect	congruent	Block1	congruent/STIM_014.jpg
835.921	0.482	correct	congruent	Block1	congruent/STIM_014.jpg
840.232	0.588	correct	congruent	Block1	congruent/STIM_014.jpg
844.187	0.619	correct	congruent	Block1	congruent/STIM_014.jpg
848.712	0.751	correct	congruent	Block1	congruent/STIM_015.jpg
852.839	0.493	correct	congruent	Block1	congruent/STIM_015.jpg
857.084	0.623	correct	congruent	Block1	congruent/STIM_015.jpg
860.65	0.823	correct	congruent	Block1	congruent/STIM_015.jpg
863.979	0.785	correct	congruent	Block1	congruent/STIM_015.jpg
868.004	0.715	correct	congruent	Block1	congruent/STIM_016.jpg
871.541	0.656	correct	congruent	Block1	congruent/STIM_016.jpg
875.583	0.61	correct	congruent	Block1	congruent/STIM_016.jpg
878.378	0.591	correct	congruent	Block1	congruent/STIM_016.jpg
882.943	0.77	correct	congruent	Block1	congruent/STIM_016.jpg
886.49	0.8	correct	congruent	Block1	congruent/STIM_017.jpg
889.68	0.829	correct	congruent	Block1	congruent/STIM_017.jpg
892.899	0.8	correct	congruent	Block1	congruent/STIM_017.jpg
896.76	0.503	correct	congruent	Block1	congruent/STIM_017.jpg
899.758	0.833	correct	congruent	Block1	congruent/STIM_017.jpg
903.325	0.624	correct	congruent	Block1	congruent/STIM_018.jpg
907.387	0.565	correct	congruent	Block1	congruent/STIM_018.jpg
910.023	0.835	correct	congruent	Block1	congruent/STIM_018.jpg
913.441	0.806	correct	congruent	Block1	congruent/STIM_018.jpg
917.45	0.658	correct	congruent	Block1	congruent/STIM_018.jpg
921.266	0.772	correct	congruent	Block1	congruent/STIM_019.jpg
925.282	0.518	correct	congruent	Block1	congruent/STIM_019.jpg
929.372	0.569	correct	congruent	Block1	congruent/STIM_019.jpg
932.413	0.614	correct	congruent	Block1	congruent/STIM_019.jpg
936.979	0.823	correct	congruent	Block1	congruent/STIM_019.jpg
940.216	0.548	correct	congruent	Block1	congruent/STIM_020.jpg
943.693	0.586	correct	congruent	Block1	congruent/STIM_020.jpg
946.328	0.791	incorrect	congruent	Block1	congruent/STIM_020.jpg
950.054	0.516	correct	congruent	Block1	congruent/STIM_020.jpg
953.432	0.576	correct	congruent	Block1	congruent/STIM_020.jpg
957.769	0.632	correct	congruent	Block1	congruent/STIM_021.jpg
960.663	0.81	correct	congruent	Block1	congruent/STIM_021.jpg
964.224	0.667	correct	congruent	Block1	congruent/STIM_021.jpg
966.919	0.791	correct	congruent	Block1	congruent/STIM_021.jpg
970.966	0.51	correct	congruent	Block1	congruent/STIM_021.jpg
974.921	0.606	correct	congruent	Block1	congruent/STIM_022.jpg
979.358	0.736	correct	congruent	Block1	congruent/STIM_022.jpg
982.547	0.657	correct	congruent	Block1	congruent/STIM_022.jpg
985.69	0.481	correct	congruent	Block1	congruent/STIM_022.jpg
988.893	0.765	correct	congruent	Block1	congruent/STIM_022.jpg
993.386	0.526	correct	congruent	Block1	congruent/STIM_023.jpg
997.641	0.817	correct	congruent	Block1	congruent/STIM_023.jpg
1001.713	0.615	correct	congruent	Block1	congruent/STIM_023.jpg
1005.357	0.773	correct	congruent	Block1	congruent/STIM_023.jpg
1009.614	0.632	correct	congruent	Block1	congruent/STIM_023.jpg
1014.208	0.825	correct	congruent	Block1	congruent/STIM_024.jpg
1017.073	0.626	correct	congruent	Block1	congruent/STIM_024.jpg
1021.581	0.781	correct	congruent	Block1	congruent/STIM_024.jpg
1024.687	0.531	correct	congruent	Block1	congruent/STIM_024.jpg
1028.924	0.771	correct	congruent	Block1	congruent/STIM_024.jpg
1032.953	0.766	correct	congruent	Block1	congruent/STIM_025.jpg
1037.047	0.553	correct	congruent	Block1	congruent/STIM_025.jpg
1039.648	0.526	correct	congruent	Block1	congruent/STIM_025.jpg
1042.353	0.7	incorrect	congruent	Block1	congruent/STIM_025.jpg
1045.269	0.494	correct	congruent	Block1	congruent/STIM_025.jpg
1048.533	0.745	correct	congruent	Block1	congruent/STIM_026.jpg
1052.547	0.532	correct	congruent	Block1	congruent/STIM_026.jpg
1056.16	0.628	correct	congruent	Block1	congruent/STIM_026.jpg
1059.962	0.65	correct	congruent	Block1	congruent/STIM_026.jpg
1063.173	0.646	correct	congruent	Block1	congruent/STIM_026.jpg
1067.634	0.764	correct	congruent	Block1	congruent/STIM_027.jpg
1072.222	0.638	correct	congruent	Block1	congruent/STIM_027.jpg
1075.969	0.685	correct	congruent	Block1	congruent/STIM_027.jpg
1079.234	0.48	correct	congruent	Block1	congruent/STIM_027.jpg
1083.167	0.777	correct	congruent	Block1	congruent/STIM_027.jpg
1087.184	0.752	correct	congruent	Block1	congruent/STIM_028.jpg
1090.63	0.624	correct	congruent	Block1	congruent/STIM_028.jpg
1095.221	0.574	incorrect	congruent	Block1	congruent/STIM_028.jpg
1099.217	0.537	correct	congruent	Block1	congruent/STIM_028.jpg
1103.311	0.782	correct	congruent	Block1	congruent/STIM_028.jpg
1107.698	0.485	correct	congruent	Block1	congruent/STIM_029.jpg
1112.17	0.614	correct	congruent	Block1	congruent/STIM_029.jpg
1115.347	0.732	correct	congruent	Block1	congruent/STIM_029.jpg
1118.581	0.684	correct	congruent	Block1	congruent/STIM_029.jpg
1122.508	0.693	correct	congruent	Block1	congruent/STIM_029.jpg
1126.141	1.017	correct	incongruent	Block2	incongruent/STIM_000.jpg
1129.907	0.561	correct	incongruent	Block2	incongruent/STIM_000.jpg
1132.913	0.89	correct	incongruent	Block2	incongruent/STIM_000.jpg
1136.731	0.722	correct	incongruent	Block2	incongruent/STIM_000.jpg
1140.783	0.722	correct	incongruent	Block2	incongruent/STIM_000.jpg
1143.599	0.761	incorrect	incongruent	Block2	incongruent/STIM_001.jpg
1147.831	1.081	correct	incongruent	Block2	incongruent/STIM_001.jpg
1152.189	0.77	correct	incongruent	Block2	incongruent/STIM_001.jpg
1155.326	0.562	correct	incongruent	Block2	incongruent/STIM_001.jpg
1158.952	0.584	correct	incongruent	Block2	incongruent/STIM_001.jpg
1162.96	0.762	correct	incongruent	Block2	incongruent/STIM_002.jpg
1167.304	0.768	correct	incongruent	Block2	incongruent/STIM_002.jpg
1171.702	0.877	correct	incongruent	Block2	incongruent/STIM_002.jpg
1175.968	0.715	correct	incongruent	Block2	incongruent/STIM_002.jpg
1179.043	0.724	correct	incongruent	Block2	incongruent/STIM_002.jpg
1183.504	0.779	correct	incongruent	Block2	incongruent/STIM_003.jpg
1187.789	0.833	correct	incongruent	Block2	incongruent/STIM_003.jpg
1191.822	0.962	correct	incongruent	Block2	incongruent/STIM_003.jpg
1196.646	0.824	correct	incongruent	Block2	incongruent/STIM_003.jpg
1199.659	0.697	correct	incongruent	Block2	incongruent/STIM_003.jpg
1203.47	0.807	correct	incongruent	Block2	incongruent/STIM_004.jpg
1207.345	0.552	correct	incongruent	Block2	incongruent/STIM_004.jpg
1210.658	0.832	correct	incongruent	Block2	incongruent/STIM_004.jpg
1214.615	0.463	correct	incongruent	Block2	incongruent/STIM_004.jpg
1218.589	0.752	correct	incongruent	Block2	incongruent/STIM_004.jpg
1222.974	0.646	correct	incongruent	Block2	incongruent/STIM_005.jpg
1226.798	0.666	correct	incongruent	Block2	incongruent/STIM_005.jpg
1229.576	0.606	correct	incongruent	Block2	incongruent/STIM_005.jpg
1233.174	0.97	correct	incongruent	Block2	incongruent/STIM_005.jpg
1237.195	0.461	correct	incongruent	Block2	incongruent/STIM_005.jpg
1240.755	0.557	correct	incongruent	Block2	incongruent/STIM_006.jpg
1244.26	0.719	correct	incongruent	Block2	incongruent/STIM_006.jpg
1248.706	0.758	correct	incongruent	Block2	incongruent/STIM_006.jpg
1251.982	0.656	correct	incongruent	Block2	incongruent/STIM_006.jpg
1254.895	0.576	correct	incongruent	Block2	incongruent/STIM_006.jpg
1258.925	1.016	correct	incongruent	Block2	incongruent/STIM_007.jpg
1261.957	0.556	correct	incongruent	Block2	incongruent/STIM_007.jpg
1265.596	0.853	correct	incongruent	Block2	incongruent/STIM_007.jpg
1269.919	0.749	correct	incongruent	Block2	incongruent/STIM_007.jpg
1274.61	0.525	correct	incongruent	Block2	incongruent/STIM_007.jpg
1277.426	0.576	correct	incongruent	Block2	incongruent/STIM_008.jpg
1281.347	1.086	correct	incongruent	Block2	incongruent/STIM_008.jpg
1285.038	0.879	correct	incongruent	Block2	incongruent/STIM_008.jpg
1287.967	0.894	incorrect	incongruent	Block2	incongruent/STIM_008.jpg
1292.013	0.587	correct	incongruent	Block2	incongruent/STIM_008.jpg
1294.996	0.674	correct	incongruent	Block2	incongruent/STIM_009.jpg
1298.582	0.697	correct	incongruent	Block2	incongruent/STIM_009.jpg
1303.103	0.516	correct	incongruent	Block2	incongruent/STIM_009.jpg
1307.469	0.702	correct	incongruent	Block2	incongruent/STIM_009.jpg
1312.034	0.782	correct	incongruent	Block2	incongruent/STIM_009.jpg
1315.652	0.609	correct	incongruent	Block2	incongruent/STIM_010.jpg
1319.888	0.663	correct	incongruent	Block2	incongruent/STIM_010.jpg
1323.19	0.886	correct	incongruent	Block2	incongruent/STIM_010.jpg
1327.693	0.973	correct	incongruent	Block2	incongruent/STIM_010.jpg
1332.281	0.964	correct	incongruent	Block2	incongruent/STIM_010.jpg
1336.194	0.594	correct	incongruent	Block2	incongruent/STIM_011.jpg
1340.562	1.083	correct	incongruent	Block2	incongruent/STIM_011.jpg
1345.629	0.866	correct	incongruent	Block2	incongruent/STIM_011.jpg
1348.581	0.764	correct	incongruent	Block2	incongruent/STIM_011.jpg
1353.146	0.7	correct	incongruent	Block2	incongruent/STIM_011.jpg
1357.035	0.688	correct	incongruent	Block2	incongruent/STIM_012.jpg
1361.016	0.971	correct	incongruent	Block2	incongruent/STIM_012.jpg
1364.159	0.569	correct	incongruent	Block2	incongruent/STIM_012.jpg
1367.199	0.598	correct	incongruent	Block2	incongruent/STIM_012.jpg
1371.747	0.718	correct	incongruent	Block2	incongruent/STIM_012.jpg
1375.784	0.797	correct	incongruent	Block2	incongruent/STIM_013.jpg
1379.189	1.113	correct	incongruent	Block2	incongruent/STIM_013.jpg
1383.057	0.877	correct	incongruent	Block2	incongruent/STIM_013.jpg
1386.295	0.781	correct	incongruent	Block2	incongruent/STIM_013.jpg
1391.033	0.707	correct	incongruent	Block2	incongruent/STIM_013.jpg
1393.862	1.079	correct	incongruent	Block2	incongruent/STIM_014.jpg
1397.686	0.526	correct	incongruent	Block2	incongruent/STIM_014.jpg
1401.475	0.58	correct	incongruent	Block2	incongruent/STIM_014.jpg
1404.497	0.744	correct	incongruent	Block2	incongruent/STIM_014.jpg
1407.535	0.91	correct	incongruent	Block2	incongruent/STIM_014.jpg
1411.077	0.619	correct	incongruent	Block2	incongruent/STIM_015.jpg
1415.384	1.065	correct	incongruent	Block2	incongruent/STIM_015.jpg
1419.801	0.877	correct	incongruent	Block2	incongruent/STIM_015.jpg
1423.049	0.96	correct	incongruent	Block2	incongruent/STIM_015.jpg
1427.86	0.59	correct	incongruent	Block2	incongruent/STIM_015.jpg
1432.368	1.121	correct	incongruent	Block2	incongruent/STIM_016.jpg
1436.576	0.573	correct	incongruent	Block2	incongruent/STIM_016.jpg
1439.454	0.977	correct	incongruent	Block2	incongruent/STIM_016.jpg
1443.917	0.642	correct	incongruent	Block2	incongruent/STIM_016.jpg
1447.852	0.914	correct	incongruent	Block2	incongruent/STIM_016.jpg
1452.612	1.081	correct	incongruent	Block2	incongruent/STIM_017.jpg
1456.563	0.866	correct	incongruent	Block2	incongruent/STIM_017.jpg
1460.647	0.809	correct	incongruent	Block2	incongruent/STIM_017.jpg
1465.347	0.692	correct	incongruent	Block2	incongruent/STIM_017.jpg
1468.91	0.568	correct	incongruent	Block2	incongruent/STIM_017.jpg
1472.689	0.741	correct	incongruent	Block2	incongruent/STIM_018.jpg
1476.003	1.094	correct	incongruent	Block2	incongruent/STIM_018.jpg
1481.05	0.684	correct	incongruent	Block2	incongruent/STIM_018.jpg
1484.171	0.506	correct	incongruent	Block2	incongruent/STIM_018.jpg
1487.849	0.71	correct	incongruent	Block2	incongruent/STIM_018.jpg
1491.383	0.955	correct	incongruent	Block2	incongruent/STIM_019.jpg
1495.099	1.056	correct	incongruent	Block2	incongruent/STIM_019.jpg
1499.868	0.792	correct	incongruent	Block2	incongruent/STIM_019.jpg
1503.544	0.724	correct	incongruent	Block2	incongruent/STIM_019.jpg
1506.772	0.545	correct	incongruent	Block2	incongruent/STIM_019.jpg
1509.632	1.061	correct	incongruent	Block2	incongruent/STIM_020.jpg
1513.3	0.81	correct	incongruent	Block2	incongruent/STIM_020.jpg
1517.962	0.947	correct	incongruent	Block2	incongruent/STIM_020.jpg
1520.939	0.791	correct	incongruent	Block2	incongruent/STIM_020.jpg
1525.011	0.578	correct	incongruent	Block2	incongruent/STIM_020.jpg
1528.389	1.034	correct	incongruent	Block2	incongruent/STIM_021.jpg
1531.756	0.565	correct	incongruent	Block2	incongruent/STIM_021.jpg
1536.309	0.912	correct	incongruent	Block2	incongruent/STIM_021.jpg
1539.888	0.575	correct	incongruent	Block2	incongruent/STIM_021.jpg
1544.347	0.482	correct	incongruent	Block2	incongruent/STIM_021.jpg
1548.667	0.727	correct	incongruent	Block2	incongruent/STIM_022.jpg
1553.307	0.603	correct	incongruent	Block2	incongruent/STIM_022.jpg
1556.464	0.831	correct	incongruent	Block2	incongruent/STIM_022.jpg
1559.943	0.946	correct	incongruent	Block2	incongruent/STIM_022.jpg
1563.608	0.506	correct	incongruent	Block2	incongruent/STIM_022.jpg
1568.035	0.784	correct	incongruent	Block2	incongruent/STIM_023.jpg
1572.233	0.821	correct	incongruent	Block2	incongruent/STIM_023.jpg
1575.243	0.649	correct	incongruent	Block2	incongruent/STIM_023.jpg
1577.976	0.519	correct	incongruent	Block2	incongruent/STIM_023.jpg
1581.175	0.909	correct	incongruent	Block2	incongruent/STIM_023.jpg
1585.254	1.005	correct	incongruent	Block2	incongruent/STIM_024.jpg
1589.284	0.755	correct	incongruent	Block2	incongruent/STIM_024.jpg
1592.616	0.492	correct	incongruent	Block2	incongruent/STIM_024.jpg
1595.681	0.856	correct	incongruent	Block2	incongruent/STIM_024.jpg
1599.181	0.64	correct	incongruent	Block2	incongruent/STIM_024.jpg
1602.877	0.939	correct	incongruent	Block2	incongruent/STIM_025.jpg
1606.806	0.811	correct	incongruent	Block2	incongruent/STIM_025.jpg
1610.428	1.025	correct	incongruent	Block2	incongruent/STIM_025.jpg
1613.597	0.935	correct	incongruent	Block2	incongruent/STIM_025.jpg
1617.974	0.533	correct	incongruent	Block2	incongruent/STIM_025.jpg
1622.063	1.072	correct	incongruent	Block2	incongruent/STIM_026.jpg
1625.374	0.636	correct	incongruent	Block2	incongruent/STIM_026.jpg
1629.347	0.83	correct	incongruent	Block2	incongruent/STIM_026.jpg
1632.455	0.875	correct	incongruent	Block2	incongruent/STIM_026.jpg
1636.513	0.486	correct	incongruent	Block2	incongruent/STIM_026.jpg
1639.457	0.714	correct	incongruent	Block2	incongruent/STIM_027.jpg
1643.054	0.626	correct	incongruent	Block2	incongruent/STIM_027.jpg
1647.218	0.736	correct	incongruent	Block2	incongruent/STIM_027.jpg
1651.845	0.89	correct	incongruent	Block2	incongruent/STIM_027.jpg
1655.147	0.599	correct	incongruent	Block2	incongruent/STIM_027.jpg
1659.065	0.608	correct	incongruent	Block2	incongruent/STIM_028.jpg
1662.779	0.996	correct	incongruent	Block2	incongruent/STIM_028.jpg
1666.097	0.987	correct	incongruent	Block2	incongruent/STIM_028.jpg
1670.358	0.832	incorrect	incongruent	Block2	incongruent/STIM_028.jpg
1674.466	0.665	correct	incongruent	Block2	incongruent/STIM_028.jpg
1678.598	0.722	correct	incongruent	Block2	incongruent/STIM_029.jpg
1681.353	0.575	correct	incongruent	Block2	incongruent/STIM_029.jpg
1684.055	0.61	correct	incongruent	Block2	incongruent/STIM_029.jpg
1688.093	0.868	correct	incongruent	Block2	incongruent/STIM_029.jpg
1692.295	0.917	correct	incongruent	Block2	incongruent/STIM_029.jpg
1697.047	0.81	correct	congruent	Block2	congruent/STIM_000.jpg
1701.55	0.493	correct	congruent	Block2	congruent/STIM_000.jpg
1705.833	0.835	correct	congruent	Block2	congruent/STIM_000.jpg
1709.932	0.725	correct	congruent	Block2	congruent/STIM_000.jpg
1713.513	0.732	correct	congruent	Block2	congruent/STIM_000.jpg
1718.224	0.511	correct	congruent	Block2	congruent/STIM_001.jpg
1722.19	0.712	correct	congruent	Block2	congruent/STIM_001.jpg
1726.087	0.603	correct	congruent	Block2	congruent/STIM_001.jpg
1729.911	0.495	correct	congruent	Block2	congruent/STIM_001.jpg
1732.628	0.703	correct	congruent	Block2	congruent/STIM_001.jpg
1735.552	0.566	correct	congruent	Block2	congruent/STIM_002.jpg
1739.744	0.605	correct	congruent	Block2	congruent/STIM_002.jpg
1742.351	0.687	correct	congruent	Block2	congruent/STIM_002.jpg
1746.126	0.716	correct	congruent	Block2	congruent/STIM_002.jpg
1749.855	0.548	correct	congruent	Block2	congruent/STIM_002.jpg
1753.357	0.64	correct	congruent	Block2	congruent/STIM_003.jpg
1756.892	0.488	correct	congruent	Block2	congruent/STIM_003.jpg
1761.183	0.613	correct	congruent	Block2	congruent/STIM_003.jpg
1765.133	0.652	correct	congruent	Block2	congruent/STIM_003.jpg
1769.338	0.648	correct	congruent	Block2	congruent/STIM_003.jpg
1773.58	0.767	correct	congruent	Block2	congruent/STIM_004.jpg
1776.544	0.591	correct	congruent	Block2	congruent/STIM_004.jpg
1779.486	0.8	correct	congruent	Block2	congruent/STIM_004.jpg
1782.674	0.657	correct	congruent	Block2	congruent/STIM_004.jpg
1785.546	0.824	correct	congruent	Block2	congruent/STIM_004.jpg
1790.358	0.526	correct	congruent	Block2	congruent/STIM_005.jpg
1792.966	0.593	correct	congruent	Block2	congruent/STIM_005.jpg
1796.494	0.832	correct	congruent	Block2	congruent/STIM_005.jpg
1799.359	0.837	correct	congruent	Block2	congruent/STIM_005.jpg
1802.233	0.701	correct	congruent	Block2	congruent/STIM_005.jpg
1806.235	0.555	correct	congruent	Block2	congruent/STIM_006.jpg
1808.905	0.798	correct	congruent	Block2	congruent/STIM_006.jpg
1812.425	0.808	correct	congruent	Block2	congruent/STIM_006.jpg
1815.61	0.522	correct	congruent	Block2	congruent/STIM_006.jpg
1818.556	0.839	correct	congruent	Block2	congruent/STIM_006.jpg
1821.79	0.687	correct	congruent	Block2	congruent/STIM_007.jpg
1824.588	0.643	correct	congruent	Block2	congruent/STIM_007.jpg
1828.309	0.668	correct	congruent	Block2	congruent/STIM_007.jpg
1832.937	0.734	correct	congruent	Block2	congruent/STIM_007.jpg
1836.322	0.703	correct	congruent	Block2	congruent/STIM_007.jpg
1839.909	0.77	correct	congruent	Block2	congruent/STIM_008.jpg
1843.809	0.651	correct	congruent	Block2	congruent/STIM_008.jpg
1846.938	0.51	correct	congruent	Block2	congruent/STIM_008.jpg
1849.993	0.467	correct	congruent	Block2	congruent/STIM_008.jpg
1854.198	0.512	correct	congruent	Block2	congruent/STIM_008.jpg
1858.492	0.764	correct	congruent	Block2	congruent/STIM_009.jpg
1861.619	0.529	correct	congruent	Block2	congruent/STIM_009.jpg
1864.325	0.6	correct	congruent	Block2	congruent/STIM_009.jpg
1868.745	0.653	correct	congruent	Block2	congruent/STIM_009.jpg
1872.981	0.775	correct	congruent	Block2	congruent/STIM_009.jpg
1877.357	0.759	correct	congruent	Block2	congruent/STIM_010.jpg
1881.872	0.627	correct	congruent	Block2	congruent/STIM_010.jpg
1886.49	0.744	correct	congruent	Block2	congruent/STIM_010.jpg
1890.543	0.579	correct	congruent	Block2	congruent/STIM_010.jpg
1894.831	0.545	correct	congruent	Block2	congruent/STIM_010.jpg
1899.084	0.665	correct	congruent	Block2	congruent/STIM_011.jpg
1902.195	0.602	correct	congruent	Block2	congruent/STIM_011.jpg
1904.937	0.501	correct	congruent	Block2	congruent/STIM_011.jpg
1907.808	0.702	correct	congruent	Block2	congruent/STIM_011.jpg
1911.37	0.524	correct	congruent	Block2	congruent/STIM_011.jpg
1914.787	0.473	correct	congruent	Block2	congruent/STIM_012.jpg
1918.716	0.6	correct	congruent	Block2	congruent/STIM_012.jpg
1922.177	0.764	correct	congruent	Block2	congruent/STIM_012.jpg
1925.62	0.549	correct	congruent	Block2	congruent/STIM_012.jpg
1928.807	0.658	correct	congruent	Block2	congruent/STIM_012.jpg
1932.57	0.558	correct	congruent	Block2	congruent/STIM_013.jpg
1935.936	0.802	correct	congruent	Block2	congruent/STIM_013.jpg
1940.714	0.807	correct	congruent	Block2	congruent/STIM_013.jpg
1944.814	0.543	correct	congruent	Block2	congruent/STIM_013.jpg
1948.802	0.548	correct	congruent	Block2	congruent/STIM_013.jpg
1951.985	0.797	correct	congruent	Block2	congruent/STIM_014.jpg
1955.099	0.573	correct	congruent	Block2	congruent/STIM_014.jpg
1959.621	0.818	correct	congruent	Block2	congruent/STIM_014.jpg
1964.41	0.737	correct	congruent	Block2	congruent/STIM_014.jpg
1969.082	0.658	correct	congruent	Block2	congruent/STIM_014.jpg
1971.838	0.828	incorrect	congruent	Block2	congruent/STIM_015.jpg
1975.511	0.508	correct	congruent	Block2	congruent/STIM_015.jpg
1979.823	0.514	correct	congruent	Block2	congruent/STIM_015.jpg
1982.373	0.838	correct	congruent	Block2	congruent/STIM_015.jpg
1986.303	0.56	correct	congruent	Block2	congruent/STIM_015.jpg
1990.275	0.524	correct	congruent	Block2	congruent/STIM_016.jpg
1994.623	0.519	correct	congruent	Block2	congruent/STIM_016.jpg
1997.987	0.57	correct	congruent	Block2	congruent/STIM_016.jpg
2000.791	0.49	correct	congruent	Block2	congruent/STIM_016.jpg
2004.172	0.692	correct	congruent	Block2	congruent/STIM_016.jpg
2008.741	0.474	correct	congruent	Block2	congruent/STIM_017.jpg
2012.171	0.754	correct	congruent	Block2	congruent/STIM_017.jpg
2015.883	0.735	correct	congruent	Block2	congruent/STIM_017.jpg
2019.483	0.703	correct	congruent	Block2	congruent/STIM_017.jpg
2024.027	0.539	correct	congruent	Block2	congruent/STIM_017.jpg
2027.593	0.78	correct	congruent	Block2	congruent/STIM_018.jpg
2031.513	0.64	correct	congruent	Block2	congruent/STIM_018.jpg
2035.236	0.763	correct	congruent	Block2	congruent/STIM_018.jpg
2038.867	0.508	correct	congruent	Block2	congruent/STIM_018.jpg
2043.142	0.499	correct	congruent	Block2	congruent/STIM_018.jpg
2046.709	0.788	correct	congruent	Block2	congruent/STIM_019.jpg
2049.986	0.811	correct	congruent	Block2	congruent/STIM_019.jpg
2053.123	0.829	correct	congruent	Block2	congruent/STIM_019.jpg
2057.761	0.715	correct	congruent	Block2	congruent/STIM_019.jpg
2061.805	0.583	correct	congruent	Block2	congruent/STIM_019.jpg
2065.312	0.514	correct	congruent	Block2	congruent/STIM_020.jpg
2069.235	0.594	correct	congruent	Block2	congruent/STIM_020.jpg
2072.612	0.593	correct	congruent	Block2	congruent/STIM_020.jpg
2075.977	0.77	incorrect	congruent	Block2	congruent/STIM_020.jpg
2079.997	0.492	correct	congruent	Block2	congruent/STIM_020.jpg
2084.178	0.73	correct	congruent	Block2	congruent/STIM_021.jpg
2088.83	0.514	correct	congruent	Block2	congruent/STIM_021.jpg
2092.556	0.622	correct	congruent	Block2	congruent/STIM_021.jpg
2096.009	0.544	correct	congruent	Block2	congruent/STIM_021.jpg
2099.853	0.838	correct	congruent	Block2	congruent/STIM_021.jpg
2104.268	0.511	correct	congruent	Block2	congruent/STIM_022.jpg
2107.058	0.806	correct	congruent	Block2	congruent/STIM_022.jpg
2110.531	0.573	correct	congruent	Block2	congruent/STIM_022.jpg
2113.703	0.586	correct	congruent	Block2	congruent/STIM_022.jpg
2118.177	0.716	correct	congruent	Block2	congruent/STIM_022.jpg
2121.424	0.836	correct	congruent	Block2	congruent/STIM_023.jpg
2125.175	0.52	correct	congruent	Block2	congruent/STIM_023.jpg
2129.462	0.78	correct	congruent	Block2	congruent/STIM_023.jpg
2133.201	0.487	correct	congruent	Block2	congruent/STIM_023.jpg
2137.624	0.484	correct	congruent	Block2	congruent/STIM_023.jpg
2142.067	0.63	correct	congruent	Block2	congruent/STIM_024.jpg
2145.195	0.529	correct	congruent	Block2	congruent/STIM_024.jpg
2148.06	0.724	correct	congruent	Block2	congruent/STIM_024.jpg
2152.584	0.672	correct	congruent	Block2	congruent/STIM_024.jpg
2156.636	0.498	correct	congruent	Block2	congruent/STIM_024.jpg
2161.025	0.649	correct	congruent	Block2	congruent/STIM_025.jpg
2164.977	0.49	correct	congruent	Block2	congruent/STIM_025.jpg
2169.272	0.503	correct	congruent	Block2	congruent/STIM_025.jpg
2173.746	0.645	correct	congruent	Block2	congruent/STIM_025.jpg
2178.141	0.812	correct	congruent	Block2	congruent/STIM_025.jpg
2182.7	0.734	correct	congruent	Block2	congruent/STIM_026.jpg
2185.764	0.743	correct	congruent	Block2	congruent/STIM_026.jpg
2188.682	0.563	correct	congruent	Block2	congruent/STIM_026.jpg
2192.008	0.642	correct	congruent	Block2	congruent/STIM_026.jpg
2194.898	0.576	correct	congruent	Block2	congruent/STIM_026.jpg
2199.07	0.529	correct	congruent	Block2	congruent/STIM_027.jpg
2202.276	0.603	correct	congruent	Block2	congruent/STIM_027.jpg
2206.03	0.591	correct	congruent	Block2	congruent/STIM_027.jpg
2209.511	0.678	correct	congruent	Block2	congruent/STIM_027.jpg
2212.517	0.796	correct	congruent	Block2	congruent/STIM_027.jpg
2215.562	0.535	correct	congruent	Block2	congruent/STIM_028.jpg
2218.551	0.667	correct	congruent	Block2	congruent/STIM_028.jpg
2222.527	0.694	correct	congruent	Block2	congruent/STIM_028.jpg
2225.368	0.69	correct	congruent	Block2	congruent/STIM_028.jpg
2228.87	0.805	correct	congruent	Block2	congruent/STIM_028.jpg
2233.0	0.472	correct	congruent	Block2	congruent/STIM_029.jpg
2235.982	0.769	correct	congruent	Block2	congruent/STIM_029.jpg
2239.06	0.56	correct	congruent	Block2	congruent/STIM_029.jpg
2241.724	0.596	correct	congruent	Block2	congruent/STIM_029.jpg
2245.803	0.648	correct	congruent	Block2	congruent/STIM_029.jpg
2250.065	0.769	correct	incongruent	Block3	incongruent/STIM_000.jpg
2254.603	0.975	correct	incongruent	Block3	incongruent/STIM_000.jpg
2259.189	0.697	correct	incongruent	Block3	incongruent/STIM_000.jpg
2262.455	0.86	correct	incongruent	Block3	incongruent/STIM_000.jpg
2267.068	0.506	correct	incongruent	Block3	incongruent/STIM_000.jpg
2269.811	0.708	correct	incongruent	Block3	incongruent/STIM_001.jpg
2274.104	0.807	correct	incongruent	Block3	incongruent/STIM_001.jpg
2278.155	0.689	correct	incongruent	Block3	incongruent/STIM_001.jpg
2282.837	0.496	correct	incongruent	Block3	incongruent/STIM_001.jpg
2286.503	0.743	correct	incongruent	Block3	incongruent/STIM_001.jpg
2290.335	0.498	correct	incongruent	Block3	incongruent/STIM_002.jpg
2293.915	0.728	correct	incongruent	Block3	incongruent/STIM_002.jpg
2298.084	0.631	correct	incongruent	Block3	incongruent/STIM_002.jpg
2301.862	0.849	correct	incongruent	Block3	incongruent/STIM_002.jpg
2305.805	0.967	correct	incongruent	Block3	incongruent/STIM_002.jpg
2309.786	0.515	correct	incongruent	Block3	incongruent/STIM_003.jpg
2314.118	0.743	correct	incongruent	Block3	incongruent/STIM_003.jpg
2318.008	0.939	correct	incongruent	Block3	incongruent/STIM_003.jpg
2321.154	0.866	correct	incongruent	Block3	incongruent/STIM_003.jpg
2325.52	0.707	correct	incongruent	Block3	incongruent/STIM_003.jpg
2328.259	0.633	correct	incongruent	Block3	incongruent/STIM_004.jpg
2332.536	0.699	correct	incongruent	Block3	incongruent/STIM_004.jpg
2335.933	0.856	correct	incongruent	Block3	incongruent/STIM_004.jpg
2339.855	0.824	correct	incongruent	Block3	incongruent/STIM_004.jpg
2344.668	0.5	correct	incongruent	Block3	incongruent/STIM_004.jpg
2348.339	0.574	correct	incongruent	Block3	incongruent/STIM_005.jpg
2351.056	0.906	correct	incongruent	Block3	incongruent/STIM_005.jpg
2355.591	0.46	correct	incongruent	Block3	incongruent/STIM_005.jpg
2359.943	0.741	correct	incongruent	Block3	incongruent/STIM_005.jpg
2363.881	0.477	correct	incongruent	Block3	incongruent/STIM_005.jpg
2367.053	0.546	correct	incongruent	Block3	incongruent/STIM_006.jpg
2371.054	0.794	correct	incongruent	Block3	incongruent/STIM_006.jpg
2374.347	0.9	correct	incongruent	Block3	incongruent/STIM_006.jpg
2378.372	0.823	correct	incongruent	Block3	incongruent/STIM_006.jpg
2382.711	0.643	correct	incongruent	Block3	incongruent/STIM_006.jpg
2386.918	0.522	correct	incongruent	Block3	incongruent/STIM_007.jpg
2390.908	0.507	correct	incongruent	Block3	incongruent/STIM_007.jpg
2393.842	0.824	correct	incongruent	Block3	incongruent/STIM_007.jpg
2397.101	0.774	correct	incongruent	Block3	incongruent/STIM_007.jpg
2401.655	0.636	correct	incongruent	Block3	incongruent/STIM_007.jpg
2404.417	0.613	correct	incongruent	Block3	incongruent/STIM_008.jpg
2408.593	0.734	correct	incongruent	Block3	incongruent/STIM_008.jpg
2411.344	0.472	correct	incongruent	Block3	incongruent/STIM_008.jpg
2414.391	0.757	correct	incongruent	Block3	incongruent/STIM_008.jpg
2418.682	0.953	correct	incongruent	Block3	incongruent/STIM_008.jpg
2421.659	0.462	correct	incongruent	Block3	incongruent/STIM_009.jpg
2425.226	0.542	correct	incongruent	Block3	incongruent/STIM_009.jpg
2428.978	0.967	correct	incongruent	Block3	incongruent/STIM_009.jpg
2432.572	0.512	correct	incongruent	Block3	incongruent/STIM_009.jpg
2435.2	0.717	correct	incongruent	Block3	incongruent/STIM_009.jpg
2438.596	0.856	correct	incongruent	Block3	incongruent/STIM_010.jpg
2441.92	0.938	correct	incongruent	Block3	incongruent/STIM_010.jpg
2445.948	0.848	correct	incongruent	Block3	incongruent/STIM_010.jpg
2449.609	0.506	correct	incongruent	Block3	incongruent/STIM_010.jpg
2452.782	0.951	correct	incongruent	Block3	incongruent/STIM_010.jpg
2456.79	0.705	correct	incongruent	Block3	incongruent/STIM_011.jpg
2460.605	0.844	correct	incongruent	Block3	incongruent/STIM_011.jpg
2464.608	0.827	correct	incongruent	Block3	incongruent/STIM_011.jpg
2468.803	0.533	correct	incongruent	Block3	incongruent/STIM_011.jpg
2473.072	0.617	correct	incongruent	Block3	incongruent/STIM_011.jpg
2475.702	0.626	correct	incongruent	Block3	incongruent/STIM_012.jpg
2480.212	0.948	correct	incongruent	Block3	incongruent/STIM_012.jpg
2483.575	0.974	correct	incongruent	Block3	incongruent/STIM_012.jpg
2487.869	0.593	correct	incongruent	Block3	incongruent/STIM_012.jpg
2491.551	0.668	correct	incongruent	Block3	incongruent/STIM_012.jpg
2495.517	0.478	correct	incongruent	Block3	incongruent/STIM_013.jpg
2498.078	0.905	correct	incongruent	Block3	incongruent/STIM_013.jpg
2502.895	0.808	correct	incongruent	Block3	incongruent/STIM_013.jpg
2507.669	0.521	correct	incongruent	Block3	incongruent/STIM_013.jpg
2511.182	0.875	correct	incongruent	Block3	incongruent/STIM_013.jpg
2515.374	0.537	correct	incongruent	Block3	incongruent/STIM_014.jpg
2519.492	0.546	correct	incongruent	Block3	incongruent/STIM_014.jpg
2523.596	0.908	correct	incongruent	Block3	incongruent/STIM_014.jpg
2527.283	0.7	correct	incongruent	Block3	incongruent/STIM_014.jpg
2530.574	0.854	correct	incongruent	Block3	incongruent/STIM_014.jpg
2534.148	0.869	correct	incongruent	Block3	incongruent/STIM_015.jpg
2537.371	0.573	correct	incongruent	Block3	incongruent/STIM_015.jpg
2540.538	0.841	correct	incongruent	Block3	incongruent/STIM_015.jpg
2543.403	0.528	correct	incongruent	Block3	incongruent/STIM_015.jpg
2547.733	0.951	correct	incongruent	Block3	incongruent/STIM_015.jpg
2552.3	0.71	correct	incongruent	Block3	incongruent/STIM_016.jpg
2556.728	0.619	correct	incongruent	Block3	incongruent/STIM_016.jpg
2560.787	0.669	correct	incongruent	Block3	incongruent/STIM_016.jpg
2564.973	0.778	correct	incongruent	Block3	incongruent/STIM_016.jpg
2569.478	0.737	incorrect	incongruent	Block3	incongruent/STIM_016.jpg
2574.163	0.645	correct	incongruent	Block3	incongruent/STIM_017.jpg
2578.492	0.777	incorrect	incongruent	Block3	incongruent/STIM_017.jpg
2581.688	0.779	correct	incongruent	Block3	incongruent/STIM_017.jpg
2585.305	0.745	correct	incongruent	Block3	incongruent/STIM_017.jpg
2588.716	0.871	correct	incongruent	Block3	incongruent/STIM_017.jpg
2591.648	0.855	correct	incongruent	Block3	incongruent/STIM_018.jpg
2595.905	0.95	correct	incongruent	Block3	incongruent/STIM_018.jpg
2599.598	0.582	correct	incongruent	Block3	incongruent/STIM_018.jpg
2602.341	0.762	correct	incongruent	Block3	incongruent/STIM_018.jpg
2606.829	0.486	correct	incongruent	Block3	incongruent/STIM_018.jpg
2611.085	0.553	correct	incongruent	Block3	incongruent/STIM_019.jpg
2615.474	0.708	correct	incongruent	Block3	incongruent/STIM_019.jpg
2618.581	0.846	correct	incongruent	Block3	incongruent/STIM_019.jpg
2621.633	0.78	correct	incongruent	Block3	incongruent/STIM_019.jpg
2624.658	0.852	correct	incongruent	Block3	incongruent/STIM_019.jpg
2629.037	0.976	correct	incongruent	Block3	incongruent/STIM_020.jpg
2633.519	0.757	correct	incongruent	Block3	incongruent/STIM_020.jpg
2637.871	0.894	correct	incongruent	Block3	incongruent/STIM_020.jpg
2641.217	0.721	correct	incongruent	Block3	incongruent/STIM_020.jpg
2645.817	0.613	correct	incongruent	Block3	incongruent/STIM_020.jpg
2649.981	0.594	correct	incongruent	Block3	incongruent/STIM_021.jpg
2652.607	0.528	correct	incongruent	Block3	incongruent/STIM_021.jpg
2655.47	0.69	correct	incongruent	Block3	incongruent/STIM_021.jpg
2660.044	0.955	correct	incongruent	Block3	incongruent/STIM_021.jpg
2663.664	0.902	correct	incongruent	Block3	incongruent/STIM_021.jpg
2668.354	0.746	correct	incongruent	Block3	incongruent/STIM_022.jpg
2672.184	0.49	correct	incongruent	Block3	incongruent/STIM_022.jpg
2676.183	0.884	correct	incongruent	Block3	incongruent/STIM_022.jpg
2679.078	0.892	correct	incongruent	Block3	incongruent/STIM_022.jpg
2683.794	0.86	correct	incongruent	Block3	incongruent/STIM_022.jpg
2687.977	0.846	correct	incongruent	Block3	incongruent/STIM_023.jpg
2692.026	0.463	correct	incongruent	Block3	incongruent/STIM_023.jpg
2694.773	0.964	correct	incongruent	Block3	incongruent/STIM_023.jpg
2699.698	0.792	correct	incongruent	Block3	incongruent/STIM_023.jpg
2703.571	0.482	correct	incongruent	Block3	incongruent/STIM_023.jpg
2706.997	0.706	correct	incongruent	Block3	incongruent/STIM_024.jpg
2710.998	0.687	correct	incongruent	Block3	incongruent/STIM_024.jpg
2714.276	0.459	correct	incongruent	Block3	incongruent/STIM_024.jpg
2716.941	0.754	correct	incongruent	Block3	incongruent/STIM_024.jpg
2719.777	0.705	correct	incongruent	Block3	incongruent/STIM_024.jpg
2722.865	0.873	correct	incongruent	Block3	incongruent/STIM_025.jpg
2726.419	0.542	correct	incongruent	Block3	incongruent/STIM_025.jpg
2729.175	0.5	correct	incongruent	Block3	incongruent/STIM_025.jpg
2732.122	0.733	correct	incongruent	Block3	incongruent/STIM_025.jpg
2735.338	0.574	correct	incongruent	Block3	incongruent/STIM_025.jpg
2738.126	0.953	correct	incongruent	Block3	incongruent/STIM_026.jpg
2741.357	0.619	correct	incongruent	Block3	incongruent/STIM_026.jpg
2745.957	0.706	correct	incongruent	Block3	incongruent/STIM_026.jpg
2748.744	0.733	correct	incongruent	Block3	incongruent/STIM_026.jpg
2751.64	0.846	correct	incongruent	Block3	incongruent/STIM_026.jpg
2754.936	0.602	correct	incongruent	Block3	incongruent/STIM_027.jpg
2758.058	0.931	correct	incongruent	Block3	incongruent/STIM_027.jpg
2762.798	0.726	correct	incongruent	Block3	incongruent/STIM_027.jpg
2765.829	0.796	correct	incongruent	Block3	incongruent/STIM_027.jpg
2770.237	0.784	correct	incongruent	Block3	incongruent/STIM_027.jpg
2774.748	0.933	correct	incongruent	Block3	incongruent/STIM_028.jpg
2777.976	0.603	correct	incongruent	Block3	incongruent/STIM_028.jpg
2781.021	0.472	correct	incongruent	Block3	incongruent/STIM_028.jpg
2784.441	0.771	correct	incongruent	Block3	incongruent/STIM_028.jpg
2788.342	0.974	correct	incongruent	Block3	incongruent/STIM_028.jpg
2791.398	0.724	correct	incongruent	Block3	incongruent/STIM_029.jpg
2795.116	0.609	correct	incongruent	Block3	incongruent/STIM_029.jpg
2798.974	0.769	correct	incongruent	Block3	incongruent/STIM_029.jpg
2802.36	0.717	correct	incongruent	Block3	incongruent/STIM_029.jpg
2806.107	0.724	correct	incongruent	Block3	incongruent/STIM_029.jpg
2809.942	0.774	correct	congruent	Block3	congruent/STIM_000.jpg
2814.352	0.686	correct	congruent	Block3	congruent/STIM_000.jpg
2817.632	0.699	correct	congruent	Block3	congruent/STIM_000.jpg
2821.734	0.679	correct	congruent	Block3	congruent/STIM_000.jpg
2825.033	0.61	correct	congruent	Block3	congruent/STIM_000.jpg
2829.37	0.651	correct	congruent	Block3	congruent/STIM_001.jpg
2832.571	0.664	correct	congruent	Block3	congruent/STIM_001.jpg
2837.069	0.497	correct	congruent	Block3	congruent/STIM_001.jpg
2839.613	0.794	correct	congruent	Block3	congruent/STIM_001.jpg
2842.51	0.8	correct	congruent	Block3	congruent/STIM_001.jpg
2847.124	0.6	correct	congruent	Block3	congruent/STIM_002.jpg
2850.044	0.7	correct	congruent	Block3	congruent/STIM_002.jpg
2853.218	0.753	correct	congruent	Block3	congruent/STIM_002.jpg
2857.493	0.51	correct	congruent	Block3	congruent/STIM_002.jpg
2861.096	0.726	correct	congruent	Block3	congruent/STIM_002.jpg
2864.338	0.71	correct	congruent	Block3	congruent/STIM_003.jpg
2867.158	0.633	correct	congruent	Block3	congruent/STIM_003.jpg
2870.215	0.65	correct	congruent	Block3	congruent/STIM_003.jpg
2873.633	0.812	correct	congruent	Block3	congruent/STIM_003.jpg
2876.504	0.477	correct	congruent	Block3	congruent/STIM_003.jpg
2880.617	0.751	correct	congruent	Block3	congruent/STIM_004.jpg
2884.375	0.706	correct	congruent	Block3	congruent/STIM_004.jpg
2887.248	0.587	correct	congruent	Block3	congruent/STIM_004.jpg
2889.847	0.724	correct	congruent	Block3	congruent/STIM_004.jpg
2892.994	0.793	correct	congruent	Block3	congruent/STIM_004.jpg
2896.014	0.814	correct	congruent	Block3	congruent/STIM_005.jpg
2900.353	0.681	correct	congruent	Block3	congruent/STIM_005.jpg
2904.398	0.571	correct	congruent	Block3	congruent/STIM_005.jpg
2907.404	0.801	correct	congruent	Block3	congruent/STIM_005.jpg
2912.16	0.688	correct	congruent	Block3	congruent/STIM_005.jpg
2916.344	0.683	correct	congruent	Block3	congruent/STIM_006.jpg
2919.032	0.643	correct	congruent	Block3	congruent/STIM_006.jpg
2922.489	0.714	correct	congruent	Block3	congruent/STIM_006.jpg
2925.775	0.592	correct	congruent	Block3	congruent/STIM_006.jpg
2929.022	0.522	correct	congruent	Block3	congruent/STIM_006.jpg
2931.991	0.754	correct	congruent	Block3	congruent/STIM_007.jpg
2936.475	0.786	correct	congruent	Block3	congruent/STIM_007.jpg
2940.42	0.636	correct	congruent	Block3	congruent/STIM_007.jpg
2944.669	0.781	correct	congruent	Block3	congruent/STIM_007.jpg
2948.718	0.741	correct	congruent	Block3	congruent/STIM_007.jpg
2952.616	0.481	correct	congruent	Block3	congruent/STIM_008.jpg
2955.461	0.568	correct	congruent	Block3	congruent/STIM_008.jpg
2958.312	0.613	correct	congruent	Block3	congruent/STIM_008.jpg
2962.43	0.579	correct	congruent	Block3	congruent/STIM_008.jpg
2965.021	0.472	correct	congruent	Block3	congruent/STIM_008.jpg
2969.467	0.837	correct	congruent	Block3	congruent/STIM_009.jpg
2974.144	0.568	correct	congruent	Block3	congruent/STIM_009.jpg
2977.972	0.643	correct	congruent	Block3	congruent/STIM_009.jpg
2980.924	0.654	correct	congruent	Block3	congruent/STIM_009.jpg
2984.009	0.616	incorrect	congruent	Block3	congruent/STIM_009.jpg
2987.315	0.71	correct	congruent	Block3	congruent/STIM_010.jpg
2990.212	0.778	correct	congruent	Block3	congruent/STIM_010.jpg
2994.615	0.588	correct	congruent	Block3	congruent/STIM_010.jpg
2998.062	0.74	correct	congruent	Block3	congruent/STIM_010.jpg
3002.5	0.549	correct	congruent	Block3	congruent/STIM_010.jpg
3006.853	0.82	correct	congruent	Block3	congruent/STIM_011.jpg
3010.764	0.59	correct	congruent	Block3	congruent/STIM_011.jpg
3014.985	0.482	correct	congruent	Block3	congruent/STIM_011.jpg
3019.049	0.472	correct	congruent	Block3	congruent/STIM_011.jpg
3022.01	0.591	correct	congruent	Block3	congruent/STIM_011.jpg
3024.73	0.678	correct	congruent	Block3	congruent/STIM_012.jpg
3028.984	0.57	correct	congruent	Block3	congruent/STIM_012.jpg
3031.772	0.67	correct	congruent	Block3	congruent/STIM_012.jpg
3035.294	0.575	correct	congruent	Block3	congruent/STIM_012.jpg
3039.391	0.675	correct	congruent	Block3	congruent/STIM_012.jpg
3043.931	0.818	correct	congruent	Block3	congruent/STIM_013.jpg
3047.143	0.736	correct	congruent	Block3	congruent/STIM_013.jpg
3050.026	0.648	correct	congruent	Block3	congruent/STIM_013.jpg
3054.099	0.686	correct	congruent	Block3	congruent/STIM_013.jpg
3058.511	0.752	correct	congruent	Block3	congruent/STIM_013.jpg
3061.565	0.53	correct	congruent	Block3	congruent/STIM_014.jpg
3064.384	0.559	correct	congruent	Block3	congruent/STIM_014.jpg
3067.382	0.67	correct	congruent	Block3	congruent/STIM_014.jpg
3071.51	0.623	correct	congruent	Block3	congruent/STIM_014.jpg
3076.035	0.616	correct	congruent	Block3	congruent/STIM_014.jpg
3079.146	0.624	correct	congruent	Block3	congruent/STIM_015.jpg
3082.797	0.488	correct	congruent	Block3	congruent/STIM_015.jpg
3086.668	0.506	correct	congruent	Block3	congruent/STIM_015.jpg
3089.195	0.767	correct	congruent	Block3	congruent/STIM_015.jpg
3092.275	0.765	correct	congruent	Block3	congruent/STIM_015.jpg
3096.325	0.694	correct	congruent	Block3	congruent/STIM_016.jpg
3100.672	0.51	correct	congruent	Block3	congruent/STIM_016.jpg
3104.698	0.585	correct	congruent	Block3	congruent/STIM_016.jpg
3108.158	0.6	correct	congruent	Block3	congruent/STIM_016.jpg
3111.807	0.512	correct	congruent	Block3	congruent/STIM_016.jpg
3115.916	0.816	correct	congruent	Block3	congruent/STIM_017.jpg
3120.419	0.664	correct	congruent	Block3	congruent/STIM_017.jpg
3124.378	0.787	incorrect	congruent	Block3	congruent/STIM_017.jpg
3128.95	0.79	correct	congruent	Block3	congruent/STIM_017.jpg
3132.828	0.69	incorrect	congruent	Block3	congruent/STIM_017.jpg
3136.216	0.72	correct	congruent	Block3	congruent/STIM_018.jpg
3139.929	0.603	correct	congruent	Block3	congruent/STIM_018.jpg
3143.359	0.818	correct	congruent	Block3	congruent/STIM_018.jpg
3146.723	0.552	correct	congruent	Block3	congruent/STIM_018.jpg
3150.251	0.591	correct	congruent	Block3	congruent/STIM_018.jpg
3154.507	0.625	correct	congruent	Block3	congruent/STIM_019.jpg
3158.301	0.56	correct	congruent	Block3	congruent/STIM_019.jpg
3162.742	0.496	correct	congruent	Block3	congruent/STIM_019.jpg
3165.288	0.724	correct	congruent	Block3	congruent/STIM_019.jpg
3169.757	0.671	correct	congruent	Block3	congruent/STIM_019.jpg
3173.612	0.492	correct	congruent	Block3	congruent/STIM_020.jpg
3176.405	0.644	correct	congruent	Block3	congruent/STIM_020.jpg
3179.1	0.767	correct	congruent	Block3	congruent/STIM_020.jpg
3183.194	0.553	correct	congruent	Block3	congruent/STIM_020.jpg
3186.664	0.641	correct	congruent	Block3	congruent/STIM_020.jpg
3190.825	0.672	correct	congruent	Block3	congruent/STIM_021.jpg
3195.394	0.579	correct	congruent	Block3	congruent/STIM_021.jpg
3198.178	0.703	correct	congruent	Block3	congruent/STIM_021.jpg
3202.379	0.544	correct	congruent	Block3	congruent/STIM_021.jpg
3205.444	0.827	correct	congruent	Block3	congruent/STIM_021.jpg
3210.179	0.719	correct	congruent	Block3	congruent/STIM_022.jpg
3213.523	0.492	correct	congruent	Block3	congruent/STIM_022.jpg
3216.649	0.51	correct	congruent	Block3	congruent/STIM_022.jpg
3220.286	0.522	correct	congruent	Block3	congruent/STIM_022.jpg
3224.697	0.76	correct	congruent	Block3	congruent/STIM_022.jpg
3229.229	0.806	correct	congruent	Block3	congruent/STIM_023.jpg
3233.063	0.826	correct	congruent	Block3	congruent/STIM_023.jpg
3236.795	0.513	correct	congruent	Block3	congruent/STIM_023.jpg
3241.242	0.518	correct	congruent	Block3	congruent/STIM_023.jpg
3245.746	0.755	correct	congruent	Block3	congruent/STIM_023.jpg
3249.199	0.555	correct	congruent	Block3	congruent/STIM_024.jpg
3251.958	0.677	correct	congruent	Block3	congruent/STIM_024.jpg
3255.138	0.625	correct	congruent	Block3	congruent/STIM_024.jpg
3259.247	0.809	correct	congruent	Block3	congruent/STIM_024.jpg
3263.092	0.772	correct	congruent	Block3	congruent/STIM_024.jpg
3267.07	0.604	correct	congruent	Block3	congruent/STIM_025.jpg
3271.487	0.718	correct	congruent	Block3	congruent/STIM_025.jpg
3274.309	0.604	correct	congruent	Block3	congruent/STIM_025.jpg
3277.844	0.577	correct	congruent	Block3	congruent/STIM_025.jpg
3280.777	0.716	correct	congruent	Block3	congruent/STIM_025.jpg
3284.008	0.748	correct	congruent	Block3	congruent/STIM_026.jpg
3287.801	0.817	correct	congruent	Block3	congruent/STIM_026.jpg
3290.883	0.645	correct	congruent	Block3	congruent/STIM_026.jpg
3293.994	0.571	correct	congruent	Block3	congruent/STIM_026.jpg
3298.215	0.53	correct	congruent	Block3	congruent/STIM_026.jpg
3301.663	0.62	correct	congruent	Block3	congruent/STIM_027.jpg
3305.815	0.837	correct	congruent	Block3	congruent/STIM_027.jpg
3310.29	0.721	correct	congruent	Block3	congruent/STIM_027.jpg
3314.5	0.488	correct	congruent	Block3	congruent/STIM_027.jpg
3317.071	0.627	correct	congruent	Block3	congruent/STIM_027.jpg
3320.508	0.603	correct	congruent	Block3	congruent/STIM_028.jpg
3324.127	0.563	correct	congruent	Block3	congruent/STIM_028.jpg
3328.556	0.627	correct	congruent	Block3	congruent/STIM_028.jpg
3331.473	0.609	correct	congruent	Block3	congruent/STIM_028.jpg
3335.708	0.676	correct	congruent	Block3	congruent/STIM_028.jpg
3339.073	0.552	correct	congruent	Block3	congruent/STIM_029.jpg
3343.393	0.611	correct	congruent	Block3	congruent/STIM_029.jpg
3346.577	0.759	correct	congruent	Block3	congruent/STIM_029.jpg
3350.259	0.547	correct	congruent	Block3	congruent/STIM_029.jpg
3352.86	0.705	correct	congruent	Block3	congruent/STIM_029.jpg
