onset	duration	accuracy	trial_type	learning_stage	stimulus
0.0	0.738	correct	incongruent	Block1	incongruent/STIM_000.jpg
2.977	1.366	correct	incongruent	Block1	incongruent/STIM_000.jpg
8.063	1.336	correct	incongruent	Block1	incongruent/STIM_000.jpg
11.493	1.073	correct	incongruent	Block1	incongruent/STIM_000.jpg
16.306	0.745	correct	incongruent	Block1	incongruent/STIM_000.jpg
20.489	1.107	incorrect	incongruent	Block1	incongruent/STIM_001.jpg
25.123	0.96	correct	incongruent	Block1	incongruent/STIM_001.jpg
29.25	1.262	correct	incongruent	Block1	incongruent/STIM_001.jpg
33.294	0.866	correct	incongruent	Block1	incongruent/STIM_001.jpg
36.213	0.691	correct	incongruent	Block1	incongruent/STIM_001.jpg
39.055	1.152	correct	incongruent	Block1	incongruent/STIM_002.jpg
43.487	1.446	correct	incongruent	Block1	incongruent/STIM_002.jpg
47.373	1.395	correct	incongruent	Block1	incongruent/STIM_002.jpg
51.969	1.268	correct	incongruent	Block1	incongruent/STIM_002.jpg
56.285	0.869	correct	incongruent	Block1	incongruent/STIM_002.jpg
59.18	0.81	incorrect	incongruent	Block1	incongruent/STIM_003.jpg
63.276	0.983	correct	incongruent	Block1	incongruent/STIM_003.jpg
67.233	0.796	correct	incongruent	Block1	incongruent/STIM_003.jpg
71.238	1.274	correct	incongruent	Block1	incongruent/STIM_003.jpg
74.718	0.785	correct	incongruent	Block1	incongruent/STIM_003.jpg
78.709	1.047	incorrect	incongruent	Block1	incongruent/STIM_004.jpg
83.438	1.469	correct	incongruent	Block1	incongruent/STIM_004.jpg
87.415	1.221	incorrect	incongruent	Block1	incongruent/STIM_004.jpg
91.493	0.842	correct	incongruent	Block1	incongruent/STIM_004.jpg
95.945	0.815	correct	incongruent	Block1	incongruent/STIM_004.jpg
100.48	0.998	correct	incongruent	Block1	incongruent/STIM_005.jpg
105.389	1.348	correct	incongruent	Block1	incongruent/STIM_005.jpg
109.695	1.055	correct	incongruent	Block1	incongruent/STIM_005.jpg
112.821	1.274	correct	incongruent	Block1	incongruent/STIM_005.jpg
116.526	1.163	correct	incongruent	Block1	incongruent/STIM_005.jpg
119.98	0.8	correct	incongruent	Block1	incongruent/STIM_006.jpg
124.609	1.21	correct	incongruent	Block1	incongruent/STIM_006.jpg
128.454	0.962	correct	incongruent	Block1	incongruent/STIM_006.jpg
132.035	0.839	correct	incongruent	Block1	incongruent/STIM_006.jpg
135.313	0.596	correct	incongruent	Block1	incongruent/STIM_006.jpg
139.051	1.053	correct	incongruent	Block1	incongruent/STIM_007.jpg
142.172	1.174	correct	incongruent	Block1	incongruent/STIM_007.jpg
146.039	1.143	correct	incongruent	Block1	incongruent/STIM_007.jpg
149.268	0.664	correct	incongruent	Block1	incongruent/STIM_007.jpg
153.3	0.714	correct	incongruent	Block1	incongruent/STIM_007.jpg
156.33	1.289	correct	incongruent	Block1	incongruent/STIM_008.jpg
159.712	1.3	correct	incongruent	Block1	incongruent/STIM_008.jpg
163.903	0.798	correct	incongruent	Block1	incongruent/STIM_008.jpg
168.03	1.265	correct	incongruent	Block1	incongruent/STIM_008.jpg
171.589	1.025	correct	incongruent	Block1	incongruent/STIM_008.jpg
176.147	0.793	correct	incongruent	Block1	incongruent/STIM_009.jpg
180.583	1.335	correct	incongruent	Block1	incongruent/STIM_009.jpg
185.813	0.752	correct	incongruent	Block1	incongruent/STIM_009.jpg
189.75	1.328	correct	incongruent	Block1	incongruent/STIM_009.jpg
194.687	0.592	correct	incongruent	Block1	incongruent/STIM_009.jpg
198.256	1.427	correct	incongruent	Block1	incongruent/STIM_010.jpg
203.446	0.727	correct	incongruent	Block1	incongruent/STIM_010.jpg
206.911	0.826	correct	incongruent	Block1	incongruent/STIM_010.jpg
210.714	1.282	correct	incongruent	Block1	incongruent/STIM_010.jpg
214.365	0.594	incorrect	incongruent	Block1	incongruent/STIM_010.jpg
218.701	1.024	correct	incongruent	Block1	incongruent/STIM_011.jpg
222.442	1.398	correct	incongruent	Block1	incongruent/STIM_011.jpg
225.833	1.16	correct	incongruent	Block1	incongruent/STIM_011.jpg
229.66	0.918	correct	incongruent	Block1	incongruent/STIM_011.jpg
233.502	1.028	correct	incongruent	Block1	incongruent/STIM_011.jpg
236.701	0.793	correct	incongruent	Block1	incongruent/STIM_012.jpg
240.729	1.036	correct	incongruent	Block1	incongruent/STIM_012.jpg
244.217	0.813	incorrect	incongruent	Block1	incongruent/STIM_012.jpg
248.544	1.216	correct	incongruent	Block1	incongruent/STIM_012.jpg
251.757	0.789	correct	incongruent	Block1	incongruent/STIM_012.jpg
255.33	0.735	correct	incongruent	Block1	incongruent/STIM_013.jpg
258.988	1.345	correct	incongruent	Block1	incongruent/STIM_013.jpg
263.297	0.772	correct	incongruent	Block1	incongruent/STIM_013.jpg
266.582	1.072	correct	incongruent	Block1	incongruent/STIM_013.jpg
270.065	0.711	correct	incongruent	Block1	incongruent/STIM_013.jpg
273.36	1.284	correct	incongruent	Block1	incongruent/STIM_014.jpg
278.311	1.2	incorrect	incongruent	Block1	incongruent/STIM_014.jpg
282.379	0.795	incorrect	incongruent	Block1	incongruent/STIM_014.jpg
286.309	1.119	correct	incongruent	Block1	incongruent/STIM_014.jpg
289.746	0.658	correct	incongruent	Block1	incongruent/STIM_014.jpg
293.981	1.283	incorrect	incongruent	Block1	incongruent/STIM_015.jpg
299.144	0.764	correct	incongruent	Block1	incongruent/STIM_015.jpg
302.221	0.785	correct	incongruent	Block1	incongruent/STIM_015.jpg
305.029	0.584	correct	incongruent	Block1	incongruent/STIM_015.jpg
307.786	1.041	correct	incongruent	Block1	incongruent/STIM_015.jpg
312.777	1.148	correct	incongruent	Block1	incongruent/STIM_016.jpg
317.188	1.164	correct	incongruent	Block1	incongruent/STIM_016.jpg
321.645	1.205	correct	incongruent	Block1	incongruent/STIM_016.jpg
326.223	1.058	correct	incongruent	Block1	incongruent/STIM_016.jpg
329.753	0.709	correct	incongruent	Block1	incongruent/STIM_016.jpg
333.605	1.607	correct	incongruent	Block1	incongruent/STIM_017.jpg
338.921	0.846	correct	incongruent	Block1	incongruent/STIM_017.jpg
343.672	1.346	incorrect	incongruent	Block1	incongruent/STIM_017.jpg
348.774	0.836	correct	incongruent	Block1	incongruent/STIM_017.jpg
351.852	0.923	correct	incongruent	Block1	incongruent/STIM_017.jpg
355.015	1.446	correct	incongruent	Block1	incongruent/STIM_018.jpg
359.384	1.116	correct	incongruent	Block1	incongruent/STIM_018.jpg
364.456	1.186	correct	incongruent	Block1	incongruent/STIM_018.jpg
368.081	0.605	correct	incongruent	Block1	incongruent/STIM_018.jpg
370.757	0.802	correct	incongruent	Block1	incongruent/STIM_018.jpg
374.651	0.731	correct	incongruent	Block1	incongruent/STIM_019.jpg
378.464	1.313	correct	incongruent	Block1	incongruent/STIM_019.jpg
382.881	1.292	correct	incongruent	Block1	incongruent/STIM_019.jpg
388.106	1.048	correct	incongruent	Block1	incongruent/STIM_019.jpg
392.569	1.017	correct	incongruent	Block1	incongruent/STIM_019.jpg
396.89	1.039	incorrect	incongruent	Block1	incongruent/STIM_020.jpg
401.599	1.203	correct	incongruent	Block1	incongruent/STIM_020.jpg
406.551	1.168	correct	incongruent	Block1	incongruent/STIM_020.jpg
411.476	1.173	correct	incongruent	Block1	incongruent/STIM_020.jpg
414.862	1.048	correct	incongruent	Block1	incongruent/STIM_020.jpg
419.367	1.353	incorrect	incongruent	Block1	incongruent/STIM_021.jpg
422.933	1.343	correct	incongruent	Block1	incongruent/STIM_021.jpg
426.906	0.758	incorrect	incongruent	Block1	incongruent/STIM_021.jpg
431.139	1.026	incorrect	incongruent	Block1	incongruent/STIM_021.jpg
435.037	1.131	correct	incongruent	Block1	incongruent/STIM_021.jpg
439.8	1.557	correct	incongruent	Block1	incongruent/STIM_022.jpg
443.555	0.728	correct	incongruent	Block1	incongruent/STIM_022.jpg
447.969	1.25	correct	incongruent	Block1	incongruent/STIM_022.jpg
452.185	0.89	correct	incongruent	Block1	incongruent/STIM_022.jpg
456.656	0.747	correct	incongruent	Block1	incongruent/STIM_022.jpg
460.84	1.311	correct	incongruent	Block1	incongruent/STIM_023.jpg
464.517	1.362	correct	incongruent	Block1	incongruent/STIM_023.jpg
468.502	0.673	correct	incongruent	Block1	incongruent/STIM_023.jpg
471.639	0.63	correct	incongruent	Block1	incongruent/STIM_023.jpg
475.357	0.996	correct	incongruent	Block1	incongruent/STIM_023.jpg
480.133	1.017	correct	incongruent	Block1	incongruent/STIM_024.jpg
484.883	1.013	correct	incongruent	Block1	incongruent/STIM_024.jpg
489.008	0.643	correct	incongruent	Block1	incongruent/STIM_024.jpg
491.981	1.17	correct	incongruent	Block1	incongruent/STIM_024.jpg
496.329	0.626	correct	incongruent	Block1	incongruent/STIM_024.jpg
499.707	1.395	correct	incongruent	Block1	incongruent/STIM_025.jpg
504.841	0.774	correct	incongruent	Block1	incongruent/STIM_025.jpg
509.398	1.052	correct	incongruent	Block1	incongruent/STIM_025.jpg
514.054	0.676	correct	incongruent	Block1	incongruent/STIM_025.jpg
518.408	1.285	correct	incongruent	Block1	incongruent/STIM_025.jpg
523.387	1.308	correct	incongruent	Block1	incongruent/STIM_026.jpg
527.505	0.889	correct	incongruent	Block1	incongruent/STIM_026.jpg
531.531	1.215	correct	incongruent	Block1	incongruent/STIM_026.jpg
535.829	0.598	correct	incongruent	Block1	incongruent/STIM_026.jpg
538.644	0.652	incorrect	incongruent	Block1	incongruent/STIM_026.jpg
542.84	1.337	correct	incongruent	Block1	incongruent/STIM_027.jpg
546.788	1.182	correct	incongruent	Block1	incongruent/STIM_027.jpg
550.229	1.119	incorrect	incongruent	Block1	incongruent/STIM_027.jpg
553.796	0.716	correct	incongruent	Block1	incongruent/STIM_027.jpg
556.712	1.086	correct	incongruent	Block1	incongruent/STIM_027.jpg
560.552	0.702	correct	incongruent	Block1	incongruent/STIM_028.jpg
563.565	1.31	correct	incongruent	Block1	incongruent/STIM_028.jpg
568.156	1.317	correct	incongruent	Block1	incongruent/STIM_028.jpg
571.718	1.017	correct	incongruent	Block1	incongruent/STIM_028.jpg
576.206	0.69	correct	incongruent	Block1	incongruent/STIM_028.jpg
580.891	0.754	correct	incongruent	Block1	incongruent/STIM_029.jpg
585.046	1.199	correct	incongruent	Block1	incongruent/STIM_029.jpg
588.893	1.238	incorrect	incongruent	Block1	incongruent/STIM_029.jpg
593.64	1.226	correct	incongruent	Block1	incongruent/STIM_029.jpg
597.699	0.756	correct	incongruent	Block1	incongruent/STIM_029.jpg
601.889	0.856	correct	congruent	Block1	congruent/STIM_000.jpg
604.836	0.775	correct	congruent	Block1	congruent/STIM_000.jpg
607.948	0.641	correct	congruent	Block1	congruent/STIM_000.jpg
611.576	0.528	correct	congruent	Block1	congruent/STIM_000.jpg
615.42	0.738	correct	congruent	Block1	congruent/STIM_000.jpg
618.854	0.603	correct	congruent	Block1	congruent/STIM_001.jpg
623.026	0.834	correct	congruent	Block1	congruent/STIM_001.jpg
626.755	0.725	correct	congruent	Block1	congruent/STIM_001.jpg
630.232	0.901	correct	congruent	Block1	congruent/STIM_001.jpg
634.153	0.798	correct	congruent	Block1	congruent/STIM_001.jpg
637.484	0.888	correct	congruent	Block1	congruent/STIM_002.jpg
640.359	0.711	correct	congruent	Block1	congruent/STIM_002.jpg
643.881	0.653	correct	congruent	Block1	congruent/STIM_002.jpg
648.353	0.672	correct	congruent	Block1	congruent/STIM_002.jpg
651.138	0.861	correct	congruent	Block1	congruent/STIM_002.jpg
654.95	0.478	correct	congruent	Block1	congruent/STIM_003.jpg
659.375	0.571	correct	congruent	Block1	congruent/STIM_003.jpg
662.071	0.604	correct	congruent	Block1	congruent/STIM_003.jpg
666.28	0.656	correct	congruent	Block1	congruent/STIM_003.jpg
670.897	0.488	incorrect	congruent	Block1	congruent/STIM_003.jpg
674.953	0.752	correct	congruent	Block1	congruent/STIM_004.jpg
679.679	0.414	correct	congruent	Block1	congruent/STIM_004.jpg
682.52	0.56	incorrect	congruent	Block1	congruent/STIM_004.jpg
685.905	0.848	correct	congruent	Block1	congruent/STIM_004.jpg
690.078	0.611	correct	congruent	Block1	congruent/STIM_004.jpg
693.458	0.543	correct	congruent	Block1	congruent/STIM_005.jpg
697.952	0.535	correct	congruent	Block1	congruent/STIM_005.jpg
701.88	0.734	correct	congruent	Block1	congruent/STIM_005.jpg
705.585	0.987	correct	congruent	Block1	congruent/STIM_005.jpg
709.513	0.945	correct	congruent	Block1	congruent/STIM_005.jpg
713.785	0.767	correct	congruent	Block1	congruent/STIM_006.jpg
717.885	0.881	incorrect	congruent	Block1	congruent/STIM_006.jpg
721.196	0.648	correct	congruent	Block1	congruent/STIM_006.jpg
725.629	0.783	incorrect	congruent	Block1	congruent/STIM_006.jpg
729.139	0.751	correct	congruent	Block1	congruent/STIM_006.jpg
732.325	0.574	correct	congruent	Block1	congruent/STIM_007.jpg
735.247	0.942	correct	congruent	Block1	congruent/STIM_007.jpg
740.088	0.872	correct	congruent	Block1	congruent/STIM_007.jpg
743.607	0.863	correct	congruent	Block1	congruent/STIM_007.jpg
748.344	0.843	correct	congruent	Block1	congruent/STIM_007.jpg
752.099	0.744	correct	congruent	Block1	congruent/STIM_008.jpg
755.219	0.937	correct	congruent	Block1	congruent/STIM_008.jpg
758.58	0.776	correct	congruent	Block1	congruent/STIM_008.jpg
763.225	0.74	correct	congruent	Block1	congruent/STIM_008.jpg
767.247	0.599	correct	congruent	Block1	congruent/STIM_008.jpg
770.286	0.736	correct	congruent	Block1	congruent/STIM_009.jpg
773.424	0.904	correct	congruent	Block1	congruent/STIM_009.jpg
777.292	0.846	correct	congruent	Block1	congruent/STIM_009.jpg
781.975	0.688	correct	congruent	Block1	congruent/STIM_009.jpg
785.394	0.869	correct	congruent	Block1	congruent/STIM_009.jpg
790.223	0.91	correct	congruent	Block1	congruent/STIM_010.jpg
795.001	0.671	correct	congruent	Block1	congruent/STIM_010.jpg
798.203	0.533	correct	congruent	Block1	congruent/STIM_010.jpg
800.831	0.62	correct	congruent	Block1	congruent/STIM_010.jpg
804.046	0.863	correct	congruent	Block1	congruent/STIM_010.jpg
808.292	0.505	correct	congruent	Block1	congruent/STIM_011.jpg
811.73	0.58	correct	congruent	Block1	congruent/STIM_011.jpg
814.53	0.676	correct	congruent	Block1	congruent/STIM_011.jpg
818.22	0.622	correct	congruent	Block1	congruent/STIM_011.jpg
821.799	0.595	correct	congruent	Block1	congruent/STIM_011.jpg
825.315	0.905	correct	congruent	Block1	congruent/STIM_012.jpg
830.176	0.656	correct	congruent	Block1	congruent/STIM_012.jpg
832.953	0.852	correct	congruent	Block1	congruent/STIM_012.jpg
836.848	0.877	incorrect	congruent	Block1	congruent/STIM_012.jpg
839.731	0.713	correct	congruent	Block1	congruent/STIM_012.jpg
844.252	0.948	correct	congruent	Block1	congruent/STIM_013.jpg
848.552	0.569	correct	congruent	Block1	congruent/STIM_013.jpg
851.326	0.597	correct	congruent	Block1	congruent/STIM_013.jpg
855.618	0.76	correct	congruent	Block1	congruent/STIM_013.jpg
859.189	0.744	correct	congruent	Block1	congruent/STIM_013.jpg
862.393	0.68	correct	congruent	Block1	congruent/STIM_014.jpg
866.758	0.666	incorrect	congruent	Block1	congruent/STIM_014.jpg
869.688	0.708	correct	congruent	Block1	congruent/STIM_014.jpg
874.249	0.804	correct	congruent	Block1	congruent/STIM_014.jpg
878.273	0.596	correct	congruent	Block1	congruent/STIM_014.jpg
882.147	0.654	correct	congruent	Block1	congruent/STIM_015.jpg
886.302	0.959	correct	congruent	Block1	congruent/STIM_015.jpg
891.086	0.515	correct	congruent	Block1	congruent/STIM_015.jpg
894.619	0.837	correct	congruent	Block1	congruent/STIM_015.jpg
897.497	0.9	correct	congruent	Block1	congruent/STIM_015.jpg
901.137	0.985	correct	congruent	Block1	congruent/STIM_016.jpg
905.368	0.458	correct	congruent	Block1	congruent/STIM_016.jpg
909.726	0.765	correct	congruent	Block1	congruent/STIM_016.jpg
913.403	0.734	correct	congruent	Block1	congruent/STIM_016.jpg
916.229	0.606	correct	congruent	Block1	congruent/STIM_016.jpg
918.937	0.586	correct	congruent	Block1	congruent/STIM_017.jpg
923.271	0.939	correct	congruent	Block1	congruent/STIM_017.jpg
927.87	0.739	correct	congruent	Block1	congruent/STIM_017.jpg
931.001	0.747	correct	congruent	Block1	congruent/STIM_017.jpg
934.445	0.877	correct	congruent	Block1	congruent/STIM_017.jpg
938.181	0.715	correct	congruent	Block1	congruent/STIM_018.jpg
941.611	0.557	correct	congruent	Block1	congruent/STIM_018.jpg
944.979	0.672	correct	congruent	Block1	congruent/STIM_018.jpg
949.318	0.87	correct	congruent	Block1	congruent/STIM_018.jpg
952.437	0.537	correct	congruent	Block1	congruent/STIM_018.jpg
955.205	0.695	correct	congruent	Block1	congruent/STIM_019.jpg
957.956	0.818	incorrect	congruent	Block1	congruent/STIM_019.jpg
961.263	1.016	correct	congruent	Block1	congruent/STIM_019.jpg
965.137	0.712	correct	congruent	Block1	congruent/STIM_019.jpg
968.181	0.595	correct	congruent	Block1	congruent/STIM_019.jpg
972.401	0.794	correct	congruent	Block1	congruent/STIM_020.jpg
975.848	0.709	correct	congruent	Block1	congruent/STIM_020.jpg
978.937	0.829	incorrect	congruent	Block1	congruent/STIM_020.jpg
982.907	0.863	correct	congruent	Block1	congruent/STIM_020.jpg
986.679	0.587	correct	congruent	Block1	congruent/STIM_020.jpg
990.05	0.914	correct	congruent	Block1	congruent/STIM_021.jpg
993.384	0.888	correct	congruent	Block1	congruent/STIM_021.jpg
997.438	0.561	correct	congruent	Block1	congruent/STIM_021.jpg
1001.53	0.8	correct	congruent	Block1	congruent/STIM_021.jpg
1004.363	0.736	correct	congruent	Block1	congruent/STIM_021.jpg
1008.549	0.902	correct	congruent	Block1	congruent/STIM_022.jpg
1013.129	0.598	correct	congruent	Block1	congruent/STIM_022.jpg
1017.482	0.559	correct	congruent	Block1	congruent/STIM_022.jpg
1020.677	0.614	correct	congruent	Block1	congruent/STIM_022.jpg
1024.633	0.95	correct	congruent	Block1	congruent/STIM_022.jpg
1027.869	0.826	correct	congruent	Block1	congruent/STIM_023.jpg
1032.514	1.082	correct	congruent	Block1	congruent/STIM_023.jpg
1035.803	0.548	correct	congruent	Block1	congruent/STIM_023.jpg
1039.762	0.672	correct	congruent	Block1	congruent/STIM_023.jpg
1044.248	0.569	correct	congruent	Block1	congruent/STIM_023.jpg
1047.708	0.69	correct	congruent	Block1	congruent/STIM_024.jpg
1051.641	0.566	correct	congruent	Block1	congruent/STIM_024.jpg
1055.03	0.874	correct	congruent	Block1	congruent/STIM_024.jpg
1058.624	0.954	incorrect	congruent	Block1	congruent/STIM_024.jpg
1062.86	0.706	correct	congruent	Block1	congruent/STIM_024.jpg
1066.896	0.705	correct	congruent	Block1	congruent/STIM_025.jpg
1071.394	0.491	correct	congruent	Block1	congruent/STIM_025.jpg
1075.153	0.695	correct	congruent	Block1	congruent/STIM_025.jpg
1079.179	0.682	incorrect	congruent	Block1	congruent/STIM_025.jpg
1082.675	0.614	correct	congruent	Block1	congruent/STIM_025.jpg
1087.024	0.733	correct	congruent	Block1	congruent/STIM_026.jpg
1090.656	0.877	correct	congruent	Block1	congruent/STIM_026.jpg
1095.127	0.429	correct	congruent	Block1	congruent/STIM_026.jpg
1098.339	0.67	correct	congruent	Block1	congruent/STIM_026.jpg
1101.52	0.906	correct	congruent	Block1	congruent/STIM_026.jpg
1105.517	0.884	correct	congruent	Block1	congruent/STIM_027.jpg
1110.123	0.553	correct	congruent	Block1	congruent/STIM_027.jpg
1113.71	0.773	correct	congruent	Block1	congruent/STIM_027.jpg
1117.524	0.879	correct	congruent	Block1	congruent/STIM_027.jpg
1120.59	0.677	correct	congruent	Block1	congruent/STIM_027.jpg
1123.227	0.595	correct	congruent	Block1	congruent/STIM_028.jpg
1126.365	0.881	correct	congruent	Block1	congruent/STIM_028.jpg
1129.695	0.649	incorrect	congruent	Block1	congruent/STIM_028.jpg
1132.857	0.654	correct	congruent	Block1	congruent/STIM_028.jpg
1137.311	0.94	correct	congruent	Block1	congruent/STIM_028.jpg
1142.006	0.886	correct	congruent	Block1	congruent/STIM_029.jpg
1146.54	0.869	correct	congruent	Block1	congruent/STIM_029.jpg
1149.611	0.66	correct	congruent	Block1	congruent/STIM_029.jpg
1153.375	0.731	correct	congruent	Block1	congruent/STIM_029.jpg
1156.236	0.573	correct	congruent	Block1	congruent/STIM_029.jpg
1160.476	1.188	correct	incongruent	Block2	incongruent/STIM_000.jpg
1164.065	1.005	correct	incongruent	Block2	incongruent/STIM_000.jpg
1168.958	1.108	correct	incongruent	Block2	incongruent/STIM_000.jpg
1173.744	0.513	correct	incongruent	Block2	incongruent/STIM_000.jpg
1177.742	0.516	correct	incongruent	Block2	incongruent/STIM_000.jpg
1182.101	0.918	incorrect	incongruent	Block2	incongruent/STIM_001.jpg
1185.432	0.71	correct	incongruent	Block2	incongruent/STIM_001.jpg
1189.133	0.527	correct	incongruent	Block2	incongruent/STIM_001.jpg
1193.326	0.844	correct	incongruent	Block2	incongruent/STIM_001.jpg
1196.508	0.573	incorrect	incongruent	Block2	incongruent/STIM_001.jpg
1200.168	0.536	correct	incongruent	Block2	incongruent/STIM_002.jpg
1204.266	0.85	correct	incongruent	Block2	incongruent/STIM_002.jpg
1208.863	0.998	correct	incongruent	Block2	incongruent/STIM_002.jpg
1212.59	0.726	correct	incongruent	Block2	incongruent/STIM_002.jpg
1215.988	0.888	correct	incongruent	Block2	incongruent/STIM_002.jpg
1219.878	1.012	correct	incongruent	Block2	incongruent/STIM_003.jpg
1223.839	0.93	correct	incongruent	Block2	incongruent/STIM_003.jpg
1227.222	0.862	correct	incongruent	Block2	incongruent/STIM_003.jpg
1230.245	0.591	correct	incongruent	Block2	incongruent/STIM_003.jpg
1233.697	0.945	correct	incongruent	Block2	incongruent/STIM_003.jpg
1236.987	1.348	correct	incongruent	Block2	incongruent/STIM_004.jpg
1241.067	0.825	correct	incongruent	Block2	incongruent/STIM_004.jpg
1244.073	0.728	correct	incongruent	Block2	incongruent/STIM_004.jpg
1247.369	1.01	correct	incongruent	Block2	incongruent/STIM_004.jpg
1252.239	0.879	correct	incongruent	Block2	incongruent/STIM_004.jpg
1255.209	0.59	correct	incongruent	Block2	incongruent/STIM_005.jpg
1259.794	0.924	correct	incongruent	Block2	incongruent/STIM_005.jpg
1263.213	0.698	correct	incongruent	Block2	incongruent/STIM_005.jpg
1267.252	0.685	correct	incongruent	Block2	incongruent/STIM_005.jpg
1270.749	0.714	correct	incongruent	Block2	incongruent/STIM_005.jpg
1273.911	1.004	correct	incongruent	Block2	incongruent/STIM_006.jpg
1278.597	0.83	correct	incongruent	Block2	incongruent/STIM_006.jpg
1282.165	0.75	correct	incongruent	Block2	incongruent/STIM_006.jpg
1286.464	1.026	correct	incongruent	Block2	incongruent/STIM_006.jpg
1291.335	0.911	correct	incongruent	Block2	incongruent/STIM_006.jpg
1296.128	0.808	correct	incongruent	Block2	incongruent/STIM_007.jpg
1300.677	0.932	correct	incongruent	Block2	incongruent/STIM_007.jpg
1303.742	0.676	correct	incongruent	Block2	incongruent/STIM_007.jpg
1308.342	0.726	correct	incongruent	Block2	incongruent/STIM_007.jpg
1312.145	0.867	incorrect	incongruent	Block2	incongruent/STIM_007.jpg
1315.08	1.268	correct	incongruent	Block2	incongruent/STIM_008.jpg
1318.694	0.55	correct	incongruent	Block2	incongruent/STIM_008.jpg
1322.223	1.076	correct	incongruent	Block2	incongruent/STIM_008.jpg
1326.435	0.987	incorrect	incongruent	Block2	incongruent/STIM_008.jpg
1330.11	0.673	correct	incongruent	Block2	incongruent/STIM_008.jpg
1333.965	0.633	correct	incongruent	Block2	incongruent/STIM_009.jpg
1336.656	1.081	correct	incongruent	Block2	incongruent/STIM_009.jpg
1340.657	0.539	correct	incongruent	Block2	incongruent/STIM_009.jpg
1344.997	0.924	correct	incongruent	Block2	incongruent/STIM_009.jpg
1348.764	0.528	correct	incongruent	Block2	incongruent/STIM_009.jpg
1351.708	1.09	correct	incongruent	Block2	incongruent/STIM_010.jpg
1355.687	0.646	correct	incongruent	Block2	incongruent/STIM_010.jpg
1358.848	1.045	correct	incongruent	Block2	incongruent/STIM_010.jpg
1362.869	0.771	correct	incongruent	Block2	incongruent/STIM_010.jpg
1366.483	0.501	correct	incongruent	Block2	incongruent/STIM_010.jpg
1369.967	0.848	correct	incongruent	Block2	incongruent/STIM_011.jpg
1372.999	0.897	correct	incongruent	Block2	incongruent/STIM_011.jpg
1377.843	0.906	correct	incongruent	Block2	incongruent/STIM_011.jpg
1381.386	0.757	correct	incongruent	Block2	incongruent/STIM_011.jpg
1384.859	0.649	correct	incongruent	Block2	incongruent/STIM_011.jpg
1387.786	0.828	correct	incongruent	Block2	incongruent/STIM_012.jpg
1391.413	1.254	correct	incongruent	Block2	incongruent/STIM_012.jpg
1394.965	0.892	correct	incongruent	Block2	incongruent/STIM_012.jpg
1398.955	0.811	correct	incongruent	Block2	incongruent/STIM_012.jpg
1402.157	0.982	correct	incongruent	Block2	incongruent/STIM_012.jpg
1405.601	0.767	correct	incongruent	Block2	incongruent/STIM_013.jpg
1409.976	0.615	correct	incongruent	Block2	incongruent/STIM_013.jpg
1412.716	1.079	correct	incongruent	Block2	incongruent/STIM_013.jpg
1417.557	0.833	correct	incongruent	Block2	incongruent/STIM_013.jpg
1420.902	0.819	correct	incongruent	Block2	incongruent/STIM_013.jpg
1425.398	0.734	correct	incongruent	Block2	incongruent/STIM_014.jpg
1428.59	0.964	correct	incongruent	Block2	incongruent/STIM_014.jpg
1431.595	1.046	correct	incongruent	Block2	incongruent/STIM_014.jpg
1435.707	0.498	correct	incongruent	Block2	incongruent/STIM_014.jpg
1440.168	0.581	correct	incongruent	Block2	incongruent/STIM_014.jpg
1442.874	0.777	correct	incongruent	Block2	incongruent/STIM_015.jpg
1446.767	0.691	correct	incongruent	Block2	incongruent/STIM_015.jpg
1450.991	1.048	correct	incongruent	Block2	incongruent/STIM_015.jpg
1454.347	0.628	correct	incongruent	Block2	incongruent/STIM_015.jpg
1457.594	0.818	correct	incongruent	Block2	incongruent/STIM_015.jpg
1462.305	1.364	correct	incongruent	Block2	incongruent/STIM_016.jpg
1466.051	1.059	correct	incongruent	Block2	incongruent/STIM_016.jpg
1469.764	0.985	correct	incongruent	Block2	incongruent/STIM_016.jpg
1473.183	0.648	correct	incongruent	Block2	incongruent/STIM_016.jpg
1476.695	0.726	correct	incongruent	Block2	incongruent/STIM_016.jpg
1480.728	0.792	correct	incongruent	Block2	incongruent/STIM_017.jpg
1483.642	0.821	correct	incongruent	Block2	incongruent/STIM_017.jpg
1486.817	0.723	correct	incongruent	Block2	incongruent/STIM_017.jpg
1491.307	0.552	correct	incongruent	Block2	incongruent/STIM_017.jpg
1495.047	0.66	correct	incongruent	Block2	incongruent/STIM_017.jpg
1498.383	0.759	correct	incongruent	Block2	incongruent/STIM_018.jpg
1502.048	0.697	correct	incongruent	Block2	incongruent/STIM_018.jpg
1505.287	1.032	correct	incongruent	Block2	incongruent/STIM_018.jpg
1509.866	0.579	correct	incongruent	Block2	incongruent/STIM_018.jpg
1512.599	0.956	correct	incongruent	Block2	incongruent/STIM_018.jpg
1516.46	0.943	correct	incongruent	Block2	incongruent/STIM_019.jpg
1519.636	1.029	correct	incongruent	Block2	incongruent/STIM_019.jpg
1523.811	0.973	correct	incongruent	Block2	incongruent/STIM_019.jpg
1527.152	0.795	correct	incongruent	Block2	incongruent/STIM_019.jpg
1530.753	0.812	correct	incongruent	Block2	incongruent/STIM_019.jpg
1534.874	1.042	correct	incongruent	Block2	incongruent/STIM_020.jpg
1539.499	1.16	correct	incongruent	Block2	incongruent/STIM_020.jpg
1543.933	1.002	correct	incongruent	Block2	incongruent/STIM_020.jpg
1548.441	0.759	correct	incongruent	Block2	incongruent/STIM_020.jpg
1552.771	1.178	correct	incongruent	Block2	incongruent/STIM_020.jpg
1556.887	1.199	correct	incongruent	Block2	incongruent/STIM_021.jpg
1561.369	0.611	correct	incongruent	Block2	incongruent/STIM_021.jpg
1564.362	0.885	correct	incongruent	Block2	incongruent/STIM_021.jpg
1567.635	1.042	correct	incongruent	Block2	incongruent/STIM_021.jpg
1570.564	0.685	correct	incongruent	Block2	incongruent/STIM_021.jpg
1574.018	0.798	correct	incongruent	Block2	incongruent/STIM_022.jpg
1577.348	0.935	correct	incongruent	Block2	incongruent/STIM_022.jpg
1582.068	1.019	correct	incongruent	Block2	incongruent/STIM_022.jpg
1586.832	0.56	correct	incongruent	Block2	incongruent/STIM_022.jpg
1590.27	0.869	correct	incongruent	Block2	incongruent/STIM_022.jpg
1593.955	0.769	correct	incongruent	Block2	incongruent/STIM_023.jpg
1598.06	0.597	correct	incongruent	Block2	incongruent/STIM_023.jpg
1601.518	1.144	correct	incongruent	Block2	incongruent/STIM_023.jpg
1605.051	0.705	correct	incongruent	Block2	incongruent/STIM_023.jpg
1609.418	0.622	correct	incongruent	Block2	incongruent/STIM_023.jpg
1612.825	1.062	correct	incongruent	Block2	incongruent/STIM_024.jpg
1617.02	0.682	correct	incongruent	Block2	incongruent/STIM_024.jpg
1620.262	0.913	correct	incongruent	Block2	incongruent/STIM_024.jpg
1623.858	1.002	correct	incongruent	Block2	incongruent/STIM_024.jpg
1627.257	0.602	correct	incongruent	Block2	incongruent/STIM_024.jpg
1630.445	1.251	correct	incongruent	Block2	incongruent/STIM_025.jpg
1633.824	0.916	correct	incongruent	Block2	incongruent/STIM_025.jpg
1637.293	0.817	correct	incongruent	Block2	incongruent/STIM_025.jpg
1641.575	0.904	correct	incongruent	Block2	incongruent/STIM_025.jpg
1646.076	0.716	correct	incongruent	Block2	incongruent/STIM_025.jpg
1650.112	1.284	correct	incongruent	Block2	incongruent/STIM_026.jpg
1653.63	0.917	correct	incongruent	Block2	incongruent/STIM_026.jpg
1656.574	1.063	correct	incongruent	Block2	incongruent/STIM_026.jpg
1661.083	0.99	correct	incongruent	Block2	incongruent/STIM_026.jpg
1665.851	0.739	correct	incongruent	Block2	incongruent/STIM_026.jpg
1669.241	0.954	correct	incongruent	Block2	incongruent/STIM_027.jpg
1672.241	1.137	correct	incongruent	Block2	incongruent/STIM_027.jpg
1676.885	0.905	correct	incongruent	Block2	incongruent/STIM_027.jpg
1680.666	0.524	correct	incongruent	Block2	incongruent/STIM_027.jpg
1683.881	0.585	correct	incongruent	Block2	incongruent/STIM_027.jpg
1686.61	1.205	correct	incongruent	Block2	incongruent/STIM_028.jpg
1690.046	0.674	correct	incongruent	Block2	incongruent/STIM_028.jpg
1693.938	0.772	correct	incongruent	Block2	incongruent/STIM_028.jpg
1697.274	0.628	incorrect	incongruent	Block2	incongruent/STIM_028.jpg
1701.448	0.674	correct	incongruent	Block2	incongruent/STIM_028.jpg
1704.609	0.804	correct	incongruent	Block2	incongruent/STIM_029.jpg
1708.246	0.914	correct	incongruent	Block2	incongruent/STIM_029.jpg
1711.719	0.711	correct	incongruent	Block2	incongruent/STIM_029.jpg
1715.667	0.701	correct	incongruent	Block2	incongruent/STIM_029.jpg
1718.756	1.105	correct	incongruent	Block2	incongruent/STIM_029.jpg
1722.032	0.58	correct	congruent	Block2	congruent/STIM_000.jpg
1725.613	0.521	correct	congruent	Block2	congruent/STIM_000.jpg
1730.037	0.862	correct	congruent	Block2	congruent/STIM_000.jpg
1733.035	0.789	correct	congruent	Block2	congruent/STIM_000.jpg
1736.838	0.776	correct	congruent	Block2	congruent/STIM_000.jpg
1741.338	0.614	correct	congruent	Block2	congruent/STIM_001.jpg
1744.496	0.757	correct	congruent	Block2	congruent/STIM_001.jpg
1747.626	0.937	correct	congruent	Block2	congruent/STIM_001.jpg
1751.375	0.652	correct	congruent	Block2	congruent/STIM_001.jpg
1755.951	0.681	correct	congruent	Block2	congruent/STIM_001.jpg
1760.185	0.717	correct	congruent	Block2	congruent/STIM_002.jpg
1763.855	0.613	correct	congruent	Block2	congruent/STIM_002.jpg
1767.692	0.695	correct	congruent	Block2	congruent/STIM_002.jpg
1771.915	0.719	correct	congruent	Block2	congruent/STIM_002.jpg
1775.197	0.846	correct	congruent	Block2	congruent/STIM_002.jpg
1778.318	0.666	correct	congruent	Block2	congruent/STIM_003.jpg
1781.702	0.768	correct	congruent	Block2	congruent/STIM_003.jpg
1785.791	0.608	correct	congruent	Block2	congruent/STIM_003.jpg
1790.263	0.606	correct	congruent	Block2	congruent/STIM_003.jpg
1793.348	0.864	correct	congruent	Block2	congruent/STIM_003.jpg
1796.492	0.61	correct	congruent	Block2	congruent/STIM_004.jpg
1799.656	0.74	correct	congruent	Block2	congruent/STIM_004.jpg
1804.012	0.553	incorrect	congruent	Block2	congruent/STIM_004.jpg
1808.329	0.845	correct	congruent	Block2	congruent/STIM_004.jpg
1813.101	0.581	correct	congruent	Block2	congruent/STIM_004.jpg
1816.664	0.927	correct	congruent	Block2	congruent/STIM_005.jpg
1820.932	0.723	correct	congruent	Block2	congruent/STIM_005.jpg
1825.315	0.576	correct	congruent	Block2	congruent/STIM_005.jpg
1829.156	0.626	correct	congruent	Block2	congruent/STIM_005.jpg
1832.117	0.657	correct	congruent	Block2	congruent/STIM_005.jpg
1835.919	0.76	correct	congruent	Block2	congruent/STIM_006.jpg
1840.297	0.649	correct	congruent	Block2	congruent/STIM_006.jpg
1843.362	0.515	correct	congruent	Block2	congruent/STIM_006.jpg
1846.811	0.607	correct	congruent	Block2	congruent/STIM_006.jpg
1850.118	0.655	correct	congruent	Block2	congruent/STIM_006.jpg
1853.565	0.573	correct	congruent	Block2	congruent/STIM_007.jpg
1856.841	0.641	correct	congruent	Block2	congruent/STIM_007.jpg
1860.861	0.678	correct	congruent	Block2	congruent/STIM_007.jpg
1865.006	0.795	correct	congruent	Block2	congruent/STIM_007.jpg
1868.57	0.692	correct	congruent	Block2	congruent/STIM_007.jpg
1872.277	0.64	correct	congruent	Block2	congruent/STIM_008.jpg
1876.296	0.688	correct	congruent	Block2	congruent/STIM_008.jpg
1880.562	0.746	correct	congruent	Block2	congruent/STIM_008.jpg
1883.314	0.763	correct	congruent	Block2	congruent/STIM_008.jpg
1887.88	0.666	correct	congruent	Block2	congruent/STIM_008.jpg
1891.483	0.437	correct	congruent	Block2	congruent/STIM_009.jpg
1894.874	0.751	correct	congruent	Block2	congruent/STIM_009.jpg
1898.49	0.593	correct	congruent	Block2	congruent/STIM_009.jpg
1901.85	0.551	correct	congruent	Block2	congruent/STIM_009.jpg
1905.506	0.765	correct	congruent	Block2	congruent/STIM_009.jpg
1908.968	0.95	correct	congruent	Block2	congruent/STIM_010.jpg
1913.368	0.71	correct	congruent	Block2	congruent/STIM_010.jpg
1917.789	0.884	correct	congruent	Block2	congruent/STIM_010.jpg
1922.227	0.84	correct	congruent	Block2	congruent/STIM_010.jpg
1925.038	0.654	correct	congruent	Block2	congruent/STIM_010.jpg
1928.214	0.49	correct	congruent	Block2	congruent/STIM_011.jpg
1931.555	0.732	correct	congruent	Block2	congruent/STIM_011.jpg
1934.373	0.775	correct	congruent	Block2	congruent/STIM_011.jpg
1938.584	0.723	correct	congruent	Block2	congruent/STIM_011.jpg
1941.525	0.563	correct	congruent	Block2	congruent/STIM_011.jpg
1944.395	0.6	correct	congruent	Block2	congruent/STIM_012.jpg
1948.246	0.669	correct	congruent	Block2	congruent/STIM_012.jpg
1952.689	0.869	correct	congruent	Block2	congruent/STIM_012.jpg
1957.483	0.703	correct	congruent	Block2	congruent/STIM_012.jpg
1960.287	0.652	correct	congruent	Block2	congruent/STIM_012.jpg
1964.855	0.705	correct	congruent	Block2	congruent/STIM_013.jpg
1967.799	0.897	correct	congruent	Block2	congruent/STIM_013.jpg
1972.247	0.648	correct	congruent	Block2	congruent/STIM_013.jpg
1975.979	0.556	correct	congruent	Block2	congruent/STIM_013.jpg
1979.665	0.506	correct	congruent	Block2	congruent/STIM_013.jpg
1983.929	0.635	correct	congruent	Block2	congruent/STIM_014.jpg
1986.648	0.738	correct	congruent	Block2	congruent/STIM_014.jpg
1990.2	0.853	correct	congruent	Block2	congruent/STIM_014.jpg
1993.309	0.633	correct	congruent	Block2	congruent/STIM_014.jpg
1996.081	0.578	correct	congruent	Block2	congruent/STIM_014.jpg
1999.37	0.744	incorrect	congruent	Block2	congruent/STIM_015.jpg
2003.945	0.678	correct	congruent	Block2	congruent/STIM_015.jpg
2007.603	0.703	correct	congruent	Block2	congruent/STIM_015.jpg
2010.291	0.895	correct	congruent	Block2	congruent/STIM_015.jpg
2013.515	0.856	correct	congruent	Block2	congruent/STIM_015.jpg
2018.127	0.697	correct	congruent	Block2	congruent/STIM_016.jpg
2022.607	0.719	correct	congruent	Block2	congruent/STIM_016.jpg
2025.956	0.89	correct	congruent	Block2	congruent/STIM_016.jpg
2029.913	0.872	correct	congruent	Block2	congruent/STIM_016.jpg
2033.119	0.665	correct	congruent	Block2	congruent/STIM_016.jpg
2036.591	0.761	correct	congruent	Block2	congruent/STIM_017.jpg
2039.432	0.695	correct	congruent	Block2	congruent/STIM_017.jpg
2043.782	0.595	correct	congruent	Block2	congruent/STIM_017.jpg
2047.024	0.721	correct	congruent	Block2	congruent/STIM_017.jpg
2050.389	0.847	correct	congruent	Block2	congruent/STIM_017.jpg
2054.632	0.699	correct	congruent	Block2	congruent/STIM_018.jpg
2057.87	0.533	correct	congruent	Block2	congruent/STIM_018.jpg
2061.285	0.649	correct	congruent	Block2	congruent/STIM_018.jpg
2064.705	0.887	correct	congruent	Block2	congruent/STIM_018.jpg
2067.976	0.711	correct	congruent	Block2	congruent/STIM_018.jpg
2072.386	0.869	correct	congruent	Block2	congruent/STIM_019.jpg
2075.51	0.918	correct	congruent	Block2	congruent/STIM_019.jpg
2080.225	0.735	correct	congruent	Block2	congruent/STIM_019.jpg
2084.09	0.521	correct	congruent	Block2	congruent/STIM_019.jpg
2087.386	0.821	correct	congruent	Block2	congruent/STIM_019.jpg
2091.256	0.594	correct	congruent	Block2	congruent/STIM_020.jpg
2094.654	0.452	correct	congruent	Block2	congruent/STIM_020.jpg
2098.156	0.713	correct	congruent	Block2	congruent/STIM_020.jpg
2102.765	0.908	incorrect	congruent	Block2	congruent/STIM_020.jpg
2105.903	0.864	correct	congruent	Block2	congruent/STIM_020.jpg
2109.982	0.687	correct	congruent	Block2	congruent/STIM_021.jpg
2114.224	0.724	correct	congruent	Block2	congruent/STIM_021.jpg
2117.445	0.639	correct	congruent	Block2	congruent/STIM_021.jpg
2120.895	0.965	correct	congruent	Block2	congruent/STIM_021.jpg
2124.932	0.803	correct	congruent	Block2	congruent/STIM_021.jpg
2129.757	0.654	correct	congruent	Block2	congruent/STIM_022.jpg
2133.663	0.675	correct	congruent	Block2	congruent/STIM_022.jpg
2137.217	0.756	correct	congruent	Block2	congruent/STIM_022.jpg
2140.559	0.6	correct	congruent	Block2	congruent/STIM_022.jpg
2144.62	0.709	correct	congruent	Block2	congruent/STIM_022.jpg
2148.17	0.812	correct	congruent	Block2	congruent/STIM_023.jpg
2151.74	0.485	correct	congruent	Block2	congruent/STIM_023.jpg
2155.391	0.703	correct	congruent	Block2	congruent/STIM_023.jpg
2158.582	0.701	correct	congruent	Block2	congruent/STIM_023.jpg
2161.525	0.522	correct	congruent	Block2	congruent/STIM_023.jpg
2164.371	0.831	correct	congruent	Block2	congruent/STIM_024.jpg
2168.962	0.773	correct	congruent	Block2	congruent/STIM_024.jpg
2171.983	0.584	correct	congruent	Block2	congruent/STIM_024.jpg
2176.126	0.586	correct	congruent	Block2	congruent/STIM_024.jpg
2178.923	0.563	correct	congruent	Block2	congruent/STIM_024.jpg
2181.584	0.862	correct	congruent	Block2	congruent/STIM_025.jpg
2186.073	0.743	correct	congruent	Block2	congruent/STIM_025.jpg
2189.067	0.928	correct	congruent	Block2	congruent/STIM_025.jpg
2192.815	0.644	correct	congruent	Block2	congruent/STIM_025.jpg
2195.981	0.482	correct	congruent	Block2	congruent/STIM_025.jpg
2200.054	0.79	correct	congruent	Block2	congruent/STIM_026.jpg
2204.217	0.884	correct	congruent	Block2	congruent/STIM_026.jpg
2208.642	0.595	correct	congruent	Block2	congruent/STIM_026.jpg
2211.572	0.733	correct	congruent	Block2	congruent/STIM_026.jpg
2215.043	0.786	correct	congruent	Block2	congruent/STIM_026.jpg
2219.712	0.885	correct	congruent	Block2	congruent/STIM_027.jpg
2223.057	0.686	correct	congruent	Block2	congruent/STIM_027.jpg
2227.737	0.702	correct	congruent	Block2	congruent/STIM_027.jpg
2231.942	0.755	correct	congruent	Block2	congruent/STIM_027.jpg
2235.138	0.877	correct	congruent	Block2	congruent/STIM_027.jpg
2239.43	0.691	correct	congruent	Block2	congruent/STIM_028.jpg
2242.27	0.93	correct	congruent	Block2	congruent/STIM_028.jpg
2245.722	0.885	correct	congruent	Block2	congruent/STIM_028.jpg
2248.796	0.603	correct	congruent	Block2	congruent/STIM_028.jpg
2251.856	0.631	correct	congruent	Block2	congruent/STIM_028.jpg
2255.967	0.623	correct	congruent	Block2	congruent/STIM_029.jpg
2260.17	0.552	correct	congruent	Block2	congruent/STIM_029.jpg
2263.963	0.623	correct	congruent	Block2	congruent/STIM_029.jpg
2267.422	0.862	correct	congruent	Block2	congruent/STIM_029.jpg
2271.748	0.772	correct	congruent	Block2	congruent/STIM_029.jpg
2275.545	0.943	correct	incongruent	Block3	incongruent/STIM_000.jpg
2280.1	0.727	correct	incongruent	Block3	incongruent/STIM_000.jpg
2284.213	0.868	correct	incongruent	Block3	incongruent/STIM_000.jpg
2287.501	0.634	correct	incongruent	Block3	incongruent/STIM_000.jpg
2290.152	1.0	correct	incongruent	Block3	incongruent/STIM_000.jpg
2293.733	1.02	correct	incongruent	Block3	incongruent/STIM_001.jpg
2297.698	0.793	correct	incongruent	Block3	incongruent/STIM_001.jpg
2302.269	0.903	correct	incongruent	Block3	incongruent/STIM_001.jpg
2305.772	0.91	correct	incongruent	Block3	incongruent/STIM_001.jpg
2309.983	0.772	correct	incongruent	Block3	incongruent/STIM_001.jpg
2313.127	1.088	correct	incongruent	Block3	incongruent/STIM_002.jpg
2316.882	1.065	correct	incongruent	Block3	incongruent/STIM_002.jpg
2321.859	0.882	correct	incongruent	Block3	incongruent/STIM_002.jpg
2325.468	0.562	correct	incongruent	Block3	incongruent/STIM_002.jpg
2328.506	0.619	correct	incongruent	Block3	incongruent/STIM_002.jpg
2332.818	0.614	correct	incongruent	Block3	incongruent/STIM_003.jpg
2336.562	0.775	correct	incongruent	Block3	incongruent/STIM_003.jpg
2341.151	0.574	correct	incongruent	Block3	incongruent/STIM_003.jpg
2345.438	0.867	correct	incongruent	Block3	incongruent/STIM_003.jpg
2348.902	0.855	correct	incongruent	Block3	incongruent/STIM_003.jpg
2353.231	0.746	correct	incongruent	Block3	incongruent/STIM_004.jpg
2356.196	0.69	correct	incongruent	Block3	incongruent/STIM_004.jpg
2360.478	0.959	correct	incongruent	Block3	incongruent/STIM_004.jpg
2365.064	1.12	correct	incongruent	Block3	incongruent/STIM_004.jpg
2369.303	0.748	correct	incongruent	Block3	incongruent/STIM_004.jpg
2372.003	0.383	correct	incongruent	Block3	incongruent/STIM_005.jpg
2375.874	0.84	correct	incongruent	Block3	incongruent/STIM_005.jpg
2379.067	0.967	correct	incongruent	Block3	incongruent/STIM_005.jpg
2382.956	0.715	correct	incongruent	Block3	incongruent/STIM_005.jpg
2387.198	0.678	correct	incongruent	Block3	incongruent/STIM_005.jpg
2391.746	0.536	correct	incongruent	Block3	incongruent/STIM_006.jpg
2395.923	0.515	correct	incongruent	Block3	incongruent/STIM_006.jpg
2399.723	0.678	correct	incongruent	Block3	incongruent/STIM_006.jpg
2402.842	0.765	correct	incongruent	Block3	incongruent/STIM_006.jpg
2407.333	0.911	correct	incongruent	Block3	incongruent/STIM_006.jpg
2411.241	0.596	correct	incongruent	Block3	incongruent/STIM_007.jpg
2414.055	0.548	correct	incongruent	Block3	incongruent/STIM_007.jpg
2417.599	0.734	correct	incongruent	Block3	incongruent/STIM_007.jpg
2421.465	0.738	correct	incongruent	Block3	incongruent/STIM_007.jpg
2425.234	0.74	correct	incongruent	Block3	incongruent/STIM_007.jpg
2428.806	1.106	correct	incongruent	Block3	incongruent/STIM_008.jpg
2432.448	0.938	correct	incongruent	Block3	incongruent/STIM_008.jpg
2436.974	0.834	correct	incongruent	Block3	incongruent/STIM_008.jpg
2440.754	0.623	correct	incongruent	Block3	incongruent/STIM_008.jpg
2443.43	1.077	correct	incongruent	Block3	incongruent/STIM_008.jpg
2447.495	0.59	incorrect	incongruent	Block3	incongruent/STIM_009.jpg
2450.938	1.004	correct	incongruent	Block3	incongruent/STIM_009.jpg
2454.495	0.697	correct	incongruent	Block3	incongruent/STIM_009.jpg
2457.235	1.064	correct	incongruent	Block3	incongruent/STIM_009.jpg
2460.585	0.999	correct	incongruent	Block3	incongruent/STIM_009.jpg
2463.981	1.041	correct	incongruent	Block3	incongruent/STIM_010.jpg
2468.255	0.747	correct	incongruent	Block3	incongruent/STIM_010.jpg
2472.884	0.877	correct	incongruent	Block3	incongruent/STIM_010.jpg
2477.19	0.854	correct	incongruent	Block3	incongruent/STIM_010.jpg
2481.785	0.703	correct	incongruent	Block3	incongruent/STIM_010.jpg
2485.024	0.63	correct	incongruent	Block3	incongruent/STIM_011.jpg
2489.535	1.083	correct	incongruent	Block3	incongruent/STIM_011.jpg
2493.856	0.709	correct	incongruent	Block3	incongruent/STIM_011.jpg
2497.107	0.909	correct	incongruent	Block3	incongruent/STIM_011.jpg
2500.041	0.826	correct	incongruent	Block3	incongruent/STIM_011.jpg
2503.145	0.756	correct	incongruent	Block3	incongruent/STIM_012.jpg
2507.439	0.529	correct	incongruent	Block3	incongruent/STIM_012.jpg
2511.173	0.551	correct	incongruent	Block3	incongruent/STIM_012.jpg
2514.41	0.942	correct	incongruent	Block3	incongruent/STIM_012.jpg
2518.196	0.65	correct	incongruent	Block3	incongruent/STIM_012.jpg
2521.181	1.016	correct	incongruent	Block3	incongruent/STIM_013.jpg
2525.463	0.591	correct	incongruent	Block3	incongruent/STIM_013.jpg
2529.925	0.947	correct	incongruent	Block3	incongruent/STIM_013.jpg
2533.56	0.779	correct	incongruent	Block3	incongruent/STIM_013.jpg
2538.17	0.794	correct	incongruent	Block3	incongruent/STIM_013.jpg
2541.311	0.542	incorrect	incongruent	Block3	incongruent/STIM_014.jpg
2544.863	0.97	correct	incongruent	Block3	incongruent/STIM_014.jpg
2549.28	1.032	correct	incongruent	Block3	incongruent/STIM_014.jpg
2553.085	0.595	correct	incongruent	Block3	incongruent/STIM_014.jpg
2555.992	0.956	correct	incongruent	Block3	incongruent/STIM_014.jpg
2560.602	0.522	correct	incongruent	Block3	incongruent/STIM_015.jpg
2563.823	0.584	correct	incongruent	Block3	incongruent/STIM_015.jpg
2567.259	0.944	correct	incongruent	Block3	incongruent/STIM_015.jpg
2571.038	1.112	correct	incongruent	Block3	incongruent/STIM_015.jpg
2575.494	0.476	correct	incongruent	Block3	incongruent/STIM_015.jpg
2578.805	0.727	correct	incongruent	Block3	incongruent/STIM_016.jpg
2582.086	0.981	correct	incongruent	Block3	incongruent/STIM_016.jpg
2585.211	0.622	correct	incongruent	Block3	incongruent/STIM_016.jpg
2587.758	1.105	correct	incongruent	Block3	incongruent/STIM_016.jpg
2590.81	0.942	incorrect	incongruent	Block3	incongruent/STIM_016.jpg
2594.501	0.973	correct	incongruent	Block3	incongruent/STIM_017.jpg
2599.353	0.904	incorrect	incongruent	Block3	incongruent/STIM_017.jpg
2602.454	0.829	correct	incongruent	Block3	incongruent/STIM_017.jpg
2605.304	0.859	correct	incongruent	Block3	incongruent/STIM_017.jpg
2609.237	0.947	correct	incongruent	Block3	incongruent/STIM_017.jpg
2613.844	0.874	correct	incongruent	Block3	incongruent/STIM_018.jpg
2618.24	0.669	correct	incongruent	Block3	incongruent/STIM_018.jpg
2621.7	0.53	correct	incongruent	Block3	incongruent/STIM_018.jpg
2626.112	0.567	correct	incongruent	Block3	incongruent/STIM_018.jpg
2630.705	0.522	correct	incongruent	Block3	incongruent/STIM_018.jpg
2634.794	0.7	correct	incongruent	Block3	incongruent/STIM_019.jpg
2638.799	0.709	correct	incongruent	Block3	incongruent/STIM_019.jpg
2643.439	0.751	correct	incongruent	Block3	incongruent/STIM_019.jpg
2646.757	0.976	correct	incongruent	Block3	incongruent/STIM_019.jpg
2650.926	0.604	correct	incongruent	Block3	incongruent/STIM_019.jpg
2654.209	0.667	correct	incongruent	Block3	incongruent/STIM_020.jpg
2657.169	0.866	correct	incongruent	Block3	incongruent/STIM_020.jpg
2660.721	1.053	correct	incongruent	Block3	incongruent/STIM_020.jpg
2663.941	0.744	correct	incongruent	Block3	incongruent/STIM_020.jpg
2666.722	0.694	correct	incongruent	Block3	incongruent/STIM_020.jpg
2670.852	0.566	correct	incongruent	Block3	incongruent/STIM_021.jpg
2674.103	0.588	correct	incongruent	Block3	incongruent/STIM_021.jpg
2677.315	0.639	correct	incongruent	Block3	incongruent/STIM_021.jpg
2681.426	0.888	correct	incongruent	Block3	incongruent/STIM_021.jpg
2684.567	0.781	correct	incongruent	Block3	incongruent/STIM_021.jpg
2687.658	0.674	correct	incongruent	Block3	incongruent/STIM_022.jpg
2690.746	1.167	correct	incongruent	Block3	incongruent/STIM_022.jpg
2694.893	0.912	correct	incongruent	Block3	incongruent/STIM_022.jpg
2699.432	0.918	correct	incongruent	Block3	incongruent/STIM_022.jpg
2702.667	0.956	correct	incongruent	Block3	incongruent/STIM_022.jpg
2707.497	1.042	correct	incongruent	Block3	incongruent/STIM_023.jpg
2711.629	0.94	correct	incongruent	Block3	incongruent/STIM_023.jpg
2715.252	0.892	correct	incongruent	Block3	incongruent/STIM_023.jpg
2719.149	0.54	correct	incongruent	Block3	incongruent/STIM_023.jpg
2721.77	0.842	correct	incongruent	Block3	incongruent/STIM_023.jpg
2726.193	0.802	correct	incongruent	Block3	incongruent/STIM_024.jpg
2730.819	1.003	correct	incongruent	Block3	incongruent/STIM_024.jpg
2735.47	0.976	correct	incongruent	Block3	incongruent/STIM_024.jpg
2739.004	0.683	correct	incongruent	Block3	incongruent/STIM_024.jpg
2743.253	0.845	correct	incongruent	Block3	incongruent/STIM_024.jpg
2747.001	0.536	correct	incongruent	Block3	incongruent/STIM_025.jpg
2749.527	0.761	correct	incongruent	Block3	incongruent/STIM_025.jpg
2752.702	0.659	correct	incongruent	Block3	incongruent/STIM_025.jpg
2757.071	1.042	correct	incongruent	Block3	incongruent/STIM_025.jpg
2760.47	0.801	correct	incongruent	Block3	incongruent/STIM_025.jpg
2763.321	0.806	correct	incongruent	Block3	incongruent/STIM_026.jpg
2766.622	0.473	correct	incongruent	Block3	incongruent/STIM_026.jpg
2769.666	0.799	correct	incongruent	Block3	incongruent/STIM_026.jpg
2773.682	0.593	correct	incongruent	Block3	incongruent/STIM_026.jpg
2776.966	1.149	correct	incongruent	Block3	incongruent/STIM_026.jpg
2781.145	0.62	correct	incongruent	Block3	incongruent/STIM_027.jpg
2783.95	0.579	correct	incongruent	Block3	incongruent/STIM_027.jpg
2786.99	0.822	correct	incongruent	Block3	incongruent/STIM_027.jpg
2789.87	1.231	correct	incongruent	Block3	incongruent/STIM_027.jpg
2794.867	0.672	correct	incongruent	Block3	incongruent/STIM_027.jpg
2798.505	0.809	correct	incongruent	Block3	incongruent/STIM_028.jpg
2801.539	0.571	correct	incongruent	Block3	incongruent/STIM_028.jpg
2805.463	0.985	correct	incongruent	Block3	incongruent/STIM_028.jpg
2809.79	0.588	correct	incongruent	Block3	incongruent/STIM_028.jpg
2813.477	0.583	correct	incongruent	Block3	incongruent/STIM_028.jpg
2816.352	0.73	correct	incongruent	Block3	incongruent/STIM_029.jpg
2820.154	1.009	correct	incongruent	Block3	incongruent/STIM_029.jpg
2824.147	0.935	correct	incongruent	Block3	incongruent/STIM_029.jpg
2828.368	0.64	correct	incongruent	Block3	incongruent/STIM_029.jpg
2832.486	0.726	correct	incongruent	Block3	incongruent/STIM_029.jpg
2836.393	0.697	correct	congruent	Block3	congruent/STIM_000.jpg
2839.473	0.858	correct	congruent	Block3	congruent/STIM_000.jpg
2843.528	0.92	correct	congruent	Block3	congruent/STIM_000.jpg
2848.157	0.62	correct	congruent	Block3	congruent/STIM_000.jpg
2851.762	0.581	correct	congruent	Block3	congruent/STIM_000.jpg
2855.039	0.538	correct	congruent	Block3	congruent/STIM_001.jpg
2859.432	0.57	correct	congruent	Block3	congruent/STIM_001.jpg
2862.052	0.644	correct	congruent	Block3	congruent/STIM_001.jpg
2864.941	0.742	correct	congruent	Block3	congruent/STIM_001.jpg
2868.09	0.552	correct	congruent	Block3	congruent/STIM_001.jpg
2871.971	0.91	correct	congruent	Block3	congruent/STIM_002.jpg
2875.97	0.772	correct	congruent	Block3	congruent/STIM_002.jpg
2879.486	0.553	correct	congruent	Block3	congruent/STIM_002.jpg
2882.956	0.747	correct	congruent	Block3	congruent/STIM_002.jpg
2885.833	0.493	correct	congruent	Block3	congruent/STIM_002.jpg
2888.956	0.72	correct	congruent	Block3	congruent/STIM_003.jpg
2892.696	0.975	correct	congruent	Block3	congruent/STIM_003.jpg
2897.198	0.814	correct	congruent	Block3	congruent/STIM_003.jpg
2901.6	0.754	correct	congruent	Block3	congruent/STIM_003.jpg
2904.503	0.583	incorrect	congruent	Block3	congruent/STIM_003.jpg
2908.699	0.715	correct	congruent	Block3	congruent/STIM_004.jpg
2912.462	0.663	correct	congruent	Block3	congruent/STIM_004.jpg
2915.136	0.863	correct	congruent	Block3	congruent/STIM_004.jpg
2917.973	0.622	correct	congruent	Block3	congruent/STIM_004.jpg
2921.789	0.676	correct	congruent	Block3	congruent/STIM_004.jpg
2926.256	0.804	correct	congruent	Block3	congruent/STIM_005.jpg
2929.99	0.809	correct	congruent	Block3	congruent/STIM_005.jpg
2933.578	0.487	correct	congruent	Block3	congruent/STIM_005.jpg
2936.61	0.804	correct	congruent	Block3	congruent/STIM_005.jpg
2941.191	0.509	correct	congruent	Block3	congruent/STIM_005.jpg
2944.385	0.764	correct	congruent	Block3	congruent/STIM_006.jpg
2947.406	0.634	correct	congruent	Block3	congruent/STIM_006.jpg
2950.048	0.572	correct	congruent	Block3	congruent/STIM_006.jpg
2954.147	0.718	correct	congruent	Block3	congruent/STIM_006.jpg
2957.785	0.788	correct	congruent	Block3	congruent/STIM_006.jpg
2961.049	0.557	correct	congruent	Block3	congruent/STIM_007.jpg
2964.069	0.927	correct	congruent	Block3	congruent/STIM_007.jpg
2967.795	0.85	correct	congruent	Block3	congruent/STIM_007.jpg
2972.66	0.747	correct	congruent	Block3	congruent/STIM_007.jpg
2976.63	0.643	correct	congruent	Block3	congruent/STIM_007.jpg
2980.739	0.823	correct	congruent	Block3	congruent/STIM_008.jpg
2984.009	0.505	correct	congruent	Block3	congruent/STIM_008.jpg
2987.67	0.855	correct	congruent	Block3	congruent/STIM_008.jpg
2991.113	0.704	correct	congruent	Block3	congruent/STIM_008.jpg
2994.517	0.913	correct	congruent	Block3	congruent/STIM_008.jpg
2998.246	0.728	correct	congruent	Block3	congruent/STIM_009.jpg
3002.429	0.798	correct	congruent	Block3	congruent/STIM_009.jpg
3006.958	0.854	correct	congruent	Block3	congruent/STIM_009.jpg
3010.508	0.488	correct	congruent	Block3	congruent/STIM_009.jpg
3013.771	0.773	incorrect	congruent	Block3	congruent/STIM_009.jpg
3018.478	0.858	correct	congruent	Block3	congruent/STIM_010.jpg
3023.228	0.736	correct	congruent	Block3	congruent/STIM_010.jpg
3027.34	0.645	incorrect	congruent	Block3	congruent/STIM_010.jpg
3030.27	0.814	correct	congruent	Block3	congruent/STIM_010.jpg
3033.536	0.708	correct	congruent	Block3	congruent/STIM_010.jpg
3037.392	0.568	correct	congruent	Block3	congruent/STIM_011.jpg
3040.214	0.6	correct	congruent	Block3	congruent/STIM_011.jpg
3043.709	0.789	correct	congruent	Block3	congruent/STIM_011.jpg
3047.172	0.478	correct	congruent	Block3	congruent/STIM_011.jpg
3051.065	0.818	incorrect	congruent	Block3	congruent/STIM_011.jpg
3055.344	0.812	correct	congruent	Block3	congruent/STIM_012.jpg
3059.695	0.581	correct	congruent	Block3	congruent/STIM_012.jpg
3064.11	0.812	correct	congruent	Block3	congruent/STIM_012.jpg
3068.368	0.571	correct	congruent	Block3	congruent/STIM_012.jpg
3072.747	0.973	correct	congruent	Block3	congruent/STIM_012.jpg
3075.796	0.727	correct	congruent	Block3	congruent/STIM_013.jpg
3078.943	0.587	correct	congruent	Block3	congruent/STIM_013.jpg
3083.151	0.8	correct	congruent	Block3	congruent/STIM_013.jpg
3087.03	0.902	correct	congruent	Block3	congruent/STIM_013.jpg
3090.549	0.762	correct	congruent	Block3	congruent/STIM_013.jpg
3093.625	0.768	correct	congruent	Block3	congruent/STIM_014.jpg
3097.182	0.798	correct	congruent	Block3	congruent/STIM_014.jpg
3100.671	0.911	correct	congruent	Block3	congruent/STIM_014.jpg
3104.316	0.758	correct	congruent	Block3	congruent/STIM_014.jpg
3108.984	0.748	correct	congruent	Block3	congruent/STIM_014.jpg
3112.654	0.606	correct	congruent	Block3	congruent/STIM_015.jpg
3115.812	0.738	correct	congruent	Block3	congruent/STIM_015.jpg
3119.288	0.766	correct	congruent	Block3	congruent/STIM_015.jpg
3123.583	0.658	incorrect	congruent	Block3	congruent/STIM_015.jpg
3126.757	0.8	correct	congruent	Block3	congruent/STIM_015.jpg
3129.565	0.973	correct	congruent	Block3	congruent/STIM_016.jpg
3132.656	0.851	correct	congruent	Block3	congruent/STIM_016.jpg
3136.271	0.562	correct	congruent	Block3	congruent/STIM_016.jpg
3139.014	0.585	incorrect	congruent	Block3	congruent/STIM_016.jpg
3142.717	0.874	correct	congruent	Block3	congruent/STIM_016.jpg
3147.49	0.608	correct	congruent	Block3	congruent/STIM_017.jpg
3150.654	0.863	correct	congruent	Block3	congruent/STIM_017.jpg
3154.396	0.627	incorrect	congruent	Block3	congruent/STIM_017.jpg
3158.432	0.628	correct	congruent	Block3	congruent/STIM_017.jpg
3161.801	0.592	incorrect	congruent	Block3	congruent/STIM_017.jpg
3166.291	0.946	correct	congruent	Block3	congruent/STIM_018.jpg
3170.628	0.888	correct	congruent	Block3	congruent/STIM_018.jpg
3173.574	0.764	correct	congruent	Block3	congruent/STIM_018.jpg
3176.499	0.736	correct	congruent	Block3	congruent/STIM_018.jpg
3180.988	0.547	correct	congruent	Block3	congruent/STIM_018.jpg
3184.715	0.603	correct	congruent	Block3	congruent/STIM_019.jpg
3187.547	0.715	correct	congruent	Block3	congruent/STIM_019.jpg
3190.627	0.771	correct	congruent	Block3	congruent/STIM_019.jpg
3193.434	0.83	correct	congruent	Block3	congruent/STIM_019.jpg
3197.918	0.829	correct	congruent	Block3	congruent/STIM_019.jpg
3201.821	0.731	correct	congruent	Block3	congruent/STIM_020.jpg
3205.441	0.707	correct	congruent	Block3	congruent/STIM_020.jpg
3208.991	0.653	correct	congruent	Block3	congruent/STIM_020.jpg
3213.062	0.595	correct	congruent	Block3	congruent/STIM_020.jpg
3216.123	0.596	correct	congruent	Block3	congruent/STIM_020.jpg
3218.87	0.896	correct	congruent	Block3	congruent/STIM_021.jpg
3221.732	0.865	correct	congruent	Block3	congruent/STIM_021.jpg
3226.311	0.729	correct	congruent	Block3	congruent/STIM_021.jpg
3229.051	0.593	correct	congruent	Block3	congruent/STIM_021.jpg
3232.613	0.829	correct	congruent	Block3	congruent/STIM_021.jpg
3235.862	0.639	correct	congruent	Block3	congruent/STIM_022.jpg
3238.745	0.874	correct	congruent	Block3	congruent/STIM_022.jpg
3243.481	0.661	correct	congruent	Block3	congruent/STIM_022.jpg
3247.792	0.905	correct	congruent	Block3	congruent/STIM_022.jpg
3251.256	0.641	correct	congruent	Block3	congruent/STIM_022.jpg
3255.099	0.517	incorrect	congruent	Block3	congruent/STIM_023.jpg
3258.237	0.596	correct	congruent	Block3	congruent/STIM_023.jpg
3261.92	0.54	correct	congruent	Block3	congruent/STIM_023.jpg
3264.684	0.803	correct	congruent	Block3	congruent/STIM_023.jpg
3268.676	0.628	correct	congruent	Block3	congruent/STIM_023.jpg
3272.221	0.753	correct	congruent	Block3	congruent/STIM_024.jpg
3276.372	0.648	correct	congruent	Block3	congruent/STIM_024.jpg
3279.124	0.802	correct	congruent	Block3	congruent/STIM_024.jpg
3283.605	0.657	correct	congruent	Block3	congruent/STIM_024.jpg
3287.404	0.873	correct	congruent	Block3	congruent/STIM_024.jpg
3292.255	0.812	correct	congruent	Block3	congruent/STIM_025.jpg
3296.748	0.722	correct	congruent	Block3	congruent/STIM_025.jpg
3300.305	0.636	correct	congruent	Block3	congruent/STIM_025.jpg
3303.783	0.769	correct	congruent	Block3	congruent/STIM_025.jpg
3308.322	0.935	correct	congruent	Block3	congruent/STIM_025.jpg
3311.23	0.581	correct	congruent	Block3	congruent/STIM_026.jpg
3315.359	0.741	correct	congruent	Block3	congruent/STIM_026.jpg
3318.544	0.758	correct	congruent	Block3	congruent/STIM_026.jpg
3322.736	0.516	correct	congruent	Block3	congruent/STIM_026.jpg
3325.659	0.481	correct	congruent	Block3	congruent/STIM_026.jpg
3329.403	0.816	correct	congruent	Block3	congruent/STIM_027.jpg
3333.13	0.676	correct	congruent	Block3	congruent/STIM_027.jpg
3336.013	0.637	correct	congruent	Block3	congruent/STIM_027.jpg
3339.373	0.807	correct	congruent	Block3	congruent/STIM_027.jpg
3342.167	0.963	correct	congruent	Block3	congruent/STIM_027.jpg
3345.765	0.956	correct	congruent	Block3	congruent/STIM_028.jpg
3349.323	0.792	correct	congruent	Block3	congruent/STIM_028.jpg
3352.44	1.003	correct	congruent	Block3	congruent/STIM_028.jpg
3356.615	0.683	correct	congruent	Block3	congruent/STIM_028.jpg
3360.687	0.843	correct	congruent	Block3	congruent/STIM_028.jpg
3365.347	0.414	correct	congruent	Block3	congruent/STIM_029.jpg
3368.567	0.905	correct	congruent	Block3	congruent/STIM_029.jpg
3373.449	0.78	correct	congruent	Block3	congruent/STIM_029.jpg
3378.214	0.562	correct	congruent	Block3	congruent/STIM_029.jpg
3380.802	0.518	correct	congruent	Block3	congruent/STIM_029.jpg
