onset	duration	accuracy_binary	trial_type	learning_stage	stimulus
0.0	3.01	1	regulate	Run1	regulate/STIM_000.jpg
5.298	1.954	1	regulate	Run1	regulate/STIM_000.jpg
9.606	1.534	1	regulate	Run1	regulate/STIM_000.jpg
13.678	2.387	0	regulate	Run1	regulate/STIM_000.jpg
18.545	2.333	1	regulate	Run1	regulate/STIM_001.jpg
23.66	2.886	1	regulate	Run1	regulate/STIM_001.jpg
29.837	1.628	0	regulate	Run1	regulate/STIM_001.jpg
35.315	1.164	1	regulate	Run1	regulate/STIM_001.jpg
40.381	1.822	0	regulate	Run1	regulate/STIM_002.jpg
44.77	2.111	1	regulate	Run1	regulate/STIM_002.jpg
50.523	2.449	1	regulate	Run1	regulate/STIM_002.jpg
57.018	2.58	1	regulate	Run1	regulate/STIM_002.jpg
62.78	1.485	1	regulate	Run1	regulate/STIM_003.jpg
67.939	2.02	1	regulate	Run1	regulate/STIM_003.jpg
72.765	1.38	1	regulate	Run1	regulate/STIM_003.jpg
77.797	2.128	1	regulate	Run1	regulate/STIM_003.jpg
84.083	1.822	1	regulate	Run1	regulate/STIM_004.jpg
88.758	2.828	1	regulate	Run1	regulate/STIM_004.jpg
94.715	2.366	1	regulate	Run1	regulate/STIM_004.jpg
101.028	2.477	1	regulate	Run1	regulate/STIM_004.jpg
107.179	1.788	0	regulate	Run1	regulate/STIM_005.jpg
112.63	1.77	1	regulate	Run1	regulate/STIM_005.jpg
117.352	1.347	0	regulate	Run1	regulate/STIM_005.jpg
122.169	2.22	1	regulate	Run1	regulate/STIM_005.jpg
127.479	1.667	1	regulate	Run1	regulate/STIM_006.jpg
131.858	2.089	1	regulate	Run1	regulate/STIM_006.jpg
136.337	1.295	1	regulate	Run1	regulate/STIM_006.jpg
141.558	1.266	1	regulate	Run1	regulate/STIM_006.jpg
146.946	1.676	1	regulate	Run1	regulate/STIM_007.jpg
151.898	2.564	1	regulate	Run1	regulate/STIM_007.jpg
158.337	2.086	0	regulate	Run1	regulate/STIM_007.jpg
164.433	1.926	0	regulate	Run1	regulate/STIM_007.jpg
169.339	2.772	1	regulate	Run1	regulate/STIM_008.jpg
174.405	3.038	1	regulate	Run1	regulate/STIM_008.jpg
180.02	1.903	1	regulate	Run1	regulate/STIM_008.jpg
185.441	1.379	1	regulate	Run1	regulate/STIM_008.jpg
189.824	3.0	0	regulate	Run1	regulate/STIM_009.jpg
195.492	2.55	0	regulate	Run1	regulate/STIM_009.jpg
200.5	2.346	1	regulate	Run1	regulate/STIM_009.jpg
205.867	2.616	0	regulate	Run1	regulate/STIM_009.jpg
210.897	2.748	1	regulate	Run1	regulate/STIM_010.jpg
217.755	2.236	1	regulate	Run1	regulate/STIM_010.jpg
224.071	1.919	1	regulate	Run1	regulate/STIM_010.jpg
230.003	1.166	1	regulate	Run1	regulate/STIM_010.jpg
233.971	1.882	0	regulate	Run1	regulate/STIM_011.jpg
239.068	3.018	0	regulate	Run1	regulate/STIM_011.jpg
245.412	1.813	1	regulate	Run1	regulate/STIM_011.jpg
251.016	2.455	1	regulate	Run1	regulate/STIM_011.jpg
256.662	2.511	1	regulate	Run1	regulate/STIM_012.jpg
262.212	2.21	1	regulate	Run1	regulate/STIM_012.jpg
267.686	1.564	1	regulate	Run1	regulate/STIM_012.jpg
273.232	1.846	1	regulate	Run1	regulate/STIM_012.jpg
279.16	1.6	1	regulate	Run1	regulate/STIM_013.jpg
284.572	2.057	1	regulate	Run1	regulate/STIM_013.jpg
290.444	1.475	1	regulate	Run1	regulate/STIM_013.jpg
294.398	1.375	1	regulate	Run1	regulate/STIM_013.jpg
298.645	1.513	1	regulate	Run1	regulate/STIM_014.jpg
304.257	1.362	1	regulate	Run1	regulate/STIM_014.jpg
307.802	2.07	0	regulate	Run1	regulate/STIM_014.jpg
312.419	1.123	1	regulate	Run1	regulate/STIM_014.jpg
316.721	1.784	0	regulate	Run1	regulate/STIM_015.jpg
322.564	1.435	1	regulate	Run1	regulate/STIM_015.jpg
326.188	2.78	0	regulate	Run1	regulate/STIM_015.jpg
332.611	2.332	1	regulate	Run1	regulate/STIM_015.jpg
337.463	2.559	1	regulate	Run1	regulate/STIM_016.jpg
343.193	2.636	1	regulate	Run1	regulate/STIM_016.jpg
350.078	1.892	1	regulate	Run1	regulate/STIM_016.jpg
355.033	1.75	1	regulate	Run1	regulate/STIM_016.jpg
360.436	2.88	1	regulate	Run1	regulate/STIM_017.jpg
366.203	2.87	1	regulate	Run1	regulate/STIM_017.jpg
372.977	1.409	0	regulate	Run1	regulate/STIM_017.jpg
377.94	1.591	1	regulate	Run1	regulate/STIM_017.jpg
383.299	3.011	0	regulate	Run1	regulate/STIM_018.jpg
389.439	2.854	1	regulate	Run1	regulate/STIM_018.jpg
395.685	2.258	1	regulate	Run1	regulate/STIM_018.jpg
401.64	1.391	1	regulate	Run1	regulate/STIM_018.jpg
405.893	1.742	1	regulate	Run1	regulate/STIM_019.jpg
409.944	2.208	0	regulate	Run1	regulate/STIM_019.jpg
415.853	1.14	1	regulate	Run1	regulate/STIM_019.jpg
420.762	1.719	1	regulate	Run1	regulate/STIM_019.jpg
426.57	1.84	1	regulate	Run1	regulate/STIM_020.jpg
432.175	2.42	1	regulate	Run1	regulate/STIM_020.jpg
437.844	2.034	0	regulate	Run1	regulate/STIM_020.jpg
443.781	1.522	1	regulate	Run1	regulate/STIM_020.jpg
447.84	1.324	1	regulate	Run1	regulate/STIM_021.jpg
452.87	2.33	1	regulate	Run1	regulate/STIM_021.jpg
459.023	2.572	1	regulate	Run1	regulate/STIM_021.jpg
464.965	2.125	1	regulate	Run1	regulate/STIM_021.jpg
470.456	2.693	1	regulate	Run1	regulate/STIM_022.jpg
475.641	1.777	1	regulate	Run1	regulate/STIM_022.jpg
479.599	1.709	1	regulate	Run1	regulate/STIM_022.jpg
485.202	1.344	1	regulate	Run1	regulate/STIM_022.jpg
489.584	3.216	1	regulate	Run1	regulate/STIM_023.jpg
496.243	2.401	0	regulate	Run1	regulate/STIM_023.jpg
501.059	1.466	1	regulate	Run1	regulate/STIM_023.jpg
504.689	1.406	1	regulate	Run1	regulate/STIM_023.jpg
509.856	1.649	1	regulate	Run1	regulate/STIM_024.jpg
514.861	2.85	1	regulate	Run1	regulate/STIM_024.jpg
520.892	2.257	1	regulate	Run1	regulate/STIM_024.jpg
526.959	1.981	1	regulate	Run1	regulate/STIM_024.jpg
532.353	1.466	1	regulate	Run1	regulate/STIM_025.jpg
537.968	2.506	1	regulate	Run1	regulate/STIM_025.jpg
542.887	2.576	1	regulate	Run1	regulate/STIM_025.jpg
549.327	1.914	1	regulate	Run1	regulate/STIM_025.jpg
553.512	2.669	0	regulate	Run1	regulate/STIM_026.jpg
559.829	1.785	1	regulate	Run1	regulate/STIM_026.jpg
565.486	2.519	1	regulate	Run1	regulate/STIM_026.jpg
571.83	2.266	1	regulate	Run1	regulate/STIM_026.jpg
576.607	1.49	0	regulate	Run1	regulate/STIM_027.jpg
581.037	1.999	0	regulate	Run1	regulate/STIM_027.jpg
585.911	2.496	1	regulate	Run1	regulate/STIM_027.jpg
591.993	2.642	1	regulate	Run1	regulate/STIM_027.jpg
598.542	2.216	1	regulate	Run1	regulate/STIM_028.jpg
604.786	1.956	1	regulate	Run1	regulate/STIM_028.jpg
609.867	2.314	0	regulate	Run1	regulate/STIM_028.jpg
615.832	1.911	1	regulate	Run1	regulate/STIM_028.jpg
620.883	2.478	1	regulate	Run1	regulate/STIM_029.jpg
626.743	2.765	0	regulate	Run1	regulate/STIM_029.jpg
633.243	1.982	1	regulate	Run1	regulate/STIM_029.jpg
638.516	1.91	1	regulate	Run1	regulate/STIM_029.jpg
644.321	0.832	0	observe	Run1	observe/STIM_000.jpg
647.949	1.361	1	observe	Run1	observe/STIM_000.jpg
652.589	1.176	1	observe	Run1	observe/STIM_000.jpg
656.927	1.316	1	observe	Run1	observe/STIM_000.jpg
662.174	1.059	1	observe	Run1	observe/STIM_001.jpg
666.53	1.233	1	observe	Run1	observe/STIM_001.jpg
670.842	1.417	1	observe	Run1	observe/STIM_001.jpg
674.926	0.8	1	observe	Run1	observe/STIM_001.jpg
677.91	0.997	1	observe	Run1	observe/STIM_002.jpg
682.838	1.045	1	observe	Run1	observe/STIM_002.jpg
686.216	0.819	1	observe	Run1	observe/STIM_002.jpg
689.54	1.495	1	observe	Run1	observe/STIM_002.jpg
693.594	0.96	1	observe	Run1	observe/STIM_003.jpg
696.788	1.49	1	observe	Run1	observe/STIM_003.jpg
701.976	0.956	1	observe	Run1	observe/STIM_003.jpg
705.55	0.834	1	observe	Run1	observe/STIM_003.jpg
709.751	1.475	1	observe	Run1	observe/STIM_004.jpg
713.454	1.374	1	observe	Run1	observe/STIM_004.jpg
718.745	0.757	1	observe	Run1	observe/STIM_004.jpg
722.363	0.886	1	observe	Run1	observe/STIM_004.jpg
725.886	1.024	0	observe	Run1	observe/STIM_005.jpg
730.687	0.826	1	observe	Run1	observe/STIM_005.jpg
735.039	0.929	1	observe	Run1	observe/STIM_005.jpg
738.489	0.937	1	observe	Run1	observe/STIM_005.jpg
741.971	1.275	1	observe	Run1	observe/STIM_006.jpg
746.493	1.304	0	observe	Run1	observe/STIM_006.jpg
750.861	1.07	1	observe	Run1	observe/STIM_006.jpg
755.878	0.771	1	observe	Run1	observe/STIM_006.jpg
760.148	1.38	1	observe	Run1	observe/STIM_007.jpg
764.874	1.132	1	observe	Run1	observe/STIM_007.jpg
769.966	0.96	1	observe	Run1	observe/STIM_007.jpg
774.476	0.815	1	observe	Run1	observe/STIM_007.jpg
779.129	0.77	1	observe	Run1	observe/STIM_008.jpg
783.224	0.718	0	observe	Run1	observe/STIM_008.jpg
787.148	0.888	1	observe	Run1	observe/STIM_008.jpg
790.66	1.435	1	observe	Run1	observe/STIM_008.jpg
796.0	1.353	1	observe	Run1	observe/STIM_009.jpg
800.746	1.198	1	observe	Run1	observe/STIM_009.jpg
805.941	1.161	1	observe	Run1	observe/STIM_009.jpg
809.627	0.996	1	observe	Run1	observe/STIM_009.jpg
814.069	1.182	1	observe	Run1	observe/STIM_010.jpg
819.1	1.01	0	observe	Run1	observe/STIM_010.jpg
822.588	1.16	1	observe	Run1	observe/STIM_010.jpg
826.946	1.429	1	observe	Run1	observe/STIM_010.jpg
831.414	1.428	1	observe	Run1	observe/STIM_011.jpg
835.903	0.976	0	observe	Run1	observe/STIM_011.jpg
839.124	0.761	1	observe	Run1	observe/STIM_011.jpg
842.38	1.168	1	observe	Run1	observe/STIM_011.jpg
847.129	1.473	1	observe	Run1	observe/STIM_012.jpg
851.096	1.285	1	observe	Run1	observe/STIM_012.jpg
855.55	1.027	1	observe	Run1	observe/STIM_012.jpg
858.709	1.065	1	observe	Run1	observe/STIM_012.jpg
863.213	1.067	1	observe	Run1	observe/STIM_013.jpg
867.996	1.326	1	observe	Run1	observe/STIM_013.jpg
873.058	1.397	1	observe	Run1	observe/STIM_013.jpg
876.573	1.371	1	observe	Run1	observe/STIM_013.jpg
881.981	0.8	1	observe	Run1	observe/STIM_014.jpg
886.432	1.09	1	observe	Run1	observe/STIM_014.jpg
891.395	1.246	1	observe	Run1	observe/STIM_014.jpg
894.706	1.297	1	observe	Run1	observe/STIM_014.jpg
898.458	1.169	1	observe	Run1	observe/STIM_015.jpg
903.521	0.934	0	observe	Run1	observe/STIM_015.jpg
907.247	1.004	1	observe	Run1	observe/STIM_015.jpg
910.695	1.074	1	observe	Run1	observe/STIM_015.jpg
915.438	1.317	1	observe	Run1	observe/STIM_016.jpg
920.74	1.209	1	observe	Run1	observe/STIM_016.jpg
924.18	1.342	1	observe	Run1	observe/STIM_016.jpg
929.384	1.303	1	observe	Run1	observe/STIM_016.jpg
934.225	1.442	1	observe	Run1	observe/STIM_017.jpg
938.944	0.862	0	observe	Run1	observe/STIM_017.jpg
942.254	0.961	1	observe	Run1	observe/STIM_017.jpg
945.324	1.161	1	observe	Run1	observe/STIM_017.jpg
950.016	1.016	1	observe	Run1	observe/STIM_018.jpg
953.347	1.114	1	observe	Run1	observe/STIM_018.jpg
957.774	1.249	0	observe	Run1	observe/STIM_018.jpg
962.973	0.87	1	observe	Run1	observe/STIM_018.jpg
966.163	1.032	1	observe	Run1	observe/STIM_019.jpg
969.56	1.387	1	observe	Run1	observe/STIM_019.jpg
974.005	0.961	1	observe	Run1	observe/STIM_019.jpg
978.068	1.067	0	observe	Run1	observe/STIM_019.jpg
982.537	2.509	0	regulate	Run2	regulate/STIM_000.jpg
987.277	1.496	1	regulate	Run2	regulate/STIM_000.jpg
992.765	1.506	1	regulate	Run2	regulate/STIM_000.jpg
998.076	1.373	1	regulate	Run2	regulate/STIM_000.jpg
1002.412	2.329	1	regulate	Run2	regulate/STIM_001.jpg
1007.677	2.137	0	regulate	Run2	regulate/STIM_001.jpg
1012.815	1.498	0	regulate	Run2	regulate/STIM_001.jpg
1017.14	1.78	1	regulate	Run2	regulate/STIM_001.jpg
1021.663	1.853	1	regulate	Run2	regulate/STIM_002.jpg
1025.879	2.22	1	regulate	Run2	regulate/STIM_002.jpg
1031.22	2.002	1	regulate	Run2	regulate/STIM_002.jpg
1037.396	1.497	1	regulate	Run2	regulate/STIM_002.jpg
1042.939	1.507	0	regulate	Run2	regulate/STIM_003.jpg
1047.607	1.624	1	regulate	Run2	regulate/STIM_003.jpg
1052.991	1.474	1	regulate	Run2	regulate/STIM_003.jpg
1057.43	1.054	1	regulate	Run2	regulate/STIM_003.jpg
1061.378	1.697	1	regulate	Run2	regulate/STIM_004.jpg
1065.283	1.641	0	regulate	Run2	regulate/STIM_004.jpg
1069.649	1.356	1	regulate	Run2	regulate/STIM_004.jpg
1073.403	1.046	1	regulate	Run2	regulate/STIM_004.jpg
1077.897	2.184	0	regulate	Run2	regulate/STIM_005.jpg
1084.305	2.299	1	regulate	Run2	regulate/STIM_005.jpg
1089.036	2.379	1	regulate	Run2	regulate/STIM_005.jpg
1094.852	1.144	1	regulate	Run2	regulate/STIM_005.jpg
1098.541	2.052	1	regulate	Run2	regulate/STIM_006.jpg
1103.251	2.673	1	regulate	Run2	regulate/STIM_006.jpg
1109.978	1.537	1	regulate	Run2	regulate/STIM_006.jpg
1114.599	1.818	1	regulate	Run2	regulate/STIM_006.jpg
1118.606	2.05	1	regulate	Run2	regulate/STIM_007.jpg
1123.076	1.723	0	regulate	Run2	regulate/STIM_007.jpg
1127.073	1.653	0	regulate	Run2	regulate/STIM_007.jpg
1132.497	1.159	1	regulate	Run2	regulate/STIM_007.jpg
1137.361	2.615	1	regulate	Run2	regulate/STIM_008.jpg
1143.773	1.966	1	regulate	Run2	regulate/STIM_008.jpg
1148.726	1.19	1	regulate	Run2	regulate/STIM_008.jpg
1153.805	1.844	1	regulate	Run2	regulate/STIM_008.jpg
1157.915	2.346	1	regulate	Run2	regulate/STIM_009.jpg
1163.288	1.274	0	regulate	Run2	regulate/STIM_009.jpg
1166.911	1.274	1	regulate	Run2	regulate/STIM_009.jpg
1172.317	1.73	1	regulate	Run2	regulate/STIM_009.jpg
1176.64	1.203	1	regulate	Run2	regulate/STIM_010.jpg
1181.326	1.17	0	regulate	Run2	regulate/STIM_010.jpg
1185.427	1.576	1	regulate	Run2	regulate/STIM_010.jpg
1190.855	1.481	1	regulate	Run2	regulate/STIM_010.jpg
1195.205	1.247	1	regulate	Run2	regulate/STIM_011.jpg
1199.834	1.811	1	regulate	Run2	regulate/STIM_011.jpg
1203.869	1.31	1	regulate	Run2	regulate/STIM_011.jpg
1208.164	1.309	1	regulate	Run2	regulate/STIM_011.jpg
1213.025	2.647	1	regulate	Run2	regulate/STIM_012.jpg
1219.688	2.027	0	regulate	Run2	regulate/STIM_012.jpg
1224.536	1.515	1	regulate	Run2	regulate/STIM_012.jpg
1228.649	1.78	1	regulate	Run2	regulate/STIM_012.jpg
1232.97	1.695	1	regulate	Run2	regulate/STIM_013.jpg
1237.537	1.479	1	regulate	Run2	regulate/STIM_013.jpg
1241.741	1.494	0	regulate	Run2	regulate/STIM_013.jpg
1246.496	1.108	1	regulate	Run2	regulate/STIM_013.jpg
1250.791	1.338	1	regulate	Run2	regulate/STIM_014.jpg
1254.683	1.698	1	regulate	Run2	regulate/STIM_014.jpg
1260.451	1.911	1	regulate	Run2	regulate/STIM_014.jpg
1266.37	1.734	1	regulate	Run2	regulate/STIM_014.jpg
1270.454	2.482	1	regulate	Run2	regulate/STIM_015.jpg
1276.055	2.248	1	regulate	Run2	regulate/STIM_015.jpg
1281.087	1.431	1	regulate	Run2	regulate/STIM_015.jpg
1284.649	1.959	1	regulate	Run2	regulate/STIM_015.jpg
1288.97	1.989	1	regulate	Run2	regulate/STIM_016.jpg
1295.045	1.212	1	regulate	Run2	regulate/STIM_016.jpg
1299.59	2.066	1	regulate	Run2	regulate/STIM_016.jpg
1304.06	1.144	1	regulate	Run2	regulate/STIM_016.jpg
1309.01	1.592	1	regulate	Run2	regulate/STIM_017.jpg
1314.314	2.013	0	regulate	Run2	regulate/STIM_017.jpg
1320.014	1.911	1	regulate	Run2	regulate/STIM_017.jpg
1325.408	1.692	1	regulate	Run2	regulate/STIM_017.jpg
1330.08	2.585	1	regulate	Run2	regulate/STIM_018.jpg
1335.206	1.932	1	regulate	Run2	regulate/STIM_018.jpg
1340.449	1.229	0	regulate	Run2	regulate/STIM_018.jpg
1344.381	1.882	1	regulate	Run2	regulate/STIM_018.jpg
1350.412	2.253	1	regulate	Run2	regulate/STIM_019.jpg
1356.151	1.636	1	regulate	Run2	regulate/STIM_019.jpg
1360.69	1.862	1	regulate	Run2	regulate/STIM_019.jpg
1366.403	1.203	1	regulate	Run2	regulate/STIM_019.jpg
1370.038	1.975	1	regulate	Run2	regulate/STIM_020.jpg
1375.032	0.988	1	regulate	Run2	regulate/STIM_020.jpg
1379.695	2.34	1	regulate	Run2	regulate/STIM_020.jpg
1384.499	1.879	1	regulate	Run2	regulate/STIM_020.jpg
1389.878	1.529	1	regulate	Run2	regulate/STIM_021.jpg
1394.683	2.306	1	regulate	Run2	regulate/STIM_021.jpg
1401.175	1.401	1	regulate	Run2	regulate/STIM_021.jpg
1405.65	1.426	1	regulate	Run2	regulate/STIM_021.jpg
1409.519	2.497	1	regulate	Run2	regulate/STIM_022.jpg
1415.597	1.399	1	regulate	Run2	regulate/STIM_022.jpg
1420.767	1.815	1	regulate	Run2	regulate/STIM_022.jpg
1424.821	1.566	1	regulate	Run2	regulate/STIM_022.jpg
1428.539	1.806	1	regulate	Run2	regulate/STIM_023.jpg
1434.366	2.22	1	regulate	Run2	regulate/STIM_023.jpg
1439.302	1.449	1	regulate	Run2	regulate/STIM_023.jpg
1443.837	1.297	1	regulate	Run2	regulate/STIM_023.jpg
1448.993	2.021	0	regulate	Run2	regulate/STIM_024.jpg
1454.566	2.185	0	regulate	Run2	regulate/STIM_024.jpg
1460.2	1.989	1	regulate	Run2	regulate/STIM_024.jpg
1465.369	1.384	1	regulate	Run2	regulate/STIM_024.jpg
1469.019	1.709	1	regulate	Run2	regulate/STIM_025.jpg
1474.173	1.655	1	regulate	Run2	regulate/STIM_025.jpg
1479.649	1.209	1	regulate	Run2	regulate/STIM_025.jpg
1484.087	1.855	1	regulate	Run2	regulate/STIM_025.jpg
1489.591	2.788	1	regulate	Run2	regulate/STIM_026.jpg
1496.001	2.42	1	regulate	Run2	regulate/STIM_026.jpg
1501.576	1.163	1	regulate	Run2	regulate/STIM_026.jpg
1505.816	1.55	1	regulate	Run2	regulate/STIM_026.jpg
1511.412	1.504	1	regulate	Run2	regulate/STIM_027.jpg
1515.71	2.434	1	regulate	Run2	regulate/STIM_027.jpg
1522.191	2.252	1	regulate	Run2	regulate/STIM_027.jpg
1527.12	1.909	1	regulate	Run2	regulate/STIM_027.jpg
1531.771	1.986	1	regulate	Run2	regulate/STIM_028.jpg
1536.935	1.104	0	regulate	Run2	regulate/STIM_028.jpg
1541.065	2.314	1	regulate	Run2	regulate/STIM_028.jpg
1545.723	1.656	1	regulate	Run2	regulate/STIM_028.jpg
1549.972	2.044	1	regulate	Run2	regulate/STIM_029.jpg
1554.195	1.757	1	regulate	Run2	regulate/STIM_029.jpg
1559.031	1.045	0	regulate	Run2	regulate/STIM_029.jpg
1562.345	1.528	1	regulate	Run2	regulate/STIM_029.jpg
1566.303	1.2	1	observe	Run2	observe/STIM_000.jpg
1571.674	1.003	1	observe	Run2	observe/STIM_000.jpg
1576.466	0.716	1	observe	Run2	observe/STIM_000.jpg
1580.957	0.921	1	observe	Run2	observe/STIM_000.jpg
1585.47	0.995	1	observe	Run2	observe/STIM_001.jpg
1590.486	0.745	1	observe	Run2	observe/STIM_001.jpg
1594.787	0.77	1	observe	Run2	observe/STIM_001.jpg
1597.916	1.387	1	observe	Run2	observe/STIM_001.jpg
1602.109	0.794	1	observe	Run2	observe/STIM_002.jpg
1606.041	0.741	1	observe	Run2	observe/STIM_002.jpg
1610.794	0.936	1	observe	Run2	observe/STIM_002.jpg
1614.018	1.277	1	observe	Run2	observe/STIM_002.jpg
1619.304	1.083	1	observe	Run2	observe/STIM_003.jpg
1624.469	1.184	0	observe	Run2	observe/STIM_003.jpg
1628.394	1.451	1	observe	Run2	observe/STIM_003.jpg
1633.264	1.103	1	observe	Run2	observe/STIM_003.jpg
1637.749	1.48	0	observe	Run2	observe/STIM_004.jpg
1643.065	0.708	1	observe	Run2	observe/STIM_004.jpg
1646.844	1.083	1	observe	Run2	observe/STIM_004.jpg
1651.823	1.259	1	observe	Run2	observe/STIM_004.jpg
1657.139	1.385	1	observe	Run2	observe/STIM_005.jpg
1662.093	1.348	0	observe	Run2	observe/STIM_005.jpg
1665.674	0.939	1	observe	Run2	observe/STIM_005.jpg
1670.633	1.287	0	observe	Run2	observe/STIM_005.jpg
1676.051	0.994	1	observe	Run2	observe/STIM_006.jpg
1679.4	1.438	1	observe	Run2	observe/STIM_006.jpg
1683.505	1.028	1	observe	Run2	observe/STIM_006.jpg
1686.681	1.101	1	observe	Run2	observe/STIM_006.jpg
1691.896	1.174	1	observe	Run2	observe/STIM_007.jpg
1696.432	1.01	1	observe	Run2	observe/STIM_007.jpg
1700.363	0.879	1	observe	Run2	observe/STIM_007.jpg
1704.098	0.668	1	observe	Run2	observe/STIM_007.jpg
1707.818	1.504	1	observe	Run2	observe/STIM_008.jpg
1712.732	1.189	1	observe	Run2	observe/STIM_008.jpg
1717.562	0.806	1	observe	Run2	observe/STIM_008.jpg
1722.053	1.299	1	observe	Run2	observe/STIM_008.jpg
1726.457	0.816	1	observe	Run2	observe/STIM_009.jpg
1731.031	0.78	1	observe	Run2	observe/STIM_009.jpg
1734.035	0.93	1	observe	Run2	observe/STIM_009.jpg
1738.563	1.207	1	observe	Run2	observe/STIM_009.jpg
1743.25	1.212	1	observe	Run2	observe/STIM_010.jpg
1747.73	0.85	1	observe	Run2	observe/STIM_010.jpg
1752.13	0.97	1	observe	Run2	observe/STIM_010.jpg
1755.71	1.188	1	observe	Run2	observe/STIM_010.jpg
1759.896	0.759	1	observe	Run2	observe/STIM_011.jpg
1764.595	1.098	1	observe	Run2	observe/STIM_011.jpg
1768.185	0.931	1	observe	Run2	observe/STIM_011.jpg
1772.114	0.696	1	observe	Run2	observe/STIM_011.jpg
1775.879	1.304	1	observe	Run2	observe/STIM_012.jpg
1781.167	1.384	1	observe	Run2	observe/STIM_012.jpg
1786.005	1.017	0	observe	Run2	observe/STIM_012.jpg
1790.649	0.928	1	observe	Run2	observe/STIM_012.jpg
1794.474	0.884	1	observe	Run2	observe/STIM_013.jpg
1799.212	0.83	1	observe	Run2	observe/STIM_013.jpg
1802.539	0.816	1	observe	Run2	observe/STIM_013.jpg
1805.894	1.111	1	observe	Run2	observe/STIM_013.jpg
1809.595	1.386	1	observe	Run2	observe/STIM_014.jpg
1813.269	0.878	1	observe	Run2	observe/STIM_014.jpg
1816.936	1.314	1	observe	Run2	observe/STIM_014.jpg
1821.458	0.874	1	observe	Run2	observe/STIM_014.jpg
1825.528	1.342	1	observe	Run2	observe/STIM_015.jpg
1829.186	0.808	1	observe	Run2	observe/STIM_015.jpg
1833.619	0.787	1	observe	Run2	observe/STIM_015.jpg
1837.112	1.44	0	observe	Run2	observe/STIM_015.jpg
1841.442	0.808	1	observe	Run2	observe/STIM_016.jpg
1846.251	0.902	1	observe	Run2	observe/STIM_016.jpg
1849.872	0.803	1	observe	Run2	observe/STIM_016.jpg
1853.658	1.03	1	observe	Run2	observe/STIM_016.jpg
1858.681	0.848	1	observe	Run2	observe/STIM_017.jpg
1861.843	0.906	1	observe	Run2	observe/STIM_017.jpg
1864.936	0.762	1	observe	Run2	observe/STIM_017.jpg
1869.077	1.007	0	observe	Run2	observe/STIM_017.jpg
1872.379	1.099	1	observe	Run2	observe/STIM_018.jpg
1876.5	1.22	1	observe	Run2	observe/STIM_018.jpg
1880.329	0.975	1	observe	Run2	observe/STIM_018.jpg
1885.044	0.992	1	observe	Run2	observe/STIM_018.jpg
1888.363	1.257	1	observe	Run2	observe/STIM_019.jpg
1891.848	1.468	1	observe	Run2	observe/STIM_019.jpg
1895.875	1.069	1	observe	Run2	observe/STIM_019.jpg
1900.848	1.241	0	observe	Run2	observe/STIM_019.jpg
1904.839	1.923	1	regulate	Run3	regulate/STIM_000.jpg
1909.567	1.81	0	regulate	Run3	regulate/STIM_000.jpg
1915.003	1.766	1	regulate	Run3	regulate/STIM_000.jpg
1920.077	1.654	1	regulate	Run3	regulate/STIM_000.jpg
1924.93	1.705	1	regulate	Run3	regulate/STIM_001.jpg
1930.171	2.119	1	regulate	Run3	regulate/STIM_001.jpg
1935.616	1.74	1	regulate	Run3	regulate/STIM_001.jpg
1940.965	1.257	1	regulate	Run3	regulate/STIM_001.jpg
1944.698	2.004	1	regulate	Run3	regulate/STIM_002.jpg
1950.5	1.553	1	regulate	Run3	regulate/STIM_002.jpg
1955.41	1.885	1	regulate	Run3	regulate/STIM_002.jpg
1960.786	1.98	0	regulate	Run3	regulate/STIM_002.jpg
1964.997	1.524	1	regulate	Run3	regulate/STIM_003.jpg
1968.974	1.971	0	regulate	Run3	regulate/STIM_003.jpg
1975.09	1.171	1	regulate	Run3	regulate/STIM_003.jpg
1980.247	1.153	1	regulate	Run3	regulate/STIM_003.jpg
1985.071	1.871	1	regulate	Run3	regulate/STIM_004.jpg
1990.09	1.117	1	regulate	Run3	regulate/STIM_004.jpg
1993.335	1.916	1	regulate	Run3	regulate/STIM_004.jpg
1998.375	1.736	1	regulate	Run3	regulate/STIM_004.jpg
2004.158	1.944	1	regulate	Run3	regulate/STIM_005.jpg
2008.978	1.684	0	regulate	Run3	regulate/STIM_005.jpg
2013.104	0.969	1	regulate	Run3	regulate/STIM_005.jpg
2017.646	1.435	1	regulate	Run3	regulate/STIM_005.jpg
2021.747	1.88	1	regulate	Run3	regulate/STIM_006.jpg
2027.324	1.228	0	regulate	Run3	regulate/STIM_006.jpg
2031.512	2.014	1	regulate	Run3	regulate/STIM_006.jpg
2037.03	1.632	1	regulate	Run3	regulate/STIM_006.jpg
2042.234	1.974	1	regulate	Run3	regulate/STIM_007.jpg
2048.267	1.454	1	regulate	Run3	regulate/STIM_007.jpg
2052.483	1.073	0	regulate	Run3	regulate/STIM_007.jpg
2057.392	1.522	1	regulate	Run3	regulate/STIM_007.jpg
2061.804	1.29	1	regulate	Run3	regulate/STIM_008.jpg
2066.375	1.495	1	regulate	Run3	regulate/STIM_008.jpg
2070.942	1.833	1	regulate	Run3	regulate/STIM_008.jpg
2075.005	1.598	1	regulate	Run3	regulate/STIM_008.jpg
2079.418	2.188	0	regulate	Run3	regulate/STIM_009.jpg
2084.312	0.939	1	regulate	Run3	regulate/STIM_009.jpg
2087.901	1.983	1	regulate	Run3	regulate/STIM_009.jpg
2093.342	0.987	1	regulate	Run3	regulate/STIM_009.jpg
2096.98	2.067	1	regulate	Run3	regulate/STIM_010.jpg
2101.486	2.217	0	regulate	Run3	regulate/STIM_010.jpg
2106.331	2.079	1	regulate	Run3	regulate/STIM_010.jpg
2111.602	1.506	1	regulate	Run3	regulate/STIM_010.jpg
2116.339	2.118	1	regulate	Run3	regulate/STIM_011.jpg
2122.326	1.958	1	regulate	Run3	regulate/STIM_011.jpg
2126.768	1.435	1	regulate	Run3	regulate/STIM_011.jpg
2131.142	1.873	1	regulate	Run3	regulate/STIM_011.jpg
2135.297	1.257	1	regulate	Run3	regulate/STIM_012.jpg
2138.834	1.134	1	regulate	Run3	regulate/STIM_012.jpg
2143.438	1.759	1	regulate	Run3	regulate/STIM_012.jpg
2149.322	1.992	1	regulate	Run3	regulate/STIM_012.jpg
2154.392	1.174	1	regulate	Run3	regulate/STIM_013.jpg
2158.792	1.466	1	regulate	Run3	regulate/STIM_013.jpg
2162.783	1.84	1	regulate	Run3	regulate/STIM_013.jpg
2168.134	1.914	1	regulate	Run3	regulate/STIM_013.jpg
2173.524	1.745	1	regulate	Run3	regulate/STIM_014.jpg
2177.934	1.87	0	regulate	Run3	regulate/STIM_014.jpg
2183.919	2.157	1	regulate	Run3	regulate/STIM_014.jpg
2188.495	1.452	1	regulate	Run3	regulate/STIM_014.jpg
2193.778	1.626	1	regulate	Run3	regulate/STIM_015.jpg
2197.574	1.923	1	regulate	Run3	regulate/STIM_015.jpg
2203.597	1.069	1	regulate	Run3	regulate/STIM_015.jpg
2207.87	0.979	1	regulate	Run3	regulate/STIM_015.jpg
2212.425	1.411	1	regulate	Run3	regulate/STIM_016.jpg
2216.722	1.26	1	regulate	Run3	regulate/STIM_016.jpg
2221.191	1.182	1	regulate	Run3	regulate/STIM_016.jpg
2224.605	1.717	1	regulate	Run3	regulate/STIM_016.jpg
2229.16	2.017	1	regulate	Run3	regulate/STIM_017.jpg
2233.932	1.384	1	regulate	Run3	regulate/STIM_017.jpg
2237.516	2.206	1	regulate	Run3	regulate/STIM_017.jpg
2242.302	1.417	1	regulate	Run3	regulate/STIM_017.jpg
2247.105	1.306	1	regulate	Run3	regulate/STIM_018.jpg
2251.841	1.203	1	regulate	Run3	regulate/STIM_018.jpg
2255.493	1.108	1	regulate	Run3	regulate/STIM_018.jpg
2259.153	1.556	1	regulate	Run3	regulate/STIM_018.jpg
2264.223	1.205	1	regulate	Run3	regulate/STIM_019.jpg
2269.181	2.082	1	regulate	Run3	regulate/STIM_019.jpg
2274.334	1.635	1	regulate	Run3	regulate/STIM_019.jpg
2279.677	1.726	1	regulate	Run3	regulate/STIM_019.jpg
2283.567	1.688	1	regulate	Run3	regulate/STIM_020.jpg
2287.973	1.463	1	regulate	Run3	regulate/STIM_020.jpg
2293.104	2.274	1	regulate	Run3	regulate/STIM_020.jpg
2298.546	1.378	1	regulate	Run3	regulate/STIM_020.jpg
2303.742	1.363	1	regulate	Run3	regulate/STIM_021.jpg
2307.546	2.043	1	regulate	Run3	regulate/STIM_021.jpg
2312.355	1.803	1	regulate	Run3	regulate/STIM_021.jpg
2317.586	2.207	1	regulate	Run3	regulate/STIM_021.jpg
2323.547	2.089	1	regulate	Run3	regulate/STIM_022.jpg
2329.588	1.548	1	regulate	Run3	regulate/STIM_022.jpg
2333.607	2.086	1	regulate	Run3	regulate/STIM_022.jpg
2339.458	1.238	1	regulate	Run3	regulate/STIM_022.jpg
2343.485	1.472	1	regulate	Run3	regulate/STIM_023.jpg
2348.024	1.53	1	regulate	Run3	regulate/STIM_023.jpg
2353.526	1.126	1	regulate	Run3	regulate/STIM_023.jpg
2356.798	1.342	1	regulate	Run3	regulate/STIM_023.jpg
2361.738	1.206	1	regulate	Run3	regulate/STIM_024.jpg
2366.462	1.966	1	regulate	Run3	regulate/STIM_024.jpg
2372.156	1.808	1	regulate	Run3	regulate/STIM_024.jpg
2377.586	1.443	1	regulate	Run3	regulate/STIM_024.jpg
2382.091	1.312	1	regulate	Run3	regulate/STIM_025.jpg
2386.631	1.035	0	regulate	Run3	regulate/STIM_025.jpg
2391.293	2.267	1	regulate	Run3	regulate/STIM_025.jpg
2397.295	2.028	1	regulate	Run3	regulate/STIM_025.jpg
2401.78	1.364	1	regulate	Run3	regulate/STIM_026.jpg
2405.63	2.142	1	regulate	Run3	regulate/STIM_026.jpg
2410.925	1.901	1	regulate	Run3	regulate/STIM_026.jpg
2416.834	1.234	1	regulate	Run3	regulate/STIM_026.jpg
2421.827	0.915	1	regulate	Run3	regulate/STIM_027.jpg
2426.35	2.169	1	regulate	Run3	regulate/STIM_027.jpg
2431.379	1.669	1	regulate	Run3	regulate/STIM_027.jpg
2436.199	1.46	1	regulate	Run3	regulate/STIM_027.jpg
2440.426	2.11	1	regulate	Run3	regulate/STIM_028.jpg
2446.014	1.316	1	regulate	Run3	regulate/STIM_028.jpg
2450.558	1.561	1	regulate	Run3	regulate/STIM_028.jpg
2455.799	1.826	1	regulate	Run3	regulate/STIM_028.jpg
2461.178	2.094	1	regulate	Run3	regulate/STIM_029.jpg
2466.154	1.142	1	regulate	Run3	regulate/STIM_029.jpg
2469.602	1.889	1	regulate	Run3	regulate/STIM_029.jpg
2475.314	1.513	0	regulate	Run3	regulate/STIM_029.jpg
2480.761	1.151	1	observe	Run3	observe/STIM_000.jpg
2484.5	1.028	0	observe	Run3	observe/STIM_000.jpg
2489.408	1.177	1	observe	Run3	observe/STIM_000.jpg
2494.324	0.832	1	observe	Run3	observe/STIM_000.jpg
2497.589	1.4	0	observe	Run3	observe/STIM_001.jpg
2501.526	1.438	0	observe	Run3	observe/STIM_001.jpg
2506.329	1.046	1	observe	Run3	observe/STIM_001.jpg
2510.674	1.393	1	observe	Run3	observe/STIM_001.jpg
2514.503	0.881	1	observe	Run3	observe/STIM_002.jpg
2518.824	0.985	1	observe	Run3	observe/STIM_002.jpg
2522.967	0.809	1	observe	Run3	observe/STIM_002.jpg
2527.246	1.31	1	observe	Run3	observe/STIM_002.jpg
2530.667	1.37	1	observe	Run3	observe/STIM_003.jpg
2535.559	0.717	1	observe	Run3	observe/STIM_003.jpg
2538.724	1.492	1	observe	Run3	observe/STIM_003.jpg
2542.547	1.28	1	observe	Run3	observe/STIM_003.jpg
2546.479	1.149	1	observe	Run3	observe/STIM_004.jpg
2550.063	1.197	1	observe	Run3	observe/STIM_004.jpg
2554.878	0.799	1	observe	Run3	observe/STIM_004.jpg
2557.903	1.029	0	observe	Run3	observe/STIM_004.jpg
2561.95	0.729	1	observe	Run3	observe/STIM_005.jpg
2566.388	0.787	1	observe	Run3	observe/STIM_005.jpg
2570.491	0.9	1	observe	Run3	observe/STIM_005.jpg
2573.598	0.88	1	observe	Run3	observe/STIM_005.jpg
2576.798	0.897	1	observe	Run3	observe/STIM_006.jpg
2580.851	0.755	1	observe	Run3	observe/STIM_006.jpg
2584.638	0.854	1	observe	Run3	observe/STIM_006.jpg
2588.408	1.046	1	observe	Run3	observe/STIM_006.jpg
2593.407	1.244	1	observe	Run3	observe/STIM_007.jpg
2597.295	0.825	1	observe	Run3	observe/STIM_007.jpg
2600.31	0.885	1	observe	Run3	observe/STIM_007.jpg
2604.318	1.167	0	observe	Run3	observe/STIM_007.jpg
2609.171	1.067	1	observe	Run3	observe/STIM_008.jpg
2612.876	0.786	1	observe	Run3	observe/STIM_008.jpg
2616.645	1.353	1	observe	Run3	observe/STIM_008.jpg
2621.885	1.218	1	observe	Run3	observe/STIM_008.jpg
2626.296	1.384	1	observe	Run3	observe/STIM_009.jpg
2629.915	1.352	1	observe	Run3	observe/STIM_009.jpg
2635.377	1.198	1	observe	Run3	observe/STIM_009.jpg
2640.035	1.07	1	observe	Run3	observe/STIM_009.jpg
2645.223	1.203	1	observe	Run3	observe/STIM_010.jpg
2649.479	0.93	1	observe	Run3	observe/STIM_010.jpg
2653.357	0.779	1	observe	Run3	observe/STIM_010.jpg
2656.418	1.303	1	observe	Run3	observe/STIM_010.jpg
2660.3	0.978	1	observe	Run3	observe/STIM_011.jpg
2663.998	1.339	1	observe	Run3	observe/STIM_011.jpg
2668.272	1.202	1	observe	Run3	observe/STIM_011.jpg
2671.874	0.893	1	observe	Run3	observe/STIM_011.jpg
2676.191	1.143	0	observe	Run3	observe/STIM_012.jpg
2680.13	1.168	1	observe	Run3	observe/STIM_012.jpg
2684.349	1.05	1	observe	Run3	observe/STIM_012.jpg
2689.307	1.027	0	observe	Run3	observe/STIM_012.jpg
2692.929	0.884	1	observe	Run3	observe/STIM_013.jpg
2696.232	0.824	1	observe	Run3	observe/STIM_013.jpg
2701.17	0.738	1	observe	Run3	observe/STIM_013.jpg
2704.821	0.926	1	observe	Run3	observe/STIM_013.jpg
2709.121	1.182	1	observe	Run3	observe/STIM_014.jpg
2713.23	1.213	1	observe	Run3	observe/STIM_014.jpg
2718.156	0.791	0	observe	Run3	observe/STIM_014.jpg
2722.499	0.925	1	observe	Run3	observe/STIM_014.jpg
2726.015	0.964	1	observe	Run3	observe/STIM_015.jpg
2730.282	0.735	1	observe	Run3	observe/STIM_015.jpg
2734.92	0.785	1	observe	Run3	observe/STIM_015.jpg
2737.837	1.53	0	observe	Run3	observe/STIM_015.jpg
2741.405	1.092	1	observe	Run3	observe/STIM_016.jpg
2744.868	1.108	1	observe	Run3	observe/STIM_016.jpg
2750.134	0.854	1	observe	Run3	observe/STIM_016.jpg
2754.548	0.879	1	observe	Run3	observe/STIM_016.jpg
2757.593	1.383	1	observe	Run3	observe/STIM_017.jpg
2763.048	0.938	1	observe	Run3	observe/STIM_017.jpg
2766.866	1.228	1	observe	Run3	observe/STIM_017.jpg
2771.819	1.332	1	observe	Run3	observe/STIM_017.jpg
2775.422	0.874	1	observe	Run3	observe/STIM_018.jpg
2778.917	0.972	1	observe	Run3	observe/STIM_018.jpg
2783.742	1.211	1	observe	Run3	observe/STIM_018.jpg
2788.022	0.884	1	observe	Run3	observe/STIM_018.jpg
2792.518	0.904	1	observe	Run3	observe/STIM_019.jpg
2796.67	1.057	1	observe	Run3	observe/STIM_019.jpg
2801.337	0.91	1	observe	Run3	observe/STIM_019.jpg
2804.84	0.912	1	observe	Run3	observe/STIM_019.jpg
