onset	duration	accuracy_binary	trial_type	learning_stage	stimulus
0.0	4.002	1	navigation	Trial1	navigation/STIM_000.jpg
7.249	2.376	1	navigation	Trial1	navigation/STIM_000.jpg
12.952	3.837	1	navigation	Trial1	navigation/STIM_000.jpg
20.129	2.319	1	navigation	Trial1	navigation/STIM_000.jpg
25.132	3.102	0	navigation	Trial1	navigation/STIM_000.jpg
30.853	3.188	1	navigation	Trial1	navigation/STIM_000.jpg
36.284	4.269	1	navigation	Trial1	navigation/STIM_001.jpg
42.93	3.498	1	navigation	Trial1	navigation/STIM_001.jpg
49.928	4.253	1	navigation	Trial1	navigation/STIM_001.jpg
56.593	4.56	1	navigation	Trial1	navigation/STIM_001.jpg
63.424	1.914	1	navigation	Trial1	navigation/STIM_001.jpg
67.285	3.199	1	navigation	Trial1	navigation/STIM_001.jpg
72.634	4.676	1	navigation	Trial1	navigation/STIM_002.jpg
79.099	2.361	1	navigation	Trial1	navigation/STIM_002.jpg
84.324	2.281	1	navigation	Trial1	navigation/STIM_002.jpg
90.094	3.657	0	navigation	Trial1	navigation/STIM_002.jpg
96.45	4.257	1	navigation	Trial1	navigation/STIM_002.jpg
103.544	1.761	1	navigation	Trial1	navigation/STIM_002.jpg
108.045	4.102	0	navigation	Trial1	navigation/STIM_003.jpg
115.808	4.779	1	navigation	Trial1	navigation/STIM_003.jpg
123.072	3.148	1	navigation	Trial1	navigation/STIM_003.jpg
128.344	3.454	0	navigation	Trial1	navigation/STIM_003.jpg
134.373	4.03	0	navigation	Trial1	navigation/STIM_003.jpg
140.41	2.349	1	navigation	Trial1	navigation/STIM_003.jpg
146.443	4.933	1	navigation	Trial1	navigation/STIM_004.jpg
154.266	4.056	1	navigation	Trial1	navigation/STIM_004.jpg
161.196	2.844	1	navigation	Trial1	navigation/STIM_004.jpg
167.205	3.864	0	navigation	Trial1	navigation/STIM_004.jpg
173.623	4.198	0	navigation	Trial1	navigation/STIM_004.jpg
181.282	3.922	1	navigation	Trial1	navigation/STIM_004.jpg
187.633	5.326	0	navigation	Trial1	navigation/STIM_005.jpg
195.265	2.802	1	navigation	Trial1	navigation/STIM_005.jpg
200.513	3.88	0	navigation	Trial1	navigation/STIM_005.jpg
206.061	3.174	0	navigation	Trial1	navigation/STIM_005.jpg
212.417	4.031	0	navigation	Trial1	navigation/STIM_005.jpg
218.694	3.941	1	navigation	Trial1	navigation/STIM_005.jpg
225.572	5.195	1	navigation	Trial1	navigation/STIM_006.jpg
233.09	4.844	0	navigation	Trial1	navigation/STIM_006.jpg
241.028	3.833	0	navigation	Trial1	navigation/STIM_006.jpg
246.97	4.183	1	navigation	Trial1	navigation/STIM_006.jpg
253.539	3.613	1	navigation	Trial1	navigation/STIM_006.jpg
259.846	4.06	1	navigation	Trial1	navigation/STIM_006.jpg
266.334	4.527	1	navigation	Trial1	navigation/STIM_007.jpg
273.221	4.454	1	navigation	Trial1	navigation/STIM_007.jpg
280.258	4.858	0	navigation	Trial1	navigation/STIM_007.jpg
287.671	3.623	1	navigation	Trial1	navigation/STIM_007.jpg
294.423	3.101	1	navigation	Trial1	navigation/STIM_007.jpg
300.305	3.002	0	navigation	Trial1	navigation/STIM_007.jpg
306.826	5.39	0	navigation	Trial1	navigation/STIM_008.jpg
315.248	3.624	1	navigation	Trial1	navigation/STIM_008.jpg
322.396	2.93	1	navigation	Trial1	navigation/STIM_008.jpg
327.37	2.902	0	navigation	Trial1	navigation/STIM_008.jpg
332.074	3.034	0	navigation	Trial1	navigation/STIM_008.jpg
338.521	1.63	0	navigation	Trial1	navigation/STIM_008.jpg
343.459	3.047	1	navigation	Trial1	navigation/STIM_009.jpg
348.522	2.723	1	navigation	Trial1	navigation/STIM_009.jpg
354.901	4.98	1	navigation	Trial1	navigation/STIM_009.jpg
361.842	2.275	0	navigation	Trial1	navigation/STIM_009.jpg
367.644	3.252	1	navigation	Trial1	navigation/STIM_009.jpg
373.211	1.983	1	navigation	Trial1	navigation/STIM_009.jpg
377.41	3.831	0	navigation	Trial1	navigation/STIM_010.jpg
383.609	3.415	1	navigation	Trial1	navigation/STIM_010.jpg
389.148	4.339	0	navigation	Trial1	navigation/STIM_010.jpg
395.921	2.977	1	navigation	Trial1	navigation/STIM_010.jpg
401.87	2.291	1	navigation	Trial1	navigation/STIM_010.jpg
405.998	3.738	1	navigation	Trial1	navigation/STIM_010.jpg
411.682	2.838	1	navigation	Trial1	navigation/STIM_011.jpg
416.539	4.149	0	navigation	Trial1	navigation/STIM_011.jpg
424.233	4.607	0	navigation	Trial1	navigation/STIM_011.jpg
431.787	2.976	0	navigation	Trial1	navigation/STIM_011.jpg
437.047	2.331	1	navigation	Trial1	navigation/STIM_011.jpg
442.5	3.564	0	navigation	Trial1	navigation/STIM_011.jpg
449.501	1.21	1	pointing	Trial1	pointing/STIM_000.jpg
454.598	1.096	1	pointing	Trial1	pointing/STIM_000.jpg
458.267	1.632	1	pointing	Trial1	pointing/STIM_000.jpg
463.676	1.361	1	pointing	Trial1	pointing/STIM_000.jpg
467.604	1.156	1	pointing	Trial1	pointing/STIM_000.jpg
471.367	1.292	1	pointing	Trial1	pointing/STIM_000.jpg
476.365	1.459	1	pointing	Trial1	pointing/STIM_001.jpg
480.748	1.566	1	pointing	Trial1	pointing/STIM_001.jpg
485.43	0.974	1	pointing	Trial1	pointing/STIM_001.jpg
489.018	0.955	1	pointing	Trial1	pointing/STIM_001.jpg
492.787	0.942	0	pointing	Trial1	pointing/STIM_001.jpg
497.314	1.238	1	pointing	Trial1	pointing/STIM_001.jpg
502.172	1.192	1	pointing	Trial1	pointing/STIM_002.jpg
506.62	1.46	1	pointing	Trial1	pointing/STIM_002.jpg
511.34	0.933	0	pointing	Trial1	pointing/STIM_002.jpg
515.684	0.941	1	pointing	Trial1	pointing/STIM_002.jpg
520.443	1.42	1	pointing	Trial1	pointing/STIM_002.jpg
523.882	1.287	1	pointing	Trial1	pointing/STIM_002.jpg
527.142	0.915	1	pointing	Trial1	pointing/STIM_003.jpg
531.921	1.434	1	pointing	Trial1	pointing/STIM_003.jpg
535.332	1.111	1	pointing	Trial1	pointing/STIM_003.jpg
539.735	1.614	1	pointing	Trial1	pointing/STIM_003.jpg
544.632	1.409	1	pointing	Trial1	pointing/STIM_003.jpg
549.401	1.536	1	pointing	Trial1	pointing/STIM_003.jpg
554.063	1.299	1	pointing	Trial1	pointing/STIM_004.jpg
558.636	1.044	1	pointing	Trial1	pointing/STIM_004.jpg
562.233	1.229	1	pointing	Trial1	pointing/STIM_004.jpg
567.153	1.058	1	pointing	Trial1	pointing/STIM_004.jpg
571.872	1.142	1	pointing	Trial1	pointing/STIM_004.jpg
576.523	1.266	1	pointing	Trial1	pointing/STIM_004.jpg
581.115	1.631	1	pointing	Trial1	pointing/STIM_005.jpg
586.109	1.455	1	pointing	Trial1	pointing/STIM_005.jpg
589.691	1.443	1	pointing	Trial1	pointing/STIM_005.jpg
593.922	0.975	1	pointing	Trial1	pointing/STIM_005.jpg
597.11	1.045	1	pointing	Trial1	pointing/STIM_005.jpg
601.632	1.374	1	pointing	Trial1	pointing/STIM_005.jpg
606.828	1.209	1	pointing	Trial1	pointing/STIM_006.jpg
611.832	1.024	1	pointing	Trial1	pointing/STIM_006.jpg
616.361	1.163	1	pointing	Trial1	pointing/STIM_006.jpg
620.01	1.281	1	pointing	Trial1	pointing/STIM_006.jpg
624.54	1.617	1	pointing	Trial1	pointing/STIM_006.jpg
628.046	1.495	1	pointing	Trial1	pointing/STIM_006.jpg
631.903	1.229	1	pointing	Trial1	pointing/STIM_007.jpg
635.112	0.973	0	pointing	Trial1	pointing/STIM_007.jpg
638.059	1.237	1	pointing	Trial1	pointing/STIM_007.jpg
641.676	0.963	1	pointing	Trial1	pointing/STIM_007.jpg
644.663	1.276	1	pointing	Trial1	pointing/STIM_007.jpg
648.659	1.041	1	pointing	Trial1	pointing/STIM_007.jpg
653.169	1.3	1	pointing	Trial1	pointing/STIM_008.jpg
656.944	1.159	1	pointing	Trial1	pointing/STIM_008.jpg
661.372	1.175	1	pointing	Trial1	pointing/STIM_008.jpg
665.473	1.575	1	pointing	Trial1	pointing/STIM_008.jpg
669.86	1.146	1	pointing	Trial1	pointing/STIM_008.jpg
674.37	1.131	1	pointing	Trial1	pointing/STIM_008.jpg
677.599	1.293	0	pointing	Trial1	pointing/STIM_009.jpg
680.827	0.888	1	pointing	Trial1	pointing/STIM_009.jpg
685.156	1.102	0	pointing	Trial1	pointing/STIM_009.jpg
689.596	0.861	1	pointing	Trial1	pointing/STIM_009.jpg
693.739	1.087	1	pointing	Trial1	pointing/STIM_009.jpg
696.963	1.565	1	pointing	Trial1	pointing/STIM_009.jpg
701.977	1.007	1	pointing	Trial1	pointing/STIM_010.jpg
706.145	1.571	1	pointing	Trial1	pointing/STIM_010.jpg
710.521	1.228	1	pointing	Trial1	pointing/STIM_010.jpg
714.317	1.237	1	pointing	Trial1	pointing/STIM_010.jpg
718.221	1.37	1	pointing	Trial1	pointing/STIM_010.jpg
722.926	1.306	1	pointing	Trial1	pointing/STIM_010.jpg
726.84	1.426	1	pointing	Trial1	pointing/STIM_011.jpg
731.115	1.041	1	pointing	Trial1	pointing/STIM_011.jpg
734.402	1.699	1	pointing	Trial1	pointing/STIM_011.jpg
738.696	1.567	1	pointing	Trial1	pointing/STIM_011.jpg
743.358	1.223	1	pointing	Trial1	pointing/STIM_011.jpg
747.749	1.375	1	pointing	Trial1	pointing/STIM_011.jpg
751.431	4.438	1	navigation	Trial2	navigation/STIM_000.jpg
757.841	4.007	1	navigation	Trial2	navigation/STIM_000.jpg
764.917	1.773	1	navigation	Trial2	navigation/STIM_000.jpg
769.72	2.894	1	navigation	Trial2	navigation/STIM_000.jpg
776.267	2.715	0	navigation	Trial2	navigation/STIM_000.jpg
782.631	2.225	0	navigation	Trial2	navigation/STIM_000.jpg
787.064	3.783	1	navigation	Trial2	navigation/STIM_001.jpg
793.945	3.962	1	navigation	Trial2	navigation/STIM_001.jpg
799.662	3.785	1	navigation	Trial2	navigation/STIM_001.jpg
805.86	3.137	1	navigation	Trial2	navigation/STIM_001.jpg
812.779	3.062	1	navigation	Trial2	navigation/STIM_001.jpg
818.974	3.754	1	navigation	Trial2	navigation/STIM_001.jpg
824.481	4.18	1	navigation	Trial2	navigation/STIM_002.jpg
830.378	3.564	1	navigation	Trial2	navigation/STIM_002.jpg
837.559	2.07	1	navigation	Trial2	navigation/STIM_002.jpg
841.431	3.803	1	navigation	Trial2	navigation/STIM_002.jpg
846.931	2.783	1	navigation	Trial2	navigation/STIM_002.jpg
851.66	3.384	1	navigation	Trial2	navigation/STIM_002.jpg
858.013	3.853	1	navigation	Trial2	navigation/STIM_003.jpg
865.285	2.419	1	navigation	Trial2	navigation/STIM_003.jpg
869.929	1.782	1	navigation	Trial2	navigation/STIM_003.jpg
874.353	1.696	1	navigation	Trial2	navigation/STIM_003.jpg
879.759	2.12	1	navigation	Trial2	navigation/STIM_003.jpg
884.603	1.865	1	navigation	Trial2	navigation/STIM_003.jpg
889.603	3.446	1	navigation	Trial2	navigation/STIM_004.jpg
895.887	2.002	1	navigation	Trial2	navigation/STIM_004.jpg
900.54	2.722	1	navigation	Trial2	navigation/STIM_004.jpg
905.059	2.446	1	navigation	Trial2	navigation/STIM_004.jpg
910.85	2.534	1	navigation	Trial2	navigation/STIM_004.jpg
916.66	2.616	1	navigation	Trial2	navigation/STIM_004.jpg
921.82	4.099	0	navigation	Trial2	navigation/STIM_005.jpg
927.781	2.497	0	navigation	Trial2	navigation/STIM_005.jpg
932.122	1.711	1	navigation	Trial2	navigation/STIM_005.jpg
936.41	3.684	1	navigation	Trial2	navigation/STIM_005.jpg
941.835	2.137	1	navigation	Trial2	navigation/STIM_005.jpg
946.988	3.736	1	navigation	Trial2	navigation/STIM_005.jpg
953.352	4.616	0	navigation	Trial2	navigation/STIM_006.jpg
960.784	4.242	0	navigation	Trial2	navigation/STIM_006.jpg
967.752	2.283	0	navigation	Trial2	navigation/STIM_006.jpg
972.052	2.012	1	navigation	Trial2	navigation/STIM_006.jpg
977.591	3.68	1	navigation	Trial2	navigation/STIM_006.jpg
984.12	3.882	1	navigation	Trial2	navigation/STIM_006.jpg
989.882	3.136	1	navigation	Trial2	navigation/STIM_007.jpg
996.113	3.363	1	navigation	Trial2	navigation/STIM_007.jpg
1001.713	2.109	1	navigation	Trial2	navigation/STIM_007.jpg
1007.527	3.899	1	navigation	Trial2	navigation/STIM_007.jpg
1014.659	3.755	1	navigation	Trial2	navigation/STIM_007.jpg
1020.665	2.072	1	navigation	Trial2	navigation/STIM_007.jpg
1025.206	4.045	0	navigation	Trial2	navigation/STIM_008.jpg
1031.829	3.031	1	navigation	Trial2	navigation/STIM_008.jpg
1036.975	2.963	1	navigation	Trial2	navigation/STIM_008.jpg
1043.156	1.941	1	navigation	Trial2	navigation/STIM_008.jpg
1047.393	2.577	0	navigation	Trial2	navigation/STIM_008.jpg
1052.964	2.165	1	navigation	Trial2	navigation/STIM_008.jpg
1058.169	4.632	0	navigation	Trial2	navigation/STIM_009.jpg
1066.171	2.409	1	navigation	Trial2	navigation/STIM_009.jpg
1070.923	1.83	1	navigation	Trial2	navigation/STIM_009.jpg
1076.451	1.902	1	navigation	Trial2	navigation/STIM_009.jpg
1080.37	2.472	1	navigation	Trial2	navigation/STIM_009.jpg
1085.827	3.658	1	navigation	Trial2	navigation/STIM_009.jpg
1092.694	1.978	1	navigation	Trial2	navigation/STIM_010.jpg
1098.488	1.947	1	navigation	Trial2	navigation/STIM_010.jpg
1102.558	2.4	1	navigation	Trial2	navigation/STIM_010.jpg
1107.334	1.868	1	navigation	Trial2	navigation/STIM_010.jpg
1112.458	1.715	1	navigation	Trial2	navigation/STIM_010.jpg
1116.305	1.987	1	navigation	Trial2	navigation/STIM_010.jpg
1120.328	2.44	1	navigation	Trial2	navigation/STIM_011.jpg
1125.279	2.295	1	navigation	Trial2	navigation/STIM_011.jpg
1129.915	3.148	0	navigation	Trial2	navigation/STIM_011.jpg
1136.623	3.75	1	navigation	Trial2	navigation/STIM_011.jpg
1142.555	1.61	1	navigation	Trial2	navigation/STIM_011.jpg
1146.793	2.279	1	navigation	Trial2	navigation/STIM_011.jpg
1152.101	1.231	1	pointing	Trial2	pointing/STIM_000.jpg
1156.69	1.479	1	pointing	Trial2	pointing/STIM_000.jpg
1161.113	1.03	1	pointing	Trial2	pointing/STIM_000.jpg
1165.173	1.081	0	pointing	Trial2	pointing/STIM_000.jpg
1169.903	1.587	1	pointing	Trial2	pointing/STIM_000.jpg
1173.688	1.243	1	pointing	Trial2	pointing/STIM_000.jpg
1178.365	1.55	1	pointing	Trial2	pointing/STIM_001.jpg
1182.007	1.039	1	pointing	Trial2	pointing/STIM_001.jpg
1185.472	1.062	0	pointing	Trial2	pointing/STIM_001.jpg
1189.766	0.944	1	pointing	Trial2	pointing/STIM_001.jpg
1192.861	1.12	1	pointing	Trial2	pointing/STIM_001.jpg
1197.775	1.241	1	pointing	Trial2	pointing/STIM_001.jpg
1201.573	1.224	1	pointing	Trial2	pointing/STIM_002.jpg
1205.81	1.004	1	pointing	Trial2	pointing/STIM_002.jpg
1208.963	0.833	1	pointing	Trial2	pointing/STIM_002.jpg
1213.382	1.113	1	pointing	Trial2	pointing/STIM_002.jpg
1216.934	0.892	1	pointing	Trial2	pointing/STIM_002.jpg
1220.177	1.346	1	pointing	Trial2	pointing/STIM_002.jpg
1223.68	0.917	1	pointing	Trial2	pointing/STIM_003.jpg
1227.254	1.608	1	pointing	Trial2	pointing/STIM_003.jpg
1231.76	1.28	1	pointing	Trial2	pointing/STIM_003.jpg
1235.387	1.161	1	pointing	Trial2	pointing/STIM_003.jpg
1240.415	0.965	1	pointing	Trial2	pointing/STIM_003.jpg
1243.302	1.183	1	pointing	Trial2	pointing/STIM_003.jpg
1247.311	1.49	1	pointing	Trial2	pointing/STIM_004.jpg
1251.76	1.292	1	pointing	Trial2	pointing/STIM_004.jpg
1256.113	1.21	1	pointing	Trial2	pointing/STIM_004.jpg
1259.814	1.032	1	pointing	Trial2	pointing/STIM_004.jpg
1263.978	1.619	1	pointing	Trial2	pointing/STIM_004.jpg
1269.04	1.64	1	pointing	Trial2	pointing/STIM_004.jpg
1273.383	1.46	1	pointing	Trial2	pointing/STIM_005.jpg
1276.973	1.288	1	pointing	Trial2	pointing/STIM_005.jpg
1282.04	1.426	1	pointing	Trial2	pointing/STIM_005.jpg
1287.17	1.283	1	pointing	Trial2	pointing/STIM_005.jpg
1291.294	1.497	1	pointing	Trial2	pointing/STIM_005.jpg
1295.563	1.069	1	pointing	Trial2	pointing/STIM_005.jpg
1298.71	1.295	1	pointing	Trial2	pointing/STIM_006.jpg
1302.061	1.509	1	pointing	Trial2	pointing/STIM_006.jpg
1306.694	1.066	1	pointing	Trial2	pointing/STIM_006.jpg
1310.388	1.011	1	pointing	Trial2	pointing/STIM_006.jpg
1314.319	1.028	1	pointing	Trial2	pointing/STIM_006.jpg
1317.452	1.576	1	pointing	Trial2	pointing/STIM_006.jpg
1321.194	1.561	1	pointing	Trial2	pointing/STIM_007.jpg
1325.224	0.967	1	pointing	Trial2	pointing/STIM_007.jpg
1329.535	1.25	1	pointing	Trial2	pointing/STIM_007.jpg
1332.868	1.507	1	pointing	Trial2	pointing/STIM_007.jpg
1337.976	0.868	1	pointing	Trial2	pointing/STIM_007.jpg
1341.194	1.29	1	pointing	Trial2	pointing/STIM_007.jpg
1345.408	1.608	1	pointing	Trial2	pointing/STIM_008.jpg
1350.489	1.569	1	pointing	Trial2	pointing/STIM_008.jpg
1354.652	1.617	1	pointing	Trial2	pointing/STIM_008.jpg
1358.776	1.162	1	pointing	Trial2	pointing/STIM_008.jpg
1361.919	1.18	0	pointing	Trial2	pointing/STIM_008.jpg
1366.326	1.198	1	pointing	Trial2	pointing/STIM_008.jpg
1370.801	1.41	1	pointing	Trial2	pointing/STIM_009.jpg
1374.661	1.416	1	pointing	Trial2	pointing/STIM_009.jpg
1379.64	1.258	1	pointing	Trial2	pointing/STIM_009.jpg
1384.509	1.63	1	pointing	Trial2	pointing/STIM_009.jpg
1388.423	1.056	1	pointing	Trial2	pointing/STIM_009.jpg
1392.821	1.416	1	pointing	Trial2	pointing/STIM_009.jpg
1396.24	1.452	1	pointing	Trial2	pointing/STIM_010.jpg
1400.303	1.527	1	pointing	Trial2	pointing/STIM_010.jpg
1405.296	1.602	1	pointing	Trial2	pointing/STIM_010.jpg
1410.623	1.167	1	pointing	Trial2	pointing/STIM_010.jpg
1415.352	1.023	1	pointing	Trial2	pointing/STIM_010.jpg
1418.712	1.681	1	pointing	Trial2	pointing/STIM_010.jpg
1422.365	1.44	1	pointing	Trial2	pointing/STIM_011.jpg
1427.714	1.234	1	pointing	Trial2	pointing/STIM_011.jpg
1432.355	1.095	1	pointing	Trial2	pointing/STIM_011.jpg
1437.052	1.125	0	pointing	Trial2	pointing/STIM_011.jpg
1440.48	1.239	1	pointing	Trial2	pointing/STIM_011.jpg
1445.302	1.529	1	pointing	Trial2	pointing/STIM_011.jpg
1450.25	2.946	1	navigation	Trial3	navigation/STIM_000.jpg
1455.387	1.59	0	navigation	Trial3	navigation/STIM_000.jpg
1460.28	1.948	1	navigation	Trial3	navigation/STIM_000.jpg
1465.773	2.775	0	navigation	Trial3	navigation/STIM_000.jpg
1471.049	3.04	1	navigation	Trial3	navigation/STIM_000.jpg
1477.558	2.87	1	navigation	Trial3	navigation/STIM_000.jpg
1483.313	1.714	1	navigation	Trial3	navigation/STIM_001.jpg
1487.43	1.968	1	navigation	Trial3	navigation/STIM_001.jpg
1491.771	2.609	1	navigation	Trial3	navigation/STIM_001.jpg
1496.18	2.328	1	navigation	Trial3	navigation/STIM_001.jpg
1501.063	2.785	1	navigation	Trial3	navigation/STIM_001.jpg
1507.028	3.784	1	navigation	Trial3	navigation/STIM_001.jpg
1513.919	1.708	1	navigation	Trial3	navigation/STIM_002.jpg
1517.621	3.692	1	navigation	Trial3	navigation/STIM_002.jpg
1523.643	2.865	1	navigation	Trial3	navigation/STIM_002.jpg
1529.784	2.352	1	navigation	Trial3	navigation/STIM_002.jpg
1535.52	2.637	1	navigation	Trial3	navigation/STIM_002.jpg
1541.154	1.652	1	navigation	Trial3	navigation/STIM_002.jpg
1545.964	2.65	1	navigation	Trial3	navigation/STIM_003.jpg
1552.309	1.599	1	navigation	Trial3	navigation/STIM_003.jpg
1556.798	2.285	1	navigation	Trial3	navigation/STIM_003.jpg
1560.98	2.44	1	navigation	Trial3	navigation/STIM_003.jpg
1567.122	1.924	1	navigation	Trial3	navigation/STIM_003.jpg
1571.721	2.851	1	navigation	Trial3	navigation/STIM_003.jpg
1576.7	2.039	0	navigation	Trial3	navigation/STIM_004.jpg
1582.481	2.363	1	navigation	Trial3	navigation/STIM_004.jpg
1587.202	2.134	1	navigation	Trial3	navigation/STIM_004.jpg
1591.999	2.311	1	navigation	Trial3	navigation/STIM_004.jpg
1597.384	2.53	1	navigation	Trial3	navigation/STIM_004.jpg
1602.076	2.365	1	navigation	Trial3	navigation/STIM_004.jpg
1606.359	2.51	1	navigation	Trial3	navigation/STIM_005.jpg
1611.0	3.026	1	navigation	Trial3	navigation/STIM_005.jpg
1615.951	2.734	1	navigation	Trial3	navigation/STIM_005.jpg
1621.807	1.594	1	navigation	Trial3	navigation/STIM_005.jpg
1625.957	3.711	1	navigation	Trial3	navigation/STIM_005.jpg
1632.442	3.273	1	navigation	Trial3	navigation/STIM_005.jpg
1639.04	1.983	0	navigation	Trial3	navigation/STIM_006.jpg
1644.446	3.384	1	navigation	Trial3	navigation/STIM_006.jpg
1651.466	2.319	1	navigation	Trial3	navigation/STIM_006.jpg
1656.12	3.972	1	navigation	Trial3	navigation/STIM_006.jpg
1662.821	3.436	1	navigation	Trial3	navigation/STIM_006.jpg
1669.442	3.155	1	navigation	Trial3	navigation/STIM_006.jpg
1675.676	2.914	1	navigation	Trial3	navigation/STIM_007.jpg
1680.889	3.318	1	navigation	Trial3	navigation/STIM_007.jpg
1687.148	3.05	1	navigation	Trial3	navigation/STIM_007.jpg
1692.935	2.861	1	navigation	Trial3	navigation/STIM_007.jpg
1699.063	2.266	1	navigation	Trial3	navigation/STIM_007.jpg
1703.276	2.482	1	navigation	Trial3	navigation/STIM_007.jpg
1708.613	3.518	1	navigation	Trial3	navigation/STIM_008.jpg
1715.491	3.186	0	navigation	Trial3	navigation/STIM_008.jpg
1721.073	1.661	1	navigation	Trial3	navigation/STIM_008.jpg
1726.561	2.839	1	navigation	Trial3	navigation/STIM_008.jpg
1731.16	2.606	1	navigation	Trial3	navigation/STIM_008.jpg
1736.304	3.626	1	navigation	Trial3	navigation/STIM_008.jpg
1742.065	3.83	1	navigation	Trial3	navigation/STIM_009.jpg
1747.777	3.01	1	navigation	Trial3	navigation/STIM_009.jpg
1753.165	1.975	1	navigation	Trial3	navigation/STIM_009.jpg
1757.413	1.576	1	navigation	Trial3	navigation/STIM_009.jpg
1761.14	2.188	1	navigation	Trial3	navigation/STIM_009.jpg
1765.698	3.046	0	navigation	Trial3	navigation/STIM_009.jpg
1771.545	2.041	1	navigation	Trial3	navigation/STIM_010.jpg
1775.883	1.944	1	navigation	Trial3	navigation/STIM_010.jpg
1780.226	2.217	1	navigation	Trial3	navigation/STIM_010.jpg
1785.63	3.428	1	navigation	Trial3	navigation/STIM_010.jpg
1791.971	3.376	1	navigation	Trial3	navigation/STIM_010.jpg
1798.26	2.39	1	navigation	Trial3	navigation/STIM_010.jpg
1804.212	2.565	1	navigation	Trial3	navigation/STIM_011.jpg
1809.419	3.148	1	navigation	Trial3	navigation/STIM_011.jpg
1815.16	1.699	1	navigation	Trial3	navigation/STIM_011.jpg
1820.67	2.644	0	navigation	Trial3	navigation/STIM_011.jpg
1826.816	2.199	0	navigation	Trial3	navigation/STIM_011.jpg
1832.088	2.285	1	navigation	Trial3	navigation/STIM_011.jpg
1836.761	1.513	1	pointing	Trial3	pointing/STIM_000.jpg
1840.465	1.291	0	pointing	Trial3	pointing/STIM_000.jpg
1845.661	0.932	1	pointing	Trial3	pointing/STIM_000.jpg
1849.824	1.496	1	pointing	Trial3	pointing/STIM_000.jpg
1853.129	0.932	1	pointing	Trial3	pointing/STIM_000.jpg
1856.45	1.06	0	pointing	Trial3	pointing/STIM_000.jpg
1860.782	1.614	1	pointing	Trial3	pointing/STIM_001.jpg
1866.046	1.164	0	pointing	Trial3	pointing/STIM_001.jpg
1870.411	1.151	1	pointing	Trial3	pointing/STIM_001.jpg
1875.152	1.38	1	pointing	Trial3	pointing/STIM_001.jpg
1880.125	1.468	1	pointing	Trial3	pointing/STIM_001.jpg
1884.425	1.364	1	pointing	Trial3	pointing/STIM_001.jpg
1889.54	1.002	1	pointing	Trial3	pointing/STIM_002.jpg
1893.116	1.481	1	pointing	Trial3	pointing/STIM_002.jpg
1898.264	1.212	1	pointing	Trial3	pointing/STIM_002.jpg
1902.236	0.962	1	pointing	Trial3	pointing/STIM_002.jpg
1906.682	1.384	1	pointing	Trial3	pointing/STIM_002.jpg
1910.863	1.033	1	pointing	Trial3	pointing/STIM_002.jpg
1915.117	1.572	1	pointing	Trial3	pointing/STIM_003.jpg
1919.641	1.177	1	pointing	Trial3	pointing/STIM_003.jpg
1923.451	1.14	0	pointing	Trial3	pointing/STIM_003.jpg
1927.1	1.428	1	pointing	Trial3	pointing/STIM_003.jpg
1930.922	1.358	1	pointing	Trial3	pointing/STIM_003.jpg
1935.663	1.58	1	pointing	Trial3	pointing/STIM_003.jpg
1939.958	0.95	0	pointing	Trial3	pointing/STIM_004.jpg
1944.239	1.281	1	pointing	Trial3	pointing/STIM_004.jpg
1947.858	1.16	1	pointing	Trial3	pointing/STIM_004.jpg
1952.344	1.283	1	pointing	Trial3	pointing/STIM_004.jpg
1957.007	1.146	0	pointing	Trial3	pointing/STIM_004.jpg
1961.889	1.323	1	pointing	Trial3	pointing/STIM_004.jpg
1966.812	1.692	1	pointing	Trial3	pointing/STIM_005.jpg
1972.034	0.882	1	pointing	Trial3	pointing/STIM_005.jpg
1975.02	1.141	1	pointing	Trial3	pointing/STIM_005.jpg
1978.716	1.618	1	pointing	Trial3	pointing/STIM_005.jpg
1983.914	1.604	1	pointing	Trial3	pointing/STIM_005.jpg
1988.853	1.521	1	pointing	Trial3	pointing/STIM_005.jpg
1993.167	1.528	1	pointing	Trial3	pointing/STIM_006.jpg
1997.575	1.617	1	pointing	Trial3	pointing/STIM_006.jpg
2001.169	1.67	1	pointing	Trial3	pointing/STIM_006.jpg
2005.244	1.522	1	pointing	Trial3	pointing/STIM_006.jpg
2010.176	1.586	1	pointing	Trial3	pointing/STIM_006.jpg
2014.399	1.633	1	pointing	Trial3	pointing/STIM_006.jpg
2018.025	1.561	0	pointing	Trial3	pointing/STIM_007.jpg
2021.98	1.63	1	pointing	Trial3	pointing/STIM_007.jpg
2026.103	1.259	1	pointing	Trial3	pointing/STIM_007.jpg
2030.673	1.628	1	pointing	Trial3	pointing/STIM_007.jpg
2035.26	0.974	1	pointing	Trial3	pointing/STIM_007.jpg
2038.776	1.539	1	pointing	Trial3	pointing/STIM_007.jpg
2042.949	1.605	0	pointing	Trial3	pointing/STIM_008.jpg
2046.888	1.24	1	pointing	Trial3	pointing/STIM_008.jpg
2050.702	1.508	1	pointing	Trial3	pointing/STIM_008.jpg
2054.374	0.98	1	pointing	Trial3	pointing/STIM_008.jpg
2058.015	0.815	1	pointing	Trial3	pointing/STIM_008.jpg
2061.38	1.146	1	pointing	Trial3	pointing/STIM_008.jpg
2065.126	1.284	1	pointing	Trial3	pointing/STIM_009.jpg
2069.798	1.287	1	pointing	Trial3	pointing/STIM_009.jpg
2073.077	1.227	0	pointing	Trial3	pointing/STIM_009.jpg
2076.898	1.351	1	pointing	Trial3	pointing/STIM_009.jpg
2080.355	1.505	1	pointing	Trial3	pointing/STIM_009.jpg
2085.687	1.178	1	pointing	Trial3	pointing/STIM_009.jpg
2090.712	1.464	1	pointing	Trial3	pointing/STIM_010.jpg
2095.428	0.988	1	pointing	Trial3	pointing/STIM_010.jpg
2100.018	1.214	0	pointing	Trial3	pointing/STIM_010.jpg
2103.647	1.602	1	pointing	Trial3	pointing/STIM_010.jpg
2107.519	1.412	1	pointing	Trial3	pointing/STIM_010.jpg
2112.693	1.647	1	pointing	Trial3	pointing/STIM_010.jpg
2118.129	1.221	1	pointing	Trial3	pointing/STIM_011.jpg
2123.109	0.986	1	pointing	Trial3	pointing/STIM_011.jpg
2127.115	1.003	1	pointing	Trial3	pointing/STIM_011.jpg
2130.12	1.179	1	pointing	Trial3	pointing/STIM_011.jpg
2133.697	1.683	1	pointing	Trial3	pointing/STIM_011.jpg
2138.004	1.389	1	pointing	Trial3	pointing/STIM_011.jpg
