onset	duration	response_time_ms	trial_type	learning_stage	stimulus	response_port
0.0	5.126	5126.1	navigation	Trial1	navigation/STIM_000.jpg	99
8.288	5.55	5550.0	navigation	Trial1	navigation/STIM_000.jpg	99
17.597	4.675	4675.4	navigation	Trial1	navigation/STIM_000.jpg	99
25.833	3.772	3771.6	navigation	Trial1	navigation/STIM_000.jpg	100
32.052	2.084	2084.0	navigation	Trial1	navigation/STIM_000.jpg	100
36.712	3.442	3441.7	navigation	Trial1	navigation/STIM_000.jpg	99
42.987	2.734	2734.3	navigation	Trial1	navigation/STIM_001.jpg	99
48.11	3.276	3275.8	navigation	Trial1	navigation/STIM_001.jpg	100
53.613	4.075	4074.9	navigation	Trial1	navigation/STIM_001.jpg	100
61.392	2.697	2697.1	navigation	Trial1	navigation/STIM_001.jpg	99
67.206	3.192	3192.3	navigation	Trial1	navigation/STIM_001.jpg	99
73.255	3.242	3241.7	navigation	Trial1	navigation/STIM_001.jpg	100
78.9	5.668	5668.0	navigation	Trial1	navigation/STIM_002.jpg	100
86.802	3.17	3170.1	navigation	Trial1	navigation/STIM_002.jpg	99
93.684	4.654	4654.5	navigation	Trial1	navigation/STIM_002.jpg	99
101.95	5.299	5299.3	navigation	Trial1	navigation/STIM_002.jpg	99
111.192	4.051	4050.5	navigation	Trial1	navigation/STIM_002.jpg	100
117.938	2.438	2438.5	navigation	Trial1	navigation/STIM_002.jpg	100
123.927	4.258	4258.4	navigation	Trial1	navigation/STIM_003.jpg	100
132.008	3.516	3515.6	navigation	Trial1	navigation/STIM_003.jpg	100
137.57	5.246	5245.5	navigation	Trial1	navigation/STIM_003.jpg	99
146.418	3.994	3994.4	navigation	Trial1	navigation/STIM_003.jpg	99
154.035	5.006	5005.6	navigation	Trial1	navigation/STIM_003.jpg	99
162.786	3.936	3935.8	navigation	Trial1	navigation/STIM_003.jpg	100
170.571	5.764	5764.5	navigation	Trial1	navigation/STIM_004.jpg	100
180.243	2.769	2768.6	navigation	Trial1	navigation/STIM_004.jpg	99
185.632	3.322	3322.3	navigation	Trial1	navigation/STIM_004.jpg	100
192.594	2.425	2425.4	navigation	Trial1	navigation/STIM_004.jpg	100
198.608	4.806	4805.5	navigation	Trial1	navigation/STIM_004.jpg	100
206.846	3.421	3420.9	navigation	Trial1	navigation/STIM_004.jpg	99
212.696	2.879	2879.0	navigation	Trial1	navigation/STIM_005.jpg	100
218.265	3.261	3261.4	navigation	Trial1	navigation/STIM_005.jpg	99
224.31	2.834	2833.5	navigation	Trial1	navigation/STIM_005.jpg	99
230.607	4.814	4814.0	navigation	Trial1	navigation/STIM_005.jpg	100
238.646	3.794	3793.5	navigation	Trial1	navigation/STIM_005.jpg	99
245.385	3.2	3199.6	navigation	Trial1	navigation/STIM_005.jpg	100
251.59	4.335	4335.1	navigation	Trial1	navigation/STIM_006.jpg	99
259.757	4.171	4171.3	navigation	Trial1	navigation/STIM_006.jpg	99
266.308	3.664	3664.4	navigation	Trial1	navigation/STIM_006.jpg	99
273.571	3.48	3480.0	navigation	Trial1	navigation/STIM_006.jpg	99
279.699	4.454	4454.5	navigation	Trial1	navigation/STIM_006.jpg	100
286.464	3.764	3763.5	navigation	Trial1	navigation/STIM_006.jpg	99
293.786	4.428	4427.9	navigation	Trial1	navigation/STIM_007.jpg	99
300.23	4.696	4695.5	navigation	Trial1	navigation/STIM_007.jpg	99
308.817	4.387	4386.6	navigation	Trial1	navigation/STIM_007.jpg	100
315.952	4.08	4079.5	navigation	Trial1	navigation/STIM_007.jpg	100
322.282	4.164	4164.3	navigation	Trial1	navigation/STIM_007.jpg	100
329.968	2.584	2584.3	navigation	Trial1	navigation/STIM_007.jpg	100
336.414	5.965	5964.9	navigation	Trial1	navigation/STIM_008.jpg	100
346.363	4.23	4230.4	navigation	Trial1	navigation/STIM_008.jpg	100
353.029	2.414	2413.8	navigation	Trial1	navigation/STIM_008.jpg	99
358.893	3.029	3029.3	navigation	Trial1	navigation/STIM_008.jpg	100
364.184	3.796	3795.7	navigation	Trial1	navigation/STIM_008.jpg	99
370.602	3.855	3855.4	navigation	Trial1	navigation/STIM_008.jpg	99
376.598	4.777	4777.0	navigation	Trial1	navigation/STIM_009.jpg	99
383.667	4.448	4447.9	navigation	Trial1	navigation/STIM_009.jpg	100
390.559	4.134	4134.5	navigation	Trial1	navigation/STIM_009.jpg	99
397.145	2.208	2208.4	navigation	Trial1	navigation/STIM_009.jpg	99
401.415	3.142	3141.7	navigation	Trial1	navigation/STIM_009.jpg	100
408.467	4.662	4662.1	navigation	Trial1	navigation/STIM_009.jpg	99
415.973	5.817	5816.8	navigation	Trial1	navigation/STIM_010.jpg	99
425.338	3.432	3431.8	navigation	Trial1	navigation/STIM_010.jpg	100
432.18	2.83	2830.0	navigation	Trial1	navigation/STIM_010.jpg	99
438.889	4.487	4486.9	navigation	Trial1	navigation/STIM_010.jpg	99
445.636	2.62	2620.4	navigation	Trial1	navigation/STIM_010.jpg	99
452.059	2.327	2326.8	navigation	Trial1	navigation/STIM_010.jpg	99
457.588	3.509	3508.8	navigation	Trial1	navigation/STIM_011.jpg	99
464.796	4.947	4946.6	navigation	Trial1	navigation/STIM_011.jpg	100
473.351	3.137	3136.6	navigation	Trial1	navigation/STIM_011.jpg	99
480.38	3.762	3762.2	navigation	Trial1	navigation/STIM_011.jpg	99
487.219	4.199	4199.2	navigation	Trial1	navigation/STIM_011.jpg	99
495.192	2.699	2698.8	navigation	Trial1	navigation/STIM_011.jpg	100
501.401	1.41	1409.5	pointing	Trial1	pointing/STIM_000.jpg	100
506.702	1.378	1377.9	pointing	Trial1	pointing/STIM_000.jpg	100
510.435	1.199	1198.8	pointing	Trial1	pointing/STIM_000.jpg	99
514.298	1.476	1476.2	pointing	Trial1	pointing/STIM_000.jpg	99
519.332	1.64	1640.1	pointing	Trial1	pointing/STIM_000.jpg	100
524.138	1.582	1581.5	pointing	Trial1	pointing/STIM_000.jpg	100
529.539	1.768	1767.6	pointing	Trial1	pointing/STIM_001.jpg	100
533.728	1.118	1117.5	pointing	Trial1	pointing/STIM_001.jpg	100
538.515	1.473	1473.3	pointing	Trial1	pointing/STIM_001.jpg	100
542.309	1.55	1549.9	pointing	Trial1	pointing/STIM_001.jpg	99
546.089	1.529	1528.8	pointing	Trial1	pointing/STIM_001.jpg	100
549.915	1.368	1367.6	pointing	Trial1	pointing/STIM_001.jpg	99
553.329	1.318	1317.5	pointing	Trial1	pointing/STIM_002.jpg	100
558.487	1.562	1562.4	pointing	Trial1	pointing/STIM_002.jpg	99
564.025	1.353	1352.7	pointing	Trial1	pointing/STIM_002.jpg	100
569.128	1.627	1627.3	pointing	Trial1	pointing/STIM_002.jpg	99
574.45	1.74	1739.5	pointing	Trial1	pointing/STIM_002.jpg	100
578.268	1.378	1377.8	pointing	Trial1	pointing/STIM_002.jpg	99
582.018	1.438	1438.0	pointing	Trial1	pointing/STIM_003.jpg	100
586.682	1.894	1894.0	pointing	Trial1	pointing/STIM_003.jpg	99
592.412	1.151	1151.2	pointing	Trial1	pointing/STIM_003.jpg	99
597.551	1.474	1474.5	pointing	Trial1	pointing/STIM_003.jpg	100
602.909	1.762	1761.7	pointing	Trial1	pointing/STIM_003.jpg	100
606.712	1.606	1605.9	pointing	Trial1	pointing/STIM_003.jpg	100
611.85	1.34	1339.6	pointing	Trial1	pointing/STIM_004.jpg	100
616.928	1.529	1528.6	pointing	Trial1	pointing/STIM_004.jpg	99
620.464	1.49	1490.2	pointing	Trial1	pointing/STIM_004.jpg	100
625.851	1.163	1162.7	pointing	Trial1	pointing/STIM_004.jpg	99
629.352	1.054	1054.4	pointing	Trial1	pointing/STIM_004.jpg	99
633.606	1.889	1888.7	pointing	Trial1	pointing/STIM_004.jpg	99
639.272	1.835	1834.7	pointing	Trial1	pointing/STIM_005.jpg	100
644.098	1.479	1479.2	pointing	Trial1	pointing/STIM_005.jpg	99
648.448	1.116	1115.5	pointing	Trial1	pointing/STIM_005.jpg	100
652.185	1.761	1760.8	pointing	Trial1	pointing/STIM_005.jpg	100
656.665	1.36	1359.7	pointing	Trial1	pointing/STIM_005.jpg	100
661.571	1.755	1754.9	pointing	Trial1	pointing/STIM_005.jpg	99
666.404	1.751	1750.9	pointing	Trial1	pointing/STIM_006.jpg	99
671.506	1.744	1743.9	pointing	Trial1	pointing/STIM_006.jpg	100
676.782	1.391	1390.9	pointing	Trial1	pointing/STIM_006.jpg	100
682.005	1.312	1312.2	pointing	Trial1	pointing/STIM_006.jpg	99
685.478	1.347	1347.2	pointing	Trial1	pointing/STIM_006.jpg	100
689.407	1.823	1822.8	pointing	Trial1	pointing/STIM_006.jpg	100
694.823	1.87	1869.6	pointing	Trial1	pointing/STIM_007.jpg	99
699.634	1.738	1737.9	pointing	Trial1	pointing/STIM_007.jpg	100
704.421	1.813	1813.2	pointing	Trial1	pointing/STIM_007.jpg	100
708.948	1.212	1212.4	pointing	Trial1	pointing/STIM_007.jpg	99
713.252	1.322	1322.4	pointing	Trial1	pointing/STIM_007.jpg	99
718.033	1.804	1804.3	pointing	Trial1	pointing/STIM_007.jpg	99
722.76	1.028	1027.7	pointing	Trial1	pointing/STIM_008.jpg	100
726.458	1.881	1880.6	pointing	Trial1	pointing/STIM_008.jpg	99
732.13	1.018	1017.7	pointing	Trial1	pointing/STIM_008.jpg	99
737.037	1.335	1334.8	pointing	Trial1	pointing/STIM_008.jpg	100
742.001	1.346	1345.7	pointing	Trial1	pointing/STIM_008.jpg	100
746.97	1.578	1577.8	pointing	Trial1	pointing/STIM_008.jpg	100
752.022	1.42	1419.7	pointing	Trial1	pointing/STIM_009.jpg	99
755.581	1.856	1855.7	pointing	Trial1	pointing/STIM_009.jpg	100
761.358	1.185	1185.3	pointing	Trial1	pointing/STIM_009.jpg	99
766.089	1.742	1742.5	pointing	Trial1	pointing/STIM_009.jpg	100
769.939	1.404	1403.7	pointing	Trial1	pointing/STIM_009.jpg	100
775.318	1.674	1674.2	pointing	Trial1	pointing/STIM_009.jpg	99
779.27	1.261	1261.4	pointing	Trial1	pointing/STIM_010.jpg	99
784.266	1.432	1432.2	pointing	Trial1	pointing/STIM_010.jpg	99
788.891	1.816	1816.5	pointing	Trial1	pointing/STIM_010.jpg	99
793.66	1.543	1542.7	pointing	Trial1	pointing/STIM_010.jpg	100
797.35	1.372	1372.4	pointing	Trial1	pointing/STIM_010.jpg	99
801.327	1.132	1131.5	pointing	Trial1	pointing/STIM_010.jpg	99
805.872	1.585	1584.7	pointing	Trial1	pointing/STIM_011.jpg	99
810.065	1.436	1436.1	pointing	Trial1	pointing/STIM_011.jpg	100
813.905	1.886	1885.8	pointing	Trial1	pointing/STIM_011.jpg	99
817.929	1.686	1686.5	pointing	Trial1	pointing/STIM_011.jpg	99
823.411	1.346	1346.4	pointing	Trial1	pointing/STIM_011.jpg	100
828.227	1.456	1456.5	pointing	Trial1	pointing/STIM_011.jpg	100
831.768	2.78	2780.3	navigation	Trial2	navigation/STIM_000.jpg	100
836.727	3.972	3972.0	navigation	Trial2	navigation/STIM_000.jpg	99
843.949	2.686	2686.3	navigation	Trial2	navigation/STIM_000.jpg	99
848.775	4.118	4118.0	navigation	Trial2	navigation/STIM_000.jpg	100
856.556	3.934	3934.5	navigation	Trial2	navigation/STIM_000.jpg	99
863.135	4.246	4246.4	navigation	Trial2	navigation/STIM_000.jpg	99
871.315	4.065	4064.9	navigation	Trial2	navigation/STIM_001.jpg	99
879.304	4.81	4809.8	navigation	Trial2	navigation/STIM_001.jpg	100
887.786	2.93	2929.9	navigation	Trial2	navigation/STIM_001.jpg	99
892.9	3.814	3813.8	navigation	Trial2	navigation/STIM_001.jpg	99
899.321	3.555	3554.7	navigation	Trial2	navigation/STIM_001.jpg	100
906.383	1.947	1947.4	navigation	Trial2	navigation/STIM_001.jpg	100
910.998	3.673	3672.7	navigation	Trial2	navigation/STIM_002.jpg	99
917.439	2.514	2513.8	navigation	Trial2	navigation/STIM_002.jpg	99
922.877	4.693	4692.8	navigation	Trial2	navigation/STIM_002.jpg	100
930.544	3.441	3441.1	navigation	Trial2	navigation/STIM_002.jpg	99
937.365	2.088	2088.2	navigation	Trial2	navigation/STIM_002.jpg	100
942.53	3.487	3487.1	navigation	Trial2	navigation/STIM_002.jpg	100
949.845	3.788	3788.2	navigation	Trial2	navigation/STIM_003.jpg	100
957.548	2.174	2173.5	navigation	Trial2	navigation/STIM_003.jpg	100
963.111	2.999	2998.7	navigation	Trial2	navigation/STIM_003.jpg	99
969.717	3.044	3044.2	navigation	Trial2	navigation/STIM_003.jpg	99
975.448	2.977	2977.3	navigation	Trial2	navigation/STIM_003.jpg	100
981.057	1.972	1971.7	navigation	Trial2	navigation/STIM_003.jpg	100
985.31	3.836	3836.4	navigation	Trial2	navigation/STIM_004.jpg	100
992.907	2.514	2513.7	navigation	Trial2	navigation/STIM_004.jpg	100
999.149	4.445	4445.2	navigation	Trial2	navigation/STIM_004.jpg	100
1006.431	3.76	3760.4	navigation	Trial2	navigation/STIM_004.jpg	100
1012.782	2.018	2017.8	navigation	Trial2	navigation/STIM_004.jpg	99
1017.186	2.922	2921.9	navigation	Trial2	navigation/STIM_004.jpg	99
1022.723	3.132	3132.4	navigation	Trial2	navigation/STIM_005.jpg	100
1027.987	3.594	3593.8	navigation	Trial2	navigation/STIM_005.jpg	99
1035.248	4.628	4627.6	navigation	Trial2	navigation/STIM_005.jpg	99
1043.717	3.966	3965.5	navigation	Trial2	navigation/STIM_005.jpg	100
1051.516	3.74	3740.1	navigation	Trial2	navigation/STIM_005.jpg	99
1058.086	2.684	2683.6	navigation	Trial2	navigation/STIM_005.jpg	100
1063.875	4.243	4243.3	navigation	Trial2	navigation/STIM_006.jpg	99
1071.629	2.616	2616.4	navigation	Trial2	navigation/STIM_006.jpg	100
1078.094	2.736	2735.5	navigation	Trial2	navigation/STIM_006.jpg	100
1083.286	4.069	4069.0	navigation	Trial2	navigation/STIM_006.jpg	99
1091.118	1.843	1843.3	navigation	Trial2	navigation/STIM_006.jpg	99
1096.731	1.881	1881.4	navigation	Trial2	navigation/STIM_006.jpg	99
1101.451	3.824	3823.6	navigation	Trial2	navigation/STIM_007.jpg	99
1107.68	3.38	3379.7	navigation	Trial2	navigation/STIM_007.jpg	99
1114.205	4.326	4325.7	navigation	Trial2	navigation/STIM_007.jpg	99
1121.596	3.115	3114.9	navigation	Trial2	navigation/STIM_007.jpg	99
1126.986	3.554	3553.8	navigation	Trial2	navigation/STIM_007.jpg	99
1134.394	2.925	2925.2	navigation	Trial2	navigation/STIM_007.jpg	99
1140.873	2.256	2255.8	navigation	Trial2	navigation/STIM_008.jpg	100
1145.532	2.184	2183.9	navigation	Trial2	navigation/STIM_008.jpg	99
1150.004	3.598	3598.5	navigation	Trial2	navigation/STIM_008.jpg	99
1156.611	2.646	2645.6	navigation	Trial2	navigation/STIM_008.jpg	100
1162.776	3.281	3281.3	navigation	Trial2	navigation/STIM_008.jpg	100
1168.149	2.143	2143.3	navigation	Trial2	navigation/STIM_008.jpg	99
1174.092	5.134	5134.5	navigation	Trial2	navigation/STIM_009.jpg	99
1181.316	4.585	4585.1	navigation	Trial2	navigation/STIM_009.jpg	100
1188.678	4.717	4716.8	navigation	Trial2	navigation/STIM_009.jpg	100
1195.784	2.227	2227.2	navigation	Trial2	navigation/STIM_009.jpg	99
1201.345	3.804	3803.6	navigation	Trial2	navigation/STIM_009.jpg	99
1207.433	4.022	4022.5	navigation	Trial2	navigation/STIM_009.jpg	100
1214.189	3.791	3790.7	navigation	Trial2	navigation/STIM_010.jpg	100
1220.147	2.049	2049.3	navigation	Trial2	navigation/STIM_010.jpg	100
1224.405	3.117	3117.2	navigation	Trial2	navigation/STIM_010.jpg	100
1231.224	3.562	3562.0	navigation	Trial2	navigation/STIM_010.jpg	99
1236.887	2.944	2943.6	navigation	Trial2	navigation/STIM_010.jpg	100
1243.428	2.822	2822.3	navigation	Trial2	navigation/STIM_010.jpg	99
1249.849	2.15	2150.3	navigation	Trial2	navigation/STIM_011.jpg	100
1254.027	2.888	2887.6	navigation	Trial2	navigation/STIM_011.jpg	99
1259.671	2.38	2380.0	navigation	Trial2	navigation/STIM_011.jpg	99
1265.71	2.547	2547.0	navigation	Trial2	navigation/STIM_011.jpg	99
1270.791	2.26	2259.8	navigation	Trial2	navigation/STIM_011.jpg	99
1275.88	2.126	2126.4	navigation	Trial2	navigation/STIM_011.jpg	99
1281.093	1.244	1244.1	pointing	Trial2	pointing/STIM_000.jpg	99
1284.931	1.535	1535.3	pointing	Trial2	pointing/STIM_000.jpg	100
1288.739	1.595	1595.3	pointing	Trial2	pointing/STIM_000.jpg	100
1293.336	1.207	1207.4	pointing	Trial2	pointing/STIM_000.jpg	99
1297.267	1.133	1133.0	pointing	Trial2	pointing/STIM_000.jpg	99
1302.177	1.578	1577.8	pointing	Trial2	pointing/STIM_000.jpg	100
1307.167	1.382	1381.9	pointing	Trial2	pointing/STIM_001.jpg	99
1311.076	1.587	1586.6	pointing	Trial2	pointing/STIM_001.jpg	99
1315.107	1.017	1017.4	pointing	Trial2	pointing/STIM_001.jpg	99
1318.306	1.409	1409.2	pointing	Trial2	pointing/STIM_001.jpg	100
1322.806	1.326	1325.5	pointing	Trial2	pointing/STIM_001.jpg	99
1326.65	1.108	1108.0	pointing	Trial2	pointing/STIM_001.jpg	99
1330.095	1.322	1322.2	pointing	Trial2	pointing/STIM_002.jpg	99
1335.381	1.277	1277.1	pointing	Trial2	pointing/STIM_002.jpg	100
1340.277	1.776	1776.5	pointing	Trial2	pointing/STIM_002.jpg	99
1345.663	1.721	1721.2	pointing	Trial2	pointing/STIM_002.jpg	100
1350.025	1.698	1698.2	pointing	Trial2	pointing/STIM_002.jpg	100
1354.883	1.179	1179.4	pointing	Trial2	pointing/STIM_002.jpg	99
1359.383	1.12	1119.5	pointing	Trial2	pointing/STIM_003.jpg	100
1362.928	1.597	1597.1	pointing	Trial2	pointing/STIM_003.jpg	99
1366.576	1.652	1651.7	pointing	Trial2	pointing/STIM_003.jpg	99
1371.497	1.413	1413.1	pointing	Trial2	pointing/STIM_003.jpg	99
1375.784	1.258	1258.0	pointing	Trial2	pointing/STIM_003.jpg	100
1379.591	1.49	1489.6	pointing	Trial2	pointing/STIM_003.jpg	99
1383.831	1.882	1882.0	pointing	Trial2	pointing/STIM_004.jpg	100
1389.341	1.517	1517.3	pointing	Trial2	pointing/STIM_004.jpg	100
1394.474	1.758	1757.6	pointing	Trial2	pointing/STIM_004.jpg	100
1398.999	1.823	1823.2	pointing	Trial2	pointing/STIM_004.jpg	100
1404.002	1.226	1225.6	pointing	Trial2	pointing/STIM_004.jpg	99
1407.453	1.758	1757.6	pointing	Trial2	pointing/STIM_004.jpg	100
1412.049	1.562	1561.5	pointing	Trial2	pointing/STIM_005.jpg	100
1417.409	1.224	1223.9	pointing	Trial2	pointing/STIM_005.jpg	100
1421.978	1.739	1739.0	pointing	Trial2	pointing/STIM_005.jpg	99
1427.328	1.14	1140.0	pointing	Trial2	pointing/STIM_005.jpg	99
1430.641	1.149	1148.7	pointing	Trial2	pointing/STIM_005.jpg	99
1434.243	1.742	1742.4	pointing	Trial2	pointing/STIM_005.jpg	99
1439.752	1.678	1678.0	pointing	Trial2	pointing/STIM_006.jpg	99
1444.35	1.832	1832.0	pointing	Trial2	pointing/STIM_006.jpg	100
1449.502	1.138	1137.8	pointing	Trial2	pointing/STIM_006.jpg	99
1454.159	1.195	1195.0	pointing	Trial2	pointing/STIM_006.jpg	100
1458.25	1.51	1509.6	pointing	Trial2	pointing/STIM_006.jpg	100
1463.507	1.073	1072.7	pointing	Trial2	pointing/STIM_006.jpg	99
1467.954	1.814	1814.4	pointing	Trial2	pointing/STIM_007.jpg	99
1473.261	1.577	1577.2	pointing	Trial2	pointing/STIM_007.jpg	99
1476.994	1.411	1411.0	pointing	Trial2	pointing/STIM_007.jpg	100
1480.538	1.367	1367.4	pointing	Trial2	pointing/STIM_007.jpg	99
1485.134	1.573	1573.2	pointing	Trial2	pointing/STIM_007.jpg	99
1489.68	1.522	1522.5	pointing	Trial2	pointing/STIM_007.jpg	99
1494.539	1.458	1457.9	pointing	Trial2	pointing/STIM_008.jpg	99
1499.49	1.818	1818.0	pointing	Trial2	pointing/STIM_008.jpg	99
1503.746	1.168	1168.3	pointing	Trial2	pointing/STIM_008.jpg	100
1508.131	1.656	1655.7	pointing	Trial2	pointing/STIM_008.jpg	99
1512.009	1.435	1434.8	pointing	Trial2	pointing/STIM_008.jpg	100
1516.591	1.448	1447.5	pointing	Trial2	pointing/STIM_008.jpg	99
1520.091	1.232	1231.5	pointing	Trial2	pointing/STIM_009.jpg	100
1524.707	1.489	1488.9	pointing	Trial2	pointing/STIM_009.jpg	100
1528.438	1.5	1500.2	pointing	Trial2	pointing/STIM_009.jpg	100
1533.811	1.478	1478.2	pointing	Trial2	pointing/STIM_009.jpg	99
1538.297	1.753	1753.4	pointing	Trial2	pointing/STIM_009.jpg	99
1542.08	1.134	1134.3	pointing	Trial2	pointing/STIM_009.jpg	100
1545.647	1.761	1761.3	pointing	Trial2	pointing/STIM_010.jpg	100
1550.496	1.208	1207.8	pointing	Trial2	pointing/STIM_010.jpg	100
1553.74	1.72	1719.7	pointing	Trial2	pointing/STIM_010.jpg	99
1557.791	1.784	1784.1	pointing	Trial2	pointing/STIM_010.jpg	99
1562.77	1.887	1886.6	pointing	Trial2	pointing/STIM_010.jpg	99
1567.441	1.341	1341.2	pointing	Trial2	pointing/STIM_010.jpg	100
1572.383	1.218	1217.8	pointing	Trial2	pointing/STIM_011.jpg	99
1577.329	1.642	1642.0	pointing	Trial2	pointing/STIM_011.jpg	100
1581.123	1.561	1561.4	pointing	Trial2	pointing/STIM_011.jpg	99
1586.272	1.363	1363.1	pointing	Trial2	pointing/STIM_011.jpg	99
1590.382	1.174	1173.5	pointing	Trial2	pointing/STIM_011.jpg	99
1595.52	1.023	1023.4	pointing	Trial2	pointing/STIM_011.jpg	100
1599.465	3.56	3559.7	navigation	Trial3	navigation/STIM_000.jpg	99
1606.017	1.869	1869.0	navigation	Trial3	navigation/STIM_000.jpg	100
1610.805	2.518	2517.7	navigation	Trial3	navigation/STIM_000.jpg	99
1616.659	2.857	2856.9	navigation	Trial3	navigation/STIM_000.jpg	99
1622.417	1.772	1772.4	navigation	Trial3	navigation/STIM_000.jpg	99
1626.7	1.803	1802.6	navigation	Trial3	navigation/STIM_000.jpg	100
1630.835	3.984	3984.3	navigation	Trial3	navigation/STIM_001.jpg	99
1638.595	3.54	3540.4	navigation	Trial3	navigation/STIM_001.jpg	100
1645.273	4.122	4121.5	navigation	Trial3	navigation/STIM_001.jpg	100
1652.921	2.08	2080.2	navigation	Trial3	navigation/STIM_001.jpg	99
1658.202	3.793	3792.7	navigation	Trial3	navigation/STIM_001.jpg	99
1665.187	3.467	3467.4	navigation	Trial3	navigation/STIM_001.jpg	100
1671.234	2.091	2091.4	navigation	Trial3	navigation/STIM_002.jpg	100
1675.738	3.228	3228.2	navigation	Trial3	navigation/STIM_002.jpg	99
1682.116	2.183	2183.2	navigation	Trial3	navigation/STIM_002.jpg	99
1687.774	4.261	4261.3	navigation	Trial3	navigation/STIM_002.jpg	99
1695.855	1.948	1947.6	navigation	Trial3	navigation/STIM_002.jpg	99
1701.761	1.856	1856.2	navigation	Trial3	navigation/STIM_002.jpg	99
1707.138	1.989	1989.4	navigation	Trial3	navigation/STIM_003.jpg	99
1711.877	3.709	3709.0	navigation	Trial3	navigation/STIM_003.jpg	100
1718.334	3.043	3042.8	navigation	Trial3	navigation/STIM_003.jpg	100
1724.211	4.278	4278.0	navigation	Trial3	navigation/STIM_003.jpg	99
1731.77	1.806	1806.0	navigation	Trial3	navigation/STIM_003.jpg	99
1737.093	2.761	2761.1	navigation	Trial3	navigation/STIM_003.jpg	100
1743.063	2.714	2713.8	navigation	Trial3	navigation/STIM_004.jpg	99
1748.152	1.811	1810.7	navigation	Trial3	navigation/STIM_004.jpg	100
1753.305	4.395	4395.3	navigation	Trial3	navigation/STIM_004.jpg	99
1761.681	2.541	2541.2	navigation	Trial3	navigation/STIM_004.jpg	99
1766.644	2.165	2164.6	navigation	Trial3	navigation/STIM_004.jpg	100
1772.496	3.836	3835.5	navigation	Trial3	navigation/STIM_004.jpg	100
1780.037	2.207	2206.8	navigation	Trial3	navigation/STIM_005.jpg	99
1785.533	3.901	3901.2	navigation	Trial3	navigation/STIM_005.jpg	100
1792.625	3.362	3361.8	navigation	Trial3	navigation/STIM_005.jpg	99
1799.693	4.375	4374.8	navigation	Trial3	navigation/STIM_005.jpg	99
1807.667	4.053	4052.9	navigation	Trial3	navigation/STIM_005.jpg	100
1813.845	2.999	2999.4	navigation	Trial3	navigation/STIM_005.jpg	99
1819.898	3.187	3187.2	navigation	Trial3	navigation/STIM_006.jpg	99
1826.337	2.12	2120.4	navigation	Trial3	navigation/STIM_006.jpg	99
1830.861	3.327	3327.2	navigation	Trial3	navigation/STIM_006.jpg	100
1836.436	2.165	2165.0	navigation	Trial3	navigation/STIM_006.jpg	99
1842.345	3.784	3783.9	navigation	Trial3	navigation/STIM_006.jpg	99
1849.631	3.978	3977.6	navigation	Trial3	navigation/STIM_006.jpg	100
1857.348	3.382	3381.9	navigation	Trial3	navigation/STIM_007.jpg	100
1863.817	3.14	3139.7	navigation	Trial3	navigation/STIM_007.jpg	99
1870.542	2.344	2344.0	navigation	Trial3	navigation/STIM_007.jpg	100
1875.02	3.043	3043.2	navigation	Trial3	navigation/STIM_007.jpg	100
1880.481	2.067	2066.7	navigation	Trial3	navigation/STIM_007.jpg	100
1885.339	2.141	2141.0	navigation	Trial3	navigation/STIM_007.jpg	100
1890.645	4.297	4297.2	navigation	Trial3	navigation/STIM_008.jpg	99
1898.188	2.441	2441.1	navigation	Trial3	navigation/STIM_008.jpg	99
1903.66	3.548	3548.0	navigation	Trial3	navigation/STIM_008.jpg	100
1910.585	2.986	2986.1	navigation	Trial3	navigation/STIM_008.jpg	99
1917.528	3.878	3877.5	navigation	Trial3	navigation/STIM_008.jpg	100
1925.292	2.085	2084.9	navigation	Trial3	navigation/STIM_008.jpg	100
1929.607	2.259	2259.2	navigation	Trial3	navigation/STIM_009.jpg	99
1934.278	2.122	2121.6	navigation	Trial3	navigation/STIM_009.jpg	99
1940.309	4.416	4416.2	navigation	Trial3	navigation/STIM_009.jpg	100
1947.608	3.128	3128.4	navigation	Trial3	navigation/STIM_009.jpg	100
1953.62	2.338	2337.9	navigation	Trial3	navigation/STIM_009.jpg	99
1959.609	2.194	2194.0	navigation	Trial3	navigation/STIM_009.jpg	100
1965.343	3.809	3809.0	navigation	Trial3	navigation/STIM_010.jpg	99
1971.763	3.437	3437.1	navigation	Trial3	navigation/STIM_010.jpg	100
1978.739	4.107	4106.9	navigation	Trial3	navigation/STIM_010.jpg	99
1986.089	2.035	2035.2	navigation	Trial3	navigation/STIM_010.jpg	99
1991.14	2.469	2469.0	navigation	Trial3	navigation/STIM_010.jpg	99
1997.598	3.62	3619.8	navigation	Trial3	navigation/STIM_010.jpg	99
2004.408	2.838	2838.0	navigation	Trial3	navigation/STIM_011.jpg	100
2009.274	3.053	3052.8	navigation	Trial3	navigation/STIM_011.jpg	100
2015.573	3.801	3801.2	navigation	Trial3	navigation/STIM_011.jpg	100
2022.238	3.169	3168.8	navigation	Trial3	navigation/STIM_011.jpg	99
2028.199	2.831	2831.1	navigation	Trial3	navigation/STIM_011.jpg	100
2034.427	1.939	1938.6	navigation	Trial3	navigation/STIM_011.jpg	100
2039.414	1.367	1367.0	pointing	Trial3	pointing/STIM_000.jpg	100
2043.588	1.239	1239.0	pointing	Trial3	pointing/STIM_000.jpg	100
2047.193	1.263	1263.4	pointing	Trial3	pointing/STIM_000.jpg	99
2050.991	1.466	1465.6	pointing	Trial3	pointing/STIM_000.jpg	100
2054.921	1.797	1796.7	pointing	Trial3	pointing/STIM_000.jpg	99
2058.768	1.705	1704.7	pointing	Trial3	pointing/STIM_000.jpg	99
2062.753	1.249	1248.8	pointing	Trial3	pointing/STIM_001.jpg	99
2067.8	1.162	1162.3	pointing	Trial3	pointing/STIM_001.jpg	99
2072.932	1.449	1449.2	pointing	Trial3	pointing/STIM_001.jpg	99
2077.85	1.122	1122.5	pointing	Trial3	pointing/STIM_001.jpg	99
2081.503	1.749	1749.4	pointing	Trial3	pointing/STIM_001.jpg	99
2086.664	1.738	1737.7	pointing	Trial3	pointing/STIM_001.jpg	99
2091.389	1.594	1594.3	pointing	Trial3	pointing/STIM_002.jpg	99
2095.716	1.769	1769.1	pointing	Trial3	pointing/STIM_002.jpg	99
2099.549	1.384	1384.2	pointing	Trial3	pointing/STIM_002.jpg	99
2104.78	1.602	1601.9	pointing	Trial3	pointing/STIM_002.jpg	99
2109.864	1.29	1290.4	pointing	Trial3	pointing/STIM_002.jpg	99
2113.719	1.662	1661.9	pointing	Trial3	pointing/STIM_002.jpg	99
2119.039	1.729	1728.6	pointing	Trial3	pointing/STIM_003.jpg	99
2123.042	1.098	1097.7	pointing	Trial3	pointing/STIM_003.jpg	99
2127.969	1.154	1153.9	pointing	Trial3	pointing/STIM_003.jpg	100
2131.792	1.652	1652.0	pointing	Trial3	pointing/STIM_003.jpg	100
2136.851	1.45	1449.5	pointing	Trial3	pointing/STIM_003.jpg	99
2140.66	1.708	1708.4	pointing	Trial3	pointing/STIM_003.jpg	99
2145.895	1.589	1589.0	pointing	Trial3	pointing/STIM_004.jpg	100
2151.455	1.84	1840.5	pointing	Trial3	pointing/STIM_004.jpg	100
2156.727	1.443	1442.9	pointing	Trial3	pointing/STIM_004.jpg	100
2160.933	1.477	1477.0	pointing	Trial3	pointing/STIM_004.jpg	100
2164.429	1.296	1295.9	pointing	Trial3	pointing/STIM_004.jpg	99
2168.574	1.328	1328.4	pointing	Trial3	pointing/STIM_004.jpg	100
2172.563	1.52	1520.3	pointing	Trial3	pointing/STIM_005.jpg	99
2177.873	1.28	1280.0	pointing	Trial3	pointing/STIM_005.jpg	99
2181.761	1.206	1206.0	pointing	Trial3	pointing/STIM_005.jpg	100
2185.471	1.855	1854.8	pointing	Trial3	pointing/STIM_005.jpg	99
2190.029	1.828	1827.6	pointing	Trial3	pointing/STIM_005.jpg	99
2193.926	1.528	1528.2	pointing	Trial3	pointing/STIM_005.jpg	100
2198.152	1.428	1427.8	pointing	Trial3	pointing/STIM_006.jpg	99
2202.995	1.112	1112.5	pointing	Trial3	pointing/STIM_006.jpg	99
2206.629	1.537	1537.2	pointing	Trial3	pointing/STIM_006.jpg	100
2210.275	1.505	1505.2	pointing	Trial3	pointing/STIM_006.jpg	100
2214.55	1.526	1525.6	pointing	Trial3	pointing/STIM_006.jpg	99
2218.366	1.02	1020.0	pointing	Trial3	pointing/STIM_006.jpg	100
2222.528	1.482	1482.3	pointing	Trial3	pointing/STIM_007.jpg	99
2226.444	1.152	1152.1	pointing	Trial3	pointing/STIM_007.jpg	99
2231.485	1.618	1618.1	pointing	Trial3	pointing/STIM_007.jpg	99
2236.946	1.856	1856.3	pointing	Trial3	pointing/STIM_007.jpg	99
2241.901	1.88	1880.4	pointing	Trial3	pointing/STIM_007.jpg	99
2247.499	1.809	1808.7	pointing	Trial3	pointing/STIM_007.jpg	100
2251.919	1.499	1498.9	pointing	Trial3	pointing/STIM_008.jpg	99
2256.328	1.876	1876.1	pointing	Trial3	pointing/STIM_008.jpg	100
2261.259	1.064	1063.9	pointing	Trial3	pointing/STIM_008.jpg	100
2266.122	1.036	1035.8	pointing	Trial3	pointing/STIM_008.jpg	99
2270.163	1.496	1495.6	pointing	Trial3	pointing/STIM_008.jpg	100
2273.992	1.784	1784.3	pointing	Trial3	pointing/STIM_008.jpg	99
2277.866	1.724	1724.4	pointing	Trial3	pointing/STIM_009.jpg	99
2283.475	1.393	1393.2	pointing	Trial3	pointing/STIM_009.jpg	100
2287.924	1.798	1797.8	pointing	Trial3	pointing/STIM_009.jpg	99
2291.802	1.156	1156.3	pointing	Trial3	pointing/STIM_009.jpg	100
2296.839	1.635	1634.8	pointing	Trial3	pointing/STIM_009.jpg	99
2301.733	1.182	1181.9	pointing	Trial3	pointing/STIM_009.jpg	99
2305.159	1.604	1604.2	pointing	Trial3	pointing/STIM_010.jpg	99
2309.424	1.467	1467.1	pointing	Trial3	pointing/STIM_010.jpg	100
2314.859	1.603	1602.7	pointing	Trial3	pointing/STIM_010.jpg	99
2320.207	1.406	1406.0	pointing	Trial3	pointing/STIM_010.jpg	100
2325.288	1.209	1209.0	pointing	Trial3	pointing/STIM_010.jpg	100
2329.607	1.864	1863.6	pointing	Trial3	pointing/STIM_010.jpg	100
2335.091	1.349	1349.3	pointing	Trial3	pointing/STIM_011.jpg	100
2339.528	1.843	1843.3	pointing	Trial3	pointing/STIM_011.jpg	99
2345.046	1.69	1689.9	pointing	Trial3	pointing/STIM_011.jpg	99
2350.708	1.815	1814.8	pointing	Trial3	pointing/STIM_011.jpg	100
2354.797	1.464	1463.5	pointing	Trial3	pointing/STIM_011.jpg	100
2360.063	1.675	1675.2	pointing	Trial3	pointing/STIM_011.jpg	99
