onset	duration	response_time_ms	trial_type	learning_stage	stimulus	response_port
0.0	4.002	4002.1	navigation	Trial1	navigation/STIM_000.jpg	99
7.249	2.376	2375.9	navigation	Trial1	navigation/STIM_000.jpg	99
12.952	3.837	3836.9	navigation	Trial1	navigation/STIM_000.jpg	99
20.129	2.319	2318.7	navigation	Trial1	navigation/STIM_000.jpg	100
25.132	3.102	3102.2	navigation	Trial1	navigation/STIM_000.jpg	100
30.853	3.188	3187.5	navigation	Trial1	navigation/STIM_000.jpg	99
36.284	4.269	4269.2	navigation	Trial1	navigation/STIM_001.jpg	99
42.93	3.498	3497.9	navigation	Trial1	navigation/STIM_001.jpg	100
49.928	4.253	4252.6	navigation	Trial1	navigation/STIM_001.jpg	100
56.593	4.56	4559.6	navigation	Trial1	navigation/STIM_001.jpg	99
63.424	1.914	1913.5	navigation	Trial1	navigation/STIM_001.jpg	99
67.285	3.199	3198.7	navigation	Trial1	navigation/STIM_001.jpg	100
72.634	4.676	4675.6	navigation	Trial1	navigation/STIM_002.jpg	100
79.099	2.361	2360.7	navigation	Trial1	navigation/STIM_002.jpg	99
84.324	2.281	2281.2	navigation	Trial1	navigation/STIM_002.jpg	99
90.094	3.657	3657.0	navigation	Trial1	navigation/STIM_002.jpg	99
96.45	4.257	4256.9	navigation	Trial1	navigation/STIM_002.jpg	100
103.544	1.761	1761.3	navigation	Trial1	navigation/STIM_002.jpg	100
108.045	4.102	4102.1	navigation	Trial1	navigation/STIM_003.jpg	100
115.808	4.779	4779.1	navigation	Trial1	navigation/STIM_003.jpg	100
123.072	3.148	3148.2	navigation	Trial1	navigation/STIM_003.jpg	99
128.344	3.454	3453.6	navigation	Trial1	navigation/STIM_003.jpg	99
134.373	4.03	4029.8	navigation	Trial1	navigation/STIM_003.jpg	99
140.41	2.349	2349.2	navigation	Trial1	navigation/STIM_003.jpg	100
146.443	4.933	4932.9	navigation	Trial1	navigation/STIM_004.jpg	100
154.266	4.056	4056.2	navigation	Trial1	navigation/STIM_004.jpg	99
161.196	2.844	2843.9	navigation	Trial1	navigation/STIM_004.jpg	100
167.205	3.864	3864.1	navigation	Trial1	navigation/STIM_004.jpg	100
173.623	4.198	4197.6	navigation	Trial1	navigation/STIM_004.jpg	100
181.282	3.922	3921.9	navigation	Trial1	navigation/STIM_004.jpg	99
187.633	5.326	5326.2	navigation	Trial1	navigation/STIM_005.jpg	100
195.265	2.802	2802.0	navigation	Trial1	navigation/STIM_005.jpg	99
200.513	3.88	3880.4	navigation	Trial1	navigation/STIM_005.jpg	99
206.061	3.174	3174.1	navigation	Trial1	navigation/STIM_005.jpg	100
212.417	4.031	4031.1	navigation	Trial1	navigation/STIM_005.jpg	99
218.694	3.941	3940.8	navigation	Trial1	navigation/STIM_005.jpg	100
225.572	5.195	5194.6	navigation	Trial1	navigation/STIM_006.jpg	99
233.09	4.844	4844.2	navigation	Trial1	navigation/STIM_006.jpg	99
241.028	3.833	3833.1	navigation	Trial1	navigation/STIM_006.jpg	99
246.97	4.183	4183.0	navigation	Trial1	navigation/STIM_006.jpg	99
253.539	3.613	3612.7	navigation	Trial1	navigation/STIM_006.jpg	100
259.846	4.06	4059.6	navigation	Trial1	navigation/STIM_006.jpg	99
266.334	4.527	4527.0	navigation	Trial1	navigation/STIM_007.jpg	99
273.221	4.454	4454.4	navigation	Trial1	navigation/STIM_007.jpg	99
280.258	4.858	4857.7	navigation	Trial1	navigation/STIM_007.jpg	100
287.671	3.623	3622.6	navigation	Trial1	navigation/STIM_007.jpg	100
294.423	3.101	3100.9	navigation	Trial1	navigation/STIM_007.jpg	100
300.305	3.002	3001.9	navigation	Trial1	navigation/STIM_007.jpg	100
306.826	5.39	5389.9	navigation	Trial1	navigation/STIM_008.jpg	100
315.248	3.624	3623.9	navigation	Trial1	navigation/STIM_008.jpg	100
322.396	2.93	2929.6	navigation	Trial1	navigation/STIM_008.jpg	99
327.37	2.902	2902.1	navigation	Trial1	navigation/STIM_008.jpg	100
332.074	3.034	3034.4	navigation	Trial1	navigation/STIM_008.jpg	99
338.521	1.63	1630.3	navigation	Trial1	navigation/STIM_008.jpg	99
343.459	3.047	3046.7	navigation	Trial1	navigation/STIM_009.jpg	99
348.522	2.723	2723.2	navigation	Trial1	navigation/STIM_009.jpg	100
354.901	4.98	4979.7	navigation	Trial1	navigation/STIM_009.jpg	99
361.842	2.275	2275.4	navigation	Trial1	navigation/STIM_009.jpg	99
367.644	3.252	3252.4	navigation	Trial1	navigation/STIM_009.jpg	100
373.211	1.983	1983.3	navigation	Trial1	navigation/STIM_009.jpg	99
377.41	3.831	3831.4	navigation	Trial1	navigation/STIM_010.jpg	99
383.609	3.415	3415.4	navigation	Trial1	navigation/STIM_010.jpg	100
389.148	4.339	4339.4	navigation	Trial1	navigation/STIM_010.jpg	99
395.921	2.977	2976.8	navigation	Trial1	navigation/STIM_010.jpg	99
401.87	2.291	2291.0	navigation	Trial1	navigation/STIM_010.jpg	99
405.998	3.738	3738.0	navigation	Trial1	navigation/STIM_010.jpg	99
411.682	2.838	2837.5	navigation	Trial1	navigation/STIM_011.jpg	99
416.539	4.149	4149.1	navigation	Trial1	navigation/STIM_011.jpg	100
424.233	4.607	4607.4	navigation	Trial1	navigation/STIM_011.jpg	99
431.787	2.976	2976.4	navigation	Trial1	navigation/STIM_011.jpg	99
437.047	2.331	2331.2	navigation	Trial1	navigation/STIM_011.jpg	99
442.5	3.564	3564.2	navigation	Trial1	navigation/STIM_011.jpg	100
449.501	1.21	1209.8	pointing	Trial1	pointing/STIM_000.jpg	100
454.598	1.096	1096.0	pointing	Trial1	pointing/STIM_000.jpg	100
458.267	1.632	1632.0	pointing	Trial1	pointing/STIM_000.jpg	99
463.676	1.361	1360.6	pointing	Trial1	pointing/STIM_000.jpg	99
467.604	1.156	1155.9	pointing	Trial1	pointing/STIM_000.jpg	100
471.367	1.292	1292.0	pointing	Trial1	pointing/STIM_000.jpg	100
476.365	1.459	1459.4	pointing	Trial1	pointing/STIM_001.jpg	100
480.748	1.566	1566.4	pointing	Trial1	pointing/STIM_001.jpg	100
485.43	0.974	974.3	pointing	Trial1	pointing/STIM_001.jpg	100
489.018	0.955	954.8	pointing	Trial1	pointing/STIM_001.jpg	99
492.787	0.942	942.3	pointing	Trial1	pointing/STIM_001.jpg	100
497.314	1.238	1238.4	pointing	Trial1	pointing/STIM_001.jpg	99
502.172	1.192	1192.3	pointing	Trial1	pointing/STIM_002.jpg	100
506.62	1.46	1459.8	pointing	Trial1	pointing/STIM_002.jpg	99
511.34	0.933	933.2	pointing	Trial1	pointing/STIM_002.jpg	100
515.684	0.941	940.6	pointing	Trial1	pointing/STIM_002.jpg	99
520.443	1.42	1420.4	pointing	Trial1	pointing/STIM_002.jpg	100
523.882	1.287	1287.4	pointing	Trial1	pointing/STIM_002.jpg	99
527.142	0.915	915.3	pointing	Trial1	pointing/STIM_003.jpg	100
531.921	1.434	1433.9	pointing	Trial1	pointing/STIM_003.jpg	99
535.332	1.111	1111.0	pointing	Trial1	pointing/STIM_003.jpg	99
539.735	1.614	1614.5	pointing	Trial1	pointing/STIM_003.jpg	100
544.632	1.409	1408.6	pointing	Trial1	pointing/STIM_003.jpg	100
549.401	1.536	1536.3	pointing	Trial1	pointing/STIM_003.jpg	100
554.063	1.299	1299.3	pointing	Trial1	pointing/STIM_004.jpg	100
558.636	1.044	1044.0	pointing	Trial1	pointing/STIM_004.jpg	99
562.233	1.229	1229.4	pointing	Trial1	pointing/STIM_004.jpg	100
567.153	1.058	1058.2	pointing	Trial1	pointing/STIM_004.jpg	99
571.872	1.142	1141.7	pointing	Trial1	pointing/STIM_004.jpg	99
576.523	1.266	1266.5	pointing	Trial1	pointing/STIM_004.jpg	99
581.115	1.631	1631.1	pointing	Trial1	pointing/STIM_005.jpg	100
586.109	1.455	1455.2	pointing	Trial1	pointing/STIM_005.jpg	99
589.691	1.443	1443.4	pointing	Trial1	pointing/STIM_005.jpg	100
593.922	0.975	975.0	pointing	Trial1	pointing/STIM_005.jpg	100
597.11	1.045	1045.4	pointing	Trial1	pointing/STIM_005.jpg	100
601.632	1.374	1373.7	pointing	Trial1	pointing/STIM_005.jpg	99
606.828	1.209	1208.9	pointing	Trial1	pointing/STIM_006.jpg	99
611.832	1.024	1023.6	pointing	Trial1	pointing/STIM_006.jpg	100
616.361	1.163	1163.1	pointing	Trial1	pointing/STIM_006.jpg	100
620.01	1.281	1281.2	pointing	Trial1	pointing/STIM_006.jpg	99
624.54	1.617	1617.0	pointing	Trial1	pointing/STIM_006.jpg	100
628.046	1.495	1495.0	pointing	Trial1	pointing/STIM_006.jpg	100
631.903	1.229	1228.9	pointing	Trial1	pointing/STIM_007.jpg	99
635.112	0.973	972.8	pointing	Trial1	pointing/STIM_007.jpg	100
638.059	1.237	1237.3	pointing	Trial1	pointing/STIM_007.jpg	100
641.676	0.963	962.7	pointing	Trial1	pointing/STIM_007.jpg	99
644.663	1.276	1275.6	pointing	Trial1	pointing/STIM_007.jpg	99
648.659	1.041	1040.9	pointing	Trial1	pointing/STIM_007.jpg	99
653.169	1.3	1299.6	pointing	Trial1	pointing/STIM_008.jpg	100
656.944	1.159	1159.4	pointing	Trial1	pointing/STIM_008.jpg	99
661.372	1.175	1175.3	pointing	Trial1	pointing/STIM_008.jpg	99
665.473	1.575	1575.4	pointing	Trial1	pointing/STIM_008.jpg	100
669.86	1.146	1146.1	pointing	Trial1	pointing/STIM_008.jpg	100
674.37	1.131	1131.1	pointing	Trial1	pointing/STIM_008.jpg	100
677.599	1.293	1292.7	pointing	Trial1	pointing/STIM_009.jpg	99
680.827	0.888	888.2	pointing	Trial1	pointing/STIM_009.jpg	100
685.156	1.102	1102.1	pointing	Trial1	pointing/STIM_009.jpg	99
689.596	0.861	861.0	pointing	Trial1	pointing/STIM_009.jpg	100
693.739	1.087	1087.0	pointing	Trial1	pointing/STIM_009.jpg	100
696.963	1.565	1564.8	pointing	Trial1	pointing/STIM_009.jpg	99
701.977	1.007	1007.3	pointing	Trial1	pointing/STIM_010.jpg	99
706.145	1.571	1570.8	pointing	Trial1	pointing/STIM_010.jpg	99
710.521	1.228	1228.4	pointing	Trial1	pointing/STIM_010.jpg	99
714.317	1.237	1237.3	pointing	Trial1	pointing/STIM_010.jpg	100
718.221	1.37	1370.5	pointing	Trial1	pointing/STIM_010.jpg	99
722.926	1.306	1305.7	pointing	Trial1	pointing/STIM_010.jpg	99
726.84	1.426	1426.5	pointing	Trial1	pointing/STIM_011.jpg	99
731.115	1.041	1041.0	pointing	Trial1	pointing/STIM_011.jpg	100
734.402	1.699	1699.4	pointing	Trial1	pointing/STIM_011.jpg	99
738.696	1.567	1566.7	pointing	Trial1	pointing/STIM_011.jpg	99
743.358	1.223	1222.7	pointing	Trial1	pointing/STIM_011.jpg	100
747.749	1.375	1374.8	pointing	Trial1	pointing/STIM_011.jpg	100
751.431	4.438	4438.2	navigation	Trial2	navigation/STIM_000.jpg	100
757.841	4.007	4007.4	navigation	Trial2	navigation/STIM_000.jpg	99
764.917	1.773	1773.4	navigation	Trial2	navigation/STIM_000.jpg	99
769.72	2.894	2894.2	navigation	Trial2	navigation/STIM_000.jpg	100
776.267	2.715	2715.2	navigation	Trial2	navigation/STIM_000.jpg	99
782.631	2.225	2225.3	navigation	Trial2	navigation/STIM_000.jpg	99
787.064	3.783	3783.2	navigation	Trial2	navigation/STIM_001.jpg	99
793.945	3.962	3962.1	navigation	Trial2	navigation/STIM_001.jpg	100
799.662	3.785	3784.6	navigation	Trial2	navigation/STIM_001.jpg	99
805.86	3.137	3137.3	navigation	Trial2	navigation/STIM_001.jpg	99
812.779	3.062	3062.3	navigation	Trial2	navigation/STIM_001.jpg	100
818.974	3.754	3753.6	navigation	Trial2	navigation/STIM_001.jpg	100
824.481	4.18	4179.7	navigation	Trial2	navigation/STIM_002.jpg	99
830.378	3.564	3564.5	navigation	Trial2	navigation/STIM_002.jpg	99
837.559	2.07	2069.9	navigation	Trial2	navigation/STIM_002.jpg	100
841.431	3.803	3803.3	navigation	Trial2	navigation/STIM_002.jpg	99
846.931	2.783	2783.3	navigation	Trial2	navigation/STIM_002.jpg	100
851.66	3.384	3383.9	navigation	Trial2	navigation/STIM_002.jpg	100
858.013	3.853	3852.8	navigation	Trial2	navigation/STIM_003.jpg	100
865.285	2.419	2418.7	navigation	Trial2	navigation/STIM_003.jpg	100
869.929	1.782	1781.8	navigation	Trial2	navigation/STIM_003.jpg	99
874.353	1.696	1695.5	navigation	Trial2	navigation/STIM_003.jpg	99
879.759	2.12	2120.3	navigation	Trial2	navigation/STIM_003.jpg	100
884.603	1.865	1865.3	navigation	Trial2	navigation/STIM_003.jpg	100
889.603	3.446	3445.9	navigation	Trial2	navigation/STIM_004.jpg	100
895.887	2.002	2001.9	navigation	Trial2	navigation/STIM_004.jpg	100
900.54	2.722	2721.8	navigation	Trial2	navigation/STIM_004.jpg	100
905.059	2.446	2445.6	navigation	Trial2	navigation/STIM_004.jpg	100
910.85	2.534	2533.5	navigation	Trial2	navigation/STIM_004.jpg	99
916.66	2.616	2616.1	navigation	Trial2	navigation/STIM_004.jpg	99
921.82	4.099	4098.9	navigation	Trial2	navigation/STIM_005.jpg	100
927.781	2.497	2496.6	navigation	Trial2	navigation/STIM_005.jpg	99
932.122	1.711	1711.2	navigation	Trial2	navigation/STIM_005.jpg	99
936.41	3.684	3684.4	navigation	Trial2	navigation/STIM_005.jpg	100
941.835	2.137	2136.8	navigation	Trial2	navigation/STIM_005.jpg	99
946.988	3.736	3735.7	navigation	Trial2	navigation/STIM_005.jpg	100
953.352	4.616	4616.0	navigation	Trial2	navigation/STIM_006.jpg	99
960.784	4.242	4242.3	navigation	Trial2	navigation/STIM_006.jpg	100
967.752	2.283	2283.2	navigation	Trial2	navigation/STIM_006.jpg	100
972.052	2.012	2012.3	navigation	Trial2	navigation/STIM_006.jpg	99
977.591	3.68	3679.9	navigation	Trial2	navigation/STIM_006.jpg	99
984.12	3.882	3882.0	navigation	Trial2	navigation/STIM_006.jpg	99
989.882	3.136	3136.5	navigation	Trial2	navigation/STIM_007.jpg	99
996.113	3.363	3363.1	navigation	Trial2	navigation/STIM_007.jpg	99
1001.713	2.109	2108.9	navigation	Trial2	navigation/STIM_007.jpg	99
1007.527	3.899	3898.8	navigation	Trial2	navigation/STIM_007.jpg	99
1014.659	3.755	3755.1	navigation	Trial2	navigation/STIM_007.jpg	99
1020.665	2.072	2072.4	navigation	Trial2	navigation/STIM_007.jpg	99
1025.206	4.045	4045.1	navigation	Trial2	navigation/STIM_008.jpg	100
1031.829	3.031	3031.0	navigation	Trial2	navigation/STIM_008.jpg	99
1036.975	2.963	2963.1	navigation	Trial2	navigation/STIM_008.jpg	99
1043.156	1.941	1941.1	navigation	Trial2	navigation/STIM_008.jpg	100
1047.393	2.577	2576.7	navigation	Trial2	navigation/STIM_008.jpg	100
1052.964	2.165	2165.1	navigation	Trial2	navigation/STIM_008.jpg	99
1058.169	4.632	4631.6	navigation	Trial2	navigation/STIM_009.jpg	99
1066.171	2.409	2408.7	navigation	Trial2	navigation/STIM_009.jpg	100
1070.923	1.83	1830.2	navigation	Trial2	navigation/STIM_009.jpg	100
1076.451	1.902	1902.1	navigation	Trial2	navigation/STIM_009.jpg	99
1080.37	2.472	2471.8	navigation	Trial2	navigation/STIM_009.jpg	99
1085.827	3.658	3658.3	navigation	Trial2	navigation/STIM_009.jpg	100
1092.694	1.978	1978.1	navigation	Trial2	navigation/STIM_010.jpg	100
1098.488	1.947	1947.1	navigation	Trial2	navigation/STIM_010.jpg	100
1102.558	2.4	2400.4	navigation	Trial2	navigation/STIM_010.jpg	100
1107.334	1.868	1868.3	navigation	Trial2	navigation/STIM_010.jpg	99
1112.458	1.715	1714.7	navigation	Trial2	navigation/STIM_010.jpg	100
1116.305	1.987	1987.0	navigation	Trial2	navigation/STIM_010.jpg	99
1120.328	2.44	2440.1	navigation	Trial2	navigation/STIM_011.jpg	100
1125.279	2.295	2295.0	navigation	Trial2	navigation/STIM_011.jpg	99
1129.915	3.148	3148.1	navigation	Trial2	navigation/STIM_011.jpg	99
1136.623	3.75	3750.2	navigation	Trial2	navigation/STIM_011.jpg	99
1142.555	1.61	1609.9	navigation	Trial2	navigation/STIM_011.jpg	99
1146.793	2.279	2279.4	navigation	Trial2	navigation/STIM_011.jpg	99
1152.101	1.231	1230.6	pointing	Trial2	pointing/STIM_000.jpg	99
1156.69	1.479	1478.8	pointing	Trial2	pointing/STIM_000.jpg	100
1161.113	1.03	1029.6	pointing	Trial2	pointing/STIM_000.jpg	100
1165.173	1.081	1081.1	pointing	Trial2	pointing/STIM_000.jpg	99
1169.903	1.587	1587.2	pointing	Trial2	pointing/STIM_000.jpg	99
1173.688	1.243	1243.4	pointing	Trial2	pointing/STIM_000.jpg	100
1178.365	1.55	1549.5	pointing	Trial2	pointing/STIM_001.jpg	99
1182.007	1.039	1039.2	pointing	Trial2	pointing/STIM_001.jpg	99
1185.472	1.062	1062.3	pointing	Trial2	pointing/STIM_001.jpg	99
1189.766	0.944	943.6	pointing	Trial2	pointing/STIM_001.jpg	100
1192.861	1.12	1120.2	pointing	Trial2	pointing/STIM_001.jpg	99
1197.775	1.241	1240.7	pointing	Trial2	pointing/STIM_001.jpg	99
1201.573	1.224	1223.8	pointing	Trial2	pointing/STIM_002.jpg	99
1205.81	1.004	1004.4	pointing	Trial2	pointing/STIM_002.jpg	100
1208.963	0.833	833.2	pointing	Trial2	pointing/STIM_002.jpg	99
1213.382	1.113	1113.1	pointing	Trial2	pointing/STIM_002.jpg	100
1216.934	0.892	892.5	pointing	Trial2	pointing/STIM_002.jpg	100
1220.177	1.346	1345.9	pointing	Trial2	pointing/STIM_002.jpg	99
1223.68	0.917	916.9	pointing	Trial2	pointing/STIM_003.jpg	100
1227.254	1.608	1608.4	pointing	Trial2	pointing/STIM_003.jpg	99
1231.76	1.28	1280.4	pointing	Trial2	pointing/STIM_003.jpg	99
1235.387	1.161	1161.4	pointing	Trial2	pointing/STIM_003.jpg	99
1240.415	0.965	965.3	pointing	Trial2	pointing/STIM_003.jpg	100
1243.302	1.183	1183.4	pointing	Trial2	pointing/STIM_003.jpg	99
1247.311	1.49	1489.8	pointing	Trial2	pointing/STIM_004.jpg	100
1251.76	1.292	1291.9	pointing	Trial2	pointing/STIM_004.jpg	100
1256.113	1.21	1210.0	pointing	Trial2	pointing/STIM_004.jpg	100
1259.814	1.032	1032.0	pointing	Trial2	pointing/STIM_004.jpg	100
1263.978	1.619	1619.4	pointing	Trial2	pointing/STIM_004.jpg	99
1269.04	1.64	1639.5	pointing	Trial2	pointing/STIM_004.jpg	100
1273.383	1.46	1460.3	pointing	Trial2	pointing/STIM_005.jpg	100
1276.973	1.288	1287.7	pointing	Trial2	pointing/STIM_005.jpg	100
1282.04	1.426	1426.4	pointing	Trial2	pointing/STIM_005.jpg	99
1287.17	1.283	1282.8	pointing	Trial2	pointing/STIM_005.jpg	99
1291.294	1.497	1497.1	pointing	Trial2	pointing/STIM_005.jpg	99
1295.563	1.069	1069.0	pointing	Trial2	pointing/STIM_005.jpg	99
1298.71	1.295	1294.7	pointing	Trial2	pointing/STIM_006.jpg	99
1302.061	1.509	1509.1	pointing	Trial2	pointing/STIM_006.jpg	100
1306.694	1.066	1066.2	pointing	Trial2	pointing/STIM_006.jpg	99
1310.388	1.011	1010.7	pointing	Trial2	pointing/STIM_006.jpg	100
1314.319	1.028	1027.7	pointing	Trial2	pointing/STIM_006.jpg	100
1317.452	1.576	1576.4	pointing	Trial2	pointing/STIM_006.jpg	99
1321.194	1.561	1560.8	pointing	Trial2	pointing/STIM_007.jpg	99
1325.224	0.967	967.4	pointing	Trial2	pointing/STIM_007.jpg	99
1329.535	1.25	1250.3	pointing	Trial2	pointing/STIM_007.jpg	100
1332.868	1.507	1507.3	pointing	Trial2	pointing/STIM_007.jpg	99
1337.976	0.868	868.3	pointing	Trial2	pointing/STIM_007.jpg	99
1341.194	1.29	1289.9	pointing	Trial2	pointing/STIM_007.jpg	99
1345.408	1.608	1608.2	pointing	Trial2	pointing/STIM_008.jpg	99
1350.489	1.569	1568.6	pointing	Trial2	pointing/STIM_008.jpg	99
1354.652	1.617	1617.1	pointing	Trial2	pointing/STIM_008.jpg	100
1358.776	1.162	1161.8	pointing	Trial2	pointing/STIM_008.jpg	99
1361.919	1.18	1180.2	pointing	Trial2	pointing/STIM_008.jpg	100
1366.326	1.198	1198.3	pointing	Trial2	pointing/STIM_008.jpg	99
1370.801	1.41	1410.5	pointing	Trial2	pointing/STIM_009.jpg	100
1374.661	1.416	1415.9	pointing	Trial2	pointing/STIM_009.jpg	100
1379.64	1.258	1258.4	pointing	Trial2	pointing/STIM_009.jpg	100
1384.509	1.63	1630.5	pointing	Trial2	pointing/STIM_009.jpg	99
1388.423	1.056	1056.0	pointing	Trial2	pointing/STIM_009.jpg	99
1392.821	1.416	1416.3	pointing	Trial2	pointing/STIM_009.jpg	100
1396.24	1.452	1451.6	pointing	Trial2	pointing/STIM_010.jpg	100
1400.303	1.527	1527.4	pointing	Trial2	pointing/STIM_010.jpg	100
1405.296	1.602	1602.3	pointing	Trial2	pointing/STIM_010.jpg	99
1410.623	1.167	1167.4	pointing	Trial2	pointing/STIM_010.jpg	99
1415.352	1.023	1023.0	pointing	Trial2	pointing/STIM_010.jpg	99
1418.712	1.681	1681.4	pointing	Trial2	pointing/STIM_010.jpg	100
1422.365	1.44	1439.9	pointing	Trial2	pointing/STIM_011.jpg	99
1427.714	1.234	1234.4	pointing	Trial2	pointing/STIM_011.jpg	100
1432.355	1.095	1095.4	pointing	Trial2	pointing/STIM_011.jpg	99
1437.052	1.125	1125.0	pointing	Trial2	pointing/STIM_011.jpg	99
1440.48	1.239	1239.1	pointing	Trial2	pointing/STIM_011.jpg	99
1445.302	1.529	1529.0	pointing	Trial2	pointing/STIM_011.jpg	100
1450.25	2.946	2946.0	navigation	Trial3	navigation/STIM_000.jpg	99
1455.387	1.59	1590.1	navigation	Trial3	navigation/STIM_000.jpg	100
1460.28	1.948	1948.4	navigation	Trial3	navigation/STIM_000.jpg	99
1465.773	2.775	2775.3	navigation	Trial3	navigation/STIM_000.jpg	99
1471.049	3.04	3039.9	navigation	Trial3	navigation/STIM_000.jpg	99
1477.558	2.87	2869.8	navigation	Trial3	navigation/STIM_000.jpg	100
1483.313	1.714	1714.5	navigation	Trial3	navigation/STIM_001.jpg	99
1487.43	1.968	1967.6	navigation	Trial3	navigation/STIM_001.jpg	100
1491.771	2.609	2608.9	navigation	Trial3	navigation/STIM_001.jpg	100
1496.18	2.328	2327.8	navigation	Trial3	navigation/STIM_001.jpg	99
1501.063	2.785	2785.2	navigation	Trial3	navigation/STIM_001.jpg	99
1507.028	3.784	3784.0	navigation	Trial3	navigation/STIM_001.jpg	100
1513.919	1.708	1707.7	navigation	Trial3	navigation/STIM_002.jpg	100
1517.621	3.692	3691.5	navigation	Trial3	navigation/STIM_002.jpg	99
1523.643	2.865	2864.6	navigation	Trial3	navigation/STIM_002.jpg	99
1529.784	2.352	2352.1	navigation	Trial3	navigation/STIM_002.jpg	99
1535.52	2.637	2636.7	navigation	Trial3	navigation/STIM_002.jpg	99
1541.154	1.652	1652.4	navigation	Trial3	navigation/STIM_002.jpg	99
1545.964	2.65	2650.1	navigation	Trial3	navigation/STIM_003.jpg	99
1552.309	1.599	1598.8	navigation	Trial3	navigation/STIM_003.jpg	100
1556.798	2.285	2285.0	navigation	Trial3	navigation/STIM_003.jpg	100
1560.98	2.44	2440.2	navigation	Trial3	navigation/STIM_003.jpg	99
1567.122	1.924	1924.5	navigation	Trial3	navigation/STIM_003.jpg	99
1571.721	2.851	2851.4	navigation	Trial3	navigation/STIM_003.jpg	100
1576.7	2.039	2039.5	navigation	Trial3	navigation/STIM_004.jpg	99
1582.481	2.363	2363.2	navigation	Trial3	navigation/STIM_004.jpg	100
1587.202	2.134	2134.4	navigation	Trial3	navigation/STIM_004.jpg	99
1591.999	2.311	2310.6	navigation	Trial3	navigation/STIM_004.jpg	99
1597.384	2.53	2530.1	navigation	Trial3	navigation/STIM_004.jpg	100
1602.076	2.365	2365.4	navigation	Trial3	navigation/STIM_004.jpg	100
1606.359	2.51	2510.5	navigation	Trial3	navigation/STIM_005.jpg	99
1611.0	3.026	3026.1	navigation	Trial3	navigation/STIM_005.jpg	100
1615.951	2.734	2733.9	navigation	Trial3	navigation/STIM_005.jpg	99
1621.807	1.594	1594.4	navigation	Trial3	navigation/STIM_005.jpg	99
1625.957	3.711	3711.4	navigation	Trial3	navigation/STIM_005.jpg	100
1632.442	3.273	3273.4	navigation	Trial3	navigation/STIM_005.jpg	99
1639.04	1.983	1983.3	navigation	Trial3	navigation/STIM_006.jpg	99
1644.446	3.384	3384.0	navigation	Trial3	navigation/STIM_006.jpg	99
1651.466	2.319	2319.3	navigation	Trial3	navigation/STIM_006.jpg	100
1656.12	3.972	3971.7	navigation	Trial3	navigation/STIM_006.jpg	99
1662.821	3.436	3436.0	navigation	Trial3	navigation/STIM_006.jpg	99
1669.442	3.155	3154.7	navigation	Trial3	navigation/STIM_006.jpg	100
1675.676	2.914	2913.9	navigation	Trial3	navigation/STIM_007.jpg	100
1680.889	3.318	3317.6	navigation	Trial3	navigation/STIM_007.jpg	99
1687.148	3.05	3049.7	navigation	Trial3	navigation/STIM_007.jpg	100
1692.935	2.861	2860.6	navigation	Trial3	navigation/STIM_007.jpg	100
1699.063	2.266	2266.1	navigation	Trial3	navigation/STIM_007.jpg	100
1703.276	2.482	2481.8	navigation	Trial3	navigation/STIM_007.jpg	100
1708.613	3.518	3518.0	navigation	Trial3	navigation/STIM_008.jpg	99
1715.491	3.186	3186.3	navigation	Trial3	navigation/STIM_008.jpg	99
1721.073	1.661	1661.0	navigation	Trial3	navigation/STIM_008.jpg	100
1726.561	2.839	2839.2	navigation	Trial3	navigation/STIM_008.jpg	99
1731.16	2.606	2606.3	navigation	Trial3	navigation/STIM_008.jpg	100
1736.304	3.626	3626.4	navigation	Trial3	navigation/STIM_008.jpg	100
1742.065	3.83	3829.5	navigation	Trial3	navigation/STIM_009.jpg	99
1747.777	3.01	3009.9	navigation	Trial3	navigation/STIM_009.jpg	99
1753.165	1.975	1974.8	navigation	Trial3	navigation/STIM_009.jpg	100
1757.413	1.576	1575.9	navigation	Trial3	navigation/STIM_009.jpg	100
1761.14	2.188	2188.4	navigation	Trial3	navigation/STIM_009.jpg	99
1765.698	3.046	3045.9	navigation	Trial3	navigation/STIM_009.jpg	100
1771.545	2.041	2040.6	navigation	Trial3	navigation/STIM_010.jpg	99
1775.883	1.944	1943.8	navigation	Trial3	navigation/STIM_010.jpg	100
1780.226	2.217	2216.9	navigation	Trial3	navigation/STIM_010.jpg	99
1785.63	3.428	3427.6	navigation	Trial3	navigation/STIM_010.jpg	99
1791.971	3.376	3375.6	navigation	Trial3	navigation/STIM_010.jpg	99
1798.26	2.39	2389.8	navigation	Trial3	navigation/STIM_010.jpg	99
1804.212	2.565	2564.8	navigation	Trial3	navigation/STIM_011.jpg	100
1809.419	3.148	3147.7	navigation	Trial3	navigation/STIM_011.jpg	100
1815.16	1.699	1698.9	navigation	Trial3	navigation/STIM_011.jpg	100
1820.67	2.644	2644.3	navigation	Trial3	navigation/STIM_011.jpg	99
1826.816	2.199	2199.0	navigation	Trial3	navigation/STIM_011.jpg	100
1832.088	2.285	2284.6	navigation	Trial3	navigation/STIM_011.jpg	100
1836.761	1.513	1513.2	pointing	Trial3	pointing/STIM_000.jpg	100
1840.465	1.291	1290.9	pointing	Trial3	pointing/STIM_000.jpg	100
1845.661	0.932	932.5	pointing	Trial3	pointing/STIM_000.jpg	99
1849.824	1.496	1496.1	pointing	Trial3	pointing/STIM_000.jpg	100
1853.129	0.932	932.5	pointing	Trial3	pointing/STIM_000.jpg	99
1856.45	1.06	1059.7	pointing	Trial3	pointing/STIM_000.jpg	99
1860.782	1.614	1614.4	pointing	Trial3	pointing/STIM_001.jpg	99
1866.046	1.164	1164.3	pointing	Trial3	pointing/STIM_001.jpg	99
1870.411	1.151	1150.6	pointing	Trial3	pointing/STIM_001.jpg	99
1875.152	1.38	1379.6	pointing	Trial3	pointing/STIM_001.jpg	99
1880.125	1.468	1467.5	pointing	Trial3	pointing/STIM_001.jpg	99
1884.425	1.364	1364.3	pointing	Trial3	pointing/STIM_001.jpg	99
1889.54	1.002	1002.4	pointing	Trial3	pointing/STIM_002.jpg	99
1893.116	1.481	1480.7	pointing	Trial3	pointing/STIM_002.jpg	99
1898.264	1.212	1212.1	pointing	Trial3	pointing/STIM_002.jpg	99
1902.236	0.962	961.7	pointing	Trial3	pointing/STIM_002.jpg	99
1906.682	1.384	1383.6	pointing	Trial3	pointing/STIM_002.jpg	99
1910.863	1.033	1033.4	pointing	Trial3	pointing/STIM_002.jpg	99
1915.117	1.572	1572.3	pointing	Trial3	pointing/STIM_003.jpg	99
1919.641	1.177	1177.3	pointing	Trial3	pointing/STIM_003.jpg	99
1923.451	1.14	1140.4	pointing	Trial3	pointing/STIM_003.jpg	100
1927.1	1.428	1428.3	pointing	Trial3	pointing/STIM_003.jpg	100
1930.922	1.358	1358.1	pointing	Trial3	pointing/STIM_003.jpg	99
1935.663	1.58	1580.0	pointing	Trial3	pointing/STIM_003.jpg	99
1939.958	0.95	949.7	pointing	Trial3	pointing/STIM_004.jpg	100
1944.239	1.281	1281.0	pointing	Trial3	pointing/STIM_004.jpg	100
1947.858	1.16	1160.5	pointing	Trial3	pointing/STIM_004.jpg	100
1952.344	1.283	1283.4	pointing	Trial3	pointing/STIM_004.jpg	100
1957.007	1.146	1145.7	pointing	Trial3	pointing/STIM_004.jpg	99
1961.889	1.323	1322.7	pointing	Trial3	pointing/STIM_004.jpg	100
1966.812	1.692	1692.0	pointing	Trial3	pointing/STIM_005.jpg	99
1972.034	0.882	881.9	pointing	Trial3	pointing/STIM_005.jpg	99
1975.02	1.141	1141.4	pointing	Trial3	pointing/STIM_005.jpg	100
1978.716	1.618	1617.8	pointing	Trial3	pointing/STIM_005.jpg	99
1983.914	1.604	1604.5	pointing	Trial3	pointing/STIM_005.jpg	99
1988.853	1.521	1520.6	pointing	Trial3	pointing/STIM_005.jpg	100
1993.167	1.528	1527.5	pointing	Trial3	pointing/STIM_006.jpg	99
1997.575	1.617	1617.4	pointing	Trial3	pointing/STIM_006.jpg	99
2001.169	1.67	1669.5	pointing	Trial3	pointing/STIM_006.jpg	100
2005.244	1.522	1521.8	pointing	Trial3	pointing/STIM_006.jpg	100
2010.176	1.586	1586.0	pointing	Trial3	pointing/STIM_006.jpg	99
2014.399	1.633	1632.9	pointing	Trial3	pointing/STIM_006.jpg	100
2018.025	1.561	1560.8	pointing	Trial3	pointing/STIM_007.jpg	99
2021.98	1.63	1629.7	pointing	Trial3	pointing/STIM_007.jpg	99
2026.103	1.259	1259.0	pointing	Trial3	pointing/STIM_007.jpg	99
2030.673	1.628	1628.2	pointing	Trial3	pointing/STIM_007.jpg	99
2035.26	0.974	973.6	pointing	Trial3	pointing/STIM_007.jpg	99
2038.776	1.539	1538.8	pointing	Trial3	pointing/STIM_007.jpg	100
2042.949	1.605	1605.0	pointing	Trial3	pointing/STIM_008.jpg	99
2046.888	1.24	1239.6	pointing	Trial3	pointing/STIM_008.jpg	100
2050.702	1.508	1508.4	pointing	Trial3	pointing/STIM_008.jpg	100
2054.374	0.98	980.0	pointing	Trial3	pointing/STIM_008.jpg	99
2058.015	0.815	814.8	pointing	Trial3	pointing/STIM_008.jpg	100
2061.38	1.146	1145.6	pointing	Trial3	pointing/STIM_008.jpg	99
2065.126	1.284	1284.5	pointing	Trial3	pointing/STIM_009.jpg	99
2069.798	1.287	1287.4	pointing	Trial3	pointing/STIM_009.jpg	100
2073.077	1.227	1226.6	pointing	Trial3	pointing/STIM_009.jpg	99
2076.898	1.351	1351.1	pointing	Trial3	pointing/STIM_009.jpg	100
2080.355	1.505	1505.2	pointing	Trial3	pointing/STIM_009.jpg	99
2085.687	1.178	1178.2	pointing	Trial3	pointing/STIM_009.jpg	99
2090.712	1.464	1464.5	pointing	Trial3	pointing/STIM_010.jpg	99
2095.428	0.988	987.5	pointing	Trial3	pointing/STIM_010.jpg	100
2100.018	1.214	1214.1	pointing	Trial3	pointing/STIM_010.jpg	99
2103.647	1.602	1602.0	pointing	Trial3	pointing/STIM_010.jpg	100
2107.519	1.412	1411.5	pointing	Trial3	pointing/STIM_010.jpg	100
2112.693	1.647	1647.3	pointing	Trial3	pointing/STIM_010.jpg	100
2118.129	1.221	1220.9	pointing	Trial3	pointing/STIM_011.jpg	100
2123.109	0.986	985.6	pointing	Trial3	pointing/STIM_011.jpg	99
2127.115	1.003	1003.0	pointing	Trial3	pointing/STIM_011.jpg	99
2130.12	1.179	1178.8	pointing	Trial3	pointing/STIM_011.jpg	100
2133.697	1.683	1683.0	pointing	Trial3	pointing/STIM_011.jpg	100
2138.004	1.389	1389.0	pointing	Trial3	pointing/STIM_011.jpg	99
