onset	duration	accuracy	trial_type	learning_stage	stimulus
0.0	1.811	correct	generate	Run1	generate/STIM_000.jpg
4.976	2.746	correct	generate	Run1	generate/STIM_000.jpg
9.866	2.799	correct	generate	Run1	generate/STIM_000.jpg
14.698	1.631	correct	generate	Run1	generate/STIM_000.jpg
19.598	2.198	incorrect	generate	Run1	generate/STIM_000.jpg
24.429	2.384	incorrect	generate	Run1	generate/STIM_001.jpg
29.475	1.669	correct	generate	Run1	generate/STIM_001.jpg
34.831	1.426	incorrect	generate	Run1	generate/STIM_001.jpg
38.592	2.418	correct	generate	Run1	generate/STIM_001.jpg
44.844	1.352	incorrect	generate	Run1	generate/STIM_001.jpg
48.973	2.682	incorrect	generate	Run1	generate/STIM_002.jpg
55.367	2.504	correct	generate	Run1	generate/STIM_002.jpg
60.642	2.54	correct	generate	Run1	generate/STIM_002.jpg
65.401	1.171	correct	generate	Run1	generate/STIM_002.jpg
69.19	1.359	correct	generate	Run1	generate/STIM_002.jpg
73.926	1.602	correct	generate	Run1	generate/STIM_003.jpg
79.427	2.278	correct	generate	Run1	generate/STIM_003.jpg
84.096	2.738	correct	generate	Run1	generate/STIM_003.jpg
89.892	1.6	correct	generate	Run1	generate/STIM_003.jpg
95.49	2.366	correct	generate	Run1	generate/STIM_003.jpg
100.515	2.501	correct	generate	Run1	generate/STIM_004.jpg
105.674	2.662	correct	generate	Run1	generate/STIM_004.jpg
112.296	2.169	correct	generate	Run1	generate/STIM_004.jpg
116.794	2.078	incorrect	generate	Run1	generate/STIM_004.jpg
121.503	2.307	correct	generate	Run1	generate/STIM_004.jpg
126.745	1.279	incorrect	generate	Run1	generate/STIM_005.jpg
130.817	1.275	correct	generate	Run1	generate/STIM_005.jpg
134.52	1.538	correct	generate	Run1	generate/STIM_005.jpg
139.473	2.345	correct	generate	Run1	generate/STIM_005.jpg
145.269	2.15	incorrect	generate	Run1	generate/STIM_005.jpg
149.925	1.416	correct	generate	Run1	generate/STIM_006.jpg
155.259	1.548	correct	generate	Run1	generate/STIM_006.jpg
160.42	2.423	correct	generate	Run1	generate/STIM_006.jpg
164.874	2.35	correct	generate	Run1	generate/STIM_006.jpg
170.225	2.1	correct	generate	Run1	generate/STIM_006.jpg
175.343	2.826	correct	generate	Run1	generate/STIM_007.jpg
180.968	2.594	correct	generate	Run1	generate/STIM_007.jpg
187.229	2.75	incorrect	generate	Run1	generate/STIM_007.jpg
192.043	1.148	correct	generate	Run1	generate/STIM_007.jpg
195.591	1.274	correct	generate	Run1	generate/STIM_007.jpg
199.297	1.891	correct	generate	Run1	generate/STIM_008.jpg
204.062	1.369	correct	generate	Run1	generate/STIM_008.jpg
209.106	2.751	correct	generate	Run1	generate/STIM_008.jpg
214.7	1.918	correct	generate	Run1	generate/STIM_008.jpg
219.335	1.703	correct	generate	Run1	generate/STIM_008.jpg
223.371	1.806	correct	generate	Run1	generate/STIM_009.jpg
227.298	2.538	incorrect	generate	Run1	generate/STIM_009.jpg
232.555	2.0	correct	generate	Run1	generate/STIM_009.jpg
238.125	1.988	correct	generate	Run1	generate/STIM_009.jpg
243.172	2.237	correct	generate	Run1	generate/STIM_009.jpg
247.7	2.046	correct	generate	Run1	generate/STIM_010.jpg
253.204	2.645	correct	generate	Run1	generate/STIM_010.jpg
258.606	2.48	correct	generate	Run1	generate/STIM_010.jpg
264.671	1.874	correct	generate	Run1	generate/STIM_010.jpg
269.902	2.18	correct	generate	Run1	generate/STIM_010.jpg
275.775	1.541	correct	generate	Run1	generate/STIM_011.jpg
279.49	2.105	correct	generate	Run1	generate/STIM_011.jpg
284.23	1.287	correct	generate	Run1	generate/STIM_011.jpg
287.718	2.416	correct	generate	Run1	generate/STIM_011.jpg
293.161	2.163	correct	generate	Run1	generate/STIM_011.jpg
297.542	1.975	correct	generate	Run1	generate/STIM_012.jpg
302.191	2.158	correct	generate	Run1	generate/STIM_012.jpg
306.717	2.741	correct	generate	Run1	generate/STIM_012.jpg
312.616	1.438	incorrect	generate	Run1	generate/STIM_012.jpg
316.634	2.318	correct	generate	Run1	generate/STIM_012.jpg
322.838	3.005	correct	generate	Run1	generate/STIM_013.jpg
329.4	2.614	correct	generate	Run1	generate/STIM_013.jpg
334.268	1.278	correct	generate	Run1	generate/STIM_013.jpg
338.219	2.039	correct	generate	Run1	generate/STIM_013.jpg
342.709	1.369	correct	generate	Run1	generate/STIM_013.jpg
346.974	1.735	correct	generate	Run1	generate/STIM_014.jpg
352.301	2.317	correct	generate	Run1	generate/STIM_014.jpg
357.496	1.597	correct	generate	Run1	generate/STIM_014.jpg
361.575	1.99	correct	generate	Run1	generate/STIM_014.jpg
366.986	2.362	correct	generate	Run1	generate/STIM_014.jpg
372.07	2.384	incorrect	generate	Run1	generate/STIM_015.jpg
377.581	2.95	correct	generate	Run1	generate/STIM_015.jpg
383.852	1.217	correct	generate	Run1	generate/STIM_015.jpg
387.377	1.828	correct	generate	Run1	generate/STIM_015.jpg
391.832	2.439	correct	generate	Run1	generate/STIM_015.jpg
397.812	2.622	correct	generate	Run1	generate/STIM_016.jpg
403.776	1.286	correct	generate	Run1	generate/STIM_016.jpg
408.785	1.329	correct	generate	Run1	generate/STIM_016.jpg
412.185	2.436	correct	generate	Run1	generate/STIM_016.jpg
417.319	1.898	correct	generate	Run1	generate/STIM_016.jpg
421.684	2.702	correct	generate	Run1	generate/STIM_017.jpg
428.089	2.755	incorrect	generate	Run1	generate/STIM_017.jpg
432.882	1.382	correct	generate	Run1	generate/STIM_017.jpg
437.334	1.324	correct	generate	Run1	generate/STIM_017.jpg
440.875	2.304	correct	generate	Run1	generate/STIM_017.jpg
445.777	2.992	correct	generate	Run1	generate/STIM_018.jpg
451.622	2.888	correct	generate	Run1	generate/STIM_018.jpg
456.743	2.707	correct	generate	Run1	generate/STIM_018.jpg
461.498	1.492	correct	generate	Run1	generate/STIM_018.jpg
465.589	2.416	correct	generate	Run1	generate/STIM_018.jpg
470.292	2.748	correct	generate	Run1	generate/STIM_019.jpg
476.575	2.377	correct	generate	Run1	generate/STIM_019.jpg
480.982	1.323	correct	generate	Run1	generate/STIM_019.jpg
484.788	1.183	correct	generate	Run1	generate/STIM_019.jpg
489.338	2.012	correct	generate	Run1	generate/STIM_019.jpg
494.729	2.561	correct	generate	Run1	generate/STIM_020.jpg
501.077	2.641	incorrect	generate	Run1	generate/STIM_020.jpg
506.322	1.799	correct	generate	Run1	generate/STIM_020.jpg
510.851	1.621	correct	generate	Run1	generate/STIM_020.jpg
515.191	2.242	incorrect	generate	Run1	generate/STIM_020.jpg
520.566	2.42	incorrect	generate	Run1	generate/STIM_021.jpg
525.076	1.576	correct	generate	Run1	generate/STIM_021.jpg
529.074	1.589	correct	generate	Run1	generate/STIM_021.jpg
534.523	2.516	correct	generate	Run1	generate/STIM_021.jpg
539.958	1.4	correct	generate	Run1	generate/STIM_021.jpg
544.901	1.579	correct	generate	Run1	generate/STIM_022.jpg
549.816	1.639	incorrect	generate	Run1	generate/STIM_022.jpg
554.127	1.96	correct	generate	Run1	generate/STIM_022.jpg
559.163	1.791	correct	generate	Run1	generate/STIM_022.jpg
564.603	1.345	incorrect	generate	Run1	generate/STIM_022.jpg
568.517	1.623	correct	generate	Run1	generate/STIM_023.jpg
573.44	2.898	correct	generate	Run1	generate/STIM_023.jpg
578.397	2.794	incorrect	generate	Run1	generate/STIM_023.jpg
584.303	1.885	correct	generate	Run1	generate/STIM_023.jpg
588.388	1.857	correct	generate	Run1	generate/STIM_023.jpg
592.526	1.4	incorrect	generate	Run1	generate/STIM_024.jpg
596.602	2.05	incorrect	generate	Run1	generate/STIM_024.jpg
601.532	1.88	correct	generate	Run1	generate/STIM_024.jpg
606.616	2.346	correct	generate	Run1	generate/STIM_024.jpg
611.39	1.996	correct	generate	Run1	generate/STIM_024.jpg
615.924	0.976	correct	repeat	Run1	repeat/STIM_000.jpg
619.627	0.991	correct	repeat	Run1	repeat/STIM_000.jpg
623.383	0.808	correct	repeat	Run1	repeat/STIM_000.jpg
627.688	0.666	correct	repeat	Run1	repeat/STIM_000.jpg
631.415	0.528	correct	repeat	Run1	repeat/STIM_000.jpg
634.035	0.983	correct	repeat	Run1	repeat/STIM_001.jpg
637.032	0.701	correct	repeat	Run1	repeat/STIM_001.jpg
641.557	0.716	correct	repeat	Run1	repeat/STIM_001.jpg
645.885	1.02	correct	repeat	Run1	repeat/STIM_001.jpg
649.268	0.56	correct	repeat	Run1	repeat/STIM_001.jpg
652.247	0.617	correct	repeat	Run1	repeat/STIM_002.jpg
655.492	0.663	correct	repeat	Run1	repeat/STIM_002.jpg
659.565	0.582	correct	repeat	Run1	repeat/STIM_002.jpg
663.746	0.869	correct	repeat	Run1	repeat/STIM_002.jpg
668.398	0.683	correct	repeat	Run1	repeat/STIM_002.jpg
672.243	0.625	incorrect	repeat	Run1	repeat/STIM_003.jpg
675.698	0.986	correct	repeat	Run1	repeat/STIM_003.jpg
679.109	0.82	correct	repeat	Run1	repeat/STIM_003.jpg
683.908	0.696	correct	repeat	Run1	repeat/STIM_003.jpg
687.211	0.801	correct	repeat	Run1	repeat/STIM_003.jpg
690.641	0.89	correct	repeat	Run1	repeat/STIM_004.jpg
694.686	0.678	correct	repeat	Run1	repeat/STIM_004.jpg
698.336	0.982	correct	repeat	Run1	repeat/STIM_004.jpg
702.733	0.565	correct	repeat	Run1	repeat/STIM_004.jpg
706.954	0.916	correct	repeat	Run1	repeat/STIM_004.jpg
710.428	0.746	correct	repeat	Run1	repeat/STIM_005.jpg
714.102	1.038	correct	repeat	Run1	repeat/STIM_005.jpg
718.546	0.906	correct	repeat	Run1	repeat/STIM_005.jpg
721.933	0.912	correct	repeat	Run1	repeat/STIM_005.jpg
725.827	0.742	correct	repeat	Run1	repeat/STIM_005.jpg
729.11	0.984	correct	repeat	Run1	repeat/STIM_006.jpg
733.721	0.568	correct	repeat	Run1	repeat/STIM_006.jpg
736.646	0.742	correct	repeat	Run1	repeat/STIM_006.jpg
739.719	0.555	correct	repeat	Run1	repeat/STIM_006.jpg
744.262	0.857	correct	repeat	Run1	repeat/STIM_006.jpg
747.832	0.605	correct	repeat	Run1	repeat/STIM_007.jpg
752.091	0.622	correct	repeat	Run1	repeat/STIM_007.jpg
755.235	0.815	correct	repeat	Run1	repeat/STIM_007.jpg
759.94	0.8	correct	repeat	Run1	repeat/STIM_007.jpg
762.878	0.844	correct	repeat	Run1	repeat/STIM_007.jpg
766.437	0.658	correct	repeat	Run1	repeat/STIM_008.jpg
770.838	0.754	correct	repeat	Run1	repeat/STIM_008.jpg
774.511	0.676	correct	repeat	Run1	repeat/STIM_008.jpg
778.626	0.9	correct	repeat	Run1	repeat/STIM_008.jpg
781.779	0.856	correct	repeat	Run1	repeat/STIM_008.jpg
786.001	0.848	correct	repeat	Run1	repeat/STIM_009.jpg
790.29	0.67	correct	repeat	Run1	repeat/STIM_009.jpg
794.947	0.73	correct	repeat	Run1	repeat/STIM_009.jpg
797.751	0.668	correct	repeat	Run1	repeat/STIM_009.jpg
801.71	0.981	correct	repeat	Run1	repeat/STIM_009.jpg
805.123	0.616	correct	repeat	Run1	repeat/STIM_010.jpg
807.774	0.649	incorrect	repeat	Run1	repeat/STIM_010.jpg
811.044	0.698	correct	repeat	Run1	repeat/STIM_010.jpg
814.148	0.888	correct	repeat	Run1	repeat/STIM_010.jpg
817.055	1.026	correct	repeat	Run1	repeat/STIM_010.jpg
820.836	0.717	correct	repeat	Run1	repeat/STIM_011.jpg
824.096	0.722	correct	repeat	Run1	repeat/STIM_011.jpg
828.223	0.564	correct	repeat	Run1	repeat/STIM_011.jpg
831.285	0.595	correct	repeat	Run1	repeat/STIM_011.jpg
834.06	0.986	correct	repeat	Run1	repeat/STIM_011.jpg
837.787	0.745	correct	repeat	Run1	repeat/STIM_012.jpg
842.349	1.033	correct	repeat	Run1	repeat/STIM_012.jpg
845.557	0.862	correct	repeat	Run1	repeat/STIM_012.jpg
849.812	0.618	correct	repeat	Run1	repeat/STIM_012.jpg
852.531	0.899	correct	repeat	Run1	repeat/STIM_012.jpg
856.721	0.808	correct	repeat	Run1	repeat/STIM_013.jpg
861.044	0.594	correct	repeat	Run1	repeat/STIM_013.jpg
865.614	0.892	correct	repeat	Run1	repeat/STIM_013.jpg
869.05	0.701	correct	repeat	Run1	repeat/STIM_013.jpg
872.128	0.974	correct	repeat	Run1	repeat/STIM_013.jpg
875.734	0.57	correct	repeat	Run1	repeat/STIM_014.jpg
879.4	0.965	correct	repeat	Run1	repeat/STIM_014.jpg
883.555	0.901	incorrect	repeat	Run1	repeat/STIM_014.jpg
886.519	0.656	correct	repeat	Run1	repeat/STIM_014.jpg
890.464	0.561	correct	repeat	Run1	repeat/STIM_014.jpg
894.77	1.978	incorrect	generate	Run2	generate/STIM_000.jpg
899.402	1.449	correct	generate	Run2	generate/STIM_000.jpg
904.132	1.477	correct	generate	Run2	generate/STIM_000.jpg
908.984	1.456	correct	generate	Run2	generate/STIM_000.jpg
914.27	1.635	correct	generate	Run2	generate/STIM_000.jpg
918.437	1.733	correct	generate	Run2	generate/STIM_001.jpg
922.708	2.11	correct	generate	Run2	generate/STIM_001.jpg
928.477	2.2	correct	generate	Run2	generate/STIM_001.jpg
934.168	1.924	correct	generate	Run2	generate/STIM_001.jpg
938.887	1.166	correct	generate	Run2	generate/STIM_001.jpg
942.374	1.064	correct	generate	Run2	generate/STIM_002.jpg
947.216	2.39	incorrect	generate	Run2	generate/STIM_002.jpg
952.27	1.254	correct	generate	Run2	generate/STIM_002.jpg
956.566	0.888	correct	generate	Run2	generate/STIM_002.jpg
960.82	1.924	correct	generate	Run2	generate/STIM_002.jpg
966.189	2.208	correct	generate	Run2	generate/STIM_003.jpg
970.969	1.636	correct	generate	Run2	generate/STIM_003.jpg
976.538	1.35	correct	generate	Run2	generate/STIM_003.jpg
980.744	1.459	correct	generate	Run2	generate/STIM_003.jpg
984.828	1.745	correct	generate	Run2	generate/STIM_003.jpg
988.888	1.751	correct	generate	Run2	generate/STIM_004.jpg
992.645	1.958	correct	generate	Run2	generate/STIM_004.jpg
998.315	2.076	correct	generate	Run2	generate/STIM_004.jpg
1003.271	2.003	incorrect	generate	Run2	generate/STIM_004.jpg
1008.019	1.105	correct	generate	Run2	generate/STIM_004.jpg
1012.174	2.289	correct	generate	Run2	generate/STIM_005.jpg
1017.247	2.386	correct	generate	Run2	generate/STIM_005.jpg
1023.279	1.289	incorrect	generate	Run2	generate/STIM_005.jpg
1026.67	1.543	correct	generate	Run2	generate/STIM_005.jpg
1032.128	1.694	incorrect	generate	Run2	generate/STIM_005.jpg
1037.756	1.567	correct	generate	Run2	generate/STIM_006.jpg
1041.574	1.349	correct	generate	Run2	generate/STIM_006.jpg
1045.352	2.309	correct	generate	Run2	generate/STIM_006.jpg
1051.422	1.576	incorrect	generate	Run2	generate/STIM_006.jpg
1055.498	0.883	correct	generate	Run2	generate/STIM_006.jpg
1059.863	1.624	correct	generate	Run2	generate/STIM_007.jpg
1063.819	1.725	correct	generate	Run2	generate/STIM_007.jpg
1068.256	1.521	correct	generate	Run2	generate/STIM_007.jpg
1073.011	2.084	correct	generate	Run2	generate/STIM_007.jpg
1077.236	1.433	correct	generate	Run2	generate/STIM_007.jpg
1082.509	1.476	correct	generate	Run2	generate/STIM_008.jpg
1086.179	1.734	correct	generate	Run2	generate/STIM_008.jpg
1090.646	1.207	correct	generate	Run2	generate/STIM_008.jpg
1094.87	1.868	correct	generate	Run2	generate/STIM_008.jpg
1099.066	1.705	correct	generate	Run2	generate/STIM_008.jpg
1104.603	2.572	correct	generate	Run2	generate/STIM_009.jpg
1110.217	1.178	correct	generate	Run2	generate/STIM_009.jpg
1114.51	1.57	correct	generate	Run2	generate/STIM_009.jpg
1118.895	2.15	correct	generate	Run2	generate/STIM_009.jpg
1124.127	1.735	correct	generate	Run2	generate/STIM_009.jpg
1128.194	1.767	correct	generate	Run2	generate/STIM_010.jpg
1133.932	1.506	correct	generate	Run2	generate/STIM_010.jpg
1137.548	0.944	correct	generate	Run2	generate/STIM_010.jpg
1142.092	1.606	incorrect	generate	Run2	generate/STIM_010.jpg
1147.155	1.859	incorrect	generate	Run2	generate/STIM_010.jpg
1152.426	1.97	correct	generate	Run2	generate/STIM_011.jpg
1157.137	1.436	correct	generate	Run2	generate/STIM_011.jpg
1161.803	1.654	correct	generate	Run2	generate/STIM_011.jpg
1165.898	1.605	incorrect	generate	Run2	generate/STIM_011.jpg
1170.452	1.796	correct	generate	Run2	generate/STIM_011.jpg
1176.099	2.267	correct	generate	Run2	generate/STIM_012.jpg
1182.075	1.61	correct	generate	Run2	generate/STIM_012.jpg
1186.22	1.041	correct	generate	Run2	generate/STIM_012.jpg
1191.158	1.749	correct	generate	Run2	generate/STIM_012.jpg
1194.942	1.383	correct	generate	Run2	generate/STIM_012.jpg
1200.312	2.293	correct	generate	Run2	generate/STIM_013.jpg
1205.906	1.702	correct	generate	Run2	generate/STIM_013.jpg
1211.478	2.184	correct	generate	Run2	generate/STIM_013.jpg
1216.501	1.396	correct	generate	Run2	generate/STIM_013.jpg
1221.508	0.906	correct	generate	Run2	generate/STIM_013.jpg
1225.1	2.33	correct	generate	Run2	generate/STIM_014.jpg
1230.862	2.453	correct	generate	Run2	generate/STIM_014.jpg
1236.371	0.962	correct	generate	Run2	generate/STIM_014.jpg
1240.961	2.088	correct	generate	Run2	generate/STIM_014.jpg
1245.28	1.996	correct	generate	Run2	generate/STIM_014.jpg
1249.947	2.518	correct	generate	Run2	generate/STIM_015.jpg
1256.395	1.343	correct	generate	Run2	generate/STIM_015.jpg
1261.224	2.044	incorrect	generate	Run2	generate/STIM_015.jpg
1266.707	0.945	correct	generate	Run2	generate/STIM_015.jpg
1271.24	1.684	correct	generate	Run2	generate/STIM_015.jpg
1275.885	1.463	correct	generate	Run2	generate/STIM_016.jpg
1281.34	1.141	correct	generate	Run2	generate/STIM_016.jpg
1285.643	1.801	correct	generate	Run2	generate/STIM_016.jpg
1289.616	1.759	correct	generate	Run2	generate/STIM_016.jpg
1294.331	1.123	correct	generate	Run2	generate/STIM_016.jpg
1299.438	2.086	correct	generate	Run2	generate/STIM_017.jpg
1303.956	1.594	correct	generate	Run2	generate/STIM_017.jpg
1308.165	1.235	correct	generate	Run2	generate/STIM_017.jpg
1313.124	2.073	correct	generate	Run2	generate/STIM_017.jpg
1317.205	1.932	correct	generate	Run2	generate/STIM_017.jpg
1322.818	1.455	incorrect	generate	Run2	generate/STIM_018.jpg
1327.72	1.132	incorrect	generate	Run2	generate/STIM_018.jpg
1331.06	1.115	correct	generate	Run2	generate/STIM_018.jpg
1335.713	1.637	correct	generate	Run2	generate/STIM_018.jpg
1340.071	1.026	correct	generate	Run2	generate/STIM_018.jpg
1343.606	1.591	correct	generate	Run2	generate/STIM_019.jpg
1348.37	1.465	incorrect	generate	Run2	generate/STIM_019.jpg
1352.655	1.041	incorrect	generate	Run2	generate/STIM_019.jpg
1355.836	1.132	correct	generate	Run2	generate/STIM_019.jpg
1359.716	1.403	correct	generate	Run2	generate/STIM_019.jpg
1364.2	1.067	correct	generate	Run2	generate/STIM_020.jpg
1367.28	2.017	correct	generate	Run2	generate/STIM_020.jpg
1372.007	1.178	correct	generate	Run2	generate/STIM_020.jpg
1376.49	1.708	correct	generate	Run2	generate/STIM_020.jpg
1381.415	1.734	correct	generate	Run2	generate/STIM_020.jpg
1385.174	2.073	correct	generate	Run2	generate/STIM_021.jpg
1389.392	2.23	correct	generate	Run2	generate/STIM_021.jpg
1395.097	1.758	correct	generate	Run2	generate/STIM_021.jpg
1400.77	1.694	correct	generate	Run2	generate/STIM_021.jpg
1405.956	1.483	correct	generate	Run2	generate/STIM_021.jpg
1409.938	2.548	correct	generate	Run2	generate/STIM_022.jpg
1414.974	2.344	correct	generate	Run2	generate/STIM_022.jpg
1419.706	1.46	correct	generate	Run2	generate/STIM_022.jpg
1424.896	1.361	correct	generate	Run2	generate/STIM_022.jpg
1430.116	1.462	correct	generate	Run2	generate/STIM_022.jpg
1435.04	1.351	correct	generate	Run2	generate/STIM_023.jpg
1440.232	1.201	correct	generate	Run2	generate/STIM_023.jpg
1443.483	2.298	correct	generate	Run2	generate/STIM_023.jpg
1449.576	0.904	correct	generate	Run2	generate/STIM_023.jpg
1453.359	1.362	correct	generate	Run2	generate/STIM_023.jpg
1456.925	2.142	correct	generate	Run2	generate/STIM_024.jpg
1461.958	2.216	correct	generate	Run2	generate/STIM_024.jpg
1468.058	1.91	incorrect	generate	Run2	generate/STIM_024.jpg
1473.412	1.216	correct	generate	Run2	generate/STIM_024.jpg
1477.576	2.074	correct	generate	Run2	generate/STIM_024.jpg
1482.667	0.979	correct	repeat	Run2	repeat/STIM_000.jpg
1487.483	0.768	correct	repeat	Run2	repeat/STIM_000.jpg
1492.091	0.944	correct	repeat	Run2	repeat/STIM_000.jpg
1496.895	0.996	correct	repeat	Run2	repeat/STIM_000.jpg
1500.235	0.942	correct	repeat	Run2	repeat/STIM_000.jpg
1504.566	0.715	correct	repeat	Run2	repeat/STIM_001.jpg
1508.917	0.86	correct	repeat	Run2	repeat/STIM_001.jpg
1513.625	0.916	correct	repeat	Run2	repeat/STIM_001.jpg
1518.066	0.702	correct	repeat	Run2	repeat/STIM_001.jpg
1521.875	0.816	incorrect	repeat	Run2	repeat/STIM_001.jpg
1526.461	0.671	correct	repeat	Run2	repeat/STIM_002.jpg
1530.995	0.775	correct	repeat	Run2	repeat/STIM_002.jpg
1534.469	0.996	correct	repeat	Run2	repeat/STIM_002.jpg
1538.424	0.98	correct	repeat	Run2	repeat/STIM_002.jpg
1542.305	0.827	correct	repeat	Run2	repeat/STIM_002.jpg
1545.583	0.921	correct	repeat	Run2	repeat/STIM_003.jpg
1548.692	0.649	correct	repeat	Run2	repeat/STIM_003.jpg
1553.308	0.999	correct	repeat	Run2	repeat/STIM_003.jpg
1556.432	0.701	correct	repeat	Run2	repeat/STIM_003.jpg
1561.103	0.88	correct	repeat	Run2	repeat/STIM_003.jpg
1564.421	0.912	correct	repeat	Run2	repeat/STIM_004.jpg
1567.569	0.674	correct	repeat	Run2	repeat/STIM_004.jpg
1571.106	0.6	correct	repeat	Run2	repeat/STIM_004.jpg
1573.92	0.822	correct	repeat	Run2	repeat/STIM_004.jpg
1578.112	0.558	correct	repeat	Run2	repeat/STIM_004.jpg
1581.917	0.794	correct	repeat	Run2	repeat/STIM_005.jpg
1584.811	0.679	correct	repeat	Run2	repeat/STIM_005.jpg
1589.472	0.745	correct	repeat	Run2	repeat/STIM_005.jpg
1592.287	0.765	correct	repeat	Run2	repeat/STIM_005.jpg
1596.202	0.945	incorrect	repeat	Run2	repeat/STIM_005.jpg
1599.872	0.744	correct	repeat	Run2	repeat/STIM_006.jpg
1603.645	0.579	correct	repeat	Run2	repeat/STIM_006.jpg
1607.029	0.716	correct	repeat	Run2	repeat/STIM_006.jpg
1610.845	0.679	correct	repeat	Run2	repeat/STIM_006.jpg
1614.656	0.52	incorrect	repeat	Run2	repeat/STIM_006.jpg
1618.422	0.7	correct	repeat	Run2	repeat/STIM_007.jpg
1622.712	0.916	correct	repeat	Run2	repeat/STIM_007.jpg
1626.454	0.621	correct	repeat	Run2	repeat/STIM_007.jpg
1630.751	0.92	correct	repeat	Run2	repeat/STIM_007.jpg
1634.36	1.034	correct	repeat	Run2	repeat/STIM_007.jpg
1637.629	0.764	correct	repeat	Run2	repeat/STIM_008.jpg
1640.49	0.788	correct	repeat	Run2	repeat/STIM_008.jpg
1645.144	0.791	correct	repeat	Run2	repeat/STIM_008.jpg
1648.965	0.522	correct	repeat	Run2	repeat/STIM_008.jpg
1652.723	0.996	correct	repeat	Run2	repeat/STIM_008.jpg
1657.515	0.956	correct	repeat	Run2	repeat/STIM_009.jpg
1661.377	0.582	correct	repeat	Run2	repeat/STIM_009.jpg
1665.208	0.849	correct	repeat	Run2	repeat/STIM_009.jpg
1669.427	0.808	correct	repeat	Run2	repeat/STIM_009.jpg
1674.151	0.607	correct	repeat	Run2	repeat/STIM_009.jpg
1676.779	0.923	correct	repeat	Run2	repeat/STIM_010.jpg
1680.524	0.732	correct	repeat	Run2	repeat/STIM_010.jpg
1683.352	0.547	correct	repeat	Run2	repeat/STIM_010.jpg
1686.69	0.934	correct	repeat	Run2	repeat/STIM_010.jpg
1689.84	0.993	correct	repeat	Run2	repeat/STIM_010.jpg
1692.986	0.623	correct	repeat	Run2	repeat/STIM_011.jpg
1697.52	0.936	correct	repeat	Run2	repeat/STIM_011.jpg
1701.561	0.768	correct	repeat	Run2	repeat/STIM_011.jpg
1705.9	0.942	correct	repeat	Run2	repeat/STIM_011.jpg
1710.296	0.778	correct	repeat	Run2	repeat/STIM_011.jpg
1714.562	0.653	correct	repeat	Run2	repeat/STIM_012.jpg
1719.182	0.676	correct	repeat	Run2	repeat/STIM_012.jpg
1722.989	0.983	correct	repeat	Run2	repeat/STIM_012.jpg
1726.845	0.72	correct	repeat	Run2	repeat/STIM_012.jpg
1731.137	0.908	correct	repeat	Run2	repeat/STIM_012.jpg
1735.1	0.648	correct	repeat	Run2	repeat/STIM_013.jpg
1738.584	0.567	correct	repeat	Run2	repeat/STIM_013.jpg
1742.114	0.721	correct	repeat	Run2	repeat/STIM_013.jpg
1745.174	0.672	correct	repeat	Run2	repeat/STIM_013.jpg
1749.128	0.722	correct	repeat	Run2	repeat/STIM_013.jpg
1753.77	0.898	correct	repeat	Run2	repeat/STIM_014.jpg
1758.65	0.919	correct	repeat	Run2	repeat/STIM_014.jpg
1762.561	0.528	correct	repeat	Run2	repeat/STIM_014.jpg
1765.457	0.87	correct	repeat	Run2	repeat/STIM_014.jpg
1769.223	0.951	correct	repeat	Run2	repeat/STIM_014.jpg
1774.134	2.086	correct	generate	Run3	generate/STIM_000.jpg
1779.456	0.935	correct	generate	Run3	generate/STIM_000.jpg
1784.009	0.996	correct	generate	Run3	generate/STIM_000.jpg
1788.026	1.592	incorrect	generate	Run3	generate/STIM_000.jpg
1792.826	1.923	correct	generate	Run3	generate/STIM_000.jpg
1797.278	1.722	correct	generate	Run3	generate/STIM_001.jpg
1801.529	1.485	correct	generate	Run3	generate/STIM_001.jpg
1805.653	1.718	correct	generate	Run3	generate/STIM_001.jpg
1810.493	1.519	correct	generate	Run3	generate/STIM_001.jpg
1814.293	1.81	correct	generate	Run3	generate/STIM_001.jpg
1818.632	0.937	correct	generate	Run3	generate/STIM_002.jpg
1823.022	1.862	correct	generate	Run3	generate/STIM_002.jpg
1827.413	1.702	correct	generate	Run3	generate/STIM_002.jpg
1832.333	1.027	correct	generate	Run3	generate/STIM_002.jpg
1836.185	1.307	correct	generate	Run3	generate/STIM_002.jpg
1840.612	1.764	incorrect	generate	Run3	generate/STIM_003.jpg
1845.691	1.69	correct	generate	Run3	generate/STIM_003.jpg
1849.51	2.021	correct	generate	Run3	generate/STIM_003.jpg
1855.28	0.875	correct	generate	Run3	generate/STIM_003.jpg
1859.231	1.58	correct	generate	Run3	generate/STIM_003.jpg
1863.96	1.278	correct	generate	Run3	generate/STIM_004.jpg
1869.085	1.911	correct	generate	Run3	generate/STIM_004.jpg
1874.047	1.397	incorrect	generate	Run3	generate/STIM_004.jpg
1877.756	1.606	correct	generate	Run3	generate/STIM_004.jpg
1882.624	0.874	correct	generate	Run3	generate/STIM_004.jpg
1887.051	1.603	correct	generate	Run3	generate/STIM_005.jpg
1891.993	1.884	incorrect	generate	Run3	generate/STIM_005.jpg
1896.623	2.016	incorrect	generate	Run3	generate/STIM_005.jpg
1901.697	2.082	correct	generate	Run3	generate/STIM_005.jpg
1906.759	1.081	correct	generate	Run3	generate/STIM_005.jpg
1911.563	1.096	correct	generate	Run3	generate/STIM_006.jpg
1916.462	2.137	correct	generate	Run3	generate/STIM_006.jpg
1920.621	2.078	correct	generate	Run3	generate/STIM_006.jpg
1925.937	1.544	correct	generate	Run3	generate/STIM_006.jpg
1930.417	1.375	correct	generate	Run3	generate/STIM_006.jpg
1935.561	1.04	correct	generate	Run3	generate/STIM_007.jpg
1939.354	1.394	correct	generate	Run3	generate/STIM_007.jpg
1943.197	1.44	correct	generate	Run3	generate/STIM_007.jpg
1946.943	0.898	correct	generate	Run3	generate/STIM_007.jpg
1950.225	1.681	correct	generate	Run3	generate/STIM_007.jpg
1954.227	2.11	correct	generate	Run3	generate/STIM_008.jpg
1959.361	1.322	correct	generate	Run3	generate/STIM_008.jpg
1964.288	1.863	correct	generate	Run3	generate/STIM_008.jpg
1968.249	1.887	correct	generate	Run3	generate/STIM_008.jpg
1972.349	1.073	correct	generate	Run3	generate/STIM_008.jpg
1975.741	1.083	correct	generate	Run3	generate/STIM_009.jpg
1979.982	1.717	correct	generate	Run3	generate/STIM_009.jpg
1985.517	1.901	correct	generate	Run3	generate/STIM_009.jpg
1989.864	1.683	correct	generate	Run3	generate/STIM_009.jpg
1993.89	1.448	correct	generate	Run3	generate/STIM_009.jpg
1998.247	1.189	correct	generate	Run3	generate/STIM_010.jpg
2002.167	1.644	correct	generate	Run3	generate/STIM_010.jpg
2006.86	1.294	correct	generate	Run3	generate/STIM_010.jpg
2010.723	1.203	correct	generate	Run3	generate/STIM_010.jpg
2015.467	1.484	correct	generate	Run3	generate/STIM_010.jpg
2019.393	1.586	correct	generate	Run3	generate/STIM_011.jpg
2024.546	1.221	correct	generate	Run3	generate/STIM_011.jpg
2029.486	1.076	correct	generate	Run3	generate/STIM_011.jpg
2034.018	1.266	correct	generate	Run3	generate/STIM_011.jpg
2038.245	1.081	correct	generate	Run3	generate/STIM_011.jpg
2042.63	0.994	incorrect	generate	Run3	generate/STIM_012.jpg
2045.837	1.571	correct	generate	Run3	generate/STIM_012.jpg
2049.778	1.422	correct	generate	Run3	generate/STIM_012.jpg
2053.581	1.837	correct	generate	Run3	generate/STIM_012.jpg
2057.619	1.196	incorrect	generate	Run3	generate/STIM_012.jpg
2062.689	1.765	correct	generate	Run3	generate/STIM_013.jpg
2067.523	1.706	correct	generate	Run3	generate/STIM_013.jpg
2072.444	1.949	correct	generate	Run3	generate/STIM_013.jpg
2078.314	1.96	correct	generate	Run3	generate/STIM_013.jpg
2082.711	1.93	correct	generate	Run3	generate/STIM_013.jpg
2087.813	1.037	correct	generate	Run3	generate/STIM_014.jpg
2092.798	1.088	correct	generate	Run3	generate/STIM_014.jpg
2096.409	1.018	correct	generate	Run3	generate/STIM_014.jpg
2100.5	1.681	correct	generate	Run3	generate/STIM_014.jpg
2105.138	1.785	correct	generate	Run3	generate/STIM_014.jpg
2109.308	1.23	incorrect	generate	Run3	generate/STIM_015.jpg
2114.188	1.337	correct	generate	Run3	generate/STIM_015.jpg
2117.997	1.094	correct	generate	Run3	generate/STIM_015.jpg
2122.624	1.496	correct	generate	Run3	generate/STIM_015.jpg
2126.347	2.168	correct	generate	Run3	generate/STIM_015.jpg
2131.844	1.398	correct	generate	Run3	generate/STIM_016.jpg
2135.771	1.262	correct	generate	Run3	generate/STIM_016.jpg
2139.824	1.428	correct	generate	Run3	generate/STIM_016.jpg
2144.951	1.488	correct	generate	Run3	generate/STIM_016.jpg
2149.925	1.067	correct	generate	Run3	generate/STIM_016.jpg
2154.942	1.648	correct	generate	Run3	generate/STIM_017.jpg
2159.3	1.057	correct	generate	Run3	generate/STIM_017.jpg
2162.962	1.699	correct	generate	Run3	generate/STIM_017.jpg
2168.473	1.14	correct	generate	Run3	generate/STIM_017.jpg
2173.147	1.307	correct	generate	Run3	generate/STIM_017.jpg
2176.841	2.054	correct	generate	Run3	generate/STIM_018.jpg
2182.098	1.588	correct	generate	Run3	generate/STIM_018.jpg
2187.302	1.727	correct	generate	Run3	generate/STIM_018.jpg
2192.94	1.838	correct	generate	Run3	generate/STIM_018.jpg
2197.545	2.135	correct	generate	Run3	generate/STIM_018.jpg
2203.332	0.931	correct	generate	Run3	generate/STIM_019.jpg
2206.984	1.483	correct	generate	Run3	generate/STIM_019.jpg
2211.568	1.171	correct	generate	Run3	generate/STIM_019.jpg
2216.303	1.754	correct	generate	Run3	generate/STIM_019.jpg
2220.361	1.182	correct	generate	Run3	generate/STIM_019.jpg
2224.246	1.138	correct	generate	Run3	generate/STIM_020.jpg
2227.93	0.976	correct	generate	Run3	generate/STIM_020.jpg
2231.97	0.919	correct	generate	Run3	generate/STIM_020.jpg
2236.037	1.808	correct	generate	Run3	generate/STIM_020.jpg
2240.859	0.916	correct	generate	Run3	generate/STIM_020.jpg
2244.674	1.431	correct	generate	Run3	generate/STIM_021.jpg
2249.332	1.955	correct	generate	Run3	generate/STIM_021.jpg
2255.066	1.462	correct	generate	Run3	generate/STIM_021.jpg
2259.716	1.95	correct	generate	Run3	generate/STIM_021.jpg
2263.839	2.039	correct	generate	Run3	generate/STIM_021.jpg
2268.726	1.074	correct	generate	Run3	generate/STIM_022.jpg
2273.274	1.993	incorrect	generate	Run3	generate/STIM_022.jpg
2279.216	1.623	correct	generate	Run3	generate/STIM_022.jpg
2283.743	1.401	correct	generate	Run3	generate/STIM_022.jpg
2288.516	1.859	correct	generate	Run3	generate/STIM_022.jpg
2294.044	1.97	correct	generate	Run3	generate/STIM_023.jpg
2298.729	2.139	correct	generate	Run3	generate/STIM_023.jpg
2303.093	1.739	correct	generate	Run3	generate/STIM_023.jpg
2308.7	1.055	correct	generate	Run3	generate/STIM_023.jpg
2313.179	1.733	correct	generate	Run3	generate/STIM_023.jpg
2318.044	0.994	correct	generate	Run3	generate/STIM_024.jpg
2322.428	1.774	correct	generate	Run3	generate/STIM_024.jpg
2327.822	1.687	correct	generate	Run3	generate/STIM_024.jpg
2333.121	1.491	correct	generate	Run3	generate/STIM_024.jpg
2337.715	1.391	correct	generate	Run3	generate/STIM_024.jpg
2342.624	0.798	correct	repeat	Run3	repeat/STIM_000.jpg
2345.57	0.756	correct	repeat	Run3	repeat/STIM_000.jpg
2348.677	0.781	correct	repeat	Run3	repeat/STIM_000.jpg
2353.152	0.549	correct	repeat	Run3	repeat/STIM_000.jpg
2357.248	0.947	correct	repeat	Run3	repeat/STIM_000.jpg
2361.237	0.78	correct	repeat	Run3	repeat/STIM_001.jpg
2365.865	0.992	correct	repeat	Run3	repeat/STIM_001.jpg
2370.513	0.722	correct	repeat	Run3	repeat/STIM_001.jpg
2374.45	0.952	correct	repeat	Run3	repeat/STIM_001.jpg
2379.379	0.553	incorrect	repeat	Run3	repeat/STIM_001.jpg
2382.013	0.852	correct	repeat	Run3	repeat/STIM_002.jpg
2385.825	0.649	correct	repeat	Run3	repeat/STIM_002.jpg
2388.586	0.862	correct	repeat	Run3	repeat/STIM_002.jpg
2393.137	0.6	correct	repeat	Run3	repeat/STIM_002.jpg
2397.27	0.522	correct	repeat	Run3	repeat/STIM_002.jpg
2400.707	0.871	correct	repeat	Run3	repeat/STIM_003.jpg
2404.588	0.557	correct	repeat	Run3	repeat/STIM_003.jpg
2408.413	0.76	incorrect	repeat	Run3	repeat/STIM_003.jpg
2412.363	0.764	correct	repeat	Run3	repeat/STIM_003.jpg
2415.725	0.908	correct	repeat	Run3	repeat/STIM_003.jpg
2418.636	0.53	correct	repeat	Run3	repeat/STIM_004.jpg
2421.428	0.783	correct	repeat	Run3	repeat/STIM_004.jpg
2424.276	0.731	correct	repeat	Run3	repeat/STIM_004.jpg
2427.356	0.905	correct	repeat	Run3	repeat/STIM_004.jpg
2430.592	1.022	correct	repeat	Run3	repeat/STIM_004.jpg
2433.799	0.692	correct	repeat	Run3	repeat/STIM_005.jpg
2436.963	0.829	correct	repeat	Run3	repeat/STIM_005.jpg
2440.141	0.682	correct	repeat	Run3	repeat/STIM_005.jpg
2442.927	1.02	correct	repeat	Run3	repeat/STIM_005.jpg
2447.101	0.609	incorrect	repeat	Run3	repeat/STIM_005.jpg
2450.935	0.914	correct	repeat	Run3	repeat/STIM_006.jpg
2454.938	0.946	correct	repeat	Run3	repeat/STIM_006.jpg
2458.221	0.565	correct	repeat	Run3	repeat/STIM_006.jpg
2462.713	0.799	correct	repeat	Run3	repeat/STIM_006.jpg
2467.484	0.603	correct	repeat	Run3	repeat/STIM_006.jpg
2470.158	0.636	correct	repeat	Run3	repeat/STIM_007.jpg
2473.942	0.721	correct	repeat	Run3	repeat/STIM_007.jpg
2477.674	0.626	correct	repeat	Run3	repeat/STIM_007.jpg
2480.787	1.003	correct	repeat	Run3	repeat/STIM_007.jpg
2485.238	0.805	correct	repeat	Run3	repeat/STIM_007.jpg
2489.81	0.555	correct	repeat	Run3	repeat/STIM_008.jpg
2492.665	0.596	correct	repeat	Run3	repeat/STIM_008.jpg
2496.491	1.014	correct	repeat	Run3	repeat/STIM_008.jpg
2500.54	0.916	correct	repeat	Run3	repeat/STIM_008.jpg
2504.845	0.803	correct	repeat	Run3	repeat/STIM_008.jpg
2509.128	0.549	correct	repeat	Run3	repeat/STIM_009.jpg
2511.874	0.914	correct	repeat	Run3	repeat/STIM_009.jpg
2516.152	0.701	correct	repeat	Run3	repeat/STIM_009.jpg
2520.257	1.021	correct	repeat	Run3	repeat/STIM_009.jpg
2523.878	0.728	correct	repeat	Run3	repeat/STIM_009.jpg
2527.003	0.688	correct	repeat	Run3	repeat/STIM_010.jpg
2529.84	0.816	correct	repeat	Run3	repeat/STIM_010.jpg
2534.29	0.778	correct	repeat	Run3	repeat/STIM_010.jpg
2539.048	0.726	correct	repeat	Run3	repeat/STIM_010.jpg
2543.061	1.023	correct	repeat	Run3	repeat/STIM_010.jpg
2547.046	0.839	correct	repeat	Run3	repeat/STIM_011.jpg
2550.352	0.623	correct	repeat	Run3	repeat/STIM_011.jpg
2553.447	0.679	correct	repeat	Run3	repeat/STIM_011.jpg
2556.191	0.759	incorrect	repeat	Run3	repeat/STIM_011.jpg
2559.595	0.646	correct	repeat	Run3	repeat/STIM_011.jpg
2562.84	0.718	correct	repeat	Run3	repeat/STIM_012.jpg
2566.43	0.568	correct	repeat	Run3	repeat/STIM_012.jpg
2569.203	0.636	correct	repeat	Run3	repeat/STIM_012.jpg
2572.24	0.794	correct	repeat	Run3	repeat/STIM_012.jpg
2575.303	0.594	correct	repeat	Run3	repeat/STIM_012.jpg
2579.051	0.564	correct	repeat	Run3	repeat/STIM_013.jpg
2582.582	0.785	correct	repeat	Run3	repeat/STIM_013.jpg
2586.715	0.699	correct	repeat	Run3	repeat/STIM_013.jpg
2590.846	0.783	correct	repeat	Run3	repeat/STIM_013.jpg
2594.174	0.646	correct	repeat	Run3	repeat/STIM_013.jpg
2597.781	0.643	correct	repeat	Run3	repeat/STIM_014.jpg
2601.629	0.744	correct	repeat	Run3	repeat/STIM_014.jpg
2605.372	0.551	correct	repeat	Run3	repeat/STIM_014.jpg
2608.894	0.818	correct	repeat	Run3	repeat/STIM_014.jpg
2612.447	0.75	correct	repeat	Run3	repeat/STIM_014.jpg
2616.594	1.718	correct	generate	Run4	generate/STIM_000.jpg
2620.482	1.504	correct	generate	Run4	generate/STIM_000.jpg
2625.41	1.804	correct	generate	Run4	generate/STIM_000.jpg
2631.214	1.621	correct	generate	Run4	generate/STIM_000.jpg
2635.551	0.933	correct	generate	Run4	generate/STIM_000.jpg
2638.687	1.228	incorrect	generate	Run4	generate/STIM_001.jpg
2642.62	1.854	correct	generate	Run4	generate/STIM_001.jpg
2647.246	1.053	correct	generate	Run4	generate/STIM_001.jpg
2650.386	1.659	correct	generate	Run4	generate/STIM_001.jpg
2654.479	1.169	correct	generate	Run4	generate/STIM_001.jpg
2658.057	1.084	correct	generate	Run4	generate/STIM_002.jpg
2662.334	2.027	correct	generate	Run4	generate/STIM_002.jpg
2668.335	1.278	correct	generate	Run4	generate/STIM_002.jpg
2672.592	1.542	correct	generate	Run4	generate/STIM_002.jpg
2676.515	0.914	correct	generate	Run4	generate/STIM_002.jpg
2680.788	1.493	correct	generate	Run4	generate/STIM_003.jpg
2685.654	2.002	correct	generate	Run4	generate/STIM_003.jpg
2689.935	1.002	correct	generate	Run4	generate/STIM_003.jpg
2694.339	1.957	correct	generate	Run4	generate/STIM_003.jpg
2699.983	1.943	correct	generate	Run4	generate/STIM_003.jpg
2705.39	1.419	correct	generate	Run4	generate/STIM_004.jpg
2710.261	1.233	correct	generate	Run4	generate/STIM_004.jpg
2713.763	1.621	correct	generate	Run4	generate/STIM_004.jpg
2718.138	1.087	correct	generate	Run4	generate/STIM_004.jpg
2721.8	2.009	correct	generate	Run4	generate/STIM_004.jpg
2726.489	1.581	correct	generate	Run4	generate/STIM_005.jpg
2731.464	1.714	correct	generate	Run4	generate/STIM_005.jpg
2736.0	1.489	correct	generate	Run4	generate/STIM_005.jpg
2740.09	1.791	correct	generate	Run4	generate/STIM_005.jpg
2744.435	2.011	incorrect	generate	Run4	generate/STIM_005.jpg
2749.951	1.67	correct	generate	Run4	generate/STIM_006.jpg
2755.507	1.849	correct	generate	Run4	generate/STIM_006.jpg
2761.188	1.828	correct	generate	Run4	generate/STIM_006.jpg
2765.433	1.755	correct	generate	Run4	generate/STIM_006.jpg
2769.613	0.947	correct	generate	Run4	generate/STIM_006.jpg
2773.059	0.947	correct	generate	Run4	generate/STIM_007.jpg
2777.027	1.944	correct	generate	Run4	generate/STIM_007.jpg
2781.701	1.192	correct	generate	Run4	generate/STIM_007.jpg
2786.479	0.944	correct	generate	Run4	generate/STIM_007.jpg
2790.272	2.109	correct	generate	Run4	generate/STIM_007.jpg
2794.523	1.94	correct	generate	Run4	generate/STIM_008.jpg
2799.249	1.927	correct	generate	Run4	generate/STIM_008.jpg
2804.277	1.489	incorrect	generate	Run4	generate/STIM_008.jpg
2808.47	2.047	correct	generate	Run4	generate/STIM_008.jpg
2812.999	1.658	correct	generate	Run4	generate/STIM_008.jpg
2818.655	1.346	correct	generate	Run4	generate/STIM_009.jpg
2822.703	1.454	correct	generate	Run4	generate/STIM_009.jpg
2828.101	2.179	correct	generate	Run4	generate/STIM_009.jpg
2833.718	2.06	correct	generate	Run4	generate/STIM_009.jpg
2838.193	1.042	correct	generate	Run4	generate/STIM_009.jpg
2842.263	1.8	correct	generate	Run4	generate/STIM_010.jpg
2846.714	1.465	correct	generate	Run4	generate/STIM_010.jpg
2850.782	1.146	correct	generate	Run4	generate/STIM_010.jpg
2853.961	1.114	correct	generate	Run4	generate/STIM_010.jpg
2857.532	1.606	correct	generate	Run4	generate/STIM_010.jpg
2862.315	1.965	correct	generate	Run4	generate/STIM_011.jpg
2868.095	1.166	correct	generate	Run4	generate/STIM_011.jpg
2871.892	1.788	correct	generate	Run4	generate/STIM_011.jpg
2876.598	1.843	correct	generate	Run4	generate/STIM_011.jpg
2881.251	1.55	correct	generate	Run4	generate/STIM_011.jpg
2886.073	1.583	correct	generate	Run4	generate/STIM_012.jpg
2890.088	1.341	correct	generate	Run4	generate/STIM_012.jpg
2895.294	2.161	correct	generate	Run4	generate/STIM_012.jpg
2901.094	1.769	correct	generate	Run4	generate/STIM_012.jpg
2905.364	1.972	correct	generate	Run4	generate/STIM_012.jpg
2910.907	0.946	correct	generate	Run4	generate/STIM_013.jpg
2914.617	1.817	correct	generate	Run4	generate/STIM_013.jpg
2919.3	2.071	correct	generate	Run4	generate/STIM_013.jpg
2923.691	1.583	correct	generate	Run4	generate/STIM_013.jpg
2929.084	1.696	correct	generate	Run4	generate/STIM_013.jpg
2932.807	0.912	correct	generate	Run4	generate/STIM_014.jpg
2936.41	2.157	correct	generate	Run4	generate/STIM_014.jpg
2942.031	1.117	correct	generate	Run4	generate/STIM_014.jpg
2945.231	2.156	correct	generate	Run4	generate/STIM_014.jpg
2950.423	2.029	correct	generate	Run4	generate/STIM_014.jpg
2954.537	0.907	correct	generate	Run4	generate/STIM_015.jpg
2957.493	1.722	correct	generate	Run4	generate/STIM_015.jpg
2962.931	2.109	correct	generate	Run4	generate/STIM_015.jpg
2969.027	1.06	correct	generate	Run4	generate/STIM_015.jpg
2973.733	1.768	correct	generate	Run4	generate/STIM_015.jpg
2978.426	1.104	correct	generate	Run4	generate/STIM_016.jpg
2982.62	2.164	correct	generate	Run4	generate/STIM_016.jpg
2987.298	1.269	correct	generate	Run4	generate/STIM_016.jpg
2990.851	0.92	correct	generate	Run4	generate/STIM_016.jpg
2994.454	1.806	correct	generate	Run4	generate/STIM_016.jpg
2999.472	1.446	correct	generate	Run4	generate/STIM_017.jpg
3003.059	1.527	correct	generate	Run4	generate/STIM_017.jpg
3007.042	1.186	correct	generate	Run4	generate/STIM_017.jpg
3012.144	1.985	correct	generate	Run4	generate/STIM_017.jpg
3017.045	1.079	correct	generate	Run4	generate/STIM_017.jpg
3020.381	1.475	correct	generate	Run4	generate/STIM_018.jpg
3024.774	2.145	correct	generate	Run4	generate/STIM_018.jpg
3029.856	1.853	correct	generate	Run4	generate/STIM_018.jpg
3034.467	1.916	correct	generate	Run4	generate/STIM_018.jpg
3039.871	1.618	correct	generate	Run4	generate/STIM_018.jpg
3045.173	2.17	correct	generate	Run4	generate/STIM_019.jpg
3051.299	2.099	correct	generate	Run4	generate/STIM_019.jpg
3056.633	1.47	incorrect	generate	Run4	generate/STIM_019.jpg
3062.026	2.034	correct	generate	Run4	generate/STIM_019.jpg
3066.634	1.896	incorrect	generate	Run4	generate/STIM_019.jpg
3072.254	1.895	correct	generate	Run4	generate/STIM_020.jpg
3077.304	1.702	correct	generate	Run4	generate/STIM_020.jpg
3081.981	1.887	correct	generate	Run4	generate/STIM_020.jpg
3086.006	1.404	correct	generate	Run4	generate/STIM_020.jpg
3089.869	1.581	correct	generate	Run4	generate/STIM_020.jpg
3095.17	1.666	correct	generate	Run4	generate/STIM_021.jpg
3100.692	1.499	correct	generate	Run4	generate/STIM_021.jpg
3104.785	1.495	correct	generate	Run4	generate/STIM_021.jpg
3108.553	1.225	correct	generate	Run4	generate/STIM_021.jpg
3113.752	0.932	correct	generate	Run4	generate/STIM_021.jpg
3118.344	1.606	correct	generate	Run4	generate/STIM_022.jpg
3123.751	1.554	correct	generate	Run4	generate/STIM_022.jpg
3127.685	2.123	correct	generate	Run4	generate/STIM_022.jpg
3132.144	1.494	correct	generate	Run4	generate/STIM_022.jpg
3135.867	1.455	correct	generate	Run4	generate/STIM_022.jpg
3140.985	1.037	correct	generate	Run4	generate/STIM_023.jpg
3144.714	1.295	correct	generate	Run4	generate/STIM_023.jpg
3148.327	2.124	correct	generate	Run4	generate/STIM_023.jpg
3152.605	1.394	correct	generate	Run4	generate/STIM_023.jpg
3156.293	1.096	correct	generate	Run4	generate/STIM_023.jpg
3160.595	1.47	correct	generate	Run4	generate/STIM_024.jpg
3164.532	1.757	correct	generate	Run4	generate/STIM_024.jpg
3169.572	1.904	correct	generate	Run4	generate/STIM_024.jpg
3175.046	1.398	correct	generate	Run4	generate/STIM_024.jpg
3179.755	1.647	correct	generate	Run4	generate/STIM_024.jpg
3184.173	0.809	correct	repeat	Run4	repeat/STIM_000.jpg
3188.952	0.557	correct	repeat	Run4	repeat/STIM_000.jpg
3193.361	0.723	correct	repeat	Run4	repeat/STIM_000.jpg
3197.002	0.657	correct	repeat	Run4	repeat/STIM_000.jpg
3201.022	1.026	correct	repeat	Run4	repeat/STIM_000.jpg
3205.136	0.548	correct	repeat	Run4	repeat/STIM_001.jpg
3208.704	0.963	correct	repeat	Run4	repeat/STIM_001.jpg
3212.81	0.679	correct	repeat	Run4	repeat/STIM_001.jpg
3217.403	0.532	correct	repeat	Run4	repeat/STIM_001.jpg
3220.563	0.967	correct	repeat	Run4	repeat/STIM_001.jpg
3225.336	0.851	correct	repeat	Run4	repeat/STIM_002.jpg
3229.675	0.769	correct	repeat	Run4	repeat/STIM_002.jpg
3233.016	0.649	correct	repeat	Run4	repeat/STIM_002.jpg
3237.65	0.67	correct	repeat	Run4	repeat/STIM_002.jpg
3240.919	0.962	correct	repeat	Run4	repeat/STIM_002.jpg
3244.377	0.783	correct	repeat	Run4	repeat/STIM_003.jpg
3248.557	0.618	correct	repeat	Run4	repeat/STIM_003.jpg
3251.753	0.926	correct	repeat	Run4	repeat/STIM_003.jpg
3256.091	0.905	correct	repeat	Run4	repeat/STIM_003.jpg
3260.351	1.008	correct	repeat	Run4	repeat/STIM_003.jpg
3263.679	0.872	correct	repeat	Run4	repeat/STIM_004.jpg
3267.081	0.829	correct	repeat	Run4	repeat/STIM_004.jpg
3270.334	0.706	correct	repeat	Run4	repeat/STIM_004.jpg
3273.986	0.781	correct	repeat	Run4	repeat/STIM_004.jpg
3277.336	0.999	correct	repeat	Run4	repeat/STIM_004.jpg
3281.061	0.989	incorrect	repeat	Run4	repeat/STIM_005.jpg
3285.194	0.565	correct	repeat	Run4	repeat/STIM_005.jpg
3289.249	0.564	correct	repeat	Run4	repeat/STIM_005.jpg
3292.152	1.034	correct	repeat	Run4	repeat/STIM_005.jpg
3296.838	0.715	correct	repeat	Run4	repeat/STIM_005.jpg
3300.87	0.837	correct	repeat	Run4	repeat/STIM_006.jpg
3305.225	0.591	correct	repeat	Run4	repeat/STIM_006.jpg
3307.961	0.858	correct	repeat	Run4	repeat/STIM_006.jpg
3311.32	0.537	correct	repeat	Run4	repeat/STIM_006.jpg
3314.244	0.979	correct	repeat	Run4	repeat/STIM_006.jpg
3318.119	0.85	correct	repeat	Run4	repeat/STIM_007.jpg
3321.525	0.898	correct	repeat	Run4	repeat/STIM_007.jpg
3326.026	0.706	incorrect	repeat	Run4	repeat/STIM_007.jpg
3330.411	0.534	correct	repeat	Run4	repeat/STIM_007.jpg
3334.17	0.743	correct	repeat	Run4	repeat/STIM_007.jpg
3337.31	0.545	correct	repeat	Run4	repeat/STIM_008.jpg
3340.728	0.884	correct	repeat	Run4	repeat/STIM_008.jpg
3343.89	0.767	correct	repeat	Run4	repeat/STIM_008.jpg
3347.819	0.985	correct	repeat	Run4	repeat/STIM_008.jpg
3351.157	0.654	correct	repeat	Run4	repeat/STIM_008.jpg
3354.793	0.734	correct	repeat	Run4	repeat/STIM_009.jpg
3358.422	0.651	correct	repeat	Run4	repeat/STIM_009.jpg
3361.291	0.564	correct	repeat	Run4	repeat/STIM_009.jpg
3365.494	0.68	correct	repeat	Run4	repeat/STIM_009.jpg
3368.553	0.798	correct	repeat	Run4	repeat/STIM_009.jpg
3372.971	0.673	correct	repeat	Run4	repeat/STIM_010.jpg
3376.151	0.894	correct	repeat	Run4	repeat/STIM_010.jpg
3379.236	0.919	correct	repeat	Run4	repeat/STIM_010.jpg
3382.515	1.023	correct	repeat	Run4	repeat/STIM_010.jpg
3387.167	0.834	correct	repeat	Run4	repeat/STIM_010.jpg
3390.404	0.527	correct	repeat	Run4	repeat/STIM_011.jpg
3393.005	0.806	correct	repeat	Run4	repeat/STIM_011.jpg
3397.515	0.828	correct	repeat	Run4	repeat/STIM_011.jpg
3401.294	0.777	correct	repeat	Run4	repeat/STIM_011.jpg
3405.395	0.894	correct	repeat	Run4	repeat/STIM_011.jpg
3409.604	1.028	correct	repeat	Run4	repeat/STIM_012.jpg
3414.128	0.715	correct	repeat	Run4	repeat/STIM_012.jpg
3418.238	1.018	correct	repeat	Run4	repeat/STIM_012.jpg
3422.669	0.994	correct	repeat	Run4	repeat/STIM_012.jpg
3427.287	0.947	correct	repeat	Run4	repeat/STIM_012.jpg
3430.289	0.596	correct	repeat	Run4	repeat/STIM_013.jpg
3434.776	0.625	correct	repeat	Run4	repeat/STIM_013.jpg
3438.669	0.979	correct	repeat	Run4	repeat/STIM_013.jpg
3443.349	0.916	correct	repeat	Run4	repeat/STIM_013.jpg
3447.496	0.622	correct	repeat	Run4	repeat/STIM_013.jpg
3451.873	0.958	correct	repeat	Run4	repeat/STIM_014.jpg
3455.92	0.571	correct	repeat	Run4	repeat/STIM_014.jpg
3460.243	0.888	correct	repeat	Run4	repeat/STIM_014.jpg
3463.396	0.843	correct	repeat	Run4	repeat/STIM_014.jpg
3467.592	0.713	correct	repeat	Run4	repeat/STIM_014.jpg
