onset	duration	response_time_ms	trial_type	learning_stage	stimulus	response_port
0.0	1.308	1307.7	generate	Run1	generate/STIM_000.jpg	100
3.471	2.78	2779.5	generate	Run1	generate/STIM_000.jpg	100
9.795	1.3	1300.0	generate	Run1	generate/STIM_000.jpg	99
14.61	2.134	2134.0	generate	Run1	generate/STIM_000.jpg	100
18.711	1.881	1880.8	generate	Run1	generate/STIM_000.jpg	99
22.507	2.85	2850.2	generate	Run1	generate/STIM_001.jpg	100
27.88	1.784	1783.7	generate	Run1	generate/STIM_001.jpg	100
33.019	1.99	1990.0	generate	Run1	generate/STIM_001.jpg	99
36.785	1.219	1218.9	generate	Run1	generate/STIM_001.jpg	99
40.376	1.266	1265.6	generate	Run1	generate/STIM_001.jpg	99
45.39	2.084	2083.5	generate	Run1	generate/STIM_002.jpg	100
50.652	2.276	2275.6	generate	Run1	generate/STIM_002.jpg	100
56.388	2.313	2312.8	generate	Run1	generate/STIM_002.jpg	100
61.893	1.378	1377.5	generate	Run1	generate/STIM_002.jpg	99
66.066	1.296	1296.5	generate	Run1	generate/STIM_002.jpg	100
69.343	1.391	1390.7	generate	Run1	generate/STIM_003.jpg	100
73.588	1.642	1642.1	generate	Run1	generate/STIM_003.jpg	99
77.311	1.964	1964.5	generate	Run1	generate/STIM_003.jpg	99
81.448	1.429	1428.6	generate	Run1	generate/STIM_003.jpg	99
85.724	1.49	1489.8	generate	Run1	generate/STIM_003.jpg	99
90.336	2.334	2333.5	generate	Run1	generate/STIM_004.jpg	100
96.42	2.266	2265.5	generate	Run1	generate/STIM_004.jpg	100
101.395	2.744	2743.9	generate	Run1	generate/STIM_004.jpg	99
106.99	2.423	2422.8	generate	Run1	generate/STIM_004.jpg	100
112.039	1.697	1696.6	generate	Run1	generate/STIM_004.jpg	100
116.691	2.288	2288.1	generate	Run1	generate/STIM_005.jpg	99
121.67	2.076	2076.3	generate	Run1	generate/STIM_005.jpg	99
125.941	2.142	2141.5	generate	Run1	generate/STIM_005.jpg	99
131.665	1.783	1783.4	generate	Run1	generate/STIM_005.jpg	99
135.697	1.914	1914.1	generate	Run1	generate/STIM_005.jpg	99
140.327	2.084	2084.5	generate	Run1	generate/STIM_006.jpg	100
146.302	3.032	3032.5	generate	Run1	generate/STIM_006.jpg	99
152.012	2.017	2016.8	generate	Run1	generate/STIM_006.jpg	100
157.577	2.533	2533.1	generate	Run1	generate/STIM_006.jpg	99
162.836	1.244	1243.9	generate	Run1	generate/STIM_006.jpg	100
167.659	1.366	1366.4	generate	Run1	generate/STIM_007.jpg	100
171.079	1.925	1925.1	generate	Run1	generate/STIM_007.jpg	100
175.859	1.84	1840.4	generate	Run1	generate/STIM_007.jpg	99
180.677	1.965	1964.8	generate	Run1	generate/STIM_007.jpg	100
186.254	1.056	1056.5	generate	Run1	generate/STIM_007.jpg	100
190.649	3.032	3032.3	generate	Run1	generate/STIM_008.jpg	99
196.608	2.646	2645.9	generate	Run1	generate/STIM_008.jpg	100
201.758	2.685	2685.1	generate	Run1	generate/STIM_008.jpg	99
207.687	2.731	2730.9	generate	Run1	generate/STIM_008.jpg	99
212.58	1.593	1592.6	generate	Run1	generate/STIM_008.jpg	100
216.401	1.443	1443.4	generate	Run1	generate/STIM_009.jpg	100
219.662	1.825	1825.1	generate	Run1	generate/STIM_009.jpg	100
224.202	2.679	2679.0	generate	Run1	generate/STIM_009.jpg	100
229.578	1.751	1751.2	generate	Run1	generate/STIM_009.jpg	99
233.554	1.31	1309.8	generate	Run1	generate/STIM_009.jpg	99
237.975	1.736	1735.5	generate	Run1	generate/STIM_010.jpg	99
241.854	2.885	2885.4	generate	Run1	generate/STIM_010.jpg	100
248.108	1.918	1917.6	generate	Run1	generate/STIM_010.jpg	99
253.137	2.312	2311.9	generate	Run1	generate/STIM_010.jpg	99
257.21	2.056	2056.5	generate	Run1	generate/STIM_010.jpg	100
261.935	2.557	2557.3	generate	Run1	generate/STIM_011.jpg	100
267.934	2.254	2254.1	generate	Run1	generate/STIM_011.jpg	100
272.814	2.429	2428.9	generate	Run1	generate/STIM_011.jpg	100
278.448	1.371	1371.3	generate	Run1	generate/STIM_011.jpg	99
283.206	2.031	2030.9	generate	Run1	generate/STIM_011.jpg	100
288.183	2.133	2132.9	generate	Run1	generate/STIM_012.jpg	99
292.733	1.419	1419.1	generate	Run1	generate/STIM_012.jpg	99
297.925	2.768	2767.5	generate	Run1	generate/STIM_012.jpg	100
303.116	2.716	2715.5	generate	Run1	generate/STIM_012.jpg	99
308.812	2.441	2440.6	generate	Run1	generate/STIM_012.jpg	99
314.355	2.315	2315.0	generate	Run1	generate/STIM_013.jpg	100
319.329	1.358	1357.7	generate	Run1	generate/STIM_013.jpg	100
323.044	1.258	1258.3	generate	Run1	generate/STIM_013.jpg	99
328.176	2.071	2071.0	generate	Run1	generate/STIM_013.jpg	99
334.024	2.489	2489.1	generate	Run1	generate/STIM_013.jpg	100
338.594	2.928	2927.8	generate	Run1	generate/STIM_014.jpg	100
343.308	2.134	2133.8	generate	Run1	generate/STIM_014.jpg	100
348.393	3.002	3002.4	generate	Run1	generate/STIM_014.jpg	100
354.012	2.248	2247.9	generate	Run1	generate/STIM_014.jpg	99
358.627	2.253	2252.9	generate	Run1	generate/STIM_014.jpg	100
363.188	1.463	1463.4	generate	Run1	generate/STIM_015.jpg	100
367.376	2.722	2721.8	generate	Run1	generate/STIM_015.jpg	99
372.944	1.961	1960.7	generate	Run1	generate/STIM_015.jpg	100
377.508	1.741	1741.3	generate	Run1	generate/STIM_015.jpg	99
381.304	2.442	2441.8	generate	Run1	generate/STIM_015.jpg	100
387.53	1.598	1597.9	generate	Run1	generate/STIM_016.jpg	100
392.068	3.065	3064.8	generate	Run1	generate/STIM_016.jpg	100
397.164	2.228	2227.9	generate	Run1	generate/STIM_016.jpg	100
402.186	2.499	2499.0	generate	Run1	generate/STIM_016.jpg	100
407.358	1.036	1036.1	generate	Run1	generate/STIM_016.jpg	100
411.305	3.114	3114.3	generate	Run1	generate/STIM_017.jpg	99
416.955	2.555	2555.3	generate	Run1	generate/STIM_017.jpg	100
421.699	2.918	2917.5	generate	Run1	generate/STIM_017.jpg	100
427.139	2.274	2274.4	generate	Run1	generate/STIM_017.jpg	100
433.112	1.671	1670.8	generate	Run1	generate/STIM_017.jpg	99
437.664	3.052	3052.3	generate	Run1	generate/STIM_018.jpg	99
443.896	1.541	1540.7	generate	Run1	generate/STIM_018.jpg	100
447.509	1.792	1791.6	generate	Run1	generate/STIM_018.jpg	99
451.461	1.908	1907.9	generate	Run1	generate/STIM_018.jpg	100
455.446	1.137	1137.2	generate	Run1	generate/STIM_018.jpg	100
459.132	3.02	3019.8	generate	Run1	generate/STIM_019.jpg	100
464.003	1.73	1730.5	generate	Run1	generate/STIM_019.jpg	99
468.875	1.368	1368.0	generate	Run1	generate/STIM_019.jpg	100
472.615	1.544	1543.6	generate	Run1	generate/STIM_019.jpg	100
476.739	2.064	2064.0	generate	Run1	generate/STIM_019.jpg	99
482.445	2.181	2180.7	generate	Run1	generate/STIM_020.jpg	99
486.915	2.422	2421.9	generate	Run1	generate/STIM_020.jpg	99
492.113	2.586	2586.3	generate	Run1	generate/STIM_020.jpg	99
497.78	1.891	1891.1	generate	Run1	generate/STIM_020.jpg	100
502.511	2.357	2356.8	generate	Run1	generate/STIM_020.jpg	100
507.325	2.815	2815.2	generate	Run1	generate/STIM_021.jpg	99
512.206	1.448	1448.4	generate	Run1	generate/STIM_021.jpg	100
515.755	2.549	2549.3	generate	Run1	generate/STIM_021.jpg	99
520.285	2.52	2519.7	generate	Run1	generate/STIM_021.jpg	100
525.037	2.593	2593.2	generate	Run1	generate/STIM_021.jpg	99
530.196	2.109	2109.2	generate	Run1	generate/STIM_022.jpg	100
534.55	1.674	1674.1	generate	Run1	generate/STIM_022.jpg	100
538.821	1.966	1966.4	generate	Run1	generate/STIM_022.jpg	99
543.005	2.502	2501.6	generate	Run1	generate/STIM_022.jpg	99
549.168	2.173	2173.3	generate	Run1	generate/STIM_022.jpg	100
553.386	2.819	2818.6	generate	Run1	generate/STIM_023.jpg	100
558.32	1.593	1592.6	generate	Run1	generate/STIM_023.jpg	100
561.948	1.904	1903.5	generate	Run1	generate/STIM_023.jpg	100
566.373	1.609	1608.9	generate	Run1	generate/STIM_023.jpg	100
571.574	1.458	1458.2	generate	Run1	generate/STIM_023.jpg	99
575.243	1.448	1447.7	generate	Run1	generate/STIM_024.jpg	100
579.513	1.884	1883.7	generate	Run1	generate/STIM_024.jpg	100
584.008	2.242	2241.7	generate	Run1	generate/STIM_024.jpg	99
588.691	1.787	1787.2	generate	Run1	generate/STIM_024.jpg	99
593.265	1.474	1474.1	generate	Run1	generate/STIM_024.jpg	100
597.849	1.044	1043.8	repeat	Run1	repeat/STIM_000.jpg	100
600.833	0.856	855.7	repeat	Run1	repeat/STIM_000.jpg	99
604.639	0.746	745.7	repeat	Run1	repeat/STIM_000.jpg	99
609.194	0.884	883.5	repeat	Run1	repeat/STIM_000.jpg	100
613.785	1.007	1007.1	repeat	Run1	repeat/STIM_000.jpg	100
618.414	0.885	884.9	repeat	Run1	repeat/STIM_001.jpg	100
622.082	1.072	1072.1	repeat	Run1	repeat/STIM_001.jpg	100
625.165	0.878	877.8	repeat	Run1	repeat/STIM_001.jpg	100
629.45	1.155	1154.6	repeat	Run1	repeat/STIM_001.jpg	100
633.645	0.932	932.3	repeat	Run1	repeat/STIM_001.jpg	100
637.544	0.86	859.7	repeat	Run1	repeat/STIM_002.jpg	100
642.289	0.554	554.3	repeat	Run1	repeat/STIM_002.jpg	99
645.692	0.743	743.3	repeat	Run1	repeat/STIM_002.jpg	100
650.24	0.642	642.4	repeat	Run1	repeat/STIM_002.jpg	99
653.688	0.698	698.4	repeat	Run1	repeat/STIM_002.jpg	99
658.386	0.736	735.7	repeat	Run1	repeat/STIM_003.jpg	99
661.686	0.542	541.8	repeat	Run1	repeat/STIM_003.jpg	99
665.172	0.859	859.0	repeat	Run1	repeat/STIM_003.jpg	100
668.424	0.971	971.0	repeat	Run1	repeat/STIM_003.jpg	100
673.201	0.833	832.6	repeat	Run1	repeat/STIM_003.jpg	99
676.821	1.006	1006.3	repeat	Run1	repeat/STIM_004.jpg	99
680.981	0.884	884.5	repeat	Run1	repeat/STIM_004.jpg	99
684.645	1.012	1012.1	repeat	Run1	repeat/STIM_004.jpg	100
688.919	0.772	772.3	repeat	Run1	repeat/STIM_004.jpg	100
692.731	0.507	506.9	repeat	Run1	repeat/STIM_004.jpg	99
696.405	0.845	845.0	repeat	Run1	repeat/STIM_005.jpg	100
699.432	1.052	1052.0	repeat	Run1	repeat/STIM_005.jpg	100
703.959	0.648	648.0	repeat	Run1	repeat/STIM_005.jpg	99
708.443	0.848	847.8	repeat	Run1	repeat/STIM_005.jpg	99
711.974	1.026	1025.5	repeat	Run1	repeat/STIM_005.jpg	100
715.833	0.707	707.0	repeat	Run1	repeat/STIM_006.jpg	100
718.995	0.588	587.6	repeat	Run1	repeat/STIM_006.jpg	100
722.247	0.586	586.3	repeat	Run1	repeat/STIM_006.jpg	99
725.461	0.732	731.6	repeat	Run1	repeat/STIM_006.jpg	99
728.446	0.579	578.8	repeat	Run1	repeat/STIM_006.jpg	99
732.772	0.775	775.3	repeat	Run1	repeat/STIM_007.jpg	100
737.459	0.784	784.3	repeat	Run1	repeat/STIM_007.jpg	100
741.521	1.079	1079.3	repeat	Run1	repeat/STIM_007.jpg	99
746.127	0.785	785.0	repeat	Run1	repeat/STIM_007.jpg	99
748.896	0.854	854.1	repeat	Run1	repeat/STIM_007.jpg	100
753.371	0.697	697.2	repeat	Run1	repeat/STIM_008.jpg	99
756.88	0.603	602.8	repeat	Run1	repeat/STIM_008.jpg	99
760.596	0.568	568.0	repeat	Run1	repeat/STIM_008.jpg	100
763.623	0.73	730.0	repeat	Run1	repeat/STIM_008.jpg	100
767.824	0.691	690.7	repeat	Run1	repeat/STIM_008.jpg	100
772.143	0.819	818.7	repeat	Run1	repeat/STIM_009.jpg	99
775.042	0.801	800.8	repeat	Run1	repeat/STIM_009.jpg	100
778.191	0.982	982.1	repeat	Run1	repeat/STIM_009.jpg	99
781.277	0.912	912.3	repeat	Run1	repeat/STIM_009.jpg	100
785.477	1.174	1174.0	repeat	Run1	repeat/STIM_009.jpg	100
789.025	0.974	974.3	repeat	Run1	repeat/STIM_010.jpg	100
792.787	0.696	695.9	repeat	Run1	repeat/STIM_010.jpg	100
796.675	0.937	937.3	repeat	Run1	repeat/STIM_010.jpg	100
799.694	0.862	862.0	repeat	Run1	repeat/STIM_010.jpg	99
804.115	0.841	841.4	repeat	Run1	repeat/STIM_010.jpg	99
807.071	0.574	573.7	repeat	Run1	repeat/STIM_011.jpg	99
809.967	0.833	833.1	repeat	Run1	repeat/STIM_011.jpg	100
814.553	0.822	821.6	repeat	Run1	repeat/STIM_011.jpg	99
818.264	0.942	942.2	repeat	Run1	repeat/STIM_011.jpg	100
822.443	0.6	600.3	repeat	Run1	repeat/STIM_011.jpg	99
825.242	0.796	795.8	repeat	Run1	repeat/STIM_012.jpg	99
828.469	0.666	666.0	repeat	Run1	repeat/STIM_012.jpg	100
832.449	0.726	726.3	repeat	Run1	repeat/STIM_012.jpg	99
836.397	0.649	649.2	repeat	Run1	repeat/STIM_012.jpg	99
840.259	0.74	740.0	repeat	Run1	repeat/STIM_012.jpg	100
843.328	1.13	1130.3	repeat	Run1	repeat/STIM_013.jpg	99
847.998	0.756	756.2	repeat	Run1	repeat/STIM_013.jpg	99
852.482	1.054	1054.1	repeat	Run1	repeat/STIM_013.jpg	99
855.582	1.023	1022.7	repeat	Run1	repeat/STIM_013.jpg	99
858.765	0.817	817.3	repeat	Run1	repeat/STIM_013.jpg	100
861.908	0.679	678.6	repeat	Run1	repeat/STIM_014.jpg	100
865.658	0.702	701.5	repeat	Run1	repeat/STIM_014.jpg	99
868.883	0.964	964.1	repeat	Run1	repeat/STIM_014.jpg	99
872.761	0.753	752.9	repeat	Run1	repeat/STIM_014.jpg	99
876.588	1.132	1131.8	repeat	Run1	repeat/STIM_014.jpg	99
880.097	2.766	2766.0	generate	Run2	generate/STIM_000.jpg	100
885.897	1.247	1247.0	generate	Run2	generate/STIM_000.jpg	99
889.131	1.663	1663.1	generate	Run2	generate/STIM_000.jpg	99
894.184	1.968	1967.5	generate	Run2	generate/STIM_000.jpg	100
899.869	1.643	1643.1	generate	Run2	generate/STIM_000.jpg	99
905.201	1.714	1714.5	generate	Run2	generate/STIM_001.jpg	99
909.116	2.114	2114.5	generate	Run2	generate/STIM_001.jpg	99
913.154	0.996	996.4	generate	Run2	generate/STIM_001.jpg	99
916.949	1.852	1851.7	generate	Run2	generate/STIM_001.jpg	100
920.895	1.418	1417.5	generate	Run2	generate/STIM_001.jpg	99
925.391	2.233	2233.1	generate	Run2	generate/STIM_002.jpg	99
930.839	1.415	1414.9	generate	Run2	generate/STIM_002.jpg	100
935.517	0.93	930.5	generate	Run2	generate/STIM_002.jpg	99
939.498	1.515	1515.2	generate	Run2	generate/STIM_002.jpg	100
944.073	1.158	1158.0	generate	Run2	generate/STIM_002.jpg	99
949.109	2.502	2501.7	generate	Run2	generate/STIM_003.jpg	100
955.381	2.598	2597.6	generate	Run2	generate/STIM_003.jpg	99
960.559	1.554	1553.9	generate	Run2	generate/STIM_003.jpg	99
965.485	0.983	983.3	generate	Run2	generate/STIM_003.jpg	99
970.037	1.697	1697.3	generate	Run2	generate/STIM_003.jpg	100
974.792	2.345	2345.4	generate	Run2	generate/STIM_004.jpg	99
980.574	1.45	1449.7	generate	Run2	generate/STIM_004.jpg	99
985.838	1.618	1617.8	generate	Run2	generate/STIM_004.jpg	99
989.452	1.534	1534.3	generate	Run2	generate/STIM_004.jpg	100
993.642	1.115	1115.4	generate	Run2	generate/STIM_004.jpg	100
998.183	1.962	1961.6	generate	Run2	generate/STIM_005.jpg	100
1002.852	1.489	1488.8	generate	Run2	generate/STIM_005.jpg	99
1006.848	2.082	2082.3	generate	Run2	generate/STIM_005.jpg	99
1011.865	1.572	1571.5	generate	Run2	generate/STIM_005.jpg	100
1015.941	1.766	1766.4	generate	Run2	generate/STIM_005.jpg	99
1019.553	1.49	1489.5	generate	Run2	generate/STIM_006.jpg	99
1024.906	1.168	1167.5	generate	Run2	generate/STIM_006.jpg	100
1029.263	1.28	1280.1	generate	Run2	generate/STIM_006.jpg	100
1032.504	2.1	2100.0	generate	Run2	generate/STIM_006.jpg	100
1038.367	1.005	1005.2	generate	Run2	generate/STIM_006.jpg	99
1043.172	2.455	2455.3	generate	Run2	generate/STIM_007.jpg	99
1047.627	1.16	1160.2	generate	Run2	generate/STIM_007.jpg	100
1051.291	1.152	1152.5	generate	Run2	generate/STIM_007.jpg	100
1056.06	2.179	2179.4	generate	Run2	generate/STIM_007.jpg	100
1060.434	1.764	1763.9	generate	Run2	generate/STIM_007.jpg	99
1064.249	1.421	1421.4	generate	Run2	generate/STIM_008.jpg	99
1069.012	2.264	2264.0	generate	Run2	generate/STIM_008.jpg	99
1074.082	1.62	1620.3	generate	Run2	generate/STIM_008.jpg	100
1078.654	1.02	1020.2	generate	Run2	generate/STIM_008.jpg	100
1083.314	1.732	1731.9	generate	Run2	generate/STIM_008.jpg	99
1087.101	2.174	2174.2	generate	Run2	generate/STIM_009.jpg	100
1092.704	1.485	1484.9	generate	Run2	generate/STIM_009.jpg	100
1096.416	2.317	2317.4	generate	Run2	generate/STIM_009.jpg	99
1102.023	1.755	1754.6	generate	Run2	generate/STIM_009.jpg	100
1106.725	1.17	1170.4	generate	Run2	generate/STIM_009.jpg	99
1111.32	2.166	2165.6	generate	Run2	generate/STIM_010.jpg	99
1117.291	1.281	1280.9	generate	Run2	generate/STIM_010.jpg	100
1121.696	2.274	2274.4	generate	Run2	generate/STIM_010.jpg	100
1127.069	2.075	2075.2	generate	Run2	generate/STIM_010.jpg	99
1132.706	1.665	1665.3	generate	Run2	generate/STIM_010.jpg	99
1137.867	2.848	2847.9	generate	Run2	generate/STIM_011.jpg	100
1144.305	1.729	1729.1	generate	Run2	generate/STIM_011.jpg	99
1149.199	1.394	1394.1	generate	Run2	generate/STIM_011.jpg	99
1153.23	1.43	1430.4	generate	Run2	generate/STIM_011.jpg	100
1157.628	1.297	1297.3	generate	Run2	generate/STIM_011.jpg	100
1162.529	1.104	1103.6	generate	Run2	generate/STIM_012.jpg	100
1165.869	1.987	1986.8	generate	Run2	generate/STIM_012.jpg	100
1170.167	1.027	1026.6	generate	Run2	generate/STIM_012.jpg	99
1173.64	1.46	1459.6	generate	Run2	generate/STIM_012.jpg	100
1178.797	1.688	1687.7	generate	Run2	generate/STIM_012.jpg	100
1184.263	1.056	1056.4	generate	Run2	generate/STIM_013.jpg	99
1189.145	1.966	1966.2	generate	Run2	generate/STIM_013.jpg	99
1194.184	2.096	2096.0	generate	Run2	generate/STIM_013.jpg	99
1199.326	1.956	1956.1	generate	Run2	generate/STIM_013.jpg	99
1203.543	2.333	2332.8	generate	Run2	generate/STIM_013.jpg	100
1208.099	2.206	2206.2	generate	Run2	generate/STIM_014.jpg	100
1213.947	2.589	2588.6	generate	Run2	generate/STIM_014.jpg	100
1218.467	1.844	1843.7	generate	Run2	generate/STIM_014.jpg	99
1223.464	1.487	1487.2	generate	Run2	generate/STIM_014.jpg	100
1228.521	2.044	2044.3	generate	Run2	generate/STIM_014.jpg	100
1232.485	1.403	1403.1	generate	Run2	generate/STIM_015.jpg	100
1236.335	2.297	2296.6	generate	Run2	generate/STIM_015.jpg	99
1240.843	1.562	1562.1	generate	Run2	generate/STIM_015.jpg	99
1245.537	1.578	1578.2	generate	Run2	generate/STIM_015.jpg	99
1250.869	1.313	1313.3	generate	Run2	generate/STIM_015.jpg	100
1255.77	1.306	1305.8	generate	Run2	generate/STIM_016.jpg	100
1259.566	1.614	1614.2	generate	Run2	generate/STIM_016.jpg	100
1264.892	2.058	2057.6	generate	Run2	generate/STIM_016.jpg	99
1269.05	1.475	1474.8	generate	Run2	generate/STIM_016.jpg	100
1273.923	1.441	1441.1	generate	Run2	generate/STIM_016.jpg	100
1278.7	1.268	1267.7	generate	Run2	generate/STIM_017.jpg	100
1283.871	2.416	2415.8	generate	Run2	generate/STIM_017.jpg	99
1288.63	1.253	1253.2	generate	Run2	generate/STIM_017.jpg	99
1292.647	2.173	2173.0	generate	Run2	generate/STIM_017.jpg	99
1297.041	1.492	1492.3	generate	Run2	generate/STIM_017.jpg	100
1301.1	2.71	2710.5	generate	Run2	generate/STIM_018.jpg	99
1305.58	2.267	2267.3	generate	Run2	generate/STIM_018.jpg	100
1310.74	1.163	1163.2	generate	Run2	generate/STIM_018.jpg	99
1314.138	1.906	1906.5	generate	Run2	generate/STIM_018.jpg	99
1318.924	1.688	1687.9	generate	Run2	generate/STIM_018.jpg	99
1323.745	1.67	1670.4	generate	Run2	generate/STIM_019.jpg	100
1327.999	1.588	1587.9	generate	Run2	generate/STIM_019.jpg	100
1332.769	1.217	1216.9	generate	Run2	generate/STIM_019.jpg	99
1336.126	1.729	1728.8	generate	Run2	generate/STIM_019.jpg	99
1341.509	1.656	1655.6	generate	Run2	generate/STIM_019.jpg	99
1345.994	1.301	1301.0	generate	Run2	generate/STIM_020.jpg	100
1349.605	2.599	2598.8	generate	Run2	generate/STIM_020.jpg	100
1354.176	2.172	2172.4	generate	Run2	generate/STIM_020.jpg	99
1359.747	1.151	1150.8	generate	Run2	generate/STIM_020.jpg	99
1363.179	1.976	1976.1	generate	Run2	generate/STIM_020.jpg	99
1367.726	1.6	1600.2	generate	Run2	generate/STIM_021.jpg	100
1371.989	2.205	2205.4	generate	Run2	generate/STIM_021.jpg	99
1376.779	1.044	1044.3	generate	Run2	generate/STIM_021.jpg	100
1381.675	1.0	999.5	generate	Run2	generate/STIM_021.jpg	99
1385.367	1.052	1052.1	generate	Run2	generate/STIM_021.jpg	99
1388.763	2.319	2318.7	generate	Run2	generate/STIM_022.jpg	100
1393.638	2.364	2364.5	generate	Run2	generate/STIM_022.jpg	99
1399.439	2.142	2142.5	generate	Run2	generate/STIM_022.jpg	99
1405.306	1.345	1344.9	generate	Run2	generate/STIM_022.jpg	99
1408.554	2.015	2015.2	generate	Run2	generate/STIM_022.jpg	99
1412.949	2.119	2119.0	generate	Run2	generate/STIM_023.jpg	99
1417.052	1.61	1610.4	generate	Run2	generate/STIM_023.jpg	100
1422.324	1.908	1907.6	generate	Run2	generate/STIM_023.jpg	99
1427.351	1.919	1919.3	generate	Run2	generate/STIM_023.jpg	99
1432.372	1.411	1411.1	generate	Run2	generate/STIM_023.jpg	100
1437.206	1.419	1418.8	generate	Run2	generate/STIM_024.jpg	99
1440.59	1.902	1901.5	generate	Run2	generate/STIM_024.jpg	100
1445.888	1.868	1868.1	generate	Run2	generate/STIM_024.jpg	99
1450.754	1.074	1073.6	generate	Run2	generate/STIM_024.jpg	100
1453.882	1.46	1460.5	generate	Run2	generate/STIM_024.jpg	99
1458.88	0.705	704.8	repeat	Run2	repeat/STIM_000.jpg	99
1463.421	1.122	1121.7	repeat	Run2	repeat/STIM_000.jpg	99
1467.293	0.723	722.9	repeat	Run2	repeat/STIM_000.jpg	100
1470.58	1.084	1083.6	repeat	Run2	repeat/STIM_000.jpg	99
1474.391	0.948	948.1	repeat	Run2	repeat/STIM_000.jpg	100
1478.072	1.099	1099.1	repeat	Run2	repeat/STIM_001.jpg	100
1482.701	0.755	755.2	repeat	Run2	repeat/STIM_001.jpg	99
1485.647	1.098	1098.0	repeat	Run2	repeat/STIM_001.jpg	100
1489.246	0.844	844.5	repeat	Run2	repeat/STIM_001.jpg	100
1493.596	0.758	757.5	repeat	Run2	repeat/STIM_001.jpg	99
1498.193	0.775	775.0	repeat	Run2	repeat/STIM_002.jpg	99
1502.284	0.712	712.4	repeat	Run2	repeat/STIM_002.jpg	100
1506.106	1.056	1056.0	repeat	Run2	repeat/STIM_002.jpg	99
1509.099	0.671	671.1	repeat	Run2	repeat/STIM_002.jpg	100
1513.328	0.937	937.1	repeat	Run2	repeat/STIM_002.jpg	99
1517.859	0.783	783.1	repeat	Run2	repeat/STIM_003.jpg	99
1521.432	0.801	800.9	repeat	Run2	repeat/STIM_003.jpg	99
1526.034	0.749	749.2	repeat	Run2	repeat/STIM_003.jpg	100
1529.222	1.052	1052.4	repeat	Run2	repeat/STIM_003.jpg	99
1533.864	0.668	668.4	repeat	Run2	repeat/STIM_003.jpg	100
1536.95	0.939	938.7	repeat	Run2	repeat/STIM_004.jpg	100
1540.851	0.641	641.1	repeat	Run2	repeat/STIM_004.jpg	99
1544.72	0.812	811.6	repeat	Run2	repeat/STIM_004.jpg	100
1548.452	0.616	615.5	repeat	Run2	repeat/STIM_004.jpg	100
1551.061	1.081	1080.6	repeat	Run2	repeat/STIM_004.jpg	100
1555.655	0.837	837.0	repeat	Run2	repeat/STIM_005.jpg	100
1559.905	0.621	620.9	repeat	Run2	repeat/STIM_005.jpg	99
1564.471	0.755	754.8	repeat	Run2	repeat/STIM_005.jpg	100
1567.697	0.567	567.3	repeat	Run2	repeat/STIM_005.jpg	99
1572.151	1.086	1085.5	repeat	Run2	repeat/STIM_005.jpg	99
1575.434	0.63	629.7	repeat	Run2	repeat/STIM_006.jpg	99
1578.361	0.552	551.9	repeat	Run2	repeat/STIM_006.jpg	99
1581.68	0.735	734.8	repeat	Run2	repeat/STIM_006.jpg	100
1584.465	0.831	830.7	repeat	Run2	repeat/STIM_006.jpg	100
1587.697	0.732	731.5	repeat	Run2	repeat/STIM_006.jpg	99
1591.801	0.826	825.7	repeat	Run2	repeat/STIM_007.jpg	99
1594.958	0.723	723.2	repeat	Run2	repeat/STIM_007.jpg	100
1598.958	0.947	947.3	repeat	Run2	repeat/STIM_007.jpg	99
1603.344	1.054	1054.3	repeat	Run2	repeat/STIM_007.jpg	99
1608.291	0.861	861.4	repeat	Run2	repeat/STIM_007.jpg	99
1612.373	1.132	1132.1	repeat	Run2	repeat/STIM_008.jpg	99
1616.89	0.995	995.4	repeat	Run2	repeat/STIM_008.jpg	100
1620.433	1.145	1145.2	repeat	Run2	repeat/STIM_008.jpg	99
1624.573	0.71	710.1	repeat	Run2	repeat/STIM_008.jpg	99
1628.73	0.716	715.6	repeat	Run2	repeat/STIM_008.jpg	99
1632.669	0.805	805.3	repeat	Run2	repeat/STIM_009.jpg	100
1635.803	1.036	1036.2	repeat	Run2	repeat/STIM_009.jpg	99
1639.167	0.674	673.6	repeat	Run2	repeat/STIM_009.jpg	99
1642.846	0.932	931.6	repeat	Run2	repeat/STIM_009.jpg	99
1645.918	0.919	919.2	repeat	Run2	repeat/STIM_009.jpg	100
1649.665	1.106	1106.5	repeat	Run2	repeat/STIM_010.jpg	99
1653.841	0.921	920.9	repeat	Run2	repeat/STIM_010.jpg	99
1657.111	0.798	798.5	repeat	Run2	repeat/STIM_010.jpg	100
1660.38	1.02	1020.1	repeat	Run2	repeat/STIM_010.jpg	99
1665.144	1.025	1025.3	repeat	Run2	repeat/STIM_010.jpg	100
1669.723	0.951	951.1	repeat	Run2	repeat/STIM_011.jpg	99
1673.61	0.685	685.1	repeat	Run2	repeat/STIM_011.jpg	99
1677.345	0.732	732.1	repeat	Run2	repeat/STIM_011.jpg	99
1681.109	0.794	794.4	repeat	Run2	repeat/STIM_011.jpg	100
1685.225	0.789	789.1	repeat	Run2	repeat/STIM_011.jpg	99
1688.975	0.578	577.5	repeat	Run2	repeat/STIM_012.jpg	100
1691.955	0.64	640.0	repeat	Run2	repeat/STIM_012.jpg	100
1695.893	0.635	635.0	repeat	Run2	repeat/STIM_012.jpg	100
1700.401	0.742	741.8	repeat	Run2	repeat/STIM_012.jpg	100
1703.463	0.914	913.7	repeat	Run2	repeat/STIM_012.jpg	99
1706.671	0.61	610.1	repeat	Run2	repeat/STIM_013.jpg	100
1710.008	0.738	738.3	repeat	Run2	repeat/STIM_013.jpg	100
1714.377	0.668	667.9	repeat	Run2	repeat/STIM_013.jpg	100
1717.035	0.534	533.7	repeat	Run2	repeat/STIM_013.jpg	100
1721.226	1.092	1091.5	repeat	Run2	repeat/STIM_013.jpg	99
1724.359	1.103	1103.4	repeat	Run2	repeat/STIM_014.jpg	100
1728.905	0.714	713.5	repeat	Run2	repeat/STIM_014.jpg	100
1732.528	1.08	1079.6	repeat	Run2	repeat/STIM_014.jpg	100
1736.451	0.85	850.1	repeat	Run2	repeat/STIM_014.jpg	99
1740.007	1.035	1034.7	repeat	Run2	repeat/STIM_014.jpg	99
1744.159	1.291	1290.6	generate	Run3	generate/STIM_000.jpg	100
1748.599	1.565	1564.6	generate	Run3	generate/STIM_000.jpg	99
1752.114	0.916	915.5	generate	Run3	generate/STIM_000.jpg	99
1756.747	1.035	1034.7	generate	Run3	generate/STIM_000.jpg	99
1761.446	2.111	2111.2	generate	Run3	generate/STIM_000.jpg	100
1767.125	1.151	1150.8	generate	Run3	generate/STIM_001.jpg	99
1771.441	2.206	2206.1	generate	Run3	generate/STIM_001.jpg	100
1775.569	1.135	1135.3	generate	Run3	generate/STIM_001.jpg	99
1778.894	2.261	2261.0	generate	Run3	generate/STIM_001.jpg	100
1784.259	1.507	1507.2	generate	Run3	generate/STIM_001.jpg	99
1788.69	0.938	937.7	generate	Run3	generate/STIM_002.jpg	99
1791.601	1.702	1702.0	generate	Run3	generate/STIM_002.jpg	99
1795.267	1.139	1138.9	generate	Run3	generate/STIM_002.jpg	99
1799.741	1.406	1406.0	generate	Run3	generate/STIM_002.jpg	100
1803.167	1.716	1716.3	generate	Run3	generate/STIM_002.jpg	99
1807.181	2.267	2266.9	generate	Run3	generate/STIM_003.jpg	100
1812.845	1.111	1110.8	generate	Run3	generate/STIM_003.jpg	99
1817.192	1.642	1642.1	generate	Run3	generate/STIM_003.jpg	99
1821.621	1.968	1968.1	generate	Run3	generate/STIM_003.jpg	99
1826.48	1.228	1228.1	generate	Run3	generate/STIM_003.jpg	100
1830.002	1.829	1828.8	generate	Run3	generate/STIM_004.jpg	99
1834.821	1.561	1560.8	generate	Run3	generate/STIM_004.jpg	99
1839.669	1.923	1923.1	generate	Run3	generate/STIM_004.jpg	100
1843.588	1.35	1350.2	generate	Run3	generate/STIM_004.jpg	99
1847.602	1.957	1957.3	generate	Run3	generate/STIM_004.jpg	100
1852.111	2.069	2068.8	generate	Run3	generate/STIM_005.jpg	99
1856.297	1.004	1004.3	generate	Run3	generate/STIM_005.jpg	99
1860.653	1.869	1869.0	generate	Run3	generate/STIM_005.jpg	100
1865.222	1.903	1902.7	generate	Run3	generate/STIM_005.jpg	100
1869.787	1.336	1336.4	generate	Run3	generate/STIM_005.jpg	99
1874.956	1.158	1157.8	generate	Run3	generate/STIM_006.jpg	100
1879.574	2.32	2320.2	generate	Run3	generate/STIM_006.jpg	99
1884.6	1.014	1013.8	generate	Run3	generate/STIM_006.jpg	99
1888.787	2.145	2144.6	generate	Run3	generate/STIM_006.jpg	99
1894.372	1.264	1264.2	generate	Run3	generate/STIM_006.jpg	100
1898.68	1.547	1546.7	generate	Run3	generate/STIM_007.jpg	100
1903.577	1.272	1271.7	generate	Run3	generate/STIM_007.jpg	100
1908.413	1.932	1932.3	generate	Run3	generate/STIM_007.jpg	100
1913.942	1.234	1234.4	generate	Run3	generate/STIM_007.jpg	100
1917.377	1.943	1943.4	generate	Run3	generate/STIM_007.jpg	100
1921.813	1.246	1245.6	generate	Run3	generate/STIM_008.jpg	99
1926.429	1.427	1426.8	generate	Run3	generate/STIM_008.jpg	100
1930.101	1.888	1887.8	generate	Run3	generate/STIM_008.jpg	100
1934.244	1.762	1762.3	generate	Run3	generate/STIM_008.jpg	99
1938.695	1.727	1726.9	generate	Run3	generate/STIM_008.jpg	99
1944.023	1.038	1038.5	generate	Run3	generate/STIM_009.jpg	99
1947.136	2.258	2257.6	generate	Run3	generate/STIM_009.jpg	100
1952.701	1.206	1206.3	generate	Run3	generate/STIM_009.jpg	100
1955.987	1.662	1661.6	generate	Run3	generate/STIM_009.jpg	100
1959.649	2.039	2039.0	generate	Run3	generate/STIM_009.jpg	100
1964.047	0.957	957.1	generate	Run3	generate/STIM_010.jpg	99
1967.557	2.176	2176.4	generate	Run3	generate/STIM_010.jpg	100
1971.941	2.059	2059.2	generate	Run3	generate/STIM_010.jpg	100
1976.97	1.315	1315.1	generate	Run3	generate/STIM_010.jpg	100
1982.146	1.402	1402.4	generate	Run3	generate/STIM_010.jpg	100
1986.054	1.373	1373.0	generate	Run3	generate/STIM_011.jpg	100
1991.099	2.228	2227.7	generate	Run3	generate/STIM_011.jpg	100
1996.954	1.539	1538.7	generate	Run3	generate/STIM_011.jpg	100
2001.331	1.283	1283.4	generate	Run3	generate/STIM_011.jpg	100
2006.102	1.052	1052.2	generate	Run3	generate/STIM_011.jpg	100
2010.848	1.68	1679.6	generate	Run3	generate/STIM_012.jpg	99
2014.291	2.17	2169.7	generate	Run3	generate/STIM_012.jpg	100
2018.815	1.813	1812.6	generate	Run3	generate/STIM_012.jpg	100
2022.572	1.855	1855.4	generate	Run3	generate/STIM_012.jpg	99
2026.855	1.064	1064.0	generate	Run3	generate/STIM_012.jpg	99
2031.343	1.481	1480.7	generate	Run3	generate/STIM_013.jpg	99
2035.226	1.301	1300.6	generate	Run3	generate/STIM_013.jpg	99
2038.561	1.839	1838.7	generate	Run3	generate/STIM_013.jpg	100
2042.63	2.146	2146.0	generate	Run3	generate/STIM_013.jpg	99
2048.434	1.043	1042.7	generate	Run3	generate/STIM_013.jpg	100
2052.999	1.987	1987.1	generate	Run3	generate/STIM_014.jpg	99
2058.582	1.459	1459.1	generate	Run3	generate/STIM_014.jpg	99
2062.576	1.654	1654.5	generate	Run3	generate/STIM_014.jpg	100
2066.794	1.065	1065.2	generate	Run3	generate/STIM_014.jpg	99
2070.427	1.607	1607.1	generate	Run3	generate/STIM_014.jpg	99
2073.922	1.932	1931.5	generate	Run3	generate/STIM_015.jpg	99
2077.793	1.872	1872.4	generate	Run3	generate/STIM_015.jpg	99
2081.988	1.684	1683.5	generate	Run3	generate/STIM_015.jpg	99
2086.239	2.252	2252.3	generate	Run3	generate/STIM_015.jpg	99
2092.247	1.241	1241.0	generate	Run3	generate/STIM_015.jpg	99
2096.114	1.033	1033.0	generate	Run3	generate/STIM_016.jpg	99
2099.946	2.182	2181.6	generate	Run3	generate/STIM_016.jpg	99
2103.953	1.52	1519.8	generate	Run3	generate/STIM_016.jpg	100
2108.91	1.908	1907.5	generate	Run3	generate/STIM_016.jpg	100
2113.287	1.567	1567.0	generate	Run3	generate/STIM_016.jpg	100
2116.933	1.34	1339.9	generate	Run3	generate/STIM_017.jpg	100
2120.699	1.72	1720.5	generate	Run3	generate/STIM_017.jpg	100
2124.834	1.041	1041.2	generate	Run3	generate/STIM_017.jpg	99
2128.19	1.344	1344.5	generate	Run3	generate/STIM_017.jpg	99
2131.642	1.495	1495.3	generate	Run3	generate/STIM_017.jpg	99
2135.051	2.262	2262.0	generate	Run3	generate/STIM_018.jpg	99
2140.559	1.218	1218.3	generate	Run3	generate/STIM_018.jpg	100
2144.209	1.48	1480.4	generate	Run3	generate/STIM_018.jpg	99
2149.471	1.108	1108.1	generate	Run3	generate/STIM_018.jpg	100
2154.215	1.917	1916.9	generate	Run3	generate/STIM_018.jpg	99
2159.275	2.162	2162.4	generate	Run3	generate/STIM_019.jpg	99
2164.49	1.247	1247.0	generate	Run3	generate/STIM_019.jpg	99
2168.788	1.987	1987.1	generate	Run3	generate/STIM_019.jpg	99
2174.25	2.305	2305.1	generate	Run3	generate/STIM_019.jpg	100
2178.635	1.506	1506.4	generate	Run3	generate/STIM_019.jpg	99
2182.331	1.138	1138.2	generate	Run3	generate/STIM_020.jpg	100
2186.472	1.926	1925.5	generate	Run3	generate/STIM_020.jpg	99
2191.449	2.332	2332.4	generate	Run3	generate/STIM_020.jpg	100
2196.282	0.968	967.8	generate	Run3	generate/STIM_020.jpg	100
2200.975	2.153	2152.7	generate	Run3	generate/STIM_020.jpg	100
2206.207	1.937	1936.8	generate	Run3	generate/STIM_021.jpg	100
2210.827	1.753	1752.9	generate	Run3	generate/STIM_021.jpg	100
2215.009	1.744	1744.1	generate	Run3	generate/STIM_021.jpg	100
2218.934	2.236	2236.1	generate	Run3	generate/STIM_021.jpg	100
2224.768	2.29	2289.6	generate	Run3	generate/STIM_021.jpg	99
2228.955	1.254	1254.2	generate	Run3	generate/STIM_022.jpg	99
2232.953	1.05	1050.1	generate	Run3	generate/STIM_022.jpg	100
2236.98	0.992	992.2	generate	Run3	generate/STIM_022.jpg	99
2240.685	2.321	2321.1	generate	Run3	generate/STIM_022.jpg	99
2244.795	1.377	1377.1	generate	Run3	generate/STIM_022.jpg	99
2248.711	1.413	1412.6	generate	Run3	generate/STIM_023.jpg	99
2252.04	1.974	1973.8	generate	Run3	generate/STIM_023.jpg	99
2257.699	1.799	1798.6	generate	Run3	generate/STIM_023.jpg	99
2262.71	2.125	2124.7	generate	Run3	generate/STIM_023.jpg	100
2266.685	1.935	1935.2	generate	Run3	generate/STIM_023.jpg	99
2270.494	0.986	986.5	generate	Run3	generate/STIM_024.jpg	99
2275.117	1.8	1800.3	generate	Run3	generate/STIM_024.jpg	100
2279.587	1.432	1431.7	generate	Run3	generate/STIM_024.jpg	100
2283.26	2.184	2183.7	generate	Run3	generate/STIM_024.jpg	100
2288.424	1.734	1733.6	generate	Run3	generate/STIM_024.jpg	99
2293.773	0.932	932.3	repeat	Run3	repeat/STIM_000.jpg	100
2297.376	1.008	1007.9	repeat	Run3	repeat/STIM_000.jpg	100
2301.221	0.674	674.0	repeat	Run3	repeat/STIM_000.jpg	99
2304.538	0.858	857.9	repeat	Run3	repeat/STIM_000.jpg	99
2307.913	1.001	1000.9	repeat	Run3	repeat/STIM_000.jpg	99
2311.734	1.076	1076.4	repeat	Run3	repeat/STIM_001.jpg	99
2316.671	0.823	822.9	repeat	Run3	repeat/STIM_001.jpg	99
2319.482	1.076	1076.2	repeat	Run3	repeat/STIM_001.jpg	100
2322.801	0.772	771.6	repeat	Run3	repeat/STIM_001.jpg	100
2327.284	0.848	847.9	repeat	Run3	repeat/STIM_001.jpg	99
2331.541	0.75	750.5	repeat	Run3	repeat/STIM_002.jpg	99
2334.924	0.838	838.2	repeat	Run3	repeat/STIM_002.jpg	99
2338.668	0.63	630.3	repeat	Run3	repeat/STIM_002.jpg	100
2341.402	0.837	837.1	repeat	Run3	repeat/STIM_002.jpg	99
2345.45	0.819	818.7	repeat	Run3	repeat/STIM_002.jpg	99
2349.096	0.64	640.3	repeat	Run3	repeat/STIM_003.jpg	100
2352.762	0.916	915.7	repeat	Run3	repeat/STIM_003.jpg	100
2356.643	0.872	872.4	repeat	Run3	repeat/STIM_003.jpg	100
2360.787	0.623	623.3	repeat	Run3	repeat/STIM_003.jpg	99
2364.982	0.875	875.2	repeat	Run3	repeat/STIM_003.jpg	99
2369.708	1.017	1017.4	repeat	Run3	repeat/STIM_004.jpg	100
2374.246	0.914	913.6	repeat	Run3	repeat/STIM_004.jpg	100
2378.922	0.87	870.0	repeat	Run3	repeat/STIM_004.jpg	99
2382.127	0.732	732.1	repeat	Run3	repeat/STIM_004.jpg	100
2386.407	0.612	611.8	repeat	Run3	repeat/STIM_004.jpg	100
2390.524	0.595	595.1	repeat	Run3	repeat/STIM_005.jpg	99
2393.135	0.689	688.8	repeat	Run3	repeat/STIM_005.jpg	100
2396.972	0.598	597.5	repeat	Run3	repeat/STIM_005.jpg	99
2399.793	0.997	996.9	repeat	Run3	repeat/STIM_005.jpg	99
2402.987	0.954	954.5	repeat	Run3	repeat/STIM_005.jpg	100
2407.219	0.728	728.4	repeat	Run3	repeat/STIM_006.jpg	99
2411.64	0.944	943.8	repeat	Run3	repeat/STIM_006.jpg	99
2414.919	0.91	909.5	repeat	Run3	repeat/STIM_006.jpg	100
2419.255	0.836	836.3	repeat	Run3	repeat/STIM_006.jpg	99
2423.307	0.646	646.4	repeat	Run3	repeat/STIM_006.jpg	100
2427.162	0.87	870.5	repeat	Run3	repeat/STIM_007.jpg	100
2430.991	0.853	852.6	repeat	Run3	repeat/STIM_007.jpg	100
2434.502	0.658	657.5	repeat	Run3	repeat/STIM_007.jpg	100
2437.813	0.449	448.6	repeat	Run3	repeat/STIM_007.jpg	100
2441.116	0.781	781.2	repeat	Run3	repeat/STIM_007.jpg	100
2444.411	1.044	1044.3	repeat	Run3	repeat/STIM_008.jpg	100
2449.308	1.097	1097.2	repeat	Run3	repeat/STIM_008.jpg	99
2452.786	0.677	677.0	repeat	Run3	repeat/STIM_008.jpg	100
2457.155	0.841	841.4	repeat	Run3	repeat/STIM_008.jpg	99
2461.558	1.08	1080.2	repeat	Run3	repeat/STIM_008.jpg	99
2465.186	0.891	890.7	repeat	Run3	repeat/STIM_009.jpg	100
2469.435	0.785	784.8	repeat	Run3	repeat/STIM_009.jpg	100
2474.092	0.908	908.4	repeat	Run3	repeat/STIM_009.jpg	99
2478.204	1.061	1060.9	repeat	Run3	repeat/STIM_009.jpg	99
2482.505	0.823	823.1	repeat	Run3	repeat/STIM_009.jpg	99
2485.338	0.831	830.9	repeat	Run3	repeat/STIM_010.jpg	99
2488.359	1.039	1038.9	repeat	Run3	repeat/STIM_010.jpg	100
2493.232	1.026	1025.6	repeat	Run3	repeat/STIM_010.jpg	99
2496.488	1.054	1053.6	repeat	Run3	repeat/STIM_010.jpg	100
2501.018	0.996	996.2	repeat	Run3	repeat/STIM_010.jpg	100
2505.164	0.56	559.7	repeat	Run3	repeat/STIM_011.jpg	99
2508.473	0.797	797.1	repeat	Run3	repeat/STIM_011.jpg	99
2511.396	0.837	837.3	repeat	Run3	repeat/STIM_011.jpg	100
2514.189	1.071	1070.6	repeat	Run3	repeat/STIM_011.jpg	100
2517.926	0.601	601.1	repeat	Run3	repeat/STIM_011.jpg	100
2522.374	0.703	703.1	repeat	Run3	repeat/STIM_012.jpg	99
2525.047	0.663	663.3	repeat	Run3	repeat/STIM_012.jpg	100
2528.234	0.586	585.7	repeat	Run3	repeat/STIM_012.jpg	100
2531.265	1.104	1103.6	repeat	Run3	repeat/STIM_012.jpg	100
2536.166	1.077	1077.4	repeat	Run3	repeat/STIM_012.jpg	99
2539.358	1.118	1117.5	repeat	Run3	repeat/STIM_013.jpg	100
2543.278	0.729	728.8	repeat	Run3	repeat/STIM_013.jpg	100
2547.554	1.029	1029.1	repeat	Run3	repeat/STIM_013.jpg	99
2551.609	0.826	826.4	repeat	Run3	repeat/STIM_013.jpg	100
2555.299	0.77	770.0	repeat	Run3	repeat/STIM_013.jpg	99
2558.886	0.918	918.3	repeat	Run3	repeat/STIM_014.jpg	100
2562.151	0.724	724.1	repeat	Run3	repeat/STIM_014.jpg	99
2565.028	1.152	1151.8	repeat	Run3	repeat/STIM_014.jpg	99
2569.105	0.878	877.6	repeat	Run3	repeat/STIM_014.jpg	99
2572.299	0.542	541.8	repeat	Run3	repeat/STIM_014.jpg	99
2575.587	1.827	1827.2	generate	Run4	generate/STIM_000.jpg	100
2579.434	1.361	1361.0	generate	Run4	generate/STIM_000.jpg	99
2584.17	2.331	2331.4	generate	Run4	generate/STIM_000.jpg	99
2589.198	1.893	1892.7	generate	Run4	generate/STIM_000.jpg	99
2593.097	2.104	2104.5	generate	Run4	generate/STIM_000.jpg	99
2597.687	1.556	1556.0	generate	Run4	generate/STIM_001.jpg	99
2602.768	1.525	1525.1	generate	Run4	generate/STIM_001.jpg	100
2607.139	2.132	2132.5	generate	Run4	generate/STIM_001.jpg	99
2612.328	2.309	2309.4	generate	Run4	generate/STIM_001.jpg	100
2617.262	1.661	1660.6	generate	Run4	generate/STIM_001.jpg	100
2620.75	1.418	1418.1	generate	Run4	generate/STIM_002.jpg	99
2624.799	1.488	1487.8	generate	Run4	generate/STIM_002.jpg	100
2628.354	1.213	1212.7	generate	Run4	generate/STIM_002.jpg	99
2632.997	2.253	2253.0	generate	Run4	generate/STIM_002.jpg	99
2637.66	1.128	1128.2	generate	Run4	generate/STIM_002.jpg	100
2641.518	0.956	956.2	generate	Run4	generate/STIM_003.jpg	99
2644.641	2.204	2204.5	generate	Run4	generate/STIM_003.jpg	99
2649.586	1.144	1143.5	generate	Run4	generate/STIM_003.jpg	99
2653.818	1.914	1913.7	generate	Run4	generate/STIM_003.jpg	99
2658.089	1.636	1635.7	generate	Run4	generate/STIM_003.jpg	100
2662.788	0.954	953.9	generate	Run4	generate/STIM_004.jpg	99
2666.424	2.28	2280.1	generate	Run4	generate/STIM_004.jpg	100
2671.194	2.253	2252.9	generate	Run4	generate/STIM_004.jpg	99
2676.517	1.55	1549.5	generate	Run4	generate/STIM_004.jpg	99
2681.281	1.646	1645.9	generate	Run4	generate/STIM_004.jpg	100
2686.565	1.822	1821.8	generate	Run4	generate/STIM_005.jpg	100
2690.909	1.618	1617.6	generate	Run4	generate/STIM_005.jpg	100
2695.949	2.154	2154.3	generate	Run4	generate/STIM_005.jpg	99
2701.166	2.214	2214.0	generate	Run4	generate/STIM_005.jpg	100
2705.487	1.891	1891.3	generate	Run4	generate/STIM_005.jpg	100
2709.887	1.417	1416.8	generate	Run4	generate/STIM_006.jpg	99
2714.498	1.144	1143.6	generate	Run4	generate/STIM_006.jpg	99
2717.506	1.419	1418.8	generate	Run4	generate/STIM_006.jpg	100
2721.076	1.358	1357.7	generate	Run4	generate/STIM_006.jpg	100
2726.203	1.644	1644.0	generate	Run4	generate/STIM_006.jpg	99
2730.511	1.136	1136.4	generate	Run4	generate/STIM_007.jpg	99
2734.753	1.807	1806.6	generate	Run4	generate/STIM_007.jpg	99
2739.752	1.864	1864.1	generate	Run4	generate/STIM_007.jpg	99
2744.1	1.978	1978.2	generate	Run4	generate/STIM_007.jpg	99
2749.535	1.624	1623.8	generate	Run4	generate/STIM_007.jpg	100
2754.618	1.799	1798.8	generate	Run4	generate/STIM_008.jpg	100
2758.971	1.675	1675.1	generate	Run4	generate/STIM_008.jpg	100
2764.036	0.992	991.7	generate	Run4	generate/STIM_008.jpg	99
2768.691	1.626	1626.4	generate	Run4	generate/STIM_008.jpg	100
2773.632	1.177	1176.6	generate	Run4	generate/STIM_008.jpg	99
2778.689	1.476	1476.4	generate	Run4	generate/STIM_009.jpg	99
2782.247	1.706	1705.9	generate	Run4	generate/STIM_009.jpg	100
2786.658	2.293	2293.3	generate	Run4	generate/STIM_009.jpg	99
2792.491	1.657	1656.9	generate	Run4	generate/STIM_009.jpg	100
2797.562	1.39	1389.6	generate	Run4	generate/STIM_009.jpg	100
2802.373	2.037	2037.2	generate	Run4	generate/STIM_010.jpg	99
2807.702	1.775	1775.3	generate	Run4	generate/STIM_010.jpg	100
2811.479	1.636	1636.4	generate	Run4	generate/STIM_010.jpg	100
2815.197	1.559	1558.7	generate	Run4	generate/STIM_010.jpg	99
2818.925	0.993	993.1	generate	Run4	generate/STIM_010.jpg	100
2823.392	1.836	1836.1	generate	Run4	generate/STIM_011.jpg	99
2828.178	1.539	1539.0	generate	Run4	generate/STIM_011.jpg	99
2832.221	2.015	2015.1	generate	Run4	generate/STIM_011.jpg	99
2836.669	0.931	931.1	generate	Run4	generate/STIM_011.jpg	100
2839.891	1.746	1746.2	generate	Run4	generate/STIM_011.jpg	100
2845.164	2.047	2046.8	generate	Run4	generate/STIM_012.jpg	100
2850.672	1.007	1006.6	generate	Run4	generate/STIM_012.jpg	100
2854.789	1.876	1875.7	generate	Run4	generate/STIM_012.jpg	100
2859.423	1.593	1593.4	generate	Run4	generate/STIM_012.jpg	99
2863.63	1.572	1572.5	generate	Run4	generate/STIM_012.jpg	100
2868.024	2.132	2131.9	generate	Run4	generate/STIM_013.jpg	100
2872.406	1.35	1349.5	generate	Run4	generate/STIM_013.jpg	100
2875.939	1.545	1545.0	generate	Run4	generate/STIM_013.jpg	99
2880.518	0.933	932.6	generate	Run4	generate/STIM_013.jpg	100
2885.369	2.098	2097.7	generate	Run4	generate/STIM_013.jpg	99
2889.425	1.122	1122.3	generate	Run4	generate/STIM_014.jpg	100
2892.709	2.291	2291.0	generate	Run4	generate/STIM_014.jpg	100
2896.814	1.119	1119.3	generate	Run4	generate/STIM_014.jpg	99
2901.458	1.832	1832.5	generate	Run4	generate/STIM_014.jpg	99
2906.25	2.177	2177.3	generate	Run4	generate/STIM_014.jpg	100
2911.384	1.812	1812.2	generate	Run4	generate/STIM_015.jpg	99
2916.571	1.241	1240.7	generate	Run4	generate/STIM_015.jpg	99
2920.714	1.556	1555.8	generate	Run4	generate/STIM_015.jpg	100
2925.294	2.036	2035.6	generate	Run4	generate/STIM_015.jpg	99
2930.746	2.266	2266.1	generate	Run4	generate/STIM_015.jpg	99
2935.005	2.151	2151.2	generate	Run4	generate/STIM_016.jpg	99
2939.577	2.338	2337.6	generate	Run4	generate/STIM_016.jpg	100
2944.253	2.128	2127.7	generate	Run4	generate/STIM_016.jpg	99
2948.322	1.242	1242.2	generate	Run4	generate/STIM_016.jpg	100
2952.214	1.248	1248.5	generate	Run4	generate/STIM_016.jpg	99
2956.731	2.218	2217.7	generate	Run4	generate/STIM_017.jpg	100
2961.606	1.778	1777.8	generate	Run4	generate/STIM_017.jpg	99
2965.915	1.357	1356.7	generate	Run4	generate/STIM_017.jpg	100
2970.121	1.692	1692.2	generate	Run4	generate/STIM_017.jpg	99
2975.425	1.203	1203.1	generate	Run4	generate/STIM_017.jpg	99
2979.918	2.184	2184.4	generate	Run4	generate/STIM_018.jpg	99
2985.425	1.395	1395.3	generate	Run4	generate/STIM_018.jpg	100
2990.045	2.033	2032.5	generate	Run4	generate/STIM_018.jpg	100
2994.368	2.072	2072.0	generate	Run4	generate/STIM_018.jpg	99
2998.794	1.497	1497.4	generate	Run4	generate/STIM_018.jpg	100
3004.083	1.392	1392.0	generate	Run4	generate/STIM_019.jpg	99
3007.706	2.233	2232.6	generate	Run4	generate/STIM_019.jpg	99
3012.154	1.771	1770.8	generate	Run4	generate/STIM_019.jpg	100
3016.55	1.186	1185.6	generate	Run4	generate/STIM_019.jpg	99
3021.402	1.304	1303.9	generate	Run4	generate/STIM_019.jpg	100
3025.416	2.05	2050.3	generate	Run4	generate/STIM_020.jpg	100
3030.874	1.104	1103.5	generate	Run4	generate/STIM_020.jpg	100
3034.835	1.868	1867.7	generate	Run4	generate/STIM_020.jpg	100
3038.792	1.218	1217.9	generate	Run4	generate/STIM_020.jpg	100
3043.772	1.648	1648.2	generate	Run4	generate/STIM_020.jpg	100
3047.596	1.274	1273.6	generate	Run4	generate/STIM_021.jpg	99
3050.694	1.268	1267.9	generate	Run4	generate/STIM_021.jpg	99
3054.676	2.018	2018.2	generate	Run4	generate/STIM_021.jpg	99
3060.301	1.302	1302.3	generate	Run4	generate/STIM_021.jpg	99
3065.367	1.582	1582.4	generate	Run4	generate/STIM_021.jpg	99
3069.224	1.564	1564.4	generate	Run4	generate/STIM_022.jpg	99
3073.156	2.368	2368.1	generate	Run4	generate/STIM_022.jpg	100
3078.567	1.893	1892.9	generate	Run4	generate/STIM_022.jpg	100
3082.443	2.06	2059.6	generate	Run4	generate/STIM_022.jpg	100
3087.769	1.758	1758.1	generate	Run4	generate/STIM_022.jpg	99
3092.961	2.237	2237.1	generate	Run4	generate/STIM_023.jpg	99
3098.458	1.463	1463.4	generate	Run4	generate/STIM_023.jpg	99
3103.39	1.946	1945.7	generate	Run4	generate/STIM_023.jpg	99
3109.207	1.424	1424.5	generate	Run4	generate/STIM_023.jpg	100
3114.261	2.36	2360.5	generate	Run4	generate/STIM_023.jpg	99
3118.657	1.295	1294.6	generate	Run4	generate/STIM_024.jpg	99
3122.943	1.774	1774.3	generate	Run4	generate/STIM_024.jpg	99
3127.011	1.527	1527.3	generate	Run4	generate/STIM_024.jpg	99
3132.269	1.09	1089.8	generate	Run4	generate/STIM_024.jpg	99
3136.883	1.756	1756.0	generate	Run4	generate/STIM_024.jpg	99
3141.045	0.756	755.5	repeat	Run4	repeat/STIM_000.jpg	99
3145.634	0.963	962.6	repeat	Run4	repeat/STIM_000.jpg	100
3149.691	0.579	579.1	repeat	Run4	repeat/STIM_000.jpg	99
3153.697	0.812	811.7	repeat	Run4	repeat/STIM_000.jpg	99
3157.966	0.665	664.8	repeat	Run4	repeat/STIM_000.jpg	100
3160.707	1.109	1109.2	repeat	Run4	repeat/STIM_001.jpg	100
3164.5	0.724	724.2	repeat	Run4	repeat/STIM_001.jpg	100
3168.893	1.064	1064.5	repeat	Run4	repeat/STIM_001.jpg	99
3172.094	0.494	493.6	repeat	Run4	repeat/STIM_001.jpg	99
3176.353	0.652	651.7	repeat	Run4	repeat/STIM_001.jpg	100
3179.453	1.037	1036.9	repeat	Run4	repeat/STIM_002.jpg	100
3184.015	0.894	893.7	repeat	Run4	repeat/STIM_002.jpg	100
3187.725	0.746	746.0	repeat	Run4	repeat/STIM_002.jpg	100
3190.815	0.813	812.9	repeat	Run4	repeat/STIM_002.jpg	100
3194.026	1.088	1087.7	repeat	Run4	repeat/STIM_002.jpg	100
3197.631	0.735	735.0	repeat	Run4	repeat/STIM_003.jpg	99
3201.249	0.626	626.5	repeat	Run4	repeat/STIM_003.jpg	100
3205.342	1.006	1005.7	repeat	Run4	repeat/STIM_003.jpg	100
3209.892	1.101	1101.3	repeat	Run4	repeat/STIM_003.jpg	99
3213.763	1.138	1138.3	repeat	Run4	repeat/STIM_003.jpg	100
3218.563	0.723	723.2	repeat	Run4	repeat/STIM_004.jpg	99
3221.485	0.717	716.7	repeat	Run4	repeat/STIM_004.jpg	100
3224.942	0.926	926.2	repeat	Run4	repeat/STIM_004.jpg	99
3228.662	0.757	757.3	repeat	Run4	repeat/STIM_004.jpg	100
3232.245	0.828	827.8	repeat	Run4	repeat/STIM_004.jpg	99
3236.55	0.919	919.4	repeat	Run4	repeat/STIM_005.jpg	100
3239.34	0.648	647.6	repeat	Run4	repeat/STIM_005.jpg	100
3241.985	0.639	638.9	repeat	Run4	repeat/STIM_005.jpg	99
3246.413	0.588	588.3	repeat	Run4	repeat/STIM_005.jpg	99
3249.391	0.73	730.1	repeat	Run4	repeat/STIM_005.jpg	99
3252.045	0.543	543.3	repeat	Run4	repeat/STIM_006.jpg	100
3256.454	0.838	837.7	repeat	Run4	repeat/STIM_006.jpg	99
3260.531	0.855	854.8	repeat	Run4	repeat/STIM_006.jpg	100
3263.431	0.807	806.8	repeat	Run4	repeat/STIM_006.jpg	100
3267.86	0.912	912.3	repeat	Run4	repeat/STIM_006.jpg	100
3272.409	0.816	815.5	repeat	Run4	repeat/STIM_007.jpg	100
3277.048	1.104	1103.9	repeat	Run4	repeat/STIM_007.jpg	100
3280.535	0.734	733.8	repeat	Run4	repeat/STIM_007.jpg	99
3284.803	1.025	1024.6	repeat	Run4	repeat/STIM_007.jpg	100
3288.486	0.952	951.6	repeat	Run4	repeat/STIM_007.jpg	99
3293.203	0.921	921.4	repeat	Run4	repeat/STIM_008.jpg	99
3297.493	0.854	854.5	repeat	Run4	repeat/STIM_008.jpg	99
3301.315	0.691	690.6	repeat	Run4	repeat/STIM_008.jpg	99
3305.198	0.958	957.6	repeat	Run4	repeat/STIM_008.jpg	100
3309.13	0.964	963.7	repeat	Run4	repeat/STIM_008.jpg	99
3312.555	0.979	979.4	repeat	Run4	repeat/STIM_009.jpg	100
3316.605	1.045	1044.9	repeat	Run4	repeat/STIM_009.jpg	99
3320.903	0.768	767.7	repeat	Run4	repeat/STIM_009.jpg	100
3324.494	0.982	982.5	repeat	Run4	repeat/STIM_009.jpg	99
3328.091	0.599	599.3	repeat	Run4	repeat/STIM_009.jpg	100
3332.517	0.787	786.9	repeat	Run4	repeat/STIM_010.jpg	99
3335.663	0.9	899.5	repeat	Run4	repeat/STIM_010.jpg	100
3340.318	0.53	529.9	repeat	Run4	repeat/STIM_010.jpg	99
3343.228	0.814	814.2	repeat	Run4	repeat/STIM_010.jpg	100
3347.477	1.008	1008.2	repeat	Run4	repeat/STIM_010.jpg	99
3351.51	0.712	712.5	repeat	Run4	repeat/STIM_011.jpg	100
3354.12	0.614	614.2	repeat	Run4	repeat/STIM_011.jpg	99
3358.348	0.71	709.7	repeat	Run4	repeat/STIM_011.jpg	99
3361.371	0.596	596.1	repeat	Run4	repeat/STIM_011.jpg	99
3365.765	0.979	979.4	repeat	Run4	repeat/STIM_011.jpg	100
3370.01	0.699	698.8	repeat	Run4	repeat/STIM_012.jpg	100
3374.529	0.747	747.2	repeat	Run4	repeat/STIM_012.jpg	99
3379.145	0.892	891.7	repeat	Run4	repeat/STIM_012.jpg	99
3383.34	0.569	568.8	repeat	Run4	repeat/STIM_012.jpg	99
3386.476	0.596	595.9	repeat	Run4	repeat/STIM_012.jpg	100
3390.902	0.863	862.8	repeat	Run4	repeat/STIM_013.jpg	99
3395.217	0.743	742.7	repeat	Run4	repeat/STIM_013.jpg	99
3399.025	0.951	950.9	repeat	Run4	repeat/STIM_013.jpg	100
3403.651	0.708	708.0	repeat	Run4	repeat/STIM_013.jpg	100
3407.345	0.996	995.5	repeat	Run4	repeat/STIM_013.jpg	99
3411.012	0.536	535.7	repeat	Run4	repeat/STIM_014.jpg	100
3415.482	0.719	719.1	repeat	Run4	repeat/STIM_014.jpg	99
3419.629	0.971	970.8	repeat	Run4	repeat/STIM_014.jpg	99
3424.552	0.749	749.2	repeat	Run4	repeat/STIM_014.jpg	99
3427.886	1.126	1125.9	repeat	Run4	repeat/STIM_014.jpg	99
