onset	duration	accuracy	trial_type	learning_stage	stimulus
0.0	1.308	correct	generate	Run1	generate/STIM_000.jpg
3.471	2.78	correct	generate	Run1	generate/STIM_000.jpg
9.795	1.3	correct	generate	Run1	generate/STIM_000.jpg
14.61	2.134	correct	generate	Run1	generate/STIM_000.jpg
18.711	1.881	incorrect	generate	Run1	generate/STIM_000.jpg
22.507	2.85	incorrect	generate	Run1	generate/STIM_001.jpg
27.88	1.784	correct	generate	Run1	generate/STIM_001.jpg
33.019	1.99	incorrect	generate	Run1	generate/STIM_001.jpg
36.785	1.219	correct	generate	Run1	generate/STIM_001.jpg
40.376	1.266	incorrect	generate	Run1	generate/STIM_001.jpg
45.39	2.084	incorrect	generate	Run1	generate/STIM_002.jpg
50.652	2.276	correct	generate	Run1	generate/STIM_002.jpg
56.388	2.313	incorrect	generate	Run1	generate/STIM_002.jpg
61.893	1.378	correct	generate	Run1	generate/STIM_002.jpg
66.066	1.296	correct	generate	Run1	generate/STIM_002.jpg
69.343	1.391	correct	generate	Run1	generate/STIM_003.jpg
73.588	1.642	correct	generate	Run1	generate/STIM_003.jpg
77.311	1.964	correct	generate	Run1	generate/STIM_003.jpg
81.448	1.429	correct	generate	Run1	generate/STIM_003.jpg
85.724	1.49	correct	generate	Run1	generate/STIM_003.jpg
90.336	2.334	incorrect	generate	Run1	generate/STIM_004.jpg
96.42	2.266	correct	generate	Run1	generate/STIM_004.jpg
101.395	2.744	correct	generate	Run1	generate/STIM_004.jpg
106.99	2.423	incorrect	generate	Run1	generate/STIM_004.jpg
112.039	1.697	correct	generate	Run1	generate/STIM_004.jpg
116.691	2.288	incorrect	generate	Run1	generate/STIM_005.jpg
121.67	2.076	correct	generate	Run1	generate/STIM_005.jpg
125.941	2.142	correct	generate	Run1	generate/STIM_005.jpg
131.665	1.783	correct	generate	Run1	generate/STIM_005.jpg
135.697	1.914	incorrect	generate	Run1	generate/STIM_005.jpg
140.327	2.084	correct	generate	Run1	generate/STIM_006.jpg
146.302	3.032	correct	generate	Run1	generate/STIM_006.jpg
152.012	2.017	correct	generate	Run1	generate/STIM_006.jpg
157.577	2.533	correct	generate	Run1	generate/STIM_006.jpg
162.836	1.244	correct	generate	Run1	generate/STIM_006.jpg
167.659	1.366	correct	generate	Run1	generate/STIM_007.jpg
171.079	1.925	correct	generate	Run1	generate/STIM_007.jpg
175.859	1.84	incorrect	generate	Run1	generate/STIM_007.jpg
180.677	1.965	correct	generate	Run1	generate/STIM_007.jpg
186.254	1.056	correct	generate	Run1	generate/STIM_007.jpg
190.649	3.032	correct	generate	Run1	generate/STIM_008.jpg
196.608	2.646	correct	generate	Run1	generate/STIM_008.jpg
201.758	2.685	correct	generate	Run1	generate/STIM_008.jpg
207.687	2.731	correct	generate	Run1	generate/STIM_008.jpg
212.58	1.593	correct	generate	Run1	generate/STIM_008.jpg
216.401	1.443	correct	generate	Run1	generate/STIM_009.jpg
219.662	1.825	incorrect	generate	Run1	generate/STIM_009.jpg
224.202	2.679	correct	generate	Run1	generate/STIM_009.jpg
229.578	1.751	correct	generate	Run1	generate/STIM_009.jpg
233.554	1.31	correct	generate	Run1	generate/STIM_009.jpg
237.975	1.736	correct	generate	Run1	generate/STIM_010.jpg
241.854	2.885	correct	generate	Run1	generate/STIM_010.jpg
248.108	1.918	correct	generate	Run1	generate/STIM_010.jpg
253.137	2.312	incorrect	generate	Run1	generate/STIM_010.jpg
257.21	2.056	correct	generate	Run1	generate/STIM_010.jpg
261.935	2.557	correct	generate	Run1	generate/STIM_011.jpg
267.934	2.254	correct	generate	Run1	generate/STIM_011.jpg
272.814	2.429	correct	generate	Run1	generate/STIM_011.jpg
278.448	1.371	correct	generate	Run1	generate/STIM_011.jpg
283.206	2.031	correct	generate	Run1	generate/STIM_011.jpg
288.183	2.133	correct	generate	Run1	generate/STIM_012.jpg
292.733	1.419	correct	generate	Run1	generate/STIM_012.jpg
297.925	2.768	correct	generate	Run1	generate/STIM_012.jpg
303.116	2.716	incorrect	generate	Run1	generate/STIM_012.jpg
308.812	2.441	correct	generate	Run1	generate/STIM_012.jpg
314.355	2.315	correct	generate	Run1	generate/STIM_013.jpg
319.329	1.358	correct	generate	Run1	generate/STIM_013.jpg
323.044	1.258	correct	generate	Run1	generate/STIM_013.jpg
328.176	2.071	correct	generate	Run1	generate/STIM_013.jpg
334.024	2.489	correct	generate	Run1	generate/STIM_013.jpg
338.594	2.928	correct	generate	Run1	generate/STIM_014.jpg
343.308	2.134	correct	generate	Run1	generate/STIM_014.jpg
348.393	3.002	correct	generate	Run1	generate/STIM_014.jpg
354.012	2.248	correct	generate	Run1	generate/STIM_014.jpg
358.627	2.253	correct	generate	Run1	generate/STIM_014.jpg
363.188	1.463	incorrect	generate	Run1	generate/STIM_015.jpg
367.376	2.722	correct	generate	Run1	generate/STIM_015.jpg
372.944	1.961	correct	generate	Run1	generate/STIM_015.jpg
377.508	1.741	correct	generate	Run1	generate/STIM_015.jpg
381.304	2.442	correct	generate	Run1	generate/STIM_015.jpg
387.53	1.598	correct	generate	Run1	generate/STIM_016.jpg
392.068	3.065	correct	generate	Run1	generate/STIM_016.jpg
397.164	2.228	correct	generate	Run1	generate/STIM_016.jpg
402.186	2.499	incorrect	generate	Run1	generate/STIM_016.jpg
407.358	1.036	correct	generate	Run1	generate/STIM_016.jpg
411.305	3.114	correct	generate	Run1	generate/STIM_017.jpg
416.955	2.555	incorrect	generate	Run1	generate/STIM_017.jpg
421.699	2.918	correct	generate	Run1	generate/STIM_017.jpg
427.139	2.274	correct	generate	Run1	generate/STIM_017.jpg
433.112	1.671	correct	generate	Run1	generate/STIM_017.jpg
437.664	3.052	correct	generate	Run1	generate/STIM_018.jpg
443.896	1.541	correct	generate	Run1	generate/STIM_018.jpg
447.509	1.792	correct	generate	Run1	generate/STIM_018.jpg
451.461	1.908	correct	generate	Run1	generate/STIM_018.jpg
455.446	1.137	correct	generate	Run1	generate/STIM_018.jpg
459.132	3.02	correct	generate	Run1	generate/STIM_019.jpg
464.003	1.73	correct	generate	Run1	generate/STIM_019.jpg
468.875	1.368	correct	generate	Run1	generate/STIM_019.jpg
472.615	1.544	correct	generate	Run1	generate/STIM_019.jpg
476.739	2.064	correct	generate	Run1	generate/STIM_019.jpg
482.445	2.181	correct	generate	Run1	generate/STIM_020.jpg
486.915	2.422	incorrect	generate	Run1	generate/STIM_020.jpg
492.113	2.586	correct	generate	Run1	generate/STIM_020.jpg
497.78	1.891	correct	generate	Run1	generate/STIM_020.jpg
502.511	2.357	incorrect	generate	Run1	generate/STIM_020.jpg
507.325	2.815	incorrect	generate	Run1	generate/STIM_021.jpg
512.206	1.448	correct	generate	Run1	generate/STIM_021.jpg
515.755	2.549	incorrect	generate	Run1	generate/STIM_021.jpg
520.285	2.52	correct	generate	Run1	generate/STIM_021.jpg
525.037	2.593	correct	generate	Run1	generate/STIM_021.jpg
530.196	2.109	correct	generate	Run1	generate/STIM_022.jpg
534.55	1.674	correct	generate	Run1	generate/STIM_022.jpg
538.821	1.966	correct	generate	Run1	generate/STIM_022.jpg
543.005	2.502	correct	generate	Run1	generate/STIM_022.jpg
549.168	2.173	incorrect	generate	Run1	generate/STIM_022.jpg
553.386	2.819	correct	generate	Run1	generate/STIM_023.jpg
558.32	1.593	correct	generate	Run1	generate/STIM_023.jpg
561.948	1.904	incorrect	generate	Run1	generate/STIM_023.jpg
566.373	1.609	correct	generate	Run1	generate/STIM_023.jpg
571.574	1.458	correct	generate	Run1	generate/STIM_023.jpg
575.243	1.448	incorrect	generate	Run1	generate/STIM_024.jpg
579.513	1.884	incorrect	generate	Run1	generate/STIM_024.jpg
584.008	2.242	correct	generate	Run1	generate/STIM_024.jpg
588.691	1.787	correct	generate	Run1	generate/STIM_024.jpg
593.265	1.474	correct	generate	Run1	generate/STIM_024.jpg
597.849	1.044	correct	repeat	Run1	repeat/STIM_000.jpg
600.833	0.856	correct	repeat	Run1	repeat/STIM_000.jpg
604.639	0.746	correct	repeat	Run1	repeat/STIM_000.jpg
609.194	0.884	correct	repeat	Run1	repeat/STIM_000.jpg
613.785	1.007	correct	repeat	Run1	repeat/STIM_000.jpg
618.414	0.885	correct	repeat	Run1	repeat/STIM_001.jpg
622.082	1.072	correct	repeat	Run1	repeat/STIM_001.jpg
625.165	0.878	correct	repeat	Run1	repeat/STIM_001.jpg
629.45	1.155	correct	repeat	Run1	repeat/STIM_001.jpg
633.645	0.932	correct	repeat	Run1	repeat/STIM_001.jpg
637.544	0.86	correct	repeat	Run1	repeat/STIM_002.jpg
642.289	0.554	correct	repeat	Run1	repeat/STIM_002.jpg
645.692	0.743	correct	repeat	Run1	repeat/STIM_002.jpg
650.24	0.642	correct	repeat	Run1	repeat/STIM_002.jpg
653.688	0.698	correct	repeat	Run1	repeat/STIM_002.jpg
658.386	0.736	correct	repeat	Run1	repeat/STIM_003.jpg
661.686	0.542	correct	repeat	Run1	repeat/STIM_003.jpg
665.172	0.859	correct	repeat	Run1	repeat/STIM_003.jpg
668.424	0.971	correct	repeat	Run1	repeat/STIM_003.jpg
673.201	0.833	correct	repeat	Run1	repeat/STIM_003.jpg
676.821	1.006	correct	repeat	Run1	repeat/STIM_004.jpg
680.981	0.884	correct	repeat	Run1	repeat/STIM_004.jpg
684.645	1.012	correct	repeat	Run1	repeat/STIM_004.jpg
688.919	0.772	correct	repeat	Run1	repeat/STIM_004.jpg
692.731	0.507	correct	repeat	Run1	repeat/STIM_004.jpg
696.405	0.845	correct	repeat	Run1	repeat/STIM_005.jpg
699.432	1.052	correct	repeat	Run1	repeat/STIM_005.jpg
703.959	0.648	correct	repeat	Run1	repeat/STIM_005.jpg
708.443	0.848	correct	repeat	Run1	repeat/STIM_005.jpg
711.974	1.026	incorrect	repeat	Run1	repeat/STIM_005.jpg
715.833	0.707	correct	repeat	Run1	repeat/STIM_006.jpg
718.995	0.588	incorrect	repeat	Run1	repeat/STIM_006.jpg
722.247	0.586	correct	repeat	Run1	repeat/STIM_006.jpg
725.461	0.732	correct	repeat	Run1	repeat/STIM_006.jpg
728.446	0.579	correct	repeat	Run1	repeat/STIM_006.jpg
732.772	0.775	correct	repeat	Run1	repeat/STIM_007.jpg
737.459	0.784	correct	repeat	Run1	repeat/STIM_007.jpg
741.521	1.079	correct	repeat	Run1	repeat/STIM_007.jpg
746.127	0.785	correct	repeat	Run1	repeat/STIM_007.jpg
748.896	0.854	correct	repeat	Run1	repeat/STIM_007.jpg
753.371	0.697	correct	repeat	Run1	repeat/STIM_008.jpg
756.88	0.603	correct	repeat	Run1	repeat/STIM_008.jpg
760.596	0.568	correct	repeat	Run1	repeat/STIM_008.jpg
763.623	0.73	correct	repeat	Run1	repeat/STIM_008.jpg
767.824	0.691	correct	repeat	Run1	repeat/STIM_008.jpg
772.143	0.819	correct	repeat	Run1	repeat/STIM_009.jpg
775.042	0.801	correct	repeat	Run1	repeat/STIM_009.jpg
778.191	0.982	correct	repeat	Run1	repeat/STIM_009.jpg
781.277	0.912	correct	repeat	Run1	repeat/STIM_009.jpg
785.477	1.174	correct	repeat	Run1	repeat/STIM_009.jpg
789.025	0.974	correct	repeat	Run1	repeat/STIM_010.jpg
792.787	0.696	incorrect	repeat	Run1	repeat/STIM_010.jpg
796.675	0.937	correct	repeat	Run1	repeat/STIM_010.jpg
799.694	0.862	correct	repeat	Run1	repeat/STIM_010.jpg
804.115	0.841	correct	repeat	Run1	repeat/STIM_010.jpg
807.071	0.574	correct	repeat	Run1	repeat/STIM_011.jpg
809.967	0.833	correct	repeat	Run1	repeat/STIM_011.jpg
814.553	0.822	incorrect	repeat	Run1	repeat/STIM_011.jpg
818.264	0.942	correct	repeat	Run1	repeat/STIM_011.jpg
822.443	0.6	correct	repeat	Run1	repeat/STIM_011.jpg
825.242	0.796	correct	repeat	Run1	repeat/STIM_012.jpg
828.469	0.666	correct	repeat	Run1	repeat/STIM_012.jpg
832.449	0.726	correct	repeat	Run1	repeat/STIM_012.jpg
836.397	0.649	correct	repeat	Run1	repeat/STIM_012.jpg
840.259	0.74	correct	repeat	Run1	repeat/STIM_012.jpg
843.328	1.13	correct	repeat	Run1	repeat/STIM_013.jpg
847.998	0.756	correct	repeat	Run1	repeat/STIM_013.jpg
852.482	1.054	correct	repeat	Run1	repeat/STIM_013.jpg
855.582	1.023	correct	repeat	Run1	repeat/STIM_013.jpg
858.765	0.817	correct	repeat	Run1	repeat/STIM_013.jpg
861.908	0.679	incorrect	repeat	Run1	repeat/STIM_014.jpg
865.658	0.702	correct	repeat	Run1	repeat/STIM_014.jpg
868.883	0.964	correct	repeat	Run1	repeat/STIM_014.jpg
872.761	0.753	correct	repeat	Run1	repeat/STIM_014.jpg
876.588	1.132	correct	repeat	Run1	repeat/STIM_014.jpg
880.097	2.766	correct	generate	Run2	generate/STIM_000.jpg
885.897	1.247	correct	generate	Run2	generate/STIM_000.jpg
889.131	1.663	correct	generate	Run2	generate/STIM_000.jpg
894.184	1.968	correct	generate	Run2	generate/STIM_000.jpg
899.869	1.643	correct	generate	Run2	generate/STIM_000.jpg
905.201	1.714	correct	generate	Run2	generate/STIM_001.jpg
909.116	2.114	correct	generate	Run2	generate/STIM_001.jpg
913.154	0.996	correct	generate	Run2	generate/STIM_001.jpg
916.949	1.852	correct	generate	Run2	generate/STIM_001.jpg
920.895	1.418	correct	generate	Run2	generate/STIM_001.jpg
925.391	2.233	correct	generate	Run2	generate/STIM_002.jpg
930.839	1.415	incorrect	generate	Run2	generate/STIM_002.jpg
935.517	0.93	correct	generate	Run2	generate/STIM_002.jpg
939.498	1.515	correct	generate	Run2	generate/STIM_002.jpg
944.073	1.158	correct	generate	Run2	generate/STIM_002.jpg
949.109	2.502	correct	generate	Run2	generate/STIM_003.jpg
955.381	2.598	correct	generate	Run2	generate/STIM_003.jpg
960.559	1.554	incorrect	generate	Run2	generate/STIM_003.jpg
965.485	0.983	correct	generate	Run2	generate/STIM_003.jpg
970.037	1.697	incorrect	generate	Run2	generate/STIM_003.jpg
974.792	2.345	incorrect	generate	Run2	generate/STIM_004.jpg
980.574	1.45	incorrect	generate	Run2	generate/STIM_004.jpg
985.838	1.618	correct	generate	Run2	generate/STIM_004.jpg
989.452	1.534	incorrect	generate	Run2	generate/STIM_004.jpg
993.642	1.115	correct	generate	Run2	generate/STIM_004.jpg
998.183	1.962	correct	generate	Run2	generate/STIM_005.jpg
1002.852	1.489	correct	generate	Run2	generate/STIM_005.jpg
1006.848	2.082	correct	generate	Run2	generate/STIM_005.jpg
1011.865	1.572	correct	generate	Run2	generate/STIM_005.jpg
1015.941	1.766	correct	generate	Run2	generate/STIM_005.jpg
1019.553	1.49	correct	generate	Run2	generate/STIM_006.jpg
1024.906	1.168	correct	generate	Run2	generate/STIM_006.jpg
1029.263	1.28	correct	generate	Run2	generate/STIM_006.jpg
1032.504	2.1	incorrect	generate	Run2	generate/STIM_006.jpg
1038.367	1.005	correct	generate	Run2	generate/STIM_006.jpg
1043.172	2.455	correct	generate	Run2	generate/STIM_007.jpg
1047.627	1.16	correct	generate	Run2	generate/STIM_007.jpg
1051.291	1.152	correct	generate	Run2	generate/STIM_007.jpg
1056.06	2.179	correct	generate	Run2	generate/STIM_007.jpg
1060.434	1.764	correct	generate	Run2	generate/STIM_007.jpg
1064.249	1.421	incorrect	generate	Run2	generate/STIM_008.jpg
1069.012	2.264	correct	generate	Run2	generate/STIM_008.jpg
1074.082	1.62	correct	generate	Run2	generate/STIM_008.jpg
1078.654	1.02	correct	generate	Run2	generate/STIM_008.jpg
1083.314	1.732	correct	generate	Run2	generate/STIM_008.jpg
1087.101	2.174	correct	generate	Run2	generate/STIM_009.jpg
1092.704	1.485	correct	generate	Run2	generate/STIM_009.jpg
1096.416	2.317	correct	generate	Run2	generate/STIM_009.jpg
1102.023	1.755	correct	generate	Run2	generate/STIM_009.jpg
1106.725	1.17	correct	generate	Run2	generate/STIM_009.jpg
1111.32	2.166	incorrect	generate	Run2	generate/STIM_010.jpg
1117.291	1.281	correct	generate	Run2	generate/STIM_010.jpg
1121.696	2.274	correct	generate	Run2	generate/STIM_010.jpg
1127.069	2.075	incorrect	generate	Run2	generate/STIM_010.jpg
1132.706	1.665	incorrect	generate	Run2	generate/STIM_010.jpg
1137.867	2.848	correct	generate	Run2	generate/STIM_011.jpg
1144.305	1.729	correct	generate	Run2	generate/STIM_011.jpg
1149.199	1.394	correct	generate	Run2	generate/STIM_011.jpg
1153.23	1.43	incorrect	generate	Run2	generate/STIM_011.jpg
1157.628	1.297	correct	generate	Run2	generate/STIM_011.jpg
1162.529	1.104	correct	generate	Run2	generate/STIM_012.jpg
1165.869	1.987	correct	generate	Run2	generate/STIM_012.jpg
1170.167	1.027	correct	generate	Run2	generate/STIM_012.jpg
1173.64	1.46	correct	generate	Run2	generate/STIM_012.jpg
1178.797	1.688	correct	generate	Run2	generate/STIM_012.jpg
1184.263	1.056	correct	generate	Run2	generate/STIM_013.jpg
1189.145	1.966	correct	generate	Run2	generate/STIM_013.jpg
1194.184	2.096	correct	generate	Run2	generate/STIM_013.jpg
1199.326	1.956	correct	generate	Run2	generate/STIM_013.jpg
1203.543	2.333	correct	generate	Run2	generate/STIM_013.jpg
1208.099	2.206	correct	generate	Run2	generate/STIM_014.jpg
1213.947	2.589	correct	generate	Run2	generate/STIM_014.jpg
1218.467	1.844	correct	generate	Run2	generate/STIM_014.jpg
1223.464	1.487	correct	generate	Run2	generate/STIM_014.jpg
1228.521	2.044	correct	generate	Run2	generate/STIM_014.jpg
1232.485	1.403	correct	generate	Run2	generate/STIM_015.jpg
1236.335	2.297	correct	generate	Run2	generate/STIM_015.jpg
1240.843	1.562	incorrect	generate	Run2	generate/STIM_015.jpg
1245.537	1.578	correct	generate	Run2	generate/STIM_015.jpg
1250.869	1.313	correct	generate	Run2	generate/STIM_015.jpg
1255.77	1.306	correct	generate	Run2	generate/STIM_016.jpg
1259.566	1.614	correct	generate	Run2	generate/STIM_016.jpg
1264.892	2.058	correct	generate	Run2	generate/STIM_016.jpg
1269.05	1.475	correct	generate	Run2	generate/STIM_016.jpg
1273.923	1.441	correct	generate	Run2	generate/STIM_016.jpg
1278.7	1.268	correct	generate	Run2	generate/STIM_017.jpg
1283.871	2.416	correct	generate	Run2	generate/STIM_017.jpg
1288.63	1.253	correct	generate	Run2	generate/STIM_017.jpg
1292.647	2.173	correct	generate	Run2	generate/STIM_017.jpg
1297.041	1.492	correct	generate	Run2	generate/STIM_017.jpg
1301.1	2.71	incorrect	generate	Run2	generate/STIM_018.jpg
1305.58	2.267	incorrect	generate	Run2	generate/STIM_018.jpg
1310.74	1.163	correct	generate	Run2	generate/STIM_018.jpg
1314.138	1.906	incorrect	generate	Run2	generate/STIM_018.jpg
1318.924	1.688	correct	generate	Run2	generate/STIM_018.jpg
1323.745	1.67	correct	generate	Run2	generate/STIM_019.jpg
1327.999	1.588	incorrect	generate	Run2	generate/STIM_019.jpg
1332.769	1.217	incorrect	generate	Run2	generate/STIM_019.jpg
1336.126	1.729	correct	generate	Run2	generate/STIM_019.jpg
1341.509	1.656	incorrect	generate	Run2	generate/STIM_019.jpg
1345.994	1.301	correct	generate	Run2	generate/STIM_020.jpg
1349.605	2.599	correct	generate	Run2	generate/STIM_020.jpg
1354.176	2.172	correct	generate	Run2	generate/STIM_020.jpg
1359.747	1.151	correct	generate	Run2	generate/STIM_020.jpg
1363.179	1.976	correct	generate	Run2	generate/STIM_020.jpg
1367.726	1.6	correct	generate	Run2	generate/STIM_021.jpg
1371.989	2.205	correct	generate	Run2	generate/STIM_021.jpg
1376.779	1.044	correct	generate	Run2	generate/STIM_021.jpg
1381.675	1.0	correct	generate	Run2	generate/STIM_021.jpg
1385.367	1.052	correct	generate	Run2	generate/STIM_021.jpg
1388.763	2.319	correct	generate	Run2	generate/STIM_022.jpg
1393.638	2.364	incorrect	generate	Run2	generate/STIM_022.jpg
1399.439	2.142	correct	generate	Run2	generate/STIM_022.jpg
1405.306	1.345	correct	generate	Run2	generate/STIM_022.jpg
1408.554	2.015	incorrect	generate	Run2	generate/STIM_022.jpg
1412.949	2.119	correct	generate	Run2	generate/STIM_023.jpg
1417.052	1.61	correct	generate	Run2	generate/STIM_023.jpg
1422.324	1.908	correct	generate	Run2	generate/STIM_023.jpg
1427.351	1.919	correct	generate	Run2	generate/STIM_023.jpg
1432.372	1.411	correct	generate	Run2	generate/STIM_023.jpg
1437.206	1.419	correct	generate	Run2	generate/STIM_024.jpg
1440.59	1.902	correct	generate	Run2	generate/STIM_024.jpg
1445.888	1.868	incorrect	generate	Run2	generate/STIM_024.jpg
1450.754	1.074	correct	generate	Run2	generate/STIM_024.jpg
1453.882	1.46	correct	generate	Run2	generate/STIM_024.jpg
1458.88	0.705	correct	repeat	Run2	repeat/STIM_000.jpg
1463.421	1.122	incorrect	repeat	Run2	repeat/STIM_000.jpg
1467.293	0.723	correct	repeat	Run2	repeat/STIM_000.jpg
1470.58	1.084	correct	repeat	Run2	repeat/STIM_000.jpg
1474.391	0.948	correct	repeat	Run2	repeat/STIM_000.jpg
1478.072	1.099	correct	repeat	Run2	repeat/STIM_001.jpg
1482.701	0.755	correct	repeat	Run2	repeat/STIM_001.jpg
1485.647	1.098	correct	repeat	Run2	repeat/STIM_001.jpg
1489.246	0.844	correct	repeat	Run2	repeat/STIM_001.jpg
1493.596	0.758	incorrect	repeat	Run2	repeat/STIM_001.jpg
1498.193	0.775	correct	repeat	Run2	repeat/STIM_002.jpg
1502.284	0.712	correct	repeat	Run2	repeat/STIM_002.jpg
1506.106	1.056	correct	repeat	Run2	repeat/STIM_002.jpg
1509.099	0.671	correct	repeat	Run2	repeat/STIM_002.jpg
1513.328	0.937	correct	repeat	Run2	repeat/STIM_002.jpg
1517.859	0.783	correct	repeat	Run2	repeat/STIM_003.jpg
1521.432	0.801	correct	repeat	Run2	repeat/STIM_003.jpg
1526.034	0.749	correct	repeat	Run2	repeat/STIM_003.jpg
1529.222	1.052	correct	repeat	Run2	repeat/STIM_003.jpg
1533.864	0.668	correct	repeat	Run2	repeat/STIM_003.jpg
1536.95	0.939	correct	repeat	Run2	repeat/STIM_004.jpg
1540.851	0.641	incorrect	repeat	Run2	repeat/STIM_004.jpg
1544.72	0.812	correct	repeat	Run2	repeat/STIM_004.jpg
1548.452	0.616	correct	repeat	Run2	repeat/STIM_004.jpg
1551.061	1.081	correct	repeat	Run2	repeat/STIM_004.jpg
1555.655	0.837	correct	repeat	Run2	repeat/STIM_005.jpg
1559.905	0.621	correct	repeat	Run2	repeat/STIM_005.jpg
1564.471	0.755	correct	repeat	Run2	repeat/STIM_005.jpg
1567.697	0.567	correct	repeat	Run2	repeat/STIM_005.jpg
1572.151	1.086	correct	repeat	Run2	repeat/STIM_005.jpg
1575.434	0.63	correct	repeat	Run2	repeat/STIM_006.jpg
1578.361	0.552	correct	repeat	Run2	repeat/STIM_006.jpg
1581.68	0.735	correct	repeat	Run2	repeat/STIM_006.jpg
1584.465	0.831	correct	repeat	Run2	repeat/STIM_006.jpg
1587.697	0.732	incorrect	repeat	Run2	repeat/STIM_006.jpg
1591.801	0.826	correct	repeat	Run2	repeat/STIM_007.jpg
1594.958	0.723	correct	repeat	Run2	repeat/STIM_007.jpg
1598.958	0.947	correct	repeat	Run2	repeat/STIM_007.jpg
1603.344	1.054	correct	repeat	Run2	repeat/STIM_007.jpg
1608.291	0.861	correct	repeat	Run2	repeat/STIM_007.jpg
1612.373	1.132	correct	repeat	Run2	repeat/STIM_008.jpg
1616.89	0.995	correct	repeat	Run2	repeat/STIM_008.jpg
1620.433	1.145	correct	repeat	Run2	repeat/STIM_008.jpg
1624.573	0.71	correct	repeat	Run2	repeat/STIM_008.jpg
1628.73	0.716	correct	repeat	Run2	repeat/STIM_008.jpg
1632.669	0.805	correct	repeat	Run2	repeat/STIM_009.jpg
1635.803	1.036	correct	repeat	Run2	repeat/STIM_009.jpg
1639.167	0.674	correct	repeat	Run2	repeat/STIM_009.jpg
1642.846	0.932	correct	repeat	Run2	repeat/STIM_009.jpg
1645.918	0.919	correct	repeat	Run2	repeat/STIM_009.jpg
1649.665	1.106	correct	repeat	Run2	repeat/STIM_010.jpg
1653.841	0.921	correct	repeat	Run2	repeat/STIM_010.jpg
1657.111	0.798	correct	repeat	Run2	repeat/STIM_010.jpg
1660.38	1.02	correct	repeat	Run2	repeat/STIM_010.jpg
1665.144	1.025	correct	repeat	Run2	repeat/STIM_010.jpg
1669.723	0.951	correct	repeat	Run2	repeat/STIM_011.jpg
1673.61	0.685	correct	repeat	Run2	repeat/STIM_011.jpg
1677.345	0.732	correct	repeat	Run2	repeat/STIM_011.jpg
1681.109	0.794	correct	repeat	Run2	repeat/STIM_011.jpg
1685.225	0.789	correct	repeat	Run2	repeat/STIM_011.jpg
1688.975	0.578	incorrect	repeat	Run2	repeat/STIM_012.jpg
1691.955	0.64	correct	repeat	Run2	repeat/STIM_012.jpg
1695.893	0.635	correct	repeat	Run2	repeat/STIM_012.jpg
1700.401	0.742	correct	repeat	Run2	repeat/STIM_012.jpg
1703.463	0.914	correct	repeat	Run2	repeat/STIM_012.jpg
1706.671	0.61	correct	repeat	Run2	repeat/STIM_013.jpg
1710.008	0.738	correct	repeat	Run2	repeat/STIM_013.jpg
1714.377	0.668	correct	repeat	Run2	repeat/STIM_013.jpg
1717.035	0.534	correct	repeat	Run2	repeat/STIM_013.jpg
1721.226	1.092	correct	repeat	Run2	repeat/STIM_013.jpg
1724.359	1.103	correct	repeat	Run2	repeat/STIM_014.jpg
1728.905	0.714	correct	repeat	Run2	repeat/STIM_014.jpg
1732.528	1.08	correct	repeat	Run2	repeat/STIM_014.jpg
1736.451	0.85	incorrect	repeat	Run2	repeat/STIM_014.jpg
1740.007	1.035	correct	repeat	Run2	repeat/STIM_014.jpg
1744.159	1.291	correct	generate	Run3	generate/STIM_000.jpg
1748.599	1.565	correct	generate	Run3	generate/STIM_000.jpg
1752.114	0.916	correct	generate	Run3	generate/STIM_000.jpg
1756.747	1.035	incorrect	generate	Run3	generate/STIM_000.jpg
1761.446	2.111	correct	generate	Run3	generate/STIM_000.jpg
1767.125	1.151	correct	generate	Run3	generate/STIM_001.jpg
1771.441	2.206	correct	generate	Run3	generate/STIM_001.jpg
1775.569	1.135	correct	generate	Run3	generate/STIM_001.jpg
1778.894	2.261	correct	generate	Run3	generate/STIM_001.jpg
1784.259	1.507	correct	generate	Run3	generate/STIM_001.jpg
1788.69	0.938	correct	generate	Run3	generate/STIM_002.jpg
1791.601	1.702	correct	generate	Run3	generate/STIM_002.jpg
1795.267	1.139	correct	generate	Run3	generate/STIM_002.jpg
1799.741	1.406	incorrect	generate	Run3	generate/STIM_002.jpg
1803.167	1.716	correct	generate	Run3	generate/STIM_002.jpg
1807.181	2.267	correct	generate	Run3	generate/STIM_003.jpg
1812.845	1.111	correct	generate	Run3	generate/STIM_003.jpg
1817.192	1.642	correct	generate	Run3	generate/STIM_003.jpg
1821.621	1.968	correct	generate	Run3	generate/STIM_003.jpg
1826.48	1.228	correct	generate	Run3	generate/STIM_003.jpg
1830.002	1.829	correct	generate	Run3	generate/STIM_004.jpg
1834.821	1.561	correct	generate	Run3	generate/STIM_004.jpg
1839.669	1.923	incorrect	generate	Run3	generate/STIM_004.jpg
1843.588	1.35	correct	generate	Run3	generate/STIM_004.jpg
1847.602	1.957	correct	generate	Run3	generate/STIM_004.jpg
1852.111	2.069	correct	generate	Run3	generate/STIM_005.jpg
1856.297	1.004	correct	generate	Run3	generate/STIM_005.jpg
1860.653	1.869	incorrect	generate	Run3	generate/STIM_005.jpg
1865.222	1.903	correct	generate	Run3	generate/STIM_005.jpg
1869.787	1.336	correct	generate	Run3	generate/STIM_005.jpg
1874.956	1.158	correct	generate	Run3	generate/STIM_006.jpg
1879.574	2.32	correct	generate	Run3	generate/STIM_006.jpg
1884.6	1.014	correct	generate	Run3	generate/STIM_006.jpg
1888.787	2.145	correct	generate	Run3	generate/STIM_006.jpg
1894.372	1.264	correct	generate	Run3	generate/STIM_006.jpg
1898.68	1.547	correct	generate	Run3	generate/STIM_007.jpg
1903.577	1.272	correct	generate	Run3	generate/STIM_007.jpg
1908.413	1.932	correct	generate	Run3	generate/STIM_007.jpg
1913.942	1.234	correct	generate	Run3	generate/STIM_007.jpg
1917.377	1.943	correct	generate	Run3	generate/STIM_007.jpg
1921.813	1.246	correct	generate	Run3	generate/STIM_008.jpg
1926.429	1.427	correct	generate	Run3	generate/STIM_008.jpg
1930.101	1.888	correct	generate	Run3	generate/STIM_008.jpg
1934.244	1.762	correct	generate	Run3	generate/STIM_008.jpg
1938.695	1.727	correct	generate	Run3	generate/STIM_008.jpg
1944.023	1.038	correct	generate	Run3	generate/STIM_009.jpg
1947.136	2.258	correct	generate	Run3	generate/STIM_009.jpg
1952.701	1.206	correct	generate	Run3	generate/STIM_009.jpg
1955.987	1.662	correct	generate	Run3	generate/STIM_009.jpg
1959.649	2.039	correct	generate	Run3	generate/STIM_009.jpg
1964.047	0.957	correct	generate	Run3	generate/STIM_010.jpg
1967.557	2.176	correct	generate	Run3	generate/STIM_010.jpg
1971.941	2.059	correct	generate	Run3	generate/STIM_010.jpg
1976.97	1.315	incorrect	generate	Run3	generate/STIM_010.jpg
1982.146	1.402	correct	generate	Run3	generate/STIM_010.jpg
1986.054	1.373	correct	generate	Run3	generate/STIM_011.jpg
1991.099	2.228	correct	generate	Run3	generate/STIM_011.jpg
1996.954	1.539	incorrect	generate	Run3	generate/STIM_011.jpg
2001.331	1.283	correct	generate	Run3	generate/STIM_011.jpg
2006.102	1.052	correct	generate	Run3	generate/STIM_011.jpg
2010.848	1.68	correct	generate	Run3	generate/STIM_012.jpg
2014.291	2.17	correct	generate	Run3	generate/STIM_012.jpg
2018.815	1.813	correct	generate	Run3	generate/STIM_012.jpg
2022.572	1.855	correct	generate	Run3	generate/STIM_012.jpg
2026.855	1.064	correct	generate	Run3	generate/STIM_012.jpg
2031.343	1.481	incorrect	generate	Run3	generate/STIM_013.jpg
2035.226	1.301	correct	generate	Run3	generate/STIM_013.jpg
2038.561	1.839	correct	generate	Run3	generate/STIM_013.jpg
2042.63	2.146	correct	generate	Run3	generate/STIM_013.jpg
2048.434	1.043	correct	generate	Run3	generate/STIM_013.jpg
2052.999	1.987	correct	generate	Run3	generate/STIM_014.jpg
2058.582	1.459	correct	generate	Run3	generate/STIM_014.jpg
2062.576	1.654	correct	generate	Run3	generate/STIM_014.jpg
2066.794	1.065	correct	generate	Run3	generate/STIM_014.jpg
2070.427	1.607	correct	generate	Run3	generate/STIM_014.jpg
2073.922	1.932	incorrect	generate	Run3	generate/STIM_015.jpg
2077.793	1.872	correct	generate	Run3	generate/STIM_015.jpg
2081.988	1.684	correct	generate	Run3	generate/STIM_015.jpg
2086.239	2.252	correct	generate	Run3	generate/STIM_015.jpg
2092.247	1.241	correct	generate	Run3	generate/STIM_015.jpg
2096.114	1.033	correct	generate	Run3	generate/STIM_016.jpg
2099.946	2.182	correct	generate	Run3	generate/STIM_016.jpg
2103.953	1.52	correct	generate	Run3	generate/STIM_016.jpg
2108.91	1.908	incorrect	generate	Run3	generate/STIM_016.jpg
2113.287	1.567	correct	generate	Run3	generate/STIM_016.jpg
2116.933	1.34	correct	generate	Run3	generate/STIM_017.jpg
2120.699	1.72	correct	generate	Run3	generate/STIM_017.jpg
2124.834	1.041	correct	generate	Run3	generate/STIM_017.jpg
2128.19	1.344	correct	generate	Run3	generate/STIM_017.jpg
2131.642	1.495	correct	generate	Run3	generate/STIM_017.jpg
2135.051	2.262	correct	generate	Run3	generate/STIM_018.jpg
2140.559	1.218	correct	generate	Run3	generate/STIM_018.jpg
2144.209	1.48	correct	generate	Run3	generate/STIM_018.jpg
2149.471	1.108	correct	generate	Run3	generate/STIM_018.jpg
2154.215	1.917	correct	generate	Run3	generate/STIM_018.jpg
2159.275	2.162	correct	generate	Run3	generate/STIM_019.jpg
2164.49	1.247	correct	generate	Run3	generate/STIM_019.jpg
2168.788	1.987	correct	generate	Run3	generate/STIM_019.jpg
2174.25	2.305	correct	generate	Run3	generate/STIM_019.jpg
2178.635	1.506	correct	generate	Run3	generate/STIM_019.jpg
2182.331	1.138	correct	generate	Run3	generate/STIM_020.jpg
2186.472	1.926	correct	generate	Run3	generate/STIM_020.jpg
2191.449	2.332	correct	generate	Run3	generate/STIM_020.jpg
2196.282	0.968	correct	generate	Run3	generate/STIM_020.jpg
2200.975	2.153	correct	generate	Run3	generate/STIM_020.jpg
2206.207	1.937	correct	generate	Run3	generate/STIM_021.jpg
2210.827	1.753	correct	generate	Run3	generate/STIM_021.jpg
2215.009	1.744	correct	generate	Run3	generate/STIM_021.jpg
2218.934	2.236	correct	generate	Run3	generate/STIM_021.jpg
2224.768	2.29	correct	generate	Run3	generate/STIM_021.jpg
2228.955	1.254	correct	generate	Run3	generate/STIM_022.jpg
2232.953	1.05	incorrect	generate	Run3	generate/STIM_022.jpg
2236.98	0.992	correct	generate	Run3	generate/STIM_022.jpg
2240.685	2.321	correct	generate	Run3	generate/STIM_022.jpg
2244.795	1.377	correct	generate	Run3	generate/STIM_022.jpg
2248.711	1.413	correct	generate	Run3	generate/STIM_023.jpg
2252.04	1.974	correct	generate	Run3	generate/STIM_023.jpg
2257.699	1.799	correct	generate	Run3	generate/STIM_023.jpg
2262.71	2.125	correct	generate	Run3	generate/STIM_023.jpg
2266.685	1.935	correct	generate	Run3	generate/STIM_023.jpg
2270.494	0.986	correct	generate	Run3	generate/STIM_024.jpg
2275.117	1.8	correct	generate	Run3	generate/STIM_024.jpg
2279.587	1.432	correct	generate	Run3	generate/STIM_024.jpg
2283.26	2.184	correct	generate	Run3	generate/STIM_024.jpg
2288.424	1.734	correct	generate	Run3	generate/STIM_024.jpg
2293.773	0.932	correct	repeat	Run3	repeat/STIM_000.jpg
2297.376	1.008	correct	repeat	Run3	repeat/STIM_000.jpg
2301.221	0.674	correct	repeat	Run3	repeat/STIM_000.jpg
2304.538	0.858	correct	repeat	Run3	repeat/STIM_000.jpg
2307.913	1.001	correct	repeat	Run3	repeat/STIM_000.jpg
2311.734	1.076	correct	repeat	Run3	repeat/STIM_001.jpg
2316.671	0.823	correct	repeat	Run3	repeat/STIM_001.jpg
2319.482	1.076	correct	repeat	Run3	repeat/STIM_001.jpg
2322.801	0.772	correct	repeat	Run3	repeat/STIM_001.jpg
2327.284	0.848	incorrect	repeat	Run3	repeat/STIM_001.jpg
2331.541	0.75	correct	repeat	Run3	repeat/STIM_002.jpg
2334.924	0.838	correct	repeat	Run3	repeat/STIM_002.jpg
2338.668	0.63	correct	repeat	Run3	repeat/STIM_002.jpg
2341.402	0.837	correct	repeat	Run3	repeat/STIM_002.jpg
2345.45	0.819	correct	repeat	Run3	repeat/STIM_002.jpg
2349.096	0.64	correct	repeat	Run3	repeat/STIM_003.jpg
2352.762	0.916	correct	repeat	Run3	repeat/STIM_003.jpg
2356.643	0.872	incorrect	repeat	Run3	repeat/STIM_003.jpg
2360.787	0.623	correct	repeat	Run3	repeat/STIM_003.jpg
2364.982	0.875	correct	repeat	Run3	repeat/STIM_003.jpg
2369.708	1.017	correct	repeat	Run3	repeat/STIM_004.jpg
2374.246	0.914	correct	repeat	Run3	repeat/STIM_004.jpg
2378.922	0.87	correct	repeat	Run3	repeat/STIM_004.jpg
2382.127	0.732	correct	repeat	Run3	repeat/STIM_004.jpg
2386.407	0.612	correct	repeat	Run3	repeat/STIM_004.jpg
2390.524	0.595	correct	repeat	Run3	repeat/STIM_005.jpg
2393.135	0.689	correct	repeat	Run3	repeat/STIM_005.jpg
2396.972	0.598	correct	repeat	Run3	repeat/STIM_005.jpg
2399.793	0.997	correct	repeat	Run3	repeat/STIM_005.jpg
2402.987	0.954	incorrect	repeat	Run3	repeat/STIM_005.jpg
2407.219	0.728	correct	repeat	Run3	repeat/STIM_006.jpg
2411.64	0.944	correct	repeat	Run3	repeat/STIM_006.jpg
2414.919	0.91	correct	repeat	Run3	repeat/STIM_006.jpg
2419.255	0.836	correct	repeat	Run3	repeat/STIM_006.jpg
2423.307	0.646	correct	repeat	Run3	repeat/STIM_006.jpg
2427.162	0.87	correct	repeat	Run3	repeat/STIM_007.jpg
2430.991	0.853	correct	repeat	Run3	repeat/STIM_007.jpg
2434.502	0.658	correct	repeat	Run3	repeat/STIM_007.jpg
2437.813	0.449	correct	repeat	Run3	repeat/STIM_007.jpg
2441.116	0.781	correct	repeat	Run3	repeat/STIM_007.jpg
2444.411	1.044	correct	repeat	Run3	repeat/STIM_008.jpg
2449.308	1.097	correct	repeat	Run3	repeat/STIM_008.jpg
2452.786	0.677	correct	repeat	Run3	repeat/STIM_008.jpg
2457.155	0.841	correct	repeat	Run3	repeat/STIM_008.jpg
2461.558	1.08	correct	repeat	Run3	repeat/STIM_008.jpg
2465.186	0.891	correct	repeat	Run3	repeat/STIM_009.jpg
2469.435	0.785	correct	repeat	Run3	repeat/STIM_009.jpg
2474.092	0.908	correct	repeat	Run3	repeat/STIM_009.jpg
2478.204	1.061	correct	repeat	Run3	repeat/STIM_009.jpg
2482.505	0.823	correct	repeat	Run3	repeat/STIM_009.jpg
2485.338	0.831	correct	repeat	Run3	repeat/STIM_010.jpg
2488.359	1.039	correct	repeat	Run3	repeat/STIM_010.jpg
2493.232	1.026	correct	repeat	Run3	repeat/STIM_010.jpg
2496.488	1.054	correct	repeat	Run3	repeat/STIM_010.jpg
2501.018	0.996	correct	repeat	Run3	repeat/STIM_010.jpg
2505.164	0.56	correct	repeat	Run3	repeat/STIM_011.jpg
2508.473	0.797	correct	repeat	Run3	repeat/STIM_011.jpg
2511.396	0.837	incorrect	repeat	Run3	repeat/STIM_011.jpg
2514.189	1.071	incorrect	repeat	Run3	repeat/STIM_011.jpg
2517.926	0.601	correct	repeat	Run3	repeat/STIM_011.jpg
2522.374	0.703	correct	repeat	Run3	repeat/STIM_012.jpg
2525.047	0.663	correct	repeat	Run3	repeat/STIM_012.jpg
2528.234	0.586	correct	repeat	Run3	repeat/STIM_012.jpg
2531.265	1.104	correct	repeat	Run3	repeat/STIM_012.jpg
2536.166	1.077	correct	repeat	Run3	repeat/STIM_012.jpg
2539.358	1.118	correct	repeat	Run3	repeat/STIM_013.jpg
2543.278	0.729	correct	repeat	Run3	repeat/STIM_013.jpg
2547.554	1.029	correct	repeat	Run3	repeat/STIM_013.jpg
2551.609	0.826	incorrect	repeat	Run3	repeat/STIM_013.jpg
2555.299	0.77	correct	repeat	Run3	repeat/STIM_013.jpg
2558.886	0.918	correct	repeat	Run3	repeat/STIM_014.jpg
2562.151	0.724	correct	repeat	Run3	repeat/STIM_014.jpg
2565.028	1.152	correct	repeat	Run3	repeat/STIM_014.jpg
2569.105	0.878	correct	repeat	Run3	repeat/STIM_014.jpg
2572.299	0.542	correct	repeat	Run3	repeat/STIM_014.jpg
2575.587	1.827	correct	generate	Run4	generate/STIM_000.jpg
2579.434	1.361	correct	generate	Run4	generate/STIM_000.jpg
2584.17	2.331	correct	generate	Run4	generate/STIM_000.jpg
2589.198	1.893	correct	generate	Run4	generate/STIM_000.jpg
2593.097	2.104	incorrect	generate	Run4	generate/STIM_000.jpg
2597.687	1.556	incorrect	generate	Run4	generate/STIM_001.jpg
2602.768	1.525	correct	generate	Run4	generate/STIM_001.jpg
2607.139	2.132	correct	generate	Run4	generate/STIM_001.jpg
2612.328	2.309	correct	generate	Run4	generate/STIM_001.jpg
2617.262	1.661	correct	generate	Run4	generate/STIM_001.jpg
2620.75	1.418	correct	generate	Run4	generate/STIM_002.jpg
2624.799	1.488	correct	generate	Run4	generate/STIM_002.jpg
2628.354	1.213	correct	generate	Run4	generate/STIM_002.jpg
2632.997	2.253	correct	generate	Run4	generate/STIM_002.jpg
2637.66	1.128	correct	generate	Run4	generate/STIM_002.jpg
2641.518	0.956	correct	generate	Run4	generate/STIM_003.jpg
2644.641	2.204	correct	generate	Run4	generate/STIM_003.jpg
2649.586	1.144	correct	generate	Run4	generate/STIM_003.jpg
2653.818	1.914	correct	generate	Run4	generate/STIM_003.jpg
2658.089	1.636	correct	generate	Run4	generate/STIM_003.jpg
2662.788	0.954	correct	generate	Run4	generate/STIM_004.jpg
2666.424	2.28	correct	generate	Run4	generate/STIM_004.jpg
2671.194	2.253	correct	generate	Run4	generate/STIM_004.jpg
2676.517	1.55	correct	generate	Run4	generate/STIM_004.jpg
2681.281	1.646	correct	generate	Run4	generate/STIM_004.jpg
2686.565	1.822	correct	generate	Run4	generate/STIM_005.jpg
2690.909	1.618	correct	generate	Run4	generate/STIM_005.jpg
2695.949	2.154	correct	generate	Run4	generate/STIM_005.jpg
2701.166	2.214	correct	generate	Run4	generate/STIM_005.jpg
2705.487	1.891	incorrect	generate	Run4	generate/STIM_005.jpg
2709.887	1.417	correct	generate	Run4	generate/STIM_006.jpg
2714.498	1.144	correct	generate	Run4	generate/STIM_006.jpg
2717.506	1.419	correct	generate	Run4	generate/STIM_006.jpg
2721.076	1.358	correct	generate	Run4	generate/STIM_006.jpg
2726.203	1.644	incorrect	generate	Run4	generate/STIM_006.jpg
2730.511	1.136	correct	generate	Run4	generate/STIM_007.jpg
2734.753	1.807	correct	generate	Run4	generate/STIM_007.jpg
2739.752	1.864	correct	generate	Run4	generate/STIM_007.jpg
2744.1	1.978	correct	generate	Run4	generate/STIM_007.jpg
2749.535	1.624	correct	generate	Run4	generate/STIM_007.jpg
2754.618	1.799	correct	generate	Run4	generate/STIM_008.jpg
2758.971	1.675	correct	generate	Run4	generate/STIM_008.jpg
2764.036	0.992	incorrect	generate	Run4	generate/STIM_008.jpg
2768.691	1.626	correct	generate	Run4	generate/STIM_008.jpg
2773.632	1.177	correct	generate	Run4	generate/STIM_008.jpg
2778.689	1.476	correct	generate	Run4	generate/STIM_009.jpg
2782.247	1.706	correct	generate	Run4	generate/STIM_009.jpg
2786.658	2.293	correct	generate	Run4	generate/STIM_009.jpg
2792.491	1.657	correct	generate	Run4	generate/STIM_009.jpg
2797.562	1.39	correct	generate	Run4	generate/STIM_009.jpg
2802.373	2.037	correct	generate	Run4	generate/STIM_010.jpg
2807.702	1.775	correct	generate	Run4	generate/STIM_010.jpg
2811.479	1.636	correct	generate	Run4	generate/STIM_010.jpg
2815.197	1.559	correct	generate	Run4	generate/STIM_010.jpg
2818.925	0.993	correct	generate	Run4	generate/STIM_010.jpg
2823.392	1.836	correct	generate	Run4	generate/STIM_011.jpg
2828.178	1.539	correct	generate	Run4	generate/STIM_011.jpg
2832.221	2.015	correct	generate	Run4	generate/STIM_011.jpg
2836.669	0.931	correct	generate	Run4	generate/STIM_011.jpg
2839.891	1.746	correct	generate	Run4	generate/STIM_011.jpg
2845.164	2.047	correct	generate	Run4	generate/STIM_012.jpg
2850.672	1.007	correct	generate	Run4	generate/STIM_012.jpg
2854.789	1.876	correct	generate	Run4	generate/STIM_012.jpg
2859.423	1.593	correct	generate	Run4	generate/STIM_012.jpg
2863.63	1.572	correct	generate	Run4	generate/STIM_012.jpg
2868.024	2.132	correct	generate	Run4	generate/STIM_013.jpg
2872.406	1.35	correct	generate	Run4	generate/STIM_013.jpg
2875.939	1.545	correct	generate	Run4	generate/STIM_013.jpg
2880.518	0.933	incorrect	generate	Run4	generate/STIM_013.jpg
2885.369	2.098	correct	generate	Run4	generate/STIM_013.jpg
2889.425	1.122	correct	generate	Run4	generate/STIM_014.jpg
2892.709	2.291	correct	generate	Run4	generate/STIM_014.jpg
2896.814	1.119	correct	generate	Run4	generate/STIM_014.jpg
2901.458	1.832	correct	generate	Run4	generate/STIM_014.jpg
2906.25	2.177	correct	generate	Run4	generate/STIM_014.jpg
2911.384	1.812	correct	generate	Run4	generate/STIM_015.jpg
2916.571	1.241	correct	generate	Run4	generate/STIM_015.jpg
2920.714	1.556	correct	generate	Run4	generate/STIM_015.jpg
2925.294	2.036	correct	generate	Run4	generate/STIM_015.jpg
2930.746	2.266	correct	generate	Run4	generate/STIM_015.jpg
2935.005	2.151	correct	generate	Run4	generate/STIM_016.jpg
2939.577	2.338	correct	generate	Run4	generate/STIM_016.jpg
2944.253	2.128	correct	generate	Run4	generate/STIM_016.jpg
2948.322	1.242	correct	generate	Run4	generate/STIM_016.jpg
2952.214	1.248	correct	generate	Run4	generate/STIM_016.jpg
2956.731	2.218	correct	generate	Run4	generate/STIM_017.jpg
2961.606	1.778	correct	generate	Run4	generate/STIM_017.jpg
2965.915	1.357	correct	generate	Run4	generate/STIM_017.jpg
2970.121	1.692	correct	generate	Run4	generate/STIM_017.jpg
2975.425	1.203	correct	generate	Run4	generate/STIM_017.jpg
2979.918	2.184	correct	generate	Run4	generate/STIM_018.jpg
2985.425	1.395	correct	generate	Run4	generate/STIM_018.jpg
2990.045	2.033	correct	generate	Run4	generate/STIM_018.jpg
2994.368	2.072	correct	generate	Run4	generate/STIM_018.jpg
2998.794	1.497	correct	generate	Run4	generate/STIM_018.jpg
3004.083	1.392	correct	generate	Run4	generate/STIM_019.jpg
3007.706	2.233	correct	generate	Run4	generate/STIM_019.jpg
3012.154	1.771	incorrect	generate	Run4	generate/STIM_019.jpg
3016.55	1.186	correct	generate	Run4	generate/STIM_019.jpg
3021.402	1.304	incorrect	generate	Run4	generate/STIM_019.jpg
3025.416	2.05	correct	generate	Run4	generate/STIM_020.jpg
3030.874	1.104	correct	generate	Run4	generate/STIM_020.jpg
3034.835	1.868	correct	generate	Run4	generate/STIM_020.jpg
3038.792	1.218	correct	generate	Run4	generate/STIM_020.jpg
3043.772	1.648	correct	generate	Run4	generate/STIM_020.jpg
3047.596	1.274	correct	generate	Run4	generate/STIM_021.jpg
3050.694	1.268	correct	generate	Run4	generate/STIM_021.jpg
3054.676	2.018	correct	generate	Run4	generate/STIM_021.jpg
3060.301	1.302	correct	generate	Run4	generate/STIM_021.jpg
3065.367	1.582	correct	generate	Run4	generate/STIM_021.jpg
3069.224	1.564	correct	generate	Run4	generate/STIM_022.jpg
3073.156	2.368	correct	generate	Run4	generate/STIM_022.jpg
3078.567	1.893	correct	generate	Run4	generate/STIM_022.jpg
3082.443	2.06	correct	generate	Run4	generate/STIM_022.jpg
3087.769	1.758	correct	generate	Run4	generate/STIM_022.jpg
3092.961	2.237	correct	generate	Run4	generate/STIM_023.jpg
3098.458	1.463	correct	generate	Run4	generate/STIM_023.jpg
3103.39	1.946	correct	generate	Run4	generate/STIM_023.jpg
3109.207	1.424	correct	generate	Run4	generate/STIM_023.jpg
3114.261	2.36	correct	generate	Run4	generate/STIM_023.jpg
3118.657	1.295	correct	generate	Run4	generate/STIM_024.jpg
3122.943	1.774	correct	generate	Run4	generate/STIM_024.jpg
3127.011	1.527	correct	generate	Run4	generate/STIM_024.jpg
3132.269	1.09	correct	generate	Run4	generate/STIM_024.jpg
3136.883	1.756	correct	generate	Run4	generate/STIM_024.jpg
3141.045	0.756	correct	repeat	Run4	repeat/STIM_000.jpg
3145.634	0.963	correct	repeat	Run4	repeat/STIM_000.jpg
3149.691	0.579	correct	repeat	Run4	repeat/STIM_000.jpg
3153.697	0.812	correct	repeat	Run4	repeat/STIM_000.jpg
3157.966	0.665	correct	repeat	Run4	repeat/STIM_000.jpg
3160.707	1.109	correct	repeat	Run4	repeat/STIM_001.jpg
3164.5	0.724	incorrect	repeat	Run4	repeat/STIM_001.jpg
3168.893	1.064	correct	repeat	Run4	repeat/STIM_001.jpg
3172.094	0.494	correct	repeat	Run4	repeat/STIM_001.jpg
3176.353	0.652	correct	repeat	Run4	repeat/STIM_001.jpg
3179.453	1.037	correct	repeat	Run4	repeat/STIM_002.jpg
3184.015	0.894	correct	repeat	Run4	repeat/STIM_002.jpg
3187.725	0.746	correct	repeat	Run4	repeat/STIM_002.jpg
3190.815	0.813	correct	repeat	Run4	repeat/STIM_002.jpg
3194.026	1.088	correct	repeat	Run4	repeat/STIM_002.jpg
3197.631	0.735	correct	repeat	Run4	repeat/STIM_003.jpg
3201.249	0.626	correct	repeat	Run4	repeat/STIM_003.jpg
3205.342	1.006	correct	repeat	Run4	repeat/STIM_003.jpg
3209.892	1.101	correct	repeat	Run4	repeat/STIM_003.jpg
3213.763	1.138	correct	repeat	Run4	repeat/STIM_003.jpg
3218.563	0.723	correct	repeat	Run4	repeat/STIM_004.jpg
3221.485	0.717	correct	repeat	Run4	repeat/STIM_004.jpg
3224.942	0.926	correct	repeat	Run4	repeat/STIM_004.jpg
3228.662	0.757	correct	repeat	Run4	repeat/STIM_004.jpg
3232.245	0.828	correct	repeat	Run4	repeat/STIM_004.jpg
3236.55	0.919	incorrect	repeat	Run4	repeat/STIM_005.jpg
3239.34	0.648	correct	repeat	Run4	repeat/STIM_005.jpg
3241.985	0.639	correct	repeat	Run4	repeat/STIM_005.jpg
3246.413	0.588	correct	repeat	Run4	repeat/STIM_005.jpg
3249.391	0.73	correct	repeat	Run4	repeat/STIM_005.jpg
3252.045	0.543	correct	repeat	Run4	repeat/STIM_006.jpg
3256.454	0.838	correct	repeat	Run4	repeat/STIM_006.jpg
3260.531	0.855	correct	repeat	Run4	repeat/STIM_006.jpg
3263.431	0.807	incorrect	repeat	Run4	repeat/STIM_006.jpg
3267.86	0.912	correct	repeat	Run4	repeat/STIM_006.jpg
3272.409	0.816	correct	repeat	Run4	repeat/STIM_007.jpg
3277.048	1.104	correct	repeat	Run4	repeat/STIM_007.jpg
3280.535	0.734	correct	repeat	Run4	repeat/STIM_007.jpg
3284.803	1.025	correct	repeat	Run4	repeat/STIM_007.jpg
3288.486	0.952	correct	repeat	Run4	repeat/STIM_007.jpg
3293.203	0.921	correct	repeat	Run4	repeat/STIM_008.jpg
3297.493	0.854	correct	repeat	Run4	repeat/STIM_008.jpg
3301.315	0.691	correct	repeat	Run4	repeat/STIM_008.jpg
3305.198	0.958	correct	repeat	Run4	repeat/STIM_008.jpg
3309.13	0.964	correct	repeat	Run4	repeat/STIM_008.jpg
3312.555	0.979	correct	repeat	Run4	repeat/STIM_009.jpg
3316.605	1.045	correct	repeat	Run4	repeat/STIM_009.jpg
3320.903	0.768	correct	repeat	Run4	repeat/STIM_009.jpg
3324.494	0.982	correct	repeat	Run4	repeat/STIM_009.jpg
3328.091	0.599	correct	repeat	Run4	repeat/STIM_009.jpg
3332.517	0.787	correct	repeat	Run4	repeat/STIM_010.jpg
3335.663	0.9	correct	repeat	Run4	repeat/STIM_010.jpg
3340.318	0.53	correct	repeat	Run4	repeat/STIM_010.jpg
3343.228	0.814	correct	repeat	Run4	repeat/STIM_010.jpg
3347.477	1.008	correct	repeat	Run4	repeat/STIM_010.jpg
3351.51	0.712	correct	repeat	Run4	repeat/STIM_011.jpg
3354.12	0.614	correct	repeat	Run4	repeat/STIM_011.jpg
3358.348	0.71	correct	repeat	Run4	repeat/STIM_011.jpg
3361.371	0.596	correct	repeat	Run4	repeat/STIM_011.jpg
3365.765	0.979	correct	repeat	Run4	repeat/STIM_011.jpg
3370.01	0.699	correct	repeat	Run4	repeat/STIM_012.jpg
3374.529	0.747	correct	repeat	Run4	repeat/STIM_012.jpg
3379.145	0.892	correct	repeat	Run4	repeat/STIM_012.jpg
3383.34	0.569	correct	repeat	Run4	repeat/STIM_012.jpg
3386.476	0.596	correct	repeat	Run4	repeat/STIM_012.jpg
3390.902	0.863	correct	repeat	Run4	repeat/STIM_013.jpg
3395.217	0.743	correct	repeat	Run4	repeat/STIM_013.jpg
3399.025	0.951	correct	repeat	Run4	repeat/STIM_013.jpg
3403.651	0.708	correct	repeat	Run4	repeat/STIM_013.jpg
3407.345	0.996	correct	repeat	Run4	repeat/STIM_013.jpg
3411.012	0.536	correct	repeat	Run4	repeat/STIM_014.jpg
3415.482	0.719	correct	repeat	Run4	repeat/STIM_014.jpg
3419.629	0.971	correct	repeat	Run4	repeat/STIM_014.jpg
3424.552	0.749	correct	repeat	Run4	repeat/STIM_014.jpg
3427.886	1.126	correct	repeat	Run4	repeat/STIM_014.jpg
