onset	duration	response_time_ms	trial_type	learning_stage	stimulus	response_port
0.0	0.911	911.0	2back	Block1	2back/STIM_000.jpg	100
4.339	0.741	740.9	2back	Block1	2back/STIM_000.jpg	99
8.362	0.515	514.8	2back	Block1	2back/STIM_000.jpg	100
11.907	0.736	735.9	2back	Block1	2back/STIM_001.jpg	99
14.639	1.028	1028.0	2back	Block1	2back/STIM_001.jpg	100
19.536	1.057	1057.4	2back	Block1	2back/STIM_001.jpg	100
22.919	1.312	1312.5	2back	Block1	2back/STIM_002.jpg	100
27.678	0.817	816.7	2back	Block1	2back/STIM_002.jpg	100
30.84	0.907	906.6	2back	Block1	2back/STIM_002.jpg	100
35.563	0.8	800.4	2back	Block1	2back/STIM_003.jpg	100
40.294	1.027	1026.9	2back	Block1	2back/STIM_003.jpg	100
43.482	0.958	957.9	2back	Block1	2back/STIM_003.jpg	100
46.779	1.123	1122.8	2back	Block1	2back/STIM_004.jpg	100
51.742	1.11	1110.3	2back	Block1	2back/STIM_004.jpg	100
55.761	0.75	749.8	2back	Block1	2back/STIM_004.jpg	100
60.033	1.359	1359.4	2back	Block1	2back/STIM_005.jpg	100
64.816	1.132	1131.9	2back	Block1	2back/STIM_005.jpg	99
68.234	0.882	881.9	2back	Block1	2back/STIM_005.jpg	99
71.654	0.848	847.6	2back	Block1	2back/STIM_006.jpg	100
75.239	0.981	981.4	2back	Block1	2back/STIM_006.jpg	99
79.023	0.885	885.0	2back	Block1	2back/STIM_006.jpg	100
83.117	0.728	727.7	2back	Block1	2back/STIM_007.jpg	100
87.525	1.208	1208.5	2back	Block1	2back/STIM_007.jpg	100
92.403	0.736	735.5	2back	Block1	2back/STIM_007.jpg	99
96.479	0.904	904.5	2back	Block1	2back/STIM_008.jpg	99
99.98	1.218	1217.8	2back	Block1	2back/STIM_008.jpg	99
104.363	0.573	572.7	2back	Block1	2back/STIM_008.jpg	100
107.845	0.694	693.5	2back	Block1	2back/STIM_009.jpg	99
112.216	0.913	912.8	2back	Block1	2back/STIM_009.jpg	99
115.342	0.6	600.1	2back	Block1	2back/STIM_009.jpg	99
119.263	0.788	788.4	2back	Block1	2back/STIM_010.jpg	100
122.906	0.623	623.2	2back	Block1	2back/STIM_010.jpg	100
127.6	0.945	944.7	2back	Block1	2back/STIM_010.jpg	99
130.699	1.327	1326.9	2back	Block1	2back/STIM_011.jpg	99
135.27	0.804	804.1	2back	Block1	2back/STIM_011.jpg	100
139.77	0.799	799.3	2back	Block1	2back/STIM_011.jpg	100
143.88	0.769	768.9	2back	Block1	2back/STIM_012.jpg	100
147.961	0.806	806.2	2back	Block1	2back/STIM_012.jpg	99
151.931	0.86	860.0	2back	Block1	2back/STIM_012.jpg	99
156.373	1.058	1058.2	2back	Block1	2back/STIM_013.jpg	100
161.244	1.115	1114.6	2back	Block1	2back/STIM_013.jpg	100
165.164	0.558	558.3	2back	Block1	2back/STIM_013.jpg	100
169.406	1.149	1148.8	2back	Block1	2back/STIM_014.jpg	99
174.175	0.965	965.4	2back	Block1	2back/STIM_014.jpg	99
177.874	0.886	885.8	2back	Block1	2back/STIM_014.jpg	100
180.971	0.583	583.4	2back	Block1	2back/STIM_015.jpg	100
185.316	1.262	1261.8	2back	Block1	2back/STIM_015.jpg	99
189.099	0.864	863.8	2back	Block1	2back/STIM_015.jpg	100
192.677	0.955	954.6	2back	Block1	2back/STIM_016.jpg	100
196.357	0.9	899.7	2back	Block1	2back/STIM_016.jpg	100
200.79	1.034	1034.5	2back	Block1	2back/STIM_016.jpg	100
205.882	0.84	839.6	2back	Block1	2back/STIM_017.jpg	99
209.643	0.598	598.4	2back	Block1	2back/STIM_017.jpg	100
213.763	1.004	1004.3	2back	Block1	2back/STIM_017.jpg	99
217.876	1.051	1050.9	2back	Block1	2back/STIM_018.jpg	100
220.904	0.953	952.7	2back	Block1	2back/STIM_018.jpg	100
224.31	0.849	848.7	2back	Block1	2back/STIM_018.jpg	100
227.28	0.86	860.3	2back	Block1	2back/STIM_019.jpg	99
231.083	0.778	777.8	2back	Block1	2back/STIM_019.jpg	99
233.915	0.827	826.6	2back	Block1	2back/STIM_019.jpg	99
237.777	1.241	1241.2	2back	Block1	2back/STIM_020.jpg	100
242.037	0.829	828.7	2back	Block1	2back/STIM_020.jpg	100
245.564	0.841	841.4	2back	Block1	2back/STIM_020.jpg	100
248.659	0.697	696.8	2back	Block1	2back/STIM_021.jpg	99
251.728	0.654	654.5	2back	Block1	2back/STIM_021.jpg	100
255.295	1.189	1189.4	2back	Block1	2back/STIM_021.jpg	99
259.968	1.014	1014.0	2back	Block1	2back/STIM_022.jpg	99
264.626	0.942	941.6	2back	Block1	2back/STIM_022.jpg	100
267.911	0.859	858.7	2back	Block1	2back/STIM_022.jpg	100
270.875	0.756	756.3	2back	Block1	2back/STIM_023.jpg	100
274.677	1.07	1070.1	2back	Block1	2back/STIM_023.jpg	100
278.41	0.568	568.0	2back	Block1	2back/STIM_023.jpg	99
281.499	0.8	800.3	2back	Block1	2back/STIM_024.jpg	99
286.074	0.646	645.5	2back	Block1	2back/STIM_024.jpg	100
289.251	0.883	883.2	2back	Block1	2back/STIM_024.jpg	100
292.451	0.753	753.0	2back	Block1	2back/STIM_025.jpg	99
296.643	0.949	949.3	2back	Block1	2back/STIM_025.jpg	100
301.303	0.95	950.4	2back	Block1	2back/STIM_025.jpg	99
305.727	0.762	761.5	2back	Block1	2back/STIM_026.jpg	100
309.524	0.87	869.9	2back	Block1	2back/STIM_026.jpg	100
313.863	0.935	935.2	2back	Block1	2back/STIM_026.jpg	100
317.157	0.839	838.6	2back	Block1	2back/STIM_027.jpg	99
320.528	0.918	918.4	2back	Block1	2back/STIM_027.jpg	100
324.487	1.28	1279.5	2back	Block1	2back/STIM_027.jpg	100
329.543	0.747	747.2	2back	Block1	2back/STIM_028.jpg	100
333.644	0.794	793.7	2back	Block1	2back/STIM_028.jpg	99
336.506	0.597	597.2	2back	Block1	2back/STIM_028.jpg	99
340.166	1.205	1205.3	2back	Block1	2back/STIM_029.jpg	100
344.031	1.288	1287.7	2back	Block1	2back/STIM_029.jpg	100
348.661	0.703	702.9	2back	Block1	2back/STIM_029.jpg	100
351.819	1.142	1142.4	2back	Block1	2back/STIM_030.jpg	100
356.322	0.597	596.7	2back	Block1	2back/STIM_030.jpg	99
360.732	1.082	1081.9	2back	Block1	2back/STIM_030.jpg	99
364.683	1.403	1402.9	2back	Block1	2back/STIM_031.jpg	100
369.907	0.653	653.1	2back	Block1	2back/STIM_031.jpg	100
374.579	0.505	504.7	2back	Block1	2back/STIM_031.jpg	99
378.197	0.944	944.5	2back	Block1	2back/STIM_032.jpg	100
381.926	0.604	604.1	2back	Block1	2back/STIM_032.jpg	99
385.707	0.557	556.9	2back	Block1	2back/STIM_032.jpg	99
388.749	1.315	1314.8	2back	Block1	2back/STIM_033.jpg	99
393.509	1.135	1134.8	2back	Block1	2back/STIM_033.jpg	99
397.236	0.792	791.9	2back	Block1	2back/STIM_033.jpg	100
400.247	0.792	791.6	2back	Block1	2back/STIM_034.jpg	99
404.701	0.638	637.7	2back	Block1	2back/STIM_034.jpg	99
407.37	1.217	1217.1	2back	Block1	2back/STIM_034.jpg	100
412.35	1.05	1050.1	2back	Block1	2back/STIM_035.jpg	100
416.358	1.157	1157.0	2back	Block1	2back/STIM_035.jpg	100
420.034	0.548	547.6	2back	Block1	2back/STIM_035.jpg	100
423.713	0.577	577.3	2back	Block1	2back/STIM_036.jpg	100
428.256	1.017	1016.7	2back	Block1	2back/STIM_036.jpg	100
433.219	0.695	694.9	2back	Block1	2back/STIM_036.jpg	100
437.31	0.71	710.4	2back	Block1	2back/STIM_037.jpg	99
440.203	1.009	1009.0	2back	Block1	2back/STIM_037.jpg	99
444.521	0.998	997.8	2back	Block1	2back/STIM_037.jpg	100
447.926	0.797	796.6	2back	Block1	2back/STIM_038.jpg	99
450.767	0.824	824.0	2back	Block1	2back/STIM_038.jpg	100
455.138	1.139	1139.0	2back	Block1	2back/STIM_038.jpg	99
460.046	0.714	713.7	2back	Block1	2back/STIM_039.jpg	100
463.9	0.808	808.0	2back	Block1	2back/STIM_039.jpg	99
467.436	1.182	1181.6	2back	Block1	2back/STIM_039.jpg	99
472.0	0.656	656.1	0back	Block1	0back/STIM_000.jpg	100
475.968	0.365	364.9	0back	Block1	0back/STIM_000.jpg	99
479.166	0.447	447.3	0back	Block1	0back/STIM_000.jpg	100
482.615	0.492	492.5	0back	Block1	0back/STIM_001.jpg	100
485.652	0.559	559.1	0back	Block1	0back/STIM_001.jpg	99
488.311	0.44	440.4	0back	Block1	0back/STIM_001.jpg	99
491.199	0.393	393.1	0back	Block1	0back/STIM_002.jpg	99
494.877	0.662	662.3	0back	Block1	0back/STIM_002.jpg	99
498.411	0.534	533.5	0back	Block1	0back/STIM_002.jpg	99
501.856	0.572	572.5	0back	Block1	0back/STIM_003.jpg	100
505.758	0.653	653.4	0back	Block1	0back/STIM_003.jpg	100
509.712	0.561	560.8	0back	Block1	0back/STIM_003.jpg	100
513.496	0.4	399.7	0back	Block1	0back/STIM_004.jpg	100
516.095	0.634	634.3	0back	Block1	0back/STIM_004.jpg	100
520.425	0.747	746.7	0back	Block1	0back/STIM_004.jpg	99
523.959	0.523	522.7	0back	Block1	0back/STIM_005.jpg	99
527.262	0.695	695.0	0back	Block1	0back/STIM_005.jpg	99
531.254	0.607	606.6	0back	Block1	0back/STIM_005.jpg	99
534.333	0.497	497.4	0back	Block1	0back/STIM_006.jpg	99
537.767	0.399	398.8	0back	Block1	0back/STIM_006.jpg	100
541.947	0.295	294.6	0back	Block1	0back/STIM_006.jpg	99
544.576	0.58	579.9	0back	Block1	0back/STIM_007.jpg	100
548.588	0.44	439.5	0back	Block1	0back/STIM_007.jpg	99
552.639	0.58	580.0	0back	Block1	0back/STIM_007.jpg	100
556.053	0.523	523.4	0back	Block1	0back/STIM_008.jpg	100
559.866	0.517	517.1	0back	Block1	0back/STIM_008.jpg	100
562.498	0.598	598.0	0back	Block1	0back/STIM_008.jpg	99
566.863	0.551	551.4	0back	Block1	0back/STIM_009.jpg	100
569.855	0.537	536.9	0back	Block1	0back/STIM_009.jpg	100
572.823	0.432	431.6	0back	Block1	0back/STIM_009.jpg	99
576.945	0.636	636.1	0back	Block1	0back/STIM_010.jpg	100
581.078	0.44	439.7	0back	Block1	0back/STIM_010.jpg	100
585.012	0.835	835.3	0back	Block1	0back/STIM_010.jpg	100
588.398	0.595	595.2	0back	Block1	0back/STIM_011.jpg	100
591.524	0.688	687.5	0back	Block1	0back/STIM_011.jpg	100
595.038	0.431	431.4	0back	Block1	0back/STIM_011.jpg	100
599.25	0.405	404.6	0back	Block1	0back/STIM_012.jpg	100
603.287	0.676	676.2	0back	Block1	0back/STIM_012.jpg	100
607.676	0.619	618.9	0back	Block1	0back/STIM_012.jpg	99
612.328	0.48	480.4	0back	Block1	0back/STIM_013.jpg	99
615.836	0.472	471.8	0back	Block1	0back/STIM_013.jpg	100
618.683	0.671	670.8	0back	Block1	0back/STIM_013.jpg	99
622.195	0.6	599.9	0back	Block1	0back/STIM_014.jpg	100
626.73	0.835	835.4	0back	Block1	0back/STIM_014.jpg	99
631.139	0.597	596.7	0back	Block1	0back/STIM_014.jpg	100
633.862	0.607	606.7	0back	Block1	0back/STIM_015.jpg	100
636.851	0.674	674.5	0back	Block1	0back/STIM_015.jpg	99
640.684	0.575	575.3	0back	Block1	0back/STIM_015.jpg	100
644.796	0.659	659.2	0back	Block1	0back/STIM_016.jpg	99
648.768	0.402	402.1	0back	Block1	0back/STIM_016.jpg	99
652.067	0.518	517.5	0back	Block1	0back/STIM_016.jpg	100
655.496	0.656	656.1	0back	Block1	0back/STIM_017.jpg	99
658.039	0.402	401.9	0back	Block1	0back/STIM_017.jpg	100
660.785	0.86	859.9	0back	Block1	0back/STIM_017.jpg	100
665.508	0.61	609.5	0back	Block1	0back/STIM_018.jpg	100
669.951	0.35	350.3	0back	Block1	0back/STIM_018.jpg	100
672.937	0.415	415.3	0back	Block1	0back/STIM_018.jpg	100
676.799	0.666	665.5	0back	Block1	0back/STIM_019.jpg	100
680.059	0.743	743.2	0back	Block1	0back/STIM_019.jpg	99
683.798	0.429	429.0	0back	Block1	0back/STIM_019.jpg	100
687.153	0.461	460.7	2back	Block2	2back/STIM_000.jpg	100
691.648	1.008	1007.7	2back	Block2	2back/STIM_000.jpg	100
695.313	0.902	901.5	2back	Block2	2back/STIM_000.jpg	99
699.647	0.909	909.2	2back	Block2	2back/STIM_001.jpg	100
703.624	0.695	694.6	2back	Block2	2back/STIM_001.jpg	100
707.84	0.884	883.6	2back	Block2	2back/STIM_001.jpg	99
711.861	0.733	733.4	2back	Block2	2back/STIM_002.jpg	99
716.217	0.482	481.9	2back	Block2	2back/STIM_002.jpg	100
719.283	0.775	774.8	2back	Block2	2back/STIM_002.jpg	99
722.106	0.775	774.8	2back	Block2	2back/STIM_003.jpg	99
725.033	0.69	690.0	2back	Block2	2back/STIM_003.jpg	99
728.287	0.781	780.7	2back	Block2	2back/STIM_003.jpg	99
732.0	1.088	1088.0	2back	Block2	2back/STIM_004.jpg	99
736.678	0.957	957.2	2back	Block2	2back/STIM_004.jpg	99
741.119	0.536	535.9	2back	Block2	2back/STIM_004.jpg	100
744.468	1.097	1097.4	2back	Block2	2back/STIM_005.jpg	100
749.579	0.747	746.9	2back	Block2	2back/STIM_005.jpg	100
752.943	0.455	454.7	2back	Block2	2back/STIM_005.jpg	100
756.687	0.777	776.7	2back	Block2	2back/STIM_006.jpg	100
761.192	0.975	975.4	2back	Block2	2back/STIM_006.jpg	99
764.83	0.496	495.8	2back	Block2	2back/STIM_006.jpg	100
769.278	0.732	732.2	2back	Block2	2back/STIM_007.jpg	100
772.554	0.661	661.2	2back	Block2	2back/STIM_007.jpg	99
776.908	0.658	657.9	2back	Block2	2back/STIM_007.jpg	100
780.808	0.991	990.9	2back	Block2	2back/STIM_008.jpg	99
784.74	0.913	913.4	2back	Block2	2back/STIM_008.jpg	100
788.05	0.435	434.7	2back	Block2	2back/STIM_008.jpg	99
791.658	0.926	925.7	2back	Block2	2back/STIM_009.jpg	99
796.128	0.787	786.6	2back	Block2	2back/STIM_009.jpg	99
799.34	1.009	1009.0	2back	Block2	2back/STIM_009.jpg	100
802.399	0.734	733.5	2back	Block2	2back/STIM_010.jpg	100
805.873	0.443	442.8	2back	Block2	2back/STIM_010.jpg	99
809.324	0.844	843.7	2back	Block2	2back/STIM_010.jpg	99
813.259	0.625	625.0	2back	Block2	2back/STIM_011.jpg	99
817.332	1.007	1007.0	2back	Block2	2back/STIM_011.jpg	100
821.209	0.595	594.7	2back	Block2	2back/STIM_011.jpg	99
824.138	0.899	898.6	2back	Block2	2back/STIM_012.jpg	100
828.971	0.861	861.0	2back	Block2	2back/STIM_012.jpg	99
832.356	0.94	940.1	2back	Block2	2back/STIM_012.jpg	100
837.321	0.97	970.4	2back	Block2	2back/STIM_013.jpg	99
840.779	1.022	1022.3	2back	Block2	2back/STIM_013.jpg	100
844.893	0.744	743.8	2back	Block2	2back/STIM_013.jpg	100
847.952	0.966	965.7	2back	Block2	2back/STIM_014.jpg	99
850.946	0.578	577.7	2back	Block2	2back/STIM_014.jpg	99
854.433	0.525	524.8	2back	Block2	2back/STIM_014.jpg	100
857.534	0.962	961.6	2back	Block2	2back/STIM_015.jpg	99
862.171	0.91	910.4	2back	Block2	2back/STIM_015.jpg	99
865.543	0.493	492.9	2back	Block2	2back/STIM_015.jpg	100
869.758	0.68	679.9	2back	Block2	2back/STIM_016.jpg	99
872.727	0.902	901.7	2back	Block2	2back/STIM_016.jpg	99
876.019	0.434	434.5	2back	Block2	2back/STIM_016.jpg	100
878.894	0.87	869.6	2back	Block2	2back/STIM_017.jpg	99
881.978	0.632	632.1	2back	Block2	2back/STIM_017.jpg	100
886.269	0.79	789.8	2back	Block2	2back/STIM_017.jpg	100
889.408	0.659	658.7	2back	Block2	2back/STIM_018.jpg	99
893.211	0.416	416.1	2back	Block2	2back/STIM_018.jpg	100
896.179	0.452	451.6	2back	Block2	2back/STIM_018.jpg	99
899.232	0.536	536.4	2back	Block2	2back/STIM_019.jpg	100
902.841	0.589	589.4	2back	Block2	2back/STIM_019.jpg	99
907.227	0.59	590.2	2back	Block2	2back/STIM_019.jpg	100
910.423	0.815	814.9	2back	Block2	2back/STIM_020.jpg	99
914.954	0.644	644.1	2back	Block2	2back/STIM_020.jpg	99
917.899	0.546	546.3	2back	Block2	2back/STIM_020.jpg	99
921.22	0.767	766.9	2back	Block2	2back/STIM_021.jpg	100
924.314	0.924	923.5	2back	Block2	2back/STIM_021.jpg	100
927.421	0.799	798.6	2back	Block2	2back/STIM_021.jpg	100
930.326	1.15	1149.7	2back	Block2	2back/STIM_022.jpg	99
935.317	0.678	677.8	2back	Block2	2back/STIM_022.jpg	99
938.8	0.815	815.4	2back	Block2	2back/STIM_022.jpg	100
942.569	1.135	1134.9	2back	Block2	2back/STIM_023.jpg	99
947.13	0.749	749.3	2back	Block2	2back/STIM_023.jpg	99
950.243	0.989	988.7	2back	Block2	2back/STIM_023.jpg	99
954.305	0.758	758.5	2back	Block2	2back/STIM_024.jpg	100
957.154	0.78	779.5	2back	Block2	2back/STIM_024.jpg	100
960.248	0.434	433.6	2back	Block2	2back/STIM_024.jpg	100
963.329	1.18	1179.6	2back	Block2	2back/STIM_025.jpg	100
967.73	0.916	915.9	2back	Block2	2back/STIM_025.jpg	99
971.215	0.986	985.9	2back	Block2	2back/STIM_025.jpg	99
974.811	0.678	677.5	2back	Block2	2back/STIM_026.jpg	100
978.655	0.73	730.0	2back	Block2	2back/STIM_026.jpg	100
982.354	0.445	444.7	2back	Block2	2back/STIM_026.jpg	100
985.61	0.442	442.5	2back	Block2	2back/STIM_027.jpg	100
988.545	0.465	464.6	2back	Block2	2back/STIM_027.jpg	99
991.316	0.58	580.3	2back	Block2	2back/STIM_027.jpg	99
995.878	1.026	1026.5	2back	Block2	2back/STIM_028.jpg	99
999.705	0.773	773.3	2back	Block2	2back/STIM_028.jpg	100
1003.793	0.755	755.2	2back	Block2	2back/STIM_028.jpg	99
1007.629	0.802	802.0	2back	Block2	2back/STIM_029.jpg	100
1011.213	0.662	662.3	2back	Block2	2back/STIM_029.jpg	99
1015.046	0.903	903.4	2back	Block2	2back/STIM_029.jpg	100
1019.035	1.151	1150.6	2back	Block2	2back/STIM_030.jpg	100
1022.741	0.788	787.5	2back	Block2	2back/STIM_030.jpg	100
1026.245	0.675	675.2	2back	Block2	2back/STIM_030.jpg	99
1030.775	0.788	788.3	2back	Block2	2back/STIM_031.jpg	100
1035.122	1.123	1123.2	2back	Block2	2back/STIM_031.jpg	100
1039.735	0.447	447.0	2back	Block2	2back/STIM_031.jpg	100
1042.799	0.811	811.3	2back	Block2	2back/STIM_032.jpg	100
1046.353	0.974	973.5	2back	Block2	2back/STIM_032.jpg	100
1049.998	0.584	583.6	2back	Block2	2back/STIM_032.jpg	99
1054.062	0.897	897.4	2back	Block2	2back/STIM_033.jpg	100
1057.211	0.841	840.6	2back	Block2	2back/STIM_033.jpg	100
1061.346	0.592	592.2	2back	Block2	2back/STIM_033.jpg	99
1065.011	0.823	822.8	2back	Block2	2back/STIM_034.jpg	99
1069.557	0.864	864.1	2back	Block2	2back/STIM_034.jpg	100
1073.244	0.581	581.3	2back	Block2	2back/STIM_034.jpg	99
1077.617	0.764	763.7	2back	Block2	2back/STIM_035.jpg	99
1081.05	1.155	1154.7	2back	Block2	2back/STIM_035.jpg	100
1084.341	0.612	611.7	2back	Block2	2back/STIM_035.jpg	100
1087.399	0.726	725.9	2back	Block2	2back/STIM_036.jpg	99
1091.896	0.63	629.5	2back	Block2	2back/STIM_036.jpg	100
1095.476	0.649	649.1	2back	Block2	2back/STIM_036.jpg	99
1098.311	0.714	714.3	2back	Block2	2back/STIM_037.jpg	99
1102.361	0.844	843.7	2back	Block2	2back/STIM_037.jpg	100
1106.403	0.879	878.8	2back	Block2	2back/STIM_037.jpg	99
1111.31	0.627	627.2	2back	Block2	2back/STIM_038.jpg	100
1115.538	0.616	616.5	2back	Block2	2back/STIM_038.jpg	100
1119.03	0.657	656.8	2back	Block2	2back/STIM_038.jpg	99
1123.045	1.116	1116.4	2back	Block2	2back/STIM_039.jpg	99
1127.305	0.548	547.9	2back	Block2	2back/STIM_039.jpg	100
1130.606	0.478	478.3	2back	Block2	2back/STIM_039.jpg	100
1134.668	0.43	430.3	0back	Block2	0back/STIM_000.jpg	100
1138.293	0.553	553.0	0back	Block2	0back/STIM_000.jpg	99
1142.536	0.679	678.6	0back	Block2	0back/STIM_000.jpg	100
1146.353	0.531	531.1	0back	Block2	0back/STIM_001.jpg	99
1149.965	0.685	684.6	0back	Block2	0back/STIM_001.jpg	100
1153.406	0.708	707.9	0back	Block2	0back/STIM_001.jpg	100
1157.256	0.611	610.6	0back	Block2	0back/STIM_002.jpg	99
1161.177	0.389	389.0	0back	Block2	0back/STIM_002.jpg	99
1163.602	0.654	654.4	0back	Block2	0back/STIM_002.jpg	100
1167.2	0.42	419.8	0back	Block2	0back/STIM_003.jpg	99
1170.328	0.67	670.1	0back	Block2	0back/STIM_003.jpg	100
1173.235	0.629	628.8	0back	Block2	0back/STIM_003.jpg	100
1176.684	0.428	427.9	0back	Block2	0back/STIM_004.jpg	100
1179.274	0.522	522.3	0back	Block2	0back/STIM_004.jpg	100
1183.101	0.651	651.4	0back	Block2	0back/STIM_004.jpg	99
1187.223	0.566	566.0	0back	Block2	0back/STIM_005.jpg	99
1191.441	0.659	658.8	0back	Block2	0back/STIM_005.jpg	99
1195.65	0.628	627.6	0back	Block2	0back/STIM_005.jpg	99
1199.961	0.694	694.4	0back	Block2	0back/STIM_006.jpg	99
1203.387	0.572	572.1	0back	Block2	0back/STIM_006.jpg	100
1206.054	0.433	432.6	0back	Block2	0back/STIM_006.jpg	100
1210.467	0.394	393.8	0back	Block2	0back/STIM_007.jpg	99
1213.265	0.365	365.4	0back	Block2	0back/STIM_007.jpg	99
1215.693	0.388	387.6	0back	Block2	0back/STIM_007.jpg	99
1219.061	0.562	561.9	0back	Block2	0back/STIM_008.jpg	100
1222.269	0.544	544.4	0back	Block2	0back/STIM_008.jpg	100
1226.606	0.383	382.6	0back	Block2	0back/STIM_008.jpg	99
1230.636	0.48	479.6	0back	Block2	0back/STIM_009.jpg	99
1234.997	0.436	435.9	0back	Block2	0back/STIM_009.jpg	100
1239.404	0.563	563.2	0back	Block2	0back/STIM_009.jpg	99
1242.737	0.688	688.5	0back	Block2	0back/STIM_010.jpg	100
1247.321	0.516	515.5	0back	Block2	0back/STIM_010.jpg	100
1250.185	0.689	688.7	0back	Block2	0back/STIM_010.jpg	100
1253.251	0.607	607.1	0back	Block2	0back/STIM_011.jpg	99
1256.643	0.45	450.2	0back	Block2	0back/STIM_011.jpg	99
1260.816	0.688	688.5	0back	Block2	0back/STIM_011.jpg	100
1263.639	0.431	431.3	0back	Block2	0back/STIM_012.jpg	100
1267.679	0.441	440.9	0back	Block2	0back/STIM_012.jpg	99
1270.856	0.601	601.3	0back	Block2	0back/STIM_012.jpg	100
1274.154	0.331	330.9	0back	Block2	0back/STIM_013.jpg	100
1277.286	0.474	473.6	0back	Block2	0back/STIM_013.jpg	100
1280.557	0.431	430.7	0back	Block2	0back/STIM_013.jpg	100
1284.165	0.527	527.2	0back	Block2	0back/STIM_014.jpg	99
1286.794	0.703	703.0	0back	Block2	0back/STIM_014.jpg	99
1289.729	0.51	510.1	0back	Block2	0back/STIM_014.jpg	100
1293.161	0.659	659.1	0back	Block2	0back/STIM_015.jpg	99
1297.813	0.453	452.7	0back	Block2	0back/STIM_015.jpg	99
1300.95	0.404	403.5	0back	Block2	0back/STIM_015.jpg	100
1304.356	0.607	606.9	0back	Block2	0back/STIM_016.jpg	100
1307.676	0.564	564.3	0back	Block2	0back/STIM_016.jpg	99
1312.259	0.365	365.3	0back	Block2	0back/STIM_016.jpg	99
1315.776	0.379	378.7	0back	Block2	0back/STIM_017.jpg	100
1318.525	0.577	576.8	0back	Block2	0back/STIM_017.jpg	100
1322.131	0.622	621.8	0back	Block2	0back/STIM_017.jpg	99
1326.564	0.46	459.9	0back	Block2	0back/STIM_018.jpg	99
1330.745	0.462	462.3	0back	Block2	0back/STIM_018.jpg	100
1333.916	0.472	472.3	0back	Block2	0back/STIM_018.jpg	100
1338.226	0.699	698.7	0back	Block2	0back/STIM_019.jpg	100
1342.483	0.457	456.8	0back	Block2	0back/STIM_019.jpg	100
1345.788	0.777	777.3	0back	Block2	0back/STIM_019.jpg	100
1349.018	0.786	786.3	2back	Block3	2back/STIM_000.jpg	99
1351.974	0.58	580.2	2back	Block3	2back/STIM_000.jpg	99
1355.183	0.37	370.5	2back	Block3	2back/STIM_000.jpg	99
1358.538	0.438	438.5	2back	Block3	2back/STIM_001.jpg	99
1362.524	0.9	899.8	2back	Block3	2back/STIM_001.jpg	100
1366.758	0.917	917.4	2back	Block3	2back/STIM_001.jpg	100
1371.094	0.885	885.2	2back	Block3	2back/STIM_002.jpg	100
1375.869	0.702	701.6	2back	Block3	2back/STIM_002.jpg	99
1380.23	0.681	681.2	2back	Block3	2back/STIM_002.jpg	99
1384.543	0.918	918.4	2back	Block3	2back/STIM_003.jpg	99
1387.416	0.826	825.6	2back	Block3	2back/STIM_003.jpg	100
1391.875	0.543	543.0	2back	Block3	2back/STIM_003.jpg	99
1396.034	0.666	666.3	2back	Block3	2back/STIM_004.jpg	99
1398.943	0.894	893.7	2back	Block3	2back/STIM_004.jpg	100
1401.817	0.965	965.0	2back	Block3	2back/STIM_004.jpg	99
1406.082	0.446	445.7	2back	Block3	2back/STIM_005.jpg	100
1409.522	0.416	416.3	2back	Block3	2back/STIM_005.jpg	99
1412.597	0.563	563.4	2back	Block3	2back/STIM_005.jpg	99
1415.157	0.558	558.5	2back	Block3	2back/STIM_006.jpg	99
1419.383	0.482	482.1	2back	Block3	2back/STIM_006.jpg	100
1422.113	0.436	436.0	2back	Block3	2back/STIM_006.jpg	100
1424.666	0.913	913.1	2back	Block3	2back/STIM_007.jpg	99
1429.551	0.92	919.6	2back	Block3	2back/STIM_007.jpg	100
1433.138	0.424	423.7	2back	Block3	2back/STIM_007.jpg	100
1436.551	0.942	941.7	2back	Block3	2back/STIM_008.jpg	99
1441.357	0.485	484.6	2back	Block3	2back/STIM_008.jpg	99
1445.132	0.569	568.7	2back	Block3	2back/STIM_008.jpg	99
1447.864	0.586	585.5	2back	Block3	2back/STIM_009.jpg	100
1451.097	0.799	799.3	2back	Block3	2back/STIM_009.jpg	99
1455.519	0.861	861.3	2back	Block3	2back/STIM_009.jpg	99
1458.739	0.735	734.8	2back	Block3	2back/STIM_010.jpg	100
1463.348	0.393	393.2	2back	Block3	2back/STIM_010.jpg	100
1466.942	0.464	463.8	2back	Block3	2back/STIM_010.jpg	100
1470.847	0.74	740.1	2back	Block3	2back/STIM_011.jpg	99
1475.581	0.666	665.6	2back	Block3	2back/STIM_011.jpg	99
1479.137	0.688	688.2	2back	Block3	2back/STIM_011.jpg	99
1483.374	0.562	561.6	2back	Block3	2back/STIM_012.jpg	100
1486.781	0.737	736.8	2back	Block3	2back/STIM_012.jpg	99
1490.322	0.537	537.2	2back	Block3	2back/STIM_012.jpg	99
1493.19	0.76	760.4	2back	Block3	2back/STIM_013.jpg	99
1497.384	0.633	632.6	2back	Block3	2back/STIM_013.jpg	100
1501.586	0.949	949.1	2back	Block3	2back/STIM_013.jpg	100
1504.801	0.525	525.4	2back	Block3	2back/STIM_014.jpg	99
1507.868	0.895	894.6	2back	Block3	2back/STIM_014.jpg	99
1512.157	0.594	593.7	2back	Block3	2back/STIM_014.jpg	100
1516.245	0.874	873.7	2back	Block3	2back/STIM_015.jpg	100
1519.896	0.621	621.4	2back	Block3	2back/STIM_015.jpg	99
1523.02	0.516	515.8	2back	Block3	2back/STIM_015.jpg	100
1527.526	0.79	790.5	2back	Block3	2back/STIM_016.jpg	99
1530.88	0.451	451.2	2back	Block3	2back/STIM_016.jpg	100
1534.186	0.701	701.1	2back	Block3	2back/STIM_016.jpg	99
1537.441	0.893	893.3	2back	Block3	2back/STIM_017.jpg	100
1541.499	0.782	782.4	2back	Block3	2back/STIM_017.jpg	100
1546.062	0.942	942.0	2back	Block3	2back/STIM_017.jpg	99
1551.015	0.814	814.5	2back	Block3	2back/STIM_018.jpg	99
1554.578	0.88	880.2	2back	Block3	2back/STIM_018.jpg	100
1558.378	0.572	571.8	2back	Block3	2back/STIM_018.jpg	100
1562.941	0.577	577.4	2back	Block3	2back/STIM_019.jpg	99
1565.89	0.822	822.2	2back	Block3	2back/STIM_019.jpg	99
1569.123	0.762	762.3	2back	Block3	2back/STIM_019.jpg	100
1573.706	0.82	819.9	2back	Block3	2back/STIM_020.jpg	99
1577.033	0.906	905.7	2back	Block3	2back/STIM_020.jpg	99
1581.427	0.84	840.4	2back	Block3	2back/STIM_020.jpg	100
1585.963	0.841	841.3	2back	Block3	2back/STIM_021.jpg	100
1589.74	0.917	917.0	2back	Block3	2back/STIM_021.jpg	99
1593.956	0.794	794.2	2back	Block3	2back/STIM_021.jpg	100
1598.138	0.657	657.4	2back	Block3	2back/STIM_022.jpg	99
1600.962	0.93	930.5	2back	Block3	2back/STIM_022.jpg	99
1605.618	0.496	495.7	2back	Block3	2back/STIM_022.jpg	100
1609.157	0.434	433.8	2back	Block3	2back/STIM_023.jpg	99
1611.872	0.829	829.1	2back	Block3	2back/STIM_023.jpg	99
1615.952	0.491	490.6	2back	Block3	2back/STIM_023.jpg	100
1618.948	0.904	903.8	2back	Block3	2back/STIM_024.jpg	99
1623.44	0.432	431.8	2back	Block3	2back/STIM_024.jpg	99
1626.179	0.717	716.7	2back	Block3	2back/STIM_024.jpg	99
1629.773	0.679	678.6	2back	Block3	2back/STIM_025.jpg	100
1634.184	0.703	702.6	2back	Block3	2back/STIM_025.jpg	99
1637.166	0.626	625.9	2back	Block3	2back/STIM_025.jpg	100
1640.331	0.557	557.1	2back	Block3	2back/STIM_026.jpg	99
1643.319	0.562	561.6	2back	Block3	2back/STIM_026.jpg	99
1647.232	0.68	679.6	2back	Block3	2back/STIM_026.jpg	100
1651.507	0.824	824.5	2back	Block3	2back/STIM_027.jpg	99
1654.504	0.606	606.5	2back	Block3	2back/STIM_027.jpg	99
1657.684	0.703	702.9	2back	Block3	2back/STIM_027.jpg	99
1661.317	0.743	742.9	2back	Block3	2back/STIM_028.jpg	99
1665.026	0.803	802.6	2back	Block3	2back/STIM_028.jpg	99
1669.496	0.626	625.9	2back	Block3	2back/STIM_028.jpg	99
1672.352	0.479	478.9	2back	Block3	2back/STIM_029.jpg	100
1676.308	0.469	469.0	2back	Block3	2back/STIM_029.jpg	99
1679.192	0.702	702.1	2back	Block3	2back/STIM_029.jpg	99
1683.809	0.585	585.1	2back	Block3	2back/STIM_030.jpg	100
1688.179	0.565	564.8	2back	Block3	2back/STIM_030.jpg	99
1691.481	0.859	858.8	2back	Block3	2back/STIM_030.jpg	99
1695.604	0.71	709.9	2back	Block3	2back/STIM_031.jpg	99
1700.257	0.745	745.3	2back	Block3	2back/STIM_031.jpg	99
1703.851	0.691	690.7	2back	Block3	2back/STIM_031.jpg	100
1706.955	0.962	962.5	2back	Block3	2back/STIM_032.jpg	100
1711.108	0.382	381.6	2back	Block3	2back/STIM_032.jpg	99
1714.976	0.754	754.1	2back	Block3	2back/STIM_032.jpg	100
1717.909	0.792	792.2	2back	Block3	2back/STIM_033.jpg	100
1721.752	0.825	824.7	2back	Block3	2back/STIM_033.jpg	100
1725.467	0.664	664.3	2back	Block3	2back/STIM_033.jpg	100
1729.03	0.885	884.6	2back	Block3	2back/STIM_034.jpg	99
1733.967	0.774	774.1	2back	Block3	2back/STIM_034.jpg	99
1738.608	0.563	562.8	2back	Block3	2back/STIM_034.jpg	99
1741.984	0.488	487.5	2back	Block3	2back/STIM_035.jpg	99
1745.658	0.405	404.7	2back	Block3	2back/STIM_035.jpg	100
1748.434	0.67	669.8	2back	Block3	2back/STIM_035.jpg	100
1751.421	0.732	732.3	2back	Block3	2back/STIM_036.jpg	99
1754.599	0.409	408.8	2back	Block3	2back/STIM_036.jpg	100
1757.849	0.493	493.4	2back	Block3	2back/STIM_036.jpg	100
1761.287	0.494	493.9	2back	Block3	2back/STIM_037.jpg	99
1764.58	0.433	432.9	2back	Block3	2back/STIM_037.jpg	100
1768.522	0.851	851.1	2back	Block3	2back/STIM_037.jpg	99
1771.961	0.509	509.0	2back	Block3	2back/STIM_038.jpg	100
1775.881	0.66	659.5	2back	Block3	2back/STIM_038.jpg	100
1779.977	0.332	331.7	2back	Block3	2back/STIM_038.jpg	100
1783.874	0.658	658.4	2back	Block3	2back/STIM_039.jpg	99
1787.375	0.727	726.6	2back	Block3	2back/STIM_039.jpg	99
1790.99	0.894	894.4	2back	Block3	2back/STIM_039.jpg	99
1794.44	0.559	558.6	0back	Block3	0back/STIM_000.jpg	99
1797.679	0.701	700.9	0back	Block3	0back/STIM_000.jpg	99
1800.819	0.75	750.5	0back	Block3	0back/STIM_000.jpg	100
1803.666	0.718	718.5	0back	Block3	0back/STIM_001.jpg	100
1808.026	0.726	726.4	0back	Block3	0back/STIM_001.jpg	100
1812.271	0.494	494.4	0back	Block3	0back/STIM_001.jpg	100
1816.053	0.534	533.5	0back	Block3	0back/STIM_002.jpg	100
1819.615	0.571	570.7	0back	Block3	0back/STIM_002.jpg	99
1823.967	0.387	386.6	0back	Block3	0back/STIM_002.jpg	100
1826.635	0.758	757.7	0back	Block3	0back/STIM_003.jpg	99
1830.064	0.534	533.8	0back	Block3	0back/STIM_003.jpg	100
1833.044	0.417	417.1	0back	Block3	0back/STIM_003.jpg	99
1835.689	0.661	660.8	0back	Block3	0back/STIM_004.jpg	100
1840.043	0.593	593.1	0back	Block3	0back/STIM_004.jpg	100
1843.271	0.781	781.0	0back	Block3	0back/STIM_004.jpg	100
1847.614	0.527	526.6	0back	Block3	0back/STIM_005.jpg	100
1852.026	0.63	629.6	0back	Block3	0back/STIM_005.jpg	100
1856.364	0.559	558.7	0back	Block3	0back/STIM_005.jpg	100
1859.587	0.389	389.0	0back	Block3	0back/STIM_006.jpg	99
1863.029	0.443	442.7	0back	Block3	0back/STIM_006.jpg	99
1866.502	0.732	731.5	0back	Block3	0back/STIM_006.jpg	99
1870.62	0.663	662.9	0back	Block3	0back/STIM_007.jpg	100
1873.387	0.672	671.6	0back	Block3	0back/STIM_007.jpg	99
1876.51	0.647	646.8	0back	Block3	0back/STIM_007.jpg	100
1880.93	0.527	527.1	0back	Block3	0back/STIM_008.jpg	99
1885.323	0.777	777.2	0back	Block3	0back/STIM_008.jpg	99
1890.02	0.535	535.4	0back	Block3	0back/STIM_008.jpg	100
1894.28	0.675	674.8	0back	Block3	0back/STIM_009.jpg	100
1898.539	0.492	492.4	0back	Block3	0back/STIM_009.jpg	100
1901.407	0.516	516.0	0back	Block3	0back/STIM_009.jpg	99
1905.477	0.326	326.0	0back	Block3	0back/STIM_010.jpg	99
1909.319	0.508	507.6	0back	Block3	0back/STIM_010.jpg	99
1912.295	0.685	685.2	0back	Block3	0back/STIM_010.jpg	100
1915.079	0.747	746.9	0back	Block3	0back/STIM_011.jpg	100
1918.188	0.636	636.0	0back	Block3	0back/STIM_011.jpg	100
1921.126	0.41	409.8	0back	Block3	0back/STIM_011.jpg	99
1924.079	0.726	726.3	0back	Block3	0back/STIM_012.jpg	100
1927.25	0.732	732.4	0back	Block3	0back/STIM_012.jpg	99
1931.93	0.415	415.3	0back	Block3	0back/STIM_012.jpg	99
1934.404	0.556	556.0	0back	Block3	0back/STIM_013.jpg	100
1937.453	0.818	818.3	0back	Block3	0back/STIM_013.jpg	99
1941.458	0.596	596.1	0back	Block3	0back/STIM_013.jpg	100
1944.497	0.671	671.1	0back	Block3	0back/STIM_014.jpg	99
1949.091	0.668	667.5	0back	Block3	0back/STIM_014.jpg	99
1952.016	0.453	453.1	0back	Block3	0back/STIM_014.jpg	100
1955.667	0.663	663.1	0back	Block3	0back/STIM_015.jpg	99
1960.223	0.672	671.8	0back	Block3	0back/STIM_015.jpg	99
1964.245	0.565	565.2	0back	Block3	0back/STIM_015.jpg	99
1968.598	0.733	732.8	0back	Block3	0back/STIM_016.jpg	99
1973.349	0.522	521.9	0back	Block3	0back/STIM_016.jpg	100
1977.393	0.663	662.7	0back	Block3	0back/STIM_016.jpg	99
1981.712	0.517	516.8	0back	Block3	0back/STIM_017.jpg	100
1986.003	0.662	662.1	0back	Block3	0back/STIM_017.jpg	100
1988.797	0.374	373.8	0back	Block3	0back/STIM_017.jpg	99
1992.136	0.644	644.3	0back	Block3	0back/STIM_018.jpg	99
1994.921	0.42	420.5	0back	Block3	0back/STIM_018.jpg	99
1999.063	0.717	716.7	0back	Block3	0back/STIM_018.jpg	99
2002.999	0.463	463.4	0back	Block3	0back/STIM_019.jpg	100
2005.678	0.854	854.1	0back	Block3	0back/STIM_019.jpg	99
2009.753	0.736	735.5	0back	Block3	0back/STIM_019.jpg	100
2014.431	0.766	765.5	2back	Block4	2back/STIM_000.jpg	100
2017.735	0.604	603.6	2back	Block4	2back/STIM_000.jpg	100
2021.651	0.929	928.6	2back	Block4	2back/STIM_000.jpg	100
2026.511	0.669	669.4	2back	Block4	2back/STIM_001.jpg	99
2029.483	0.85	850.5	2back	Block4	2back/STIM_001.jpg	99
2033.299	0.526	526.5	2back	Block4	2back/STIM_001.jpg	100
2037.296	0.525	525.3	2back	Block4	2back/STIM_002.jpg	100
2040.794	0.904	903.6	2back	Block4	2back/STIM_002.jpg	99
2044.388	0.632	632.1	2back	Block4	2back/STIM_002.jpg	99
2048.969	0.565	565.4	2back	Block4	2back/STIM_003.jpg	99
2051.782	0.54	539.5	2back	Block4	2back/STIM_003.jpg	99
2055.67	0.569	569.4	2back	Block4	2back/STIM_003.jpg	100
2059.613	0.612	612.0	2back	Block4	2back/STIM_004.jpg	100
2062.35	0.772	772.2	2back	Block4	2back/STIM_004.jpg	100
2065.677	0.679	678.8	2back	Block4	2back/STIM_004.jpg	99
2069.702	0.942	941.6	2back	Block4	2back/STIM_005.jpg	99
2073.088	0.48	479.7	2back	Block4	2back/STIM_005.jpg	99
2076.269	0.884	883.9	2back	Block4	2back/STIM_005.jpg	99
2079.869	0.519	519.0	2back	Block4	2back/STIM_006.jpg	99
2083.994	0.655	654.8	2back	Block4	2back/STIM_006.jpg	99
2087.009	0.404	403.8	2back	Block4	2back/STIM_006.jpg	100
2091.464	0.923	922.6	2back	Block4	2back/STIM_007.jpg	99
2094.809	0.68	680.4	2back	Block4	2back/STIM_007.jpg	99
2098.662	0.969	969.2	2back	Block4	2back/STIM_007.jpg	99
2101.785	0.797	797.4	2back	Block4	2back/STIM_008.jpg	99
2104.949	0.744	743.6	2back	Block4	2back/STIM_008.jpg	100
2108.758	0.766	766.5	2back	Block4	2back/STIM_008.jpg	100
2113.34	0.666	666.3	2back	Block4	2back/STIM_009.jpg	99
2116.534	1.001	1000.8	2back	Block4	2back/STIM_009.jpg	99
2120.488	0.589	588.8	2back	Block4	2back/STIM_009.jpg	99
2123.905	0.364	363.6	2back	Block4	2back/STIM_010.jpg	100
2127.478	0.823	823.1	2back	Block4	2back/STIM_010.jpg	100
2130.606	0.886	886.1	2back	Block4	2back/STIM_010.jpg	99
2133.616	0.872	871.8	2back	Block4	2back/STIM_011.jpg	99
2136.888	0.694	694.2	2back	Block4	2back/STIM_011.jpg	100
2139.79	0.548	547.6	2back	Block4	2back/STIM_011.jpg	99
2142.924	0.639	639.1	2back	Block4	2back/STIM_012.jpg	100
2147.042	0.404	404.3	2back	Block4	2back/STIM_012.jpg	99
2150.729	0.792	791.8	2back	Block4	2back/STIM_012.jpg	100
2154.34	0.822	821.5	2back	Block4	2back/STIM_013.jpg	99
2158.747	0.578	578.4	2back	Block4	2back/STIM_013.jpg	100
2162.507	0.954	953.7	2back	Block4	2back/STIM_013.jpg	100
2165.658	0.536	535.8	2back	Block4	2back/STIM_014.jpg	99
2169.821	0.579	579.1	2back	Block4	2back/STIM_014.jpg	100
2172.521	0.848	847.9	2back	Block4	2back/STIM_014.jpg	99
2175.765	0.578	578.5	2back	Block4	2back/STIM_015.jpg	100
2178.699	0.838	837.7	2back	Block4	2back/STIM_015.jpg	99
2183.176	0.55	549.9	2back	Block4	2back/STIM_015.jpg	100
2187.193	0.64	639.8	2back	Block4	2back/STIM_016.jpg	100
2190.02	0.503	502.6	2back	Block4	2back/STIM_016.jpg	99
2194.009	0.747	746.7	2back	Block4	2back/STIM_016.jpg	100
2197.442	0.748	747.8	2back	Block4	2back/STIM_017.jpg	99
2200.792	0.954	953.6	2back	Block4	2back/STIM_017.jpg	99
2204.336	0.439	439.4	2back	Block4	2back/STIM_017.jpg	99
2208.598	0.959	958.8	2back	Block4	2back/STIM_018.jpg	100
2211.694	0.669	669.1	2back	Block4	2back/STIM_018.jpg	99
2215.066	0.386	386.1	2back	Block4	2back/STIM_018.jpg	100
2219.045	0.901	900.7	2back	Block4	2back/STIM_019.jpg	99
2223.053	0.906	906.0	2back	Block4	2back/STIM_019.jpg	99
2227.206	0.707	707.2	2back	Block4	2back/STIM_019.jpg	99
2231.821	0.797	796.9	2back	Block4	2back/STIM_020.jpg	99
2235.497	0.429	429.3	2back	Block4	2back/STIM_020.jpg	99
2239.879	0.433	433.1	2back	Block4	2back/STIM_020.jpg	99
2243.422	0.882	881.6	2back	Block4	2back/STIM_021.jpg	99
2248.109	0.814	814.2	2back	Block4	2back/STIM_021.jpg	100
2250.981	0.351	351.4	2back	Block4	2back/STIM_021.jpg	99
2254.117	0.7	699.5	2back	Block4	2back/STIM_022.jpg	100
2257.201	0.836	835.5	2back	Block4	2back/STIM_022.jpg	99
2260.836	0.839	839.2	2back	Block4	2back/STIM_022.jpg	100
2263.87	0.458	457.5	2back	Block4	2back/STIM_023.jpg	99
2266.618	0.531	530.9	2back	Block4	2back/STIM_023.jpg	100
2270.606	0.74	740.5	2back	Block4	2back/STIM_023.jpg	100
2274.051	0.879	879.3	2back	Block4	2back/STIM_024.jpg	100
2277.458	0.858	857.7	2back	Block4	2back/STIM_024.jpg	100
2282.22	0.773	773.0	2back	Block4	2back/STIM_024.jpg	100
2285.396	0.885	884.6	2back	Block4	2back/STIM_025.jpg	99
2290.159	0.942	942.3	2back	Block4	2back/STIM_025.jpg	100
2294.147	0.7	700.5	2back	Block4	2back/STIM_025.jpg	99
2297.701	0.572	572.2	2back	Block4	2back/STIM_026.jpg	99
2300.467	0.696	696.3	2back	Block4	2back/STIM_026.jpg	99
2303.549	0.473	473.4	2back	Block4	2back/STIM_026.jpg	100
2307.857	0.439	439.1	2back	Block4	2back/STIM_027.jpg	99
2311.927	0.936	935.6	2back	Block4	2back/STIM_027.jpg	99
2315.245	0.59	589.7	2back	Block4	2back/STIM_027.jpg	99
2319.248	0.748	748.3	2back	Block4	2back/STIM_028.jpg	99
2323.547	0.48	480.5	2back	Block4	2back/STIM_028.jpg	99
2327.013	0.77	769.8	2back	Block4	2back/STIM_028.jpg	99
2330.503	0.555	555.4	2back	Block4	2back/STIM_029.jpg	99
2333.557	0.97	969.5	2back	Block4	2back/STIM_029.jpg	99
2337.677	0.544	544.2	2back	Block4	2back/STIM_029.jpg	100
2341.354	0.543	542.8	2back	Block4	2back/STIM_030.jpg	99
2344.054	0.538	537.9	2back	Block4	2back/STIM_030.jpg	99
2346.984	0.756	755.7	2back	Block4	2back/STIM_030.jpg	100
2351.448	0.889	889.3	2back	Block4	2back/STIM_031.jpg	100
2355.696	0.48	479.8	2back	Block4	2back/STIM_031.jpg	99
2359.089	0.421	420.6	2back	Block4	2back/STIM_031.jpg	99
2363.083	0.414	414.5	2back	Block4	2back/STIM_032.jpg	99
2365.839	0.683	683.2	2back	Block4	2back/STIM_032.jpg	100
2370.118	0.716	716.1	2back	Block4	2back/STIM_032.jpg	100
2374.595	0.717	717.0	2back	Block4	2back/STIM_033.jpg	99
2378.062	0.696	695.8	2back	Block4	2back/STIM_033.jpg	99
2381.89	0.623	622.9	2back	Block4	2back/STIM_033.jpg	100
2385.105	1.002	1002.3	2back	Block4	2back/STIM_034.jpg	100
2388.253	0.658	658.3	2back	Block4	2back/STIM_034.jpg	100
2391.409	0.562	562.1	2back	Block4	2back/STIM_034.jpg	100
2395.195	0.498	497.7	2back	Block4	2back/STIM_035.jpg	99
2398.919	0.422	421.5	2back	Block4	2back/STIM_035.jpg	100
2401.538	0.806	805.8	2back	Block4	2back/STIM_035.jpg	100
2405.285	0.81	809.9	2back	Block4	2back/STIM_036.jpg	100
2409.695	0.73	730.0	2back	Block4	2back/STIM_036.jpg	99
2413.658	0.882	881.5	2back	Block4	2back/STIM_036.jpg	99
2417.46	0.789	788.9	2back	Block4	2back/STIM_037.jpg	100
2420.931	0.478	478.1	2back	Block4	2back/STIM_037.jpg	99
2424.075	0.874	874.2	2back	Block4	2back/STIM_037.jpg	100
2427.15	0.478	478.5	2back	Block4	2back/STIM_038.jpg	100
2431.309	0.878	878.0	2back	Block4	2back/STIM_038.jpg	100
2436.198	0.807	806.9	2back	Block4	2back/STIM_038.jpg	100
2440.377	0.885	885.4	2back	Block4	2back/STIM_039.jpg	100
2443.729	0.859	859.3	2back	Block4	2back/STIM_039.jpg	99
2447.39	0.683	683.1	2back	Block4	2back/STIM_039.jpg	100
2451.97	0.643	643.2	0back	Block4	0back/STIM_000.jpg	99
2455.684	0.58	579.8	0back	Block4	0back/STIM_000.jpg	100
2459.29	0.431	431.1	0back	Block4	0back/STIM_000.jpg	100
2462.552	0.633	632.7	0back	Block4	0back/STIM_001.jpg	99
2466.415	0.553	553.2	0back	Block4	0back/STIM_001.jpg	100
2470.525	0.59	590.3	0back	Block4	0back/STIM_001.jpg	99
2474.973	0.746	746.0	0back	Block4	0back/STIM_002.jpg	100
2479.105	0.48	479.7	0back	Block4	0back/STIM_002.jpg	100
2483.637	0.46	460.3	0back	Block4	0back/STIM_002.jpg	100
2487.586	0.393	393.1	0back	Block4	0back/STIM_003.jpg	99
2490.132	0.405	405.3	0back	Block4	0back/STIM_003.jpg	100
2494.455	0.639	638.9	0back	Block4	0back/STIM_003.jpg	99
2497.605	0.483	483.1	0back	Block4	0back/STIM_004.jpg	99
2500.189	0.456	455.9	0back	Block4	0back/STIM_004.jpg	99
2504.562	0.772	772.4	0back	Block4	0back/STIM_004.jpg	100
2508.501	0.621	620.7	0back	Block4	0back/STIM_005.jpg	100
2512.802	0.55	550.4	0back	Block4	0back/STIM_005.jpg	99
2516.194	0.68	679.6	0back	Block4	0back/STIM_005.jpg	100
2518.982	0.53	530.0	0back	Block4	0back/STIM_006.jpg	99
2522.004	0.568	567.5	0back	Block4	0back/STIM_006.jpg	99
2524.829	0.439	438.9	0back	Block4	0back/STIM_006.jpg	99
2528.968	0.51	509.8	0back	Block4	0back/STIM_007.jpg	99
2532.098	0.402	402.5	0back	Block4	0back/STIM_007.jpg	99
2535.004	0.723	722.9	0back	Block4	0back/STIM_007.jpg	100
2539.238	0.468	467.5	0back	Block4	0back/STIM_008.jpg	100
2542.151	0.328	327.6	0back	Block4	0back/STIM_008.jpg	99
2546.39	0.394	393.5	0back	Block4	0back/STIM_008.jpg	100
2549.841	0.785	784.8	0back	Block4	0back/STIM_009.jpg	100
2552.858	0.577	577.2	0back	Block4	0back/STIM_009.jpg	99
2556.691	0.702	702.4	0back	Block4	0back/STIM_009.jpg	100
2559.889	0.681	680.9	0back	Block4	0back/STIM_010.jpg	99
2562.841	0.531	531.3	0back	Block4	0back/STIM_010.jpg	100
2566.717	0.712	712.2	0back	Block4	0back/STIM_010.jpg	100
2570.301	0.762	762.5	0back	Block4	0back/STIM_011.jpg	99
2573.967	0.392	392.2	0back	Block4	0back/STIM_011.jpg	99
2576.554	0.559	558.8	0back	Block4	0back/STIM_011.jpg	99
2581.114	0.524	524.3	0back	Block4	0back/STIM_012.jpg	99
2585.435	0.44	440.4	0back	Block4	0back/STIM_012.jpg	99
2588.834	0.687	687.0	0back	Block4	0back/STIM_012.jpg	99
2592.969	0.452	452.2	0back	Block4	0back/STIM_013.jpg	100
2596.775	0.558	557.7	0back	Block4	0back/STIM_013.jpg	100
2600.432	0.585	585.4	0back	Block4	0back/STIM_013.jpg	100
2604.228	0.561	561.2	0back	Block4	0back/STIM_014.jpg	99
2607.376	0.515	515.3	0back	Block4	0back/STIM_014.jpg	100
2611.309	0.85	850.4	0back	Block4	0back/STIM_014.jpg	99
2614.191	0.472	471.7	0back	Block4	0back/STIM_015.jpg	99
2617.785	0.628	628.2	0back	Block4	0back/STIM_015.jpg	100
2622.352	0.594	594.2	0back	Block4	0back/STIM_015.jpg	100
2626.552	0.706	705.8	0back	Block4	0back/STIM_016.jpg	100
2629.499	0.584	584.0	0back	Block4	0back/STIM_016.jpg	99
2633.431	0.496	495.6	0back	Block4	0back/STIM_016.jpg	100
2636.485	0.451	451.4	0back	Block4	0back/STIM_017.jpg	100
2639.674	0.454	453.8	0back	Block4	0back/STIM_017.jpg	100
2642.409	0.69	689.9	0back	Block4	0back/STIM_017.jpg	99
2646.001	0.532	531.9	0back	Block4	0back/STIM_018.jpg	100
2650.249	0.849	849.0	0back	Block4	0back/STIM_018.jpg	99
2654.237	0.677	676.9	0back	Block4	0back/STIM_018.jpg	100
2658.25	0.556	555.7	0back	Block4	0back/STIM_019.jpg	99
2662.108	0.397	397.4	0back	Block4	0back/STIM_019.jpg	100
2664.972	0.467	467.2	0back	Block4	0back/STIM_019.jpg	99
