onset	duration	response_time_ms	trial_type	learning_stage	stimulus	response_port
0.0	1.091	1091.1	2back	Block1	2back/STIM_000.jpg	100
3.473	0.478	478.1	2back	Block1	2back/STIM_000.jpg	99
6.676	0.874	873.8	2back	Block1	2back/STIM_000.jpg	100
10.045	0.788	787.8	2back	Block1	2back/STIM_001.jpg	99
14.823	0.685	684.6	2back	Block1	2back/STIM_001.jpg	100
19.297	0.682	681.5	2back	Block1	2back/STIM_001.jpg	100
23.683	1.003	1002.7	2back	Block1	2back/STIM_002.jpg	100
27.165	0.723	722.7	2back	Block1	2back/STIM_002.jpg	100
30.465	0.764	763.8	2back	Block1	2back/STIM_002.jpg	100
34.849	1.069	1068.6	2back	Block1	2back/STIM_003.jpg	100
39.201	0.884	884.3	2back	Block1	2back/STIM_003.jpg	100
42.332	0.484	484.0	2back	Block1	2back/STIM_003.jpg	100
46.086	0.697	696.6	2back	Block1	2back/STIM_004.jpg	100
50.767	0.962	961.6	2back	Block1	2back/STIM_004.jpg	100
54.084	0.441	441.0	2back	Block1	2back/STIM_004.jpg	100
57.225	1.082	1081.8	2back	Block1	2back/STIM_005.jpg	100
60.788	0.462	461.8	2back	Block1	2back/STIM_005.jpg	99
64.295	0.586	586.0	2back	Block1	2back/STIM_005.jpg	99
67.035	0.622	622.0	2back	Block1	2back/STIM_006.jpg	100
71.174	0.487	487.4	2back	Block1	2back/STIM_006.jpg	99
75.094	0.765	765.1	2back	Block1	2back/STIM_006.jpg	100
78.71	0.778	778.4	2back	Block1	2back/STIM_007.jpg	100
83.278	0.566	566.1	2back	Block1	2back/STIM_007.jpg	100
86.872	0.746	745.9	2back	Block1	2back/STIM_007.jpg	99
90.908	0.842	842.1	2back	Block1	2back/STIM_008.jpg	99
94.273	0.905	905.4	2back	Block1	2back/STIM_008.jpg	99
97.501	0.471	471.0	2back	Block1	2back/STIM_008.jpg	100
100.664	0.639	639.0	2back	Block1	2back/STIM_009.jpg	99
105.205	0.717	716.8	2back	Block1	2back/STIM_009.jpg	99
108.234	0.639	638.8	2back	Block1	2back/STIM_009.jpg	99
111.545	0.828	828.1	2back	Block1	2back/STIM_010.jpg	100
116.166	1.006	1006.4	2back	Block1	2back/STIM_010.jpg	100
119.567	0.547	546.8	2back	Block1	2back/STIM_010.jpg	99
123.976	0.517	516.7	2back	Block1	2back/STIM_011.jpg	99
127.402	1.019	1018.8	2back	Block1	2back/STIM_011.jpg	100
132.159	0.8	800.1	2back	Block1	2back/STIM_011.jpg	100
136.569	0.544	544.0	2back	Block1	2back/STIM_012.jpg	100
140.167	0.692	691.8	2back	Block1	2back/STIM_012.jpg	99
144.755	0.808	808.4	2back	Block1	2back/STIM_012.jpg	99
149.142	0.89	889.9	2back	Block1	2back/STIM_013.jpg	100
152.135	0.909	908.9	2back	Block1	2back/STIM_013.jpg	100
156.981	0.52	520.5	2back	Block1	2back/STIM_013.jpg	100
159.762	0.604	604.2	2back	Block1	2back/STIM_014.jpg	99
163.778	0.644	644.3	2back	Block1	2back/STIM_014.jpg	99
167.377	0.622	622.4	2back	Block1	2back/STIM_014.jpg	100
171.869	1.033	1032.8	2back	Block1	2back/STIM_015.jpg	100
176.693	0.981	980.9	2back	Block1	2back/STIM_015.jpg	99
181.42	0.948	948.0	2back	Block1	2back/STIM_015.jpg	100
186.055	0.514	514.0	2back	Block1	2back/STIM_016.jpg	100
190.501	0.696	695.5	2back	Block1	2back/STIM_016.jpg	100
194.113	0.718	718.5	2back	Block1	2back/STIM_016.jpg	100
198.657	0.966	966.1	2back	Block1	2back/STIM_017.jpg	99
203.457	0.829	828.6	2back	Block1	2back/STIM_017.jpg	100
206.371	0.855	854.7	2back	Block1	2back/STIM_017.jpg	99
209.257	0.839	839.3	2back	Block1	2back/STIM_018.jpg	100
213.132	1.014	1013.6	2back	Block1	2back/STIM_018.jpg	100
216.582	0.598	597.6	2back	Block1	2back/STIM_018.jpg	100
220.222	0.496	495.8	2back	Block1	2back/STIM_019.jpg	99
224.544	0.821	820.7	2back	Block1	2back/STIM_019.jpg	99
229.184	0.712	712.5	2back	Block1	2back/STIM_019.jpg	99
233.786	0.476	476.3	2back	Block1	2back/STIM_020.jpg	100
237.076	0.539	539.2	2back	Block1	2back/STIM_020.jpg	100
241.019	0.883	882.6	2back	Block1	2back/STIM_020.jpg	100
245.675	0.508	508.0	2back	Block1	2back/STIM_021.jpg	99
249.153	0.465	465.0	2back	Block1	2back/STIM_021.jpg	100
252.132	0.891	890.6	2back	Block1	2back/STIM_021.jpg	99
256.616	0.65	649.7	2back	Block1	2back/STIM_022.jpg	99
259.346	0.561	561.4	2back	Block1	2back/STIM_022.jpg	100
262.299	0.434	433.5	2back	Block1	2back/STIM_022.jpg	100
264.82	0.921	920.8	2back	Block1	2back/STIM_023.jpg	100
269.12	0.632	631.9	2back	Block1	2back/STIM_023.jpg	100
272.67	0.634	633.6	2back	Block1	2back/STIM_023.jpg	99
275.957	1.081	1080.7	2back	Block1	2back/STIM_024.jpg	99
280.993	0.914	914.1	2back	Block1	2back/STIM_024.jpg	100
284.651	0.452	451.5	2back	Block1	2back/STIM_024.jpg	100
287.479	0.675	675.2	2back	Block1	2back/STIM_025.jpg	99
290.553	0.733	733.2	2back	Block1	2back/STIM_025.jpg	100
294.197	0.974	974.3	2back	Block1	2back/STIM_025.jpg	99
297.275	0.746	746.5	2back	Block1	2back/STIM_026.jpg	100
301.043	0.478	478.2	2back	Block1	2back/STIM_026.jpg	100
304.929	0.669	669.2	2back	Block1	2back/STIM_026.jpg	100
307.679	0.547	547.2	2back	Block1	2back/STIM_027.jpg	99
310.585	0.997	996.8	2back	Block1	2back/STIM_027.jpg	100
315.319	0.882	881.8	2back	Block1	2back/STIM_027.jpg	100
319.901	0.883	883.1	2back	Block1	2back/STIM_028.jpg	100
322.794	0.872	871.8	2back	Block1	2back/STIM_028.jpg	99
327.038	0.887	886.7	2back	Block1	2back/STIM_028.jpg	99
331.557	0.874	874.4	2back	Block1	2back/STIM_029.jpg	100
335.777	0.847	847.2	2back	Block1	2back/STIM_029.jpg	100
338.931	0.452	451.5	2back	Block1	2back/STIM_029.jpg	100
342.987	0.545	545.1	2back	Block1	2back/STIM_030.jpg	100
347.362	0.542	541.6	2back	Block1	2back/STIM_030.jpg	99
350.691	0.893	893.4	2back	Block1	2back/STIM_030.jpg	99
353.605	0.646	646.4	2back	Block1	2back/STIM_031.jpg	100
357.873	0.898	897.6	2back	Block1	2back/STIM_031.jpg	100
361.13	0.616	616.5	2back	Block1	2back/STIM_031.jpg	99
364.008	1.085	1085.1	2back	Block1	2back/STIM_032.jpg	100
367.131	0.926	926.3	2back	Block1	2back/STIM_032.jpg	99
371.26	0.442	442.1	2back	Block1	2back/STIM_032.jpg	99
374.091	1.032	1031.6	2back	Block1	2back/STIM_033.jpg	99
378.828	0.818	818.2	2back	Block1	2back/STIM_033.jpg	99
382.279	0.741	741.0	2back	Block1	2back/STIM_033.jpg	100
387.017	0.958	957.9	2back	Block1	2back/STIM_034.jpg	99
390.928	0.528	528.4	2back	Block1	2back/STIM_034.jpg	99
394.327	0.862	862.2	2back	Block1	2back/STIM_034.jpg	100
397.85	0.892	891.8	2back	Block1	2back/STIM_035.jpg	100
401.988	0.814	814.0	2back	Block1	2back/STIM_035.jpg	100
405.488	0.904	904.2	2back	Block1	2back/STIM_035.jpg	100
409.226	1.033	1033.3	2back	Block1	2back/STIM_036.jpg	100
414.112	0.515	515.0	2back	Block1	2back/STIM_036.jpg	100
418.336	0.562	562.5	2back	Block1	2back/STIM_036.jpg	100
421.993	0.715	714.6	2back	Block1	2back/STIM_037.jpg	99
425.713	0.86	859.6	2back	Block1	2back/STIM_037.jpg	99
429.994	0.842	841.9	2back	Block1	2back/STIM_037.jpg	100
432.915	0.948	947.9	2back	Block1	2back/STIM_038.jpg	99
437.361	0.805	804.6	2back	Block1	2back/STIM_038.jpg	100
441.039	0.557	556.8	2back	Block1	2back/STIM_038.jpg	99
444.074	0.749	749.0	2back	Block1	2back/STIM_039.jpg	100
447.243	0.929	929.1	2back	Block1	2back/STIM_039.jpg	99
451.298	0.936	936.3	2back	Block1	2back/STIM_039.jpg	99
454.623	0.57	570.4	0back	Block1	0back/STIM_000.jpg	100
458.188	0.524	523.7	0back	Block1	0back/STIM_000.jpg	99
462.494	0.507	506.8	0back	Block1	0back/STIM_000.jpg	100
465.999	0.503	503.0	0back	Block1	0back/STIM_001.jpg	100
469.881	0.562	561.7	0back	Block1	0back/STIM_001.jpg	99
473.95	0.604	604.2	0back	Block1	0back/STIM_001.jpg	99
478.249	0.394	394.2	0back	Block1	0back/STIM_002.jpg	99
481.492	0.55	549.9	0back	Block1	0back/STIM_002.jpg	99
485.29	0.46	460.0	0back	Block1	0back/STIM_002.jpg	99
488.496	0.419	419.4	0back	Block1	0back/STIM_003.jpg	100
491.298	0.466	466.4	0back	Block1	0back/STIM_003.jpg	100
493.795	0.464	464.2	0back	Block1	0back/STIM_003.jpg	100
497.858	0.597	597.1	0back	Block1	0back/STIM_004.jpg	100
501.878	0.548	548.3	0back	Block1	0back/STIM_004.jpg	100
504.742	0.482	481.8	0back	Block1	0back/STIM_004.jpg	99
508.58	0.532	532.4	0back	Block1	0back/STIM_005.jpg	99
511.882	0.35	349.7	0back	Block1	0back/STIM_005.jpg	99
514.326	0.42	420.5	0back	Block1	0back/STIM_005.jpg	99
517.289	0.514	513.7	0back	Block1	0back/STIM_006.jpg	99
521.665	0.584	584.3	0back	Block1	0back/STIM_006.jpg	100
524.276	0.425	425.1	0back	Block1	0back/STIM_006.jpg	99
527.407	0.607	607.2	0back	Block1	0back/STIM_007.jpg	100
530.247	0.564	564.5	0back	Block1	0back/STIM_007.jpg	99
533.745	0.468	467.7	0back	Block1	0back/STIM_007.jpg	100
537.089	0.418	417.7	0back	Block1	0back/STIM_008.jpg	100
539.612	0.455	454.8	0back	Block1	0back/STIM_008.jpg	100
542.113	0.346	345.9	0back	Block1	0back/STIM_008.jpg	99
544.477	0.392	392.3	0back	Block1	0back/STIM_009.jpg	100
546.871	0.461	461.2	0back	Block1	0back/STIM_009.jpg	100
550.675	0.384	383.6	0back	Block1	0back/STIM_009.jpg	99
554.725	0.554	554.0	0back	Block1	0back/STIM_010.jpg	100
557.812	0.527	527.2	0back	Block1	0back/STIM_010.jpg	100
560.385	0.621	620.6	0back	Block1	0back/STIM_010.jpg	100
564.163	0.617	617.3	0back	Block1	0back/STIM_011.jpg	100
568.182	0.364	364.3	0back	Block1	0back/STIM_011.jpg	100
571.846	0.322	322.2	0back	Block1	0back/STIM_011.jpg	100
575.453	0.321	321.3	0back	Block1	0back/STIM_012.jpg	100
578.647	0.621	621.2	0back	Block1	0back/STIM_012.jpg	100
582.942	0.413	412.8	0back	Block1	0back/STIM_012.jpg	99
587.178	0.346	345.9	0back	Block1	0back/STIM_013.jpg	99
590.213	0.398	398.4	0back	Block1	0back/STIM_013.jpg	100
593.886	0.607	606.6	0back	Block1	0back/STIM_013.jpg	99
598.017	0.313	312.6	0back	Block1	0back/STIM_014.jpg	100
600.987	0.588	588.4	0back	Block1	0back/STIM_014.jpg	99
605.326	0.38	380.3	0back	Block1	0back/STIM_014.jpg	100
609.425	0.533	533.1	0back	Block1	0back/STIM_015.jpg	100
613.81	0.502	502.2	0back	Block1	0back/STIM_015.jpg	99
616.679	0.455	455.4	0back	Block1	0back/STIM_015.jpg	100
619.366	0.474	474.0	0back	Block1	0back/STIM_016.jpg	99
622.031	0.536	535.8	0back	Block1	0back/STIM_016.jpg	99
626.163	0.5	499.9	0back	Block1	0back/STIM_016.jpg	100
628.998	0.569	568.9	0back	Block1	0back/STIM_017.jpg	99
632.466	0.455	455.4	0back	Block1	0back/STIM_017.jpg	100
635.672	0.549	549.2	0back	Block1	0back/STIM_017.jpg	100
638.639	0.489	488.6	0back	Block1	0back/STIM_018.jpg	100
643.066	0.528	528.3	0back	Block1	0back/STIM_018.jpg	100
646.039	0.604	603.5	0back	Block1	0back/STIM_018.jpg	100
649.934	0.514	514.1	0back	Block1	0back/STIM_019.jpg	100
654.23	0.522	521.8	0back	Block1	0back/STIM_019.jpg	99
658.109	0.592	592.1	0back	Block1	0back/STIM_019.jpg	100
661.976	0.884	883.8	2back	Block2	2back/STIM_000.jpg	100
665.837	0.486	486.4	2back	Block2	2back/STIM_000.jpg	100
668.471	0.69	690.4	2back	Block2	2back/STIM_000.jpg	99
673.133	0.845	845.1	2back	Block2	2back/STIM_001.jpg	100
676.247	0.383	382.9	2back	Block2	2back/STIM_001.jpg	100
679.209	0.453	452.6	2back	Block2	2back/STIM_001.jpg	99
683.228	0.631	631.4	2back	Block2	2back/STIM_002.jpg	99
687.033	0.539	539.4	2back	Block2	2back/STIM_002.jpg	100
689.958	0.662	662.1	2back	Block2	2back/STIM_002.jpg	99
692.849	0.683	682.6	2back	Block2	2back/STIM_003.jpg	99
696.383	0.494	494.0	2back	Block2	2back/STIM_003.jpg	99
700.016	0.414	413.8	2back	Block2	2back/STIM_003.jpg	99
703.445	0.41	410.1	2back	Block2	2back/STIM_004.jpg	99
706.72	0.479	479.2	2back	Block2	2back/STIM_004.jpg	99
709.267	0.778	777.6	2back	Block2	2back/STIM_004.jpg	100
712.867	0.794	793.8	2back	Block2	2back/STIM_005.jpg	100
717.149	0.526	526.5	2back	Block2	2back/STIM_005.jpg	100
720.374	0.483	483.2	2back	Block2	2back/STIM_005.jpg	100
723.736	0.428	428.5	2back	Block2	2back/STIM_006.jpg	100
727.221	0.596	596.2	2back	Block2	2back/STIM_006.jpg	99
729.971	0.648	648.1	2back	Block2	2back/STIM_006.jpg	100
733.861	0.88	880.4	2back	Block2	2back/STIM_007.jpg	100
738.12	0.731	730.9	2back	Block2	2back/STIM_007.jpg	99
741.448	0.501	500.8	2back	Block2	2back/STIM_007.jpg	100
744.176	0.683	683.0	2back	Block2	2back/STIM_008.jpg	99
747.301	0.775	774.7	2back	Block2	2back/STIM_008.jpg	100
751.852	0.777	776.7	2back	Block2	2back/STIM_008.jpg	99
756.453	0.688	687.5	2back	Block2	2back/STIM_009.jpg	99
759.454	0.675	674.9	2back	Block2	2back/STIM_009.jpg	99
763.762	0.397	396.6	2back	Block2	2back/STIM_009.jpg	100
767.714	0.923	923.2	2back	Block2	2back/STIM_010.jpg	100
771.632	0.726	725.6	2back	Block2	2back/STIM_010.jpg	99
774.623	0.636	635.7	2back	Block2	2back/STIM_010.jpg	99
778.452	0.767	767.3	2back	Block2	2back/STIM_011.jpg	99
781.224	0.472	471.6	2back	Block2	2back/STIM_011.jpg	100
785.573	0.483	482.9	2back	Block2	2back/STIM_011.jpg	99
788.532	0.598	598.1	2back	Block2	2back/STIM_012.jpg	100
791.518	0.391	391.2	2back	Block2	2back/STIM_012.jpg	99
794.96	0.514	514.3	2back	Block2	2back/STIM_012.jpg	100
798.295	0.417	417.2	2back	Block2	2back/STIM_013.jpg	99
802.318	0.612	611.8	2back	Block2	2back/STIM_013.jpg	100
805.103	0.579	579.3	2back	Block2	2back/STIM_013.jpg	100
808.035	0.815	815.1	2back	Block2	2back/STIM_014.jpg	99
811.159	0.849	849.2	2back	Block2	2back/STIM_014.jpg	99
814.379	0.723	723.1	2back	Block2	2back/STIM_014.jpg	100
817.863	0.607	606.8	2back	Block2	2back/STIM_015.jpg	99
821.384	0.397	397.2	2back	Block2	2back/STIM_015.jpg	99
824.091	0.743	742.7	2back	Block2	2back/STIM_015.jpg	100
827.59	0.603	602.6	2back	Block2	2back/STIM_016.jpg	99
830.678	0.788	787.6	2back	Block2	2back/STIM_016.jpg	99
834.855	0.474	474.1	2back	Block2	2back/STIM_016.jpg	100
838.403	0.547	546.6	2back	Block2	2back/STIM_017.jpg	99
841.951	0.528	528.0	2back	Block2	2back/STIM_017.jpg	100
845.964	0.727	726.6	2back	Block2	2back/STIM_017.jpg	100
850.238	0.79	789.5	2back	Block2	2back/STIM_018.jpg	99
853.162	0.58	580.0	2back	Block2	2back/STIM_018.jpg	100
855.861	0.671	671.1	2back	Block2	2back/STIM_018.jpg	99
858.998	0.813	812.6	2back	Block2	2back/STIM_019.jpg	100
862.425	0.541	541.0	2back	Block2	2back/STIM_019.jpg	99
866.315	0.645	644.8	2back	Block2	2back/STIM_019.jpg	100
870.793	0.856	855.7	2back	Block2	2back/STIM_020.jpg	99
874.103	0.416	415.5	2back	Block2	2back/STIM_020.jpg	99
878.134	0.735	735.2	2back	Block2	2back/STIM_020.jpg	99
881.924	0.56	560.0	2back	Block2	2back/STIM_021.jpg	100
886.276	0.498	497.9	2back	Block2	2back/STIM_021.jpg	100
890.486	0.52	520.4	2back	Block2	2back/STIM_021.jpg	100
894.815	0.801	800.8	2back	Block2	2back/STIM_022.jpg	99
899.147	0.449	448.8	2back	Block2	2back/STIM_022.jpg	99
902.081	0.484	484.4	2back	Block2	2back/STIM_022.jpg	100
905.72	0.68	680.0	2back	Block2	2back/STIM_023.jpg	99
908.693	0.844	844.2	2back	Block2	2back/STIM_023.jpg	99
911.616	0.73	729.7	2back	Block2	2back/STIM_023.jpg	99
915.982	0.618	618.1	2back	Block2	2back/STIM_024.jpg	100
920.498	0.755	754.8	2back	Block2	2back/STIM_024.jpg	100
925.002	0.395	395.0	2back	Block2	2back/STIM_024.jpg	100
929.119	0.891	891.0	2back	Block2	2back/STIM_025.jpg	100
932.931	0.721	720.9	2back	Block2	2back/STIM_025.jpg	99
936.543	0.428	428.4	2back	Block2	2back/STIM_025.jpg	99
939.797	0.924	923.6	2back	Block2	2back/STIM_026.jpg	100
944.639	0.608	607.6	2back	Block2	2back/STIM_026.jpg	100
949.064	0.784	783.5	2back	Block2	2back/STIM_026.jpg	100
952.034	0.79	790.1	2back	Block2	2back/STIM_027.jpg	100
954.847	0.5	500.0	2back	Block2	2back/STIM_027.jpg	99
957.628	0.75	749.6	2back	Block2	2back/STIM_027.jpg	99
962.365	0.525	524.8	2back	Block2	2back/STIM_028.jpg	99
965.74	0.394	393.5	2back	Block2	2back/STIM_028.jpg	100
968.759	0.66	660.1	2back	Block2	2back/STIM_028.jpg	99
972.101	0.844	844.4	2back	Block2	2back/STIM_029.jpg	100
975.144	0.806	805.7	2back	Block2	2back/STIM_029.jpg	99
978.549	0.664	663.8	2back	Block2	2back/STIM_029.jpg	100
982.747	0.593	592.8	2back	Block2	2back/STIM_030.jpg	100
985.76	0.756	756.1	2back	Block2	2back/STIM_030.jpg	100
988.705	0.453	453.3	2back	Block2	2back/STIM_030.jpg	99
991.338	0.564	564.1	2back	Block2	2back/STIM_031.jpg	100
993.957	0.532	531.7	2back	Block2	2back/STIM_031.jpg	100
997.374	0.648	648.0	2back	Block2	2back/STIM_031.jpg	100
1000.109	0.558	557.6	2back	Block2	2back/STIM_032.jpg	100
1003.536	0.531	531.0	2back	Block2	2back/STIM_032.jpg	100
1006.999	0.664	663.9	2back	Block2	2back/STIM_032.jpg	99
1010.789	0.87	869.8	2back	Block2	2back/STIM_033.jpg	100
1015.01	0.763	763.4	2back	Block2	2back/STIM_033.jpg	100
1019.169	0.747	747.2	2back	Block2	2back/STIM_033.jpg	99
1022.628	0.455	455.0	2back	Block2	2back/STIM_034.jpg	99
1025.475	0.875	874.7	2back	Block2	2back/STIM_034.jpg	100
1028.886	0.403	403.0	2back	Block2	2back/STIM_034.jpg	99
1031.449	0.917	916.6	2back	Block2	2back/STIM_035.jpg	99
1036.035	0.478	477.7	2back	Block2	2back/STIM_035.jpg	100
1040.062	0.734	733.6	2back	Block2	2back/STIM_035.jpg	100
1044.106	0.681	680.8	2back	Block2	2back/STIM_036.jpg	99
1047.66	0.681	681.3	2back	Block2	2back/STIM_036.jpg	100
1052.075	0.729	728.9	2back	Block2	2back/STIM_036.jpg	99
1056.412	0.632	631.7	2back	Block2	2back/STIM_037.jpg	99
1060.228	0.825	824.6	2back	Block2	2back/STIM_037.jpg	100
1064.265	0.776	776.3	2back	Block2	2back/STIM_037.jpg	99
1067.935	0.609	608.6	2back	Block2	2back/STIM_038.jpg	100
1072.495	0.436	436.3	2back	Block2	2back/STIM_038.jpg	100
1075.452	0.638	638.1	2back	Block2	2back/STIM_038.jpg	99
1078.749	0.663	663.3	2back	Block2	2back/STIM_039.jpg	99
1081.789	0.544	544.5	2back	Block2	2back/STIM_039.jpg	100
1085.856	0.575	574.6	2back	Block2	2back/STIM_039.jpg	100
1090.119	0.537	536.8	0back	Block2	0back/STIM_000.jpg	100
1093.897	0.476	476.1	0back	Block2	0back/STIM_000.jpg	99
1098.277	0.446	446.4	0back	Block2	0back/STIM_000.jpg	100
1101.529	0.531	531.2	0back	Block2	0back/STIM_001.jpg	99
1106.039	0.367	367.4	0back	Block2	0back/STIM_001.jpg	100
1108.804	0.369	369.1	0back	Block2	0back/STIM_001.jpg	100
1112.445	0.417	416.6	0back	Block2	0back/STIM_002.jpg	99
1115.228	0.586	586.5	0back	Block2	0back/STIM_002.jpg	99
1118.817	0.386	386.4	0back	Block2	0back/STIM_002.jpg	100
1121.332	0.378	378.0	0back	Block2	0back/STIM_003.jpg	99
1124.829	0.356	355.6	0back	Block2	0back/STIM_003.jpg	100
1128.883	0.519	519.3	0back	Block2	0back/STIM_003.jpg	100
1132.061	0.325	324.6	0back	Block2	0back/STIM_004.jpg	100
1135.556	0.568	567.6	0back	Block2	0back/STIM_004.jpg	100
1139.105	0.598	597.5	0back	Block2	0back/STIM_004.jpg	99
1142.396	0.435	434.6	0back	Block2	0back/STIM_005.jpg	99
1144.963	0.546	546.2	0back	Block2	0back/STIM_005.jpg	99
1148.4	0.616	616.0	0back	Block2	0back/STIM_005.jpg	99
1152.225	0.375	375.3	0back	Block2	0back/STIM_006.jpg	99
1154.641	0.445	445.4	0back	Block2	0back/STIM_006.jpg	100
1157.264	0.49	490.5	0back	Block2	0back/STIM_006.jpg	100
1160.401	0.53	529.6	0back	Block2	0back/STIM_007.jpg	99
1164.383	0.589	588.9	0back	Block2	0back/STIM_007.jpg	99
1168.591	0.403	402.9	0back	Block2	0back/STIM_007.jpg	99
1171.166	0.567	567.3	0back	Block2	0back/STIM_008.jpg	100
1175.624	0.611	611.0	0back	Block2	0back/STIM_008.jpg	100
1178.427	0.34	339.9	0back	Block2	0back/STIM_008.jpg	99
1181.821	0.533	533.3	0back	Block2	0back/STIM_009.jpg	99
1185.544	0.433	433.1	0back	Block2	0back/STIM_009.jpg	100
1188.634	0.537	536.6	0back	Block2	0back/STIM_009.jpg	99
1191.943	0.315	315.4	0back	Block2	0back/STIM_010.jpg	100
1194.904	0.49	490.5	0back	Block2	0back/STIM_010.jpg	100
1198.31	0.527	526.8	0back	Block2	0back/STIM_010.jpg	100
1200.945	0.338	338.2	0back	Block2	0back/STIM_011.jpg	99
1205.191	0.51	510.0	0back	Block2	0back/STIM_011.jpg	99
1207.852	0.492	492.1	0back	Block2	0back/STIM_011.jpg	100
1211.505	0.378	377.6	0back	Block2	0back/STIM_012.jpg	100
1215.038	0.485	485.2	0back	Block2	0back/STIM_012.jpg	99
1218.873	0.418	418.3	0back	Block2	0back/STIM_012.jpg	100
1223.228	0.42	419.5	0back	Block2	0back/STIM_013.jpg	100
1226.274	0.512	512.3	0back	Block2	0back/STIM_013.jpg	100
1229.994	0.561	561.4	0back	Block2	0back/STIM_013.jpg	100
1232.807	0.616	616.1	0back	Block2	0back/STIM_014.jpg	99
1236.442	0.38	380.3	0back	Block2	0back/STIM_014.jpg	99
1240.228	0.443	443.1	0back	Block2	0back/STIM_014.jpg	100
1243.719	0.344	344.0	0back	Block2	0back/STIM_015.jpg	99
1247.264	0.508	507.8	0back	Block2	0back/STIM_015.jpg	99
1249.894	0.391	391.3	0back	Block2	0back/STIM_015.jpg	100
1253.583	0.58	579.6	0back	Block2	0back/STIM_016.jpg	100
1256.493	0.481	480.8	0back	Block2	0back/STIM_016.jpg	99
1260.172	0.565	564.9	0back	Block2	0back/STIM_016.jpg	99
1264.339	0.575	574.8	0back	Block2	0back/STIM_017.jpg	100
1268.59	0.548	548.1	0back	Block2	0back/STIM_017.jpg	100
1271.334	0.358	357.5	0back	Block2	0back/STIM_017.jpg	99
1275.147	0.352	352.1	0back	Block2	0back/STIM_018.jpg	99
1277.637	0.425	424.7	0back	Block2	0back/STIM_018.jpg	100
1281.846	0.376	376.3	0back	Block2	0back/STIM_018.jpg	100
1284.437	0.437	436.6	0back	Block2	0back/STIM_019.jpg	100
1288.181	0.591	591.1	0back	Block2	0back/STIM_019.jpg	100
1291.782	0.489	488.7	0back	Block2	0back/STIM_019.jpg	100
1295.815	0.418	418.2	2back	Block3	2back/STIM_000.jpg	99
1298.393	0.592	592.1	2back	Block3	2back/STIM_000.jpg	99
1302.842	0.585	584.6	2back	Block3	2back/STIM_000.jpg	99
1306.71	0.345	344.8	2back	Block3	2back/STIM_001.jpg	99
1309.482	0.332	332.2	2back	Block3	2back/STIM_001.jpg	100
1312.86	0.503	503.5	2back	Block3	2back/STIM_001.jpg	100
1315.55	0.373	372.9	2back	Block3	2back/STIM_002.jpg	100
1318.124	0.584	584.2	2back	Block3	2back/STIM_002.jpg	99
1320.923	0.669	669.2	2back	Block3	2back/STIM_002.jpg	99
1325.44	0.408	407.5	2back	Block3	2back/STIM_003.jpg	99
1328.83	0.744	744.2	2back	Block3	2back/STIM_003.jpg	100
1332.122	0.765	765.0	2back	Block3	2back/STIM_003.jpg	99
1335.886	0.685	684.7	2back	Block3	2back/STIM_004.jpg	99
1339.503	0.535	534.8	2back	Block3	2back/STIM_004.jpg	100
1343.366	0.709	709.1	2back	Block3	2back/STIM_004.jpg	99
1346.246	0.587	587.3	2back	Block3	2back/STIM_005.jpg	100
1349.393	0.456	456.2	2back	Block3	2back/STIM_005.jpg	99
1352.055	0.709	709.2	2back	Block3	2back/STIM_005.jpg	99
1355.651	0.61	610.1	2back	Block3	2back/STIM_006.jpg	99
1359.068	0.762	761.8	2back	Block3	2back/STIM_006.jpg	100
1362.318	0.726	726.2	2back	Block3	2back/STIM_006.jpg	100
1366.205	0.719	719.3	2back	Block3	2back/STIM_007.jpg	99
1369.56	0.742	741.6	2back	Block3	2back/STIM_007.jpg	100
1372.748	0.52	520.0	2back	Block3	2back/STIM_007.jpg	100
1376.993	0.537	537.2	2back	Block3	2back/STIM_008.jpg	99
1380.248	0.476	475.6	2back	Block3	2back/STIM_008.jpg	99
1383.344	0.612	611.9	2back	Block3	2back/STIM_008.jpg	99
1387.953	0.7	699.6	2back	Block3	2back/STIM_009.jpg	100
1391.823	0.413	412.8	2back	Block3	2back/STIM_009.jpg	99
1395.744	0.37	370.5	2back	Block3	2back/STIM_009.jpg	99
1398.247	0.426	426.2	2back	Block3	2back/STIM_010.jpg	100
1401.919	0.721	720.9	2back	Block3	2back/STIM_010.jpg	100
1406.251	0.461	460.7	2back	Block3	2back/STIM_010.jpg	100
1409.942	0.364	363.7	2back	Block3	2back/STIM_011.jpg	99
1413.264	0.354	353.8	2back	Block3	2back/STIM_011.jpg	99
1417.424	0.512	512.3	2back	Block3	2back/STIM_011.jpg	99
1420.933	0.371	370.7	2back	Block3	2back/STIM_012.jpg	100
1423.464	0.542	542.1	2back	Block3	2back/STIM_012.jpg	99
1426.567	0.682	681.6	2back	Block3	2back/STIM_012.jpg	99
1430.456	0.752	752.4	2back	Block3	2back/STIM_013.jpg	99
1434.494	0.66	659.7	2back	Block3	2back/STIM_013.jpg	100
1437.406	0.507	507.3	2back	Block3	2back/STIM_013.jpg	100
1440.29	0.626	625.5	2back	Block3	2back/STIM_014.jpg	99
1443.185	0.518	518.5	2back	Block3	2back/STIM_014.jpg	99
1445.983	0.597	596.9	2back	Block3	2back/STIM_014.jpg	100
1449.497	0.434	434.0	2back	Block3	2back/STIM_015.jpg	100
1453.245	0.72	720.1	2back	Block3	2back/STIM_015.jpg	99
1456.22	0.613	612.8	2back	Block3	2back/STIM_015.jpg	100
1459.203	0.595	595.2	2back	Block3	2back/STIM_016.jpg	99
1462.438	0.53	529.8	2back	Block3	2back/STIM_016.jpg	100
1466.856	0.615	615.1	2back	Block3	2back/STIM_016.jpg	99
1470.794	0.57	570.5	2back	Block3	2back/STIM_017.jpg	100
1473.849	0.377	377.1	2back	Block3	2back/STIM_017.jpg	100
1478.218	0.446	445.9	2back	Block3	2back/STIM_017.jpg	99
1481.481	0.433	433.1	2back	Block3	2back/STIM_018.jpg	99
1485.313	0.704	703.5	2back	Block3	2back/STIM_018.jpg	100
1488.772	0.659	658.6	2back	Block3	2back/STIM_018.jpg	100
1492.988	0.476	476.2	2back	Block3	2back/STIM_019.jpg	99
1496.197	0.36	360.5	2back	Block3	2back/STIM_019.jpg	99
1500.094	0.384	384.4	2back	Block3	2back/STIM_019.jpg	100
1504.256	0.571	570.8	2back	Block3	2back/STIM_020.jpg	99
1508.229	0.515	515.3	2back	Block3	2back/STIM_020.jpg	99
1511.155	0.491	491.1	2back	Block3	2back/STIM_020.jpg	100
1515.594	0.642	641.6	2back	Block3	2back/STIM_021.jpg	100
1518.889	0.687	686.6	2back	Block3	2back/STIM_021.jpg	99
1522.038	0.332	332.1	2back	Block3	2back/STIM_021.jpg	100
1525.821	0.64	639.7	2back	Block3	2back/STIM_022.jpg	99
1529.461	0.523	522.8	2back	Block3	2back/STIM_022.jpg	99
1532.777	0.722	721.7	2back	Block3	2back/STIM_022.jpg	100
1537.467	0.484	484.4	2back	Block3	2back/STIM_023.jpg	99
1541.612	0.409	409.0	2back	Block3	2back/STIM_023.jpg	99
1544.96	0.427	426.8	2back	Block3	2back/STIM_023.jpg	100
1549.079	0.764	764.3	2back	Block3	2back/STIM_024.jpg	99
1552.383	0.679	678.7	2back	Block3	2back/STIM_024.jpg	99
1555.201	0.425	424.6	2back	Block3	2back/STIM_024.jpg	99
1558.253	0.585	584.7	2back	Block3	2back/STIM_025.jpg	100
1562.657	0.719	718.9	2back	Block3	2back/STIM_025.jpg	99
1566.201	0.342	342.5	2back	Block3	2back/STIM_025.jpg	100
1569.415	0.362	362.5	2back	Block3	2back/STIM_026.jpg	99
1573.029	0.693	692.7	2back	Block3	2back/STIM_026.jpg	99
1577.647	0.381	380.7	2back	Block3	2back/STIM_026.jpg	100
1581.423	0.72	720.1	2back	Block3	2back/STIM_027.jpg	99
1584.271	0.626	626.0	2back	Block3	2back/STIM_027.jpg	99
1588.163	0.436	436.3	2back	Block3	2back/STIM_027.jpg	99
1591.63	0.386	386.0	2back	Block3	2back/STIM_028.jpg	99
1595.411	0.428	427.5	2back	Block3	2back/STIM_028.jpg	99
1598.612	0.679	679.4	2back	Block3	2back/STIM_028.jpg	99
1602.024	0.594	593.8	2back	Block3	2back/STIM_029.jpg	100
1606.506	0.356	355.5	2back	Block3	2back/STIM_029.jpg	99
1610.388	0.43	430.1	2back	Block3	2back/STIM_029.jpg	99
1613.544	0.394	393.5	2back	Block3	2back/STIM_030.jpg	100
1616.57	0.479	479.1	2back	Block3	2back/STIM_030.jpg	99
1620.404	0.485	485.3	2back	Block3	2back/STIM_030.jpg	99
1623.728	0.335	335.0	2back	Block3	2back/STIM_031.jpg	99
1627.834	0.34	339.9	2back	Block3	2back/STIM_031.jpg	99
1631.016	0.743	743.4	2back	Block3	2back/STIM_031.jpg	100
1634.057	0.695	695.1	2back	Block3	2back/STIM_032.jpg	100
1637.578	0.393	393.4	2back	Block3	2back/STIM_032.jpg	99
1640.488	0.588	588.5	2back	Block3	2back/STIM_032.jpg	100
1645.075	0.648	647.6	2back	Block3	2back/STIM_033.jpg	100
1648.011	0.568	567.7	2back	Block3	2back/STIM_033.jpg	100
1651.742	0.479	479.1	2back	Block3	2back/STIM_033.jpg	100
1654.718	0.694	694.3	2back	Block3	2back/STIM_034.jpg	99
1658.904	0.716	715.7	2back	Block3	2back/STIM_034.jpg	99
1662.064	0.336	336.0	2back	Block3	2back/STIM_034.jpg	99
1665.614	0.37	370.0	2back	Block3	2back/STIM_035.jpg	99
1668.357	0.688	688.0	2back	Block3	2back/STIM_035.jpg	100
1671.427	0.506	506.2	2back	Block3	2back/STIM_035.jpg	100
1674.485	0.537	537.1	2back	Block3	2back/STIM_036.jpg	99
1678.992	0.76	760.3	2back	Block3	2back/STIM_036.jpg	100
1682.296	0.734	734.5	2back	Block3	2back/STIM_036.jpg	100
1686.386	0.484	484.0	2back	Block3	2back/STIM_037.jpg	99
1689.607	0.739	738.8	2back	Block3	2back/STIM_037.jpg	100
1693.958	0.379	378.8	2back	Block3	2back/STIM_037.jpg	99
1696.772	0.544	543.6	2back	Block3	2back/STIM_038.jpg	100
1700.872	0.634	633.7	2back	Block3	2back/STIM_038.jpg	100
1704.058	0.387	386.6	2back	Block3	2back/STIM_038.jpg	100
1706.807	0.386	386.2	2back	Block3	2back/STIM_039.jpg	99
1709.939	0.648	647.7	2back	Block3	2back/STIM_039.jpg	99
1714.273	0.448	448.2	2back	Block3	2back/STIM_039.jpg	99
1718.286	0.425	425.2	0back	Block3	0back/STIM_000.jpg	99
1722.599	0.49	490.3	0back	Block3	0back/STIM_000.jpg	99
1725.249	0.406	406.0	0back	Block3	0back/STIM_000.jpg	100
1727.814	0.429	429.2	0back	Block3	0back/STIM_001.jpg	100
1731.215	0.588	588.3	0back	Block3	0back/STIM_001.jpg	100
1734.421	0.415	415.4	0back	Block3	0back/STIM_001.jpg	100
1738.409	0.584	584.2	0back	Block3	0back/STIM_002.jpg	100
1742.31	0.397	397.4	0back	Block3	0back/STIM_002.jpg	99
1746.322	0.481	480.9	0back	Block3	0back/STIM_002.jpg	100
1750.238	0.505	505.0	0back	Block3	0back/STIM_003.jpg	99
1754.039	0.554	554.1	0back	Block3	0back/STIM_003.jpg	100
1758.347	0.531	531.1	0back	Block3	0back/STIM_003.jpg	99
1762.299	0.616	616.5	0back	Block3	0back/STIM_004.jpg	100
1765.015	0.546	545.9	0back	Block3	0back/STIM_004.jpg	100
1769.341	0.443	443.4	0back	Block3	0back/STIM_004.jpg	100
1772.268	0.381	381.2	0back	Block3	0back/STIM_005.jpg	100
1775.921	0.449	448.8	0back	Block3	0back/STIM_005.jpg	100
1780.284	0.437	437.4	0back	Block3	0back/STIM_005.jpg	100
1783.018	0.501	500.7	0back	Block3	0back/STIM_006.jpg	99
1787.091	0.478	478.4	0back	Block3	0back/STIM_006.jpg	99
1791.119	0.338	337.6	0back	Block3	0back/STIM_006.jpg	99
1795.068	0.484	484.2	0back	Block3	0back/STIM_007.jpg	100
1797.935	0.42	419.9	0back	Block3	0back/STIM_007.jpg	99
1801.188	0.489	489.2	0back	Block3	0back/STIM_007.jpg	100
1805.261	0.432	431.7	0back	Block3	0back/STIM_008.jpg	99
1808.207	0.473	472.8	0back	Block3	0back/STIM_008.jpg	99
1812.347	0.407	407.4	0back	Block3	0back/STIM_008.jpg	100
1815.326	0.379	379.2	0back	Block3	0back/STIM_009.jpg	100
1819.294	0.347	347.0	0back	Block3	0back/STIM_009.jpg	100
1822.393	0.315	314.6	0back	Block3	0back/STIM_009.jpg	99
1826.135	0.378	377.7	0back	Block3	0back/STIM_010.jpg	99
1829.642	0.324	323.6	0back	Block3	0back/STIM_010.jpg	99
1833.665	0.335	335.1	0back	Block3	0back/STIM_010.jpg	100
1836.88	0.419	418.7	0back	Block3	0back/STIM_011.jpg	100
1840.436	0.366	365.7	0back	Block3	0back/STIM_011.jpg	100
1843.9	0.584	583.7	0back	Block3	0back/STIM_011.jpg	99
1847.294	0.582	581.7	0back	Block3	0back/STIM_012.jpg	100
1850.236	0.39	390.0	0back	Block3	0back/STIM_012.jpg	99
1853.572	0.59	590.2	0back	Block3	0back/STIM_012.jpg	99
1857.643	0.535	535.0	0back	Block3	0back/STIM_013.jpg	100
1861.361	0.591	590.7	0back	Block3	0back/STIM_013.jpg	99
1864.763	0.612	611.7	0back	Block3	0back/STIM_013.jpg	100
1867.547	0.363	362.9	0back	Block3	0back/STIM_014.jpg	99
1871.022	0.538	537.6	0back	Block3	0back/STIM_014.jpg	99
1874.321	0.559	558.8	0back	Block3	0back/STIM_014.jpg	100
1877.541	0.539	539.3	0back	Block3	0back/STIM_015.jpg	99
1881.771	0.34	340.2	0back	Block3	0back/STIM_015.jpg	99
1884.299	0.35	349.9	0back	Block3	0back/STIM_015.jpg	99
1888.08	0.583	583.3	0back	Block3	0back/STIM_016.jpg	99
1891.132	0.601	600.7	0back	Block3	0back/STIM_016.jpg	100
1894.126	0.541	540.8	0back	Block3	0back/STIM_016.jpg	99
1898.584	0.332	331.5	0back	Block3	0back/STIM_017.jpg	100
1902.06	0.526	526.3	0back	Block3	0back/STIM_017.jpg	100
1904.773	0.525	525.1	0back	Block3	0back/STIM_017.jpg	99
1907.923	0.53	529.8	0back	Block3	0back/STIM_018.jpg	99
1910.659	0.369	368.6	0back	Block3	0back/STIM_018.jpg	99
1913.277	0.426	425.5	0back	Block3	0back/STIM_018.jpg	99
1916.606	0.535	535.1	0back	Block3	0back/STIM_019.jpg	100
1920.657	0.39	389.6	0back	Block3	0back/STIM_019.jpg	99
1923.949	0.408	407.9	0back	Block3	0back/STIM_019.jpg	100
1928.118	0.681	681.4	2back	Block4	2back/STIM_000.jpg	100
1931.891	0.757	756.6	2back	Block4	2back/STIM_000.jpg	100
1934.682	0.342	341.8	2back	Block4	2back/STIM_000.jpg	100
1938.9	0.55	549.5	2back	Block4	2back/STIM_001.jpg	99
1942.384	0.368	367.9	2back	Block4	2back/STIM_001.jpg	99
1945.685	0.483	482.8	2back	Block4	2back/STIM_001.jpg	100
1949.593	0.404	403.5	2back	Block4	2back/STIM_002.jpg	100
1953.831	0.4	400.4	2back	Block4	2back/STIM_002.jpg	99
1956.94	0.519	519.1	2back	Block4	2back/STIM_002.jpg	99
1959.476	0.375	375.0	2back	Block4	2back/STIM_003.jpg	99
1963.162	0.423	422.7	2back	Block4	2back/STIM_003.jpg	99
1967.164	0.33	330.2	2back	Block4	2back/STIM_003.jpg	100
1970.925	0.344	344.0	2back	Block4	2back/STIM_004.jpg	100
1973.293	0.493	493.4	2back	Block4	2back/STIM_004.jpg	100
1977.593	0.733	732.6	2back	Block4	2back/STIM_004.jpg	99
1981.152	0.499	498.8	2back	Block4	2back/STIM_005.jpg	99
1985.427	0.628	627.7	2back	Block4	2back/STIM_005.jpg	99
1988.905	0.382	381.5	2back	Block4	2back/STIM_005.jpg	99
1992.775	0.357	356.6	2back	Block4	2back/STIM_006.jpg	99
1996.358	0.644	644.0	2back	Block4	2back/STIM_006.jpg	99
1999.301	0.522	521.7	2back	Block4	2back/STIM_006.jpg	100
2002.202	0.426	426.4	2back	Block4	2back/STIM_007.jpg	99
2005.191	0.765	764.6	2back	Block4	2back/STIM_007.jpg	99
2009.378	0.679	678.6	2back	Block4	2back/STIM_007.jpg	99
2013.866	0.59	589.6	2back	Block4	2back/STIM_008.jpg	99
2016.982	0.431	431.0	2back	Block4	2back/STIM_008.jpg	100
2021.253	0.736	736.5	2back	Block4	2back/STIM_008.jpg	100
2024.029	0.371	371.3	2back	Block4	2back/STIM_009.jpg	99
2028.11	0.468	467.8	2back	Block4	2back/STIM_009.jpg	99
2030.861	0.368	368.2	2back	Block4	2back/STIM_009.jpg	99
2034.03	0.494	494.1	2back	Block4	2back/STIM_010.jpg	100
2036.85	0.443	442.6	2back	Block4	2back/STIM_010.jpg	100
2039.829	0.386	386.4	2back	Block4	2back/STIM_010.jpg	99
2044.205	0.538	538.2	2back	Block4	2back/STIM_011.jpg	99
2048.54	0.482	482.3	2back	Block4	2back/STIM_011.jpg	100
2052.993	0.586	586.0	2back	Block4	2back/STIM_011.jpg	99
2057.508	0.556	555.8	2back	Block4	2back/STIM_012.jpg	100
2060.332	0.435	434.9	2back	Block4	2back/STIM_012.jpg	99
2063.574	0.561	561.4	2back	Block4	2back/STIM_012.jpg	100
2066.421	0.335	334.6	2back	Block4	2back/STIM_013.jpg	99
2070.372	0.372	372.1	2back	Block4	2back/STIM_013.jpg	100
2073.328	0.439	438.9	2back	Block4	2back/STIM_013.jpg	100
2077.385	0.674	674.4	2back	Block4	2back/STIM_014.jpg	99
2080.959	0.604	604.3	2back	Block4	2back/STIM_014.jpg	100
2085.303	0.688	687.7	2back	Block4	2back/STIM_014.jpg	99
2089.253	0.389	388.9	2back	Block4	2back/STIM_015.jpg	100
2091.996	0.588	588.4	2back	Block4	2back/STIM_015.jpg	99
2095.841	0.49	489.7	2back	Block4	2back/STIM_015.jpg	100
2098.979	0.33	330.4	2back	Block4	2back/STIM_016.jpg	100
2102.22	0.347	347.4	2back	Block4	2back/STIM_016.jpg	99
2104.765	0.342	342.0	2back	Block4	2back/STIM_016.jpg	100
2108.624	0.447	446.7	2back	Block4	2back/STIM_017.jpg	99
2111.344	0.735	735.1	2back	Block4	2back/STIM_017.jpg	99
2114.916	0.5	500.2	2back	Block4	2back/STIM_017.jpg	99
2117.712	0.465	465.2	2back	Block4	2back/STIM_018.jpg	100
2121.024	0.395	395.3	2back	Block4	2back/STIM_018.jpg	99
2123.931	0.635	634.6	2back	Block4	2back/STIM_018.jpg	100
2127.791	0.514	514.5	2back	Block4	2back/STIM_019.jpg	99
2131.179	0.442	441.7	2back	Block4	2back/STIM_019.jpg	99
2135.271	0.456	455.9	2back	Block4	2back/STIM_019.jpg	99
2138.137	0.435	434.7	2back	Block4	2back/STIM_020.jpg	99
2142.184	0.4	399.8	2back	Block4	2back/STIM_020.jpg	99
2146.191	0.528	527.5	2back	Block4	2back/STIM_020.jpg	99
2148.979	0.49	489.7	2back	Block4	2back/STIM_021.jpg	99
2152.113	0.733	733.2	2back	Block4	2back/STIM_021.jpg	100
2154.989	0.763	763.3	2back	Block4	2back/STIM_021.jpg	99
2157.786	0.546	546.0	2back	Block4	2back/STIM_022.jpg	100
2160.851	0.549	548.8	2back	Block4	2back/STIM_022.jpg	99
2165.374	0.394	393.9	2back	Block4	2back/STIM_022.jpg	100
2168.163	0.505	505.3	2back	Block4	2back/STIM_023.jpg	99
2172.12	0.41	410.1	2back	Block4	2back/STIM_023.jpg	100
2176.505	0.595	594.8	2back	Block4	2back/STIM_023.jpg	100
2179.885	0.658	658.3	2back	Block4	2back/STIM_024.jpg	100
2184.475	0.618	618.5	2back	Block4	2back/STIM_024.jpg	100
2187.677	0.579	578.7	2back	Block4	2back/STIM_024.jpg	100
2191.773	0.567	567.1	2back	Block4	2back/STIM_025.jpg	99
2195.675	0.428	428.1	2back	Block4	2back/STIM_025.jpg	100
2199.969	0.726	726.1	2back	Block4	2back/STIM_025.jpg	99
2204.422	0.392	392.4	2back	Block4	2back/STIM_026.jpg	99
2207.96	0.442	441.6	2back	Block4	2back/STIM_026.jpg	99
2211.283	0.379	379.4	2back	Block4	2back/STIM_026.jpg	100
2213.825	0.415	414.6	2back	Block4	2back/STIM_027.jpg	99
2216.549	0.451	450.6	2back	Block4	2back/STIM_027.jpg	99
2219.33	0.46	460.5	2back	Block4	2back/STIM_027.jpg	99
2223.069	0.38	379.9	2back	Block4	2back/STIM_028.jpg	99
2225.484	0.338	338.4	2back	Block4	2back/STIM_028.jpg	99
2228.468	0.541	541.1	2back	Block4	2back/STIM_028.jpg	99
2231.811	0.341	340.7	2back	Block4	2back/STIM_029.jpg	99
2234.181	0.576	576.5	2back	Block4	2back/STIM_029.jpg	99
2238.155	0.335	334.6	2back	Block4	2back/STIM_029.jpg	100
2241.352	0.595	595.2	2back	Block4	2back/STIM_030.jpg	99
2245.686	0.746	745.5	2back	Block4	2back/STIM_030.jpg	99
2249.796	0.601	600.8	2back	Block4	2back/STIM_030.jpg	100
2254.124	0.622	622.5	2back	Block4	2back/STIM_031.jpg	100
2257.325	0.563	563.4	2back	Block4	2back/STIM_031.jpg	99
2259.933	0.414	414.1	2back	Block4	2back/STIM_031.jpg	99
2262.662	0.426	426.3	2back	Block4	2back/STIM_032.jpg	99
2266.644	0.602	601.5	2back	Block4	2back/STIM_032.jpg	100
2269.312	0.644	644.4	2back	Block4	2back/STIM_032.jpg	100
2273.377	0.634	634.2	2back	Block4	2back/STIM_033.jpg	99
2277.699	0.669	669.0	2back	Block4	2back/STIM_033.jpg	99
2280.695	0.552	552.5	2back	Block4	2back/STIM_033.jpg	100
2284.195	0.497	496.8	2back	Block4	2back/STIM_034.jpg	100
2287.53	0.361	361.1	2back	Block4	2back/STIM_034.jpg	100
2289.895	0.657	656.6	2back	Block4	2back/STIM_034.jpg	100
2292.702	0.578	577.5	2back	Block4	2back/STIM_035.jpg	99
2295.802	0.447	447.1	2back	Block4	2back/STIM_035.jpg	100
2299.513	0.34	339.5	2back	Block4	2back/STIM_035.jpg	100
2302.11	0.703	703.2	2back	Block4	2back/STIM_036.jpg	100
2306.733	0.723	723.3	2back	Block4	2back/STIM_036.jpg	99
2310.771	0.464	464.0	2back	Block4	2back/STIM_036.jpg	99
2314.835	0.583	582.6	2back	Block4	2back/STIM_037.jpg	100
2318.562	0.424	424.5	2back	Block4	2back/STIM_037.jpg	99
2322.713	0.655	654.9	2back	Block4	2back/STIM_037.jpg	100
2326.327	0.668	668.0	2back	Block4	2back/STIM_038.jpg	100
2330.243	0.558	558.4	2back	Block4	2back/STIM_038.jpg	100
2333.152	0.759	759.0	2back	Block4	2back/STIM_038.jpg	100
2336.212	0.544	543.8	2back	Block4	2back/STIM_039.jpg	100
2339.764	0.5	499.9	2back	Block4	2back/STIM_039.jpg	99
2343.072	0.377	377.4	2back	Block4	2back/STIM_039.jpg	100
2346.115	0.561	560.7	0back	Block4	0back/STIM_000.jpg	99
2349.491	0.458	458.3	0back	Block4	0back/STIM_000.jpg	100
2352.832	0.498	498.0	0back	Block4	0back/STIM_000.jpg	100
2356.21	0.326	326.2	0back	Block4	0back/STIM_001.jpg	99
2358.964	0.61	610.2	0back	Block4	0back/STIM_001.jpg	100
2362.454	0.556	555.8	0back	Block4	0back/STIM_001.jpg	99
2366.924	0.52	520.3	0back	Block4	0back/STIM_002.jpg	100
2370.769	0.546	546.5	0back	Block4	0back/STIM_002.jpg	100
2374.196	0.431	430.7	0back	Block4	0back/STIM_002.jpg	100
2377.496	0.576	576.0	0back	Block4	0back/STIM_003.jpg	99
2381.45	0.571	570.6	0back	Block4	0back/STIM_003.jpg	100
2385.275	0.51	510.0	0back	Block4	0back/STIM_003.jpg	99
2388.764	0.417	417.2	0back	Block4	0back/STIM_004.jpg	99
2391.211	0.498	498.3	0back	Block4	0back/STIM_004.jpg	99
2395.489	0.385	385.4	0back	Block4	0back/STIM_004.jpg	100
2399.281	0.314	313.7	0back	Block4	0back/STIM_005.jpg	100
2402.663	0.4	400.2	0back	Block4	0back/STIM_005.jpg	99
2406.068	0.507	507.2	0back	Block4	0back/STIM_005.jpg	100
2410.366	0.511	510.7	0back	Block4	0back/STIM_006.jpg	99
2413.007	0.584	584.0	0back	Block4	0back/STIM_006.jpg	99
2416.257	0.537	537.3	0back	Block4	0back/STIM_006.jpg	99
2420.286	0.387	386.9	0back	Block4	0back/STIM_007.jpg	99
2423.58	0.473	473.0	0back	Block4	0back/STIM_007.jpg	99
2427.058	0.485	485.4	0back	Block4	0back/STIM_007.jpg	100
2429.949	0.6	600.2	0back	Block4	0back/STIM_008.jpg	100
2434.103	0.47	469.9	0back	Block4	0back/STIM_008.jpg	99
2437.903	0.392	391.9	0back	Block4	0back/STIM_008.jpg	100
2442.067	0.603	603.2	0back	Block4	0back/STIM_009.jpg	100
2446.079	0.482	481.6	0back	Block4	0back/STIM_009.jpg	99
2448.856	0.377	377.3	0back	Block4	0back/STIM_009.jpg	100
2453.166	0.442	442.1	0back	Block4	0back/STIM_010.jpg	99
2457.212	0.556	556.5	0back	Block4	0back/STIM_010.jpg	100
2461.341	0.457	457.2	0back	Block4	0back/STIM_010.jpg	100
2464.002	0.61	610.3	0back	Block4	0back/STIM_011.jpg	99
2468.347	0.37	370.0	0back	Block4	0back/STIM_011.jpg	99
2470.906	0.531	531.2	0back	Block4	0back/STIM_011.jpg	99
2475.161	0.559	559.3	0back	Block4	0back/STIM_012.jpg	99
2478.8	0.543	542.6	0back	Block4	0back/STIM_012.jpg	99
2481.627	0.497	496.6	0back	Block4	0back/STIM_012.jpg	99
2485.927	0.549	549.1	0back	Block4	0back/STIM_013.jpg	100
2489.978	0.465	464.9	0back	Block4	0back/STIM_013.jpg	100
2494.319	0.404	404.4	0back	Block4	0back/STIM_013.jpg	100
2497.145	0.613	612.7	0back	Block4	0back/STIM_014.jpg	99
2499.85	0.565	565.4	0back	Block4	0back/STIM_014.jpg	100
2503.354	0.365	365.0	0back	Block4	0back/STIM_014.jpg	99
2507.699	0.604	604.5	0back	Block4	0back/STIM_015.jpg	99
2512.266	0.481	481.3	0back	Block4	0back/STIM_015.jpg	100
2515.712	0.592	591.6	0back	Block4	0back/STIM_015.jpg	100
2519.605	0.573	573.0	0back	Block4	0back/STIM_016.jpg	100
2522.463	0.421	420.9	0back	Block4	0back/STIM_016.jpg	99
2525.442	0.458	457.7	0back	Block4	0back/STIM_016.jpg	100
2529.694	0.4	400.2	0back	Block4	0back/STIM_017.jpg	100
2532.381	0.567	567.2	0back	Block4	0back/STIM_017.jpg	100
2535.727	0.507	506.7	0back	Block4	0back/STIM_017.jpg	99
2538.979	0.454	454.1	0back	Block4	0back/STIM_018.jpg	100
2543.365	0.341	341.2	0back	Block4	0back/STIM_018.jpg	99
2545.991	0.623	623.3	0back	Block4	0back/STIM_018.jpg	100
2550.358	0.411	410.6	0back	Block4	0back/STIM_019.jpg	99
2553.683	0.431	431.1	0back	Block4	0back/STIM_019.jpg	100
2557.889	0.531	531.0	0back	Block4	0back/STIM_019.jpg	99
