onset	duration	accuracy	trial_type	learning_stage	stimulus
0.0	0.911	correct	2back	Block1	2back/STIM_000.jpg
4.339	0.741	correct	2back	Block1	2back/STIM_000.jpg
8.362	0.515	correct	2back	Block1	2back/STIM_000.jpg
11.907	0.736	correct	2back	Block1	2back/STIM_001.jpg
14.639	1.028	correct	2back	Block1	2back/STIM_001.jpg
19.536	1.057	correct	2back	Block1	2back/STIM_001.jpg
22.919	1.312	correct	2back	Block1	2back/STIM_002.jpg
27.678	0.817	correct	2back	Block1	2back/STIM_002.jpg
30.84	0.907	correct	2back	Block1	2back/STIM_002.jpg
35.563	0.8	correct	2back	Block1	2back/STIM_003.jpg
40.294	1.027	incorrect	2back	Block1	2back/STIM_003.jpg
43.482	0.958	correct	2back	Block1	2back/STIM_003.jpg
46.779	1.123	correct	2back	Block1	2back/STIM_004.jpg
51.742	1.11	correct	2back	Block1	2back/STIM_004.jpg
55.761	0.75	correct	2back	Block1	2back/STIM_004.jpg
60.033	1.359	correct	2back	Block1	2back/STIM_005.jpg
64.816	1.132	correct	2back	Block1	2back/STIM_005.jpg
68.234	0.882	correct	2back	Block1	2back/STIM_005.jpg
71.654	0.848	incorrect	2back	Block1	2back/STIM_006.jpg
75.239	0.981	correct	2back	Block1	2back/STIM_006.jpg
79.023	0.885	correct	2back	Block1	2back/STIM_006.jpg
83.117	0.728	correct	2back	Block1	2back/STIM_007.jpg
87.525	1.208	incorrect	2back	Block1	2back/STIM_007.jpg
92.403	0.736	correct	2back	Block1	2back/STIM_007.jpg
96.479	0.904	correct	2back	Block1	2back/STIM_008.jpg
99.98	1.218	correct	2back	Block1	2back/STIM_008.jpg
104.363	0.573	correct	2back	Block1	2back/STIM_008.jpg
107.845	0.694	correct	2back	Block1	2back/STIM_009.jpg
112.216	0.913	incorrect	2back	Block1	2back/STIM_009.jpg
115.342	0.6	correct	2back	Block1	2back/STIM_009.jpg
119.263	0.788	incorrect	2back	Block1	2back/STIM_010.jpg
122.906	0.623	correct	2back	Block1	2back/STIM_010.jpg
127.6	0.945	correct	2back	Block1	2back/STIM_010.jpg
130.699	1.327	correct	2back	Block1	2back/STIM_011.jpg
135.27	0.804	correct	2back	Block1	2back/STIM_011.jpg
139.77	0.799	correct	2back	Block1	2back/STIM_011.jpg
143.88	0.769	correct	2back	Block1	2back/STIM_012.jpg
147.961	0.806	correct	2back	Block1	2back/STIM_012.jpg
151.931	0.86	incorrect	2back	Block1	2back/STIM_012.jpg
156.373	1.058	correct	2back	Block1	2back/STIM_013.jpg
161.244	1.115	correct	2back	Block1	2back/STIM_013.jpg
165.164	0.558	correct	2back	Block1	2back/STIM_013.jpg
169.406	1.149	correct	2back	Block1	2back/STIM_014.jpg
174.175	0.965	correct	2back	Block1	2back/STIM_014.jpg
177.874	0.886	incorrect	2back	Block1	2back/STIM_014.jpg
180.971	0.583	correct	2back	Block1	2back/STIM_015.jpg
185.316	1.262	correct	2back	Block1	2back/STIM_015.jpg
189.099	0.864	incorrect	2back	Block1	2back/STIM_015.jpg
192.677	0.955	correct	2back	Block1	2back/STIM_016.jpg
196.357	0.9	correct	2back	Block1	2back/STIM_016.jpg
200.79	1.034	incorrect	2back	Block1	2back/STIM_016.jpg
205.882	0.84	correct	2back	Block1	2back/STIM_017.jpg
209.643	0.598	correct	2back	Block1	2back/STIM_017.jpg
213.763	1.004	correct	2back	Block1	2back/STIM_017.jpg
217.876	1.051	correct	2back	Block1	2back/STIM_018.jpg
220.904	0.953	incorrect	2back	Block1	2back/STIM_018.jpg
224.31	0.849	correct	2back	Block1	2back/STIM_018.jpg
227.28	0.86	incorrect	2back	Block1	2back/STIM_019.jpg
231.083	0.778	correct	2back	Block1	2back/STIM_019.jpg
233.915	0.827	correct	2back	Block1	2back/STIM_019.jpg
237.777	1.241	correct	2back	Block1	2back/STIM_020.jpg
242.037	0.829	correct	2back	Block1	2back/STIM_020.jpg
245.564	0.841	correct	2back	Block1	2back/STIM_020.jpg
248.659	0.697	correct	2back	Block1	2back/STIM_021.jpg
251.728	0.654	correct	2back	Block1	2back/STIM_021.jpg
255.295	1.189	correct	2back	Block1	2back/STIM_021.jpg
259.968	1.014	correct	2back	Block1	2back/STIM_022.jpg
264.626	0.942	correct	2back	Block1	2back/STIM_022.jpg
267.911	0.859	correct	2back	Block1	2back/STIM_022.jpg
270.875	0.756	correct	2back	Block1	2back/STIM_023.jpg
274.677	1.07	correct	2back	Block1	2back/STIM_023.jpg
278.41	0.568	correct	2back	Block1	2back/STIM_023.jpg
281.499	0.8	correct	2back	Block1	2back/STIM_024.jpg
286.074	0.646	correct	2back	Block1	2back/STIM_024.jpg
289.251	0.883	correct	2back	Block1	2back/STIM_024.jpg
292.451	0.753	correct	2back	Block1	2back/STIM_025.jpg
296.643	0.949	correct	2back	Block1	2back/STIM_025.jpg
301.303	0.95	correct	2back	Block1	2back/STIM_025.jpg
305.727	0.762	correct	2back	Block1	2back/STIM_026.jpg
309.524	0.87	correct	2back	Block1	2back/STIM_026.jpg
313.863	0.935	correct	2back	Block1	2back/STIM_026.jpg
317.157	0.839	correct	2back	Block1	2back/STIM_027.jpg
320.528	0.918	incorrect	2back	Block1	2back/STIM_027.jpg
324.487	1.28	correct	2back	Block1	2back/STIM_027.jpg
329.543	0.747	incorrect	2back	Block1	2back/STIM_028.jpg
333.644	0.794	correct	2back	Block1	2back/STIM_028.jpg
336.506	0.597	incorrect	2back	Block1	2back/STIM_028.jpg
340.166	1.205	correct	2back	Block1	2back/STIM_029.jpg
344.031	1.288	correct	2back	Block1	2back/STIM_029.jpg
348.661	0.703	correct	2back	Block1	2back/STIM_029.jpg
351.819	1.142	correct	2back	Block1	2back/STIM_030.jpg
356.322	0.597	correct	2back	Block1	2back/STIM_030.jpg
360.732	1.082	correct	2back	Block1	2back/STIM_030.jpg
364.683	1.403	incorrect	2back	Block1	2back/STIM_031.jpg
369.907	0.653	correct	2back	Block1	2back/STIM_031.jpg
374.579	0.505	correct	2back	Block1	2back/STIM_031.jpg
378.197	0.944	correct	2back	Block1	2back/STIM_032.jpg
381.926	0.604	correct	2back	Block1	2back/STIM_032.jpg
385.707	0.557	correct	2back	Block1	2back/STIM_032.jpg
388.749	1.315	correct	2back	Block1	2back/STIM_033.jpg
393.509	1.135	correct	2back	Block1	2back/STIM_033.jpg
397.236	0.792	correct	2back	Block1	2back/STIM_033.jpg
400.247	0.792	correct	2back	Block1	2back/STIM_034.jpg
404.701	0.638	incorrect	2back	Block1	2back/STIM_034.jpg
407.37	1.217	correct	2back	Block1	2back/STIM_034.jpg
412.35	1.05	incorrect	2back	Block1	2back/STIM_035.jpg
416.358	1.157	correct	2back	Block1	2back/STIM_035.jpg
420.034	0.548	correct	2back	Block1	2back/STIM_035.jpg
423.713	0.577	correct	2back	Block1	2back/STIM_036.jpg
428.256	1.017	correct	2back	Block1	2back/STIM_036.jpg
433.219	0.695	correct	2back	Block1	2back/STIM_036.jpg
437.31	0.71	correct	2back	Block1	2back/STIM_037.jpg
440.203	1.009	correct	2back	Block1	2back/STIM_037.jpg
444.521	0.998	correct	2back	Block1	2back/STIM_037.jpg
447.926	0.797	correct	2back	Block1	2back/STIM_038.jpg
450.767	0.824	correct	2back	Block1	2back/STIM_038.jpg
455.138	1.139	correct	2back	Block1	2back/STIM_038.jpg
460.046	0.714	incorrect	2back	Block1	2back/STIM_039.jpg
463.9	0.808	correct	2back	Block1	2back/STIM_039.jpg
467.436	1.182	correct	2back	Block1	2back/STIM_039.jpg
472.0	0.656	correct	0back	Block1	0back/STIM_000.jpg
475.968	0.365	correct	0back	Block1	0back/STIM_000.jpg
479.166	0.447	correct	0back	Block1	0back/STIM_000.jpg
482.615	0.492	correct	0back	Block1	0back/STIM_001.jpg
485.652	0.559	correct	0back	Block1	0back/STIM_001.jpg
488.311	0.44	correct	0back	Block1	0back/STIM_001.jpg
491.199	0.393	correct	0back	Block1	0back/STIM_002.jpg
494.877	0.662	correct	0back	Block1	0back/STIM_002.jpg
498.411	0.534	correct	0back	Block1	0back/STIM_002.jpg
501.856	0.572	correct	0back	Block1	0back/STIM_003.jpg
505.758	0.653	correct	0back	Block1	0back/STIM_003.jpg
509.712	0.561	correct	0back	Block1	0back/STIM_003.jpg
513.496	0.4	correct	0back	Block1	0back/STIM_004.jpg
516.095	0.634	correct	0back	Block1	0back/STIM_004.jpg
520.425	0.747	correct	0back	Block1	0back/STIM_004.jpg
523.959	0.523	correct	0back	Block1	0back/STIM_005.jpg
527.262	0.695	correct	0back	Block1	0back/STIM_005.jpg
531.254	0.607	correct	0back	Block1	0back/STIM_005.jpg
534.333	0.497	correct	0back	Block1	0back/STIM_006.jpg
537.767	0.399	correct	0back	Block1	0back/STIM_006.jpg
541.947	0.295	correct	0back	Block1	0back/STIM_006.jpg
544.576	0.58	correct	0back	Block1	0back/STIM_007.jpg
548.588	0.44	correct	0back	Block1	0back/STIM_007.jpg
552.639	0.58	correct	0back	Block1	0back/STIM_007.jpg
556.053	0.523	correct	0back	Block1	0back/STIM_008.jpg
559.866	0.517	correct	0back	Block1	0back/STIM_008.jpg
562.498	0.598	correct	0back	Block1	0back/STIM_008.jpg
566.863	0.551	correct	0back	Block1	0back/STIM_009.jpg
569.855	0.537	correct	0back	Block1	0back/STIM_009.jpg
572.823	0.432	correct	0back	Block1	0back/STIM_009.jpg
576.945	0.636	correct	0back	Block1	0back/STIM_010.jpg
581.078	0.44	correct	0back	Block1	0back/STIM_010.jpg
585.012	0.835	correct	0back	Block1	0back/STIM_010.jpg
588.398	0.595	correct	0back	Block1	0back/STIM_011.jpg
591.524	0.688	correct	0back	Block1	0back/STIM_011.jpg
595.038	0.431	correct	0back	Block1	0back/STIM_011.jpg
599.25	0.405	correct	0back	Block1	0back/STIM_012.jpg
603.287	0.676	correct	0back	Block1	0back/STIM_012.jpg
607.676	0.619	correct	0back	Block1	0back/STIM_012.jpg
612.328	0.48	correct	0back	Block1	0back/STIM_013.jpg
615.836	0.472	correct	0back	Block1	0back/STIM_013.jpg
618.683	0.671	correct	0back	Block1	0back/STIM_013.jpg
622.195	0.6	correct	0back	Block1	0back/STIM_014.jpg
626.73	0.835	correct	0back	Block1	0back/STIM_014.jpg
631.139	0.597	correct	0back	Block1	0back/STIM_014.jpg
633.862	0.607	correct	0back	Block1	0back/STIM_015.jpg
636.851	0.674	correct	0back	Block1	0back/STIM_015.jpg
640.684	0.575	correct	0back	Block1	0back/STIM_015.jpg
644.796	0.659	correct	0back	Block1	0back/STIM_016.jpg
648.768	0.402	correct	0back	Block1	0back/STIM_016.jpg
652.067	0.518	correct	0back	Block1	0back/STIM_016.jpg
655.496	0.656	correct	0back	Block1	0back/STIM_017.jpg
658.039	0.402	correct	0back	Block1	0back/STIM_017.jpg
660.785	0.86	correct	0back	Block1	0back/STIM_017.jpg
665.508	0.61	correct	0back	Block1	0back/STIM_018.jpg
669.951	0.35	incorrect	0back	Block1	0back/STIM_018.jpg
672.937	0.415	incorrect	0back	Block1	0back/STIM_018.jpg
676.799	0.666	correct	0back	Block1	0back/STIM_019.jpg
680.059	0.743	correct	0back	Block1	0back/STIM_019.jpg
683.798	0.429	correct	0back	Block1	0back/STIM_019.jpg
687.153	0.461	correct	2back	Block2	2back/STIM_000.jpg
691.648	1.008	correct	2back	Block2	2back/STIM_000.jpg
695.313	0.902	correct	2back	Block2	2back/STIM_000.jpg
699.647	0.909	correct	2back	Block2	2back/STIM_001.jpg
703.624	0.695	correct	2back	Block2	2back/STIM_001.jpg
707.84	0.884	correct	2back	Block2	2back/STIM_001.jpg
711.861	0.733	correct	2back	Block2	2back/STIM_002.jpg
716.217	0.482	correct	2back	Block2	2back/STIM_002.jpg
719.283	0.775	correct	2back	Block2	2back/STIM_002.jpg
722.106	0.775	correct	2back	Block2	2back/STIM_003.jpg
725.033	0.69	correct	2back	Block2	2back/STIM_003.jpg
728.287	0.781	correct	2back	Block2	2back/STIM_003.jpg
732.0	1.088	correct	2back	Block2	2back/STIM_004.jpg
736.678	0.957	correct	2back	Block2	2back/STIM_004.jpg
741.119	0.536	correct	2back	Block2	2back/STIM_004.jpg
744.468	1.097	incorrect	2back	Block2	2back/STIM_005.jpg
749.579	0.747	correct	2back	Block2	2back/STIM_005.jpg
752.943	0.455	correct	2back	Block2	2back/STIM_005.jpg
756.687	0.777	correct	2back	Block2	2back/STIM_006.jpg
761.192	0.975	correct	2back	Block2	2back/STIM_006.jpg
764.83	0.496	correct	2back	Block2	2back/STIM_006.jpg
769.278	0.732	correct	2back	Block2	2back/STIM_007.jpg
772.554	0.661	correct	2back	Block2	2back/STIM_007.jpg
776.908	0.658	correct	2back	Block2	2back/STIM_007.jpg
780.808	0.991	correct	2back	Block2	2back/STIM_008.jpg
784.74	0.913	correct	2back	Block2	2back/STIM_008.jpg
788.05	0.435	correct	2back	Block2	2back/STIM_008.jpg
791.658	0.926	incorrect	2back	Block2	2back/STIM_009.jpg
796.128	0.787	correct	2back	Block2	2back/STIM_009.jpg
799.34	1.009	correct	2back	Block2	2back/STIM_009.jpg
802.399	0.734	correct	2back	Block2	2back/STIM_010.jpg
805.873	0.443	correct	2back	Block2	2back/STIM_010.jpg
809.324	0.844	incorrect	2back	Block2	2back/STIM_010.jpg
813.259	0.625	incorrect	2back	Block2	2back/STIM_011.jpg
817.332	1.007	correct	2back	Block2	2back/STIM_011.jpg
821.209	0.595	correct	2back	Block2	2back/STIM_011.jpg
824.138	0.899	correct	2back	Block2	2back/STIM_012.jpg
828.971	0.861	correct	2back	Block2	2back/STIM_012.jpg
832.356	0.94	correct	2back	Block2	2back/STIM_012.jpg
837.321	0.97	correct	2back	Block2	2back/STIM_013.jpg
840.779	1.022	correct	2back	Block2	2back/STIM_013.jpg
844.893	0.744	correct	2back	Block2	2back/STIM_013.jpg
847.952	0.966	correct	2back	Block2	2back/STIM_014.jpg
850.946	0.578	incorrect	2back	Block2	2back/STIM_014.jpg
854.433	0.525	correct	2back	Block2	2back/STIM_014.jpg
857.534	0.962	correct	2back	Block2	2back/STIM_015.jpg
862.171	0.91	correct	2back	Block2	2back/STIM_015.jpg
865.543	0.493	correct	2back	Block2	2back/STIM_015.jpg
869.758	0.68	correct	2back	Block2	2back/STIM_016.jpg
872.727	0.902	correct	2back	Block2	2back/STIM_016.jpg
876.019	0.434	correct	2back	Block2	2back/STIM_016.jpg
878.894	0.87	correct	2back	Block2	2back/STIM_017.jpg
881.978	0.632	correct	2back	Block2	2back/STIM_017.jpg
886.269	0.79	correct	2back	Block2	2back/STIM_017.jpg
889.408	0.659	correct	2back	Block2	2back/STIM_018.jpg
893.211	0.416	correct	2back	Block2	2back/STIM_018.jpg
896.179	0.452	correct	2back	Block2	2back/STIM_018.jpg
899.232	0.536	correct	2back	Block2	2back/STIM_019.jpg
902.841	0.589	correct	2back	Block2	2back/STIM_019.jpg
907.227	0.59	correct	2back	Block2	2back/STIM_019.jpg
910.423	0.815	correct	2back	Block2	2back/STIM_020.jpg
914.954	0.644	correct	2back	Block2	2back/STIM_020.jpg
917.899	0.546	correct	2back	Block2	2back/STIM_020.jpg
921.22	0.767	correct	2back	Block2	2back/STIM_021.jpg
924.314	0.924	correct	2back	Block2	2back/STIM_021.jpg
927.421	0.799	correct	2back	Block2	2back/STIM_021.jpg
930.326	1.15	correct	2back	Block2	2back/STIM_022.jpg
935.317	0.678	correct	2back	Block2	2back/STIM_022.jpg
938.8	0.815	correct	2back	Block2	2back/STIM_022.jpg
942.569	1.135	correct	2back	Block2	2back/STIM_023.jpg
947.13	0.749	correct	2back	Block2	2back/STIM_023.jpg
950.243	0.989	correct	2back	Block2	2back/STIM_023.jpg
954.305	0.758	correct	2back	Block2	2back/STIM_024.jpg
957.154	0.78	correct	2back	Block2	2back/STIM_024.jpg
960.248	0.434	correct	2back	Block2	2back/STIM_024.jpg
963.329	1.18	correct	2back	Block2	2back/STIM_025.jpg
967.73	0.916	correct	2back	Block2	2back/STIM_025.jpg
971.215	0.986	correct	2back	Block2	2back/STIM_025.jpg
974.811	0.678	correct	2back	Block2	2back/STIM_026.jpg
978.655	0.73	correct	2back	Block2	2back/STIM_026.jpg
982.354	0.445	correct	2back	Block2	2back/STIM_026.jpg
985.61	0.442	correct	2back	Block2	2back/STIM_027.jpg
988.545	0.465	correct	2back	Block2	2back/STIM_027.jpg
991.316	0.58	correct	2back	Block2	2back/STIM_027.jpg
995.878	1.026	correct	2back	Block2	2back/STIM_028.jpg
999.705	0.773	correct	2back	Block2	2back/STIM_028.jpg
1003.793	0.755	correct	2back	Block2	2back/STIM_028.jpg
1007.629	0.802	correct	2back	Block2	2back/STIM_029.jpg
1011.213	0.662	correct	2back	Block2	2back/STIM_029.jpg
1015.046	0.903	correct	2back	Block2	2back/STIM_029.jpg
1019.035	1.151	correct	2back	Block2	2back/STIM_030.jpg
1022.741	0.788	incorrect	2back	Block2	2back/STIM_030.jpg
1026.245	0.675	correct	2back	Block2	2back/STIM_030.jpg
1030.775	0.788	correct	2back	Block2	2back/STIM_031.jpg
1035.122	1.123	correct	2back	Block2	2back/STIM_031.jpg
1039.735	0.447	correct	2back	Block2	2back/STIM_031.jpg
1042.799	0.811	incorrect	2back	Block2	2back/STIM_032.jpg
1046.353	0.974	correct	2back	Block2	2back/STIM_032.jpg
1049.998	0.584	correct	2back	Block2	2back/STIM_032.jpg
1054.062	0.897	correct	2back	Block2	2back/STIM_033.jpg
1057.211	0.841	correct	2back	Block2	2back/STIM_033.jpg
1061.346	0.592	correct	2back	Block2	2back/STIM_033.jpg
1065.011	0.823	correct	2back	Block2	2back/STIM_034.jpg
1069.557	0.864	correct	2back	Block2	2back/STIM_034.jpg
1073.244	0.581	correct	2back	Block2	2back/STIM_034.jpg
1077.617	0.764	correct	2back	Block2	2back/STIM_035.jpg
1081.05	1.155	correct	2back	Block2	2back/STIM_035.jpg
1084.341	0.612	correct	2back	Block2	2back/STIM_035.jpg
1087.399	0.726	correct	2back	Block2	2back/STIM_036.jpg
1091.896	0.63	correct	2back	Block2	2back/STIM_036.jpg
1095.476	0.649	correct	2back	Block2	2back/STIM_036.jpg
1098.311	0.714	correct	2back	Block2	2back/STIM_037.jpg
1102.361	0.844	incorrect	2back	Block2	2back/STIM_037.jpg
1106.403	0.879	correct	2back	Block2	2back/STIM_037.jpg
1111.31	0.627	correct	2back	Block2	2back/STIM_038.jpg
1115.538	0.616	correct	2back	Block2	2back/STIM_038.jpg
1119.03	0.657	correct	2back	Block2	2back/STIM_038.jpg
1123.045	1.116	incorrect	2back	Block2	2back/STIM_039.jpg
1127.305	0.548	correct	2back	Block2	2back/STIM_039.jpg
1130.606	0.478	correct	2back	Block2	2back/STIM_039.jpg
1134.668	0.43	correct	0back	Block2	0back/STIM_000.jpg
1138.293	0.553	correct	0back	Block2	0back/STIM_000.jpg
1142.536	0.679	correct	0back	Block2	0back/STIM_000.jpg
1146.353	0.531	correct	0back	Block2	0back/STIM_001.jpg
1149.965	0.685	correct	0back	Block2	0back/STIM_001.jpg
1153.406	0.708	correct	0back	Block2	0back/STIM_001.jpg
1157.256	0.611	correct	0back	Block2	0back/STIM_002.jpg
1161.177	0.389	correct	0back	Block2	0back/STIM_002.jpg
1163.602	0.654	incorrect	0back	Block2	0back/STIM_002.jpg
1167.2	0.42	correct	0back	Block2	0back/STIM_003.jpg
1170.328	0.67	correct	0back	Block2	0back/STIM_003.jpg
1173.235	0.629	correct	0back	Block2	0back/STIM_003.jpg
1176.684	0.428	correct	0back	Block2	0back/STIM_004.jpg
1179.274	0.522	correct	0back	Block2	0back/STIM_004.jpg
1183.101	0.651	correct	0back	Block2	0back/STIM_004.jpg
1187.223	0.566	correct	0back	Block2	0back/STIM_005.jpg
1191.441	0.659	incorrect	0back	Block2	0back/STIM_005.jpg
1195.65	0.628	correct	0back	Block2	0back/STIM_005.jpg
1199.961	0.694	correct	0back	Block2	0back/STIM_006.jpg
1203.387	0.572	correct	0back	Block2	0back/STIM_006.jpg
1206.054	0.433	correct	0back	Block2	0back/STIM_006.jpg
1210.467	0.394	correct	0back	Block2	0back/STIM_007.jpg
1213.265	0.365	correct	0back	Block2	0back/STIM_007.jpg
1215.693	0.388	correct	0back	Block2	0back/STIM_007.jpg
1219.061	0.562	correct	0back	Block2	0back/STIM_008.jpg
1222.269	0.544	correct	0back	Block2	0back/STIM_008.jpg
1226.606	0.383	correct	0back	Block2	0back/STIM_008.jpg
1230.636	0.48	incorrect	0back	Block2	0back/STIM_009.jpg
1234.997	0.436	correct	0back	Block2	0back/STIM_009.jpg
1239.404	0.563	correct	0back	Block2	0back/STIM_009.jpg
1242.737	0.688	correct	0back	Block2	0back/STIM_010.jpg
1247.321	0.516	correct	0back	Block2	0back/STIM_010.jpg
1250.185	0.689	correct	0back	Block2	0back/STIM_010.jpg
1253.251	0.607	correct	0back	Block2	0back/STIM_011.jpg
1256.643	0.45	correct	0back	Block2	0back/STIM_011.jpg
1260.816	0.688	correct	0back	Block2	0back/STIM_011.jpg
1263.639	0.431	correct	0back	Block2	0back/STIM_012.jpg
1267.679	0.441	correct	0back	Block2	0back/STIM_012.jpg
1270.856	0.601	correct	0back	Block2	0back/STIM_012.jpg
1274.154	0.331	correct	0back	Block2	0back/STIM_013.jpg
1277.286	0.474	correct	0back	Block2	0back/STIM_013.jpg
1280.557	0.431	correct	0back	Block2	0back/STIM_013.jpg
1284.165	0.527	correct	0back	Block2	0back/STIM_014.jpg
1286.794	0.703	correct	0back	Block2	0back/STIM_014.jpg
1289.729	0.51	correct	0back	Block2	0back/STIM_014.jpg
1293.161	0.659	correct	0back	Block2	0back/STIM_015.jpg
1297.813	0.453	correct	0back	Block2	0back/STIM_015.jpg
1300.95	0.404	correct	0back	Block2	0back/STIM_015.jpg
1304.356	0.607	correct	0back	Block2	0back/STIM_016.jpg
1307.676	0.564	correct	0back	Block2	0back/STIM_016.jpg
1312.259	0.365	correct	0back	Block2	0back/STIM_016.jpg
1315.776	0.379	correct	0back	Block2	0back/STIM_017.jpg
1318.525	0.577	correct	0back	Block2	0back/STIM_017.jpg
1322.131	0.622	correct	0back	Block2	0back/STIM_017.jpg
1326.564	0.46	correct	0back	Block2	0back/STIM_018.jpg
1330.745	0.462	correct	0back	Block2	0back/STIM_018.jpg
1333.916	0.472	correct	0back	Block2	0back/STIM_018.jpg
1338.226	0.699	correct	0back	Block2	0back/STIM_019.jpg
1342.483	0.457	correct	0back	Block2	0back/STIM_019.jpg
1345.788	0.777	correct	0back	Block2	0back/STIM_019.jpg
1349.018	0.786	correct	2back	Block3	2back/STIM_000.jpg
1351.974	0.58	correct	2back	Block3	2back/STIM_000.jpg
1355.183	0.37	correct	2back	Block3	2back/STIM_000.jpg
1358.538	0.438	correct	2back	Block3	2back/STIM_001.jpg
1362.524	0.9	correct	2back	Block3	2back/STIM_001.jpg
1366.758	0.917	correct	2back	Block3	2back/STIM_001.jpg
1371.094	0.885	correct	2back	Block3	2back/STIM_002.jpg
1375.869	0.702	correct	2back	Block3	2back/STIM_002.jpg
1380.23	0.681	correct	2back	Block3	2back/STIM_002.jpg
1384.543	0.918	correct	2back	Block3	2back/STIM_003.jpg
1387.416	0.826	correct	2back	Block3	2back/STIM_003.jpg
1391.875	0.543	correct	2back	Block3	2back/STIM_003.jpg
1396.034	0.666	correct	2back	Block3	2back/STIM_004.jpg
1398.943	0.894	incorrect	2back	Block3	2back/STIM_004.jpg
1401.817	0.965	correct	2back	Block3	2back/STIM_004.jpg
1406.082	0.446	correct	2back	Block3	2back/STIM_005.jpg
1409.522	0.416	correct	2back	Block3	2back/STIM_005.jpg
1412.597	0.563	incorrect	2back	Block3	2back/STIM_005.jpg
1415.157	0.558	correct	2back	Block3	2back/STIM_006.jpg
1419.383	0.482	correct	2back	Block3	2back/STIM_006.jpg
1422.113	0.436	correct	2back	Block3	2back/STIM_006.jpg
1424.666	0.913	correct	2back	Block3	2back/STIM_007.jpg
1429.551	0.92	correct	2back	Block3	2back/STIM_007.jpg
1433.138	0.424	correct	2back	Block3	2back/STIM_007.jpg
1436.551	0.942	correct	2back	Block3	2back/STIM_008.jpg
1441.357	0.485	correct	2back	Block3	2back/STIM_008.jpg
1445.132	0.569	correct	2back	Block3	2back/STIM_008.jpg
1447.864	0.586	correct	2back	Block3	2back/STIM_009.jpg
1451.097	0.799	correct	2back	Block3	2back/STIM_009.jpg
1455.519	0.861	correct	2back	Block3	2back/STIM_009.jpg
1458.739	0.735	correct	2back	Block3	2back/STIM_010.jpg
1463.348	0.393	incorrect	2back	Block3	2back/STIM_010.jpg
1466.942	0.464	correct	2back	Block3	2back/STIM_010.jpg
1470.847	0.74	correct	2back	Block3	2back/STIM_011.jpg
1475.581	0.666	correct	2back	Block3	2back/STIM_011.jpg
1479.137	0.688	correct	2back	Block3	2back/STIM_011.jpg
1483.374	0.562	incorrect	2back	Block3	2back/STIM_012.jpg
1486.781	0.737	correct	2back	Block3	2back/STIM_012.jpg
1490.322	0.537	correct	2back	Block3	2back/STIM_012.jpg
1493.19	0.76	correct	2back	Block3	2back/STIM_013.jpg
1497.384	0.633	correct	2back	Block3	2back/STIM_013.jpg
1501.586	0.949	incorrect	2back	Block3	2back/STIM_013.jpg
1504.801	0.525	incorrect	2back	Block3	2back/STIM_014.jpg
1507.868	0.895	correct	2back	Block3	2back/STIM_014.jpg
1512.157	0.594	correct	2back	Block3	2back/STIM_014.jpg
1516.245	0.874	correct	2back	Block3	2back/STIM_015.jpg
1519.896	0.621	correct	2back	Block3	2back/STIM_015.jpg
1523.02	0.516	correct	2back	Block3	2back/STIM_015.jpg
1527.526	0.79	correct	2back	Block3	2back/STIM_016.jpg
1530.88	0.451	correct	2back	Block3	2back/STIM_016.jpg
1534.186	0.701	correct	2back	Block3	2back/STIM_016.jpg
1537.441	0.893	correct	2back	Block3	2back/STIM_017.jpg
1541.499	0.782	correct	2back	Block3	2back/STIM_017.jpg
1546.062	0.942	correct	2back	Block3	2back/STIM_017.jpg
1551.015	0.814	incorrect	2back	Block3	2back/STIM_018.jpg
1554.578	0.88	correct	2back	Block3	2back/STIM_018.jpg
1558.378	0.572	correct	2back	Block3	2back/STIM_018.jpg
1562.941	0.577	correct	2back	Block3	2back/STIM_019.jpg
1565.89	0.822	correct	2back	Block3	2back/STIM_019.jpg
1569.123	0.762	correct	2back	Block3	2back/STIM_019.jpg
1573.706	0.82	correct	2back	Block3	2back/STIM_020.jpg
1577.033	0.906	correct	2back	Block3	2back/STIM_020.jpg
1581.427	0.84	correct	2back	Block3	2back/STIM_020.jpg
1585.963	0.841	correct	2back	Block3	2back/STIM_021.jpg
1589.74	0.917	correct	2back	Block3	2back/STIM_021.jpg
1593.956	0.794	correct	2back	Block3	2back/STIM_021.jpg
1598.138	0.657	correct	2back	Block3	2back/STIM_022.jpg
1600.962	0.93	correct	2back	Block3	2back/STIM_022.jpg
1605.618	0.496	correct	2back	Block3	2back/STIM_022.jpg
1609.157	0.434	incorrect	2back	Block3	2back/STIM_023.jpg
1611.872	0.829	correct	2back	Block3	2back/STIM_023.jpg
1615.952	0.491	correct	2back	Block3	2back/STIM_023.jpg
1618.948	0.904	correct	2back	Block3	2back/STIM_024.jpg
1623.44	0.432	correct	2back	Block3	2back/STIM_024.jpg
1626.179	0.717	incorrect	2back	Block3	2back/STIM_024.jpg
1629.773	0.679	correct	2back	Block3	2back/STIM_025.jpg
1634.184	0.703	correct	2back	Block3	2back/STIM_025.jpg
1637.166	0.626	correct	2back	Block3	2back/STIM_025.jpg
1640.331	0.557	correct	2back	Block3	2back/STIM_026.jpg
1643.319	0.562	correct	2back	Block3	2back/STIM_026.jpg
1647.232	0.68	correct	2back	Block3	2back/STIM_026.jpg
1651.507	0.824	correct	2back	Block3	2back/STIM_027.jpg
1654.504	0.606	correct	2back	Block3	2back/STIM_027.jpg
1657.684	0.703	correct	2back	Block3	2back/STIM_027.jpg
1661.317	0.743	correct	2back	Block3	2back/STIM_028.jpg
1665.026	0.803	correct	2back	Block3	2back/STIM_028.jpg
1669.496	0.626	incorrect	2back	Block3	2back/STIM_028.jpg
1672.352	0.479	correct	2back	Block3	2back/STIM_029.jpg
1676.308	0.469	correct	2back	Block3	2back/STIM_029.jpg
1679.192	0.702	correct	2back	Block3	2back/STIM_029.jpg
1683.809	0.585	correct	2back	Block3	2back/STIM_030.jpg
1688.179	0.565	correct	2back	Block3	2back/STIM_030.jpg
1691.481	0.859	correct	2back	Block3	2back/STIM_030.jpg
1695.604	0.71	correct	2back	Block3	2back/STIM_031.jpg
1700.257	0.745	correct	2back	Block3	2back/STIM_031.jpg
1703.851	0.691	correct	2back	Block3	2back/STIM_031.jpg
1706.955	0.962	correct	2back	Block3	2back/STIM_032.jpg
1711.108	0.382	correct	2back	Block3	2back/STIM_032.jpg
1714.976	0.754	correct	2back	Block3	2back/STIM_032.jpg
1717.909	0.792	correct	2back	Block3	2back/STIM_033.jpg
1721.752	0.825	correct	2back	Block3	2back/STIM_033.jpg
1725.467	0.664	correct	2back	Block3	2back/STIM_033.jpg
1729.03	0.885	correct	2back	Block3	2back/STIM_034.jpg
1733.967	0.774	correct	2back	Block3	2back/STIM_034.jpg
1738.608	0.563	correct	2back	Block3	2back/STIM_034.jpg
1741.984	0.488	correct	2back	Block3	2back/STIM_035.jpg
1745.658	0.405	correct	2back	Block3	2back/STIM_035.jpg
1748.434	0.67	correct	2back	Block3	2back/STIM_035.jpg
1751.421	0.732	correct	2back	Block3	2back/STIM_036.jpg
1754.599	0.409	correct	2back	Block3	2back/STIM_036.jpg
1757.849	0.493	correct	2back	Block3	2back/STIM_036.jpg
1761.287	0.494	correct	2back	Block3	2back/STIM_037.jpg
1764.58	0.433	correct	2back	Block3	2back/STIM_037.jpg
1768.522	0.851	correct	2back	Block3	2back/STIM_037.jpg
1771.961	0.509	correct	2back	Block3	2back/STIM_038.jpg
1775.881	0.66	correct	2back	Block3	2back/STIM_038.jpg
1779.977	0.332	incorrect	2back	Block3	2back/STIM_038.jpg
1783.874	0.658	correct	2back	Block3	2back/STIM_039.jpg
1787.375	0.727	correct	2back	Block3	2back/STIM_039.jpg
1790.99	0.894	correct	2back	Block3	2back/STIM_039.jpg
1794.44	0.559	correct	0back	Block3	0back/STIM_000.jpg
1797.679	0.701	correct	0back	Block3	0back/STIM_000.jpg
1800.819	0.75	correct	0back	Block3	0back/STIM_000.jpg
1803.666	0.718	correct	0back	Block3	0back/STIM_001.jpg
1808.026	0.726	correct	0back	Block3	0back/STIM_001.jpg
1812.271	0.494	correct	0back	Block3	0back/STIM_001.jpg
1816.053	0.534	correct	0back	Block3	0back/STIM_002.jpg
1819.615	0.571	correct	0back	Block3	0back/STIM_002.jpg
1823.967	0.387	correct	0back	Block3	0back/STIM_002.jpg
1826.635	0.758	correct	0back	Block3	0back/STIM_003.jpg
1830.064	0.534	incorrect	0back	Block3	0back/STIM_003.jpg
1833.044	0.417	correct	0back	Block3	0back/STIM_003.jpg
1835.689	0.661	correct	0back	Block3	0back/STIM_004.jpg
1840.043	0.593	correct	0back	Block3	0back/STIM_004.jpg
1843.271	0.781	correct	0back	Block3	0back/STIM_004.jpg
1847.614	0.527	correct	0back	Block3	0back/STIM_005.jpg
1852.026	0.63	correct	0back	Block3	0back/STIM_005.jpg
1856.364	0.559	correct	0back	Block3	0back/STIM_005.jpg
1859.587	0.389	correct	0back	Block3	0back/STIM_006.jpg
1863.029	0.443	correct	0back	Block3	0back/STIM_006.jpg
1866.502	0.732	correct	0back	Block3	0back/STIM_006.jpg
1870.62	0.663	correct	0back	Block3	0back/STIM_007.jpg
1873.387	0.672	correct	0back	Block3	0back/STIM_007.jpg
1876.51	0.647	correct	0back	Block3	0back/STIM_007.jpg
1880.93	0.527	correct	0back	Block3	0back/STIM_008.jpg
1885.323	0.777	correct	0back	Block3	0back/STIM_008.jpg
1890.02	0.535	correct	0back	Block3	0back/STIM_008.jpg
1894.28	0.675	correct	0back	Block3	0back/STIM_009.jpg
1898.539	0.492	incorrect	0back	Block3	0back/STIM_009.jpg
1901.407	0.516	correct	0back	Block3	0back/STIM_009.jpg
1905.477	0.326	correct	0back	Block3	0back/STIM_010.jpg
1909.319	0.508	correct	0back	Block3	0back/STIM_010.jpg
1912.295	0.685	correct	0back	Block3	0back/STIM_010.jpg
1915.079	0.747	correct	0back	Block3	0back/STIM_011.jpg
1918.188	0.636	correct	0back	Block3	0back/STIM_011.jpg
1921.126	0.41	correct	0back	Block3	0back/STIM_011.jpg
1924.079	0.726	correct	0back	Block3	0back/STIM_012.jpg
1927.25	0.732	incorrect	0back	Block3	0back/STIM_012.jpg
1931.93	0.415	correct	0back	Block3	0back/STIM_012.jpg
1934.404	0.556	correct	0back	Block3	0back/STIM_013.jpg
1937.453	0.818	correct	0back	Block3	0back/STIM_013.jpg
1941.458	0.596	incorrect	0back	Block3	0back/STIM_013.jpg
1944.497	0.671	correct	0back	Block3	0back/STIM_014.jpg
1949.091	0.668	correct	0back	Block3	0back/STIM_014.jpg
1952.016	0.453	correct	0back	Block3	0back/STIM_014.jpg
1955.667	0.663	correct	0back	Block3	0back/STIM_015.jpg
1960.223	0.672	correct	0back	Block3	0back/STIM_015.jpg
1964.245	0.565	correct	0back	Block3	0back/STIM_015.jpg
1968.598	0.733	correct	0back	Block3	0back/STIM_016.jpg
1973.349	0.522	correct	0back	Block3	0back/STIM_016.jpg
1977.393	0.663	correct	0back	Block3	0back/STIM_016.jpg
1981.712	0.517	correct	0back	Block3	0back/STIM_017.jpg
1986.003	0.662	correct	0back	Block3	0back/STIM_017.jpg
1988.797	0.374	correct	0back	Block3	0back/STIM_017.jpg
1992.136	0.644	correct	0back	Block3	0back/STIM_018.jpg
1994.921	0.42	correct	0back	Block3	0back/STIM_018.jpg
1999.063	0.717	correct	0back	Block3	0back/STIM_018.jpg
2002.999	0.463	correct	0back	Block3	0back/STIM_019.jpg
2005.678	0.854	correct	0back	Block3	0back/STIM_019.jpg
2009.753	0.736	correct	0back	Block3	0back/STIM_019.jpg
2014.431	0.766	correct	2back	Block4	2back/STIM_000.jpg
2017.735	0.604	correct	2back	Block4	2back/STIM_000.jpg
2021.651	0.929	correct	2back	Block4	2back/STIM_000.jpg
2026.511	0.669	correct	2back	Block4	2back/STIM_001.jpg
2029.483	0.85	correct	2back	Block4	2back/STIM_001.jpg
2033.299	0.526	correct	2back	Block4	2back/STIM_001.jpg
2037.296	0.525	correct	2back	Block4	2back/STIM_002.jpg
2040.794	0.904	correct	2back	Block4	2back/STIM_002.jpg
2044.388	0.632	correct	2back	Block4	2back/STIM_002.jpg
2048.969	0.565	correct	2back	Block4	2back/STIM_003.jpg
2051.782	0.54	correct	2back	Block4	2back/STIM_003.jpg
2055.67	0.569	correct	2back	Block4	2back/STIM_003.jpg
2059.613	0.612	correct	2back	Block4	2back/STIM_004.jpg
2062.35	0.772	correct	2back	Block4	2back/STIM_004.jpg
2065.677	0.679	correct	2back	Block4	2back/STIM_004.jpg
2069.702	0.942	correct	2back	Block4	2back/STIM_005.jpg
2073.088	0.48	correct	2back	Block4	2back/STIM_005.jpg
2076.269	0.884	correct	2back	Block4	2back/STIM_005.jpg
2079.869	0.519	correct	2back	Block4	2back/STIM_006.jpg
2083.994	0.655	correct	2back	Block4	2back/STIM_006.jpg
2087.009	0.404	correct	2back	Block4	2back/STIM_006.jpg
2091.464	0.923	correct	2back	Block4	2back/STIM_007.jpg
2094.809	0.68	incorrect	2back	Block4	2back/STIM_007.jpg
2098.662	0.969	correct	2back	Block4	2back/STIM_007.jpg
2101.785	0.797	incorrect	2back	Block4	2back/STIM_008.jpg
2104.949	0.744	correct	2back	Block4	2back/STIM_008.jpg
2108.758	0.766	correct	2back	Block4	2back/STIM_008.jpg
2113.34	0.666	incorrect	2back	Block4	2back/STIM_009.jpg
2116.534	1.001	correct	2back	Block4	2back/STIM_009.jpg
2120.488	0.589	correct	2back	Block4	2back/STIM_009.jpg
2123.905	0.364	correct	2back	Block4	2back/STIM_010.jpg
2127.478	0.823	correct	2back	Block4	2back/STIM_010.jpg
2130.606	0.886	correct	2back	Block4	2back/STIM_010.jpg
2133.616	0.872	correct	2back	Block4	2back/STIM_011.jpg
2136.888	0.694	correct	2back	Block4	2back/STIM_011.jpg
2139.79	0.548	correct	2back	Block4	2back/STIM_011.jpg
2142.924	0.639	correct	2back	Block4	2back/STIM_012.jpg
2147.042	0.404	correct	2back	Block4	2back/STIM_012.jpg
2150.729	0.792	correct	2back	Block4	2back/STIM_012.jpg
2154.34	0.822	correct	2back	Block4	2back/STIM_013.jpg
2158.747	0.578	correct	2back	Block4	2back/STIM_013.jpg
2162.507	0.954	correct	2back	Block4	2back/STIM_013.jpg
2165.658	0.536	correct	2back	Block4	2back/STIM_014.jpg
2169.821	0.579	correct	2back	Block4	2back/STIM_014.jpg
2172.521	0.848	correct	2back	Block4	2back/STIM_014.jpg
2175.765	0.578	correct	2back	Block4	2back/STIM_015.jpg
2178.699	0.838	correct	2back	Block4	2back/STIM_015.jpg
2183.176	0.55	correct	2back	Block4	2back/STIM_015.jpg
2187.193	0.64	correct	2back	Block4	2back/STIM_016.jpg
2190.02	0.503	correct	2back	Block4	2back/STIM_016.jpg
2194.009	0.747	correct	2back	Block4	2back/STIM_016.jpg
2197.442	0.748	correct	2back	Block4	2back/STIM_017.jpg
2200.792	0.954	correct	2back	Block4	2back/STIM_017.jpg
2204.336	0.439	correct	2back	Block4	2back/STIM_017.jpg
2208.598	0.959	correct	2back	Block4	2back/STIM_018.jpg
2211.694	0.669	correct	2back	Block4	2back/STIM_018.jpg
2215.066	0.386	correct	2back	Block4	2back/STIM_018.jpg
2219.045	0.901	correct	2back	Block4	2back/STIM_019.jpg
2223.053	0.906	correct	2back	Block4	2back/STIM_019.jpg
2227.206	0.707	correct	2back	Block4	2back/STIM_019.jpg
2231.821	0.797	correct	2back	Block4	2back/STIM_020.jpg
2235.497	0.429	correct	2back	Block4	2back/STIM_020.jpg
2239.879	0.433	correct	2back	Block4	2back/STIM_020.jpg
2243.422	0.882	correct	2back	Block4	2back/STIM_021.jpg
2248.109	0.814	correct	2back	Block4	2back/STIM_021.jpg
2250.981	0.351	correct	2back	Block4	2back/STIM_021.jpg
2254.117	0.7	correct	2back	Block4	2back/STIM_022.jpg
2257.201	0.836	correct	2back	Block4	2back/STIM_022.jpg
2260.836	0.839	correct	2back	Block4	2back/STIM_022.jpg
2263.87	0.458	correct	2back	Block4	2back/STIM_023.jpg
2266.618	0.531	correct	2back	Block4	2back/STIM_023.jpg
2270.606	0.74	correct	2back	Block4	2back/STIM_023.jpg
2274.051	0.879	correct	2back	Block4	2back/STIM_024.jpg
2277.458	0.858	correct	2back	Block4	2back/STIM_024.jpg
2282.22	0.773	incorrect	2back	Block4	2back/STIM_024.jpg
2285.396	0.885	correct	2back	Block4	2back/STIM_025.jpg
2290.159	0.942	correct	2back	Block4	2back/STIM_025.jpg
2294.147	0.7	correct	2back	Block4	2back/STIM_025.jpg
2297.701	0.572	correct	2back	Block4	2back/STIM_026.jpg
2300.467	0.696	correct	2back	Block4	2back/STIM_026.jpg
2303.549	0.473	correct	2back	Block4	2back/STIM_026.jpg
2307.857	0.439	correct	2back	Block4	2back/STIM_027.jpg
2311.927	0.936	correct	2back	Block4	2back/STIM_027.jpg
2315.245	0.59	correct	2back	Block4	2back/STIM_027.jpg
2319.248	0.748	correct	2back	Block4	2back/STIM_028.jpg
2323.547	0.48	correct	2back	Block4	2back/STIM_028.jpg
2327.013	0.77	correct	2back	Block4	2back/STIM_028.jpg
2330.503	0.555	correct	2back	Block4	2back/STIM_029.jpg
2333.557	0.97	correct	2back	Block4	2back/STIM_029.jpg
2337.677	0.544	correct	2back	Block4	2back/STIM_029.jpg
2341.354	0.543	correct	2back	Block4	2back/STIM_030.jpg
2344.054	0.538	correct	2back	Block4	2back/STIM_030.jpg
2346.984	0.756	correct	2back	Block4	2back/STIM_030.jpg
2351.448	0.889	correct	2back	Block4	2back/STIM_031.jpg
2355.696	0.48	correct	2back	Block4	2back/STIM_031.jpg
2359.089	0.421	correct	2back	Block4	2back/STIM_031.jpg
2363.083	0.414	correct	2back	Block4	2back/STIM_032.jpg
2365.839	0.683	correct	2back	Block4	2back/STIM_032.jpg
2370.118	0.716	correct	2back	Block4	2back/STIM_032.jpg
2374.595	0.717	correct	2back	Block4	2back/STIM_033.jpg
2378.062	0.696	correct	2back	Block4	2back/STIM_033.jpg
2381.89	0.623	correct	2back	Block4	2back/STIM_033.jpg
2385.105	1.002	correct	2back	Block4	2back/STIM_034.jpg
2388.253	0.658	correct	2back	Block4	2back/STIM_034.jpg
2391.409	0.562	correct	2back	Block4	2back/STIM_034.jpg
2395.195	0.498	correct	2back	Block4	2back/STIM_035.jpg
2398.919	0.422	correct	2back	Block4	2back/STIM_035.jpg
2401.538	0.806	correct	2back	Block4	2back/STIM_035.jpg
2405.285	0.81	correct	2back	Block4	2back/STIM_036.jpg
2409.695	0.73	correct	2back	Block4	2back/STIM_036.jpg
2413.658	0.882	correct	2back	Block4	2back/STIM_036.jpg
2417.46	0.789	correct	2back	Block4	2back/STIM_037.jpg
2420.931	0.478	correct	2back	Block4	2back/STIM_037.jpg
2424.075	0.874	correct	2back	Block4	2back/STIM_037.jpg
2427.15	0.478	correct	2back	Block4	2back/STIM_038.jpg
2431.309	0.878	incorrect	2back	Block4	2back/STIM_038.jpg
2436.198	0.807	correct	2back	Block4	2back/STIM_038.jpg
2440.377	0.885	correct	2back	Block4	2back/STIM_039.jpg
2443.729	0.859	correct	2back	Block4	2back/STIM_039.jpg
2447.39	0.683	correct	2back	Block4	2back/STIM_039.jpg
2451.97	0.643	correct	0back	Block4	0back/STIM_000.jpg
2455.684	0.58	correct	0back	Block4	0back/STIM_000.jpg
2459.29	0.431	correct	0back	Block4	0back/STIM_000.jpg
2462.552	0.633	correct	0back	Block4	0back/STIM_001.jpg
2466.415	0.553	incorrect	0back	Block4	0back/STIM_001.jpg
2470.525	0.59	correct	0back	Block4	0back/STIM_001.jpg
2474.973	0.746	correct	0back	Block4	0back/STIM_002.jpg
2479.105	0.48	correct	0back	Block4	0back/STIM_002.jpg
2483.637	0.46	correct	0back	Block4	0back/STIM_002.jpg
2487.586	0.393	correct	0back	Block4	0back/STIM_003.jpg
2490.132	0.405	correct	0back	Block4	0back/STIM_003.jpg
2494.455	0.639	correct	0back	Block4	0back/STIM_003.jpg
2497.605	0.483	correct	0back	Block4	0back/STIM_004.jpg
2500.189	0.456	correct	0back	Block4	0back/STIM_004.jpg
2504.562	0.772	correct	0back	Block4	0back/STIM_004.jpg
2508.501	0.621	correct	0back	Block4	0back/STIM_005.jpg
2512.802	0.55	correct	0back	Block4	0back/STIM_005.jpg
2516.194	0.68	correct	0back	Block4	0back/STIM_005.jpg
2518.982	0.53	correct	0back	Block4	0back/STIM_006.jpg
2522.004	0.568	correct	0back	Block4	0back/STIM_006.jpg
2524.829	0.439	correct	0back	Block4	0back/STIM_006.jpg
2528.968	0.51	correct	0back	Block4	0back/STIM_007.jpg
2532.098	0.402	correct	0back	Block4	0back/STIM_007.jpg
2535.004	0.723	correct	0back	Block4	0back/STIM_007.jpg
2539.238	0.468	correct	0back	Block4	0back/STIM_008.jpg
2542.151	0.328	correct	0back	Block4	0back/STIM_008.jpg
2546.39	0.394	correct	0back	Block4	0back/STIM_008.jpg
2549.841	0.785	correct	0back	Block4	0back/STIM_009.jpg
2552.858	0.577	correct	0back	Block4	0back/STIM_009.jpg
2556.691	0.702	correct	0back	Block4	0back/STIM_009.jpg
2559.889	0.681	correct	0back	Block4	0back/STIM_010.jpg
2562.841	0.531	correct	0back	Block4	0back/STIM_010.jpg
2566.717	0.712	correct	0back	Block4	0back/STIM_010.jpg
2570.301	0.762	correct	0back	Block4	0back/STIM_011.jpg
2573.967	0.392	correct	0back	Block4	0back/STIM_011.jpg
2576.554	0.559	correct	0back	Block4	0back/STIM_011.jpg
2581.114	0.524	correct	0back	Block4	0back/STIM_012.jpg
2585.435	0.44	correct	0back	Block4	0back/STIM_012.jpg
2588.834	0.687	correct	0back	Block4	0back/STIM_012.jpg
2592.969	0.452	correct	0back	Block4	0back/STIM_013.jpg
2596.775	0.558	correct	0back	Block4	0back/STIM_013.jpg
2600.432	0.585	correct	0back	Block4	0back/STIM_013.jpg
2604.228	0.561	correct	0back	Block4	0back/STIM_014.jpg
2607.376	0.515	correct	0back	Block4	0back/STIM_014.jpg
2611.309	0.85	correct	0back	Block4	0back/STIM_014.jpg
2614.191	0.472	correct	0back	Block4	0back/STIM_015.jpg
2617.785	0.628	correct	0back	Block4	0back/STIM_015.jpg
2622.352	0.594	correct	0back	Block4	0back/STIM_015.jpg
2626.552	0.706	correct	0back	Block4	0back/STIM_016.jpg
2629.499	0.584	correct	0back	Block4	0back/STIM_016.jpg
2633.431	0.496	correct	0back	Block4	0back/STIM_016.jpg
2636.485	0.451	correct	0back	Block4	0back/STIM_017.jpg
2639.674	0.454	correct	0back	Block4	0back/STIM_017.jpg
2642.409	0.69	correct	0back	Block4	0back/STIM_017.jpg
2646.001	0.532	correct	0back	Block4	0back/STIM_018.jpg
2650.249	0.849	correct	0back	Block4	0back/STIM_018.jpg
2654.237	0.677	correct	0back	Block4	0back/STIM_018.jpg
2658.25	0.556	correct	0back	Block4	0back/STIM_019.jpg
2662.108	0.397	correct	0back	Block4	0back/STIM_019.jpg
2664.972	0.467	correct	0back	Block4	0back/STIM_019.jpg
