onset	duration	accuracy_binary	trial_type	learning_stage	stimulus
0.0	5.36	0	navigation	Trial1	navigation/STIM_000.jpg
9.284	4.87	0	navigation	Trial1	navigation/STIM_000.jpg
17.649	2.832	1	navigation	Trial1	navigation/STIM_000.jpg
22.951	3.91	1	navigation	Trial1	navigation/STIM_000.jpg
29.463	3.531	1	navigation	Trial1	navigation/STIM_000.jpg
35.86	1.705	1	navigation	Trial1	navigation/STIM_000.jpg
39.959	2.222	1	navigation	Trial1	navigation/STIM_001.jpg
45.224	4.113	1	navigation	Trial1	navigation/STIM_001.jpg
53.251	2.264	1	navigation	Trial1	navigation/STIM_001.jpg
59.396	3.033	1	navigation	Trial1	navigation/STIM_001.jpg
65.047	3.905	1	navigation	Trial1	navigation/STIM_001.jpg
71.948	2.199	1	navigation	Trial1	navigation/STIM_001.jpg
76.568	4.977	1	navigation	Trial1	navigation/STIM_002.jpg
84.225	3.645	1	navigation	Trial1	navigation/STIM_002.jpg
91.077	4.871	1	navigation	Trial1	navigation/STIM_002.jpg
98.483	2.654	1	navigation	Trial1	navigation/STIM_002.jpg
103.799	4.28	1	navigation	Trial1	navigation/STIM_002.jpg
110.51	3.538	1	navigation	Trial1	navigation/STIM_002.jpg
117.844	4.214	1	navigation	Trial1	navigation/STIM_003.jpg
125.961	4.074	1	navigation	Trial1	navigation/STIM_003.jpg
132.729	4.828	1	navigation	Trial1	navigation/STIM_003.jpg
140.076	2.587	1	navigation	Trial1	navigation/STIM_003.jpg
145.1	4.047	1	navigation	Trial1	navigation/STIM_003.jpg
152.681	2.809	1	navigation	Trial1	navigation/STIM_003.jpg
158.328	4.533	1	navigation	Trial1	navigation/STIM_004.jpg
165.066	3.046	1	navigation	Trial1	navigation/STIM_004.jpg
171.356	3.747	1	navigation	Trial1	navigation/STIM_004.jpg
178.326	2.776	1	navigation	Trial1	navigation/STIM_004.jpg
184.653	1.928	1	navigation	Trial1	navigation/STIM_004.jpg
189.72	3.849	1	navigation	Trial1	navigation/STIM_004.jpg
195.967	3.018	1	navigation	Trial1	navigation/STIM_005.jpg
201.844	2.2	1	navigation	Trial1	navigation/STIM_005.jpg
207.047	3.7	1	navigation	Trial1	navigation/STIM_005.jpg
213.182	3.836	1	navigation	Trial1	navigation/STIM_005.jpg
220.359	1.977	1	navigation	Trial1	navigation/STIM_005.jpg
224.633	3.492	1	navigation	Trial1	navigation/STIM_005.jpg
230.653	4.957	1	navigation	Trial1	navigation/STIM_006.jpg
239.609	2.569	1	navigation	Trial1	navigation/STIM_006.jpg
245.41	3.709	1	navigation	Trial1	navigation/STIM_006.jpg
251.878	3.425	1	navigation	Trial1	navigation/STIM_006.jpg
257.369	3.455	1	navigation	Trial1	navigation/STIM_006.jpg
263.167	4.027	1	navigation	Trial1	navigation/STIM_006.jpg
270.928	5.256	1	navigation	Trial1	navigation/STIM_007.jpg
278.233	2.171	1	navigation	Trial1	navigation/STIM_007.jpg
283.698	3.515	1	navigation	Trial1	navigation/STIM_007.jpg
289.654	4.594	1	navigation	Trial1	navigation/STIM_007.jpg
296.539	3.295	1	navigation	Trial1	navigation/STIM_007.jpg
302.821	2.719	1	navigation	Trial1	navigation/STIM_007.jpg
308.449	3.601	1	navigation	Trial1	navigation/STIM_008.jpg
315.915	2.552	1	navigation	Trial1	navigation/STIM_008.jpg
322.435	3.443	1	navigation	Trial1	navigation/STIM_008.jpg
329.491	2.067	1	navigation	Trial1	navigation/STIM_008.jpg
334.576	2.469	1	navigation	Trial1	navigation/STIM_008.jpg
339.566	1.918	1	navigation	Trial1	navigation/STIM_008.jpg
344.516	5.365	0	navigation	Trial1	navigation/STIM_009.jpg
353.781	2.836	1	navigation	Trial1	navigation/STIM_009.jpg
359.187	3.77	1	navigation	Trial1	navigation/STIM_009.jpg
365.964	2.039	1	navigation	Trial1	navigation/STIM_009.jpg
371.777	2.125	1	navigation	Trial1	navigation/STIM_009.jpg
377.306	1.633	1	navigation	Trial1	navigation/STIM_009.jpg
382.333	2.623	1	navigation	Trial1	navigation/STIM_010.jpg
388.761	3.295	1	navigation	Trial1	navigation/STIM_010.jpg
394.648	2.146	1	navigation	Trial1	navigation/STIM_010.jpg
400.058	1.961	1	navigation	Trial1	navigation/STIM_010.jpg
405.138	2.967	1	navigation	Trial1	navigation/STIM_010.jpg
411.99	2.535	1	navigation	Trial1	navigation/STIM_010.jpg
416.821	5.311	1	navigation	Trial1	navigation/STIM_011.jpg
425.992	4.347	1	navigation	Trial1	navigation/STIM_011.jpg
432.599	2.942	1	navigation	Trial1	navigation/STIM_011.jpg
438.865	3.706	1	navigation	Trial1	navigation/STIM_011.jpg
445.26	3.724	1	navigation	Trial1	navigation/STIM_011.jpg
451.368	2.312	1	navigation	Trial1	navigation/STIM_011.jpg
457.665	1.297	1	pointing	Trial1	pointing/STIM_000.jpg
462.745	0.888	1	pointing	Trial1	pointing/STIM_000.jpg
467.254	1.28	1	pointing	Trial1	pointing/STIM_000.jpg
472.372	0.987	1	pointing	Trial1	pointing/STIM_000.jpg
475.788	0.932	1	pointing	Trial1	pointing/STIM_000.jpg
480.44	1.059	1	pointing	Trial1	pointing/STIM_000.jpg
484.957	0.915	1	pointing	Trial1	pointing/STIM_001.jpg
488.697	1.478	1	pointing	Trial1	pointing/STIM_001.jpg
493.164	1.147	1	pointing	Trial1	pointing/STIM_001.jpg
497.772	1.229	1	pointing	Trial1	pointing/STIM_001.jpg
502.171	1.269	1	pointing	Trial1	pointing/STIM_001.jpg
506.746	1.001	1	pointing	Trial1	pointing/STIM_001.jpg
511.303	1.384	1	pointing	Trial1	pointing/STIM_002.jpg
514.693	1.365	1	pointing	Trial1	pointing/STIM_002.jpg
518.349	1.236	1	pointing	Trial1	pointing/STIM_002.jpg
522.23	1.09	1	pointing	Trial1	pointing/STIM_002.jpg
526.88	1.456	1	pointing	Trial1	pointing/STIM_002.jpg
531.707	1.133	1	pointing	Trial1	pointing/STIM_002.jpg
535.636	1.289	1	pointing	Trial1	pointing/STIM_003.jpg
540.474	1.446	1	pointing	Trial1	pointing/STIM_003.jpg
544.947	1.493	1	pointing	Trial1	pointing/STIM_003.jpg
548.732	1.304	1	pointing	Trial1	pointing/STIM_003.jpg
553.578	1.338	1	pointing	Trial1	pointing/STIM_003.jpg
558.723	1.078	1	pointing	Trial1	pointing/STIM_003.jpg
563.394	1.565	1	pointing	Trial1	pointing/STIM_004.jpg
567.789	1.033	1	pointing	Trial1	pointing/STIM_004.jpg
571.731	1.476	1	pointing	Trial1	pointing/STIM_004.jpg
575.758	0.893	1	pointing	Trial1	pointing/STIM_004.jpg
579.955	1.441	1	pointing	Trial1	pointing/STIM_004.jpg
584.939	0.968	1	pointing	Trial1	pointing/STIM_004.jpg
589.288	1.266	1	pointing	Trial1	pointing/STIM_005.jpg
594.393	0.914	1	pointing	Trial1	pointing/STIM_005.jpg
597.612	1.014	1	pointing	Trial1	pointing/STIM_005.jpg
600.806	1.295	1	pointing	Trial1	pointing/STIM_005.jpg
605.159	1.216	1	pointing	Trial1	pointing/STIM_005.jpg
609.178	1.396	1	pointing	Trial1	pointing/STIM_005.jpg
612.984	1.443	1	pointing	Trial1	pointing/STIM_006.jpg
618.177	0.909	1	pointing	Trial1	pointing/STIM_006.jpg
622.175	1.395	1	pointing	Trial1	pointing/STIM_006.jpg
626.359	1.434	1	pointing	Trial1	pointing/STIM_006.jpg
630.589	0.962	1	pointing	Trial1	pointing/STIM_006.jpg
635.083	0.975	1	pointing	Trial1	pointing/STIM_006.jpg
638.603	1.493	1	pointing	Trial1	pointing/STIM_007.jpg
643.148	1.548	1	pointing	Trial1	pointing/STIM_007.jpg
648.088	1.408	1	pointing	Trial1	pointing/STIM_007.jpg
652.735	1.258	1	pointing	Trial1	pointing/STIM_007.jpg
657.49	1.292	1	pointing	Trial1	pointing/STIM_007.jpg
661.193	1.135	1	pointing	Trial1	pointing/STIM_007.jpg
666.294	1.396	1	pointing	Trial1	pointing/STIM_008.jpg
669.904	1.412	1	pointing	Trial1	pointing/STIM_008.jpg
674.852	1.247	1	pointing	Trial1	pointing/STIM_008.jpg
679.366	0.984	1	pointing	Trial1	pointing/STIM_008.jpg
683.685	1.468	1	pointing	Trial1	pointing/STIM_008.jpg
687.825	0.899	1	pointing	Trial1	pointing/STIM_008.jpg
691.74	1.519	1	pointing	Trial1	pointing/STIM_009.jpg
696.99	0.93	1	pointing	Trial1	pointing/STIM_009.jpg
700.373	1.113	1	pointing	Trial1	pointing/STIM_009.jpg
704.829	1.511	1	pointing	Trial1	pointing/STIM_009.jpg
709.852	1.572	1	pointing	Trial1	pointing/STIM_009.jpg
715.209	1.148	1	pointing	Trial1	pointing/STIM_009.jpg
719.811	1.317	1	pointing	Trial1	pointing/STIM_010.jpg
724.431	1.007	1	pointing	Trial1	pointing/STIM_010.jpg
727.696	1.396	1	pointing	Trial1	pointing/STIM_010.jpg
732.138	1.28	1	pointing	Trial1	pointing/STIM_010.jpg
736.278	1.424	1	pointing	Trial1	pointing/STIM_010.jpg
740.063	1.575	1	pointing	Trial1	pointing/STIM_010.jpg
744.953	1.109	1	pointing	Trial1	pointing/STIM_011.jpg
750.046	1.003	1	pointing	Trial1	pointing/STIM_011.jpg
753.724	1.467	1	pointing	Trial1	pointing/STIM_011.jpg
758.644	1.292	1	pointing	Trial1	pointing/STIM_011.jpg
762.018	1.411	1	pointing	Trial1	pointing/STIM_011.jpg
765.609	1.18	1	pointing	Trial1	pointing/STIM_011.jpg
769.1	2.801	1	navigation	Trial2	navigation/STIM_000.jpg
775.464	2.97	1	navigation	Trial2	navigation/STIM_000.jpg
781.446	2.503	1	navigation	Trial2	navigation/STIM_000.jpg
786.678	3.165	1	navigation	Trial2	navigation/STIM_000.jpg
792.262	3.292	1	navigation	Trial2	navigation/STIM_000.jpg
797.931	2.018	1	navigation	Trial2	navigation/STIM_000.jpg
801.953	2.031	1	navigation	Trial2	navigation/STIM_001.jpg
807.665	3.783	1	navigation	Trial2	navigation/STIM_001.jpg
813.818	3.986	1	navigation	Trial2	navigation/STIM_001.jpg
820.816	3.536	1	navigation	Trial2	navigation/STIM_001.jpg
827.612	3.232	1	navigation	Trial2	navigation/STIM_001.jpg
834.424	3.658	1	navigation	Trial2	navigation/STIM_001.jpg
840.289	4.254	1	navigation	Trial2	navigation/STIM_002.jpg
848.397	3.441	1	navigation	Trial2	navigation/STIM_002.jpg
854.761	2.584	1	navigation	Trial2	navigation/STIM_002.jpg
859.925	2.173	1	navigation	Trial2	navigation/STIM_002.jpg
865.504	2.427	1	navigation	Trial2	navigation/STIM_002.jpg
871.05	3.611	1	navigation	Trial2	navigation/STIM_002.jpg
878.595	3.483	1	navigation	Trial2	navigation/STIM_003.jpg
885.248	3.193	1	navigation	Trial2	navigation/STIM_003.jpg
891.378	3.598	1	navigation	Trial2	navigation/STIM_003.jpg
897.182	1.732	1	navigation	Trial2	navigation/STIM_003.jpg
902.228	2.206	1	navigation	Trial2	navigation/STIM_003.jpg
907.733	2.792	1	navigation	Trial2	navigation/STIM_003.jpg
913.018	3.246	1	navigation	Trial2	navigation/STIM_004.jpg
919.561	2.707	1	navigation	Trial2	navigation/STIM_004.jpg
924.985	2.742	1	navigation	Trial2	navigation/STIM_004.jpg
929.872	3.39	1	navigation	Trial2	navigation/STIM_004.jpg
935.983	1.961	1	navigation	Trial2	navigation/STIM_004.jpg
941.476	1.539	1	navigation	Trial2	navigation/STIM_004.jpg
945.827	3.955	1	navigation	Trial2	navigation/STIM_005.jpg
952.419	3.645	1	navigation	Trial2	navigation/STIM_005.jpg
959.262	2.624	1	navigation	Trial2	navigation/STIM_005.jpg
964.96	3.583	1	navigation	Trial2	navigation/STIM_005.jpg
970.663	2.775	1	navigation	Trial2	navigation/STIM_005.jpg
976.36	2.43	1	navigation	Trial2	navigation/STIM_005.jpg
982.212	3.324	1	navigation	Trial2	navigation/STIM_006.jpg
987.556	3.774	0	navigation	Trial2	navigation/STIM_006.jpg
993.505	3.698	1	navigation	Trial2	navigation/STIM_006.jpg
1000.684	2.581	1	navigation	Trial2	navigation/STIM_006.jpg
1007.21	1.916	1	navigation	Trial2	navigation/STIM_006.jpg
1013.095	3.224	1	navigation	Trial2	navigation/STIM_006.jpg
1019.723	2.668	1	navigation	Trial2	navigation/STIM_007.jpg
1026.347	4.112	1	navigation	Trial2	navigation/STIM_007.jpg
1033.507	1.894	1	navigation	Trial2	navigation/STIM_007.jpg
1038.383	1.886	1	navigation	Trial2	navigation/STIM_007.jpg
1043.238	2.514	1	navigation	Trial2	navigation/STIM_007.jpg
1048.222	3.009	1	navigation	Trial2	navigation/STIM_007.jpg
1053.43	4.036	1	navigation	Trial2	navigation/STIM_008.jpg
1061.366	2.931	1	navigation	Trial2	navigation/STIM_008.jpg
1067.623	1.69	1	navigation	Trial2	navigation/STIM_008.jpg
1071.841	2.267	1	navigation	Trial2	navigation/STIM_008.jpg
1078.066	2.07	1	navigation	Trial2	navigation/STIM_008.jpg
1082.753	2.591	1	navigation	Trial2	navigation/STIM_008.jpg
1087.781	3.21	0	navigation	Trial2	navigation/STIM_009.jpg
1093.53	2.009	1	navigation	Trial2	navigation/STIM_009.jpg
1098.584	3.745	0	navigation	Trial2	navigation/STIM_009.jpg
1104.808	2.646	1	navigation	Trial2	navigation/STIM_009.jpg
1111.064	3.472	1	navigation	Trial2	navigation/STIM_009.jpg
1117.9	3.025	1	navigation	Trial2	navigation/STIM_009.jpg
1123.347	3.334	1	navigation	Trial2	navigation/STIM_010.jpg
1129.496	3.925	1	navigation	Trial2	navigation/STIM_010.jpg
1137.197	1.923	1	navigation	Trial2	navigation/STIM_010.jpg
1141.868	3.146	1	navigation	Trial2	navigation/STIM_010.jpg
1148.166	2.748	1	navigation	Trial2	navigation/STIM_010.jpg
1154.564	3.629	1	navigation	Trial2	navigation/STIM_010.jpg
1160.929	2.625	1	navigation	Trial2	navigation/STIM_011.jpg
1166.469	3.611	1	navigation	Trial2	navigation/STIM_011.jpg
1172.72	3.761	1	navigation	Trial2	navigation/STIM_011.jpg
1180.067	1.908	1	navigation	Trial2	navigation/STIM_011.jpg
1184.785	3.718	1	navigation	Trial2	navigation/STIM_011.jpg
1191.465	3.098	1	navigation	Trial2	navigation/STIM_011.jpg
1196.618	1.145	1	pointing	Trial2	pointing/STIM_000.jpg
1201.381	1.603	1	pointing	Trial2	pointing/STIM_000.jpg
1206.846	1.064	1	pointing	Trial2	pointing/STIM_000.jpg
1210.287	0.994	1	pointing	Trial2	pointing/STIM_000.jpg
1214.299	1.359	1	pointing	Trial2	pointing/STIM_000.jpg
1219.171	1.193	1	pointing	Trial2	pointing/STIM_000.jpg
1224.042	1.339	1	pointing	Trial2	pointing/STIM_001.jpg
1227.856	0.912	1	pointing	Trial2	pointing/STIM_001.jpg
1230.834	0.958	1	pointing	Trial2	pointing/STIM_001.jpg
1233.868	1.125	1	pointing	Trial2	pointing/STIM_001.jpg
1237.596	1.457	1	pointing	Trial2	pointing/STIM_001.jpg
1241.845	0.972	1	pointing	Trial2	pointing/STIM_001.jpg
1245.824	1.464	1	pointing	Trial2	pointing/STIM_002.jpg
1250.993	1.049	1	pointing	Trial2	pointing/STIM_002.jpg
1254.461	1.012	1	pointing	Trial2	pointing/STIM_002.jpg
1259.0	1.392	1	pointing	Trial2	pointing/STIM_002.jpg
1263.965	1.011	1	pointing	Trial2	pointing/STIM_002.jpg
1268.146	1.322	1	pointing	Trial2	pointing/STIM_002.jpg
1272.927	1.331	1	pointing	Trial2	pointing/STIM_003.jpg
1276.676	1.534	1	pointing	Trial2	pointing/STIM_003.jpg
1281.713	1.097	1	pointing	Trial2	pointing/STIM_003.jpg
1286.722	1.533	1	pointing	Trial2	pointing/STIM_003.jpg
1290.282	1.255	1	pointing	Trial2	pointing/STIM_003.jpg
1294.824	1.58	1	pointing	Trial2	pointing/STIM_003.jpg
1299.449	0.919	1	pointing	Trial2	pointing/STIM_004.jpg
1302.74	1.09	1	pointing	Trial2	pointing/STIM_004.jpg
1306.373	1.49	1	pointing	Trial2	pointing/STIM_004.jpg
1310.715	1.113	1	pointing	Trial2	pointing/STIM_004.jpg
1315.574	0.967	1	pointing	Trial2	pointing/STIM_004.jpg
1320.089	0.994	1	pointing	Trial2	pointing/STIM_004.jpg
1323.552	1.086	1	pointing	Trial2	pointing/STIM_005.jpg
1327.305	1.21	1	pointing	Trial2	pointing/STIM_005.jpg
1332.332	1.385	1	pointing	Trial2	pointing/STIM_005.jpg
1337.201	1.034	1	pointing	Trial2	pointing/STIM_005.jpg
1341.121	1.572	1	pointing	Trial2	pointing/STIM_005.jpg
1345.403	1.569	0	pointing	Trial2	pointing/STIM_005.jpg
1349.805	0.902	1	pointing	Trial2	pointing/STIM_006.jpg
1354.603	1.158	1	pointing	Trial2	pointing/STIM_006.jpg
1358.021	1.142	1	pointing	Trial2	pointing/STIM_006.jpg
1362.649	1.442	1	pointing	Trial2	pointing/STIM_006.jpg
1367.785	1.608	1	pointing	Trial2	pointing/STIM_006.jpg
1372.665	1.398	1	pointing	Trial2	pointing/STIM_006.jpg
1376.883	1.265	1	pointing	Trial2	pointing/STIM_007.jpg
1380.639	1.397	1	pointing	Trial2	pointing/STIM_007.jpg
1384.774	0.951	1	pointing	Trial2	pointing/STIM_007.jpg
1388.059	1.534	1	pointing	Trial2	pointing/STIM_007.jpg
1392.051	1.342	0	pointing	Trial2	pointing/STIM_007.jpg
1396.382	1.259	1	pointing	Trial2	pointing/STIM_007.jpg
1400.201	1.38	1	pointing	Trial2	pointing/STIM_008.jpg
1403.706	1.52	1	pointing	Trial2	pointing/STIM_008.jpg
1408.285	1.061	1	pointing	Trial2	pointing/STIM_008.jpg
1412.326	0.929	1	pointing	Trial2	pointing/STIM_008.jpg
1415.58	1.412	1	pointing	Trial2	pointing/STIM_008.jpg
1419.233	1.274	1	pointing	Trial2	pointing/STIM_008.jpg
1424.449	0.996	1	pointing	Trial2	pointing/STIM_009.jpg
1427.87	1.291	1	pointing	Trial2	pointing/STIM_009.jpg
1431.389	1.53	1	pointing	Trial2	pointing/STIM_009.jpg
1435.382	1.592	1	pointing	Trial2	pointing/STIM_009.jpg
1439.932	1.036	1	pointing	Trial2	pointing/STIM_009.jpg
1443.292	1.242	1	pointing	Trial2	pointing/STIM_009.jpg
1447.603	1.325	1	pointing	Trial2	pointing/STIM_010.jpg
1450.994	0.934	1	pointing	Trial2	pointing/STIM_010.jpg
1455.598	1.489	1	pointing	Trial2	pointing/STIM_010.jpg
1460.114	1.581	1	pointing	Trial2	pointing/STIM_010.jpg
1463.98	1.246	1	pointing	Trial2	pointing/STIM_010.jpg
1469.026	1.483	1	pointing	Trial2	pointing/STIM_010.jpg
1473.352	1.498	1	pointing	Trial2	pointing/STIM_011.jpg
1477.654	1.556	1	pointing	Trial2	pointing/STIM_011.jpg
1482.458	1.169	1	pointing	Trial2	pointing/STIM_011.jpg
1485.782	0.972	1	pointing	Trial2	pointing/STIM_011.jpg
1489.992	1.31	1	pointing	Trial2	pointing/STIM_011.jpg
1494.247	1.134	1	pointing	Trial2	pointing/STIM_011.jpg
1498.184	2.396	1	navigation	Trial3	navigation/STIM_000.jpg
1502.938	2.009	1	navigation	Trial3	navigation/STIM_000.jpg
1507.722	2.997	1	navigation	Trial3	navigation/STIM_000.jpg
1514.013	1.868	1	navigation	Trial3	navigation/STIM_000.jpg
1518.288	2.567	1	navigation	Trial3	navigation/STIM_000.jpg
1524.765	3.453	1	navigation	Trial3	navigation/STIM_000.jpg
1530.281	2.746	1	navigation	Trial3	navigation/STIM_001.jpg
1535.385	1.801	1	navigation	Trial3	navigation/STIM_001.jpg
1540.269	2.215	1	navigation	Trial3	navigation/STIM_001.jpg
1545.2	2.762	1	navigation	Trial3	navigation/STIM_001.jpg
1551.438	3.604	1	navigation	Trial3	navigation/STIM_001.jpg
1558.714	3.395	1	navigation	Trial3	navigation/STIM_001.jpg
1564.785	3.585	1	navigation	Trial3	navigation/STIM_002.jpg
1571.454	2.617	1	navigation	Trial3	navigation/STIM_002.jpg
1576.951	3.062	1	navigation	Trial3	navigation/STIM_002.jpg
1582.439	2.056	1	navigation	Trial3	navigation/STIM_002.jpg
1588.367	2.132	1	navigation	Trial3	navigation/STIM_002.jpg
1594.268	1.88	1	navigation	Trial3	navigation/STIM_002.jpg
1599.806	2.27	1	navigation	Trial3	navigation/STIM_003.jpg
1605.004	3.508	1	navigation	Trial3	navigation/STIM_003.jpg
1612.15	2.907	1	navigation	Trial3	navigation/STIM_003.jpg
1617.497	3.392	1	navigation	Trial3	navigation/STIM_003.jpg
1623.102	2.576	1	navigation	Trial3	navigation/STIM_003.jpg
1629.142	3.209	1	navigation	Trial3	navigation/STIM_003.jpg
1635.933	3.134	1	navigation	Trial3	navigation/STIM_004.jpg
1641.246	3.329	1	navigation	Trial3	navigation/STIM_004.jpg
1646.954	1.897	1	navigation	Trial3	navigation/STIM_004.jpg
1652.49	2.843	1	navigation	Trial3	navigation/STIM_004.jpg
1657.766	2.132	1	navigation	Trial3	navigation/STIM_004.jpg
1662.45	2.173	1	navigation	Trial3	navigation/STIM_004.jpg
1667.927	1.898	1	navigation	Trial3	navigation/STIM_005.jpg
1673.693	3.238	0	navigation	Trial3	navigation/STIM_005.jpg
1679.489	1.602	1	navigation	Trial3	navigation/STIM_005.jpg
1684.365	3.655	1	navigation	Trial3	navigation/STIM_005.jpg
1690.637	2.999	1	navigation	Trial3	navigation/STIM_005.jpg
1696.978	2.604	1	navigation	Trial3	navigation/STIM_005.jpg
1701.582	2.636	0	navigation	Trial3	navigation/STIM_006.jpg
1708.213	2.427	1	navigation	Trial3	navigation/STIM_006.jpg
1714.596	2.685	1	navigation	Trial3	navigation/STIM_006.jpg
1721.14	3.529	1	navigation	Trial3	navigation/STIM_006.jpg
1726.885	3.104	1	navigation	Trial3	navigation/STIM_006.jpg
1733.191	3.393	1	navigation	Trial3	navigation/STIM_006.jpg
1738.953	3.036	1	navigation	Trial3	navigation/STIM_007.jpg
1744.677	1.777	1	navigation	Trial3	navigation/STIM_007.jpg
1749.8	1.659	0	navigation	Trial3	navigation/STIM_007.jpg
1754.743	3.502	1	navigation	Trial3	navigation/STIM_007.jpg
1762.103	3.058	1	navigation	Trial3	navigation/STIM_007.jpg
1768.111	1.602	1	navigation	Trial3	navigation/STIM_007.jpg
1772.391	2.308	1	navigation	Trial3	navigation/STIM_008.jpg
1777.066	1.808	1	navigation	Trial3	navigation/STIM_008.jpg
1781.276	3.596	1	navigation	Trial3	navigation/STIM_008.jpg
1788.067	3.56	1	navigation	Trial3	navigation/STIM_008.jpg
1794.132	3.673	1	navigation	Trial3	navigation/STIM_008.jpg
1800.034	2.779	1	navigation	Trial3	navigation/STIM_008.jpg
1806.125	2.792	1	navigation	Trial3	navigation/STIM_009.jpg
1812.581	2.614	1	navigation	Trial3	navigation/STIM_009.jpg
1818.827	1.818	1	navigation	Trial3	navigation/STIM_009.jpg
1824.419	1.859	1	navigation	Trial3	navigation/STIM_009.jpg
1829.147	3.779	1	navigation	Trial3	navigation/STIM_009.jpg
1834.929	1.973	1	navigation	Trial3	navigation/STIM_009.jpg
1840.772	1.796	1	navigation	Trial3	navigation/STIM_010.jpg
1846.462	3.537	1	navigation	Trial3	navigation/STIM_010.jpg
1852.845	2.806	1	navigation	Trial3	navigation/STIM_010.jpg
1858.787	3.789	1	navigation	Trial3	navigation/STIM_010.jpg
1865.5	2.265	1	navigation	Trial3	navigation/STIM_010.jpg
1870.988	2.701	1	navigation	Trial3	navigation/STIM_010.jpg
1875.715	2.674	1	navigation	Trial3	navigation/STIM_011.jpg
1880.497	1.718	1	navigation	Trial3	navigation/STIM_011.jpg
1884.889	1.842	1	navigation	Trial3	navigation/STIM_011.jpg
1889.62	2.97	1	navigation	Trial3	navigation/STIM_011.jpg
1895.396	3.512	1	navigation	Trial3	navigation/STIM_011.jpg
1901.235	2.795	1	navigation	Trial3	navigation/STIM_011.jpg
1906.981	1.436	1	pointing	Trial3	pointing/STIM_000.jpg
1910.579	1.616	1	pointing	Trial3	pointing/STIM_000.jpg
1914.954	1.317	1	pointing	Trial3	pointing/STIM_000.jpg
1919.891	1.62	1	pointing	Trial3	pointing/STIM_000.jpg
1923.894	0.967	1	pointing	Trial3	pointing/STIM_000.jpg
1927.268	1.406	1	pointing	Trial3	pointing/STIM_000.jpg
1932.332	0.944	1	pointing	Trial3	pointing/STIM_001.jpg
1936.787	1.224	1	pointing	Trial3	pointing/STIM_001.jpg
1940.751	1.558	1	pointing	Trial3	pointing/STIM_001.jpg
1944.967	1.182	1	pointing	Trial3	pointing/STIM_001.jpg
1948.51	1.531	1	pointing	Trial3	pointing/STIM_001.jpg
1952.09	1.038	1	pointing	Trial3	pointing/STIM_001.jpg
1957.048	0.92	1	pointing	Trial3	pointing/STIM_002.jpg
1960.266	1.153	1	pointing	Trial3	pointing/STIM_002.jpg
1963.878	1.625	1	pointing	Trial3	pointing/STIM_002.jpg
1967.836	1.236	1	pointing	Trial3	pointing/STIM_002.jpg
1971.542	1.13	1	pointing	Trial3	pointing/STIM_002.jpg
1975.557	1.419	1	pointing	Trial3	pointing/STIM_002.jpg
1980.831	1.196	1	pointing	Trial3	pointing/STIM_003.jpg
1984.18	1.31	1	pointing	Trial3	pointing/STIM_003.jpg
1988.738	0.983	1	pointing	Trial3	pointing/STIM_003.jpg
1992.482	1.291	1	pointing	Trial3	pointing/STIM_003.jpg
1996.736	1.447	1	pointing	Trial3	pointing/STIM_003.jpg
2001.089	0.91	1	pointing	Trial3	pointing/STIM_003.jpg
2005.882	1.504	1	pointing	Trial3	pointing/STIM_004.jpg
2010.411	0.942	1	pointing	Trial3	pointing/STIM_004.jpg
2013.523	1.614	1	pointing	Trial3	pointing/STIM_004.jpg
2017.89	1.533	1	pointing	Trial3	pointing/STIM_004.jpg
2021.518	1.147	0	pointing	Trial3	pointing/STIM_004.jpg
2025.06	1.076	1	pointing	Trial3	pointing/STIM_004.jpg
2029.621	1.361	1	pointing	Trial3	pointing/STIM_005.jpg
2034.503	0.916	1	pointing	Trial3	pointing/STIM_005.jpg
2038.655	0.994	1	pointing	Trial3	pointing/STIM_005.jpg
2042.898	1.252	1	pointing	Trial3	pointing/STIM_005.jpg
2046.51	1.522	1	pointing	Trial3	pointing/STIM_005.jpg
2051.421	1.271	1	pointing	Trial3	pointing/STIM_005.jpg
2055.863	1.546	1	pointing	Trial3	pointing/STIM_006.jpg
2061.286	1.234	1	pointing	Trial3	pointing/STIM_006.jpg
2065.3	1.438	1	pointing	Trial3	pointing/STIM_006.jpg
2068.995	1.424	1	pointing	Trial3	pointing/STIM_006.jpg
2073.97	1.011	1	pointing	Trial3	pointing/STIM_006.jpg
2077.935	0.89	1	pointing	Trial3	pointing/STIM_006.jpg
2082.45	1.155	1	pointing	Trial3	pointing/STIM_007.jpg
2087.001	1.555	1	pointing	Trial3	pointing/STIM_007.jpg
2091.372	1.087	1	pointing	Trial3	pointing/STIM_007.jpg
2094.807	0.963	1	pointing	Trial3	pointing/STIM_007.jpg
2099.193	1.147	1	pointing	Trial3	pointing/STIM_007.jpg
2103.099	1.001	1	pointing	Trial3	pointing/STIM_007.jpg
2107.644	0.976	1	pointing	Trial3	pointing/STIM_008.jpg
2111.257	1.101	1	pointing	Trial3	pointing/STIM_008.jpg
2114.464	1.483	1	pointing	Trial3	pointing/STIM_008.jpg
2118.753	1.301	1	pointing	Trial3	pointing/STIM_008.jpg
2122.989	1.167	1	pointing	Trial3	pointing/STIM_008.jpg
2127.94	1.202	1	pointing	Trial3	pointing/STIM_008.jpg
2132.259	1.588	1	pointing	Trial3	pointing/STIM_009.jpg
2137.097	1.044	1	pointing	Trial3	pointing/STIM_009.jpg
2140.509	1.473	0	pointing	Trial3	pointing/STIM_009.jpg
2144.217	1.253	1	pointing	Trial3	pointing/STIM_009.jpg
2147.77	1.003	1	pointing	Trial3	pointing/STIM_009.jpg
2151.437	1.22	1	pointing	Trial3	pointing/STIM_009.jpg
2155.824	1.427	1	pointing	Trial3	pointing/STIM_010.jpg
2160.436	1.104	1	pointing	Trial3	pointing/STIM_010.jpg
2163.895	1.335	1	pointing	Trial3	pointing/STIM_010.jpg
2168.344	0.906	1	pointing	Trial3	pointing/STIM_010.jpg
2172.554	0.99	1	pointing	Trial3	pointing/STIM_010.jpg
2176.528	1.314	1	pointing	Trial3	pointing/STIM_010.jpg
2180.057	1.244	1	pointing	Trial3	pointing/STIM_011.jpg
2183.562	1.46	1	pointing	Trial3	pointing/STIM_011.jpg
2187.518	1.063	1	pointing	Trial3	pointing/STIM_011.jpg
2192.01	0.872	1	pointing	Trial3	pointing/STIM_011.jpg
2195.977	1.11	1	pointing	Trial3	pointing/STIM_011.jpg
2199.483	1.022	1	pointing	Trial3	pointing/STIM_011.jpg
