onset	duration	accuracy_binary	trial_type	learning_stage	stimulus
0.0	4.375	1	navigation	Trial1	navigation/STIM_000.jpg
7.521	2.839	1	navigation	Trial1	navigation/STIM_000.jpg
13.269	3.262	1	navigation	Trial1	navigation/STIM_000.jpg
19.343	2.591	1	navigation	Trial1	navigation/STIM_000.jpg
25.443	2.345	1	navigation	Trial1	navigation/STIM_000.jpg
30.828	3.508	1	navigation	Trial1	navigation/STIM_000.jpg
37.861	3.192	1	navigation	Trial1	navigation/STIM_001.jpg
44.884	2.732	1	navigation	Trial1	navigation/STIM_001.jpg
51.449	3.914	1	navigation	Trial1	navigation/STIM_001.jpg
57.778	2.256	0	navigation	Trial1	navigation/STIM_001.jpg
63.634	2.901	1	navigation	Trial1	navigation/STIM_001.jpg
68.622	2.696	1	navigation	Trial1	navigation/STIM_001.jpg
73.418	2.84	1	navigation	Trial1	navigation/STIM_002.jpg
80.103	4.125	1	navigation	Trial1	navigation/STIM_002.jpg
86.254	1.939	1	navigation	Trial1	navigation/STIM_002.jpg
91.745	3.52	1	navigation	Trial1	navigation/STIM_002.jpg
97.694	2.051	1	navigation	Trial1	navigation/STIM_002.jpg
101.75	2.555	1	navigation	Trial1	navigation/STIM_002.jpg
106.526	4.811	1	navigation	Trial1	navigation/STIM_003.jpg
113.319	4.086	1	navigation	Trial1	navigation/STIM_003.jpg
119.51	4.158	0	navigation	Trial1	navigation/STIM_003.jpg
127.428	3.489	1	navigation	Trial1	navigation/STIM_003.jpg
133.122	1.664	1	navigation	Trial1	navigation/STIM_003.jpg
138.661	2.412	1	navigation	Trial1	navigation/STIM_003.jpg
144.764	2.404	0	navigation	Trial1	navigation/STIM_004.jpg
150.627	2.539	0	navigation	Trial1	navigation/STIM_004.jpg
155.139	2.95	1	navigation	Trial1	navigation/STIM_004.jpg
160.964	3.491	0	navigation	Trial1	navigation/STIM_004.jpg
167.362	3.888	1	navigation	Trial1	navigation/STIM_004.jpg
174.872	3.253	1	navigation	Trial1	navigation/STIM_004.jpg
180.233	4.016	1	navigation	Trial1	navigation/STIM_005.jpg
186.258	3.457	1	navigation	Trial1	navigation/STIM_005.jpg
192.022	2.559	1	navigation	Trial1	navigation/STIM_005.jpg
196.916	3.815	1	navigation	Trial1	navigation/STIM_005.jpg
202.699	2.524	1	navigation	Trial1	navigation/STIM_005.jpg
208.243	2.203	1	navigation	Trial1	navigation/STIM_005.jpg
214.254	3.252	0	navigation	Trial1	navigation/STIM_006.jpg
221.298	3.934	1	navigation	Trial1	navigation/STIM_006.jpg
228.089	2.363	1	navigation	Trial1	navigation/STIM_006.jpg
234.176	3.328	0	navigation	Trial1	navigation/STIM_006.jpg
240.458	3.868	0	navigation	Trial1	navigation/STIM_006.jpg
247.685	3.485	1	navigation	Trial1	navigation/STIM_006.jpg
253.364	4.6	0	navigation	Trial1	navigation/STIM_007.jpg
261.297	2.026	1	navigation	Trial1	navigation/STIM_007.jpg
266.666	3.287	1	navigation	Trial1	navigation/STIM_007.jpg
272.606	3.786	1	navigation	Trial1	navigation/STIM_007.jpg
279.068	3.547	1	navigation	Trial1	navigation/STIM_007.jpg
285.295	3.384	1	navigation	Trial1	navigation/STIM_007.jpg
291.884	3.043	0	navigation	Trial1	navigation/STIM_008.jpg
297.818	2.001	1	navigation	Trial1	navigation/STIM_008.jpg
302.379	2.23	1	navigation	Trial1	navigation/STIM_008.jpg
308.345	2.928	1	navigation	Trial1	navigation/STIM_008.jpg
314.01	3.492	1	navigation	Trial1	navigation/STIM_008.jpg
320.233	2.335	0	navigation	Trial1	navigation/STIM_008.jpg
325.823	3.22	1	navigation	Trial1	navigation/STIM_009.jpg
331.841	2.507	1	navigation	Trial1	navigation/STIM_009.jpg
336.756	3.982	1	navigation	Trial1	navigation/STIM_009.jpg
344.627	2.438	1	navigation	Trial1	navigation/STIM_009.jpg
350.824	2.095	1	navigation	Trial1	navigation/STIM_009.jpg
356.163	2.93	1	navigation	Trial1	navigation/STIM_009.jpg
361.51	5.074	1	navigation	Trial1	navigation/STIM_010.jpg
369.295	4.4	1	navigation	Trial1	navigation/STIM_010.jpg
377.062	3.804	1	navigation	Trial1	navigation/STIM_010.jpg
383.94	2.804	1	navigation	Trial1	navigation/STIM_010.jpg
390.532	3.57	1	navigation	Trial1	navigation/STIM_010.jpg
396.864	2.621	0	navigation	Trial1	navigation/STIM_010.jpg
402.418	4.811	1	navigation	Trial1	navigation/STIM_011.jpg
409.324	3.85	1	navigation	Trial1	navigation/STIM_011.jpg
416.676	2.324	0	navigation	Trial1	navigation/STIM_011.jpg
422.154	3.666	1	navigation	Trial1	navigation/STIM_011.jpg
429.088	3.686	0	navigation	Trial1	navigation/STIM_011.jpg
436.362	2.558	0	navigation	Trial1	navigation/STIM_011.jpg
442.841	1.089	1	pointing	Trial1	pointing/STIM_000.jpg
446.98	0.853	1	pointing	Trial1	pointing/STIM_000.jpg
450.39	1.357	1	pointing	Trial1	pointing/STIM_000.jpg
454.113	0.979	1	pointing	Trial1	pointing/STIM_000.jpg
457.155	1.064	1	pointing	Trial1	pointing/STIM_000.jpg
461.776	1.458	1	pointing	Trial1	pointing/STIM_000.jpg
465.52	1.016	1	pointing	Trial1	pointing/STIM_001.jpg
470.514	1.036	1	pointing	Trial1	pointing/STIM_001.jpg
474.448	1.432	0	pointing	Trial1	pointing/STIM_001.jpg
478.007	0.815	1	pointing	Trial1	pointing/STIM_001.jpg
482.241	0.868	1	pointing	Trial1	pointing/STIM_001.jpg
485.826	1.37	1	pointing	Trial1	pointing/STIM_001.jpg
490.497	0.974	1	pointing	Trial1	pointing/STIM_002.jpg
494.836	1.488	0	pointing	Trial1	pointing/STIM_002.jpg
499.383	1.409	1	pointing	Trial1	pointing/STIM_002.jpg
503.195	1.512	1	pointing	Trial1	pointing/STIM_002.jpg
506.842	0.928	1	pointing	Trial1	pointing/STIM_002.jpg
510.847	1.106	1	pointing	Trial1	pointing/STIM_002.jpg
515.798	0.852	1	pointing	Trial1	pointing/STIM_003.jpg
519.887	1.1	1	pointing	Trial1	pointing/STIM_003.jpg
523.258	1.057	1	pointing	Trial1	pointing/STIM_003.jpg
526.64	1.493	1	pointing	Trial1	pointing/STIM_003.jpg
531.049	1.366	1	pointing	Trial1	pointing/STIM_003.jpg
535.536	1.521	0	pointing	Trial1	pointing/STIM_003.jpg
540.814	1.512	1	pointing	Trial1	pointing/STIM_004.jpg
545.285	1.224	1	pointing	Trial1	pointing/STIM_004.jpg
549.306	1.073	1	pointing	Trial1	pointing/STIM_004.jpg
554.254	0.819	1	pointing	Trial1	pointing/STIM_004.jpg
558.656	1.118	0	pointing	Trial1	pointing/STIM_004.jpg
562.774	1.506	1	pointing	Trial1	pointing/STIM_004.jpg
566.92	1.308	1	pointing	Trial1	pointing/STIM_005.jpg
571.064	1.137	0	pointing	Trial1	pointing/STIM_005.jpg
575.031	1.148	1	pointing	Trial1	pointing/STIM_005.jpg
580.058	1.445	1	pointing	Trial1	pointing/STIM_005.jpg
584.835	1.039	1	pointing	Trial1	pointing/STIM_005.jpg
588.735	1.019	1	pointing	Trial1	pointing/STIM_005.jpg
591.779	1.082	1	pointing	Trial1	pointing/STIM_006.jpg
596.818	1.48	1	pointing	Trial1	pointing/STIM_006.jpg
600.511	1.033	1	pointing	Trial1	pointing/STIM_006.jpg
603.808	1.329	1	pointing	Trial1	pointing/STIM_006.jpg
609.092	0.878	1	pointing	Trial1	pointing/STIM_006.jpg
612.056	1.487	1	pointing	Trial1	pointing/STIM_006.jpg
616.926	0.933	1	pointing	Trial1	pointing/STIM_007.jpg
620.781	1.169	1	pointing	Trial1	pointing/STIM_007.jpg
624.04	1.264	1	pointing	Trial1	pointing/STIM_007.jpg
628.196	0.956	0	pointing	Trial1	pointing/STIM_007.jpg
632.789	0.966	1	pointing	Trial1	pointing/STIM_007.jpg
637.735	0.9	1	pointing	Trial1	pointing/STIM_007.jpg
641.065	1.441	1	pointing	Trial1	pointing/STIM_008.jpg
645.745	0.851	1	pointing	Trial1	pointing/STIM_008.jpg
649.512	0.824	1	pointing	Trial1	pointing/STIM_008.jpg
654.158	1.03	1	pointing	Trial1	pointing/STIM_008.jpg
658.481	1.017	1	pointing	Trial1	pointing/STIM_008.jpg
661.732	1.406	1	pointing	Trial1	pointing/STIM_008.jpg
666.127	0.915	1	pointing	Trial1	pointing/STIM_009.jpg
669.067	1.232	1	pointing	Trial1	pointing/STIM_009.jpg
673.621	1.321	0	pointing	Trial1	pointing/STIM_009.jpg
678.759	1.008	1	pointing	Trial1	pointing/STIM_009.jpg
682.309	0.89	1	pointing	Trial1	pointing/STIM_009.jpg
686.419	1.37	1	pointing	Trial1	pointing/STIM_009.jpg
690.807	1.315	1	pointing	Trial1	pointing/STIM_010.jpg
695.15	1.355	0	pointing	Trial1	pointing/STIM_010.jpg
699.163	0.913	1	pointing	Trial1	pointing/STIM_010.jpg
703.222	1.059	1	pointing	Trial1	pointing/STIM_010.jpg
707.144	1.34	1	pointing	Trial1	pointing/STIM_010.jpg
712.204	0.925	1	pointing	Trial1	pointing/STIM_010.jpg
716.388	0.892	1	pointing	Trial1	pointing/STIM_011.jpg
719.604	1.16	1	pointing	Trial1	pointing/STIM_011.jpg
723.81	1.452	1	pointing	Trial1	pointing/STIM_011.jpg
728.345	1.225	1	pointing	Trial1	pointing/STIM_011.jpg
733.241	1.516	1	pointing	Trial1	pointing/STIM_011.jpg
736.937	1.004	1	pointing	Trial1	pointing/STIM_011.jpg
741.064	3.893	1	navigation	Trial2	navigation/STIM_000.jpg
747.091	3.786	1	navigation	Trial2	navigation/STIM_000.jpg
753.333	3.236	1	navigation	Trial2	navigation/STIM_000.jpg
758.544	3.046	0	navigation	Trial2	navigation/STIM_000.jpg
765.135	1.65	1	navigation	Trial2	navigation/STIM_000.jpg
769.504	2.612	1	navigation	Trial2	navigation/STIM_000.jpg
774.553	3.158	0	navigation	Trial2	navigation/STIM_001.jpg
780.087	3.009	0	navigation	Trial2	navigation/STIM_001.jpg
786.763	2.853	1	navigation	Trial2	navigation/STIM_001.jpg
791.732	2.99	1	navigation	Trial2	navigation/STIM_001.jpg
797.385	1.929	1	navigation	Trial2	navigation/STIM_001.jpg
803.053	1.55	1	navigation	Trial2	navigation/STIM_001.jpg
808.277	3.037	1	navigation	Trial2	navigation/STIM_002.jpg
814.767	3.15	1	navigation	Trial2	navigation/STIM_002.jpg
820.509	3.063	1	navigation	Trial2	navigation/STIM_002.jpg
826.023	1.457	1	navigation	Trial2	navigation/STIM_002.jpg
830.509	2.157	1	navigation	Trial2	navigation/STIM_002.jpg
834.999	2.133	1	navigation	Trial2	navigation/STIM_002.jpg
839.904	2.544	1	navigation	Trial2	navigation/STIM_003.jpg
844.524	4.002	0	navigation	Trial2	navigation/STIM_003.jpg
851.243	3.478	1	navigation	Trial2	navigation/STIM_003.jpg
857.748	2.957	1	navigation	Trial2	navigation/STIM_003.jpg
863.41	1.574	1	navigation	Trial2	navigation/STIM_003.jpg
866.986	3.19	1	navigation	Trial2	navigation/STIM_003.jpg
872.967	2.013	1	navigation	Trial2	navigation/STIM_004.jpg
878.729	3.535	1	navigation	Trial2	navigation/STIM_004.jpg
885.446	3.143	1	navigation	Trial2	navigation/STIM_004.jpg
890.693	3.436	1	navigation	Trial2	navigation/STIM_004.jpg
896.806	1.519	1	navigation	Trial2	navigation/STIM_004.jpg
901.958	1.736	1	navigation	Trial2	navigation/STIM_004.jpg
907.589	3.112	0	navigation	Trial2	navigation/STIM_005.jpg
912.707	1.983	1	navigation	Trial2	navigation/STIM_005.jpg
917.592	2.521	0	navigation	Trial2	navigation/STIM_005.jpg
922.387	3.161	1	navigation	Trial2	navigation/STIM_005.jpg
929.37	2.206	1	navigation	Trial2	navigation/STIM_005.jpg
934.74	2.209	1	navigation	Trial2	navigation/STIM_005.jpg
939.036	4.066	0	navigation	Trial2	navigation/STIM_006.jpg
945.979	3.865	1	navigation	Trial2	navigation/STIM_006.jpg
952.174	3.12	1	navigation	Trial2	navigation/STIM_006.jpg
958.854	2.499	1	navigation	Trial2	navigation/STIM_006.jpg
963.776	1.813	1	navigation	Trial2	navigation/STIM_006.jpg
969.479	3.41	1	navigation	Trial2	navigation/STIM_006.jpg
975.03	2.017	1	navigation	Trial2	navigation/STIM_007.jpg
980.088	3.05	1	navigation	Trial2	navigation/STIM_007.jpg
986.022	2.553	1	navigation	Trial2	navigation/STIM_007.jpg
991.534	3.404	1	navigation	Trial2	navigation/STIM_007.jpg
997.117	2.968	0	navigation	Trial2	navigation/STIM_007.jpg
1002.175	1.783	0	navigation	Trial2	navigation/STIM_007.jpg
1007.464	3.696	0	navigation	Trial2	navigation/STIM_008.jpg
1013.29	1.86	0	navigation	Trial2	navigation/STIM_008.jpg
1017.91	1.816	0	navigation	Trial2	navigation/STIM_008.jpg
1021.741	2.919	1	navigation	Trial2	navigation/STIM_008.jpg
1028.212	2.118	1	navigation	Trial2	navigation/STIM_008.jpg
1033.799	3.325	1	navigation	Trial2	navigation/STIM_008.jpg
1040.276	2.306	1	navigation	Trial2	navigation/STIM_009.jpg
1045.509	2.924	1	navigation	Trial2	navigation/STIM_009.jpg
1050.744	2.833	1	navigation	Trial2	navigation/STIM_009.jpg
1057.416	2.736	1	navigation	Trial2	navigation/STIM_009.jpg
1063.213	2.904	1	navigation	Trial2	navigation/STIM_009.jpg
1070.042	1.668	1	navigation	Trial2	navigation/STIM_009.jpg
1075.526	1.999	0	navigation	Trial2	navigation/STIM_010.jpg
1079.667	3.967	1	navigation	Trial2	navigation/STIM_010.jpg
1086.673	2.438	1	navigation	Trial2	navigation/STIM_010.jpg
1091.929	2.747	1	navigation	Trial2	navigation/STIM_010.jpg
1096.972	1.666	1	navigation	Trial2	navigation/STIM_010.jpg
1102.165	3.404	1	navigation	Trial2	navigation/STIM_010.jpg
1108.353	3.332	1	navigation	Trial2	navigation/STIM_011.jpg
1114.199	3.079	0	navigation	Trial2	navigation/STIM_011.jpg
1120.416	3.467	0	navigation	Trial2	navigation/STIM_011.jpg
1126.727	2.336	1	navigation	Trial2	navigation/STIM_011.jpg
1132.089	1.436	1	navigation	Trial2	navigation/STIM_011.jpg
1135.57	2.722	1	navigation	Trial2	navigation/STIM_011.jpg
1140.51	1.451	1	pointing	Trial2	pointing/STIM_000.jpg
1144.984	1.15	1	pointing	Trial2	pointing/STIM_000.jpg
1148.948	1.053	1	pointing	Trial2	pointing/STIM_000.jpg
1153.244	1.248	1	pointing	Trial2	pointing/STIM_000.jpg
1156.851	1.463	0	pointing	Trial2	pointing/STIM_000.jpg
1160.822	1.371	1	pointing	Trial2	pointing/STIM_000.jpg
1166.117	0.977	1	pointing	Trial2	pointing/STIM_001.jpg
1170.998	0.829	1	pointing	Trial2	pointing/STIM_001.jpg
1175.326	1.386	1	pointing	Trial2	pointing/STIM_001.jpg
1180.041	1.22	1	pointing	Trial2	pointing/STIM_001.jpg
1183.908	1.112	1	pointing	Trial2	pointing/STIM_001.jpg
1188.12	1.059	1	pointing	Trial2	pointing/STIM_001.jpg
1193.045	1.052	1	pointing	Trial2	pointing/STIM_002.jpg
1196.338	1.286	1	pointing	Trial2	pointing/STIM_002.jpg
1201.433	1.142	1	pointing	Trial2	pointing/STIM_002.jpg
1205.047	0.948	1	pointing	Trial2	pointing/STIM_002.jpg
1209.029	1.454	0	pointing	Trial2	pointing/STIM_002.jpg
1212.956	1.261	1	pointing	Trial2	pointing/STIM_002.jpg
1217.818	0.943	1	pointing	Trial2	pointing/STIM_003.jpg
1221.238	1.064	1	pointing	Trial2	pointing/STIM_003.jpg
1225.939	1.396	1	pointing	Trial2	pointing/STIM_003.jpg
1229.847	1.156	1	pointing	Trial2	pointing/STIM_003.jpg
1233.826	1.121	1	pointing	Trial2	pointing/STIM_003.jpg
1238.251	1.059	1	pointing	Trial2	pointing/STIM_003.jpg
1242.443	1.262	1	pointing	Trial2	pointing/STIM_004.jpg
1246.513	1.017	1	pointing	Trial2	pointing/STIM_004.jpg
1250.099	1.235	1	pointing	Trial2	pointing/STIM_004.jpg
1255.287	1.477	1	pointing	Trial2	pointing/STIM_004.jpg
1260.07	1.146	1	pointing	Trial2	pointing/STIM_004.jpg
1263.31	0.928	1	pointing	Trial2	pointing/STIM_004.jpg
1267.388	1.46	1	pointing	Trial2	pointing/STIM_005.jpg
1272.569	1.215	0	pointing	Trial2	pointing/STIM_005.jpg
1276.173	1.196	1	pointing	Trial2	pointing/STIM_005.jpg
1280.08	1.491	1	pointing	Trial2	pointing/STIM_005.jpg
1284.646	1.214	1	pointing	Trial2	pointing/STIM_005.jpg
1289.76	1.037	1	pointing	Trial2	pointing/STIM_005.jpg
1293.995	1.28	1	pointing	Trial2	pointing/STIM_006.jpg
1299.01	1.46	1	pointing	Trial2	pointing/STIM_006.jpg
1302.538	0.992	1	pointing	Trial2	pointing/STIM_006.jpg
1306.667	1.055	1	pointing	Trial2	pointing/STIM_006.jpg
1311.15	1.043	1	pointing	Trial2	pointing/STIM_006.jpg
1315.422	0.975	1	pointing	Trial2	pointing/STIM_006.jpg
1318.87	1.516	1	pointing	Trial2	pointing/STIM_007.jpg
1323.106	1.103	1	pointing	Trial2	pointing/STIM_007.jpg
1326.679	0.844	1	pointing	Trial2	pointing/STIM_007.jpg
1330.607	0.97	1	pointing	Trial2	pointing/STIM_007.jpg
1335.015	0.998	1	pointing	Trial2	pointing/STIM_007.jpg
1339.369	1.516	1	pointing	Trial2	pointing/STIM_007.jpg
1344.329	1.457	1	pointing	Trial2	pointing/STIM_008.jpg
1349.613	1.446	1	pointing	Trial2	pointing/STIM_008.jpg
1353.308	1.454	1	pointing	Trial2	pointing/STIM_008.jpg
1357.094	1.465	1	pointing	Trial2	pointing/STIM_008.jpg
1360.805	1.117	1	pointing	Trial2	pointing/STIM_008.jpg
1364.356	1.037	1	pointing	Trial2	pointing/STIM_008.jpg
1368.025	1.186	0	pointing	Trial2	pointing/STIM_009.jpg
1372.727	0.823	0	pointing	Trial2	pointing/STIM_009.jpg
1376.033	0.826	1	pointing	Trial2	pointing/STIM_009.jpg
1379.287	1.488	1	pointing	Trial2	pointing/STIM_009.jpg
1383.577	1.418	1	pointing	Trial2	pointing/STIM_009.jpg
1387.332	0.814	1	pointing	Trial2	pointing/STIM_009.jpg
1391.858	1.177	1	pointing	Trial2	pointing/STIM_010.jpg
1395.259	1.244	1	pointing	Trial2	pointing/STIM_010.jpg
1398.923	1.278	1	pointing	Trial2	pointing/STIM_010.jpg
1403.458	0.882	1	pointing	Trial2	pointing/STIM_010.jpg
1407.575	0.941	1	pointing	Trial2	pointing/STIM_010.jpg
1411.211	0.942	1	pointing	Trial2	pointing/STIM_010.jpg
1415.694	1.43	0	pointing	Trial2	pointing/STIM_011.jpg
1420.996	1.207	1	pointing	Trial2	pointing/STIM_011.jpg
1424.323	0.969	1	pointing	Trial2	pointing/STIM_011.jpg
1428.889	1.444	1	pointing	Trial2	pointing/STIM_011.jpg
1433.384	1.42	1	pointing	Trial2	pointing/STIM_011.jpg
1437.986	1.444	1	pointing	Trial2	pointing/STIM_011.jpg
1441.805	2.909	1	navigation	Trial3	navigation/STIM_000.jpg
1447.035	2.744	0	navigation	Trial3	navigation/STIM_000.jpg
1452.862	2.589	1	navigation	Trial3	navigation/STIM_000.jpg
1457.539	1.527	1	navigation	Trial3	navigation/STIM_000.jpg
1462.766	2.536	1	navigation	Trial3	navigation/STIM_000.jpg
1468.203	2.094	1	navigation	Trial3	navigation/STIM_000.jpg
1472.434	3.116	1	navigation	Trial3	navigation/STIM_001.jpg
1478.999	2.331	1	navigation	Trial3	navigation/STIM_001.jpg
1484.097	1.482	0	navigation	Trial3	navigation/STIM_001.jpg
1488.7	3.172	1	navigation	Trial3	navigation/STIM_001.jpg
1495.265	1.651	1	navigation	Trial3	navigation/STIM_001.jpg
1499.121	1.566	1	navigation	Trial3	navigation/STIM_001.jpg
1504.28	1.973	1	navigation	Trial3	navigation/STIM_002.jpg
1509.661	1.937	1	navigation	Trial3	navigation/STIM_002.jpg
1515.438	1.486	1	navigation	Trial3	navigation/STIM_002.jpg
1519.605	1.964	1	navigation	Trial3	navigation/STIM_002.jpg
1525.042	1.668	1	navigation	Trial3	navigation/STIM_002.jpg
1529.084	3.495	1	navigation	Trial3	navigation/STIM_002.jpg
1535.509	2.083	1	navigation	Trial3	navigation/STIM_003.jpg
1540.751	3.522	1	navigation	Trial3	navigation/STIM_003.jpg
1547.712	2.126	1	navigation	Trial3	navigation/STIM_003.jpg
1552.233	2.28	1	navigation	Trial3	navigation/STIM_003.jpg
1558.368	2.586	1	navigation	Trial3	navigation/STIM_003.jpg
1563.349	2.611	1	navigation	Trial3	navigation/STIM_003.jpg
1568.861	2.669	1	navigation	Trial3	navigation/STIM_004.jpg
1575.149	1.876	1	navigation	Trial3	navigation/STIM_004.jpg
1580.65	1.862	1	navigation	Trial3	navigation/STIM_004.jpg
1585.178	2.088	1	navigation	Trial3	navigation/STIM_004.jpg
1591.139	2.935	0	navigation	Trial3	navigation/STIM_004.jpg
1596.98	2.258	1	navigation	Trial3	navigation/STIM_004.jpg
1602.877	3.244	1	navigation	Trial3	navigation/STIM_005.jpg
1609.256	2.485	1	navigation	Trial3	navigation/STIM_005.jpg
1614.709	3.344	0	navigation	Trial3	navigation/STIM_005.jpg
1621.808	1.679	0	navigation	Trial3	navigation/STIM_005.jpg
1627.455	2.758	1	navigation	Trial3	navigation/STIM_005.jpg
1633.888	2.639	1	navigation	Trial3	navigation/STIM_005.jpg
1640.458	1.799	1	navigation	Trial3	navigation/STIM_006.jpg
1644.597	1.862	0	navigation	Trial3	navigation/STIM_006.jpg
1648.525	3.259	1	navigation	Trial3	navigation/STIM_006.jpg
1655.44	3.125	1	navigation	Trial3	navigation/STIM_006.jpg
1662.045	1.52	1	navigation	Trial3	navigation/STIM_006.jpg
1667.491	3.041	1	navigation	Trial3	navigation/STIM_006.jpg
1674.222	2.482	1	navigation	Trial3	navigation/STIM_007.jpg
1679.552	3.29	1	navigation	Trial3	navigation/STIM_007.jpg
1686.435	2.702	1	navigation	Trial3	navigation/STIM_007.jpg
1692.61	2.733	1	navigation	Trial3	navigation/STIM_007.jpg
1697.369	2.785	1	navigation	Trial3	navigation/STIM_007.jpg
1702.753	1.79	1	navigation	Trial3	navigation/STIM_007.jpg
1708.421	1.57	1	navigation	Trial3	navigation/STIM_008.jpg
1713.803	1.769	0	navigation	Trial3	navigation/STIM_008.jpg
1717.87	1.838	0	navigation	Trial3	navigation/STIM_008.jpg
1722.575	2.028	0	navigation	Trial3	navigation/STIM_008.jpg
1727.67	2.392	0	navigation	Trial3	navigation/STIM_008.jpg
1733.469	3.242	1	navigation	Trial3	navigation/STIM_008.jpg
1740.576	1.708	1	navigation	Trial3	navigation/STIM_009.jpg
1745.902	2.236	1	navigation	Trial3	navigation/STIM_009.jpg
1752.081	3.324	1	navigation	Trial3	navigation/STIM_009.jpg
1758.842	2.712	1	navigation	Trial3	navigation/STIM_009.jpg
1763.893	2.051	1	navigation	Trial3	navigation/STIM_009.jpg
1769.002	3.397	1	navigation	Trial3	navigation/STIM_009.jpg
1775.568	1.818	1	navigation	Trial3	navigation/STIM_010.jpg
1779.72	3.092	0	navigation	Trial3	navigation/STIM_010.jpg
1785.084	2.061	1	navigation	Trial3	navigation/STIM_010.jpg
1790.71	1.855	1	navigation	Trial3	navigation/STIM_010.jpg
1794.735	2.081	1	navigation	Trial3	navigation/STIM_010.jpg
1799.981	1.594	1	navigation	Trial3	navigation/STIM_010.jpg
1804.306	1.484	1	navigation	Trial3	navigation/STIM_011.jpg
1808.621	3.372	1	navigation	Trial3	navigation/STIM_011.jpg
1814.963	3.239	1	navigation	Trial3	navigation/STIM_011.jpg
1821.872	1.863	1	navigation	Trial3	navigation/STIM_011.jpg
1827.363	1.978	1	navigation	Trial3	navigation/STIM_011.jpg
1833.275	2.812	1	navigation	Trial3	navigation/STIM_011.jpg
1839.436	0.874	1	pointing	Trial3	pointing/STIM_000.jpg
1843.574	1.038	1	pointing	Trial3	pointing/STIM_000.jpg
1847.051	1.21	1	pointing	Trial3	pointing/STIM_000.jpg
1851.158	0.848	1	pointing	Trial3	pointing/STIM_000.jpg
1855.53	1.504	0	pointing	Trial3	pointing/STIM_000.jpg
1859.913	1.425	1	pointing	Trial3	pointing/STIM_000.jpg
1863.966	0.881	1	pointing	Trial3	pointing/STIM_001.jpg
1867.438	1.464	1	pointing	Trial3	pointing/STIM_001.jpg
1872.622	1.379	1	pointing	Trial3	pointing/STIM_001.jpg
1876.076	0.952	1	pointing	Trial3	pointing/STIM_001.jpg
1880.855	0.873	1	pointing	Trial3	pointing/STIM_001.jpg
1885.498	1.282	1	pointing	Trial3	pointing/STIM_001.jpg
1888.801	1.481	1	pointing	Trial3	pointing/STIM_002.jpg
1893.147	1.246	1	pointing	Trial3	pointing/STIM_002.jpg
1897.825	1.145	1	pointing	Trial3	pointing/STIM_002.jpg
1902.144	0.82	1	pointing	Trial3	pointing/STIM_002.jpg
1905.023	1.138	1	pointing	Trial3	pointing/STIM_002.jpg
1909.993	0.964	1	pointing	Trial3	pointing/STIM_002.jpg
1913.757	0.867	1	pointing	Trial3	pointing/STIM_003.jpg
1916.89	1.002	1	pointing	Trial3	pointing/STIM_003.jpg
1921.289	1.138	1	pointing	Trial3	pointing/STIM_003.jpg
1925.199	1.308	1	pointing	Trial3	pointing/STIM_003.jpg
1929.525	0.975	1	pointing	Trial3	pointing/STIM_003.jpg
1933.299	1.167	1	pointing	Trial3	pointing/STIM_003.jpg
1936.53	0.869	1	pointing	Trial3	pointing/STIM_004.jpg
1939.715	0.884	1	pointing	Trial3	pointing/STIM_004.jpg
1944.381	1.123	1	pointing	Trial3	pointing/STIM_004.jpg
1948.361	0.994	1	pointing	Trial3	pointing/STIM_004.jpg
1953.268	1.136	0	pointing	Trial3	pointing/STIM_004.jpg
1956.683	0.827	1	pointing	Trial3	pointing/STIM_004.jpg
1959.633	1.043	1	pointing	Trial3	pointing/STIM_005.jpg
1963.195	1.216	0	pointing	Trial3	pointing/STIM_005.jpg
1967.968	0.942	1	pointing	Trial3	pointing/STIM_005.jpg
1971.429	1.261	1	pointing	Trial3	pointing/STIM_005.jpg
1974.943	1.12	1	pointing	Trial3	pointing/STIM_005.jpg
1978.09	0.995	1	pointing	Trial3	pointing/STIM_005.jpg
1982.481	1.084	1	pointing	Trial3	pointing/STIM_006.jpg
1987.291	0.936	1	pointing	Trial3	pointing/STIM_006.jpg
1990.881	1.054	1	pointing	Trial3	pointing/STIM_006.jpg
1994.019	0.949	1	pointing	Trial3	pointing/STIM_006.jpg
1997.927	1.14	1	pointing	Trial3	pointing/STIM_006.jpg
2001.372	1.412	1	pointing	Trial3	pointing/STIM_006.jpg
2006.486	1.328	1	pointing	Trial3	pointing/STIM_007.jpg
2010.356	0.918	1	pointing	Trial3	pointing/STIM_007.jpg
2013.589	1.392	1	pointing	Trial3	pointing/STIM_007.jpg
2018.573	0.955	1	pointing	Trial3	pointing/STIM_007.jpg
2023.314	1.436	1	pointing	Trial3	pointing/STIM_007.jpg
2026.858	0.879	1	pointing	Trial3	pointing/STIM_007.jpg
2031.083	1.28	1	pointing	Trial3	pointing/STIM_008.jpg
2034.358	1.357	1	pointing	Trial3	pointing/STIM_008.jpg
2037.99	1.124	1	pointing	Trial3	pointing/STIM_008.jpg
2043.03	1.219	1	pointing	Trial3	pointing/STIM_008.jpg
2046.485	0.909	1	pointing	Trial3	pointing/STIM_008.jpg
2049.525	1.304	1	pointing	Trial3	pointing/STIM_008.jpg
2053.906	1.001	0	pointing	Trial3	pointing/STIM_009.jpg
2057.906	1.476	1	pointing	Trial3	pointing/STIM_009.jpg
2061.947	1.08	1	pointing	Trial3	pointing/STIM_009.jpg
2065.449	1.312	1	pointing	Trial3	pointing/STIM_009.jpg
2070.706	0.884	1	pointing	Trial3	pointing/STIM_009.jpg
2073.799	1.403	1	pointing	Trial3	pointing/STIM_009.jpg
2079.176	1.293	1	pointing	Trial3	pointing/STIM_010.jpg
2084.196	1.447	1	pointing	Trial3	pointing/STIM_010.jpg
2088.733	1.481	1	pointing	Trial3	pointing/STIM_010.jpg
2093.886	0.831	1	pointing	Trial3	pointing/STIM_010.jpg
2097.584	1.135	1	pointing	Trial3	pointing/STIM_010.jpg
2102.046	1.34	1	pointing	Trial3	pointing/STIM_010.jpg
2105.764	1.056	1	pointing	Trial3	pointing/STIM_011.jpg
2109.013	0.969	1	pointing	Trial3	pointing/STIM_011.jpg
2112.947	1.433	1	pointing	Trial3	pointing/STIM_011.jpg
2118.216	1.437	1	pointing	Trial3	pointing/STIM_011.jpg
2123.368	1.408	1	pointing	Trial3	pointing/STIM_011.jpg
2128.134	0.826	1	pointing	Trial3	pointing/STIM_011.jpg
