onset	duration	response_time_ms	trial_type	learning_stage	stimulus	response_port
0.0	4.375	4375.1	navigation	Trial1	navigation/STIM_000.jpg	99
7.521	2.839	2839.0	navigation	Trial1	navigation/STIM_000.jpg	99
13.269	3.262	3261.5	navigation	Trial1	navigation/STIM_000.jpg	100
19.343	2.591	2590.6	navigation	Trial1	navigation/STIM_000.jpg	99
25.443	2.345	2345.2	navigation	Trial1	navigation/STIM_000.jpg	100
30.828	3.508	3508.2	navigation	Trial1	navigation/STIM_000.jpg	100
37.861	3.192	3192.4	navigation	Trial1	navigation/STIM_001.jpg	99
44.884	2.732	2731.9	navigation	Trial1	navigation/STIM_001.jpg	100
51.449	3.914	3913.8	navigation	Trial1	navigation/STIM_001.jpg	99
57.778	2.256	2255.7	navigation	Trial1	navigation/STIM_001.jpg	100
63.634	2.901	2901.0	navigation	Trial1	navigation/STIM_001.jpg	100
68.622	2.696	2696.0	navigation	Trial1	navigation/STIM_001.jpg	100
73.418	2.84	2840.0	navigation	Trial1	navigation/STIM_002.jpg	99
80.103	4.125	4125.0	navigation	Trial1	navigation/STIM_002.jpg	100
86.254	1.939	1939.2	navigation	Trial1	navigation/STIM_002.jpg	100
91.745	3.52	3519.7	navigation	Trial1	navigation/STIM_002.jpg	100
97.694	2.051	2050.6	navigation	Trial1	navigation/STIM_002.jpg	100
101.75	2.555	2554.6	navigation	Trial1	navigation/STIM_002.jpg	99
106.526	4.811	4810.8	navigation	Trial1	navigation/STIM_003.jpg	100
113.319	4.086	4086.5	navigation	Trial1	navigation/STIM_003.jpg	99
119.51	4.158	4157.9	navigation	Trial1	navigation/STIM_003.jpg	99
127.428	3.489	3489.0	navigation	Trial1	navigation/STIM_003.jpg	99
133.122	1.664	1664.2	navigation	Trial1	navigation/STIM_003.jpg	100
138.661	2.412	2412.1	navigation	Trial1	navigation/STIM_003.jpg	99
144.764	2.404	2403.5	navigation	Trial1	navigation/STIM_004.jpg	99
150.627	2.539	2538.8	navigation	Trial1	navigation/STIM_004.jpg	99
155.139	2.95	2949.9	navigation	Trial1	navigation/STIM_004.jpg	99
160.964	3.491	3491.2	navigation	Trial1	navigation/STIM_004.jpg	99
167.362	3.888	3887.8	navigation	Trial1	navigation/STIM_004.jpg	100
174.872	3.253	3253.1	navigation	Trial1	navigation/STIM_004.jpg	100
180.233	4.016	4016.0	navigation	Trial1	navigation/STIM_005.jpg	100
186.258	3.457	3456.8	navigation	Trial1	navigation/STIM_005.jpg	99
192.022	2.559	2559.2	navigation	Trial1	navigation/STIM_005.jpg	100
196.916	3.815	3815.4	navigation	Trial1	navigation/STIM_005.jpg	99
202.699	2.524	2524.0	navigation	Trial1	navigation/STIM_005.jpg	100
208.243	2.203	2203.2	navigation	Trial1	navigation/STIM_005.jpg	100
214.254	3.252	3251.8	navigation	Trial1	navigation/STIM_006.jpg	100
221.298	3.934	3934.0	navigation	Trial1	navigation/STIM_006.jpg	99
228.089	2.363	2362.7	navigation	Trial1	navigation/STIM_006.jpg	99
234.176	3.328	3327.9	navigation	Trial1	navigation/STIM_006.jpg	100
240.458	3.868	3868.2	navigation	Trial1	navigation/STIM_006.jpg	99
247.685	3.485	3485.0	navigation	Trial1	navigation/STIM_006.jpg	99
253.364	4.6	4600.1	navigation	Trial1	navigation/STIM_007.jpg	100
261.297	2.026	2026.2	navigation	Trial1	navigation/STIM_007.jpg	100
266.666	3.287	3287.2	navigation	Trial1	navigation/STIM_007.jpg	99
272.606	3.786	3785.5	navigation	Trial1	navigation/STIM_007.jpg	100
279.068	3.547	3546.8	navigation	Trial1	navigation/STIM_007.jpg	99
285.295	3.384	3383.5	navigation	Trial1	navigation/STIM_007.jpg	100
291.884	3.043	3043.3	navigation	Trial1	navigation/STIM_008.jpg	99
297.818	2.001	2001.3	navigation	Trial1	navigation/STIM_008.jpg	100
302.379	2.23	2229.7	navigation	Trial1	navigation/STIM_008.jpg	100
308.345	2.928	2928.2	navigation	Trial1	navigation/STIM_008.jpg	99
314.01	3.492	3492.1	navigation	Trial1	navigation/STIM_008.jpg	100
320.233	2.335	2334.9	navigation	Trial1	navigation/STIM_008.jpg	99
325.823	3.22	3220.5	navigation	Trial1	navigation/STIM_009.jpg	99
331.841	2.507	2506.6	navigation	Trial1	navigation/STIM_009.jpg	99
336.756	3.982	3981.6	navigation	Trial1	navigation/STIM_009.jpg	100
344.627	2.438	2437.7	navigation	Trial1	navigation/STIM_009.jpg	100
350.824	2.095	2094.8	navigation	Trial1	navigation/STIM_009.jpg	99
356.163	2.93	2930.3	navigation	Trial1	navigation/STIM_009.jpg	99
361.51	5.074	5073.7	navigation	Trial1	navigation/STIM_010.jpg	100
369.295	4.4	4399.5	navigation	Trial1	navigation/STIM_010.jpg	99
377.062	3.804	3803.9	navigation	Trial1	navigation/STIM_010.jpg	100
383.94	2.804	2804.5	navigation	Trial1	navigation/STIM_010.jpg	100
390.532	3.57	3569.7	navigation	Trial1	navigation/STIM_010.jpg	100
396.864	2.621	2620.9	navigation	Trial1	navigation/STIM_010.jpg	99
402.418	4.811	4811.0	navigation	Trial1	navigation/STIM_011.jpg	99
409.324	3.85	3849.7	navigation	Trial1	navigation/STIM_011.jpg	99
416.676	2.324	2324.4	navigation	Trial1	navigation/STIM_011.jpg	99
422.154	3.666	3666.5	navigation	Trial1	navigation/STIM_011.jpg	99
429.088	3.686	3685.7	navigation	Trial1	navigation/STIM_011.jpg	100
436.362	2.558	2557.8	navigation	Trial1	navigation/STIM_011.jpg	100
442.841	1.089	1089.2	pointing	Trial1	pointing/STIM_000.jpg	99
446.98	0.853	852.8	pointing	Trial1	pointing/STIM_000.jpg	100
450.39	1.357	1357.3	pointing	Trial1	pointing/STIM_000.jpg	99
454.113	0.979	978.8	pointing	Trial1	pointing/STIM_000.jpg	99
457.155	1.064	1064.4	pointing	Trial1	pointing/STIM_000.jpg	99
461.776	1.458	1457.8	pointing	Trial1	pointing/STIM_000.jpg	99
465.52	1.016	1016.2	pointing	Trial1	pointing/STIM_001.jpg	100
470.514	1.036	1036.3	pointing	Trial1	pointing/STIM_001.jpg	100
474.448	1.432	1432.1	pointing	Trial1	pointing/STIM_001.jpg	100
478.007	0.815	815.1	pointing	Trial1	pointing/STIM_001.jpg	99
482.241	0.868	868.2	pointing	Trial1	pointing/STIM_001.jpg	99
485.826	1.37	1369.9	pointing	Trial1	pointing/STIM_001.jpg	99
490.497	0.974	973.6	pointing	Trial1	pointing/STIM_002.jpg	100
494.836	1.488	1488.2	pointing	Trial1	pointing/STIM_002.jpg	99
499.383	1.409	1409.3	pointing	Trial1	pointing/STIM_002.jpg	100
503.195	1.512	1511.7	pointing	Trial1	pointing/STIM_002.jpg	100
506.842	0.928	928.1	pointing	Trial1	pointing/STIM_002.jpg	99
510.847	1.106	1105.5	pointing	Trial1	pointing/STIM_002.jpg	100
515.798	0.852	851.8	pointing	Trial1	pointing/STIM_003.jpg	100
519.887	1.1	1100.0	pointing	Trial1	pointing/STIM_003.jpg	100
523.258	1.057	1057.2	pointing	Trial1	pointing/STIM_003.jpg	99
526.64	1.493	1492.9	pointing	Trial1	pointing/STIM_003.jpg	99
531.049	1.366	1366.5	pointing	Trial1	pointing/STIM_003.jpg	99
535.536	1.521	1521.1	pointing	Trial1	pointing/STIM_003.jpg	99
540.814	1.512	1511.5	pointing	Trial1	pointing/STIM_004.jpg	100
545.285	1.224	1223.8	pointing	Trial1	pointing/STIM_004.jpg	99
549.306	1.073	1072.9	pointing	Trial1	pointing/STIM_004.jpg	100
554.254	0.819	818.9	pointing	Trial1	pointing/STIM_004.jpg	100
558.656	1.118	1118.5	pointing	Trial1	pointing/STIM_004.jpg	100
562.774	1.506	1506.0	pointing	Trial1	pointing/STIM_004.jpg	99
566.92	1.308	1308.5	pointing	Trial1	pointing/STIM_005.jpg	100
571.064	1.137	1137.1	pointing	Trial1	pointing/STIM_005.jpg	99
575.031	1.148	1147.5	pointing	Trial1	pointing/STIM_005.jpg	100
580.058	1.445	1445.4	pointing	Trial1	pointing/STIM_005.jpg	99
584.835	1.039	1039.1	pointing	Trial1	pointing/STIM_005.jpg	99
588.735	1.019	1018.8	pointing	Trial1	pointing/STIM_005.jpg	99
591.779	1.082	1082.0	pointing	Trial1	pointing/STIM_006.jpg	99
596.818	1.48	1479.8	pointing	Trial1	pointing/STIM_006.jpg	100
600.511	1.033	1032.9	pointing	Trial1	pointing/STIM_006.jpg	99
603.808	1.329	1329.2	pointing	Trial1	pointing/STIM_006.jpg	99
609.092	0.878	877.6	pointing	Trial1	pointing/STIM_006.jpg	100
612.056	1.487	1486.9	pointing	Trial1	pointing/STIM_006.jpg	100
616.926	0.933	933.4	pointing	Trial1	pointing/STIM_007.jpg	100
620.781	1.169	1168.7	pointing	Trial1	pointing/STIM_007.jpg	99
624.04	1.264	1264.0	pointing	Trial1	pointing/STIM_007.jpg	100
628.196	0.956	956.4	pointing	Trial1	pointing/STIM_007.jpg	100
632.789	0.966	966.2	pointing	Trial1	pointing/STIM_007.jpg	100
637.735	0.9	899.9	pointing	Trial1	pointing/STIM_007.jpg	99
641.065	1.441	1440.9	pointing	Trial1	pointing/STIM_008.jpg	100
645.745	0.851	850.9	pointing	Trial1	pointing/STIM_008.jpg	100
649.512	0.824	824.3	pointing	Trial1	pointing/STIM_008.jpg	100
654.158	1.03	1029.5	pointing	Trial1	pointing/STIM_008.jpg	100
658.481	1.017	1017.2	pointing	Trial1	pointing/STIM_008.jpg	100
661.732	1.406	1406.5	pointing	Trial1	pointing/STIM_008.jpg	99
666.127	0.915	915.4	pointing	Trial1	pointing/STIM_009.jpg	99
669.067	1.232	1232.5	pointing	Trial1	pointing/STIM_009.jpg	99
673.621	1.321	1320.7	pointing	Trial1	pointing/STIM_009.jpg	99
678.759	1.008	1007.9	pointing	Trial1	pointing/STIM_009.jpg	100
682.309	0.89	890.0	pointing	Trial1	pointing/STIM_009.jpg	100
686.419	1.37	1369.7	pointing	Trial1	pointing/STIM_009.jpg	100
690.807	1.315	1314.6	pointing	Trial1	pointing/STIM_010.jpg	99
695.15	1.355	1355.2	pointing	Trial1	pointing/STIM_010.jpg	99
699.163	0.913	912.8	pointing	Trial1	pointing/STIM_010.jpg	99
703.222	1.059	1059.0	pointing	Trial1	pointing/STIM_010.jpg	100
707.144	1.34	1340.2	pointing	Trial1	pointing/STIM_010.jpg	100
712.204	0.925	924.6	pointing	Trial1	pointing/STIM_010.jpg	99
716.388	0.892	892.3	pointing	Trial1	pointing/STIM_011.jpg	100
719.604	1.16	1159.6	pointing	Trial1	pointing/STIM_011.jpg	99
723.81	1.452	1452.4	pointing	Trial1	pointing/STIM_011.jpg	99
728.345	1.225	1225.0	pointing	Trial1	pointing/STIM_011.jpg	100
733.241	1.516	1516.5	pointing	Trial1	pointing/STIM_011.jpg	99
736.937	1.004	1003.8	pointing	Trial1	pointing/STIM_011.jpg	99
741.064	3.893	3893.4	navigation	Trial2	navigation/STIM_000.jpg	100
747.091	3.786	3786.5	navigation	Trial2	navigation/STIM_000.jpg	99
753.333	3.236	3235.5	navigation	Trial2	navigation/STIM_000.jpg	99
758.544	3.046	3045.9	navigation	Trial2	navigation/STIM_000.jpg	100
765.135	1.65	1649.5	navigation	Trial2	navigation/STIM_000.jpg	100
769.504	2.612	2611.7	navigation	Trial2	navigation/STIM_000.jpg	100
774.553	3.158	3157.5	navigation	Trial2	navigation/STIM_001.jpg	99
780.087	3.009	3009.0	navigation	Trial2	navigation/STIM_001.jpg	100
786.763	2.853	2852.9	navigation	Trial2	navigation/STIM_001.jpg	99
791.732	2.99	2989.6	navigation	Trial2	navigation/STIM_001.jpg	100
797.385	1.929	1928.8	navigation	Trial2	navigation/STIM_001.jpg	99
803.053	1.55	1550.4	navigation	Trial2	navigation/STIM_001.jpg	100
808.277	3.037	3037.3	navigation	Trial2	navigation/STIM_002.jpg	100
814.767	3.15	3149.8	navigation	Trial2	navigation/STIM_002.jpg	100
820.509	3.063	3062.8	navigation	Trial2	navigation/STIM_002.jpg	100
826.023	1.457	1456.6	navigation	Trial2	navigation/STIM_002.jpg	100
830.509	2.157	2156.6	navigation	Trial2	navigation/STIM_002.jpg	99
834.999	2.133	2132.6	navigation	Trial2	navigation/STIM_002.jpg	100
839.904	2.544	2544.2	navigation	Trial2	navigation/STIM_003.jpg	99
844.524	4.002	4001.5	navigation	Trial2	navigation/STIM_003.jpg	100
851.243	3.478	3478.4	navigation	Trial2	navigation/STIM_003.jpg	100
857.748	2.957	2957.3	navigation	Trial2	navigation/STIM_003.jpg	100
863.41	1.574	1574.1	navigation	Trial2	navigation/STIM_003.jpg	100
866.986	3.19	3189.9	navigation	Trial2	navigation/STIM_003.jpg	100
872.967	2.013	2012.7	navigation	Trial2	navigation/STIM_004.jpg	99
878.729	3.535	3534.8	navigation	Trial2	navigation/STIM_004.jpg	100
885.446	3.143	3142.8	navigation	Trial2	navigation/STIM_004.jpg	100
890.693	3.436	3435.7	navigation	Trial2	navigation/STIM_004.jpg	99
896.806	1.519	1519.2	navigation	Trial2	navigation/STIM_004.jpg	99
901.958	1.736	1736.4	navigation	Trial2	navigation/STIM_004.jpg	100
907.589	3.112	3112.0	navigation	Trial2	navigation/STIM_005.jpg	99
912.707	1.983	1983.3	navigation	Trial2	navigation/STIM_005.jpg	100
917.592	2.521	2520.9	navigation	Trial2	navigation/STIM_005.jpg	100
922.387	3.161	3160.7	navigation	Trial2	navigation/STIM_005.jpg	100
929.37	2.206	2206.5	navigation	Trial2	navigation/STIM_005.jpg	99
934.74	2.209	2208.6	navigation	Trial2	navigation/STIM_005.jpg	99
939.036	4.066	4065.9	navigation	Trial2	navigation/STIM_006.jpg	100
945.979	3.865	3864.6	navigation	Trial2	navigation/STIM_006.jpg	100
952.174	3.12	3119.5	navigation	Trial2	navigation/STIM_006.jpg	99
958.854	2.499	2499.3	navigation	Trial2	navigation/STIM_006.jpg	100
963.776	1.813	1813.2	navigation	Trial2	navigation/STIM_006.jpg	99
969.479	3.41	3409.9	navigation	Trial2	navigation/STIM_006.jpg	100
975.03	2.017	2016.9	navigation	Trial2	navigation/STIM_007.jpg	100
980.088	3.05	3049.8	navigation	Trial2	navigation/STIM_007.jpg	99
986.022	2.553	2553.3	navigation	Trial2	navigation/STIM_007.jpg	99
991.534	3.404	3403.6	navigation	Trial2	navigation/STIM_007.jpg	100
997.117	2.968	2968.2	navigation	Trial2	navigation/STIM_007.jpg	99
1002.175	1.783	1783.1	navigation	Trial2	navigation/STIM_007.jpg	99
1007.464	3.696	3695.5	navigation	Trial2	navigation/STIM_008.jpg	99
1013.29	1.86	1859.9	navigation	Trial2	navigation/STIM_008.jpg	100
1017.91	1.816	1816.3	navigation	Trial2	navigation/STIM_008.jpg	100
1021.741	2.919	2918.8	navigation	Trial2	navigation/STIM_008.jpg	99
1028.212	2.118	2117.5	navigation	Trial2	navigation/STIM_008.jpg	99
1033.799	3.325	3325.1	navigation	Trial2	navigation/STIM_008.jpg	100
1040.276	2.306	2306.3	navigation	Trial2	navigation/STIM_009.jpg	100
1045.509	2.924	2923.5	navigation	Trial2	navigation/STIM_009.jpg	100
1050.744	2.833	2833.4	navigation	Trial2	navigation/STIM_009.jpg	99
1057.416	2.736	2736.2	navigation	Trial2	navigation/STIM_009.jpg	100
1063.213	2.904	2904.4	navigation	Trial2	navigation/STIM_009.jpg	99
1070.042	1.668	1667.7	navigation	Trial2	navigation/STIM_009.jpg	99
1075.526	1.999	1998.8	navigation	Trial2	navigation/STIM_010.jpg	99
1079.667	3.967	3966.7	navigation	Trial2	navigation/STIM_010.jpg	99
1086.673	2.438	2438.1	navigation	Trial2	navigation/STIM_010.jpg	99
1091.929	2.747	2746.8	navigation	Trial2	navigation/STIM_010.jpg	100
1096.972	1.666	1665.8	navigation	Trial2	navigation/STIM_010.jpg	100
1102.165	3.404	3403.9	navigation	Trial2	navigation/STIM_010.jpg	99
1108.353	3.332	3332.0	navigation	Trial2	navigation/STIM_011.jpg	100
1114.199	3.079	3079.3	navigation	Trial2	navigation/STIM_011.jpg	100
1120.416	3.467	3467.1	navigation	Trial2	navigation/STIM_011.jpg	99
1126.727	2.336	2336.3	navigation	Trial2	navigation/STIM_011.jpg	99
1132.089	1.436	1435.9	navigation	Trial2	navigation/STIM_011.jpg	100
1135.57	2.722	2721.6	navigation	Trial2	navigation/STIM_011.jpg	99
1140.51	1.451	1451.2	pointing	Trial2	pointing/STIM_000.jpg	100
1144.984	1.15	1149.6	pointing	Trial2	pointing/STIM_000.jpg	99
1148.948	1.053	1052.6	pointing	Trial2	pointing/STIM_000.jpg	100
1153.244	1.248	1248.1	pointing	Trial2	pointing/STIM_000.jpg	100
1156.851	1.463	1462.6	pointing	Trial2	pointing/STIM_000.jpg	99
1160.822	1.371	1371.4	pointing	Trial2	pointing/STIM_000.jpg	100
1166.117	0.977	977.1	pointing	Trial2	pointing/STIM_001.jpg	99
1170.998	0.829	828.7	pointing	Trial2	pointing/STIM_001.jpg	99
1175.326	1.386	1386.1	pointing	Trial2	pointing/STIM_001.jpg	100
1180.041	1.22	1219.9	pointing	Trial2	pointing/STIM_001.jpg	100
1183.908	1.112	1112.5	pointing	Trial2	pointing/STIM_001.jpg	100
1188.12	1.059	1058.9	pointing	Trial2	pointing/STIM_001.jpg	99
1193.045	1.052	1052.2	pointing	Trial2	pointing/STIM_002.jpg	99
1196.338	1.286	1286.1	pointing	Trial2	pointing/STIM_002.jpg	100
1201.433	1.142	1141.7	pointing	Trial2	pointing/STIM_002.jpg	100
1205.047	0.948	948.1	pointing	Trial2	pointing/STIM_002.jpg	100
1209.029	1.454	1454.2	pointing	Trial2	pointing/STIM_002.jpg	99
1212.956	1.261	1261.4	pointing	Trial2	pointing/STIM_002.jpg	99
1217.818	0.943	942.9	pointing	Trial2	pointing/STIM_003.jpg	100
1221.238	1.064	1064.0	pointing	Trial2	pointing/STIM_003.jpg	99
1225.939	1.396	1396.3	pointing	Trial2	pointing/STIM_003.jpg	100
1229.847	1.156	1155.6	pointing	Trial2	pointing/STIM_003.jpg	100
1233.826	1.121	1121.1	pointing	Trial2	pointing/STIM_003.jpg	100
1238.251	1.059	1059.2	pointing	Trial2	pointing/STIM_003.jpg	100
1242.443	1.262	1262.4	pointing	Trial2	pointing/STIM_004.jpg	99
1246.513	1.017	1016.9	pointing	Trial2	pointing/STIM_004.jpg	99
1250.099	1.235	1235.0	pointing	Trial2	pointing/STIM_004.jpg	99
1255.287	1.477	1476.8	pointing	Trial2	pointing/STIM_004.jpg	100
1260.07	1.146	1145.9	pointing	Trial2	pointing/STIM_004.jpg	99
1263.31	0.928	928.1	pointing	Trial2	pointing/STIM_004.jpg	100
1267.388	1.46	1459.9	pointing	Trial2	pointing/STIM_005.jpg	99
1272.569	1.215	1215.1	pointing	Trial2	pointing/STIM_005.jpg	100
1276.173	1.196	1195.7	pointing	Trial2	pointing/STIM_005.jpg	100
1280.08	1.491	1491.1	pointing	Trial2	pointing/STIM_005.jpg	99
1284.646	1.214	1214.2	pointing	Trial2	pointing/STIM_005.jpg	100
1289.76	1.037	1036.6	pointing	Trial2	pointing/STIM_005.jpg	99
1293.995	1.28	1280.5	pointing	Trial2	pointing/STIM_006.jpg	100
1299.01	1.46	1460.0	pointing	Trial2	pointing/STIM_006.jpg	100
1302.538	0.992	991.6	pointing	Trial2	pointing/STIM_006.jpg	100
1306.667	1.055	1054.9	pointing	Trial2	pointing/STIM_006.jpg	99
1311.15	1.043	1043.2	pointing	Trial2	pointing/STIM_006.jpg	99
1315.422	0.975	974.6	pointing	Trial2	pointing/STIM_006.jpg	99
1318.87	1.516	1515.8	pointing	Trial2	pointing/STIM_007.jpg	99
1323.106	1.103	1103.1	pointing	Trial2	pointing/STIM_007.jpg	99
1326.679	0.844	843.7	pointing	Trial2	pointing/STIM_007.jpg	100
1330.607	0.97	970.3	pointing	Trial2	pointing/STIM_007.jpg	99
1335.015	0.998	997.8	pointing	Trial2	pointing/STIM_007.jpg	99
1339.369	1.516	1516.4	pointing	Trial2	pointing/STIM_007.jpg	99
1344.329	1.457	1456.7	pointing	Trial2	pointing/STIM_008.jpg	100
1349.613	1.446	1446.5	pointing	Trial2	pointing/STIM_008.jpg	99
1353.308	1.454	1454.1	pointing	Trial2	pointing/STIM_008.jpg	100
1357.094	1.465	1465.4	pointing	Trial2	pointing/STIM_008.jpg	99
1360.805	1.117	1117.3	pointing	Trial2	pointing/STIM_008.jpg	99
1364.356	1.037	1036.8	pointing	Trial2	pointing/STIM_008.jpg	99
1368.025	1.186	1186.1	pointing	Trial2	pointing/STIM_009.jpg	100
1372.727	0.823	822.7	pointing	Trial2	pointing/STIM_009.jpg	100
1376.033	0.826	826.0	pointing	Trial2	pointing/STIM_009.jpg	100
1379.287	1.488	1488.1	pointing	Trial2	pointing/STIM_009.jpg	99
1383.577	1.418	1418.2	pointing	Trial2	pointing/STIM_009.jpg	99
1387.332	0.814	813.8	pointing	Trial2	pointing/STIM_009.jpg	100
1391.858	1.177	1177.0	pointing	Trial2	pointing/STIM_010.jpg	100
1395.259	1.244	1244.5	pointing	Trial2	pointing/STIM_010.jpg	100
1398.923	1.278	1278.5	pointing	Trial2	pointing/STIM_010.jpg	100
1403.458	0.882	882.1	pointing	Trial2	pointing/STIM_010.jpg	99
1407.575	0.941	940.9	pointing	Trial2	pointing/STIM_010.jpg	100
1411.211	0.942	942.0	pointing	Trial2	pointing/STIM_010.jpg	99
1415.694	1.43	1429.7	pointing	Trial2	pointing/STIM_011.jpg	99
1420.996	1.207	1207.4	pointing	Trial2	pointing/STIM_011.jpg	99
1424.323	0.969	969.1	pointing	Trial2	pointing/STIM_011.jpg	100
1428.889	1.444	1443.7	pointing	Trial2	pointing/STIM_011.jpg	99
1433.384	1.42	1420.0	pointing	Trial2	pointing/STIM_011.jpg	99
1437.986	1.444	1443.5	pointing	Trial2	pointing/STIM_011.jpg	100
1441.805	2.909	2908.8	navigation	Trial3	navigation/STIM_000.jpg	100
1447.035	2.744	2744.5	navigation	Trial3	navigation/STIM_000.jpg	100
1452.862	2.589	2589.4	navigation	Trial3	navigation/STIM_000.jpg	99
1457.539	1.527	1526.6	navigation	Trial3	navigation/STIM_000.jpg	99
1462.766	2.536	2536.3	navigation	Trial3	navigation/STIM_000.jpg	99
1468.203	2.094	2094.3	navigation	Trial3	navigation/STIM_000.jpg	99
1472.434	3.116	3115.6	navigation	Trial3	navigation/STIM_001.jpg	99
1478.999	2.331	2330.6	navigation	Trial3	navigation/STIM_001.jpg	99
1484.097	1.482	1481.6	navigation	Trial3	navigation/STIM_001.jpg	99
1488.7	3.172	3172.5	navigation	Trial3	navigation/STIM_001.jpg	100
1495.265	1.651	1651.4	navigation	Trial3	navigation/STIM_001.jpg	99
1499.121	1.566	1566.5	navigation	Trial3	navigation/STIM_001.jpg	99
1504.28	1.973	1972.6	navigation	Trial3	navigation/STIM_002.jpg	100
1509.661	1.937	1937.1	navigation	Trial3	navigation/STIM_002.jpg	99
1515.438	1.486	1486.3	navigation	Trial3	navigation/STIM_002.jpg	100
1519.605	1.964	1964.3	navigation	Trial3	navigation/STIM_002.jpg	100
1525.042	1.668	1667.6	navigation	Trial3	navigation/STIM_002.jpg	99
1529.084	3.495	3494.7	navigation	Trial3	navigation/STIM_002.jpg	99
1535.509	2.083	2082.7	navigation	Trial3	navigation/STIM_003.jpg	99
1540.751	3.522	3521.9	navigation	Trial3	navigation/STIM_003.jpg	100
1547.712	2.126	2126.1	navigation	Trial3	navigation/STIM_003.jpg	99
1552.233	2.28	2280.3	navigation	Trial3	navigation/STIM_003.jpg	99
1558.368	2.586	2585.9	navigation	Trial3	navigation/STIM_003.jpg	100
1563.349	2.611	2611.4	navigation	Trial3	navigation/STIM_003.jpg	100
1568.861	2.669	2668.7	navigation	Trial3	navigation/STIM_004.jpg	99
1575.149	1.876	1875.7	navigation	Trial3	navigation/STIM_004.jpg	99
1580.65	1.862	1861.7	navigation	Trial3	navigation/STIM_004.jpg	100
1585.178	2.088	2087.7	navigation	Trial3	navigation/STIM_004.jpg	99
1591.139	2.935	2935.2	navigation	Trial3	navigation/STIM_004.jpg	99
1596.98	2.258	2257.5	navigation	Trial3	navigation/STIM_004.jpg	100
1602.877	3.244	3243.5	navigation	Trial3	navigation/STIM_005.jpg	100
1609.256	2.485	2485.1	navigation	Trial3	navigation/STIM_005.jpg	99
1614.709	3.344	3344.4	navigation	Trial3	navigation/STIM_005.jpg	100
1621.808	1.679	1678.8	navigation	Trial3	navigation/STIM_005.jpg	99
1627.455	2.758	2757.6	navigation	Trial3	navigation/STIM_005.jpg	100
1633.888	2.639	2638.6	navigation	Trial3	navigation/STIM_005.jpg	99
1640.458	1.799	1799.0	navigation	Trial3	navigation/STIM_006.jpg	99
1644.597	1.862	1862.1	navigation	Trial3	navigation/STIM_006.jpg	100
1648.525	3.259	3259.1	navigation	Trial3	navigation/STIM_006.jpg	100
1655.44	3.125	3124.8	navigation	Trial3	navigation/STIM_006.jpg	100
1662.045	1.52	1519.6	navigation	Trial3	navigation/STIM_006.jpg	99
1667.491	3.041	3040.8	navigation	Trial3	navigation/STIM_006.jpg	100
1674.222	2.482	2481.6	navigation	Trial3	navigation/STIM_007.jpg	99
1679.552	3.29	3289.6	navigation	Trial3	navigation/STIM_007.jpg	99
1686.435	2.702	2702.3	navigation	Trial3	navigation/STIM_007.jpg	100
1692.61	2.733	2733.0	navigation	Trial3	navigation/STIM_007.jpg	99
1697.369	2.785	2784.8	navigation	Trial3	navigation/STIM_007.jpg	99
1702.753	1.79	1790.0	navigation	Trial3	navigation/STIM_007.jpg	100
1708.421	1.57	1570.0	navigation	Trial3	navigation/STIM_008.jpg	99
1713.803	1.769	1768.9	navigation	Trial3	navigation/STIM_008.jpg	100
1717.87	1.838	1838.3	navigation	Trial3	navigation/STIM_008.jpg	99
1722.575	2.028	2027.6	navigation	Trial3	navigation/STIM_008.jpg	99
1727.67	2.392	2391.5	navigation	Trial3	navigation/STIM_008.jpg	100
1733.469	3.242	3241.8	navigation	Trial3	navigation/STIM_008.jpg	100
1740.576	1.708	1708.3	navigation	Trial3	navigation/STIM_009.jpg	100
1745.902	2.236	2235.9	navigation	Trial3	navigation/STIM_009.jpg	99
1752.081	3.324	3323.5	navigation	Trial3	navigation/STIM_009.jpg	100
1758.842	2.712	2712.3	navigation	Trial3	navigation/STIM_009.jpg	100
1763.893	2.051	2050.9	navigation	Trial3	navigation/STIM_009.jpg	100
1769.002	3.397	3397.1	navigation	Trial3	navigation/STIM_009.jpg	99
1775.568	1.818	1818.1	navigation	Trial3	navigation/STIM_010.jpg	99
1779.72	3.092	3092.4	navigation	Trial3	navigation/STIM_010.jpg	99
1785.084	2.061	2060.6	navigation	Trial3	navigation/STIM_010.jpg	100
1790.71	1.855	1854.7	navigation	Trial3	navigation/STIM_010.jpg	100
1794.735	2.081	2080.7	navigation	Trial3	navigation/STIM_010.jpg	99
1799.981	1.594	1593.6	navigation	Trial3	navigation/STIM_010.jpg	99
1804.306	1.484	1483.7	navigation	Trial3	navigation/STIM_011.jpg	99
1808.621	3.372	3372.3	navigation	Trial3	navigation/STIM_011.jpg	99
1814.963	3.239	3238.8	navigation	Trial3	navigation/STIM_011.jpg	99
1821.872	1.863	1863.4	navigation	Trial3	navigation/STIM_011.jpg	100
1827.363	1.978	1977.8	navigation	Trial3	navigation/STIM_011.jpg	100
1833.275	2.812	2811.6	navigation	Trial3	navigation/STIM_011.jpg	99
1839.436	0.874	874.2	pointing	Trial3	pointing/STIM_000.jpg	100
1843.574	1.038	1038.1	pointing	Trial3	pointing/STIM_000.jpg	99
1847.051	1.21	1209.7	pointing	Trial3	pointing/STIM_000.jpg	100
1851.158	0.848	847.7	pointing	Trial3	pointing/STIM_000.jpg	99
1855.53	1.504	1503.9	pointing	Trial3	pointing/STIM_000.jpg	99
1859.913	1.425	1425.2	pointing	Trial3	pointing/STIM_000.jpg	99
1863.966	0.881	881.4	pointing	Trial3	pointing/STIM_001.jpg	99
1867.438	1.464	1463.6	pointing	Trial3	pointing/STIM_001.jpg	99
1872.622	1.379	1379.0	pointing	Trial3	pointing/STIM_001.jpg	99
1876.076	0.952	952.3	pointing	Trial3	pointing/STIM_001.jpg	100
1880.855	0.873	872.6	pointing	Trial3	pointing/STIM_001.jpg	99
1885.498	1.282	1282.1	pointing	Trial3	pointing/STIM_001.jpg	99
1888.801	1.481	1481.3	pointing	Trial3	pointing/STIM_002.jpg	100
1893.147	1.246	1245.7	pointing	Trial3	pointing/STIM_002.jpg	99
1897.825	1.145	1145.0	pointing	Trial3	pointing/STIM_002.jpg	100
1902.144	0.82	819.9	pointing	Trial3	pointing/STIM_002.jpg	100
1905.023	1.138	1138.3	pointing	Trial3	pointing/STIM_002.jpg	99
1909.993	0.964	964.5	pointing	Trial3	pointing/STIM_002.jpg	100
1913.757	0.867	866.9	pointing	Trial3	pointing/STIM_003.jpg	99
1916.89	1.002	1002.5	pointing	Trial3	pointing/STIM_003.jpg	99
1921.289	1.138	1137.8	pointing	Trial3	pointing/STIM_003.jpg	99
1925.199	1.308	1308.4	pointing	Trial3	pointing/STIM_003.jpg	99
1929.525	0.975	975.4	pointing	Trial3	pointing/STIM_003.jpg	99
1933.299	1.167	1166.7	pointing	Trial3	pointing/STIM_003.jpg	100
1936.53	0.869	869.4	pointing	Trial3	pointing/STIM_004.jpg	99
1939.715	0.884	884.1	pointing	Trial3	pointing/STIM_004.jpg	99
1944.381	1.123	1122.6	pointing	Trial3	pointing/STIM_004.jpg	99
1948.361	0.994	994.0	pointing	Trial3	pointing/STIM_004.jpg	100
1953.268	1.136	1135.6	pointing	Trial3	pointing/STIM_004.jpg	100
1956.683	0.827	826.6	pointing	Trial3	pointing/STIM_004.jpg	99
1959.633	1.043	1043.4	pointing	Trial3	pointing/STIM_005.jpg	100
1963.195	1.216	1216.0	pointing	Trial3	pointing/STIM_005.jpg	99
1967.968	0.942	942.4	pointing	Trial3	pointing/STIM_005.jpg	99
1971.429	1.261	1261.4	pointing	Trial3	pointing/STIM_005.jpg	100
1974.943	1.12	1120.0	pointing	Trial3	pointing/STIM_005.jpg	100
1978.09	0.995	995.4	pointing	Trial3	pointing/STIM_005.jpg	99
1982.481	1.084	1084.0	pointing	Trial3	pointing/STIM_006.jpg	100
1987.291	0.936	935.7	pointing	Trial3	pointing/STIM_006.jpg	99
1990.881	1.054	1054.3	pointing	Trial3	pointing/STIM_006.jpg	100
1994.019	0.949	949.2	pointing	Trial3	pointing/STIM_006.jpg	100
1997.927	1.14	1139.7	pointing	Trial3	pointing/STIM_006.jpg	100
2001.372	1.412	1411.6	pointing	Trial3	pointing/STIM_006.jpg	99
2006.486	1.328	1327.8	pointing	Trial3	pointing/STIM_007.jpg	100
2010.356	0.918	918.2	pointing	Trial3	pointing/STIM_007.jpg	100
2013.589	1.392	1392.0	pointing	Trial3	pointing/STIM_007.jpg	99
2018.573	0.955	954.8	pointing	Trial3	pointing/STIM_007.jpg	99
2023.314	1.436	1435.5	pointing	Trial3	pointing/STIM_007.jpg	100
2026.858	0.879	879.0	pointing	Trial3	pointing/STIM_007.jpg	99
2031.083	1.28	1279.9	pointing	Trial3	pointing/STIM_008.jpg	99
2034.358	1.357	1357.3	pointing	Trial3	pointing/STIM_008.jpg	100
2037.99	1.124	1123.7	pointing	Trial3	pointing/STIM_008.jpg	100
2043.03	1.219	1219.4	pointing	Trial3	pointing/STIM_008.jpg	100
2046.485	0.909	909.1	pointing	Trial3	pointing/STIM_008.jpg	99
2049.525	1.304	1303.6	pointing	Trial3	pointing/STIM_008.jpg	100
2053.906	1.001	1000.9	pointing	Trial3	pointing/STIM_009.jpg	100
2057.906	1.476	1475.7	pointing	Trial3	pointing/STIM_009.jpg	99
2061.947	1.08	1080.4	pointing	Trial3	pointing/STIM_009.jpg	99
2065.449	1.312	1312.3	pointing	Trial3	pointing/STIM_009.jpg	100
2070.706	0.884	883.7	pointing	Trial3	pointing/STIM_009.jpg	99
2073.799	1.403	1403.0	pointing	Trial3	pointing/STIM_009.jpg	99
2079.176	1.293	1293.0	pointing	Trial3	pointing/STIM_010.jpg	99
2084.196	1.447	1447.3	pointing	Trial3	pointing/STIM_010.jpg	99
2088.733	1.481	1481.4	pointing	Trial3	pointing/STIM_010.jpg	100
2093.886	0.831	831.2	pointing	Trial3	pointing/STIM_010.jpg	99
2097.584	1.135	1134.6	pointing	Trial3	pointing/STIM_010.jpg	100
2102.046	1.34	1339.6	pointing	Trial3	pointing/STIM_010.jpg	99
2105.764	1.056	1055.6	pointing	Trial3	pointing/STIM_011.jpg	100
2109.013	0.969	969.0	pointing	Trial3	pointing/STIM_011.jpg	100
2112.947	1.433	1432.9	pointing	Trial3	pointing/STIM_011.jpg	99
2118.216	1.437	1437.3	pointing	Trial3	pointing/STIM_011.jpg	99
2123.368	1.408	1408.4	pointing	Trial3	pointing/STIM_011.jpg	99
2128.134	0.826	826.0	pointing	Trial3	pointing/STIM_011.jpg	100
