onset	duration	accuracy	trial_type	learning_stage	stimulus
0.0	2.429	correct	regulate	Run1	regulate/STIM_000.jpg
6.388	1.942	correct	regulate	Run1	regulate/STIM_000.jpg
11.599	2.243	correct	regulate	Run1	regulate/STIM_000.jpg
17.387	2.81	correct	regulate	Run1	regulate/STIM_000.jpg
24.194	2.529	correct	regulate	Run1	regulate/STIM_001.jpg
29.509	1.851	correct	regulate	Run1	regulate/STIM_001.jpg
34.042	2.392	correct	regulate	Run1	regulate/STIM_001.jpg
40.425	2.671	correct	regulate	Run1	regulate/STIM_001.jpg
45.593	2.288	correct	regulate	Run1	regulate/STIM_002.jpg
50.978	3.522	incorrect	regulate	Run1	regulate/STIM_002.jpg
56.819	1.81	correct	regulate	Run1	regulate/STIM_002.jpg
61.925	1.575	correct	regulate	Run1	regulate/STIM_002.jpg
67.394	2.171	correct	regulate	Run1	regulate/STIM_003.jpg
72.114	3.24	correct	regulate	Run1	regulate/STIM_003.jpg
77.536	2.516	correct	regulate	Run1	regulate/STIM_003.jpg
82.78	2.859	correct	regulate	Run1	regulate/STIM_003.jpg
88.965	3.84	correct	regulate	Run1	regulate/STIM_004.jpg
95.961	3.371	correct	regulate	Run1	regulate/STIM_004.jpg
101.36	3.583	correct	regulate	Run1	regulate/STIM_004.jpg
107.554	3.476	correct	regulate	Run1	regulate/STIM_004.jpg
114.288	2.814	correct	regulate	Run1	regulate/STIM_005.jpg
119.969	3.983	correct	regulate	Run1	regulate/STIM_005.jpg
126.552	3.304	correct	regulate	Run1	regulate/STIM_005.jpg
132.852	1.561	correct	regulate	Run1	regulate/STIM_005.jpg
138.202	3.352	correct	regulate	Run1	regulate/STIM_006.jpg
145.524	3.181	correct	regulate	Run1	regulate/STIM_006.jpg
151.865	3.439	correct	regulate	Run1	regulate/STIM_006.jpg
157.358	3.26	correct	regulate	Run1	regulate/STIM_006.jpg
164.496	2.138	correct	regulate	Run1	regulate/STIM_007.jpg
169.686	2.323	correct	regulate	Run1	regulate/STIM_007.jpg
175.019	1.681	correct	regulate	Run1	regulate/STIM_007.jpg
179.273	1.931	correct	regulate	Run1	regulate/STIM_007.jpg
184.371	4.028	correct	regulate	Run1	regulate/STIM_008.jpg
191.646	3.821	correct	regulate	Run1	regulate/STIM_008.jpg
199.156	3.598	correct	regulate	Run1	regulate/STIM_008.jpg
204.814	2.785	correct	regulate	Run1	regulate/STIM_008.jpg
210.602	1.867	correct	regulate	Run1	regulate/STIM_009.jpg
214.857	2.193	correct	regulate	Run1	regulate/STIM_009.jpg
219.785	3.82	correct	regulate	Run1	regulate/STIM_009.jpg
227.074	3.442	correct	regulate	Run1	regulate/STIM_009.jpg
233.14	3.395	correct	regulate	Run1	regulate/STIM_010.jpg
240.504	3.459	correct	regulate	Run1	regulate/STIM_010.jpg
246.105	2.51	correct	regulate	Run1	regulate/STIM_010.jpg
251.801	1.886	correct	regulate	Run1	regulate/STIM_010.jpg
256.725	3.312	incorrect	regulate	Run1	regulate/STIM_011.jpg
263.863	1.768	correct	regulate	Run1	regulate/STIM_011.jpg
269.52	2.041	correct	regulate	Run1	regulate/STIM_011.jpg
273.769	3.447	correct	regulate	Run1	regulate/STIM_011.jpg
279.346	3.496	correct	regulate	Run1	regulate/STIM_012.jpg
286.782	2.973	incorrect	regulate	Run1	regulate/STIM_012.jpg
292.285	2.462	correct	regulate	Run1	regulate/STIM_012.jpg
297.573	2.29	correct	regulate	Run1	regulate/STIM_012.jpg
303.404	3.02	correct	regulate	Run1	regulate/STIM_013.jpg
309.67	3.96	correct	regulate	Run1	regulate/STIM_013.jpg
315.951	2.839	correct	regulate	Run1	regulate/STIM_013.jpg
321.304	3.592	correct	regulate	Run1	regulate/STIM_013.jpg
327.154	3.787	correct	regulate	Run1	regulate/STIM_014.jpg
334.717	3.652	incorrect	regulate	Run1	regulate/STIM_014.jpg
341.774	3.049	correct	regulate	Run1	regulate/STIM_014.jpg
348.769	1.767	correct	regulate	Run1	regulate/STIM_014.jpg
353.442	2.573	correct	regulate	Run1	regulate/STIM_015.jpg
359.253	2.641	correct	regulate	Run1	regulate/STIM_015.jpg
365.782	2.724	correct	regulate	Run1	regulate/STIM_015.jpg
371.185	2.4	correct	regulate	Run1	regulate/STIM_015.jpg
377.424	2.954	correct	regulate	Run1	regulate/STIM_016.jpg
382.82	3.143	correct	regulate	Run1	regulate/STIM_016.jpg
389.58	2.953	correct	regulate	Run1	regulate/STIM_016.jpg
396.414	2.121	correct	regulate	Run1	regulate/STIM_016.jpg
401.479	2.16	correct	regulate	Run1	regulate/STIM_017.jpg
406.856	2.117	correct	regulate	Run1	regulate/STIM_017.jpg
412.265	3.488	correct	regulate	Run1	regulate/STIM_017.jpg
419.604	1.781	correct	regulate	Run1	regulate/STIM_017.jpg
424.184	2.347	correct	regulate	Run1	regulate/STIM_018.jpg
428.928	2.742	correct	regulate	Run1	regulate/STIM_018.jpg
435.584	2.631	correct	regulate	Run1	regulate/STIM_018.jpg
441.319	2.161	correct	regulate	Run1	regulate/STIM_018.jpg
447.097	2.434	correct	regulate	Run1	regulate/STIM_019.jpg
452.74	3.407	correct	regulate	Run1	regulate/STIM_019.jpg
459.405	3.516	correct	regulate	Run1	regulate/STIM_019.jpg
466.049	1.974	correct	regulate	Run1	regulate/STIM_019.jpg
470.989	4.237	correct	regulate	Run1	regulate/STIM_020.jpg
478.771	3.71	correct	regulate	Run1	regulate/STIM_020.jpg
485.236	3.244	correct	regulate	Run1	regulate/STIM_020.jpg
490.82	2.373	correct	regulate	Run1	regulate/STIM_020.jpg
495.567	3.825	correct	regulate	Run1	regulate/STIM_021.jpg
502.575	3.244	correct	regulate	Run1	regulate/STIM_021.jpg
508.229	2.683	correct	regulate	Run1	regulate/STIM_021.jpg
513.075	1.811	correct	regulate	Run1	regulate/STIM_021.jpg
517.994	2.976	correct	regulate	Run1	regulate/STIM_022.jpg
523.145	1.891	correct	regulate	Run1	regulate/STIM_022.jpg
528.51	2.196	correct	regulate	Run1	regulate/STIM_022.jpg
533.507	1.784	correct	regulate	Run1	regulate/STIM_022.jpg
539.282	3.625	correct	regulate	Run1	regulate/STIM_023.jpg
546.301	2.476	correct	regulate	Run1	regulate/STIM_023.jpg
551.506	3.549	correct	regulate	Run1	regulate/STIM_023.jpg
558.122	3.154	correct	regulate	Run1	regulate/STIM_023.jpg
563.903	2.858	correct	regulate	Run1	regulate/STIM_024.jpg
570.311	2.384	correct	regulate	Run1	regulate/STIM_024.jpg
575.017	2.534	correct	regulate	Run1	regulate/STIM_024.jpg
581.086	2.134	correct	regulate	Run1	regulate/STIM_024.jpg
585.643	2.488	correct	regulate	Run1	regulate/STIM_025.jpg
592.113	2.454	correct	regulate	Run1	regulate/STIM_025.jpg
596.745	3.61	correct	regulate	Run1	regulate/STIM_025.jpg
603.095	3.372	correct	regulate	Run1	regulate/STIM_025.jpg
610.395	4.221	correct	regulate	Run1	regulate/STIM_026.jpg
618.419	3.356	correct	regulate	Run1	regulate/STIM_026.jpg
625.316	2.42	correct	regulate	Run1	regulate/STIM_026.jpg
630.086	2.701	correct	regulate	Run1	regulate/STIM_026.jpg
635.239	3.874	correct	regulate	Run1	regulate/STIM_027.jpg
642.134	3.578	correct	regulate	Run1	regulate/STIM_027.jpg
647.957	1.884	correct	regulate	Run1	regulate/STIM_027.jpg
652.39	2.483	correct	regulate	Run1	regulate/STIM_027.jpg
657.153	2.712	correct	regulate	Run1	regulate/STIM_028.jpg
663.568	3.903	correct	regulate	Run1	regulate/STIM_028.jpg
670.378	1.795	correct	regulate	Run1	regulate/STIM_028.jpg
675.882	3.332	incorrect	regulate	Run1	regulate/STIM_028.jpg
683.093	2.971	correct	regulate	Run1	regulate/STIM_029.jpg
689.026	3.833	correct	regulate	Run1	regulate/STIM_029.jpg
695.862	3.555	correct	regulate	Run1	regulate/STIM_029.jpg
701.818	3.173	correct	regulate	Run1	regulate/STIM_029.jpg
708.51	1.539	correct	observe	Run1	observe/STIM_000.jpg
712.6	1.128	correct	observe	Run1	observe/STIM_000.jpg
716.921	1.752	correct	observe	Run1	observe/STIM_000.jpg
721.128	1.867	correct	observe	Run1	observe/STIM_000.jpg
726.462	1.168	correct	observe	Run1	observe/STIM_001.jpg
730.458	1.209	correct	observe	Run1	observe/STIM_001.jpg
735.65	1.123	correct	observe	Run1	observe/STIM_001.jpg
739.821	1.403	correct	observe	Run1	observe/STIM_001.jpg
744.164	1.89	correct	observe	Run1	observe/STIM_002.jpg
749.761	1.869	correct	observe	Run1	observe/STIM_002.jpg
755.558	1.568	correct	observe	Run1	observe/STIM_002.jpg
760.103	1.527	correct	observe	Run1	observe/STIM_002.jpg
764.268	1.032	correct	observe	Run1	observe/STIM_003.jpg
768.381	1.244	correct	observe	Run1	observe/STIM_003.jpg
773.174	1.839	correct	observe	Run1	observe/STIM_003.jpg
777.514	1.636	correct	observe	Run1	observe/STIM_003.jpg
782.407	1.019	correct	observe	Run1	observe/STIM_004.jpg
787.157	0.982	correct	observe	Run1	observe/STIM_004.jpg
791.369	1.715	correct	observe	Run1	observe/STIM_004.jpg
797.04	1.939	correct	observe	Run1	observe/STIM_004.jpg
802.739	1.471	correct	observe	Run1	observe/STIM_005.jpg
807.558	1.162	correct	observe	Run1	observe/STIM_005.jpg
811.487	1.831	correct	observe	Run1	observe/STIM_005.jpg
816.746	1.814	correct	observe	Run1	observe/STIM_005.jpg
820.92	1.6	correct	observe	Run1	observe/STIM_006.jpg
825.458	1.547	correct	observe	Run1	observe/STIM_006.jpg
829.429	1.72	correct	observe	Run1	observe/STIM_006.jpg
834.069	1.692	correct	observe	Run1	observe/STIM_006.jpg
838.212	1.005	correct	observe	Run1	observe/STIM_007.jpg
842.196	1.659	correct	observe	Run1	observe/STIM_007.jpg
847.043	1.898	correct	observe	Run1	observe/STIM_007.jpg
851.507	1.138	correct	observe	Run1	observe/STIM_007.jpg
854.665	1.148	incorrect	observe	Run1	observe/STIM_008.jpg
858.86	1.464	correct	observe	Run1	observe/STIM_008.jpg
863.021	1.927	correct	observe	Run1	observe/STIM_008.jpg
868.052	1.817	correct	observe	Run1	observe/STIM_008.jpg
872.341	1.71	correct	observe	Run1	observe/STIM_009.jpg
876.726	1.43	correct	observe	Run1	observe/STIM_009.jpg
881.718	1.327	correct	observe	Run1	observe/STIM_009.jpg
886.859	1.201	correct	observe	Run1	observe/STIM_009.jpg
890.873	1.696	correct	observe	Run1	observe/STIM_010.jpg
895.588	1.198	correct	observe	Run1	observe/STIM_010.jpg
900.452	1.22	correct	observe	Run1	observe/STIM_010.jpg
903.771	1.611	correct	observe	Run1	observe/STIM_010.jpg
909.352	1.293	correct	observe	Run1	observe/STIM_011.jpg
914.014	1.607	correct	observe	Run1	observe/STIM_011.jpg
917.898	1.605	correct	observe	Run1	observe/STIM_011.jpg
922.416	1.591	correct	observe	Run1	observe/STIM_011.jpg
927.664	1.073	correct	observe	Run1	observe/STIM_012.jpg
931.266	1.902	correct	observe	Run1	observe/STIM_012.jpg
936.09	1.592	correct	observe	Run1	observe/STIM_012.jpg
941.636	1.832	correct	observe	Run1	observe/STIM_012.jpg
946.994	1.87	correct	observe	Run1	observe/STIM_013.jpg
952.268	1.773	correct	observe	Run1	observe/STIM_013.jpg
957.44	0.992	correct	observe	Run1	observe/STIM_013.jpg
962.123	1.76	correct	observe	Run1	observe/STIM_013.jpg
966.431	1.75	correct	observe	Run1	observe/STIM_014.jpg
970.819	1.651	correct	observe	Run1	observe/STIM_014.jpg
975.409	1.841	correct	observe	Run1	observe/STIM_014.jpg
980.578	1.607	correct	observe	Run1	observe/STIM_014.jpg
985.438	1.644	correct	observe	Run1	observe/STIM_015.jpg
990.953	1.269	correct	observe	Run1	observe/STIM_015.jpg
996.159	1.752	incorrect	observe	Run1	observe/STIM_015.jpg
1001.11	1.12	correct	observe	Run1	observe/STIM_015.jpg
1005.442	1.607	correct	observe	Run1	observe/STIM_016.jpg
1009.456	1.447	correct	observe	Run1	observe/STIM_016.jpg
1013.65	1.107	correct	observe	Run1	observe/STIM_016.jpg
1017.317	1.823	correct	observe	Run1	observe/STIM_016.jpg
1022.583	1.33	correct	observe	Run1	observe/STIM_017.jpg
1025.932	1.787	correct	observe	Run1	observe/STIM_017.jpg
1031.511	1.7	correct	observe	Run1	observe/STIM_017.jpg
1036.297	1.407	correct	observe	Run1	observe/STIM_017.jpg
1041.577	1.481	correct	observe	Run1	observe/STIM_018.jpg
1045.391	1.37	correct	observe	Run1	observe/STIM_018.jpg
1048.842	1.306	correct	observe	Run1	observe/STIM_018.jpg
1052.673	0.979	correct	observe	Run1	observe/STIM_018.jpg
1056.1	1.093	correct	observe	Run1	observe/STIM_019.jpg
1060.724	1.109	correct	observe	Run1	observe/STIM_019.jpg
1064.86	1.571	correct	observe	Run1	observe/STIM_019.jpg
1069.433	1.485	correct	observe	Run1	observe/STIM_019.jpg
1074.424	3.258	correct	regulate	Run2	regulate/STIM_000.jpg
1081.462	1.673	correct	regulate	Run2	regulate/STIM_000.jpg
1086.963	3.043	correct	regulate	Run2	regulate/STIM_000.jpg
1092.762	1.426	correct	regulate	Run2	regulate/STIM_000.jpg
1098.077	2.134	correct	regulate	Run2	regulate/STIM_001.jpg
1102.243	2.721	correct	regulate	Run2	regulate/STIM_001.jpg
1107.417	1.681	correct	regulate	Run2	regulate/STIM_001.jpg
1112.814	2.89	correct	regulate	Run2	regulate/STIM_001.jpg
1118.971	1.826	correct	regulate	Run2	regulate/STIM_002.jpg
1123.834	2.606	correct	regulate	Run2	regulate/STIM_002.jpg
1129.229	2.92	correct	regulate	Run2	regulate/STIM_002.jpg
1136.146	2.786	correct	regulate	Run2	regulate/STIM_002.jpg
1141.307	2.836	correct	regulate	Run2	regulate/STIM_003.jpg
1146.27	3.119	correct	regulate	Run2	regulate/STIM_003.jpg
1151.562	2.574	correct	regulate	Run2	regulate/STIM_003.jpg
1157.062	1.541	correct	regulate	Run2	regulate/STIM_003.jpg
1161.391	2.497	correct	regulate	Run2	regulate/STIM_004.jpg
1166.133	2.963	correct	regulate	Run2	regulate/STIM_004.jpg
1172.059	1.457	correct	regulate	Run2	regulate/STIM_004.jpg
1176.539	2.046	correct	regulate	Run2	regulate/STIM_004.jpg
1182.216	3.161	correct	regulate	Run2	regulate/STIM_005.jpg
1187.531	1.969	correct	regulate	Run2	regulate/STIM_005.jpg
1193.278	1.656	correct	regulate	Run2	regulate/STIM_005.jpg
1197.492	2.649	correct	regulate	Run2	regulate/STIM_005.jpg
1203.325	1.733	correct	regulate	Run2	regulate/STIM_006.jpg
1208.168	3.331	correct	regulate	Run2	regulate/STIM_006.jpg
1214.932	2.325	correct	regulate	Run2	regulate/STIM_006.jpg
1220.761	1.997	correct	regulate	Run2	regulate/STIM_006.jpg
1225.975	1.825	correct	regulate	Run2	regulate/STIM_007.jpg
1229.866	3.38	correct	regulate	Run2	regulate/STIM_007.jpg
1236.17	3.07	correct	regulate	Run2	regulate/STIM_007.jpg
1242.229	2.336	correct	regulate	Run2	regulate/STIM_007.jpg
1246.737	1.847	correct	regulate	Run2	regulate/STIM_008.jpg
1251.259	1.989	correct	regulate	Run2	regulate/STIM_008.jpg
1256.122	2.104	correct	regulate	Run2	regulate/STIM_008.jpg
1260.429	1.644	correct	regulate	Run2	regulate/STIM_008.jpg
1265.228	1.591	correct	regulate	Run2	regulate/STIM_009.jpg
1270.382	2.753	correct	regulate	Run2	regulate/STIM_009.jpg
1275.878	2.066	correct	regulate	Run2	regulate/STIM_009.jpg
1281.472	1.837	correct	regulate	Run2	regulate/STIM_009.jpg
1287.162	2.224	correct	regulate	Run2	regulate/STIM_010.jpg
1292.384	2.248	correct	regulate	Run2	regulate/STIM_010.jpg
1297.636	2.608	correct	regulate	Run2	regulate/STIM_010.jpg
1303.601	1.852	correct	regulate	Run2	regulate/STIM_010.jpg
1308.153	3.12	correct	regulate	Run2	regulate/STIM_011.jpg
1314.14	1.723	correct	regulate	Run2	regulate/STIM_011.jpg
1318.539	2.311	correct	regulate	Run2	regulate/STIM_011.jpg
1323.581	1.609	correct	regulate	Run2	regulate/STIM_011.jpg
1327.286	3.207	correct	regulate	Run2	regulate/STIM_012.jpg
1334.101	2.521	correct	regulate	Run2	regulate/STIM_012.jpg
1339.355	2.081	correct	regulate	Run2	regulate/STIM_012.jpg
1343.804	2.717	correct	regulate	Run2	regulate/STIM_012.jpg
1349.749	3.327	correct	regulate	Run2	regulate/STIM_013.jpg
1355.797	3.153	correct	regulate	Run2	regulate/STIM_013.jpg
1361.864	2.011	correct	regulate	Run2	regulate/STIM_013.jpg
1367.365	1.716	correct	regulate	Run2	regulate/STIM_013.jpg
1372.428	2.702	correct	regulate	Run2	regulate/STIM_014.jpg
1378.556	1.814	correct	regulate	Run2	regulate/STIM_014.jpg
1383.132	2.911	correct	regulate	Run2	regulate/STIM_014.jpg
1388.491	2.708	correct	regulate	Run2	regulate/STIM_014.jpg
1393.346	2.704	correct	regulate	Run2	regulate/STIM_015.jpg
1398.975	3.23	correct	regulate	Run2	regulate/STIM_015.jpg
1404.703	2.127	correct	regulate	Run2	regulate/STIM_015.jpg
1410.464	1.989	correct	regulate	Run2	regulate/STIM_015.jpg
1415.65	2.205	correct	regulate	Run2	regulate/STIM_016.jpg
1421.34	1.816	correct	regulate	Run2	regulate/STIM_016.jpg
1426.438	3.018	correct	regulate	Run2	regulate/STIM_016.jpg
1432.009	1.772	correct	regulate	Run2	regulate/STIM_016.jpg
1435.863	2.047	incorrect	regulate	Run2	regulate/STIM_017.jpg
1441.13	2.457	correct	regulate	Run2	regulate/STIM_017.jpg
1446.728	2.774	correct	regulate	Run2	regulate/STIM_017.jpg
1452.021	1.393	correct	regulate	Run2	regulate/STIM_017.jpg
1456.085	2.617	correct	regulate	Run2	regulate/STIM_018.jpg
1460.761	2.149	correct	regulate	Run2	regulate/STIM_018.jpg
1466.894	2.724	correct	regulate	Run2	regulate/STIM_018.jpg
1473.36	1.891	correct	regulate	Run2	regulate/STIM_018.jpg
1479.046	3.432	correct	regulate	Run2	regulate/STIM_019.jpg
1484.971	1.945	correct	regulate	Run2	regulate/STIM_019.jpg
1489.182	1.387	correct	regulate	Run2	regulate/STIM_019.jpg
1492.874	2.337	correct	regulate	Run2	regulate/STIM_019.jpg
1497.563	3.418	correct	regulate	Run2	regulate/STIM_020.jpg
1503.889	1.873	correct	regulate	Run2	regulate/STIM_020.jpg
1507.836	3.157	correct	regulate	Run2	regulate/STIM_020.jpg
1513.752	1.405	correct	regulate	Run2	regulate/STIM_020.jpg
1517.419	3.412	correct	regulate	Run2	regulate/STIM_021.jpg
1523.683	2.127	correct	regulate	Run2	regulate/STIM_021.jpg
1528.674	3.077	correct	regulate	Run2	regulate/STIM_021.jpg
1534.909	1.444	correct	regulate	Run2	regulate/STIM_021.jpg
1540.105	2.343	incorrect	regulate	Run2	regulate/STIM_022.jpg
1545.641	1.464	correct	regulate	Run2	regulate/STIM_022.jpg
1550.907	2.013	correct	regulate	Run2	regulate/STIM_022.jpg
1555.535	2.136	correct	regulate	Run2	regulate/STIM_022.jpg
1561.264	2.467	correct	regulate	Run2	regulate/STIM_023.jpg
1567.379	1.572	incorrect	regulate	Run2	regulate/STIM_023.jpg
1571.446	2.952	correct	regulate	Run2	regulate/STIM_023.jpg
1576.744	2.143	correct	regulate	Run2	regulate/STIM_023.jpg
1582.155	1.724	correct	regulate	Run2	regulate/STIM_024.jpg
1586.513	2.074	correct	regulate	Run2	regulate/STIM_024.jpg
1590.775	2.615	correct	regulate	Run2	regulate/STIM_024.jpg
1596.997	2.064	correct	regulate	Run2	regulate/STIM_024.jpg
1601.785	2.61	correct	regulate	Run2	regulate/STIM_025.jpg
1607.914	2.99	correct	regulate	Run2	regulate/STIM_025.jpg
1614.757	2.435	correct	regulate	Run2	regulate/STIM_025.jpg
1619.916	2.203	correct	regulate	Run2	regulate/STIM_025.jpg
1625.694	3.464	correct	regulate	Run2	regulate/STIM_026.jpg
1632.616	1.97	correct	regulate	Run2	regulate/STIM_026.jpg
1637.335	1.44	correct	regulate	Run2	regulate/STIM_026.jpg
1641.06	2.858	correct	regulate	Run2	regulate/STIM_026.jpg
1647.11	2.778	correct	regulate	Run2	regulate/STIM_027.jpg
1653.549	1.867	correct	regulate	Run2	regulate/STIM_027.jpg
1657.853	2.707	correct	regulate	Run2	regulate/STIM_027.jpg
1663.123	2.826	correct	regulate	Run2	regulate/STIM_027.jpg
1669.078	2.816	correct	regulate	Run2	regulate/STIM_028.jpg
1675.238	2.28	correct	regulate	Run2	regulate/STIM_028.jpg
1680.75	1.44	correct	regulate	Run2	regulate/STIM_028.jpg
1686.041	2.039	correct	regulate	Run2	regulate/STIM_028.jpg
1691.252	3.506	correct	regulate	Run2	regulate/STIM_029.jpg
1697.466	1.779	correct	regulate	Run2	regulate/STIM_029.jpg
1702.059	3.044	correct	regulate	Run2	regulate/STIM_029.jpg
1708.268	2.693	correct	regulate	Run2	regulate/STIM_029.jpg
1714.562	1.635	correct	observe	Run2	observe/STIM_000.jpg
1720.106	1.236	correct	observe	Run2	observe/STIM_000.jpg
1724.258	1.457	correct	observe	Run2	observe/STIM_000.jpg
1728.655	1.606	correct	observe	Run2	observe/STIM_000.jpg
1733.622	1.071	correct	observe	Run2	observe/STIM_001.jpg
1738.497	1.592	correct	observe	Run2	observe/STIM_001.jpg
1743.653	1.096	correct	observe	Run2	observe/STIM_001.jpg
1748.394	1.029	correct	observe	Run2	observe/STIM_001.jpg
1752.608	1.011	correct	observe	Run2	observe/STIM_002.jpg
1757.61	1.442	correct	observe	Run2	observe/STIM_002.jpg
1761.356	1.412	correct	observe	Run2	observe/STIM_002.jpg
1766.4	1.691	correct	observe	Run2	observe/STIM_002.jpg
1770.125	1.122	correct	observe	Run2	observe/STIM_003.jpg
1773.415	1.59	correct	observe	Run2	observe/STIM_003.jpg
1777.937	1.901	correct	observe	Run2	observe/STIM_003.jpg
1782.486	1.64	correct	observe	Run2	observe/STIM_003.jpg
1786.351	1.313	correct	observe	Run2	observe/STIM_004.jpg
1791.394	1.137	correct	observe	Run2	observe/STIM_004.jpg
1795.947	1.269	correct	observe	Run2	observe/STIM_004.jpg
1799.512	1.126	correct	observe	Run2	observe/STIM_004.jpg
1803.684	1.067	correct	observe	Run2	observe/STIM_005.jpg
1808.566	1.754	correct	observe	Run2	observe/STIM_005.jpg
1813.012	1.722	correct	observe	Run2	observe/STIM_005.jpg
1817.229	1.484	correct	observe	Run2	observe/STIM_005.jpg
1822.264	1.325	correct	observe	Run2	observe/STIM_006.jpg
1826.041	1.176	correct	observe	Run2	observe/STIM_006.jpg
1829.527	1.351	correct	observe	Run2	observe/STIM_006.jpg
1833.06	1.105	correct	observe	Run2	observe/STIM_006.jpg
1837.143	1.128	correct	observe	Run2	observe/STIM_007.jpg
1841.802	1.86	incorrect	observe	Run2	observe/STIM_007.jpg
1845.871	1.524	correct	observe	Run2	observe/STIM_007.jpg
1850.851	1.446	correct	observe	Run2	observe/STIM_007.jpg
1855.912	0.976	correct	observe	Run2	observe/STIM_008.jpg
1859.069	1.214	correct	observe	Run2	observe/STIM_008.jpg
1862.638	1.529	correct	observe	Run2	observe/STIM_008.jpg
1866.883	1.598	correct	observe	Run2	observe/STIM_008.jpg
1870.845	1.838	correct	observe	Run2	observe/STIM_009.jpg
1874.972	1.657	correct	observe	Run2	observe/STIM_009.jpg
1879.245	1.256	correct	observe	Run2	observe/STIM_009.jpg
1882.633	1.619	correct	observe	Run2	observe/STIM_009.jpg
1887.999	1.132	correct	observe	Run2	observe/STIM_010.jpg
1891.925	1.094	correct	observe	Run2	observe/STIM_010.jpg
1896.928	1.109	correct	observe	Run2	observe/STIM_010.jpg
1900.593	1.311	correct	observe	Run2	observe/STIM_010.jpg
1905.451	0.994	correct	observe	Run2	observe/STIM_011.jpg
1909.064	1.588	correct	observe	Run2	observe/STIM_011.jpg
1913.739	1.569	correct	observe	Run2	observe/STIM_011.jpg
1919.224	1.929	correct	observe	Run2	observe/STIM_011.jpg
1923.887	1.244	correct	observe	Run2	observe/STIM_012.jpg
1929.116	1.514	correct	observe	Run2	observe/STIM_012.jpg
1933.924	1.264	correct	observe	Run2	observe/STIM_012.jpg
1938.809	1.001	correct	observe	Run2	observe/STIM_012.jpg
1942.209	1.126	correct	observe	Run2	observe/STIM_013.jpg
1946.84	1.701	correct	observe	Run2	observe/STIM_013.jpg
1950.677	1.26	correct	observe	Run2	observe/STIM_013.jpg
1954.111	1.389	correct	observe	Run2	observe/STIM_013.jpg
1957.701	1.806	correct	observe	Run2	observe/STIM_014.jpg
1961.669	0.982	incorrect	observe	Run2	observe/STIM_014.jpg
1966.088	1.308	correct	observe	Run2	observe/STIM_014.jpg
1969.689	1.249	correct	observe	Run2	observe/STIM_014.jpg
1974.021	1.285	correct	observe	Run2	observe/STIM_015.jpg
1979.174	1.818	correct	observe	Run2	observe/STIM_015.jpg
1983.412	1.278	correct	observe	Run2	observe/STIM_015.jpg
1988.155	1.805	correct	observe	Run2	observe/STIM_015.jpg
1993.135	1.236	correct	observe	Run2	observe/STIM_016.jpg
1997.844	1.527	correct	observe	Run2	observe/STIM_016.jpg
2002.891	1.371	correct	observe	Run2	observe/STIM_016.jpg
2008.185	1.558	correct	observe	Run2	observe/STIM_016.jpg
2012.917	1.396	correct	observe	Run2	observe/STIM_017.jpg
2018.308	1.748	correct	observe	Run2	observe/STIM_017.jpg
2022.405	1.066	correct	observe	Run2	observe/STIM_017.jpg
2026.856	1.593	correct	observe	Run2	observe/STIM_017.jpg
2031.57	1.833	correct	observe	Run2	observe/STIM_018.jpg
2036.026	1.606	correct	observe	Run2	observe/STIM_018.jpg
2040.054	1.377	correct	observe	Run2	observe/STIM_018.jpg
2044.39	1.68	correct	observe	Run2	observe/STIM_018.jpg
2049.557	1.226	correct	observe	Run2	observe/STIM_019.jpg
2052.786	1.714	correct	observe	Run2	observe/STIM_019.jpg
2058.171	1.471	correct	observe	Run2	observe/STIM_019.jpg
2063.574	1.452	correct	observe	Run2	observe/STIM_019.jpg
2068.56	2.418	correct	regulate	Run3	regulate/STIM_000.jpg
2073.252	2.613	correct	regulate	Run3	regulate/STIM_000.jpg
2079.686	1.511	correct	regulate	Run3	regulate/STIM_000.jpg
2083.254	1.317	correct	regulate	Run3	regulate/STIM_000.jpg
2087.43	2.03	incorrect	regulate	Run3	regulate/STIM_001.jpg
2091.64	1.687	correct	regulate	Run3	regulate/STIM_001.jpg
2096.071	2.163	correct	regulate	Run3	regulate/STIM_001.jpg
2101.301	1.513	correct	regulate	Run3	regulate/STIM_001.jpg
2105.709	2.522	correct	regulate	Run3	regulate/STIM_002.jpg
2111.354	1.676	correct	regulate	Run3	regulate/STIM_002.jpg
2115.73	2.248	correct	regulate	Run3	regulate/STIM_002.jpg
2121.212	1.93	correct	regulate	Run3	regulate/STIM_002.jpg
2126.799	2.733	correct	regulate	Run3	regulate/STIM_003.jpg
2132.921	1.838	correct	regulate	Run3	regulate/STIM_003.jpg
2137.287	2.614	correct	regulate	Run3	regulate/STIM_003.jpg
2143.218	2.626	correct	regulate	Run3	regulate/STIM_003.jpg
2148.11	1.801	correct	regulate	Run3	regulate/STIM_004.jpg
2153.816	2.65	correct	regulate	Run3	regulate/STIM_004.jpg
2159.853	1.361	correct	regulate	Run3	regulate/STIM_004.jpg
2164.018	2.409	correct	regulate	Run3	regulate/STIM_004.jpg
2169.722	1.966	correct	regulate	Run3	regulate/STIM_005.jpg
2175.429	2.245	correct	regulate	Run3	regulate/STIM_005.jpg
2181.648	2.236	correct	regulate	Run3	regulate/STIM_005.jpg
2187.305	1.358	correct	regulate	Run3	regulate/STIM_005.jpg
2192.315	1.509	correct	regulate	Run3	regulate/STIM_006.jpg
2196.107	1.975	correct	regulate	Run3	regulate/STIM_006.jpg
2200.386	2.682	correct	regulate	Run3	regulate/STIM_006.jpg
2205.563	1.835	correct	regulate	Run3	regulate/STIM_006.jpg
2210.554	2.926	correct	regulate	Run3	regulate/STIM_007.jpg
2217.293	2.577	correct	regulate	Run3	regulate/STIM_007.jpg
2223.243	1.939	correct	regulate	Run3	regulate/STIM_007.jpg
2229.023	2.663	correct	regulate	Run3	regulate/STIM_007.jpg
2234.02	1.758	correct	regulate	Run3	regulate/STIM_008.jpg
2239.285	1.497	correct	regulate	Run3	regulate/STIM_008.jpg
2244.147	2.575	correct	regulate	Run3	regulate/STIM_008.jpg
2248.95	2.25	correct	regulate	Run3	regulate/STIM_008.jpg
2254.385	2.581	correct	regulate	Run3	regulate/STIM_009.jpg
2260.516	1.381	correct	regulate	Run3	regulate/STIM_009.jpg
2264.12	2.706	correct	regulate	Run3	regulate/STIM_009.jpg
2269.454	1.76	correct	regulate	Run3	regulate/STIM_009.jpg
2274.038	1.808	incorrect	regulate	Run3	regulate/STIM_010.jpg
2277.869	1.747	correct	regulate	Run3	regulate/STIM_010.jpg
2282.447	1.905	correct	regulate	Run3	regulate/STIM_010.jpg
2287.294	2.64	correct	regulate	Run3	regulate/STIM_010.jpg
2293.055	1.925	correct	regulate	Run3	regulate/STIM_011.jpg
2298.649	1.506	correct	regulate	Run3	regulate/STIM_011.jpg
2303.209	2.349	correct	regulate	Run3	regulate/STIM_011.jpg
2308.301	2.459	correct	regulate	Run3	regulate/STIM_011.jpg
2312.815	2.332	correct	regulate	Run3	regulate/STIM_012.jpg
2318.723	2.74	correct	regulate	Run3	regulate/STIM_012.jpg
2324.257	2.685	correct	regulate	Run3	regulate/STIM_012.jpg
2329.355	1.295	correct	regulate	Run3	regulate/STIM_012.jpg
2333.751	2.852	correct	regulate	Run3	regulate/STIM_013.jpg
2340.265	2.507	correct	regulate	Run3	regulate/STIM_013.jpg
2346.513	1.688	correct	regulate	Run3	regulate/STIM_013.jpg
2351.238	2.306	correct	regulate	Run3	regulate/STIM_013.jpg
2357.117	2.021	correct	regulate	Run3	regulate/STIM_014.jpg
2362.274	2.368	correct	regulate	Run3	regulate/STIM_014.jpg
2368.033	2.564	correct	regulate	Run3	regulate/STIM_014.jpg
2373.578	2.475	correct	regulate	Run3	regulate/STIM_014.jpg
2378.971	1.93	correct	regulate	Run3	regulate/STIM_015.jpg
2384.098	1.972	correct	regulate	Run3	regulate/STIM_015.jpg
2389.132	2.579	incorrect	regulate	Run3	regulate/STIM_015.jpg
2393.943	2.198	correct	regulate	Run3	regulate/STIM_015.jpg
2400.048	1.421	correct	regulate	Run3	regulate/STIM_016.jpg
2404.033	1.568	correct	regulate	Run3	regulate/STIM_016.jpg
2408.588	2.424	correct	regulate	Run3	regulate/STIM_016.jpg
2413.338	2.084	correct	regulate	Run3	regulate/STIM_016.jpg
2419.375	1.786	correct	regulate	Run3	regulate/STIM_017.jpg
2423.492	2.611	correct	regulate	Run3	regulate/STIM_017.jpg
2428.598	2.337	correct	regulate	Run3	regulate/STIM_017.jpg
2433.277	2.308	correct	regulate	Run3	regulate/STIM_017.jpg
2439.188	1.591	correct	regulate	Run3	regulate/STIM_018.jpg
2444.606	2.4	correct	regulate	Run3	regulate/STIM_018.jpg
2449.332	2.279	correct	regulate	Run3	regulate/STIM_018.jpg
2454.08	1.733	correct	regulate	Run3	regulate/STIM_018.jpg
2459.576	1.8	correct	regulate	Run3	regulate/STIM_019.jpg
2464.606	2.034	incorrect	regulate	Run3	regulate/STIM_019.jpg
2469.66	2.055	correct	regulate	Run3	regulate/STIM_019.jpg
2474.244	2.472	correct	regulate	Run3	regulate/STIM_019.jpg
2480.699	2.022	correct	regulate	Run3	regulate/STIM_020.jpg
2486.483	1.326	correct	regulate	Run3	regulate/STIM_020.jpg
2490.564	1.894	correct	regulate	Run3	regulate/STIM_020.jpg
2495.397	1.95	correct	regulate	Run3	regulate/STIM_020.jpg
2499.358	2.512	correct	regulate	Run3	regulate/STIM_021.jpg
2505.487	2.052	correct	regulate	Run3	regulate/STIM_021.jpg
2510.692	2.178	correct	regulate	Run3	regulate/STIM_021.jpg
2515.32	1.922	correct	regulate	Run3	regulate/STIM_021.jpg
2520.029	1.828	correct	regulate	Run3	regulate/STIM_022.jpg
2524.975	1.411	correct	regulate	Run3	regulate/STIM_022.jpg
2528.516	2.063	incorrect	regulate	Run3	regulate/STIM_022.jpg
2534.103	1.713	correct	regulate	Run3	regulate/STIM_022.jpg
2538.534	1.721	correct	regulate	Run3	regulate/STIM_023.jpg
2542.266	2.632	correct	regulate	Run3	regulate/STIM_023.jpg
2548.443	1.861	correct	regulate	Run3	regulate/STIM_023.jpg
2552.477	2.314	correct	regulate	Run3	regulate/STIM_023.jpg
2557.985	1.68	correct	regulate	Run3	regulate/STIM_024.jpg
2563.512	2.13	correct	regulate	Run3	regulate/STIM_024.jpg
2567.735	1.617	correct	regulate	Run3	regulate/STIM_024.jpg
2573.026	2.23	correct	regulate	Run3	regulate/STIM_024.jpg
2578.583	2.39	correct	regulate	Run3	regulate/STIM_025.jpg
2584.202	1.963	correct	regulate	Run3	regulate/STIM_025.jpg
2589.906	2.043	correct	regulate	Run3	regulate/STIM_025.jpg
2594.213	2.557	correct	regulate	Run3	regulate/STIM_025.jpg
2600.74	1.787	correct	regulate	Run3	regulate/STIM_026.jpg
2606.369	2.664	correct	regulate	Run3	regulate/STIM_026.jpg
2612.08	2.333	correct	regulate	Run3	regulate/STIM_026.jpg
2617.896	1.572	correct	regulate	Run3	regulate/STIM_026.jpg
2621.757	2.194	correct	regulate	Run3	regulate/STIM_027.jpg
2627.379	2.217	correct	regulate	Run3	regulate/STIM_027.jpg
2632.086	2.697	correct	regulate	Run3	regulate/STIM_027.jpg
2636.835	2.549	correct	regulate	Run3	regulate/STIM_027.jpg
2641.815	1.95	correct	regulate	Run3	regulate/STIM_028.jpg
2646.292	2.022	correct	regulate	Run3	regulate/STIM_028.jpg
2651.398	1.521	correct	regulate	Run3	regulate/STIM_028.jpg
2655.117	1.912	correct	regulate	Run3	regulate/STIM_028.jpg
2661.011	2.67	correct	regulate	Run3	regulate/STIM_029.jpg
2666.721	1.853	correct	regulate	Run3	regulate/STIM_029.jpg
2671.121	2.629	correct	regulate	Run3	regulate/STIM_029.jpg
2677.503	1.734	correct	regulate	Run3	regulate/STIM_029.jpg
2682.409	1.234	correct	observe	Run3	observe/STIM_000.jpg
2686.229	1.159	correct	observe	Run3	observe/STIM_000.jpg
2691.293	0.972	correct	observe	Run3	observe/STIM_000.jpg
2694.282	1.422	correct	observe	Run3	observe/STIM_000.jpg
2698.434	1.553	correct	observe	Run3	observe/STIM_001.jpg
2702.63	1.241	correct	observe	Run3	observe/STIM_001.jpg
2707.478	1.071	correct	observe	Run3	observe/STIM_001.jpg
2711.679	1.628	correct	observe	Run3	observe/STIM_001.jpg
2715.9	1.152	correct	observe	Run3	observe/STIM_002.jpg
2720.146	1.529	correct	observe	Run3	observe/STIM_002.jpg
2724.489	1.286	correct	observe	Run3	observe/STIM_002.jpg
2729.43	1.626	correct	observe	Run3	observe/STIM_002.jpg
2733.97	1.754	correct	observe	Run3	observe/STIM_003.jpg
2739.138	1.858	correct	observe	Run3	observe/STIM_003.jpg
2743.887	1.729	correct	observe	Run3	observe/STIM_003.jpg
2748.552	1.591	correct	observe	Run3	observe/STIM_003.jpg
2753.533	1.133	correct	observe	Run3	observe/STIM_004.jpg
2757.675	1.682	correct	observe	Run3	observe/STIM_004.jpg
2762.305	1.831	correct	observe	Run3	observe/STIM_004.jpg
2767.676	1.644	correct	observe	Run3	observe/STIM_004.jpg
2771.358	1.502	correct	observe	Run3	observe/STIM_005.jpg
2774.9	1.777	correct	observe	Run3	observe/STIM_005.jpg
2780.42	1.128	correct	observe	Run3	observe/STIM_005.jpg
2783.65	1.762	correct	observe	Run3	observe/STIM_005.jpg
2788.864	1.194	correct	observe	Run3	observe/STIM_006.jpg
2792.758	1.204	correct	observe	Run3	observe/STIM_006.jpg
2797.717	1.356	correct	observe	Run3	observe/STIM_006.jpg
2802.915	1.298	correct	observe	Run3	observe/STIM_006.jpg
2806.358	0.983	correct	observe	Run3	observe/STIM_007.jpg
2811.318	1.16	correct	observe	Run3	observe/STIM_007.jpg
2814.49	1.857	correct	observe	Run3	observe/STIM_007.jpg
2820.168	1.703	correct	observe	Run3	observe/STIM_007.jpg
2824.889	1.562	correct	observe	Run3	observe/STIM_008.jpg
2829.029	1.071	correct	observe	Run3	observe/STIM_008.jpg
2832.259	1.618	correct	observe	Run3	observe/STIM_008.jpg
2837.48	1.072	correct	observe	Run3	observe/STIM_008.jpg
2841.69	1.838	correct	observe	Run3	observe/STIM_009.jpg
2847.18	1.141	correct	observe	Run3	observe/STIM_009.jpg
2852.079	1.57	correct	observe	Run3	observe/STIM_009.jpg
2856.662	1.516	correct	observe	Run3	observe/STIM_009.jpg
2860.229	1.262	correct	observe	Run3	observe/STIM_010.jpg
2864.303	0.977	correct	observe	Run3	observe/STIM_010.jpg
2868.451	1.438	incorrect	observe	Run3	observe/STIM_010.jpg
2872.014	1.441	incorrect	observe	Run3	observe/STIM_010.jpg
2876.467	1.328	correct	observe	Run3	observe/STIM_011.jpg
2880.417	1.683	correct	observe	Run3	observe/STIM_011.jpg
2884.885	1.188	correct	observe	Run3	observe/STIM_011.jpg
2888.745	1.302	correct	observe	Run3	observe/STIM_011.jpg
2892.616	1.346	correct	observe	Run3	observe/STIM_012.jpg
2897.879	1.632	correct	observe	Run3	observe/STIM_012.jpg
2902.297	1.535	correct	observe	Run3	observe/STIM_012.jpg
2906.536	1.903	correct	observe	Run3	observe/STIM_012.jpg
2911.588	1.765	correct	observe	Run3	observe/STIM_013.jpg
2915.669	1.436	incorrect	observe	Run3	observe/STIM_013.jpg
2920.264	1.058	correct	observe	Run3	observe/STIM_013.jpg
2924.39	1.449	correct	observe	Run3	observe/STIM_013.jpg
2929.279	1.139	correct	observe	Run3	observe/STIM_014.jpg
2932.663	1.576	correct	observe	Run3	observe/STIM_014.jpg
2936.517	1.248	correct	observe	Run3	observe/STIM_014.jpg
2941.531	1.838	correct	observe	Run3	observe/STIM_014.jpg
2945.37	1.7	correct	observe	Run3	observe/STIM_015.jpg
2950.568	1.238	correct	observe	Run3	observe/STIM_015.jpg
2954.238	1.496	correct	observe	Run3	observe/STIM_015.jpg
2958.945	1.904	correct	observe	Run3	observe/STIM_015.jpg
2964.212	1.654	correct	observe	Run3	observe/STIM_016.jpg
2969.748	1.795	correct	observe	Run3	observe/STIM_016.jpg
2973.603	1.73	incorrect	observe	Run3	observe/STIM_016.jpg
2978.208	1.686	correct	observe	Run3	observe/STIM_016.jpg
2982.609	1.909	correct	observe	Run3	observe/STIM_017.jpg
2988.256	1.421	correct	observe	Run3	observe/STIM_017.jpg
2992.338	1.024	correct	observe	Run3	observe/STIM_017.jpg
2997.032	1.76	correct	observe	Run3	observe/STIM_017.jpg
3000.847	1.768	correct	observe	Run3	observe/STIM_018.jpg
3006.133	1.746	correct	observe	Run3	observe/STIM_018.jpg
3011.162	1.6	correct	observe	Run3	observe/STIM_018.jpg
3016.627	1.462	correct	observe	Run3	observe/STIM_018.jpg
3020.409	1.63	correct	observe	Run3	observe/STIM_019.jpg
3025.752	1.812	correct	observe	Run3	observe/STIM_019.jpg
3029.932	1.261	correct	observe	Run3	observe/STIM_019.jpg
3034.988	1.034	correct	observe	Run3	observe/STIM_019.jpg
