onset	duration	response_time_ms	trial_type	learning_stage	stimulus	response_port
0.0	2.429	2429.4	regulate	Run1	regulate/STIM_000.jpg	100
6.388	1.942	1942.2	regulate	Run1	regulate/STIM_000.jpg	99
11.599	2.243	2243.3	regulate	Run1	regulate/STIM_000.jpg	99
17.387	2.81	2809.9	regulate	Run1	regulate/STIM_000.jpg	99
24.194	2.529	2529.2	regulate	Run1	regulate/STIM_001.jpg	100
29.509	1.851	1851.3	regulate	Run1	regulate/STIM_001.jpg	100
34.042	2.392	2391.9	regulate	Run1	regulate/STIM_001.jpg	99
40.425	2.671	2670.8	regulate	Run1	regulate/STIM_001.jpg	99
45.593	2.288	2287.9	regulate	Run1	regulate/STIM_002.jpg	100
50.978	3.522	3522.5	regulate	Run1	regulate/STIM_002.jpg	99
56.819	1.81	1810.2	regulate	Run1	regulate/STIM_002.jpg	100
61.925	1.575	1574.8	regulate	Run1	regulate/STIM_002.jpg	99
67.394	2.171	2171.4	regulate	Run1	regulate/STIM_003.jpg	99
72.114	3.24	3240.0	regulate	Run1	regulate/STIM_003.jpg	100
77.536	2.516	2516.0	regulate	Run1	regulate/STIM_003.jpg	99
82.78	2.859	2859.3	regulate	Run1	regulate/STIM_003.jpg	99
88.965	3.84	3840.0	regulate	Run1	regulate/STIM_004.jpg	100
95.961	3.371	3371.2	regulate	Run1	regulate/STIM_004.jpg	100
101.36	3.583	3582.8	regulate	Run1	regulate/STIM_004.jpg	99
107.554	3.476	3475.8	regulate	Run1	regulate/STIM_004.jpg	99
114.288	2.814	2814.1	regulate	Run1	regulate/STIM_005.jpg	99
119.969	3.983	3982.7	regulate	Run1	regulate/STIM_005.jpg	99
126.552	3.304	3304.2	regulate	Run1	regulate/STIM_005.jpg	100
132.852	1.561	1561.4	regulate	Run1	regulate/STIM_005.jpg	100
138.202	3.352	3351.8	regulate	Run1	regulate/STIM_006.jpg	100
145.524	3.181	3180.9	regulate	Run1	regulate/STIM_006.jpg	99
151.865	3.439	3439.0	regulate	Run1	regulate/STIM_006.jpg	99
157.358	3.26	3259.6	regulate	Run1	regulate/STIM_006.jpg	99
164.496	2.138	2137.5	regulate	Run1	regulate/STIM_007.jpg	99
169.686	2.323	2322.9	regulate	Run1	regulate/STIM_007.jpg	99
175.019	1.681	1680.8	regulate	Run1	regulate/STIM_007.jpg	100
179.273	1.931	1930.9	regulate	Run1	regulate/STIM_007.jpg	100
184.371	4.028	4027.7	regulate	Run1	regulate/STIM_008.jpg	99
191.646	3.821	3821.1	regulate	Run1	regulate/STIM_008.jpg	99
199.156	3.598	3597.5	regulate	Run1	regulate/STIM_008.jpg	100
204.814	2.785	2784.9	regulate	Run1	regulate/STIM_008.jpg	100
210.602	1.867	1866.7	regulate	Run1	regulate/STIM_009.jpg	100
214.857	2.193	2192.8	regulate	Run1	regulate/STIM_009.jpg	99
219.785	3.82	3820.4	regulate	Run1	regulate/STIM_009.jpg	99
227.074	3.442	3442.2	regulate	Run1	regulate/STIM_009.jpg	99
233.14	3.395	3395.4	regulate	Run1	regulate/STIM_010.jpg	100
240.504	3.459	3459.3	regulate	Run1	regulate/STIM_010.jpg	99
246.105	2.51	2509.6	regulate	Run1	regulate/STIM_010.jpg	100
251.801	1.886	1886.5	regulate	Run1	regulate/STIM_010.jpg	100
256.725	3.312	3311.7	regulate	Run1	regulate/STIM_011.jpg	99
263.863	1.768	1768.2	regulate	Run1	regulate/STIM_011.jpg	100
269.52	2.041	2040.5	regulate	Run1	regulate/STIM_011.jpg	99
273.769	3.447	3447.0	regulate	Run1	regulate/STIM_011.jpg	100
279.346	3.496	3495.9	regulate	Run1	regulate/STIM_012.jpg	100
286.782	2.973	2973.0	regulate	Run1	regulate/STIM_012.jpg	100
292.285	2.462	2461.6	regulate	Run1	regulate/STIM_012.jpg	100
297.573	2.29	2289.9	regulate	Run1	regulate/STIM_012.jpg	99
303.404	3.02	3019.6	regulate	Run1	regulate/STIM_013.jpg	99
309.67	3.96	3960.0	regulate	Run1	regulate/STIM_013.jpg	100
315.951	2.839	2839.4	regulate	Run1	regulate/STIM_013.jpg	99
321.304	3.592	3592.4	regulate	Run1	regulate/STIM_013.jpg	100
327.154	3.787	3786.8	regulate	Run1	regulate/STIM_014.jpg	100
334.717	3.652	3652.3	regulate	Run1	regulate/STIM_014.jpg	99
341.774	3.049	3049.4	regulate	Run1	regulate/STIM_014.jpg	99
348.769	1.767	1767.1	regulate	Run1	regulate/STIM_014.jpg	99
353.442	2.573	2573.0	regulate	Run1	regulate/STIM_015.jpg	99
359.253	2.641	2641.1	regulate	Run1	regulate/STIM_015.jpg	100
365.782	2.724	2723.5	regulate	Run1	regulate/STIM_015.jpg	99
371.185	2.4	2400.2	regulate	Run1	regulate/STIM_015.jpg	99
377.424	2.954	2954.4	regulate	Run1	regulate/STIM_016.jpg	100
382.82	3.143	3142.8	regulate	Run1	regulate/STIM_016.jpg	99
389.58	2.953	2953.2	regulate	Run1	regulate/STIM_016.jpg	99
396.414	2.121	2120.9	regulate	Run1	regulate/STIM_016.jpg	99
401.479	2.16	2160.5	regulate	Run1	regulate/STIM_017.jpg	99
406.856	2.117	2117.4	regulate	Run1	regulate/STIM_017.jpg	99
412.265	3.488	3487.5	regulate	Run1	regulate/STIM_017.jpg	99
419.604	1.781	1780.6	regulate	Run1	regulate/STIM_017.jpg	100
424.184	2.347	2347.0	regulate	Run1	regulate/STIM_018.jpg	99
428.928	2.742	2741.6	regulate	Run1	regulate/STIM_018.jpg	100
435.584	2.631	2631.3	regulate	Run1	regulate/STIM_018.jpg	99
441.319	2.161	2161.2	regulate	Run1	regulate/STIM_018.jpg	99
447.097	2.434	2433.6	regulate	Run1	regulate/STIM_019.jpg	100
452.74	3.407	3406.7	regulate	Run1	regulate/STIM_019.jpg	100
459.405	3.516	3516.5	regulate	Run1	regulate/STIM_019.jpg	99
466.049	1.974	1974.5	regulate	Run1	regulate/STIM_019.jpg	99
470.989	4.237	4237.0	regulate	Run1	regulate/STIM_020.jpg	99
478.771	3.71	3710.4	regulate	Run1	regulate/STIM_020.jpg	100
485.236	3.244	3243.9	regulate	Run1	regulate/STIM_020.jpg	100
490.82	2.373	2372.9	regulate	Run1	regulate/STIM_020.jpg	100
495.567	3.825	3824.6	regulate	Run1	regulate/STIM_021.jpg	100
502.575	3.244	3243.6	regulate	Run1	regulate/STIM_021.jpg	100
508.229	2.683	2683.1	regulate	Run1	regulate/STIM_021.jpg	99
513.075	1.811	1810.6	regulate	Run1	regulate/STIM_021.jpg	99
517.994	2.976	2975.9	regulate	Run1	regulate/STIM_022.jpg	100
523.145	1.891	1890.6	regulate	Run1	regulate/STIM_022.jpg	99
528.51	2.196	2196.0	regulate	Run1	regulate/STIM_022.jpg	99
533.507	1.784	1783.9	regulate	Run1	regulate/STIM_022.jpg	99
539.282	3.625	3625.0	regulate	Run1	regulate/STIM_023.jpg	100
546.301	2.476	2475.6	regulate	Run1	regulate/STIM_023.jpg	100
551.506	3.549	3548.6	regulate	Run1	regulate/STIM_023.jpg	100
558.122	3.154	3153.5	regulate	Run1	regulate/STIM_023.jpg	99
563.903	2.858	2858.3	regulate	Run1	regulate/STIM_024.jpg	100
570.311	2.384	2383.5	regulate	Run1	regulate/STIM_024.jpg	99
575.017	2.534	2533.9	regulate	Run1	regulate/STIM_024.jpg	100
581.086	2.134	2134.1	regulate	Run1	regulate/STIM_024.jpg	99
585.643	2.488	2488.4	regulate	Run1	regulate/STIM_025.jpg	99
592.113	2.454	2454.5	regulate	Run1	regulate/STIM_025.jpg	100
596.745	3.61	3609.9	regulate	Run1	regulate/STIM_025.jpg	100
603.095	3.372	3371.8	regulate	Run1	regulate/STIM_025.jpg	100
610.395	4.221	4221.0	regulate	Run1	regulate/STIM_026.jpg	100
618.419	3.356	3355.6	regulate	Run1	regulate/STIM_026.jpg	99
625.316	2.42	2420.5	regulate	Run1	regulate/STIM_026.jpg	99
630.086	2.701	2700.8	regulate	Run1	regulate/STIM_026.jpg	100
635.239	3.874	3874.1	regulate	Run1	regulate/STIM_027.jpg	100
642.134	3.578	3578.5	regulate	Run1	regulate/STIM_027.jpg	100
647.957	1.884	1883.9	regulate	Run1	regulate/STIM_027.jpg	100
652.39	2.483	2482.9	regulate	Run1	regulate/STIM_027.jpg	100
657.153	2.712	2712.2	regulate	Run1	regulate/STIM_028.jpg	99
663.568	3.903	3903.2	regulate	Run1	regulate/STIM_028.jpg	100
670.378	1.795	1795.3	regulate	Run1	regulate/STIM_028.jpg	100
675.882	3.332	3332.3	regulate	Run1	regulate/STIM_028.jpg	100
683.093	2.971	2971.1	regulate	Run1	regulate/STIM_029.jpg	99
689.026	3.833	3832.6	regulate	Run1	regulate/STIM_029.jpg	99
695.862	3.555	3555.1	regulate	Run1	regulate/STIM_029.jpg	99
701.818	3.173	3172.7	regulate	Run1	regulate/STIM_029.jpg	99
708.51	1.539	1538.9	observe	Run1	observe/STIM_000.jpg	99
712.6	1.128	1128.2	observe	Run1	observe/STIM_000.jpg	100
716.921	1.752	1752.4	observe	Run1	observe/STIM_000.jpg	99
721.128	1.867	1866.9	observe	Run1	observe/STIM_000.jpg	99
726.462	1.168	1168.5	observe	Run1	observe/STIM_001.jpg	99
730.458	1.209	1209.3	observe	Run1	observe/STIM_001.jpg	99
735.65	1.123	1122.7	observe	Run1	observe/STIM_001.jpg	99
739.821	1.403	1402.6	observe	Run1	observe/STIM_001.jpg	99
744.164	1.89	1890.4	observe	Run1	observe/STIM_002.jpg	100
749.761	1.869	1868.7	observe	Run1	observe/STIM_002.jpg	100
755.558	1.568	1568.5	observe	Run1	observe/STIM_002.jpg	100
760.103	1.527	1527.0	observe	Run1	observe/STIM_002.jpg	99
764.268	1.032	1032.2	observe	Run1	observe/STIM_003.jpg	99
768.381	1.244	1243.9	observe	Run1	observe/STIM_003.jpg	99
773.174	1.839	1839.0	observe	Run1	observe/STIM_003.jpg	100
777.514	1.636	1635.6	observe	Run1	observe/STIM_003.jpg	100
782.407	1.019	1018.6	observe	Run1	observe/STIM_004.jpg	99
787.157	0.982	982.1	observe	Run1	observe/STIM_004.jpg	100
791.369	1.715	1715.3	observe	Run1	observe/STIM_004.jpg	99
797.04	1.939	1938.6	observe	Run1	observe/STIM_004.jpg	99
802.739	1.471	1471.1	observe	Run1	observe/STIM_005.jpg	99
807.558	1.162	1161.5	observe	Run1	observe/STIM_005.jpg	100
811.487	1.831	1830.7	observe	Run1	observe/STIM_005.jpg	99
816.746	1.814	1814.3	observe	Run1	observe/STIM_005.jpg	99
820.92	1.6	1600.3	observe	Run1	observe/STIM_006.jpg	100
825.458	1.547	1546.7	observe	Run1	observe/STIM_006.jpg	99
829.429	1.72	1719.8	observe	Run1	observe/STIM_006.jpg	99
834.069	1.692	1692.0	observe	Run1	observe/STIM_006.jpg	99
838.212	1.005	1004.8	observe	Run1	observe/STIM_007.jpg	99
842.196	1.659	1658.7	observe	Run1	observe/STIM_007.jpg	100
847.043	1.898	1897.8	observe	Run1	observe/STIM_007.jpg	99
851.507	1.138	1138.5	observe	Run1	observe/STIM_007.jpg	99
854.665	1.148	1148.5	observe	Run1	observe/STIM_008.jpg	100
858.86	1.464	1464.0	observe	Run1	observe/STIM_008.jpg	99
863.021	1.927	1926.6	observe	Run1	observe/STIM_008.jpg	100
868.052	1.817	1816.6	observe	Run1	observe/STIM_008.jpg	100
872.341	1.71	1710.2	observe	Run1	observe/STIM_009.jpg	99
876.726	1.43	1429.7	observe	Run1	observe/STIM_009.jpg	100
881.718	1.327	1327.0	observe	Run1	observe/STIM_009.jpg	99
886.859	1.201	1201.1	observe	Run1	observe/STIM_009.jpg	99
890.873	1.696	1696.1	observe	Run1	observe/STIM_010.jpg	100
895.588	1.198	1198.3	observe	Run1	observe/STIM_010.jpg	99
900.452	1.22	1220.2	observe	Run1	observe/STIM_010.jpg	99
903.771	1.611	1610.8	observe	Run1	observe/STIM_010.jpg	99
909.352	1.293	1293.4	observe	Run1	observe/STIM_011.jpg	100
914.014	1.607	1606.6	observe	Run1	observe/STIM_011.jpg	99
917.898	1.605	1604.9	observe	Run1	observe/STIM_011.jpg	100
922.416	1.591	1591.4	observe	Run1	observe/STIM_011.jpg	100
927.664	1.073	1072.7	observe	Run1	observe/STIM_012.jpg	100
931.266	1.902	1902.2	observe	Run1	observe/STIM_012.jpg	99
936.09	1.592	1591.8	observe	Run1	observe/STIM_012.jpg	100
941.636	1.832	1832.5	observe	Run1	observe/STIM_012.jpg	100
946.994	1.87	1869.6	observe	Run1	observe/STIM_013.jpg	99
952.268	1.773	1772.9	observe	Run1	observe/STIM_013.jpg	100
957.44	0.992	992.1	observe	Run1	observe/STIM_013.jpg	99
962.123	1.76	1760.2	observe	Run1	observe/STIM_013.jpg	99
966.431	1.75	1750.3	observe	Run1	observe/STIM_014.jpg	100
970.819	1.651	1650.6	observe	Run1	observe/STIM_014.jpg	100
975.409	1.841	1841.3	observe	Run1	observe/STIM_014.jpg	99
980.578	1.607	1607.2	observe	Run1	observe/STIM_014.jpg	100
985.438	1.644	1643.6	observe	Run1	observe/STIM_015.jpg	100
990.953	1.269	1269.2	observe	Run1	observe/STIM_015.jpg	100
996.159	1.752	1751.7	observe	Run1	observe/STIM_015.jpg	99
1001.11	1.12	1120.1	observe	Run1	observe/STIM_015.jpg	99
1005.442	1.607	1606.7	observe	Run1	observe/STIM_016.jpg	99
1009.456	1.447	1446.8	observe	Run1	observe/STIM_016.jpg	100
1013.65	1.107	1107.4	observe	Run1	observe/STIM_016.jpg	100
1017.317	1.823	1822.7	observe	Run1	observe/STIM_016.jpg	99
1022.583	1.33	1329.6	observe	Run1	observe/STIM_017.jpg	99
1025.932	1.787	1786.9	observe	Run1	observe/STIM_017.jpg	99
1031.511	1.7	1700.1	observe	Run1	observe/STIM_017.jpg	99
1036.297	1.407	1406.7	observe	Run1	observe/STIM_017.jpg	100
1041.577	1.481	1480.8	observe	Run1	observe/STIM_018.jpg	100
1045.391	1.37	1369.5	observe	Run1	observe/STIM_018.jpg	99
1048.842	1.306	1306.1	observe	Run1	observe/STIM_018.jpg	99
1052.673	0.979	978.7	observe	Run1	observe/STIM_018.jpg	100
1056.1	1.093	1092.8	observe	Run1	observe/STIM_019.jpg	99
1060.724	1.109	1108.9	observe	Run1	observe/STIM_019.jpg	100
1064.86	1.571	1570.7	observe	Run1	observe/STIM_019.jpg	99
1069.433	1.485	1484.6	observe	Run1	observe/STIM_019.jpg	99
1074.424	3.258	3258.2	regulate	Run2	regulate/STIM_000.jpg	99
1081.462	1.673	1672.6	regulate	Run2	regulate/STIM_000.jpg	99
1086.963	3.043	3043.4	regulate	Run2	regulate/STIM_000.jpg	99
1092.762	1.426	1426.1	regulate	Run2	regulate/STIM_000.jpg	100
1098.077	2.134	2133.5	regulate	Run2	regulate/STIM_001.jpg	99
1102.243	2.721	2721.3	regulate	Run2	regulate/STIM_001.jpg	99
1107.417	1.681	1681.1	regulate	Run2	regulate/STIM_001.jpg	100
1112.814	2.89	2890.1	regulate	Run2	regulate/STIM_001.jpg	99
1118.971	1.826	1825.9	regulate	Run2	regulate/STIM_002.jpg	99
1123.834	2.606	2606.0	regulate	Run2	regulate/STIM_002.jpg	99
1129.229	2.92	2920.0	regulate	Run2	regulate/STIM_002.jpg	99
1136.146	2.786	2786.4	regulate	Run2	regulate/STIM_002.jpg	99
1141.307	2.836	2836.0	regulate	Run2	regulate/STIM_003.jpg	99
1146.27	3.119	3118.9	regulate	Run2	regulate/STIM_003.jpg	99
1151.562	2.574	2574.4	regulate	Run2	regulate/STIM_003.jpg	100
1157.062	1.541	1540.9	regulate	Run2	regulate/STIM_003.jpg	100
1161.391	2.497	2497.1	regulate	Run2	regulate/STIM_004.jpg	100
1166.133	2.963	2962.6	regulate	Run2	regulate/STIM_004.jpg	99
1172.059	1.457	1457.3	regulate	Run2	regulate/STIM_004.jpg	99
1176.539	2.046	2045.6	regulate	Run2	regulate/STIM_004.jpg	100
1182.216	3.161	3160.7	regulate	Run2	regulate/STIM_005.jpg	99
1187.531	1.969	1969.2	regulate	Run2	regulate/STIM_005.jpg	100
1193.278	1.656	1656.5	regulate	Run2	regulate/STIM_005.jpg	100
1197.492	2.649	2649.1	regulate	Run2	regulate/STIM_005.jpg	99
1203.325	1.733	1732.6	regulate	Run2	regulate/STIM_006.jpg	99
1208.168	3.331	3330.9	regulate	Run2	regulate/STIM_006.jpg	100
1214.932	2.325	2325.4	regulate	Run2	regulate/STIM_006.jpg	100
1220.761	1.997	1996.6	regulate	Run2	regulate/STIM_006.jpg	99
1225.975	1.825	1825.4	regulate	Run2	regulate/STIM_007.jpg	100
1229.866	3.38	3380.1	regulate	Run2	regulate/STIM_007.jpg	99
1236.17	3.07	3069.5	regulate	Run2	regulate/STIM_007.jpg	100
1242.229	2.336	2335.6	regulate	Run2	regulate/STIM_007.jpg	100
1246.737	1.847	1846.9	regulate	Run2	regulate/STIM_008.jpg	100
1251.259	1.989	1989.2	regulate	Run2	regulate/STIM_008.jpg	100
1256.122	2.104	2104.3	regulate	Run2	regulate/STIM_008.jpg	100
1260.429	1.644	1643.5	regulate	Run2	regulate/STIM_008.jpg	100
1265.228	1.591	1590.7	regulate	Run2	regulate/STIM_009.jpg	100
1270.382	2.753	2752.9	regulate	Run2	regulate/STIM_009.jpg	100
1275.878	2.066	2066.3	regulate	Run2	regulate/STIM_009.jpg	100
1281.472	1.837	1837.1	regulate	Run2	regulate/STIM_009.jpg	99
1287.162	2.224	2223.8	regulate	Run2	regulate/STIM_010.jpg	99
1292.384	2.248	2248.5	regulate	Run2	regulate/STIM_010.jpg	99
1297.636	2.608	2607.8	regulate	Run2	regulate/STIM_010.jpg	100
1303.601	1.852	1852.5	regulate	Run2	regulate/STIM_010.jpg	100
1308.153	3.12	3119.6	regulate	Run2	regulate/STIM_011.jpg	100
1314.14	1.723	1722.9	regulate	Run2	regulate/STIM_011.jpg	100
1318.539	2.311	2310.6	regulate	Run2	regulate/STIM_011.jpg	100
1323.581	1.609	1609.2	regulate	Run2	regulate/STIM_011.jpg	100
1327.286	3.207	3206.9	regulate	Run2	regulate/STIM_012.jpg	100
1334.101	2.521	2521.4	regulate	Run2	regulate/STIM_012.jpg	99
1339.355	2.081	2080.8	regulate	Run2	regulate/STIM_012.jpg	100
1343.804	2.717	2716.6	regulate	Run2	regulate/STIM_012.jpg	99
1349.749	3.327	3326.9	regulate	Run2	regulate/STIM_013.jpg	100
1355.797	3.153	3153.2	regulate	Run2	regulate/STIM_013.jpg	100
1361.864	2.011	2011.2	regulate	Run2	regulate/STIM_013.jpg	100
1367.365	1.716	1716.3	regulate	Run2	regulate/STIM_013.jpg	99
1372.428	2.702	2702.4	regulate	Run2	regulate/STIM_014.jpg	100
1378.556	1.814	1813.5	regulate	Run2	regulate/STIM_014.jpg	99
1383.132	2.911	2910.8	regulate	Run2	regulate/STIM_014.jpg	100
1388.491	2.708	2707.8	regulate	Run2	regulate/STIM_014.jpg	100
1393.346	2.704	2704.4	regulate	Run2	regulate/STIM_015.jpg	100
1398.975	3.23	3230.2	regulate	Run2	regulate/STIM_015.jpg	99
1404.703	2.127	2126.7	regulate	Run2	regulate/STIM_015.jpg	99
1410.464	1.989	1989.0	regulate	Run2	regulate/STIM_015.jpg	100
1415.65	2.205	2205.2	regulate	Run2	regulate/STIM_016.jpg	99
1421.34	1.816	1815.8	regulate	Run2	regulate/STIM_016.jpg	100
1426.438	3.018	3017.7	regulate	Run2	regulate/STIM_016.jpg	100
1432.009	1.772	1772.4	regulate	Run2	regulate/STIM_016.jpg	100
1435.863	2.047	2047.3	regulate	Run2	regulate/STIM_017.jpg	100
1441.13	2.457	2457.1	regulate	Run2	regulate/STIM_017.jpg	99
1446.728	2.774	2773.7	regulate	Run2	regulate/STIM_017.jpg	100
1452.021	1.393	1392.9	regulate	Run2	regulate/STIM_017.jpg	99
1456.085	2.617	2616.8	regulate	Run2	regulate/STIM_018.jpg	100
1460.761	2.149	2148.8	regulate	Run2	regulate/STIM_018.jpg	100
1466.894	2.724	2723.9	regulate	Run2	regulate/STIM_018.jpg	99
1473.36	1.891	1890.8	regulate	Run2	regulate/STIM_018.jpg	99
1479.046	3.432	3431.7	regulate	Run2	regulate/STIM_019.jpg	99
1484.971	1.945	1945.0	regulate	Run2	regulate/STIM_019.jpg	99
1489.182	1.387	1387.1	regulate	Run2	regulate/STIM_019.jpg	100
1492.874	2.337	2336.7	regulate	Run2	regulate/STIM_019.jpg	99
1497.563	3.418	3418.4	regulate	Run2	regulate/STIM_020.jpg	99
1503.889	1.873	1872.7	regulate	Run2	regulate/STIM_020.jpg	100
1507.836	3.157	3157.2	regulate	Run2	regulate/STIM_020.jpg	100
1513.752	1.405	1405.2	regulate	Run2	regulate/STIM_020.jpg	100
1517.419	3.412	3412.4	regulate	Run2	regulate/STIM_021.jpg	99
1523.683	2.127	2127.3	regulate	Run2	regulate/STIM_021.jpg	99
1528.674	3.077	3076.6	regulate	Run2	regulate/STIM_021.jpg	100
1534.909	1.444	1443.7	regulate	Run2	regulate/STIM_021.jpg	99
1540.105	2.343	2343.0	regulate	Run2	regulate/STIM_022.jpg	99
1545.641	1.464	1463.6	regulate	Run2	regulate/STIM_022.jpg	99
1550.907	2.013	2013.3	regulate	Run2	regulate/STIM_022.jpg	100
1555.535	2.136	2135.8	regulate	Run2	regulate/STIM_022.jpg	100
1561.264	2.467	2466.6	regulate	Run2	regulate/STIM_023.jpg	99
1567.379	1.572	1572.0	regulate	Run2	regulate/STIM_023.jpg	99
1571.446	2.952	2951.8	regulate	Run2	regulate/STIM_023.jpg	99
1576.744	2.143	2142.9	regulate	Run2	regulate/STIM_023.jpg	99
1582.155	1.724	1723.6	regulate	Run2	regulate/STIM_024.jpg	100
1586.513	2.074	2073.7	regulate	Run2	regulate/STIM_024.jpg	100
1590.775	2.615	2614.6	regulate	Run2	regulate/STIM_024.jpg	99
1596.997	2.064	2063.9	regulate	Run2	regulate/STIM_024.jpg	99
1601.785	2.61	2610.3	regulate	Run2	regulate/STIM_025.jpg	99
1607.914	2.99	2990.5	regulate	Run2	regulate/STIM_025.jpg	100
1614.757	2.435	2434.6	regulate	Run2	regulate/STIM_025.jpg	100
1619.916	2.203	2203.2	regulate	Run2	regulate/STIM_025.jpg	100
1625.694	3.464	3464.0	regulate	Run2	regulate/STIM_026.jpg	100
1632.616	1.97	1970.4	regulate	Run2	regulate/STIM_026.jpg	99
1637.335	1.44	1440.0	regulate	Run2	regulate/STIM_026.jpg	99
1641.06	2.858	2858.5	regulate	Run2	regulate/STIM_026.jpg	100
1647.11	2.778	2777.8	regulate	Run2	regulate/STIM_027.jpg	100
1653.549	1.867	1866.8	regulate	Run2	regulate/STIM_027.jpg	99
1657.853	2.707	2706.7	regulate	Run2	regulate/STIM_027.jpg	100
1663.123	2.826	2825.6	regulate	Run2	regulate/STIM_027.jpg	99
1669.078	2.816	2815.8	regulate	Run2	regulate/STIM_028.jpg	100
1675.238	2.28	2279.8	regulate	Run2	regulate/STIM_028.jpg	100
1680.75	1.44	1439.5	regulate	Run2	regulate/STIM_028.jpg	100
1686.041	2.039	2039.2	regulate	Run2	regulate/STIM_028.jpg	100
1691.252	3.506	3506.3	regulate	Run2	regulate/STIM_029.jpg	99
1697.466	1.779	1779.1	regulate	Run2	regulate/STIM_029.jpg	100
1702.059	3.044	3044.5	regulate	Run2	regulate/STIM_029.jpg	100
1708.268	2.693	2693.1	regulate	Run2	regulate/STIM_029.jpg	100
1714.562	1.635	1635.3	observe	Run2	observe/STIM_000.jpg	100
1720.106	1.236	1235.6	observe	Run2	observe/STIM_000.jpg	100
1724.258	1.457	1456.9	observe	Run2	observe/STIM_000.jpg	99
1728.655	1.606	1606.0	observe	Run2	observe/STIM_000.jpg	100
1733.622	1.071	1071.2	observe	Run2	observe/STIM_001.jpg	99
1738.497	1.592	1591.6	observe	Run2	observe/STIM_001.jpg	99
1743.653	1.096	1096.1	observe	Run2	observe/STIM_001.jpg	100
1748.394	1.029	1028.8	observe	Run2	observe/STIM_001.jpg	99
1752.608	1.011	1010.9	observe	Run2	observe/STIM_002.jpg	99
1757.61	1.442	1441.9	observe	Run2	observe/STIM_002.jpg	99
1761.356	1.412	1411.5	observe	Run2	observe/STIM_002.jpg	99
1766.4	1.691	1691.2	observe	Run2	observe/STIM_002.jpg	100
1770.125	1.122	1121.7	observe	Run2	observe/STIM_003.jpg	100
1773.415	1.59	1590.0	observe	Run2	observe/STIM_003.jpg	100
1777.937	1.901	1901.2	observe	Run2	observe/STIM_003.jpg	100
1782.486	1.64	1640.2	observe	Run2	observe/STIM_003.jpg	99
1786.351	1.313	1313.1	observe	Run2	observe/STIM_004.jpg	99
1791.394	1.137	1137.2	observe	Run2	observe/STIM_004.jpg	99
1795.947	1.269	1268.6	observe	Run2	observe/STIM_004.jpg	99
1799.512	1.126	1126.0	observe	Run2	observe/STIM_004.jpg	99
1803.684	1.067	1067.3	observe	Run2	observe/STIM_005.jpg	100
1808.566	1.754	1754.0	observe	Run2	observe/STIM_005.jpg	100
1813.012	1.722	1722.0	observe	Run2	observe/STIM_005.jpg	100
1817.229	1.484	1484.5	observe	Run2	observe/STIM_005.jpg	99
1822.264	1.325	1325.4	observe	Run2	observe/STIM_006.jpg	99
1826.041	1.176	1175.5	observe	Run2	observe/STIM_006.jpg	100
1829.527	1.351	1350.7	observe	Run2	observe/STIM_006.jpg	100
1833.06	1.105	1104.9	observe	Run2	observe/STIM_006.jpg	100
1837.143	1.128	1127.5	observe	Run2	observe/STIM_007.jpg	100
1841.802	1.86	1860.4	observe	Run2	observe/STIM_007.jpg	99
1845.871	1.524	1524.3	observe	Run2	observe/STIM_007.jpg	100
1850.851	1.446	1445.7	observe	Run2	observe/STIM_007.jpg	100
1855.912	0.976	976.5	observe	Run2	observe/STIM_008.jpg	100
1859.069	1.214	1214.3	observe	Run2	observe/STIM_008.jpg	99
1862.638	1.529	1529.0	observe	Run2	observe/STIM_008.jpg	100
1866.883	1.598	1598.1	observe	Run2	observe/STIM_008.jpg	100
1870.845	1.838	1837.7	observe	Run2	observe/STIM_009.jpg	100
1874.972	1.657	1656.8	observe	Run2	observe/STIM_009.jpg	99
1879.245	1.256	1255.8	observe	Run2	observe/STIM_009.jpg	100
1882.633	1.619	1619.3	observe	Run2	observe/STIM_009.jpg	100
1887.999	1.132	1131.5	observe	Run2	observe/STIM_010.jpg	100
1891.925	1.094	1093.8	observe	Run2	observe/STIM_010.jpg	100
1896.928	1.109	1108.9	observe	Run2	observe/STIM_010.jpg	100
1900.593	1.311	1310.7	observe	Run2	observe/STIM_010.jpg	99
1905.451	0.994	994.1	observe	Run2	observe/STIM_011.jpg	99
1909.064	1.588	1588.5	observe	Run2	observe/STIM_011.jpg	100
1913.739	1.569	1568.9	observe	Run2	observe/STIM_011.jpg	99
1919.224	1.929	1929.0	observe	Run2	observe/STIM_011.jpg	99
1923.887	1.244	1244.1	observe	Run2	observe/STIM_012.jpg	99
1929.116	1.514	1513.7	observe	Run2	observe/STIM_012.jpg	99
1933.924	1.264	1264.1	observe	Run2	observe/STIM_012.jpg	99
1938.809	1.001	1000.6	observe	Run2	observe/STIM_012.jpg	100
1942.209	1.126	1126.4	observe	Run2	observe/STIM_013.jpg	100
1946.84	1.701	1700.6	observe	Run2	observe/STIM_013.jpg	100
1950.677	1.26	1260.0	observe	Run2	observe/STIM_013.jpg	100
1954.111	1.389	1389.2	observe	Run2	observe/STIM_013.jpg	100
1957.701	1.806	1805.6	observe	Run2	observe/STIM_014.jpg	99
1961.669	0.982	982.4	observe	Run2	observe/STIM_014.jpg	99
1966.088	1.308	1308.5	observe	Run2	observe/STIM_014.jpg	100
1969.689	1.249	1248.9	observe	Run2	observe/STIM_014.jpg	99
1974.021	1.285	1284.8	observe	Run2	observe/STIM_015.jpg	100
1979.174	1.818	1818.2	observe	Run2	observe/STIM_015.jpg	100
1983.412	1.278	1278.3	observe	Run2	observe/STIM_015.jpg	99
1988.155	1.805	1805.4	observe	Run2	observe/STIM_015.jpg	99
1993.135	1.236	1235.8	observe	Run2	observe/STIM_016.jpg	100
1997.844	1.527	1526.9	observe	Run2	observe/STIM_016.jpg	99
2002.891	1.371	1370.6	observe	Run2	observe/STIM_016.jpg	99
2008.185	1.558	1557.6	observe	Run2	observe/STIM_016.jpg	100
2012.917	1.396	1396.1	observe	Run2	observe/STIM_017.jpg	99
2018.308	1.748	1747.6	observe	Run2	observe/STIM_017.jpg	100
2022.405	1.066	1065.9	observe	Run2	observe/STIM_017.jpg	100
2026.856	1.593	1592.8	observe	Run2	observe/STIM_017.jpg	100
2031.57	1.833	1833.4	observe	Run2	observe/STIM_018.jpg	99
2036.026	1.606	1606.4	observe	Run2	observe/STIM_018.jpg	99
2040.054	1.377	1377.1	observe	Run2	observe/STIM_018.jpg	100
2044.39	1.68	1680.5	observe	Run2	observe/STIM_018.jpg	100
2049.557	1.226	1226.4	observe	Run2	observe/STIM_019.jpg	99
2052.786	1.714	1713.5	observe	Run2	observe/STIM_019.jpg	100
2058.171	1.471	1471.0	observe	Run2	observe/STIM_019.jpg	100
2063.574	1.452	1451.7	observe	Run2	observe/STIM_019.jpg	99
2068.56	2.418	2417.6	regulate	Run3	regulate/STIM_000.jpg	99
2073.252	2.613	2613.2	regulate	Run3	regulate/STIM_000.jpg	100
2079.686	1.511	1511.2	regulate	Run3	regulate/STIM_000.jpg	99
2083.254	1.317	1317.4	regulate	Run3	regulate/STIM_000.jpg	100
2087.43	2.03	2029.8	regulate	Run3	regulate/STIM_001.jpg	99
2091.64	1.687	1686.8	regulate	Run3	regulate/STIM_001.jpg	100
2096.071	2.163	2162.6	regulate	Run3	regulate/STIM_001.jpg	100
2101.301	1.513	1512.7	regulate	Run3	regulate/STIM_001.jpg	99
2105.709	2.522	2521.5	regulate	Run3	regulate/STIM_002.jpg	100
2111.354	1.676	1675.9	regulate	Run3	regulate/STIM_002.jpg	100
2115.73	2.248	2247.5	regulate	Run3	regulate/STIM_002.jpg	100
2121.212	1.93	1929.6	regulate	Run3	regulate/STIM_002.jpg	99
2126.799	2.733	2732.6	regulate	Run3	regulate/STIM_003.jpg	100
2132.921	1.838	1837.5	regulate	Run3	regulate/STIM_003.jpg	100
2137.287	2.614	2613.9	regulate	Run3	regulate/STIM_003.jpg	99
2143.218	2.626	2626.0	regulate	Run3	regulate/STIM_003.jpg	100
2148.11	1.801	1801.1	regulate	Run3	regulate/STIM_004.jpg	100
2153.816	2.65	2649.9	regulate	Run3	regulate/STIM_004.jpg	99
2159.853	1.361	1360.7	regulate	Run3	regulate/STIM_004.jpg	99
2164.018	2.409	2409.4	regulate	Run3	regulate/STIM_004.jpg	99
2169.722	1.966	1966.5	regulate	Run3	regulate/STIM_005.jpg	100
2175.429	2.245	2245.2	regulate	Run3	regulate/STIM_005.jpg	99
2181.648	2.236	2235.5	regulate	Run3	regulate/STIM_005.jpg	100
2187.305	1.358	1358.5	regulate	Run3	regulate/STIM_005.jpg	100
2192.315	1.509	1508.7	regulate	Run3	regulate/STIM_006.jpg	99
2196.107	1.975	1975.3	regulate	Run3	regulate/STIM_006.jpg	99
2200.386	2.682	2682.3	regulate	Run3	regulate/STIM_006.jpg	100
2205.563	1.835	1835.2	regulate	Run3	regulate/STIM_006.jpg	100
2210.554	2.926	2925.7	regulate	Run3	regulate/STIM_007.jpg	99
2217.293	2.577	2577.2	regulate	Run3	regulate/STIM_007.jpg	100
2223.243	1.939	1939.3	regulate	Run3	regulate/STIM_007.jpg	99
2229.023	2.663	2663.4	regulate	Run3	regulate/STIM_007.jpg	100
2234.02	1.758	1758.4	regulate	Run3	regulate/STIM_008.jpg	99
2239.285	1.497	1496.7	regulate	Run3	regulate/STIM_008.jpg	99
2244.147	2.575	2574.7	regulate	Run3	regulate/STIM_008.jpg	99
2248.95	2.25	2249.6	regulate	Run3	regulate/STIM_008.jpg	99
2254.385	2.581	2580.8	regulate	Run3	regulate/STIM_009.jpg	99
2260.516	1.381	1381.3	regulate	Run3	regulate/STIM_009.jpg	100
2264.12	2.706	2705.5	regulate	Run3	regulate/STIM_009.jpg	99
2269.454	1.76	1759.7	regulate	Run3	regulate/STIM_009.jpg	99
2274.038	1.808	1808.5	regulate	Run3	regulate/STIM_010.jpg	100
2277.869	1.747	1746.8	regulate	Run3	regulate/STIM_010.jpg	99
2282.447	1.905	1905.0	regulate	Run3	regulate/STIM_010.jpg	99
2287.294	2.64	2640.0	regulate	Run3	regulate/STIM_010.jpg	100
2293.055	1.925	1925.4	regulate	Run3	regulate/STIM_011.jpg	99
2298.649	1.506	1506.5	regulate	Run3	regulate/STIM_011.jpg	99
2303.209	2.349	2349.1	regulate	Run3	regulate/STIM_011.jpg	100
2308.301	2.459	2458.9	regulate	Run3	regulate/STIM_011.jpg	100
2312.815	2.332	2332.2	regulate	Run3	regulate/STIM_012.jpg	99
2318.723	2.74	2740.3	regulate	Run3	regulate/STIM_012.jpg	100
2324.257	2.685	2685.1	regulate	Run3	regulate/STIM_012.jpg	100
2329.355	1.295	1294.6	regulate	Run3	regulate/STIM_012.jpg	99
2333.751	2.852	2851.5	regulate	Run3	regulate/STIM_013.jpg	100
2340.265	2.507	2507.1	regulate	Run3	regulate/STIM_013.jpg	99
2346.513	1.688	1687.7	regulate	Run3	regulate/STIM_013.jpg	100
2351.238	2.306	2306.3	regulate	Run3	regulate/STIM_013.jpg	100
2357.117	2.021	2021.2	regulate	Run3	regulate/STIM_014.jpg	100
2362.274	2.368	2368.4	regulate	Run3	regulate/STIM_014.jpg	99
2368.033	2.564	2564.3	regulate	Run3	regulate/STIM_014.jpg	100
2373.578	2.475	2474.9	regulate	Run3	regulate/STIM_014.jpg	100
2378.971	1.93	1930.2	regulate	Run3	regulate/STIM_015.jpg	99
2384.098	1.972	1972.5	regulate	Run3	regulate/STIM_015.jpg	100
2389.132	2.579	2579.0	regulate	Run3	regulate/STIM_015.jpg	100
2393.943	2.198	2198.5	regulate	Run3	regulate/STIM_015.jpg	100
2400.048	1.421	1421.0	regulate	Run3	regulate/STIM_016.jpg	100
2404.033	1.568	1567.9	regulate	Run3	regulate/STIM_016.jpg	99
2408.588	2.424	2424.3	regulate	Run3	regulate/STIM_016.jpg	99
2413.338	2.084	2083.5	regulate	Run3	regulate/STIM_016.jpg	100
2419.375	1.786	1785.5	regulate	Run3	regulate/STIM_017.jpg	99
2423.492	2.611	2610.7	regulate	Run3	regulate/STIM_017.jpg	100
2428.598	2.337	2337.2	regulate	Run3	regulate/STIM_017.jpg	100
2433.277	2.308	2308.0	regulate	Run3	regulate/STIM_017.jpg	100
2439.188	1.591	1591.2	regulate	Run3	regulate/STIM_018.jpg	100
2444.606	2.4	2400.1	regulate	Run3	regulate/STIM_018.jpg	99
2449.332	2.279	2278.6	regulate	Run3	regulate/STIM_018.jpg	100
2454.08	1.733	1733.3	regulate	Run3	regulate/STIM_018.jpg	100
2459.576	1.8	1800.5	regulate	Run3	regulate/STIM_019.jpg	99
2464.606	2.034	2033.6	regulate	Run3	regulate/STIM_019.jpg	100
2469.66	2.055	2054.8	regulate	Run3	regulate/STIM_019.jpg	99
2474.244	2.472	2472.0	regulate	Run3	regulate/STIM_019.jpg	100
2480.699	2.022	2021.7	regulate	Run3	regulate/STIM_020.jpg	100
2486.483	1.326	1325.9	regulate	Run3	regulate/STIM_020.jpg	100
2490.564	1.894	1893.8	regulate	Run3	regulate/STIM_020.jpg	100
2495.397	1.95	1950.2	regulate	Run3	regulate/STIM_020.jpg	99
2499.358	2.512	2511.7	regulate	Run3	regulate/STIM_021.jpg	99
2505.487	2.052	2051.6	regulate	Run3	regulate/STIM_021.jpg	99
2510.692	2.178	2177.5	regulate	Run3	regulate/STIM_021.jpg	100
2515.32	1.922	1922.1	regulate	Run3	regulate/STIM_021.jpg	99
2520.029	1.828	1827.5	regulate	Run3	regulate/STIM_022.jpg	99
2524.975	1.411	1411.1	regulate	Run3	regulate/STIM_022.jpg	99
2528.516	2.063	2062.9	regulate	Run3	regulate/STIM_022.jpg	99
2534.103	1.713	1713.3	regulate	Run3	regulate/STIM_022.jpg	99
2538.534	1.721	1720.6	regulate	Run3	regulate/STIM_023.jpg	100
2542.266	2.632	2632.3	regulate	Run3	regulate/STIM_023.jpg	99
2548.443	1.861	1861.2	regulate	Run3	regulate/STIM_023.jpg	100
2552.477	2.314	2313.5	regulate	Run3	regulate/STIM_023.jpg	100
2557.985	1.68	1679.7	regulate	Run3	regulate/STIM_024.jpg	100
2563.512	2.13	2130.1	regulate	Run3	regulate/STIM_024.jpg	100
2567.735	1.617	1617.4	regulate	Run3	regulate/STIM_024.jpg	99
2573.026	2.23	2229.5	regulate	Run3	regulate/STIM_024.jpg	100
2578.583	2.39	2389.9	regulate	Run3	regulate/STIM_025.jpg	99
2584.202	1.963	1963.4	regulate	Run3	regulate/STIM_025.jpg	99
2589.906	2.043	2043.4	regulate	Run3	regulate/STIM_025.jpg	99
2594.213	2.557	2557.0	regulate	Run3	regulate/STIM_025.jpg	100
2600.74	1.787	1786.9	regulate	Run3	regulate/STIM_026.jpg	99
2606.369	2.664	2663.5	regulate	Run3	regulate/STIM_026.jpg	100
2612.08	2.333	2333.0	regulate	Run3	regulate/STIM_026.jpg	99
2617.896	1.572	1572.1	regulate	Run3	regulate/STIM_026.jpg	99
2621.757	2.194	2194.1	regulate	Run3	regulate/STIM_027.jpg	100
2627.379	2.217	2216.7	regulate	Run3	regulate/STIM_027.jpg	100
2632.086	2.697	2697.0	regulate	Run3	regulate/STIM_027.jpg	99
2636.835	2.549	2549.1	regulate	Run3	regulate/STIM_027.jpg	99
2641.815	1.95	1949.6	regulate	Run3	regulate/STIM_028.jpg	99
2646.292	2.022	2021.8	regulate	Run3	regulate/STIM_028.jpg	100
2651.398	1.521	1521.2	regulate	Run3	regulate/STIM_028.jpg	99
2655.117	1.912	1911.5	regulate	Run3	regulate/STIM_028.jpg	100
2661.011	2.67	2670.1	regulate	Run3	regulate/STIM_029.jpg	99
2666.721	1.853	1852.7	regulate	Run3	regulate/STIM_029.jpg	100
2671.121	2.629	2629.4	regulate	Run3	regulate/STIM_029.jpg	99
2677.503	1.734	1733.9	regulate	Run3	regulate/STIM_029.jpg	100
2682.409	1.234	1234.5	observe	Run3	observe/STIM_000.jpg	99
2686.229	1.159	1159.1	observe	Run3	observe/STIM_000.jpg	99
2691.293	0.972	971.9	observe	Run3	observe/STIM_000.jpg	99
2694.282	1.422	1421.8	observe	Run3	observe/STIM_000.jpg	100
2698.434	1.553	1553.0	observe	Run3	observe/STIM_001.jpg	99
2702.63	1.241	1240.8	observe	Run3	observe/STIM_001.jpg	100
2707.478	1.071	1070.8	observe	Run3	observe/STIM_001.jpg	99
2711.679	1.628	1627.6	observe	Run3	observe/STIM_001.jpg	99
2715.9	1.152	1152.5	observe	Run3	observe/STIM_002.jpg	99
2720.146	1.529	1528.8	observe	Run3	observe/STIM_002.jpg	100
2724.489	1.286	1286.1	observe	Run3	observe/STIM_002.jpg	100
2729.43	1.626	1625.8	observe	Run3	observe/STIM_002.jpg	99
2733.97	1.754	1754.0	observe	Run3	observe/STIM_003.jpg	100
2739.138	1.858	1857.9	observe	Run3	observe/STIM_003.jpg	99
2743.887	1.729	1729.2	observe	Run3	observe/STIM_003.jpg	100
2748.552	1.591	1590.7	observe	Run3	observe/STIM_003.jpg	100
2753.533	1.133	1133.3	observe	Run3	observe/STIM_004.jpg	99
2757.675	1.682	1682.3	observe	Run3	observe/STIM_004.jpg	99
2762.305	1.831	1830.9	observe	Run3	observe/STIM_004.jpg	99
2767.676	1.644	1644.2	observe	Run3	observe/STIM_004.jpg	99
2771.358	1.502	1502.0	observe	Run3	observe/STIM_005.jpg	100
2774.9	1.777	1776.9	observe	Run3	observe/STIM_005.jpg	100
2780.42	1.128	1128.0	observe	Run3	observe/STIM_005.jpg	100
2783.65	1.762	1762.4	observe	Run3	observe/STIM_005.jpg	100
2788.864	1.194	1194.5	observe	Run3	observe/STIM_006.jpg	99
2792.758	1.204	1204.1	observe	Run3	observe/STIM_006.jpg	99
2797.717	1.356	1356.0	observe	Run3	observe/STIM_006.jpg	99
2802.915	1.298	1298.0	observe	Run3	observe/STIM_006.jpg	99
2806.358	0.983	983.2	observe	Run3	observe/STIM_007.jpg	100
2811.318	1.16	1159.6	observe	Run3	observe/STIM_007.jpg	99
2814.49	1.857	1856.8	observe	Run3	observe/STIM_007.jpg	99
2820.168	1.703	1702.9	observe	Run3	observe/STIM_007.jpg	99
2824.889	1.562	1562.4	observe	Run3	observe/STIM_008.jpg	100
2829.029	1.071	1071.3	observe	Run3	observe/STIM_008.jpg	99
2832.259	1.618	1617.7	observe	Run3	observe/STIM_008.jpg	99
2837.48	1.072	1072.4	observe	Run3	observe/STIM_008.jpg	100
2841.69	1.838	1838.0	observe	Run3	observe/STIM_009.jpg	99
2847.18	1.141	1140.7	observe	Run3	observe/STIM_009.jpg	100
2852.079	1.57	1569.6	observe	Run3	observe/STIM_009.jpg	99
2856.662	1.516	1516.5	observe	Run3	observe/STIM_009.jpg	99
2860.229	1.262	1262.2	observe	Run3	observe/STIM_010.jpg	99
2864.303	0.977	976.7	observe	Run3	observe/STIM_010.jpg	99
2868.451	1.438	1438.0	observe	Run3	observe/STIM_010.jpg	100
2872.014	1.441	1440.7	observe	Run3	observe/STIM_010.jpg	99
2876.467	1.328	1328.5	observe	Run3	observe/STIM_011.jpg	99
2880.417	1.683	1682.8	observe	Run3	observe/STIM_011.jpg	99
2884.885	1.188	1188.3	observe	Run3	observe/STIM_011.jpg	99
2888.745	1.302	1302.3	observe	Run3	observe/STIM_011.jpg	100
2892.616	1.346	1345.9	observe	Run3	observe/STIM_012.jpg	100
2897.879	1.632	1632.2	observe	Run3	observe/STIM_012.jpg	100
2902.297	1.535	1535.4	observe	Run3	observe/STIM_012.jpg	100
2906.536	1.903	1903.4	observe	Run3	observe/STIM_012.jpg	100
2911.588	1.765	1764.8	observe	Run3	observe/STIM_013.jpg	99
2915.669	1.436	1436.5	observe	Run3	observe/STIM_013.jpg	99
2920.264	1.058	1057.8	observe	Run3	observe/STIM_013.jpg	100
2924.39	1.449	1448.8	observe	Run3	observe/STIM_013.jpg	100
2929.279	1.139	1138.7	observe	Run3	observe/STIM_014.jpg	100
2932.663	1.576	1576.4	observe	Run3	observe/STIM_014.jpg	100
2936.517	1.248	1247.9	observe	Run3	observe/STIM_014.jpg	100
2941.531	1.838	1837.8	observe	Run3	observe/STIM_014.jpg	99
2945.37	1.7	1699.7	observe	Run3	observe/STIM_015.jpg	100
2950.568	1.238	1238.0	observe	Run3	observe/STIM_015.jpg	100
2954.238	1.496	1496.4	observe	Run3	observe/STIM_015.jpg	99
2958.945	1.904	1903.9	observe	Run3	observe/STIM_015.jpg	100
2964.212	1.654	1654.0	observe	Run3	observe/STIM_016.jpg	99
2969.748	1.795	1795.2	observe	Run3	observe/STIM_016.jpg	99
2973.603	1.73	1729.6	observe	Run3	observe/STIM_016.jpg	100
2978.208	1.686	1686.4	observe	Run3	observe/STIM_016.jpg	99
2982.609	1.909	1909.4	observe	Run3	observe/STIM_017.jpg	100
2988.256	1.421	1421.1	observe	Run3	observe/STIM_017.jpg	99
2992.338	1.024	1024.5	observe	Run3	observe/STIM_017.jpg	99
2997.032	1.76	1759.9	observe	Run3	observe/STIM_017.jpg	100
3000.847	1.768	1767.9	observe	Run3	observe/STIM_018.jpg	100
3006.133	1.746	1745.8	observe	Run3	observe/STIM_018.jpg	100
3011.162	1.6	1600.5	observe	Run3	observe/STIM_018.jpg	99
3016.627	1.462	1462.3	observe	Run3	observe/STIM_018.jpg	99
3020.409	1.63	1630.3	observe	Run3	observe/STIM_019.jpg	99
3025.752	1.812	1812.3	observe	Run3	observe/STIM_019.jpg	99
3029.932	1.261	1261.4	observe	Run3	observe/STIM_019.jpg	99
3034.988	1.034	1034.0	observe	Run3	observe/STIM_019.jpg	100
