onset	duration	accuracy_binary	trial_type	learning_stage	stimulus
0.0	2.461	1	regulate	Run1	regulate/STIM_000.jpg
5.198	2.581	1	regulate	Run1	regulate/STIM_000.jpg
9.921	2.847	0	regulate	Run1	regulate/STIM_000.jpg
14.817	2.507	0	regulate	Run1	regulate/STIM_000.jpg
21.29	2.239	1	regulate	Run1	regulate/STIM_001.jpg
25.905	2.34	1	regulate	Run1	regulate/STIM_001.jpg
32.042	2.693	1	regulate	Run1	regulate/STIM_001.jpg
37.562	2.452	1	regulate	Run1	regulate/STIM_001.jpg
43.767	2.694	1	regulate	Run1	regulate/STIM_002.jpg
50.137	2.883	1	regulate	Run1	regulate/STIM_002.jpg
56.646	2.776	1	regulate	Run1	regulate/STIM_002.jpg
62.319	1.683	1	regulate	Run1	regulate/STIM_002.jpg
67.749	3.349	1	regulate	Run1	regulate/STIM_003.jpg
74.426	1.521	1	regulate	Run1	regulate/STIM_003.jpg
79.521	1.937	1	regulate	Run1	regulate/STIM_003.jpg
84.276	2.173	1	regulate	Run1	regulate/STIM_003.jpg
90.215	2.516	0	regulate	Run1	regulate/STIM_004.jpg
96.394	2.752	1	regulate	Run1	regulate/STIM_004.jpg
102.326	2.293	1	regulate	Run1	regulate/STIM_004.jpg
106.928	1.638	1	regulate	Run1	regulate/STIM_004.jpg
112.475	3.086	1	regulate	Run1	regulate/STIM_005.jpg
118.843	1.618	1	regulate	Run1	regulate/STIM_005.jpg
123.014	1.872	1	regulate	Run1	regulate/STIM_005.jpg
128.091	3.038	1	regulate	Run1	regulate/STIM_005.jpg
133.212	2.815	1	regulate	Run1	regulate/STIM_006.jpg
138.847	1.684	0	regulate	Run1	regulate/STIM_006.jpg
143.43	3.068	1	regulate	Run1	regulate/STIM_006.jpg
148.646	2.852	1	regulate	Run1	regulate/STIM_006.jpg
155.222	1.545	1	regulate	Run1	regulate/STIM_007.jpg
160.66	2.59	1	regulate	Run1	regulate/STIM_007.jpg
165.989	1.86	1	regulate	Run1	regulate/STIM_007.jpg
170.003	2.484	1	regulate	Run1	regulate/STIM_007.jpg
175.082	3.598	1	regulate	Run1	regulate/STIM_008.jpg
181.881	2.712	1	regulate	Run1	regulate/STIM_008.jpg
188.261	1.996	0	regulate	Run1	regulate/STIM_008.jpg
192.391	2.421	1	regulate	Run1	regulate/STIM_008.jpg
197.903	3.042	1	regulate	Run1	regulate/STIM_009.jpg
203.91	2.644	1	regulate	Run1	regulate/STIM_009.jpg
209.508	2.42	1	regulate	Run1	regulate/STIM_009.jpg
215.914	2.677	1	regulate	Run1	regulate/STIM_009.jpg
222.595	3.352	1	regulate	Run1	regulate/STIM_010.jpg
228.906	2.262	1	regulate	Run1	regulate/STIM_010.jpg
233.324	1.943	1	regulate	Run1	regulate/STIM_010.jpg
237.631	2.393	0	regulate	Run1	regulate/STIM_010.jpg
242.956	3.494	0	regulate	Run1	regulate/STIM_011.jpg
249.137	2.383	1	regulate	Run1	regulate/STIM_011.jpg
255.5	2.893	1	regulate	Run1	regulate/STIM_011.jpg
262.315	1.283	1	regulate	Run1	regulate/STIM_011.jpg
267.196	2.166	0	regulate	Run1	regulate/STIM_012.jpg
272.64	2.318	1	regulate	Run1	regulate/STIM_012.jpg
278.027	3.07	1	regulate	Run1	regulate/STIM_012.jpg
283.671	2.031	1	regulate	Run1	regulate/STIM_012.jpg
288.807	2.996	0	regulate	Run1	regulate/STIM_013.jpg
294.218	2.508	1	regulate	Run1	regulate/STIM_013.jpg
298.921	2.711	1	regulate	Run1	regulate/STIM_013.jpg
304.961	1.645	1	regulate	Run1	regulate/STIM_013.jpg
309.269	2.07	1	regulate	Run1	regulate/STIM_014.jpg
314.933	2.734	1	regulate	Run1	regulate/STIM_014.jpg
319.935	2.367	1	regulate	Run1	regulate/STIM_014.jpg
324.93	1.44	1	regulate	Run1	regulate/STIM_014.jpg
329.474	3.352	1	regulate	Run1	regulate/STIM_015.jpg
335.699	2.482	1	regulate	Run1	regulate/STIM_015.jpg
340.118	2.003	1	regulate	Run1	regulate/STIM_015.jpg
344.199	1.703	1	regulate	Run1	regulate/STIM_015.jpg
349.802	3.049	1	regulate	Run1	regulate/STIM_016.jpg
356.755	2.161	0	regulate	Run1	regulate/STIM_016.jpg
362.231	1.81	0	regulate	Run1	regulate/STIM_016.jpg
366.562	1.785	0	regulate	Run1	regulate/STIM_016.jpg
371.771	2.489	1	regulate	Run1	regulate/STIM_017.jpg
377.987	2.988	1	regulate	Run1	regulate/STIM_017.jpg
383.015	3.093	1	regulate	Run1	regulate/STIM_017.jpg
389.507	2.436	1	regulate	Run1	regulate/STIM_017.jpg
395.171	1.888	1	regulate	Run1	regulate/STIM_018.jpg
400.36	3.359	1	regulate	Run1	regulate/STIM_018.jpg
406.998	2.548	0	regulate	Run1	regulate/STIM_018.jpg
412.225	2.123	1	regulate	Run1	regulate/STIM_018.jpg
418.035	1.812	1	regulate	Run1	regulate/STIM_019.jpg
422.717	2.453	1	regulate	Run1	regulate/STIM_019.jpg
428.118	1.494	1	regulate	Run1	regulate/STIM_019.jpg
432.033	2.114	0	regulate	Run1	regulate/STIM_019.jpg
436.163	2.516	0	regulate	Run1	regulate/STIM_020.jpg
440.834	3.165	0	regulate	Run1	regulate/STIM_020.jpg
446.175	2.878	0	regulate	Run1	regulate/STIM_020.jpg
451.038	1.425	1	regulate	Run1	regulate/STIM_020.jpg
455.808	1.967	1	regulate	Run1	regulate/STIM_021.jpg
460.393	2.726	1	regulate	Run1	regulate/STIM_021.jpg
466.325	2.01	1	regulate	Run1	regulate/STIM_021.jpg
470.574	2.747	1	regulate	Run1	regulate/STIM_021.jpg
475.585	3.48	1	regulate	Run1	regulate/STIM_022.jpg
481.85	2.821	1	regulate	Run1	regulate/STIM_022.jpg
488.386	2.863	0	regulate	Run1	regulate/STIM_022.jpg
494.715	2.088	1	regulate	Run1	regulate/STIM_022.jpg
499.171	2.915	1	regulate	Run1	regulate/STIM_023.jpg
505.345	2.974	1	regulate	Run1	regulate/STIM_023.jpg
511.781	2.327	0	regulate	Run1	regulate/STIM_023.jpg
517.834	1.698	1	regulate	Run1	regulate/STIM_023.jpg
522.218	2.583	1	regulate	Run1	regulate/STIM_024.jpg
527.48	2.46	1	regulate	Run1	regulate/STIM_024.jpg
533.037	2.408	1	regulate	Run1	regulate/STIM_024.jpg
538.283	2.509	1	regulate	Run1	regulate/STIM_024.jpg
543.957	1.66	1	regulate	Run1	regulate/STIM_025.jpg
548.619	2.721	1	regulate	Run1	regulate/STIM_025.jpg
555.278	2.977	1	regulate	Run1	regulate/STIM_025.jpg
560.309	1.389	1	regulate	Run1	regulate/STIM_025.jpg
563.934	2.45	1	regulate	Run1	regulate/STIM_026.jpg
569.37	3.269	0	regulate	Run1	regulate/STIM_026.jpg
576.44	1.846	1	regulate	Run1	regulate/STIM_026.jpg
580.278	2.986	1	regulate	Run1	regulate/STIM_026.jpg
586.629	3.096	1	regulate	Run1	regulate/STIM_027.jpg
593.632	1.642	1	regulate	Run1	regulate/STIM_027.jpg
598.219	1.557	1	regulate	Run1	regulate/STIM_027.jpg
602.662	2.402	1	regulate	Run1	regulate/STIM_027.jpg
608.956	3.312	1	regulate	Run1	regulate/STIM_028.jpg
614.559	2.974	0	regulate	Run1	regulate/STIM_028.jpg
620.539	2.421	0	regulate	Run1	regulate/STIM_028.jpg
626.509	2.668	0	regulate	Run1	regulate/STIM_028.jpg
632.059	1.833	0	regulate	Run1	regulate/STIM_029.jpg
637.307	2.506	1	regulate	Run1	regulate/STIM_029.jpg
643.249	2.883	0	regulate	Run1	regulate/STIM_029.jpg
648.741	2.009	1	regulate	Run1	regulate/STIM_029.jpg
653.114	1.545	1	observe	Run1	observe/STIM_000.jpg
658.57	1.121	0	observe	Run1	observe/STIM_000.jpg
663.433	0.811	1	observe	Run1	observe/STIM_000.jpg
666.41	1.211	1	observe	Run1	observe/STIM_000.jpg
669.688	1.591	1	observe	Run1	observe/STIM_001.jpg
674.497	1.082	0	observe	Run1	observe/STIM_001.jpg
678.134	1.511	1	observe	Run1	observe/STIM_001.jpg
682.787	0.858	1	observe	Run1	observe/STIM_001.jpg
685.877	1.583	1	observe	Run1	observe/STIM_002.jpg
689.532	0.916	1	observe	Run1	observe/STIM_002.jpg
692.886	0.859	1	observe	Run1	observe/STIM_002.jpg
695.953	0.934	0	observe	Run1	observe/STIM_002.jpg
699.083	1.147	1	observe	Run1	observe/STIM_003.jpg
703.005	1.486	1	observe	Run1	observe/STIM_003.jpg
707.662	0.888	1	observe	Run1	observe/STIM_003.jpg
710.91	1.069	1	observe	Run1	observe/STIM_003.jpg
714.568	1.445	1	observe	Run1	observe/STIM_004.jpg
719.272	1.407	1	observe	Run1	observe/STIM_004.jpg
724.551	1.519	0	observe	Run1	observe/STIM_004.jpg
728.069	1.293	1	observe	Run1	observe/STIM_004.jpg
732.072	1.401	1	observe	Run1	observe/STIM_005.jpg
735.782	1.275	1	observe	Run1	observe/STIM_005.jpg
740.037	1.452	1	observe	Run1	observe/STIM_005.jpg
744.285	1.376	1	observe	Run1	observe/STIM_005.jpg
749.212	1.198	0	observe	Run1	observe/STIM_006.jpg
754.415	1.468	1	observe	Run1	observe/STIM_006.jpg
757.958	1.483	1	observe	Run1	observe/STIM_006.jpg
763.115	1.266	1	observe	Run1	observe/STIM_006.jpg
768.225	1.345	1	observe	Run1	observe/STIM_007.jpg
771.566	1.29	1	observe	Run1	observe/STIM_007.jpg
776.646	1.087	1	observe	Run1	observe/STIM_007.jpg
780.215	1.408	1	observe	Run1	observe/STIM_007.jpg
784.16	0.916	1	observe	Run1	observe/STIM_008.jpg
788.307	1.416	1	observe	Run1	observe/STIM_008.jpg
792.023	0.918	1	observe	Run1	observe/STIM_008.jpg
795.093	1.287	1	observe	Run1	observe/STIM_008.jpg
799.334	1.226	1	observe	Run1	observe/STIM_009.jpg
803.297	1.059	1	observe	Run1	observe/STIM_009.jpg
807.371	1.232	1	observe	Run1	observe/STIM_009.jpg
810.746	1.11	1	observe	Run1	observe/STIM_009.jpg
813.902	1.064	1	observe	Run1	observe/STIM_010.jpg
817.8	1.529	1	observe	Run1	observe/STIM_010.jpg
822.087	0.993	1	observe	Run1	observe/STIM_010.jpg
826.64	1.291	1	observe	Run1	observe/STIM_010.jpg
831.184	1.469	1	observe	Run1	observe/STIM_011.jpg
835.436	1.156	1	observe	Run1	observe/STIM_011.jpg
838.742	1.186	1	observe	Run1	observe/STIM_011.jpg
843.832	0.835	0	observe	Run1	observe/STIM_011.jpg
848.329	0.896	1	observe	Run1	observe/STIM_012.jpg
852.941	0.824	1	observe	Run1	observe/STIM_012.jpg
857.402	1.548	1	observe	Run1	observe/STIM_012.jpg
861.752	0.881	1	observe	Run1	observe/STIM_012.jpg
865.621	1.164	1	observe	Run1	observe/STIM_013.jpg
869.8	1.367	1	observe	Run1	observe/STIM_013.jpg
873.318	1.094	1	observe	Run1	observe/STIM_013.jpg
876.945	1.183	1	observe	Run1	observe/STIM_013.jpg
880.741	0.944	1	observe	Run1	observe/STIM_014.jpg
884.785	1.454	1	observe	Run1	observe/STIM_014.jpg
888.662	0.933	1	observe	Run1	observe/STIM_014.jpg
893.318	1.212	0	observe	Run1	observe/STIM_014.jpg
896.478	1.376	1	observe	Run1	observe/STIM_015.jpg
900.197	1.314	1	observe	Run1	observe/STIM_015.jpg
904.658	1.126	0	observe	Run1	observe/STIM_015.jpg
908.183	1.405	1	observe	Run1	observe/STIM_015.jpg
912.67	1.674	1	observe	Run1	observe/STIM_016.jpg
917.03	1.155	0	observe	Run1	observe/STIM_016.jpg
920.281	1.271	0	observe	Run1	observe/STIM_016.jpg
925.248	1.075	1	observe	Run1	observe/STIM_016.jpg
929.651	1.183	1	observe	Run1	observe/STIM_017.jpg
933.486	1.095	1	observe	Run1	observe/STIM_017.jpg
936.641	1.047	1	observe	Run1	observe/STIM_017.jpg
941.165	1.347	1	observe	Run1	observe/STIM_017.jpg
944.535	0.817	1	observe	Run1	observe/STIM_018.jpg
948.59	0.86	1	observe	Run1	observe/STIM_018.jpg
952.925	1.221	1	observe	Run1	observe/STIM_018.jpg
957.399	1.116	1	observe	Run1	observe/STIM_018.jpg
961.395	1.205	1	observe	Run1	observe/STIM_019.jpg
965.988	1.632	1	observe	Run1	observe/STIM_019.jpg
971.388	1.208	0	observe	Run1	observe/STIM_019.jpg
976.472	1.255	1	observe	Run1	observe/STIM_019.jpg
980.699	1.845	1	regulate	Run2	regulate/STIM_000.jpg
985.826	2.486	1	regulate	Run2	regulate/STIM_000.jpg
991.742	2.586	1	regulate	Run2	regulate/STIM_000.jpg
997.233	1.269	1	regulate	Run2	regulate/STIM_000.jpg
1001.751	1.86	0	regulate	Run2	regulate/STIM_001.jpg
1006.848	2.773	1	regulate	Run2	regulate/STIM_001.jpg
1013.404	2.626	1	regulate	Run2	regulate/STIM_001.jpg
1018.733	2.324	1	regulate	Run2	regulate/STIM_001.jpg
1024.173	1.426	0	regulate	Run2	regulate/STIM_002.jpg
1029.321	1.31	0	regulate	Run2	regulate/STIM_002.jpg
1034.089	2.133	1	regulate	Run2	regulate/STIM_002.jpg
1038.617	1.838	1	regulate	Run2	regulate/STIM_002.jpg
1044.299	1.418	0	regulate	Run2	regulate/STIM_003.jpg
1049.027	1.507	1	regulate	Run2	regulate/STIM_003.jpg
1054.106	1.339	1	regulate	Run2	regulate/STIM_003.jpg
1059.322	2.48	0	regulate	Run2	regulate/STIM_003.jpg
1064.575	1.981	1	regulate	Run2	regulate/STIM_004.jpg
1068.608	2.591	1	regulate	Run2	regulate/STIM_004.jpg
1074.757	1.219	1	regulate	Run2	regulate/STIM_004.jpg
1078.576	2.146	1	regulate	Run2	regulate/STIM_004.jpg
1084.573	2.259	1	regulate	Run2	regulate/STIM_005.jpg
1089.695	1.827	1	regulate	Run2	regulate/STIM_005.jpg
1093.793	1.217	1	regulate	Run2	regulate/STIM_005.jpg
1098.344	1.139	1	regulate	Run2	regulate/STIM_005.jpg
1102.29	1.618	1	regulate	Run2	regulate/STIM_006.jpg
1107.46	1.229	1	regulate	Run2	regulate/STIM_006.jpg
1110.846	2.121	1	regulate	Run2	regulate/STIM_006.jpg
1116.577	2.346	1	regulate	Run2	regulate/STIM_006.jpg
1122.747	2.478	1	regulate	Run2	regulate/STIM_007.jpg
1127.199	1.37	0	regulate	Run2	regulate/STIM_007.jpg
1130.593	2.019	1	regulate	Run2	regulate/STIM_007.jpg
1135.017	2.177	1	regulate	Run2	regulate/STIM_007.jpg
1139.779	1.667	1	regulate	Run2	regulate/STIM_008.jpg
1145.138	2.582	1	regulate	Run2	regulate/STIM_008.jpg
1150.633	1.722	1	regulate	Run2	regulate/STIM_008.jpg
1155.784	1.778	1	regulate	Run2	regulate/STIM_008.jpg
1161.423	2.246	1	regulate	Run2	regulate/STIM_009.jpg
1167.368	1.682	1	regulate	Run2	regulate/STIM_009.jpg
1172.098	1.438	1	regulate	Run2	regulate/STIM_009.jpg
1175.759	2.0	1	regulate	Run2	regulate/STIM_009.jpg
1181.598	1.889	0	regulate	Run2	regulate/STIM_010.jpg
1185.9	2.108	1	regulate	Run2	regulate/STIM_010.jpg
1191.006	1.988	1	regulate	Run2	regulate/STIM_010.jpg
1196.799	1.457	0	regulate	Run2	regulate/STIM_010.jpg
1200.487	2.495	1	regulate	Run2	regulate/STIM_011.jpg
1206.785	2.038	1	regulate	Run2	regulate/STIM_011.jpg
1211.072	2.158	1	regulate	Run2	regulate/STIM_011.jpg
1215.443	2.293	1	regulate	Run2	regulate/STIM_011.jpg
1220.413	2.406	1	regulate	Run2	regulate/STIM_012.jpg
1225.045	2.494	1	regulate	Run2	regulate/STIM_012.jpg
1230.556	1.185	1	regulate	Run2	regulate/STIM_012.jpg
1234.889	1.239	1	regulate	Run2	regulate/STIM_012.jpg
1239.882	2.186	1	regulate	Run2	regulate/STIM_013.jpg
1244.695	1.812	1	regulate	Run2	regulate/STIM_013.jpg
1249.148	1.765	0	regulate	Run2	regulate/STIM_013.jpg
1253.946	1.178	1	regulate	Run2	regulate/STIM_013.jpg
1258.659	2.529	0	regulate	Run2	regulate/STIM_014.jpg
1264.666	1.571	1	regulate	Run2	regulate/STIM_014.jpg
1269.008	1.131	1	regulate	Run2	regulate/STIM_014.jpg
1272.9	1.168	1	regulate	Run2	regulate/STIM_014.jpg
1276.6	2.818	0	regulate	Run2	regulate/STIM_015.jpg
1281.806	2.149	1	regulate	Run2	regulate/STIM_015.jpg
1286.264	2.598	0	regulate	Run2	regulate/STIM_015.jpg
1290.91	2.496	1	regulate	Run2	regulate/STIM_015.jpg
1296.361	2.643	1	regulate	Run2	regulate/STIM_016.jpg
1301.315	2.079	1	regulate	Run2	regulate/STIM_016.jpg
1306.913	1.722	1	regulate	Run2	regulate/STIM_016.jpg
1311.956	2.233	1	regulate	Run2	regulate/STIM_016.jpg
1316.871	2.612	1	regulate	Run2	regulate/STIM_017.jpg
1321.881	1.672	1	regulate	Run2	regulate/STIM_017.jpg
1326.614	1.638	1	regulate	Run2	regulate/STIM_017.jpg
1330.454	2.025	1	regulate	Run2	regulate/STIM_017.jpg
1335.097	1.744	1	regulate	Run2	regulate/STIM_018.jpg
1340.796	1.325	0	regulate	Run2	regulate/STIM_018.jpg
1344.607	2.301	1	regulate	Run2	regulate/STIM_018.jpg
1350.47	1.81	1	regulate	Run2	regulate/STIM_018.jpg
1355.075	2.433	1	regulate	Run2	regulate/STIM_019.jpg
1359.591	1.235	1	regulate	Run2	regulate/STIM_019.jpg
1363.214	1.963	1	regulate	Run2	regulate/STIM_019.jpg
1368.042	1.842	1	regulate	Run2	regulate/STIM_019.jpg
1372.697	3.013	0	regulate	Run2	regulate/STIM_020.jpg
1379.515	2.146	1	regulate	Run2	regulate/STIM_020.jpg
1385.499	1.068	1	regulate	Run2	regulate/STIM_020.jpg
1389.274	1.176	1	regulate	Run2	regulate/STIM_020.jpg
1392.474	1.488	0	regulate	Run2	regulate/STIM_021.jpg
1396.097	2.522	1	regulate	Run2	regulate/STIM_021.jpg
1401.92	1.721	1	regulate	Run2	regulate/STIM_021.jpg
1405.635	2.023	1	regulate	Run2	regulate/STIM_021.jpg
1410.446	2.683	1	regulate	Run2	regulate/STIM_022.jpg
1416.086	2.335	1	regulate	Run2	regulate/STIM_022.jpg
1421.563	2.614	1	regulate	Run2	regulate/STIM_022.jpg
1427.592	2.13	1	regulate	Run2	regulate/STIM_022.jpg
1432.031	2.384	1	regulate	Run2	regulate/STIM_023.jpg
1437.655	2.731	1	regulate	Run2	regulate/STIM_023.jpg
1442.853	2.11	1	regulate	Run2	regulate/STIM_023.jpg
1448.807	2.436	1	regulate	Run2	regulate/STIM_023.jpg
1453.918	1.452	1	regulate	Run2	regulate/STIM_024.jpg
1459.154	1.504	1	regulate	Run2	regulate/STIM_024.jpg
1464.647	2.255	1	regulate	Run2	regulate/STIM_024.jpg
1470.664	1.672	1	regulate	Run2	regulate/STIM_024.jpg
1475.968	2.573	1	regulate	Run2	regulate/STIM_025.jpg
1482.285	1.874	1	regulate	Run2	regulate/STIM_025.jpg
1486.14	1.493	1	regulate	Run2	regulate/STIM_025.jpg
1491.201	1.363	1	regulate	Run2	regulate/STIM_025.jpg
1496.399	2.953	0	regulate	Run2	regulate/STIM_026.jpg
1502.952	1.998	1	regulate	Run2	regulate/STIM_026.jpg
1507.512	1.979	1	regulate	Run2	regulate/STIM_026.jpg
1512.928	1.307	1	regulate	Run2	regulate/STIM_026.jpg
1517.683	2.852	1	regulate	Run2	regulate/STIM_027.jpg
1524.172	2.129	1	regulate	Run2	regulate/STIM_027.jpg
1528.693	1.482	1	regulate	Run2	regulate/STIM_027.jpg
1534.03	2.296	1	regulate	Run2	regulate/STIM_027.jpg
1538.457	1.711	1	regulate	Run2	regulate/STIM_028.jpg
1543.014	1.421	1	regulate	Run2	regulate/STIM_028.jpg
1546.982	2.311	0	regulate	Run2	regulate/STIM_028.jpg
1553.235	1.833	1	regulate	Run2	regulate/STIM_028.jpg
1557.504	2.559	1	regulate	Run2	regulate/STIM_029.jpg
1562.867	2.184	1	regulate	Run2	regulate/STIM_029.jpg
1567.74	1.503	1	regulate	Run2	regulate/STIM_029.jpg
1571.653	1.141	1	regulate	Run2	regulate/STIM_029.jpg
1575.049	1.416	1	observe	Run2	observe/STIM_000.jpg
1578.82	1.3	1	observe	Run2	observe/STIM_000.jpg
1583.534	0.921	1	observe	Run2	observe/STIM_000.jpg
1586.835	1.515	1	observe	Run2	observe/STIM_000.jpg
1590.627	0.896	1	observe	Run2	observe/STIM_001.jpg
1594.901	1.192	1	observe	Run2	observe/STIM_001.jpg
1599.899	1.276	1	observe	Run2	observe/STIM_001.jpg
1603.726	0.927	1	observe	Run2	observe/STIM_001.jpg
1606.99	1.609	1	observe	Run2	observe/STIM_002.jpg
1610.629	1.044	1	observe	Run2	observe/STIM_002.jpg
1615.347	1.4	1	observe	Run2	observe/STIM_002.jpg
1619.186	1.184	1	observe	Run2	observe/STIM_002.jpg
1622.577	1.17	0	observe	Run2	observe/STIM_003.jpg
1626.301	0.976	1	observe	Run2	observe/STIM_003.jpg
1629.793	0.967	0	observe	Run2	observe/STIM_003.jpg
1633.226	1.515	1	observe	Run2	observe/STIM_003.jpg
1637.187	1.027	1	observe	Run2	observe/STIM_004.jpg
1641.062	0.827	1	observe	Run2	observe/STIM_004.jpg
1645.364	1.09	0	observe	Run2	observe/STIM_004.jpg
1650.251	1.346	1	observe	Run2	observe/STIM_004.jpg
1654.866	0.79	1	observe	Run2	observe/STIM_005.jpg
1658.868	1.025	1	observe	Run2	observe/STIM_005.jpg
1663.474	1.041	1	observe	Run2	observe/STIM_005.jpg
1667.03	1.05	1	observe	Run2	observe/STIM_005.jpg
1670.503	0.962	1	observe	Run2	observe/STIM_006.jpg
1674.364	1.117	1	observe	Run2	observe/STIM_006.jpg
1678.463	1.013	1	observe	Run2	observe/STIM_006.jpg
1683.322	1.258	0	observe	Run2	observe/STIM_006.jpg
1688.173	1.24	1	observe	Run2	observe/STIM_007.jpg
1692.863	0.82	1	observe	Run2	observe/STIM_007.jpg
1696.026	1.205	1	observe	Run2	observe/STIM_007.jpg
1699.533	0.953	1	observe	Run2	observe/STIM_007.jpg
1703.261	0.933	1	observe	Run2	observe/STIM_008.jpg
1706.562	1.037	1	observe	Run2	observe/STIM_008.jpg
1710.283	1.268	1	observe	Run2	observe/STIM_008.jpg
1713.581	0.932	1	observe	Run2	observe/STIM_008.jpg
1718.098	1.307	1	observe	Run2	observe/STIM_009.jpg
1722.514	1.374	1	observe	Run2	observe/STIM_009.jpg
1726.944	1.093	1	observe	Run2	observe/STIM_009.jpg
1731.003	1.546	1	observe	Run2	observe/STIM_009.jpg
1735.952	1.612	1	observe	Run2	observe/STIM_010.jpg
1740.881	1.348	1	observe	Run2	observe/STIM_010.jpg
1745.183	1.366	1	observe	Run2	observe/STIM_010.jpg
1750.2	1.052	1	observe	Run2	observe/STIM_010.jpg
1754.154	0.878	1	observe	Run2	observe/STIM_011.jpg
1758.619	1.436	1	observe	Run2	observe/STIM_011.jpg
1763.319	1.674	1	observe	Run2	observe/STIM_011.jpg
1766.995	1.17	1	observe	Run2	observe/STIM_011.jpg
1770.341	1.17	1	observe	Run2	observe/STIM_012.jpg
1774.58	1.425	1	observe	Run2	observe/STIM_012.jpg
1778.908	1.444	1	observe	Run2	observe/STIM_012.jpg
1782.732	1.103	1	observe	Run2	observe/STIM_012.jpg
1787.566	1.268	1	observe	Run2	observe/STIM_013.jpg
1792.629	1.057	1	observe	Run2	observe/STIM_013.jpg
1796.405	1.201	1	observe	Run2	observe/STIM_013.jpg
1799.899	1.391	1	observe	Run2	observe/STIM_013.jpg
1803.748	1.285	1	observe	Run2	observe/STIM_014.jpg
1809.057	1.545	1	observe	Run2	observe/STIM_014.jpg
1812.961	1.112	0	observe	Run2	observe/STIM_014.jpg
1817.6	0.991	1	observe	Run2	observe/STIM_014.jpg
1820.7	0.993	1	observe	Run2	observe/STIM_015.jpg
1825.321	1.282	0	observe	Run2	observe/STIM_015.jpg
1830.177	0.906	1	observe	Run2	observe/STIM_015.jpg
1833.717	1.319	1	observe	Run2	observe/STIM_015.jpg
1838.059	1.363	1	observe	Run2	observe/STIM_016.jpg
1841.978	1.436	1	observe	Run2	observe/STIM_016.jpg
1845.928	1.274	0	observe	Run2	observe/STIM_016.jpg
1850.573	0.838	1	observe	Run2	observe/STIM_016.jpg
1854.981	1.071	1	observe	Run2	observe/STIM_017.jpg
1858.907	0.897	1	observe	Run2	observe/STIM_017.jpg
1862.541	1.145	1	observe	Run2	observe/STIM_017.jpg
1866.131	1.24	1	observe	Run2	observe/STIM_017.jpg
1870.09	0.792	0	observe	Run2	observe/STIM_018.jpg
1874.292	1.323	1	observe	Run2	observe/STIM_018.jpg
1878.395	0.985	1	observe	Run2	observe/STIM_018.jpg
1881.99	1.036	1	observe	Run2	observe/STIM_018.jpg
1886.132	1.297	1	observe	Run2	observe/STIM_019.jpg
1890.568	0.915	1	observe	Run2	observe/STIM_019.jpg
1893.972	1.441	1	observe	Run2	observe/STIM_019.jpg
1897.797	0.806	1	observe	Run2	observe/STIM_019.jpg
1901.033	1.947	1	regulate	Run3	regulate/STIM_000.jpg
1906.487	2.222	1	regulate	Run3	regulate/STIM_000.jpg
1910.555	1.976	1	regulate	Run3	regulate/STIM_000.jpg
1916.294	2.228	1	regulate	Run3	regulate/STIM_000.jpg
1921.932	1.718	1	regulate	Run3	regulate/STIM_001.jpg
1925.726	1.146	1	regulate	Run3	regulate/STIM_001.jpg
1929.025	1.291	1	regulate	Run3	regulate/STIM_001.jpg
1934.143	1.467	1	regulate	Run3	regulate/STIM_001.jpg
1938.978	1.239	1	regulate	Run3	regulate/STIM_002.jpg
1942.873	2.082	1	regulate	Run3	regulate/STIM_002.jpg
1947.056	1.384	1	regulate	Run3	regulate/STIM_002.jpg
1951.193	1.407	1	regulate	Run3	regulate/STIM_002.jpg
1955.632	1.376	1	regulate	Run3	regulate/STIM_003.jpg
1960.758	2.394	1	regulate	Run3	regulate/STIM_003.jpg
1965.229	1.551	1	regulate	Run3	regulate/STIM_003.jpg
1970.185	1.411	1	regulate	Run3	regulate/STIM_003.jpg
1974.634	1.948	1	regulate	Run3	regulate/STIM_004.jpg
1978.675	2.114	1	regulate	Run3	regulate/STIM_004.jpg
1983.194	1.394	1	regulate	Run3	regulate/STIM_004.jpg
1987.488	1.98	1	regulate	Run3	regulate/STIM_004.jpg
1991.597	1.935	1	regulate	Run3	regulate/STIM_005.jpg
1996.91	2.388	1	regulate	Run3	regulate/STIM_005.jpg
2001.811	1.257	1	regulate	Run3	regulate/STIM_005.jpg
2006.996	2.301	1	regulate	Run3	regulate/STIM_005.jpg
2013.305	2.094	1	regulate	Run3	regulate/STIM_006.jpg
2018.764	1.716	1	regulate	Run3	regulate/STIM_006.jpg
2023.253	2.139	1	regulate	Run3	regulate/STIM_006.jpg
2029.155	1.473	1	regulate	Run3	regulate/STIM_006.jpg
2032.691	1.516	1	regulate	Run3	regulate/STIM_007.jpg
2037.643	1.099	0	regulate	Run3	regulate/STIM_007.jpg
2041.489	2.163	1	regulate	Run3	regulate/STIM_007.jpg
2046.995	1.381	1	regulate	Run3	regulate/STIM_007.jpg
2050.794	2.087	1	regulate	Run3	regulate/STIM_008.jpg
2055.931	2.186	1	regulate	Run3	regulate/STIM_008.jpg
2061.874	2.231	1	regulate	Run3	regulate/STIM_008.jpg
2066.896	1.464	1	regulate	Run3	regulate/STIM_008.jpg
2071.358	1.665	1	regulate	Run3	regulate/STIM_009.jpg
2075.674	2.449	1	regulate	Run3	regulate/STIM_009.jpg
2080.294	2.175	1	regulate	Run3	regulate/STIM_009.jpg
2085.784	2.082	1	regulate	Run3	regulate/STIM_009.jpg
2089.953	2.434	1	regulate	Run3	regulate/STIM_010.jpg
2096.224	2.152	1	regulate	Run3	regulate/STIM_010.jpg
2101.505	2.037	1	regulate	Run3	regulate/STIM_010.jpg
2107.562	1.346	1	regulate	Run3	regulate/STIM_010.jpg
2111.692	2.337	0	regulate	Run3	regulate/STIM_011.jpg
2116.198	1.667	1	regulate	Run3	regulate/STIM_011.jpg
2120.706	1.728	1	regulate	Run3	regulate/STIM_011.jpg
2125.574	1.352	1	regulate	Run3	regulate/STIM_011.jpg
2129.748	2.179	1	regulate	Run3	regulate/STIM_012.jpg
2134.577	1.537	1	regulate	Run3	regulate/STIM_012.jpg
2138.167	1.53	1	regulate	Run3	regulate/STIM_012.jpg
2143.564	2.331	1	regulate	Run3	regulate/STIM_012.jpg
2148.402	2.258	1	regulate	Run3	regulate/STIM_013.jpg
2153.398	2.352	1	regulate	Run3	regulate/STIM_013.jpg
2158.444	1.796	1	regulate	Run3	regulate/STIM_013.jpg
2162.929	2.174	1	regulate	Run3	regulate/STIM_013.jpg
2167.525	2.386	1	regulate	Run3	regulate/STIM_014.jpg
2172.938	1.119	1	regulate	Run3	regulate/STIM_014.jpg
2176.245	1.829	1	regulate	Run3	regulate/STIM_014.jpg
2181.437	1.108	1	regulate	Run3	regulate/STIM_014.jpg
2184.672	1.805	1	regulate	Run3	regulate/STIM_015.jpg
2188.545	1.266	0	regulate	Run3	regulate/STIM_015.jpg
2191.928	1.076	1	regulate	Run3	regulate/STIM_015.jpg
2196.802	1.875	0	regulate	Run3	regulate/STIM_015.jpg
2201.456	1.321	1	regulate	Run3	regulate/STIM_016.jpg
2205.72	2.02	1	regulate	Run3	regulate/STIM_016.jpg
2211.106	1.903	1	regulate	Run3	regulate/STIM_016.jpg
2215.798	1.731	1	regulate	Run3	regulate/STIM_016.jpg
2221.265	2.2	1	regulate	Run3	regulate/STIM_017.jpg
2227.392	1.315	1	regulate	Run3	regulate/STIM_017.jpg
2231.843	1.277	1	regulate	Run3	regulate/STIM_017.jpg
2236.466	1.536	1	regulate	Run3	regulate/STIM_017.jpg
2240.742	1.488	1	regulate	Run3	regulate/STIM_018.jpg
2245.17	1.71	1	regulate	Run3	regulate/STIM_018.jpg
2250.769	1.672	1	regulate	Run3	regulate/STIM_018.jpg
2255.152	2.198	1	regulate	Run3	regulate/STIM_018.jpg
2260.704	2.053	1	regulate	Run3	regulate/STIM_019.jpg
2264.909	2.151	1	regulate	Run3	regulate/STIM_019.jpg
2270.733	1.724	1	regulate	Run3	regulate/STIM_019.jpg
2275.226	2.208	1	regulate	Run3	regulate/STIM_019.jpg
2281.228	2.032	1	regulate	Run3	regulate/STIM_020.jpg
2286.273	2.08	0	regulate	Run3	regulate/STIM_020.jpg
2291.773	1.986	1	regulate	Run3	regulate/STIM_020.jpg
2296.789	1.372	1	regulate	Run3	regulate/STIM_020.jpg
2300.521	2.023	1	regulate	Run3	regulate/STIM_021.jpg
2305.265	1.636	1	regulate	Run3	regulate/STIM_021.jpg
2310.138	1.974	1	regulate	Run3	regulate/STIM_021.jpg
2315.335	2.266	1	regulate	Run3	regulate/STIM_021.jpg
2320.639	1.63	1	regulate	Run3	regulate/STIM_022.jpg
2325.144	1.373	1	regulate	Run3	regulate/STIM_022.jpg
2329.006	1.688	1	regulate	Run3	regulate/STIM_022.jpg
2334.147	1.248	1	regulate	Run3	regulate/STIM_022.jpg
2338.025	1.304	0	regulate	Run3	regulate/STIM_023.jpg
2341.596	1.315	1	regulate	Run3	regulate/STIM_023.jpg
2345.454	1.099	1	regulate	Run3	regulate/STIM_023.jpg
2349.707	1.801	1	regulate	Run3	regulate/STIM_023.jpg
2355.033	1.324	1	regulate	Run3	regulate/STIM_024.jpg
2359.981	2.286	1	regulate	Run3	regulate/STIM_024.jpg
2365.9	1.569	0	regulate	Run3	regulate/STIM_024.jpg
2371.433	2.033	1	regulate	Run3	regulate/STIM_024.jpg
2377.452	1.808	1	regulate	Run3	regulate/STIM_025.jpg
2382.654	1.77	1	regulate	Run3	regulate/STIM_025.jpg
2388.021	1.582	1	regulate	Run3	regulate/STIM_025.jpg
2393.336	1.509	1	regulate	Run3	regulate/STIM_025.jpg
2397.146	2.449	1	regulate	Run3	regulate/STIM_026.jpg
2403.523	1.549	1	regulate	Run3	regulate/STIM_026.jpg
2408.153	1.871	1	regulate	Run3	regulate/STIM_026.jpg
2413.305	1.796	1	regulate	Run3	regulate/STIM_026.jpg
2419.015	2.308	1	regulate	Run3	regulate/STIM_027.jpg
2424.268	2.016	1	regulate	Run3	regulate/STIM_027.jpg
2429.823	2.066	1	regulate	Run3	regulate/STIM_027.jpg
2435.355	1.289	0	regulate	Run3	regulate/STIM_027.jpg
2439.349	2.218	1	regulate	Run3	regulate/STIM_028.jpg
2445.517	1.57	1	regulate	Run3	regulate/STIM_028.jpg
2450.296	1.281	1	regulate	Run3	regulate/STIM_028.jpg
2453.834	1.62	1	regulate	Run3	regulate/STIM_028.jpg
2457.653	1.992	1	regulate	Run3	regulate/STIM_029.jpg
2461.751	2.106	1	regulate	Run3	regulate/STIM_029.jpg
2466.56	1.685	1	regulate	Run3	regulate/STIM_029.jpg
2470.692	2.241	1	regulate	Run3	regulate/STIM_029.jpg
2475.493	0.828	1	observe	Run3	observe/STIM_000.jpg
2480.398	0.934	0	observe	Run3	observe/STIM_000.jpg
2484.097	0.835	1	observe	Run3	observe/STIM_000.jpg
2488.765	1.404	1	observe	Run3	observe/STIM_000.jpg
2493.195	1.29	1	observe	Run3	observe/STIM_001.jpg
2498.328	1.438	1	observe	Run3	observe/STIM_001.jpg
2502.754	1.271	1	observe	Run3	observe/STIM_001.jpg
2506.985	0.879	1	observe	Run3	observe/STIM_001.jpg
2510.357	1.192	1	observe	Run3	observe/STIM_002.jpg
2514.246	0.951	1	observe	Run3	observe/STIM_002.jpg
2517.156	0.81	1	observe	Run3	observe/STIM_002.jpg
2521.316	1.164	1	observe	Run3	observe/STIM_002.jpg
2525.942	1.097	1	observe	Run3	observe/STIM_003.jpg
2529.688	1.286	1	observe	Run3	observe/STIM_003.jpg
2533.441	1.55	1	observe	Run3	observe/STIM_003.jpg
2538.272	1.545	1	observe	Run3	observe/STIM_003.jpg
2542.63	1.505	1	observe	Run3	observe/STIM_004.jpg
2546.886	1.213	1	observe	Run3	observe/STIM_004.jpg
2550.149	1.064	1	observe	Run3	observe/STIM_004.jpg
2553.746	1.379	1	observe	Run3	observe/STIM_004.jpg
2558.019	1.403	1	observe	Run3	observe/STIM_005.jpg
2563.319	1.281	1	observe	Run3	observe/STIM_005.jpg
2568.191	1.093	1	observe	Run3	observe/STIM_005.jpg
2573.291	1.547	1	observe	Run3	observe/STIM_005.jpg
2577.12	1.23	1	observe	Run3	observe/STIM_006.jpg
2580.632	1.298	1	observe	Run3	observe/STIM_006.jpg
2583.987	1.381	0	observe	Run3	observe/STIM_006.jpg
2588.942	0.993	1	observe	Run3	observe/STIM_006.jpg
2593.954	1.15	1	observe	Run3	observe/STIM_007.jpg
2598.212	1.444	0	observe	Run3	observe/STIM_007.jpg
2601.899	1.069	1	observe	Run3	observe/STIM_007.jpg
2606.245	0.909	1	observe	Run3	observe/STIM_007.jpg
2609.623	1.087	1	observe	Run3	observe/STIM_008.jpg
2614.285	1.277	0	observe	Run3	observe/STIM_008.jpg
2619.061	1.553	1	observe	Run3	observe/STIM_008.jpg
2624.396	1.128	1	observe	Run3	observe/STIM_008.jpg
2627.498	1.386	1	observe	Run3	observe/STIM_009.jpg
2631.544	0.94	1	observe	Run3	observe/STIM_009.jpg
2635.459	1.351	1	observe	Run3	observe/STIM_009.jpg
2640.303	1.116	0	observe	Run3	observe/STIM_009.jpg
2645.147	1.411	0	observe	Run3	observe/STIM_010.jpg
2648.86	1.579	1	observe	Run3	observe/STIM_010.jpg
2652.598	1.116	1	observe	Run3	observe/STIM_010.jpg
2655.757	0.992	1	observe	Run3	observe/STIM_010.jpg
2659.848	1.214	1	observe	Run3	observe/STIM_011.jpg
2664.357	1.357	1	observe	Run3	observe/STIM_011.jpg
2668.231	1.012	1	observe	Run3	observe/STIM_011.jpg
2671.458	1.222	1	observe	Run3	observe/STIM_011.jpg
2675.58	1.147	1	observe	Run3	observe/STIM_012.jpg
2680.499	1.478	0	observe	Run3	observe/STIM_012.jpg
2684.482	1.193	1	observe	Run3	observe/STIM_012.jpg
2689.5	1.077	1	observe	Run3	observe/STIM_012.jpg
2692.694	1.386	1	observe	Run3	observe/STIM_013.jpg
2696.633	1.428	1	observe	Run3	observe/STIM_013.jpg
2700.226	1.45	1	observe	Run3	observe/STIM_013.jpg
2703.59	1.259	0	observe	Run3	observe/STIM_013.jpg
2707.394	1.264	0	observe	Run3	observe/STIM_014.jpg
2711.193	1.031	1	observe	Run3	observe/STIM_014.jpg
2715.0	1.51	1	observe	Run3	observe/STIM_014.jpg
2719.23	1.604	1	observe	Run3	observe/STIM_014.jpg
2723.434	1.567	1	observe	Run3	observe/STIM_015.jpg
2728.487	1.208	1	observe	Run3	observe/STIM_015.jpg
2731.787	1.48	1	observe	Run3	observe/STIM_015.jpg
2736.844	1.32	1	observe	Run3	observe/STIM_015.jpg
2741.806	1.287	1	observe	Run3	observe/STIM_016.jpg
2745.408	1.421	0	observe	Run3	observe/STIM_016.jpg
2750.51	1.529	1	observe	Run3	observe/STIM_016.jpg
2754.87	1.263	1	observe	Run3	observe/STIM_016.jpg
2758.119	1.437	1	observe	Run3	observe/STIM_017.jpg
2761.69	1.252	1	observe	Run3	observe/STIM_017.jpg
2764.902	1.291	1	observe	Run3	observe/STIM_017.jpg
2768.42	0.796	1	observe	Run3	observe/STIM_017.jpg
2772.61	1.409	1	observe	Run3	observe/STIM_018.jpg
2777.102	1.56	1	observe	Run3	observe/STIM_018.jpg
2780.676	1.608	1	observe	Run3	observe/STIM_018.jpg
2786.081	1.496	0	observe	Run3	observe/STIM_018.jpg
2791.09	0.974	1	observe	Run3	observe/STIM_019.jpg
2794.527	1.307	1	observe	Run3	observe/STIM_019.jpg
2798.613	1.569	1	observe	Run3	observe/STIM_019.jpg
2803.393	1.074	1	observe	Run3	observe/STIM_019.jpg
