onset	duration	response_time_ms	trial_type	learning_stage	stimulus	response_port
0.0	1.875	1875.1	regulate	Run1	regulate/STIM_000.jpg	100
5.776	2.885	2885.1	regulate	Run1	regulate/STIM_000.jpg	99
12.097	3.104	3104.5	regulate	Run1	regulate/STIM_000.jpg	100
17.946	1.664	1663.6	regulate	Run1	regulate/STIM_000.jpg	99
22.513	2.409	2408.9	regulate	Run1	regulate/STIM_001.jpg	99
27.552	1.77	1769.5	regulate	Run1	regulate/STIM_001.jpg	99
32.707	2.164	2163.8	regulate	Run1	regulate/STIM_001.jpg	99
36.88	1.572	1571.7	regulate	Run1	regulate/STIM_001.jpg	99
41.201	3.155	3155.3	regulate	Run1	regulate/STIM_002.jpg	100
47.698	1.562	1561.8	regulate	Run1	regulate/STIM_002.jpg	100
52.324	1.797	1797.2	regulate	Run1	regulate/STIM_002.jpg	100
56.375	2.175	2175.2	regulate	Run1	regulate/STIM_002.jpg	99
60.648	3.598	3598.0	regulate	Run1	regulate/STIM_003.jpg	100
67.567	2.086	2086.5	regulate	Run1	regulate/STIM_003.jpg	99
73.443	3.108	3108.3	regulate	Run1	regulate/STIM_003.jpg	99
78.75	2.998	2998.0	regulate	Run1	regulate/STIM_003.jpg	100
85.42	3.515	3514.8	regulate	Run1	regulate/STIM_004.jpg	99
92.45	2.396	2396.1	regulate	Run1	regulate/STIM_004.jpg	100
97.435	3.031	3031.4	regulate	Run1	regulate/STIM_004.jpg	99
103.828	2.489	2489.2	regulate	Run1	regulate/STIM_004.jpg	100
109.209	2.679	2678.7	regulate	Run1	regulate/STIM_005.jpg	100
115.33	3.048	3048.0	regulate	Run1	regulate/STIM_005.jpg	99
120.951	1.864	1864.5	regulate	Run1	regulate/STIM_005.jpg	100
126.163	2.084	2083.8	regulate	Run1	regulate/STIM_005.jpg	100
130.666	1.86	1859.9	regulate	Run1	regulate/STIM_006.jpg	99
136.522	2.249	2249.2	regulate	Run1	regulate/STIM_006.jpg	100
141.509	2.794	2794.3	regulate	Run1	regulate/STIM_006.jpg	100
148.226	3.063	3062.8	regulate	Run1	regulate/STIM_006.jpg	99
153.498	2.313	2312.8	regulate	Run1	regulate/STIM_007.jpg	100
159.225	1.941	1941.3	regulate	Run1	regulate/STIM_007.jpg	100
165.017	3.157	3157.4	regulate	Run1	regulate/STIM_007.jpg	99
171.195	2.995	2995.3	regulate	Run1	regulate/STIM_007.jpg	100
177.533	3.144	3144.0	regulate	Run1	regulate/STIM_008.jpg	100
183.767	1.493	1493.1	regulate	Run1	regulate/STIM_008.jpg	100
187.921	1.772	1771.8	regulate	Run1	regulate/STIM_008.jpg	100
193.004	3.059	3059.2	regulate	Run1	regulate/STIM_008.jpg	99
199.641	2.962	2962.3	regulate	Run1	regulate/STIM_009.jpg	100
205.427	2.299	2299.2	regulate	Run1	regulate/STIM_009.jpg	99
211.611	2.746	2745.9	regulate	Run1	regulate/STIM_009.jpg	99
217.864	2.388	2387.5	regulate	Run1	regulate/STIM_009.jpg	100
224.208	2.219	2219.1	regulate	Run1	regulate/STIM_010.jpg	99
229.721	1.54	1540.3	regulate	Run1	regulate/STIM_010.jpg	100
234.627	3.073	3072.9	regulate	Run1	regulate/STIM_010.jpg	99
240.508	1.717	1717.2	regulate	Run1	regulate/STIM_010.jpg	99
245.399	3.574	3574.3	regulate	Run1	regulate/STIM_011.jpg	100
252.441	2.029	2028.7	regulate	Run1	regulate/STIM_011.jpg	99
258.145	1.936	1935.9	regulate	Run1	regulate/STIM_011.jpg	100
262.74	1.345	1345.0	regulate	Run1	regulate/STIM_011.jpg	99
267.038	3.46	3460.2	regulate	Run1	regulate/STIM_012.jpg	99
274.061	1.95	1950.0	regulate	Run1	regulate/STIM_012.jpg	99
278.995	1.503	1503.3	regulate	Run1	regulate/STIM_012.jpg	100
284.296	1.696	1696.2	regulate	Run1	regulate/STIM_012.jpg	99
288.495	3.046	3045.9	regulate	Run1	regulate/STIM_013.jpg	99
295.505	3.067	3066.7	regulate	Run1	regulate/STIM_013.jpg	99
301.96	2.396	2396.3	regulate	Run1	regulate/STIM_013.jpg	100
308.206	1.923	1922.6	regulate	Run1	regulate/STIM_013.jpg	99
313.044	2.233	2232.7	regulate	Run1	regulate/STIM_014.jpg	100
319.148	3.025	3024.6	regulate	Run1	regulate/STIM_014.jpg	100
325.506	2.771	2770.8	regulate	Run1	regulate/STIM_014.jpg	99
331.736	2.655	2654.6	regulate	Run1	regulate/STIM_014.jpg	99
336.416	2.206	2206.3	regulate	Run1	regulate/STIM_015.jpg	100
341.212	1.664	1664.2	regulate	Run1	regulate/STIM_015.jpg	99
345.075	2.63	2629.9	regulate	Run1	regulate/STIM_015.jpg	99
350.916	2.257	2256.7	regulate	Run1	regulate/STIM_015.jpg	99
355.176	2.205	2204.7	regulate	Run1	regulate/STIM_016.jpg	100
359.875	1.577	1577.4	regulate	Run1	regulate/STIM_016.jpg	99
364.002	1.678	1677.8	regulate	Run1	regulate/STIM_016.jpg	100
367.802	2.242	2242.4	regulate	Run1	regulate/STIM_016.jpg	99
372.21	1.593	1592.9	regulate	Run1	regulate/STIM_017.jpg	99
376.629	3.131	3131.4	regulate	Run1	regulate/STIM_017.jpg	99
381.877	2.285	2285.1	regulate	Run1	regulate/STIM_017.jpg	100
387.962	2.982	2981.5	regulate	Run1	regulate/STIM_017.jpg	100
393.984	1.588	1588.5	regulate	Run1	regulate/STIM_018.jpg	99
399.307	2.892	2891.7	regulate	Run1	regulate/STIM_018.jpg	100
406.169	2.659	2659.2	regulate	Run1	regulate/STIM_018.jpg	99
411.935	3.024	3024.4	regulate	Run1	regulate/STIM_018.jpg	100
417.31	2.418	2418.5	regulate	Run1	regulate/STIM_019.jpg	100
423.51	3.171	3170.8	regulate	Run1	regulate/STIM_019.jpg	99
430.568	2.434	2433.5	regulate	Run1	regulate/STIM_019.jpg	100
435.539	2.807	2806.8	regulate	Run1	regulate/STIM_019.jpg	99
440.481	2.98	2980.2	regulate	Run1	regulate/STIM_020.jpg	100
446.831	1.487	1487.0	regulate	Run1	regulate/STIM_020.jpg	99
450.4	1.67	1670.0	regulate	Run1	regulate/STIM_020.jpg	100
454.855	1.576	1575.6	regulate	Run1	regulate/STIM_020.jpg	99
458.602	3.626	3625.6	regulate	Run1	regulate/STIM_021.jpg	100
464.923	2.756	2756.5	regulate	Run1	regulate/STIM_021.jpg	100
471.239	2.699	2699.3	regulate	Run1	regulate/STIM_021.jpg	99
476.412	2.812	2812.4	regulate	Run1	regulate/STIM_021.jpg	100
482.112	2.71	2710.3	regulate	Run1	regulate/STIM_022.jpg	100
488.445	1.894	1894.4	regulate	Run1	regulate/STIM_022.jpg	99
493.218	1.695	1694.7	regulate	Run1	regulate/STIM_022.jpg	100
498.67	1.512	1512.4	regulate	Run1	regulate/STIM_022.jpg	99
503.778	3.163	3163.1	regulate	Run1	regulate/STIM_023.jpg	99
509.632	2.048	2047.8	regulate	Run1	regulate/STIM_023.jpg	99
515.128	2.999	2999.1	regulate	Run1	regulate/STIM_023.jpg	100
520.872	2.824	2823.6	regulate	Run1	regulate/STIM_023.jpg	99
527.417	3.386	3385.8	regulate	Run1	regulate/STIM_024.jpg	100
534.486	3.239	3238.9	regulate	Run1	regulate/STIM_024.jpg	99
541.571	2.872	2871.8	regulate	Run1	regulate/STIM_024.jpg	99
547.836	2.25	2250.4	regulate	Run1	regulate/STIM_024.jpg	99
553.385	1.591	1590.6	regulate	Run1	regulate/STIM_025.jpg	100
557.772	2.815	2815.1	regulate	Run1	regulate/STIM_025.jpg	99
563.012	1.704	1704.3	regulate	Run1	regulate/STIM_025.jpg	99
566.727	1.378	1378.1	regulate	Run1	regulate/STIM_025.jpg	100
572.095	2.736	2736.4	regulate	Run1	regulate/STIM_026.jpg	99
577.23	2.354	2353.9	regulate	Run1	regulate/STIM_026.jpg	99
581.851	1.483	1482.7	regulate	Run1	regulate/STIM_026.jpg	99
586.483	2.171	2171.1	regulate	Run1	regulate/STIM_026.jpg	100
590.849	2.834	2834.3	regulate	Run1	regulate/STIM_027.jpg	100
596.312	1.838	1838.0	regulate	Run1	regulate/STIM_027.jpg	99
600.528	1.608	1608.3	regulate	Run1	regulate/STIM_027.jpg	100
605.334	2.774	2774.0	regulate	Run1	regulate/STIM_027.jpg	100
611.71	2.14	2140.5	regulate	Run1	regulate/STIM_028.jpg	100
617.454	2.872	2872.5	regulate	Run1	regulate/STIM_028.jpg	100
623.465	2.257	2257.0	regulate	Run1	regulate/STIM_028.jpg	99
628.206	2.624	2624.2	regulate	Run1	regulate/STIM_028.jpg	100
633.596	3.467	3466.8	regulate	Run1	regulate/STIM_029.jpg	99
640.621	2.978	2978.5	regulate	Run1	regulate/STIM_029.jpg	99
647.319	2.156	2156.5	regulate	Run1	regulate/STIM_029.jpg	100
652.778	1.462	1462.5	regulate	Run1	regulate/STIM_029.jpg	99
657.904	0.946	946.0	observe	Run1	observe/STIM_000.jpg	99
661.987	1.48	1479.8	observe	Run1	observe/STIM_000.jpg	100
666.529	1.25	1249.5	observe	Run1	observe/STIM_000.jpg	100
669.853	1.049	1049.4	observe	Run1	observe/STIM_000.jpg	99
674.142	0.876	876.4	observe	Run1	observe/STIM_001.jpg	100
677.876	0.87	869.8	observe	Run1	observe/STIM_001.jpg	99
682.601	0.994	994.2	observe	Run1	observe/STIM_001.jpg	100
686.065	0.979	979.2	observe	Run1	observe/STIM_001.jpg	99
689.069	1.588	1587.5	observe	Run1	observe/STIM_002.jpg	99
693.823	1.198	1198.2	observe	Run1	observe/STIM_002.jpg	99
698.288	1.443	1443.0	observe	Run1	observe/STIM_002.jpg	100
702.264	1.563	1563.0	observe	Run1	observe/STIM_002.jpg	99
706.165	1.184	1184.4	observe	Run1	observe/STIM_003.jpg	99
709.707	1.635	1634.7	observe	Run1	observe/STIM_003.jpg	99
715.268	1.336	1335.9	observe	Run1	observe/STIM_003.jpg	100
719.384	1.61	1609.8	observe	Run1	observe/STIM_003.jpg	99
723.722	0.977	977.0	observe	Run1	observe/STIM_004.jpg	100
727.348	1.311	1311.4	observe	Run1	observe/STIM_004.jpg	100
731.896	1.413	1412.6	observe	Run1	observe/STIM_004.jpg	99
736.468	0.924	923.8	observe	Run1	observe/STIM_004.jpg	99
740.337	0.986	986.3	observe	Run1	observe/STIM_005.jpg	99
744.64	1.492	1492.0	observe	Run1	observe/STIM_005.jpg	100
749.354	1.33	1329.5	observe	Run1	observe/STIM_005.jpg	100
753.947	1.545	1545.1	observe	Run1	observe/STIM_005.jpg	99
759.12	1.226	1226.2	observe	Run1	observe/STIM_006.jpg	100
764.036	1.419	1418.9	observe	Run1	observe/STIM_006.jpg	99
768.952	1.139	1139.4	observe	Run1	observe/STIM_006.jpg	100
773.959	1.142	1142.0	observe	Run1	observe/STIM_006.jpg	100
777.506	1.497	1497.2	observe	Run1	observe/STIM_007.jpg	100
782.611	1.051	1051.0	observe	Run1	observe/STIM_007.jpg	100
786.963	1.086	1085.9	observe	Run1	observe/STIM_007.jpg	99
790.219	1.349	1349.4	observe	Run1	observe/STIM_007.jpg	99
793.615	1.216	1215.9	observe	Run1	observe/STIM_008.jpg	100
796.852	1.435	1435.4	observe	Run1	observe/STIM_008.jpg	99
801.897	1.089	1089.2	observe	Run1	observe/STIM_008.jpg	99
805.001	0.883	882.7	observe	Run1	observe/STIM_008.jpg	100
808.176	1.079	1078.8	observe	Run1	observe/STIM_009.jpg	100
812.442	1.465	1464.6	observe	Run1	observe/STIM_009.jpg	100
816.002	1.414	1414.0	observe	Run1	observe/STIM_009.jpg	100
821.103	1.444	1443.6	observe	Run1	observe/STIM_009.jpg	100
825.712	1.13	1129.6	observe	Run1	observe/STIM_010.jpg	100
830.07	1.438	1438.0	observe	Run1	observe/STIM_010.jpg	99
834.695	0.856	856.1	observe	Run1	observe/STIM_010.jpg	99
839.439	1.4	1400.1	observe	Run1	observe/STIM_010.jpg	100
844.111	1.515	1515.0	observe	Run1	observe/STIM_011.jpg	99
848.631	1.329	1328.8	observe	Run1	observe/STIM_011.jpg	100
853.667	1.316	1315.8	observe	Run1	observe/STIM_011.jpg	100
857.238	1.239	1239.0	observe	Run1	observe/STIM_011.jpg	100
861.952	1.409	1408.9	observe	Run1	observe/STIM_012.jpg	100
865.987	1.601	1600.9	observe	Run1	observe/STIM_012.jpg	100
870.724	1.389	1388.9	observe	Run1	observe/STIM_012.jpg	99
874.533	1.02	1019.8	observe	Run1	observe/STIM_012.jpg	100
879.203	1.614	1613.6	observe	Run1	observe/STIM_013.jpg	100
882.925	1.141	1141.4	observe	Run1	observe/STIM_013.jpg	99
886.276	1.032	1031.5	observe	Run1	observe/STIM_013.jpg	100
891.008	1.527	1527.1	observe	Run1	observe/STIM_013.jpg	99
894.869	1.345	1345.4	observe	Run1	observe/STIM_014.jpg	100
900.122	0.982	982.0	observe	Run1	observe/STIM_014.jpg	100
904.015	1.35	1350.0	observe	Run1	observe/STIM_014.jpg	100
908.416	1.628	1628.5	observe	Run1	observe/STIM_014.jpg	100
913.526	1.369	1369.3	observe	Run1	observe/STIM_015.jpg	99
917.418	1.529	1528.7	observe	Run1	observe/STIM_015.jpg	100
922.348	1.052	1052.2	observe	Run1	observe/STIM_015.jpg	100
926.002	0.885	884.6	observe	Run1	observe/STIM_015.jpg	100
929.501	1.358	1358.1	observe	Run1	observe/STIM_016.jpg	99
933.685	1.448	1447.9	observe	Run1	observe/STIM_016.jpg	99
937.746	1.15	1150.3	observe	Run1	observe/STIM_016.jpg	99
941.915	1.302	1302.2	observe	Run1	observe/STIM_016.jpg	99
946.327	0.92	919.5	observe	Run1	observe/STIM_017.jpg	99
950.438	1.21	1209.7	observe	Run1	observe/STIM_017.jpg	100
954.596	1.248	1247.7	observe	Run1	observe/STIM_017.jpg	100
958.187	0.886	885.7	observe	Run1	observe/STIM_017.jpg	100
963.049	1.226	1226.4	observe	Run1	observe/STIM_018.jpg	100
968.209	1.24	1239.8	observe	Run1	observe/STIM_018.jpg	100
972.127	1.267	1267.2	observe	Run1	observe/STIM_018.jpg	99
976.823	1.052	1051.5	observe	Run1	observe/STIM_018.jpg	100
981.211	1.104	1104.4	observe	Run1	observe/STIM_019.jpg	100
986.196	1.47	1469.6	observe	Run1	observe/STIM_019.jpg	99
991.598	1.462	1461.5	observe	Run1	observe/STIM_019.jpg	100
996.686	1.154	1154.3	observe	Run1	observe/STIM_019.jpg	99
1000.03	2.209	2208.7	regulate	Run2	regulate/STIM_000.jpg	100
1005.259	2.482	2481.9	regulate	Run2	regulate/STIM_000.jpg	99
1011.132	2.565	2565.4	regulate	Run2	regulate/STIM_000.jpg	99
1016.393	1.256	1256.2	regulate	Run2	regulate/STIM_000.jpg	99
1021.023	2.832	2832.0	regulate	Run2	regulate/STIM_001.jpg	99
1025.892	1.589	1589.1	regulate	Run2	regulate/STIM_001.jpg	99
1031.418	1.441	1441.3	regulate	Run2	regulate/STIM_001.jpg	99
1035.324	2.258	2258.4	regulate	Run2	regulate/STIM_001.jpg	100
1041.395	2.183	2183.4	regulate	Run2	regulate/STIM_002.jpg	99
1046.192	2.504	2503.5	regulate	Run2	regulate/STIM_002.jpg	100
1051.522	2.677	2676.9	regulate	Run2	regulate/STIM_002.jpg	100
1056.569	1.63	1629.8	regulate	Run2	regulate/STIM_002.jpg	100
1062.192	2.514	2513.5	regulate	Run2	regulate/STIM_003.jpg	100
1066.97	2.11	2110.4	regulate	Run2	regulate/STIM_003.jpg	100
1072.782	2.71	2709.8	regulate	Run2	regulate/STIM_003.jpg	100
1078.765	2.412	2412.3	regulate	Run2	regulate/STIM_003.jpg	99
1083.614	2.595	2595.2	regulate	Run2	regulate/STIM_004.jpg	100
1088.718	2.008	2008.0	regulate	Run2	regulate/STIM_004.jpg	100
1092.815	2.001	2001.4	regulate	Run2	regulate/STIM_004.jpg	100
1098.554	1.43	1430.1	regulate	Run2	regulate/STIM_004.jpg	99
1102.396	1.849	1849.2	regulate	Run2	regulate/STIM_005.jpg	100
1106.734	2.649	2649.0	regulate	Run2	regulate/STIM_005.jpg	99
1113.272	1.977	1976.9	regulate	Run2	regulate/STIM_005.jpg	100
1117.863	2.482	2482.0	regulate	Run2	regulate/STIM_005.jpg	99
1124.09	1.873	1873.1	regulate	Run2	regulate/STIM_006.jpg	99
1128.802	2.726	2725.6	regulate	Run2	regulate/STIM_006.jpg	100
1133.643	2.338	2337.8	regulate	Run2	regulate/STIM_006.jpg	100
1138.832	1.187	1187.0	regulate	Run2	regulate/STIM_006.jpg	99
1142.704	1.678	1677.8	regulate	Run2	regulate/STIM_007.jpg	99
1148.165	1.253	1253.3	regulate	Run2	regulate/STIM_007.jpg	99
1151.896	1.608	1608.1	regulate	Run2	regulate/STIM_007.jpg	99
1156.816	1.572	1571.8	regulate	Run2	regulate/STIM_007.jpg	99
1162.172	2.022	2021.7	regulate	Run2	regulate/STIM_008.jpg	99
1167.881	1.257	1257.4	regulate	Run2	regulate/STIM_008.jpg	99
1172.058	1.703	1702.9	regulate	Run2	regulate/STIM_008.jpg	99
1177.631	1.791	1791.2	regulate	Run2	regulate/STIM_008.jpg	99
1182.558	2.664	2664.5	regulate	Run2	regulate/STIM_009.jpg	99
1188.904	2.603	2602.6	regulate	Run2	regulate/STIM_009.jpg	100
1193.559	2.53	2529.6	regulate	Run2	regulate/STIM_009.jpg	100
1199.18	2.505	2505.3	regulate	Run2	regulate/STIM_009.jpg	100
1203.71	2.104	2104.4	regulate	Run2	regulate/STIM_010.jpg	99
1209.024	2.474	2473.6	regulate	Run2	regulate/STIM_010.jpg	100
1213.631	1.569	1568.7	regulate	Run2	regulate/STIM_010.jpg	100
1218.829	1.284	1284.1	regulate	Run2	regulate/STIM_010.jpg	99
1222.236	2.177	2177.1	regulate	Run2	regulate/STIM_011.jpg	99
1227.614	2.774	2773.5	regulate	Run2	regulate/STIM_011.jpg	99
1232.68	2.046	2045.5	regulate	Run2	regulate/STIM_011.jpg	100
1238.04	1.617	1617.3	regulate	Run2	regulate/STIM_011.jpg	100
1243.12	2.443	2443.4	regulate	Run2	regulate/STIM_012.jpg	100
1247.713	2.85	2849.9	regulate	Run2	regulate/STIM_012.jpg	100
1254.502	1.863	1863.1	regulate	Run2	regulate/STIM_012.jpg	99
1258.649	2.068	2068.3	regulate	Run2	regulate/STIM_012.jpg	100
1264.042	2.876	2876.2	regulate	Run2	regulate/STIM_013.jpg	100
1270.317	2.887	2886.8	regulate	Run2	regulate/STIM_013.jpg	99
1276.663	1.434	1433.8	regulate	Run2	regulate/STIM_013.jpg	99
1281.93	1.787	1786.7	regulate	Run2	regulate/STIM_013.jpg	100
1287.469	2.814	2813.9	regulate	Run2	regulate/STIM_014.jpg	99
1294.0	1.938	1937.7	regulate	Run2	regulate/STIM_014.jpg	99
1299.051	2.064	2063.6	regulate	Run2	regulate/STIM_014.jpg	99
1304.93	1.896	1895.5	regulate	Run2	regulate/STIM_014.jpg	100
1309.506	1.598	1597.5	regulate	Run2	regulate/STIM_015.jpg	100
1314.217	1.516	1515.7	regulate	Run2	regulate/STIM_015.jpg	100
1319.683	1.525	1525.4	regulate	Run2	regulate/STIM_015.jpg	100
1323.462	2.463	2462.6	regulate	Run2	regulate/STIM_015.jpg	99
1329.686	1.836	1836.4	regulate	Run2	regulate/STIM_016.jpg	99
1334.561	1.559	1558.9	regulate	Run2	regulate/STIM_016.jpg	100
1338.795	1.646	1646.5	regulate	Run2	regulate/STIM_016.jpg	100
1342.749	2.229	2228.6	regulate	Run2	regulate/STIM_016.jpg	100
1348.757	2.09	2090.2	regulate	Run2	regulate/STIM_017.jpg	99
1353.821	2.363	2362.7	regulate	Run2	regulate/STIM_017.jpg	99
1360.109	2.411	2411.0	regulate	Run2	regulate/STIM_017.jpg	100
1366.474	1.104	1103.7	regulate	Run2	regulate/STIM_017.jpg	99
1370.806	1.395	1394.6	regulate	Run2	regulate/STIM_018.jpg	100
1375.162	2.156	2155.8	regulate	Run2	regulate/STIM_018.jpg	99
1380.089	1.745	1744.8	regulate	Run2	regulate/STIM_018.jpg	99
1385.563	1.562	1561.8	regulate	Run2	regulate/STIM_018.jpg	99
1389.219	1.976	1976.2	regulate	Run2	regulate/STIM_019.jpg	99
1393.642	2.138	2138.1	regulate	Run2	regulate/STIM_019.jpg	100
1399.607	2.613	2613.1	regulate	Run2	regulate/STIM_019.jpg	99
1405.899	1.747	1747.4	regulate	Run2	regulate/STIM_019.jpg	99
1410.28	1.607	1607.0	regulate	Run2	regulate/STIM_020.jpg	100
1415.545	2.819	2819.4	regulate	Run2	regulate/STIM_020.jpg	100
1421.066	2.314	2313.6	regulate	Run2	regulate/STIM_020.jpg	100
1425.936	2.487	2486.6	regulate	Run2	regulate/STIM_020.jpg	99
1431.83	2.742	2742.5	regulate	Run2	regulate/STIM_021.jpg	100
1437.989	2.394	2394.0	regulate	Run2	regulate/STIM_021.jpg	100
1443.348	1.183	1182.8	regulate	Run2	regulate/STIM_021.jpg	100
1446.972	1.835	1834.9	regulate	Run2	regulate/STIM_021.jpg	99
1452.188	2.056	2055.6	regulate	Run2	regulate/STIM_022.jpg	100
1457.276	2.6	2600.3	regulate	Run2	regulate/STIM_022.jpg	99
1463.045	1.983	1983.2	regulate	Run2	regulate/STIM_022.jpg	100
1468.678	1.98	1980.1	regulate	Run2	regulate/STIM_022.jpg	99
1474.006	1.908	1907.9	regulate	Run2	regulate/STIM_023.jpg	99
1479.108	1.338	1337.9	regulate	Run2	regulate/STIM_023.jpg	100
1484.304	2.548	2548.1	regulate	Run2	regulate/STIM_023.jpg	99
1489.04	2.424	2424.1	regulate	Run2	regulate/STIM_023.jpg	99
1493.818	2.583	2582.8	regulate	Run2	regulate/STIM_024.jpg	100
1500.15	1.576	1575.6	regulate	Run2	regulate/STIM_024.jpg	99
1504.001	2.463	2463.4	regulate	Run2	regulate/STIM_024.jpg	99
1509.205	2.355	2354.6	regulate	Run2	regulate/STIM_024.jpg	100
1514.586	1.67	1670.1	regulate	Run2	regulate/STIM_025.jpg	99
1518.533	1.752	1751.5	regulate	Run2	regulate/STIM_025.jpg	99
1522.986	1.515	1514.6	regulate	Run2	regulate/STIM_025.jpg	99
1526.713	2.508	2507.6	regulate	Run2	regulate/STIM_025.jpg	99
1532.498	1.521	1521.1	regulate	Run2	regulate/STIM_026.jpg	99
1537.509	1.547	1546.7	regulate	Run2	regulate/STIM_026.jpg	100
1542.449	1.935	1934.6	regulate	Run2	regulate/STIM_026.jpg	100
1547.767	1.516	1515.7	regulate	Run2	regulate/STIM_026.jpg	100
1552.874	2.821	2821.2	regulate	Run2	regulate/STIM_027.jpg	99
1559.279	2.745	2745.0	regulate	Run2	regulate/STIM_027.jpg	100
1565.28	1.474	1473.9	regulate	Run2	regulate/STIM_027.jpg	100
1570.087	1.835	1834.6	regulate	Run2	regulate/STIM_027.jpg	100
1574.112	1.537	1537.1	regulate	Run2	regulate/STIM_028.jpg	100
1577.89	1.554	1554.0	regulate	Run2	regulate/STIM_028.jpg	99
1581.665	2.606	2606.5	regulate	Run2	regulate/STIM_028.jpg	100
1586.895	1.695	1695.0	regulate	Run2	regulate/STIM_028.jpg	99
1591.476	2.512	2512.0	regulate	Run2	regulate/STIM_029.jpg	99
1596.362	1.335	1335.4	regulate	Run2	regulate/STIM_029.jpg	100
1600.357	2.238	2237.8	regulate	Run2	regulate/STIM_029.jpg	100
1604.819	2.207	2207.2	regulate	Run2	regulate/STIM_029.jpg	100
1610.018	1.049	1048.8	observe	Run2	observe/STIM_000.jpg	100
1614.783	0.871	870.8	observe	Run2	observe/STIM_000.jpg	99
1618.722	1.032	1032.5	observe	Run2	observe/STIM_000.jpg	99
1621.919	1.123	1122.7	observe	Run2	observe/STIM_000.jpg	100
1625.128	1.324	1324.3	observe	Run2	observe/STIM_001.jpg	100
1630.151	1.398	1398.1	observe	Run2	observe/STIM_001.jpg	100
1635.524	0.993	993.1	observe	Run2	observe/STIM_001.jpg	100
1640.027	0.867	867.3	observe	Run2	observe/STIM_001.jpg	99
1644.684	1.088	1087.9	observe	Run2	observe/STIM_002.jpg	99
1648.581	1.396	1396.1	observe	Run2	observe/STIM_002.jpg	100
1652.14	1.558	1557.5	observe	Run2	observe/STIM_002.jpg	100
1656.772	1.084	1084.1	observe	Run2	observe/STIM_002.jpg	99
1660.97	0.91	909.7	observe	Run2	observe/STIM_003.jpg	99
1665.687	1.375	1374.7	observe	Run2	observe/STIM_003.jpg	100
1669.781	1.653	1653.0	observe	Run2	observe/STIM_003.jpg	100
1675.034	1.243	1243.2	observe	Run2	observe/STIM_003.jpg	99
1678.54	1.576	1575.8	observe	Run2	observe/STIM_004.jpg	100
1684.054	1.201	1200.6	observe	Run2	observe/STIM_004.jpg	99
1688.913	1.075	1074.8	observe	Run2	observe/STIM_004.jpg	100
1692.577	0.924	924.5	observe	Run2	observe/STIM_004.jpg	99
1697.482	0.854	854.4	observe	Run2	observe/STIM_005.jpg	99
1701.188	1.449	1448.9	observe	Run2	observe/STIM_005.jpg	100
1705.503	0.869	868.6	observe	Run2	observe/STIM_005.jpg	100
1709.058	1.481	1481.4	observe	Run2	observe/STIM_005.jpg	99
1714.526	1.209	1209.4	observe	Run2	observe/STIM_006.jpg	99
1718.993	0.845	844.9	observe	Run2	observe/STIM_006.jpg	100
1723.546	1.605	1605.2	observe	Run2	observe/STIM_006.jpg	100
1728.484	0.978	977.7	observe	Run2	observe/STIM_006.jpg	99
1733.094	1.056	1055.8	observe	Run2	observe/STIM_007.jpg	99
1737.85	1.122	1122.5	observe	Run2	observe/STIM_007.jpg	99
1742.786	1.432	1432.2	observe	Run2	observe/STIM_007.jpg	99
1747.191	1.503	1503.4	observe	Run2	observe/STIM_007.jpg	99
1752.446	0.837	836.7	observe	Run2	observe/STIM_008.jpg	99
1755.806	1.236	1235.7	observe	Run2	observe/STIM_008.jpg	99
1759.676	1.633	1633.0	observe	Run2	observe/STIM_008.jpg	99
1764.21	0.854	854.5	observe	Run2	observe/STIM_008.jpg	100
1768.048	1.009	1009.2	observe	Run2	observe/STIM_009.jpg	100
1772.593	1.07	1070.3	observe	Run2	observe/STIM_009.jpg	99
1777.443	1.606	1606.2	observe	Run2	observe/STIM_009.jpg	99
1781.949	1.244	1243.7	observe	Run2	observe/STIM_009.jpg	99
1785.603	1.336	1335.7	observe	Run2	observe/STIM_010.jpg	99
1789.579	1.57	1569.9	observe	Run2	observe/STIM_010.jpg	99
1794.732	1.452	1451.7	observe	Run2	observe/STIM_010.jpg	99
1798.988	1.274	1274.5	observe	Run2	observe/STIM_010.jpg	100
1803.442	1.084	1084.3	observe	Run2	observe/STIM_011.jpg	99
1807.575	1.352	1352.2	observe	Run2	observe/STIM_011.jpg	99
1812.752	0.918	918.3	observe	Run2	observe/STIM_011.jpg	100
1816.627	1.041	1041.3	observe	Run2	observe/STIM_011.jpg	100
1819.737	1.49	1490.4	observe	Run2	observe/STIM_012.jpg	99
1824.999	1.245	1244.8	observe	Run2	observe/STIM_012.jpg	100
1828.501	1.377	1377.4	observe	Run2	observe/STIM_012.jpg	99
1831.976	1.343	1343.2	observe	Run2	observe/STIM_012.jpg	99
1835.604	1.326	1326.2	observe	Run2	observe/STIM_013.jpg	100
1839.101	1.578	1577.9	observe	Run2	observe/STIM_013.jpg	100
1843.605	1.381	1381.1	observe	Run2	observe/STIM_013.jpg	99
1847.487	0.936	936.3	observe	Run2	observe/STIM_013.jpg	100
1851.932	1.237	1237.4	observe	Run2	observe/STIM_014.jpg	100
1857.05	1.603	1602.9	observe	Run2	observe/STIM_014.jpg	99
1861.315	1.642	1642.2	observe	Run2	observe/STIM_014.jpg	99
1865.554	1.148	1147.7	observe	Run2	observe/STIM_014.jpg	100
1869.1	1.643	1642.6	observe	Run2	observe/STIM_015.jpg	100
1874.474	1.087	1087.2	observe	Run2	observe/STIM_015.jpg	100
1878.062	1.033	1033.1	observe	Run2	observe/STIM_015.jpg	100
1882.905	1.303	1303.2	observe	Run2	observe/STIM_015.jpg	100
1887.227	1.134	1134.0	observe	Run2	observe/STIM_016.jpg	99
1891.287	1.178	1177.7	observe	Run2	observe/STIM_016.jpg	100
1895.518	0.944	944.1	observe	Run2	observe/STIM_016.jpg	100
1900.405	0.959	959.1	observe	Run2	observe/STIM_016.jpg	100
1903.891	1.586	1586.2	observe	Run2	observe/STIM_017.jpg	100
1908.749	1.539	1539.3	observe	Run2	observe/STIM_017.jpg	99
1912.332	1.623	1623.4	observe	Run2	observe/STIM_017.jpg	99
1916.07	1.329	1329.1	observe	Run2	observe/STIM_017.jpg	99
1921.034	1.132	1131.6	observe	Run2	observe/STIM_018.jpg	100
1925.595	1.376	1375.7	observe	Run2	observe/STIM_018.jpg	99
1929.447	0.858	858.2	observe	Run2	observe/STIM_018.jpg	100
1933.229	0.853	853.0	observe	Run2	observe/STIM_018.jpg	100
1937.648	1.308	1308.1	observe	Run2	observe/STIM_019.jpg	100
1941.005	0.99	989.9	observe	Run2	observe/STIM_019.jpg	99
1944.501	1.32	1320.5	observe	Run2	observe/STIM_019.jpg	100
1949.547	1.435	1434.8	observe	Run2	observe/STIM_019.jpg	100
1954.891	2.36	2359.5	regulate	Run3	regulate/STIM_000.jpg	99
1959.572	1.79	1790.0	regulate	Run3	regulate/STIM_000.jpg	99
1964.159	1.642	1642.4	regulate	Run3	regulate/STIM_000.jpg	100
1969.035	1.786	1785.8	regulate	Run3	regulate/STIM_000.jpg	100
1973.829	1.675	1674.8	regulate	Run3	regulate/STIM_001.jpg	99
1977.913	1.435	1434.6	regulate	Run3	regulate/STIM_001.jpg	100
1981.507	1.118	1118.4	regulate	Run3	regulate/STIM_001.jpg	99
1986.02	1.872	1871.5	regulate	Run3	regulate/STIM_001.jpg	100
1991.312	1.17	1169.9	regulate	Run3	regulate/STIM_002.jpg	100
1996.026	1.228	1228.1	regulate	Run3	regulate/STIM_002.jpg	99
2000.182	1.954	1954.0	regulate	Run3	regulate/STIM_002.jpg	100
2005.677	2.161	2161.1	regulate	Run3	regulate/STIM_002.jpg	99
2010.457	1.88	1879.5	regulate	Run3	regulate/STIM_003.jpg	100
2015.204	1.665	1665.3	regulate	Run3	regulate/STIM_003.jpg	100
2020.038	1.627	1626.8	regulate	Run3	regulate/STIM_003.jpg	99
2024.62	1.498	1497.7	regulate	Run3	regulate/STIM_003.jpg	100
2029.246	1.304	1304.3	regulate	Run3	regulate/STIM_004.jpg	100
2033.491	1.996	1996.2	regulate	Run3	regulate/STIM_004.jpg	100
2038.587	2.29	2289.7	regulate	Run3	regulate/STIM_004.jpg	99
2044.362	1.446	1445.9	regulate	Run3	regulate/STIM_004.jpg	100
2048.535	2.262	2262.4	regulate	Run3	regulate/STIM_005.jpg	99
2053.409	1.726	1725.6	regulate	Run3	regulate/STIM_005.jpg	99
2057.252	1.941	1940.7	regulate	Run3	regulate/STIM_005.jpg	99
2062.337	2.345	2345.1	regulate	Run3	regulate/STIM_005.jpg	100
2067.918	2.351	2351.0	regulate	Run3	regulate/STIM_006.jpg	99
2072.387	1.7	1700.5	regulate	Run3	regulate/STIM_006.jpg	99
2077.269	1.395	1395.3	regulate	Run3	regulate/STIM_006.jpg	99
2082.465	2.149	2149.4	regulate	Run3	regulate/STIM_006.jpg	100
2088.511	1.784	1784.5	regulate	Run3	regulate/STIM_007.jpg	99
2092.773	1.657	1657.1	regulate	Run3	regulate/STIM_007.jpg	100
2097.43	2.029	2028.6	regulate	Run3	regulate/STIM_007.jpg	100
2103.173	2.246	2246.1	regulate	Run3	regulate/STIM_007.jpg	100
2108.751	2.35	2349.9	regulate	Run3	regulate/STIM_008.jpg	99
2113.989	2.09	2090.2	regulate	Run3	regulate/STIM_008.jpg	100
2119.027	1.745	1745.0	regulate	Run3	regulate/STIM_008.jpg	100
2124.01	1.874	1874.2	regulate	Run3	regulate/STIM_008.jpg	100
2128.823	1.586	1586.0	regulate	Run3	regulate/STIM_009.jpg	99
2133.352	2.109	2108.8	regulate	Run3	regulate/STIM_009.jpg	100
2139.226	1.702	1702.5	regulate	Run3	regulate/STIM_009.jpg	99
2143.948	1.108	1108.0	regulate	Run3	regulate/STIM_009.jpg	99
2148.955	1.254	1253.5	regulate	Run3	regulate/STIM_010.jpg	100
2152.487	1.871	1871.2	regulate	Run3	regulate/STIM_010.jpg	100
2156.647	2.476	2476.3	regulate	Run3	regulate/STIM_010.jpg	99
2161.364	2.298	2297.8	regulate	Run3	regulate/STIM_010.jpg	99
2166.165	1.34	1339.5	regulate	Run3	regulate/STIM_011.jpg	99
2171.462	2.398	2398.3	regulate	Run3	regulate/STIM_011.jpg	99
2177.378	2.132	2131.9	regulate	Run3	regulate/STIM_011.jpg	100
2181.871	1.695	1695.0	regulate	Run3	regulate/STIM_011.jpg	99
2187.449	1.102	1102.5	regulate	Run3	regulate/STIM_012.jpg	99
2192.234	2.141	2141.2	regulate	Run3	regulate/STIM_012.jpg	100
2197.521	1.964	1963.6	regulate	Run3	regulate/STIM_012.jpg	100
2203.252	1.875	1875.3	regulate	Run3	regulate/STIM_012.jpg	100
2207.869	1.385	1385.3	regulate	Run3	regulate/STIM_013.jpg	99
2212.792	1.591	1591.0	regulate	Run3	regulate/STIM_013.jpg	100
2218.362	1.151	1151.4	regulate	Run3	regulate/STIM_013.jpg	99
2222.856	2.4	2399.7	regulate	Run3	regulate/STIM_013.jpg	100
2228.175	1.667	1667.1	regulate	Run3	regulate/STIM_014.jpg	99
2232.965	2.118	2118.0	regulate	Run3	regulate/STIM_014.jpg	99
2238.773	1.256	1255.8	regulate	Run3	regulate/STIM_014.jpg	99
2243.153	2.459	2459.1	regulate	Run3	regulate/STIM_014.jpg	100
2248.236	2.542	2541.8	regulate	Run3	regulate/STIM_015.jpg	99
2253.558	1.683	1683.2	regulate	Run3	regulate/STIM_015.jpg	99
2258.93	1.794	1793.8	regulate	Run3	regulate/STIM_015.jpg	100
2263.944	1.527	1527.1	regulate	Run3	regulate/STIM_015.jpg	100
2268.796	2.241	2240.7	regulate	Run3	regulate/STIM_016.jpg	100
2274.048	1.728	1728.5	regulate	Run3	regulate/STIM_016.jpg	99
2279.567	2.494	2494.5	regulate	Run3	regulate/STIM_016.jpg	99
2284.338	1.853	1853.0	regulate	Run3	regulate/STIM_016.jpg	100
2289.187	2.0	2000.3	regulate	Run3	regulate/STIM_017.jpg	99
2295.059	2.05	2049.9	regulate	Run3	regulate/STIM_017.jpg	100
2299.709	2.521	2520.7	regulate	Run3	regulate/STIM_017.jpg	100
2304.386	1.543	1543.1	regulate	Run3	regulate/STIM_017.jpg	100
2309.722	2.292	2292.3	regulate	Run3	regulate/STIM_018.jpg	99
2315.511	2.531	2530.9	regulate	Run3	regulate/STIM_018.jpg	100
2320.928	2.401	2400.6	regulate	Run3	regulate/STIM_018.jpg	100
2326.131	1.234	1233.9	regulate	Run3	regulate/STIM_018.jpg	99
2330.09	1.48	1480.5	regulate	Run3	regulate/STIM_019.jpg	100
2335.063	2.094	2093.7	regulate	Run3	regulate/STIM_019.jpg	99
2339.806	1.827	1827.3	regulate	Run3	regulate/STIM_019.jpg	99
2344.936	2.428	2428.3	regulate	Run3	regulate/STIM_019.jpg	100
2349.604	2.352	2352.3	regulate	Run3	regulate/STIM_020.jpg	100
2354.73	2.164	2163.9	regulate	Run3	regulate/STIM_020.jpg	99
2360.151	1.334	1333.7	regulate	Run3	regulate/STIM_020.jpg	99
2364.525	1.186	1186.2	regulate	Run3	regulate/STIM_020.jpg	99
2368.612	1.597	1596.8	regulate	Run3	regulate/STIM_021.jpg	100
2372.756	2.155	2155.2	regulate	Run3	regulate/STIM_021.jpg	100
2378.617	2.344	2343.6	regulate	Run3	regulate/STIM_021.jpg	99
2384.354	1.178	1177.5	regulate	Run3	regulate/STIM_021.jpg	99
2387.598	1.999	1998.9	regulate	Run3	regulate/STIM_022.jpg	99
2392.618	2.404	2403.6	regulate	Run3	regulate/STIM_022.jpg	100
2398.723	1.578	1577.5	regulate	Run3	regulate/STIM_022.jpg	99
2403.53	1.714	1714.5	regulate	Run3	regulate/STIM_022.jpg	99
2408.089	1.282	1281.5	regulate	Run3	regulate/STIM_023.jpg	99
2412.316	2.218	2218.0	regulate	Run3	regulate/STIM_023.jpg	100
2416.843	1.426	1425.5	regulate	Run3	regulate/STIM_023.jpg	99
2420.583	1.226	1226.2	regulate	Run3	regulate/STIM_023.jpg	99
2425.215	1.228	1227.5	regulate	Run3	regulate/STIM_024.jpg	99
2430.208	2.2	2200.4	regulate	Run3	regulate/STIM_024.jpg	100
2435.91	1.316	1315.7	regulate	Run3	regulate/STIM_024.jpg	99
2441.123	2.514	2513.9	regulate	Run3	regulate/STIM_024.jpg	99
2447.01	2.046	2045.5	regulate	Run3	regulate/STIM_025.jpg	99
2452.617	1.673	1673.4	regulate	Run3	regulate/STIM_025.jpg	100
2457.613	2.128	2127.7	regulate	Run3	regulate/STIM_025.jpg	99
2463.673	1.502	1502.4	regulate	Run3	regulate/STIM_025.jpg	99
2467.285	1.54	1540.3	regulate	Run3	regulate/STIM_026.jpg	100
2472.43	1.476	1476.0	regulate	Run3	regulate/STIM_026.jpg	99
2477.766	1.251	1251.4	regulate	Run3	regulate/STIM_026.jpg	100
2481.987	1.96	1959.5	regulate	Run3	regulate/STIM_026.jpg	99
2487.638	2.281	2281.0	regulate	Run3	regulate/STIM_027.jpg	99
2492.63	1.822	1822.3	regulate	Run3	regulate/STIM_027.jpg	99
2498.412	2.337	2337.3	regulate	Run3	regulate/STIM_027.jpg	99
2504.109	2.516	2516.1	regulate	Run3	regulate/STIM_027.jpg	99
2509.241	1.145	1145.0	regulate	Run3	regulate/STIM_028.jpg	100
2512.778	1.219	1219.3	regulate	Run3	regulate/STIM_028.jpg	100
2517.149	1.14	1140.4	regulate	Run3	regulate/STIM_028.jpg	100
2520.939	1.536	1536.3	regulate	Run3	regulate/STIM_028.jpg	100
2525.41	1.498	1498.3	regulate	Run3	regulate/STIM_029.jpg	100
2529.583	1.757	1757.0	regulate	Run3	regulate/STIM_029.jpg	100
2534.735	2.234	2234.0	regulate	Run3	regulate/STIM_029.jpg	100
2540.092	1.35	1349.9	regulate	Run3	regulate/STIM_029.jpg	100
2544.071	1.101	1101.0	observe	Run3	observe/STIM_000.jpg	100
2547.654	0.951	951.3	observe	Run3	observe/STIM_000.jpg	99
2551.219	0.937	937.4	observe	Run3	observe/STIM_000.jpg	99
2555.69	0.962	962.2	observe	Run3	observe/STIM_000.jpg	99
2558.804	0.945	945.2	observe	Run3	observe/STIM_001.jpg	100
2563.701	0.932	932.2	observe	Run3	observe/STIM_001.jpg	100
2567.565	1.438	1438.0	observe	Run3	observe/STIM_001.jpg	100
2571.313	1.107	1106.9	observe	Run3	observe/STIM_001.jpg	100
2575.82	0.947	946.6	observe	Run3	observe/STIM_002.jpg	99
2580.751	1.08	1080.3	observe	Run3	observe/STIM_002.jpg	99
2584.474	0.855	854.8	observe	Run3	observe/STIM_002.jpg	99
2589.048	0.979	979.1	observe	Run3	observe/STIM_002.jpg	99
2592.984	1.358	1358.2	observe	Run3	observe/STIM_003.jpg	99
2597.829	1.351	1351.0	observe	Run3	observe/STIM_003.jpg	100
2601.589	1.624	1624.5	observe	Run3	observe/STIM_003.jpg	100
2605.508	1.518	1518.5	observe	Run3	observe/STIM_003.jpg	100
2610.989	1.052	1051.6	observe	Run3	observe/STIM_004.jpg	99
2615.619	1.597	1596.7	observe	Run3	observe/STIM_004.jpg	100
2620.429	1.224	1224.1	observe	Run3	observe/STIM_004.jpg	99
2625.415	1.046	1046.1	observe	Run3	observe/STIM_004.jpg	100
2629.329	1.344	1343.5	observe	Run3	observe/STIM_005.jpg	99
2633.322	1.065	1065.1	observe	Run3	observe/STIM_005.jpg	100
2636.835	1.438	1438.5	observe	Run3	observe/STIM_005.jpg	99
2640.615	0.884	883.5	observe	Run3	observe/STIM_005.jpg	99
2644.178	1.261	1261.3	observe	Run3	observe/STIM_006.jpg	99
2648.83	1.311	1310.8	observe	Run3	observe/STIM_006.jpg	100
2652.349	1.438	1437.8	observe	Run3	observe/STIM_006.jpg	99
2655.805	1.153	1153.4	observe	Run3	observe/STIM_006.jpg	99
2659.506	1.353	1352.6	observe	Run3	observe/STIM_007.jpg	99
2664.714	1.62	1619.9	observe	Run3	observe/STIM_007.jpg	100
2668.468	1.391	1391.3	observe	Run3	observe/STIM_007.jpg	100
2672.382	1.609	1609.0	observe	Run3	observe/STIM_007.jpg	100
2677.987	1.608	1608.2	observe	Run3	observe/STIM_008.jpg	100
2683.411	1.569	1569.3	observe	Run3	observe/STIM_008.jpg	100
2688.518	1.256	1255.9	observe	Run3	observe/STIM_008.jpg	100
2692.435	1.411	1411.2	observe	Run3	observe/STIM_008.jpg	99
2696.953	1.383	1382.7	observe	Run3	observe/STIM_009.jpg	99
2700.629	1.625	1625.3	observe	Run3	observe/STIM_009.jpg	99
2706.204	1.033	1032.8	observe	Run3	observe/STIM_009.jpg	99
2709.383	1.288	1287.9	observe	Run3	observe/STIM_009.jpg	100
2714.454	1.315	1315.4	observe	Run3	observe/STIM_010.jpg	100
2718.377	1.056	1056.3	observe	Run3	observe/STIM_010.jpg	100
2721.742	1.394	1394.1	observe	Run3	observe/STIM_010.jpg	99
2725.174	1.548	1548.3	observe	Run3	observe/STIM_010.jpg	100
2729.219	1.181	1181.2	observe	Run3	observe/STIM_011.jpg	99
2733.486	0.983	982.7	observe	Run3	observe/STIM_011.jpg	100
2738.009	1.198	1197.7	observe	Run3	observe/STIM_011.jpg	100
2741.239	1.455	1455.2	observe	Run3	observe/STIM_011.jpg	100
2745.37	1.661	1660.7	observe	Run3	observe/STIM_012.jpg	100
2749.339	1.026	1026.3	observe	Run3	observe/STIM_012.jpg	100
2754.161	1.625	1624.7	observe	Run3	observe/STIM_012.jpg	100
2759.665	1.316	1315.9	observe	Run3	observe/STIM_012.jpg	100
2763.169	0.93	930.1	observe	Run3	observe/STIM_013.jpg	100
2767.702	1.05	1049.9	observe	Run3	observe/STIM_013.jpg	99
2772.435	0.993	993.4	observe	Run3	observe/STIM_013.jpg	99
2777.015	0.974	973.6	observe	Run3	observe/STIM_013.jpg	99
2781.14	1.498	1497.7	observe	Run3	observe/STIM_014.jpg	100
2785.504	1.083	1082.8	observe	Run3	observe/STIM_014.jpg	99
2790.566	1.22	1219.6	observe	Run3	observe/STIM_014.jpg	100
2794.753	1.144	1144.4	observe	Run3	observe/STIM_014.jpg	100
2798.094	1.077	1077.0	observe	Run3	observe/STIM_015.jpg	99
2801.256	0.933	933.0	observe	Run3	observe/STIM_015.jpg	100
2806.15	1.308	1308.1	observe	Run3	observe/STIM_015.jpg	99
2809.731	1.38	1380.5	observe	Run3	observe/STIM_015.jpg	100
2814.719	1.481	1480.8	observe	Run3	observe/STIM_016.jpg	99
2818.21	1.376	1375.9	observe	Run3	observe/STIM_016.jpg	100
2822.191	1.138	1138.4	observe	Run3	observe/STIM_016.jpg	99
2825.749	1.05	1049.7	observe	Run3	observe/STIM_016.jpg	99
2829.554	1.519	1518.9	observe	Run3	observe/STIM_017.jpg	99
2834.32	1.066	1065.6	observe	Run3	observe/STIM_017.jpg	100
2839.278	1.106	1106.4	observe	Run3	observe/STIM_017.jpg	100
2844.033	1.611	1611.0	observe	Run3	observe/STIM_017.jpg	100
2848.657	0.84	839.9	observe	Run3	observe/STIM_018.jpg	99
2852.248	0.95	950.0	observe	Run3	observe/STIM_018.jpg	100
2855.707	1.346	1346.2	observe	Run3	observe/STIM_018.jpg	100
2860.694	1.276	1276.5	observe	Run3	observe/STIM_018.jpg	100
2865.43	1.092	1091.9	observe	Run3	observe/STIM_019.jpg	100
2869.501	1.147	1147.3	observe	Run3	observe/STIM_019.jpg	100
2873.16	1.096	1096.2	observe	Run3	observe/STIM_019.jpg	99
2877.436	1.142	1141.8	observe	Run3	observe/STIM_019.jpg	100
