onset	duration	accuracy_binary	trial_type	learning_stage	stimulus
0.0	1.875	1	regulate	Run1	regulate/STIM_000.jpg
5.776	2.885	1	regulate	Run1	regulate/STIM_000.jpg
12.097	3.104	0	regulate	Run1	regulate/STIM_000.jpg
17.946	1.664	0	regulate	Run1	regulate/STIM_000.jpg
22.513	2.409	1	regulate	Run1	regulate/STIM_001.jpg
27.552	1.77	1	regulate	Run1	regulate/STIM_001.jpg
32.707	2.164	1	regulate	Run1	regulate/STIM_001.jpg
36.88	1.572	1	regulate	Run1	regulate/STIM_001.jpg
41.201	3.155	1	regulate	Run1	regulate/STIM_002.jpg
47.698	1.562	1	regulate	Run1	regulate/STIM_002.jpg
52.324	1.797	1	regulate	Run1	regulate/STIM_002.jpg
56.375	2.175	1	regulate	Run1	regulate/STIM_002.jpg
60.648	3.598	1	regulate	Run1	regulate/STIM_003.jpg
67.567	2.086	1	regulate	Run1	regulate/STIM_003.jpg
73.443	3.108	1	regulate	Run1	regulate/STIM_003.jpg
78.75	2.998	1	regulate	Run1	regulate/STIM_003.jpg
85.42	3.515	0	regulate	Run1	regulate/STIM_004.jpg
92.45	2.396	1	regulate	Run1	regulate/STIM_004.jpg
97.435	3.031	1	regulate	Run1	regulate/STIM_004.jpg
103.828	2.489	1	regulate	Run1	regulate/STIM_004.jpg
109.209	2.679	1	regulate	Run1	regulate/STIM_005.jpg
115.33	3.048	1	regulate	Run1	regulate/STIM_005.jpg
120.951	1.864	1	regulate	Run1	regulate/STIM_005.jpg
126.163	2.084	1	regulate	Run1	regulate/STIM_005.jpg
130.666	1.86	1	regulate	Run1	regulate/STIM_006.jpg
136.522	2.249	0	regulate	Run1	regulate/STIM_006.jpg
141.509	2.794	1	regulate	Run1	regulate/STIM_006.jpg
148.226	3.063	1	regulate	Run1	regulate/STIM_006.jpg
153.498	2.313	1	regulate	Run1	regulate/STIM_007.jpg
159.225	1.941	1	regulate	Run1	regulate/STIM_007.jpg
165.017	3.157	1	regulate	Run1	regulate/STIM_007.jpg
171.195	2.995	1	regulate	Run1	regulate/STIM_007.jpg
177.533	3.144	1	regulate	Run1	regulate/STIM_008.jpg
183.767	1.493	1	regulate	Run1	regulate/STIM_008.jpg
187.921	1.772	1	regulate	Run1	regulate/STIM_008.jpg
193.004	3.059	1	regulate	Run1	regulate/STIM_008.jpg
199.641	2.962	1	regulate	Run1	regulate/STIM_009.jpg
205.427	2.299	1	regulate	Run1	regulate/STIM_009.jpg
211.611	2.746	1	regulate	Run1	regulate/STIM_009.jpg
217.864	2.388	1	regulate	Run1	regulate/STIM_009.jpg
224.208	2.219	1	regulate	Run1	regulate/STIM_010.jpg
229.721	1.54	1	regulate	Run1	regulate/STIM_010.jpg
234.627	3.073	1	regulate	Run1	regulate/STIM_010.jpg
240.508	1.717	0	regulate	Run1	regulate/STIM_010.jpg
245.399	3.574	0	regulate	Run1	regulate/STIM_011.jpg
252.441	2.029	1	regulate	Run1	regulate/STIM_011.jpg
258.145	1.936	1	regulate	Run1	regulate/STIM_011.jpg
262.74	1.345	1	regulate	Run1	regulate/STIM_011.jpg
267.038	3.46	1	regulate	Run1	regulate/STIM_012.jpg
274.061	1.95	1	regulate	Run1	regulate/STIM_012.jpg
278.995	1.503	1	regulate	Run1	regulate/STIM_012.jpg
284.296	1.696	1	regulate	Run1	regulate/STIM_012.jpg
288.495	3.046	0	regulate	Run1	regulate/STIM_013.jpg
295.505	3.067	1	regulate	Run1	regulate/STIM_013.jpg
301.96	2.396	1	regulate	Run1	regulate/STIM_013.jpg
308.206	1.923	1	regulate	Run1	regulate/STIM_013.jpg
313.044	2.233	1	regulate	Run1	regulate/STIM_014.jpg
319.148	3.025	1	regulate	Run1	regulate/STIM_014.jpg
325.506	2.771	0	regulate	Run1	regulate/STIM_014.jpg
331.736	2.655	1	regulate	Run1	regulate/STIM_014.jpg
336.416	2.206	1	regulate	Run1	regulate/STIM_015.jpg
341.212	1.664	1	regulate	Run1	regulate/STIM_015.jpg
345.075	2.63	1	regulate	Run1	regulate/STIM_015.jpg
350.916	2.257	1	regulate	Run1	regulate/STIM_015.jpg
355.176	2.205	1	regulate	Run1	regulate/STIM_016.jpg
359.875	1.577	0	regulate	Run1	regulate/STIM_016.jpg
364.002	1.678	0	regulate	Run1	regulate/STIM_016.jpg
367.802	2.242	0	regulate	Run1	regulate/STIM_016.jpg
372.21	1.593	1	regulate	Run1	regulate/STIM_017.jpg
376.629	3.131	1	regulate	Run1	regulate/STIM_017.jpg
381.877	2.285	1	regulate	Run1	regulate/STIM_017.jpg
387.962	2.982	1	regulate	Run1	regulate/STIM_017.jpg
393.984	1.588	1	regulate	Run1	regulate/STIM_018.jpg
399.307	2.892	1	regulate	Run1	regulate/STIM_018.jpg
406.169	2.659	1	regulate	Run1	regulate/STIM_018.jpg
411.935	3.024	1	regulate	Run1	regulate/STIM_018.jpg
417.31	2.418	1	regulate	Run1	regulate/STIM_019.jpg
423.51	3.171	1	regulate	Run1	regulate/STIM_019.jpg
430.568	2.434	1	regulate	Run1	regulate/STIM_019.jpg
435.539	2.807	1	regulate	Run1	regulate/STIM_019.jpg
440.481	2.98	0	regulate	Run1	regulate/STIM_020.jpg
446.831	1.487	0	regulate	Run1	regulate/STIM_020.jpg
450.4	1.67	0	regulate	Run1	regulate/STIM_020.jpg
454.855	1.576	1	regulate	Run1	regulate/STIM_020.jpg
458.602	3.626	1	regulate	Run1	regulate/STIM_021.jpg
464.923	2.756	1	regulate	Run1	regulate/STIM_021.jpg
471.239	2.699	1	regulate	Run1	regulate/STIM_021.jpg
476.412	2.812	1	regulate	Run1	regulate/STIM_021.jpg
482.112	2.71	1	regulate	Run1	regulate/STIM_022.jpg
488.445	1.894	1	regulate	Run1	regulate/STIM_022.jpg
493.218	1.695	0	regulate	Run1	regulate/STIM_022.jpg
498.67	1.512	1	regulate	Run1	regulate/STIM_022.jpg
503.778	3.163	1	regulate	Run1	regulate/STIM_023.jpg
509.632	2.048	1	regulate	Run1	regulate/STIM_023.jpg
515.128	2.999	1	regulate	Run1	regulate/STIM_023.jpg
520.872	2.824	1	regulate	Run1	regulate/STIM_023.jpg
527.417	3.386	1	regulate	Run1	regulate/STIM_024.jpg
534.486	3.239	1	regulate	Run1	regulate/STIM_024.jpg
541.571	2.872	1	regulate	Run1	regulate/STIM_024.jpg
547.836	2.25	1	regulate	Run1	regulate/STIM_024.jpg
553.385	1.591	1	regulate	Run1	regulate/STIM_025.jpg
557.772	2.815	1	regulate	Run1	regulate/STIM_025.jpg
563.012	1.704	1	regulate	Run1	regulate/STIM_025.jpg
566.727	1.378	1	regulate	Run1	regulate/STIM_025.jpg
572.095	2.736	1	regulate	Run1	regulate/STIM_026.jpg
577.23	2.354	1	regulate	Run1	regulate/STIM_026.jpg
581.851	1.483	1	regulate	Run1	regulate/STIM_026.jpg
586.483	2.171	1	regulate	Run1	regulate/STIM_026.jpg
590.849	2.834	1	regulate	Run1	regulate/STIM_027.jpg
596.312	1.838	0	regulate	Run1	regulate/STIM_027.jpg
600.528	1.608	1	regulate	Run1	regulate/STIM_027.jpg
605.334	2.774	1	regulate	Run1	regulate/STIM_027.jpg
611.71	2.14	1	regulate	Run1	regulate/STIM_028.jpg
617.454	2.872	1	regulate	Run1	regulate/STIM_028.jpg
623.465	2.257	1	regulate	Run1	regulate/STIM_028.jpg
628.206	2.624	0	regulate	Run1	regulate/STIM_028.jpg
633.596	3.467	1	regulate	Run1	regulate/STIM_029.jpg
640.621	2.978	1	regulate	Run1	regulate/STIM_029.jpg
647.319	2.156	0	regulate	Run1	regulate/STIM_029.jpg
652.778	1.462	1	regulate	Run1	regulate/STIM_029.jpg
657.904	0.946	1	observe	Run1	observe/STIM_000.jpg
661.987	1.48	1	observe	Run1	observe/STIM_000.jpg
666.529	1.25	1	observe	Run1	observe/STIM_000.jpg
669.853	1.049	1	observe	Run1	observe/STIM_000.jpg
674.142	0.876	1	observe	Run1	observe/STIM_001.jpg
677.876	0.87	1	observe	Run1	observe/STIM_001.jpg
682.601	0.994	1	observe	Run1	observe/STIM_001.jpg
686.065	0.979	1	observe	Run1	observe/STIM_001.jpg
689.069	1.588	1	observe	Run1	observe/STIM_002.jpg
693.823	1.198	1	observe	Run1	observe/STIM_002.jpg
698.288	1.443	1	observe	Run1	observe/STIM_002.jpg
702.264	1.563	0	observe	Run1	observe/STIM_002.jpg
706.165	1.184	1	observe	Run1	observe/STIM_003.jpg
709.707	1.635	1	observe	Run1	observe/STIM_003.jpg
715.268	1.336	1	observe	Run1	observe/STIM_003.jpg
719.384	1.61	1	observe	Run1	observe/STIM_003.jpg
723.722	0.977	1	observe	Run1	observe/STIM_004.jpg
727.348	1.311	1	observe	Run1	observe/STIM_004.jpg
731.896	1.413	1	observe	Run1	observe/STIM_004.jpg
736.468	0.924	1	observe	Run1	observe/STIM_004.jpg
740.337	0.986	1	observe	Run1	observe/STIM_005.jpg
744.64	1.492	1	observe	Run1	observe/STIM_005.jpg
749.354	1.33	1	observe	Run1	observe/STIM_005.jpg
753.947	1.545	1	observe	Run1	observe/STIM_005.jpg
759.12	1.226	0	observe	Run1	observe/STIM_006.jpg
764.036	1.419	1	observe	Run1	observe/STIM_006.jpg
768.952	1.139	1	observe	Run1	observe/STIM_006.jpg
773.959	1.142	1	observe	Run1	observe/STIM_006.jpg
777.506	1.497	1	observe	Run1	observe/STIM_007.jpg
782.611	1.051	1	observe	Run1	observe/STIM_007.jpg
786.963	1.086	1	observe	Run1	observe/STIM_007.jpg
790.219	1.349	1	observe	Run1	observe/STIM_007.jpg
793.615	1.216	1	observe	Run1	observe/STIM_008.jpg
796.852	1.435	1	observe	Run1	observe/STIM_008.jpg
801.897	1.089	1	observe	Run1	observe/STIM_008.jpg
805.001	0.883	1	observe	Run1	observe/STIM_008.jpg
808.176	1.079	1	observe	Run1	observe/STIM_009.jpg
812.442	1.465	1	observe	Run1	observe/STIM_009.jpg
816.002	1.414	1	observe	Run1	observe/STIM_009.jpg
821.103	1.444	1	observe	Run1	observe/STIM_009.jpg
825.712	1.13	1	observe	Run1	observe/STIM_010.jpg
830.07	1.438	1	observe	Run1	observe/STIM_010.jpg
834.695	0.856	1	observe	Run1	observe/STIM_010.jpg
839.439	1.4	1	observe	Run1	observe/STIM_010.jpg
844.111	1.515	1	observe	Run1	observe/STIM_011.jpg
848.631	1.329	1	observe	Run1	observe/STIM_011.jpg
853.667	1.316	1	observe	Run1	observe/STIM_011.jpg
857.238	1.239	1	observe	Run1	observe/STIM_011.jpg
861.952	1.409	1	observe	Run1	observe/STIM_012.jpg
865.987	1.601	1	observe	Run1	observe/STIM_012.jpg
870.724	1.389	1	observe	Run1	observe/STIM_012.jpg
874.533	1.02	1	observe	Run1	observe/STIM_012.jpg
879.203	1.614	1	observe	Run1	observe/STIM_013.jpg
882.925	1.141	1	observe	Run1	observe/STIM_013.jpg
886.276	1.032	1	observe	Run1	observe/STIM_013.jpg
891.008	1.527	1	observe	Run1	observe/STIM_013.jpg
894.869	1.345	1	observe	Run1	observe/STIM_014.jpg
900.122	0.982	1	observe	Run1	observe/STIM_014.jpg
904.015	1.35	1	observe	Run1	observe/STIM_014.jpg
908.416	1.628	1	observe	Run1	observe/STIM_014.jpg
913.526	1.369	1	observe	Run1	observe/STIM_015.jpg
917.418	1.529	1	observe	Run1	observe/STIM_015.jpg
922.348	1.052	0	observe	Run1	observe/STIM_015.jpg
926.002	0.885	1	observe	Run1	observe/STIM_015.jpg
929.501	1.358	1	observe	Run1	observe/STIM_016.jpg
933.685	1.448	0	observe	Run1	observe/STIM_016.jpg
937.746	1.15	0	observe	Run1	observe/STIM_016.jpg
941.915	1.302	1	observe	Run1	observe/STIM_016.jpg
946.327	0.92	1	observe	Run1	observe/STIM_017.jpg
950.438	1.21	1	observe	Run1	observe/STIM_017.jpg
954.596	1.248	1	observe	Run1	observe/STIM_017.jpg
958.187	0.886	1	observe	Run1	observe/STIM_017.jpg
963.049	1.226	1	observe	Run1	observe/STIM_018.jpg
968.209	1.24	1	observe	Run1	observe/STIM_018.jpg
972.127	1.267	1	observe	Run1	observe/STIM_018.jpg
976.823	1.052	1	observe	Run1	observe/STIM_018.jpg
981.211	1.104	1	observe	Run1	observe/STIM_019.jpg
986.196	1.47	0	observe	Run1	observe/STIM_019.jpg
991.598	1.462	1	observe	Run1	observe/STIM_019.jpg
996.686	1.154	1	observe	Run1	observe/STIM_019.jpg
1000.03	2.209	1	regulate	Run2	regulate/STIM_000.jpg
1005.259	2.482	1	regulate	Run2	regulate/STIM_000.jpg
1011.132	2.565	1	regulate	Run2	regulate/STIM_000.jpg
1016.393	1.256	1	regulate	Run2	regulate/STIM_000.jpg
1021.023	2.832	0	regulate	Run2	regulate/STIM_001.jpg
1025.892	1.589	1	regulate	Run2	regulate/STIM_001.jpg
1031.418	1.441	1	regulate	Run2	regulate/STIM_001.jpg
1035.324	2.258	1	regulate	Run2	regulate/STIM_001.jpg
1041.395	2.183	0	regulate	Run2	regulate/STIM_002.jpg
1046.192	2.504	1	regulate	Run2	regulate/STIM_002.jpg
1051.522	2.677	1	regulate	Run2	regulate/STIM_002.jpg
1056.569	1.63	1	regulate	Run2	regulate/STIM_002.jpg
1062.192	2.514	0	regulate	Run2	regulate/STIM_003.jpg
1066.97	2.11	1	regulate	Run2	regulate/STIM_003.jpg
1072.782	2.71	1	regulate	Run2	regulate/STIM_003.jpg
1078.765	2.412	0	regulate	Run2	regulate/STIM_003.jpg
1083.614	2.595	1	regulate	Run2	regulate/STIM_004.jpg
1088.718	2.008	1	regulate	Run2	regulate/STIM_004.jpg
1092.815	2.001	1	regulate	Run2	regulate/STIM_004.jpg
1098.554	1.43	1	regulate	Run2	regulate/STIM_004.jpg
1102.396	1.849	1	regulate	Run2	regulate/STIM_005.jpg
1106.734	2.649	1	regulate	Run2	regulate/STIM_005.jpg
1113.272	1.977	1	regulate	Run2	regulate/STIM_005.jpg
1117.863	2.482	1	regulate	Run2	regulate/STIM_005.jpg
1124.09	1.873	1	regulate	Run2	regulate/STIM_006.jpg
1128.802	2.726	1	regulate	Run2	regulate/STIM_006.jpg
1133.643	2.338	1	regulate	Run2	regulate/STIM_006.jpg
1138.832	1.187	1	regulate	Run2	regulate/STIM_006.jpg
1142.704	1.678	1	regulate	Run2	regulate/STIM_007.jpg
1148.165	1.253	1	regulate	Run2	regulate/STIM_007.jpg
1151.896	1.608	1	regulate	Run2	regulate/STIM_007.jpg
1156.816	1.572	1	regulate	Run2	regulate/STIM_007.jpg
1162.172	2.022	1	regulate	Run2	regulate/STIM_008.jpg
1167.881	1.257	1	regulate	Run2	regulate/STIM_008.jpg
1172.058	1.703	1	regulate	Run2	regulate/STIM_008.jpg
1177.631	1.791	1	regulate	Run2	regulate/STIM_008.jpg
1182.558	2.664	1	regulate	Run2	regulate/STIM_009.jpg
1188.904	2.603	1	regulate	Run2	regulate/STIM_009.jpg
1193.559	2.53	1	regulate	Run2	regulate/STIM_009.jpg
1199.18	2.505	1	regulate	Run2	regulate/STIM_009.jpg
1203.71	2.104	1	regulate	Run2	regulate/STIM_010.jpg
1209.024	2.474	1	regulate	Run2	regulate/STIM_010.jpg
1213.631	1.569	1	regulate	Run2	regulate/STIM_010.jpg
1218.829	1.284	1	regulate	Run2	regulate/STIM_010.jpg
1222.236	2.177	1	regulate	Run2	regulate/STIM_011.jpg
1227.614	2.774	1	regulate	Run2	regulate/STIM_011.jpg
1232.68	2.046	1	regulate	Run2	regulate/STIM_011.jpg
1238.04	1.617	1	regulate	Run2	regulate/STIM_011.jpg
1243.12	2.443	1	regulate	Run2	regulate/STIM_012.jpg
1247.713	2.85	1	regulate	Run2	regulate/STIM_012.jpg
1254.502	1.863	1	regulate	Run2	regulate/STIM_012.jpg
1258.649	2.068	1	regulate	Run2	regulate/STIM_012.jpg
1264.042	2.876	1	regulate	Run2	regulate/STIM_013.jpg
1270.317	2.887	1	regulate	Run2	regulate/STIM_013.jpg
1276.663	1.434	1	regulate	Run2	regulate/STIM_013.jpg
1281.93	1.787	1	regulate	Run2	regulate/STIM_013.jpg
1287.469	2.814	0	regulate	Run2	regulate/STIM_014.jpg
1294.0	1.938	1	regulate	Run2	regulate/STIM_014.jpg
1299.051	2.064	1	regulate	Run2	regulate/STIM_014.jpg
1304.93	1.896	1	regulate	Run2	regulate/STIM_014.jpg
1309.506	1.598	1	regulate	Run2	regulate/STIM_015.jpg
1314.217	1.516	1	regulate	Run2	regulate/STIM_015.jpg
1319.683	1.525	0	regulate	Run2	regulate/STIM_015.jpg
1323.462	2.463	1	regulate	Run2	regulate/STIM_015.jpg
1329.686	1.836	1	regulate	Run2	regulate/STIM_016.jpg
1334.561	1.559	1	regulate	Run2	regulate/STIM_016.jpg
1338.795	1.646	1	regulate	Run2	regulate/STIM_016.jpg
1342.749	2.229	1	regulate	Run2	regulate/STIM_016.jpg
1348.757	2.09	1	regulate	Run2	regulate/STIM_017.jpg
1353.821	2.363	1	regulate	Run2	regulate/STIM_017.jpg
1360.109	2.411	1	regulate	Run2	regulate/STIM_017.jpg
1366.474	1.104	1	regulate	Run2	regulate/STIM_017.jpg
1370.806	1.395	1	regulate	Run2	regulate/STIM_018.jpg
1375.162	2.156	0	regulate	Run2	regulate/STIM_018.jpg
1380.089	1.745	1	regulate	Run2	regulate/STIM_018.jpg
1385.563	1.562	1	regulate	Run2	regulate/STIM_018.jpg
1389.219	1.976	1	regulate	Run2	regulate/STIM_019.jpg
1393.642	2.138	1	regulate	Run2	regulate/STIM_019.jpg
1399.607	2.613	1	regulate	Run2	regulate/STIM_019.jpg
1405.899	1.747	1	regulate	Run2	regulate/STIM_019.jpg
1410.28	1.607	0	regulate	Run2	regulate/STIM_020.jpg
1415.545	2.819	1	regulate	Run2	regulate/STIM_020.jpg
1421.066	2.314	1	regulate	Run2	regulate/STIM_020.jpg
1425.936	2.487	1	regulate	Run2	regulate/STIM_020.jpg
1431.83	2.742	0	regulate	Run2	regulate/STIM_021.jpg
1437.989	2.394	1	regulate	Run2	regulate/STIM_021.jpg
1443.348	1.183	1	regulate	Run2	regulate/STIM_021.jpg
1446.972	1.835	1	regulate	Run2	regulate/STIM_021.jpg
1452.188	2.056	1	regulate	Run2	regulate/STIM_022.jpg
1457.276	2.6	1	regulate	Run2	regulate/STIM_022.jpg
1463.045	1.983	1	regulate	Run2	regulate/STIM_022.jpg
1468.678	1.98	1	regulate	Run2	regulate/STIM_022.jpg
1474.006	1.908	1	regulate	Run2	regulate/STIM_023.jpg
1479.108	1.338	1	regulate	Run2	regulate/STIM_023.jpg
1484.304	2.548	1	regulate	Run2	regulate/STIM_023.jpg
1489.04	2.424	1	regulate	Run2	regulate/STIM_023.jpg
1493.818	2.583	1	regulate	Run2	regulate/STIM_024.jpg
1500.15	1.576	1	regulate	Run2	regulate/STIM_024.jpg
1504.001	2.463	1	regulate	Run2	regulate/STIM_024.jpg
1509.205	2.355	1	regulate	Run2	regulate/STIM_024.jpg
1514.586	1.67	1	regulate	Run2	regulate/STIM_025.jpg
1518.533	1.752	1	regulate	Run2	regulate/STIM_025.jpg
1522.986	1.515	1	regulate	Run2	regulate/STIM_025.jpg
1526.713	2.508	1	regulate	Run2	regulate/STIM_025.jpg
1532.498	1.521	0	regulate	Run2	regulate/STIM_026.jpg
1537.509	1.547	1	regulate	Run2	regulate/STIM_026.jpg
1542.449	1.935	1	regulate	Run2	regulate/STIM_026.jpg
1547.767	1.516	1	regulate	Run2	regulate/STIM_026.jpg
1552.874	2.821	1	regulate	Run2	regulate/STIM_027.jpg
1559.279	2.745	1	regulate	Run2	regulate/STIM_027.jpg
1565.28	1.474	1	regulate	Run2	regulate/STIM_027.jpg
1570.087	1.835	1	regulate	Run2	regulate/STIM_027.jpg
1574.112	1.537	1	regulate	Run2	regulate/STIM_028.jpg
1577.89	1.554	1	regulate	Run2	regulate/STIM_028.jpg
1581.665	2.606	0	regulate	Run2	regulate/STIM_028.jpg
1586.895	1.695	1	regulate	Run2	regulate/STIM_028.jpg
1591.476	2.512	1	regulate	Run2	regulate/STIM_029.jpg
1596.362	1.335	1	regulate	Run2	regulate/STIM_029.jpg
1600.357	2.238	1	regulate	Run2	regulate/STIM_029.jpg
1604.819	2.207	1	regulate	Run2	regulate/STIM_029.jpg
1610.018	1.049	1	observe	Run2	observe/STIM_000.jpg
1614.783	0.871	1	observe	Run2	observe/STIM_000.jpg
1618.722	1.032	1	observe	Run2	observe/STIM_000.jpg
1621.919	1.123	1	observe	Run2	observe/STIM_000.jpg
1625.128	1.324	1	observe	Run2	observe/STIM_001.jpg
1630.151	1.398	1	observe	Run2	observe/STIM_001.jpg
1635.524	0.993	1	observe	Run2	observe/STIM_001.jpg
1640.027	0.867	1	observe	Run2	observe/STIM_001.jpg
1644.684	1.088	1	observe	Run2	observe/STIM_002.jpg
1648.581	1.396	1	observe	Run2	observe/STIM_002.jpg
1652.14	1.558	1	observe	Run2	observe/STIM_002.jpg
1656.772	1.084	1	observe	Run2	observe/STIM_002.jpg
1660.97	0.91	1	observe	Run2	observe/STIM_003.jpg
1665.687	1.375	1	observe	Run2	observe/STIM_003.jpg
1669.781	1.653	1	observe	Run2	observe/STIM_003.jpg
1675.034	1.243	1	observe	Run2	observe/STIM_003.jpg
1678.54	1.576	1	observe	Run2	observe/STIM_004.jpg
1684.054	1.201	1	observe	Run2	observe/STIM_004.jpg
1688.913	1.075	1	observe	Run2	observe/STIM_004.jpg
1692.577	0.924	1	observe	Run2	observe/STIM_004.jpg
1697.482	0.854	1	observe	Run2	observe/STIM_005.jpg
1701.188	1.449	1	observe	Run2	observe/STIM_005.jpg
1705.503	0.869	1	observe	Run2	observe/STIM_005.jpg
1709.058	1.481	1	observe	Run2	observe/STIM_005.jpg
1714.526	1.209	1	observe	Run2	observe/STIM_006.jpg
1718.993	0.845	1	observe	Run2	observe/STIM_006.jpg
1723.546	1.605	1	observe	Run2	observe/STIM_006.jpg
1728.484	0.978	1	observe	Run2	observe/STIM_006.jpg
1733.094	1.056	1	observe	Run2	observe/STIM_007.jpg
1737.85	1.122	1	observe	Run2	observe/STIM_007.jpg
1742.786	1.432	1	observe	Run2	observe/STIM_007.jpg
1747.191	1.503	1	observe	Run2	observe/STIM_007.jpg
1752.446	0.837	1	observe	Run2	observe/STIM_008.jpg
1755.806	1.236	1	observe	Run2	observe/STIM_008.jpg
1759.676	1.633	1	observe	Run2	observe/STIM_008.jpg
1764.21	0.854	1	observe	Run2	observe/STIM_008.jpg
1768.048	1.009	1	observe	Run2	observe/STIM_009.jpg
1772.593	1.07	1	observe	Run2	observe/STIM_009.jpg
1777.443	1.606	1	observe	Run2	observe/STIM_009.jpg
1781.949	1.244	1	observe	Run2	observe/STIM_009.jpg
1785.603	1.336	1	observe	Run2	observe/STIM_010.jpg
1789.579	1.57	1	observe	Run2	observe/STIM_010.jpg
1794.732	1.452	1	observe	Run2	observe/STIM_010.jpg
1798.988	1.274	1	observe	Run2	observe/STIM_010.jpg
1803.442	1.084	1	observe	Run2	observe/STIM_011.jpg
1807.575	1.352	1	observe	Run2	observe/STIM_011.jpg
1812.752	0.918	1	observe	Run2	observe/STIM_011.jpg
1816.627	1.041	1	observe	Run2	observe/STIM_011.jpg
1819.737	1.49	1	observe	Run2	observe/STIM_012.jpg
1824.999	1.245	1	observe	Run2	observe/STIM_012.jpg
1828.501	1.377	0	observe	Run2	observe/STIM_012.jpg
1831.976	1.343	1	observe	Run2	observe/STIM_012.jpg
1835.604	1.326	1	observe	Run2	observe/STIM_013.jpg
1839.101	1.578	1	observe	Run2	observe/STIM_013.jpg
1843.605	1.381	1	observe	Run2	observe/STIM_013.jpg
1847.487	0.936	1	observe	Run2	observe/STIM_013.jpg
1851.932	1.237	1	observe	Run2	observe/STIM_014.jpg
1857.05	1.603	1	observe	Run2	observe/STIM_014.jpg
1861.315	1.642	0	observe	Run2	observe/STIM_014.jpg
1865.554	1.148	1	observe	Run2	observe/STIM_014.jpg
1869.1	1.643	1	observe	Run2	observe/STIM_015.jpg
1874.474	1.087	0	observe	Run2	observe/STIM_015.jpg
1878.062	1.033	1	observe	Run2	observe/STIM_015.jpg
1882.905	1.303	1	observe	Run2	observe/STIM_015.jpg
1887.227	1.134	1	observe	Run2	observe/STIM_016.jpg
1891.287	1.178	1	observe	Run2	observe/STIM_016.jpg
1895.518	0.944	1	observe	Run2	observe/STIM_016.jpg
1900.405	0.959	1	observe	Run2	observe/STIM_016.jpg
1903.891	1.586	1	observe	Run2	observe/STIM_017.jpg
1908.749	1.539	1	observe	Run2	observe/STIM_017.jpg
1912.332	1.623	1	observe	Run2	observe/STIM_017.jpg
1916.07	1.329	1	observe	Run2	observe/STIM_017.jpg
1921.034	1.132	0	observe	Run2	observe/STIM_018.jpg
1925.595	1.376	1	observe	Run2	observe/STIM_018.jpg
1929.447	0.858	1	observe	Run2	observe/STIM_018.jpg
1933.229	0.853	1	observe	Run2	observe/STIM_018.jpg
1937.648	1.308	1	observe	Run2	observe/STIM_019.jpg
1941.005	0.99	1	observe	Run2	observe/STIM_019.jpg
1944.501	1.32	1	observe	Run2	observe/STIM_019.jpg
1949.547	1.435	1	observe	Run2	observe/STIM_019.jpg
1954.891	2.36	1	regulate	Run3	regulate/STIM_000.jpg
1959.572	1.79	1	regulate	Run3	regulate/STIM_000.jpg
1964.159	1.642	1	regulate	Run3	regulate/STIM_000.jpg
1969.035	1.786	1	regulate	Run3	regulate/STIM_000.jpg
1973.829	1.675	1	regulate	Run3	regulate/STIM_001.jpg
1977.913	1.435	1	regulate	Run3	regulate/STIM_001.jpg
1981.507	1.118	1	regulate	Run3	regulate/STIM_001.jpg
1986.02	1.872	1	regulate	Run3	regulate/STIM_001.jpg
1991.312	1.17	1	regulate	Run3	regulate/STIM_002.jpg
1996.026	1.228	1	regulate	Run3	regulate/STIM_002.jpg
2000.182	1.954	1	regulate	Run3	regulate/STIM_002.jpg
2005.677	2.161	1	regulate	Run3	regulate/STIM_002.jpg
2010.457	1.88	1	regulate	Run3	regulate/STIM_003.jpg
2015.204	1.665	1	regulate	Run3	regulate/STIM_003.jpg
2020.038	1.627	1	regulate	Run3	regulate/STIM_003.jpg
2024.62	1.498	1	regulate	Run3	regulate/STIM_003.jpg
2029.246	1.304	1	regulate	Run3	regulate/STIM_004.jpg
2033.491	1.996	1	regulate	Run3	regulate/STIM_004.jpg
2038.587	2.29	1	regulate	Run3	regulate/STIM_004.jpg
2044.362	1.446	1	regulate	Run3	regulate/STIM_004.jpg
2048.535	2.262	1	regulate	Run3	regulate/STIM_005.jpg
2053.409	1.726	1	regulate	Run3	regulate/STIM_005.jpg
2057.252	1.941	1	regulate	Run3	regulate/STIM_005.jpg
2062.337	2.345	1	regulate	Run3	regulate/STIM_005.jpg
2067.918	2.351	1	regulate	Run3	regulate/STIM_006.jpg
2072.387	1.7	1	regulate	Run3	regulate/STIM_006.jpg
2077.269	1.395	1	regulate	Run3	regulate/STIM_006.jpg
2082.465	2.149	1	regulate	Run3	regulate/STIM_006.jpg
2088.511	1.784	1	regulate	Run3	regulate/STIM_007.jpg
2092.773	1.657	1	regulate	Run3	regulate/STIM_007.jpg
2097.43	2.029	1	regulate	Run3	regulate/STIM_007.jpg
2103.173	2.246	1	regulate	Run3	regulate/STIM_007.jpg
2108.751	2.35	1	regulate	Run3	regulate/STIM_008.jpg
2113.989	2.09	1	regulate	Run3	regulate/STIM_008.jpg
2119.027	1.745	1	regulate	Run3	regulate/STIM_008.jpg
2124.01	1.874	1	regulate	Run3	regulate/STIM_008.jpg
2128.823	1.586	1	regulate	Run3	regulate/STIM_009.jpg
2133.352	2.109	1	regulate	Run3	regulate/STIM_009.jpg
2139.226	1.702	1	regulate	Run3	regulate/STIM_009.jpg
2143.948	1.108	1	regulate	Run3	regulate/STIM_009.jpg
2148.955	1.254	1	regulate	Run3	regulate/STIM_010.jpg
2152.487	1.871	1	regulate	Run3	regulate/STIM_010.jpg
2156.647	2.476	1	regulate	Run3	regulate/STIM_010.jpg
2161.364	2.298	1	regulate	Run3	regulate/STIM_010.jpg
2166.165	1.34	1	regulate	Run3	regulate/STIM_011.jpg
2171.462	2.398	1	regulate	Run3	regulate/STIM_011.jpg
2177.378	2.132	1	regulate	Run3	regulate/STIM_011.jpg
2181.871	1.695	1	regulate	Run3	regulate/STIM_011.jpg
2187.449	1.102	1	regulate	Run3	regulate/STIM_012.jpg
2192.234	2.141	1	regulate	Run3	regulate/STIM_012.jpg
2197.521	1.964	1	regulate	Run3	regulate/STIM_012.jpg
2203.252	1.875	1	regulate	Run3	regulate/STIM_012.jpg
2207.869	1.385	1	regulate	Run3	regulate/STIM_013.jpg
2212.792	1.591	1	regulate	Run3	regulate/STIM_013.jpg
2218.362	1.151	1	regulate	Run3	regulate/STIM_013.jpg
2222.856	2.4	1	regulate	Run3	regulate/STIM_013.jpg
2228.175	1.667	1	regulate	Run3	regulate/STIM_014.jpg
2232.965	2.118	1	regulate	Run3	regulate/STIM_014.jpg
2238.773	1.256	1	regulate	Run3	regulate/STIM_014.jpg
2243.153	2.459	1	regulate	Run3	regulate/STIM_014.jpg
2248.236	2.542	1	regulate	Run3	regulate/STIM_015.jpg
2253.558	1.683	1	regulate	Run3	regulate/STIM_015.jpg
2258.93	1.794	1	regulate	Run3	regulate/STIM_015.jpg
2263.944	1.527	1	regulate	Run3	regulate/STIM_015.jpg
2268.796	2.241	1	regulate	Run3	regulate/STIM_016.jpg
2274.048	1.728	1	regulate	Run3	regulate/STIM_016.jpg
2279.567	2.494	1	regulate	Run3	regulate/STIM_016.jpg
2284.338	1.853	1	regulate	Run3	regulate/STIM_016.jpg
2289.187	2.0	1	regulate	Run3	regulate/STIM_017.jpg
2295.059	2.05	1	regulate	Run3	regulate/STIM_017.jpg
2299.709	2.521	1	regulate	Run3	regulate/STIM_017.jpg
2304.386	1.543	1	regulate	Run3	regulate/STIM_017.jpg
2309.722	2.292	1	regulate	Run3	regulate/STIM_018.jpg
2315.511	2.531	1	regulate	Run3	regulate/STIM_018.jpg
2320.928	2.401	1	regulate	Run3	regulate/STIM_018.jpg
2326.131	1.234	1	regulate	Run3	regulate/STIM_018.jpg
2330.09	1.48	1	regulate	Run3	regulate/STIM_019.jpg
2335.063	2.094	1	regulate	Run3	regulate/STIM_019.jpg
2339.806	1.827	1	regulate	Run3	regulate/STIM_019.jpg
2344.936	2.428	1	regulate	Run3	regulate/STIM_019.jpg
2349.604	2.352	1	regulate	Run3	regulate/STIM_020.jpg
2354.73	2.164	1	regulate	Run3	regulate/STIM_020.jpg
2360.151	1.334	1	regulate	Run3	regulate/STIM_020.jpg
2364.525	1.186	1	regulate	Run3	regulate/STIM_020.jpg
2368.612	1.597	1	regulate	Run3	regulate/STIM_021.jpg
2372.756	2.155	1	regulate	Run3	regulate/STIM_021.jpg
2378.617	2.344	1	regulate	Run3	regulate/STIM_021.jpg
2384.354	1.178	1	regulate	Run3	regulate/STIM_021.jpg
2387.598	1.999	1	regulate	Run3	regulate/STIM_022.jpg
2392.618	2.404	1	regulate	Run3	regulate/STIM_022.jpg
2398.723	1.578	1	regulate	Run3	regulate/STIM_022.jpg
2403.53	1.714	1	regulate	Run3	regulate/STIM_022.jpg
2408.089	1.282	1	regulate	Run3	regulate/STIM_023.jpg
2412.316	2.218	1	regulate	Run3	regulate/STIM_023.jpg
2416.843	1.426	1	regulate	Run3	regulate/STIM_023.jpg
2420.583	1.226	1	regulate	Run3	regulate/STIM_023.jpg
2425.215	1.228	1	regulate	Run3	regulate/STIM_024.jpg
2430.208	2.2	1	regulate	Run3	regulate/STIM_024.jpg
2435.91	1.316	1	regulate	Run3	regulate/STIM_024.jpg
2441.123	2.514	1	regulate	Run3	regulate/STIM_024.jpg
2447.01	2.046	1	regulate	Run3	regulate/STIM_025.jpg
2452.617	1.673	1	regulate	Run3	regulate/STIM_025.jpg
2457.613	2.128	1	regulate	Run3	regulate/STIM_025.jpg
2463.673	1.502	1	regulate	Run3	regulate/STIM_025.jpg
2467.285	1.54	1	regulate	Run3	regulate/STIM_026.jpg
2472.43	1.476	1	regulate	Run3	regulate/STIM_026.jpg
2477.766	1.251	1	regulate	Run3	regulate/STIM_026.jpg
2481.987	1.96	1	regulate	Run3	regulate/STIM_026.jpg
2487.638	2.281	1	regulate	Run3	regulate/STIM_027.jpg
2492.63	1.822	1	regulate	Run3	regulate/STIM_027.jpg
2498.412	2.337	1	regulate	Run3	regulate/STIM_027.jpg
2504.109	2.516	0	regulate	Run3	regulate/STIM_027.jpg
2509.241	1.145	1	regulate	Run3	regulate/STIM_028.jpg
2512.778	1.219	1	regulate	Run3	regulate/STIM_028.jpg
2517.149	1.14	1	regulate	Run3	regulate/STIM_028.jpg
2520.939	1.536	1	regulate	Run3	regulate/STIM_028.jpg
2525.41	1.498	1	regulate	Run3	regulate/STIM_029.jpg
2529.583	1.757	1	regulate	Run3	regulate/STIM_029.jpg
2534.735	2.234	1	regulate	Run3	regulate/STIM_029.jpg
2540.092	1.35	1	regulate	Run3	regulate/STIM_029.jpg
2544.071	1.101	1	observe	Run3	observe/STIM_000.jpg
2547.654	0.951	0	observe	Run3	observe/STIM_000.jpg
2551.219	0.937	1	observe	Run3	observe/STIM_000.jpg
2555.69	0.962	1	observe	Run3	observe/STIM_000.jpg
2558.804	0.945	1	observe	Run3	observe/STIM_001.jpg
2563.701	0.932	1	observe	Run3	observe/STIM_001.jpg
2567.565	1.438	1	observe	Run3	observe/STIM_001.jpg
2571.313	1.107	1	observe	Run3	observe/STIM_001.jpg
2575.82	0.947	1	observe	Run3	observe/STIM_002.jpg
2580.751	1.08	1	observe	Run3	observe/STIM_002.jpg
2584.474	0.855	1	observe	Run3	observe/STIM_002.jpg
2589.048	0.979	1	observe	Run3	observe/STIM_002.jpg
2592.984	1.358	1	observe	Run3	observe/STIM_003.jpg
2597.829	1.351	1	observe	Run3	observe/STIM_003.jpg
2601.589	1.624	1	observe	Run3	observe/STIM_003.jpg
2605.508	1.518	1	observe	Run3	observe/STIM_003.jpg
2610.989	1.052	1	observe	Run3	observe/STIM_004.jpg
2615.619	1.597	1	observe	Run3	observe/STIM_004.jpg
2620.429	1.224	1	observe	Run3	observe/STIM_004.jpg
2625.415	1.046	1	observe	Run3	observe/STIM_004.jpg
2629.329	1.344	1	observe	Run3	observe/STIM_005.jpg
2633.322	1.065	1	observe	Run3	observe/STIM_005.jpg
2636.835	1.438	1	observe	Run3	observe/STIM_005.jpg
2640.615	0.884	1	observe	Run3	observe/STIM_005.jpg
2644.178	1.261	1	observe	Run3	observe/STIM_006.jpg
2648.83	1.311	1	observe	Run3	observe/STIM_006.jpg
2652.349	1.438	0	observe	Run3	observe/STIM_006.jpg
2655.805	1.153	1	observe	Run3	observe/STIM_006.jpg
2659.506	1.353	1	observe	Run3	observe/STIM_007.jpg
2664.714	1.62	1	observe	Run3	observe/STIM_007.jpg
2668.468	1.391	1	observe	Run3	observe/STIM_007.jpg
2672.382	1.609	1	observe	Run3	observe/STIM_007.jpg
2677.987	1.608	1	observe	Run3	observe/STIM_008.jpg
2683.411	1.569	1	observe	Run3	observe/STIM_008.jpg
2688.518	1.256	1	observe	Run3	observe/STIM_008.jpg
2692.435	1.411	1	observe	Run3	observe/STIM_008.jpg
2696.953	1.383	1	observe	Run3	observe/STIM_009.jpg
2700.629	1.625	1	observe	Run3	observe/STIM_009.jpg
2706.204	1.033	1	observe	Run3	observe/STIM_009.jpg
2709.383	1.288	0	observe	Run3	observe/STIM_009.jpg
2714.454	1.315	0	observe	Run3	observe/STIM_010.jpg
2718.377	1.056	1	observe	Run3	observe/STIM_010.jpg
2721.742	1.394	0	observe	Run3	observe/STIM_010.jpg
2725.174	1.548	1	observe	Run3	observe/STIM_010.jpg
2729.219	1.181	1	observe	Run3	observe/STIM_011.jpg
2733.486	0.983	1	observe	Run3	observe/STIM_011.jpg
2738.009	1.198	1	observe	Run3	observe/STIM_011.jpg
2741.239	1.455	1	observe	Run3	observe/STIM_011.jpg
2745.37	1.661	1	observe	Run3	observe/STIM_012.jpg
2749.339	1.026	0	observe	Run3	observe/STIM_012.jpg
2754.161	1.625	0	observe	Run3	observe/STIM_012.jpg
2759.665	1.316	1	observe	Run3	observe/STIM_012.jpg
2763.169	0.93	1	observe	Run3	observe/STIM_013.jpg
2767.702	1.05	1	observe	Run3	observe/STIM_013.jpg
2772.435	0.993	1	observe	Run3	observe/STIM_013.jpg
2777.015	0.974	0	observe	Run3	observe/STIM_013.jpg
2781.14	1.498	0	observe	Run3	observe/STIM_014.jpg
2785.504	1.083	1	observe	Run3	observe/STIM_014.jpg
2790.566	1.22	1	observe	Run3	observe/STIM_014.jpg
2794.753	1.144	1	observe	Run3	observe/STIM_014.jpg
2798.094	1.077	1	observe	Run3	observe/STIM_015.jpg
2801.256	0.933	1	observe	Run3	observe/STIM_015.jpg
2806.15	1.308	1	observe	Run3	observe/STIM_015.jpg
2809.731	1.38	1	observe	Run3	observe/STIM_015.jpg
2814.719	1.481	1	observe	Run3	observe/STIM_016.jpg
2818.21	1.376	1	observe	Run3	observe/STIM_016.jpg
2822.191	1.138	1	observe	Run3	observe/STIM_016.jpg
2825.749	1.05	1	observe	Run3	observe/STIM_016.jpg
2829.554	1.519	1	observe	Run3	observe/STIM_017.jpg
2834.32	1.066	1	observe	Run3	observe/STIM_017.jpg
2839.278	1.106	1	observe	Run3	observe/STIM_017.jpg
2844.033	1.611	1	observe	Run3	observe/STIM_017.jpg
2848.657	0.84	1	observe	Run3	observe/STIM_018.jpg
2852.248	0.95	1	observe	Run3	observe/STIM_018.jpg
2855.707	1.346	1	observe	Run3	observe/STIM_018.jpg
2860.694	1.276	1	observe	Run3	observe/STIM_018.jpg
2865.43	1.092	1	observe	Run3	observe/STIM_019.jpg
2869.501	1.147	1	observe	Run3	observe/STIM_019.jpg
2873.16	1.096	1	observe	Run3	observe/STIM_019.jpg
2877.436	1.142	1	observe	Run3	observe/STIM_019.jpg
