onset	duration	response_time_ms	trial_type	learning_stage	stimulus	response_port
0.0	2.461	2460.8	regulate	Run1	regulate/STIM_000.jpg	100
5.198	2.581	2580.8	regulate	Run1	regulate/STIM_000.jpg	99
9.921	2.847	2846.9	regulate	Run1	regulate/STIM_000.jpg	100
14.817	2.507	2507.4	regulate	Run1	regulate/STIM_000.jpg	99
21.29	2.239	2238.7	regulate	Run1	regulate/STIM_001.jpg	99
25.905	2.34	2340.5	regulate	Run1	regulate/STIM_001.jpg	99
32.042	2.693	2692.9	regulate	Run1	regulate/STIM_001.jpg	99
37.562	2.452	2452.5	regulate	Run1	regulate/STIM_001.jpg	99
43.767	2.694	2694.2	regulate	Run1	regulate/STIM_002.jpg	100
50.137	2.883	2882.9	regulate	Run1	regulate/STIM_002.jpg	100
56.646	2.776	2776.3	regulate	Run1	regulate/STIM_002.jpg	100
62.319	1.683	1682.7	regulate	Run1	regulate/STIM_002.jpg	99
67.749	3.349	3349.0	regulate	Run1	regulate/STIM_003.jpg	100
74.426	1.521	1520.9	regulate	Run1	regulate/STIM_003.jpg	99
79.521	1.937	1936.6	regulate	Run1	regulate/STIM_003.jpg	99
84.276	2.173	2173.3	regulate	Run1	regulate/STIM_003.jpg	100
90.215	2.516	2515.5	regulate	Run1	regulate/STIM_004.jpg	99
96.394	2.752	2752.5	regulate	Run1	regulate/STIM_004.jpg	100
102.326	2.293	2292.6	regulate	Run1	regulate/STIM_004.jpg	99
106.928	1.638	1638.3	regulate	Run1	regulate/STIM_004.jpg	100
112.475	3.086	3085.6	regulate	Run1	regulate/STIM_005.jpg	100
118.843	1.618	1618.5	regulate	Run1	regulate/STIM_005.jpg	99
123.014	1.872	1871.5	regulate	Run1	regulate/STIM_005.jpg	100
128.091	3.038	3038.3	regulate	Run1	regulate/STIM_005.jpg	100
133.212	2.815	2814.6	regulate	Run1	regulate/STIM_006.jpg	99
138.847	1.684	1684.2	regulate	Run1	regulate/STIM_006.jpg	100
143.43	3.068	3067.8	regulate	Run1	regulate/STIM_006.jpg	100
148.646	2.852	2852.0	regulate	Run1	regulate/STIM_006.jpg	99
155.222	1.545	1545.3	regulate	Run1	regulate/STIM_007.jpg	100
160.66	2.59	2590.4	regulate	Run1	regulate/STIM_007.jpg	100
165.989	1.86	1860.1	regulate	Run1	regulate/STIM_007.jpg	99
170.003	2.484	2483.7	regulate	Run1	regulate/STIM_007.jpg	100
175.082	3.598	3598.1	regulate	Run1	regulate/STIM_008.jpg	100
181.881	2.712	2711.5	regulate	Run1	regulate/STIM_008.jpg	100
188.261	1.996	1995.9	regulate	Run1	regulate/STIM_008.jpg	100
192.391	2.421	2420.8	regulate	Run1	regulate/STIM_008.jpg	99
197.903	3.042	3041.8	regulate	Run1	regulate/STIM_009.jpg	100
203.91	2.644	2643.6	regulate	Run1	regulate/STIM_009.jpg	99
209.508	2.42	2419.5	regulate	Run1	regulate/STIM_009.jpg	99
215.914	2.677	2676.9	regulate	Run1	regulate/STIM_009.jpg	100
222.595	3.352	3352.5	regulate	Run1	regulate/STIM_010.jpg	99
228.906	2.262	2261.8	regulate	Run1	regulate/STIM_010.jpg	100
233.324	1.943	1943.0	regulate	Run1	regulate/STIM_010.jpg	99
237.631	2.393	2392.8	regulate	Run1	regulate/STIM_010.jpg	99
242.956	3.494	3493.5	regulate	Run1	regulate/STIM_011.jpg	100
249.137	2.383	2382.9	regulate	Run1	regulate/STIM_011.jpg	99
255.5	2.893	2893.4	regulate	Run1	regulate/STIM_011.jpg	100
262.315	1.283	1283.1	regulate	Run1	regulate/STIM_011.jpg	99
267.196	2.166	2166.1	regulate	Run1	regulate/STIM_012.jpg	99
272.64	2.318	2317.5	regulate	Run1	regulate/STIM_012.jpg	99
278.027	3.07	3069.5	regulate	Run1	regulate/STIM_012.jpg	100
283.671	2.031	2030.6	regulate	Run1	regulate/STIM_012.jpg	99
288.807	2.996	2995.6	regulate	Run1	regulate/STIM_013.jpg	99
294.218	2.508	2507.9	regulate	Run1	regulate/STIM_013.jpg	99
298.921	2.711	2710.7	regulate	Run1	regulate/STIM_013.jpg	100
304.961	1.645	1644.9	regulate	Run1	regulate/STIM_013.jpg	99
309.269	2.07	2070.3	regulate	Run1	regulate/STIM_014.jpg	100
314.933	2.734	2734.0	regulate	Run1	regulate/STIM_014.jpg	100
319.935	2.367	2367.3	regulate	Run1	regulate/STIM_014.jpg	99
324.93	1.44	1440.3	regulate	Run1	regulate/STIM_014.jpg	99
329.474	3.352	3352.2	regulate	Run1	regulate/STIM_015.jpg	100
335.699	2.482	2481.7	regulate	Run1	regulate/STIM_015.jpg	99
340.118	2.003	2003.3	regulate	Run1	regulate/STIM_015.jpg	99
344.199	1.703	1702.8	regulate	Run1	regulate/STIM_015.jpg	99
349.802	3.049	3049.1	regulate	Run1	regulate/STIM_016.jpg	100
356.755	2.161	2160.6	regulate	Run1	regulate/STIM_016.jpg	99
362.231	1.81	1810.4	regulate	Run1	regulate/STIM_016.jpg	100
366.562	1.785	1785.2	regulate	Run1	regulate/STIM_016.jpg	99
371.771	2.489	2489.1	regulate	Run1	regulate/STIM_017.jpg	99
377.987	2.988	2988.4	regulate	Run1	regulate/STIM_017.jpg	99
383.015	3.093	3093.3	regulate	Run1	regulate/STIM_017.jpg	100
389.507	2.436	2436.4	regulate	Run1	regulate/STIM_017.jpg	100
395.171	1.888	1887.9	regulate	Run1	regulate/STIM_018.jpg	99
400.36	3.359	3358.7	regulate	Run1	regulate/STIM_018.jpg	100
406.998	2.548	2548.4	regulate	Run1	regulate/STIM_018.jpg	99
412.225	2.123	2122.6	regulate	Run1	regulate/STIM_018.jpg	100
418.035	1.812	1811.6	regulate	Run1	regulate/STIM_019.jpg	100
422.717	2.453	2452.7	regulate	Run1	regulate/STIM_019.jpg	99
428.118	1.494	1493.6	regulate	Run1	regulate/STIM_019.jpg	100
432.033	2.114	2113.8	regulate	Run1	regulate/STIM_019.jpg	99
436.163	2.516	2515.6	regulate	Run1	regulate/STIM_020.jpg	100
440.834	3.165	3164.6	regulate	Run1	regulate/STIM_020.jpg	99
446.175	2.878	2877.9	regulate	Run1	regulate/STIM_020.jpg	100
451.038	1.425	1424.8	regulate	Run1	regulate/STIM_020.jpg	99
455.808	1.967	1967.3	regulate	Run1	regulate/STIM_021.jpg	100
460.393	2.726	2726.5	regulate	Run1	regulate/STIM_021.jpg	100
466.325	2.01	2010.1	regulate	Run1	regulate/STIM_021.jpg	99
470.574	2.747	2747.0	regulate	Run1	regulate/STIM_021.jpg	100
475.585	3.48	3479.9	regulate	Run1	regulate/STIM_022.jpg	100
481.85	2.821	2820.6	regulate	Run1	regulate/STIM_022.jpg	99
488.386	2.863	2862.6	regulate	Run1	regulate/STIM_022.jpg	100
494.715	2.088	2087.8	regulate	Run1	regulate/STIM_022.jpg	99
499.171	2.915	2915.4	regulate	Run1	regulate/STIM_023.jpg	99
505.345	2.974	2974.5	regulate	Run1	regulate/STIM_023.jpg	99
511.781	2.327	2326.9	regulate	Run1	regulate/STIM_023.jpg	100
517.834	1.698	1697.9	regulate	Run1	regulate/STIM_023.jpg	99
522.218	2.583	2582.7	regulate	Run1	regulate/STIM_024.jpg	100
527.48	2.46	2459.8	regulate	Run1	regulate/STIM_024.jpg	99
533.037	2.408	2407.8	regulate	Run1	regulate/STIM_024.jpg	99
538.283	2.509	2509.2	regulate	Run1	regulate/STIM_024.jpg	99
543.957	1.66	1660.3	regulate	Run1	regulate/STIM_025.jpg	100
548.619	2.721	2720.6	regulate	Run1	regulate/STIM_025.jpg	99
555.278	2.977	2977.3	regulate	Run1	regulate/STIM_025.jpg	99
560.309	1.389	1388.8	regulate	Run1	regulate/STIM_025.jpg	100
563.934	2.45	2450.4	regulate	Run1	regulate/STIM_026.jpg	99
569.37	3.269	3269.1	regulate	Run1	regulate/STIM_026.jpg	99
576.44	1.846	1846.0	regulate	Run1	regulate/STIM_026.jpg	99
580.278	2.986	2986.1	regulate	Run1	regulate/STIM_026.jpg	100
586.629	3.096	3096.5	regulate	Run1	regulate/STIM_027.jpg	100
593.632	1.642	1641.9	regulate	Run1	regulate/STIM_027.jpg	99
598.219	1.557	1556.9	regulate	Run1	regulate/STIM_027.jpg	100
602.662	2.402	2402.1	regulate	Run1	regulate/STIM_027.jpg	100
608.956	3.312	3312.1	regulate	Run1	regulate/STIM_028.jpg	100
614.559	2.974	2973.7	regulate	Run1	regulate/STIM_028.jpg	100
620.539	2.421	2421.3	regulate	Run1	regulate/STIM_028.jpg	99
626.509	2.668	2668.1	regulate	Run1	regulate/STIM_028.jpg	100
632.059	1.833	1832.6	regulate	Run1	regulate/STIM_029.jpg	99
637.307	2.506	2506.4	regulate	Run1	regulate/STIM_029.jpg	99
643.249	2.883	2882.8	regulate	Run1	regulate/STIM_029.jpg	100
648.741	2.009	2008.9	regulate	Run1	regulate/STIM_029.jpg	99
653.114	1.545	1544.8	observe	Run1	observe/STIM_000.jpg	99
658.57	1.121	1120.6	observe	Run1	observe/STIM_000.jpg	100
663.433	0.811	811.4	observe	Run1	observe/STIM_000.jpg	100
666.41	1.211	1211.2	observe	Run1	observe/STIM_000.jpg	99
669.688	1.591	1590.7	observe	Run1	observe/STIM_001.jpg	100
674.497	1.082	1082.5	observe	Run1	observe/STIM_001.jpg	99
678.134	1.511	1511.0	observe	Run1	observe/STIM_001.jpg	100
682.787	0.858	858.2	observe	Run1	observe/STIM_001.jpg	99
685.877	1.583	1583.2	observe	Run1	observe/STIM_002.jpg	99
689.532	0.916	916.4	observe	Run1	observe/STIM_002.jpg	99
692.886	0.859	859.1	observe	Run1	observe/STIM_002.jpg	100
695.953	0.934	933.8	observe	Run1	observe/STIM_002.jpg	99
699.083	1.147	1147.3	observe	Run1	observe/STIM_003.jpg	99
703.005	1.486	1485.9	observe	Run1	observe/STIM_003.jpg	99
707.662	0.888	887.6	observe	Run1	observe/STIM_003.jpg	100
710.91	1.069	1069.3	observe	Run1	observe/STIM_003.jpg	99
714.568	1.445	1444.8	observe	Run1	observe/STIM_004.jpg	100
719.272	1.407	1407.2	observe	Run1	observe/STIM_004.jpg	100
724.551	1.519	1518.8	observe	Run1	observe/STIM_004.jpg	99
728.069	1.293	1293.0	observe	Run1	observe/STIM_004.jpg	99
732.072	1.401	1400.7	observe	Run1	observe/STIM_005.jpg	99
735.782	1.275	1275.0	observe	Run1	observe/STIM_005.jpg	100
740.037	1.452	1452.1	observe	Run1	observe/STIM_005.jpg	100
744.285	1.376	1375.6	observe	Run1	observe/STIM_005.jpg	99
749.212	1.198	1197.5	observe	Run1	observe/STIM_006.jpg	100
754.415	1.468	1467.8	observe	Run1	observe/STIM_006.jpg	99
757.958	1.483	1482.8	observe	Run1	observe/STIM_006.jpg	100
763.115	1.266	1266.5	observe	Run1	observe/STIM_006.jpg	100
768.225	1.345	1345.1	observe	Run1	observe/STIM_007.jpg	100
771.566	1.29	1290.4	observe	Run1	observe/STIM_007.jpg	100
776.646	1.087	1086.8	observe	Run1	observe/STIM_007.jpg	99
780.215	1.408	1407.5	observe	Run1	observe/STIM_007.jpg	99
784.16	0.916	915.9	observe	Run1	observe/STIM_008.jpg	100
788.307	1.416	1415.5	observe	Run1	observe/STIM_008.jpg	99
792.023	0.918	917.6	observe	Run1	observe/STIM_008.jpg	99
795.093	1.287	1286.6	observe	Run1	observe/STIM_008.jpg	100
799.334	1.226	1226.4	observe	Run1	observe/STIM_009.jpg	100
803.297	1.059	1059.2	observe	Run1	observe/STIM_009.jpg	100
807.371	1.232	1231.5	observe	Run1	observe/STIM_009.jpg	100
810.746	1.11	1110.5	observe	Run1	observe/STIM_009.jpg	100
813.902	1.064	1063.5	observe	Run1	observe/STIM_010.jpg	100
817.8	1.529	1529.4	observe	Run1	observe/STIM_010.jpg	99
822.087	0.993	993.4	observe	Run1	observe/STIM_010.jpg	99
826.64	1.291	1290.9	observe	Run1	observe/STIM_010.jpg	100
831.184	1.469	1468.7	observe	Run1	observe/STIM_011.jpg	99
835.436	1.156	1156.1	observe	Run1	observe/STIM_011.jpg	100
838.742	1.186	1186.1	observe	Run1	observe/STIM_011.jpg	100
843.832	0.835	835.3	observe	Run1	observe/STIM_011.jpg	100
848.329	0.896	895.6	observe	Run1	observe/STIM_012.jpg	100
852.941	0.824	824.2	observe	Run1	observe/STIM_012.jpg	100
857.402	1.548	1548.5	observe	Run1	observe/STIM_012.jpg	99
861.752	0.881	880.7	observe	Run1	observe/STIM_012.jpg	100
865.621	1.164	1164.4	observe	Run1	observe/STIM_013.jpg	100
869.8	1.367	1366.9	observe	Run1	observe/STIM_013.jpg	99
873.318	1.094	1093.8	observe	Run1	observe/STIM_013.jpg	100
876.945	1.183	1182.6	observe	Run1	observe/STIM_013.jpg	99
880.741	0.944	944.2	observe	Run1	observe/STIM_014.jpg	100
884.785	1.454	1454.1	observe	Run1	observe/STIM_014.jpg	100
888.662	0.933	933.1	observe	Run1	observe/STIM_014.jpg	100
893.318	1.212	1212.5	observe	Run1	observe/STIM_014.jpg	100
896.478	1.376	1376.2	observe	Run1	observe/STIM_015.jpg	99
900.197	1.314	1314.1	observe	Run1	observe/STIM_015.jpg	100
904.658	1.126	1126.0	observe	Run1	observe/STIM_015.jpg	100
908.183	1.405	1405.0	observe	Run1	observe/STIM_015.jpg	100
912.67	1.674	1674.2	observe	Run1	observe/STIM_016.jpg	99
917.03	1.155	1154.7	observe	Run1	observe/STIM_016.jpg	99
920.281	1.271	1271.2	observe	Run1	observe/STIM_016.jpg	99
925.248	1.075	1074.7	observe	Run1	observe/STIM_016.jpg	99
929.651	1.183	1182.7	observe	Run1	observe/STIM_017.jpg	99
933.486	1.095	1095.4	observe	Run1	observe/STIM_017.jpg	100
936.641	1.047	1047.4	observe	Run1	observe/STIM_017.jpg	100
941.165	1.347	1347.2	observe	Run1	observe/STIM_017.jpg	100
944.535	0.817	817.2	observe	Run1	observe/STIM_018.jpg	100
948.59	0.86	860.3	observe	Run1	observe/STIM_018.jpg	100
952.925	1.221	1220.7	observe	Run1	observe/STIM_018.jpg	99
957.399	1.116	1115.9	observe	Run1	observe/STIM_018.jpg	100
961.395	1.205	1204.7	observe	Run1	observe/STIM_019.jpg	100
965.988	1.632	1631.8	observe	Run1	observe/STIM_019.jpg	99
971.388	1.208	1208.0	observe	Run1	observe/STIM_019.jpg	100
976.472	1.255	1254.8	observe	Run1	observe/STIM_019.jpg	99
980.699	1.845	1844.9	regulate	Run2	regulate/STIM_000.jpg	100
985.826	2.486	2486.5	regulate	Run2	regulate/STIM_000.jpg	99
991.742	2.586	2585.5	regulate	Run2	regulate/STIM_000.jpg	99
997.233	1.269	1269.1	regulate	Run2	regulate/STIM_000.jpg	99
1001.751	1.86	1859.7	regulate	Run2	regulate/STIM_001.jpg	99
1006.848	2.773	2773.1	regulate	Run2	regulate/STIM_001.jpg	99
1013.404	2.626	2626.2	regulate	Run2	regulate/STIM_001.jpg	99
1018.733	2.324	2323.6	regulate	Run2	regulate/STIM_001.jpg	100
1024.173	1.426	1426.3	regulate	Run2	regulate/STIM_002.jpg	99
1029.321	1.31	1310.4	regulate	Run2	regulate/STIM_002.jpg	100
1034.089	2.133	2133.0	regulate	Run2	regulate/STIM_002.jpg	100
1038.617	1.838	1837.7	regulate	Run2	regulate/STIM_002.jpg	100
1044.299	1.418	1417.8	regulate	Run2	regulate/STIM_003.jpg	100
1049.027	1.507	1507.3	regulate	Run2	regulate/STIM_003.jpg	100
1054.106	1.339	1339.0	regulate	Run2	regulate/STIM_003.jpg	100
1059.322	2.48	2479.8	regulate	Run2	regulate/STIM_003.jpg	99
1064.575	1.981	1980.7	regulate	Run2	regulate/STIM_004.jpg	100
1068.608	2.591	2590.7	regulate	Run2	regulate/STIM_004.jpg	100
1074.757	1.219	1219.2	regulate	Run2	regulate/STIM_004.jpg	100
1078.576	2.146	2146.2	regulate	Run2	regulate/STIM_004.jpg	99
1084.573	2.259	2259.2	regulate	Run2	regulate/STIM_005.jpg	100
1089.695	1.827	1827.4	regulate	Run2	regulate/STIM_005.jpg	99
1093.793	1.217	1217.0	regulate	Run2	regulate/STIM_005.jpg	100
1098.344	1.139	1139.2	regulate	Run2	regulate/STIM_005.jpg	99
1102.29	1.618	1617.6	regulate	Run2	regulate/STIM_006.jpg	99
1107.46	1.229	1229.3	regulate	Run2	regulate/STIM_006.jpg	100
1110.846	2.121	2121.1	regulate	Run2	regulate/STIM_006.jpg	100
1116.577	2.346	2345.6	regulate	Run2	regulate/STIM_006.jpg	99
1122.747	2.478	2478.5	regulate	Run2	regulate/STIM_007.jpg	99
1127.199	1.37	1370.3	regulate	Run2	regulate/STIM_007.jpg	99
1130.593	2.019	2019.5	regulate	Run2	regulate/STIM_007.jpg	99
1135.017	2.177	2176.7	regulate	Run2	regulate/STIM_007.jpg	99
1139.779	1.667	1667.0	regulate	Run2	regulate/STIM_008.jpg	99
1145.138	2.582	2581.5	regulate	Run2	regulate/STIM_008.jpg	99
1150.633	1.722	1722.0	regulate	Run2	regulate/STIM_008.jpg	99
1155.784	1.778	1778.5	regulate	Run2	regulate/STIM_008.jpg	99
1161.423	2.246	2245.6	regulate	Run2	regulate/STIM_009.jpg	99
1167.368	1.682	1681.9	regulate	Run2	regulate/STIM_009.jpg	100
1172.098	1.438	1438.4	regulate	Run2	regulate/STIM_009.jpg	100
1175.759	2.0	1999.5	regulate	Run2	regulate/STIM_009.jpg	100
1181.598	1.889	1888.6	regulate	Run2	regulate/STIM_010.jpg	99
1185.9	2.108	2107.6	regulate	Run2	regulate/STIM_010.jpg	100
1191.006	1.988	1987.6	regulate	Run2	regulate/STIM_010.jpg	100
1196.799	1.457	1457.3	regulate	Run2	regulate/STIM_010.jpg	99
1200.487	2.495	2495.3	regulate	Run2	regulate/STIM_011.jpg	99
1206.785	2.038	2037.8	regulate	Run2	regulate/STIM_011.jpg	99
1211.072	2.158	2158.1	regulate	Run2	regulate/STIM_011.jpg	100
1215.443	2.293	2293.3	regulate	Run2	regulate/STIM_011.jpg	100
1220.413	2.406	2405.8	regulate	Run2	regulate/STIM_012.jpg	100
1225.045	2.494	2493.7	regulate	Run2	regulate/STIM_012.jpg	100
1230.556	1.185	1184.7	regulate	Run2	regulate/STIM_012.jpg	99
1234.889	1.239	1239.4	regulate	Run2	regulate/STIM_012.jpg	100
1239.882	2.186	2186.1	regulate	Run2	regulate/STIM_013.jpg	100
1244.695	1.812	1812.3	regulate	Run2	regulate/STIM_013.jpg	99
1249.148	1.765	1764.7	regulate	Run2	regulate/STIM_013.jpg	99
1253.946	1.178	1177.9	regulate	Run2	regulate/STIM_013.jpg	100
1258.659	2.529	2528.9	regulate	Run2	regulate/STIM_014.jpg	99
1264.666	1.571	1571.1	regulate	Run2	regulate/STIM_014.jpg	99
1269.008	1.131	1131.4	regulate	Run2	regulate/STIM_014.jpg	99
1272.9	1.168	1168.2	regulate	Run2	regulate/STIM_014.jpg	100
1276.6	2.818	2817.7	regulate	Run2	regulate/STIM_015.jpg	100
1281.806	2.149	2148.7	regulate	Run2	regulate/STIM_015.jpg	100
1286.264	2.598	2597.8	regulate	Run2	regulate/STIM_015.jpg	100
1290.91	2.496	2496.0	regulate	Run2	regulate/STIM_015.jpg	99
1296.361	2.643	2642.9	regulate	Run2	regulate/STIM_016.jpg	99
1301.315	2.079	2079.0	regulate	Run2	regulate/STIM_016.jpg	100
1306.913	1.722	1721.9	regulate	Run2	regulate/STIM_016.jpg	100
1311.956	2.233	2233.2	regulate	Run2	regulate/STIM_016.jpg	100
1316.871	2.612	2612.0	regulate	Run2	regulate/STIM_017.jpg	99
1321.881	1.672	1671.8	regulate	Run2	regulate/STIM_017.jpg	99
1326.614	1.638	1637.5	regulate	Run2	regulate/STIM_017.jpg	100
1330.454	2.025	2024.6	regulate	Run2	regulate/STIM_017.jpg	99
1335.097	1.744	1743.8	regulate	Run2	regulate/STIM_018.jpg	100
1340.796	1.325	1325.1	regulate	Run2	regulate/STIM_018.jpg	99
1344.607	2.301	2301.0	regulate	Run2	regulate/STIM_018.jpg	99
1350.47	1.81	1809.7	regulate	Run2	regulate/STIM_018.jpg	99
1355.075	2.433	2433.0	regulate	Run2	regulate/STIM_019.jpg	99
1359.591	1.235	1235.3	regulate	Run2	regulate/STIM_019.jpg	100
1363.214	1.963	1963.2	regulate	Run2	regulate/STIM_019.jpg	99
1368.042	1.842	1842.4	regulate	Run2	regulate/STIM_019.jpg	99
1372.697	3.013	3012.8	regulate	Run2	regulate/STIM_020.jpg	100
1379.515	2.146	2145.9	regulate	Run2	regulate/STIM_020.jpg	100
1385.499	1.068	1068.4	regulate	Run2	regulate/STIM_020.jpg	100
1389.274	1.176	1175.8	regulate	Run2	regulate/STIM_020.jpg	99
1392.474	1.488	1488.2	regulate	Run2	regulate/STIM_021.jpg	100
1396.097	2.522	2521.6	regulate	Run2	regulate/STIM_021.jpg	100
1401.92	1.721	1721.1	regulate	Run2	regulate/STIM_021.jpg	100
1405.635	2.023	2022.9	regulate	Run2	regulate/STIM_021.jpg	99
1410.446	2.683	2682.8	regulate	Run2	regulate/STIM_022.jpg	100
1416.086	2.335	2334.8	regulate	Run2	regulate/STIM_022.jpg	99
1421.563	2.614	2613.9	regulate	Run2	regulate/STIM_022.jpg	100
1427.592	2.13	2130.3	regulate	Run2	regulate/STIM_022.jpg	99
1432.031	2.384	2383.8	regulate	Run2	regulate/STIM_023.jpg	99
1437.655	2.731	2731.4	regulate	Run2	regulate/STIM_023.jpg	100
1442.853	2.11	2109.6	regulate	Run2	regulate/STIM_023.jpg	99
1448.807	2.436	2436.4	regulate	Run2	regulate/STIM_023.jpg	99
1453.918	1.452	1452.1	regulate	Run2	regulate/STIM_024.jpg	100
1459.154	1.504	1504.5	regulate	Run2	regulate/STIM_024.jpg	99
1464.647	2.255	2255.1	regulate	Run2	regulate/STIM_024.jpg	99
1470.664	1.672	1671.8	regulate	Run2	regulate/STIM_024.jpg	100
1475.968	2.573	2572.9	regulate	Run2	regulate/STIM_025.jpg	99
1482.285	1.874	1873.9	regulate	Run2	regulate/STIM_025.jpg	99
1486.14	1.493	1493.1	regulate	Run2	regulate/STIM_025.jpg	99
1491.201	1.363	1362.6	regulate	Run2	regulate/STIM_025.jpg	99
1496.399	2.953	2952.9	regulate	Run2	regulate/STIM_026.jpg	99
1502.952	1.998	1998.1	regulate	Run2	regulate/STIM_026.jpg	100
1507.512	1.979	1978.6	regulate	Run2	regulate/STIM_026.jpg	100
1512.928	1.307	1307.1	regulate	Run2	regulate/STIM_026.jpg	100
1517.683	2.852	2852.4	regulate	Run2	regulate/STIM_027.jpg	99
1524.172	2.129	2129.4	regulate	Run2	regulate/STIM_027.jpg	100
1528.693	1.482	1482.0	regulate	Run2	regulate/STIM_027.jpg	100
1534.03	2.296	2296.0	regulate	Run2	regulate/STIM_027.jpg	100
1538.457	1.711	1710.9	regulate	Run2	regulate/STIM_028.jpg	100
1543.014	1.421	1421.1	regulate	Run2	regulate/STIM_028.jpg	99
1546.982	2.311	2310.9	regulate	Run2	regulate/STIM_028.jpg	100
1553.235	1.833	1833.4	regulate	Run2	regulate/STIM_028.jpg	99
1557.504	2.559	2559.0	regulate	Run2	regulate/STIM_029.jpg	99
1562.867	2.184	2184.4	regulate	Run2	regulate/STIM_029.jpg	100
1567.74	1.503	1503.2	regulate	Run2	regulate/STIM_029.jpg	100
1571.653	1.141	1141.0	regulate	Run2	regulate/STIM_029.jpg	100
1575.049	1.416	1415.9	observe	Run2	observe/STIM_000.jpg	100
1578.82	1.3	1299.5	observe	Run2	observe/STIM_000.jpg	99
1583.534	0.921	920.7	observe	Run2	observe/STIM_000.jpg	99
1586.835	1.515	1515.4	observe	Run2	observe/STIM_000.jpg	100
1590.627	0.896	895.7	observe	Run2	observe/STIM_001.jpg	100
1594.901	1.192	1192.0	observe	Run2	observe/STIM_001.jpg	100
1599.899	1.276	1275.5	observe	Run2	observe/STIM_001.jpg	100
1603.726	0.927	927.2	observe	Run2	observe/STIM_001.jpg	99
1606.99	1.609	1609.1	observe	Run2	observe/STIM_002.jpg	99
1610.629	1.044	1044.4	observe	Run2	observe/STIM_002.jpg	100
1615.347	1.4	1399.6	observe	Run2	observe/STIM_002.jpg	100
1619.186	1.184	1184.4	observe	Run2	observe/STIM_002.jpg	99
1622.577	1.17	1170.0	observe	Run2	observe/STIM_003.jpg	99
1626.301	0.976	976.3	observe	Run2	observe/STIM_003.jpg	100
1629.793	0.967	967.1	observe	Run2	observe/STIM_003.jpg	100
1633.226	1.515	1514.6	observe	Run2	observe/STIM_003.jpg	99
1637.187	1.027	1027.2	observe	Run2	observe/STIM_004.jpg	100
1641.062	0.827	827.2	observe	Run2	observe/STIM_004.jpg	99
1645.364	1.09	1089.7	observe	Run2	observe/STIM_004.jpg	100
1650.251	1.346	1346.2	observe	Run2	observe/STIM_004.jpg	99
1654.866	0.79	790.3	observe	Run2	observe/STIM_005.jpg	99
1658.868	1.025	1025.0	observe	Run2	observe/STIM_005.jpg	100
1663.474	1.041	1040.7	observe	Run2	observe/STIM_005.jpg	100
1667.03	1.05	1050.5	observe	Run2	observe/STIM_005.jpg	99
1670.503	0.962	961.6	observe	Run2	observe/STIM_006.jpg	99
1674.364	1.117	1117.0	observe	Run2	observe/STIM_006.jpg	100
1678.463	1.013	1013.2	observe	Run2	observe/STIM_006.jpg	100
1683.322	1.258	1257.8	observe	Run2	observe/STIM_006.jpg	99
1688.173	1.24	1240.4	observe	Run2	observe/STIM_007.jpg	99
1692.863	0.82	819.9	observe	Run2	observe/STIM_007.jpg	99
1696.026	1.205	1205.3	observe	Run2	observe/STIM_007.jpg	99
1699.533	0.953	953.2	observe	Run2	observe/STIM_007.jpg	99
1703.261	0.933	933.3	observe	Run2	observe/STIM_008.jpg	99
1706.562	1.037	1036.8	observe	Run2	observe/STIM_008.jpg	99
1710.283	1.268	1267.9	observe	Run2	observe/STIM_008.jpg	99
1713.581	0.932	931.8	observe	Run2	observe/STIM_008.jpg	100
1718.098	1.307	1306.7	observe	Run2	observe/STIM_009.jpg	100
1722.514	1.374	1374.3	observe	Run2	observe/STIM_009.jpg	99
1726.944	1.093	1092.9	observe	Run2	observe/STIM_009.jpg	99
1731.003	1.546	1545.5	observe	Run2	observe/STIM_009.jpg	99
1735.952	1.612	1612.2	observe	Run2	observe/STIM_010.jpg	99
1740.881	1.348	1348.5	observe	Run2	observe/STIM_010.jpg	99
1745.183	1.366	1366.0	observe	Run2	observe/STIM_010.jpg	99
1750.2	1.052	1051.8	observe	Run2	observe/STIM_010.jpg	100
1754.154	0.878	877.8	observe	Run2	observe/STIM_011.jpg	99
1758.619	1.436	1435.7	observe	Run2	observe/STIM_011.jpg	99
1763.319	1.674	1674.2	observe	Run2	observe/STIM_011.jpg	100
1766.995	1.17	1169.5	observe	Run2	observe/STIM_011.jpg	100
1770.341	1.17	1170.4	observe	Run2	observe/STIM_012.jpg	99
1774.58	1.425	1424.9	observe	Run2	observe/STIM_012.jpg	100
1778.908	1.444	1444.3	observe	Run2	observe/STIM_012.jpg	99
1782.732	1.103	1102.6	observe	Run2	observe/STIM_012.jpg	99
1787.566	1.268	1267.6	observe	Run2	observe/STIM_013.jpg	100
1792.629	1.057	1057.3	observe	Run2	observe/STIM_013.jpg	100
1796.405	1.201	1200.8	observe	Run2	observe/STIM_013.jpg	99
1799.899	1.391	1391.0	observe	Run2	observe/STIM_013.jpg	100
1803.748	1.285	1285.0	observe	Run2	observe/STIM_014.jpg	100
1809.057	1.545	1544.7	observe	Run2	observe/STIM_014.jpg	99
1812.961	1.112	1111.5	observe	Run2	observe/STIM_014.jpg	99
1817.6	0.991	991.2	observe	Run2	observe/STIM_014.jpg	100
1820.7	0.993	992.8	observe	Run2	observe/STIM_015.jpg	100
1825.321	1.282	1282.2	observe	Run2	observe/STIM_015.jpg	100
1830.177	0.906	905.7	observe	Run2	observe/STIM_015.jpg	100
1833.717	1.319	1319.0	observe	Run2	observe/STIM_015.jpg	100
1838.059	1.363	1363.3	observe	Run2	observe/STIM_016.jpg	99
1841.978	1.436	1436.5	observe	Run2	observe/STIM_016.jpg	100
1845.928	1.274	1274.5	observe	Run2	observe/STIM_016.jpg	100
1850.573	0.838	838.4	observe	Run2	observe/STIM_016.jpg	100
1854.981	1.071	1071.1	observe	Run2	observe/STIM_017.jpg	100
1858.907	0.897	897.2	observe	Run2	observe/STIM_017.jpg	99
1862.541	1.145	1145.2	observe	Run2	observe/STIM_017.jpg	99
1866.131	1.24	1240.3	observe	Run2	observe/STIM_017.jpg	99
1870.09	0.792	792.4	observe	Run2	observe/STIM_018.jpg	100
1874.292	1.323	1323.2	observe	Run2	observe/STIM_018.jpg	99
1878.395	0.985	985.4	observe	Run2	observe/STIM_018.jpg	100
1881.99	1.036	1035.6	observe	Run2	observe/STIM_018.jpg	100
1886.132	1.297	1297.4	observe	Run2	observe/STIM_019.jpg	100
1890.568	0.915	915.2	observe	Run2	observe/STIM_019.jpg	99
1893.972	1.441	1441.2	observe	Run2	observe/STIM_019.jpg	100
1897.797	0.806	805.6	observe	Run2	observe/STIM_019.jpg	100
1901.033	1.947	1947.4	regulate	Run3	regulate/STIM_000.jpg	99
1906.487	2.222	2222.3	regulate	Run3	regulate/STIM_000.jpg	99
1910.555	1.976	1975.6	regulate	Run3	regulate/STIM_000.jpg	100
1916.294	2.228	2228.1	regulate	Run3	regulate/STIM_000.jpg	100
1921.932	1.718	1718.5	regulate	Run3	regulate/STIM_001.jpg	99
1925.726	1.146	1146.0	regulate	Run3	regulate/STIM_001.jpg	100
1929.025	1.291	1291.4	regulate	Run3	regulate/STIM_001.jpg	99
1934.143	1.467	1467.1	regulate	Run3	regulate/STIM_001.jpg	100
1938.978	1.239	1239.3	regulate	Run3	regulate/STIM_002.jpg	100
1942.873	2.082	2081.8	regulate	Run3	regulate/STIM_002.jpg	99
1947.056	1.384	1383.6	regulate	Run3	regulate/STIM_002.jpg	100
1951.193	1.407	1407.4	regulate	Run3	regulate/STIM_002.jpg	99
1955.632	1.376	1376.5	regulate	Run3	regulate/STIM_003.jpg	100
1960.758	2.394	2393.8	regulate	Run3	regulate/STIM_003.jpg	100
1965.229	1.551	1551.0	regulate	Run3	regulate/STIM_003.jpg	99
1970.185	1.411	1411.3	regulate	Run3	regulate/STIM_003.jpg	100
1974.634	1.948	1948.2	regulate	Run3	regulate/STIM_004.jpg	100
1978.675	2.114	2113.6	regulate	Run3	regulate/STIM_004.jpg	100
1983.194	1.394	1394.3	regulate	Run3	regulate/STIM_004.jpg	99
1987.488	1.98	1980.2	regulate	Run3	regulate/STIM_004.jpg	100
1991.597	1.935	1934.8	regulate	Run3	regulate/STIM_005.jpg	99
1996.91	2.388	2387.9	regulate	Run3	regulate/STIM_005.jpg	99
2001.811	1.257	1257.4	regulate	Run3	regulate/STIM_005.jpg	99
2006.996	2.301	2301.3	regulate	Run3	regulate/STIM_005.jpg	100
2013.305	2.094	2093.5	regulate	Run3	regulate/STIM_006.jpg	99
2018.764	1.716	1715.9	regulate	Run3	regulate/STIM_006.jpg	99
2023.253	2.139	2139.1	regulate	Run3	regulate/STIM_006.jpg	99
2029.155	1.473	1472.7	regulate	Run3	regulate/STIM_006.jpg	100
2032.691	1.516	1516.0	regulate	Run3	regulate/STIM_007.jpg	99
2037.643	1.099	1098.8	regulate	Run3	regulate/STIM_007.jpg	100
2041.489	2.163	2163.0	regulate	Run3	regulate/STIM_007.jpg	100
2046.995	1.381	1380.6	regulate	Run3	regulate/STIM_007.jpg	100
2050.794	2.087	2086.6	regulate	Run3	regulate/STIM_008.jpg	99
2055.931	2.186	2186.3	regulate	Run3	regulate/STIM_008.jpg	100
2061.874	2.231	2230.7	regulate	Run3	regulate/STIM_008.jpg	100
2066.896	1.464	1464.5	regulate	Run3	regulate/STIM_008.jpg	100
2071.358	1.665	1664.7	regulate	Run3	regulate/STIM_009.jpg	99
2075.674	2.449	2448.9	regulate	Run3	regulate/STIM_009.jpg	100
2080.294	2.175	2174.8	regulate	Run3	regulate/STIM_009.jpg	99
2085.784	2.082	2081.6	regulate	Run3	regulate/STIM_009.jpg	99
2089.953	2.434	2433.6	regulate	Run3	regulate/STIM_010.jpg	100
2096.224	2.152	2152.3	regulate	Run3	regulate/STIM_010.jpg	100
2101.505	2.037	2037.2	regulate	Run3	regulate/STIM_010.jpg	99
2107.562	1.346	1346.3	regulate	Run3	regulate/STIM_010.jpg	99
2111.692	2.337	2337.2	regulate	Run3	regulate/STIM_011.jpg	99
2116.198	1.667	1667.2	regulate	Run3	regulate/STIM_011.jpg	99
2120.706	1.728	1728.1	regulate	Run3	regulate/STIM_011.jpg	100
2125.574	1.352	1351.7	regulate	Run3	regulate/STIM_011.jpg	99
2129.748	2.179	2178.7	regulate	Run3	regulate/STIM_012.jpg	99
2134.577	1.537	1537.2	regulate	Run3	regulate/STIM_012.jpg	100
2138.167	1.53	1530.1	regulate	Run3	regulate/STIM_012.jpg	100
2143.564	2.331	2331.2	regulate	Run3	regulate/STIM_012.jpg	100
2148.402	2.258	2257.9	regulate	Run3	regulate/STIM_013.jpg	99
2153.398	2.352	2352.4	regulate	Run3	regulate/STIM_013.jpg	100
2158.444	1.796	1795.8	regulate	Run3	regulate/STIM_013.jpg	99
2162.929	2.174	2174.4	regulate	Run3	regulate/STIM_013.jpg	100
2167.525	2.386	2385.9	regulate	Run3	regulate/STIM_014.jpg	99
2172.938	1.119	1119.4	regulate	Run3	regulate/STIM_014.jpg	99
2176.245	1.829	1828.8	regulate	Run3	regulate/STIM_014.jpg	99
2181.437	1.108	1108.5	regulate	Run3	regulate/STIM_014.jpg	100
2184.672	1.805	1804.7	regulate	Run3	regulate/STIM_015.jpg	99
2188.545	1.266	1265.9	regulate	Run3	regulate/STIM_015.jpg	99
2191.928	1.076	1075.9	regulate	Run3	regulate/STIM_015.jpg	100
2196.802	1.875	1875.0	regulate	Run3	regulate/STIM_015.jpg	100
2201.456	1.321	1320.9	regulate	Run3	regulate/STIM_016.jpg	100
2205.72	2.02	2020.2	regulate	Run3	regulate/STIM_016.jpg	99
2211.106	1.903	1902.6	regulate	Run3	regulate/STIM_016.jpg	99
2215.798	1.731	1731.4	regulate	Run3	regulate/STIM_016.jpg	100
2221.265	2.2	2200.1	regulate	Run3	regulate/STIM_017.jpg	99
2227.392	1.315	1314.8	regulate	Run3	regulate/STIM_017.jpg	100
2231.843	1.277	1276.7	regulate	Run3	regulate/STIM_017.jpg	100
2236.466	1.536	1535.7	regulate	Run3	regulate/STIM_017.jpg	100
2240.742	1.488	1488.0	regulate	Run3	regulate/STIM_018.jpg	99
2245.17	1.71	1709.7	regulate	Run3	regulate/STIM_018.jpg	100
2250.769	1.672	1671.8	regulate	Run3	regulate/STIM_018.jpg	100
2255.152	2.198	2197.8	regulate	Run3	regulate/STIM_018.jpg	99
2260.704	2.053	2053.4	regulate	Run3	regulate/STIM_019.jpg	100
2264.909	2.151	2150.7	regulate	Run3	regulate/STIM_019.jpg	99
2270.733	1.724	1723.6	regulate	Run3	regulate/STIM_019.jpg	99
2275.226	2.208	2207.9	regulate	Run3	regulate/STIM_019.jpg	100
2281.228	2.032	2031.7	regulate	Run3	regulate/STIM_020.jpg	100
2286.273	2.08	2080.0	regulate	Run3	regulate/STIM_020.jpg	99
2291.773	1.986	1986.0	regulate	Run3	regulate/STIM_020.jpg	99
2296.789	1.372	1372.3	regulate	Run3	regulate/STIM_020.jpg	99
2300.521	2.023	2022.9	regulate	Run3	regulate/STIM_021.jpg	100
2305.265	1.636	1636.3	regulate	Run3	regulate/STIM_021.jpg	100
2310.138	1.974	1974.1	regulate	Run3	regulate/STIM_021.jpg	99
2315.335	2.266	2266.3	regulate	Run3	regulate/STIM_021.jpg	99
2320.639	1.63	1629.5	regulate	Run3	regulate/STIM_022.jpg	99
2325.144	1.373	1373.0	regulate	Run3	regulate/STIM_022.jpg	100
2329.006	1.688	1688.3	regulate	Run3	regulate/STIM_022.jpg	99
2334.147	1.248	1247.6	regulate	Run3	regulate/STIM_022.jpg	99
2338.025	1.304	1304.3	regulate	Run3	regulate/STIM_023.jpg	99
2341.596	1.315	1314.9	regulate	Run3	regulate/STIM_023.jpg	100
2345.454	1.099	1099.1	regulate	Run3	regulate/STIM_023.jpg	99
2349.707	1.801	1801.4	regulate	Run3	regulate/STIM_023.jpg	99
2355.033	1.324	1323.5	regulate	Run3	regulate/STIM_024.jpg	99
2359.981	2.286	2286.4	regulate	Run3	regulate/STIM_024.jpg	100
2365.9	1.569	1568.7	regulate	Run3	regulate/STIM_024.jpg	99
2371.433	2.033	2033.1	regulate	Run3	regulate/STIM_024.jpg	99
2377.452	1.808	1807.8	regulate	Run3	regulate/STIM_025.jpg	99
2382.654	1.77	1770.4	regulate	Run3	regulate/STIM_025.jpg	100
2388.021	1.582	1582.0	regulate	Run3	regulate/STIM_025.jpg	99
2393.336	1.509	1509.0	regulate	Run3	regulate/STIM_025.jpg	99
2397.146	2.449	2449.2	regulate	Run3	regulate/STIM_026.jpg	100
2403.523	1.549	1549.2	regulate	Run3	regulate/STIM_026.jpg	99
2408.153	1.871	1871.4	regulate	Run3	regulate/STIM_026.jpg	100
2413.305	1.796	1795.8	regulate	Run3	regulate/STIM_026.jpg	99
2419.015	2.308	2307.8	regulate	Run3	regulate/STIM_027.jpg	99
2424.268	2.016	2016.0	regulate	Run3	regulate/STIM_027.jpg	99
2429.823	2.066	2066.2	regulate	Run3	regulate/STIM_027.jpg	99
2435.355	1.289	1289.1	regulate	Run3	regulate/STIM_027.jpg	99
2439.349	2.218	2217.9	regulate	Run3	regulate/STIM_028.jpg	100
2445.517	1.57	1570.0	regulate	Run3	regulate/STIM_028.jpg	100
2450.296	1.281	1281.3	regulate	Run3	regulate/STIM_028.jpg	100
2453.834	1.62	1620.5	regulate	Run3	regulate/STIM_028.jpg	100
2457.653	1.992	1991.7	regulate	Run3	regulate/STIM_029.jpg	100
2461.751	2.106	2106.5	regulate	Run3	regulate/STIM_029.jpg	100
2466.56	1.685	1684.7	regulate	Run3	regulate/STIM_029.jpg	100
2470.692	2.241	2240.7	regulate	Run3	regulate/STIM_029.jpg	100
2475.493	0.828	828.5	observe	Run3	observe/STIM_000.jpg	100
2480.398	0.934	934.0	observe	Run3	observe/STIM_000.jpg	99
2484.097	0.835	835.4	observe	Run3	observe/STIM_000.jpg	99
2488.765	1.404	1403.6	observe	Run3	observe/STIM_000.jpg	99
2493.195	1.29	1290.3	observe	Run3	observe/STIM_001.jpg	100
2498.328	1.438	1437.8	observe	Run3	observe/STIM_001.jpg	100
2502.754	1.271	1270.9	observe	Run3	observe/STIM_001.jpg	100
2506.985	0.879	879.4	observe	Run3	observe/STIM_001.jpg	100
2510.357	1.192	1192.0	observe	Run3	observe/STIM_002.jpg	99
2514.246	0.951	950.8	observe	Run3	observe/STIM_002.jpg	99
2517.156	0.81	809.8	observe	Run3	observe/STIM_002.jpg	99
2521.316	1.164	1163.5	observe	Run3	observe/STIM_002.jpg	99
2525.942	1.097	1097.0	observe	Run3	observe/STIM_003.jpg	99
2529.688	1.286	1285.5	observe	Run3	observe/STIM_003.jpg	100
2533.441	1.55	1550.5	observe	Run3	observe/STIM_003.jpg	100
2538.272	1.545	1544.8	observe	Run3	observe/STIM_003.jpg	100
2542.63	1.505	1505.4	observe	Run3	observe/STIM_004.jpg	99
2546.886	1.213	1212.9	observe	Run3	observe/STIM_004.jpg	100
2550.149	1.064	1063.7	observe	Run3	observe/STIM_004.jpg	99
2553.746	1.379	1378.9	observe	Run3	observe/STIM_004.jpg	100
2558.019	1.403	1403.2	observe	Run3	observe/STIM_005.jpg	99
2563.319	1.281	1280.8	observe	Run3	observe/STIM_005.jpg	100
2568.191	1.093	1093.4	observe	Run3	observe/STIM_005.jpg	99
2573.291	1.547	1546.6	observe	Run3	observe/STIM_005.jpg	99
2577.12	1.23	1230.5	observe	Run3	observe/STIM_006.jpg	99
2580.632	1.298	1297.8	observe	Run3	observe/STIM_006.jpg	100
2583.987	1.381	1380.8	observe	Run3	observe/STIM_006.jpg	99
2588.942	0.993	992.8	observe	Run3	observe/STIM_006.jpg	99
2593.954	1.15	1150.5	observe	Run3	observe/STIM_007.jpg	99
2598.212	1.444	1443.6	observe	Run3	observe/STIM_007.jpg	100
2601.899	1.069	1069.1	observe	Run3	observe/STIM_007.jpg	100
2606.245	0.909	909.2	observe	Run3	observe/STIM_007.jpg	100
2609.623	1.087	1087.2	observe	Run3	observe/STIM_008.jpg	100
2614.285	1.277	1277.4	observe	Run3	observe/STIM_008.jpg	100
2619.061	1.553	1553.2	observe	Run3	observe/STIM_008.jpg	100
2624.396	1.128	1127.9	observe	Run3	observe/STIM_008.jpg	99
2627.498	1.386	1386.3	observe	Run3	observe/STIM_009.jpg	99
2631.544	0.94	940.4	observe	Run3	observe/STIM_009.jpg	99
2635.459	1.351	1350.9	observe	Run3	observe/STIM_009.jpg	99
2640.303	1.116	1116.3	observe	Run3	observe/STIM_009.jpg	100
2645.147	1.411	1410.7	observe	Run3	observe/STIM_010.jpg	100
2648.86	1.579	1578.9	observe	Run3	observe/STIM_010.jpg	100
2652.598	1.116	1115.6	observe	Run3	observe/STIM_010.jpg	99
2655.757	0.992	991.9	observe	Run3	observe/STIM_010.jpg	100
2659.848	1.214	1213.6	observe	Run3	observe/STIM_011.jpg	99
2664.357	1.357	1357.2	observe	Run3	observe/STIM_011.jpg	100
2668.231	1.012	1012.4	observe	Run3	observe/STIM_011.jpg	100
2671.458	1.222	1222.3	observe	Run3	observe/STIM_011.jpg	100
2675.58	1.147	1147.2	observe	Run3	observe/STIM_012.jpg	100
2680.499	1.478	1477.9	observe	Run3	observe/STIM_012.jpg	100
2684.482	1.193	1192.9	observe	Run3	observe/STIM_012.jpg	100
2689.5	1.077	1076.9	observe	Run3	observe/STIM_012.jpg	100
2692.694	1.386	1385.5	observe	Run3	observe/STIM_013.jpg	100
2696.633	1.428	1427.8	observe	Run3	observe/STIM_013.jpg	99
2700.226	1.45	1450.1	observe	Run3	observe/STIM_013.jpg	99
2703.59	1.259	1259.1	observe	Run3	observe/STIM_013.jpg	99
2707.394	1.264	1264.5	observe	Run3	observe/STIM_014.jpg	100
2711.193	1.031	1030.9	observe	Run3	observe/STIM_014.jpg	99
2715.0	1.51	1510.0	observe	Run3	observe/STIM_014.jpg	100
2719.23	1.604	1603.7	observe	Run3	observe/STIM_014.jpg	100
2723.434	1.567	1567.1	observe	Run3	observe/STIM_015.jpg	99
2728.487	1.208	1208.2	observe	Run3	observe/STIM_015.jpg	100
2731.787	1.48	1479.5	observe	Run3	observe/STIM_015.jpg	99
2736.844	1.32	1320.4	observe	Run3	observe/STIM_015.jpg	100
2741.806	1.287	1286.8	observe	Run3	observe/STIM_016.jpg	99
2745.408	1.421	1421.3	observe	Run3	observe/STIM_016.jpg	100
2750.51	1.529	1529.0	observe	Run3	observe/STIM_016.jpg	99
2754.87	1.263	1262.6	observe	Run3	observe/STIM_016.jpg	99
2758.119	1.437	1437.3	observe	Run3	observe/STIM_017.jpg	99
2761.69	1.252	1251.8	observe	Run3	observe/STIM_017.jpg	100
2764.902	1.291	1291.0	observe	Run3	observe/STIM_017.jpg	100
2768.42	0.796	795.8	observe	Run3	observe/STIM_017.jpg	100
2772.61	1.409	1408.8	observe	Run3	observe/STIM_018.jpg	99
2777.102	1.56	1559.9	observe	Run3	observe/STIM_018.jpg	100
2780.676	1.608	1608.0	observe	Run3	observe/STIM_018.jpg	100
2786.081	1.496	1495.8	observe	Run3	observe/STIM_018.jpg	100
2791.09	0.974	973.5	observe	Run3	observe/STIM_019.jpg	100
2794.527	1.307	1307.4	observe	Run3	observe/STIM_019.jpg	100
2798.613	1.569	1569.2	observe	Run3	observe/STIM_019.jpg	99
2803.393	1.074	1073.6	observe	Run3	observe/STIM_019.jpg	100
