onset	duration	response_time_ms	trial_type	learning_stage	stimulus	response_port
0.0	2.256	2256.3	generate	Run1	generate/STIM_000.jpg	99
4.713	1.05	1049.7	generate	Run1	generate/STIM_000.jpg	100
7.969	1.643	1642.7	generate	Run1	generate/STIM_000.jpg	99
13.45	1.547	1547.0	generate	Run1	generate/STIM_000.jpg	100
18.831	2.049	2048.9	generate	Run1	generate/STIM_000.jpg	100
23.172	2.387	2386.7	generate	Run1	generate/STIM_001.jpg	100
29.58	2.353	2352.9	generate	Run1	generate/STIM_001.jpg	100
34.952	1.527	1526.8	generate	Run1	generate/STIM_001.jpg	99
38.794	0.952	951.9	generate	Run1	generate/STIM_001.jpg	100
42.368	1.534	1534.4	generate	Run1	generate/STIM_001.jpg	100
46.4	1.457	1457.4	generate	Run1	generate/STIM_002.jpg	99
50.826	1.912	1911.9	generate	Run1	generate/STIM_002.jpg	99
55.92	1.398	1398.1	generate	Run1	generate/STIM_002.jpg	99
60.812	1.406	1405.8	generate	Run1	generate/STIM_002.jpg	100
66.436	1.636	1636.1	generate	Run1	generate/STIM_002.jpg	100
70.712	1.262	1261.8	generate	Run1	generate/STIM_003.jpg	100
75.913	2.061	2061.2	generate	Run1	generate/STIM_003.jpg	100
82.411	1.394	1394.1	generate	Run1	generate/STIM_003.jpg	100
87.28	2.134	2134.2	generate	Run1	generate/STIM_003.jpg	100
93.249	1.436	1436.0	generate	Run1	generate/STIM_003.jpg	99
98.929	1.975	1975.4	generate	Run1	generate/STIM_004.jpg	100
104.021	2.251	2251.3	generate	Run1	generate/STIM_004.jpg	100
109.564	2.187	2186.8	generate	Run1	generate/STIM_004.jpg	99
114.381	1.105	1104.9	generate	Run1	generate/STIM_004.jpg	99
117.902	1.757	1756.8	generate	Run1	generate/STIM_004.jpg	99
123.306	1.229	1228.6	generate	Run1	generate/STIM_005.jpg	99
128.314	1.256	1255.7	generate	Run1	generate/STIM_005.jpg	100
132.109	1.52	1519.8	generate	Run1	generate/STIM_005.jpg	100
136.739	0.998	997.7	generate	Run1	generate/STIM_005.jpg	100
141.071	1.203	1203.4	generate	Run1	generate/STIM_005.jpg	100
145.535	2.53	2530.4	generate	Run1	generate/STIM_006.jpg	99
151.766	1.958	1958.4	generate	Run1	generate/STIM_006.jpg	99
156.136	1.252	1251.8	generate	Run1	generate/STIM_006.jpg	100
160.825	1.721	1720.7	generate	Run1	generate/STIM_006.jpg	100
165.113	1.14	1139.9	generate	Run1	generate/STIM_006.jpg	100
169.466	1.557	1556.6	generate	Run1	generate/STIM_007.jpg	99
174.072	2.014	2014.2	generate	Run1	generate/STIM_007.jpg	100
180.432	2.225	2224.6	generate	Run1	generate/STIM_007.jpg	100
185.141	1.445	1445.4	generate	Run1	generate/STIM_007.jpg	100
190.431	1.127	1127.4	generate	Run1	generate/STIM_007.jpg	100
194.393	1.712	1712.2	generate	Run1	generate/STIM_008.jpg	100
198.862	1.014	1013.7	generate	Run1	generate/STIM_008.jpg	100
202.385	1.656	1656.5	generate	Run1	generate/STIM_008.jpg	99
206.413	1.697	1697.1	generate	Run1	generate/STIM_008.jpg	99
210.768	1.722	1721.8	generate	Run1	generate/STIM_008.jpg	100
216.344	1.924	1924.2	generate	Run1	generate/STIM_009.jpg	100
220.725	2.27	2269.8	generate	Run1	generate/STIM_009.jpg	100
227.227	1.169	1169.0	generate	Run1	generate/STIM_009.jpg	100
231.176	1.158	1157.9	generate	Run1	generate/STIM_009.jpg	99
235.387	1.522	1521.5	generate	Run1	generate/STIM_009.jpg	100
240.057	2.244	2244.4	generate	Run1	generate/STIM_010.jpg	100
246.495	2.144	2143.7	generate	Run1	generate/STIM_010.jpg	100
252.527	1.855	1855.1	generate	Run1	generate/STIM_010.jpg	100
258.121	1.94	1939.9	generate	Run1	generate/STIM_010.jpg	99
262.573	0.968	967.7	generate	Run1	generate/STIM_010.jpg	100
267.434	2.047	2046.6	generate	Run1	generate/STIM_011.jpg	100
272.801	1.072	1072.3	generate	Run1	generate/STIM_011.jpg	99
277.283	2.01	2010.2	generate	Run1	generate/STIM_011.jpg	99
282.646	1.584	1584.3	generate	Run1	generate/STIM_011.jpg	99
287.823	1.421	1420.6	generate	Run1	generate/STIM_011.jpg	100
293.144	1.861	1861.2	generate	Run1	generate/STIM_012.jpg	99
298.019	1.934	1933.9	generate	Run1	generate/STIM_012.jpg	99
304.192	1.821	1820.6	generate	Run1	generate/STIM_012.jpg	100
309.372	1.441	1441.3	generate	Run1	generate/STIM_012.jpg	100
314.258	1.675	1675.3	generate	Run1	generate/STIM_012.jpg	100
319.017	1.054	1053.5	generate	Run1	generate/STIM_013.jpg	100
322.595	1.543	1542.8	generate	Run1	generate/STIM_013.jpg	99
326.809	2.057	2057.3	generate	Run1	generate/STIM_013.jpg	99
333.068	2.16	2160.4	generate	Run1	generate/STIM_013.jpg	100
339.257	1.437	1436.8	generate	Run1	generate/STIM_013.jpg	99
344.506	2.361	2361.2	generate	Run1	generate/STIM_014.jpg	99
349.588	1.346	1346.0	generate	Run1	generate/STIM_014.jpg	99
353.363	1.569	1568.8	generate	Run1	generate/STIM_014.jpg	100
357.437	2.134	2134.1	generate	Run1	generate/STIM_014.jpg	99
363.835	1.674	1674.2	generate	Run1	generate/STIM_014.jpg	99
368.781	1.528	1528.1	generate	Run1	generate/STIM_015.jpg	100
373.071	1.264	1263.6	generate	Run1	generate/STIM_015.jpg	99
377.657	1.796	1796.0	generate	Run1	generate/STIM_015.jpg	99
382.935	1.056	1055.9	generate	Run1	generate/STIM_015.jpg	100
386.28	1.937	1936.7	generate	Run1	generate/STIM_015.jpg	99
390.715	1.544	1544.3	generate	Run1	generate/STIM_016.jpg	99
395.759	2.176	2176.2	generate	Run1	generate/STIM_016.jpg	99
401.214	1.653	1652.8	generate	Run1	generate/STIM_016.jpg	100
406.232	2.047	2047.4	generate	Run1	generate/STIM_016.jpg	100
412.258	0.951	950.9	generate	Run1	generate/STIM_016.jpg	100
417.066	1.917	1916.7	generate	Run1	generate/STIM_017.jpg	100
421.673	1.832	1832.3	generate	Run1	generate/STIM_017.jpg	99
427.72	2.182	2181.6	generate	Run1	generate/STIM_017.jpg	99
432.347	1.399	1398.8	generate	Run1	generate/STIM_017.jpg	99
436.691	1.023	1023.2	generate	Run1	generate/STIM_017.jpg	99
439.981	2.013	2013.0	generate	Run1	generate/STIM_018.jpg	100
444.403	1.808	1808.2	generate	Run1	generate/STIM_018.jpg	99
449.093	1.655	1654.7	generate	Run1	generate/STIM_018.jpg	100
454.776	1.574	1574.1	generate	Run1	generate/STIM_018.jpg	100
458.671	2.031	2031.1	generate	Run1	generate/STIM_018.jpg	100
464.138	2.627	2627.1	generate	Run1	generate/STIM_019.jpg	100
469.166	1.521	1520.9	generate	Run1	generate/STIM_019.jpg	100
473.291	2.213	2213.0	generate	Run1	generate/STIM_019.jpg	100
479.495	1.869	1869.2	generate	Run1	generate/STIM_019.jpg	100
484.293	1.8	1800.1	generate	Run1	generate/STIM_019.jpg	99
489.738	2.245	2244.9	generate	Run1	generate/STIM_020.jpg	99
494.974	1.603	1602.6	generate	Run1	generate/STIM_020.jpg	99
499.079	1.604	1604.4	generate	Run1	generate/STIM_020.jpg	99
502.997	1.81	1810.3	generate	Run1	generate/STIM_020.jpg	99
508.274	1.528	1527.6	generate	Run1	generate/STIM_020.jpg	99
513.378	1.371	1371.2	generate	Run1	generate/STIM_021.jpg	100
517.158	1.263	1263.2	generate	Run1	generate/STIM_021.jpg	99
521.031	2.004	2003.8	generate	Run1	generate/STIM_021.jpg	99
525.363	1.283	1282.8	generate	Run1	generate/STIM_021.jpg	99
530.775	1.449	1448.7	generate	Run1	generate/STIM_021.jpg	99
535.462	2.214	2214.5	generate	Run1	generate/STIM_022.jpg	100
540.616	1.443	1443.3	generate	Run1	generate/STIM_022.jpg	100
545.962	1.692	1691.7	generate	Run1	generate/STIM_022.jpg	99
550.481	1.099	1099.4	generate	Run1	generate/STIM_022.jpg	100
555.275	1.131	1130.9	generate	Run1	generate/STIM_022.jpg	100
560.5	2.058	2057.5	generate	Run1	generate/STIM_023.jpg	99
566.757	1.256	1256.5	generate	Run1	generate/STIM_023.jpg	100
571.674	1.143	1143.2	generate	Run1	generate/STIM_023.jpg	99
575.963	0.833	833.2	generate	Run1	generate/STIM_023.jpg	100
580.823	1.802	1801.6	generate	Run1	generate/STIM_023.jpg	99
586.138	2.074	2073.7	generate	Run1	generate/STIM_024.jpg	100
590.729	1.932	1931.9	generate	Run1	generate/STIM_024.jpg	99
595.638	2.085	2085.2	generate	Run1	generate/STIM_024.jpg	100
602.057	0.976	976.3	generate	Run1	generate/STIM_024.jpg	100
606.951	1.38	1379.6	generate	Run1	generate/STIM_024.jpg	100
611.82	0.694	693.6	repeat	Run1	repeat/STIM_000.jpg	100
615.566	0.522	522.5	repeat	Run1	repeat/STIM_000.jpg	100
620.03	0.684	683.9	repeat	Run1	repeat/STIM_000.jpg	100
623.023	0.746	745.6	repeat	Run1	repeat/STIM_000.jpg	100
626.002	0.86	859.6	repeat	Run1	repeat/STIM_000.jpg	100
629.681	0.333	333.2	repeat	Run1	repeat/STIM_001.jpg	100
634.165	0.425	424.8	repeat	Run1	repeat/STIM_001.jpg	99
638.162	0.7	700.5	repeat	Run1	repeat/STIM_001.jpg	99
641.633	0.838	837.7	repeat	Run1	repeat/STIM_001.jpg	99
645.013	0.654	653.9	repeat	Run1	repeat/STIM_001.jpg	100
649.765	0.529	529.2	repeat	Run1	repeat/STIM_002.jpg	99
654.339	0.622	622.2	repeat	Run1	repeat/STIM_002.jpg	100
658.808	0.549	549.3	repeat	Run1	repeat/STIM_002.jpg	99
661.535	0.625	624.8	repeat	Run1	repeat/STIM_002.jpg	99
665.481	0.545	544.7	repeat	Run1	repeat/STIM_002.jpg	100
669.021	0.824	823.9	repeat	Run1	repeat/STIM_003.jpg	99
672.142	0.455	455.2	repeat	Run1	repeat/STIM_003.jpg	100
676.324	0.706	706.4	repeat	Run1	repeat/STIM_003.jpg	100
679.26	0.628	627.8	repeat	Run1	repeat/STIM_003.jpg	100
682.416	0.789	788.7	repeat	Run1	repeat/STIM_003.jpg	99
685.79	0.656	655.8	repeat	Run1	repeat/STIM_004.jpg	100
689.141	0.801	801.2	repeat	Run1	repeat/STIM_004.jpg	99
693.461	0.772	772.1	repeat	Run1	repeat/STIM_004.jpg	99
696.618	0.43	430.3	repeat	Run1	repeat/STIM_004.jpg	99
699.236	0.776	776.4	repeat	Run1	repeat/STIM_004.jpg	99
702.689	0.502	502.5	repeat	Run1	repeat/STIM_005.jpg	99
706.727	0.541	541.4	repeat	Run1	repeat/STIM_005.jpg	99
711.127	0.592	591.7	repeat	Run1	repeat/STIM_005.jpg	99
715.739	0.724	724.4	repeat	Run1	repeat/STIM_005.jpg	99
719.89	0.413	413.4	repeat	Run1	repeat/STIM_005.jpg	100
723.542	0.475	474.6	repeat	Run1	repeat/STIM_006.jpg	99
726.796	0.678	678.2	repeat	Run1	repeat/STIM_006.jpg	99
730.212	0.467	467.2	repeat	Run1	repeat/STIM_006.jpg	99
732.818	0.724	724.0	repeat	Run1	repeat/STIM_006.jpg	99
735.724	0.709	709.4	repeat	Run1	repeat/STIM_006.jpg	100
739.529	0.774	774.0	repeat	Run1	repeat/STIM_007.jpg	99
744.003	0.602	601.5	repeat	Run1	repeat/STIM_007.jpg	100
747.608	0.7	700.1	repeat	Run1	repeat/STIM_007.jpg	100
751.62	0.759	758.7	repeat	Run1	repeat/STIM_007.jpg	99
755.242	0.675	674.7	repeat	Run1	repeat/STIM_007.jpg	100
758.891	0.589	588.7	repeat	Run1	repeat/STIM_008.jpg	100
763.158	0.648	647.5	repeat	Run1	repeat/STIM_008.jpg	99
766.181	0.632	632.4	repeat	Run1	repeat/STIM_008.jpg	99
770.659	0.618	618.5	repeat	Run1	repeat/STIM_008.jpg	99
773.717	0.784	783.5	repeat	Run1	repeat/STIM_008.jpg	100
776.721	0.727	726.9	repeat	Run1	repeat/STIM_009.jpg	100
781.624	0.582	581.9	repeat	Run1	repeat/STIM_009.jpg	99
785.98	0.773	773.3	repeat	Run1	repeat/STIM_009.jpg	99
790.463	0.784	783.9	repeat	Run1	repeat/STIM_009.jpg	99
794.674	0.481	481.4	repeat	Run1	repeat/STIM_009.jpg	100
797.489	0.775	775.0	repeat	Run1	repeat/STIM_010.jpg	100
800.97	0.577	577.4	repeat	Run1	repeat/STIM_010.jpg	99
803.771	0.461	460.7	repeat	Run1	repeat/STIM_010.jpg	100
806.757	0.484	484.1	repeat	Run1	repeat/STIM_010.jpg	100
811.264	0.811	811.1	repeat	Run1	repeat/STIM_010.jpg	100
815.974	0.84	839.5	repeat	Run1	repeat/STIM_011.jpg	100
819.103	0.447	447.4	repeat	Run1	repeat/STIM_011.jpg	99
821.662	0.477	477.1	repeat	Run1	repeat/STIM_011.jpg	99
826.119	0.816	815.6	repeat	Run1	repeat/STIM_011.jpg	100
829.539	0.453	453.4	repeat	Run1	repeat/STIM_011.jpg	99
833.725	0.498	497.9	repeat	Run1	repeat/STIM_012.jpg	100
837.432	0.577	576.6	repeat	Run1	repeat/STIM_012.jpg	100
841.293	0.516	515.5	repeat	Run1	repeat/STIM_012.jpg	100
844.965	0.726	726.4	repeat	Run1	repeat/STIM_012.jpg	100
849.448	0.566	566.4	repeat	Run1	repeat/STIM_012.jpg	100
853.359	0.745	744.7	repeat	Run1	repeat/STIM_013.jpg	100
857.998	0.423	423.1	repeat	Run1	repeat/STIM_013.jpg	100
860.846	0.797	797.0	repeat	Run1	repeat/STIM_013.jpg	100
865.183	0.5	500.2	repeat	Run1	repeat/STIM_013.jpg	100
868.53	0.502	502.1	repeat	Run1	repeat/STIM_013.jpg	99
871.488	0.725	725.4	repeat	Run1	repeat/STIM_014.jpg	100
875.894	0.858	858.2	repeat	Run1	repeat/STIM_014.jpg	100
879.655	0.426	425.5	repeat	Run1	repeat/STIM_014.jpg	100
882.489	0.654	653.7	repeat	Run1	repeat/STIM_014.jpg	100
886.62	0.643	643.2	repeat	Run1	repeat/STIM_014.jpg	100
889.94	1.475	1474.7	generate	Run2	generate/STIM_000.jpg	100
895.161	1.39	1389.9	generate	Run2	generate/STIM_000.jpg	100
900.161	1.494	1494.0	generate	Run2	generate/STIM_000.jpg	100
905.391	0.836	836.4	generate	Run2	generate/STIM_000.jpg	100
909.629	1.689	1688.7	generate	Run2	generate/STIM_000.jpg	100
914.893	1.095	1094.9	generate	Run2	generate/STIM_001.jpg	99
918.374	0.775	774.9	generate	Run2	generate/STIM_001.jpg	100
922.49	1.736	1736.0	generate	Run2	generate/STIM_001.jpg	99
928.31	1.18	1180.2	generate	Run2	generate/STIM_001.jpg	99
932.828	1.23	1230.1	generate	Run2	generate/STIM_001.jpg	100
936.512	0.968	967.5	generate	Run2	generate/STIM_002.jpg	99
940.53	1.142	1141.6	generate	Run2	generate/STIM_002.jpg	100
944.392	1.803	1802.7	generate	Run2	generate/STIM_002.jpg	99
949.841	1.48	1480.5	generate	Run2	generate/STIM_002.jpg	99
955.238	1.242	1242.3	generate	Run2	generate/STIM_002.jpg	99
960.229	1.28	1280.0	generate	Run2	generate/STIM_003.jpg	100
964.519	1.872	1871.9	generate	Run2	generate/STIM_003.jpg	99
969.102	1.72	1720.1	generate	Run2	generate/STIM_003.jpg	99
973.244	1.244	1243.6	generate	Run2	generate/STIM_003.jpg	99
978.515	0.965	965.2	generate	Run2	generate/STIM_003.jpg	99
983.209	1.187	1187.2	generate	Run2	generate/STIM_004.jpg	99
987.148	2.024	2024.3	generate	Run2	generate/STIM_004.jpg	99
991.914	1.369	1369.2	generate	Run2	generate/STIM_004.jpg	100
995.475	1.219	1219.3	generate	Run2	generate/STIM_004.jpg	99
1000.161	0.777	777.1	generate	Run2	generate/STIM_004.jpg	100
1003.703	0.895	895.3	generate	Run2	generate/STIM_005.jpg	99
1008.451	1.879	1878.7	generate	Run2	generate/STIM_005.jpg	100
1013.153	1.205	1204.8	generate	Run2	generate/STIM_005.jpg	100
1018.151	0.922	922.3	generate	Run2	generate/STIM_005.jpg	100
1021.649	1.065	1065.3	generate	Run2	generate/STIM_005.jpg	100
1025.317	2.006	2006.4	generate	Run2	generate/STIM_006.jpg	99
1031.625	1.642	1641.9	generate	Run2	generate/STIM_006.jpg	99
1036.691	0.969	969.3	generate	Run2	generate/STIM_006.jpg	99
1041.425	1.592	1591.6	generate	Run2	generate/STIM_006.jpg	99
1045.894	1.396	1396.2	generate	Run2	generate/STIM_006.jpg	99
1050.695	1.421	1420.9	generate	Run2	generate/STIM_007.jpg	100
1054.785	1.397	1396.7	generate	Run2	generate/STIM_007.jpg	100
1059.114	1.31	1310.4	generate	Run2	generate/STIM_007.jpg	100
1063.776	1.285	1285.3	generate	Run2	generate/STIM_007.jpg	99
1067.772	0.753	752.6	generate	Run2	generate/STIM_007.jpg	100
1071.972	1.714	1713.7	generate	Run2	generate/STIM_008.jpg	100
1076.781	1.751	1750.8	generate	Run2	generate/STIM_008.jpg	100
1081.718	1.763	1762.9	generate	Run2	generate/STIM_008.jpg	100
1086.569	1.554	1553.7	generate	Run2	generate/STIM_008.jpg	99
1092.376	1.19	1190.0	generate	Run2	generate/STIM_008.jpg	100
1097.107	0.966	966.2	generate	Run2	generate/STIM_009.jpg	100
1101.223	0.866	865.5	generate	Run2	generate/STIM_009.jpg	99
1104.329	1.38	1379.7	generate	Run2	generate/STIM_009.jpg	100
1109.14	1.093	1093.4	generate	Run2	generate/STIM_009.jpg	99
1113.395	1.102	1101.5	generate	Run2	generate/STIM_009.jpg	100
1117.897	1.466	1466.2	generate	Run2	generate/STIM_010.jpg	99
1122.233	1.811	1811.1	generate	Run2	generate/STIM_010.jpg	99
1126.476	0.898	898.0	generate	Run2	generate/STIM_010.jpg	100
1131.163	1.501	1500.9	generate	Run2	generate/STIM_010.jpg	100
1136.475	1.732	1732.4	generate	Run2	generate/STIM_010.jpg	100
1142.337	1.41	1409.9	generate	Run2	generate/STIM_011.jpg	100
1146.417	1.286	1286.3	generate	Run2	generate/STIM_011.jpg	100
1151.609	1.559	1559.4	generate	Run2	generate/STIM_011.jpg	99
1156.966	0.972	972.0	generate	Run2	generate/STIM_011.jpg	99
1161.489	1.393	1392.6	generate	Run2	generate/STIM_011.jpg	100
1165.595	1.796	1795.9	generate	Run2	generate/STIM_012.jpg	100
1169.958	1.66	1659.6	generate	Run2	generate/STIM_012.jpg	100
1175.17	0.901	900.9	generate	Run2	generate/STIM_012.jpg	99
1178.756	1.494	1494.1	generate	Run2	generate/STIM_012.jpg	99
1183.931	0.948	947.7	generate	Run2	generate/STIM_012.jpg	99
1187.969	1.511	1511.2	generate	Run2	generate/STIM_013.jpg	99
1192.29	1.737	1737.3	generate	Run2	generate/STIM_013.jpg	99
1196.297	1.243	1242.7	generate	Run2	generate/STIM_013.jpg	99
1200.233	1.313	1313.0	generate	Run2	generate/STIM_013.jpg	99
1203.892	1.613	1613.0	generate	Run2	generate/STIM_013.jpg	99
1209.171	2.057	2057.1	generate	Run2	generate/STIM_014.jpg	99
1214.425	1.101	1101.2	generate	Run2	generate/STIM_014.jpg	99
1218.571	1.814	1814.3	generate	Run2	generate/STIM_014.jpg	99
1223.0	0.819	819.1	generate	Run2	generate/STIM_014.jpg	100
1226.799	1.6	1600.5	generate	Run2	generate/STIM_014.jpg	99
1230.768	1.898	1897.9	generate	Run2	generate/STIM_015.jpg	100
1236.175	1.949	1948.7	generate	Run2	generate/STIM_015.jpg	100
1241.414	1.809	1808.9	generate	Run2	generate/STIM_015.jpg	100
1246.659	1.033	1032.6	generate	Run2	generate/STIM_015.jpg	99
1250.341	1.086	1086.0	generate	Run2	generate/STIM_015.jpg	100
1253.777	2.148	2148.2	generate	Run2	generate/STIM_016.jpg	99
1259.869	1.951	1950.7	generate	Run2	generate/STIM_016.jpg	100
1264.727	0.959	959.4	generate	Run2	generate/STIM_016.jpg	99
1269.285	1.473	1472.7	generate	Run2	generate/STIM_016.jpg	100
1274.127	1.203	1202.6	generate	Run2	generate/STIM_016.jpg	99
1278.444	1.369	1369.1	generate	Run2	generate/STIM_017.jpg	100
1283.144	1.728	1728.0	generate	Run2	generate/STIM_017.jpg	99
1287.495	1.81	1810.3	generate	Run2	generate/STIM_017.jpg	100
1292.781	1.391	1391.2	generate	Run2	generate/STIM_017.jpg	99
1297.944	1.693	1692.6	generate	Run2	generate/STIM_017.jpg	100
1302.059	1.341	1340.6	generate	Run2	generate/STIM_018.jpg	100
1306.329	1.367	1366.9	generate	Run2	generate/STIM_018.jpg	99
1310.463	0.941	941.0	generate	Run2	generate/STIM_018.jpg	99
1315.049	1.408	1408.3	generate	Run2	generate/STIM_018.jpg	99
1320.471	1.147	1147.2	generate	Run2	generate/STIM_018.jpg	100
1323.941	1.831	1831.4	generate	Run2	generate/STIM_019.jpg	100
1329.164	1.816	1816.5	generate	Run2	generate/STIM_019.jpg	100
1333.364	1.583	1583.4	generate	Run2	generate/STIM_019.jpg	99
1338.1	1.005	1005.0	generate	Run2	generate/STIM_019.jpg	100
1342.168	1.779	1779.2	generate	Run2	generate/STIM_019.jpg	99
1347.126	1.398	1398.5	generate	Run2	generate/STIM_020.jpg	99
1352.164	1.194	1194.5	generate	Run2	generate/STIM_020.jpg	100
1356.009	0.976	975.9	generate	Run2	generate/STIM_020.jpg	99
1361.081	1.438	1437.8	generate	Run2	generate/STIM_020.jpg	100
1364.871	0.864	863.5	generate	Run2	generate/STIM_020.jpg	99
1368.031	1.991	1991.0	generate	Run2	generate/STIM_021.jpg	99
1373.24	0.921	920.7	generate	Run2	generate/STIM_021.jpg	100
1377.793	1.215	1215.0	generate	Run2	generate/STIM_021.jpg	99
1382.107	1.35	1349.7	generate	Run2	generate/STIM_021.jpg	100
1387.245	1.493	1493.2	generate	Run2	generate/STIM_021.jpg	100
1392.531	1.211	1210.7	generate	Run2	generate/STIM_022.jpg	99
1397.406	0.952	951.5	generate	Run2	generate/STIM_022.jpg	99
1401.695	1.225	1224.7	generate	Run2	generate/STIM_022.jpg	99
1407.07	1.326	1326.1	generate	Run2	generate/STIM_022.jpg	99
1410.967	1.639	1639.4	generate	Run2	generate/STIM_022.jpg	100
1416.793	0.86	860.2	generate	Run2	generate/STIM_023.jpg	99
1420.092	1.492	1491.9	generate	Run2	generate/STIM_023.jpg	100
1425.712	1.23	1230.0	generate	Run2	generate/STIM_023.jpg	99
1430.38	1.446	1446.2	generate	Run2	generate/STIM_023.jpg	99
1434.218	1.219	1218.6	generate	Run2	generate/STIM_023.jpg	99
1437.727	1.06	1060.1	generate	Run2	generate/STIM_024.jpg	99
1441.793	0.962	961.8	generate	Run2	generate/STIM_024.jpg	100
1446.929	0.974	973.5	generate	Run2	generate/STIM_024.jpg	99
1451.224	1.516	1516.1	generate	Run2	generate/STIM_024.jpg	100
1456.749	1.72	1720.4	generate	Run2	generate/STIM_024.jpg	100
1461.645	0.676	675.6	repeat	Run2	repeat/STIM_000.jpg	100
1464.913	0.547	547.1	repeat	Run2	repeat/STIM_000.jpg	100
1467.841	0.778	778.3	repeat	Run2	repeat/STIM_000.jpg	100
1471.599	0.476	475.5	repeat	Run2	repeat/STIM_000.jpg	99
1474.874	0.832	832.4	repeat	Run2	repeat/STIM_000.jpg	100
1477.988	0.611	611.2	repeat	Run2	repeat/STIM_001.jpg	99
1481.43	0.682	681.8	repeat	Run2	repeat/STIM_001.jpg	100
1484.996	0.691	691.0	repeat	Run2	repeat/STIM_001.jpg	100
1489.706	0.39	390.3	repeat	Run2	repeat/STIM_001.jpg	100
1492.556	0.534	533.9	repeat	Run2	repeat/STIM_001.jpg	100
1497.161	0.583	583.0	repeat	Run2	repeat/STIM_002.jpg	100
1501.364	0.73	729.5	repeat	Run2	repeat/STIM_002.jpg	99
1504.277	0.836	835.8	repeat	Run2	repeat/STIM_002.jpg	100
1508.322	0.507	506.8	repeat	Run2	repeat/STIM_002.jpg	99
1511.817	0.847	846.9	repeat	Run2	repeat/STIM_002.jpg	100
1516.779	0.86	859.5	repeat	Run2	repeat/STIM_003.jpg	99
1520.889	0.693	693.0	repeat	Run2	repeat/STIM_003.jpg	99
1524.641	0.458	457.5	repeat	Run2	repeat/STIM_003.jpg	99
1527.395	0.842	842.5	repeat	Run2	repeat/STIM_003.jpg	99
1530.969	0.544	544.0	repeat	Run2	repeat/STIM_003.jpg	99
1534.48	0.754	753.5	repeat	Run2	repeat/STIM_004.jpg	99
1538.59	0.498	498.2	repeat	Run2	repeat/STIM_004.jpg	99
1541.573	0.618	617.5	repeat	Run2	repeat/STIM_004.jpg	100
1545.729	0.553	553.1	repeat	Run2	repeat/STIM_004.jpg	100
1549.953	0.804	803.8	repeat	Run2	repeat/STIM_004.jpg	99
1552.982	0.707	707.2	repeat	Run2	repeat/STIM_005.jpg	99
1557.184	0.902	902.2	repeat	Run2	repeat/STIM_005.jpg	100
1562.069	0.634	633.8	repeat	Run2	repeat/STIM_005.jpg	99
1565.493	0.469	468.8	repeat	Run2	repeat/STIM_005.jpg	100
1569.693	0.801	801.2	repeat	Run2	repeat/STIM_005.jpg	99
1574.376	0.807	807.2	repeat	Run2	repeat/STIM_006.jpg	100
1577.669	0.601	601.4	repeat	Run2	repeat/STIM_006.jpg	99
1580.738	0.444	444.2	repeat	Run2	repeat/STIM_006.jpg	99
1585.313	0.709	709.1	repeat	Run2	repeat/STIM_006.jpg	99
1588.332	0.494	494.0	repeat	Run2	repeat/STIM_006.jpg	99
1591.141	0.776	775.7	repeat	Run2	repeat/STIM_007.jpg	100
1594.928	0.609	609.4	repeat	Run2	repeat/STIM_007.jpg	100
1599.663	0.418	418.5	repeat	Run2	repeat/STIM_007.jpg	99
1603.009	0.694	693.9	repeat	Run2	repeat/STIM_007.jpg	100
1606.436	0.71	710.2	repeat	Run2	repeat/STIM_007.jpg	100
1610.882	0.886	886.0	repeat	Run2	repeat/STIM_008.jpg	99
1615.206	0.835	835.4	repeat	Run2	repeat/STIM_008.jpg	99
1618.873	0.495	495.4	repeat	Run2	repeat/STIM_008.jpg	99
1621.858	0.664	664.3	repeat	Run2	repeat/STIM_008.jpg	99
1626.05	0.507	506.8	repeat	Run2	repeat/STIM_008.jpg	99
1628.867	0.668	668.2	repeat	Run2	repeat/STIM_009.jpg	99
1632.395	0.554	554.3	repeat	Run2	repeat/STIM_009.jpg	99
1636.352	0.642	641.5	repeat	Run2	repeat/STIM_009.jpg	99
1639.04	0.746	746.3	repeat	Run2	repeat/STIM_009.jpg	99
1642.899	0.646	645.8	repeat	Run2	repeat/STIM_009.jpg	99
1646.286	0.79	789.8	repeat	Run2	repeat/STIM_010.jpg	99
1651.049	0.747	747.2	repeat	Run2	repeat/STIM_010.jpg	100
1654.38	0.417	417.4	repeat	Run2	repeat/STIM_010.jpg	100
1657.362	0.575	574.6	repeat	Run2	repeat/STIM_010.jpg	99
1661.211	0.472	472.0	repeat	Run2	repeat/STIM_010.jpg	100
1664.067	0.502	502.3	repeat	Run2	repeat/STIM_011.jpg	100
1666.924	0.782	781.7	repeat	Run2	repeat/STIM_011.jpg	99
1670.738	0.546	546.2	repeat	Run2	repeat/STIM_011.jpg	100
1675.21	0.816	816.0	repeat	Run2	repeat/STIM_011.jpg	99
1678.852	0.574	573.5	repeat	Run2	repeat/STIM_011.jpg	99
1682.726	0.84	840.2	repeat	Run2	repeat/STIM_012.jpg	100
1685.7	0.678	678.4	repeat	Run2	repeat/STIM_012.jpg	99
1689.479	0.421	421.3	repeat	Run2	repeat/STIM_012.jpg	100
1692.582	0.547	546.6	repeat	Run2	repeat/STIM_012.jpg	99
1695.989	0.634	634.1	repeat	Run2	repeat/STIM_012.jpg	99
1700.068	0.585	584.7	repeat	Run2	repeat/STIM_013.jpg	100
1703.506	0.555	554.7	repeat	Run2	repeat/STIM_013.jpg	99
1706.912	0.811	810.7	repeat	Run2	repeat/STIM_013.jpg	99
1710.412	0.509	509.4	repeat	Run2	repeat/STIM_013.jpg	100
1713.053	0.736	736.4	repeat	Run2	repeat/STIM_013.jpg	99
1717.445	0.831	830.9	repeat	Run2	repeat/STIM_014.jpg	100
1721.468	0.741	740.8	repeat	Run2	repeat/STIM_014.jpg	100
1724.554	0.824	824.5	repeat	Run2	repeat/STIM_014.jpg	99
1728.748	0.742	742.1	repeat	Run2	repeat/STIM_014.jpg	99
1733.304	0.808	807.9	repeat	Run2	repeat/STIM_014.jpg	100
1737.613	1.553	1552.6	generate	Run3	generate/STIM_000.jpg	100
1741.894	1.024	1024.0	generate	Run3	generate/STIM_000.jpg	99
1745.945	1.559	1559.1	generate	Run3	generate/STIM_000.jpg	99
1751.487	0.684	683.5	generate	Run3	generate/STIM_000.jpg	100
1756.038	1.324	1323.7	generate	Run3	generate/STIM_000.jpg	100
1760.533	1.358	1357.8	generate	Run3	generate/STIM_001.jpg	100
1764.907	1.563	1563.0	generate	Run3	generate/STIM_001.jpg	99
1770.636	1.327	1327.3	generate	Run3	generate/STIM_001.jpg	100
1775.401	1.192	1191.8	generate	Run3	generate/STIM_001.jpg	99
1779.223	1.188	1188.5	generate	Run3	generate/STIM_001.jpg	99
1783.638	1.295	1295.2	generate	Run3	generate/STIM_002.jpg	100
1788.212	1.1	1100.0	generate	Run3	generate/STIM_002.jpg	99
1792.053	1.476	1476.3	generate	Run3	generate/STIM_002.jpg	100
1797.599	1.09	1089.9	generate	Run3	generate/STIM_002.jpg	99
1801.152	1.402	1401.9	generate	Run3	generate/STIM_002.jpg	100
1806.005	1.195	1195.4	generate	Run3	generate/STIM_003.jpg	99
1810.87	1.77	1769.8	generate	Run3	generate/STIM_003.jpg	100
1815.962	0.99	989.9	generate	Run3	generate/STIM_003.jpg	100
1819.296	1.279	1278.7	generate	Run3	generate/STIM_003.jpg	100
1824.547	1.77	1770.1	generate	Run3	generate/STIM_003.jpg	99
1828.629	1.619	1618.9	generate	Run3	generate/STIM_004.jpg	99
1833.57	1.519	1519.1	generate	Run3	generate/STIM_004.jpg	99
1837.869	1.769	1769.2	generate	Run3	generate/STIM_004.jpg	100
1842.672	1.191	1191.0	generate	Run3	generate/STIM_004.jpg	100
1847.399	1.044	1043.6	generate	Run3	generate/STIM_004.jpg	100
1851.487	0.812	811.9	generate	Run3	generate/STIM_005.jpg	100
1854.443	0.976	975.9	generate	Run3	generate/STIM_005.jpg	100
1858.024	0.981	981.4	generate	Run3	generate/STIM_005.jpg	99
1862.041	0.971	971.2	generate	Run3	generate/STIM_005.jpg	99
1865.79	0.953	952.6	generate	Run3	generate/STIM_005.jpg	99
1870.911	1.54	1539.8	generate	Run3	generate/STIM_006.jpg	100
1876.408	1.183	1182.6	generate	Run3	generate/STIM_006.jpg	100
1880.464	1.522	1521.7	generate	Run3	generate/STIM_006.jpg	99
1884.272	1.11	1110.1	generate	Run3	generate/STIM_006.jpg	100
1889.115	1.634	1634.2	generate	Run3	generate/STIM_006.jpg	100
1894.614	1.552	1552.5	generate	Run3	generate/STIM_007.jpg	99
1900.382	1.04	1040.5	generate	Run3	generate/STIM_007.jpg	100
1905.011	0.799	799.2	generate	Run3	generate/STIM_007.jpg	100
1908.845	1.471	1471.2	generate	Run3	generate/STIM_007.jpg	99
1914.19	1.021	1021.2	generate	Run3	generate/STIM_007.jpg	100
1917.846	1.341	1341.1	generate	Run3	generate/STIM_008.jpg	100
1921.652	0.85	850.5	generate	Run3	generate/STIM_008.jpg	100
1924.69	0.745	745.0	generate	Run3	generate/STIM_008.jpg	99
1928.739	1.089	1088.8	generate	Run3	generate/STIM_008.jpg	99
1932.099	0.771	770.8	generate	Run3	generate/STIM_008.jpg	100
1935.984	0.992	992.2	generate	Run3	generate/STIM_009.jpg	100
1939.906	1.191	1190.7	generate	Run3	generate/STIM_009.jpg	100
1943.528	0.892	892.1	generate	Run3	generate/STIM_009.jpg	100
1947.675	1.248	1247.6	generate	Run3	generate/STIM_009.jpg	100
1951.51	1.712	1712.2	generate	Run3	generate/STIM_009.jpg	99
1956.824	1.782	1781.5	generate	Run3	generate/STIM_010.jpg	100
1960.938	1.712	1711.8	generate	Run3	generate/STIM_010.jpg	100
1965.706	1.639	1639.2	generate	Run3	generate/STIM_010.jpg	99
1971.376	1.625	1625.4	generate	Run3	generate/STIM_010.jpg	99
1976.271	1.36	1360.0	generate	Run3	generate/STIM_010.jpg	100
1980.509	1.434	1434.4	generate	Run3	generate/STIM_011.jpg	99
1984.35	0.985	984.9	generate	Run3	generate/STIM_011.jpg	99
1987.884	1.504	1504.1	generate	Run3	generate/STIM_011.jpg	100
1993.168	1.003	1003.3	generate	Run3	generate/STIM_011.jpg	99
1997.482	1.363	1363.0	generate	Run3	generate/STIM_011.jpg	100
2001.467	1.581	1580.9	generate	Run3	generate/STIM_012.jpg	99
2007.104	1.179	1178.6	generate	Run3	generate/STIM_012.jpg	100
2011.715	0.966	966.4	generate	Run3	generate/STIM_012.jpg	100
2015.436	1.376	1376.4	generate	Run3	generate/STIM_012.jpg	99
2020.728	1.538	1537.8	generate	Run3	generate/STIM_012.jpg	99
2025.515	1.731	1731.3	generate	Run3	generate/STIM_013.jpg	99
2031.289	0.869	869.4	generate	Run3	generate/STIM_013.jpg	100
2034.331	1.546	1545.5	generate	Run3	generate/STIM_013.jpg	99
2039.187	1.197	1196.8	generate	Run3	generate/STIM_013.jpg	100
2044.003	1.715	1714.8	generate	Run3	generate/STIM_013.jpg	99
2049.887	1.037	1037.2	generate	Run3	generate/STIM_014.jpg	100
2054.382	1.402	1402.4	generate	Run3	generate/STIM_014.jpg	100
2058.055	0.857	857.3	generate	Run3	generate/STIM_014.jpg	99
2062.799	0.832	831.9	generate	Run3	generate/STIM_014.jpg	100
2066.542	0.677	677.1	generate	Run3	generate/STIM_014.jpg	99
2070.824	1.061	1061.4	generate	Run3	generate/STIM_015.jpg	99
2075.668	0.837	837.1	generate	Run3	generate/STIM_015.jpg	100
2079.076	1.004	1004.5	generate	Run3	generate/STIM_015.jpg	99
2082.932	0.962	962.2	generate	Run3	generate/STIM_015.jpg	99
2086.16	0.82	819.6	generate	Run3	generate/STIM_015.jpg	99
2090.181	1.645	1644.9	generate	Run3	generate/STIM_016.jpg	100
2095.634	0.989	988.6	generate	Run3	generate/STIM_016.jpg	99
2099.1	0.972	972.2	generate	Run3	generate/STIM_016.jpg	100
2103.78	1.276	1275.6	generate	Run3	generate/STIM_016.jpg	99
2108.257	1.505	1505.1	generate	Run3	generate/STIM_016.jpg	100
2113.113	1.645	1644.9	generate	Run3	generate/STIM_017.jpg	100
2117.034	0.706	705.6	generate	Run3	generate/STIM_017.jpg	99
2120.967	0.872	871.5	generate	Run3	generate/STIM_017.jpg	99
2124.971	0.982	982.4	generate	Run3	generate/STIM_017.jpg	99
2128.118	1.515	1515.0	generate	Run3	generate/STIM_017.jpg	100
2133.401	0.79	789.8	generate	Run3	generate/STIM_018.jpg	99
2137.916	1.219	1218.8	generate	Run3	generate/STIM_018.jpg	99
2142.051	1.05	1049.6	generate	Run3	generate/STIM_018.jpg	100
2145.79	1.619	1619.2	generate	Run3	generate/STIM_018.jpg	100
2150.032	1.366	1366.0	generate	Run3	generate/STIM_018.jpg	100
2154.719	1.466	1465.7	generate	Run3	generate/STIM_019.jpg	100
2159.704	1.001	1001.4	generate	Run3	generate/STIM_019.jpg	99
2164.481	1.423	1422.8	generate	Run3	generate/STIM_019.jpg	99
2168.119	1.512	1511.6	generate	Run3	generate/STIM_019.jpg	100
2172.916	1.026	1026.4	generate	Run3	generate/STIM_019.jpg	100
2177.044	1.686	1685.7	generate	Run3	generate/STIM_020.jpg	99
2181.277	1.673	1672.6	generate	Run3	generate/STIM_020.jpg	99
2187.095	0.992	992.3	generate	Run3	generate/STIM_020.jpg	99
2190.648	0.813	813.2	generate	Run3	generate/STIM_020.jpg	99
2195.259	0.911	911.1	generate	Run3	generate/STIM_020.jpg	99
2199.616	1.101	1101.2	generate	Run3	generate/STIM_021.jpg	100
2204.473	0.943	942.8	generate	Run3	generate/STIM_021.jpg	99
2207.978	1.083	1083.4	generate	Run3	generate/STIM_021.jpg	99
2213.073	1.054	1054.2	generate	Run3	generate/STIM_021.jpg	100
2216.729	1.213	1213.1	generate	Run3	generate/STIM_021.jpg	100
2220.546	1.437	1436.9	generate	Run3	generate/STIM_022.jpg	100
2225.226	1.641	1640.8	generate	Run3	generate/STIM_022.jpg	100
2229.544	1.304	1304.2	generate	Run3	generate/STIM_022.jpg	100
2234.664	1.384	1384.2	generate	Run3	generate/STIM_022.jpg	100
2240.152	1.26	1259.8	generate	Run3	generate/STIM_022.jpg	99
2244.812	1.62	1620.2	generate	Run3	generate/STIM_023.jpg	100
2249.157	1.371	1371.4	generate	Run3	generate/STIM_023.jpg	99
2253.724	1.034	1033.7	generate	Run3	generate/STIM_023.jpg	99
2256.945	1.63	1629.7	generate	Run3	generate/STIM_023.jpg	99
2261.318	1.203	1202.6	generate	Run3	generate/STIM_023.jpg	100
2265.187	1.156	1155.6	generate	Run3	generate/STIM_024.jpg	100
2268.931	1.637	1636.7	generate	Run3	generate/STIM_024.jpg	99
2274.317	0.752	751.5	generate	Run3	generate/STIM_024.jpg	100
2278.118	1.399	1399.1	generate	Run3	generate/STIM_024.jpg	99
2282.392	1.745	1744.9	generate	Run3	generate/STIM_024.jpg	100
2286.687	0.379	379.2	repeat	Run3	repeat/STIM_000.jpg	100
2289.33	0.518	518.5	repeat	Run3	repeat/STIM_000.jpg	99
2292.702	0.69	689.6	repeat	Run3	repeat/STIM_000.jpg	100
2296.818	0.85	849.8	repeat	Run3	repeat/STIM_000.jpg	99
2301.596	0.38	380.0	repeat	Run3	repeat/STIM_000.jpg	100
2304.214	0.576	576.2	repeat	Run3	repeat/STIM_001.jpg	100
2307.602	0.566	565.9	repeat	Run3	repeat/STIM_001.jpg	99
2311.724	0.521	520.6	repeat	Run3	repeat/STIM_001.jpg	100
2315.872	0.674	673.9	repeat	Run3	repeat/STIM_001.jpg	99
2319.605	0.579	579.2	repeat	Run3	repeat/STIM_001.jpg	100
2323.296	0.599	599.2	repeat	Run3	repeat/STIM_002.jpg	99
2327.424	0.932	932.4	repeat	Run3	repeat/STIM_002.jpg	100
2331.139	0.811	811.1	repeat	Run3	repeat/STIM_002.jpg	99
2334.52	0.572	572.3	repeat	Run3	repeat/STIM_002.jpg	100
2337.846	0.454	454.3	repeat	Run3	repeat/STIM_002.jpg	100
2340.747	0.65	650.3	repeat	Run3	repeat/STIM_003.jpg	99
2344.239	0.529	528.8	repeat	Run3	repeat/STIM_003.jpg	99
2347.576	0.621	621.1	repeat	Run3	repeat/STIM_003.jpg	100
2350.885	0.574	573.6	repeat	Run3	repeat/STIM_003.jpg	100
2354.07	0.419	418.8	repeat	Run3	repeat/STIM_003.jpg	100
2358.045	0.389	388.6	repeat	Run3	repeat/STIM_004.jpg	100
2360.761	0.482	482.4	repeat	Run3	repeat/STIM_004.jpg	100
2364.281	0.76	759.6	repeat	Run3	repeat/STIM_004.jpg	100
2369.11	0.761	761.0	repeat	Run3	repeat/STIM_004.jpg	99
2373.237	0.52	519.7	repeat	Run3	repeat/STIM_004.jpg	99
2377.652	0.696	695.7	repeat	Run3	repeat/STIM_005.jpg	100
2382.3	0.552	551.6	repeat	Run3	repeat/STIM_005.jpg	100
2386.435	0.782	781.8	repeat	Run3	repeat/STIM_005.jpg	100
2391.239	0.586	585.9	repeat	Run3	repeat/STIM_005.jpg	100
2394.865	0.779	779.2	repeat	Run3	repeat/STIM_005.jpg	100
2398.086	0.819	819.3	repeat	Run3	repeat/STIM_006.jpg	100
2401.984	0.84	839.5	repeat	Run3	repeat/STIM_006.jpg	99
2406.198	0.36	359.7	repeat	Run3	repeat/STIM_006.jpg	99
2410.499	0.776	775.6	repeat	Run3	repeat/STIM_006.jpg	99
2414.365	0.607	607.0	repeat	Run3	repeat/STIM_006.jpg	100
2417.951	0.516	516.2	repeat	Run3	repeat/STIM_007.jpg	99
2420.812	0.705	704.9	repeat	Run3	repeat/STIM_007.jpg	99
2424.588	0.588	588.1	repeat	Run3	repeat/STIM_007.jpg	99
2429.332	0.417	416.7	repeat	Run3	repeat/STIM_007.jpg	100
2432.454	0.438	438.0	repeat	Run3	repeat/STIM_007.jpg	100
2435.163	0.787	787.1	repeat	Run3	repeat/STIM_008.jpg	100
2439.966	0.526	526.5	repeat	Run3	repeat/STIM_008.jpg	99
2443.878	0.715	715.2	repeat	Run3	repeat/STIM_008.jpg	100
2447.383	0.748	748.3	repeat	Run3	repeat/STIM_008.jpg	99
2450.319	0.672	672.1	repeat	Run3	repeat/STIM_008.jpg	100
2453.122	0.431	431.2	repeat	Run3	repeat/STIM_009.jpg	100
2456.624	0.81	810.5	repeat	Run3	repeat/STIM_009.jpg	99
2460.861	0.623	623.2	repeat	Run3	repeat/STIM_009.jpg	100
2464.029	0.53	529.6	repeat	Run3	repeat/STIM_009.jpg	99
2467.411	0.692	692.4	repeat	Run3	repeat/STIM_009.jpg	100
2470.997	0.448	448.4	repeat	Run3	repeat/STIM_010.jpg	99
2474.163	0.686	686.5	repeat	Run3	repeat/STIM_010.jpg	100
2477.43	0.898	897.9	repeat	Run3	repeat/STIM_010.jpg	99
2480.892	0.461	460.6	repeat	Run3	repeat/STIM_010.jpg	100
2484.503	0.646	645.8	repeat	Run3	repeat/STIM_010.jpg	100
2487.695	0.538	537.6	repeat	Run3	repeat/STIM_011.jpg	99
2491.271	0.431	431.4	repeat	Run3	repeat/STIM_011.jpg	99
2494.363	0.368	368.4	repeat	Run3	repeat/STIM_011.jpg	100
2498.359	0.709	708.6	repeat	Run3	repeat/STIM_011.jpg	99
2503.018	0.851	851.2	repeat	Run3	repeat/STIM_011.jpg	99
2507.471	0.688	687.9	repeat	Run3	repeat/STIM_012.jpg	100
2510.765	0.718	718.0	repeat	Run3	repeat/STIM_012.jpg	99
2514.034	0.587	587.3	repeat	Run3	repeat/STIM_012.jpg	100
2517.211	0.573	572.6	repeat	Run3	repeat/STIM_012.jpg	99
2520.723	0.566	566.5	repeat	Run3	repeat/STIM_012.jpg	99
2524.191	0.567	567.0	repeat	Run3	repeat/STIM_013.jpg	99
2528.381	0.467	466.9	repeat	Run3	repeat/STIM_013.jpg	99
2532.43	0.65	649.5	repeat	Run3	repeat/STIM_013.jpg	99
2535.927	0.801	800.6	repeat	Run3	repeat/STIM_013.jpg	99
2540.232	0.644	644.2	repeat	Run3	repeat/STIM_013.jpg	100
2544.605	0.68	680.2	repeat	Run3	repeat/STIM_014.jpg	100
2549.354	0.468	467.9	repeat	Run3	repeat/STIM_014.jpg	100
2552.711	0.779	778.7	repeat	Run3	repeat/STIM_014.jpg	100
2555.902	0.819	818.8	repeat	Run3	repeat/STIM_014.jpg	100
2559.881	0.611	611.1	repeat	Run3	repeat/STIM_014.jpg	99
2563.884	0.718	718.2	generate	Run4	generate/STIM_000.jpg	99
2568.126	1.505	1505.0	generate	Run4	generate/STIM_000.jpg	100
2573.446	1.652	1652.1	generate	Run4	generate/STIM_000.jpg	100
2579.312	1.127	1127.2	generate	Run4	generate/STIM_000.jpg	99
2584.165	1.384	1384.5	generate	Run4	generate/STIM_000.jpg	100
2588.843	1.411	1411.4	generate	Run4	generate/STIM_001.jpg	99
2593.943	1.503	1503.0	generate	Run4	generate/STIM_001.jpg	100
2598.385	1.068	1067.8	generate	Run4	generate/STIM_001.jpg	100
2601.958	1.772	1771.9	generate	Run4	generate/STIM_001.jpg	99
2606.219	1.098	1097.8	generate	Run4	generate/STIM_001.jpg	100
2610.602	0.972	971.5	generate	Run4	generate/STIM_002.jpg	99
2614.889	1.538	1537.8	generate	Run4	generate/STIM_002.jpg	99
2620.231	0.897	896.8	generate	Run4	generate/STIM_002.jpg	99
2624.572	1.692	1692.1	generate	Run4	generate/STIM_002.jpg	99
2630.051	0.906	905.5	generate	Run4	generate/STIM_002.jpg	99
2635.099	1.111	1111.2	generate	Run4	generate/STIM_003.jpg	99
2640.128	1.472	1472.3	generate	Run4	generate/STIM_003.jpg	99
2644.909	0.807	806.9	generate	Run4	generate/STIM_003.jpg	99
2648.263	1.397	1397.0	generate	Run4	generate/STIM_003.jpg	100
2652.935	1.574	1574.3	generate	Run4	generate/STIM_003.jpg	100
2657.913	1.63	1629.7	generate	Run4	generate/STIM_004.jpg	100
2662.539	0.86	859.8	generate	Run4	generate/STIM_004.jpg	100
2665.53	0.868	867.8	generate	Run4	generate/STIM_004.jpg	100
2668.719	0.939	938.6	generate	Run4	generate/STIM_004.jpg	99
2673.205	0.705	705.2	generate	Run4	generate/STIM_004.jpg	99
2676.473	1.592	1591.5	generate	Run4	generate/STIM_005.jpg	100
2681.584	1.488	1487.7	generate	Run4	generate/STIM_005.jpg	100
2687.239	1.484	1483.6	generate	Run4	generate/STIM_005.jpg	100
2692.774	1.334	1333.5	generate	Run4	generate/STIM_005.jpg	99
2696.99	1.588	1587.9	generate	Run4	generate/STIM_005.jpg	99
2701.756	0.758	758.2	generate	Run4	generate/STIM_006.jpg	99
2705.547	1.177	1177.4	generate	Run4	generate/STIM_006.jpg	100
2709.2	1.073	1072.8	generate	Run4	generate/STIM_006.jpg	99
2713.97	1.027	1026.8	generate	Run4	generate/STIM_006.jpg	100
2717.322	1.207	1207.1	generate	Run4	generate/STIM_006.jpg	99
2720.955	1.098	1098.2	generate	Run4	generate/STIM_007.jpg	100
2724.918	1.052	1051.5	generate	Run4	generate/STIM_007.jpg	99
2729.019	0.919	918.8	generate	Run4	generate/STIM_007.jpg	100
2733.121	1.013	1012.8	generate	Run4	generate/STIM_007.jpg	99
2737.702	1.66	1660.0	generate	Run4	generate/STIM_007.jpg	99
2742.031	1.421	1421.3	generate	Run4	generate/STIM_008.jpg	100
2746.81	1.415	1415.4	generate	Run4	generate/STIM_008.jpg	100
2750.706	1.722	1722.3	generate	Run4	generate/STIM_008.jpg	99
2755.494	1.348	1347.6	generate	Run4	generate/STIM_008.jpg	99
2760.694	1.26	1259.9	generate	Run4	generate/STIM_008.jpg	99
2764.305	1.689	1689.0	generate	Run4	generate/STIM_009.jpg	99
2768.8	1.122	1122.5	generate	Run4	generate/STIM_009.jpg	99
2773.106	1.456	1456.4	generate	Run4	generate/STIM_009.jpg	100
2777.067	1.741	1740.8	generate	Run4	generate/STIM_009.jpg	99
2781.156	1.681	1680.8	generate	Run4	generate/STIM_009.jpg	99
2786.326	1.196	1195.9	generate	Run4	generate/STIM_010.jpg	100
2790.682	1.496	1495.6	generate	Run4	generate/STIM_010.jpg	99
2796.447	0.711	710.8	generate	Run4	generate/STIM_010.jpg	100
2801.152	0.998	998.1	generate	Run4	generate/STIM_010.jpg	100
2805.086	1.811	1810.8	generate	Run4	generate/STIM_010.jpg	99
2809.546	0.915	914.7	generate	Run4	generate/STIM_011.jpg	100
2813.141	1.192	1191.8	generate	Run4	generate/STIM_011.jpg	100
2816.924	1.546	1546.5	generate	Run4	generate/STIM_011.jpg	100
2821.247	1.21	1210.1	generate	Run4	generate/STIM_011.jpg	99
2825.854	1.517	1517.0	generate	Run4	generate/STIM_011.jpg	99
2831.537	0.976	976.0	generate	Run4	generate/STIM_012.jpg	100
2834.85	1.15	1149.5	generate	Run4	generate/STIM_012.jpg	100
2838.93	1.449	1449.1	generate	Run4	generate/STIM_012.jpg	99
2842.732	1.656	1656.1	generate	Run4	generate/STIM_012.jpg	100
2848.403	0.754	754.3	generate	Run4	generate/STIM_012.jpg	99
2852.0	0.772	771.5	generate	Run4	generate/STIM_013.jpg	100
2856.303	1.486	1485.7	generate	Run4	generate/STIM_013.jpg	99
2861.318	1.308	1308.1	generate	Run4	generate/STIM_013.jpg	100
2866.03	1.355	1355.2	generate	Run4	generate/STIM_013.jpg	99
2870.57	0.808	807.8	generate	Run4	generate/STIM_013.jpg	99
2873.739	1.579	1578.6	generate	Run4	generate/STIM_014.jpg	100
2878.761	1.361	1361.4	generate	Run4	generate/STIM_014.jpg	100
2884.169	1.601	1601.0	generate	Run4	generate/STIM_014.jpg	100
2888.67	1.25	1249.8	generate	Run4	generate/STIM_014.jpg	100
2892.381	1.145	1145.2	generate	Run4	generate/STIM_014.jpg	100
2897.287	1.318	1317.7	generate	Run4	generate/STIM_015.jpg	100
2901.038	0.921	920.8	generate	Run4	generate/STIM_015.jpg	100
2905.3	0.762	762.3	generate	Run4	generate/STIM_015.jpg	99
2909.03	1.178	1178.1	generate	Run4	generate/STIM_015.jpg	100
2912.728	0.837	836.6	generate	Run4	generate/STIM_015.jpg	99
2915.889	1.535	1535.2	generate	Run4	generate/STIM_016.jpg	100
2919.901	1.467	1467.4	generate	Run4	generate/STIM_016.jpg	99
2925.62	0.77	769.6	generate	Run4	generate/STIM_016.jpg	99
2930.089	1.83	1830.0	generate	Run4	generate/STIM_016.jpg	99
2934.367	1.485	1485.1	generate	Run4	generate/STIM_016.jpg	100
2938.686	1.29	1289.6	generate	Run4	generate/STIM_017.jpg	99
2943.434	1.006	1006.1	generate	Run4	generate/STIM_017.jpg	99
2947.507	1.724	1724.0	generate	Run4	generate/STIM_017.jpg	100
2951.746	1.108	1108.2	generate	Run4	generate/STIM_017.jpg	100
2955.113	1.257	1257.1	generate	Run4	generate/STIM_017.jpg	99
2959.989	1.408	1408.4	generate	Run4	generate/STIM_018.jpg	99
2965.339	0.754	754.1	generate	Run4	generate/STIM_018.jpg	100
2969.322	0.952	952.0	generate	Run4	generate/STIM_018.jpg	99
2973.862	1.658	1657.8	generate	Run4	generate/STIM_018.jpg	99
2978.768	0.796	795.9	generate	Run4	generate/STIM_018.jpg	99
2983.278	1.531	1531.1	generate	Run4	generate/STIM_019.jpg	100
2987.922	1.455	1454.6	generate	Run4	generate/STIM_019.jpg	99
2991.778	1.132	1131.7	generate	Run4	generate/STIM_019.jpg	99
2996.514	0.858	857.5	generate	Run4	generate/STIM_019.jpg	99
3001.055	1.326	1326.1	generate	Run4	generate/STIM_019.jpg	99
3004.77	1.62	1620.3	generate	Run4	generate/STIM_020.jpg	100
3009.975	0.816	816.0	generate	Run4	generate/STIM_020.jpg	100
3014.014	1.173	1172.6	generate	Run4	generate/STIM_020.jpg	99
3017.592	1.23	1230.2	generate	Run4	generate/STIM_020.jpg	100
3021.266	1.06	1059.5	generate	Run4	generate/STIM_020.jpg	100
3024.793	1.037	1037.3	generate	Run4	generate/STIM_021.jpg	99
3029.913	1.154	1154.1	generate	Run4	generate/STIM_021.jpg	99
3033.291	1.551	1551.1	generate	Run4	generate/STIM_021.jpg	100
3038.187	1.274	1273.7	generate	Run4	generate/STIM_021.jpg	100
3042.794	1.005	1005.0	generate	Run4	generate/STIM_021.jpg	99
3045.995	1.577	1576.9	generate	Run4	generate/STIM_022.jpg	100
3051.216	1.731	1731.3	generate	Run4	generate/STIM_022.jpg	99
3056.671	1.762	1761.8	generate	Run4	generate/STIM_022.jpg	99
3061.709	1.523	1522.9	generate	Run4	generate/STIM_022.jpg	99
3066.697	0.712	711.9	generate	Run4	generate/STIM_022.jpg	99
3070.564	0.859	859.2	generate	Run4	generate/STIM_023.jpg	100
3074.706	1.781	1780.7	generate	Run4	generate/STIM_023.jpg	99
3079.692	1.5	1499.6	generate	Run4	generate/STIM_023.jpg	99
3085.09	1.123	1122.7	generate	Run4	generate/STIM_023.jpg	100
3088.726	1.087	1087.1	generate	Run4	generate/STIM_023.jpg	99
3093.611	0.805	804.8	generate	Run4	generate/STIM_024.jpg	99
3097.419	1.48	1479.7	generate	Run4	generate/STIM_024.jpg	100
3101.399	1.226	1225.5	generate	Run4	generate/STIM_024.jpg	100
3105.662	1.389	1388.7	generate	Run4	generate/STIM_024.jpg	100
3110.103	1.301	1300.8	generate	Run4	generate/STIM_024.jpg	99
3114.667	0.615	615.3	repeat	Run4	repeat/STIM_000.jpg	100
3119.184	0.827	827.0	repeat	Run4	repeat/STIM_000.jpg	100
3123.13	0.494	494.5	repeat	Run4	repeat/STIM_000.jpg	99
3126.645	0.733	732.6	repeat	Run4	repeat/STIM_000.jpg	100
3130.019	0.526	526.4	repeat	Run4	repeat/STIM_000.jpg	100
3133.317	0.535	534.8	repeat	Run4	repeat/STIM_001.jpg	100
3137.707	0.766	765.7	repeat	Run4	repeat/STIM_001.jpg	99
3141.829	0.805	804.7	repeat	Run4	repeat/STIM_001.jpg	99
3146.355	0.591	591.2	repeat	Run4	repeat/STIM_001.jpg	99
3150.606	0.748	747.5	repeat	Run4	repeat/STIM_001.jpg	100
3155.154	0.504	503.6	repeat	Run4	repeat/STIM_002.jpg	99
3158.595	0.834	834.4	repeat	Run4	repeat/STIM_002.jpg	99
3162.972	0.548	548.3	repeat	Run4	repeat/STIM_002.jpg	99
3166.104	0.779	779.4	repeat	Run4	repeat/STIM_002.jpg	99
3169.696	0.765	765.0	repeat	Run4	repeat/STIM_002.jpg	100
3173.304	0.675	675.2	repeat	Run4	repeat/STIM_003.jpg	99
3177.351	0.711	711.1	repeat	Run4	repeat/STIM_003.jpg	99
3181.682	0.706	706.4	repeat	Run4	repeat/STIM_003.jpg	99
3185.866	0.731	730.7	repeat	Run4	repeat/STIM_003.jpg	99
3188.667	0.624	624.0	repeat	Run4	repeat/STIM_003.jpg	100
3192.002	0.604	604.3	repeat	Run4	repeat/STIM_004.jpg	99
3194.983	0.602	602.5	repeat	Run4	repeat/STIM_004.jpg	99
3198.923	0.791	791.0	repeat	Run4	repeat/STIM_004.jpg	99
3201.894	0.754	753.6	repeat	Run4	repeat/STIM_004.jpg	100
3205.72	0.706	706.3	repeat	Run4	repeat/STIM_004.jpg	99
3209.652	0.575	574.7	repeat	Run4	repeat/STIM_005.jpg	100
3212.406	0.55	549.9	repeat	Run4	repeat/STIM_005.jpg	100
3215.553	0.692	692.1	repeat	Run4	repeat/STIM_005.jpg	99
3219.085	0.772	771.6	repeat	Run4	repeat/STIM_005.jpg	99
3222.671	0.62	619.9	repeat	Run4	repeat/STIM_005.jpg	99
3227.022	0.68	679.5	repeat	Run4	repeat/STIM_006.jpg	100
3231.756	0.856	855.5	repeat	Run4	repeat/STIM_006.jpg	99
3235.791	0.784	784.5	repeat	Run4	repeat/STIM_006.jpg	99
3239.608	0.559	558.7	repeat	Run4	repeat/STIM_006.jpg	99
3243.445	0.667	666.7	repeat	Run4	repeat/STIM_006.jpg	99
3247.955	0.55	550.5	repeat	Run4	repeat/STIM_007.jpg	99
3250.971	0.871	870.7	repeat	Run4	repeat/STIM_007.jpg	99
3255.578	0.643	643.3	repeat	Run4	repeat/STIM_007.jpg	100
3259.14	0.476	476.0	repeat	Run4	repeat/STIM_007.jpg	99
3263.355	0.735	735.4	repeat	Run4	repeat/STIM_007.jpg	100
3266.439	0.583	583.4	repeat	Run4	repeat/STIM_008.jpg	100
3270.605	0.66	659.8	repeat	Run4	repeat/STIM_008.jpg	100
3274.17	0.588	588.5	repeat	Run4	repeat/STIM_008.jpg	100
3278.38	0.636	636.3	repeat	Run4	repeat/STIM_008.jpg	99
3282.039	0.57	569.6	repeat	Run4	repeat/STIM_008.jpg	100
3285.855	0.591	591.3	repeat	Run4	repeat/STIM_009.jpg	99
3288.704	0.814	814.1	repeat	Run4	repeat/STIM_009.jpg	99
3291.806	0.622	622.5	repeat	Run4	repeat/STIM_009.jpg	100
3295.409	0.794	793.5	repeat	Run4	repeat/STIM_009.jpg	100
3299.633	0.692	692.4	repeat	Run4	repeat/STIM_009.jpg	99
3302.614	0.639	639.3	repeat	Run4	repeat/STIM_010.jpg	99
3306.259	0.718	717.6	repeat	Run4	repeat/STIM_010.jpg	99
3311.037	0.692	691.8	repeat	Run4	repeat/STIM_010.jpg	99
3315.589	0.627	626.7	repeat	Run4	repeat/STIM_010.jpg	99
3319.486	0.812	812.3	repeat	Run4	repeat/STIM_010.jpg	99
3323.616	0.849	848.9	repeat	Run4	repeat/STIM_011.jpg	100
3328.197	0.783	783.4	repeat	Run4	repeat/STIM_011.jpg	99
3332.56	0.63	629.6	repeat	Run4	repeat/STIM_011.jpg	99
3336.087	0.656	656.0	repeat	Run4	repeat/STIM_011.jpg	100
3340.444	0.472	472.5	repeat	Run4	repeat/STIM_011.jpg	100
3343.416	0.759	759.4	repeat	Run4	repeat/STIM_012.jpg	100
3347.502	0.741	740.6	repeat	Run4	repeat/STIM_012.jpg	99
3351.242	0.582	582.5	repeat	Run4	repeat/STIM_012.jpg	100
3355.419	0.669	668.7	repeat	Run4	repeat/STIM_012.jpg	99
3358.466	0.429	429.4	repeat	Run4	repeat/STIM_012.jpg	99
3361.394	0.449	449.0	repeat	Run4	repeat/STIM_013.jpg	99
3365.459	0.421	420.6	repeat	Run4	repeat/STIM_013.jpg	99
3367.983	0.443	442.9	repeat	Run4	repeat/STIM_013.jpg	99
3370.736	0.564	564.5	repeat	Run4	repeat/STIM_013.jpg	100
3373.682	0.553	552.6	repeat	Run4	repeat/STIM_013.jpg	99
3377.185	0.491	491.0	repeat	Run4	repeat/STIM_014.jpg	99
3380.19	0.536	535.5	repeat	Run4	repeat/STIM_014.jpg	100
3383.504	0.771	771.4	repeat	Run4	repeat/STIM_014.jpg	100
3388.159	0.586	586.5	repeat	Run4	repeat/STIM_014.jpg	100
3391.844	0.554	553.9	repeat	Run4	repeat/STIM_014.jpg	99
