onset	duration	accuracy_binary	trial_type	learning_stage	stimulus
0.0	2.256	1	generate	Run1	generate/STIM_000.jpg
4.713	1.05	0	generate	Run1	generate/STIM_000.jpg
7.969	1.643	1	generate	Run1	generate/STIM_000.jpg
13.45	1.547	1	generate	Run1	generate/STIM_000.jpg
18.831	2.049	0	generate	Run1	generate/STIM_000.jpg
23.172	2.387	1	generate	Run1	generate/STIM_001.jpg
29.58	2.353	1	generate	Run1	generate/STIM_001.jpg
34.952	1.527	1	generate	Run1	generate/STIM_001.jpg
38.794	0.952	1	generate	Run1	generate/STIM_001.jpg
42.368	1.534	1	generate	Run1	generate/STIM_001.jpg
46.4	1.457	1	generate	Run1	generate/STIM_002.jpg
50.826	1.912	1	generate	Run1	generate/STIM_002.jpg
55.92	1.398	1	generate	Run1	generate/STIM_002.jpg
60.812	1.406	1	generate	Run1	generate/STIM_002.jpg
66.436	1.636	1	generate	Run1	generate/STIM_002.jpg
70.712	1.262	1	generate	Run1	generate/STIM_003.jpg
75.913	2.061	1	generate	Run1	generate/STIM_003.jpg
82.411	1.394	1	generate	Run1	generate/STIM_003.jpg
87.28	2.134	0	generate	Run1	generate/STIM_003.jpg
93.249	1.436	1	generate	Run1	generate/STIM_003.jpg
98.929	1.975	1	generate	Run1	generate/STIM_004.jpg
104.021	2.251	1	generate	Run1	generate/STIM_004.jpg
109.564	2.187	0	generate	Run1	generate/STIM_004.jpg
114.381	1.105	0	generate	Run1	generate/STIM_004.jpg
117.902	1.757	0	generate	Run1	generate/STIM_004.jpg
123.306	1.229	1	generate	Run1	generate/STIM_005.jpg
128.314	1.256	1	generate	Run1	generate/STIM_005.jpg
132.109	1.52	1	generate	Run1	generate/STIM_005.jpg
136.739	0.998	1	generate	Run1	generate/STIM_005.jpg
141.071	1.203	1	generate	Run1	generate/STIM_005.jpg
145.535	2.53	1	generate	Run1	generate/STIM_006.jpg
151.766	1.958	0	generate	Run1	generate/STIM_006.jpg
156.136	1.252	0	generate	Run1	generate/STIM_006.jpg
160.825	1.721	1	generate	Run1	generate/STIM_006.jpg
165.113	1.14	0	generate	Run1	generate/STIM_006.jpg
169.466	1.557	1	generate	Run1	generate/STIM_007.jpg
174.072	2.014	1	generate	Run1	generate/STIM_007.jpg
180.432	2.225	1	generate	Run1	generate/STIM_007.jpg
185.141	1.445	1	generate	Run1	generate/STIM_007.jpg
190.431	1.127	1	generate	Run1	generate/STIM_007.jpg
194.393	1.712	1	generate	Run1	generate/STIM_008.jpg
198.862	1.014	0	generate	Run1	generate/STIM_008.jpg
202.385	1.656	0	generate	Run1	generate/STIM_008.jpg
206.413	1.697	1	generate	Run1	generate/STIM_008.jpg
210.768	1.722	1	generate	Run1	generate/STIM_008.jpg
216.344	1.924	1	generate	Run1	generate/STIM_009.jpg
220.725	2.27	1	generate	Run1	generate/STIM_009.jpg
227.227	1.169	1	generate	Run1	generate/STIM_009.jpg
231.176	1.158	1	generate	Run1	generate/STIM_009.jpg
235.387	1.522	1	generate	Run1	generate/STIM_009.jpg
240.057	2.244	0	generate	Run1	generate/STIM_010.jpg
246.495	2.144	0	generate	Run1	generate/STIM_010.jpg
252.527	1.855	1	generate	Run1	generate/STIM_010.jpg
258.121	1.94	1	generate	Run1	generate/STIM_010.jpg
262.573	0.968	1	generate	Run1	generate/STIM_010.jpg
267.434	2.047	0	generate	Run1	generate/STIM_011.jpg
272.801	1.072	0	generate	Run1	generate/STIM_011.jpg
277.283	2.01	0	generate	Run1	generate/STIM_011.jpg
282.646	1.584	1	generate	Run1	generate/STIM_011.jpg
287.823	1.421	1	generate	Run1	generate/STIM_011.jpg
293.144	1.861	0	generate	Run1	generate/STIM_012.jpg
298.019	1.934	1	generate	Run1	generate/STIM_012.jpg
304.192	1.821	1	generate	Run1	generate/STIM_012.jpg
309.372	1.441	0	generate	Run1	generate/STIM_012.jpg
314.258	1.675	1	generate	Run1	generate/STIM_012.jpg
319.017	1.054	1	generate	Run1	generate/STIM_013.jpg
322.595	1.543	1	generate	Run1	generate/STIM_013.jpg
326.809	2.057	1	generate	Run1	generate/STIM_013.jpg
333.068	2.16	1	generate	Run1	generate/STIM_013.jpg
339.257	1.437	0	generate	Run1	generate/STIM_013.jpg
344.506	2.361	0	generate	Run1	generate/STIM_014.jpg
349.588	1.346	0	generate	Run1	generate/STIM_014.jpg
353.363	1.569	1	generate	Run1	generate/STIM_014.jpg
357.437	2.134	1	generate	Run1	generate/STIM_014.jpg
363.835	1.674	1	generate	Run1	generate/STIM_014.jpg
368.781	1.528	0	generate	Run1	generate/STIM_015.jpg
373.071	1.264	1	generate	Run1	generate/STIM_015.jpg
377.657	1.796	1	generate	Run1	generate/STIM_015.jpg
382.935	1.056	1	generate	Run1	generate/STIM_015.jpg
386.28	1.937	1	generate	Run1	generate/STIM_015.jpg
390.715	1.544	0	generate	Run1	generate/STIM_016.jpg
395.759	2.176	0	generate	Run1	generate/STIM_016.jpg
401.214	1.653	1	generate	Run1	generate/STIM_016.jpg
406.232	2.047	1	generate	Run1	generate/STIM_016.jpg
412.258	0.951	0	generate	Run1	generate/STIM_016.jpg
417.066	1.917	1	generate	Run1	generate/STIM_017.jpg
421.673	1.832	0	generate	Run1	generate/STIM_017.jpg
427.72	2.182	0	generate	Run1	generate/STIM_017.jpg
432.347	1.399	0	generate	Run1	generate/STIM_017.jpg
436.691	1.023	1	generate	Run1	generate/STIM_017.jpg
439.981	2.013	1	generate	Run1	generate/STIM_018.jpg
444.403	1.808	0	generate	Run1	generate/STIM_018.jpg
449.093	1.655	0	generate	Run1	generate/STIM_018.jpg
454.776	1.574	1	generate	Run1	generate/STIM_018.jpg
458.671	2.031	1	generate	Run1	generate/STIM_018.jpg
464.138	2.627	1	generate	Run1	generate/STIM_019.jpg
469.166	1.521	1	generate	Run1	generate/STIM_019.jpg
473.291	2.213	1	generate	Run1	generate/STIM_019.jpg
479.495	1.869	1	generate	Run1	generate/STIM_019.jpg
484.293	1.8	1	generate	Run1	generate/STIM_019.jpg
489.738	2.245	1	generate	Run1	generate/STIM_020.jpg
494.974	1.603	0	generate	Run1	generate/STIM_020.jpg
499.079	1.604	0	generate	Run1	generate/STIM_020.jpg
502.997	1.81	1	generate	Run1	generate/STIM_020.jpg
508.274	1.528	1	generate	Run1	generate/STIM_020.jpg
513.378	1.371	1	generate	Run1	generate/STIM_021.jpg
517.158	1.263	1	generate	Run1	generate/STIM_021.jpg
521.031	2.004	1	generate	Run1	generate/STIM_021.jpg
525.363	1.283	0	generate	Run1	generate/STIM_021.jpg
530.775	1.449	1	generate	Run1	generate/STIM_021.jpg
535.462	2.214	1	generate	Run1	generate/STIM_022.jpg
540.616	1.443	1	generate	Run1	generate/STIM_022.jpg
545.962	1.692	0	generate	Run1	generate/STIM_022.jpg
550.481	1.099	1	generate	Run1	generate/STIM_022.jpg
555.275	1.131	1	generate	Run1	generate/STIM_022.jpg
560.5	2.058	1	generate	Run1	generate/STIM_023.jpg
566.757	1.256	1	generate	Run1	generate/STIM_023.jpg
571.674	1.143	1	generate	Run1	generate/STIM_023.jpg
575.963	0.833	1	generate	Run1	generate/STIM_023.jpg
580.823	1.802	1	generate	Run1	generate/STIM_023.jpg
586.138	2.074	1	generate	Run1	generate/STIM_024.jpg
590.729	1.932	1	generate	Run1	generate/STIM_024.jpg
595.638	2.085	0	generate	Run1	generate/STIM_024.jpg
602.057	0.976	1	generate	Run1	generate/STIM_024.jpg
606.951	1.38	0	generate	Run1	generate/STIM_024.jpg
611.82	0.694	1	repeat	Run1	repeat/STIM_000.jpg
615.566	0.522	1	repeat	Run1	repeat/STIM_000.jpg
620.03	0.684	1	repeat	Run1	repeat/STIM_000.jpg
623.023	0.746	1	repeat	Run1	repeat/STIM_000.jpg
626.002	0.86	1	repeat	Run1	repeat/STIM_000.jpg
629.681	0.333	0	repeat	Run1	repeat/STIM_001.jpg
634.165	0.425	1	repeat	Run1	repeat/STIM_001.jpg
638.162	0.7	1	repeat	Run1	repeat/STIM_001.jpg
641.633	0.838	1	repeat	Run1	repeat/STIM_001.jpg
645.013	0.654	1	repeat	Run1	repeat/STIM_001.jpg
649.765	0.529	1	repeat	Run1	repeat/STIM_002.jpg
654.339	0.622	1	repeat	Run1	repeat/STIM_002.jpg
658.808	0.549	1	repeat	Run1	repeat/STIM_002.jpg
661.535	0.625	1	repeat	Run1	repeat/STIM_002.jpg
665.481	0.545	1	repeat	Run1	repeat/STIM_002.jpg
669.021	0.824	1	repeat	Run1	repeat/STIM_003.jpg
672.142	0.455	1	repeat	Run1	repeat/STIM_003.jpg
676.324	0.706	1	repeat	Run1	repeat/STIM_003.jpg
679.26	0.628	1	repeat	Run1	repeat/STIM_003.jpg
682.416	0.789	1	repeat	Run1	repeat/STIM_003.jpg
685.79	0.656	1	repeat	Run1	repeat/STIM_004.jpg
689.141	0.801	1	repeat	Run1	repeat/STIM_004.jpg
693.461	0.772	1	repeat	Run1	repeat/STIM_004.jpg
696.618	0.43	1	repeat	Run1	repeat/STIM_004.jpg
699.236	0.776	1	repeat	Run1	repeat/STIM_004.jpg
702.689	0.502	1	repeat	Run1	repeat/STIM_005.jpg
706.727	0.541	1	repeat	Run1	repeat/STIM_005.jpg
711.127	0.592	1	repeat	Run1	repeat/STIM_005.jpg
715.739	0.724	1	repeat	Run1	repeat/STIM_005.jpg
719.89	0.413	1	repeat	Run1	repeat/STIM_005.jpg
723.542	0.475	1	repeat	Run1	repeat/STIM_006.jpg
726.796	0.678	1	repeat	Run1	repeat/STIM_006.jpg
730.212	0.467	1	repeat	Run1	repeat/STIM_006.jpg
732.818	0.724	1	repeat	Run1	repeat/STIM_006.jpg
735.724	0.709	1	repeat	Run1	repeat/STIM_006.jpg
739.529	0.774	1	repeat	Run1	repeat/STIM_007.jpg
744.003	0.602	0	repeat	Run1	repeat/STIM_007.jpg
747.608	0.7	1	repeat	Run1	repeat/STIM_007.jpg
751.62	0.759	1	repeat	Run1	repeat/STIM_007.jpg
755.242	0.675	1	repeat	Run1	repeat/STIM_007.jpg
758.891	0.589	1	repeat	Run1	repeat/STIM_008.jpg
763.158	0.648	1	repeat	Run1	repeat/STIM_008.jpg
766.181	0.632	1	repeat	Run1	repeat/STIM_008.jpg
770.659	0.618	1	repeat	Run1	repeat/STIM_008.jpg
773.717	0.784	1	repeat	Run1	repeat/STIM_008.jpg
776.721	0.727	1	repeat	Run1	repeat/STIM_009.jpg
781.624	0.582	1	repeat	Run1	repeat/STIM_009.jpg
785.98	0.773	1	repeat	Run1	repeat/STIM_009.jpg
790.463	0.784	1	repeat	Run1	repeat/STIM_009.jpg
794.674	0.481	1	repeat	Run1	repeat/STIM_009.jpg
797.489	0.775	1	repeat	Run1	repeat/STIM_010.jpg
800.97	0.577	1	repeat	Run1	repeat/STIM_010.jpg
803.771	0.461	1	repeat	Run1	repeat/STIM_010.jpg
806.757	0.484	1	repeat	Run1	repeat/STIM_010.jpg
811.264	0.811	1	repeat	Run1	repeat/STIM_010.jpg
815.974	0.84	1	repeat	Run1	repeat/STIM_011.jpg
819.103	0.447	1	repeat	Run1	repeat/STIM_011.jpg
821.662	0.477	1	repeat	Run1	repeat/STIM_011.jpg
826.119	0.816	1	repeat	Run1	repeat/STIM_011.jpg
829.539	0.453	1	repeat	Run1	repeat/STIM_011.jpg
833.725	0.498	0	repeat	Run1	repeat/STIM_012.jpg
837.432	0.577	1	repeat	Run1	repeat/STIM_012.jpg
841.293	0.516	1	repeat	Run1	repeat/STIM_012.jpg
844.965	0.726	1	repeat	Run1	repeat/STIM_012.jpg
849.448	0.566	1	repeat	Run1	repeat/STIM_012.jpg
853.359	0.745	1	repeat	Run1	repeat/STIM_013.jpg
857.998	0.423	1	repeat	Run1	repeat/STIM_013.jpg
860.846	0.797	1	repeat	Run1	repeat/STIM_013.jpg
865.183	0.5	1	repeat	Run1	repeat/STIM_013.jpg
868.53	0.502	1	repeat	Run1	repeat/STIM_013.jpg
871.488	0.725	1	repeat	Run1	repeat/STIM_014.jpg
875.894	0.858	1	repeat	Run1	repeat/STIM_014.jpg
879.655	0.426	1	repeat	Run1	repeat/STIM_014.jpg
882.489	0.654	1	repeat	Run1	repeat/STIM_014.jpg
886.62	0.643	1	repeat	Run1	repeat/STIM_014.jpg
889.94	1.475	1	generate	Run2	generate/STIM_000.jpg
895.161	1.39	1	generate	Run2	generate/STIM_000.jpg
900.161	1.494	0	generate	Run2	generate/STIM_000.jpg
905.391	0.836	1	generate	Run2	generate/STIM_000.jpg
909.629	1.689	1	generate	Run2	generate/STIM_000.jpg
914.893	1.095	0	generate	Run2	generate/STIM_001.jpg
918.374	0.775	0	generate	Run2	generate/STIM_001.jpg
922.49	1.736	0	generate	Run2	generate/STIM_001.jpg
928.31	1.18	0	generate	Run2	generate/STIM_001.jpg
932.828	1.23	0	generate	Run2	generate/STIM_001.jpg
936.512	0.968	1	generate	Run2	generate/STIM_002.jpg
940.53	1.142	1	generate	Run2	generate/STIM_002.jpg
944.392	1.803	1	generate	Run2	generate/STIM_002.jpg
949.841	1.48	1	generate	Run2	generate/STIM_002.jpg
955.238	1.242	1	generate	Run2	generate/STIM_002.jpg
960.229	1.28	0	generate	Run2	generate/STIM_003.jpg
964.519	1.872	1	generate	Run2	generate/STIM_003.jpg
969.102	1.72	0	generate	Run2	generate/STIM_003.jpg
973.244	1.244	1	generate	Run2	generate/STIM_003.jpg
978.515	0.965	1	generate	Run2	generate/STIM_003.jpg
983.209	1.187	0	generate	Run2	generate/STIM_004.jpg
987.148	2.024	1	generate	Run2	generate/STIM_004.jpg
991.914	1.369	1	generate	Run2	generate/STIM_004.jpg
995.475	1.219	1	generate	Run2	generate/STIM_004.jpg
1000.161	0.777	1	generate	Run2	generate/STIM_004.jpg
1003.703	0.895	0	generate	Run2	generate/STIM_005.jpg
1008.451	1.879	1	generate	Run2	generate/STIM_005.jpg
1013.153	1.205	1	generate	Run2	generate/STIM_005.jpg
1018.151	0.922	1	generate	Run2	generate/STIM_005.jpg
1021.649	1.065	1	generate	Run2	generate/STIM_005.jpg
1025.317	2.006	1	generate	Run2	generate/STIM_006.jpg
1031.625	1.642	1	generate	Run2	generate/STIM_006.jpg
1036.691	0.969	1	generate	Run2	generate/STIM_006.jpg
1041.425	1.592	1	generate	Run2	generate/STIM_006.jpg
1045.894	1.396	1	generate	Run2	generate/STIM_006.jpg
1050.695	1.421	1	generate	Run2	generate/STIM_007.jpg
1054.785	1.397	1	generate	Run2	generate/STIM_007.jpg
1059.114	1.31	1	generate	Run2	generate/STIM_007.jpg
1063.776	1.285	1	generate	Run2	generate/STIM_007.jpg
1067.772	0.753	0	generate	Run2	generate/STIM_007.jpg
1071.972	1.714	1	generate	Run2	generate/STIM_008.jpg
1076.781	1.751	1	generate	Run2	generate/STIM_008.jpg
1081.718	1.763	1	generate	Run2	generate/STIM_008.jpg
1086.569	1.554	0	generate	Run2	generate/STIM_008.jpg
1092.376	1.19	1	generate	Run2	generate/STIM_008.jpg
1097.107	0.966	1	generate	Run2	generate/STIM_009.jpg
1101.223	0.866	1	generate	Run2	generate/STIM_009.jpg
1104.329	1.38	1	generate	Run2	generate/STIM_009.jpg
1109.14	1.093	1	generate	Run2	generate/STIM_009.jpg
1113.395	1.102	1	generate	Run2	generate/STIM_009.jpg
1117.897	1.466	0	generate	Run2	generate/STIM_010.jpg
1122.233	1.811	1	generate	Run2	generate/STIM_010.jpg
1126.476	0.898	1	generate	Run2	generate/STIM_010.jpg
1131.163	1.501	1	generate	Run2	generate/STIM_010.jpg
1136.475	1.732	0	generate	Run2	generate/STIM_010.jpg
1142.337	1.41	1	generate	Run2	generate/STIM_011.jpg
1146.417	1.286	1	generate	Run2	generate/STIM_011.jpg
1151.609	1.559	0	generate	Run2	generate/STIM_011.jpg
1156.966	0.972	1	generate	Run2	generate/STIM_011.jpg
1161.489	1.393	1	generate	Run2	generate/STIM_011.jpg
1165.595	1.796	1	generate	Run2	generate/STIM_012.jpg
1169.958	1.66	1	generate	Run2	generate/STIM_012.jpg
1175.17	0.901	1	generate	Run2	generate/STIM_012.jpg
1178.756	1.494	1	generate	Run2	generate/STIM_012.jpg
1183.931	0.948	1	generate	Run2	generate/STIM_012.jpg
1187.969	1.511	1	generate	Run2	generate/STIM_013.jpg
1192.29	1.737	1	generate	Run2	generate/STIM_013.jpg
1196.297	1.243	1	generate	Run2	generate/STIM_013.jpg
1200.233	1.313	1	generate	Run2	generate/STIM_013.jpg
1203.892	1.613	1	generate	Run2	generate/STIM_013.jpg
1209.171	2.057	1	generate	Run2	generate/STIM_014.jpg
1214.425	1.101	1	generate	Run2	generate/STIM_014.jpg
1218.571	1.814	1	generate	Run2	generate/STIM_014.jpg
1223.0	0.819	0	generate	Run2	generate/STIM_014.jpg
1226.799	1.6	1	generate	Run2	generate/STIM_014.jpg
1230.768	1.898	0	generate	Run2	generate/STIM_015.jpg
1236.175	1.949	1	generate	Run2	generate/STIM_015.jpg
1241.414	1.809	1	generate	Run2	generate/STIM_015.jpg
1246.659	1.033	0	generate	Run2	generate/STIM_015.jpg
1250.341	1.086	1	generate	Run2	generate/STIM_015.jpg
1253.777	2.148	1	generate	Run2	generate/STIM_016.jpg
1259.869	1.951	1	generate	Run2	generate/STIM_016.jpg
1264.727	0.959	1	generate	Run2	generate/STIM_016.jpg
1269.285	1.473	1	generate	Run2	generate/STIM_016.jpg
1274.127	1.203	1	generate	Run2	generate/STIM_016.jpg
1278.444	1.369	1	generate	Run2	generate/STIM_017.jpg
1283.144	1.728	1	generate	Run2	generate/STIM_017.jpg
1287.495	1.81	0	generate	Run2	generate/STIM_017.jpg
1292.781	1.391	1	generate	Run2	generate/STIM_017.jpg
1297.944	1.693	1	generate	Run2	generate/STIM_017.jpg
1302.059	1.341	0	generate	Run2	generate/STIM_018.jpg
1306.329	1.367	1	generate	Run2	generate/STIM_018.jpg
1310.463	0.941	1	generate	Run2	generate/STIM_018.jpg
1315.049	1.408	1	generate	Run2	generate/STIM_018.jpg
1320.471	1.147	1	generate	Run2	generate/STIM_018.jpg
1323.941	1.831	1	generate	Run2	generate/STIM_019.jpg
1329.164	1.816	1	generate	Run2	generate/STIM_019.jpg
1333.364	1.583	1	generate	Run2	generate/STIM_019.jpg
1338.1	1.005	1	generate	Run2	generate/STIM_019.jpg
1342.168	1.779	1	generate	Run2	generate/STIM_019.jpg
1347.126	1.398	0	generate	Run2	generate/STIM_020.jpg
1352.164	1.194	0	generate	Run2	generate/STIM_020.jpg
1356.009	0.976	1	generate	Run2	generate/STIM_020.jpg
1361.081	1.438	1	generate	Run2	generate/STIM_020.jpg
1364.871	0.864	1	generate	Run2	generate/STIM_020.jpg
1368.031	1.991	1	generate	Run2	generate/STIM_021.jpg
1373.24	0.921	1	generate	Run2	generate/STIM_021.jpg
1377.793	1.215	0	generate	Run2	generate/STIM_021.jpg
1382.107	1.35	1	generate	Run2	generate/STIM_021.jpg
1387.245	1.493	1	generate	Run2	generate/STIM_021.jpg
1392.531	1.211	1	generate	Run2	generate/STIM_022.jpg
1397.406	0.952	1	generate	Run2	generate/STIM_022.jpg
1401.695	1.225	1	generate	Run2	generate/STIM_022.jpg
1407.07	1.326	1	generate	Run2	generate/STIM_022.jpg
1410.967	1.639	0	generate	Run2	generate/STIM_022.jpg
1416.793	0.86	1	generate	Run2	generate/STIM_023.jpg
1420.092	1.492	1	generate	Run2	generate/STIM_023.jpg
1425.712	1.23	1	generate	Run2	generate/STIM_023.jpg
1430.38	1.446	1	generate	Run2	generate/STIM_023.jpg
1434.218	1.219	1	generate	Run2	generate/STIM_023.jpg
1437.727	1.06	0	generate	Run2	generate/STIM_024.jpg
1441.793	0.962	1	generate	Run2	generate/STIM_024.jpg
1446.929	0.974	1	generate	Run2	generate/STIM_024.jpg
1451.224	1.516	1	generate	Run2	generate/STIM_024.jpg
1456.749	1.72	1	generate	Run2	generate/STIM_024.jpg
1461.645	0.676	1	repeat	Run2	repeat/STIM_000.jpg
1464.913	0.547	1	repeat	Run2	repeat/STIM_000.jpg
1467.841	0.778	1	repeat	Run2	repeat/STIM_000.jpg
1471.599	0.476	1	repeat	Run2	repeat/STIM_000.jpg
1474.874	0.832	1	repeat	Run2	repeat/STIM_000.jpg
1477.988	0.611	1	repeat	Run2	repeat/STIM_001.jpg
1481.43	0.682	1	repeat	Run2	repeat/STIM_001.jpg
1484.996	0.691	1	repeat	Run2	repeat/STIM_001.jpg
1489.706	0.39	1	repeat	Run2	repeat/STIM_001.jpg
1492.556	0.534	1	repeat	Run2	repeat/STIM_001.jpg
1497.161	0.583	1	repeat	Run2	repeat/STIM_002.jpg
1501.364	0.73	1	repeat	Run2	repeat/STIM_002.jpg
1504.277	0.836	1	repeat	Run2	repeat/STIM_002.jpg
1508.322	0.507	1	repeat	Run2	repeat/STIM_002.jpg
1511.817	0.847	1	repeat	Run2	repeat/STIM_002.jpg
1516.779	0.86	1	repeat	Run2	repeat/STIM_003.jpg
1520.889	0.693	1	repeat	Run2	repeat/STIM_003.jpg
1524.641	0.458	1	repeat	Run2	repeat/STIM_003.jpg
1527.395	0.842	1	repeat	Run2	repeat/STIM_003.jpg
1530.969	0.544	1	repeat	Run2	repeat/STIM_003.jpg
1534.48	0.754	1	repeat	Run2	repeat/STIM_004.jpg
1538.59	0.498	1	repeat	Run2	repeat/STIM_004.jpg
1541.573	0.618	1	repeat	Run2	repeat/STIM_004.jpg
1545.729	0.553	1	repeat	Run2	repeat/STIM_004.jpg
1549.953	0.804	1	repeat	Run2	repeat/STIM_004.jpg
1552.982	0.707	1	repeat	Run2	repeat/STIM_005.jpg
1557.184	0.902	1	repeat	Run2	repeat/STIM_005.jpg
1562.069	0.634	1	repeat	Run2	repeat/STIM_005.jpg
1565.493	0.469	1	repeat	Run2	repeat/STIM_005.jpg
1569.693	0.801	1	repeat	Run2	repeat/STIM_005.jpg
1574.376	0.807	1	repeat	Run2	repeat/STIM_006.jpg
1577.669	0.601	1	repeat	Run2	repeat/STIM_006.jpg
1580.738	0.444	0	repeat	Run2	repeat/STIM_006.jpg
1585.313	0.709	1	repeat	Run2	repeat/STIM_006.jpg
1588.332	0.494	1	repeat	Run2	repeat/STIM_006.jpg
1591.141	0.776	1	repeat	Run2	repeat/STIM_007.jpg
1594.928	0.609	1	repeat	Run2	repeat/STIM_007.jpg
1599.663	0.418	1	repeat	Run2	repeat/STIM_007.jpg
1603.009	0.694	1	repeat	Run2	repeat/STIM_007.jpg
1606.436	0.71	1	repeat	Run2	repeat/STIM_007.jpg
1610.882	0.886	1	repeat	Run2	repeat/STIM_008.jpg
1615.206	0.835	1	repeat	Run2	repeat/STIM_008.jpg
1618.873	0.495	1	repeat	Run2	repeat/STIM_008.jpg
1621.858	0.664	0	repeat	Run2	repeat/STIM_008.jpg
1626.05	0.507	1	repeat	Run2	repeat/STIM_008.jpg
1628.867	0.668	1	repeat	Run2	repeat/STIM_009.jpg
1632.395	0.554	1	repeat	Run2	repeat/STIM_009.jpg
1636.352	0.642	1	repeat	Run2	repeat/STIM_009.jpg
1639.04	0.746	1	repeat	Run2	repeat/STIM_009.jpg
1642.899	0.646	1	repeat	Run2	repeat/STIM_009.jpg
1646.286	0.79	1	repeat	Run2	repeat/STIM_010.jpg
1651.049	0.747	1	repeat	Run2	repeat/STIM_010.jpg
1654.38	0.417	1	repeat	Run2	repeat/STIM_010.jpg
1657.362	0.575	1	repeat	Run2	repeat/STIM_010.jpg
1661.211	0.472	1	repeat	Run2	repeat/STIM_010.jpg
1664.067	0.502	1	repeat	Run2	repeat/STIM_011.jpg
1666.924	0.782	1	repeat	Run2	repeat/STIM_011.jpg
1670.738	0.546	1	repeat	Run2	repeat/STIM_011.jpg
1675.21	0.816	0	repeat	Run2	repeat/STIM_011.jpg
1678.852	0.574	1	repeat	Run2	repeat/STIM_011.jpg
1682.726	0.84	1	repeat	Run2	repeat/STIM_012.jpg
1685.7	0.678	1	repeat	Run2	repeat/STIM_012.jpg
1689.479	0.421	1	repeat	Run2	repeat/STIM_012.jpg
1692.582	0.547	1	repeat	Run2	repeat/STIM_012.jpg
1695.989	0.634	1	repeat	Run2	repeat/STIM_012.jpg
1700.068	0.585	1	repeat	Run2	repeat/STIM_013.jpg
1703.506	0.555	1	repeat	Run2	repeat/STIM_013.jpg
1706.912	0.811	1	repeat	Run2	repeat/STIM_013.jpg
1710.412	0.509	1	repeat	Run2	repeat/STIM_013.jpg
1713.053	0.736	1	repeat	Run2	repeat/STIM_013.jpg
1717.445	0.831	1	repeat	Run2	repeat/STIM_014.jpg
1721.468	0.741	1	repeat	Run2	repeat/STIM_014.jpg
1724.554	0.824	1	repeat	Run2	repeat/STIM_014.jpg
1728.748	0.742	1	repeat	Run2	repeat/STIM_014.jpg
1733.304	0.808	1	repeat	Run2	repeat/STIM_014.jpg
1737.613	1.553	1	generate	Run3	generate/STIM_000.jpg
1741.894	1.024	1	generate	Run3	generate/STIM_000.jpg
1745.945	1.559	1	generate	Run3	generate/STIM_000.jpg
1751.487	0.684	1	generate	Run3	generate/STIM_000.jpg
1756.038	1.324	1	generate	Run3	generate/STIM_000.jpg
1760.533	1.358	0	generate	Run3	generate/STIM_001.jpg
1764.907	1.563	0	generate	Run3	generate/STIM_001.jpg
1770.636	1.327	1	generate	Run3	generate/STIM_001.jpg
1775.401	1.192	1	generate	Run3	generate/STIM_001.jpg
1779.223	1.188	1	generate	Run3	generate/STIM_001.jpg
1783.638	1.295	0	generate	Run3	generate/STIM_002.jpg
1788.212	1.1	1	generate	Run3	generate/STIM_002.jpg
1792.053	1.476	1	generate	Run3	generate/STIM_002.jpg
1797.599	1.09	1	generate	Run3	generate/STIM_002.jpg
1801.152	1.402	1	generate	Run3	generate/STIM_002.jpg
1806.005	1.195	1	generate	Run3	generate/STIM_003.jpg
1810.87	1.77	1	generate	Run3	generate/STIM_003.jpg
1815.962	0.99	1	generate	Run3	generate/STIM_003.jpg
1819.296	1.279	1	generate	Run3	generate/STIM_003.jpg
1824.547	1.77	1	generate	Run3	generate/STIM_003.jpg
1828.629	1.619	1	generate	Run3	generate/STIM_004.jpg
1833.57	1.519	1	generate	Run3	generate/STIM_004.jpg
1837.869	1.769	1	generate	Run3	generate/STIM_004.jpg
1842.672	1.191	1	generate	Run3	generate/STIM_004.jpg
1847.399	1.044	1	generate	Run3	generate/STIM_004.jpg
1851.487	0.812	0	generate	Run3	generate/STIM_005.jpg
1854.443	0.976	0	generate	Run3	generate/STIM_005.jpg
1858.024	0.981	1	generate	Run3	generate/STIM_005.jpg
1862.041	0.971	1	generate	Run3	generate/STIM_005.jpg
1865.79	0.953	1	generate	Run3	generate/STIM_005.jpg
1870.911	1.54	1	generate	Run3	generate/STIM_006.jpg
1876.408	1.183	1	generate	Run3	generate/STIM_006.jpg
1880.464	1.522	1	generate	Run3	generate/STIM_006.jpg
1884.272	1.11	1	generate	Run3	generate/STIM_006.jpg
1889.115	1.634	1	generate	Run3	generate/STIM_006.jpg
1894.614	1.552	0	generate	Run3	generate/STIM_007.jpg
1900.382	1.04	1	generate	Run3	generate/STIM_007.jpg
1905.011	0.799	0	generate	Run3	generate/STIM_007.jpg
1908.845	1.471	1	generate	Run3	generate/STIM_007.jpg
1914.19	1.021	1	generate	Run3	generate/STIM_007.jpg
1917.846	1.341	0	generate	Run3	generate/STIM_008.jpg
1921.652	0.85	1	generate	Run3	generate/STIM_008.jpg
1924.69	0.745	1	generate	Run3	generate/STIM_008.jpg
1928.739	1.089	1	generate	Run3	generate/STIM_008.jpg
1932.099	0.771	1	generate	Run3	generate/STIM_008.jpg
1935.984	0.992	1	generate	Run3	generate/STIM_009.jpg
1939.906	1.191	1	generate	Run3	generate/STIM_009.jpg
1943.528	0.892	1	generate	Run3	generate/STIM_009.jpg
1947.675	1.248	0	generate	Run3	generate/STIM_009.jpg
1951.51	1.712	1	generate	Run3	generate/STIM_009.jpg
1956.824	1.782	1	generate	Run3	generate/STIM_010.jpg
1960.938	1.712	1	generate	Run3	generate/STIM_010.jpg
1965.706	1.639	1	generate	Run3	generate/STIM_010.jpg
1971.376	1.625	1	generate	Run3	generate/STIM_010.jpg
1976.271	1.36	1	generate	Run3	generate/STIM_010.jpg
1980.509	1.434	1	generate	Run3	generate/STIM_011.jpg
1984.35	0.985	1	generate	Run3	generate/STIM_011.jpg
1987.884	1.504	1	generate	Run3	generate/STIM_011.jpg
1993.168	1.003	0	generate	Run3	generate/STIM_011.jpg
1997.482	1.363	1	generate	Run3	generate/STIM_011.jpg
2001.467	1.581	0	generate	Run3	generate/STIM_012.jpg
2007.104	1.179	1	generate	Run3	generate/STIM_012.jpg
2011.715	0.966	1	generate	Run3	generate/STIM_012.jpg
2015.436	1.376	1	generate	Run3	generate/STIM_012.jpg
2020.728	1.538	1	generate	Run3	generate/STIM_012.jpg
2025.515	1.731	1	generate	Run3	generate/STIM_013.jpg
2031.289	0.869	1	generate	Run3	generate/STIM_013.jpg
2034.331	1.546	1	generate	Run3	generate/STIM_013.jpg
2039.187	1.197	1	generate	Run3	generate/STIM_013.jpg
2044.003	1.715	1	generate	Run3	generate/STIM_013.jpg
2049.887	1.037	1	generate	Run3	generate/STIM_014.jpg
2054.382	1.402	1	generate	Run3	generate/STIM_014.jpg
2058.055	0.857	1	generate	Run3	generate/STIM_014.jpg
2062.799	0.832	1	generate	Run3	generate/STIM_014.jpg
2066.542	0.677	1	generate	Run3	generate/STIM_014.jpg
2070.824	1.061	1	generate	Run3	generate/STIM_015.jpg
2075.668	0.837	1	generate	Run3	generate/STIM_015.jpg
2079.076	1.004	1	generate	Run3	generate/STIM_015.jpg
2082.932	0.962	1	generate	Run3	generate/STIM_015.jpg
2086.16	0.82	0	generate	Run3	generate/STIM_015.jpg
2090.181	1.645	1	generate	Run3	generate/STIM_016.jpg
2095.634	0.989	1	generate	Run3	generate/STIM_016.jpg
2099.1	0.972	1	generate	Run3	generate/STIM_016.jpg
2103.78	1.276	1	generate	Run3	generate/STIM_016.jpg
2108.257	1.505	1	generate	Run3	generate/STIM_016.jpg
2113.113	1.645	1	generate	Run3	generate/STIM_017.jpg
2117.034	0.706	0	generate	Run3	generate/STIM_017.jpg
2120.967	0.872	1	generate	Run3	generate/STIM_017.jpg
2124.971	0.982	1	generate	Run3	generate/STIM_017.jpg
2128.118	1.515	1	generate	Run3	generate/STIM_017.jpg
2133.401	0.79	1	generate	Run3	generate/STIM_018.jpg
2137.916	1.219	1	generate	Run3	generate/STIM_018.jpg
2142.051	1.05	1	generate	Run3	generate/STIM_018.jpg
2145.79	1.619	1	generate	Run3	generate/STIM_018.jpg
2150.032	1.366	1	generate	Run3	generate/STIM_018.jpg
2154.719	1.466	1	generate	Run3	generate/STIM_019.jpg
2159.704	1.001	1	generate	Run3	generate/STIM_019.jpg
2164.481	1.423	1	generate	Run3	generate/STIM_019.jpg
2168.119	1.512	1	generate	Run3	generate/STIM_019.jpg
2172.916	1.026	1	generate	Run3	generate/STIM_019.jpg
2177.044	1.686	1	generate	Run3	generate/STIM_020.jpg
2181.277	1.673	1	generate	Run3	generate/STIM_020.jpg
2187.095	0.992	1	generate	Run3	generate/STIM_020.jpg
2190.648	0.813	1	generate	Run3	generate/STIM_020.jpg
2195.259	0.911	1	generate	Run3	generate/STIM_020.jpg
2199.616	1.101	0	generate	Run3	generate/STIM_021.jpg
2204.473	0.943	1	generate	Run3	generate/STIM_021.jpg
2207.978	1.083	1	generate	Run3	generate/STIM_021.jpg
2213.073	1.054	1	generate	Run3	generate/STIM_021.jpg
2216.729	1.213	1	generate	Run3	generate/STIM_021.jpg
2220.546	1.437	1	generate	Run3	generate/STIM_022.jpg
2225.226	1.641	1	generate	Run3	generate/STIM_022.jpg
2229.544	1.304	1	generate	Run3	generate/STIM_022.jpg
2234.664	1.384	1	generate	Run3	generate/STIM_022.jpg
2240.152	1.26	1	generate	Run3	generate/STIM_022.jpg
2244.812	1.62	1	generate	Run3	generate/STIM_023.jpg
2249.157	1.371	1	generate	Run3	generate/STIM_023.jpg
2253.724	1.034	1	generate	Run3	generate/STIM_023.jpg
2256.945	1.63	1	generate	Run3	generate/STIM_023.jpg
2261.318	1.203	0	generate	Run3	generate/STIM_023.jpg
2265.187	1.156	1	generate	Run3	generate/STIM_024.jpg
2268.931	1.637	0	generate	Run3	generate/STIM_024.jpg
2274.317	0.752	1	generate	Run3	generate/STIM_024.jpg
2278.118	1.399	1	generate	Run3	generate/STIM_024.jpg
2282.392	1.745	0	generate	Run3	generate/STIM_024.jpg
2286.687	0.379	1	repeat	Run3	repeat/STIM_000.jpg
2289.33	0.518	1	repeat	Run3	repeat/STIM_000.jpg
2292.702	0.69	1	repeat	Run3	repeat/STIM_000.jpg
2296.818	0.85	1	repeat	Run3	repeat/STIM_000.jpg
2301.596	0.38	1	repeat	Run3	repeat/STIM_000.jpg
2304.214	0.576	0	repeat	Run3	repeat/STIM_001.jpg
2307.602	0.566	1	repeat	Run3	repeat/STIM_001.jpg
2311.724	0.521	1	repeat	Run3	repeat/STIM_001.jpg
2315.872	0.674	1	repeat	Run3	repeat/STIM_001.jpg
2319.605	0.579	1	repeat	Run3	repeat/STIM_001.jpg
2323.296	0.599	1	repeat	Run3	repeat/STIM_002.jpg
2327.424	0.932	1	repeat	Run3	repeat/STIM_002.jpg
2331.139	0.811	1	repeat	Run3	repeat/STIM_002.jpg
2334.52	0.572	1	repeat	Run3	repeat/STIM_002.jpg
2337.846	0.454	1	repeat	Run3	repeat/STIM_002.jpg
2340.747	0.65	1	repeat	Run3	repeat/STIM_003.jpg
2344.239	0.529	1	repeat	Run3	repeat/STIM_003.jpg
2347.576	0.621	1	repeat	Run3	repeat/STIM_003.jpg
2350.885	0.574	1	repeat	Run3	repeat/STIM_003.jpg
2354.07	0.419	1	repeat	Run3	repeat/STIM_003.jpg
2358.045	0.389	1	repeat	Run3	repeat/STIM_004.jpg
2360.761	0.482	1	repeat	Run3	repeat/STIM_004.jpg
2364.281	0.76	1	repeat	Run3	repeat/STIM_004.jpg
2369.11	0.761	1	repeat	Run3	repeat/STIM_004.jpg
2373.237	0.52	1	repeat	Run3	repeat/STIM_004.jpg
2377.652	0.696	1	repeat	Run3	repeat/STIM_005.jpg
2382.3	0.552	1	repeat	Run3	repeat/STIM_005.jpg
2386.435	0.782	1	repeat	Run3	repeat/STIM_005.jpg
2391.239	0.586	1	repeat	Run3	repeat/STIM_005.jpg
2394.865	0.779	1	repeat	Run3	repeat/STIM_005.jpg
2398.086	0.819	0	repeat	Run3	repeat/STIM_006.jpg
2401.984	0.84	1	repeat	Run3	repeat/STIM_006.jpg
2406.198	0.36	1	repeat	Run3	repeat/STIM_006.jpg
2410.499	0.776	1	repeat	Run3	repeat/STIM_006.jpg
2414.365	0.607	1	repeat	Run3	repeat/STIM_006.jpg
2417.951	0.516	1	repeat	Run3	repeat/STIM_007.jpg
2420.812	0.705	1	repeat	Run3	repeat/STIM_007.jpg
2424.588	0.588	1	repeat	Run3	repeat/STIM_007.jpg
2429.332	0.417	1	repeat	Run3	repeat/STIM_007.jpg
2432.454	0.438	1	repeat	Run3	repeat/STIM_007.jpg
2435.163	0.787	1	repeat	Run3	repeat/STIM_008.jpg
2439.966	0.526	1	repeat	Run3	repeat/STIM_008.jpg
2443.878	0.715	1	repeat	Run3	repeat/STIM_008.jpg
2447.383	0.748	0	repeat	Run3	repeat/STIM_008.jpg
2450.319	0.672	1	repeat	Run3	repeat/STIM_008.jpg
2453.122	0.431	1	repeat	Run3	repeat/STIM_009.jpg
2456.624	0.81	1	repeat	Run3	repeat/STIM_009.jpg
2460.861	0.623	1	repeat	Run3	repeat/STIM_009.jpg
2464.029	0.53	1	repeat	Run3	repeat/STIM_009.jpg
2467.411	0.692	1	repeat	Run3	repeat/STIM_009.jpg
2470.997	0.448	1	repeat	Run3	repeat/STIM_010.jpg
2474.163	0.686	1	repeat	Run3	repeat/STIM_010.jpg
2477.43	0.898	1	repeat	Run3	repeat/STIM_010.jpg
2480.892	0.461	1	repeat	Run3	repeat/STIM_010.jpg
2484.503	0.646	1	repeat	Run3	repeat/STIM_010.jpg
2487.695	0.538	1	repeat	Run3	repeat/STIM_011.jpg
2491.271	0.431	1	repeat	Run3	repeat/STIM_011.jpg
2494.363	0.368	1	repeat	Run3	repeat/STIM_011.jpg
2498.359	0.709	1	repeat	Run3	repeat/STIM_011.jpg
2503.018	0.851	1	repeat	Run3	repeat/STIM_011.jpg
2507.471	0.688	1	repeat	Run3	repeat/STIM_012.jpg
2510.765	0.718	1	repeat	Run3	repeat/STIM_012.jpg
2514.034	0.587	1	repeat	Run3	repeat/STIM_012.jpg
2517.211	0.573	1	repeat	Run3	repeat/STIM_012.jpg
2520.723	0.566	1	repeat	Run3	repeat/STIM_012.jpg
2524.191	0.567	0	repeat	Run3	repeat/STIM_013.jpg
2528.381	0.467	1	repeat	Run3	repeat/STIM_013.jpg
2532.43	0.65	1	repeat	Run3	repeat/STIM_013.jpg
2535.927	0.801	1	repeat	Run3	repeat/STIM_013.jpg
2540.232	0.644	1	repeat	Run3	repeat/STIM_013.jpg
2544.605	0.68	1	repeat	Run3	repeat/STIM_014.jpg
2549.354	0.468	1	repeat	Run3	repeat/STIM_014.jpg
2552.711	0.779	1	repeat	Run3	repeat/STIM_014.jpg
2555.902	0.819	1	repeat	Run3	repeat/STIM_014.jpg
2559.881	0.611	1	repeat	Run3	repeat/STIM_014.jpg
2563.884	0.718	1	generate	Run4	generate/STIM_000.jpg
2568.126	1.505	1	generate	Run4	generate/STIM_000.jpg
2573.446	1.652	1	generate	Run4	generate/STIM_000.jpg
2579.312	1.127	1	generate	Run4	generate/STIM_000.jpg
2584.165	1.384	1	generate	Run4	generate/STIM_000.jpg
2588.843	1.411	1	generate	Run4	generate/STIM_001.jpg
2593.943	1.503	1	generate	Run4	generate/STIM_001.jpg
2598.385	1.068	1	generate	Run4	generate/STIM_001.jpg
2601.958	1.772	1	generate	Run4	generate/STIM_001.jpg
2606.219	1.098	1	generate	Run4	generate/STIM_001.jpg
2610.602	0.972	1	generate	Run4	generate/STIM_002.jpg
2614.889	1.538	1	generate	Run4	generate/STIM_002.jpg
2620.231	0.897	1	generate	Run4	generate/STIM_002.jpg
2624.572	1.692	1	generate	Run4	generate/STIM_002.jpg
2630.051	0.906	1	generate	Run4	generate/STIM_002.jpg
2635.099	1.111	1	generate	Run4	generate/STIM_003.jpg
2640.128	1.472	1	generate	Run4	generate/STIM_003.jpg
2644.909	0.807	1	generate	Run4	generate/STIM_003.jpg
2648.263	1.397	1	generate	Run4	generate/STIM_003.jpg
2652.935	1.574	1	generate	Run4	generate/STIM_003.jpg
2657.913	1.63	1	generate	Run4	generate/STIM_004.jpg
2662.539	0.86	1	generate	Run4	generate/STIM_004.jpg
2665.53	0.868	1	generate	Run4	generate/STIM_004.jpg
2668.719	0.939	1	generate	Run4	generate/STIM_004.jpg
2673.205	0.705	1	generate	Run4	generate/STIM_004.jpg
2676.473	1.592	1	generate	Run4	generate/STIM_005.jpg
2681.584	1.488	1	generate	Run4	generate/STIM_005.jpg
2687.239	1.484	1	generate	Run4	generate/STIM_005.jpg
2692.774	1.334	1	generate	Run4	generate/STIM_005.jpg
2696.99	1.588	1	generate	Run4	generate/STIM_005.jpg
2701.756	0.758	1	generate	Run4	generate/STIM_006.jpg
2705.547	1.177	1	generate	Run4	generate/STIM_006.jpg
2709.2	1.073	1	generate	Run4	generate/STIM_006.jpg
2713.97	1.027	1	generate	Run4	generate/STIM_006.jpg
2717.322	1.207	1	generate	Run4	generate/STIM_006.jpg
2720.955	1.098	1	generate	Run4	generate/STIM_007.jpg
2724.918	1.052	1	generate	Run4	generate/STIM_007.jpg
2729.019	0.919	1	generate	Run4	generate/STIM_007.jpg
2733.121	1.013	1	generate	Run4	generate/STIM_007.jpg
2737.702	1.66	1	generate	Run4	generate/STIM_007.jpg
2742.031	1.421	0	generate	Run4	generate/STIM_008.jpg
2746.81	1.415	1	generate	Run4	generate/STIM_008.jpg
2750.706	1.722	1	generate	Run4	generate/STIM_008.jpg
2755.494	1.348	1	generate	Run4	generate/STIM_008.jpg
2760.694	1.26	1	generate	Run4	generate/STIM_008.jpg
2764.305	1.689	1	generate	Run4	generate/STIM_009.jpg
2768.8	1.122	1	generate	Run4	generate/STIM_009.jpg
2773.106	1.456	1	generate	Run4	generate/STIM_009.jpg
2777.067	1.741	1	generate	Run4	generate/STIM_009.jpg
2781.156	1.681	1	generate	Run4	generate/STIM_009.jpg
2786.326	1.196	1	generate	Run4	generate/STIM_010.jpg
2790.682	1.496	1	generate	Run4	generate/STIM_010.jpg
2796.447	0.711	1	generate	Run4	generate/STIM_010.jpg
2801.152	0.998	1	generate	Run4	generate/STIM_010.jpg
2805.086	1.811	1	generate	Run4	generate/STIM_010.jpg
2809.546	0.915	1	generate	Run4	generate/STIM_011.jpg
2813.141	1.192	1	generate	Run4	generate/STIM_011.jpg
2816.924	1.546	1	generate	Run4	generate/STIM_011.jpg
2821.247	1.21	1	generate	Run4	generate/STIM_011.jpg
2825.854	1.517	1	generate	Run4	generate/STIM_011.jpg
2831.537	0.976	1	generate	Run4	generate/STIM_012.jpg
2834.85	1.15	1	generate	Run4	generate/STIM_012.jpg
2838.93	1.449	1	generate	Run4	generate/STIM_012.jpg
2842.732	1.656	1	generate	Run4	generate/STIM_012.jpg
2848.403	0.754	1	generate	Run4	generate/STIM_012.jpg
2852.0	0.772	1	generate	Run4	generate/STIM_013.jpg
2856.303	1.486	0	generate	Run4	generate/STIM_013.jpg
2861.318	1.308	1	generate	Run4	generate/STIM_013.jpg
2866.03	1.355	1	generate	Run4	generate/STIM_013.jpg
2870.57	0.808	0	generate	Run4	generate/STIM_013.jpg
2873.739	1.579	1	generate	Run4	generate/STIM_014.jpg
2878.761	1.361	1	generate	Run4	generate/STIM_014.jpg
2884.169	1.601	1	generate	Run4	generate/STIM_014.jpg
2888.67	1.25	1	generate	Run4	generate/STIM_014.jpg
2892.381	1.145	1	generate	Run4	generate/STIM_014.jpg
2897.287	1.318	1	generate	Run4	generate/STIM_015.jpg
2901.038	0.921	1	generate	Run4	generate/STIM_015.jpg
2905.3	0.762	1	generate	Run4	generate/STIM_015.jpg
2909.03	1.178	1	generate	Run4	generate/STIM_015.jpg
2912.728	0.837	1	generate	Run4	generate/STIM_015.jpg
2915.889	1.535	1	generate	Run4	generate/STIM_016.jpg
2919.901	1.467	1	generate	Run4	generate/STIM_016.jpg
2925.62	0.77	1	generate	Run4	generate/STIM_016.jpg
2930.089	1.83	1	generate	Run4	generate/STIM_016.jpg
2934.367	1.485	1	generate	Run4	generate/STIM_016.jpg
2938.686	1.29	1	generate	Run4	generate/STIM_017.jpg
2943.434	1.006	1	generate	Run4	generate/STIM_017.jpg
2947.507	1.724	1	generate	Run4	generate/STIM_017.jpg
2951.746	1.108	1	generate	Run4	generate/STIM_017.jpg
2955.113	1.257	1	generate	Run4	generate/STIM_017.jpg
2959.989	1.408	1	generate	Run4	generate/STIM_018.jpg
2965.339	0.754	1	generate	Run4	generate/STIM_018.jpg
2969.322	0.952	1	generate	Run4	generate/STIM_018.jpg
2973.862	1.658	1	generate	Run4	generate/STIM_018.jpg
2978.768	0.796	1	generate	Run4	generate/STIM_018.jpg
2983.278	1.531	1	generate	Run4	generate/STIM_019.jpg
2987.922	1.455	0	generate	Run4	generate/STIM_019.jpg
2991.778	1.132	1	generate	Run4	generate/STIM_019.jpg
2996.514	0.858	1	generate	Run4	generate/STIM_019.jpg
3001.055	1.326	1	generate	Run4	generate/STIM_019.jpg
3004.77	1.62	1	generate	Run4	generate/STIM_020.jpg
3009.975	0.816	1	generate	Run4	generate/STIM_020.jpg
3014.014	1.173	1	generate	Run4	generate/STIM_020.jpg
3017.592	1.23	1	generate	Run4	generate/STIM_020.jpg
3021.266	1.06	1	generate	Run4	generate/STIM_020.jpg
3024.793	1.037	1	generate	Run4	generate/STIM_021.jpg
3029.913	1.154	1	generate	Run4	generate/STIM_021.jpg
3033.291	1.551	1	generate	Run4	generate/STIM_021.jpg
3038.187	1.274	1	generate	Run4	generate/STIM_021.jpg
3042.794	1.005	1	generate	Run4	generate/STIM_021.jpg
3045.995	1.577	1	generate	Run4	generate/STIM_022.jpg
3051.216	1.731	1	generate	Run4	generate/STIM_022.jpg
3056.671	1.762	1	generate	Run4	generate/STIM_022.jpg
3061.709	1.523	1	generate	Run4	generate/STIM_022.jpg
3066.697	0.712	1	generate	Run4	generate/STIM_022.jpg
3070.564	0.859	1	generate	Run4	generate/STIM_023.jpg
3074.706	1.781	1	generate	Run4	generate/STIM_023.jpg
3079.692	1.5	0	generate	Run4	generate/STIM_023.jpg
3085.09	1.123	1	generate	Run4	generate/STIM_023.jpg
3088.726	1.087	1	generate	Run4	generate/STIM_023.jpg
3093.611	0.805	1	generate	Run4	generate/STIM_024.jpg
3097.419	1.48	1	generate	Run4	generate/STIM_024.jpg
3101.399	1.226	1	generate	Run4	generate/STIM_024.jpg
3105.662	1.389	1	generate	Run4	generate/STIM_024.jpg
3110.103	1.301	1	generate	Run4	generate/STIM_024.jpg
3114.667	0.615	1	repeat	Run4	repeat/STIM_000.jpg
3119.184	0.827	1	repeat	Run4	repeat/STIM_000.jpg
3123.13	0.494	1	repeat	Run4	repeat/STIM_000.jpg
3126.645	0.733	1	repeat	Run4	repeat/STIM_000.jpg
3130.019	0.526	1	repeat	Run4	repeat/STIM_000.jpg
3133.317	0.535	1	repeat	Run4	repeat/STIM_001.jpg
3137.707	0.766	1	repeat	Run4	repeat/STIM_001.jpg
3141.829	0.805	1	repeat	Run4	repeat/STIM_001.jpg
3146.355	0.591	1	repeat	Run4	repeat/STIM_001.jpg
3150.606	0.748	1	repeat	Run4	repeat/STIM_001.jpg
3155.154	0.504	1	repeat	Run4	repeat/STIM_002.jpg
3158.595	0.834	1	repeat	Run4	repeat/STIM_002.jpg
3162.972	0.548	1	repeat	Run4	repeat/STIM_002.jpg
3166.104	0.779	1	repeat	Run4	repeat/STIM_002.jpg
3169.696	0.765	1	repeat	Run4	repeat/STIM_002.jpg
3173.304	0.675	1	repeat	Run4	repeat/STIM_003.jpg
3177.351	0.711	1	repeat	Run4	repeat/STIM_003.jpg
3181.682	0.706	1	repeat	Run4	repeat/STIM_003.jpg
3185.866	0.731	1	repeat	Run4	repeat/STIM_003.jpg
3188.667	0.624	1	repeat	Run4	repeat/STIM_003.jpg
3192.002	0.604	1	repeat	Run4	repeat/STIM_004.jpg
3194.983	0.602	0	repeat	Run4	repeat/STIM_004.jpg
3198.923	0.791	1	repeat	Run4	repeat/STIM_004.jpg
3201.894	0.754	1	repeat	Run4	repeat/STIM_004.jpg
3205.72	0.706	1	repeat	Run4	repeat/STIM_004.jpg
3209.652	0.575	1	repeat	Run4	repeat/STIM_005.jpg
3212.406	0.55	1	repeat	Run4	repeat/STIM_005.jpg
3215.553	0.692	1	repeat	Run4	repeat/STIM_005.jpg
3219.085	0.772	1	repeat	Run4	repeat/STIM_005.jpg
3222.671	0.62	1	repeat	Run4	repeat/STIM_005.jpg
3227.022	0.68	1	repeat	Run4	repeat/STIM_006.jpg
3231.756	0.856	1	repeat	Run4	repeat/STIM_006.jpg
3235.791	0.784	1	repeat	Run4	repeat/STIM_006.jpg
3239.608	0.559	1	repeat	Run4	repeat/STIM_006.jpg
3243.445	0.667	1	repeat	Run4	repeat/STIM_006.jpg
3247.955	0.55	1	repeat	Run4	repeat/STIM_007.jpg
3250.971	0.871	1	repeat	Run4	repeat/STIM_007.jpg
3255.578	0.643	1	repeat	Run4	repeat/STIM_007.jpg
3259.14	0.476	0	repeat	Run4	repeat/STIM_007.jpg
3263.355	0.735	1	repeat	Run4	repeat/STIM_007.jpg
3266.439	0.583	1	repeat	Run4	repeat/STIM_008.jpg
3270.605	0.66	1	repeat	Run4	repeat/STIM_008.jpg
3274.17	0.588	1	repeat	Run4	repeat/STIM_008.jpg
3278.38	0.636	1	repeat	Run4	repeat/STIM_008.jpg
3282.039	0.57	1	repeat	Run4	repeat/STIM_008.jpg
3285.855	0.591	1	repeat	Run4	repeat/STIM_009.jpg
3288.704	0.814	1	repeat	Run4	repeat/STIM_009.jpg
3291.806	0.622	1	repeat	Run4	repeat/STIM_009.jpg
3295.409	0.794	1	repeat	Run4	repeat/STIM_009.jpg
3299.633	0.692	1	repeat	Run4	repeat/STIM_009.jpg
3302.614	0.639	0	repeat	Run4	repeat/STIM_010.jpg
3306.259	0.718	1	repeat	Run4	repeat/STIM_010.jpg
3311.037	0.692	1	repeat	Run4	repeat/STIM_010.jpg
3315.589	0.627	1	repeat	Run4	repeat/STIM_010.jpg
3319.486	0.812	1	repeat	Run4	repeat/STIM_010.jpg
3323.616	0.849	1	repeat	Run4	repeat/STIM_011.jpg
3328.197	0.783	1	repeat	Run4	repeat/STIM_011.jpg
3332.56	0.63	1	repeat	Run4	repeat/STIM_011.jpg
3336.087	0.656	1	repeat	Run4	repeat/STIM_011.jpg
3340.444	0.472	1	repeat	Run4	repeat/STIM_011.jpg
3343.416	0.759	1	repeat	Run4	repeat/STIM_012.jpg
3347.502	0.741	0	repeat	Run4	repeat/STIM_012.jpg
3351.242	0.582	0	repeat	Run4	repeat/STIM_012.jpg
3355.419	0.669	1	repeat	Run4	repeat/STIM_012.jpg
3358.466	0.429	1	repeat	Run4	repeat/STIM_012.jpg
3361.394	0.449	1	repeat	Run4	repeat/STIM_013.jpg
3365.459	0.421	1	repeat	Run4	repeat/STIM_013.jpg
3367.983	0.443	1	repeat	Run4	repeat/STIM_013.jpg
3370.736	0.564	1	repeat	Run4	repeat/STIM_013.jpg
3373.682	0.553	1	repeat	Run4	repeat/STIM_013.jpg
3377.185	0.491	1	repeat	Run4	repeat/STIM_014.jpg
3380.19	0.536	1	repeat	Run4	repeat/STIM_014.jpg
3383.504	0.771	1	repeat	Run4	repeat/STIM_014.jpg
3388.159	0.586	1	repeat	Run4	repeat/STIM_014.jpg
3391.844	0.554	1	repeat	Run4	repeat/STIM_014.jpg
