onset	duration	accuracy	trial_type	learning_stage	stimulus
0.0	2.218	correct	generate	Run1	generate/STIM_000.jpg
5.421	2.333	incorrect	generate	Run1	generate/STIM_000.jpg
11.679	1.972	correct	generate	Run1	generate/STIM_000.jpg
15.687	1.091	correct	generate	Run1	generate/STIM_000.jpg
19.765	1.044	incorrect	generate	Run1	generate/STIM_000.jpg
24.677	1.388	incorrect	generate	Run1	generate/STIM_001.jpg
29.582	2.123	correct	generate	Run1	generate/STIM_001.jpg
35.007	1.955	correct	generate	Run1	generate/STIM_001.jpg
38.969	1.224	correct	generate	Run1	generate/STIM_001.jpg
43.258	1.794	correct	generate	Run1	generate/STIM_001.jpg
48.018	2.401	correct	generate	Run1	generate/STIM_002.jpg
52.646	2.327	correct	generate	Run1	generate/STIM_002.jpg
58.207	1.643	correct	generate	Run1	generate/STIM_002.jpg
63.405	1.754	correct	generate	Run1	generate/STIM_002.jpg
67.851	1.555	correct	generate	Run1	generate/STIM_002.jpg
72.335	2.486	correct	generate	Run1	generate/STIM_003.jpg
78.732	2.296	correct	generate	Run1	generate/STIM_003.jpg
83.407	2.083	correct	generate	Run1	generate/STIM_003.jpg
87.654	1.329	correct	generate	Run1	generate/STIM_003.jpg
92.276	1.952	correct	generate	Run1	generate/STIM_003.jpg
98.199	1.256	correct	generate	Run1	generate/STIM_004.jpg
102.725	1.289	correct	generate	Run1	generate/STIM_004.jpg
107.224	0.927	correct	generate	Run1	generate/STIM_004.jpg
112.07	1.563	incorrect	generate	Run1	generate/STIM_004.jpg
116.519	0.912	incorrect	generate	Run1	generate/STIM_004.jpg
119.777	1.941	correct	generate	Run1	generate/STIM_005.jpg
124.431	1.117	correct	generate	Run1	generate/STIM_005.jpg
127.556	2.039	correct	generate	Run1	generate/STIM_005.jpg
133.241	1.982	correct	generate	Run1	generate/STIM_005.jpg
138.533	1.023	correct	generate	Run1	generate/STIM_005.jpg
141.905	1.425	correct	generate	Run1	generate/STIM_006.jpg
146.976	1.613	incorrect	generate	Run1	generate/STIM_006.jpg
152.121	1.148	incorrect	generate	Run1	generate/STIM_006.jpg
156.398	1.572	correct	generate	Run1	generate/STIM_006.jpg
160.715	1.659	correct	generate	Run1	generate/STIM_006.jpg
164.423	1.912	correct	generate	Run1	generate/STIM_007.jpg
168.41	1.406	correct	generate	Run1	generate/STIM_007.jpg
172.056	1.49	correct	generate	Run1	generate/STIM_007.jpg
177.008	1.494	correct	generate	Run1	generate/STIM_007.jpg
181.844	0.824	correct	generate	Run1	generate/STIM_007.jpg
186.122	1.438	correct	generate	Run1	generate/STIM_008.jpg
191.397	1.38	correct	generate	Run1	generate/STIM_008.jpg
195.591	1.71	correct	generate	Run1	generate/STIM_008.jpg
199.822	1.549	correct	generate	Run1	generate/STIM_008.jpg
203.443	1.378	correct	generate	Run1	generate/STIM_008.jpg
207.204	1.541	correct	generate	Run1	generate/STIM_009.jpg
211.759	1.657	correct	generate	Run1	generate/STIM_009.jpg
217.047	0.993	correct	generate	Run1	generate/STIM_009.jpg
221.262	1.123	correct	generate	Run1	generate/STIM_009.jpg
225.863	0.941	correct	generate	Run1	generate/STIM_009.jpg
230.271	1.788	correct	generate	Run1	generate/STIM_010.jpg
235.682	1.734	incorrect	generate	Run1	generate/STIM_010.jpg
239.771	2.251	correct	generate	Run1	generate/STIM_010.jpg
245.151	1.956	correct	generate	Run1	generate/STIM_010.jpg
250.891	0.867	correct	generate	Run1	generate/STIM_010.jpg
253.86	2.094	correct	generate	Run1	generate/STIM_011.jpg
259.559	1.086	incorrect	generate	Run1	generate/STIM_011.jpg
263.945	1.729	incorrect	generate	Run1	generate/STIM_011.jpg
268.476	1.991	correct	generate	Run1	generate/STIM_011.jpg
273.314	1.758	correct	generate	Run1	generate/STIM_011.jpg
278.171	2.494	incorrect	generate	Run1	generate/STIM_012.jpg
284.015	1.748	correct	generate	Run1	generate/STIM_012.jpg
287.969	2.258	correct	generate	Run1	generate/STIM_012.jpg
293.566	1.428	incorrect	generate	Run1	generate/STIM_012.jpg
297.16	0.974	correct	generate	Run1	generate/STIM_012.jpg
301.545	1.33	correct	generate	Run1	generate/STIM_013.jpg
306.698	1.993	correct	generate	Run1	generate/STIM_013.jpg
311.644	2.28	correct	generate	Run1	generate/STIM_013.jpg
316.809	1.845	correct	generate	Run1	generate/STIM_013.jpg
321.262	0.958	incorrect	generate	Run1	generate/STIM_013.jpg
325.515	2.417	correct	generate	Run1	generate/STIM_014.jpg
329.953	1.645	incorrect	generate	Run1	generate/STIM_014.jpg
334.177	1.211	correct	generate	Run1	generate/STIM_014.jpg
337.888	1.58	correct	generate	Run1	generate/STIM_014.jpg
342.166	1.083	correct	generate	Run1	generate/STIM_014.jpg
346.911	1.604	incorrect	generate	Run1	generate/STIM_015.jpg
351.234	1.581	incorrect	generate	Run1	generate/STIM_015.jpg
355.463	1.275	correct	generate	Run1	generate/STIM_015.jpg
360.31	1.501	correct	generate	Run1	generate/STIM_015.jpg
364.774	2.03	correct	generate	Run1	generate/STIM_015.jpg
370.513	1.426	incorrect	generate	Run1	generate/STIM_016.jpg
374.383	2.032	incorrect	generate	Run1	generate/STIM_016.jpg
379.475	1.012	correct	generate	Run1	generate/STIM_016.jpg
383.373	1.066	correct	generate	Run1	generate/STIM_016.jpg
388.244	0.961	correct	generate	Run1	generate/STIM_016.jpg
391.867	1.913	correct	generate	Run1	generate/STIM_017.jpg
397.74	1.989	correct	generate	Run1	generate/STIM_017.jpg
402.517	1.476	correct	generate	Run1	generate/STIM_017.jpg
406.266	1.664	incorrect	generate	Run1	generate/STIM_017.jpg
410.657	1.83	correct	generate	Run1	generate/STIM_017.jpg
416.249	2.236	correct	generate	Run1	generate/STIM_018.jpg
421.176	1.639	incorrect	generate	Run1	generate/STIM_018.jpg
425.654	2.191	incorrect	generate	Run1	generate/STIM_018.jpg
430.377	1.284	correct	generate	Run1	generate/STIM_018.jpg
435.229	1.194	correct	generate	Run1	generate/STIM_018.jpg
439.981	2.249	correct	generate	Run1	generate/STIM_019.jpg
445.372	2.096	correct	generate	Run1	generate/STIM_019.jpg
449.841	1.485	correct	generate	Run1	generate/STIM_019.jpg
455.323	1.062	correct	generate	Run1	generate/STIM_019.jpg
458.641	1.392	correct	generate	Run1	generate/STIM_019.jpg
462.078	1.685	correct	generate	Run1	generate/STIM_020.jpg
465.899	2.268	correct	generate	Run1	generate/STIM_020.jpg
471.89	1.528	correct	generate	Run1	generate/STIM_020.jpg
475.718	1.305	correct	generate	Run1	generate/STIM_020.jpg
480.973	1.701	correct	generate	Run1	generate/STIM_020.jpg
484.694	2.421	correct	generate	Run1	generate/STIM_021.jpg
490.699	2.404	correct	generate	Run1	generate/STIM_021.jpg
495.822	1.89	correct	generate	Run1	generate/STIM_021.jpg
501.355	1.731	incorrect	generate	Run1	generate/STIM_021.jpg
505.671	1.287	correct	generate	Run1	generate/STIM_021.jpg
510.066	1.237	correct	generate	Run1	generate/STIM_022.jpg
515.086	2.275	correct	generate	Run1	generate/STIM_022.jpg
519.865	2.182	incorrect	generate	Run1	generate/STIM_022.jpg
525.804	0.957	correct	generate	Run1	generate/STIM_022.jpg
529.468	1.038	correct	generate	Run1	generate/STIM_022.jpg
532.936	1.036	correct	generate	Run1	generate/STIM_023.jpg
537.497	1.146	correct	generate	Run1	generate/STIM_023.jpg
541.409	1.19	correct	generate	Run1	generate/STIM_023.jpg
546.359	1.475	incorrect	generate	Run1	generate/STIM_023.jpg
551.809	1.217	correct	generate	Run1	generate/STIM_023.jpg
556.48	1.462	correct	generate	Run1	generate/STIM_024.jpg
560.004	1.086	correct	generate	Run1	generate/STIM_024.jpg
563.628	1.115	correct	generate	Run1	generate/STIM_024.jpg
568.447	1.116	correct	generate	Run1	generate/STIM_024.jpg
572.422	1.673	correct	generate	Run1	generate/STIM_024.jpg
577.036	0.706	correct	repeat	Run1	repeat/STIM_000.jpg
581.047	0.617	correct	repeat	Run1	repeat/STIM_000.jpg
583.722	0.799	correct	repeat	Run1	repeat/STIM_000.jpg
587.781	0.736	correct	repeat	Run1	repeat/STIM_000.jpg
591.311	0.429	correct	repeat	Run1	repeat/STIM_000.jpg
595.678	0.617	correct	repeat	Run1	repeat/STIM_001.jpg
600.19	0.508	correct	repeat	Run1	repeat/STIM_001.jpg
603.216	0.593	correct	repeat	Run1	repeat/STIM_001.jpg
606.29	0.441	correct	repeat	Run1	repeat/STIM_001.jpg
609.706	0.766	correct	repeat	Run1	repeat/STIM_001.jpg
613.062	0.458	correct	repeat	Run1	repeat/STIM_002.jpg
617.378	0.565	correct	repeat	Run1	repeat/STIM_002.jpg
621.398	0.806	correct	repeat	Run1	repeat/STIM_002.jpg
624.44	0.614	correct	repeat	Run1	repeat/STIM_002.jpg
627.134	0.798	correct	repeat	Run1	repeat/STIM_002.jpg
630.216	0.506	correct	repeat	Run1	repeat/STIM_003.jpg
632.778	0.491	correct	repeat	Run1	repeat/STIM_003.jpg
635.582	0.652	correct	repeat	Run1	repeat/STIM_003.jpg
638.597	0.451	correct	repeat	Run1	repeat/STIM_003.jpg
641.769	0.588	correct	repeat	Run1	repeat/STIM_003.jpg
646.012	0.58	correct	repeat	Run1	repeat/STIM_004.jpg
648.645	0.637	correct	repeat	Run1	repeat/STIM_004.jpg
653.056	0.457	correct	repeat	Run1	repeat/STIM_004.jpg
656.704	0.589	correct	repeat	Run1	repeat/STIM_004.jpg
659.86	0.775	correct	repeat	Run1	repeat/STIM_004.jpg
663.594	0.846	correct	repeat	Run1	repeat/STIM_005.jpg
668.193	0.427	correct	repeat	Run1	repeat/STIM_005.jpg
670.779	0.843	correct	repeat	Run1	repeat/STIM_005.jpg
675.34	0.688	correct	repeat	Run1	repeat/STIM_005.jpg
678.644	0.812	correct	repeat	Run1	repeat/STIM_005.jpg
681.71	0.742	correct	repeat	Run1	repeat/STIM_006.jpg
685.289	0.682	correct	repeat	Run1	repeat/STIM_006.jpg
689.689	0.52	correct	repeat	Run1	repeat/STIM_006.jpg
692.375	0.474	correct	repeat	Run1	repeat/STIM_006.jpg
696.723	0.646	correct	repeat	Run1	repeat/STIM_006.jpg
700.264	0.549	correct	repeat	Run1	repeat/STIM_007.jpg
703.222	0.53	correct	repeat	Run1	repeat/STIM_007.jpg
706.833	0.608	correct	repeat	Run1	repeat/STIM_007.jpg
710.519	0.484	correct	repeat	Run1	repeat/STIM_007.jpg
713.116	0.8	correct	repeat	Run1	repeat/STIM_007.jpg
717.197	0.568	correct	repeat	Run1	repeat/STIM_008.jpg
721.452	0.516	correct	repeat	Run1	repeat/STIM_008.jpg
724.807	0.7	correct	repeat	Run1	repeat/STIM_008.jpg
728.153	0.636	correct	repeat	Run1	repeat/STIM_008.jpg
732.568	0.804	correct	repeat	Run1	repeat/STIM_008.jpg
735.409	0.433	correct	repeat	Run1	repeat/STIM_009.jpg
738.807	0.792	correct	repeat	Run1	repeat/STIM_009.jpg
742.785	0.678	correct	repeat	Run1	repeat/STIM_009.jpg
745.677	0.829	correct	repeat	Run1	repeat/STIM_009.jpg
750.076	0.577	correct	repeat	Run1	repeat/STIM_009.jpg
753.254	0.514	correct	repeat	Run1	repeat/STIM_010.jpg
757.695	0.453	correct	repeat	Run1	repeat/STIM_010.jpg
760.741	0.432	correct	repeat	Run1	repeat/STIM_010.jpg
764.097	0.646	correct	repeat	Run1	repeat/STIM_010.jpg
768.631	0.667	correct	repeat	Run1	repeat/STIM_010.jpg
773.11	0.838	correct	repeat	Run1	repeat/STIM_011.jpg
777.075	0.476	correct	repeat	Run1	repeat/STIM_011.jpg
781.25	0.67	correct	repeat	Run1	repeat/STIM_011.jpg
784.85	0.822	correct	repeat	Run1	repeat/STIM_011.jpg
787.966	0.822	correct	repeat	Run1	repeat/STIM_011.jpg
791.88	0.648	incorrect	repeat	Run1	repeat/STIM_012.jpg
795.518	0.614	correct	repeat	Run1	repeat/STIM_012.jpg
798.315	0.567	correct	repeat	Run1	repeat/STIM_012.jpg
801.669	0.565	correct	repeat	Run1	repeat/STIM_012.jpg
805.485	0.606	correct	repeat	Run1	repeat/STIM_012.jpg
809.946	0.794	correct	repeat	Run1	repeat/STIM_013.jpg
814.326	0.539	correct	repeat	Run1	repeat/STIM_013.jpg
817.518	0.686	correct	repeat	Run1	repeat/STIM_013.jpg
820.288	0.489	correct	repeat	Run1	repeat/STIM_013.jpg
822.806	0.849	correct	repeat	Run1	repeat/STIM_013.jpg
825.818	0.635	correct	repeat	Run1	repeat/STIM_014.jpg
829.594	0.57	correct	repeat	Run1	repeat/STIM_014.jpg
832.944	0.647	correct	repeat	Run1	repeat/STIM_014.jpg
835.815	0.754	correct	repeat	Run1	repeat/STIM_014.jpg
840.515	0.639	correct	repeat	Run1	repeat/STIM_014.jpg
843.552	1.644	correct	generate	Run2	generate/STIM_000.jpg
848.423	1.646	correct	generate	Run2	generate/STIM_000.jpg
853.33	1.489	incorrect	generate	Run2	generate/STIM_000.jpg
856.938	1.302	correct	generate	Run2	generate/STIM_000.jpg
860.966	1.435	correct	generate	Run2	generate/STIM_000.jpg
864.96	1.53	incorrect	generate	Run2	generate/STIM_001.jpg
870.292	1.341	correct	generate	Run2	generate/STIM_001.jpg
874.389	0.912	incorrect	generate	Run2	generate/STIM_001.jpg
879.115	1.318	correct	generate	Run2	generate/STIM_001.jpg
883.36	1.404	correct	generate	Run2	generate/STIM_001.jpg
886.847	1.139	correct	generate	Run2	generate/STIM_002.jpg
891.968	1.341	correct	generate	Run2	generate/STIM_002.jpg
896.806	1.443	correct	generate	Run2	generate/STIM_002.jpg
901.887	0.774	correct	generate	Run2	generate/STIM_002.jpg
906.127	0.819	correct	generate	Run2	generate/STIM_002.jpg
908.983	1.448	incorrect	generate	Run2	generate/STIM_003.jpg
913.938	1.034	correct	generate	Run2	generate/STIM_003.jpg
918.749	0.778	incorrect	generate	Run2	generate/STIM_003.jpg
922.391	1.371	incorrect	generate	Run2	generate/STIM_003.jpg
926.481	1.154	correct	generate	Run2	generate/STIM_003.jpg
930.568	1.479	correct	generate	Run2	generate/STIM_004.jpg
934.206	1.409	correct	generate	Run2	generate/STIM_004.jpg
938.501	0.959	correct	generate	Run2	generate/STIM_004.jpg
942.511	0.844	correct	generate	Run2	generate/STIM_004.jpg
945.571	1.727	correct	generate	Run2	generate/STIM_004.jpg
949.944	1.307	incorrect	generate	Run2	generate/STIM_005.jpg
953.868	0.978	correct	generate	Run2	generate/STIM_005.jpg
958.797	1.701	correct	generate	Run2	generate/STIM_005.jpg
962.697	1.456	correct	generate	Run2	generate/STIM_005.jpg
967.47	1.022	correct	generate	Run2	generate/STIM_005.jpg
970.912	1.783	correct	generate	Run2	generate/STIM_006.jpg
975.139	2.021	correct	generate	Run2	generate/STIM_006.jpg
980.415	1.452	correct	generate	Run2	generate/STIM_006.jpg
983.908	1.233	correct	generate	Run2	generate/STIM_006.jpg
988.504	1.022	correct	generate	Run2	generate/STIM_006.jpg
991.583	2.11	correct	generate	Run2	generate/STIM_007.jpg
996.394	1.593	correct	generate	Run2	generate/STIM_007.jpg
1000.203	0.782	correct	generate	Run2	generate/STIM_007.jpg
1004.604	1.273	correct	generate	Run2	generate/STIM_007.jpg
1008.3	0.918	incorrect	generate	Run2	generate/STIM_007.jpg
1011.838	1.296	correct	generate	Run2	generate/STIM_008.jpg
1015.922	1.259	correct	generate	Run2	generate/STIM_008.jpg
1019.824	1.774	correct	generate	Run2	generate/STIM_008.jpg
1025.207	1.243	correct	generate	Run2	generate/STIM_008.jpg
1029.653	1.079	correct	generate	Run2	generate/STIM_008.jpg
1034.28	1.011	correct	generate	Run2	generate/STIM_009.jpg
1038.404	1.223	correct	generate	Run2	generate/STIM_009.jpg
1042.449	1.377	correct	generate	Run2	generate/STIM_009.jpg
1047.782	0.893	correct	generate	Run2	generate/STIM_009.jpg
1051.143	1.254	correct	generate	Run2	generate/STIM_009.jpg
1055.509	1.504	incorrect	generate	Run2	generate/STIM_010.jpg
1059.894	1.89	correct	generate	Run2	generate/STIM_010.jpg
1064.953	0.97	correct	generate	Run2	generate/STIM_010.jpg
1067.999	0.737	incorrect	generate	Run2	generate/STIM_010.jpg
1071.743	1.281	incorrect	generate	Run2	generate/STIM_010.jpg
1075.743	2.085	correct	generate	Run2	generate/STIM_011.jpg
1080.545	0.892	correct	generate	Run2	generate/STIM_011.jpg
1083.752	1.056	correct	generate	Run2	generate/STIM_011.jpg
1087.559	1.763	correct	generate	Run2	generate/STIM_011.jpg
1092.387	1.514	correct	generate	Run2	generate/STIM_011.jpg
1097.764	1.969	correct	generate	Run2	generate/STIM_012.jpg
1103.622	1.194	correct	generate	Run2	generate/STIM_012.jpg
1107.259	1.72	correct	generate	Run2	generate/STIM_012.jpg
1111.0	1.786	correct	generate	Run2	generate/STIM_012.jpg
1114.873	0.797	correct	generate	Run2	generate/STIM_012.jpg
1118.905	1.657	correct	generate	Run2	generate/STIM_013.jpg
1123.309	0.898	correct	generate	Run2	generate/STIM_013.jpg
1127.005	1.9	correct	generate	Run2	generate/STIM_013.jpg
1132.416	1.055	correct	generate	Run2	generate/STIM_013.jpg
1137.101	0.802	correct	generate	Run2	generate/STIM_013.jpg
1141.609	1.276	correct	generate	Run2	generate/STIM_014.jpg
1146.162	1.58	incorrect	generate	Run2	generate/STIM_014.jpg
1150.082	0.956	correct	generate	Run2	generate/STIM_014.jpg
1154.312	1.423	incorrect	generate	Run2	generate/STIM_014.jpg
1159.145	1.571	correct	generate	Run2	generate/STIM_014.jpg
1163.807	2.098	incorrect	generate	Run2	generate/STIM_015.jpg
1168.668	1.973	correct	generate	Run2	generate/STIM_015.jpg
1173.187	1.871	correct	generate	Run2	generate/STIM_015.jpg
1178.006	1.399	correct	generate	Run2	generate/STIM_015.jpg
1183.09	1.469	correct	generate	Run2	generate/STIM_015.jpg
1186.675	1.169	correct	generate	Run2	generate/STIM_016.jpg
1191.84	1.871	correct	generate	Run2	generate/STIM_016.jpg
1196.941	1.632	correct	generate	Run2	generate/STIM_016.jpg
1201.508	1.184	correct	generate	Run2	generate/STIM_016.jpg
1205.148	1.502	correct	generate	Run2	generate/STIM_016.jpg
1210.553	0.963	correct	generate	Run2	generate/STIM_017.jpg
1214.315	1.218	correct	generate	Run2	generate/STIM_017.jpg
1218.901	1.914	incorrect	generate	Run2	generate/STIM_017.jpg
1224.632	1.739	correct	generate	Run2	generate/STIM_017.jpg
1229.154	1.085	incorrect	generate	Run2	generate/STIM_017.jpg
1232.394	1.635	incorrect	generate	Run2	generate/STIM_018.jpg
1237.79	1.67	correct	generate	Run2	generate/STIM_018.jpg
1243.401	1.116	correct	generate	Run2	generate/STIM_018.jpg
1247.035	1.0	correct	generate	Run2	generate/STIM_018.jpg
1250.799	1.518	correct	generate	Run2	generate/STIM_018.jpg
1256.208	1.123	correct	generate	Run2	generate/STIM_019.jpg
1260.149	1.228	correct	generate	Run2	generate/STIM_019.jpg
1263.435	1.558	correct	generate	Run2	generate/STIM_019.jpg
1267.921	1.699	correct	generate	Run2	generate/STIM_019.jpg
1272.425	1.423	correct	generate	Run2	generate/STIM_019.jpg
1277.3	1.028	correct	generate	Run2	generate/STIM_020.jpg
1281.715	1.515	incorrect	generate	Run2	generate/STIM_020.jpg
1287.16	1.396	correct	generate	Run2	generate/STIM_020.jpg
1291.266	1.731	correct	generate	Run2	generate/STIM_020.jpg
1296.366	1.097	correct	generate	Run2	generate/STIM_020.jpg
1301.008	1.306	incorrect	generate	Run2	generate/STIM_021.jpg
1304.883	0.971	correct	generate	Run2	generate/STIM_021.jpg
1308.507	1.326	correct	generate	Run2	generate/STIM_021.jpg
1313.148	1.313	incorrect	generate	Run2	generate/STIM_021.jpg
1316.624	1.69	correct	generate	Run2	generate/STIM_021.jpg
1320.914	2.124	correct	generate	Run2	generate/STIM_022.jpg
1325.326	0.825	correct	generate	Run2	generate/STIM_022.jpg
1329.322	1.474	correct	generate	Run2	generate/STIM_022.jpg
1333.478	0.841	correct	generate	Run2	generate/STIM_022.jpg
1337.062	1.271	correct	generate	Run2	generate/STIM_022.jpg
1341.962	0.965	correct	generate	Run2	generate/STIM_023.jpg
1346.475	1.614	correct	generate	Run2	generate/STIM_023.jpg
1351.313	1.184	correct	generate	Run2	generate/STIM_023.jpg
1356.123	1.223	correct	generate	Run2	generate/STIM_023.jpg
1360.948	0.883	correct	generate	Run2	generate/STIM_023.jpg
1365.447	1.647	incorrect	generate	Run2	generate/STIM_024.jpg
1369.538	0.865	correct	generate	Run2	generate/STIM_024.jpg
1372.533	1.653	correct	generate	Run2	generate/STIM_024.jpg
1376.708	0.859	correct	generate	Run2	generate/STIM_024.jpg
1380.016	0.762	correct	generate	Run2	generate/STIM_024.jpg
1383.051	0.659	correct	repeat	Run2	repeat/STIM_000.jpg
1386.966	0.694	correct	repeat	Run2	repeat/STIM_000.jpg
1390.115	0.491	correct	repeat	Run2	repeat/STIM_000.jpg
1392.876	0.77	correct	repeat	Run2	repeat/STIM_000.jpg
1396.677	0.551	correct	repeat	Run2	repeat/STIM_000.jpg
1401.163	0.483	correct	repeat	Run2	repeat/STIM_001.jpg
1404.898	0.43	correct	repeat	Run2	repeat/STIM_001.jpg
1407.357	0.839	correct	repeat	Run2	repeat/STIM_001.jpg
1411.017	0.456	correct	repeat	Run2	repeat/STIM_001.jpg
1415.039	0.692	correct	repeat	Run2	repeat/STIM_001.jpg
1418.669	0.755	correct	repeat	Run2	repeat/STIM_002.jpg
1422.511	0.734	correct	repeat	Run2	repeat/STIM_002.jpg
1427.045	0.735	correct	repeat	Run2	repeat/STIM_002.jpg
1430.441	0.679	correct	repeat	Run2	repeat/STIM_002.jpg
1433.884	0.534	correct	repeat	Run2	repeat/STIM_002.jpg
1437.89	0.428	correct	repeat	Run2	repeat/STIM_003.jpg
1442.012	0.689	correct	repeat	Run2	repeat/STIM_003.jpg
1444.892	0.643	correct	repeat	Run2	repeat/STIM_003.jpg
1449.244	0.605	correct	repeat	Run2	repeat/STIM_003.jpg
1453.112	0.728	correct	repeat	Run2	repeat/STIM_003.jpg
1456.289	0.66	correct	repeat	Run2	repeat/STIM_004.jpg
1459.24	0.685	correct	repeat	Run2	repeat/STIM_004.jpg
1463.791	0.738	correct	repeat	Run2	repeat/STIM_004.jpg
1467.17	0.52	correct	repeat	Run2	repeat/STIM_004.jpg
1471.455	0.436	correct	repeat	Run2	repeat/STIM_004.jpg
1474.041	0.685	correct	repeat	Run2	repeat/STIM_005.jpg
1476.877	0.574	correct	repeat	Run2	repeat/STIM_005.jpg
1480.062	0.671	correct	repeat	Run2	repeat/STIM_005.jpg
1483.411	0.6	correct	repeat	Run2	repeat/STIM_005.jpg
1486.505	0.85	correct	repeat	Run2	repeat/STIM_005.jpg
1489.685	0.648	correct	repeat	Run2	repeat/STIM_006.jpg
1492.839	0.505	correct	repeat	Run2	repeat/STIM_006.jpg
1495.836	0.748	correct	repeat	Run2	repeat/STIM_006.jpg
1499.208	0.636	correct	repeat	Run2	repeat/STIM_006.jpg
1503.407	0.671	correct	repeat	Run2	repeat/STIM_006.jpg
1506.242	0.506	correct	repeat	Run2	repeat/STIM_007.jpg
1509.914	0.554	correct	repeat	Run2	repeat/STIM_007.jpg
1512.723	0.666	correct	repeat	Run2	repeat/STIM_007.jpg
1515.9	0.646	correct	repeat	Run2	repeat/STIM_007.jpg
1518.556	0.565	correct	repeat	Run2	repeat/STIM_007.jpg
1521.846	0.682	correct	repeat	Run2	repeat/STIM_008.jpg
1526.443	0.604	correct	repeat	Run2	repeat/STIM_008.jpg
1530.943	0.556	correct	repeat	Run2	repeat/STIM_008.jpg
1533.545	0.744	incorrect	repeat	Run2	repeat/STIM_008.jpg
1538.163	0.535	correct	repeat	Run2	repeat/STIM_008.jpg
1542.02	0.588	correct	repeat	Run2	repeat/STIM_009.jpg
1545.863	0.484	correct	repeat	Run2	repeat/STIM_009.jpg
1549.159	0.63	correct	repeat	Run2	repeat/STIM_009.jpg
1552.885	0.591	correct	repeat	Run2	repeat/STIM_009.jpg
1555.537	0.519	correct	repeat	Run2	repeat/STIM_009.jpg
1558.218	0.665	correct	repeat	Run2	repeat/STIM_010.jpg
1562.718	0.831	correct	repeat	Run2	repeat/STIM_010.jpg
1566.747	0.516	correct	repeat	Run2	repeat/STIM_010.jpg
1570.57	0.826	correct	repeat	Run2	repeat/STIM_010.jpg
1574.214	0.757	correct	repeat	Run2	repeat/STIM_010.jpg
1577.717	0.556	correct	repeat	Run2	repeat/STIM_011.jpg
1581.787	0.502	correct	repeat	Run2	repeat/STIM_011.jpg
1585.442	0.56	correct	repeat	Run2	repeat/STIM_011.jpg
1589.589	0.614	incorrect	repeat	Run2	repeat/STIM_011.jpg
1594.095	0.687	correct	repeat	Run2	repeat/STIM_011.jpg
1597.791	0.519	correct	repeat	Run2	repeat/STIM_012.jpg
1601.946	0.431	correct	repeat	Run2	repeat/STIM_012.jpg
1605.75	0.765	correct	repeat	Run2	repeat/STIM_012.jpg
1610.491	0.827	correct	repeat	Run2	repeat/STIM_012.jpg
1615.275	0.723	correct	repeat	Run2	repeat/STIM_012.jpg
1618.44	0.564	correct	repeat	Run2	repeat/STIM_013.jpg
1622.009	0.585	correct	repeat	Run2	repeat/STIM_013.jpg
1624.645	0.668	correct	repeat	Run2	repeat/STIM_013.jpg
1628.095	0.776	correct	repeat	Run2	repeat/STIM_013.jpg
1632.047	0.547	correct	repeat	Run2	repeat/STIM_013.jpg
1635.572	0.562	correct	repeat	Run2	repeat/STIM_014.jpg
1638.516	0.625	correct	repeat	Run2	repeat/STIM_014.jpg
1642.118	0.62	correct	repeat	Run2	repeat/STIM_014.jpg
1645.374	0.522	correct	repeat	Run2	repeat/STIM_014.jpg
1649.72	0.837	correct	repeat	Run2	repeat/STIM_014.jpg
1652.718	0.928	correct	generate	Run3	generate/STIM_000.jpg
1655.694	1.4	correct	generate	Run3	generate/STIM_000.jpg
1660.894	1.067	correct	generate	Run3	generate/STIM_000.jpg
1664.664	1.775	correct	generate	Run3	generate/STIM_000.jpg
1670.408	0.851	correct	generate	Run3	generate/STIM_000.jpg
1674.52	0.885	incorrect	generate	Run3	generate/STIM_001.jpg
1678.042	1.261	incorrect	generate	Run3	generate/STIM_001.jpg
1683.215	1.496	correct	generate	Run3	generate/STIM_001.jpg
1687.371	1.144	correct	generate	Run3	generate/STIM_001.jpg
1692.36	1.222	correct	generate	Run3	generate/STIM_001.jpg
1696.374	1.524	incorrect	generate	Run3	generate/STIM_002.jpg
1701.873	1.012	correct	generate	Run3	generate/STIM_002.jpg
1705.55	0.892	correct	generate	Run3	generate/STIM_002.jpg
1709.003	0.833	correct	generate	Run3	generate/STIM_002.jpg
1712.77	1.584	correct	generate	Run3	generate/STIM_002.jpg
1717.492	1.335	correct	generate	Run3	generate/STIM_003.jpg
1722.709	0.935	correct	generate	Run3	generate/STIM_003.jpg
1727.069	1.776	correct	generate	Run3	generate/STIM_003.jpg
1732.714	1.424	correct	generate	Run3	generate/STIM_003.jpg
1736.369	1.473	correct	generate	Run3	generate/STIM_003.jpg
1740.774	1.445	correct	generate	Run3	generate/STIM_004.jpg
1745.783	1.528	correct	generate	Run3	generate/STIM_004.jpg
1751.226	1.084	correct	generate	Run3	generate/STIM_004.jpg
1754.401	1.018	correct	generate	Run3	generate/STIM_004.jpg
1757.736	1.611	correct	generate	Run3	generate/STIM_004.jpg
1762.268	0.745	correct	generate	Run3	generate/STIM_005.jpg
1766.37	1.663	correct	generate	Run3	generate/STIM_005.jpg
1771.834	1.116	correct	generate	Run3	generate/STIM_005.jpg
1775.169	0.82	correct	generate	Run3	generate/STIM_005.jpg
1778.732	0.943	correct	generate	Run3	generate/STIM_005.jpg
1783.166	1.454	correct	generate	Run3	generate/STIM_006.jpg
1788.172	1.677	correct	generate	Run3	generate/STIM_006.jpg
1793.831	0.848	correct	generate	Run3	generate/STIM_006.jpg
1796.783	0.863	correct	generate	Run3	generate/STIM_006.jpg
1800.668	0.745	correct	generate	Run3	generate/STIM_006.jpg
1803.909	1.76	correct	generate	Run3	generate/STIM_007.jpg
1808.74	1.678	correct	generate	Run3	generate/STIM_007.jpg
1813.263	1.419	correct	generate	Run3	generate/STIM_007.jpg
1817.11	1.236	correct	generate	Run3	generate/STIM_007.jpg
1821.053	0.772	correct	generate	Run3	generate/STIM_007.jpg
1825.237	1.2	correct	generate	Run3	generate/STIM_008.jpg
1829.372	1.235	correct	generate	Run3	generate/STIM_008.jpg
1833.724	0.93	correct	generate	Run3	generate/STIM_008.jpg
1837.501	1.15	correct	generate	Run3	generate/STIM_008.jpg
1842.166	0.852	correct	generate	Run3	generate/STIM_008.jpg
1846.313	1.135	correct	generate	Run3	generate/STIM_009.jpg
1851.312	1.294	correct	generate	Run3	generate/STIM_009.jpg
1854.776	0.819	correct	generate	Run3	generate/STIM_009.jpg
1858.703	1.295	correct	generate	Run3	generate/STIM_009.jpg
1862.917	0.77	correct	generate	Run3	generate/STIM_009.jpg
1866.811	1.568	correct	generate	Run3	generate/STIM_010.jpg
1872.019	1.607	correct	generate	Run3	generate/STIM_010.jpg
1876.121	1.116	correct	generate	Run3	generate/STIM_010.jpg
1880.441	1.3	correct	generate	Run3	generate/STIM_010.jpg
1884.222	1.641	correct	generate	Run3	generate/STIM_010.jpg
1888.22	0.972	correct	generate	Run3	generate/STIM_011.jpg
1892.692	1.028	correct	generate	Run3	generate/STIM_011.jpg
1896.828	1.038	correct	generate	Run3	generate/STIM_011.jpg
1900.352	0.917	incorrect	generate	Run3	generate/STIM_011.jpg
1903.582	1.058	correct	generate	Run3	generate/STIM_011.jpg
1906.913	1.169	correct	generate	Run3	generate/STIM_012.jpg
1911.372	1.62	correct	generate	Run3	generate/STIM_012.jpg
1916.1	1.703	correct	generate	Run3	generate/STIM_012.jpg
1921.468	0.993	correct	generate	Run3	generate/STIM_012.jpg
1925.667	1.46	correct	generate	Run3	generate/STIM_012.jpg
1930.567	1.096	correct	generate	Run3	generate/STIM_013.jpg
1933.784	1.77	correct	generate	Run3	generate/STIM_013.jpg
1938.222	1.524	correct	generate	Run3	generate/STIM_013.jpg
1942.011	1.763	correct	generate	Run3	generate/STIM_013.jpg
1946.677	1.654	correct	generate	Run3	generate/STIM_013.jpg
1952.308	1.119	correct	generate	Run3	generate/STIM_014.jpg
1955.486	0.868	correct	generate	Run3	generate/STIM_014.jpg
1959.241	1.656	correct	generate	Run3	generate/STIM_014.jpg
1963.943	1.645	correct	generate	Run3	generate/STIM_014.jpg
1968.424	1.729	correct	generate	Run3	generate/STIM_014.jpg
1973.718	1.636	correct	generate	Run3	generate/STIM_015.jpg
1978.359	0.925	correct	generate	Run3	generate/STIM_015.jpg
1982.47	0.828	correct	generate	Run3	generate/STIM_015.jpg
1986.926	1.436	correct	generate	Run3	generate/STIM_015.jpg
1992.191	0.98	correct	generate	Run3	generate/STIM_015.jpg
1997.125	1.384	correct	generate	Run3	generate/STIM_016.jpg
2001.465	0.88	correct	generate	Run3	generate/STIM_016.jpg
2005.531	1.025	correct	generate	Run3	generate/STIM_016.jpg
2009.534	0.783	correct	generate	Run3	generate/STIM_016.jpg
2013.916	1.288	correct	generate	Run3	generate/STIM_016.jpg
2017.998	0.798	correct	generate	Run3	generate/STIM_017.jpg
2022.506	1.752	incorrect	generate	Run3	generate/STIM_017.jpg
2026.692	1.518	correct	generate	Run3	generate/STIM_017.jpg
2031.551	1.37	correct	generate	Run3	generate/STIM_017.jpg
2035.181	0.898	correct	generate	Run3	generate/STIM_017.jpg
2038.665	1.557	correct	generate	Run3	generate/STIM_018.jpg
2043.196	1.238	correct	generate	Run3	generate/STIM_018.jpg
2048.005	0.908	correct	generate	Run3	generate/STIM_018.jpg
2052.267	0.844	correct	generate	Run3	generate/STIM_018.jpg
2056.345	1.422	correct	generate	Run3	generate/STIM_018.jpg
2060.343	0.778	correct	generate	Run3	generate/STIM_019.jpg
2063.999	0.79	correct	generate	Run3	generate/STIM_019.jpg
2067.355	1.22	correct	generate	Run3	generate/STIM_019.jpg
2072.53	1.453	correct	generate	Run3	generate/STIM_019.jpg
2076.96	1.143	correct	generate	Run3	generate/STIM_019.jpg
2081.488	0.854	correct	generate	Run3	generate/STIM_020.jpg
2085.847	1.512	correct	generate	Run3	generate/STIM_020.jpg
2090.628	1.349	correct	generate	Run3	generate/STIM_020.jpg
2095.134	1.443	incorrect	generate	Run3	generate/STIM_020.jpg
2100.256	0.95	correct	generate	Run3	generate/STIM_020.jpg
2104.936	1.03	correct	generate	Run3	generate/STIM_021.jpg
2108.632	1.367	correct	generate	Run3	generate/STIM_021.jpg
2112.163	1.385	correct	generate	Run3	generate/STIM_021.jpg
2117.317	1.683	correct	generate	Run3	generate/STIM_021.jpg
2122.664	0.952	correct	generate	Run3	generate/STIM_021.jpg
2126.83	0.74	correct	generate	Run3	generate/STIM_022.jpg
2130.429	1.265	correct	generate	Run3	generate/STIM_022.jpg
2135.019	0.863	correct	generate	Run3	generate/STIM_022.jpg
2138.52	1.623	incorrect	generate	Run3	generate/STIM_022.jpg
2144.115	1.093	correct	generate	Run3	generate/STIM_022.jpg
2147.471	1.667	correct	generate	Run3	generate/STIM_023.jpg
2151.953	1.661	correct	generate	Run3	generate/STIM_023.jpg
2157.128	1.142	correct	generate	Run3	generate/STIM_023.jpg
2162.201	1.704	correct	generate	Run3	generate/STIM_023.jpg
2167.099	1.13	correct	generate	Run3	generate/STIM_023.jpg
2170.335	1.75	correct	generate	Run3	generate/STIM_024.jpg
2176.032	0.787	correct	generate	Run3	generate/STIM_024.jpg
2179.801	1.331	correct	generate	Run3	generate/STIM_024.jpg
2184.24	1.675	correct	generate	Run3	generate/STIM_024.jpg
2189.844	1.637	incorrect	generate	Run3	generate/STIM_024.jpg
2194.554	0.457	correct	repeat	Run3	repeat/STIM_000.jpg
2197.187	0.441	correct	repeat	Run3	repeat/STIM_000.jpg
2201.279	0.428	correct	repeat	Run3	repeat/STIM_000.jpg
2203.815	0.688	correct	repeat	Run3	repeat/STIM_000.jpg
2207.48	0.682	correct	repeat	Run3	repeat/STIM_000.jpg
2211.392	0.55	correct	repeat	Run3	repeat/STIM_001.jpg
2215.912	0.625	correct	repeat	Run3	repeat/STIM_001.jpg
2220.496	0.475	correct	repeat	Run3	repeat/STIM_001.jpg
2223.166	0.713	correct	repeat	Run3	repeat/STIM_001.jpg
2227.691	0.792	correct	repeat	Run3	repeat/STIM_001.jpg
2231.499	0.626	correct	repeat	Run3	repeat/STIM_002.jpg
2235.336	0.586	correct	repeat	Run3	repeat/STIM_002.jpg
2238.759	0.583	correct	repeat	Run3	repeat/STIM_002.jpg
2242.424	0.612	correct	repeat	Run3	repeat/STIM_002.jpg
2246.849	0.581	correct	repeat	Run3	repeat/STIM_002.jpg
2250.556	0.726	correct	repeat	Run3	repeat/STIM_003.jpg
2253.963	0.481	correct	repeat	Run3	repeat/STIM_003.jpg
2257.508	0.698	correct	repeat	Run3	repeat/STIM_003.jpg
2261.109	0.449	correct	repeat	Run3	repeat/STIM_003.jpg
2265.118	0.54	correct	repeat	Run3	repeat/STIM_003.jpg
2268.875	0.747	correct	repeat	Run3	repeat/STIM_004.jpg
2272.182	0.759	correct	repeat	Run3	repeat/STIM_004.jpg
2276.218	0.689	correct	repeat	Run3	repeat/STIM_004.jpg
2279.128	0.471	correct	repeat	Run3	repeat/STIM_004.jpg
2283.581	0.642	correct	repeat	Run3	repeat/STIM_004.jpg
2287.138	0.746	correct	repeat	Run3	repeat/STIM_005.jpg
2291.76	0.824	correct	repeat	Run3	repeat/STIM_005.jpg
2295.335	0.82	correct	repeat	Run3	repeat/STIM_005.jpg
2298.5	0.709	correct	repeat	Run3	repeat/STIM_005.jpg
2303.04	0.581	correct	repeat	Run3	repeat/STIM_005.jpg
2306.278	0.803	correct	repeat	Run3	repeat/STIM_006.jpg
2309.364	0.487	correct	repeat	Run3	repeat/STIM_006.jpg
2313.55	0.611	correct	repeat	Run3	repeat/STIM_006.jpg
2318.071	0.739	correct	repeat	Run3	repeat/STIM_006.jpg
2321.316	0.81	correct	repeat	Run3	repeat/STIM_006.jpg
2324.981	0.45	correct	repeat	Run3	repeat/STIM_007.jpg
2328.587	0.819	correct	repeat	Run3	repeat/STIM_007.jpg
2333.371	0.605	correct	repeat	Run3	repeat/STIM_007.jpg
2336.543	0.584	correct	repeat	Run3	repeat/STIM_007.jpg
2339.926	0.595	correct	repeat	Run3	repeat/STIM_007.jpg
2344.279	0.561	correct	repeat	Run3	repeat/STIM_008.jpg
2347.956	0.468	correct	repeat	Run3	repeat/STIM_008.jpg
2350.754	0.794	correct	repeat	Run3	repeat/STIM_008.jpg
2355.293	0.849	correct	repeat	Run3	repeat/STIM_008.jpg
2359.992	0.593	correct	repeat	Run3	repeat/STIM_008.jpg
2363.082	0.829	correct	repeat	Run3	repeat/STIM_009.jpg
2366.458	0.573	correct	repeat	Run3	repeat/STIM_009.jpg
2370.272	0.841	correct	repeat	Run3	repeat/STIM_009.jpg
2373.602	0.557	correct	repeat	Run3	repeat/STIM_009.jpg
2376.659	0.605	correct	repeat	Run3	repeat/STIM_009.jpg
2379.404	0.518	correct	repeat	Run3	repeat/STIM_010.jpg
2383.168	0.8	correct	repeat	Run3	repeat/STIM_010.jpg
2387.482	0.513	correct	repeat	Run3	repeat/STIM_010.jpg
2390.316	0.649	correct	repeat	Run3	repeat/STIM_010.jpg
2394.51	0.672	correct	repeat	Run3	repeat/STIM_010.jpg
2397.937	0.795	correct	repeat	Run3	repeat/STIM_011.jpg
2402.463	0.791	correct	repeat	Run3	repeat/STIM_011.jpg
2406.047	0.802	correct	repeat	Run3	repeat/STIM_011.jpg
2409.941	0.53	correct	repeat	Run3	repeat/STIM_011.jpg
2413.315	0.519	correct	repeat	Run3	repeat/STIM_011.jpg
2417.556	0.803	correct	repeat	Run3	repeat/STIM_012.jpg
2421.096	0.542	correct	repeat	Run3	repeat/STIM_012.jpg
2425.518	0.666	correct	repeat	Run3	repeat/STIM_012.jpg
2429.141	0.6	correct	repeat	Run3	repeat/STIM_012.jpg
2431.782	0.69	correct	repeat	Run3	repeat/STIM_012.jpg
2434.621	0.491	correct	repeat	Run3	repeat/STIM_013.jpg
2437.126	0.728	correct	repeat	Run3	repeat/STIM_013.jpg
2440.317	0.85	correct	repeat	Run3	repeat/STIM_013.jpg
2443.427	0.491	correct	repeat	Run3	repeat/STIM_013.jpg
2446.078	0.755	correct	repeat	Run3	repeat/STIM_013.jpg
2448.901	0.724	correct	repeat	Run3	repeat/STIM_014.jpg
2452.877	0.428	correct	repeat	Run3	repeat/STIM_014.jpg
2455.57	0.756	correct	repeat	Run3	repeat/STIM_014.jpg
2458.872	0.474	correct	repeat	Run3	repeat/STIM_014.jpg
2461.659	0.548	correct	repeat	Run3	repeat/STIM_014.jpg
2465.406	0.903	correct	generate	Run4	generate/STIM_000.jpg
2469.639	1.398	correct	generate	Run4	generate/STIM_000.jpg
2473.055	1.246	correct	generate	Run4	generate/STIM_000.jpg
2477.18	0.783	correct	generate	Run4	generate/STIM_000.jpg
2480.748	1.323	correct	generate	Run4	generate/STIM_000.jpg
2485.412	0.923	correct	generate	Run4	generate/STIM_001.jpg
2488.631	1.521	correct	generate	Run4	generate/STIM_001.jpg
2492.586	1.24	correct	generate	Run4	generate/STIM_001.jpg
2496.34	0.955	correct	generate	Run4	generate/STIM_001.jpg
2499.47	1.466	correct	generate	Run4	generate/STIM_001.jpg
2503.543	1.178	incorrect	generate	Run4	generate/STIM_002.jpg
2507.715	1.47	correct	generate	Run4	generate/STIM_002.jpg
2512.213	1.694	correct	generate	Run4	generate/STIM_002.jpg
2517.13	1.576	correct	generate	Run4	generate/STIM_002.jpg
2521.883	1.533	correct	generate	Run4	generate/STIM_002.jpg
2526.676	1.49	correct	generate	Run4	generate/STIM_003.jpg
2531.776	1.185	correct	generate	Run4	generate/STIM_003.jpg
2535.365	1.338	correct	generate	Run4	generate/STIM_003.jpg
2538.943	1.409	correct	generate	Run4	generate/STIM_003.jpg
2544.088	1.269	correct	generate	Run4	generate/STIM_003.jpg
2548.457	1.572	correct	generate	Run4	generate/STIM_004.jpg
2553.856	0.897	correct	generate	Run4	generate/STIM_004.jpg
2557.59	1.437	correct	generate	Run4	generate/STIM_004.jpg
2561.166	1.153	correct	generate	Run4	generate/STIM_004.jpg
2565.591	0.826	correct	generate	Run4	generate/STIM_004.jpg
2569.113	1.084	correct	generate	Run4	generate/STIM_005.jpg
2572.294	1.042	correct	generate	Run4	generate/STIM_005.jpg
2576.749	1.223	correct	generate	Run4	generate/STIM_005.jpg
2581.38	1.76	correct	generate	Run4	generate/STIM_005.jpg
2586.693	1.531	correct	generate	Run4	generate/STIM_005.jpg
2591.881	1.278	correct	generate	Run4	generate/STIM_006.jpg
2595.536	0.93	correct	generate	Run4	generate/STIM_006.jpg
2599.184	0.842	correct	generate	Run4	generate/STIM_006.jpg
2603.132	1.659	correct	generate	Run4	generate/STIM_006.jpg
2607.347	1.265	correct	generate	Run4	generate/STIM_006.jpg
2610.844	1.384	correct	generate	Run4	generate/STIM_007.jpg
2614.399	1.044	correct	generate	Run4	generate/STIM_007.jpg
2619.132	1.147	correct	generate	Run4	generate/STIM_007.jpg
2623.592	1.471	correct	generate	Run4	generate/STIM_007.jpg
2628.629	0.906	correct	generate	Run4	generate/STIM_007.jpg
2632.25	1.473	incorrect	generate	Run4	generate/STIM_008.jpg
2636.428	1.53	correct	generate	Run4	generate/STIM_008.jpg
2640.05	1.517	correct	generate	Run4	generate/STIM_008.jpg
2644.526	1.319	incorrect	generate	Run4	generate/STIM_008.jpg
2649.14	0.877	correct	generate	Run4	generate/STIM_008.jpg
2653.068	0.994	correct	generate	Run4	generate/STIM_009.jpg
2656.915	1.102	correct	generate	Run4	generate/STIM_009.jpg
2660.217	1.003	correct	generate	Run4	generate/STIM_009.jpg
2663.485	1.246	correct	generate	Run4	generate/STIM_009.jpg
2667.945	1.157	correct	generate	Run4	generate/STIM_009.jpg
2671.986	1.013	correct	generate	Run4	generate/STIM_010.jpg
2675.822	1.54	correct	generate	Run4	generate/STIM_010.jpg
2680.151	1.431	correct	generate	Run4	generate/STIM_010.jpg
2683.729	1.408	correct	generate	Run4	generate/STIM_010.jpg
2687.231	1.187	correct	generate	Run4	generate/STIM_010.jpg
2690.804	1.139	correct	generate	Run4	generate/STIM_011.jpg
2695.855	1.054	correct	generate	Run4	generate/STIM_011.jpg
2699.147	1.553	correct	generate	Run4	generate/STIM_011.jpg
2703.117	1.475	correct	generate	Run4	generate/STIM_011.jpg
2707.092	1.041	correct	generate	Run4	generate/STIM_011.jpg
2710.403	1.61	correct	generate	Run4	generate/STIM_012.jpg
2715.356	1.099	correct	generate	Run4	generate/STIM_012.jpg
2719.853	1.538	correct	generate	Run4	generate/STIM_012.jpg
2724.43	1.559	correct	generate	Run4	generate/STIM_012.jpg
2729.088	0.988	correct	generate	Run4	generate/STIM_012.jpg
2732.149	1.638	correct	generate	Run4	generate/STIM_013.jpg
2737.319	0.891	incorrect	generate	Run4	generate/STIM_013.jpg
2740.681	1.011	correct	generate	Run4	generate/STIM_013.jpg
2744.124	0.948	correct	generate	Run4	generate/STIM_013.jpg
2747.286	0.955	incorrect	generate	Run4	generate/STIM_013.jpg
2751.969	1.459	correct	generate	Run4	generate/STIM_014.jpg
2755.998	1.308	correct	generate	Run4	generate/STIM_014.jpg
2759.941	1.602	correct	generate	Run4	generate/STIM_014.jpg
2763.755	1.105	correct	generate	Run4	generate/STIM_014.jpg
2767.9	1.305	correct	generate	Run4	generate/STIM_014.jpg
2772.593	1.546	correct	generate	Run4	generate/STIM_015.jpg
2776.362	1.675	correct	generate	Run4	generate/STIM_015.jpg
2780.967	0.821	correct	generate	Run4	generate/STIM_015.jpg
2783.977	0.938	correct	generate	Run4	generate/STIM_015.jpg
2787.954	1.284	correct	generate	Run4	generate/STIM_015.jpg
2792.841	0.732	correct	generate	Run4	generate/STIM_016.jpg
2797.299	1.391	correct	generate	Run4	generate/STIM_016.jpg
2801.725	0.809	correct	generate	Run4	generate/STIM_016.jpg
2806.078	0.859	correct	generate	Run4	generate/STIM_016.jpg
2809.816	0.722	correct	generate	Run4	generate/STIM_016.jpg
2812.836	1.264	correct	generate	Run4	generate/STIM_017.jpg
2816.593	1.339	correct	generate	Run4	generate/STIM_017.jpg
2821.371	1.298	correct	generate	Run4	generate/STIM_017.jpg
2826.069	1.105	correct	generate	Run4	generate/STIM_017.jpg
2829.883	1.608	correct	generate	Run4	generate/STIM_017.jpg
2834.675	1.584	correct	generate	Run4	generate/STIM_018.jpg
2839.007	1.698	correct	generate	Run4	generate/STIM_018.jpg
2842.717	0.94	correct	generate	Run4	generate/STIM_018.jpg
2847.567	1.314	correct	generate	Run4	generate/STIM_018.jpg
2852.872	1.636	correct	generate	Run4	generate/STIM_018.jpg
2857.744	1.002	correct	generate	Run4	generate/STIM_019.jpg
2862.703	0.802	correct	generate	Run4	generate/STIM_019.jpg
2865.806	1.176	correct	generate	Run4	generate/STIM_019.jpg
2869.566	1.626	correct	generate	Run4	generate/STIM_019.jpg
2873.511	0.977	correct	generate	Run4	generate/STIM_019.jpg
2877.103	0.905	correct	generate	Run4	generate/STIM_020.jpg
2880.794	1.068	correct	generate	Run4	generate/STIM_020.jpg
2885.363	1.075	correct	generate	Run4	generate/STIM_020.jpg
2889.99	0.967	correct	generate	Run4	generate/STIM_020.jpg
2893.071	0.836	correct	generate	Run4	generate/STIM_020.jpg
2896.379	0.884	correct	generate	Run4	generate/STIM_021.jpg
2900.642	1.658	correct	generate	Run4	generate/STIM_021.jpg
2905.16	1.44	correct	generate	Run4	generate/STIM_021.jpg
2909.673	1.763	correct	generate	Run4	generate/STIM_021.jpg
2913.626	1.696	correct	generate	Run4	generate/STIM_021.jpg
2919.192	1.089	correct	generate	Run4	generate/STIM_022.jpg
2922.667	1.536	correct	generate	Run4	generate/STIM_022.jpg
2926.457	0.726	correct	generate	Run4	generate/STIM_022.jpg
2931.047	1.163	correct	generate	Run4	generate/STIM_022.jpg
2936.076	1.639	correct	generate	Run4	generate/STIM_022.jpg
2941.349	1.026	correct	generate	Run4	generate/STIM_023.jpg
2946.004	1.267	correct	generate	Run4	generate/STIM_023.jpg
2949.394	0.965	correct	generate	Run4	generate/STIM_023.jpg
2953.719	1.421	correct	generate	Run4	generate/STIM_023.jpg
2959.071	0.767	correct	generate	Run4	generate/STIM_023.jpg
2962.23	0.97	correct	generate	Run4	generate/STIM_024.jpg
2967.141	1.554	correct	generate	Run4	generate/STIM_024.jpg
2971.311	1.35	correct	generate	Run4	generate/STIM_024.jpg
2976.093	1.751	correct	generate	Run4	generate/STIM_024.jpg
2981.584	0.939	correct	generate	Run4	generate/STIM_024.jpg
2986.084	0.727	correct	repeat	Run4	repeat/STIM_000.jpg
2990.264	0.43	correct	repeat	Run4	repeat/STIM_000.jpg
2994.654	0.627	correct	repeat	Run4	repeat/STIM_000.jpg
2998.034	0.43	correct	repeat	Run4	repeat/STIM_000.jpg
3002.307	0.552	correct	repeat	Run4	repeat/STIM_000.jpg
3005.617	0.743	correct	repeat	Run4	repeat/STIM_001.jpg
3010.001	0.838	correct	repeat	Run4	repeat/STIM_001.jpg
3012.843	0.843	correct	repeat	Run4	repeat/STIM_001.jpg
3017.608	0.624	correct	repeat	Run4	repeat/STIM_001.jpg
3021.419	0.844	correct	repeat	Run4	repeat/STIM_001.jpg
3026.219	0.428	correct	repeat	Run4	repeat/STIM_002.jpg
3029.146	0.432	correct	repeat	Run4	repeat/STIM_002.jpg
3033.265	0.682	correct	repeat	Run4	repeat/STIM_002.jpg
3036.506	0.432	correct	repeat	Run4	repeat/STIM_002.jpg
3040.523	0.845	correct	repeat	Run4	repeat/STIM_002.jpg
3043.789	0.791	correct	repeat	Run4	repeat/STIM_003.jpg
3048.119	0.571	correct	repeat	Run4	repeat/STIM_003.jpg
3052.42	0.68	correct	repeat	Run4	repeat/STIM_003.jpg
3055.262	0.671	correct	repeat	Run4	repeat/STIM_003.jpg
3059.602	0.699	correct	repeat	Run4	repeat/STIM_003.jpg
3062.36	0.693	correct	repeat	Run4	repeat/STIM_004.jpg
3066.62	0.831	incorrect	repeat	Run4	repeat/STIM_004.jpg
3071.329	0.645	correct	repeat	Run4	repeat/STIM_004.jpg
3074.073	0.721	correct	repeat	Run4	repeat/STIM_004.jpg
3078.685	0.432	correct	repeat	Run4	repeat/STIM_004.jpg
3082.392	0.572	correct	repeat	Run4	repeat/STIM_005.jpg
3086.836	0.571	correct	repeat	Run4	repeat/STIM_005.jpg
3091.046	0.645	correct	repeat	Run4	repeat/STIM_005.jpg
3095.167	0.461	correct	repeat	Run4	repeat/STIM_005.jpg
3099.628	0.5	correct	repeat	Run4	repeat/STIM_005.jpg
3103.71	0.519	correct	repeat	Run4	repeat/STIM_006.jpg
3106.845	0.554	correct	repeat	Run4	repeat/STIM_006.jpg
3109.592	0.76	correct	repeat	Run4	repeat/STIM_006.jpg
3113.999	0.849	correct	repeat	Run4	repeat/STIM_006.jpg
3117.846	0.821	correct	repeat	Run4	repeat/STIM_006.jpg
3122.499	0.803	correct	repeat	Run4	repeat/STIM_007.jpg
3125.518	0.674	correct	repeat	Run4	repeat/STIM_007.jpg
3129.128	0.462	correct	repeat	Run4	repeat/STIM_007.jpg
3132.232	0.455	incorrect	repeat	Run4	repeat/STIM_007.jpg
3134.985	0.671	correct	repeat	Run4	repeat/STIM_007.jpg
3138.416	0.667	correct	repeat	Run4	repeat/STIM_008.jpg
3143.018	0.849	correct	repeat	Run4	repeat/STIM_008.jpg
3146.124	0.734	correct	repeat	Run4	repeat/STIM_008.jpg
3149.47	0.577	correct	repeat	Run4	repeat/STIM_008.jpg
3153.989	0.714	correct	repeat	Run4	repeat/STIM_008.jpg
3157.788	0.724	correct	repeat	Run4	repeat/STIM_009.jpg
3162.36	0.436	correct	repeat	Run4	repeat/STIM_009.jpg
3166.129	0.718	correct	repeat	Run4	repeat/STIM_009.jpg
3169.607	0.634	correct	repeat	Run4	repeat/STIM_009.jpg
3174.234	0.84	correct	repeat	Run4	repeat/STIM_009.jpg
3178.369	0.505	correct	repeat	Run4	repeat/STIM_010.jpg
3181.604	0.599	correct	repeat	Run4	repeat/STIM_010.jpg
3184.452	0.545	correct	repeat	Run4	repeat/STIM_010.jpg
3188.05	0.512	correct	repeat	Run4	repeat/STIM_010.jpg
3191.8	0.449	correct	repeat	Run4	repeat/STIM_010.jpg
3194.624	0.812	correct	repeat	Run4	repeat/STIM_011.jpg
3197.444	0.717	correct	repeat	Run4	repeat/STIM_011.jpg
3200.35	0.752	correct	repeat	Run4	repeat/STIM_011.jpg
3203.762	0.562	correct	repeat	Run4	repeat/STIM_011.jpg
3207.671	0.782	correct	repeat	Run4	repeat/STIM_011.jpg
3211.751	0.737	correct	repeat	Run4	repeat/STIM_012.jpg
3215.068	0.519	incorrect	repeat	Run4	repeat/STIM_012.jpg
3217.949	0.842	correct	repeat	Run4	repeat/STIM_012.jpg
3221.115	0.711	correct	repeat	Run4	repeat/STIM_012.jpg
3224.609	0.656	correct	repeat	Run4	repeat/STIM_012.jpg
3227.786	0.59	correct	repeat	Run4	repeat/STIM_013.jpg
3231.466	0.574	correct	repeat	Run4	repeat/STIM_013.jpg
3234.508	0.555	correct	repeat	Run4	repeat/STIM_013.jpg
3238.836	0.746	correct	repeat	Run4	repeat/STIM_013.jpg
3242.033	0.47	correct	repeat	Run4	repeat/STIM_013.jpg
3245.429	0.454	correct	repeat	Run4	repeat/STIM_014.jpg
3249.273	0.469	correct	repeat	Run4	repeat/STIM_014.jpg
3252.281	0.693	incorrect	repeat	Run4	repeat/STIM_014.jpg
3256.285	0.478	correct	repeat	Run4	repeat/STIM_014.jpg
3260.432	0.657	correct	repeat	Run4	repeat/STIM_014.jpg
