onset	duration	accuracy_binary	trial_type	learning_stage	stimulus
0.0	2.218	1	generate	Run1	generate/STIM_000.jpg
5.421	2.333	0	generate	Run1	generate/STIM_000.jpg
11.679	1.972	1	generate	Run1	generate/STIM_000.jpg
15.687	1.091	1	generate	Run1	generate/STIM_000.jpg
19.765	1.044	0	generate	Run1	generate/STIM_000.jpg
24.677	1.388	0	generate	Run1	generate/STIM_001.jpg
29.582	2.123	1	generate	Run1	generate/STIM_001.jpg
35.007	1.955	1	generate	Run1	generate/STIM_001.jpg
38.969	1.224	1	generate	Run1	generate/STIM_001.jpg
43.258	1.794	1	generate	Run1	generate/STIM_001.jpg
48.018	2.401	1	generate	Run1	generate/STIM_002.jpg
52.646	2.327	1	generate	Run1	generate/STIM_002.jpg
58.207	1.643	1	generate	Run1	generate/STIM_002.jpg
63.405	1.754	1	generate	Run1	generate/STIM_002.jpg
67.851	1.555	1	generate	Run1	generate/STIM_002.jpg
72.335	2.486	1	generate	Run1	generate/STIM_003.jpg
78.732	2.296	1	generate	Run1	generate/STIM_003.jpg
83.407	2.083	1	generate	Run1	generate/STIM_003.jpg
87.654	1.329	1	generate	Run1	generate/STIM_003.jpg
92.276	1.952	1	generate	Run1	generate/STIM_003.jpg
98.199	1.256	1	generate	Run1	generate/STIM_004.jpg
102.725	1.289	1	generate	Run1	generate/STIM_004.jpg
107.224	0.927	1	generate	Run1	generate/STIM_004.jpg
112.07	1.563	0	generate	Run1	generate/STIM_004.jpg
116.519	0.912	0	generate	Run1	generate/STIM_004.jpg
119.777	1.941	1	generate	Run1	generate/STIM_005.jpg
124.431	1.117	1	generate	Run1	generate/STIM_005.jpg
127.556	2.039	1	generate	Run1	generate/STIM_005.jpg
133.241	1.982	1	generate	Run1	generate/STIM_005.jpg
138.533	1.023	1	generate	Run1	generate/STIM_005.jpg
141.905	1.425	1	generate	Run1	generate/STIM_006.jpg
146.976	1.613	0	generate	Run1	generate/STIM_006.jpg
152.121	1.148	0	generate	Run1	generate/STIM_006.jpg
156.398	1.572	1	generate	Run1	generate/STIM_006.jpg
160.715	1.659	1	generate	Run1	generate/STIM_006.jpg
164.423	1.912	1	generate	Run1	generate/STIM_007.jpg
168.41	1.406	1	generate	Run1	generate/STIM_007.jpg
172.056	1.49	1	generate	Run1	generate/STIM_007.jpg
177.008	1.494	1	generate	Run1	generate/STIM_007.jpg
181.844	0.824	1	generate	Run1	generate/STIM_007.jpg
186.122	1.438	1	generate	Run1	generate/STIM_008.jpg
191.397	1.38	1	generate	Run1	generate/STIM_008.jpg
195.591	1.71	1	generate	Run1	generate/STIM_008.jpg
199.822	1.549	1	generate	Run1	generate/STIM_008.jpg
203.443	1.378	1	generate	Run1	generate/STIM_008.jpg
207.204	1.541	1	generate	Run1	generate/STIM_009.jpg
211.759	1.657	1	generate	Run1	generate/STIM_009.jpg
217.047	0.993	1	generate	Run1	generate/STIM_009.jpg
221.262	1.123	1	generate	Run1	generate/STIM_009.jpg
225.863	0.941	1	generate	Run1	generate/STIM_009.jpg
230.271	1.788	1	generate	Run1	generate/STIM_010.jpg
235.682	1.734	0	generate	Run1	generate/STIM_010.jpg
239.771	2.251	1	generate	Run1	generate/STIM_010.jpg
245.151	1.956	1	generate	Run1	generate/STIM_010.jpg
250.891	0.867	1	generate	Run1	generate/STIM_010.jpg
253.86	2.094	1	generate	Run1	generate/STIM_011.jpg
259.559	1.086	0	generate	Run1	generate/STIM_011.jpg
263.945	1.729	0	generate	Run1	generate/STIM_011.jpg
268.476	1.991	1	generate	Run1	generate/STIM_011.jpg
273.314	1.758	1	generate	Run1	generate/STIM_011.jpg
278.171	2.494	0	generate	Run1	generate/STIM_012.jpg
284.015	1.748	1	generate	Run1	generate/STIM_012.jpg
287.969	2.258	1	generate	Run1	generate/STIM_012.jpg
293.566	1.428	0	generate	Run1	generate/STIM_012.jpg
297.16	0.974	1	generate	Run1	generate/STIM_012.jpg
301.545	1.33	1	generate	Run1	generate/STIM_013.jpg
306.698	1.993	1	generate	Run1	generate/STIM_013.jpg
311.644	2.28	1	generate	Run1	generate/STIM_013.jpg
316.809	1.845	1	generate	Run1	generate/STIM_013.jpg
321.262	0.958	0	generate	Run1	generate/STIM_013.jpg
325.515	2.417	1	generate	Run1	generate/STIM_014.jpg
329.953	1.645	0	generate	Run1	generate/STIM_014.jpg
334.177	1.211	1	generate	Run1	generate/STIM_014.jpg
337.888	1.58	1	generate	Run1	generate/STIM_014.jpg
342.166	1.083	1	generate	Run1	generate/STIM_014.jpg
346.911	1.604	0	generate	Run1	generate/STIM_015.jpg
351.234	1.581	0	generate	Run1	generate/STIM_015.jpg
355.463	1.275	1	generate	Run1	generate/STIM_015.jpg
360.31	1.501	1	generate	Run1	generate/STIM_015.jpg
364.774	2.03	1	generate	Run1	generate/STIM_015.jpg
370.513	1.426	0	generate	Run1	generate/STIM_016.jpg
374.383	2.032	0	generate	Run1	generate/STIM_016.jpg
379.475	1.012	1	generate	Run1	generate/STIM_016.jpg
383.373	1.066	1	generate	Run1	generate/STIM_016.jpg
388.244	0.961	1	generate	Run1	generate/STIM_016.jpg
391.867	1.913	1	generate	Run1	generate/STIM_017.jpg
397.74	1.989	1	generate	Run1	generate/STIM_017.jpg
402.517	1.476	1	generate	Run1	generate/STIM_017.jpg
406.266	1.664	0	generate	Run1	generate/STIM_017.jpg
410.657	1.83	1	generate	Run1	generate/STIM_017.jpg
416.249	2.236	1	generate	Run1	generate/STIM_018.jpg
421.176	1.639	0	generate	Run1	generate/STIM_018.jpg
425.654	2.191	0	generate	Run1	generate/STIM_018.jpg
430.377	1.284	1	generate	Run1	generate/STIM_018.jpg
435.229	1.194	1	generate	Run1	generate/STIM_018.jpg
439.981	2.249	1	generate	Run1	generate/STIM_019.jpg
445.372	2.096	1	generate	Run1	generate/STIM_019.jpg
449.841	1.485	1	generate	Run1	generate/STIM_019.jpg
455.323	1.062	1	generate	Run1	generate/STIM_019.jpg
458.641	1.392	1	generate	Run1	generate/STIM_019.jpg
462.078	1.685	1	generate	Run1	generate/STIM_020.jpg
465.899	2.268	1	generate	Run1	generate/STIM_020.jpg
471.89	1.528	1	generate	Run1	generate/STIM_020.jpg
475.718	1.305	1	generate	Run1	generate/STIM_020.jpg
480.973	1.701	1	generate	Run1	generate/STIM_020.jpg
484.694	2.421	1	generate	Run1	generate/STIM_021.jpg
490.699	2.404	1	generate	Run1	generate/STIM_021.jpg
495.822	1.89	1	generate	Run1	generate/STIM_021.jpg
501.355	1.731	0	generate	Run1	generate/STIM_021.jpg
505.671	1.287	1	generate	Run1	generate/STIM_021.jpg
510.066	1.237	1	generate	Run1	generate/STIM_022.jpg
515.086	2.275	1	generate	Run1	generate/STIM_022.jpg
519.865	2.182	0	generate	Run1	generate/STIM_022.jpg
525.804	0.957	1	generate	Run1	generate/STIM_022.jpg
529.468	1.038	1	generate	Run1	generate/STIM_022.jpg
532.936	1.036	1	generate	Run1	generate/STIM_023.jpg
537.497	1.146	1	generate	Run1	generate/STIM_023.jpg
541.409	1.19	1	generate	Run1	generate/STIM_023.jpg
546.359	1.475	0	generate	Run1	generate/STIM_023.jpg
551.809	1.217	1	generate	Run1	generate/STIM_023.jpg
556.48	1.462	1	generate	Run1	generate/STIM_024.jpg
560.004	1.086	1	generate	Run1	generate/STIM_024.jpg
563.628	1.115	1	generate	Run1	generate/STIM_024.jpg
568.447	1.116	1	generate	Run1	generate/STIM_024.jpg
572.422	1.673	1	generate	Run1	generate/STIM_024.jpg
577.036	0.706	1	repeat	Run1	repeat/STIM_000.jpg
581.047	0.617	1	repeat	Run1	repeat/STIM_000.jpg
583.722	0.799	1	repeat	Run1	repeat/STIM_000.jpg
587.781	0.736	1	repeat	Run1	repeat/STIM_000.jpg
591.311	0.429	1	repeat	Run1	repeat/STIM_000.jpg
595.678	0.617	1	repeat	Run1	repeat/STIM_001.jpg
600.19	0.508	1	repeat	Run1	repeat/STIM_001.jpg
603.216	0.593	1	repeat	Run1	repeat/STIM_001.jpg
606.29	0.441	1	repeat	Run1	repeat/STIM_001.jpg
609.706	0.766	1	repeat	Run1	repeat/STIM_001.jpg
613.062	0.458	1	repeat	Run1	repeat/STIM_002.jpg
617.378	0.565	1	repeat	Run1	repeat/STIM_002.jpg
621.398	0.806	1	repeat	Run1	repeat/STIM_002.jpg
624.44	0.614	1	repeat	Run1	repeat/STIM_002.jpg
627.134	0.798	1	repeat	Run1	repeat/STIM_002.jpg
630.216	0.506	1	repeat	Run1	repeat/STIM_003.jpg
632.778	0.491	1	repeat	Run1	repeat/STIM_003.jpg
635.582	0.652	1	repeat	Run1	repeat/STIM_003.jpg
638.597	0.451	1	repeat	Run1	repeat/STIM_003.jpg
641.769	0.588	1	repeat	Run1	repeat/STIM_003.jpg
646.012	0.58	1	repeat	Run1	repeat/STIM_004.jpg
648.645	0.637	1	repeat	Run1	repeat/STIM_004.jpg
653.056	0.457	1	repeat	Run1	repeat/STIM_004.jpg
656.704	0.589	1	repeat	Run1	repeat/STIM_004.jpg
659.86	0.775	1	repeat	Run1	repeat/STIM_004.jpg
663.594	0.846	1	repeat	Run1	repeat/STIM_005.jpg
668.193	0.427	1	repeat	Run1	repeat/STIM_005.jpg
670.779	0.843	1	repeat	Run1	repeat/STIM_005.jpg
675.34	0.688	1	repeat	Run1	repeat/STIM_005.jpg
678.644	0.812	1	repeat	Run1	repeat/STIM_005.jpg
681.71	0.742	1	repeat	Run1	repeat/STIM_006.jpg
685.289	0.682	1	repeat	Run1	repeat/STIM_006.jpg
689.689	0.52	1	repeat	Run1	repeat/STIM_006.jpg
692.375	0.474	1	repeat	Run1	repeat/STIM_006.jpg
696.723	0.646	1	repeat	Run1	repeat/STIM_006.jpg
700.264	0.549	1	repeat	Run1	repeat/STIM_007.jpg
703.222	0.53	1	repeat	Run1	repeat/STIM_007.jpg
706.833	0.608	1	repeat	Run1	repeat/STIM_007.jpg
710.519	0.484	1	repeat	Run1	repeat/STIM_007.jpg
713.116	0.8	1	repeat	Run1	repeat/STIM_007.jpg
717.197	0.568	1	repeat	Run1	repeat/STIM_008.jpg
721.452	0.516	1	repeat	Run1	repeat/STIM_008.jpg
724.807	0.7	1	repeat	Run1	repeat/STIM_008.jpg
728.153	0.636	1	repeat	Run1	repeat/STIM_008.jpg
732.568	0.804	1	repeat	Run1	repeat/STIM_008.jpg
735.409	0.433	1	repeat	Run1	repeat/STIM_009.jpg
738.807	0.792	1	repeat	Run1	repeat/STIM_009.jpg
742.785	0.678	1	repeat	Run1	repeat/STIM_009.jpg
745.677	0.829	1	repeat	Run1	repeat/STIM_009.jpg
750.076	0.577	1	repeat	Run1	repeat/STIM_009.jpg
753.254	0.514	1	repeat	Run1	repeat/STIM_010.jpg
757.695	0.453	1	repeat	Run1	repeat/STIM_010.jpg
760.741	0.432	1	repeat	Run1	repeat/STIM_010.jpg
764.097	0.646	1	repeat	Run1	repeat/STIM_010.jpg
768.631	0.667	1	repeat	Run1	repeat/STIM_010.jpg
773.11	0.838	1	repeat	Run1	repeat/STIM_011.jpg
777.075	0.476	1	repeat	Run1	repeat/STIM_011.jpg
781.25	0.67	1	repeat	Run1	repeat/STIM_011.jpg
784.85	0.822	1	repeat	Run1	repeat/STIM_011.jpg
787.966	0.822	1	repeat	Run1	repeat/STIM_011.jpg
791.88	0.648	0	repeat	Run1	repeat/STIM_012.jpg
795.518	0.614	1	repeat	Run1	repeat/STIM_012.jpg
798.315	0.567	1	repeat	Run1	repeat/STIM_012.jpg
801.669	0.565	1	repeat	Run1	repeat/STIM_012.jpg
805.485	0.606	1	repeat	Run1	repeat/STIM_012.jpg
809.946	0.794	1	repeat	Run1	repeat/STIM_013.jpg
814.326	0.539	1	repeat	Run1	repeat/STIM_013.jpg
817.518	0.686	1	repeat	Run1	repeat/STIM_013.jpg
820.288	0.489	1	repeat	Run1	repeat/STIM_013.jpg
822.806	0.849	1	repeat	Run1	repeat/STIM_013.jpg
825.818	0.635	1	repeat	Run1	repeat/STIM_014.jpg
829.594	0.57	1	repeat	Run1	repeat/STIM_014.jpg
832.944	0.647	1	repeat	Run1	repeat/STIM_014.jpg
835.815	0.754	1	repeat	Run1	repeat/STIM_014.jpg
840.515	0.639	1	repeat	Run1	repeat/STIM_014.jpg
843.552	1.644	1	generate	Run2	generate/STIM_000.jpg
848.423	1.646	1	generate	Run2	generate/STIM_000.jpg
853.33	1.489	0	generate	Run2	generate/STIM_000.jpg
856.938	1.302	1	generate	Run2	generate/STIM_000.jpg
860.966	1.435	1	generate	Run2	generate/STIM_000.jpg
864.96	1.53	0	generate	Run2	generate/STIM_001.jpg
870.292	1.341	1	generate	Run2	generate/STIM_001.jpg
874.389	0.912	0	generate	Run2	generate/STIM_001.jpg
879.115	1.318	1	generate	Run2	generate/STIM_001.jpg
883.36	1.404	1	generate	Run2	generate/STIM_001.jpg
886.847	1.139	1	generate	Run2	generate/STIM_002.jpg
891.968	1.341	1	generate	Run2	generate/STIM_002.jpg
896.806	1.443	1	generate	Run2	generate/STIM_002.jpg
901.887	0.774	1	generate	Run2	generate/STIM_002.jpg
906.127	0.819	1	generate	Run2	generate/STIM_002.jpg
908.983	1.448	0	generate	Run2	generate/STIM_003.jpg
913.938	1.034	1	generate	Run2	generate/STIM_003.jpg
918.749	0.778	0	generate	Run2	generate/STIM_003.jpg
922.391	1.371	0	generate	Run2	generate/STIM_003.jpg
926.481	1.154	1	generate	Run2	generate/STIM_003.jpg
930.568	1.479	1	generate	Run2	generate/STIM_004.jpg
934.206	1.409	1	generate	Run2	generate/STIM_004.jpg
938.501	0.959	1	generate	Run2	generate/STIM_004.jpg
942.511	0.844	1	generate	Run2	generate/STIM_004.jpg
945.571	1.727	1	generate	Run2	generate/STIM_004.jpg
949.944	1.307	0	generate	Run2	generate/STIM_005.jpg
953.868	0.978	1	generate	Run2	generate/STIM_005.jpg
958.797	1.701	1	generate	Run2	generate/STIM_005.jpg
962.697	1.456	1	generate	Run2	generate/STIM_005.jpg
967.47	1.022	1	generate	Run2	generate/STIM_005.jpg
970.912	1.783	1	generate	Run2	generate/STIM_006.jpg
975.139	2.021	1	generate	Run2	generate/STIM_006.jpg
980.415	1.452	1	generate	Run2	generate/STIM_006.jpg
983.908	1.233	1	generate	Run2	generate/STIM_006.jpg
988.504	1.022	1	generate	Run2	generate/STIM_006.jpg
991.583	2.11	1	generate	Run2	generate/STIM_007.jpg
996.394	1.593	1	generate	Run2	generate/STIM_007.jpg
1000.203	0.782	1	generate	Run2	generate/STIM_007.jpg
1004.604	1.273	1	generate	Run2	generate/STIM_007.jpg
1008.3	0.918	0	generate	Run2	generate/STIM_007.jpg
1011.838	1.296	1	generate	Run2	generate/STIM_008.jpg
1015.922	1.259	1	generate	Run2	generate/STIM_008.jpg
1019.824	1.774	1	generate	Run2	generate/STIM_008.jpg
1025.207	1.243	1	generate	Run2	generate/STIM_008.jpg
1029.653	1.079	1	generate	Run2	generate/STIM_008.jpg
1034.28	1.011	1	generate	Run2	generate/STIM_009.jpg
1038.404	1.223	1	generate	Run2	generate/STIM_009.jpg
1042.449	1.377	1	generate	Run2	generate/STIM_009.jpg
1047.782	0.893	1	generate	Run2	generate/STIM_009.jpg
1051.143	1.254	1	generate	Run2	generate/STIM_009.jpg
1055.509	1.504	0	generate	Run2	generate/STIM_010.jpg
1059.894	1.89	1	generate	Run2	generate/STIM_010.jpg
1064.953	0.97	1	generate	Run2	generate/STIM_010.jpg
1067.999	0.737	0	generate	Run2	generate/STIM_010.jpg
1071.743	1.281	0	generate	Run2	generate/STIM_010.jpg
1075.743	2.085	1	generate	Run2	generate/STIM_011.jpg
1080.545	0.892	1	generate	Run2	generate/STIM_011.jpg
1083.752	1.056	1	generate	Run2	generate/STIM_011.jpg
1087.559	1.763	1	generate	Run2	generate/STIM_011.jpg
1092.387	1.514	1	generate	Run2	generate/STIM_011.jpg
1097.764	1.969	1	generate	Run2	generate/STIM_012.jpg
1103.622	1.194	1	generate	Run2	generate/STIM_012.jpg
1107.259	1.72	1	generate	Run2	generate/STIM_012.jpg
1111.0	1.786	1	generate	Run2	generate/STIM_012.jpg
1114.873	0.797	1	generate	Run2	generate/STIM_012.jpg
1118.905	1.657	1	generate	Run2	generate/STIM_013.jpg
1123.309	0.898	1	generate	Run2	generate/STIM_013.jpg
1127.005	1.9	1	generate	Run2	generate/STIM_013.jpg
1132.416	1.055	1	generate	Run2	generate/STIM_013.jpg
1137.101	0.802	1	generate	Run2	generate/STIM_013.jpg
1141.609	1.276	1	generate	Run2	generate/STIM_014.jpg
1146.162	1.58	0	generate	Run2	generate/STIM_014.jpg
1150.082	0.956	1	generate	Run2	generate/STIM_014.jpg
1154.312	1.423	0	generate	Run2	generate/STIM_014.jpg
1159.145	1.571	1	generate	Run2	generate/STIM_014.jpg
1163.807	2.098	0	generate	Run2	generate/STIM_015.jpg
1168.668	1.973	1	generate	Run2	generate/STIM_015.jpg
1173.187	1.871	1	generate	Run2	generate/STIM_015.jpg
1178.006	1.399	1	generate	Run2	generate/STIM_015.jpg
1183.09	1.469	1	generate	Run2	generate/STIM_015.jpg
1186.675	1.169	1	generate	Run2	generate/STIM_016.jpg
1191.84	1.871	1	generate	Run2	generate/STIM_016.jpg
1196.941	1.632	1	generate	Run2	generate/STIM_016.jpg
1201.508	1.184	1	generate	Run2	generate/STIM_016.jpg
1205.148	1.502	1	generate	Run2	generate/STIM_016.jpg
1210.553	0.963	1	generate	Run2	generate/STIM_017.jpg
1214.315	1.218	1	generate	Run2	generate/STIM_017.jpg
1218.901	1.914	0	generate	Run2	generate/STIM_017.jpg
1224.632	1.739	1	generate	Run2	generate/STIM_017.jpg
1229.154	1.085	0	generate	Run2	generate/STIM_017.jpg
1232.394	1.635	0	generate	Run2	generate/STIM_018.jpg
1237.79	1.67	1	generate	Run2	generate/STIM_018.jpg
1243.401	1.116	1	generate	Run2	generate/STIM_018.jpg
1247.035	1.0	1	generate	Run2	generate/STIM_018.jpg
1250.799	1.518	1	generate	Run2	generate/STIM_018.jpg
1256.208	1.123	1	generate	Run2	generate/STIM_019.jpg
1260.149	1.228	1	generate	Run2	generate/STIM_019.jpg
1263.435	1.558	1	generate	Run2	generate/STIM_019.jpg
1267.921	1.699	1	generate	Run2	generate/STIM_019.jpg
1272.425	1.423	1	generate	Run2	generate/STIM_019.jpg
1277.3	1.028	1	generate	Run2	generate/STIM_020.jpg
1281.715	1.515	0	generate	Run2	generate/STIM_020.jpg
1287.16	1.396	1	generate	Run2	generate/STIM_020.jpg
1291.266	1.731	1	generate	Run2	generate/STIM_020.jpg
1296.366	1.097	1	generate	Run2	generate/STIM_020.jpg
1301.008	1.306	0	generate	Run2	generate/STIM_021.jpg
1304.883	0.971	1	generate	Run2	generate/STIM_021.jpg
1308.507	1.326	1	generate	Run2	generate/STIM_021.jpg
1313.148	1.313	0	generate	Run2	generate/STIM_021.jpg
1316.624	1.69	1	generate	Run2	generate/STIM_021.jpg
1320.914	2.124	1	generate	Run2	generate/STIM_022.jpg
1325.326	0.825	1	generate	Run2	generate/STIM_022.jpg
1329.322	1.474	1	generate	Run2	generate/STIM_022.jpg
1333.478	0.841	1	generate	Run2	generate/STIM_022.jpg
1337.062	1.271	1	generate	Run2	generate/STIM_022.jpg
1341.962	0.965	1	generate	Run2	generate/STIM_023.jpg
1346.475	1.614	1	generate	Run2	generate/STIM_023.jpg
1351.313	1.184	1	generate	Run2	generate/STIM_023.jpg
1356.123	1.223	1	generate	Run2	generate/STIM_023.jpg
1360.948	0.883	1	generate	Run2	generate/STIM_023.jpg
1365.447	1.647	0	generate	Run2	generate/STIM_024.jpg
1369.538	0.865	1	generate	Run2	generate/STIM_024.jpg
1372.533	1.653	1	generate	Run2	generate/STIM_024.jpg
1376.708	0.859	1	generate	Run2	generate/STIM_024.jpg
1380.016	0.762	1	generate	Run2	generate/STIM_024.jpg
1383.051	0.659	1	repeat	Run2	repeat/STIM_000.jpg
1386.966	0.694	1	repeat	Run2	repeat/STIM_000.jpg
1390.115	0.491	1	repeat	Run2	repeat/STIM_000.jpg
1392.876	0.77	1	repeat	Run2	repeat/STIM_000.jpg
1396.677	0.551	1	repeat	Run2	repeat/STIM_000.jpg
1401.163	0.483	1	repeat	Run2	repeat/STIM_001.jpg
1404.898	0.43	1	repeat	Run2	repeat/STIM_001.jpg
1407.357	0.839	1	repeat	Run2	repeat/STIM_001.jpg
1411.017	0.456	1	repeat	Run2	repeat/STIM_001.jpg
1415.039	0.692	1	repeat	Run2	repeat/STIM_001.jpg
1418.669	0.755	1	repeat	Run2	repeat/STIM_002.jpg
1422.511	0.734	1	repeat	Run2	repeat/STIM_002.jpg
1427.045	0.735	1	repeat	Run2	repeat/STIM_002.jpg
1430.441	0.679	1	repeat	Run2	repeat/STIM_002.jpg
1433.884	0.534	1	repeat	Run2	repeat/STIM_002.jpg
1437.89	0.428	1	repeat	Run2	repeat/STIM_003.jpg
1442.012	0.689	1	repeat	Run2	repeat/STIM_003.jpg
1444.892	0.643	1	repeat	Run2	repeat/STIM_003.jpg
1449.244	0.605	1	repeat	Run2	repeat/STIM_003.jpg
1453.112	0.728	1	repeat	Run2	repeat/STIM_003.jpg
1456.289	0.66	1	repeat	Run2	repeat/STIM_004.jpg
1459.24	0.685	1	repeat	Run2	repeat/STIM_004.jpg
1463.791	0.738	1	repeat	Run2	repeat/STIM_004.jpg
1467.17	0.52	1	repeat	Run2	repeat/STIM_004.jpg
1471.455	0.436	1	repeat	Run2	repeat/STIM_004.jpg
1474.041	0.685	1	repeat	Run2	repeat/STIM_005.jpg
1476.877	0.574	1	repeat	Run2	repeat/STIM_005.jpg
1480.062	0.671	1	repeat	Run2	repeat/STIM_005.jpg
1483.411	0.6	1	repeat	Run2	repeat/STIM_005.jpg
1486.505	0.85	1	repeat	Run2	repeat/STIM_005.jpg
1489.685	0.648	1	repeat	Run2	repeat/STIM_006.jpg
1492.839	0.505	1	repeat	Run2	repeat/STIM_006.jpg
1495.836	0.748	1	repeat	Run2	repeat/STIM_006.jpg
1499.208	0.636	1	repeat	Run2	repeat/STIM_006.jpg
1503.407	0.671	1	repeat	Run2	repeat/STIM_006.jpg
1506.242	0.506	1	repeat	Run2	repeat/STIM_007.jpg
1509.914	0.554	1	repeat	Run2	repeat/STIM_007.jpg
1512.723	0.666	1	repeat	Run2	repeat/STIM_007.jpg
1515.9	0.646	1	repeat	Run2	repeat/STIM_007.jpg
1518.556	0.565	1	repeat	Run2	repeat/STIM_007.jpg
1521.846	0.682	1	repeat	Run2	repeat/STIM_008.jpg
1526.443	0.604	1	repeat	Run2	repeat/STIM_008.jpg
1530.943	0.556	1	repeat	Run2	repeat/STIM_008.jpg
1533.545	0.744	0	repeat	Run2	repeat/STIM_008.jpg
1538.163	0.535	1	repeat	Run2	repeat/STIM_008.jpg
1542.02	0.588	1	repeat	Run2	repeat/STIM_009.jpg
1545.863	0.484	1	repeat	Run2	repeat/STIM_009.jpg
1549.159	0.63	1	repeat	Run2	repeat/STIM_009.jpg
1552.885	0.591	1	repeat	Run2	repeat/STIM_009.jpg
1555.537	0.519	1	repeat	Run2	repeat/STIM_009.jpg
1558.218	0.665	1	repeat	Run2	repeat/STIM_010.jpg
1562.718	0.831	1	repeat	Run2	repeat/STIM_010.jpg
1566.747	0.516	1	repeat	Run2	repeat/STIM_010.jpg
1570.57	0.826	1	repeat	Run2	repeat/STIM_010.jpg
1574.214	0.757	1	repeat	Run2	repeat/STIM_010.jpg
1577.717	0.556	1	repeat	Run2	repeat/STIM_011.jpg
1581.787	0.502	1	repeat	Run2	repeat/STIM_011.jpg
1585.442	0.56	1	repeat	Run2	repeat/STIM_011.jpg
1589.589	0.614	0	repeat	Run2	repeat/STIM_011.jpg
1594.095	0.687	1	repeat	Run2	repeat/STIM_011.jpg
1597.791	0.519	1	repeat	Run2	repeat/STIM_012.jpg
1601.946	0.431	1	repeat	Run2	repeat/STIM_012.jpg
1605.75	0.765	1	repeat	Run2	repeat/STIM_012.jpg
1610.491	0.827	1	repeat	Run2	repeat/STIM_012.jpg
1615.275	0.723	1	repeat	Run2	repeat/STIM_012.jpg
1618.44	0.564	1	repeat	Run2	repeat/STIM_013.jpg
1622.009	0.585	1	repeat	Run2	repeat/STIM_013.jpg
1624.645	0.668	1	repeat	Run2	repeat/STIM_013.jpg
1628.095	0.776	1	repeat	Run2	repeat/STIM_013.jpg
1632.047	0.547	1	repeat	Run2	repeat/STIM_013.jpg
1635.572	0.562	1	repeat	Run2	repeat/STIM_014.jpg
1638.516	0.625	1	repeat	Run2	repeat/STIM_014.jpg
1642.118	0.62	1	repeat	Run2	repeat/STIM_014.jpg
1645.374	0.522	1	repeat	Run2	repeat/STIM_014.jpg
1649.72	0.837	1	repeat	Run2	repeat/STIM_014.jpg
1652.718	0.928	1	generate	Run3	generate/STIM_000.jpg
1655.694	1.4	1	generate	Run3	generate/STIM_000.jpg
1660.894	1.067	1	generate	Run3	generate/STIM_000.jpg
1664.664	1.775	1	generate	Run3	generate/STIM_000.jpg
1670.408	0.851	1	generate	Run3	generate/STIM_000.jpg
1674.52	0.885	0	generate	Run3	generate/STIM_001.jpg
1678.042	1.261	0	generate	Run3	generate/STIM_001.jpg
1683.215	1.496	1	generate	Run3	generate/STIM_001.jpg
1687.371	1.144	1	generate	Run3	generate/STIM_001.jpg
1692.36	1.222	1	generate	Run3	generate/STIM_001.jpg
1696.374	1.524	0	generate	Run3	generate/STIM_002.jpg
1701.873	1.012	1	generate	Run3	generate/STIM_002.jpg
1705.55	0.892	1	generate	Run3	generate/STIM_002.jpg
1709.003	0.833	1	generate	Run3	generate/STIM_002.jpg
1712.77	1.584	1	generate	Run3	generate/STIM_002.jpg
1717.492	1.335	1	generate	Run3	generate/STIM_003.jpg
1722.709	0.935	1	generate	Run3	generate/STIM_003.jpg
1727.069	1.776	1	generate	Run3	generate/STIM_003.jpg
1732.714	1.424	1	generate	Run3	generate/STIM_003.jpg
1736.369	1.473	1	generate	Run3	generate/STIM_003.jpg
1740.774	1.445	1	generate	Run3	generate/STIM_004.jpg
1745.783	1.528	1	generate	Run3	generate/STIM_004.jpg
1751.226	1.084	1	generate	Run3	generate/STIM_004.jpg
1754.401	1.018	1	generate	Run3	generate/STIM_004.jpg
1757.736	1.611	1	generate	Run3	generate/STIM_004.jpg
1762.268	0.745	1	generate	Run3	generate/STIM_005.jpg
1766.37	1.663	1	generate	Run3	generate/STIM_005.jpg
1771.834	1.116	1	generate	Run3	generate/STIM_005.jpg
1775.169	0.82	1	generate	Run3	generate/STIM_005.jpg
1778.732	0.943	1	generate	Run3	generate/STIM_005.jpg
1783.166	1.454	1	generate	Run3	generate/STIM_006.jpg
1788.172	1.677	1	generate	Run3	generate/STIM_006.jpg
1793.831	0.848	1	generate	Run3	generate/STIM_006.jpg
1796.783	0.863	1	generate	Run3	generate/STIM_006.jpg
1800.668	0.745	1	generate	Run3	generate/STIM_006.jpg
1803.909	1.76	1	generate	Run3	generate/STIM_007.jpg
1808.74	1.678	1	generate	Run3	generate/STIM_007.jpg
1813.263	1.419	1	generate	Run3	generate/STIM_007.jpg
1817.11	1.236	1	generate	Run3	generate/STIM_007.jpg
1821.053	0.772	1	generate	Run3	generate/STIM_007.jpg
1825.237	1.2	1	generate	Run3	generate/STIM_008.jpg
1829.372	1.235	1	generate	Run3	generate/STIM_008.jpg
1833.724	0.93	1	generate	Run3	generate/STIM_008.jpg
1837.501	1.15	1	generate	Run3	generate/STIM_008.jpg
1842.166	0.852	1	generate	Run3	generate/STIM_008.jpg
1846.313	1.135	1	generate	Run3	generate/STIM_009.jpg
1851.312	1.294	1	generate	Run3	generate/STIM_009.jpg
1854.776	0.819	1	generate	Run3	generate/STIM_009.jpg
1858.703	1.295	1	generate	Run3	generate/STIM_009.jpg
1862.917	0.77	1	generate	Run3	generate/STIM_009.jpg
1866.811	1.568	1	generate	Run3	generate/STIM_010.jpg
1872.019	1.607	1	generate	Run3	generate/STIM_010.jpg
1876.121	1.116	1	generate	Run3	generate/STIM_010.jpg
1880.441	1.3	1	generate	Run3	generate/STIM_010.jpg
1884.222	1.641	1	generate	Run3	generate/STIM_010.jpg
1888.22	0.972	1	generate	Run3	generate/STIM_011.jpg
1892.692	1.028	1	generate	Run3	generate/STIM_011.jpg
1896.828	1.038	1	generate	Run3	generate/STIM_011.jpg
1900.352	0.917	0	generate	Run3	generate/STIM_011.jpg
1903.582	1.058	1	generate	Run3	generate/STIM_011.jpg
1906.913	1.169	1	generate	Run3	generate/STIM_012.jpg
1911.372	1.62	1	generate	Run3	generate/STIM_012.jpg
1916.1	1.703	1	generate	Run3	generate/STIM_012.jpg
1921.468	0.993	1	generate	Run3	generate/STIM_012.jpg
1925.667	1.46	1	generate	Run3	generate/STIM_012.jpg
1930.567	1.096	1	generate	Run3	generate/STIM_013.jpg
1933.784	1.77	1	generate	Run3	generate/STIM_013.jpg
1938.222	1.524	1	generate	Run3	generate/STIM_013.jpg
1942.011	1.763	1	generate	Run3	generate/STIM_013.jpg
1946.677	1.654	1	generate	Run3	generate/STIM_013.jpg
1952.308	1.119	1	generate	Run3	generate/STIM_014.jpg
1955.486	0.868	1	generate	Run3	generate/STIM_014.jpg
1959.241	1.656	1	generate	Run3	generate/STIM_014.jpg
1963.943	1.645	1	generate	Run3	generate/STIM_014.jpg
1968.424	1.729	1	generate	Run3	generate/STIM_014.jpg
1973.718	1.636	1	generate	Run3	generate/STIM_015.jpg
1978.359	0.925	1	generate	Run3	generate/STIM_015.jpg
1982.47	0.828	1	generate	Run3	generate/STIM_015.jpg
1986.926	1.436	1	generate	Run3	generate/STIM_015.jpg
1992.191	0.98	1	generate	Run3	generate/STIM_015.jpg
1997.125	1.384	1	generate	Run3	generate/STIM_016.jpg
2001.465	0.88	1	generate	Run3	generate/STIM_016.jpg
2005.531	1.025	1	generate	Run3	generate/STIM_016.jpg
2009.534	0.783	1	generate	Run3	generate/STIM_016.jpg
2013.916	1.288	1	generate	Run3	generate/STIM_016.jpg
2017.998	0.798	1	generate	Run3	generate/STIM_017.jpg
2022.506	1.752	0	generate	Run3	generate/STIM_017.jpg
2026.692	1.518	1	generate	Run3	generate/STIM_017.jpg
2031.551	1.37	1	generate	Run3	generate/STIM_017.jpg
2035.181	0.898	1	generate	Run3	generate/STIM_017.jpg
2038.665	1.557	1	generate	Run3	generate/STIM_018.jpg
2043.196	1.238	1	generate	Run3	generate/STIM_018.jpg
2048.005	0.908	1	generate	Run3	generate/STIM_018.jpg
2052.267	0.844	1	generate	Run3	generate/STIM_018.jpg
2056.345	1.422	1	generate	Run3	generate/STIM_018.jpg
2060.343	0.778	1	generate	Run3	generate/STIM_019.jpg
2063.999	0.79	1	generate	Run3	generate/STIM_019.jpg
2067.355	1.22	1	generate	Run3	generate/STIM_019.jpg
2072.53	1.453	1	generate	Run3	generate/STIM_019.jpg
2076.96	1.143	1	generate	Run3	generate/STIM_019.jpg
2081.488	0.854	1	generate	Run3	generate/STIM_020.jpg
2085.847	1.512	1	generate	Run3	generate/STIM_020.jpg
2090.628	1.349	1	generate	Run3	generate/STIM_020.jpg
2095.134	1.443	0	generate	Run3	generate/STIM_020.jpg
2100.256	0.95	1	generate	Run3	generate/STIM_020.jpg
2104.936	1.03	1	generate	Run3	generate/STIM_021.jpg
2108.632	1.367	1	generate	Run3	generate/STIM_021.jpg
2112.163	1.385	1	generate	Run3	generate/STIM_021.jpg
2117.317	1.683	1	generate	Run3	generate/STIM_021.jpg
2122.664	0.952	1	generate	Run3	generate/STIM_021.jpg
2126.83	0.74	1	generate	Run3	generate/STIM_022.jpg
2130.429	1.265	1	generate	Run3	generate/STIM_022.jpg
2135.019	0.863	1	generate	Run3	generate/STIM_022.jpg
2138.52	1.623	0	generate	Run3	generate/STIM_022.jpg
2144.115	1.093	1	generate	Run3	generate/STIM_022.jpg
2147.471	1.667	1	generate	Run3	generate/STIM_023.jpg
2151.953	1.661	1	generate	Run3	generate/STIM_023.jpg
2157.128	1.142	1	generate	Run3	generate/STIM_023.jpg
2162.201	1.704	1	generate	Run3	generate/STIM_023.jpg
2167.099	1.13	1	generate	Run3	generate/STIM_023.jpg
2170.335	1.75	1	generate	Run3	generate/STIM_024.jpg
2176.032	0.787	1	generate	Run3	generate/STIM_024.jpg
2179.801	1.331	1	generate	Run3	generate/STIM_024.jpg
2184.24	1.675	1	generate	Run3	generate/STIM_024.jpg
2189.844	1.637	0	generate	Run3	generate/STIM_024.jpg
2194.554	0.457	1	repeat	Run3	repeat/STIM_000.jpg
2197.187	0.441	1	repeat	Run3	repeat/STIM_000.jpg
2201.279	0.428	1	repeat	Run3	repeat/STIM_000.jpg
2203.815	0.688	1	repeat	Run3	repeat/STIM_000.jpg
2207.48	0.682	1	repeat	Run3	repeat/STIM_000.jpg
2211.392	0.55	1	repeat	Run3	repeat/STIM_001.jpg
2215.912	0.625	1	repeat	Run3	repeat/STIM_001.jpg
2220.496	0.475	1	repeat	Run3	repeat/STIM_001.jpg
2223.166	0.713	1	repeat	Run3	repeat/STIM_001.jpg
2227.691	0.792	1	repeat	Run3	repeat/STIM_001.jpg
2231.499	0.626	1	repeat	Run3	repeat/STIM_002.jpg
2235.336	0.586	1	repeat	Run3	repeat/STIM_002.jpg
2238.759	0.583	1	repeat	Run3	repeat/STIM_002.jpg
2242.424	0.612	1	repeat	Run3	repeat/STIM_002.jpg
2246.849	0.581	1	repeat	Run3	repeat/STIM_002.jpg
2250.556	0.726	1	repeat	Run3	repeat/STIM_003.jpg
2253.963	0.481	1	repeat	Run3	repeat/STIM_003.jpg
2257.508	0.698	1	repeat	Run3	repeat/STIM_003.jpg
2261.109	0.449	1	repeat	Run3	repeat/STIM_003.jpg
2265.118	0.54	1	repeat	Run3	repeat/STIM_003.jpg
2268.875	0.747	1	repeat	Run3	repeat/STIM_004.jpg
2272.182	0.759	1	repeat	Run3	repeat/STIM_004.jpg
2276.218	0.689	1	repeat	Run3	repeat/STIM_004.jpg
2279.128	0.471	1	repeat	Run3	repeat/STIM_004.jpg
2283.581	0.642	1	repeat	Run3	repeat/STIM_004.jpg
2287.138	0.746	1	repeat	Run3	repeat/STIM_005.jpg
2291.76	0.824	1	repeat	Run3	repeat/STIM_005.jpg
2295.335	0.82	1	repeat	Run3	repeat/STIM_005.jpg
2298.5	0.709	1	repeat	Run3	repeat/STIM_005.jpg
2303.04	0.581	1	repeat	Run3	repeat/STIM_005.jpg
2306.278	0.803	1	repeat	Run3	repeat/STIM_006.jpg
2309.364	0.487	1	repeat	Run3	repeat/STIM_006.jpg
2313.55	0.611	1	repeat	Run3	repeat/STIM_006.jpg
2318.071	0.739	1	repeat	Run3	repeat/STIM_006.jpg
2321.316	0.81	1	repeat	Run3	repeat/STIM_006.jpg
2324.981	0.45	1	repeat	Run3	repeat/STIM_007.jpg
2328.587	0.819	1	repeat	Run3	repeat/STIM_007.jpg
2333.371	0.605	1	repeat	Run3	repeat/STIM_007.jpg
2336.543	0.584	1	repeat	Run3	repeat/STIM_007.jpg
2339.926	0.595	1	repeat	Run3	repeat/STIM_007.jpg
2344.279	0.561	1	repeat	Run3	repeat/STIM_008.jpg
2347.956	0.468	1	repeat	Run3	repeat/STIM_008.jpg
2350.754	0.794	1	repeat	Run3	repeat/STIM_008.jpg
2355.293	0.849	1	repeat	Run3	repeat/STIM_008.jpg
2359.992	0.593	1	repeat	Run3	repeat/STIM_008.jpg
2363.082	0.829	1	repeat	Run3	repeat/STIM_009.jpg
2366.458	0.573	1	repeat	Run3	repeat/STIM_009.jpg
2370.272	0.841	1	repeat	Run3	repeat/STIM_009.jpg
2373.602	0.557	1	repeat	Run3	repeat/STIM_009.jpg
2376.659	0.605	1	repeat	Run3	repeat/STIM_009.jpg
2379.404	0.518	1	repeat	Run3	repeat/STIM_010.jpg
2383.168	0.8	1	repeat	Run3	repeat/STIM_010.jpg
2387.482	0.513	1	repeat	Run3	repeat/STIM_010.jpg
2390.316	0.649	1	repeat	Run3	repeat/STIM_010.jpg
2394.51	0.672	1	repeat	Run3	repeat/STIM_010.jpg
2397.937	0.795	1	repeat	Run3	repeat/STIM_011.jpg
2402.463	0.791	1	repeat	Run3	repeat/STIM_011.jpg
2406.047	0.802	1	repeat	Run3	repeat/STIM_011.jpg
2409.941	0.53	1	repeat	Run3	repeat/STIM_011.jpg
2413.315	0.519	1	repeat	Run3	repeat/STIM_011.jpg
2417.556	0.803	1	repeat	Run3	repeat/STIM_012.jpg
2421.096	0.542	1	repeat	Run3	repeat/STIM_012.jpg
2425.518	0.666	1	repeat	Run3	repeat/STIM_012.jpg
2429.141	0.6	1	repeat	Run3	repeat/STIM_012.jpg
2431.782	0.69	1	repeat	Run3	repeat/STIM_012.jpg
2434.621	0.491	1	repeat	Run3	repeat/STIM_013.jpg
2437.126	0.728	1	repeat	Run3	repeat/STIM_013.jpg
2440.317	0.85	1	repeat	Run3	repeat/STIM_013.jpg
2443.427	0.491	1	repeat	Run3	repeat/STIM_013.jpg
2446.078	0.755	1	repeat	Run3	repeat/STIM_013.jpg
2448.901	0.724	1	repeat	Run3	repeat/STIM_014.jpg
2452.877	0.428	1	repeat	Run3	repeat/STIM_014.jpg
2455.57	0.756	1	repeat	Run3	repeat/STIM_014.jpg
2458.872	0.474	1	repeat	Run3	repeat/STIM_014.jpg
2461.659	0.548	1	repeat	Run3	repeat/STIM_014.jpg
2465.406	0.903	1	generate	Run4	generate/STIM_000.jpg
2469.639	1.398	1	generate	Run4	generate/STIM_000.jpg
2473.055	1.246	1	generate	Run4	generate/STIM_000.jpg
2477.18	0.783	1	generate	Run4	generate/STIM_000.jpg
2480.748	1.323	1	generate	Run4	generate/STIM_000.jpg
2485.412	0.923	1	generate	Run4	generate/STIM_001.jpg
2488.631	1.521	1	generate	Run4	generate/STIM_001.jpg
2492.586	1.24	1	generate	Run4	generate/STIM_001.jpg
2496.34	0.955	1	generate	Run4	generate/STIM_001.jpg
2499.47	1.466	1	generate	Run4	generate/STIM_001.jpg
2503.543	1.178	0	generate	Run4	generate/STIM_002.jpg
2507.715	1.47	1	generate	Run4	generate/STIM_002.jpg
2512.213	1.694	1	generate	Run4	generate/STIM_002.jpg
2517.13	1.576	1	generate	Run4	generate/STIM_002.jpg
2521.883	1.533	1	generate	Run4	generate/STIM_002.jpg
2526.676	1.49	1	generate	Run4	generate/STIM_003.jpg
2531.776	1.185	1	generate	Run4	generate/STIM_003.jpg
2535.365	1.338	1	generate	Run4	generate/STIM_003.jpg
2538.943	1.409	1	generate	Run4	generate/STIM_003.jpg
2544.088	1.269	1	generate	Run4	generate/STIM_003.jpg
2548.457	1.572	1	generate	Run4	generate/STIM_004.jpg
2553.856	0.897	1	generate	Run4	generate/STIM_004.jpg
2557.59	1.437	1	generate	Run4	generate/STIM_004.jpg
2561.166	1.153	1	generate	Run4	generate/STIM_004.jpg
2565.591	0.826	1	generate	Run4	generate/STIM_004.jpg
2569.113	1.084	1	generate	Run4	generate/STIM_005.jpg
2572.294	1.042	1	generate	Run4	generate/STIM_005.jpg
2576.749	1.223	1	generate	Run4	generate/STIM_005.jpg
2581.38	1.76	1	generate	Run4	generate/STIM_005.jpg
2586.693	1.531	1	generate	Run4	generate/STIM_005.jpg
2591.881	1.278	1	generate	Run4	generate/STIM_006.jpg
2595.536	0.93	1	generate	Run4	generate/STIM_006.jpg
2599.184	0.842	1	generate	Run4	generate/STIM_006.jpg
2603.132	1.659	1	generate	Run4	generate/STIM_006.jpg
2607.347	1.265	1	generate	Run4	generate/STIM_006.jpg
2610.844	1.384	1	generate	Run4	generate/STIM_007.jpg
2614.399	1.044	1	generate	Run4	generate/STIM_007.jpg
2619.132	1.147	1	generate	Run4	generate/STIM_007.jpg
2623.592	1.471	1	generate	Run4	generate/STIM_007.jpg
2628.629	0.906	1	generate	Run4	generate/STIM_007.jpg
2632.25	1.473	0	generate	Run4	generate/STIM_008.jpg
2636.428	1.53	1	generate	Run4	generate/STIM_008.jpg
2640.05	1.517	1	generate	Run4	generate/STIM_008.jpg
2644.526	1.319	0	generate	Run4	generate/STIM_008.jpg
2649.14	0.877	1	generate	Run4	generate/STIM_008.jpg
2653.068	0.994	1	generate	Run4	generate/STIM_009.jpg
2656.915	1.102	1	generate	Run4	generate/STIM_009.jpg
2660.217	1.003	1	generate	Run4	generate/STIM_009.jpg
2663.485	1.246	1	generate	Run4	generate/STIM_009.jpg
2667.945	1.157	1	generate	Run4	generate/STIM_009.jpg
2671.986	1.013	1	generate	Run4	generate/STIM_010.jpg
2675.822	1.54	1	generate	Run4	generate/STIM_010.jpg
2680.151	1.431	1	generate	Run4	generate/STIM_010.jpg
2683.729	1.408	1	generate	Run4	generate/STIM_010.jpg
2687.231	1.187	1	generate	Run4	generate/STIM_010.jpg
2690.804	1.139	1	generate	Run4	generate/STIM_011.jpg
2695.855	1.054	1	generate	Run4	generate/STIM_011.jpg
2699.147	1.553	1	generate	Run4	generate/STIM_011.jpg
2703.117	1.475	1	generate	Run4	generate/STIM_011.jpg
2707.092	1.041	1	generate	Run4	generate/STIM_011.jpg
2710.403	1.61	1	generate	Run4	generate/STIM_012.jpg
2715.356	1.099	1	generate	Run4	generate/STIM_012.jpg
2719.853	1.538	1	generate	Run4	generate/STIM_012.jpg
2724.43	1.559	1	generate	Run4	generate/STIM_012.jpg
2729.088	0.988	1	generate	Run4	generate/STIM_012.jpg
2732.149	1.638	1	generate	Run4	generate/STIM_013.jpg
2737.319	0.891	0	generate	Run4	generate/STIM_013.jpg
2740.681	1.011	1	generate	Run4	generate/STIM_013.jpg
2744.124	0.948	1	generate	Run4	generate/STIM_013.jpg
2747.286	0.955	0	generate	Run4	generate/STIM_013.jpg
2751.969	1.459	1	generate	Run4	generate/STIM_014.jpg
2755.998	1.308	1	generate	Run4	generate/STIM_014.jpg
2759.941	1.602	1	generate	Run4	generate/STIM_014.jpg
2763.755	1.105	1	generate	Run4	generate/STIM_014.jpg
2767.9	1.305	1	generate	Run4	generate/STIM_014.jpg
2772.593	1.546	1	generate	Run4	generate/STIM_015.jpg
2776.362	1.675	1	generate	Run4	generate/STIM_015.jpg
2780.967	0.821	1	generate	Run4	generate/STIM_015.jpg
2783.977	0.938	1	generate	Run4	generate/STIM_015.jpg
2787.954	1.284	1	generate	Run4	generate/STIM_015.jpg
2792.841	0.732	1	generate	Run4	generate/STIM_016.jpg
2797.299	1.391	1	generate	Run4	generate/STIM_016.jpg
2801.725	0.809	1	generate	Run4	generate/STIM_016.jpg
2806.078	0.859	1	generate	Run4	generate/STIM_016.jpg
2809.816	0.722	1	generate	Run4	generate/STIM_016.jpg
2812.836	1.264	1	generate	Run4	generate/STIM_017.jpg
2816.593	1.339	1	generate	Run4	generate/STIM_017.jpg
2821.371	1.298	1	generate	Run4	generate/STIM_017.jpg
2826.069	1.105	1	generate	Run4	generate/STIM_017.jpg
2829.883	1.608	1	generate	Run4	generate/STIM_017.jpg
2834.675	1.584	1	generate	Run4	generate/STIM_018.jpg
2839.007	1.698	1	generate	Run4	generate/STIM_018.jpg
2842.717	0.94	1	generate	Run4	generate/STIM_018.jpg
2847.567	1.314	1	generate	Run4	generate/STIM_018.jpg
2852.872	1.636	1	generate	Run4	generate/STIM_018.jpg
2857.744	1.002	1	generate	Run4	generate/STIM_019.jpg
2862.703	0.802	1	generate	Run4	generate/STIM_019.jpg
2865.806	1.176	1	generate	Run4	generate/STIM_019.jpg
2869.566	1.626	1	generate	Run4	generate/STIM_019.jpg
2873.511	0.977	1	generate	Run4	generate/STIM_019.jpg
2877.103	0.905	1	generate	Run4	generate/STIM_020.jpg
2880.794	1.068	1	generate	Run4	generate/STIM_020.jpg
2885.363	1.075	1	generate	Run4	generate/STIM_020.jpg
2889.99	0.967	1	generate	Run4	generate/STIM_020.jpg
2893.071	0.836	1	generate	Run4	generate/STIM_020.jpg
2896.379	0.884	1	generate	Run4	generate/STIM_021.jpg
2900.642	1.658	1	generate	Run4	generate/STIM_021.jpg
2905.16	1.44	1	generate	Run4	generate/STIM_021.jpg
2909.673	1.763	1	generate	Run4	generate/STIM_021.jpg
2913.626	1.696	1	generate	Run4	generate/STIM_021.jpg
2919.192	1.089	1	generate	Run4	generate/STIM_022.jpg
2922.667	1.536	1	generate	Run4	generate/STIM_022.jpg
2926.457	0.726	1	generate	Run4	generate/STIM_022.jpg
2931.047	1.163	1	generate	Run4	generate/STIM_022.jpg
2936.076	1.639	1	generate	Run4	generate/STIM_022.jpg
2941.349	1.026	1	generate	Run4	generate/STIM_023.jpg
2946.004	1.267	1	generate	Run4	generate/STIM_023.jpg
2949.394	0.965	1	generate	Run4	generate/STIM_023.jpg
2953.719	1.421	1	generate	Run4	generate/STIM_023.jpg
2959.071	0.767	1	generate	Run4	generate/STIM_023.jpg
2962.23	0.97	1	generate	Run4	generate/STIM_024.jpg
2967.141	1.554	1	generate	Run4	generate/STIM_024.jpg
2971.311	1.35	1	generate	Run4	generate/STIM_024.jpg
2976.093	1.751	1	generate	Run4	generate/STIM_024.jpg
2981.584	0.939	1	generate	Run4	generate/STIM_024.jpg
2986.084	0.727	1	repeat	Run4	repeat/STIM_000.jpg
2990.264	0.43	1	repeat	Run4	repeat/STIM_000.jpg
2994.654	0.627	1	repeat	Run4	repeat/STIM_000.jpg
2998.034	0.43	1	repeat	Run4	repeat/STIM_000.jpg
3002.307	0.552	1	repeat	Run4	repeat/STIM_000.jpg
3005.617	0.743	1	repeat	Run4	repeat/STIM_001.jpg
3010.001	0.838	1	repeat	Run4	repeat/STIM_001.jpg
3012.843	0.843	1	repeat	Run4	repeat/STIM_001.jpg
3017.608	0.624	1	repeat	Run4	repeat/STIM_001.jpg
3021.419	0.844	1	repeat	Run4	repeat/STIM_001.jpg
3026.219	0.428	1	repeat	Run4	repeat/STIM_002.jpg
3029.146	0.432	1	repeat	Run4	repeat/STIM_002.jpg
3033.265	0.682	1	repeat	Run4	repeat/STIM_002.jpg
3036.506	0.432	1	repeat	Run4	repeat/STIM_002.jpg
3040.523	0.845	1	repeat	Run4	repeat/STIM_002.jpg
3043.789	0.791	1	repeat	Run4	repeat/STIM_003.jpg
3048.119	0.571	1	repeat	Run4	repeat/STIM_003.jpg
3052.42	0.68	1	repeat	Run4	repeat/STIM_003.jpg
3055.262	0.671	1	repeat	Run4	repeat/STIM_003.jpg
3059.602	0.699	1	repeat	Run4	repeat/STIM_003.jpg
3062.36	0.693	1	repeat	Run4	repeat/STIM_004.jpg
3066.62	0.831	0	repeat	Run4	repeat/STIM_004.jpg
3071.329	0.645	1	repeat	Run4	repeat/STIM_004.jpg
3074.073	0.721	1	repeat	Run4	repeat/STIM_004.jpg
3078.685	0.432	1	repeat	Run4	repeat/STIM_004.jpg
3082.392	0.572	1	repeat	Run4	repeat/STIM_005.jpg
3086.836	0.571	1	repeat	Run4	repeat/STIM_005.jpg
3091.046	0.645	1	repeat	Run4	repeat/STIM_005.jpg
3095.167	0.461	1	repeat	Run4	repeat/STIM_005.jpg
3099.628	0.5	1	repeat	Run4	repeat/STIM_005.jpg
3103.71	0.519	1	repeat	Run4	repeat/STIM_006.jpg
3106.845	0.554	1	repeat	Run4	repeat/STIM_006.jpg
3109.592	0.76	1	repeat	Run4	repeat/STIM_006.jpg
3113.999	0.849	1	repeat	Run4	repeat/STIM_006.jpg
3117.846	0.821	1	repeat	Run4	repeat/STIM_006.jpg
3122.499	0.803	1	repeat	Run4	repeat/STIM_007.jpg
3125.518	0.674	1	repeat	Run4	repeat/STIM_007.jpg
3129.128	0.462	1	repeat	Run4	repeat/STIM_007.jpg
3132.232	0.455	0	repeat	Run4	repeat/STIM_007.jpg
3134.985	0.671	1	repeat	Run4	repeat/STIM_007.jpg
3138.416	0.667	1	repeat	Run4	repeat/STIM_008.jpg
3143.018	0.849	1	repeat	Run4	repeat/STIM_008.jpg
3146.124	0.734	1	repeat	Run4	repeat/STIM_008.jpg
3149.47	0.577	1	repeat	Run4	repeat/STIM_008.jpg
3153.989	0.714	1	repeat	Run4	repeat/STIM_008.jpg
3157.788	0.724	1	repeat	Run4	repeat/STIM_009.jpg
3162.36	0.436	1	repeat	Run4	repeat/STIM_009.jpg
3166.129	0.718	1	repeat	Run4	repeat/STIM_009.jpg
3169.607	0.634	1	repeat	Run4	repeat/STIM_009.jpg
3174.234	0.84	1	repeat	Run4	repeat/STIM_009.jpg
3178.369	0.505	1	repeat	Run4	repeat/STIM_010.jpg
3181.604	0.599	1	repeat	Run4	repeat/STIM_010.jpg
3184.452	0.545	1	repeat	Run4	repeat/STIM_010.jpg
3188.05	0.512	1	repeat	Run4	repeat/STIM_010.jpg
3191.8	0.449	1	repeat	Run4	repeat/STIM_010.jpg
3194.624	0.812	1	repeat	Run4	repeat/STIM_011.jpg
3197.444	0.717	1	repeat	Run4	repeat/STIM_011.jpg
3200.35	0.752	1	repeat	Run4	repeat/STIM_011.jpg
3203.762	0.562	1	repeat	Run4	repeat/STIM_011.jpg
3207.671	0.782	1	repeat	Run4	repeat/STIM_011.jpg
3211.751	0.737	1	repeat	Run4	repeat/STIM_012.jpg
3215.068	0.519	0	repeat	Run4	repeat/STIM_012.jpg
3217.949	0.842	1	repeat	Run4	repeat/STIM_012.jpg
3221.115	0.711	1	repeat	Run4	repeat/STIM_012.jpg
3224.609	0.656	1	repeat	Run4	repeat/STIM_012.jpg
3227.786	0.59	1	repeat	Run4	repeat/STIM_013.jpg
3231.466	0.574	1	repeat	Run4	repeat/STIM_013.jpg
3234.508	0.555	1	repeat	Run4	repeat/STIM_013.jpg
3238.836	0.746	1	repeat	Run4	repeat/STIM_013.jpg
3242.033	0.47	1	repeat	Run4	repeat/STIM_013.jpg
3245.429	0.454	1	repeat	Run4	repeat/STIM_014.jpg
3249.273	0.469	1	repeat	Run4	repeat/STIM_014.jpg
3252.281	0.693	0	repeat	Run4	repeat/STIM_014.jpg
3256.285	0.478	1	repeat	Run4	repeat/STIM_014.jpg
3260.432	0.657	1	repeat	Run4	repeat/STIM_014.jpg
