onset	duration	accuracy	trial_type	learning_stage	stimulus
0.0	3.337	correct	regulate	Run1	regulate/STIM_000.jpg
6.199	2.792	correct	regulate	Run1	regulate/STIM_000.jpg
11.665	2.811	correct	regulate	Run1	regulate/STIM_000.jpg
17.158	1.549	correct	regulate	Run1	regulate/STIM_000.jpg
21.071	2.959	correct	regulate	Run1	regulate/STIM_001.jpg
27.502	2.784	correct	regulate	Run1	regulate/STIM_001.jpg
33.628	2.963	correct	regulate	Run1	regulate/STIM_001.jpg
39.082	2.138	correct	regulate	Run1	regulate/STIM_001.jpg
43.854	3.264	correct	regulate	Run1	regulate/STIM_002.jpg
49.576	2.927	correct	regulate	Run1	regulate/STIM_002.jpg
56.02	1.526	correct	regulate	Run1	regulate/STIM_002.jpg
60.36	2.343	correct	regulate	Run1	regulate/STIM_002.jpg
66.033	1.659	correct	regulate	Run1	regulate/STIM_003.jpg
69.755	1.835	incorrect	regulate	Run1	regulate/STIM_003.jpg
74.736	3.246	incorrect	regulate	Run1	regulate/STIM_003.jpg
80.14	1.942	correct	regulate	Run1	regulate/STIM_003.jpg
85.802	2.47	correct	regulate	Run1	regulate/STIM_004.jpg
91.937	2.433	incorrect	regulate	Run1	regulate/STIM_004.jpg
96.442	3.315	correct	regulate	Run1	regulate/STIM_004.jpg
103.51	2.313	correct	regulate	Run1	regulate/STIM_004.jpg
108.81	3.728	correct	regulate	Run1	regulate/STIM_005.jpg
114.748	2.718	correct	regulate	Run1	regulate/STIM_005.jpg
120.392	2.13	incorrect	regulate	Run1	regulate/STIM_005.jpg
125.144	1.93	correct	regulate	Run1	regulate/STIM_005.jpg
130.146	1.994	correct	regulate	Run1	regulate/STIM_006.jpg
135.343	2.21	correct	regulate	Run1	regulate/STIM_006.jpg
139.83	2.7	correct	regulate	Run1	regulate/STIM_006.jpg
144.75	1.575	correct	regulate	Run1	regulate/STIM_006.jpg
149.706	3.684	correct	regulate	Run1	regulate/STIM_007.jpg
156.813	2.982	correct	regulate	Run1	regulate/STIM_007.jpg
163.536	3.095	correct	regulate	Run1	regulate/STIM_007.jpg
168.666	2.937	correct	regulate	Run1	regulate/STIM_007.jpg
175.454	2.633	incorrect	regulate	Run1	regulate/STIM_008.jpg
180.798	3.344	correct	regulate	Run1	regulate/STIM_008.jpg
187.741	2.816	correct	regulate	Run1	regulate/STIM_008.jpg
194.3	1.854	correct	regulate	Run1	regulate/STIM_008.jpg
200.029	2.542	incorrect	regulate	Run1	regulate/STIM_009.jpg
205.787	3.419	correct	regulate	Run1	regulate/STIM_009.jpg
212.779	2.593	incorrect	regulate	Run1	regulate/STIM_009.jpg
218.153	1.538	correct	regulate	Run1	regulate/STIM_009.jpg
222.251	2.806	correct	regulate	Run1	regulate/STIM_010.jpg
227.373	3.472	incorrect	regulate	Run1	regulate/STIM_010.jpg
234.086	1.868	incorrect	regulate	Run1	regulate/STIM_010.jpg
239.008	2.048	incorrect	regulate	Run1	regulate/STIM_010.jpg
244.106	3.043	correct	regulate	Run1	regulate/STIM_011.jpg
249.614	2.305	incorrect	regulate	Run1	regulate/STIM_011.jpg
253.972	3.155	incorrect	regulate	Run1	regulate/STIM_011.jpg
259.441	3.058	correct	regulate	Run1	regulate/STIM_011.jpg
264.548	3.009	correct	regulate	Run1	regulate/STIM_012.jpg
271.032	3.28	incorrect	regulate	Run1	regulate/STIM_012.jpg
276.955	3.441	correct	regulate	Run1	regulate/STIM_012.jpg
283.549	2.105	correct	regulate	Run1	regulate/STIM_012.jpg
288.782	2.259	incorrect	regulate	Run1	regulate/STIM_013.jpg
293.15	1.633	correct	regulate	Run1	regulate/STIM_013.jpg
298.349	2.306	correct	regulate	Run1	regulate/STIM_013.jpg
304.465	3.282	correct	regulate	Run1	regulate/STIM_013.jpg
310.972	2.273	incorrect	regulate	Run1	regulate/STIM_014.jpg
315.344	3.229	correct	regulate	Run1	regulate/STIM_014.jpg
322.503	3.384	correct	regulate	Run1	regulate/STIM_014.jpg
328.375	2.851	correct	regulate	Run1	regulate/STIM_014.jpg
334.272	2.01	incorrect	regulate	Run1	regulate/STIM_015.jpg
339.683	2.771	incorrect	regulate	Run1	regulate/STIM_015.jpg
345.828	3.039	incorrect	regulate	Run1	regulate/STIM_015.jpg
351.658	2.17	correct	regulate	Run1	regulate/STIM_015.jpg
356.045	3.607	incorrect	regulate	Run1	regulate/STIM_016.jpg
363.359	3.17	correct	regulate	Run1	regulate/STIM_016.jpg
370.162	2.84	correct	regulate	Run1	regulate/STIM_016.jpg
375.69	1.978	incorrect	regulate	Run1	regulate/STIM_016.jpg
381.652	3.239	correct	regulate	Run1	regulate/STIM_017.jpg
388.237	1.622	correct	regulate	Run1	regulate/STIM_017.jpg
392.04	2.618	correct	regulate	Run1	regulate/STIM_017.jpg
396.677	2.698	correct	regulate	Run1	regulate/STIM_017.jpg
401.568	3.608	incorrect	regulate	Run1	regulate/STIM_018.jpg
407.646	3.187	correct	regulate	Run1	regulate/STIM_018.jpg
412.877	1.797	correct	regulate	Run1	regulate/STIM_018.jpg
418.608	1.472	correct	regulate	Run1	regulate/STIM_018.jpg
423.788	2.631	correct	regulate	Run1	regulate/STIM_019.jpg
428.865	1.925	correct	regulate	Run1	regulate/STIM_019.jpg
433.623	2.101	correct	regulate	Run1	regulate/STIM_019.jpg
438.409	2.167	correct	regulate	Run1	regulate/STIM_019.jpg
443.745	2.056	correct	regulate	Run1	regulate/STIM_020.jpg
449.688	2.371	correct	regulate	Run1	regulate/STIM_020.jpg
454.09	1.807	correct	regulate	Run1	regulate/STIM_020.jpg
458.633	2.813	correct	regulate	Run1	regulate/STIM_020.jpg
463.611	3.308	correct	regulate	Run1	regulate/STIM_021.jpg
469.793	3.436	correct	regulate	Run1	regulate/STIM_021.jpg
476.278	2.592	correct	regulate	Run1	regulate/STIM_021.jpg
482.667	3.254	correct	regulate	Run1	regulate/STIM_021.jpg
489.6	2.789	incorrect	regulate	Run1	regulate/STIM_022.jpg
495.145	2.895	correct	regulate	Run1	regulate/STIM_022.jpg
501.991	2.048	correct	regulate	Run1	regulate/STIM_022.jpg
507.71	2.258	correct	regulate	Run1	regulate/STIM_022.jpg
513.341	2.297	correct	regulate	Run1	regulate/STIM_023.jpg
519.132	3.059	incorrect	regulate	Run1	regulate/STIM_023.jpg
525.102	2.155	correct	regulate	Run1	regulate/STIM_023.jpg
530.434	2.329	correct	regulate	Run1	regulate/STIM_023.jpg
535.894	3.562	correct	regulate	Run1	regulate/STIM_024.jpg
541.86	3.546	correct	regulate	Run1	regulate/STIM_024.jpg
548.619	3.36	correct	regulate	Run1	regulate/STIM_024.jpg
554.356	2.418	correct	regulate	Run1	regulate/STIM_024.jpg
559.652	1.853	correct	regulate	Run1	regulate/STIM_025.jpg
564.572	1.675	correct	regulate	Run1	regulate/STIM_025.jpg
569.843	1.495	correct	regulate	Run1	regulate/STIM_025.jpg
574.626	2.415	correct	regulate	Run1	regulate/STIM_025.jpg
579.8	3.119	correct	regulate	Run1	regulate/STIM_026.jpg
585.87	1.694	correct	regulate	Run1	regulate/STIM_026.jpg
589.67	3.098	correct	regulate	Run1	regulate/STIM_026.jpg
594.94	1.483	correct	regulate	Run1	regulate/STIM_026.jpg
599.887	2.498	correct	regulate	Run1	regulate/STIM_027.jpg
604.897	2.216	correct	regulate	Run1	regulate/STIM_027.jpg
610.329	2.774	correct	regulate	Run1	regulate/STIM_027.jpg
616.062	1.76	incorrect	regulate	Run1	regulate/STIM_027.jpg
621.781	3.766	correct	regulate	Run1	regulate/STIM_028.jpg
628.024	2.261	correct	regulate	Run1	regulate/STIM_028.jpg
633.96	1.74	correct	regulate	Run1	regulate/STIM_028.jpg
639.039	2.703	incorrect	regulate	Run1	regulate/STIM_028.jpg
645.245	2.46	correct	regulate	Run1	regulate/STIM_029.jpg
651.311	3.001	correct	regulate	Run1	regulate/STIM_029.jpg
656.478	3.138	correct	regulate	Run1	regulate/STIM_029.jpg
662.771	3.152	incorrect	regulate	Run1	regulate/STIM_029.jpg
668.779	1.293	correct	observe	Run1	observe/STIM_000.jpg
672.165	1.334	incorrect	observe	Run1	observe/STIM_000.jpg
675.645	1.339	correct	observe	Run1	observe/STIM_000.jpg
679.855	1.216	correct	observe	Run1	observe/STIM_000.jpg
684.304	1.227	correct	observe	Run1	observe/STIM_001.jpg
689.305	1.584	correct	observe	Run1	observe/STIM_001.jpg
693.949	0.983	correct	observe	Run1	observe/STIM_001.jpg
698.08	1.24	incorrect	observe	Run1	observe/STIM_001.jpg
703.081	0.92	correct	observe	Run1	observe/STIM_002.jpg
707.425	1.708	correct	observe	Run1	observe/STIM_002.jpg
711.808	1.316	correct	observe	Run1	observe/STIM_002.jpg
715.807	1.376	correct	observe	Run1	observe/STIM_002.jpg
719.486	1.173	incorrect	observe	Run1	observe/STIM_003.jpg
722.801	1.676	correct	observe	Run1	observe/STIM_003.jpg
726.722	1.198	correct	observe	Run1	observe/STIM_003.jpg
730.363	1.137	correct	observe	Run1	observe/STIM_003.jpg
734.039	1.598	correct	observe	Run1	observe/STIM_004.jpg
739.524	1.678	correct	observe	Run1	observe/STIM_004.jpg
743.548	1.305	correct	observe	Run1	observe/STIM_004.jpg
748.133	1.41	correct	observe	Run1	observe/STIM_004.jpg
753.377	1.447	correct	observe	Run1	observe/STIM_005.jpg
758.514	0.898	correct	observe	Run1	observe/STIM_005.jpg
762.868	1.501	correct	observe	Run1	observe/STIM_005.jpg
766.991	1.699	correct	observe	Run1	observe/STIM_005.jpg
770.745	1.2	correct	observe	Run1	observe/STIM_006.jpg
775.117	1.251	incorrect	observe	Run1	observe/STIM_006.jpg
779.666	1.634	correct	observe	Run1	observe/STIM_006.jpg
783.332	1.125	correct	observe	Run1	observe/STIM_006.jpg
786.917	1.602	correct	observe	Run1	observe/STIM_007.jpg
791.776	1.297	correct	observe	Run1	observe/STIM_007.jpg
796.135	1.639	correct	observe	Run1	observe/STIM_007.jpg
799.816	1.583	correct	observe	Run1	observe/STIM_007.jpg
804.08	1.532	correct	observe	Run1	observe/STIM_008.jpg
808.142	1.067	correct	observe	Run1	observe/STIM_008.jpg
812.945	1.156	correct	observe	Run1	observe/STIM_008.jpg
816.422	1.118	incorrect	observe	Run1	observe/STIM_008.jpg
821.328	0.94	correct	observe	Run1	observe/STIM_009.jpg
825.616	1.736	correct	observe	Run1	observe/STIM_009.jpg
830.61	1.392	correct	observe	Run1	observe/STIM_009.jpg
834.921	1.64	correct	observe	Run1	observe/STIM_009.jpg
840.391	1.289	incorrect	observe	Run1	observe/STIM_010.jpg
845.018	1.419	correct	observe	Run1	observe/STIM_010.jpg
849.677	1.754	correct	observe	Run1	observe/STIM_010.jpg
855.158	1.23	correct	observe	Run1	observe/STIM_010.jpg
858.645	1.122	correct	observe	Run1	observe/STIM_011.jpg
862.01	1.564	incorrect	observe	Run1	observe/STIM_011.jpg
866.657	1.052	correct	observe	Run1	observe/STIM_011.jpg
870.231	1.396	correct	observe	Run1	observe/STIM_011.jpg
875.483	1.181	correct	observe	Run1	observe/STIM_012.jpg
878.947	1.342	correct	observe	Run1	observe/STIM_012.jpg
882.909	0.935	correct	observe	Run1	observe/STIM_012.jpg
886.167	1.398	correct	observe	Run1	observe/STIM_012.jpg
891.114	0.991	correct	observe	Run1	observe/STIM_013.jpg
895.168	1.036	correct	observe	Run1	observe/STIM_013.jpg
900.05	1.382	correct	observe	Run1	observe/STIM_013.jpg
904.375	1.478	correct	observe	Run1	observe/STIM_013.jpg
909.02	0.978	correct	observe	Run1	observe/STIM_014.jpg
912.22	1.549	correct	observe	Run1	observe/STIM_014.jpg
915.864	1.109	incorrect	observe	Run1	observe/STIM_014.jpg
919.615	1.617	correct	observe	Run1	observe/STIM_014.jpg
924.115	0.938	correct	observe	Run1	observe/STIM_015.jpg
928.412	1.739	correct	observe	Run1	observe/STIM_015.jpg
933.601	1.162	correct	observe	Run1	observe/STIM_015.jpg
938.521	1.492	correct	observe	Run1	observe/STIM_015.jpg
943.999	1.533	correct	observe	Run1	observe/STIM_016.jpg
948.011	1.177	correct	observe	Run1	observe/STIM_016.jpg
951.889	1.485	incorrect	observe	Run1	observe/STIM_016.jpg
955.495	1.359	correct	observe	Run1	observe/STIM_016.jpg
959.302	1.183	incorrect	observe	Run1	observe/STIM_017.jpg
963.004	1.314	correct	observe	Run1	observe/STIM_017.jpg
968.146	1.388	correct	observe	Run1	observe/STIM_017.jpg
973.528	0.883	incorrect	observe	Run1	observe/STIM_017.jpg
977.72	1.204	incorrect	observe	Run1	observe/STIM_018.jpg
982.446	1.234	correct	observe	Run1	observe/STIM_018.jpg
986.196	1.148	correct	observe	Run1	observe/STIM_018.jpg
990.439	0.994	correct	observe	Run1	observe/STIM_018.jpg
994.154	1.509	correct	observe	Run1	observe/STIM_019.jpg
998.526	1.205	incorrect	observe	Run1	observe/STIM_019.jpg
1001.765	1.204	correct	observe	Run1	observe/STIM_019.jpg
1006.638	1.74	incorrect	observe	Run1	observe/STIM_019.jpg
1011.137	1.577	correct	regulate	Run2	regulate/STIM_000.jpg
1016.29	1.358	correct	regulate	Run2	regulate/STIM_000.jpg
1021.138	2.179	incorrect	regulate	Run2	regulate/STIM_000.jpg
1026.795	1.368	correct	regulate	Run2	regulate/STIM_000.jpg
1031.814	2.28	correct	regulate	Run2	regulate/STIM_001.jpg
1037.65	1.679	correct	regulate	Run2	regulate/STIM_001.jpg
1041.878	1.907	correct	regulate	Run2	regulate/STIM_001.jpg
1046.133	1.249	correct	regulate	Run2	regulate/STIM_001.jpg
1051.187	2.377	correct	regulate	Run2	regulate/STIM_002.jpg
1057.236	2.092	correct	regulate	Run2	regulate/STIM_002.jpg
1061.858	1.334	correct	regulate	Run2	regulate/STIM_002.jpg
1066.569	1.96	correct	regulate	Run2	regulate/STIM_002.jpg
1070.789	3.054	correct	regulate	Run2	regulate/STIM_003.jpg
1076.174	2.532	correct	regulate	Run2	regulate/STIM_003.jpg
1081.899	2.325	correct	regulate	Run2	regulate/STIM_003.jpg
1087.055	1.782	incorrect	regulate	Run2	regulate/STIM_003.jpg
1092.592	2.899	correct	regulate	Run2	regulate/STIM_004.jpg
1097.987	1.342	correct	regulate	Run2	regulate/STIM_004.jpg
1101.848	2.352	correct	regulate	Run2	regulate/STIM_004.jpg
1107.926	1.495	correct	regulate	Run2	regulate/STIM_004.jpg
1113.081	2.822	correct	regulate	Run2	regulate/STIM_005.jpg
1117.903	1.789	correct	regulate	Run2	regulate/STIM_005.jpg
1121.987	2.665	incorrect	regulate	Run2	regulate/STIM_005.jpg
1127.84	2.58	correct	regulate	Run2	regulate/STIM_005.jpg
1132.827	3.001	correct	regulate	Run2	regulate/STIM_006.jpg
1139.042	1.789	correct	regulate	Run2	regulate/STIM_006.jpg
1144.532	2.851	correct	regulate	Run2	regulate/STIM_006.jpg
1150.665	2.254	correct	regulate	Run2	regulate/STIM_006.jpg
1155.024	3.221	correct	regulate	Run2	regulate/STIM_007.jpg
1161.992	1.506	incorrect	regulate	Run2	regulate/STIM_007.jpg
1166.359	2.067	correct	regulate	Run2	regulate/STIM_007.jpg
1171.154	1.177	correct	regulate	Run2	regulate/STIM_007.jpg
1174.789	1.856	correct	regulate	Run2	regulate/STIM_008.jpg
1180.151	2.285	correct	regulate	Run2	regulate/STIM_008.jpg
1185.672	2.762	correct	regulate	Run2	regulate/STIM_008.jpg
1190.711	2.35	correct	regulate	Run2	regulate/STIM_008.jpg
1195.251	1.915	correct	regulate	Run2	regulate/STIM_009.jpg
1199.346	2.632	correct	regulate	Run2	regulate/STIM_009.jpg
1204.212	1.63	correct	regulate	Run2	regulate/STIM_009.jpg
1207.893	1.716	correct	regulate	Run2	regulate/STIM_009.jpg
1213.5	2.404	correct	regulate	Run2	regulate/STIM_010.jpg
1218.28	1.404	correct	regulate	Run2	regulate/STIM_010.jpg
1223.665	2.406	incorrect	regulate	Run2	regulate/STIM_010.jpg
1229.55	1.763	correct	regulate	Run2	regulate/STIM_010.jpg
1235.02	2.652	correct	regulate	Run2	regulate/STIM_011.jpg
1239.822	1.412	correct	regulate	Run2	regulate/STIM_011.jpg
1245.102	2.254	correct	regulate	Run2	regulate/STIM_011.jpg
1250.161	2.005	correct	regulate	Run2	regulate/STIM_011.jpg
1255.897	2.545	correct	regulate	Run2	regulate/STIM_012.jpg
1261.175	1.649	correct	regulate	Run2	regulate/STIM_012.jpg
1265.22	2.491	correct	regulate	Run2	regulate/STIM_012.jpg
1269.973	1.549	correct	regulate	Run2	regulate/STIM_012.jpg
1275.458	1.411	correct	regulate	Run2	regulate/STIM_013.jpg
1279.908	2.432	correct	regulate	Run2	regulate/STIM_013.jpg
1285.643	1.72	correct	regulate	Run2	regulate/STIM_013.jpg
1290.821	2.188	correct	regulate	Run2	regulate/STIM_013.jpg
1295.592	1.737	incorrect	regulate	Run2	regulate/STIM_014.jpg
1299.462	2.939	correct	regulate	Run2	regulate/STIM_014.jpg
1304.733	2.841	correct	regulate	Run2	regulate/STIM_014.jpg
1310.188	1.962	correct	regulate	Run2	regulate/STIM_014.jpg
1315.596	1.713	correct	regulate	Run2	regulate/STIM_015.jpg
1320.11	1.936	incorrect	regulate	Run2	regulate/STIM_015.jpg
1324.223	1.85	correct	regulate	Run2	regulate/STIM_015.jpg
1328.651	1.899	correct	regulate	Run2	regulate/STIM_015.jpg
1334.04	2.878	correct	regulate	Run2	regulate/STIM_016.jpg
1339.671	2.235	correct	regulate	Run2	regulate/STIM_016.jpg
1345.388	2.822	correct	regulate	Run2	regulate/STIM_016.jpg
1350.379	1.204	correct	regulate	Run2	regulate/STIM_016.jpg
1354.657	2.763	correct	regulate	Run2	regulate/STIM_017.jpg
1359.918	2.772	incorrect	regulate	Run2	regulate/STIM_017.jpg
1366.445	2.336	correct	regulate	Run2	regulate/STIM_017.jpg
1372.472	1.234	correct	regulate	Run2	regulate/STIM_017.jpg
1376.99	2.193	correct	regulate	Run2	regulate/STIM_018.jpg
1381.905	2.948	correct	regulate	Run2	regulate/STIM_018.jpg
1387.611	2.597	correct	regulate	Run2	regulate/STIM_018.jpg
1393.256	1.983	correct	regulate	Run2	regulate/STIM_018.jpg
1399.037	2.417	correct	regulate	Run2	regulate/STIM_019.jpg
1404.79	2.162	correct	regulate	Run2	regulate/STIM_019.jpg
1410.902	2.491	correct	regulate	Run2	regulate/STIM_019.jpg
1415.431	1.366	incorrect	regulate	Run2	regulate/STIM_019.jpg
1418.837	2.087	incorrect	regulate	Run2	regulate/STIM_020.jpg
1424.303	1.823	correct	regulate	Run2	regulate/STIM_020.jpg
1429.314	1.705	correct	regulate	Run2	regulate/STIM_020.jpg
1433.665	2.381	correct	regulate	Run2	regulate/STIM_020.jpg
1438.647	1.645	correct	regulate	Run2	regulate/STIM_021.jpg
1444.169	2.388	incorrect	regulate	Run2	regulate/STIM_021.jpg
1448.68	1.51	correct	regulate	Run2	regulate/STIM_021.jpg
1452.827	2.171	correct	regulate	Run2	regulate/STIM_021.jpg
1457.589	2.386	incorrect	regulate	Run2	regulate/STIM_022.jpg
1463.852	2.761	correct	regulate	Run2	regulate/STIM_022.jpg
1469.494	2.219	correct	regulate	Run2	regulate/STIM_022.jpg
1475.133	1.243	correct	regulate	Run2	regulate/STIM_022.jpg
1480.242	1.534	correct	regulate	Run2	regulate/STIM_023.jpg
1484.211	2.219	correct	regulate	Run2	regulate/STIM_023.jpg
1490.092	2.463	correct	regulate	Run2	regulate/STIM_023.jpg
1495.084	1.651	correct	regulate	Run2	regulate/STIM_023.jpg
1499.6	2.266	correct	regulate	Run2	regulate/STIM_024.jpg
1504.225	1.614	correct	regulate	Run2	regulate/STIM_024.jpg
1509.427	2.666	incorrect	regulate	Run2	regulate/STIM_024.jpg
1515.258	1.76	correct	regulate	Run2	regulate/STIM_024.jpg
1520.594	2.002	incorrect	regulate	Run2	regulate/STIM_025.jpg
1526.044	2.043	correct	regulate	Run2	regulate/STIM_025.jpg
1530.597	2.396	correct	regulate	Run2	regulate/STIM_025.jpg
1536.563	1.912	correct	regulate	Run2	regulate/STIM_025.jpg
1541.415	3.224	correct	regulate	Run2	regulate/STIM_026.jpg
1548.268	2.294	incorrect	regulate	Run2	regulate/STIM_026.jpg
1552.806	2.831	correct	regulate	Run2	regulate/STIM_026.jpg
1557.971	2.06	incorrect	regulate	Run2	regulate/STIM_026.jpg
1562.832	3.138	incorrect	regulate	Run2	regulate/STIM_027.jpg
1569.912	1.95	correct	regulate	Run2	regulate/STIM_027.jpg
1575.38	2.55	correct	regulate	Run2	regulate/STIM_027.jpg
1580.675	1.917	correct	regulate	Run2	regulate/STIM_027.jpg
1585.567	2.14	incorrect	regulate	Run2	regulate/STIM_028.jpg
1591.616	2.502	correct	regulate	Run2	regulate/STIM_028.jpg
1596.785	1.497	correct	regulate	Run2	regulate/STIM_028.jpg
1601.64	1.178	correct	regulate	Run2	regulate/STIM_028.jpg
1605.281	3.25	correct	regulate	Run2	regulate/STIM_029.jpg
1611.657	2.017	incorrect	regulate	Run2	regulate/STIM_029.jpg
1615.802	1.653	correct	regulate	Run2	regulate/STIM_029.jpg
1619.831	1.711	correct	regulate	Run2	regulate/STIM_029.jpg
1624.537	1.686	correct	observe	Run2	observe/STIM_000.jpg
1628.884	1.713	correct	observe	Run2	observe/STIM_000.jpg
1634.309	1.713	correct	observe	Run2	observe/STIM_000.jpg
1638.888	1.625	correct	observe	Run2	observe/STIM_000.jpg
1642.692	1.351	correct	observe	Run2	observe/STIM_001.jpg
1647.226	1.535	correct	observe	Run2	observe/STIM_001.jpg
1652.296	1.502	correct	observe	Run2	observe/STIM_001.jpg
1657.788	1.419	correct	observe	Run2	observe/STIM_001.jpg
1662.114	1.195	correct	observe	Run2	observe/STIM_002.jpg
1665.833	0.935	correct	observe	Run2	observe/STIM_002.jpg
1670.386	1.318	incorrect	observe	Run2	observe/STIM_002.jpg
1673.928	1.037	correct	observe	Run2	observe/STIM_002.jpg
1677.442	1.73	correct	observe	Run2	observe/STIM_003.jpg
1682.705	1.568	correct	observe	Run2	observe/STIM_003.jpg
1687.123	1.364	correct	observe	Run2	observe/STIM_003.jpg
1691.338	1.291	correct	observe	Run2	observe/STIM_003.jpg
1696.531	1.08	correct	observe	Run2	observe/STIM_004.jpg
1699.904	1.589	correct	observe	Run2	observe/STIM_004.jpg
1703.801	1.324	correct	observe	Run2	observe/STIM_004.jpg
1708.89	0.883	correct	observe	Run2	observe/STIM_004.jpg
1712.808	1.652	correct	observe	Run2	observe/STIM_005.jpg
1717.531	1.224	correct	observe	Run2	observe/STIM_005.jpg
1720.939	1.672	correct	observe	Run2	observe/STIM_005.jpg
1724.685	0.904	correct	observe	Run2	observe/STIM_005.jpg
1728.433	1.617	correct	observe	Run2	observe/STIM_006.jpg
1732.77	1.016	correct	observe	Run2	observe/STIM_006.jpg
1736.962	1.027	correct	observe	Run2	observe/STIM_006.jpg
1740.761	1.222	correct	observe	Run2	observe/STIM_006.jpg
1744.05	1.574	correct	observe	Run2	observe/STIM_007.jpg
1747.841	1.449	correct	observe	Run2	observe/STIM_007.jpg
1751.335	1.484	correct	observe	Run2	observe/STIM_007.jpg
1755.329	1.443	correct	observe	Run2	observe/STIM_007.jpg
1758.894	1.499	correct	observe	Run2	observe/STIM_008.jpg
1764.208	1.006	correct	observe	Run2	observe/STIM_008.jpg
1768.494	1.405	correct	observe	Run2	observe/STIM_008.jpg
1773.248	1.086	correct	observe	Run2	observe/STIM_008.jpg
1777.485	1.577	correct	observe	Run2	observe/STIM_009.jpg
1781.292	1.561	correct	observe	Run2	observe/STIM_009.jpg
1785.718	1.162	correct	observe	Run2	observe/STIM_009.jpg
1789.034	0.941	correct	observe	Run2	observe/STIM_009.jpg
1792.614	1.203	correct	observe	Run2	observe/STIM_010.jpg
1796.938	1.696	correct	observe	Run2	observe/STIM_010.jpg
1802.142	1.712	correct	observe	Run2	observe/STIM_010.jpg
1806.606	1.718	incorrect	observe	Run2	observe/STIM_010.jpg
1811.621	1.059	correct	observe	Run2	observe/STIM_011.jpg
1814.954	1.194	correct	observe	Run2	observe/STIM_011.jpg
1819.853	0.944	correct	observe	Run2	observe/STIM_011.jpg
1824.319	1.341	correct	observe	Run2	observe/STIM_011.jpg
1827.768	1.206	correct	observe	Run2	observe/STIM_012.jpg
1831.771	1.683	correct	observe	Run2	observe/STIM_012.jpg
1835.506	1.426	correct	observe	Run2	observe/STIM_012.jpg
1839.563	1.054	correct	observe	Run2	observe/STIM_012.jpg
1842.768	1.718	correct	observe	Run2	observe/STIM_013.jpg
1847.9	1.167	correct	observe	Run2	observe/STIM_013.jpg
1851.665	1.064	correct	observe	Run2	observe/STIM_013.jpg
1856.716	1.237	incorrect	observe	Run2	observe/STIM_013.jpg
1860.407	1.246	correct	observe	Run2	observe/STIM_014.jpg
1864.77	1.378	correct	observe	Run2	observe/STIM_014.jpg
1869.142	1.153	correct	observe	Run2	observe/STIM_014.jpg
1874.193	1.44	correct	observe	Run2	observe/STIM_014.jpg
1878.464	1.347	incorrect	observe	Run2	observe/STIM_015.jpg
1883.667	0.887	correct	observe	Run2	observe/STIM_015.jpg
1886.613	1.336	correct	observe	Run2	observe/STIM_015.jpg
1890.259	1.17	incorrect	observe	Run2	observe/STIM_015.jpg
1894.579	1.148	correct	observe	Run2	observe/STIM_016.jpg
1897.809	1.455	correct	observe	Run2	observe/STIM_016.jpg
1902.713	1.064	correct	observe	Run2	observe/STIM_016.jpg
1907.61	0.912	correct	observe	Run2	observe/STIM_016.jpg
1911.443	1.237	correct	observe	Run2	observe/STIM_017.jpg
1916.017	1.452	correct	observe	Run2	observe/STIM_017.jpg
1920.832	1.042	correct	observe	Run2	observe/STIM_017.jpg
1924.107	0.958	correct	observe	Run2	observe/STIM_017.jpg
1928.413	0.919	correct	observe	Run2	observe/STIM_018.jpg
1932.126	0.935	incorrect	observe	Run2	observe/STIM_018.jpg
1936.094	1.716	correct	observe	Run2	observe/STIM_018.jpg
1939.907	1.745	correct	observe	Run2	observe/STIM_018.jpg
1945.149	1.299	correct	observe	Run2	observe/STIM_019.jpg
1950.435	1.712	incorrect	observe	Run2	observe/STIM_019.jpg
1956.093	0.91	correct	observe	Run2	observe/STIM_019.jpg
1959.949	1.205	correct	observe	Run2	observe/STIM_019.jpg
1963.433	1.162	correct	regulate	Run3	regulate/STIM_000.jpg
1968.191	2.379	correct	regulate	Run3	regulate/STIM_000.jpg
1972.584	2.202	correct	regulate	Run3	regulate/STIM_000.jpg
1977.723	2.583	correct	regulate	Run3	regulate/STIM_000.jpg
1982.919	1.461	correct	regulate	Run3	regulate/STIM_001.jpg
1987.045	1.611	correct	regulate	Run3	regulate/STIM_001.jpg
1992.031	2.434	correct	regulate	Run3	regulate/STIM_001.jpg
1997.83	1.398	correct	regulate	Run3	regulate/STIM_001.jpg
2003.226	2.092	incorrect	regulate	Run3	regulate/STIM_002.jpg
2007.416	1.234	correct	regulate	Run3	regulate/STIM_002.jpg
2012.436	1.975	correct	regulate	Run3	regulate/STIM_002.jpg
2017.698	2.299	incorrect	regulate	Run3	regulate/STIM_002.jpg
2022.047	2.374	correct	regulate	Run3	regulate/STIM_003.jpg
2027.396	2.668	correct	regulate	Run3	regulate/STIM_003.jpg
2033.741	2.251	correct	regulate	Run3	regulate/STIM_003.jpg
2039.549	2.275	correct	regulate	Run3	regulate/STIM_003.jpg
2045.342	2.011	correct	regulate	Run3	regulate/STIM_004.jpg
2050.253	1.312	correct	regulate	Run3	regulate/STIM_004.jpg
2054.849	1.286	correct	regulate	Run3	regulate/STIM_004.jpg
2059.913	2.559	correct	regulate	Run3	regulate/STIM_004.jpg
2064.674	1.931	correct	regulate	Run3	regulate/STIM_005.jpg
2070.39	1.396	incorrect	regulate	Run3	regulate/STIM_005.jpg
2074.213	1.182	correct	regulate	Run3	regulate/STIM_005.jpg
2077.413	1.981	correct	regulate	Run3	regulate/STIM_005.jpg
2082.893	1.905	correct	regulate	Run3	regulate/STIM_006.jpg
2087.685	1.776	correct	regulate	Run3	regulate/STIM_006.jpg
2093.03	1.549	correct	regulate	Run3	regulate/STIM_006.jpg
2096.924	2.143	incorrect	regulate	Run3	regulate/STIM_006.jpg
2102.437	2.55	correct	regulate	Run3	regulate/STIM_007.jpg
2107.048	1.364	correct	regulate	Run3	regulate/STIM_007.jpg
2110.737	1.777	correct	regulate	Run3	regulate/STIM_007.jpg
2115.63	2.262	correct	regulate	Run3	regulate/STIM_007.jpg
2121.054	2.677	correct	regulate	Run3	regulate/STIM_008.jpg
2127.503	1.507	incorrect	regulate	Run3	regulate/STIM_008.jpg
2131.383	1.774	correct	regulate	Run3	regulate/STIM_008.jpg
2136.975	2.247	correct	regulate	Run3	regulate/STIM_008.jpg
2142.991	1.316	correct	regulate	Run3	regulate/STIM_009.jpg
2146.782	1.472	incorrect	regulate	Run3	regulate/STIM_009.jpg
2151.492	2.118	correct	regulate	Run3	regulate/STIM_009.jpg
2156.161	1.828	correct	regulate	Run3	regulate/STIM_009.jpg
2160.915	1.882	correct	regulate	Run3	regulate/STIM_010.jpg
2165.908	2.308	correct	regulate	Run3	regulate/STIM_010.jpg
2172.032	2.576	correct	regulate	Run3	regulate/STIM_010.jpg
2178.086	1.293	correct	regulate	Run3	regulate/STIM_010.jpg
2182.198	2.143	correct	regulate	Run3	regulate/STIM_011.jpg
2188.111	2.666	correct	regulate	Run3	regulate/STIM_011.jpg
2194.22	1.284	correct	regulate	Run3	regulate/STIM_011.jpg
2197.751	2.237	correct	regulate	Run3	regulate/STIM_011.jpg
2203.938	1.786	correct	regulate	Run3	regulate/STIM_012.jpg
2208.358	2.667	correct	regulate	Run3	regulate/STIM_012.jpg
2214.229	2.281	incorrect	regulate	Run3	regulate/STIM_012.jpg
2218.577	1.375	correct	regulate	Run3	regulate/STIM_012.jpg
2223.516	2.558	correct	regulate	Run3	regulate/STIM_013.jpg
2229.251	2.444	correct	regulate	Run3	regulate/STIM_013.jpg
2235.234	1.272	correct	regulate	Run3	regulate/STIM_013.jpg
2239.474	2.582	correct	regulate	Run3	regulate/STIM_013.jpg
2244.946	1.554	incorrect	regulate	Run3	regulate/STIM_014.jpg
2249.939	1.517	correct	regulate	Run3	regulate/STIM_014.jpg
2255.05	2.491	correct	regulate	Run3	regulate/STIM_014.jpg
2260.244	1.287	correct	regulate	Run3	regulate/STIM_014.jpg
2264.687	2.496	correct	regulate	Run3	regulate/STIM_015.jpg
2269.192	1.42	correct	regulate	Run3	regulate/STIM_015.jpg
2273.3	2.156	correct	regulate	Run3	regulate/STIM_015.jpg
2278.18	1.274	correct	regulate	Run3	regulate/STIM_015.jpg
2283.233	1.759	correct	regulate	Run3	regulate/STIM_016.jpg
2288.847	1.209	correct	regulate	Run3	regulate/STIM_016.jpg
2293.177	1.496	correct	regulate	Run3	regulate/STIM_016.jpg
2297.753	2.233	correct	regulate	Run3	regulate/STIM_016.jpg
2303.609	2.348	correct	regulate	Run3	regulate/STIM_017.jpg
2308.585	2.671	correct	regulate	Run3	regulate/STIM_017.jpg
2314.064	1.372	correct	regulate	Run3	regulate/STIM_017.jpg
2317.641	1.561	correct	regulate	Run3	regulate/STIM_017.jpg
2322.498	2.212	correct	regulate	Run3	regulate/STIM_018.jpg
2327.841	2.672	correct	regulate	Run3	regulate/STIM_018.jpg
2333.922	1.508	correct	regulate	Run3	regulate/STIM_018.jpg
2338.998	1.797	correct	regulate	Run3	regulate/STIM_018.jpg
2343.899	1.408	correct	regulate	Run3	regulate/STIM_019.jpg
2347.482	2.629	correct	regulate	Run3	regulate/STIM_019.jpg
2353.205	1.558	incorrect	regulate	Run3	regulate/STIM_019.jpg
2358.398	1.809	correct	regulate	Run3	regulate/STIM_019.jpg
2362.561	2.452	correct	regulate	Run3	regulate/STIM_020.jpg
2368.807	1.592	incorrect	regulate	Run3	regulate/STIM_020.jpg
2372.655	2.348	correct	regulate	Run3	regulate/STIM_020.jpg
2378.728	1.426	correct	regulate	Run3	regulate/STIM_020.jpg
2382.333	2.37	correct	regulate	Run3	regulate/STIM_021.jpg
2387.248	2.023	correct	regulate	Run3	regulate/STIM_021.jpg
2392.978	2.405	correct	regulate	Run3	regulate/STIM_021.jpg
2398.65	1.673	correct	regulate	Run3	regulate/STIM_021.jpg
2402.331	1.851	correct	regulate	Run3	regulate/STIM_022.jpg
2407.804	2.017	correct	regulate	Run3	regulate/STIM_022.jpg
2412.343	2.489	correct	regulate	Run3	regulate/STIM_022.jpg
2416.991	1.52	correct	regulate	Run3	regulate/STIM_022.jpg
2422.307	1.76	incorrect	regulate	Run3	regulate/STIM_023.jpg
2426.345	1.637	correct	regulate	Run3	regulate/STIM_023.jpg
2431.616	1.392	correct	regulate	Run3	regulate/STIM_023.jpg
2436.781	1.842	correct	regulate	Run3	regulate/STIM_023.jpg
2442.411	2.596	correct	regulate	Run3	regulate/STIM_024.jpg
2448.577	2.183	correct	regulate	Run3	regulate/STIM_024.jpg
2453.745	2.344	correct	regulate	Run3	regulate/STIM_024.jpg
2459.999	2.524	correct	regulate	Run3	regulate/STIM_024.jpg
2465.718	1.251	correct	regulate	Run3	regulate/STIM_025.jpg
2470.775	1.185	correct	regulate	Run3	regulate/STIM_025.jpg
2475.279	2.007	incorrect	regulate	Run3	regulate/STIM_025.jpg
2480.909	1.573	correct	regulate	Run3	regulate/STIM_025.jpg
2484.745	2.186	correct	regulate	Run3	regulate/STIM_026.jpg
2489.671	2.497	correct	regulate	Run3	regulate/STIM_026.jpg
2494.9	1.163	correct	regulate	Run3	regulate/STIM_026.jpg
2499.202	1.894	correct	regulate	Run3	regulate/STIM_026.jpg
2503.138	2.566	correct	regulate	Run3	regulate/STIM_027.jpg
2509.008	2.099	correct	regulate	Run3	regulate/STIM_027.jpg
2514.095	1.248	correct	regulate	Run3	regulate/STIM_027.jpg
2517.957	1.209	correct	regulate	Run3	regulate/STIM_027.jpg
2523.124	2.559	correct	regulate	Run3	regulate/STIM_028.jpg
2527.721	1.894	correct	regulate	Run3	regulate/STIM_028.jpg
2532.092	1.198	correct	regulate	Run3	regulate/STIM_028.jpg
2535.963	2.294	correct	regulate	Run3	regulate/STIM_028.jpg
2540.975	1.708	incorrect	regulate	Run3	regulate/STIM_029.jpg
2545.598	1.877	correct	regulate	Run3	regulate/STIM_029.jpg
2550.79	1.672	correct	regulate	Run3	regulate/STIM_029.jpg
2556.322	1.817	correct	regulate	Run3	regulate/STIM_029.jpg
2561.189	1.679	correct	observe	Run3	observe/STIM_000.jpg
2565.321	1.137	correct	observe	Run3	observe/STIM_000.jpg
2568.778	1.003	incorrect	observe	Run3	observe/STIM_000.jpg
2573.444	1.476	correct	observe	Run3	observe/STIM_000.jpg
2578.858	1.355	correct	observe	Run3	observe/STIM_001.jpg
2583.98	1.226	correct	observe	Run3	observe/STIM_001.jpg
2588.547	1.483	correct	observe	Run3	observe/STIM_001.jpg
2593.111	1.561	incorrect	observe	Run3	observe/STIM_001.jpg
2598.245	1.031	correct	observe	Run3	observe/STIM_002.jpg
2603.116	1.182	correct	observe	Run3	observe/STIM_002.jpg
2606.504	1.512	correct	observe	Run3	observe/STIM_002.jpg
2611.338	1.511	correct	observe	Run3	observe/STIM_002.jpg
2616.113	1.509	incorrect	observe	Run3	observe/STIM_003.jpg
2620.388	1.005	correct	observe	Run3	observe/STIM_003.jpg
2624.276	1.622	correct	observe	Run3	observe/STIM_003.jpg
2629.718	1.034	correct	observe	Run3	observe/STIM_003.jpg
2633.934	1.113	correct	observe	Run3	observe/STIM_004.jpg
2638.61	0.957	correct	observe	Run3	observe/STIM_004.jpg
2642.069	1.179	correct	observe	Run3	observe/STIM_004.jpg
2645.964	1.146	incorrect	observe	Run3	observe/STIM_004.jpg
2649.395	1.07	correct	observe	Run3	observe/STIM_005.jpg
2653.59	1.491	correct	observe	Run3	observe/STIM_005.jpg
2658.702	1.334	incorrect	observe	Run3	observe/STIM_005.jpg
2662.209	1.712	correct	observe	Run3	observe/STIM_005.jpg
2667.358	1.121	correct	observe	Run3	observe/STIM_006.jpg
2670.787	1.699	correct	observe	Run3	observe/STIM_006.jpg
2675.151	0.972	correct	observe	Run3	observe/STIM_006.jpg
2678.767	1.495	correct	observe	Run3	observe/STIM_006.jpg
2682.875	1.714	correct	observe	Run3	observe/STIM_007.jpg
2687.904	1.341	correct	observe	Run3	observe/STIM_007.jpg
2691.926	0.959	correct	observe	Run3	observe/STIM_007.jpg
2695.551	1.503	correct	observe	Run3	observe/STIM_007.jpg
2700.499	1.027	correct	observe	Run3	observe/STIM_008.jpg
2704.193	0.968	correct	observe	Run3	observe/STIM_008.jpg
2708.178	1.027	correct	observe	Run3	observe/STIM_008.jpg
2712.879	1.556	correct	observe	Run3	observe/STIM_008.jpg
2717.371	1.279	incorrect	observe	Run3	observe/STIM_009.jpg
2722.265	1.212	correct	observe	Run3	observe/STIM_009.jpg
2726.05	0.916	correct	observe	Run3	observe/STIM_009.jpg
2729.45	1.233	correct	observe	Run3	observe/STIM_009.jpg
2733.889	0.963	correct	observe	Run3	observe/STIM_010.jpg
2737.514	1.075	correct	observe	Run3	observe/STIM_010.jpg
2741.103	1.003	correct	observe	Run3	observe/STIM_010.jpg
2744.27	1.344	correct	observe	Run3	observe/STIM_010.jpg
2749.599	1.456	correct	observe	Run3	observe/STIM_011.jpg
2753.194	1.442	correct	observe	Run3	observe/STIM_011.jpg
2758.306	1.202	correct	observe	Run3	observe/STIM_011.jpg
2762.857	1.092	correct	observe	Run3	observe/STIM_011.jpg
2767.269	1.633	incorrect	observe	Run3	observe/STIM_012.jpg
2772.113	1.399	correct	observe	Run3	observe/STIM_012.jpg
2776.099	1.153	correct	observe	Run3	observe/STIM_012.jpg
2779.791	1.188	incorrect	observe	Run3	observe/STIM_012.jpg
2783.066	0.899	correct	observe	Run3	observe/STIM_013.jpg
2787.421	0.886	correct	observe	Run3	observe/STIM_013.jpg
2792.055	1.081	correct	observe	Run3	observe/STIM_013.jpg
2795.686	1.095	correct	observe	Run3	observe/STIM_013.jpg
2800.399	1.232	incorrect	observe	Run3	observe/STIM_014.jpg
2805.021	1.664	correct	observe	Run3	observe/STIM_014.jpg
2809.011	1.391	correct	observe	Run3	observe/STIM_014.jpg
2812.806	1.027	incorrect	observe	Run3	observe/STIM_014.jpg
2817.443	1.343	incorrect	observe	Run3	observe/STIM_015.jpg
2821.855	0.941	correct	observe	Run3	observe/STIM_015.jpg
2826.216	1.547	correct	observe	Run3	observe/STIM_015.jpg
2830.897	1.384	correct	observe	Run3	observe/STIM_015.jpg
2835.286	1.358	correct	observe	Run3	observe/STIM_016.jpg
2838.812	1.21	correct	observe	Run3	observe/STIM_016.jpg
2842.858	1.112	correct	observe	Run3	observe/STIM_016.jpg
2846.639	1.082	correct	observe	Run3	observe/STIM_016.jpg
2851.205	1.311	correct	observe	Run3	observe/STIM_017.jpg
2855.977	1.013	correct	observe	Run3	observe/STIM_017.jpg
2859.797	1.58	correct	observe	Run3	observe/STIM_017.jpg
2863.58	1.638	correct	observe	Run3	observe/STIM_017.jpg
2868.412	1.338	correct	observe	Run3	observe/STIM_018.jpg
2873.505	1.699	correct	observe	Run3	observe/STIM_018.jpg
2879.168	1.294	correct	observe	Run3	observe/STIM_018.jpg
2884.251	1.73	correct	observe	Run3	observe/STIM_018.jpg
2888.752	1.344	incorrect	observe	Run3	observe/STIM_019.jpg
2893.87	0.931	correct	observe	Run3	observe/STIM_019.jpg
2898.133	1.291	correct	observe	Run3	observe/STIM_019.jpg
2903.089	1.059	correct	observe	Run3	observe/STIM_019.jpg
