onset	duration	accuracy	trial_type	learning_stage	stimulus
0.0	2.585	correct	regulate	Run1	regulate/STIM_000.jpg
6.544	1.859	correct	regulate	Run1	regulate/STIM_000.jpg
11.243	2.324	correct	regulate	Run1	regulate/STIM_000.jpg
17.567	1.706	incorrect	regulate	Run1	regulate/STIM_000.jpg
21.832	2.063	correct	regulate	Run1	regulate/STIM_001.jpg
27.984	1.801	correct	regulate	Run1	regulate/STIM_001.jpg
33.011	2.786	correct	regulate	Run1	regulate/STIM_001.jpg
39.941	1.626	correct	regulate	Run1	regulate/STIM_001.jpg
44.76	2.862	correct	regulate	Run1	regulate/STIM_002.jpg
51.497	2.812	correct	regulate	Run1	regulate/STIM_002.jpg
58.397	2.533	correct	regulate	Run1	regulate/STIM_002.jpg
64.096	1.714	correct	regulate	Run1	regulate/STIM_002.jpg
68.235	2.444	correct	regulate	Run1	regulate/STIM_003.jpg
73.163	3.019	incorrect	regulate	Run1	regulate/STIM_003.jpg
79.025	2.466	incorrect	regulate	Run1	regulate/STIM_003.jpg
83.755	2.251	correct	regulate	Run1	regulate/STIM_003.jpg
89.89	2.292	correct	regulate	Run1	regulate/STIM_004.jpg
95.145	2.859	incorrect	regulate	Run1	regulate/STIM_004.jpg
101.4	1.61	correct	regulate	Run1	regulate/STIM_004.jpg
106.03	2.568	correct	regulate	Run1	regulate/STIM_004.jpg
112.843	1.6	correct	regulate	Run1	regulate/STIM_005.jpg
117.32	3.053	correct	regulate	Run1	regulate/STIM_005.jpg
123.305	2.323	incorrect	regulate	Run1	regulate/STIM_005.jpg
127.991	2.617	correct	regulate	Run1	regulate/STIM_005.jpg
133.377	1.642	correct	regulate	Run1	regulate/STIM_006.jpg
138.975	1.67	correct	regulate	Run1	regulate/STIM_006.jpg
143.657	1.602	correct	regulate	Run1	regulate/STIM_006.jpg
147.709	1.774	correct	regulate	Run1	regulate/STIM_006.jpg
151.76	1.838	correct	regulate	Run1	regulate/STIM_007.jpg
156.011	2.473	correct	regulate	Run1	regulate/STIM_007.jpg
162.147	2.096	correct	regulate	Run1	regulate/STIM_007.jpg
166.888	2.01	correct	regulate	Run1	regulate/STIM_007.jpg
172.783	2.205	incorrect	regulate	Run1	regulate/STIM_008.jpg
178.348	2.08	correct	regulate	Run1	regulate/STIM_008.jpg
183.059	2.892	correct	regulate	Run1	regulate/STIM_008.jpg
188.671	1.403	correct	regulate	Run1	regulate/STIM_008.jpg
192.235	1.543	incorrect	regulate	Run1	regulate/STIM_009.jpg
196.582	1.927	correct	regulate	Run1	regulate/STIM_009.jpg
202.328	1.33	incorrect	regulate	Run1	regulate/STIM_009.jpg
207.289	2.263	correct	regulate	Run1	regulate/STIM_009.jpg
211.677	2.55	correct	regulate	Run1	regulate/STIM_010.jpg
217.473	2.935	incorrect	regulate	Run1	regulate/STIM_010.jpg
222.817	2.905	incorrect	regulate	Run1	regulate/STIM_010.jpg
228.24	2.334	correct	regulate	Run1	regulate/STIM_010.jpg
234.562	1.666	correct	regulate	Run1	regulate/STIM_011.jpg
238.525	2.628	correct	regulate	Run1	regulate/STIM_011.jpg
244.401	2.787	incorrect	regulate	Run1	regulate/STIM_011.jpg
249.414	2.468	correct	regulate	Run1	regulate/STIM_011.jpg
254.746	2.683	correct	regulate	Run1	regulate/STIM_012.jpg
261.369	1.439	correct	regulate	Run1	regulate/STIM_012.jpg
265.978	1.738	correct	regulate	Run1	regulate/STIM_012.jpg
271.301	1.466	correct	regulate	Run1	regulate/STIM_012.jpg
275.367	2.992	incorrect	regulate	Run1	regulate/STIM_013.jpg
280.67	2.895	incorrect	regulate	Run1	regulate/STIM_013.jpg
286.844	2.581	correct	regulate	Run1	regulate/STIM_013.jpg
293.455	2.737	correct	regulate	Run1	regulate/STIM_013.jpg
299.656	2.192	correct	regulate	Run1	regulate/STIM_014.jpg
304.436	1.898	correct	regulate	Run1	regulate/STIM_014.jpg
309.684	2.22	correct	regulate	Run1	regulate/STIM_014.jpg
315.488	2.524	correct	regulate	Run1	regulate/STIM_014.jpg
320.608	2.684	incorrect	regulate	Run1	regulate/STIM_015.jpg
325.656	2.184	incorrect	regulate	Run1	regulate/STIM_015.jpg
330.315	2.604	correct	regulate	Run1	regulate/STIM_015.jpg
335.155	1.407	correct	regulate	Run1	regulate/STIM_015.jpg
340.391	2.226	incorrect	regulate	Run1	regulate/STIM_016.jpg
346.592	2.18	correct	regulate	Run1	regulate/STIM_016.jpg
351.08	2.844	correct	regulate	Run1	regulate/STIM_016.jpg
357.861	1.997	incorrect	regulate	Run1	regulate/STIM_016.jpg
363.079	2.457	correct	regulate	Run1	regulate/STIM_017.jpg
368.179	1.482	correct	regulate	Run1	regulate/STIM_017.jpg
372.916	1.749	correct	regulate	Run1	regulate/STIM_017.jpg
378.737	1.253	correct	regulate	Run1	regulate/STIM_017.jpg
382.334	2.391	correct	regulate	Run1	regulate/STIM_018.jpg
388.666	2.421	correct	regulate	Run1	regulate/STIM_018.jpg
394.704	1.592	correct	regulate	Run1	regulate/STIM_018.jpg
398.757	1.252	correct	regulate	Run1	regulate/STIM_018.jpg
403.157	2.583	correct	regulate	Run1	regulate/STIM_019.jpg
409.341	2.852	correct	regulate	Run1	regulate/STIM_019.jpg
415.311	2.831	correct	regulate	Run1	regulate/STIM_019.jpg
421.637	1.719	correct	regulate	Run1	regulate/STIM_019.jpg
426.855	1.751	correct	regulate	Run1	regulate/STIM_020.jpg
432.533	2.02	correct	regulate	Run1	regulate/STIM_020.jpg
437.667	2.267	correct	regulate	Run1	regulate/STIM_020.jpg
443.631	1.437	correct	regulate	Run1	regulate/STIM_020.jpg
448.722	1.418	correct	regulate	Run1	regulate/STIM_021.jpg
453.837	2.879	correct	regulate	Run1	regulate/STIM_021.jpg
460.351	2.924	correct	regulate	Run1	regulate/STIM_021.jpg
465.885	2.71	correct	regulate	Run1	regulate/STIM_021.jpg
471.481	1.884	incorrect	regulate	Run1	regulate/STIM_022.jpg
477.109	2.381	correct	regulate	Run1	regulate/STIM_022.jpg
482.618	2.525	correct	regulate	Run1	regulate/STIM_022.jpg
489.282	2.545	correct	regulate	Run1	regulate/STIM_022.jpg
494.415	2.476	correct	regulate	Run1	regulate/STIM_023.jpg
499.021	2.902	incorrect	regulate	Run1	regulate/STIM_023.jpg
505.95	2.313	correct	regulate	Run1	regulate/STIM_023.jpg
511.609	2.324	correct	regulate	Run1	regulate/STIM_023.jpg
517.528	1.712	correct	regulate	Run1	regulate/STIM_024.jpg
522.999	2.246	correct	regulate	Run1	regulate/STIM_024.jpg
529.056	1.841	correct	regulate	Run1	regulate/STIM_024.jpg
533.32	2.453	correct	regulate	Run1	regulate/STIM_024.jpg
539.922	2.758	correct	regulate	Run1	regulate/STIM_025.jpg
545.08	1.611	correct	regulate	Run1	regulate/STIM_025.jpg
549.087	1.278	correct	regulate	Run1	regulate/STIM_025.jpg
553.335	1.375	correct	regulate	Run1	regulate/STIM_025.jpg
558.781	2.027	correct	regulate	Run1	regulate/STIM_026.jpg
563.201	1.593	correct	regulate	Run1	regulate/STIM_026.jpg
567.784	2.57	correct	regulate	Run1	regulate/STIM_026.jpg
572.955	2.485	correct	regulate	Run1	regulate/STIM_026.jpg
578.64	2.55	correct	regulate	Run1	regulate/STIM_027.jpg
584.428	2.145	correct	regulate	Run1	regulate/STIM_027.jpg
589.995	2.262	correct	regulate	Run1	regulate/STIM_027.jpg
595.994	2.814	correct	regulate	Run1	regulate/STIM_027.jpg
601.34	2.155	correct	regulate	Run1	regulate/STIM_028.jpg
606.155	1.659	correct	regulate	Run1	regulate/STIM_028.jpg
611.519	2.122	correct	regulate	Run1	regulate/STIM_028.jpg
615.868	1.157	incorrect	regulate	Run1	regulate/STIM_028.jpg
620.75	2.17	correct	regulate	Run1	regulate/STIM_029.jpg
625.501	2.839	correct	regulate	Run1	regulate/STIM_029.jpg
630.98	1.934	correct	regulate	Run1	regulate/STIM_029.jpg
635.884	1.461	incorrect	regulate	Run1	regulate/STIM_029.jpg
640.935	0.923	correct	observe	Run1	observe/STIM_000.jpg
645.229	1.13	incorrect	observe	Run1	observe/STIM_000.jpg
650.458	1.478	correct	observe	Run1	observe/STIM_000.jpg
654.944	0.982	correct	observe	Run1	observe/STIM_000.jpg
658.63	0.846	correct	observe	Run1	observe/STIM_001.jpg
662.437	0.79	correct	observe	Run1	observe/STIM_001.jpg
666.737	1.153	correct	observe	Run1	observe/STIM_001.jpg
670.772	0.901	incorrect	observe	Run1	observe/STIM_001.jpg
675.175	1.486	correct	observe	Run1	observe/STIM_002.jpg
679.28	0.98	correct	observe	Run1	observe/STIM_002.jpg
682.933	1.05	correct	observe	Run1	observe/STIM_002.jpg
686.501	1.38	correct	observe	Run1	observe/STIM_002.jpg
692.065	1.263	correct	observe	Run1	observe/STIM_003.jpg
697.435	1.436	correct	observe	Run1	observe/STIM_003.jpg
701.574	1.251	correct	observe	Run1	observe/STIM_003.jpg
705.07	0.717	correct	observe	Run1	observe/STIM_003.jpg
708.659	0.878	correct	observe	Run1	observe/STIM_004.jpg
713.137	0.784	correct	observe	Run1	observe/STIM_004.jpg
717.491	0.783	correct	observe	Run1	observe/STIM_004.jpg
720.677	0.94	correct	observe	Run1	observe/STIM_004.jpg
723.789	0.765	correct	observe	Run1	observe/STIM_005.jpg
728.179	0.702	correct	observe	Run1	observe/STIM_005.jpg
732.187	1.371	correct	observe	Run1	observe/STIM_005.jpg
737.113	1.412	correct	observe	Run1	observe/STIM_005.jpg
742.048	1.206	correct	observe	Run1	observe/STIM_006.jpg
745.823	1.502	correct	observe	Run1	observe/STIM_006.jpg
750.955	0.746	correct	observe	Run1	observe/STIM_006.jpg
755.713	0.914	correct	observe	Run1	observe/STIM_006.jpg
760.064	0.94	correct	observe	Run1	observe/STIM_007.jpg
764.447	1.439	correct	observe	Run1	observe/STIM_007.jpg
769.552	1.098	correct	observe	Run1	observe/STIM_007.jpg
772.961	1.043	correct	observe	Run1	observe/STIM_007.jpg
777.231	1.397	correct	observe	Run1	observe/STIM_008.jpg
781.214	1.471	correct	observe	Run1	observe/STIM_008.jpg
786.207	0.779	correct	observe	Run1	observe/STIM_008.jpg
790.525	0.921	incorrect	observe	Run1	observe/STIM_008.jpg
794.884	0.856	correct	observe	Run1	observe/STIM_009.jpg
799.129	1.13	correct	observe	Run1	observe/STIM_009.jpg
802.931	1.195	correct	observe	Run1	observe/STIM_009.jpg
807.661	0.72	correct	observe	Run1	observe/STIM_009.jpg
811.656	1.302	correct	observe	Run1	observe/STIM_010.jpg
816.47	1.504	correct	observe	Run1	observe/STIM_010.jpg
820.885	0.855	correct	observe	Run1	observe/STIM_010.jpg
824.384	1.024	correct	observe	Run1	observe/STIM_010.jpg
828.612	0.938	correct	observe	Run1	observe/STIM_011.jpg
833.38	1.127	incorrect	observe	Run1	observe/STIM_011.jpg
837.518	1.138	correct	observe	Run1	observe/STIM_011.jpg
841.451	1.44	correct	observe	Run1	observe/STIM_011.jpg
846.345	1.174	correct	observe	Run1	observe/STIM_012.jpg
851.298	1.006	correct	observe	Run1	observe/STIM_012.jpg
855.428	1.023	correct	observe	Run1	observe/STIM_012.jpg
858.498	1.157	correct	observe	Run1	observe/STIM_012.jpg
862.213	0.977	correct	observe	Run1	observe/STIM_013.jpg
865.406	0.884	correct	observe	Run1	observe/STIM_013.jpg
869.191	1.296	correct	observe	Run1	observe/STIM_013.jpg
873.482	0.928	correct	observe	Run1	observe/STIM_013.jpg
877.344	0.836	correct	observe	Run1	observe/STIM_014.jpg
881.735	1.254	correct	observe	Run1	observe/STIM_014.jpg
885.482	1.116	incorrect	observe	Run1	observe/STIM_014.jpg
889.659	1.164	correct	observe	Run1	observe/STIM_014.jpg
894.874	0.791	correct	observe	Run1	observe/STIM_015.jpg
899.526	1.353	correct	observe	Run1	observe/STIM_015.jpg
903.262	1.178	correct	observe	Run1	observe/STIM_015.jpg
907.371	1.374	correct	observe	Run1	observe/STIM_015.jpg
911.616	0.941	correct	observe	Run1	observe/STIM_016.jpg
916.557	1.41	correct	observe	Run1	observe/STIM_016.jpg
920.155	1.158	incorrect	observe	Run1	observe/STIM_016.jpg
923.597	1.044	correct	observe	Run1	observe/STIM_016.jpg
927.057	0.914	correct	observe	Run1	observe/STIM_017.jpg
930.234	0.798	correct	observe	Run1	observe/STIM_017.jpg
933.878	0.85	correct	observe	Run1	observe/STIM_017.jpg
937.606	0.834	incorrect	observe	Run1	observe/STIM_017.jpg
941.725	1.296	incorrect	observe	Run1	observe/STIM_018.jpg
946.093	1.334	correct	observe	Run1	observe/STIM_018.jpg
951.419	1.204	correct	observe	Run1	observe/STIM_018.jpg
955.452	1.096	correct	observe	Run1	observe/STIM_018.jpg
959.336	1.115	correct	observe	Run1	observe/STIM_019.jpg
962.579	0.776	correct	observe	Run1	observe/STIM_019.jpg
967.209	1.186	correct	observe	Run1	observe/STIM_019.jpg
970.875	1.486	incorrect	observe	Run1	observe/STIM_019.jpg
975.687	1.925	correct	regulate	Run2	regulate/STIM_000.jpg
980.874	2.316	correct	regulate	Run2	regulate/STIM_000.jpg
985.737	1.181	incorrect	regulate	Run2	regulate/STIM_000.jpg
990.707	2.045	correct	regulate	Run2	regulate/STIM_000.jpg
995.295	2.713	correct	regulate	Run2	regulate/STIM_001.jpg
1000.52	1.499	correct	regulate	Run2	regulate/STIM_001.jpg
1005.898	1.582	correct	regulate	Run2	regulate/STIM_001.jpg
1010.08	2.229	correct	regulate	Run2	regulate/STIM_001.jpg
1014.581	2.71	correct	regulate	Run2	regulate/STIM_002.jpg
1020.837	1.414	correct	regulate	Run2	regulate/STIM_002.jpg
1026.296	1.618	correct	regulate	Run2	regulate/STIM_002.jpg
1031.334	1.118	correct	regulate	Run2	regulate/STIM_002.jpg
1035.719	1.768	correct	regulate	Run2	regulate/STIM_003.jpg
1040.202	1.874	correct	regulate	Run2	regulate/STIM_003.jpg
1044.73	1.994	correct	regulate	Run2	regulate/STIM_003.jpg
1049.733	2.138	correct	regulate	Run2	regulate/STIM_003.jpg
1055.793	1.496	correct	regulate	Run2	regulate/STIM_004.jpg
1060.316	1.56	correct	regulate	Run2	regulate/STIM_004.jpg
1065.052	1.417	correct	regulate	Run2	regulate/STIM_004.jpg
1069.762	1.448	correct	regulate	Run2	regulate/STIM_004.jpg
1073.849	2.082	correct	regulate	Run2	regulate/STIM_005.jpg
1078.444	2.51	correct	regulate	Run2	regulate/STIM_005.jpg
1083.142	1.245	incorrect	regulate	Run2	regulate/STIM_005.jpg
1087.628	2.062	correct	regulate	Run2	regulate/STIM_005.jpg
1093.132	1.394	correct	regulate	Run2	regulate/STIM_006.jpg
1097.589	1.719	correct	regulate	Run2	regulate/STIM_006.jpg
1101.715	1.394	correct	regulate	Run2	regulate/STIM_006.jpg
1106.249	2.039	correct	regulate	Run2	regulate/STIM_006.jpg
1112.233	1.496	correct	regulate	Run2	regulate/STIM_007.jpg
1117.32	1.516	correct	regulate	Run2	regulate/STIM_007.jpg
1121.82	1.78	correct	regulate	Run2	regulate/STIM_007.jpg
1126.734	1.098	correct	regulate	Run2	regulate/STIM_007.jpg
1130.675	2.241	correct	regulate	Run2	regulate/STIM_008.jpg
1136.931	1.55	correct	regulate	Run2	regulate/STIM_008.jpg
1141.576	2.478	correct	regulate	Run2	regulate/STIM_008.jpg
1147.767	2.109	correct	regulate	Run2	regulate/STIM_008.jpg
1152.528	1.983	correct	regulate	Run2	regulate/STIM_009.jpg
1156.94	2.191	correct	regulate	Run2	regulate/STIM_009.jpg
1161.897	2.232	correct	regulate	Run2	regulate/STIM_009.jpg
1166.991	1.296	correct	regulate	Run2	regulate/STIM_009.jpg
1170.672	1.653	correct	regulate	Run2	regulate/STIM_010.jpg
1175.067	2.145	correct	regulate	Run2	regulate/STIM_010.jpg
1179.831	2.464	incorrect	regulate	Run2	regulate/STIM_010.jpg
1185.795	1.448	correct	regulate	Run2	regulate/STIM_010.jpg
1189.696	1.956	correct	regulate	Run2	regulate/STIM_011.jpg
1194.962	2.259	correct	regulate	Run2	regulate/STIM_011.jpg
1199.855	1.421	correct	regulate	Run2	regulate/STIM_011.jpg
1205.317	1.986	correct	regulate	Run2	regulate/STIM_011.jpg
1210.634	1.809	correct	regulate	Run2	regulate/STIM_012.jpg
1215.294	1.9	correct	regulate	Run2	regulate/STIM_012.jpg
1219.505	1.436	correct	regulate	Run2	regulate/STIM_012.jpg
1224.335	2.073	correct	regulate	Run2	regulate/STIM_012.jpg
1229.369	1.816	correct	regulate	Run2	regulate/STIM_013.jpg
1233.569	2.272	correct	regulate	Run2	regulate/STIM_013.jpg
1239.058	1.173	correct	regulate	Run2	regulate/STIM_013.jpg
1242.559	1.267	correct	regulate	Run2	regulate/STIM_013.jpg
1245.971	2.105	incorrect	regulate	Run2	regulate/STIM_014.jpg
1250.418	2.231	correct	regulate	Run2	regulate/STIM_014.jpg
1254.891	2.145	correct	regulate	Run2	regulate/STIM_014.jpg
1260.734	1.83	correct	regulate	Run2	regulate/STIM_014.jpg
1265.662	1.808	correct	regulate	Run2	regulate/STIM_015.jpg
1270.415	1.141	correct	regulate	Run2	regulate/STIM_015.jpg
1273.989	2.132	correct	regulate	Run2	regulate/STIM_015.jpg
1278.712	1.759	correct	regulate	Run2	regulate/STIM_015.jpg
1283.699	2.52	correct	regulate	Run2	regulate/STIM_016.jpg
1288.993	1.522	correct	regulate	Run2	regulate/STIM_016.jpg
1294.025	2.081	correct	regulate	Run2	regulate/STIM_016.jpg
1299.989	1.542	correct	regulate	Run2	regulate/STIM_016.jpg
1304.746	1.718	correct	regulate	Run2	regulate/STIM_017.jpg
1309.263	1.667	incorrect	regulate	Run2	regulate/STIM_017.jpg
1314.778	1.154	correct	regulate	Run2	regulate/STIM_017.jpg
1319.65	1.813	correct	regulate	Run2	regulate/STIM_017.jpg
1324.641	1.732	correct	regulate	Run2	regulate/STIM_018.jpg
1330.407	2.527	correct	regulate	Run2	regulate/STIM_018.jpg
1336.964	1.658	correct	regulate	Run2	regulate/STIM_018.jpg
1341.372	1.169	correct	regulate	Run2	regulate/STIM_018.jpg
1345.54	2.806	correct	regulate	Run2	regulate/STIM_019.jpg
1350.539	2.66	correct	regulate	Run2	regulate/STIM_019.jpg
1355.836	2.351	correct	regulate	Run2	regulate/STIM_019.jpg
1361.57	1.75	incorrect	regulate	Run2	regulate/STIM_019.jpg
1365.838	1.902	incorrect	regulate	Run2	regulate/STIM_020.jpg
1369.976	1.607	correct	regulate	Run2	regulate/STIM_020.jpg
1373.838	1.502	correct	regulate	Run2	regulate/STIM_020.jpg
1378.126	1.408	correct	regulate	Run2	regulate/STIM_020.jpg
1381.652	2.364	correct	regulate	Run2	regulate/STIM_021.jpg
1387.451	1.948	incorrect	regulate	Run2	regulate/STIM_021.jpg
1391.911	1.072	correct	regulate	Run2	regulate/STIM_021.jpg
1395.117	2.081	correct	regulate	Run2	regulate/STIM_021.jpg
1399.61	1.948	incorrect	regulate	Run2	regulate/STIM_022.jpg
1404.486	1.383	correct	regulate	Run2	regulate/STIM_022.jpg
1408.365	1.346	correct	regulate	Run2	regulate/STIM_022.jpg
1412.816	1.162	correct	regulate	Run2	regulate/STIM_022.jpg
1417.634	1.756	correct	regulate	Run2	regulate/STIM_023.jpg
1422.964	2.066	correct	regulate	Run2	regulate/STIM_023.jpg
1427.938	1.63	correct	regulate	Run2	regulate/STIM_023.jpg
1433.491	1.41	correct	regulate	Run2	regulate/STIM_023.jpg
1437.798	2.115	correct	regulate	Run2	regulate/STIM_024.jpg
1442.751	2.438	correct	regulate	Run2	regulate/STIM_024.jpg
1448.415	2.138	correct	regulate	Run2	regulate/STIM_024.jpg
1453.692	1.108	correct	regulate	Run2	regulate/STIM_024.jpg
1458.075	2.778	correct	regulate	Run2	regulate/STIM_025.jpg
1464.972	2.103	correct	regulate	Run2	regulate/STIM_025.jpg
1470.715	1.627	correct	regulate	Run2	regulate/STIM_025.jpg
1475.272	1.151	correct	regulate	Run2	regulate/STIM_025.jpg
1479.195	1.606	correct	regulate	Run2	regulate/STIM_026.jpg
1484.616	2.399	incorrect	regulate	Run2	regulate/STIM_026.jpg
1490.289	1.615	correct	regulate	Run2	regulate/STIM_026.jpg
1494.254	1.03	incorrect	regulate	Run2	regulate/STIM_026.jpg
1497.371	1.569	incorrect	regulate	Run2	regulate/STIM_027.jpg
1501.928	1.802	correct	regulate	Run2	regulate/STIM_027.jpg
1507.299	1.984	correct	regulate	Run2	regulate/STIM_027.jpg
1512.63	2.035	correct	regulate	Run2	regulate/STIM_027.jpg
1516.865	1.385	correct	regulate	Run2	regulate/STIM_028.jpg
1521.37	1.612	correct	regulate	Run2	regulate/STIM_028.jpg
1525.978	1.949	correct	regulate	Run2	regulate/STIM_028.jpg
1530.947	1.961	correct	regulate	Run2	regulate/STIM_028.jpg
1536.871	1.526	correct	regulate	Run2	regulate/STIM_029.jpg
1541.202	2.553	incorrect	regulate	Run2	regulate/STIM_029.jpg
1547.339	1.786	correct	regulate	Run2	regulate/STIM_029.jpg
1551.213	1.322	correct	regulate	Run2	regulate/STIM_029.jpg
1555.981	1.312	correct	observe	Run2	observe/STIM_000.jpg
1560.768	0.964	correct	observe	Run2	observe/STIM_000.jpg
1564.693	1.395	correct	observe	Run2	observe/STIM_000.jpg
1568.791	1.46	correct	observe	Run2	observe/STIM_000.jpg
1572.895	1.006	correct	observe	Run2	observe/STIM_001.jpg
1576.545	0.916	correct	observe	Run2	observe/STIM_001.jpg
1581.239	1.068	correct	observe	Run2	observe/STIM_001.jpg
1585.477	0.759	correct	observe	Run2	observe/STIM_001.jpg
1590.238	1.216	correct	observe	Run2	observe/STIM_002.jpg
1595.178	1.329	correct	observe	Run2	observe/STIM_002.jpg
1599.562	1.028	incorrect	observe	Run2	observe/STIM_002.jpg
1602.935	1.267	correct	observe	Run2	observe/STIM_002.jpg
1607.273	0.815	correct	observe	Run2	observe/STIM_003.jpg
1610.371	1.387	correct	observe	Run2	observe/STIM_003.jpg
1614.829	1.587	correct	observe	Run2	observe/STIM_003.jpg
1618.853	1.446	correct	observe	Run2	observe/STIM_003.jpg
1623.152	1.147	correct	observe	Run2	observe/STIM_004.jpg
1628.114	1.192	correct	observe	Run2	observe/STIM_004.jpg
1633.304	1.152	correct	observe	Run2	observe/STIM_004.jpg
1637.806	0.927	correct	observe	Run2	observe/STIM_004.jpg
1642.681	0.774	correct	observe	Run2	observe/STIM_005.jpg
1646.152	1.227	correct	observe	Run2	observe/STIM_005.jpg
1651.221	1.37	correct	observe	Run2	observe/STIM_005.jpg
1655.635	1.15	correct	observe	Run2	observe/STIM_005.jpg
1660.132	1.058	correct	observe	Run2	observe/STIM_006.jpg
1663.937	0.799	correct	observe	Run2	observe/STIM_006.jpg
1667.201	1.164	correct	observe	Run2	observe/STIM_006.jpg
1670.93	1.225	correct	observe	Run2	observe/STIM_006.jpg
1675.054	0.866	correct	observe	Run2	observe/STIM_007.jpg
1678.525	1.148	correct	observe	Run2	observe/STIM_007.jpg
1682.387	1.044	correct	observe	Run2	observe/STIM_007.jpg
1687.102	0.928	correct	observe	Run2	observe/STIM_007.jpg
1690.65	1.16	correct	observe	Run2	observe/STIM_008.jpg
1695.361	1.048	correct	observe	Run2	observe/STIM_008.jpg
1698.493	1.262	correct	observe	Run2	observe/STIM_008.jpg
1703.11	0.944	correct	observe	Run2	observe/STIM_008.jpg
1706.89	0.824	correct	observe	Run2	observe/STIM_009.jpg
1710.815	1.436	correct	observe	Run2	observe/STIM_009.jpg
1714.389	1.247	correct	observe	Run2	observe/STIM_009.jpg
1719.672	1.202	correct	observe	Run2	observe/STIM_009.jpg
1724.002	1.215	correct	observe	Run2	observe/STIM_010.jpg
1727.307	1.528	correct	observe	Run2	observe/STIM_010.jpg
1732.263	1.129	correct	observe	Run2	observe/STIM_010.jpg
1736.583	0.94	incorrect	observe	Run2	observe/STIM_010.jpg
1739.921	1.22	correct	observe	Run2	observe/STIM_011.jpg
1743.91	1.33	correct	observe	Run2	observe/STIM_011.jpg
1749.299	0.853	correct	observe	Run2	observe/STIM_011.jpg
1753.301	1.15	correct	observe	Run2	observe/STIM_011.jpg
1756.875	1.37	correct	observe	Run2	observe/STIM_012.jpg
1760.687	1.018	correct	observe	Run2	observe/STIM_012.jpg
1764.404	1.138	correct	observe	Run2	observe/STIM_012.jpg
1769.476	0.989	correct	observe	Run2	observe/STIM_012.jpg
1773.046	0.783	correct	observe	Run2	observe/STIM_013.jpg
1776.877	0.976	correct	observe	Run2	observe/STIM_013.jpg
1781.49	1.386	correct	observe	Run2	observe/STIM_013.jpg
1786.701	0.813	incorrect	observe	Run2	observe/STIM_013.jpg
1790.212	0.989	correct	observe	Run2	observe/STIM_014.jpg
1793.828	0.968	correct	observe	Run2	observe/STIM_014.jpg
1797.049	1.316	correct	observe	Run2	observe/STIM_014.jpg
1802.163	1.17	correct	observe	Run2	observe/STIM_014.jpg
1807.452	1.056	incorrect	observe	Run2	observe/STIM_015.jpg
1811.681	1.398	correct	observe	Run2	observe/STIM_015.jpg
1816.948	1.154	correct	observe	Run2	observe/STIM_015.jpg
1821.575	0.892	incorrect	observe	Run2	observe/STIM_015.jpg
1826.341	0.893	correct	observe	Run2	observe/STIM_016.jpg
1831.014	1.085	correct	observe	Run2	observe/STIM_016.jpg
1835.738	1.297	correct	observe	Run2	observe/STIM_016.jpg
1840.784	0.97	correct	observe	Run2	observe/STIM_016.jpg
1844.852	1.486	correct	observe	Run2	observe/STIM_017.jpg
1849.048	1.109	correct	observe	Run2	observe/STIM_017.jpg
1853.905	1.106	correct	observe	Run2	observe/STIM_017.jpg
1858.155	1.278	correct	observe	Run2	observe/STIM_017.jpg
1861.826	1.088	correct	observe	Run2	observe/STIM_018.jpg
1866.015	0.868	incorrect	observe	Run2	observe/STIM_018.jpg
1870.946	1.294	correct	observe	Run2	observe/STIM_018.jpg
1875.224	0.862	correct	observe	Run2	observe/STIM_018.jpg
1878.799	0.754	correct	observe	Run2	observe/STIM_019.jpg
1881.783	0.907	incorrect	observe	Run2	observe/STIM_019.jpg
1885.668	0.768	correct	observe	Run2	observe/STIM_019.jpg
1888.625	1.485	correct	observe	Run2	observe/STIM_019.jpg
1892.315	1.783	correct	regulate	Run3	regulate/STIM_000.jpg
1897.078	1.043	correct	regulate	Run3	regulate/STIM_000.jpg
1901.894	1.505	correct	regulate	Run3	regulate/STIM_000.jpg
1907.092	1.906	correct	regulate	Run3	regulate/STIM_000.jpg
1911.389	1.66	correct	regulate	Run3	regulate/STIM_001.jpg
1916.581	1.992	correct	regulate	Run3	regulate/STIM_001.jpg
1922.379	2.204	correct	regulate	Run3	regulate/STIM_001.jpg
1928.029	1.478	correct	regulate	Run3	regulate/STIM_001.jpg
1932.032	1.076	correct	regulate	Run3	regulate/STIM_002.jpg
1936.677	1.466	correct	regulate	Run3	regulate/STIM_002.jpg
1941.788	1.784	correct	regulate	Run3	regulate/STIM_002.jpg
1946.597	1.604	incorrect	regulate	Run3	regulate/STIM_002.jpg
1952.146	1.944	correct	regulate	Run3	regulate/STIM_003.jpg
1957.009	1.06	correct	regulate	Run3	regulate/STIM_003.jpg
1960.339	1.981	correct	regulate	Run3	regulate/STIM_003.jpg
1965.339	1.416	correct	regulate	Run3	regulate/STIM_003.jpg
1969.222	1.651	correct	regulate	Run3	regulate/STIM_004.jpg
1973.456	2.125	correct	regulate	Run3	regulate/STIM_004.jpg
1978.614	2.199	correct	regulate	Run3	regulate/STIM_004.jpg
1983.09	1.98	correct	regulate	Run3	regulate/STIM_004.jpg
1987.344	2.103	correct	regulate	Run3	regulate/STIM_005.jpg
1993.252	1.66	correct	regulate	Run3	regulate/STIM_005.jpg
1998.286	1.769	correct	regulate	Run3	regulate/STIM_005.jpg
2003.963	1.029	correct	regulate	Run3	regulate/STIM_005.jpg
2007.393	1.907	correct	regulate	Run3	regulate/STIM_006.jpg
2012.561	1.323	correct	regulate	Run3	regulate/STIM_006.jpg
2017.707	2.326	correct	regulate	Run3	regulate/STIM_006.jpg
2023.561	1.156	correct	regulate	Run3	regulate/STIM_006.jpg
2028.362	1.969	correct	regulate	Run3	regulate/STIM_007.jpg
2032.571	1.469	correct	regulate	Run3	regulate/STIM_007.jpg
2036.839	2.113	correct	regulate	Run3	regulate/STIM_007.jpg
2041.721	1.039	correct	regulate	Run3	regulate/STIM_007.jpg
2045.436	0.984	correct	regulate	Run3	regulate/STIM_008.jpg
2049.177	1.745	correct	regulate	Run3	regulate/STIM_008.jpg
2054.865	1.558	correct	regulate	Run3	regulate/STIM_008.jpg
2058.538	2.068	correct	regulate	Run3	regulate/STIM_008.jpg
2063.558	1.522	correct	regulate	Run3	regulate/STIM_009.jpg
2069.254	1.261	correct	regulate	Run3	regulate/STIM_009.jpg
2072.906	1.199	correct	regulate	Run3	regulate/STIM_009.jpg
2076.1	1.666	correct	regulate	Run3	regulate/STIM_009.jpg
2080.469	1.911	correct	regulate	Run3	regulate/STIM_010.jpg
2085.962	1.156	correct	regulate	Run3	regulate/STIM_010.jpg
2090.27	1.753	correct	regulate	Run3	regulate/STIM_010.jpg
2095.512	2.271	correct	regulate	Run3	regulate/STIM_010.jpg
2101.103	2.116	correct	regulate	Run3	regulate/STIM_011.jpg
2105.662	1.184	correct	regulate	Run3	regulate/STIM_011.jpg
2109.633	1.623	correct	regulate	Run3	regulate/STIM_011.jpg
2113.583	1.443	correct	regulate	Run3	regulate/STIM_011.jpg
2117.787	2.21	correct	regulate	Run3	regulate/STIM_012.jpg
2123.944	2.014	correct	regulate	Run3	regulate/STIM_012.jpg
2129.244	1.091	incorrect	regulate	Run3	regulate/STIM_012.jpg
2132.693	1.439	correct	regulate	Run3	regulate/STIM_012.jpg
2137.233	1.763	correct	regulate	Run3	regulate/STIM_013.jpg
2141.871	1.483	correct	regulate	Run3	regulate/STIM_013.jpg
2146.979	2.201	correct	regulate	Run3	regulate/STIM_013.jpg
2151.934	1.906	correct	regulate	Run3	regulate/STIM_013.jpg
2157.166	1.298	correct	regulate	Run3	regulate/STIM_014.jpg
2161.697	1.416	correct	regulate	Run3	regulate/STIM_014.jpg
2165.626	1.067	correct	regulate	Run3	regulate/STIM_014.jpg
2169.341	2.076	correct	regulate	Run3	regulate/STIM_014.jpg
2174.614	1.822	correct	regulate	Run3	regulate/STIM_015.jpg
2179.474	1.72	correct	regulate	Run3	regulate/STIM_015.jpg
2183.743	1.854	correct	regulate	Run3	regulate/STIM_015.jpg
2188.5	2.381	correct	regulate	Run3	regulate/STIM_015.jpg
2192.944	1.976	correct	regulate	Run3	regulate/STIM_016.jpg
2198.499	1.942	correct	regulate	Run3	regulate/STIM_016.jpg
2203.577	2.233	correct	regulate	Run3	regulate/STIM_016.jpg
2209.124	2.128	correct	regulate	Run3	regulate/STIM_016.jpg
2214.203	1.286	correct	regulate	Run3	regulate/STIM_017.jpg
2218.284	1.654	correct	regulate	Run3	regulate/STIM_017.jpg
2223.385	1.804	correct	regulate	Run3	regulate/STIM_017.jpg
2227.438	1.599	correct	regulate	Run3	regulate/STIM_017.jpg
2232.41	1.393	correct	regulate	Run3	regulate/STIM_018.jpg
2236.021	2.206	correct	regulate	Run3	regulate/STIM_018.jpg
2240.772	1.468	correct	regulate	Run3	regulate/STIM_018.jpg
2245.004	1.762	correct	regulate	Run3	regulate/STIM_018.jpg
2250.414	1.253	correct	regulate	Run3	regulate/STIM_019.jpg
2255.373	2.186	correct	regulate	Run3	regulate/STIM_019.jpg
2259.944	1.969	correct	regulate	Run3	regulate/STIM_019.jpg
2264.151	1.544	correct	regulate	Run3	regulate/STIM_019.jpg
2268.669	2.093	correct	regulate	Run3	regulate/STIM_020.jpg
2273.733	1.495	incorrect	regulate	Run3	regulate/STIM_020.jpg
2278.257	1.212	correct	regulate	Run3	regulate/STIM_020.jpg
2281.789	1.679	correct	regulate	Run3	regulate/STIM_020.jpg
2286.769	1.622	correct	regulate	Run3	regulate/STIM_021.jpg
2292.307	1.619	correct	regulate	Run3	regulate/STIM_021.jpg
2297.678	1.995	correct	regulate	Run3	regulate/STIM_021.jpg
2303.492	2.292	correct	regulate	Run3	regulate/STIM_021.jpg
2308.453	1.427	correct	regulate	Run3	regulate/STIM_022.jpg
2313.739	1.258	correct	regulate	Run3	regulate/STIM_022.jpg
2318.32	2.151	correct	regulate	Run3	regulate/STIM_022.jpg
2322.718	1.708	correct	regulate	Run3	regulate/STIM_022.jpg
2327.146	1.684	correct	regulate	Run3	regulate/STIM_023.jpg
2331.278	1.263	correct	regulate	Run3	regulate/STIM_023.jpg
2336.384	1.289	correct	regulate	Run3	regulate/STIM_023.jpg
2341.456	2.003	correct	regulate	Run3	regulate/STIM_023.jpg
2346.791	1.802	correct	regulate	Run3	regulate/STIM_024.jpg
2351.927	2.199	correct	regulate	Run3	regulate/STIM_024.jpg
2358.002	1.738	correct	regulate	Run3	regulate/STIM_024.jpg
2362.225	2.084	correct	regulate	Run3	regulate/STIM_024.jpg
2367.475	1.096	correct	regulate	Run3	regulate/STIM_025.jpg
2371.967	1.777	correct	regulate	Run3	regulate/STIM_025.jpg
2377.375	1.529	incorrect	regulate	Run3	regulate/STIM_025.jpg
2382.928	1.214	correct	regulate	Run3	regulate/STIM_025.jpg
2386.717	1.23	correct	regulate	Run3	regulate/STIM_026.jpg
2390.452	1.291	correct	regulate	Run3	regulate/STIM_026.jpg
2395.747	2.363	correct	regulate	Run3	regulate/STIM_026.jpg
2401.847	1.536	correct	regulate	Run3	regulate/STIM_026.jpg
2405.678	2.102	correct	regulate	Run3	regulate/STIM_027.jpg
2410.012	1.339	correct	regulate	Run3	regulate/STIM_027.jpg
2415.246	1.306	correct	regulate	Run3	regulate/STIM_027.jpg
2419.207	1.965	correct	regulate	Run3	regulate/STIM_027.jpg
2424.569	1.669	correct	regulate	Run3	regulate/STIM_028.jpg
2428.535	1.05	correct	regulate	Run3	regulate/STIM_028.jpg
2433.327	1.545	correct	regulate	Run3	regulate/STIM_028.jpg
2437.635	1.445	correct	regulate	Run3	regulate/STIM_028.jpg
2441.6	1.698	incorrect	regulate	Run3	regulate/STIM_029.jpg
2447.117	1.271	correct	regulate	Run3	regulate/STIM_029.jpg
2451.582	1.577	correct	regulate	Run3	regulate/STIM_029.jpg
2455.625	1.289	correct	regulate	Run3	regulate/STIM_029.jpg
2460.903	0.966	correct	observe	Run3	observe/STIM_000.jpg
2464.364	0.856	correct	observe	Run3	observe/STIM_000.jpg
2469.116	1.214	incorrect	observe	Run3	observe/STIM_000.jpg
2474.018	1.522	correct	observe	Run3	observe/STIM_000.jpg
2478.926	1.257	correct	observe	Run3	observe/STIM_001.jpg
2483.05	1.236	correct	observe	Run3	observe/STIM_001.jpg
2488.064	0.975	correct	observe	Run3	observe/STIM_001.jpg
2492.413	1.076	incorrect	observe	Run3	observe/STIM_001.jpg
2497.103	0.813	correct	observe	Run3	observe/STIM_002.jpg
2500.751	1.44	correct	observe	Run3	observe/STIM_002.jpg
2504.513	1.16	correct	observe	Run3	observe/STIM_002.jpg
2508.921	0.911	correct	observe	Run3	observe/STIM_002.jpg
2512.486	1.399	correct	observe	Run3	observe/STIM_003.jpg
2516.573	1.075	correct	observe	Run3	observe/STIM_003.jpg
2520.44	0.926	correct	observe	Run3	observe/STIM_003.jpg
2524.31	1.075	correct	observe	Run3	observe/STIM_003.jpg
2528.882	0.933	correct	observe	Run3	observe/STIM_004.jpg
2532.427	1.009	correct	observe	Run3	observe/STIM_004.jpg
2536.845	0.818	correct	observe	Run3	observe/STIM_004.jpg
2541.0	1.123	incorrect	observe	Run3	observe/STIM_004.jpg
2545.283	1.296	correct	observe	Run3	observe/STIM_005.jpg
2549.744	1.174	correct	observe	Run3	observe/STIM_005.jpg
2553.295	1.078	incorrect	observe	Run3	observe/STIM_005.jpg
2557.668	0.925	correct	observe	Run3	observe/STIM_005.jpg
2560.95	1.292	correct	observe	Run3	observe/STIM_006.jpg
2565.187	0.833	correct	observe	Run3	observe/STIM_006.jpg
2569.034	1.031	correct	observe	Run3	observe/STIM_006.jpg
2573.475	0.791	correct	observe	Run3	observe/STIM_006.jpg
2576.702	0.915	correct	observe	Run3	observe/STIM_007.jpg
2580.169	1.174	correct	observe	Run3	observe/STIM_007.jpg
2584.272	0.8	correct	observe	Run3	observe/STIM_007.jpg
2588.536	1.183	correct	observe	Run3	observe/STIM_007.jpg
2593.7	1.153	correct	observe	Run3	observe/STIM_008.jpg
2597.523	1.379	correct	observe	Run3	observe/STIM_008.jpg
2602.905	0.903	correct	observe	Run3	observe/STIM_008.jpg
2607.189	1.017	correct	observe	Run3	observe/STIM_008.jpg
2611.677	1.168	incorrect	observe	Run3	observe/STIM_009.jpg
2615.909	0.798	correct	observe	Run3	observe/STIM_009.jpg
2619.27	1.181	correct	observe	Run3	observe/STIM_009.jpg
2623.654	1.263	correct	observe	Run3	observe/STIM_009.jpg
2628.707	1.437	correct	observe	Run3	observe/STIM_010.jpg
2633.678	0.783	correct	observe	Run3	observe/STIM_010.jpg
2638.468	0.907	correct	observe	Run3	observe/STIM_010.jpg
2642.165	1.314	correct	observe	Run3	observe/STIM_010.jpg
2647.374	1.125	correct	observe	Run3	observe/STIM_011.jpg
2652.013	0.811	correct	observe	Run3	observe/STIM_011.jpg
2655.565	1.284	correct	observe	Run3	observe/STIM_011.jpg
2659.552	1.098	correct	observe	Run3	observe/STIM_011.jpg
2664.582	0.877	incorrect	observe	Run3	observe/STIM_012.jpg
2669.0	1.302	correct	observe	Run3	observe/STIM_012.jpg
2673.972	0.798	correct	observe	Run3	observe/STIM_012.jpg
2677.646	1.261	incorrect	observe	Run3	observe/STIM_012.jpg
2681.483	0.972	correct	observe	Run3	observe/STIM_013.jpg
2684.937	1.142	correct	observe	Run3	observe/STIM_013.jpg
2689.108	0.88	correct	observe	Run3	observe/STIM_013.jpg
2692.39	1.343	correct	observe	Run3	observe/STIM_013.jpg
2695.942	1.008	incorrect	observe	Run3	observe/STIM_014.jpg
2699.316	1.423	correct	observe	Run3	observe/STIM_014.jpg
2704.051	1.511	correct	observe	Run3	observe/STIM_014.jpg
2708.236	0.842	incorrect	observe	Run3	observe/STIM_014.jpg
2712.743	1.345	correct	observe	Run3	observe/STIM_015.jpg
2716.954	0.869	correct	observe	Run3	observe/STIM_015.jpg
2719.845	0.912	correct	observe	Run3	observe/STIM_015.jpg
2723.93	0.825	correct	observe	Run3	observe/STIM_015.jpg
2727.647	1.383	correct	observe	Run3	observe/STIM_016.jpg
2731.718	0.943	correct	observe	Run3	observe/STIM_016.jpg
2736.65	0.956	correct	observe	Run3	observe/STIM_016.jpg
2740.82	0.766	correct	observe	Run3	observe/STIM_016.jpg
2744.424	1.344	correct	observe	Run3	observe/STIM_017.jpg
2747.855	0.997	correct	observe	Run3	observe/STIM_017.jpg
2751.614	1.1	correct	observe	Run3	observe/STIM_017.jpg
2756.09	0.836	correct	observe	Run3	observe/STIM_017.jpg
2759.862	1.305	correct	observe	Run3	observe/STIM_018.jpg
2763.455	0.757	correct	observe	Run3	observe/STIM_018.jpg
2768.286	1.194	correct	observe	Run3	observe/STIM_018.jpg
2772.624	1.089	correct	observe	Run3	observe/STIM_018.jpg
2776.27	1.048	incorrect	observe	Run3	observe/STIM_019.jpg
2779.901	1.015	correct	observe	Run3	observe/STIM_019.jpg
2784.558	1.005	correct	observe	Run3	observe/STIM_019.jpg
2788.163	1.13	correct	observe	Run3	observe/STIM_019.jpg
