onset	duration	response_time_ms	trial_type	learning_stage	stimulus	response_port
0.0	0.916	916.0	study	Phase1	study/STIM_000.jpg	99
3.07	1.464	1463.8	study	Phase1	study/STIM_000.jpg	99
7.147	1.398	1398.4	study	Phase1	study/STIM_000.jpg	100
12.221	1.022	1022.3	study	Phase1	study/STIM_001.jpg	99
16.146	1.174	1174.0	study	Phase1	study/STIM_001.jpg	100
19.328	0.673	672.8	study	Phase1	study/STIM_001.jpg	100
23.893	0.95	950.3	study	Phase1	study/STIM_002.jpg	100
27.456	1.12	1120.2	study	Phase1	study/STIM_002.jpg	100
32.027	1.093	1093.4	study	Phase1	study/STIM_002.jpg	100
36.447	1.21	1210.2	study	Phase1	study/STIM_003.jpg	99
40.724	1.538	1537.7	study	Phase1	study/STIM_003.jpg	99
46.11	0.77	769.5	study	Phase1	study/STIM_003.jpg	100
50.837	1.486	1486.0	study	Phase1	study/STIM_004.jpg	100
55.133	0.964	963.7	study	Phase1	study/STIM_004.jpg	99
58.218	0.692	692.5	study	Phase1	study/STIM_004.jpg	100
61.971	1.441	1441.3	study	Phase1	study/STIM_005.jpg	100
66.442	1.512	1512.0	study	Phase1	study/STIM_005.jpg	99
71.023	0.776	775.5	study	Phase1	study/STIM_005.jpg	100
74.753	1.308	1308.2	study	Phase1	study/STIM_006.jpg	99
79.724	1.065	1064.8	study	Phase1	study/STIM_006.jpg	100
82.816	0.671	670.9	study	Phase1	study/STIM_006.jpg	100
85.625	0.883	882.7	study	Phase1	study/STIM_007.jpg	100
89.942	1.098	1098.0	study	Phase1	study/STIM_007.jpg	99
93.395	0.988	987.9	study	Phase1	study/STIM_007.jpg	100
98.374	1.57	1570.1	study	Phase1	study/STIM_008.jpg	100
102.792	1.577	1576.6	study	Phase1	study/STIM_008.jpg	100
107.185	1.256	1255.8	study	Phase1	study/STIM_008.jpg	100
111.589	1.617	1616.9	study	Phase1	study/STIM_009.jpg	99
116.343	1.412	1412.1	study	Phase1	study/STIM_009.jpg	99
121.497	1.195	1195.4	study	Phase1	study/STIM_009.jpg	100
125.988	1.595	1595.0	study	Phase1	study/STIM_010.jpg	99
130.146	1.499	1498.6	study	Phase1	study/STIM_010.jpg	99
133.659	1.164	1164.3	study	Phase1	study/STIM_010.jpg	99
137.762	0.954	954.4	study	Phase1	study/STIM_011.jpg	99
140.75	1.082	1081.8	study	Phase1	study/STIM_011.jpg	99
144.218	1.089	1088.8	study	Phase1	study/STIM_011.jpg	100
148.933	1.165	1165.0	study	Phase1	study/STIM_012.jpg	100
152.518	1.209	1209.3	study	Phase1	study/STIM_012.jpg	100
156.362	1.099	1099.0	study	Phase1	study/STIM_012.jpg	99
159.929	1.088	1087.5	study	Phase1	study/STIM_013.jpg	99
163.791	1.091	1090.9	study	Phase1	study/STIM_013.jpg	99
167.263	1.385	1384.6	study	Phase1	study/STIM_013.jpg	99
172.023	1.013	1012.7	study	Phase1	study/STIM_014.jpg	99
175.591	1.357	1357.4	study	Phase1	study/STIM_014.jpg	100
179.563	1.136	1136.0	study	Phase1	study/STIM_014.jpg	100
182.975	1.033	1033.3	study	Phase1	study/STIM_015.jpg	100
187.677	1.564	1564.0	study	Phase1	study/STIM_015.jpg	99
192.208	1.085	1085.3	study	Phase1	study/STIM_015.jpg	99
196.628	1.215	1215.4	study	Phase1	study/STIM_016.jpg	100
199.961	0.772	771.5	study	Phase1	study/STIM_016.jpg	99
204.612	0.68	679.7	study	Phase1	study/STIM_016.jpg	100
207.421	1.47	1470.4	study	Phase1	study/STIM_017.jpg	100
211.99	1.244	1244.4	study	Phase1	study/STIM_017.jpg	99
216.423	1.447	1446.8	study	Phase1	study/STIM_017.jpg	99
221.239	0.989	988.7	study	Phase1	study/STIM_018.jpg	100
225.316	1.515	1515.0	study	Phase1	study/STIM_018.jpg	99
230.818	0.74	740.5	study	Phase1	study/STIM_018.jpg	100
233.594	0.888	888.1	study	Phase1	study/STIM_019.jpg	100
237.014	0.708	707.7	study	Phase1	study/STIM_019.jpg	99
241.55	1.283	1282.9	study	Phase1	study/STIM_019.jpg	100
245.364	1.334	1334.0	study	Phase1	study/STIM_020.jpg	100
250.645	1.489	1489.0	study	Phase1	study/STIM_020.jpg	99
254.813	1.176	1175.5	study	Phase1	study/STIM_020.jpg	100
258.547	0.746	745.8	study	Phase1	study/STIM_021.jpg	100
262.144	0.755	755.1	study	Phase1	study/STIM_021.jpg	99
265.702	1.203	1202.7	study	Phase1	study/STIM_021.jpg	99
269.97	1.141	1140.7	study	Phase1	study/STIM_022.jpg	99
273.636	1.289	1288.8	study	Phase1	study/STIM_022.jpg	99
277.453	0.855	855.1	study	Phase1	study/STIM_022.jpg	100
281.959	1.549	1548.8	study	Phase1	study/STIM_023.jpg	100
286.91	0.758	758.4	study	Phase1	study/STIM_023.jpg	100
291.482	0.795	794.8	study	Phase1	study/STIM_023.jpg	100
295.223	1.367	1366.9	study	Phase1	study/STIM_024.jpg	100
298.747	1.438	1438.0	study	Phase1	study/STIM_024.jpg	99
302.906	1.484	1483.5	study	Phase1	study/STIM_024.jpg	100
308.03	0.894	894.3	study	Phase1	study/STIM_025.jpg	100
311.847	1.149	1148.6	study	Phase1	study/STIM_025.jpg	99
316.768	0.953	953.4	study	Phase1	study/STIM_025.jpg	99
319.927	0.762	762.5	study	Phase1	study/STIM_026.jpg	99
324.23	0.895	895.2	study	Phase1	study/STIM_026.jpg	100
328.816	1.484	1483.8	study	Phase1	study/STIM_026.jpg	100
334.25	1.507	1506.9	study	Phase1	study/STIM_027.jpg	100
337.977	1.411	1410.7	study	Phase1	study/STIM_027.jpg	99
343.013	1.261	1261.3	study	Phase1	study/STIM_027.jpg	99
348.156	1.434	1433.9	study	Phase1	study/STIM_028.jpg	99
352.998	1.179	1178.6	study	Phase1	study/STIM_028.jpg	100
357.047	1.1	1100.0	study	Phase1	study/STIM_028.jpg	99
361.016	1.321	1320.9	study	Phase1	study/STIM_029.jpg	99
365.732	1.369	1369.1	study	Phase1	study/STIM_029.jpg	99
370.249	0.725	725.1	study	Phase1	study/STIM_029.jpg	99
372.982	0.938	938.3	test	Phase1	test/STIM_000.jpg	99
377.575	0.868	867.9	test	Phase1	test/STIM_000.jpg	100
381.926	0.938	938.1	test	Phase1	test/STIM_000.jpg	100
385.508	0.989	988.8	test	Phase1	test/STIM_001.jpg	100
388.773	1.16	1160.1	test	Phase1	test/STIM_001.jpg	99
393.442	1.115	1115.4	test	Phase1	test/STIM_001.jpg	100
396.737	1.007	1007.2	test	Phase1	test/STIM_002.jpg	99
400.945	0.648	647.7	test	Phase1	test/STIM_002.jpg	99
404.224	0.697	697.3	test	Phase1	test/STIM_002.jpg	100
407.352	0.876	876.0	test	Phase1	test/STIM_003.jpg	100
411.875	1.17	1170.4	test	Phase1	test/STIM_003.jpg	99
415.839	0.659	659.0	test	Phase1	test/STIM_003.jpg	100
420.305	0.813	813.2	test	Phase1	test/STIM_004.jpg	100
423.367	0.801	801.0	test	Phase1	test/STIM_004.jpg	99
426.749	0.869	868.7	test	Phase1	test/STIM_004.jpg	99
429.772	1.073	1072.9	test	Phase1	test/STIM_005.jpg	99
434.152	1.18	1180.1	test	Phase1	test/STIM_005.jpg	99
437.524	1.089	1088.7	test	Phase1	test/STIM_005.jpg	99
442.423	0.607	606.7	test	Phase1	test/STIM_006.jpg	100
446.966	1.122	1122.5	test	Phase1	test/STIM_006.jpg	99
451.642	0.61	609.5	test	Phase1	test/STIM_006.jpg	100
454.616	0.582	581.7	test	Phase1	test/STIM_007.jpg	100
457.979	0.935	934.7	test	Phase1	test/STIM_007.jpg	99
462.104	0.734	733.7	test	Phase1	test/STIM_007.jpg	99
466.302	0.754	753.5	test	Phase1	test/STIM_008.jpg	99
470.436	0.839	839.3	test	Phase1	test/STIM_008.jpg	100
474.809	1.075	1074.8	test	Phase1	test/STIM_008.jpg	99
478.82	0.578	577.5	test	Phase1	test/STIM_009.jpg	99
481.444	1.166	1166.0	test	Phase1	test/STIM_009.jpg	100
486.46	1.168	1167.6	test	Phase1	test/STIM_009.jpg	100
489.803	0.914	914.5	test	Phase1	test/STIM_010.jpg	100
494.357	0.749	749.0	test	Phase1	test/STIM_010.jpg	99
498.254	0.577	576.6	test	Phase1	test/STIM_010.jpg	100
501.519	0.896	895.7	test	Phase1	test/STIM_011.jpg	100
505.086	0.93	929.7	test	Phase1	test/STIM_011.jpg	100
508.332	0.822	821.7	test	Phase1	test/STIM_011.jpg	100
511.316	0.941	941.0	test	Phase1	test/STIM_012.jpg	100
516.098	0.727	727.3	test	Phase1	test/STIM_012.jpg	99
519.989	0.997	996.6	test	Phase1	test/STIM_012.jpg	100
524.681	0.636	636.3	test	Phase1	test/STIM_013.jpg	99
527.595	0.758	758.2	test	Phase1	test/STIM_013.jpg	99
532.22	0.959	959.0	test	Phase1	test/STIM_013.jpg	99
537.062	1.037	1037.4	test	Phase1	test/STIM_014.jpg	99
540.876	0.732	731.6	test	Phase1	test/STIM_014.jpg	99
543.703	0.701	701.2	test	Phase1	test/STIM_014.jpg	100
548.111	0.797	796.8	test	Phase1	test/STIM_015.jpg	100
552.473	1.163	1163.1	test	Phase1	test/STIM_015.jpg	99
555.888	0.761	760.7	test	Phase1	test/STIM_015.jpg	100
559.041	0.965	965.1	test	Phase1	test/STIM_016.jpg	100
563.091	1.01	1010.4	test	Phase1	test/STIM_016.jpg	100
567.703	1.054	1054.3	test	Phase1	test/STIM_016.jpg	100
572.736	1.053	1052.7	test	Phase1	test/STIM_017.jpg	99
577.184	0.857	857.4	test	Phase1	test/STIM_017.jpg	100
581.394	0.662	662.3	test	Phase1	test/STIM_017.jpg	100
585.146	0.938	938.0	test	Phase1	test/STIM_018.jpg	99
589.295	0.983	982.8	test	Phase1	test/STIM_018.jpg	100
593.202	0.719	718.9	test	Phase1	test/STIM_018.jpg	100
597.396	1.078	1077.7	test	Phase1	test/STIM_019.jpg	99
600.514	0.677	677.3	test	Phase1	test/STIM_019.jpg	100
603.66	0.897	897.3	test	Phase1	test/STIM_019.jpg	100
608.033	0.726	726.0	test	Phase1	test/STIM_020.jpg	100
610.863	0.558	557.8	test	Phase1	test/STIM_020.jpg	100
614.877	1.11	1109.9	test	Phase1	test/STIM_020.jpg	100
618.347	0.723	722.7	test	Phase1	test/STIM_021.jpg	100
622.369	0.904	904.5	test	Phase1	test/STIM_021.jpg	100
625.31	1.195	1194.8	test	Phase1	test/STIM_021.jpg	99
628.804	0.585	584.9	test	Phase1	test/STIM_022.jpg	100
632.832	0.861	860.8	test	Phase1	test/STIM_022.jpg	99
636.971	0.965	964.6	test	Phase1	test/STIM_022.jpg	99
641.535	1.038	1038.0	test	Phase1	test/STIM_023.jpg	99
645.498	0.808	808.0	test	Phase1	test/STIM_023.jpg	99
649.228	0.892	892.4	test	Phase1	test/STIM_023.jpg	99
653.06	0.618	618.1	test	Phase1	test/STIM_024.jpg	100
655.854	0.674	674.1	test	Phase1	test/STIM_024.jpg	100
658.604	1.068	1068.5	test	Phase1	test/STIM_024.jpg	100
662.712	0.793	793.1	test	Phase1	test/STIM_025.jpg	99
667.22	0.868	867.9	test	Phase1	test/STIM_025.jpg	100
671.006	0.728	727.5	test	Phase1	test/STIM_025.jpg	99
673.828	0.736	735.6	test	Phase1	test/STIM_026.jpg	99
676.63	0.57	570.4	test	Phase1	test/STIM_026.jpg	99
679.703	1.007	1006.7	test	Phase1	test/STIM_026.jpg	100
682.782	0.836	835.7	test	Phase1	test/STIM_027.jpg	100
686.244	0.681	681.0	test	Phase1	test/STIM_027.jpg	99
689.826	0.696	695.6	test	Phase1	test/STIM_027.jpg	100
693.895	0.762	762.4	test	Phase1	test/STIM_028.jpg	100
697.237	0.908	907.8	test	Phase1	test/STIM_028.jpg	99
701.223	0.851	851.4	test	Phase1	test/STIM_028.jpg	100
704.934	0.669	669.1	test	Phase1	test/STIM_029.jpg	99
709.446	1.095	1094.9	test	Phase1	test/STIM_029.jpg	100
713.638	0.769	769.3	test	Phase1	test/STIM_029.jpg	100
718.047	0.662	661.7	study	Phase2	study/STIM_000.jpg	99
721.512	0.734	734.4	study	Phase2	study/STIM_000.jpg	99
725.695	1.183	1183.1	study	Phase2	study/STIM_000.jpg	100
729.437	1.19	1189.9	study	Phase2	study/STIM_001.jpg	100
733.394	1.147	1147.0	study	Phase2	study/STIM_001.jpg	100
736.834	0.74	740.3	study	Phase2	study/STIM_001.jpg	99
740.923	0.664	663.6	study	Phase2	study/STIM_002.jpg	100
745.486	1.226	1225.6	study	Phase2	study/STIM_002.jpg	100
750.141	1.032	1031.5	study	Phase2	study/STIM_002.jpg	100
753.391	1.298	1297.7	study	Phase2	study/STIM_003.jpg	100
758.086	0.929	928.7	study	Phase2	study/STIM_003.jpg	100
761.535	0.924	924.0	study	Phase2	study/STIM_003.jpg	99
765.256	0.686	686.0	study	Phase2	study/STIM_004.jpg	100
769.176	0.698	698.5	study	Phase2	study/STIM_004.jpg	99
772.841	0.571	570.9	study	Phase2	study/STIM_004.jpg	99
777.302	1.274	1273.6	study	Phase2	study/STIM_005.jpg	100
780.797	0.864	864.5	study	Phase2	study/STIM_005.jpg	99
785.102	0.826	825.5	study	Phase2	study/STIM_005.jpg	100
788.538	1.247	1247.0	study	Phase2	study/STIM_006.jpg	100
791.818	1.159	1159.4	study	Phase2	study/STIM_006.jpg	99
796.233	0.574	574.2	study	Phase2	study/STIM_006.jpg	100
799.72	1.391	1391.0	study	Phase2	study/STIM_007.jpg	99
804.614	1.303	1303.1	study	Phase2	study/STIM_007.jpg	99
808.368	1.213	1212.8	study	Phase2	study/STIM_007.jpg	100
813.226	1.251	1251.0	study	Phase2	study/STIM_008.jpg	99
816.852	1.11	1109.7	study	Phase2	study/STIM_008.jpg	99
820.943	0.932	931.9	study	Phase2	study/STIM_008.jpg	100
823.885	0.874	874.1	study	Phase2	study/STIM_009.jpg	100
828.196	0.831	831.2	study	Phase2	study/STIM_009.jpg	99
832.126	0.963	963.3	study	Phase2	study/STIM_009.jpg	99
836.206	1.112	1112.3	study	Phase2	study/STIM_010.jpg	99
839.79	1.248	1248.2	study	Phase2	study/STIM_010.jpg	99
843.66	0.935	935.0	study	Phase2	study/STIM_010.jpg	99
846.64	1.349	1349.3	study	Phase2	study/STIM_011.jpg	100
850.774	1.279	1279.1	study	Phase2	study/STIM_011.jpg	99
855.562	0.918	918.1	study	Phase2	study/STIM_011.jpg	99
859.422	0.743	743.1	study	Phase2	study/STIM_012.jpg	100
863.092	1.269	1269.2	study	Phase2	study/STIM_012.jpg	100
866.57	0.66	659.5	study	Phase2	study/STIM_012.jpg	99
869.962	0.745	744.7	study	Phase2	study/STIM_013.jpg	99
874.055	0.932	932.3	study	Phase2	study/STIM_013.jpg	99
877.796	1.008	1007.7	study	Phase2	study/STIM_013.jpg	100
882.711	1.31	1309.6	study	Phase2	study/STIM_014.jpg	100
886.846	1.316	1316.4	study	Phase2	study/STIM_014.jpg	100
891.485	0.644	644.2	study	Phase2	study/STIM_014.jpg	99
895.509	0.698	698.5	study	Phase2	study/STIM_015.jpg	99
899.491	1.035	1035.3	study	Phase2	study/STIM_015.jpg	100
902.775	0.91	910.5	study	Phase2	study/STIM_015.jpg	99
907.593	0.727	727.0	study	Phase2	study/STIM_016.jpg	100
911.473	1.147	1146.6	study	Phase2	study/STIM_016.jpg	99
916.095	0.603	603.0	study	Phase2	study/STIM_016.jpg	100
920.034	1.149	1149.1	study	Phase2	study/STIM_017.jpg	100
923.952	1.14	1140.3	study	Phase2	study/STIM_017.jpg	100
927.923	0.666	665.9	study	Phase2	study/STIM_017.jpg	100
931.89	1.35	1349.7	study	Phase2	study/STIM_018.jpg	100
936.885	0.786	786.2	study	Phase2	study/STIM_018.jpg	100
940.895	0.934	933.8	study	Phase2	study/STIM_018.jpg	99
944.236	1.054	1054.3	study	Phase2	study/STIM_019.jpg	100
947.761	0.796	796.5	study	Phase2	study/STIM_019.jpg	99
950.611	0.89	889.8	study	Phase2	study/STIM_019.jpg	100
954.852	0.78	779.8	study	Phase2	study/STIM_020.jpg	100
957.851	0.788	787.9	study	Phase2	study/STIM_020.jpg	100
961.546	0.675	675.0	study	Phase2	study/STIM_020.jpg	99
964.909	0.69	689.8	study	Phase2	study/STIM_021.jpg	99
968.001	1.115	1115.1	study	Phase2	study/STIM_021.jpg	100
972.599	1.082	1081.8	study	Phase2	study/STIM_021.jpg	100
976.433	0.901	901.1	study	Phase2	study/STIM_022.jpg	99
979.83	0.845	845.2	study	Phase2	study/STIM_022.jpg	99
984.236	1.063	1063.0	study	Phase2	study/STIM_022.jpg	100
988.038	1.174	1174.2	study	Phase2	study/STIM_023.jpg	99
991.308	1.107	1107.4	study	Phase2	study/STIM_023.jpg	99
995.881	0.747	747.3	study	Phase2	study/STIM_023.jpg	100
999.489	0.962	962.4	study	Phase2	study/STIM_024.jpg	99
1002.695	1.289	1289.3	study	Phase2	study/STIM_024.jpg	99
1006.61	1.04	1040.4	study	Phase2	study/STIM_024.jpg	100
1010.785	0.683	683.3	study	Phase2	study/STIM_025.jpg	100
1014.738	1.151	1151.0	study	Phase2	study/STIM_025.jpg	99
1018.375	1.052	1052.3	study	Phase2	study/STIM_025.jpg	99
1023.053	1.19	1190.3	study	Phase2	study/STIM_026.jpg	100
1026.687	0.96	960.2	study	Phase2	study/STIM_026.jpg	99
1030.624	1.126	1125.6	study	Phase2	study/STIM_026.jpg	99
1035.334	0.645	645.1	study	Phase2	study/STIM_027.jpg	99
1038.372	0.98	979.6	study	Phase2	study/STIM_027.jpg	100
1042.365	0.754	753.7	study	Phase2	study/STIM_027.jpg	100
1046.53	0.936	936.5	study	Phase2	study/STIM_028.jpg	100
1049.603	1.32	1319.6	study	Phase2	study/STIM_028.jpg	99
1054.109	0.694	694.5	study	Phase2	study/STIM_028.jpg	99
1058.408	0.827	826.6	study	Phase2	study/STIM_029.jpg	100
1062.12	0.816	815.5	study	Phase2	study/STIM_029.jpg	100
1066.385	0.656	656.3	study	Phase2	study/STIM_029.jpg	99
1069.164	1.148	1148.1	test	Phase2	test/STIM_000.jpg	99
1074.174	1.114	1114.5	test	Phase2	test/STIM_000.jpg	100
1077.528	1.003	1003.4	test	Phase2	test/STIM_000.jpg	99
1081.45	0.734	734.1	test	Phase2	test/STIM_001.jpg	100
1084.797	0.909	908.8	test	Phase2	test/STIM_001.jpg	100
1089.113	1.096	1095.9	test	Phase2	test/STIM_001.jpg	100
1092.322	1.194	1193.9	test	Phase2	test/STIM_002.jpg	99
1096.046	0.659	658.8	test	Phase2	test/STIM_002.jpg	99
1099.169	0.697	697.1	test	Phase2	test/STIM_002.jpg	99
1102.442	1.097	1097.1	test	Phase2	test/STIM_003.jpg	100
1105.724	1.179	1178.8	test	Phase2	test/STIM_003.jpg	99
1109.736	1.06	1060.5	test	Phase2	test/STIM_003.jpg	100
1114.588	1.008	1007.6	test	Phase2	test/STIM_004.jpg	99
1118.271	1.193	1193.3	test	Phase2	test/STIM_004.jpg	100
1122.348	0.649	649.1	test	Phase2	test/STIM_004.jpg	99
1126.329	0.794	793.8	test	Phase2	test/STIM_005.jpg	99
1130.72	0.976	976.3	test	Phase2	test/STIM_005.jpg	99
1134.186	0.638	638.2	test	Phase2	test/STIM_005.jpg	100
1137.307	1.058	1058.4	test	Phase2	test/STIM_006.jpg	100
1140.63	0.681	680.6	test	Phase2	test/STIM_006.jpg	99
1144.573	0.813	812.6	test	Phase2	test/STIM_006.jpg	100
1149.004	0.628	627.7	test	Phase2	test/STIM_007.jpg	100
1153.525	0.612	611.9	test	Phase2	test/STIM_007.jpg	99
1156.472	0.832	831.6	test	Phase2	test/STIM_007.jpg	99
1160.029	0.71	710.1	test	Phase2	test/STIM_008.jpg	100
1162.777	0.886	886.5	test	Phase2	test/STIM_008.jpg	99
1165.736	1.006	1005.7	test	Phase2	test/STIM_008.jpg	99
1169.714	0.809	809.1	test	Phase2	test/STIM_009.jpg	100
1173.676	1.085	1085.1	test	Phase2	test/STIM_009.jpg	99
1177.116	0.594	594.3	test	Phase2	test/STIM_009.jpg	99
1180.974	0.964	963.5	test	Phase2	test/STIM_010.jpg	99
1184.142	1.02	1019.7	test	Phase2	test/STIM_010.jpg	100
1188.165	1.029	1029.3	test	Phase2	test/STIM_010.jpg	100
1192.675	1.158	1157.6	test	Phase2	test/STIM_011.jpg	100
1197.628	1.024	1023.7	test	Phase2	test/STIM_011.jpg	100
1201.67	0.684	684.5	test	Phase2	test/STIM_011.jpg	100
1205.289	1.196	1195.5	test	Phase2	test/STIM_012.jpg	100
1208.518	1.18	1180.4	test	Phase2	test/STIM_012.jpg	99
1212.056	1.145	1144.9	test	Phase2	test/STIM_012.jpg	99
1216.895	0.955	955.2	test	Phase2	test/STIM_013.jpg	100
1220.332	1.178	1177.6	test	Phase2	test/STIM_013.jpg	99
1224.355	1.04	1040.2	test	Phase2	test/STIM_013.jpg	100
1228.218	0.809	809.4	test	Phase2	test/STIM_014.jpg	100
1231.804	1.044	1043.7	test	Phase2	test/STIM_014.jpg	99
1236.448	0.693	692.6	test	Phase2	test/STIM_014.jpg	99
1239.382	0.706	706.0	test	Phase2	test/STIM_015.jpg	100
1243.164	0.728	727.6	test	Phase2	test/STIM_015.jpg	100
1247.431	0.88	880.4	test	Phase2	test/STIM_015.jpg	99
1251.061	0.841	841.3	test	Phase2	test/STIM_016.jpg	99
1254.433	0.766	766.4	test	Phase2	test/STIM_016.jpg	100
1259.105	0.57	570.5	test	Phase2	test/STIM_016.jpg	100
1261.822	0.684	684.4	test	Phase2	test/STIM_017.jpg	99
1266.094	0.835	835.2	test	Phase2	test/STIM_017.jpg	100
1270.36	0.679	679.0	test	Phase2	test/STIM_017.jpg	99
1273.676	1.049	1049.1	test	Phase2	test/STIM_018.jpg	99
1277.014	0.966	965.8	test	Phase2	test/STIM_018.jpg	100
1281.127	0.711	710.9	test	Phase2	test/STIM_018.jpg	100
1285.663	0.898	897.9	test	Phase2	test/STIM_019.jpg	100
1290.2	0.587	586.6	test	Phase2	test/STIM_019.jpg	99
1293.081	0.7	699.9	test	Phase2	test/STIM_019.jpg	100
1296.341	1.056	1056.5	test	Phase2	test/STIM_020.jpg	100
1300.043	1.112	1112.4	test	Phase2	test/STIM_020.jpg	100
1303.998	0.847	846.7	test	Phase2	test/STIM_020.jpg	99
1307.062	0.749	749.3	test	Phase2	test/STIM_021.jpg	100
1310.482	0.857	856.9	test	Phase2	test/STIM_021.jpg	100
1313.551	1.025	1025.1	test	Phase2	test/STIM_021.jpg	99
1317.254	0.965	965.3	test	Phase2	test/STIM_022.jpg	99
1320.485	1.043	1043.1	test	Phase2	test/STIM_022.jpg	100
1323.716	0.663	663.0	test	Phase2	test/STIM_022.jpg	99
1328.138	0.562	561.6	test	Phase2	test/STIM_023.jpg	99
1331.415	1.193	1192.6	test	Phase2	test/STIM_023.jpg	99
1335.33	0.684	684.1	test	Phase2	test/STIM_023.jpg	99
1338.113	1.196	1196.4	test	Phase2	test/STIM_024.jpg	100
1341.332	0.729	728.7	test	Phase2	test/STIM_024.jpg	100
1344.664	1.136	1136.1	test	Phase2	test/STIM_024.jpg	99
1349.17	1.192	1191.6	test	Phase2	test/STIM_025.jpg	100
1352.844	1.093	1093.2	test	Phase2	test/STIM_025.jpg	100
1356.945	1.092	1091.9	test	Phase2	test/STIM_025.jpg	100
1360.692	1.154	1153.8	test	Phase2	test/STIM_026.jpg	99
1365.161	1.061	1061.2	test	Phase2	test/STIM_026.jpg	99
1368.691	0.698	698.0	test	Phase2	test/STIM_026.jpg	100
1372.69	0.694	693.9	test	Phase2	test/STIM_027.jpg	99
1375.871	0.982	981.5	test	Phase2	test/STIM_027.jpg	99
1379.048	1.04	1040.4	test	Phase2	test/STIM_027.jpg	100
1382.808	0.692	692.4	test	Phase2	test/STIM_028.jpg	100
1385.821	0.695	694.8	test	Phase2	test/STIM_028.jpg	100
1388.813	0.627	626.7	test	Phase2	test/STIM_028.jpg	100
1393.347	1.072	1071.8	test	Phase2	test/STIM_029.jpg	99
1397.594	1.066	1066.5	test	Phase2	test/STIM_029.jpg	100
1400.824	1.13	1129.5	test	Phase2	test/STIM_029.jpg	99
1404.949	0.652	651.7	study	Phase3	study/STIM_000.jpg	100
1408.628	0.798	798.0	study	Phase3	study/STIM_000.jpg	100
1413.14	0.608	608.4	study	Phase3	study/STIM_000.jpg	99
1417.649	0.787	786.9	study	Phase3	study/STIM_001.jpg	100
1421.113	0.742	741.5	study	Phase3	study/STIM_001.jpg	100
1424.048	0.784	783.7	study	Phase3	study/STIM_001.jpg	99
1426.903	0.719	718.8	study	Phase3	study/STIM_002.jpg	99
1429.738	0.53	529.9	study	Phase3	study/STIM_002.jpg	99
1432.679	0.751	751.1	study	Phase3	study/STIM_002.jpg	99
1435.632	0.617	616.6	study	Phase3	study/STIM_003.jpg	99
1439.774	1.102	1102.3	study	Phase3	study/STIM_003.jpg	99
1444.509	0.604	604.4	study	Phase3	study/STIM_003.jpg	100
1447.399	1.16	1159.9	study	Phase3	study/STIM_004.jpg	99
1451.447	0.589	589.4	study	Phase3	study/STIM_004.jpg	100
1455.506	0.569	568.6	study	Phase3	study/STIM_004.jpg	99
1459.974	0.636	636.2	study	Phase3	study/STIM_005.jpg	100
1464.516	1.003	1002.7	study	Phase3	study/STIM_005.jpg	99
1467.86	0.633	632.6	study	Phase3	study/STIM_005.jpg	99
1470.852	0.536	536.2	study	Phase3	study/STIM_006.jpg	99
1474.566	0.814	814.3	study	Phase3	study/STIM_006.jpg	99
1478.294	0.688	688.4	study	Phase3	study/STIM_006.jpg	100
1482.659	0.726	725.5	study	Phase3	study/STIM_007.jpg	100
1487.1	0.996	996.4	study	Phase3	study/STIM_007.jpg	100
1491.493	0.809	809.3	study	Phase3	study/STIM_007.jpg	100
1495.751	0.747	746.7	study	Phase3	study/STIM_008.jpg	100
1498.584	1.122	1122.5	study	Phase3	study/STIM_008.jpg	99
1501.779	0.893	892.8	study	Phase3	study/STIM_008.jpg	99
1505.067	1.083	1082.8	study	Phase3	study/STIM_009.jpg	99
1508.715	0.803	803.1	study	Phase3	study/STIM_009.jpg	99
1513.184	1.031	1031.3	study	Phase3	study/STIM_009.jpg	100
1517.746	0.926	925.6	study	Phase3	study/STIM_010.jpg	99
1522.599	0.903	903.2	study	Phase3	study/STIM_010.jpg	100
1527.007	0.546	546.0	study	Phase3	study/STIM_010.jpg	100
1530.771	0.8	800.0	study	Phase3	study/STIM_011.jpg	100
1534.739	1.117	1117.1	study	Phase3	study/STIM_011.jpg	99
1539.651	0.864	863.9	study	Phase3	study/STIM_011.jpg	100
1543.296	1.143	1142.8	study	Phase3	study/STIM_012.jpg	99
1546.482	0.716	715.5	study	Phase3	study/STIM_012.jpg	99
1549.263	1.135	1135.1	study	Phase3	study/STIM_012.jpg	99
1552.628	0.711	711.4	study	Phase3	study/STIM_013.jpg	100
1557.336	0.603	603.3	study	Phase3	study/STIM_013.jpg	99
1561.79	1.098	1098.1	study	Phase3	study/STIM_013.jpg	99
1566.62	0.641	640.6	study	Phase3	study/STIM_014.jpg	100
1570.456	1.023	1022.7	study	Phase3	study/STIM_014.jpg	100
1574.737	0.911	911.2	study	Phase3	study/STIM_014.jpg	100
1578.309	0.651	650.9	study	Phase3	study/STIM_015.jpg	100
1582.941	0.68	680.0	study	Phase3	study/STIM_015.jpg	99
1587.254	1.122	1121.5	study	Phase3	study/STIM_015.jpg	100
1591.711	0.65	649.9	study	Phase3	study/STIM_016.jpg	99
1596.105	0.569	569.4	study	Phase3	study/STIM_016.jpg	99
1599.75	0.63	630.3	study	Phase3	study/STIM_016.jpg	99
1603.421	1.073	1072.8	study	Phase3	study/STIM_017.jpg	99
1606.549	0.598	598.4	study	Phase3	study/STIM_017.jpg	100
1610.452	0.528	528.5	study	Phase3	study/STIM_017.jpg	100
1613.318	1.111	1111.2	study	Phase3	study/STIM_018.jpg	99
1616.583	0.934	933.5	study	Phase3	study/STIM_018.jpg	100
1620.064	0.712	711.6	study	Phase3	study/STIM_018.jpg	100
1624.307	0.686	686.1	study	Phase3	study/STIM_019.jpg	100
1627.612	1.141	1141.0	study	Phase3	study/STIM_019.jpg	99
1631.873	1.009	1009.4	study	Phase3	study/STIM_019.jpg	99
1636.196	1.086	1085.6	study	Phase3	study/STIM_020.jpg	99
1639.504	0.578	577.9	study	Phase3	study/STIM_020.jpg	100
1643.392	0.883	882.9	study	Phase3	study/STIM_020.jpg	100
1647.529	0.548	547.7	study	Phase3	study/STIM_021.jpg	99
1650.506	0.918	918.3	study	Phase3	study/STIM_021.jpg	99
1654.714	1.088	1087.6	study	Phase3	study/STIM_021.jpg	100
1658.32	0.952	952.0	study	Phase3	study/STIM_022.jpg	99
1662.445	0.607	606.7	study	Phase3	study/STIM_022.jpg	99
1666.867	1.046	1046.2	study	Phase3	study/STIM_022.jpg	99
1670.731	0.801	800.9	study	Phase3	study/STIM_023.jpg	99
1674.581	1.053	1053.0	study	Phase3	study/STIM_023.jpg	99
1677.915	1.002	1001.8	study	Phase3	study/STIM_023.jpg	100
1682.576	1.002	1002.4	study	Phase3	study/STIM_024.jpg	100
1685.892	0.978	978.5	study	Phase3	study/STIM_024.jpg	100
1689.176	0.852	852.0	study	Phase3	study/STIM_024.jpg	99
1693.067	0.537	537.1	study	Phase3	study/STIM_025.jpg	100
1696.572	0.614	614.3	study	Phase3	study/STIM_025.jpg	99
1699.539	0.656	656.2	study	Phase3	study/STIM_025.jpg	99
1703.398	0.768	768.5	study	Phase3	study/STIM_026.jpg	99
1706.933	0.906	905.7	study	Phase3	study/STIM_026.jpg	99
1710.311	1.156	1155.8	study	Phase3	study/STIM_026.jpg	99
1713.625	0.836	835.5	study	Phase3	study/STIM_027.jpg	100
1717.528	1.138	1137.6	study	Phase3	study/STIM_027.jpg	99
1721.545	1.007	1007.1	study	Phase3	study/STIM_027.jpg	100
1725.976	0.775	775.4	study	Phase3	study/STIM_028.jpg	99
1729.803	0.808	808.0	study	Phase3	study/STIM_028.jpg	99
1732.906	0.797	797.4	study	Phase3	study/STIM_028.jpg	100
1737.496	0.922	921.8	study	Phase3	study/STIM_029.jpg	100
1741.433	0.656	656.5	study	Phase3	study/STIM_029.jpg	100
1745.493	0.522	521.6	study	Phase3	study/STIM_029.jpg	99
1749.888	1.19	1189.8	test	Phase3	test/STIM_000.jpg	100
1754.522	0.565	565.2	test	Phase3	test/STIM_000.jpg	100
1758.53	0.976	975.7	test	Phase3	test/STIM_000.jpg	100
1762.899	0.831	831.2	test	Phase3	test/STIM_001.jpg	100
1766.463	1.137	1136.6	test	Phase3	test/STIM_001.jpg	100
1771.298	0.75	749.7	test	Phase3	test/STIM_001.jpg	100
1774.157	0.606	605.5	test	Phase3	test/STIM_002.jpg	99
1777.733	0.823	822.7	test	Phase3	test/STIM_002.jpg	100
1781.447	0.756	756.4	test	Phase3	test/STIM_002.jpg	100
1785.329	0.754	754.2	test	Phase3	test/STIM_003.jpg	99
1789.818	0.818	818.1	test	Phase3	test/STIM_003.jpg	99
1793.311	0.722	722.1	test	Phase3	test/STIM_003.jpg	99
1797.506	0.792	791.5	test	Phase3	test/STIM_004.jpg	99
1801.618	1.076	1076.2	test	Phase3	test/STIM_004.jpg	99
1805.959	1.136	1135.9	test	Phase3	test/STIM_004.jpg	100
1810.893	0.63	629.9	test	Phase3	test/STIM_005.jpg	99
1814.547	1.025	1025.4	test	Phase3	test/STIM_005.jpg	100
1817.777	1.176	1176.2	test	Phase3	test/STIM_005.jpg	100
1821.507	0.775	774.7	test	Phase3	test/STIM_006.jpg	99
1826.194	1.147	1146.7	test	Phase3	test/STIM_006.jpg	100
1830.071	1.178	1178.3	test	Phase3	test/STIM_006.jpg	99
1834.997	0.684	684.1	test	Phase3	test/STIM_007.jpg	99
1837.965	1.012	1012.4	test	Phase3	test/STIM_007.jpg	99
1840.985	1.055	1054.9	test	Phase3	test/STIM_007.jpg	100
1845.796	0.927	927.0	test	Phase3	test/STIM_008.jpg	99
1848.766	1.061	1061.2	test	Phase3	test/STIM_008.jpg	100
1853.428	0.795	795.4	test	Phase3	test/STIM_008.jpg	100
1856.379	1.018	1017.8	test	Phase3	test/STIM_009.jpg	99
1861.266	0.772	772.0	test	Phase3	test/STIM_009.jpg	100
1864.61	0.963	963.1	test	Phase3	test/STIM_009.jpg	99
1867.68	1.004	1003.5	test	Phase3	test/STIM_010.jpg	99
1872.171	0.715	715.2	test	Phase3	test/STIM_010.jpg	100
1875.293	0.996	995.8	test	Phase3	test/STIM_010.jpg	99
1879.432	1.096	1096.1	test	Phase3	test/STIM_011.jpg	99
1883.715	1.179	1179.3	test	Phase3	test/STIM_011.jpg	99
1888.489	0.998	997.5	test	Phase3	test/STIM_011.jpg	99
1893.466	0.999	999.3	test	Phase3	test/STIM_012.jpg	100
1897.91	0.64	640.3	test	Phase3	test/STIM_012.jpg	100
1901.247	0.754	753.9	test	Phase3	test/STIM_012.jpg	100
1905.507	0.895	895.2	test	Phase3	test/STIM_013.jpg	100
1909.03	0.569	568.8	test	Phase3	test/STIM_013.jpg	100
1911.617	1.112	1112.5	test	Phase3	test/STIM_013.jpg	100
1916.689	0.672	672.0	test	Phase3	test/STIM_014.jpg	99
1919.736	0.967	966.6	test	Phase3	test/STIM_014.jpg	100
1924.032	1.022	1022.4	test	Phase3	test/STIM_014.jpg	99
1928.042	0.599	598.8	test	Phase3	test/STIM_015.jpg	99
1931.245	0.958	958.0	test	Phase3	test/STIM_015.jpg	100
1934.668	1.102	1102.1	test	Phase3	test/STIM_015.jpg	99
1938.427	0.609	609.2	test	Phase3	test/STIM_016.jpg	100
1941.938	1.116	1115.8	test	Phase3	test/STIM_016.jpg	100
1946.94	0.866	866.1	test	Phase3	test/STIM_016.jpg	100
1950.765	0.761	761.2	test	Phase3	test/STIM_017.jpg	99
1955.113	1.137	1137.3	test	Phase3	test/STIM_017.jpg	99
1958.795	1.082	1081.6	test	Phase3	test/STIM_017.jpg	100
1963.243	0.597	596.6	test	Phase3	test/STIM_018.jpg	100
1966.962	0.981	981.3	test	Phase3	test/STIM_018.jpg	99
1970.752	0.654	653.9	test	Phase3	test/STIM_018.jpg	100
1974.959	0.903	902.9	test	Phase3	test/STIM_019.jpg	100
1979.83	0.614	614.2	test	Phase3	test/STIM_019.jpg	100
1983.252	0.616	616.3	test	Phase3	test/STIM_019.jpg	99
1987.368	0.828	828.2	test	Phase3	test/STIM_020.jpg	100
1991.843	0.952	951.5	test	Phase3	test/STIM_020.jpg	100
1995.103	0.717	716.9	test	Phase3	test/STIM_020.jpg	99
1998.039	0.734	734.1	test	Phase3	test/STIM_021.jpg	99
2000.818	0.587	586.7	test	Phase3	test/STIM_021.jpg	100
2004.177	1.053	1053.2	test	Phase3	test/STIM_021.jpg	100
2007.763	0.578	577.7	test	Phase3	test/STIM_022.jpg	99
2012.269	0.906	906.2	test	Phase3	test/STIM_022.jpg	99
2016.28	0.661	660.6	test	Phase3	test/STIM_022.jpg	100
2020.301	1.022	1021.6	test	Phase3	test/STIM_023.jpg	100
2024.95	1.131	1130.7	test	Phase3	test/STIM_023.jpg	100
2029.358	0.779	778.7	test	Phase3	test/STIM_023.jpg	99
2033.268	0.926	925.6	test	Phase3	test/STIM_024.jpg	99
2036.363	0.92	919.8	test	Phase3	test/STIM_024.jpg	100
2040.951	0.781	781.2	test	Phase3	test/STIM_024.jpg	100
2044.187	0.745	744.8	test	Phase3	test/STIM_025.jpg	100
2047.784	0.684	684.0	test	Phase3	test/STIM_025.jpg	100
2050.799	1.123	1123.4	test	Phase3	test/STIM_025.jpg	99
2054.375	0.588	587.6	test	Phase3	test/STIM_026.jpg	99
2057.586	0.675	675.2	test	Phase3	test/STIM_026.jpg	99
2062.027	0.588	588.1	test	Phase3	test/STIM_026.jpg	99
2066.24	0.726	726.4	test	Phase3	test/STIM_027.jpg	99
2069.047	1.098	1097.5	test	Phase3	test/STIM_027.jpg	99
2073.084	1.076	1076.0	test	Phase3	test/STIM_027.jpg	100
2076.369	0.88	879.6	test	Phase3	test/STIM_028.jpg	100
2080.148	0.678	678.3	test	Phase3	test/STIM_028.jpg	100
2084.382	0.954	953.8	test	Phase3	test/STIM_028.jpg	100
2089.007	0.632	632.2	test	Phase3	test/STIM_029.jpg	99
2091.831	1.181	1181.4	test	Phase3	test/STIM_029.jpg	99
2095.378	0.559	559.2	test	Phase3	test/STIM_029.jpg	99
