onset	duration	accuracy	trial_type	learning_stage	stimulus
0.0	1.8	correct	generate	Run1	generate/STIM_000.jpg
4.124	1.334	correct	generate	Run1	generate/STIM_000.jpg
8.105	2.257	incorrect	generate	Run1	generate/STIM_000.jpg
14.16	1.816	correct	generate	Run1	generate/STIM_000.jpg
19.825	1.784	incorrect	generate	Run1	generate/STIM_000.jpg
24.703	1.798	correct	generate	Run1	generate/STIM_001.jpg
30.503	2.082	incorrect	generate	Run1	generate/STIM_001.jpg
36.322	2.229	correct	generate	Run1	generate/STIM_001.jpg
41.314	2.028	correct	generate	Run1	generate/STIM_001.jpg
46.312	2.04	correct	generate	Run1	generate/STIM_001.jpg
50.808	1.716	correct	generate	Run1	generate/STIM_002.jpg
54.922	2.113	incorrect	generate	Run1	generate/STIM_002.jpg
60.795	2.251	correct	generate	Run1	generate/STIM_002.jpg
66.714	1.841	correct	generate	Run1	generate/STIM_002.jpg
71.452	2.1	correct	generate	Run1	generate/STIM_002.jpg
77.181	1.063	correct	generate	Run1	generate/STIM_003.jpg
80.554	2.159	correct	generate	Run1	generate/STIM_003.jpg
86.757	1.259	correct	generate	Run1	generate/STIM_003.jpg
90.289	2.142	incorrect	generate	Run1	generate/STIM_003.jpg
96.289	1.716	correct	generate	Run1	generate/STIM_003.jpg
101.339	1.707	incorrect	generate	Run1	generate/STIM_004.jpg
105.308	2.408	correct	generate	Run1	generate/STIM_004.jpg
111.912	1.338	correct	generate	Run1	generate/STIM_004.jpg
116.144	0.91	correct	generate	Run1	generate/STIM_004.jpg
119.51	1.73	correct	generate	Run1	generate/STIM_004.jpg
124.747	2.338	correct	generate	Run1	generate/STIM_005.jpg
130.5	1.416	correct	generate	Run1	generate/STIM_005.jpg
135.978	2.162	incorrect	generate	Run1	generate/STIM_005.jpg
142.079	1.473	correct	generate	Run1	generate/STIM_005.jpg
147.183	1.367	correct	generate	Run1	generate/STIM_005.jpg
151.422	1.453	correct	generate	Run1	generate/STIM_006.jpg
155.09	1.518	correct	generate	Run1	generate/STIM_006.jpg
159.79	2.267	correct	generate	Run1	generate/STIM_006.jpg
164.673	1.474	correct	generate	Run1	generate/STIM_006.jpg
168.382	1.549	incorrect	generate	Run1	generate/STIM_006.jpg
172.913	1.521	incorrect	generate	Run1	generate/STIM_007.jpg
177.745	2.262	correct	generate	Run1	generate/STIM_007.jpg
183.053	1.313	correct	generate	Run1	generate/STIM_007.jpg
186.849	1.445	correct	generate	Run1	generate/STIM_007.jpg
190.803	1.11	incorrect	generate	Run1	generate/STIM_007.jpg
194.209	1.13	correct	generate	Run1	generate/STIM_008.jpg
197.688	1.443	correct	generate	Run1	generate/STIM_008.jpg
201.733	1.276	incorrect	generate	Run1	generate/STIM_008.jpg
206.721	0.973	correct	generate	Run1	generate/STIM_008.jpg
210.375	1.768	correct	generate	Run1	generate/STIM_008.jpg
215.129	1.829	correct	generate	Run1	generate/STIM_009.jpg
219.636	1.81	correct	generate	Run1	generate/STIM_009.jpg
224.015	1.064	incorrect	generate	Run1	generate/STIM_009.jpg
227.658	0.997	correct	generate	Run1	generate/STIM_009.jpg
231.008	1.56	correct	generate	Run1	generate/STIM_009.jpg
235.857	1.56	incorrect	generate	Run1	generate/STIM_010.jpg
240.643	1.291	correct	generate	Run1	generate/STIM_010.jpg
245.642	1.098	correct	generate	Run1	generate/STIM_010.jpg
249.402	1.054	correct	generate	Run1	generate/STIM_010.jpg
254.425	2.077	correct	generate	Run1	generate/STIM_010.jpg
259.334	1.54	correct	generate	Run1	generate/STIM_011.jpg
264.634	2.422	correct	generate	Run1	generate/STIM_011.jpg
269.884	1.452	correct	generate	Run1	generate/STIM_011.jpg
273.577	1.233	incorrect	generate	Run1	generate/STIM_011.jpg
278.853	1.073	correct	generate	Run1	generate/STIM_011.jpg
282.484	1.463	correct	generate	Run1	generate/STIM_012.jpg
287.016	1.33	incorrect	generate	Run1	generate/STIM_012.jpg
291.987	1.596	correct	generate	Run1	generate/STIM_012.jpg
297.225	1.299	correct	generate	Run1	generate/STIM_012.jpg
301.34	1.449	correct	generate	Run1	generate/STIM_012.jpg
306.063	1.98	correct	generate	Run1	generate/STIM_013.jpg
310.394	1.308	incorrect	generate	Run1	generate/STIM_013.jpg
315.331	1.073	correct	generate	Run1	generate/STIM_013.jpg
320.29	1.184	incorrect	generate	Run1	generate/STIM_013.jpg
324.361	1.453	correct	generate	Run1	generate/STIM_013.jpg
328.76	2.544	correct	generate	Run1	generate/STIM_014.jpg
335.233	1.802	correct	generate	Run1	generate/STIM_014.jpg
340.118	1.861	incorrect	generate	Run1	generate/STIM_014.jpg
344.378	1.84	correct	generate	Run1	generate/STIM_014.jpg
349.738	1.266	correct	generate	Run1	generate/STIM_014.jpg
354.308	1.877	incorrect	generate	Run1	generate/STIM_015.jpg
358.649	1.729	incorrect	generate	Run1	generate/STIM_015.jpg
363.903	2.355	correct	generate	Run1	generate/STIM_015.jpg
369.234	1.392	correct	generate	Run1	generate/STIM_015.jpg
374.133	1.073	correct	generate	Run1	generate/STIM_015.jpg
378.135	2.444	correct	generate	Run1	generate/STIM_016.jpg
384.571	1.768	incorrect	generate	Run1	generate/STIM_016.jpg
389.863	1.266	correct	generate	Run1	generate/STIM_016.jpg
393.76	1.682	correct	generate	Run1	generate/STIM_016.jpg
398.181	1.224	correct	generate	Run1	generate/STIM_016.jpg
403.549	2.582	correct	generate	Run1	generate/STIM_017.jpg
408.751	1.588	correct	generate	Run1	generate/STIM_017.jpg
414.374	1.932	correct	generate	Run1	generate/STIM_017.jpg
419.487	1.504	correct	generate	Run1	generate/STIM_017.jpg
424.728	1.178	correct	generate	Run1	generate/STIM_017.jpg
428.076	1.355	incorrect	generate	Run1	generate/STIM_018.jpg
433.404	2.025	correct	generate	Run1	generate/STIM_018.jpg
438.724	0.965	incorrect	generate	Run1	generate/STIM_018.jpg
442.851	1.217	incorrect	generate	Run1	generate/STIM_018.jpg
446.626	0.965	correct	generate	Run1	generate/STIM_018.jpg
450.345	2.501	incorrect	generate	Run1	generate/STIM_019.jpg
456.98	1.58	correct	generate	Run1	generate/STIM_019.jpg
462.703	1.464	correct	generate	Run1	generate/STIM_019.jpg
466.767	1.923	incorrect	generate	Run1	generate/STIM_019.jpg
471.419	1.956	incorrect	generate	Run1	generate/STIM_019.jpg
476.029	2.247	correct	generate	Run1	generate/STIM_020.jpg
481.834	1.592	incorrect	generate	Run1	generate/STIM_020.jpg
486.664	1.652	correct	generate	Run1	generate/STIM_020.jpg
491.261	1.617	correct	generate	Run1	generate/STIM_020.jpg
495.558	1.655	correct	generate	Run1	generate/STIM_020.jpg
500.961	1.674	incorrect	generate	Run1	generate/STIM_021.jpg
506.032	1.884	correct	generate	Run1	generate/STIM_021.jpg
510.914	1.122	correct	generate	Run1	generate/STIM_021.jpg
514.847	2.203	incorrect	generate	Run1	generate/STIM_021.jpg
519.72	1.322	incorrect	generate	Run1	generate/STIM_021.jpg
523.386	1.605	correct	generate	Run1	generate/STIM_022.jpg
528.511	1.402	correct	generate	Run1	generate/STIM_022.jpg
532.277	1.44	correct	generate	Run1	generate/STIM_022.jpg
536.881	1.092	incorrect	generate	Run1	generate/STIM_022.jpg
540.164	2.063	correct	generate	Run1	generate/STIM_022.jpg
545.594	1.148	incorrect	generate	Run1	generate/STIM_023.jpg
549.757	1.884	correct	generate	Run1	generate/STIM_023.jpg
554.174	1.041	correct	generate	Run1	generate/STIM_023.jpg
559.25	1.342	correct	generate	Run1	generate/STIM_023.jpg
562.788	1.363	correct	generate	Run1	generate/STIM_023.jpg
567.451	1.898	correct	generate	Run1	generate/STIM_024.jpg
572.699	2.228	correct	generate	Run1	generate/STIM_024.jpg
577.916	2.264	incorrect	generate	Run1	generate/STIM_024.jpg
584.139	1.004	correct	generate	Run1	generate/STIM_024.jpg
587.769	1.559	correct	generate	Run1	generate/STIM_024.jpg
591.85	0.534	correct	repeat	Run1	repeat/STIM_000.jpg
596.346	0.623	correct	repeat	Run1	repeat/STIM_000.jpg
599.869	0.832	correct	repeat	Run1	repeat/STIM_000.jpg
603.471	0.849	correct	repeat	Run1	repeat/STIM_000.jpg
608.361	0.478	correct	repeat	Run1	repeat/STIM_000.jpg
612.768	0.519	correct	repeat	Run1	repeat/STIM_001.jpg
615.796	0.634	correct	repeat	Run1	repeat/STIM_001.jpg
619.978	0.52	correct	repeat	Run1	repeat/STIM_001.jpg
623.472	0.805	correct	repeat	Run1	repeat/STIM_001.jpg
627.434	0.769	correct	repeat	Run1	repeat/STIM_001.jpg
631.245	0.539	correct	repeat	Run1	repeat/STIM_002.jpg
633.88	0.786	correct	repeat	Run1	repeat/STIM_002.jpg
637.524	0.72	correct	repeat	Run1	repeat/STIM_002.jpg
641.908	0.569	correct	repeat	Run1	repeat/STIM_002.jpg
645.089	0.694	correct	repeat	Run1	repeat/STIM_002.jpg
649.345	0.649	correct	repeat	Run1	repeat/STIM_003.jpg
653.013	0.478	correct	repeat	Run1	repeat/STIM_003.jpg
656.584	0.701	correct	repeat	Run1	repeat/STIM_003.jpg
659.969	0.472	correct	repeat	Run1	repeat/STIM_003.jpg
663.013	0.627	correct	repeat	Run1	repeat/STIM_003.jpg
667.693	0.713	correct	repeat	Run1	repeat/STIM_004.jpg
672.146	0.583	correct	repeat	Run1	repeat/STIM_004.jpg
675.452	0.618	correct	repeat	Run1	repeat/STIM_004.jpg
679.908	0.726	correct	repeat	Run1	repeat/STIM_004.jpg
682.948	0.591	correct	repeat	Run1	repeat/STIM_004.jpg
687.42	0.702	correct	repeat	Run1	repeat/STIM_005.jpg
692.125	0.686	correct	repeat	Run1	repeat/STIM_005.jpg
695.919	0.845	correct	repeat	Run1	repeat/STIM_005.jpg
698.909	0.722	correct	repeat	Run1	repeat/STIM_005.jpg
703.303	0.858	correct	repeat	Run1	repeat/STIM_005.jpg
706.526	0.599	correct	repeat	Run1	repeat/STIM_006.jpg
711.172	0.545	correct	repeat	Run1	repeat/STIM_006.jpg
715.273	0.738	correct	repeat	Run1	repeat/STIM_006.jpg
718.328	0.565	correct	repeat	Run1	repeat/STIM_006.jpg
722.013	0.766	correct	repeat	Run1	repeat/STIM_006.jpg
726.432	0.748	correct	repeat	Run1	repeat/STIM_007.jpg
730.166	0.586	correct	repeat	Run1	repeat/STIM_007.jpg
733.313	0.448	correct	repeat	Run1	repeat/STIM_007.jpg
736.066	0.641	correct	repeat	Run1	repeat/STIM_007.jpg
739.888	0.713	correct	repeat	Run1	repeat/STIM_007.jpg
742.911	0.524	correct	repeat	Run1	repeat/STIM_008.jpg
745.598	0.666	correct	repeat	Run1	repeat/STIM_008.jpg
748.835	0.705	correct	repeat	Run1	repeat/STIM_008.jpg
752.969	0.695	correct	repeat	Run1	repeat/STIM_008.jpg
756.402	0.817	correct	repeat	Run1	repeat/STIM_008.jpg
760.777	0.573	correct	repeat	Run1	repeat/STIM_009.jpg
765.169	0.678	correct	repeat	Run1	repeat/STIM_009.jpg
768.685	0.726	correct	repeat	Run1	repeat/STIM_009.jpg
771.919	0.768	correct	repeat	Run1	repeat/STIM_009.jpg
776.308	0.836	correct	repeat	Run1	repeat/STIM_009.jpg
780.079	0.465	correct	repeat	Run1	repeat/STIM_010.jpg
783.771	0.868	correct	repeat	Run1	repeat/STIM_010.jpg
788.715	0.581	correct	repeat	Run1	repeat/STIM_010.jpg
792.595	0.642	correct	repeat	Run1	repeat/STIM_010.jpg
796.004	0.653	correct	repeat	Run1	repeat/STIM_010.jpg
798.918	0.81	correct	repeat	Run1	repeat/STIM_011.jpg
803.272	0.803	correct	repeat	Run1	repeat/STIM_011.jpg
808.118	0.773	correct	repeat	Run1	repeat/STIM_011.jpg
811.449	0.793	incorrect	repeat	Run1	repeat/STIM_011.jpg
814.545	0.544	correct	repeat	Run1	repeat/STIM_011.jpg
817.961	0.862	correct	repeat	Run1	repeat/STIM_012.jpg
822.659	0.68	correct	repeat	Run1	repeat/STIM_012.jpg
825.583	0.694	incorrect	repeat	Run1	repeat/STIM_012.jpg
829.381	0.47	correct	repeat	Run1	repeat/STIM_012.jpg
832.298	0.596	correct	repeat	Run1	repeat/STIM_012.jpg
836.265	0.763	correct	repeat	Run1	repeat/STIM_013.jpg
839.892	0.756	correct	repeat	Run1	repeat/STIM_013.jpg
844.04	0.558	correct	repeat	Run1	repeat/STIM_013.jpg
848.151	0.586	correct	repeat	Run1	repeat/STIM_013.jpg
850.925	0.802	correct	repeat	Run1	repeat/STIM_013.jpg
855.785	0.84	correct	repeat	Run1	repeat/STIM_014.jpg
859.569	0.729	incorrect	repeat	Run1	repeat/STIM_014.jpg
864.106	0.706	correct	repeat	Run1	repeat/STIM_014.jpg
868.39	0.594	correct	repeat	Run1	repeat/STIM_014.jpg
872.313	0.517	correct	repeat	Run1	repeat/STIM_014.jpg
876.067	1.047	incorrect	generate	Run2	generate/STIM_000.jpg
879.539	1.367	correct	generate	Run2	generate/STIM_000.jpg
883.277	1.292	incorrect	generate	Run2	generate/STIM_000.jpg
888.633	0.778	correct	generate	Run2	generate/STIM_000.jpg
892.873	1.165	incorrect	generate	Run2	generate/STIM_000.jpg
896.485	1.032	correct	generate	Run2	generate/STIM_001.jpg
899.914	1.249	incorrect	generate	Run2	generate/STIM_001.jpg
903.496	1.608	correct	generate	Run2	generate/STIM_001.jpg
907.909	1.589	incorrect	generate	Run2	generate/STIM_001.jpg
913.338	1.136	correct	generate	Run2	generate/STIM_001.jpg
917.084	1.332	correct	generate	Run2	generate/STIM_002.jpg
921.642	0.901	incorrect	generate	Run2	generate/STIM_002.jpg
925.268	1.235	correct	generate	Run2	generate/STIM_002.jpg
929.369	1.333	correct	generate	Run2	generate/STIM_002.jpg
934.534	1.297	correct	generate	Run2	generate/STIM_002.jpg
939.286	0.97	correct	generate	Run2	generate/STIM_003.jpg
942.742	1.32	incorrect	generate	Run2	generate/STIM_003.jpg
948.233	1.89	correct	generate	Run2	generate/STIM_003.jpg
954.089	1.407	correct	generate	Run2	generate/STIM_003.jpg
959.594	0.926	incorrect	generate	Run2	generate/STIM_003.jpg
964.46	1.097	correct	generate	Run2	generate/STIM_004.jpg
967.733	2.114	correct	generate	Run2	generate/STIM_004.jpg
973.684	1.106	correct	generate	Run2	generate/STIM_004.jpg
978.81	1.041	correct	generate	Run2	generate/STIM_004.jpg
983.748	1.821	incorrect	generate	Run2	generate/STIM_004.jpg
988.39	1.58	correct	generate	Run2	generate/STIM_005.jpg
992.252	1.48	correct	generate	Run2	generate/STIM_005.jpg
996.879	0.834	correct	generate	Run2	generate/STIM_005.jpg
1000.804	1.426	correct	generate	Run2	generate/STIM_005.jpg
1006.274	1.36	correct	generate	Run2	generate/STIM_005.jpg
1011.106	1.966	incorrect	generate	Run2	generate/STIM_006.jpg
1017.073	1.931	correct	generate	Run2	generate/STIM_006.jpg
1021.331	0.853	correct	generate	Run2	generate/STIM_006.jpg
1024.821	1.051	correct	generate	Run2	generate/STIM_006.jpg
1029.39	0.982	correct	generate	Run2	generate/STIM_006.jpg
1034.375	1.629	incorrect	generate	Run2	generate/STIM_007.jpg
1039.433	1.64	correct	generate	Run2	generate/STIM_007.jpg
1044.856	1.039	incorrect	generate	Run2	generate/STIM_007.jpg
1049.58	1.401	correct	generate	Run2	generate/STIM_007.jpg
1053.328	1.458	correct	generate	Run2	generate/STIM_007.jpg
1057.795	1.175	correct	generate	Run2	generate/STIM_008.jpg
1062.924	1.567	correct	generate	Run2	generate/STIM_008.jpg
1067.832	1.007	correct	generate	Run2	generate/STIM_008.jpg
1072.692	1.25	correct	generate	Run2	generate/STIM_008.jpg
1078.083	0.977	incorrect	generate	Run2	generate/STIM_008.jpg
1081.684	2.199	correct	generate	Run2	generate/STIM_009.jpg
1087.102	2.115	incorrect	generate	Run2	generate/STIM_009.jpg
1092.313	0.847	incorrect	generate	Run2	generate/STIM_009.jpg
1096.078	0.816	correct	generate	Run2	generate/STIM_009.jpg
1100.071	1.309	correct	generate	Run2	generate/STIM_009.jpg
1104.654	1.308	correct	generate	Run2	generate/STIM_010.jpg
1109.188	1.268	correct	generate	Run2	generate/STIM_010.jpg
1114.614	1.337	correct	generate	Run2	generate/STIM_010.jpg
1118.357	1.511	correct	generate	Run2	generate/STIM_010.jpg
1122.762	1.831	correct	generate	Run2	generate/STIM_010.jpg
1127.552	0.926	incorrect	generate	Run2	generate/STIM_011.jpg
1131.121	1.603	correct	generate	Run2	generate/STIM_011.jpg
1135.139	0.804	correct	generate	Run2	generate/STIM_011.jpg
1139.657	1.244	correct	generate	Run2	generate/STIM_011.jpg
1143.674	1.115	correct	generate	Run2	generate/STIM_011.jpg
1148.798	1.264	correct	generate	Run2	generate/STIM_012.jpg
1153.809	1.826	correct	generate	Run2	generate/STIM_012.jpg
1158.755	1.736	correct	generate	Run2	generate/STIM_012.jpg
1164.597	0.922	correct	generate	Run2	generate/STIM_012.jpg
1168.792	0.789	correct	generate	Run2	generate/STIM_012.jpg
1173.079	1.095	incorrect	generate	Run2	generate/STIM_013.jpg
1178.088	1.374	correct	generate	Run2	generate/STIM_013.jpg
1182.089	1.476	correct	generate	Run2	generate/STIM_013.jpg
1187.146	1.466	correct	generate	Run2	generate/STIM_013.jpg
1191.872	1.712	correct	generate	Run2	generate/STIM_013.jpg
1196.333	2.115	correct	generate	Run2	generate/STIM_014.jpg
1201.511	1.456	correct	generate	Run2	generate/STIM_014.jpg
1205.319	1.413	correct	generate	Run2	generate/STIM_014.jpg
1209.669	1.612	correct	generate	Run2	generate/STIM_014.jpg
1215.024	1.402	correct	generate	Run2	generate/STIM_014.jpg
1219.55	1.442	incorrect	generate	Run2	generate/STIM_015.jpg
1224.654	1.414	correct	generate	Run2	generate/STIM_015.jpg
1229.946	1.308	correct	generate	Run2	generate/STIM_015.jpg
1233.629	1.615	correct	generate	Run2	generate/STIM_015.jpg
1238.121	1.559	correct	generate	Run2	generate/STIM_015.jpg
1242.512	0.979	incorrect	generate	Run2	generate/STIM_016.jpg
1246.216	0.937	incorrect	generate	Run2	generate/STIM_016.jpg
1250.051	1.095	correct	generate	Run2	generate/STIM_016.jpg
1254.615	1.796	correct	generate	Run2	generate/STIM_016.jpg
1259.626	1.846	correct	generate	Run2	generate/STIM_016.jpg
1264.723	1.936	correct	generate	Run2	generate/STIM_017.jpg
1269.329	1.237	correct	generate	Run2	generate/STIM_017.jpg
1273.142	0.976	correct	generate	Run2	generate/STIM_017.jpg
1278.022	0.952	correct	generate	Run2	generate/STIM_017.jpg
1281.607	1.087	correct	generate	Run2	generate/STIM_017.jpg
1285.776	1.618	correct	generate	Run2	generate/STIM_018.jpg
1290.723	1.533	correct	generate	Run2	generate/STIM_018.jpg
1295.085	1.803	correct	generate	Run2	generate/STIM_018.jpg
1300.747	0.994	correct	generate	Run2	generate/STIM_018.jpg
1304.742	1.376	correct	generate	Run2	generate/STIM_018.jpg
1308.716	1.215	correct	generate	Run2	generate/STIM_019.jpg
1313.375	1.997	incorrect	generate	Run2	generate/STIM_019.jpg
1318.033	1.644	correct	generate	Run2	generate/STIM_019.jpg
1323.14	0.796	incorrect	generate	Run2	generate/STIM_019.jpg
1327.858	1.665	correct	generate	Run2	generate/STIM_019.jpg
1332.032	1.577	correct	generate	Run2	generate/STIM_020.jpg
1336.19	1.827	correct	generate	Run2	generate/STIM_020.jpg
1340.923	1.241	correct	generate	Run2	generate/STIM_020.jpg
1345.286	1.789	correct	generate	Run2	generate/STIM_020.jpg
1349.368	0.849	correct	generate	Run2	generate/STIM_020.jpg
1353.914	1.569	correct	generate	Run2	generate/STIM_021.jpg
1358.558	1.561	correct	generate	Run2	generate/STIM_021.jpg
1363.252	1.953	correct	generate	Run2	generate/STIM_021.jpg
1368.513	0.966	correct	generate	Run2	generate/STIM_021.jpg
1371.664	1.659	correct	generate	Run2	generate/STIM_021.jpg
1375.651	1.982	correct	generate	Run2	generate/STIM_022.jpg
1381.069	1.251	correct	generate	Run2	generate/STIM_022.jpg
1385.413	1.737	correct	generate	Run2	generate/STIM_022.jpg
1390.832	1.635	correct	generate	Run2	generate/STIM_022.jpg
1395.83	1.493	correct	generate	Run2	generate/STIM_022.jpg
1400.534	2.187	correct	generate	Run2	generate/STIM_023.jpg
1406.025	1.968	correct	generate	Run2	generate/STIM_023.jpg
1412.099	1.248	incorrect	generate	Run2	generate/STIM_023.jpg
1416.906	1.407	correct	generate	Run2	generate/STIM_023.jpg
1421.456	1.026	correct	generate	Run2	generate/STIM_023.jpg
1425.318	1.257	correct	generate	Run2	generate/STIM_024.jpg
1430.306	0.884	incorrect	generate	Run2	generate/STIM_024.jpg
1433.907	1.287	correct	generate	Run2	generate/STIM_024.jpg
1438.572	1.674	correct	generate	Run2	generate/STIM_024.jpg
1443.115	1.832	correct	generate	Run2	generate/STIM_024.jpg
1449.169	0.523	correct	repeat	Run2	repeat/STIM_000.jpg
1452.287	0.806	correct	repeat	Run2	repeat/STIM_000.jpg
1456.792	0.695	correct	repeat	Run2	repeat/STIM_000.jpg
1459.668	0.697	correct	repeat	Run2	repeat/STIM_000.jpg
1462.842	0.828	correct	repeat	Run2	repeat/STIM_000.jpg
1466.241	0.803	correct	repeat	Run2	repeat/STIM_001.jpg
1470.817	0.855	correct	repeat	Run2	repeat/STIM_001.jpg
1475.245	0.764	correct	repeat	Run2	repeat/STIM_001.jpg
1479.106	0.45	correct	repeat	Run2	repeat/STIM_001.jpg
1482.775	0.738	incorrect	repeat	Run2	repeat/STIM_001.jpg
1486.227	0.804	correct	repeat	Run2	repeat/STIM_002.jpg
1490.919	0.723	correct	repeat	Run2	repeat/STIM_002.jpg
1495.469	0.71	correct	repeat	Run2	repeat/STIM_002.jpg
1499.594	0.716	correct	repeat	Run2	repeat/STIM_002.jpg
1503.207	0.608	correct	repeat	Run2	repeat/STIM_002.jpg
1506.78	0.646	correct	repeat	Run2	repeat/STIM_003.jpg
1510.271	0.736	correct	repeat	Run2	repeat/STIM_003.jpg
1513.165	0.687	incorrect	repeat	Run2	repeat/STIM_003.jpg
1516.265	0.756	correct	repeat	Run2	repeat/STIM_003.jpg
1520.496	0.81	correct	repeat	Run2	repeat/STIM_003.jpg
1524.409	0.67	correct	repeat	Run2	repeat/STIM_004.jpg
1528.39	0.788	correct	repeat	Run2	repeat/STIM_004.jpg
1531.896	0.743	correct	repeat	Run2	repeat/STIM_004.jpg
1536.284	0.866	correct	repeat	Run2	repeat/STIM_004.jpg
1539.81	0.704	correct	repeat	Run2	repeat/STIM_004.jpg
1544.262	0.682	correct	repeat	Run2	repeat/STIM_005.jpg
1547.51	0.796	incorrect	repeat	Run2	repeat/STIM_005.jpg
1552.325	0.481	correct	repeat	Run2	repeat/STIM_005.jpg
1556.819	0.497	correct	repeat	Run2	repeat/STIM_005.jpg
1559.604	0.615	correct	repeat	Run2	repeat/STIM_005.jpg
1562.795	0.819	correct	repeat	Run2	repeat/STIM_006.jpg
1567.054	0.59	correct	repeat	Run2	repeat/STIM_006.jpg
1570.159	0.798	correct	repeat	Run2	repeat/STIM_006.jpg
1573.978	0.845	correct	repeat	Run2	repeat/STIM_006.jpg
1578.248	0.618	correct	repeat	Run2	repeat/STIM_006.jpg
1580.952	0.529	correct	repeat	Run2	repeat/STIM_007.jpg
1584.713	0.58	correct	repeat	Run2	repeat/STIM_007.jpg
1589.142	0.668	correct	repeat	Run2	repeat/STIM_007.jpg
1593.578	0.645	correct	repeat	Run2	repeat/STIM_007.jpg
1596.996	0.532	correct	repeat	Run2	repeat/STIM_007.jpg
1600.823	0.57	correct	repeat	Run2	repeat/STIM_008.jpg
1604.054	0.88	correct	repeat	Run2	repeat/STIM_008.jpg
1608.308	0.726	correct	repeat	Run2	repeat/STIM_008.jpg
1612.291	0.809	correct	repeat	Run2	repeat/STIM_008.jpg
1616.12	0.716	correct	repeat	Run2	repeat/STIM_008.jpg
1619.472	0.571	correct	repeat	Run2	repeat/STIM_009.jpg
1623.524	0.598	correct	repeat	Run2	repeat/STIM_009.jpg
1626.381	0.745	correct	repeat	Run2	repeat/STIM_009.jpg
1630.132	0.765	correct	repeat	Run2	repeat/STIM_009.jpg
1634.012	0.752	correct	repeat	Run2	repeat/STIM_009.jpg
1637.791	0.659	incorrect	repeat	Run2	repeat/STIM_010.jpg
1640.786	0.468	correct	repeat	Run2	repeat/STIM_010.jpg
1643.708	0.462	correct	repeat	Run2	repeat/STIM_010.jpg
1646.865	0.484	correct	repeat	Run2	repeat/STIM_010.jpg
1651.278	0.705	correct	repeat	Run2	repeat/STIM_010.jpg
1655.325	0.63	correct	repeat	Run2	repeat/STIM_011.jpg
1658.056	0.544	correct	repeat	Run2	repeat/STIM_011.jpg
1661.079	0.562	correct	repeat	Run2	repeat/STIM_011.jpg
1665.706	0.566	correct	repeat	Run2	repeat/STIM_011.jpg
1668.399	0.709	correct	repeat	Run2	repeat/STIM_011.jpg
1672.197	0.464	correct	repeat	Run2	repeat/STIM_012.jpg
1675.412	0.744	correct	repeat	Run2	repeat/STIM_012.jpg
1678.537	0.692	correct	repeat	Run2	repeat/STIM_012.jpg
1682.507	0.707	correct	repeat	Run2	repeat/STIM_012.jpg
1686.98	0.703	correct	repeat	Run2	repeat/STIM_012.jpg
1690.453	0.626	correct	repeat	Run2	repeat/STIM_013.jpg
1695.037	0.754	correct	repeat	Run2	repeat/STIM_013.jpg
1698.107	0.657	correct	repeat	Run2	repeat/STIM_013.jpg
1702.566	0.838	correct	repeat	Run2	repeat/STIM_013.jpg
1706.307	0.778	correct	repeat	Run2	repeat/STIM_013.jpg
1710.171	0.878	correct	repeat	Run2	repeat/STIM_014.jpg
1713.222	0.507	correct	repeat	Run2	repeat/STIM_014.jpg
1717.349	0.594	correct	repeat	Run2	repeat/STIM_014.jpg
1720.693	0.674	correct	repeat	Run2	repeat/STIM_014.jpg
1723.978	0.448	correct	repeat	Run2	repeat/STIM_014.jpg
1728.35	1.345	correct	generate	Run3	generate/STIM_000.jpg
1732.051	1.749	correct	generate	Run3	generate/STIM_000.jpg
1737.856	1.793	correct	generate	Run3	generate/STIM_000.jpg
1743.143	1.623	correct	generate	Run3	generate/STIM_000.jpg
1748.673	1.77	correct	generate	Run3	generate/STIM_000.jpg
1753.897	1.188	correct	generate	Run3	generate/STIM_001.jpg
1758.152	0.79	correct	generate	Run3	generate/STIM_001.jpg
1761.477	1.456	correct	generate	Run3	generate/STIM_001.jpg
1765.165	0.896	correct	generate	Run3	generate/STIM_001.jpg
1768.947	1.026	correct	generate	Run3	generate/STIM_001.jpg
1772.518	1.748	correct	generate	Run3	generate/STIM_002.jpg
1776.538	1.806	correct	generate	Run3	generate/STIM_002.jpg
1781.924	1.13	correct	generate	Run3	generate/STIM_002.jpg
1786.347	0.757	correct	generate	Run3	generate/STIM_002.jpg
1789.493	1.271	correct	generate	Run3	generate/STIM_002.jpg
1793.049	1.414	correct	generate	Run3	generate/STIM_003.jpg
1797.556	0.778	correct	generate	Run3	generate/STIM_003.jpg
1800.89	1.165	correct	generate	Run3	generate/STIM_003.jpg
1805.576	0.763	incorrect	generate	Run3	generate/STIM_003.jpg
1809.88	1.318	correct	generate	Run3	generate/STIM_003.jpg
1814.562	1.556	correct	generate	Run3	generate/STIM_004.jpg
1818.489	1.258	correct	generate	Run3	generate/STIM_004.jpg
1823.59	1.235	correct	generate	Run3	generate/STIM_004.jpg
1828.0	1.201	correct	generate	Run3	generate/STIM_004.jpg
1833.009	0.92	correct	generate	Run3	generate/STIM_004.jpg
1837.36	1.501	correct	generate	Run3	generate/STIM_005.jpg
1842.548	0.775	correct	generate	Run3	generate/STIM_005.jpg
1845.918	0.965	correct	generate	Run3	generate/STIM_005.jpg
1850.933	1.195	correct	generate	Run3	generate/STIM_005.jpg
1855.75	1.676	correct	generate	Run3	generate/STIM_005.jpg
1860.322	1.622	correct	generate	Run3	generate/STIM_006.jpg
1865.391	1.793	correct	generate	Run3	generate/STIM_006.jpg
1869.588	0.855	incorrect	generate	Run3	generate/STIM_006.jpg
1874.458	0.817	correct	generate	Run3	generate/STIM_006.jpg
1878.768	1.72	correct	generate	Run3	generate/STIM_006.jpg
1882.947	1.48	correct	generate	Run3	generate/STIM_007.jpg
1888.446	1.479	correct	generate	Run3	generate/STIM_007.jpg
1893.981	1.256	correct	generate	Run3	generate/STIM_007.jpg
1898.931	0.879	correct	generate	Run3	generate/STIM_007.jpg
1902.828	0.875	correct	generate	Run3	generate/STIM_007.jpg
1906.434	1.442	correct	generate	Run3	generate/STIM_008.jpg
1910.751	1.162	correct	generate	Run3	generate/STIM_008.jpg
1914.944	1.338	incorrect	generate	Run3	generate/STIM_008.jpg
1919.727	1.846	incorrect	generate	Run3	generate/STIM_008.jpg
1924.834	0.914	correct	generate	Run3	generate/STIM_008.jpg
1929.503	1.641	correct	generate	Run3	generate/STIM_009.jpg
1933.773	1.374	correct	generate	Run3	generate/STIM_009.jpg
1939.324	1.245	correct	generate	Run3	generate/STIM_009.jpg
1943.968	1.546	incorrect	generate	Run3	generate/STIM_009.jpg
1948.879	0.975	correct	generate	Run3	generate/STIM_009.jpg
1952.816	1.264	correct	generate	Run3	generate/STIM_010.jpg
1956.323	1.644	correct	generate	Run3	generate/STIM_010.jpg
1961.526	1.512	incorrect	generate	Run3	generate/STIM_010.jpg
1965.459	0.804	correct	generate	Run3	generate/STIM_010.jpg
1969.45	1.476	correct	generate	Run3	generate/STIM_010.jpg
1974.282	0.971	correct	generate	Run3	generate/STIM_011.jpg
1978.585	1.152	correct	generate	Run3	generate/STIM_011.jpg
1981.917	1.024	correct	generate	Run3	generate/STIM_011.jpg
1985.909	1.642	correct	generate	Run3	generate/STIM_011.jpg
1991.487	1.122	incorrect	generate	Run3	generate/STIM_011.jpg
1996.523	1.398	correct	generate	Run3	generate/STIM_012.jpg
2000.181	1.341	correct	generate	Run3	generate/STIM_012.jpg
2005.177	0.867	correct	generate	Run3	generate/STIM_012.jpg
2009.467	1.496	correct	generate	Run3	generate/STIM_012.jpg
2014.815	0.811	correct	generate	Run3	generate/STIM_012.jpg
2018.977	1.75	incorrect	generate	Run3	generate/STIM_013.jpg
2023.492	0.95	correct	generate	Run3	generate/STIM_013.jpg
2028.467	1.591	correct	generate	Run3	generate/STIM_013.jpg
2033.983	0.797	correct	generate	Run3	generate/STIM_013.jpg
2038.316	1.287	correct	generate	Run3	generate/STIM_013.jpg
2042.586	1.491	incorrect	generate	Run3	generate/STIM_014.jpg
2048.265	1.004	correct	generate	Run3	generate/STIM_014.jpg
2053.354	1.497	correct	generate	Run3	generate/STIM_014.jpg
2058.187	0.902	correct	generate	Run3	generate/STIM_014.jpg
2061.587	1.653	correct	generate	Run3	generate/STIM_014.jpg
2066.675	1.586	correct	generate	Run3	generate/STIM_015.jpg
2070.739	1.685	correct	generate	Run3	generate/STIM_015.jpg
2076.43	1.008	correct	generate	Run3	generate/STIM_015.jpg
2079.614	1.166	correct	generate	Run3	generate/STIM_015.jpg
2084.515	1.538	correct	generate	Run3	generate/STIM_015.jpg
2089.424	1.316	correct	generate	Run3	generate/STIM_016.jpg
2094.617	1.05	correct	generate	Run3	generate/STIM_016.jpg
2099.747	1.467	correct	generate	Run3	generate/STIM_016.jpg
2105.027	1.119	correct	generate	Run3	generate/STIM_016.jpg
2109.525	1.511	correct	generate	Run3	generate/STIM_016.jpg
2114.628	0.763	correct	generate	Run3	generate/STIM_017.jpg
2119.368	1.176	correct	generate	Run3	generate/STIM_017.jpg
2124.146	1.143	correct	generate	Run3	generate/STIM_017.jpg
2127.638	1.815	correct	generate	Run3	generate/STIM_017.jpg
2131.975	1.663	correct	generate	Run3	generate/STIM_017.jpg
2136.238	1.031	correct	generate	Run3	generate/STIM_018.jpg
2141.304	1.439	correct	generate	Run3	generate/STIM_018.jpg
2145.653	0.857	correct	generate	Run3	generate/STIM_018.jpg
2150.23	1.143	correct	generate	Run3	generate/STIM_018.jpg
2153.679	1.201	correct	generate	Run3	generate/STIM_018.jpg
2158.202	1.546	incorrect	generate	Run3	generate/STIM_019.jpg
2162.603	1.59	correct	generate	Run3	generate/STIM_019.jpg
2168.15	1.624	correct	generate	Run3	generate/STIM_019.jpg
2173.846	1.54	correct	generate	Run3	generate/STIM_019.jpg
2179.584	1.744	correct	generate	Run3	generate/STIM_019.jpg
2184.003	0.772	correct	generate	Run3	generate/STIM_020.jpg
2188.512	0.749	correct	generate	Run3	generate/STIM_020.jpg
2193.27	1.264	correct	generate	Run3	generate/STIM_020.jpg
2197.305	1.699	correct	generate	Run3	generate/STIM_020.jpg
2202.941	1.568	incorrect	generate	Run3	generate/STIM_020.jpg
2206.965	1.196	correct	generate	Run3	generate/STIM_021.jpg
2210.686	1.431	correct	generate	Run3	generate/STIM_021.jpg
2214.327	1.847	correct	generate	Run3	generate/STIM_021.jpg
2219.055	0.914	incorrect	generate	Run3	generate/STIM_021.jpg
2222.415	1.421	correct	generate	Run3	generate/STIM_021.jpg
2227.789	1.112	correct	generate	Run3	generate/STIM_022.jpg
2231.18	1.651	correct	generate	Run3	generate/STIM_022.jpg
2236.068	1.369	correct	generate	Run3	generate/STIM_022.jpg
2241.615	1.059	incorrect	generate	Run3	generate/STIM_022.jpg
2245.068	1.469	correct	generate	Run3	generate/STIM_022.jpg
2249.351	1.518	correct	generate	Run3	generate/STIM_023.jpg
2254.786	1.064	correct	generate	Run3	generate/STIM_023.jpg
2259.644	1.213	correct	generate	Run3	generate/STIM_023.jpg
2263.45	1.589	correct	generate	Run3	generate/STIM_023.jpg
2267.685	1.759	correct	generate	Run3	generate/STIM_023.jpg
2273.504	1.579	correct	generate	Run3	generate/STIM_024.jpg
2277.929	1.565	correct	generate	Run3	generate/STIM_024.jpg
2282.909	1.619	correct	generate	Run3	generate/STIM_024.jpg
2287.959	1.621	correct	generate	Run3	generate/STIM_024.jpg
2292.792	1.022	correct	generate	Run3	generate/STIM_024.jpg
2296.152	0.725	correct	repeat	Run3	repeat/STIM_000.jpg
2299.563	0.854	correct	repeat	Run3	repeat/STIM_000.jpg
2304.346	0.447	correct	repeat	Run3	repeat/STIM_000.jpg
2307.769	0.868	correct	repeat	Run3	repeat/STIM_000.jpg
2311.546	0.573	correct	repeat	Run3	repeat/STIM_000.jpg
2315.974	0.577	correct	repeat	Run3	repeat/STIM_001.jpg
2319.874	0.612	correct	repeat	Run3	repeat/STIM_001.jpg
2322.935	0.836	correct	repeat	Run3	repeat/STIM_001.jpg
2326.804	0.745	correct	repeat	Run3	repeat/STIM_001.jpg
2331.0	0.47	correct	repeat	Run3	repeat/STIM_001.jpg
2333.961	0.592	correct	repeat	Run3	repeat/STIM_002.jpg
2337.13	0.484	correct	repeat	Run3	repeat/STIM_002.jpg
2340.801	0.764	correct	repeat	Run3	repeat/STIM_002.jpg
2345.456	0.847	correct	repeat	Run3	repeat/STIM_002.jpg
2349.317	0.76	correct	repeat	Run3	repeat/STIM_002.jpg
2353.739	0.577	correct	repeat	Run3	repeat/STIM_003.jpg
2357.953	0.839	correct	repeat	Run3	repeat/STIM_003.jpg
2362.729	0.832	correct	repeat	Run3	repeat/STIM_003.jpg
2367.382	0.619	correct	repeat	Run3	repeat/STIM_003.jpg
2370.561	0.574	correct	repeat	Run3	repeat/STIM_003.jpg
2373.551	0.485	correct	repeat	Run3	repeat/STIM_004.jpg
2376.912	0.674	correct	repeat	Run3	repeat/STIM_004.jpg
2381.087	0.461	correct	repeat	Run3	repeat/STIM_004.jpg
2383.813	0.734	correct	repeat	Run3	repeat/STIM_004.jpg
2387.222	0.81	correct	repeat	Run3	repeat/STIM_004.jpg
2391.998	0.752	correct	repeat	Run3	repeat/STIM_005.jpg
2395.599	0.671	correct	repeat	Run3	repeat/STIM_005.jpg
2398.614	0.778	correct	repeat	Run3	repeat/STIM_005.jpg
2403.144	0.649	correct	repeat	Run3	repeat/STIM_005.jpg
2406.1	0.709	correct	repeat	Run3	repeat/STIM_005.jpg
2410.581	0.79	correct	repeat	Run3	repeat/STIM_006.jpg
2414.814	0.609	correct	repeat	Run3	repeat/STIM_006.jpg
2417.894	0.64	correct	repeat	Run3	repeat/STIM_006.jpg
2421.077	0.675	correct	repeat	Run3	repeat/STIM_006.jpg
2424.401	0.732	correct	repeat	Run3	repeat/STIM_006.jpg
2428.15	0.64	correct	repeat	Run3	repeat/STIM_007.jpg
2431.782	0.752	correct	repeat	Run3	repeat/STIM_007.jpg
2436.142	0.846	correct	repeat	Run3	repeat/STIM_007.jpg
2439.676	0.727	correct	repeat	Run3	repeat/STIM_007.jpg
2442.811	0.787	incorrect	repeat	Run3	repeat/STIM_007.jpg
2446.653	0.531	correct	repeat	Run3	repeat/STIM_008.jpg
2449.831	0.853	correct	repeat	Run3	repeat/STIM_008.jpg
2453.63	0.874	correct	repeat	Run3	repeat/STIM_008.jpg
2457.692	0.594	correct	repeat	Run3	repeat/STIM_008.jpg
2460.715	0.592	correct	repeat	Run3	repeat/STIM_008.jpg
2464.967	0.564	correct	repeat	Run3	repeat/STIM_009.jpg
2469.123	0.673	correct	repeat	Run3	repeat/STIM_009.jpg
2473.136	0.847	correct	repeat	Run3	repeat/STIM_009.jpg
2476.416	0.786	correct	repeat	Run3	repeat/STIM_009.jpg
2481.303	0.758	incorrect	repeat	Run3	repeat/STIM_009.jpg
2484.755	0.547	correct	repeat	Run3	repeat/STIM_010.jpg
2487.391	0.709	correct	repeat	Run3	repeat/STIM_010.jpg
2491.638	0.575	correct	repeat	Run3	repeat/STIM_010.jpg
2496.025	0.638	correct	repeat	Run3	repeat/STIM_010.jpg
2499.642	0.654	correct	repeat	Run3	repeat/STIM_010.jpg
2503.704	0.652	correct	repeat	Run3	repeat/STIM_011.jpg
2507.968	0.494	correct	repeat	Run3	repeat/STIM_011.jpg
2511.576	0.873	correct	repeat	Run3	repeat/STIM_011.jpg
2515.386	0.685	correct	repeat	Run3	repeat/STIM_011.jpg
2518.287	0.711	incorrect	repeat	Run3	repeat/STIM_011.jpg
2521.796	0.616	correct	repeat	Run3	repeat/STIM_012.jpg
2526.077	0.846	incorrect	repeat	Run3	repeat/STIM_012.jpg
2529.613	0.473	correct	repeat	Run3	repeat/STIM_012.jpg
2533.527	0.75	correct	repeat	Run3	repeat/STIM_012.jpg
2537.985	0.706	correct	repeat	Run3	repeat/STIM_012.jpg
2542.134	0.686	correct	repeat	Run3	repeat/STIM_013.jpg
2545.671	0.616	correct	repeat	Run3	repeat/STIM_013.jpg
2550.129	0.831	correct	repeat	Run3	repeat/STIM_013.jpg
2553.159	0.78	correct	repeat	Run3	repeat/STIM_013.jpg
2556.787	0.726	correct	repeat	Run3	repeat/STIM_013.jpg
2559.717	0.823	correct	repeat	Run3	repeat/STIM_014.jpg
2562.724	0.536	correct	repeat	Run3	repeat/STIM_014.jpg
2567.016	0.791	correct	repeat	Run3	repeat/STIM_014.jpg
2571.784	0.82	correct	repeat	Run3	repeat/STIM_014.jpg
2575.827	0.844	correct	repeat	Run3	repeat/STIM_014.jpg
2580.675	1.767	correct	generate	Run4	generate/STIM_000.jpg
2585.672	1.456	correct	generate	Run4	generate/STIM_000.jpg
2590.753	1.622	correct	generate	Run4	generate/STIM_000.jpg
2594.742	1.738	correct	generate	Run4	generate/STIM_000.jpg
2598.965	1.105	correct	generate	Run4	generate/STIM_000.jpg
2603.528	1.852	correct	generate	Run4	generate/STIM_001.jpg
2609.263	0.988	correct	generate	Run4	generate/STIM_001.jpg
2613.469	1.449	correct	generate	Run4	generate/STIM_001.jpg
2617.806	1.851	correct	generate	Run4	generate/STIM_001.jpg
2622.765	1.598	correct	generate	Run4	generate/STIM_001.jpg
2628.347	1.468	correct	generate	Run4	generate/STIM_002.jpg
2633.052	1.784	correct	generate	Run4	generate/STIM_002.jpg
2637.524	1.007	correct	generate	Run4	generate/STIM_002.jpg
2641.859	1.592	correct	generate	Run4	generate/STIM_002.jpg
2647.428	1.792	correct	generate	Run4	generate/STIM_002.jpg
2652.353	0.878	correct	generate	Run4	generate/STIM_003.jpg
2656.154	1.846	correct	generate	Run4	generate/STIM_003.jpg
2660.741	1.696	correct	generate	Run4	generate/STIM_003.jpg
2665.633	1.452	correct	generate	Run4	generate/STIM_003.jpg
2671.061	1.326	correct	generate	Run4	generate/STIM_003.jpg
2674.952	1.414	correct	generate	Run4	generate/STIM_004.jpg
2679.642	1.654	incorrect	generate	Run4	generate/STIM_004.jpg
2685.251	0.921	correct	generate	Run4	generate/STIM_004.jpg
2689.889	1.424	correct	generate	Run4	generate/STIM_004.jpg
2693.997	1.489	correct	generate	Run4	generate/STIM_004.jpg
2699.561	1.145	correct	generate	Run4	generate/STIM_005.jpg
2704.734	0.985	correct	generate	Run4	generate/STIM_005.jpg
2709.802	0.845	incorrect	generate	Run4	generate/STIM_005.jpg
2713.712	1.679	correct	generate	Run4	generate/STIM_005.jpg
2719.185	1.801	correct	generate	Run4	generate/STIM_005.jpg
2724.398	0.953	correct	generate	Run4	generate/STIM_006.jpg
2729.065	1.632	correct	generate	Run4	generate/STIM_006.jpg
2733.136	0.78	correct	generate	Run4	generate/STIM_006.jpg
2737.097	1.78	correct	generate	Run4	generate/STIM_006.jpg
2742.147	1.302	correct	generate	Run4	generate/STIM_006.jpg
2745.716	1.43	correct	generate	Run4	generate/STIM_007.jpg
2749.644	1.264	incorrect	generate	Run4	generate/STIM_007.jpg
2754.956	0.883	correct	generate	Run4	generate/STIM_007.jpg
2759.847	0.82	correct	generate	Run4	generate/STIM_007.jpg
2763.834	1.225	correct	generate	Run4	generate/STIM_007.jpg
2768.329	1.585	correct	generate	Run4	generate/STIM_008.jpg
2772.235	1.349	correct	generate	Run4	generate/STIM_008.jpg
2776.554	0.811	correct	generate	Run4	generate/STIM_008.jpg
2779.593	1.086	correct	generate	Run4	generate/STIM_008.jpg
2782.966	1.715	correct	generate	Run4	generate/STIM_008.jpg
2787.923	1.516	correct	generate	Run4	generate/STIM_009.jpg
2792.791	1.774	correct	generate	Run4	generate/STIM_009.jpg
2798.56	1.281	correct	generate	Run4	generate/STIM_009.jpg
2802.239	1.288	correct	generate	Run4	generate/STIM_009.jpg
2806.179	1.345	correct	generate	Run4	generate/STIM_009.jpg
2810.848	0.793	correct	generate	Run4	generate/STIM_010.jpg
2814.116	1.168	correct	generate	Run4	generate/STIM_010.jpg
2819.085	1.726	correct	generate	Run4	generate/STIM_010.jpg
2823.204	0.983	correct	generate	Run4	generate/STIM_010.jpg
2827.32	0.928	correct	generate	Run4	generate/STIM_010.jpg
2830.849	1.777	correct	generate	Run4	generate/STIM_011.jpg
2835.327	0.785	incorrect	generate	Run4	generate/STIM_011.jpg
2838.385	0.999	correct	generate	Run4	generate/STIM_011.jpg
2841.768	0.827	correct	generate	Run4	generate/STIM_011.jpg
2844.773	0.949	incorrect	generate	Run4	generate/STIM_011.jpg
2848.71	0.885	correct	generate	Run4	generate/STIM_012.jpg
2853.427	1.675	correct	generate	Run4	generate/STIM_012.jpg
2857.378	0.845	correct	generate	Run4	generate/STIM_012.jpg
2862.043	0.814	correct	generate	Run4	generate/STIM_012.jpg
2866.269	1.536	correct	generate	Run4	generate/STIM_012.jpg
2871.413	1.475	correct	generate	Run4	generate/STIM_013.jpg
2876.617	1.216	correct	generate	Run4	generate/STIM_013.jpg
2881.635	0.792	correct	generate	Run4	generate/STIM_013.jpg
2885.281	1.394	correct	generate	Run4	generate/STIM_013.jpg
2889.578	1.193	correct	generate	Run4	generate/STIM_013.jpg
2894.435	0.902	correct	generate	Run4	generate/STIM_014.jpg
2898.01	0.754	correct	generate	Run4	generate/STIM_014.jpg
2900.962	1.187	correct	generate	Run4	generate/STIM_014.jpg
2904.986	1.504	correct	generate	Run4	generate/STIM_014.jpg
2910.42	1.56	correct	generate	Run4	generate/STIM_014.jpg
2914.838	1.179	correct	generate	Run4	generate/STIM_015.jpg
2919.113	0.929	correct	generate	Run4	generate/STIM_015.jpg
2923.913	1.08	correct	generate	Run4	generate/STIM_015.jpg
2927.944	1.156	correct	generate	Run4	generate/STIM_015.jpg
2932.212	1.689	correct	generate	Run4	generate/STIM_015.jpg
2936.906	1.413	correct	generate	Run4	generate/STIM_016.jpg
2942.199	1.408	correct	generate	Run4	generate/STIM_016.jpg
2946.833	1.258	correct	generate	Run4	generate/STIM_016.jpg
2951.085	1.692	correct	generate	Run4	generate/STIM_016.jpg
2955.39	1.435	correct	generate	Run4	generate/STIM_016.jpg
2959.647	1.78	incorrect	generate	Run4	generate/STIM_017.jpg
2964.432	1.11	correct	generate	Run4	generate/STIM_017.jpg
2967.739	0.885	correct	generate	Run4	generate/STIM_017.jpg
2971.103	1.308	correct	generate	Run4	generate/STIM_017.jpg
2976.139	1.826	correct	generate	Run4	generate/STIM_017.jpg
2980.561	0.898	correct	generate	Run4	generate/STIM_018.jpg
2984.611	0.789	correct	generate	Run4	generate/STIM_018.jpg
2987.956	0.987	correct	generate	Run4	generate/STIM_018.jpg
2992.398	0.782	correct	generate	Run4	generate/STIM_018.jpg
2997.188	1.31	correct	generate	Run4	generate/STIM_018.jpg
3002.011	0.922	correct	generate	Run4	generate/STIM_019.jpg
3006.177	1.537	correct	generate	Run4	generate/STIM_019.jpg
3011.556	1.281	correct	generate	Run4	generate/STIM_019.jpg
3016.62	0.783	correct	generate	Run4	generate/STIM_019.jpg
3019.851	0.805	correct	generate	Run4	generate/STIM_019.jpg
3023.326	0.829	correct	generate	Run4	generate/STIM_020.jpg
3026.727	1.836	correct	generate	Run4	generate/STIM_020.jpg
3032.619	1.106	correct	generate	Run4	generate/STIM_020.jpg
3036.708	1.097	correct	generate	Run4	generate/STIM_020.jpg
3040.369	1.804	correct	generate	Run4	generate/STIM_020.jpg
3044.967	1.427	correct	generate	Run4	generate/STIM_021.jpg
3050.5	1.05	correct	generate	Run4	generate/STIM_021.jpg
3055.527	1.6	correct	generate	Run4	generate/STIM_021.jpg
3059.404	1.403	correct	generate	Run4	generate/STIM_021.jpg
3064.589	0.811	correct	generate	Run4	generate/STIM_021.jpg
3067.848	1.31	correct	generate	Run4	generate/STIM_022.jpg
3071.97	0.942	correct	generate	Run4	generate/STIM_022.jpg
3075.515	1.708	correct	generate	Run4	generate/STIM_022.jpg
3080.462	0.934	correct	generate	Run4	generate/STIM_022.jpg
3085.335	1.604	correct	generate	Run4	generate/STIM_022.jpg
3089.91	1.314	correct	generate	Run4	generate/STIM_023.jpg
3094.059	0.845	correct	generate	Run4	generate/STIM_023.jpg
3098.025	1.499	correct	generate	Run4	generate/STIM_023.jpg
3102.797	1.414	correct	generate	Run4	generate/STIM_023.jpg
3108.105	1.641	correct	generate	Run4	generate/STIM_023.jpg
3113.064	1.778	correct	generate	Run4	generate/STIM_024.jpg
3117.794	1.157	correct	generate	Run4	generate/STIM_024.jpg
3121.941	1.219	correct	generate	Run4	generate/STIM_024.jpg
3126.851	1.11	correct	generate	Run4	generate/STIM_024.jpg
3131.098	0.9	correct	generate	Run4	generate/STIM_024.jpg
3134.379	0.453	correct	repeat	Run4	repeat/STIM_000.jpg
3137.582	0.615	correct	repeat	Run4	repeat/STIM_000.jpg
3141.662	0.682	correct	repeat	Run4	repeat/STIM_000.jpg
3146.033	0.859	correct	repeat	Run4	repeat/STIM_000.jpg
3150.775	0.627	correct	repeat	Run4	repeat/STIM_000.jpg
3153.815	0.622	correct	repeat	Run4	repeat/STIM_001.jpg
3158.013	0.506	correct	repeat	Run4	repeat/STIM_001.jpg
3161.712	0.726	correct	repeat	Run4	repeat/STIM_001.jpg
3164.557	0.86	correct	repeat	Run4	repeat/STIM_001.jpg
3168.24	0.559	correct	repeat	Run4	repeat/STIM_001.jpg
3171.719	0.881	correct	repeat	Run4	repeat/STIM_002.jpg
3175.604	0.47	correct	repeat	Run4	repeat/STIM_002.jpg
3180.103	0.777	incorrect	repeat	Run4	repeat/STIM_002.jpg
3183.926	0.749	correct	repeat	Run4	repeat/STIM_002.jpg
3188.108	0.496	correct	repeat	Run4	repeat/STIM_002.jpg
3192.362	0.582	correct	repeat	Run4	repeat/STIM_003.jpg
3196.929	0.578	correct	repeat	Run4	repeat/STIM_003.jpg
3200.531	0.531	correct	repeat	Run4	repeat/STIM_003.jpg
3203.267	0.863	correct	repeat	Run4	repeat/STIM_003.jpg
3206.509	0.671	correct	repeat	Run4	repeat/STIM_003.jpg
3210.017	0.825	correct	repeat	Run4	repeat/STIM_004.jpg
3212.987	0.613	correct	repeat	Run4	repeat/STIM_004.jpg
3216.15	0.623	correct	repeat	Run4	repeat/STIM_004.jpg
3219.034	0.732	correct	repeat	Run4	repeat/STIM_004.jpg
3222.622	0.454	correct	repeat	Run4	repeat/STIM_004.jpg
3226.431	0.633	correct	repeat	Run4	repeat/STIM_005.jpg
3230.67	0.712	correct	repeat	Run4	repeat/STIM_005.jpg
3233.599	0.853	correct	repeat	Run4	repeat/STIM_005.jpg
3236.836	0.75	correct	repeat	Run4	repeat/STIM_005.jpg
3240.414	0.808	incorrect	repeat	Run4	repeat/STIM_005.jpg
3245.052	0.515	correct	repeat	Run4	repeat/STIM_006.jpg
3247.876	0.769	correct	repeat	Run4	repeat/STIM_006.jpg
3250.839	0.471	incorrect	repeat	Run4	repeat/STIM_006.jpg
3253.784	0.854	correct	repeat	Run4	repeat/STIM_006.jpg
3258.357	0.676	incorrect	repeat	Run4	repeat/STIM_006.jpg
3262.12	0.565	correct	repeat	Run4	repeat/STIM_007.jpg
3265.49	0.494	correct	repeat	Run4	repeat/STIM_007.jpg
3268.468	0.8	correct	repeat	Run4	repeat/STIM_007.jpg
3272.193	0.83	correct	repeat	Run4	repeat/STIM_007.jpg
3276.506	0.853	correct	repeat	Run4	repeat/STIM_007.jpg
3281.004	0.651	correct	repeat	Run4	repeat/STIM_008.jpg
3284.245	0.87	correct	repeat	Run4	repeat/STIM_008.jpg
3287.39	0.452	correct	repeat	Run4	repeat/STIM_008.jpg
3291.156	0.493	correct	repeat	Run4	repeat/STIM_008.jpg
3295.428	0.673	correct	repeat	Run4	repeat/STIM_008.jpg
3299.706	0.73	correct	repeat	Run4	repeat/STIM_009.jpg
3303.332	0.85	correct	repeat	Run4	repeat/STIM_009.jpg
3306.896	0.726	incorrect	repeat	Run4	repeat/STIM_009.jpg
3311.503	0.726	correct	repeat	Run4	repeat/STIM_009.jpg
3315.191	0.522	incorrect	repeat	Run4	repeat/STIM_009.jpg
3317.995	0.73	correct	repeat	Run4	repeat/STIM_010.jpg
3321.78	0.573	correct	repeat	Run4	repeat/STIM_010.jpg
3325.197	0.726	correct	repeat	Run4	repeat/STIM_010.jpg
3329.924	0.714	correct	repeat	Run4	repeat/STIM_010.jpg
3334.27	0.533	correct	repeat	Run4	repeat/STIM_010.jpg
3337.81	0.722	correct	repeat	Run4	repeat/STIM_011.jpg
3340.759	0.752	correct	repeat	Run4	repeat/STIM_011.jpg
3344.303	0.838	correct	repeat	Run4	repeat/STIM_011.jpg
3347.963	0.873	correct	repeat	Run4	repeat/STIM_011.jpg
3351.334	0.751	correct	repeat	Run4	repeat/STIM_011.jpg
3355.903	0.58	correct	repeat	Run4	repeat/STIM_012.jpg
3358.75	0.667	correct	repeat	Run4	repeat/STIM_012.jpg
3363.191	0.704	correct	repeat	Run4	repeat/STIM_012.jpg
3366.726	0.817	correct	repeat	Run4	repeat/STIM_012.jpg
3370.608	0.78	correct	repeat	Run4	repeat/STIM_012.jpg
3374.616	0.474	correct	repeat	Run4	repeat/STIM_013.jpg
3378.014	0.586	correct	repeat	Run4	repeat/STIM_013.jpg
3382.251	0.546	correct	repeat	Run4	repeat/STIM_013.jpg
3385.645	0.691	correct	repeat	Run4	repeat/STIM_013.jpg
3389.375	0.868	correct	repeat	Run4	repeat/STIM_013.jpg
3394.253	0.534	correct	repeat	Run4	repeat/STIM_014.jpg
3398.294	0.539	correct	repeat	Run4	repeat/STIM_014.jpg
3402.81	0.735	correct	repeat	Run4	repeat/STIM_014.jpg
3406.647	0.528	correct	repeat	Run4	repeat/STIM_014.jpg
3410.12	0.555	correct	repeat	Run4	repeat/STIM_014.jpg
