onset	duration	response_time_ms	trial_type	learning_stage	stimulus	response_port
0.0	2.208	2207.6	generate	Run1	generate/STIM_000.jpg	99
5.586	1.425	1424.6	generate	Run1	generate/STIM_000.jpg	100
9.152	1.765	1765.4	generate	Run1	generate/STIM_000.jpg	100
14.424	2.176	2176.1	generate	Run1	generate/STIM_000.jpg	100
18.801	1.567	1567.2	generate	Run1	generate/STIM_000.jpg	99
22.485	3.07	3069.5	generate	Run1	generate/STIM_001.jpg	100
28.545	1.185	1184.6	generate	Run1	generate/STIM_001.jpg	100
31.778	1.201	1201.0	generate	Run1	generate/STIM_001.jpg	100
35.86	2.595	2595.2	generate	Run1	generate/STIM_001.jpg	99
41.033	1.249	1249.0	generate	Run1	generate/STIM_001.jpg	100
45.15	2.733	2732.6	generate	Run1	generate/STIM_002.jpg	100
51.446	2.25	2249.6	generate	Run1	generate/STIM_002.jpg	99
57.39	1.601	1601.2	generate	Run1	generate/STIM_002.jpg	100
62.428	1.718	1717.9	generate	Run1	generate/STIM_002.jpg	100
67.384	1.885	1884.6	generate	Run1	generate/STIM_002.jpg	100
71.872	1.299	1299.1	generate	Run1	generate/STIM_003.jpg	100
75.573	2.53	2530.5	generate	Run1	generate/STIM_003.jpg	99
81.739	1.215	1214.8	generate	Run1	generate/STIM_003.jpg	99
85.353	1.838	1837.6	generate	Run1	generate/STIM_003.jpg	99
90.314	1.78	1779.8	generate	Run1	generate/STIM_003.jpg	100
94.227	1.945	1944.8	generate	Run1	generate/STIM_004.jpg	99
99.026	1.449	1448.7	generate	Run1	generate/STIM_004.jpg	99
103.878	2.276	2275.8	generate	Run1	generate/STIM_004.jpg	100
109.734	2.634	2633.7	generate	Run1	generate/STIM_004.jpg	100
115.042	1.87	1870.3	generate	Run1	generate/STIM_004.jpg	99
119.587	1.537	1536.7	generate	Run1	generate/STIM_005.jpg	99
124.366	1.234	1233.7	generate	Run1	generate/STIM_005.jpg	100
128.573	2.263	2263.3	generate	Run1	generate/STIM_005.jpg	100
134.672	2.472	2471.5	generate	Run1	generate/STIM_005.jpg	100
140.649	1.321	1321.4	generate	Run1	generate/STIM_005.jpg	99
144.446	2.192	2192.5	generate	Run1	generate/STIM_006.jpg	99
149.336	1.76	1760.0	generate	Run1	generate/STIM_006.jpg	100
154.193	1.392	1391.7	generate	Run1	generate/STIM_006.jpg	99
157.861	2.607	2607.4	generate	Run1	generate/STIM_006.jpg	99
163.178	1.948	1947.6	generate	Run1	generate/STIM_006.jpg	99
168.17	2.227	2226.9	generate	Run1	generate/STIM_007.jpg	100
172.426	1.361	1361.2	generate	Run1	generate/STIM_007.jpg	99
176.64	2.507	2506.6	generate	Run1	generate/STIM_007.jpg	99
182.492	1.923	1922.7	generate	Run1	generate/STIM_007.jpg	100
186.919	2.211	2210.7	generate	Run1	generate/STIM_007.jpg	99
191.356	2.687	2686.9	generate	Run1	generate/STIM_008.jpg	99
197.03	2.291	2291.1	generate	Run1	generate/STIM_008.jpg	100
202.308	1.903	1902.8	generate	Run1	generate/STIM_008.jpg	99
207.943	2.573	2573.3	generate	Run1	generate/STIM_008.jpg	100
212.993	2.268	2267.9	generate	Run1	generate/STIM_008.jpg	100
219.248	1.623	1623.0	generate	Run1	generate/STIM_009.jpg	99
224.855	2.744	2744.0	generate	Run1	generate/STIM_009.jpg	100
230.593	2.698	2698.2	generate	Run1	generate/STIM_009.jpg	99
236.677	1.111	1111.2	generate	Run1	generate/STIM_009.jpg	100
240.874	1.16	1159.6	generate	Run1	generate/STIM_009.jpg	99
244.182	1.679	1679.0	generate	Run1	generate/STIM_010.jpg	99
248.043	2.017	2017.3	generate	Run1	generate/STIM_010.jpg	100
252.125	2.448	2448.0	generate	Run1	generate/STIM_010.jpg	99
256.765	1.415	1415.2	generate	Run1	generate/STIM_010.jpg	99
260.922	2.127	2126.8	generate	Run1	generate/STIM_010.jpg	99
265.475	2.097	2096.9	generate	Run1	generate/STIM_011.jpg	99
271.409	2.487	2486.8	generate	Run1	generate/STIM_011.jpg	99
277.633	1.279	1278.7	generate	Run1	generate/STIM_011.jpg	100
281.962	1.179	1179.0	generate	Run1	generate/STIM_011.jpg	100
286.735	2.32	2319.9	generate	Run1	generate/STIM_011.jpg	99
291.423	2.401	2400.7	generate	Run1	generate/STIM_012.jpg	100
296.905	1.353	1353.0	generate	Run1	generate/STIM_012.jpg	100
300.99	2.493	2493.4	generate	Run1	generate/STIM_012.jpg	99
305.529	1.289	1289.0	generate	Run1	generate/STIM_012.jpg	100
309.057	1.762	1761.5	generate	Run1	generate/STIM_012.jpg	100
314.463	2.038	2038.5	generate	Run1	generate/STIM_013.jpg	100
319.056	2.412	2412.3	generate	Run1	generate/STIM_013.jpg	100
324.971	1.195	1195.3	generate	Run1	generate/STIM_013.jpg	100
329.114	2.546	2546.0	generate	Run1	generate/STIM_013.jpg	99
333.752	1.21	1209.8	generate	Run1	generate/STIM_013.jpg	99
337.037	2.421	2420.6	generate	Run1	generate/STIM_014.jpg	100
343.176	2.168	2168.1	generate	Run1	generate/STIM_014.jpg	99
348.24	2.004	2003.9	generate	Run1	generate/STIM_014.jpg	100
354.022	2.222	2222.5	generate	Run1	generate/STIM_014.jpg	99
359.557	2.342	2342.5	generate	Run1	generate/STIM_014.jpg	99
364.794	2.974	2974.5	generate	Run1	generate/STIM_015.jpg	99
370.674	1.724	1723.8	generate	Run1	generate/STIM_015.jpg	100
376.171	1.555	1554.8	generate	Run1	generate/STIM_015.jpg	99
380.937	2.036	2035.9	generate	Run1	generate/STIM_015.jpg	99
386.622	1.822	1821.5	generate	Run1	generate/STIM_015.jpg	100
392.404	2.17	2169.6	generate	Run1	generate/STIM_016.jpg	100
397.836	1.877	1877.0	generate	Run1	generate/STIM_016.jpg	99
402.659	1.253	1252.9	generate	Run1	generate/STIM_016.jpg	100
407.684	2.443	2442.7	generate	Run1	generate/STIM_016.jpg	99
413.333	1.19	1190.5	generate	Run1	generate/STIM_016.jpg	100
416.809	3.064	3063.6	generate	Run1	generate/STIM_017.jpg	100
422.607	1.397	1396.6	generate	Run1	generate/STIM_017.jpg	99
427.888	2.371	2371.3	generate	Run1	generate/STIM_017.jpg	100
432.447	2.576	2576.4	generate	Run1	generate/STIM_017.jpg	100
438.574	2.145	2145.4	generate	Run1	generate/STIM_017.jpg	99
443.011	2.968	2967.6	generate	Run1	generate/STIM_018.jpg	99
449.355	1.883	1882.6	generate	Run1	generate/STIM_018.jpg	99
453.423	2.394	2393.7	generate	Run1	generate/STIM_018.jpg	100
458.64	1.683	1682.9	generate	Run1	generate/STIM_018.jpg	100
464.077	2.116	2115.6	generate	Run1	generate/STIM_018.jpg	100
470.104	2.764	2763.6	generate	Run1	generate/STIM_019.jpg	99
476.43	2.15	2150.3	generate	Run1	generate/STIM_019.jpg	100
481.779	2.338	2337.9	generate	Run1	generate/STIM_019.jpg	100
487.917	1.248	1247.9	generate	Run1	generate/STIM_019.jpg	100
492.875	2.103	2103.1	generate	Run1	generate/STIM_019.jpg	100
496.989	2.937	2937.4	generate	Run1	generate/STIM_020.jpg	100
502.664	2.624	2623.7	generate	Run1	generate/STIM_020.jpg	100
507.389	2.156	2155.6	generate	Run1	generate/STIM_020.jpg	99
512.443	2.45	2450.3	generate	Run1	generate/STIM_020.jpg	100
518.477	1.654	1653.7	generate	Run1	generate/STIM_020.jpg	100
523.345	2.884	2884.4	generate	Run1	generate/STIM_021.jpg	100
529.732	2.477	2476.8	generate	Run1	generate/STIM_021.jpg	99
535.512	2.373	2373.3	generate	Run1	generate/STIM_021.jpg	100
540.815	2.573	2573.0	generate	Run1	generate/STIM_021.jpg	99
547.263	2.081	2081.4	generate	Run1	generate/STIM_021.jpg	99
552.099	2.281	2281.4	generate	Run1	generate/STIM_022.jpg	99
556.97	1.288	1288.3	generate	Run1	generate/STIM_022.jpg	100
561.92	1.449	1449.1	generate	Run1	generate/STIM_022.jpg	99
565.94	2.55	2550.5	generate	Run1	generate/STIM_022.jpg	100
571.193	1.756	1755.9	generate	Run1	generate/STIM_022.jpg	100
576.576	1.886	1886.2	generate	Run1	generate/STIM_023.jpg	99
582.431	1.437	1437.4	generate	Run1	generate/STIM_023.jpg	99
587.483	1.821	1820.8	generate	Run1	generate/STIM_023.jpg	100
591.99	2.368	2368.0	generate	Run1	generate/STIM_023.jpg	99
597.375	1.009	1008.8	generate	Run1	generate/STIM_023.jpg	99
601.991	1.581	1580.7	generate	Run1	generate/STIM_024.jpg	99
607.246	2.188	2188.0	generate	Run1	generate/STIM_024.jpg	99
611.684	2.795	2794.6	generate	Run1	generate/STIM_024.jpg	100
616.963	2.275	2274.7	generate	Run1	generate/STIM_024.jpg	100
621.767	2.176	2176.2	generate	Run1	generate/STIM_024.jpg	99
627.45	0.923	923.2	repeat	Run1	repeat/STIM_000.jpg	99
630.386	0.836	835.7	repeat	Run1	repeat/STIM_000.jpg	100
634.974	0.545	544.9	repeat	Run1	repeat/STIM_000.jpg	99
638.208	0.901	901.0	repeat	Run1	repeat/STIM_000.jpg	99
641.956	0.608	607.8	repeat	Run1	repeat/STIM_000.jpg	100
646.267	0.581	581.4	repeat	Run1	repeat/STIM_001.jpg	99
650.839	0.65	649.8	repeat	Run1	repeat/STIM_001.jpg	99
654.448	0.936	936.5	repeat	Run1	repeat/STIM_001.jpg	100
657.63	0.958	958.4	repeat	Run1	repeat/STIM_001.jpg	99
661.245	0.634	634.2	repeat	Run1	repeat/STIM_001.jpg	100
665.533	0.923	923.4	repeat	Run1	repeat/STIM_002.jpg	100
669.037	0.619	619.0	repeat	Run1	repeat/STIM_002.jpg	100
672.746	0.814	814.3	repeat	Run1	repeat/STIM_002.jpg	99
677.203	0.696	696.2	repeat	Run1	repeat/STIM_002.jpg	99
681.141	0.685	684.9	repeat	Run1	repeat/STIM_002.jpg	100
685.108	0.815	815.1	repeat	Run1	repeat/STIM_003.jpg	99
688.076	0.873	873.0	repeat	Run1	repeat/STIM_003.jpg	100
692.881	0.976	976.2	repeat	Run1	repeat/STIM_003.jpg	100
697.797	0.567	566.6	repeat	Run1	repeat/STIM_003.jpg	100
700.515	0.573	572.7	repeat	Run1	repeat/STIM_003.jpg	99
704.109	0.687	686.8	repeat	Run1	repeat/STIM_004.jpg	100
708.285	0.818	817.6	repeat	Run1	repeat/STIM_004.jpg	99
711.26	0.839	838.7	repeat	Run1	repeat/STIM_004.jpg	100
715.059	0.756	755.5	repeat	Run1	repeat/STIM_004.jpg	100
719.396	0.937	936.7	repeat	Run1	repeat/STIM_004.jpg	99
723.832	0.665	665.0	repeat	Run1	repeat/STIM_005.jpg	99
726.646	0.567	566.9	repeat	Run1	repeat/STIM_005.jpg	100
731.195	0.701	701.0	repeat	Run1	repeat/STIM_005.jpg	100
735.0	0.923	923.2	repeat	Run1	repeat/STIM_005.jpg	100
739.74	0.788	787.6	repeat	Run1	repeat/STIM_005.jpg	99
742.598	0.99	989.8	repeat	Run1	repeat/STIM_006.jpg	100
745.849	0.984	984.4	repeat	Run1	repeat/STIM_006.jpg	100
750.047	0.802	802.1	repeat	Run1	repeat/STIM_006.jpg	100
754.337	0.689	688.6	repeat	Run1	repeat/STIM_006.jpg	100
757.201	0.668	667.5	repeat	Run1	repeat/STIM_006.jpg	100
761.34	0.984	984.0	repeat	Run1	repeat/STIM_007.jpg	99
765.144	0.976	976.5	repeat	Run1	repeat/STIM_007.jpg	99
769.075	0.73	730.1	repeat	Run1	repeat/STIM_007.jpg	100
773.207	0.807	807.3	repeat	Run1	repeat/STIM_007.jpg	100
776.285	0.938	937.7	repeat	Run1	repeat/STIM_007.jpg	99
779.409	0.825	824.9	repeat	Run1	repeat/STIM_008.jpg	99
783.688	1.027	1027.3	repeat	Run1	repeat/STIM_008.jpg	100
788.0	0.941	941.1	repeat	Run1	repeat/STIM_008.jpg	100
791.329	0.804	803.9	repeat	Run1	repeat/STIM_008.jpg	99
794.976	0.722	721.8	repeat	Run1	repeat/STIM_008.jpg	100
799.402	0.999	999.0	repeat	Run1	repeat/STIM_009.jpg	99
803.021	0.913	912.9	repeat	Run1	repeat/STIM_009.jpg	100
807.796	0.68	680.1	repeat	Run1	repeat/STIM_009.jpg	100
812.134	0.673	672.7	repeat	Run1	repeat/STIM_009.jpg	99
815.843	0.62	620.1	repeat	Run1	repeat/STIM_009.jpg	100
819.648	0.74	740.4	repeat	Run1	repeat/STIM_010.jpg	100
822.476	0.76	759.8	repeat	Run1	repeat/STIM_010.jpg	99
825.236	0.613	613.0	repeat	Run1	repeat/STIM_010.jpg	99
828.893	0.595	595.1	repeat	Run1	repeat/STIM_010.jpg	100
832.268	0.61	609.5	repeat	Run1	repeat/STIM_010.jpg	99
835.862	0.851	850.7	repeat	Run1	repeat/STIM_011.jpg	100
840.214	0.532	532.3	repeat	Run1	repeat/STIM_011.jpg	100
843.602	1.003	1003.4	repeat	Run1	repeat/STIM_011.jpg	100
848.356	0.855	855.4	repeat	Run1	repeat/STIM_011.jpg	99
853.035	1.002	1002.2	repeat	Run1	repeat/STIM_011.jpg	100
856.742	0.566	566.5	repeat	Run1	repeat/STIM_012.jpg	100
860.167	0.591	591.2	repeat	Run1	repeat/STIM_012.jpg	100
863.275	0.897	896.8	repeat	Run1	repeat/STIM_012.jpg	100
867.999	0.814	814.3	repeat	Run1	repeat/STIM_012.jpg	99
870.976	0.865	865.2	repeat	Run1	repeat/STIM_012.jpg	100
875.194	0.684	684.3	repeat	Run1	repeat/STIM_013.jpg	99
878.307	0.967	966.9	repeat	Run1	repeat/STIM_013.jpg	99
881.721	0.534	534.3	repeat	Run1	repeat/STIM_013.jpg	99
884.695	0.776	775.7	repeat	Run1	repeat/STIM_013.jpg	99
888.799	0.702	702.2	repeat	Run1	repeat/STIM_013.jpg	99
893.16	0.683	682.6	repeat	Run1	repeat/STIM_014.jpg	99
896.609	0.656	656.2	repeat	Run1	repeat/STIM_014.jpg	99
899.287	0.948	947.9	repeat	Run1	repeat/STIM_014.jpg	99
902.779	0.576	575.6	repeat	Run1	repeat/STIM_014.jpg	100
905.446	0.746	746.4	repeat	Run1	repeat/STIM_014.jpg	100
909.628	1.27	1269.9	generate	Run2	generate/STIM_000.jpg	100
914.475	1.214	1214.0	generate	Run2	generate/STIM_000.jpg	100
918.062	2.234	2233.8	generate	Run2	generate/STIM_000.jpg	99
922.515	2.166	2166.0	generate	Run2	generate/STIM_000.jpg	99
928.101	1.244	1244.0	generate	Run2	generate/STIM_000.jpg	100
932.267	1.572	1572.4	generate	Run2	generate/STIM_001.jpg	100
937.831	1.107	1106.8	generate	Run2	generate/STIM_001.jpg	99
941.959	1.958	1958.5	generate	Run2	generate/STIM_001.jpg	100
947.666	1.903	1902.7	generate	Run2	generate/STIM_001.jpg	100
952.789	1.326	1325.5	generate	Run2	generate/STIM_001.jpg	99
956.553	2.221	2221.4	generate	Run2	generate/STIM_002.jpg	99
961.034	2.3	2299.6	generate	Run2	generate/STIM_002.jpg	99
966.923	1.695	1695.1	generate	Run2	generate/STIM_002.jpg	99
971.721	1.446	1446.3	generate	Run2	generate/STIM_002.jpg	100
977.128	1.161	1160.8	generate	Run2	generate/STIM_002.jpg	99
980.849	1.091	1091.4	generate	Run2	generate/STIM_003.jpg	99
985.427	1.179	1179.3	generate	Run2	generate/STIM_003.jpg	99
988.932	1.832	1831.8	generate	Run2	generate/STIM_003.jpg	100
993.734	1.142	1141.6	generate	Run2	generate/STIM_003.jpg	99
998.02	1.385	1384.8	generate	Run2	generate/STIM_003.jpg	100
1003.12	1.114	1114.4	generate	Run2	generate/STIM_004.jpg	99
1007.771	1.002	1002.3	generate	Run2	generate/STIM_004.jpg	99
1012.149	1.567	1566.6	generate	Run2	generate/STIM_004.jpg	99
1016.271	1.196	1196.2	generate	Run2	generate/STIM_004.jpg	100
1020.095	0.884	883.6	generate	Run2	generate/STIM_004.jpg	100
1023.458	1.478	1478.1	generate	Run2	generate/STIM_005.jpg	99
1027.072	1.058	1058.2	generate	Run2	generate/STIM_005.jpg	100
1030.894	2.044	2043.7	generate	Run2	generate/STIM_005.jpg	99
1035.869	1.146	1146.2	generate	Run2	generate/STIM_005.jpg	99
1040.549	1.014	1014.4	generate	Run2	generate/STIM_005.jpg	99
1045.384	1.377	1377.2	generate	Run2	generate/STIM_006.jpg	99
1049.734	1.501	1500.9	generate	Run2	generate/STIM_006.jpg	100
1054.911	1.27	1269.8	generate	Run2	generate/STIM_006.jpg	100
1058.233	1.674	1673.7	generate	Run2	generate/STIM_006.jpg	100
1062.883	1.185	1185.1	generate	Run2	generate/STIM_006.jpg	100
1067.3	2.374	2373.7	generate	Run2	generate/STIM_007.jpg	99
1073.366	2.172	2172.4	generate	Run2	generate/STIM_007.jpg	100
1077.854	1.193	1192.9	generate	Run2	generate/STIM_007.jpg	100
1082.176	1.709	1709.1	generate	Run2	generate/STIM_007.jpg	99
1087.304	1.619	1619.3	generate	Run2	generate/STIM_007.jpg	100
1091.475	2.523	2522.9	generate	Run2	generate/STIM_008.jpg	99
1096.395	1.544	1544.0	generate	Run2	generate/STIM_008.jpg	99
1101.222	1.711	1711.2	generate	Run2	generate/STIM_008.jpg	100
1106.705	1.328	1328.5	generate	Run2	generate/STIM_008.jpg	99
1110.937	2.147	2147.1	generate	Run2	generate/STIM_008.jpg	99
1117.023	2.332	2331.7	generate	Run2	generate/STIM_009.jpg	100
1122.618	2.04	2040.4	generate	Run2	generate/STIM_009.jpg	99
1126.823	1.801	1801.4	generate	Run2	generate/STIM_009.jpg	100
1131.347	0.975	975.0	generate	Run2	generate/STIM_009.jpg	100
1134.922	1.387	1386.9	generate	Run2	generate/STIM_009.jpg	99
1140.272	1.129	1128.9	generate	Run2	generate/STIM_010.jpg	99
1144.05	2.13	2130.3	generate	Run2	generate/STIM_010.jpg	99
1148.39	1.411	1411.1	generate	Run2	generate/STIM_010.jpg	100
1152.3	1.806	1806.3	generate	Run2	generate/STIM_010.jpg	100
1156.17	0.932	932.3	generate	Run2	generate/STIM_010.jpg	100
1159.642	1.136	1135.9	generate	Run2	generate/STIM_011.jpg	100
1162.974	2.304	2303.7	generate	Run2	generate/STIM_011.jpg	100
1168.371	1.007	1006.7	generate	Run2	generate/STIM_011.jpg	100
1171.5	1.136	1135.7	generate	Run2	generate/STIM_011.jpg	99
1176.586	1.142	1142.4	generate	Run2	generate/STIM_011.jpg	100
1180.503	1.841	1841.2	generate	Run2	generate/STIM_012.jpg	99
1186.035	1.645	1645.3	generate	Run2	generate/STIM_012.jpg	100
1190.087	2.239	2239.1	generate	Run2	generate/STIM_012.jpg	100
1194.613	1.37	1370.5	generate	Run2	generate/STIM_012.jpg	100
1198.659	1.886	1885.7	generate	Run2	generate/STIM_012.jpg	99
1202.696	1.297	1296.7	generate	Run2	generate/STIM_013.jpg	99
1206.281	2.142	2141.6	generate	Run2	generate/STIM_013.jpg	99
1212.254	2.26	2259.6	generate	Run2	generate/STIM_013.jpg	100
1217.623	1.794	1793.5	generate	Run2	generate/STIM_013.jpg	100
1221.502	1.557	1556.6	generate	Run2	generate/STIM_013.jpg	99
1225.779	1.599	1599.1	generate	Run2	generate/STIM_014.jpg	99
1229.812	2.189	2189.3	generate	Run2	generate/STIM_014.jpg	99
1235.946	1.252	1252.5	generate	Run2	generate/STIM_014.jpg	99
1240.002	1.512	1512.0	generate	Run2	generate/STIM_014.jpg	99
1244.581	1.468	1467.5	generate	Run2	generate/STIM_014.jpg	100
1249.819	1.238	1237.5	generate	Run2	generate/STIM_015.jpg	99
1253.154	1.255	1255.1	generate	Run2	generate/STIM_015.jpg	100
1256.52	1.124	1123.8	generate	Run2	generate/STIM_015.jpg	100
1260.268	1.31	1309.8	generate	Run2	generate/STIM_015.jpg	99
1265.298	1.693	1693.1	generate	Run2	generate/STIM_015.jpg	100
1269.103	1.896	1895.7	generate	Run2	generate/STIM_016.jpg	99
1273.49	2.016	2015.6	generate	Run2	generate/STIM_016.jpg	99
1277.745	1.187	1187.3	generate	Run2	generate/STIM_016.jpg	99
1281.514	1.541	1540.6	generate	Run2	generate/STIM_016.jpg	100
1285.511	1.585	1585.0	generate	Run2	generate/STIM_016.jpg	100
1291.014	2.454	2454.4	generate	Run2	generate/STIM_017.jpg	100
1296.712	1.348	1348.2	generate	Run2	generate/STIM_017.jpg	99
1301.62	1.138	1137.8	generate	Run2	generate/STIM_017.jpg	100
1306.617	1.031	1030.9	generate	Run2	generate/STIM_017.jpg	100
1309.957	1.098	1098.0	generate	Run2	generate/STIM_017.jpg	100
1314.031	2.069	2069.2	generate	Run2	generate/STIM_018.jpg	99
1320.02	2.114	2113.9	generate	Run2	generate/STIM_018.jpg	100
1326.051	0.947	947.3	generate	Run2	generate/STIM_018.jpg	100
1329.55	1.082	1081.8	generate	Run2	generate/STIM_018.jpg	99
1333.885	1.804	1804.3	generate	Run2	generate/STIM_018.jpg	99
1338.743	1.937	1937.4	generate	Run2	generate/STIM_019.jpg	100
1343.068	2.211	2210.7	generate	Run2	generate/STIM_019.jpg	100
1347.632	1.612	1612.5	generate	Run2	generate/STIM_019.jpg	100
1351.796	1.696	1696.2	generate	Run2	generate/STIM_019.jpg	100
1356.785	1.264	1264.1	generate	Run2	generate/STIM_019.jpg	100
1360.213	1.628	1627.6	generate	Run2	generate/STIM_020.jpg	99
1365.717	1.68	1680.0	generate	Run2	generate/STIM_020.jpg	100
1369.414	1.81	1810.5	generate	Run2	generate/STIM_020.jpg	100
1375.013	1.485	1485.0	generate	Run2	generate/STIM_020.jpg	99
1379.501	1.451	1451.4	generate	Run2	generate/STIM_020.jpg	99
1384.222	1.287	1286.7	generate	Run2	generate/STIM_021.jpg	99
1388.813	2.123	2122.6	generate	Run2	generate/STIM_021.jpg	99
1394.051	1.418	1418.1	generate	Run2	generate/STIM_021.jpg	99
1397.867	0.979	978.7	generate	Run2	generate/STIM_021.jpg	100
1401.764	1.161	1161.0	generate	Run2	generate/STIM_021.jpg	100
1406.144	1.448	1448.4	generate	Run2	generate/STIM_022.jpg	100
1411.109	1.274	1274.4	generate	Run2	generate/STIM_022.jpg	99
1414.453	1.402	1401.6	generate	Run2	generate/STIM_022.jpg	99
1418.729	1.573	1573.1	generate	Run2	generate/STIM_022.jpg	100
1423.326	1.773	1773.1	generate	Run2	generate/STIM_022.jpg	99
1427.801	1.824	1823.6	generate	Run2	generate/STIM_023.jpg	99
1433.45	1.632	1632.4	generate	Run2	generate/STIM_023.jpg	99
1437.828	2.319	2319.0	generate	Run2	generate/STIM_023.jpg	100
1443.739	2.053	2052.7	generate	Run2	generate/STIM_023.jpg	100
1448.349	1.631	1630.9	generate	Run2	generate/STIM_023.jpg	100
1452.441	2.561	2561.3	generate	Run2	generate/STIM_024.jpg	99
1458.671	2.441	2441.0	generate	Run2	generate/STIM_024.jpg	100
1463.199	1.526	1525.9	generate	Run2	generate/STIM_024.jpg	100
1468.61	1.924	1923.6	generate	Run2	generate/STIM_024.jpg	100
1473.737	1.592	1592.3	generate	Run2	generate/STIM_024.jpg	99
1477.777	0.863	863.4	repeat	Run2	repeat/STIM_000.jpg	99
1482.3	0.862	862.0	repeat	Run2	repeat/STIM_000.jpg	99
1485.344	0.89	890.4	repeat	Run2	repeat/STIM_000.jpg	99
1488.863	0.741	741.0	repeat	Run2	repeat/STIM_000.jpg	99
1492.522	0.581	580.8	repeat	Run2	repeat/STIM_000.jpg	100
1496.118	0.823	822.6	repeat	Run2	repeat/STIM_001.jpg	99
1499.186	0.716	715.8	repeat	Run2	repeat/STIM_001.jpg	99
1503.85	1.035	1034.7	repeat	Run2	repeat/STIM_001.jpg	99
1507.71	0.536	536.0	repeat	Run2	repeat/STIM_001.jpg	100
1510.785	0.681	681.4	repeat	Run2	repeat/STIM_001.jpg	99
1513.918	0.78	780.1	repeat	Run2	repeat/STIM_002.jpg	99
1517.289	0.749	749.0	repeat	Run2	repeat/STIM_002.jpg	100
1521.341	0.948	948.0	repeat	Run2	repeat/STIM_002.jpg	100
1525.556	0.696	695.6	repeat	Run2	repeat/STIM_002.jpg	100
1528.356	0.701	700.8	repeat	Run2	repeat/STIM_002.jpg	99
1532.652	0.96	959.6	repeat	Run2	repeat/STIM_003.jpg	99
1536.886	0.601	600.9	repeat	Run2	repeat/STIM_003.jpg	100
1540.777	0.836	835.5	repeat	Run2	repeat/STIM_003.jpg	99
1544.897	0.52	520.0	repeat	Run2	repeat/STIM_003.jpg	100
1548.347	0.557	556.9	repeat	Run2	repeat/STIM_003.jpg	99
1552.58	0.87	869.6	repeat	Run2	repeat/STIM_004.jpg	100
1556.206	0.576	575.6	repeat	Run2	repeat/STIM_004.jpg	99
1560.407	0.565	564.9	repeat	Run2	repeat/STIM_004.jpg	99
1564.351	0.659	659.1	repeat	Run2	repeat/STIM_004.jpg	99
1568.404	1.007	1006.8	repeat	Run2	repeat/STIM_004.jpg	99
1572.025	0.628	628.5	repeat	Run2	repeat/STIM_005.jpg	100
1576.24	0.561	561.2	repeat	Run2	repeat/STIM_005.jpg	99
1579.332	0.947	946.6	repeat	Run2	repeat/STIM_005.jpg	99
1584.046	0.816	816.5	repeat	Run2	repeat/STIM_005.jpg	99
1588.016	0.911	911.2	repeat	Run2	repeat/STIM_005.jpg	99
1591.024	0.724	724.2	repeat	Run2	repeat/STIM_006.jpg	99
1595.232	0.816	816.1	repeat	Run2	repeat/STIM_006.jpg	100
1598.956	1.009	1009.3	repeat	Run2	repeat/STIM_006.jpg	99
1602.994	0.748	748.0	repeat	Run2	repeat/STIM_006.jpg	99
1606.837	0.557	557.1	repeat	Run2	repeat/STIM_006.jpg	99
1610.52	1.01	1010.0	repeat	Run2	repeat/STIM_007.jpg	100
1613.648	0.982	981.9	repeat	Run2	repeat/STIM_007.jpg	99
1617.314	0.551	551.2	repeat	Run2	repeat/STIM_007.jpg	100
1621.358	1.002	1002.3	repeat	Run2	repeat/STIM_007.jpg	99
1625.471	0.725	725.3	repeat	Run2	repeat/STIM_007.jpg	99
1629.398	0.865	865.1	repeat	Run2	repeat/STIM_008.jpg	100
1634.097	0.676	675.5	repeat	Run2	repeat/STIM_008.jpg	100
1636.94	0.569	569.2	repeat	Run2	repeat/STIM_008.jpg	100
1639.574	0.665	665.2	repeat	Run2	repeat/STIM_008.jpg	100
1642.766	0.943	942.6	repeat	Run2	repeat/STIM_008.jpg	100
1647.023	0.85	849.7	repeat	Run2	repeat/STIM_009.jpg	99
1651.102	0.982	981.8	repeat	Run2	repeat/STIM_009.jpg	99
1654.668	0.77	770.3	repeat	Run2	repeat/STIM_009.jpg	100
1658.09	0.681	680.6	repeat	Run2	repeat/STIM_009.jpg	99
1662.478	0.701	701.0	repeat	Run2	repeat/STIM_009.jpg	99
1666.812	0.869	868.9	repeat	Run2	repeat/STIM_010.jpg	100
1671.515	1.002	1001.9	repeat	Run2	repeat/STIM_010.jpg	100
1676.389	0.703	703.3	repeat	Run2	repeat/STIM_010.jpg	100
1680.205	0.594	594.2	repeat	Run2	repeat/STIM_010.jpg	100
1682.84	0.925	924.8	repeat	Run2	repeat/STIM_010.jpg	100
1685.906	0.787	787.4	repeat	Run2	repeat/STIM_011.jpg	99
1689.67	1.026	1026.5	repeat	Run2	repeat/STIM_011.jpg	100
1693.063	0.551	550.7	repeat	Run2	repeat/STIM_011.jpg	99
1695.884	0.562	562.0	repeat	Run2	repeat/STIM_011.jpg	100
1699.11	0.68	680.2	repeat	Run2	repeat/STIM_011.jpg	99
1702.009	0.895	894.7	repeat	Run2	repeat/STIM_012.jpg	100
1705.245	0.574	573.9	repeat	Run2	repeat/STIM_012.jpg	100
1707.863	0.636	635.5	repeat	Run2	repeat/STIM_012.jpg	99
1710.501	0.898	898.5	repeat	Run2	repeat/STIM_012.jpg	99
1714.813	0.723	722.6	repeat	Run2	repeat/STIM_012.jpg	99
1719.088	0.912	911.7	repeat	Run2	repeat/STIM_013.jpg	99
1722.95	0.849	849.4	repeat	Run2	repeat/STIM_013.jpg	100
1726.687	0.681	680.7	repeat	Run2	repeat/STIM_013.jpg	100
1729.727	0.857	856.7	repeat	Run2	repeat/STIM_013.jpg	99
1734.275	0.957	957.1	repeat	Run2	repeat/STIM_013.jpg	99
1738.804	0.861	861.2	repeat	Run2	repeat/STIM_014.jpg	99
1742.823	0.707	706.7	repeat	Run2	repeat/STIM_014.jpg	100
1745.618	0.959	958.7	repeat	Run2	repeat/STIM_014.jpg	100
1750.281	0.824	823.8	repeat	Run2	repeat/STIM_014.jpg	99
1754.084	0.933	933.4	repeat	Run2	repeat/STIM_014.jpg	99
1758.744	1.291	1290.6	generate	Run3	generate/STIM_000.jpg	99
1762.126	1.588	1587.7	generate	Run3	generate/STIM_000.jpg	100
1766.973	1.55	1550.5	generate	Run3	generate/STIM_000.jpg	99
1772.403	1.242	1242.5	generate	Run3	generate/STIM_000.jpg	99
1776.786	1.673	1672.9	generate	Run3	generate/STIM_000.jpg	100
1781.209	1.391	1390.6	generate	Run3	generate/STIM_001.jpg	99
1786.401	2.119	2118.8	generate	Run3	generate/STIM_001.jpg	100
1790.828	1.252	1252.3	generate	Run3	generate/STIM_001.jpg	99
1795.58	0.885	884.6	generate	Run3	generate/STIM_001.jpg	100
1799.791	1.204	1203.8	generate	Run3	generate/STIM_001.jpg	100
1803.263	1.518	1517.6	generate	Run3	generate/STIM_002.jpg	99
1807.729	1.767	1767.4	generate	Run3	generate/STIM_002.jpg	100
1812.697	1.003	1002.7	generate	Run3	generate/STIM_002.jpg	100
1815.866	1.51	1509.7	generate	Run3	generate/STIM_002.jpg	99
1819.638	1.64	1639.5	generate	Run3	generate/STIM_002.jpg	100
1824.721	0.95	950.2	generate	Run3	generate/STIM_003.jpg	100
1828.227	1.171	1171.0	generate	Run3	generate/STIM_003.jpg	99
1832.628	1.397	1396.7	generate	Run3	generate/STIM_003.jpg	100
1836.587	1.468	1467.6	generate	Run3	generate/STIM_003.jpg	99
1840.64	1.245	1245.2	generate	Run3	generate/STIM_003.jpg	99
1845.531	1.948	1947.6	generate	Run3	generate/STIM_004.jpg	100
1849.631	1.12	1119.8	generate	Run3	generate/STIM_004.jpg	99
1853.053	2.13	2130.3	generate	Run3	generate/STIM_004.jpg	99
1858.344	1.435	1435.0	generate	Run3	generate/STIM_004.jpg	100
1863.263	1.82	1820.2	generate	Run3	generate/STIM_004.jpg	100
1868.576	1.922	1921.8	generate	Run3	generate/STIM_005.jpg	99
1872.775	1.758	1757.5	generate	Run3	generate/STIM_005.jpg	100
1877.799	1.191	1190.9	generate	Run3	generate/STIM_005.jpg	99
1882.516	1.384	1384.1	generate	Run3	generate/STIM_005.jpg	100
1887.465	1.395	1395.0	generate	Run3	generate/STIM_005.jpg	99
1892.117	1.166	1166.3	generate	Run3	generate/STIM_006.jpg	100
1896.305	2.03	2029.5	generate	Run3	generate/STIM_006.jpg	100
1901.177	0.887	886.6	generate	Run3	generate/STIM_006.jpg	100
1904.751	1.865	1865.1	generate	Run3	generate/STIM_006.jpg	99
1909.519	1.234	1234.3	generate	Run3	generate/STIM_006.jpg	100
1914.126	1.203	1202.8	generate	Run3	generate/STIM_007.jpg	99
1917.791	1.68	1680.3	generate	Run3	generate/STIM_007.jpg	99
1922.09	1.448	1448.1	generate	Run3	generate/STIM_007.jpg	99
1926.373	1.744	1743.6	generate	Run3	generate/STIM_007.jpg	99
1931.135	1.259	1258.9	generate	Run3	generate/STIM_007.jpg	100
1934.868	0.927	926.7	generate	Run3	generate/STIM_008.jpg	100
1939.599	1.219	1219.0	generate	Run3	generate/STIM_008.jpg	99
1943.476	1.973	1973.2	generate	Run3	generate/STIM_008.jpg	100
1947.592	1.792	1792.1	generate	Run3	generate/STIM_008.jpg	100
1953.072	1.614	1613.6	generate	Run3	generate/STIM_008.jpg	99
1957.0	1.314	1314.5	generate	Run3	generate/STIM_009.jpg	99
1960.357	1.009	1008.6	generate	Run3	generate/STIM_009.jpg	99
1964.032	1.3	1299.6	generate	Run3	generate/STIM_009.jpg	99
1967.76	1.121	1121.0	generate	Run3	generate/STIM_009.jpg	100
1972.084	0.884	883.9	generate	Run3	generate/STIM_009.jpg	99
1976.773	2.1	2100.2	generate	Run3	generate/STIM_010.jpg	100
1980.977	1.033	1033.4	generate	Run3	generate/STIM_010.jpg	99
1984.859	1.648	1648.4	generate	Run3	generate/STIM_010.jpg	99
1990.113	0.971	971.3	generate	Run3	generate/STIM_010.jpg	99
1993.456	1.201	1201.0	generate	Run3	generate/STIM_010.jpg	100
1998.336	2.053	2053.0	generate	Run3	generate/STIM_011.jpg	100
2004.188	2.041	2040.5	generate	Run3	generate/STIM_011.jpg	100
2009.124	1.152	1151.7	generate	Run3	generate/STIM_011.jpg	100
2013.442	1.844	1844.0	generate	Run3	generate/STIM_011.jpg	100
2017.394	1.374	1374.1	generate	Run3	generate/STIM_011.jpg	99
2021.704	1.199	1199.1	generate	Run3	generate/STIM_012.jpg	99
2026.223	1.863	1863.1	generate	Run3	generate/STIM_012.jpg	99
2031.124	0.926	925.9	generate	Run3	generate/STIM_012.jpg	99
2034.84	1.481	1480.7	generate	Run3	generate/STIM_012.jpg	100
2039.239	1.917	1916.7	generate	Run3	generate/STIM_012.jpg	99
2044.084	1.74	1740.0	generate	Run3	generate/STIM_013.jpg	100
2047.887	2.052	2051.8	generate	Run3	generate/STIM_013.jpg	100
2053.601	1.328	1328.5	generate	Run3	generate/STIM_013.jpg	100
2057.52	0.959	959.4	generate	Run3	generate/STIM_013.jpg	100
2060.514	1.136	1136.5	generate	Run3	generate/STIM_013.jpg	100
2064.788	1.784	1784.1	generate	Run3	generate/STIM_014.jpg	100
2069.228	0.992	991.6	generate	Run3	generate/STIM_014.jpg	100
2072.288	1.256	1256.4	generate	Run3	generate/STIM_014.jpg	100
2076.828	0.979	978.6	generate	Run3	generate/STIM_014.jpg	99
2080.739	1.693	1693.0	generate	Run3	generate/STIM_014.jpg	100
2085.525	1.252	1252.4	generate	Run3	generate/STIM_015.jpg	99
2090.375	1.898	1897.6	generate	Run3	generate/STIM_015.jpg	100
2096.112	1.047	1046.7	generate	Run3	generate/STIM_015.jpg	100
2101.12	1.723	1723.0	generate	Run3	generate/STIM_015.jpg	99
2105.829	1.45	1449.7	generate	Run3	generate/STIM_015.jpg	99
2110.18	1.686	1686.4	generate	Run3	generate/STIM_016.jpg	99
2115.582	1.899	1898.8	generate	Run3	generate/STIM_016.jpg	99
2119.69	0.925	925.2	generate	Run3	generate/STIM_016.jpg	100
2123.497	1.682	1682.1	generate	Run3	generate/STIM_016.jpg	100
2127.432	1.524	1524.3	generate	Run3	generate/STIM_016.jpg	100
2132.006	1.25	1249.5	generate	Run3	generate/STIM_017.jpg	99
2135.727	1.136	1136.2	generate	Run3	generate/STIM_017.jpg	99
2139.986	1.954	1954.4	generate	Run3	generate/STIM_017.jpg	99
2145.567	1.351	1351.4	generate	Run3	generate/STIM_017.jpg	100
2150.855	1.329	1328.8	generate	Run3	generate/STIM_017.jpg	99
2155.192	1.067	1067.4	generate	Run3	generate/STIM_018.jpg	99
2158.593	0.932	931.7	generate	Run3	generate/STIM_018.jpg	99
2162.772	2.024	2024.3	generate	Run3	generate/STIM_018.jpg	100
2168.165	2.156	2156.4	generate	Run3	generate/STIM_018.jpg	100
2173.87	1.279	1278.9	generate	Run3	generate/STIM_018.jpg	99
2178.598	1.974	1973.8	generate	Run3	generate/STIM_019.jpg	99
2183.156	2.031	2031.5	generate	Run3	generate/STIM_019.jpg	99
2187.574	1.456	1456.3	generate	Run3	generate/STIM_019.jpg	100
2191.889	1.613	1612.8	generate	Run3	generate/STIM_019.jpg	99
2196.353	1.798	1797.7	generate	Run3	generate/STIM_019.jpg	99
2201.611	1.096	1095.5	generate	Run3	generate/STIM_020.jpg	100
2206.31	2.05	2049.8	generate	Run3	generate/STIM_020.jpg	99
2210.908	0.886	886.0	generate	Run3	generate/STIM_020.jpg	99
2214.676	2.062	2061.5	generate	Run3	generate/STIM_020.jpg	99
2220.36	1.826	1826.2	generate	Run3	generate/STIM_020.jpg	100
2224.808	2.03	2029.5	generate	Run3	generate/STIM_021.jpg	99
2230.12	1.012	1011.6	generate	Run3	generate/STIM_021.jpg	100
2233.728	1.168	1167.9	generate	Run3	generate/STIM_021.jpg	99
2238.565	1.286	1285.6	generate	Run3	generate/STIM_021.jpg	100
2242.828	1.589	1588.6	generate	Run3	generate/STIM_021.jpg	100
2247.362	1.66	1659.6	generate	Run3	generate/STIM_022.jpg	99
2251.966	1.483	1483.0	generate	Run3	generate/STIM_022.jpg	99
2256.382	1.897	1897.0	generate	Run3	generate/STIM_022.jpg	100
2260.59	1.394	1393.8	generate	Run3	generate/STIM_022.jpg	100
2265.788	0.874	874.1	generate	Run3	generate/STIM_022.jpg	100
2269.485	1.04	1039.9	generate	Run3	generate/STIM_023.jpg	100
2274.257	1.898	1897.5	generate	Run3	generate/STIM_023.jpg	100
2280.022	0.963	963.0	generate	Run3	generate/STIM_023.jpg	100
2283.181	1.594	1593.6	generate	Run3	generate/STIM_023.jpg	99
2288.32	1.844	1843.9	generate	Run3	generate/STIM_023.jpg	99
2292.436	1.678	1678.5	generate	Run3	generate/STIM_024.jpg	99
2296.718	2.096	2096.0	generate	Run3	generate/STIM_024.jpg	99
2302.483	2.0	1999.9	generate	Run3	generate/STIM_024.jpg	99
2306.77	1.908	1908.2	generate	Run3	generate/STIM_024.jpg	100
2310.806	1.897	1897.2	generate	Run3	generate/STIM_024.jpg	99
2316.375	0.62	619.5	repeat	Run3	repeat/STIM_000.jpg	100
2320.254	0.62	620.5	repeat	Run3	repeat/STIM_000.jpg	99
2323.072	0.588	587.8	repeat	Run3	repeat/STIM_000.jpg	100
2327.064	0.811	811.2	repeat	Run3	repeat/STIM_000.jpg	99
2331.681	0.867	867.3	repeat	Run3	repeat/STIM_000.jpg	99
2334.749	0.69	690.2	repeat	Run3	repeat/STIM_001.jpg	99
2337.965	0.854	854.3	repeat	Run3	repeat/STIM_001.jpg	100
2341.335	0.852	851.8	repeat	Run3	repeat/STIM_001.jpg	100
2345.252	1.016	1016.3	repeat	Run3	repeat/STIM_001.jpg	99
2348.966	0.536	535.7	repeat	Run3	repeat/STIM_001.jpg	100
2351.83	0.899	898.8	repeat	Run3	repeat/STIM_002.jpg	100
2356.58	0.537	536.7	repeat	Run3	repeat/STIM_002.jpg	99
2359.261	0.753	752.8	repeat	Run3	repeat/STIM_002.jpg	99
2363.163	0.647	647.3	repeat	Run3	repeat/STIM_002.jpg	100
2367.103	1.016	1015.9	repeat	Run3	repeat/STIM_002.jpg	100
2371.33	0.55	550.4	repeat	Run3	repeat/STIM_003.jpg	99
2374.204	0.623	622.8	repeat	Run3	repeat/STIM_003.jpg	100
2378.189	0.936	935.6	repeat	Run3	repeat/STIM_003.jpg	100
2382.207	0.685	684.7	repeat	Run3	repeat/STIM_003.jpg	100
2386.027	0.884	883.6	repeat	Run3	repeat/STIM_003.jpg	99
2389.676	0.552	552.0	repeat	Run3	repeat/STIM_004.jpg	99
2392.433	0.657	657.3	repeat	Run3	repeat/STIM_004.jpg	99
2395.659	0.965	964.8	repeat	Run3	repeat/STIM_004.jpg	99
2399.145	1.009	1009.3	repeat	Run3	repeat/STIM_004.jpg	100
2402.348	0.623	623.2	repeat	Run3	repeat/STIM_004.jpg	100
2406.102	1.002	1001.5	repeat	Run3	repeat/STIM_005.jpg	100
2410.702	0.728	727.7	repeat	Run3	repeat/STIM_005.jpg	100
2413.497	0.538	537.6	repeat	Run3	repeat/STIM_005.jpg	100
2417.318	0.611	611.0	repeat	Run3	repeat/STIM_005.jpg	99
2421.805	0.968	968.5	repeat	Run3	repeat/STIM_005.jpg	100
2425.979	0.568	567.6	repeat	Run3	repeat/STIM_006.jpg	100
2430.01	0.884	884.4	repeat	Run3	repeat/STIM_006.jpg	99
2433.891	0.747	746.7	repeat	Run3	repeat/STIM_006.jpg	100
2437.345	0.952	952.3	repeat	Run3	repeat/STIM_006.jpg	100
2441.411	0.838	837.8	repeat	Run3	repeat/STIM_006.jpg	99
2445.062	0.94	940.2	repeat	Run3	repeat/STIM_007.jpg	99
2448.009	0.763	762.6	repeat	Run3	repeat/STIM_007.jpg	100
2451.644	0.608	608.0	repeat	Run3	repeat/STIM_007.jpg	100
2455.516	0.972	971.6	repeat	Run3	repeat/STIM_007.jpg	99
2460.433	0.678	677.8	repeat	Run3	repeat/STIM_007.jpg	100
2465.101	1.006	1005.6	repeat	Run3	repeat/STIM_008.jpg	99
2468.925	0.702	701.7	repeat	Run3	repeat/STIM_008.jpg	99
2472.969	0.788	788.3	repeat	Run3	repeat/STIM_008.jpg	100
2476.967	0.6	600.0	repeat	Run3	repeat/STIM_008.jpg	100
2480.609	0.772	771.9	repeat	Run3	repeat/STIM_008.jpg	100
2483.881	0.537	537.1	repeat	Run3	repeat/STIM_009.jpg	99
2487.002	0.836	836.1	repeat	Run3	repeat/STIM_009.jpg	99
2491.054	1.021	1021.3	repeat	Run3	repeat/STIM_009.jpg	100
2494.213	0.837	836.8	repeat	Run3	repeat/STIM_009.jpg	100
2498.1	0.778	778.1	repeat	Run3	repeat/STIM_009.jpg	100
2502.162	1.018	1018.4	repeat	Run3	repeat/STIM_010.jpg	99
2505.836	1.021	1021.0	repeat	Run3	repeat/STIM_010.jpg	99
2509.321	0.861	861.1	repeat	Run3	repeat/STIM_010.jpg	100
2513.262	0.783	783.1	repeat	Run3	repeat/STIM_010.jpg	99
2518.027	0.859	859.0	repeat	Run3	repeat/STIM_010.jpg	99
2522.351	0.642	641.8	repeat	Run3	repeat/STIM_011.jpg	99
2526.484	0.934	934.1	repeat	Run3	repeat/STIM_011.jpg	100
2531.051	0.783	783.0	repeat	Run3	repeat/STIM_011.jpg	99
2534.424	0.794	794.1	repeat	Run3	repeat/STIM_011.jpg	100
2537.344	0.647	647.4	repeat	Run3	repeat/STIM_011.jpg	100
2541.0	0.828	828.5	repeat	Run3	repeat/STIM_012.jpg	99
2544.174	0.615	614.6	repeat	Run3	repeat/STIM_012.jpg	99
2548.061	0.661	660.6	repeat	Run3	repeat/STIM_012.jpg	99
2551.551	0.867	867.1	repeat	Run3	repeat/STIM_012.jpg	100
2556.314	0.65	650.2	repeat	Run3	repeat/STIM_012.jpg	99
2559.683	0.953	953.4	repeat	Run3	repeat/STIM_013.jpg	99
2563.039	0.727	726.6	repeat	Run3	repeat/STIM_013.jpg	99
2566.4	0.882	881.7	repeat	Run3	repeat/STIM_013.jpg	99
2570.701	0.793	793.0	repeat	Run3	repeat/STIM_013.jpg	99
2574.188	0.709	708.6	repeat	Run3	repeat/STIM_013.jpg	99
2578.368	0.563	563.3	repeat	Run3	repeat/STIM_014.jpg	100
2582.728	0.705	705.2	repeat	Run3	repeat/STIM_014.jpg	100
2586.333	0.786	785.5	repeat	Run3	repeat/STIM_014.jpg	100
2589.538	0.95	949.5	repeat	Run3	repeat/STIM_014.jpg	100
2593.559	0.831	830.9	repeat	Run3	repeat/STIM_014.jpg	99
2597.124	1.898	1897.7	generate	Run4	generate/STIM_000.jpg	99
2601.968	1.994	1994.5	generate	Run4	generate/STIM_000.jpg	100
2606.958	1.124	1123.6	generate	Run4	generate/STIM_000.jpg	100
2610.543	1.253	1252.8	generate	Run4	generate/STIM_000.jpg	100
2614.27	1.498	1497.9	generate	Run4	generate/STIM_000.jpg	99
2618.801	0.941	941.2	generate	Run4	generate/STIM_001.jpg	100
2623.317	2.022	2021.6	generate	Run4	generate/STIM_001.jpg	99
2629.209	1.591	1590.6	generate	Run4	generate/STIM_001.jpg	100
2634.578	1.078	1078.2	generate	Run4	generate/STIM_001.jpg	99
2639.351	1.128	1127.7	generate	Run4	generate/STIM_001.jpg	100
2644.438	1.293	1292.8	generate	Run4	generate/STIM_002.jpg	100
2648.761	1.856	1856.2	generate	Run4	generate/STIM_002.jpg	100
2653.758	1.036	1036.1	generate	Run4	generate/STIM_002.jpg	100
2657.066	1.364	1363.7	generate	Run4	generate/STIM_002.jpg	100
2660.659	1.647	1646.8	generate	Run4	generate/STIM_002.jpg	99
2666.29	2.148	2148.3	generate	Run4	generate/STIM_003.jpg	100
2672.083	0.895	895.2	generate	Run4	generate/STIM_003.jpg	99
2676.409	1.401	1401.2	generate	Run4	generate/STIM_003.jpg	100
2681.257	1.812	1812.5	generate	Run4	generate/STIM_003.jpg	100
2685.219	1.196	1196.2	generate	Run4	generate/STIM_003.jpg	99
2688.948	1.171	1170.9	generate	Run4	generate/STIM_004.jpg	99
2693.605	1.805	1805.4	generate	Run4	generate/STIM_004.jpg	100
2698.854	1.761	1761.2	generate	Run4	generate/STIM_004.jpg	100
2704.361	1.388	1388.2	generate	Run4	generate/STIM_004.jpg	99
2708.97	2.091	2091.0	generate	Run4	generate/STIM_004.jpg	99
2713.096	1.563	1562.7	generate	Run4	generate/STIM_005.jpg	99
2717.329	1.41	1409.7	generate	Run4	generate/STIM_005.jpg	99
2721.059	0.924	924.3	generate	Run4	generate/STIM_005.jpg	100
2725.256	1.18	1179.5	generate	Run4	generate/STIM_005.jpg	100
2728.781	1.523	1522.7	generate	Run4	generate/STIM_005.jpg	100
2733.435	1.977	1976.6	generate	Run4	generate/STIM_006.jpg	100
2738.809	1.65	1649.8	generate	Run4	generate/STIM_006.jpg	100
2743.596	2.04	2039.8	generate	Run4	generate/STIM_006.jpg	99
2748.149	1.709	1709.0	generate	Run4	generate/STIM_006.jpg	100
2753.157	1.376	1376.2	generate	Run4	generate/STIM_006.jpg	99
2757.687	1.702	1702.2	generate	Run4	generate/STIM_007.jpg	100
2763.279	1.04	1040.4	generate	Run4	generate/STIM_007.jpg	99
2767.168	0.966	965.9	generate	Run4	generate/STIM_007.jpg	99
2771.239	1.72	1719.7	generate	Run4	generate/STIM_007.jpg	99
2776.936	1.274	1274.0	generate	Run4	generate/STIM_007.jpg	99
2781.002	1.718	1718.3	generate	Run4	generate/STIM_008.jpg	99
2785.733	1.945	1944.8	generate	Run4	generate/STIM_008.jpg	100
2790.595	2.037	2037.2	generate	Run4	generate/STIM_008.jpg	99
2794.756	1.768	1768.1	generate	Run4	generate/STIM_008.jpg	99
2799.507	1.576	1576.2	generate	Run4	generate/STIM_008.jpg	100
2804.755	1.268	1268.0	generate	Run4	generate/STIM_009.jpg	99
2809.183	1.537	1536.7	generate	Run4	generate/STIM_009.jpg	99
2814.331	1.959	1958.7	generate	Run4	generate/STIM_009.jpg	99
2819.299	1.333	1332.8	generate	Run4	generate/STIM_009.jpg	100
2824.241	1.722	1722.0	generate	Run4	generate/STIM_009.jpg	99
2828.472	1.168	1167.8	generate	Run4	generate/STIM_010.jpg	100
2832.153	2.109	2108.6	generate	Run4	generate/STIM_010.jpg	99
2838.046	1.419	1418.9	generate	Run4	generate/STIM_010.jpg	99
2842.792	2.054	2054.0	generate	Run4	generate/STIM_010.jpg	100
2848.527	1.036	1035.5	generate	Run4	generate/STIM_010.jpg	100
2851.895	1.998	1997.7	generate	Run4	generate/STIM_011.jpg	99
2856.298	1.063	1062.9	generate	Run4	generate/STIM_011.jpg	100
2860.243	1.905	1905.0	generate	Run4	generate/STIM_011.jpg	99
2864.953	2.009	2008.5	generate	Run4	generate/STIM_011.jpg	100
2870.563	1.916	1915.7	generate	Run4	generate/STIM_011.jpg	99
2875.282	1.284	1283.6	generate	Run4	generate/STIM_012.jpg	100
2879.999	1.377	1377.4	generate	Run4	generate/STIM_012.jpg	99
2884.639	1.028	1028.3	generate	Run4	generate/STIM_012.jpg	99
2888.989	1.391	1390.6	generate	Run4	generate/STIM_012.jpg	100
2893.51	1.182	1181.9	generate	Run4	generate/STIM_012.jpg	100
2898.29	1.647	1646.6	generate	Run4	generate/STIM_013.jpg	100
2902.221	1.085	1085.1	generate	Run4	generate/STIM_013.jpg	100
2906.221	0.997	997.1	generate	Run4	generate/STIM_013.jpg	99
2911.212	1.182	1182.5	generate	Run4	generate/STIM_013.jpg	100
2914.728	1.5	1500.3	generate	Run4	generate/STIM_013.jpg	99
2919.935	0.897	897.2	generate	Run4	generate/STIM_014.jpg	100
2924.122	1.633	1633.0	generate	Run4	generate/STIM_014.jpg	99
2928.582	1.25	1249.5	generate	Run4	generate/STIM_014.jpg	99
2932.507	1.959	1958.9	generate	Run4	generate/STIM_014.jpg	100
2938.119	2.002	2001.6	generate	Run4	generate/STIM_014.jpg	100
2942.162	1.326	1326.1	generate	Run4	generate/STIM_015.jpg	100
2945.681	1.002	1001.9	generate	Run4	generate/STIM_015.jpg	99
2949.579	1.419	1419.4	generate	Run4	generate/STIM_015.jpg	100
2953.436	1.183	1182.7	generate	Run4	generate/STIM_015.jpg	99
2957.688	1.905	1904.7	generate	Run4	generate/STIM_015.jpg	99
2961.855	1.903	1902.8	generate	Run4	generate/STIM_016.jpg	99
2966.667	1.566	1566.3	generate	Run4	generate/STIM_016.jpg	99
2971.274	1.63	1630.2	generate	Run4	generate/STIM_016.jpg	100
2975.899	1.148	1147.8	generate	Run4	generate/STIM_016.jpg	100
2980.06	1.73	1730.1	generate	Run4	generate/STIM_016.jpg	100
2985.559	1.557	1557.4	generate	Run4	generate/STIM_017.jpg	99
2990.696	1.113	1113.0	generate	Run4	generate/STIM_017.jpg	100
2995.185	1.91	1910.5	generate	Run4	generate/STIM_017.jpg	99
2999.317	1.301	1301.1	generate	Run4	generate/STIM_017.jpg	100
3002.795	1.044	1044.5	generate	Run4	generate/STIM_017.jpg	100
3006.185	1.094	1093.9	generate	Run4	generate/STIM_018.jpg	99
3009.497	2.081	2081.3	generate	Run4	generate/STIM_018.jpg	99
3014.839	1.626	1625.7	generate	Run4	generate/STIM_018.jpg	100
3018.539	1.327	1326.9	generate	Run4	generate/STIM_018.jpg	100
3023.732	1.2	1199.5	generate	Run4	generate/STIM_018.jpg	99
3028.286	1.175	1175.3	generate	Run4	generate/STIM_019.jpg	100
3033.329	2.02	2020.4	generate	Run4	generate/STIM_019.jpg	100
3039.229	1.673	1673.0	generate	Run4	generate/STIM_019.jpg	99
3043.694	1.842	1841.8	generate	Run4	generate/STIM_019.jpg	100
3049.494	1.516	1515.5	generate	Run4	generate/STIM_019.jpg	100
3053.447	1.047	1047.3	generate	Run4	generate/STIM_020.jpg	99
3056.642	1.005	1005.4	generate	Run4	generate/STIM_020.jpg	99
3060.629	1.33	1329.9	generate	Run4	generate/STIM_020.jpg	100
3064.285	1.149	1148.6	generate	Run4	generate/STIM_020.jpg	100
3069.408	1.168	1168.2	generate	Run4	generate/STIM_020.jpg	99
3074.087	1.134	1134.0	generate	Run4	generate/STIM_021.jpg	99
3078.363	1.056	1055.9	generate	Run4	generate/STIM_021.jpg	99
3081.5	0.905	904.9	generate	Run4	generate/STIM_021.jpg	99
3085.562	2.059	2058.8	generate	Run4	generate/STIM_021.jpg	99
3091.596	1.106	1105.8	generate	Run4	generate/STIM_021.jpg	99
3094.737	1.292	1292.1	generate	Run4	generate/STIM_022.jpg	100
3098.428	1.938	1938.0	generate	Run4	generate/STIM_022.jpg	99
3104.041	0.953	953.4	generate	Run4	generate/STIM_022.jpg	100
3107.175	1.481	1481.4	generate	Run4	generate/STIM_022.jpg	99
3111.323	1.132	1132.3	generate	Run4	generate/STIM_022.jpg	100
3116.124	1.688	1687.5	generate	Run4	generate/STIM_023.jpg	99
3120.296	1.718	1717.8	generate	Run4	generate/STIM_023.jpg	99
3124.823	0.954	954.1	generate	Run4	generate/STIM_023.jpg	99
3129.717	1.879	1879.1	generate	Run4	generate/STIM_023.jpg	99
3135.273	1.993	1992.6	generate	Run4	generate/STIM_023.jpg	99
3139.451	1.33	1330.5	generate	Run4	generate/STIM_024.jpg	99
3143.446	2.13	2130.2	generate	Run4	generate/STIM_024.jpg	100
3147.866	1.258	1258.0	generate	Run4	generate/STIM_024.jpg	100
3151.509	1.215	1214.9	generate	Run4	generate/STIM_024.jpg	99
3155.752	1.65	1650.4	generate	Run4	generate/STIM_024.jpg	99
3161.342	0.888	888.0	repeat	Run4	repeat/STIM_000.jpg	99
3165.087	0.899	898.6	repeat	Run4	repeat/STIM_000.jpg	99
3168.283	0.95	950.1	repeat	Run4	repeat/STIM_000.jpg	99
3172.598	0.636	636.3	repeat	Run4	repeat/STIM_000.jpg	99
3176.615	1.01	1009.5	repeat	Run4	repeat/STIM_000.jpg	99
3179.692	0.79	790.0	repeat	Run4	repeat/STIM_001.jpg	99
3182.676	1.03	1030.2	repeat	Run4	repeat/STIM_001.jpg	99
3187.497	0.682	681.9	repeat	Run4	repeat/STIM_001.jpg	99
3190.28	0.691	691.3	repeat	Run4	repeat/STIM_001.jpg	99
3193.998	0.909	909.4	repeat	Run4	repeat/STIM_001.jpg	100
3198.043	0.907	906.7	repeat	Run4	repeat/STIM_002.jpg	99
3201.204	0.77	770.3	repeat	Run4	repeat/STIM_002.jpg	100
3205.337	0.885	885.0	repeat	Run4	repeat/STIM_002.jpg	99
3208.563	0.774	774.5	repeat	Run4	repeat/STIM_002.jpg	100
3212.967	1.034	1033.7	repeat	Run4	repeat/STIM_002.jpg	100
3216.892	0.802	802.1	repeat	Run4	repeat/STIM_003.jpg	99
3220.047	0.601	600.6	repeat	Run4	repeat/STIM_003.jpg	100
3224.545	0.962	962.3	repeat	Run4	repeat/STIM_003.jpg	99
3228.707	0.824	824.2	repeat	Run4	repeat/STIM_003.jpg	99
3231.926	0.903	902.6	repeat	Run4	repeat/STIM_003.jpg	100
3236.257	0.734	733.8	repeat	Run4	repeat/STIM_004.jpg	100
3240.515	0.607	607.1	repeat	Run4	repeat/STIM_004.jpg	99
3243.784	0.872	871.9	repeat	Run4	repeat/STIM_004.jpg	99
3248.622	0.68	680.4	repeat	Run4	repeat/STIM_004.jpg	99
3252.283	0.567	567.2	repeat	Run4	repeat/STIM_004.jpg	100
3254.931	0.708	708.3	repeat	Run4	repeat/STIM_005.jpg	99
3257.653	0.63	629.6	repeat	Run4	repeat/STIM_005.jpg	99
3262.014	0.977	977.0	repeat	Run4	repeat/STIM_005.jpg	100
3266.719	0.677	677.4	repeat	Run4	repeat/STIM_005.jpg	100
3270.392	0.758	757.8	repeat	Run4	repeat/STIM_005.jpg	100
3273.205	0.966	966.3	repeat	Run4	repeat/STIM_006.jpg	99
3277.951	0.729	729.4	repeat	Run4	repeat/STIM_006.jpg	99
3282.132	0.752	751.6	repeat	Run4	repeat/STIM_006.jpg	100
3286.561	1.012	1012.2	repeat	Run4	repeat/STIM_006.jpg	99
3291.199	0.97	969.5	repeat	Run4	repeat/STIM_006.jpg	99
3295.651	0.71	710.2	repeat	Run4	repeat/STIM_007.jpg	99
3299.075	0.995	995.3	repeat	Run4	repeat/STIM_007.jpg	99
3304.006	0.846	845.9	repeat	Run4	repeat/STIM_007.jpg	100
3307.853	0.522	521.5	repeat	Run4	repeat/STIM_007.jpg	99
3311.366	0.628	627.7	repeat	Run4	repeat/STIM_007.jpg	99
3314.622	0.567	567.2	repeat	Run4	repeat/STIM_008.jpg	99
3319.08	0.53	530.4	repeat	Run4	repeat/STIM_008.jpg	99
3321.828	1.0	999.5	repeat	Run4	repeat/STIM_008.jpg	99
3325.169	0.671	671.3	repeat	Run4	repeat/STIM_008.jpg	99
3329.406	0.839	839.4	repeat	Run4	repeat/STIM_008.jpg	99
3334.236	0.749	748.8	repeat	Run4	repeat/STIM_009.jpg	99
3337.346	0.61	609.7	repeat	Run4	repeat/STIM_009.jpg	100
3340.414	0.585	584.9	repeat	Run4	repeat/STIM_009.jpg	99
3344.579	0.627	626.8	repeat	Run4	repeat/STIM_009.jpg	99
3348.279	0.719	719.0	repeat	Run4	repeat/STIM_009.jpg	100
3352.246	0.753	752.7	repeat	Run4	repeat/STIM_010.jpg	99
3355.832	0.686	686.0	repeat	Run4	repeat/STIM_010.jpg	100
3359.097	0.62	620.2	repeat	Run4	repeat/STIM_010.jpg	99
3362.163	0.784	784.2	repeat	Run4	repeat/STIM_010.jpg	100
3365.155	0.606	605.6	repeat	Run4	repeat/STIM_010.jpg	100
3369.381	0.695	695.1	repeat	Run4	repeat/STIM_011.jpg	99
3373.366	0.612	612.1	repeat	Run4	repeat/STIM_011.jpg	100
3377.949	0.831	831.3	repeat	Run4	repeat/STIM_011.jpg	99
3380.781	0.785	785.3	repeat	Run4	repeat/STIM_011.jpg	100
3384.162	0.814	814.1	repeat	Run4	repeat/STIM_011.jpg	99
3388.238	0.821	821.3	repeat	Run4	repeat/STIM_012.jpg	100
3392.758	0.618	618.3	repeat	Run4	repeat/STIM_012.jpg	100
3396.737	0.925	924.6	repeat	Run4	repeat/STIM_012.jpg	100
3400.193	0.917	917.2	repeat	Run4	repeat/STIM_012.jpg	100
3404.356	0.963	962.6	repeat	Run4	repeat/STIM_012.jpg	100
3408.533	0.926	926.2	repeat	Run4	repeat/STIM_013.jpg	100
3413.38	0.775	775.0	repeat	Run4	repeat/STIM_013.jpg	100
3417.515	0.556	556.3	repeat	Run4	repeat/STIM_013.jpg	100
3420.292	0.736	736.3	repeat	Run4	repeat/STIM_013.jpg	100
3423.768	0.67	670.2	repeat	Run4	repeat/STIM_013.jpg	100
3427.604	0.59	589.9	repeat	Run4	repeat/STIM_014.jpg	100
3430.258	0.696	696.3	repeat	Run4	repeat/STIM_014.jpg	99
3434.75	0.618	617.8	repeat	Run4	repeat/STIM_014.jpg	99
3438.987	0.837	836.7	repeat	Run4	repeat/STIM_014.jpg	99
3442.071	0.871	870.8	repeat	Run4	repeat/STIM_014.jpg	100
