onset	duration	response_time_ms	trial_type	learning_stage	stimulus	response_port
0.0	1.8	1800.1	generate	Run1	generate/STIM_000.jpg	99
4.124	1.334	1334.5	generate	Run1	generate/STIM_000.jpg	100
8.105	2.257	2256.6	generate	Run1	generate/STIM_000.jpg	100
14.16	1.816	1815.9	generate	Run1	generate/STIM_000.jpg	100
19.825	1.784	1783.5	generate	Run1	generate/STIM_000.jpg	99
24.703	1.798	1797.9	generate	Run1	generate/STIM_001.jpg	100
30.503	2.082	2081.5	generate	Run1	generate/STIM_001.jpg	100
36.322	2.229	2228.6	generate	Run1	generate/STIM_001.jpg	100
41.314	2.028	2027.9	generate	Run1	generate/STIM_001.jpg	99
46.312	2.04	2039.9	generate	Run1	generate/STIM_001.jpg	100
50.808	1.716	1715.9	generate	Run1	generate/STIM_002.jpg	100
54.922	2.113	2112.6	generate	Run1	generate/STIM_002.jpg	99
60.795	2.251	2251.4	generate	Run1	generate/STIM_002.jpg	100
66.714	1.841	1840.7	generate	Run1	generate/STIM_002.jpg	100
71.452	2.1	2099.9	generate	Run1	generate/STIM_002.jpg	100
77.181	1.063	1063.4	generate	Run1	generate/STIM_003.jpg	100
80.554	2.159	2159.4	generate	Run1	generate/STIM_003.jpg	99
86.757	1.259	1259.1	generate	Run1	generate/STIM_003.jpg	99
90.289	2.142	2142.0	generate	Run1	generate/STIM_003.jpg	99
96.289	1.716	1716.1	generate	Run1	generate/STIM_003.jpg	100
101.339	1.707	1707.2	generate	Run1	generate/STIM_004.jpg	99
105.308	2.408	2408.3	generate	Run1	generate/STIM_004.jpg	99
111.912	1.338	1337.8	generate	Run1	generate/STIM_004.jpg	100
116.144	0.91	909.6	generate	Run1	generate/STIM_004.jpg	100
119.51	1.73	1729.8	generate	Run1	generate/STIM_004.jpg	99
124.747	2.338	2338.0	generate	Run1	generate/STIM_005.jpg	99
130.5	1.416	1415.6	generate	Run1	generate/STIM_005.jpg	100
135.978	2.162	2162.5	generate	Run1	generate/STIM_005.jpg	100
142.079	1.473	1472.8	generate	Run1	generate/STIM_005.jpg	100
147.183	1.367	1367.2	generate	Run1	generate/STIM_005.jpg	99
151.422	1.453	1453.2	generate	Run1	generate/STIM_006.jpg	99
155.09	1.518	1518.1	generate	Run1	generate/STIM_006.jpg	100
159.79	2.267	2267.0	generate	Run1	generate/STIM_006.jpg	99
164.673	1.474	1474.1	generate	Run1	generate/STIM_006.jpg	99
168.382	1.549	1548.9	generate	Run1	generate/STIM_006.jpg	99
172.913	1.521	1521.3	generate	Run1	generate/STIM_007.jpg	100
177.745	2.262	2262.3	generate	Run1	generate/STIM_007.jpg	99
183.053	1.313	1313.1	generate	Run1	generate/STIM_007.jpg	99
186.849	1.445	1445.3	generate	Run1	generate/STIM_007.jpg	100
190.803	1.11	1109.9	generate	Run1	generate/STIM_007.jpg	99
194.209	1.13	1129.8	generate	Run1	generate/STIM_008.jpg	99
197.688	1.443	1443.0	generate	Run1	generate/STIM_008.jpg	100
201.733	1.276	1276.2	generate	Run1	generate/STIM_008.jpg	99
206.721	0.973	972.6	generate	Run1	generate/STIM_008.jpg	100
210.375	1.768	1767.8	generate	Run1	generate/STIM_008.jpg	100
215.129	1.829	1828.7	generate	Run1	generate/STIM_009.jpg	99
219.636	1.81	1810.0	generate	Run1	generate/STIM_009.jpg	100
224.015	1.064	1064.4	generate	Run1	generate/STIM_009.jpg	99
227.658	0.997	996.9	generate	Run1	generate/STIM_009.jpg	100
231.008	1.56	1559.9	generate	Run1	generate/STIM_009.jpg	99
235.857	1.56	1560.4	generate	Run1	generate/STIM_010.jpg	99
240.643	1.291	1290.6	generate	Run1	generate/STIM_010.jpg	100
245.642	1.098	1097.8	generate	Run1	generate/STIM_010.jpg	99
249.402	1.054	1053.9	generate	Run1	generate/STIM_010.jpg	99
254.425	2.077	2077.4	generate	Run1	generate/STIM_010.jpg	99
259.334	1.54	1540.3	generate	Run1	generate/STIM_011.jpg	99
264.634	2.422	2422.0	generate	Run1	generate/STIM_011.jpg	99
269.884	1.452	1452.0	generate	Run1	generate/STIM_011.jpg	100
273.577	1.233	1232.8	generate	Run1	generate/STIM_011.jpg	100
278.853	1.073	1073.3	generate	Run1	generate/STIM_011.jpg	99
282.484	1.463	1462.9	generate	Run1	generate/STIM_012.jpg	100
287.016	1.33	1330.4	generate	Run1	generate/STIM_012.jpg	100
291.987	1.596	1596.3	generate	Run1	generate/STIM_012.jpg	99
297.225	1.299	1298.9	generate	Run1	generate/STIM_012.jpg	100
301.34	1.449	1449.4	generate	Run1	generate/STIM_012.jpg	100
306.063	1.98	1980.5	generate	Run1	generate/STIM_013.jpg	100
310.394	1.308	1308.0	generate	Run1	generate/STIM_013.jpg	100
315.331	1.073	1072.9	generate	Run1	generate/STIM_013.jpg	100
320.29	1.184	1184.1	generate	Run1	generate/STIM_013.jpg	99
324.361	1.453	1452.9	generate	Run1	generate/STIM_013.jpg	99
328.76	2.544	2544.2	generate	Run1	generate/STIM_014.jpg	100
335.233	1.802	1802.3	generate	Run1	generate/STIM_014.jpg	99
340.118	1.861	1861.0	generate	Run1	generate/STIM_014.jpg	100
344.378	1.84	1839.7	generate	Run1	generate/STIM_014.jpg	99
349.738	1.266	1266.1	generate	Run1	generate/STIM_014.jpg	99
354.308	1.877	1876.8	generate	Run1	generate/STIM_015.jpg	99
358.649	1.729	1729.4	generate	Run1	generate/STIM_015.jpg	100
363.903	2.355	2354.6	generate	Run1	generate/STIM_015.jpg	99
369.234	1.392	1391.6	generate	Run1	generate/STIM_015.jpg	99
374.133	1.073	1072.6	generate	Run1	generate/STIM_015.jpg	100
378.135	2.444	2444.0	generate	Run1	generate/STIM_016.jpg	100
384.571	1.768	1768.1	generate	Run1	generate/STIM_016.jpg	99
389.863	1.266	1265.7	generate	Run1	generate/STIM_016.jpg	100
393.76	1.682	1682.4	generate	Run1	generate/STIM_016.jpg	99
398.181	1.224	1223.5	generate	Run1	generate/STIM_016.jpg	100
403.549	2.582	2581.9	generate	Run1	generate/STIM_017.jpg	100
408.751	1.588	1587.6	generate	Run1	generate/STIM_017.jpg	99
414.374	1.932	1932.5	generate	Run1	generate/STIM_017.jpg	100
419.487	1.504	1504.4	generate	Run1	generate/STIM_017.jpg	100
424.728	1.178	1178.5	generate	Run1	generate/STIM_017.jpg	99
428.076	1.355	1355.3	generate	Run1	generate/STIM_018.jpg	99
433.404	2.025	2024.5	generate	Run1	generate/STIM_018.jpg	99
438.724	0.965	965.1	generate	Run1	generate/STIM_018.jpg	100
442.851	1.217	1217.3	generate	Run1	generate/STIM_018.jpg	100
446.626	0.965	965.0	generate	Run1	generate/STIM_018.jpg	100
450.345	2.501	2501.3	generate	Run1	generate/STIM_019.jpg	99
456.98	1.58	1580.1	generate	Run1	generate/STIM_019.jpg	100
462.703	1.464	1463.5	generate	Run1	generate/STIM_019.jpg	100
466.767	1.923	1922.6	generate	Run1	generate/STIM_019.jpg	100
471.419	1.956	1955.7	generate	Run1	generate/STIM_019.jpg	100
476.029	2.247	2247.2	generate	Run1	generate/STIM_020.jpg	100
481.834	1.592	1592.3	generate	Run1	generate/STIM_020.jpg	100
486.664	1.652	1651.8	generate	Run1	generate/STIM_020.jpg	99
491.261	1.617	1617.1	generate	Run1	generate/STIM_020.jpg	100
495.558	1.655	1654.6	generate	Run1	generate/STIM_020.jpg	100
500.961	1.674	1674.1	generate	Run1	generate/STIM_021.jpg	100
506.032	1.884	1883.8	generate	Run1	generate/STIM_021.jpg	99
510.914	1.122	1122.4	generate	Run1	generate/STIM_021.jpg	100
514.847	2.203	2202.6	generate	Run1	generate/STIM_021.jpg	99
519.72	1.322	1322.1	generate	Run1	generate/STIM_021.jpg	99
523.386	1.605	1604.8	generate	Run1	generate/STIM_022.jpg	99
528.511	1.402	1401.9	generate	Run1	generate/STIM_022.jpg	100
532.277	1.44	1440.4	generate	Run1	generate/STIM_022.jpg	99
536.881	1.092	1092.0	generate	Run1	generate/STIM_022.jpg	100
540.164	2.063	2062.9	generate	Run1	generate/STIM_022.jpg	100
545.594	1.148	1147.8	generate	Run1	generate/STIM_023.jpg	99
549.757	1.884	1883.7	generate	Run1	generate/STIM_023.jpg	99
554.174	1.041	1040.9	generate	Run1	generate/STIM_023.jpg	100
559.25	1.342	1342.2	generate	Run1	generate/STIM_023.jpg	99
562.788	1.363	1362.6	generate	Run1	generate/STIM_023.jpg	99
567.451	1.898	1897.6	generate	Run1	generate/STIM_024.jpg	99
572.699	2.228	2227.8	generate	Run1	generate/STIM_024.jpg	99
577.916	2.264	2264.0	generate	Run1	generate/STIM_024.jpg	100
584.139	1.004	1004.3	generate	Run1	generate/STIM_024.jpg	100
587.769	1.559	1559.2	generate	Run1	generate/STIM_024.jpg	99
591.85	0.534	533.8	repeat	Run1	repeat/STIM_000.jpg	99
596.346	0.623	623.1	repeat	Run1	repeat/STIM_000.jpg	100
599.869	0.832	832.0	repeat	Run1	repeat/STIM_000.jpg	99
603.471	0.849	849.2	repeat	Run1	repeat/STIM_000.jpg	99
608.361	0.478	478.5	repeat	Run1	repeat/STIM_000.jpg	100
612.768	0.519	519.0	repeat	Run1	repeat/STIM_001.jpg	99
615.796	0.634	634.1	repeat	Run1	repeat/STIM_001.jpg	99
619.978	0.52	520.0	repeat	Run1	repeat/STIM_001.jpg	100
623.472	0.805	804.8	repeat	Run1	repeat/STIM_001.jpg	99
627.434	0.769	769.4	repeat	Run1	repeat/STIM_001.jpg	100
631.245	0.539	539.1	repeat	Run1	repeat/STIM_002.jpg	100
633.88	0.786	786.0	repeat	Run1	repeat/STIM_002.jpg	100
637.524	0.72	719.6	repeat	Run1	repeat/STIM_002.jpg	99
641.908	0.569	569.2	repeat	Run1	repeat/STIM_002.jpg	99
645.089	0.694	693.6	repeat	Run1	repeat/STIM_002.jpg	100
649.345	0.649	648.7	repeat	Run1	repeat/STIM_003.jpg	99
653.013	0.478	477.8	repeat	Run1	repeat/STIM_003.jpg	100
656.584	0.701	700.6	repeat	Run1	repeat/STIM_003.jpg	100
659.969	0.472	472.2	repeat	Run1	repeat/STIM_003.jpg	100
663.013	0.627	627.1	repeat	Run1	repeat/STIM_003.jpg	99
667.693	0.713	712.8	repeat	Run1	repeat/STIM_004.jpg	100
672.146	0.583	583.3	repeat	Run1	repeat/STIM_004.jpg	99
675.452	0.618	617.9	repeat	Run1	repeat/STIM_004.jpg	100
679.908	0.726	725.7	repeat	Run1	repeat/STIM_004.jpg	100
682.948	0.591	590.8	repeat	Run1	repeat/STIM_004.jpg	99
687.42	0.702	701.5	repeat	Run1	repeat/STIM_005.jpg	99
692.125	0.686	685.6	repeat	Run1	repeat/STIM_005.jpg	100
695.919	0.845	845.0	repeat	Run1	repeat/STIM_005.jpg	100
698.909	0.722	722.0	repeat	Run1	repeat/STIM_005.jpg	100
703.303	0.858	857.9	repeat	Run1	repeat/STIM_005.jpg	99
706.526	0.599	598.8	repeat	Run1	repeat/STIM_006.jpg	100
711.172	0.545	545.0	repeat	Run1	repeat/STIM_006.jpg	100
715.273	0.738	738.3	repeat	Run1	repeat/STIM_006.jpg	100
718.328	0.565	565.2	repeat	Run1	repeat/STIM_006.jpg	100
722.013	0.766	765.8	repeat	Run1	repeat/STIM_006.jpg	100
726.432	0.748	747.5	repeat	Run1	repeat/STIM_007.jpg	99
730.166	0.586	585.5	repeat	Run1	repeat/STIM_007.jpg	99
733.313	0.448	448.4	repeat	Run1	repeat/STIM_007.jpg	100
736.066	0.641	640.9	repeat	Run1	repeat/STIM_007.jpg	100
739.888	0.713	713.2	repeat	Run1	repeat/STIM_007.jpg	99
742.911	0.524	523.7	repeat	Run1	repeat/STIM_008.jpg	99
745.598	0.666	666.1	repeat	Run1	repeat/STIM_008.jpg	100
748.835	0.705	704.9	repeat	Run1	repeat/STIM_008.jpg	100
752.969	0.695	694.7	repeat	Run1	repeat/STIM_008.jpg	99
756.402	0.817	817.2	repeat	Run1	repeat/STIM_008.jpg	100
760.777	0.573	572.7	repeat	Run1	repeat/STIM_009.jpg	99
765.169	0.678	677.8	repeat	Run1	repeat/STIM_009.jpg	100
768.685	0.726	726.3	repeat	Run1	repeat/STIM_009.jpg	100
771.919	0.768	767.9	repeat	Run1	repeat/STIM_009.jpg	99
776.308	0.836	836.5	repeat	Run1	repeat/STIM_009.jpg	100
780.079	0.465	465.2	repeat	Run1	repeat/STIM_010.jpg	100
783.771	0.868	867.9	repeat	Run1	repeat/STIM_010.jpg	99
788.715	0.581	581.1	repeat	Run1	repeat/STIM_010.jpg	99
792.595	0.642	642.3	repeat	Run1	repeat/STIM_010.jpg	100
796.004	0.653	652.9	repeat	Run1	repeat/STIM_010.jpg	99
798.918	0.81	810.3	repeat	Run1	repeat/STIM_011.jpg	100
803.272	0.803	803.1	repeat	Run1	repeat/STIM_011.jpg	100
808.118	0.773	773.2	repeat	Run1	repeat/STIM_011.jpg	100
811.449	0.793	792.7	repeat	Run1	repeat/STIM_011.jpg	99
814.545	0.544	543.8	repeat	Run1	repeat/STIM_011.jpg	100
817.961	0.862	861.8	repeat	Run1	repeat/STIM_012.jpg	100
822.659	0.68	679.6	repeat	Run1	repeat/STIM_012.jpg	100
825.583	0.694	693.6	repeat	Run1	repeat/STIM_012.jpg	100
829.381	0.47	469.5	repeat	Run1	repeat/STIM_012.jpg	99
832.298	0.596	595.8	repeat	Run1	repeat/STIM_012.jpg	100
836.265	0.763	763.2	repeat	Run1	repeat/STIM_013.jpg	99
839.892	0.756	756.2	repeat	Run1	repeat/STIM_013.jpg	99
844.04	0.558	557.7	repeat	Run1	repeat/STIM_013.jpg	99
848.151	0.586	586.0	repeat	Run1	repeat/STIM_013.jpg	99
850.925	0.802	801.7	repeat	Run1	repeat/STIM_013.jpg	99
855.785	0.84	839.8	repeat	Run1	repeat/STIM_014.jpg	99
859.569	0.729	728.6	repeat	Run1	repeat/STIM_014.jpg	99
864.106	0.706	706.5	repeat	Run1	repeat/STIM_014.jpg	99
868.39	0.594	594.1	repeat	Run1	repeat/STIM_014.jpg	100
872.313	0.517	517.3	repeat	Run1	repeat/STIM_014.jpg	100
876.067	1.047	1046.7	generate	Run2	generate/STIM_000.jpg	100
879.539	1.367	1367.4	generate	Run2	generate/STIM_000.jpg	100
883.277	1.292	1291.6	generate	Run2	generate/STIM_000.jpg	99
888.633	0.778	777.5	generate	Run2	generate/STIM_000.jpg	99
892.873	1.165	1165.4	generate	Run2	generate/STIM_000.jpg	100
896.485	1.032	1031.7	generate	Run2	generate/STIM_001.jpg	100
899.914	1.249	1249.4	generate	Run2	generate/STIM_001.jpg	99
903.496	1.608	1607.6	generate	Run2	generate/STIM_001.jpg	100
907.909	1.589	1589.2	generate	Run2	generate/STIM_001.jpg	100
913.338	1.136	1136.0	generate	Run2	generate/STIM_001.jpg	99
917.084	1.332	1332.5	generate	Run2	generate/STIM_002.jpg	99
921.642	0.901	900.9	generate	Run2	generate/STIM_002.jpg	99
925.268	1.235	1234.9	generate	Run2	generate/STIM_002.jpg	99
929.369	1.333	1333.4	generate	Run2	generate/STIM_002.jpg	100
934.534	1.297	1296.9	generate	Run2	generate/STIM_002.jpg	99
939.286	0.97	970.1	generate	Run2	generate/STIM_003.jpg	99
942.742	1.32	1319.7	generate	Run2	generate/STIM_003.jpg	99
948.233	1.89	1889.7	generate	Run2	generate/STIM_003.jpg	100
954.089	1.407	1407.0	generate	Run2	generate/STIM_003.jpg	99
959.594	0.926	925.9	generate	Run2	generate/STIM_003.jpg	100
964.46	1.097	1097.0	generate	Run2	generate/STIM_004.jpg	99
967.733	2.114	2113.9	generate	Run2	generate/STIM_004.jpg	99
973.684	1.106	1105.9	generate	Run2	generate/STIM_004.jpg	99
978.81	1.041	1040.8	generate	Run2	generate/STIM_004.jpg	100
983.748	1.821	1821.3	generate	Run2	generate/STIM_004.jpg	100
988.39	1.58	1579.5	generate	Run2	generate/STIM_005.jpg	99
992.252	1.48	1480.3	generate	Run2	generate/STIM_005.jpg	100
996.879	0.834	833.6	generate	Run2	generate/STIM_005.jpg	99
1000.804	1.426	1426.3	generate	Run2	generate/STIM_005.jpg	99
1006.274	1.36	1359.9	generate	Run2	generate/STIM_005.jpg	99
1011.106	1.966	1965.8	generate	Run2	generate/STIM_006.jpg	99
1017.073	1.931	1930.7	generate	Run2	generate/STIM_006.jpg	100
1021.331	0.853	852.8	generate	Run2	generate/STIM_006.jpg	100
1024.821	1.051	1050.7	generate	Run2	generate/STIM_006.jpg	100
1029.39	0.982	982.3	generate	Run2	generate/STIM_006.jpg	100
1034.375	1.629	1629.2	generate	Run2	generate/STIM_007.jpg	99
1039.433	1.64	1640.4	generate	Run2	generate/STIM_007.jpg	100
1044.856	1.039	1039.3	generate	Run2	generate/STIM_007.jpg	100
1049.58	1.401	1401.0	generate	Run2	generate/STIM_007.jpg	99
1053.328	1.458	1458.3	generate	Run2	generate/STIM_007.jpg	100
1057.795	1.175	1175.4	generate	Run2	generate/STIM_008.jpg	99
1062.924	1.567	1567.2	generate	Run2	generate/STIM_008.jpg	99
1067.832	1.007	1007.3	generate	Run2	generate/STIM_008.jpg	100
1072.692	1.25	1250.0	generate	Run2	generate/STIM_008.jpg	99
1078.083	0.977	976.9	generate	Run2	generate/STIM_008.jpg	99
1081.684	2.199	2199.2	generate	Run2	generate/STIM_009.jpg	100
1087.102	2.115	2114.6	generate	Run2	generate/STIM_009.jpg	99
1092.313	0.847	847.4	generate	Run2	generate/STIM_009.jpg	100
1096.078	0.816	816.1	generate	Run2	generate/STIM_009.jpg	100
1100.071	1.309	1309.1	generate	Run2	generate/STIM_009.jpg	99
1104.654	1.308	1307.6	generate	Run2	generate/STIM_010.jpg	99
1109.188	1.268	1267.9	generate	Run2	generate/STIM_010.jpg	99
1114.614	1.337	1336.9	generate	Run2	generate/STIM_010.jpg	100
1118.357	1.511	1511.1	generate	Run2	generate/STIM_010.jpg	100
1122.762	1.831	1831.0	generate	Run2	generate/STIM_010.jpg	100
1127.552	0.926	926.3	generate	Run2	generate/STIM_011.jpg	100
1131.121	1.603	1603.0	generate	Run2	generate/STIM_011.jpg	100
1135.139	0.804	804.5	generate	Run2	generate/STIM_011.jpg	100
1139.657	1.244	1244.2	generate	Run2	generate/STIM_011.jpg	99
1143.674	1.115	1114.6	generate	Run2	generate/STIM_011.jpg	100
1148.798	1.264	1263.9	generate	Run2	generate/STIM_012.jpg	99
1153.809	1.826	1826.5	generate	Run2	generate/STIM_012.jpg	100
1158.755	1.736	1736.0	generate	Run2	generate/STIM_012.jpg	100
1164.597	0.922	922.4	generate	Run2	generate/STIM_012.jpg	100
1168.792	0.789	789.4	generate	Run2	generate/STIM_012.jpg	99
1173.079	1.095	1094.6	generate	Run2	generate/STIM_013.jpg	99
1178.088	1.374	1373.8	generate	Run2	generate/STIM_013.jpg	99
1182.089	1.476	1475.8	generate	Run2	generate/STIM_013.jpg	100
1187.146	1.466	1466.2	generate	Run2	generate/STIM_013.jpg	100
1191.872	1.712	1711.5	generate	Run2	generate/STIM_013.jpg	99
1196.333	2.115	2115.3	generate	Run2	generate/STIM_014.jpg	99
1201.511	1.456	1455.7	generate	Run2	generate/STIM_014.jpg	99
1205.319	1.413	1413.2	generate	Run2	generate/STIM_014.jpg	99
1209.669	1.612	1611.9	generate	Run2	generate/STIM_014.jpg	99
1215.024	1.402	1402.5	generate	Run2	generate/STIM_014.jpg	100
1219.55	1.442	1441.7	generate	Run2	generate/STIM_015.jpg	99
1224.654	1.414	1413.5	generate	Run2	generate/STIM_015.jpg	100
1229.946	1.308	1308.0	generate	Run2	generate/STIM_015.jpg	100
1233.629	1.615	1615.2	generate	Run2	generate/STIM_015.jpg	99
1238.121	1.559	1559.0	generate	Run2	generate/STIM_015.jpg	100
1242.512	0.979	979.1	generate	Run2	generate/STIM_016.jpg	99
1246.216	0.937	937.4	generate	Run2	generate/STIM_016.jpg	99
1250.051	1.095	1094.7	generate	Run2	generate/STIM_016.jpg	99
1254.615	1.796	1796.4	generate	Run2	generate/STIM_016.jpg	100
1259.626	1.846	1846.5	generate	Run2	generate/STIM_016.jpg	100
1264.723	1.936	1935.6	generate	Run2	generate/STIM_017.jpg	100
1269.329	1.237	1236.9	generate	Run2	generate/STIM_017.jpg	99
1273.142	0.976	976.2	generate	Run2	generate/STIM_017.jpg	100
1278.022	0.952	952.3	generate	Run2	generate/STIM_017.jpg	100
1281.607	1.087	1086.7	generate	Run2	generate/STIM_017.jpg	100
1285.776	1.618	1618.4	generate	Run2	generate/STIM_018.jpg	99
1290.723	1.533	1533.4	generate	Run2	generate/STIM_018.jpg	100
1295.085	1.803	1802.8	generate	Run2	generate/STIM_018.jpg	100
1300.747	0.994	994.0	generate	Run2	generate/STIM_018.jpg	99
1304.742	1.376	1375.7	generate	Run2	generate/STIM_018.jpg	99
1308.716	1.215	1215.0	generate	Run2	generate/STIM_019.jpg	100
1313.375	1.997	1997.4	generate	Run2	generate/STIM_019.jpg	100
1318.033	1.644	1643.6	generate	Run2	generate/STIM_019.jpg	100
1323.14	0.796	796.3	generate	Run2	generate/STIM_019.jpg	100
1327.858	1.665	1664.9	generate	Run2	generate/STIM_019.jpg	100
1332.032	1.577	1576.7	generate	Run2	generate/STIM_020.jpg	99
1336.19	1.827	1827.4	generate	Run2	generate/STIM_020.jpg	100
1340.923	1.241	1240.8	generate	Run2	generate/STIM_020.jpg	100
1345.286	1.789	1788.8	generate	Run2	generate/STIM_020.jpg	99
1349.368	0.849	849.1	generate	Run2	generate/STIM_020.jpg	99
1353.914	1.569	1568.7	generate	Run2	generate/STIM_021.jpg	99
1358.558	1.561	1560.7	generate	Run2	generate/STIM_021.jpg	99
1363.252	1.953	1952.9	generate	Run2	generate/STIM_021.jpg	99
1368.513	0.966	965.9	generate	Run2	generate/STIM_021.jpg	100
1371.664	1.659	1658.7	generate	Run2	generate/STIM_021.jpg	100
1375.651	1.982	1982.0	generate	Run2	generate/STIM_022.jpg	100
1381.069	1.251	1251.3	generate	Run2	generate/STIM_022.jpg	99
1385.413	1.737	1737.1	generate	Run2	generate/STIM_022.jpg	99
1390.832	1.635	1635.3	generate	Run2	generate/STIM_022.jpg	100
1395.83	1.493	1492.9	generate	Run2	generate/STIM_022.jpg	99
1400.534	2.187	2187.3	generate	Run2	generate/STIM_023.jpg	99
1406.025	1.968	1967.8	generate	Run2	generate/STIM_023.jpg	99
1412.099	1.248	1248.1	generate	Run2	generate/STIM_023.jpg	100
1416.906	1.407	1406.8	generate	Run2	generate/STIM_023.jpg	100
1421.456	1.026	1025.6	generate	Run2	generate/STIM_023.jpg	100
1425.318	1.257	1257.3	generate	Run2	generate/STIM_024.jpg	99
1430.306	0.884	884.4	generate	Run2	generate/STIM_024.jpg	100
1433.907	1.287	1287.1	generate	Run2	generate/STIM_024.jpg	100
1438.572	1.674	1673.9	generate	Run2	generate/STIM_024.jpg	100
1443.115	1.832	1831.8	generate	Run2	generate/STIM_024.jpg	99
1449.169	0.523	522.7	repeat	Run2	repeat/STIM_000.jpg	99
1452.287	0.806	806.1	repeat	Run2	repeat/STIM_000.jpg	99
1456.792	0.695	694.7	repeat	Run2	repeat/STIM_000.jpg	99
1459.668	0.697	697.1	repeat	Run2	repeat/STIM_000.jpg	99
1462.842	0.828	828.0	repeat	Run2	repeat/STIM_000.jpg	100
1466.241	0.803	802.8	repeat	Run2	repeat/STIM_001.jpg	99
1470.817	0.855	855.0	repeat	Run2	repeat/STIM_001.jpg	99
1475.245	0.764	764.2	repeat	Run2	repeat/STIM_001.jpg	99
1479.106	0.45	449.8	repeat	Run2	repeat/STIM_001.jpg	100
1482.775	0.738	737.6	repeat	Run2	repeat/STIM_001.jpg	99
1486.227	0.804	803.8	repeat	Run2	repeat/STIM_002.jpg	99
1490.919	0.723	723.4	repeat	Run2	repeat/STIM_002.jpg	100
1495.469	0.71	709.9	repeat	Run2	repeat/STIM_002.jpg	100
1499.594	0.716	716.5	repeat	Run2	repeat/STIM_002.jpg	100
1503.207	0.608	608.5	repeat	Run2	repeat/STIM_002.jpg	99
1506.78	0.646	645.8	repeat	Run2	repeat/STIM_003.jpg	99
1510.271	0.736	735.7	repeat	Run2	repeat/STIM_003.jpg	100
1513.165	0.687	687.0	repeat	Run2	repeat/STIM_003.jpg	99
1516.265	0.756	756.2	repeat	Run2	repeat/STIM_003.jpg	100
1520.496	0.81	809.8	repeat	Run2	repeat/STIM_003.jpg	99
1524.409	0.67	670.3	repeat	Run2	repeat/STIM_004.jpg	100
1528.39	0.788	788.3	repeat	Run2	repeat/STIM_004.jpg	99
1531.896	0.743	742.9	repeat	Run2	repeat/STIM_004.jpg	99
1536.284	0.866	866.5	repeat	Run2	repeat/STIM_004.jpg	99
1539.81	0.704	704.3	repeat	Run2	repeat/STIM_004.jpg	99
1544.262	0.682	681.9	repeat	Run2	repeat/STIM_005.jpg	100
1547.51	0.796	796.2	repeat	Run2	repeat/STIM_005.jpg	99
1552.325	0.481	480.6	repeat	Run2	repeat/STIM_005.jpg	99
1556.819	0.497	497.4	repeat	Run2	repeat/STIM_005.jpg	99
1559.604	0.615	614.9	repeat	Run2	repeat/STIM_005.jpg	99
1562.795	0.819	818.9	repeat	Run2	repeat/STIM_006.jpg	99
1567.054	0.59	590.1	repeat	Run2	repeat/STIM_006.jpg	100
1570.159	0.798	797.6	repeat	Run2	repeat/STIM_006.jpg	99
1573.978	0.845	845.0	repeat	Run2	repeat/STIM_006.jpg	99
1578.248	0.618	617.9	repeat	Run2	repeat/STIM_006.jpg	99
1580.952	0.529	528.6	repeat	Run2	repeat/STIM_007.jpg	100
1584.713	0.58	580.4	repeat	Run2	repeat/STIM_007.jpg	99
1589.142	0.668	668.0	repeat	Run2	repeat/STIM_007.jpg	100
1593.578	0.645	644.9	repeat	Run2	repeat/STIM_007.jpg	99
1596.996	0.532	531.6	repeat	Run2	repeat/STIM_007.jpg	99
1600.823	0.57	570.1	repeat	Run2	repeat/STIM_008.jpg	100
1604.054	0.88	879.7	repeat	Run2	repeat/STIM_008.jpg	100
1608.308	0.726	726.4	repeat	Run2	repeat/STIM_008.jpg	100
1612.291	0.809	809.1	repeat	Run2	repeat/STIM_008.jpg	100
1616.12	0.716	715.8	repeat	Run2	repeat/STIM_008.jpg	100
1619.472	0.571	570.6	repeat	Run2	repeat/STIM_009.jpg	99
1623.524	0.598	597.6	repeat	Run2	repeat/STIM_009.jpg	99
1626.381	0.745	744.8	repeat	Run2	repeat/STIM_009.jpg	100
1630.132	0.765	764.7	repeat	Run2	repeat/STIM_009.jpg	99
1634.012	0.752	752.2	repeat	Run2	repeat/STIM_009.jpg	99
1637.791	0.659	659.3	repeat	Run2	repeat/STIM_010.jpg	100
1640.786	0.468	468.4	repeat	Run2	repeat/STIM_010.jpg	100
1643.708	0.462	461.5	repeat	Run2	repeat/STIM_010.jpg	100
1646.865	0.484	484.5	repeat	Run2	repeat/STIM_010.jpg	100
1651.278	0.705	705.4	repeat	Run2	repeat/STIM_010.jpg	100
1655.325	0.63	630.1	repeat	Run2	repeat/STIM_011.jpg	99
1658.056	0.544	543.7	repeat	Run2	repeat/STIM_011.jpg	100
1661.079	0.562	562.3	repeat	Run2	repeat/STIM_011.jpg	99
1665.706	0.566	566.4	repeat	Run2	repeat/STIM_011.jpg	100
1668.399	0.709	709.4	repeat	Run2	repeat/STIM_011.jpg	99
1672.197	0.464	463.8	repeat	Run2	repeat/STIM_012.jpg	100
1675.412	0.744	744.3	repeat	Run2	repeat/STIM_012.jpg	100
1678.537	0.692	692.1	repeat	Run2	repeat/STIM_012.jpg	99
1682.507	0.707	706.9	repeat	Run2	repeat/STIM_012.jpg	99
1686.98	0.703	702.6	repeat	Run2	repeat/STIM_012.jpg	99
1690.453	0.626	625.7	repeat	Run2	repeat/STIM_013.jpg	99
1695.037	0.754	753.7	repeat	Run2	repeat/STIM_013.jpg	100
1698.107	0.657	657.3	repeat	Run2	repeat/STIM_013.jpg	100
1702.566	0.838	838.5	repeat	Run2	repeat/STIM_013.jpg	99
1706.307	0.778	778.2	repeat	Run2	repeat/STIM_013.jpg	99
1710.171	0.878	878.5	repeat	Run2	repeat/STIM_014.jpg	99
1713.222	0.507	507.5	repeat	Run2	repeat/STIM_014.jpg	100
1717.349	0.594	594.3	repeat	Run2	repeat/STIM_014.jpg	100
1720.693	0.674	673.6	repeat	Run2	repeat/STIM_014.jpg	99
1723.978	0.448	447.8	repeat	Run2	repeat/STIM_014.jpg	99
1728.35	1.345	1344.9	generate	Run3	generate/STIM_000.jpg	99
1732.051	1.749	1748.6	generate	Run3	generate/STIM_000.jpg	100
1737.856	1.793	1792.6	generate	Run3	generate/STIM_000.jpg	99
1743.143	1.623	1622.8	generate	Run3	generate/STIM_000.jpg	99
1748.673	1.77	1769.9	generate	Run3	generate/STIM_000.jpg	100
1753.897	1.188	1187.5	generate	Run3	generate/STIM_001.jpg	99
1758.152	0.79	789.6	generate	Run3	generate/STIM_001.jpg	100
1761.477	1.456	1456.3	generate	Run3	generate/STIM_001.jpg	99
1765.165	0.896	896.3	generate	Run3	generate/STIM_001.jpg	100
1768.947	1.026	1025.9	generate	Run3	generate/STIM_001.jpg	100
1772.518	1.748	1748.5	generate	Run3	generate/STIM_002.jpg	99
1776.538	1.806	1806.1	generate	Run3	generate/STIM_002.jpg	100
1781.924	1.13	1129.8	generate	Run3	generate/STIM_002.jpg	100
1786.347	0.757	756.8	generate	Run3	generate/STIM_002.jpg	99
1789.493	1.271	1271.4	generate	Run3	generate/STIM_002.jpg	100
1793.049	1.414	1414.2	generate	Run3	generate/STIM_003.jpg	100
1797.556	0.778	777.8	generate	Run3	generate/STIM_003.jpg	99
1800.89	1.165	1164.8	generate	Run3	generate/STIM_003.jpg	100
1805.576	0.763	762.7	generate	Run3	generate/STIM_003.jpg	99
1809.88	1.318	1317.6	generate	Run3	generate/STIM_003.jpg	99
1814.562	1.556	1555.8	generate	Run3	generate/STIM_004.jpg	100
1818.489	1.258	1258.4	generate	Run3	generate/STIM_004.jpg	99
1823.59	1.235	1234.9	generate	Run3	generate/STIM_004.jpg	99
1828.0	1.201	1201.2	generate	Run3	generate/STIM_004.jpg	100
1833.009	0.92	920.0	generate	Run3	generate/STIM_004.jpg	100
1837.36	1.501	1500.7	generate	Run3	generate/STIM_005.jpg	99
1842.548	0.775	775.0	generate	Run3	generate/STIM_005.jpg	100
1845.918	0.965	964.9	generate	Run3	generate/STIM_005.jpg	99
1850.933	1.195	1194.8	generate	Run3	generate/STIM_005.jpg	100
1855.75	1.676	1676.3	generate	Run3	generate/STIM_005.jpg	99
1860.322	1.622	1622.4	generate	Run3	generate/STIM_006.jpg	100
1865.391	1.793	1793.2	generate	Run3	generate/STIM_006.jpg	100
1869.588	0.855	855.0	generate	Run3	generate/STIM_006.jpg	100
1874.458	0.817	816.6	generate	Run3	generate/STIM_006.jpg	99
1878.768	1.72	1720.0	generate	Run3	generate/STIM_006.jpg	100
1882.947	1.48	1480.1	generate	Run3	generate/STIM_007.jpg	99
1888.446	1.479	1478.8	generate	Run3	generate/STIM_007.jpg	99
1893.981	1.256	1255.5	generate	Run3	generate/STIM_007.jpg	99
1898.931	0.879	879.1	generate	Run3	generate/STIM_007.jpg	99
1902.828	0.875	875.3	generate	Run3	generate/STIM_007.jpg	100
1906.434	1.442	1442.3	generate	Run3	generate/STIM_008.jpg	100
1910.751	1.162	1161.9	generate	Run3	generate/STIM_008.jpg	99
1914.944	1.338	1337.5	generate	Run3	generate/STIM_008.jpg	100
1919.727	1.846	1846.1	generate	Run3	generate/STIM_008.jpg	100
1924.834	0.914	913.6	generate	Run3	generate/STIM_008.jpg	99
1929.503	1.641	1641.1	generate	Run3	generate/STIM_009.jpg	99
1933.773	1.374	1374.1	generate	Run3	generate/STIM_009.jpg	99
1939.324	1.245	1245.1	generate	Run3	generate/STIM_009.jpg	99
1943.968	1.546	1546.2	generate	Run3	generate/STIM_009.jpg	100
1948.879	0.975	974.8	generate	Run3	generate/STIM_009.jpg	99
1952.816	1.264	1263.8	generate	Run3	generate/STIM_010.jpg	100
1956.323	1.644	1644.2	generate	Run3	generate/STIM_010.jpg	99
1961.526	1.512	1512.0	generate	Run3	generate/STIM_010.jpg	99
1965.459	0.804	803.9	generate	Run3	generate/STIM_010.jpg	99
1969.45	1.476	1475.5	generate	Run3	generate/STIM_010.jpg	100
1974.282	0.971	970.7	generate	Run3	generate/STIM_011.jpg	100
1978.585	1.152	1152.1	generate	Run3	generate/STIM_011.jpg	100
1981.917	1.024	1024.5	generate	Run3	generate/STIM_011.jpg	100
1985.909	1.642	1642.0	generate	Run3	generate/STIM_011.jpg	100
1991.487	1.122	1121.6	generate	Run3	generate/STIM_011.jpg	99
1996.523	1.398	1398.5	generate	Run3	generate/STIM_012.jpg	99
2000.181	1.341	1340.6	generate	Run3	generate/STIM_012.jpg	99
2005.177	0.867	866.7	generate	Run3	generate/STIM_012.jpg	99
2009.467	1.496	1496.2	generate	Run3	generate/STIM_012.jpg	100
2014.815	0.811	810.7	generate	Run3	generate/STIM_012.jpg	99
2018.977	1.75	1749.7	generate	Run3	generate/STIM_013.jpg	100
2023.492	0.95	949.8	generate	Run3	generate/STIM_013.jpg	100
2028.467	1.591	1590.8	generate	Run3	generate/STIM_013.jpg	100
2033.983	0.797	797.1	generate	Run3	generate/STIM_013.jpg	100
2038.316	1.287	1286.6	generate	Run3	generate/STIM_013.jpg	100
2042.586	1.491	1491.3	generate	Run3	generate/STIM_014.jpg	100
2048.265	1.004	1003.8	generate	Run3	generate/STIM_014.jpg	100
2053.354	1.497	1496.7	generate	Run3	generate/STIM_014.jpg	100
2058.187	0.902	902.5	generate	Run3	generate/STIM_014.jpg	99
2061.587	1.653	1652.7	generate	Run3	generate/STIM_014.jpg	100
2066.675	1.586	1586.5	generate	Run3	generate/STIM_015.jpg	99
2070.739	1.685	1685.0	generate	Run3	generate/STIM_015.jpg	100
2076.43	1.008	1008.4	generate	Run3	generate/STIM_015.jpg	100
2079.614	1.166	1166.2	generate	Run3	generate/STIM_015.jpg	99
2084.515	1.538	1538.0	generate	Run3	generate/STIM_015.jpg	99
2089.424	1.316	1315.6	generate	Run3	generate/STIM_016.jpg	99
2094.617	1.05	1049.8	generate	Run3	generate/STIM_016.jpg	99
2099.747	1.467	1467.3	generate	Run3	generate/STIM_016.jpg	100
2105.027	1.119	1118.6	generate	Run3	generate/STIM_016.jpg	100
2109.525	1.511	1511.2	generate	Run3	generate/STIM_016.jpg	100
2114.628	0.763	763.4	generate	Run3	generate/STIM_017.jpg	99
2119.368	1.176	1176.0	generate	Run3	generate/STIM_017.jpg	99
2124.146	1.143	1142.9	generate	Run3	generate/STIM_017.jpg	99
2127.638	1.815	1815.2	generate	Run3	generate/STIM_017.jpg	100
2131.975	1.663	1663.1	generate	Run3	generate/STIM_017.jpg	99
2136.238	1.031	1030.7	generate	Run3	generate/STIM_018.jpg	99
2141.304	1.439	1439.4	generate	Run3	generate/STIM_018.jpg	99
2145.653	0.857	857.4	generate	Run3	generate/STIM_018.jpg	100
2150.23	1.143	1142.7	generate	Run3	generate/STIM_018.jpg	100
2153.679	1.201	1200.7	generate	Run3	generate/STIM_018.jpg	99
2158.202	1.546	1545.6	generate	Run3	generate/STIM_019.jpg	99
2162.603	1.59	1589.8	generate	Run3	generate/STIM_019.jpg	99
2168.15	1.624	1623.8	generate	Run3	generate/STIM_019.jpg	100
2173.846	1.54	1539.9	generate	Run3	generate/STIM_019.jpg	99
2179.584	1.744	1744.1	generate	Run3	generate/STIM_019.jpg	99
2184.003	0.772	772.3	generate	Run3	generate/STIM_020.jpg	100
2188.512	0.749	748.8	generate	Run3	generate/STIM_020.jpg	99
2193.27	1.264	1263.7	generate	Run3	generate/STIM_020.jpg	99
2197.305	1.699	1699.0	generate	Run3	generate/STIM_020.jpg	99
2202.941	1.568	1567.6	generate	Run3	generate/STIM_020.jpg	100
2206.965	1.196	1196.4	generate	Run3	generate/STIM_021.jpg	99
2210.686	1.431	1430.9	generate	Run3	generate/STIM_021.jpg	100
2214.327	1.847	1847.2	generate	Run3	generate/STIM_021.jpg	99
2219.055	0.914	914.5	generate	Run3	generate/STIM_021.jpg	100
2222.415	1.421	1421.3	generate	Run3	generate/STIM_021.jpg	100
2227.789	1.112	1111.9	generate	Run3	generate/STIM_022.jpg	99
2231.18	1.651	1651.1	generate	Run3	generate/STIM_022.jpg	99
2236.068	1.369	1368.6	generate	Run3	generate/STIM_022.jpg	100
2241.615	1.059	1058.9	generate	Run3	generate/STIM_022.jpg	100
2245.068	1.469	1468.6	generate	Run3	generate/STIM_022.jpg	100
2249.351	1.518	1518.1	generate	Run3	generate/STIM_023.jpg	100
2254.786	1.064	1063.6	generate	Run3	generate/STIM_023.jpg	100
2259.644	1.213	1213.0	generate	Run3	generate/STIM_023.jpg	100
2263.45	1.589	1589.1	generate	Run3	generate/STIM_023.jpg	99
2267.685	1.759	1759.2	generate	Run3	generate/STIM_023.jpg	99
2273.504	1.579	1578.8	generate	Run3	generate/STIM_024.jpg	99
2277.929	1.565	1564.8	generate	Run3	generate/STIM_024.jpg	99
2282.909	1.619	1619.3	generate	Run3	generate/STIM_024.jpg	99
2287.959	1.621	1621.1	generate	Run3	generate/STIM_024.jpg	100
2292.792	1.022	1022.1	generate	Run3	generate/STIM_024.jpg	99
2296.152	0.725	724.8	repeat	Run3	repeat/STIM_000.jpg	100
2299.563	0.854	853.7	repeat	Run3	repeat/STIM_000.jpg	99
2304.346	0.447	447.0	repeat	Run3	repeat/STIM_000.jpg	100
2307.769	0.868	868.0	repeat	Run3	repeat/STIM_000.jpg	99
2311.546	0.573	572.8	repeat	Run3	repeat/STIM_000.jpg	99
2315.974	0.577	576.7	repeat	Run3	repeat/STIM_001.jpg	99
2319.874	0.612	612.5	repeat	Run3	repeat/STIM_001.jpg	100
2322.935	0.836	835.5	repeat	Run3	repeat/STIM_001.jpg	100
2326.804	0.745	745.3	repeat	Run3	repeat/STIM_001.jpg	99
2331.0	0.47	470.3	repeat	Run3	repeat/STIM_001.jpg	100
2333.961	0.592	591.9	repeat	Run3	repeat/STIM_002.jpg	100
2337.13	0.484	484.3	repeat	Run3	repeat/STIM_002.jpg	99
2340.801	0.764	763.8	repeat	Run3	repeat/STIM_002.jpg	99
2345.456	0.847	846.8	repeat	Run3	repeat/STIM_002.jpg	100
2349.317	0.76	760.5	repeat	Run3	repeat/STIM_002.jpg	100
2353.739	0.577	577.2	repeat	Run3	repeat/STIM_003.jpg	99
2357.953	0.839	839.3	repeat	Run3	repeat/STIM_003.jpg	100
2362.729	0.832	832.3	repeat	Run3	repeat/STIM_003.jpg	100
2367.382	0.619	618.8	repeat	Run3	repeat/STIM_003.jpg	100
2370.561	0.574	573.8	repeat	Run3	repeat/STIM_003.jpg	99
2373.551	0.485	485.3	repeat	Run3	repeat/STIM_004.jpg	99
2376.912	0.674	673.5	repeat	Run3	repeat/STIM_004.jpg	99
2381.087	0.461	461.3	repeat	Run3	repeat/STIM_004.jpg	99
2383.813	0.734	733.9	repeat	Run3	repeat/STIM_004.jpg	100
2387.222	0.81	810.3	repeat	Run3	repeat/STIM_004.jpg	100
2391.998	0.752	751.9	repeat	Run3	repeat/STIM_005.jpg	100
2395.599	0.671	670.8	repeat	Run3	repeat/STIM_005.jpg	100
2398.614	0.778	778.3	repeat	Run3	repeat/STIM_005.jpg	100
2403.144	0.649	648.6	repeat	Run3	repeat/STIM_005.jpg	99
2406.1	0.709	709.2	repeat	Run3	repeat/STIM_005.jpg	100
2410.581	0.79	789.6	repeat	Run3	repeat/STIM_006.jpg	100
2414.814	0.609	608.9	repeat	Run3	repeat/STIM_006.jpg	99
2417.894	0.64	639.6	repeat	Run3	repeat/STIM_006.jpg	100
2421.077	0.675	675.2	repeat	Run3	repeat/STIM_006.jpg	100
2424.401	0.732	731.5	repeat	Run3	repeat/STIM_006.jpg	99
2428.15	0.64	639.7	repeat	Run3	repeat/STIM_007.jpg	99
2431.782	0.752	751.7	repeat	Run3	repeat/STIM_007.jpg	100
2436.142	0.846	846.0	repeat	Run3	repeat/STIM_007.jpg	100
2439.676	0.727	727.4	repeat	Run3	repeat/STIM_007.jpg	99
2442.811	0.787	787.2	repeat	Run3	repeat/STIM_007.jpg	100
2446.653	0.531	530.9	repeat	Run3	repeat/STIM_008.jpg	99
2449.831	0.853	853.4	repeat	Run3	repeat/STIM_008.jpg	99
2453.63	0.874	874.1	repeat	Run3	repeat/STIM_008.jpg	100
2457.692	0.594	593.5	repeat	Run3	repeat/STIM_008.jpg	100
2460.715	0.592	591.7	repeat	Run3	repeat/STIM_008.jpg	100
2464.967	0.564	563.5	repeat	Run3	repeat/STIM_009.jpg	99
2469.123	0.673	673.3	repeat	Run3	repeat/STIM_009.jpg	99
2473.136	0.847	846.7	repeat	Run3	repeat/STIM_009.jpg	100
2476.416	0.786	786.2	repeat	Run3	repeat/STIM_009.jpg	100
2481.303	0.758	757.6	repeat	Run3	repeat/STIM_009.jpg	100
2484.755	0.547	547.2	repeat	Run3	repeat/STIM_010.jpg	99
2487.391	0.709	709.4	repeat	Run3	repeat/STIM_010.jpg	99
2491.638	0.575	575.0	repeat	Run3	repeat/STIM_010.jpg	100
2496.025	0.638	638.2	repeat	Run3	repeat/STIM_010.jpg	99
2499.642	0.654	654.1	repeat	Run3	repeat/STIM_010.jpg	99
2503.704	0.652	651.5	repeat	Run3	repeat/STIM_011.jpg	99
2507.968	0.494	494.1	repeat	Run3	repeat/STIM_011.jpg	100
2511.576	0.873	872.8	repeat	Run3	repeat/STIM_011.jpg	99
2515.386	0.685	684.7	repeat	Run3	repeat/STIM_011.jpg	100
2518.287	0.711	711.2	repeat	Run3	repeat/STIM_011.jpg	100
2521.796	0.616	616.0	repeat	Run3	repeat/STIM_012.jpg	99
2526.077	0.846	846.4	repeat	Run3	repeat/STIM_012.jpg	99
2529.613	0.473	473.2	repeat	Run3	repeat/STIM_012.jpg	99
2533.527	0.75	750.0	repeat	Run3	repeat/STIM_012.jpg	100
2537.985	0.706	706.1	repeat	Run3	repeat/STIM_012.jpg	99
2542.134	0.686	685.5	repeat	Run3	repeat/STIM_013.jpg	99
2545.671	0.616	615.6	repeat	Run3	repeat/STIM_013.jpg	99
2550.129	0.831	830.8	repeat	Run3	repeat/STIM_013.jpg	99
2553.159	0.78	780.5	repeat	Run3	repeat/STIM_013.jpg	99
2556.787	0.726	726.1	repeat	Run3	repeat/STIM_013.jpg	99
2559.717	0.823	822.7	repeat	Run3	repeat/STIM_014.jpg	100
2562.724	0.536	536.2	repeat	Run3	repeat/STIM_014.jpg	100
2567.016	0.791	791.1	repeat	Run3	repeat/STIM_014.jpg	100
2571.784	0.82	819.7	repeat	Run3	repeat/STIM_014.jpg	100
2575.827	0.844	844.3	repeat	Run3	repeat/STIM_014.jpg	99
2580.675	1.767	1767.4	generate	Run4	generate/STIM_000.jpg	99
2585.672	1.456	1455.6	generate	Run4	generate/STIM_000.jpg	100
2590.753	1.622	1622.1	generate	Run4	generate/STIM_000.jpg	100
2594.742	1.738	1737.7	generate	Run4	generate/STIM_000.jpg	100
2598.965	1.105	1105.3	generate	Run4	generate/STIM_000.jpg	99
2603.528	1.852	1852.3	generate	Run4	generate/STIM_001.jpg	100
2609.263	0.988	988.1	generate	Run4	generate/STIM_001.jpg	99
2613.469	1.449	1449.1	generate	Run4	generate/STIM_001.jpg	100
2617.806	1.851	1851.1	generate	Run4	generate/STIM_001.jpg	99
2622.765	1.598	1598.3	generate	Run4	generate/STIM_001.jpg	100
2628.347	1.468	1468.5	generate	Run4	generate/STIM_002.jpg	100
2633.052	1.784	1784.1	generate	Run4	generate/STIM_002.jpg	100
2637.524	1.007	1007.2	generate	Run4	generate/STIM_002.jpg	100
2641.859	1.592	1591.7	generate	Run4	generate/STIM_002.jpg	100
2647.428	1.792	1792.2	generate	Run4	generate/STIM_002.jpg	99
2652.353	0.878	877.9	generate	Run4	generate/STIM_003.jpg	100
2656.154	1.846	1845.6	generate	Run4	generate/STIM_003.jpg	99
2660.741	1.696	1695.8	generate	Run4	generate/STIM_003.jpg	100
2665.633	1.452	1451.7	generate	Run4	generate/STIM_003.jpg	100
2671.061	1.326	1326.2	generate	Run4	generate/STIM_003.jpg	99
2674.952	1.414	1414.0	generate	Run4	generate/STIM_004.jpg	99
2679.642	1.654	1654.0	generate	Run4	generate/STIM_004.jpg	100
2685.251	0.921	920.8	generate	Run4	generate/STIM_004.jpg	100
2689.889	1.424	1423.6	generate	Run4	generate/STIM_004.jpg	99
2693.997	1.489	1488.8	generate	Run4	generate/STIM_004.jpg	99
2699.561	1.145	1145.4	generate	Run4	generate/STIM_005.jpg	99
2704.734	0.985	985.2	generate	Run4	generate/STIM_005.jpg	99
2709.802	0.845	845.0	generate	Run4	generate/STIM_005.jpg	100
2713.712	1.679	1679.2	generate	Run4	generate/STIM_005.jpg	100
2719.185	1.801	1801.1	generate	Run4	generate/STIM_005.jpg	100
2724.398	0.953	953.4	generate	Run4	generate/STIM_006.jpg	100
2729.065	1.632	1631.6	generate	Run4	generate/STIM_006.jpg	100
2733.136	0.78	780.5	generate	Run4	generate/STIM_006.jpg	99
2737.097	1.78	1779.7	generate	Run4	generate/STIM_006.jpg	100
2742.147	1.302	1302.5	generate	Run4	generate/STIM_006.jpg	99
2745.716	1.43	1430.4	generate	Run4	generate/STIM_007.jpg	100
2749.644	1.264	1264.1	generate	Run4	generate/STIM_007.jpg	99
2754.956	0.883	882.6	generate	Run4	generate/STIM_007.jpg	99
2759.847	0.82	819.8	generate	Run4	generate/STIM_007.jpg	99
2763.834	1.225	1225.4	generate	Run4	generate/STIM_007.jpg	99
2768.329	1.585	1585.4	generate	Run4	generate/STIM_008.jpg	99
2772.235	1.349	1349.2	generate	Run4	generate/STIM_008.jpg	100
2776.554	0.811	811.2	generate	Run4	generate/STIM_008.jpg	99
2779.593	1.086	1086.4	generate	Run4	generate/STIM_008.jpg	99
2782.966	1.715	1714.8	generate	Run4	generate/STIM_008.jpg	100
2787.923	1.516	1515.7	generate	Run4	generate/STIM_009.jpg	99
2792.791	1.774	1774.0	generate	Run4	generate/STIM_009.jpg	99
2798.56	1.281	1281.4	generate	Run4	generate/STIM_009.jpg	99
2802.239	1.288	1287.8	generate	Run4	generate/STIM_009.jpg	100
2806.179	1.345	1344.6	generate	Run4	generate/STIM_009.jpg	99
2810.848	0.793	793.0	generate	Run4	generate/STIM_010.jpg	100
2814.116	1.168	1167.7	generate	Run4	generate/STIM_010.jpg	99
2819.085	1.726	1725.5	generate	Run4	generate/STIM_010.jpg	99
2823.204	0.983	983.1	generate	Run4	generate/STIM_010.jpg	100
2827.32	0.928	927.8	generate	Run4	generate/STIM_010.jpg	100
2830.849	1.777	1776.8	generate	Run4	generate/STIM_011.jpg	99
2835.327	0.785	785.3	generate	Run4	generate/STIM_011.jpg	100
2838.385	0.999	999.4	generate	Run4	generate/STIM_011.jpg	99
2841.768	0.827	826.8	generate	Run4	generate/STIM_011.jpg	100
2844.773	0.949	949.2	generate	Run4	generate/STIM_011.jpg	99
2848.71	0.885	884.6	generate	Run4	generate/STIM_012.jpg	100
2853.427	1.675	1675.2	generate	Run4	generate/STIM_012.jpg	99
2857.378	0.845	844.8	generate	Run4	generate/STIM_012.jpg	99
2862.043	0.814	814.3	generate	Run4	generate/STIM_012.jpg	100
2866.269	1.536	1535.9	generate	Run4	generate/STIM_012.jpg	100
2871.413	1.475	1475.2	generate	Run4	generate/STIM_013.jpg	100
2876.617	1.216	1216.5	generate	Run4	generate/STIM_013.jpg	100
2881.635	0.792	792.4	generate	Run4	generate/STIM_013.jpg	99
2885.281	1.394	1394.1	generate	Run4	generate/STIM_013.jpg	100
2889.578	1.193	1192.6	generate	Run4	generate/STIM_013.jpg	99
2894.435	0.902	902.5	generate	Run4	generate/STIM_014.jpg	100
2898.01	0.754	753.8	generate	Run4	generate/STIM_014.jpg	99
2900.962	1.187	1186.7	generate	Run4	generate/STIM_014.jpg	99
2904.986	1.504	1504.3	generate	Run4	generate/STIM_014.jpg	100
2910.42	1.56	1560.3	generate	Run4	generate/STIM_014.jpg	100
2914.838	1.179	1179.4	generate	Run4	generate/STIM_015.jpg	100
2919.113	0.929	929.4	generate	Run4	generate/STIM_015.jpg	99
2923.913	1.08	1079.6	generate	Run4	generate/STIM_015.jpg	100
2927.944	1.156	1155.5	generate	Run4	generate/STIM_015.jpg	99
2932.212	1.689	1689.2	generate	Run4	generate/STIM_015.jpg	99
2936.906	1.413	1413.0	generate	Run4	generate/STIM_016.jpg	99
2942.199	1.408	1407.6	generate	Run4	generate/STIM_016.jpg	99
2946.833	1.258	1257.5	generate	Run4	generate/STIM_016.jpg	100
2951.085	1.692	1692.0	generate	Run4	generate/STIM_016.jpg	100
2955.39	1.435	1435.0	generate	Run4	generate/STIM_016.jpg	100
2959.647	1.78	1780.5	generate	Run4	generate/STIM_017.jpg	99
2964.432	1.11	1110.3	generate	Run4	generate/STIM_017.jpg	100
2967.739	0.885	884.6	generate	Run4	generate/STIM_017.jpg	99
2971.103	1.308	1308.3	generate	Run4	generate/STIM_017.jpg	100
2976.139	1.826	1825.7	generate	Run4	generate/STIM_017.jpg	100
2980.561	0.898	897.6	generate	Run4	generate/STIM_018.jpg	99
2984.611	0.789	788.8	generate	Run4	generate/STIM_018.jpg	99
2987.956	0.987	986.9	generate	Run4	generate/STIM_018.jpg	100
2992.398	0.782	781.7	generate	Run4	generate/STIM_018.jpg	100
2997.188	1.31	1310.0	generate	Run4	generate/STIM_018.jpg	99
3002.011	0.922	921.9	generate	Run4	generate/STIM_019.jpg	100
3006.177	1.537	1537.2	generate	Run4	generate/STIM_019.jpg	100
3011.556	1.281	1280.7	generate	Run4	generate/STIM_019.jpg	99
3016.62	0.783	782.7	generate	Run4	generate/STIM_019.jpg	100
3019.851	0.805	804.6	generate	Run4	generate/STIM_019.jpg	100
3023.326	0.829	829.1	generate	Run4	generate/STIM_020.jpg	99
3026.727	1.836	1835.5	generate	Run4	generate/STIM_020.jpg	99
3032.619	1.106	1105.8	generate	Run4	generate/STIM_020.jpg	100
3036.708	1.097	1096.7	generate	Run4	generate/STIM_020.jpg	100
3040.369	1.804	1803.6	generate	Run4	generate/STIM_020.jpg	99
3044.967	1.427	1426.6	generate	Run4	generate/STIM_021.jpg	99
3050.5	1.05	1049.9	generate	Run4	generate/STIM_021.jpg	99
3055.527	1.6	1600.2	generate	Run4	generate/STIM_021.jpg	99
3059.404	1.403	1402.8	generate	Run4	generate/STIM_021.jpg	99
3064.589	0.811	811.2	generate	Run4	generate/STIM_021.jpg	99
3067.848	1.31	1310.5	generate	Run4	generate/STIM_022.jpg	100
3071.97	0.942	941.8	generate	Run4	generate/STIM_022.jpg	99
3075.515	1.708	1707.9	generate	Run4	generate/STIM_022.jpg	100
3080.462	0.934	933.8	generate	Run4	generate/STIM_022.jpg	99
3085.335	1.604	1604.3	generate	Run4	generate/STIM_022.jpg	100
3089.91	1.314	1314.2	generate	Run4	generate/STIM_023.jpg	99
3094.059	0.845	845.0	generate	Run4	generate/STIM_023.jpg	99
3098.025	1.499	1498.8	generate	Run4	generate/STIM_023.jpg	99
3102.797	1.414	1413.8	generate	Run4	generate/STIM_023.jpg	99
3108.105	1.641	1640.9	generate	Run4	generate/STIM_023.jpg	99
3113.064	1.778	1778.3	generate	Run4	generate/STIM_024.jpg	99
3117.794	1.157	1157.3	generate	Run4	generate/STIM_024.jpg	100
3121.941	1.219	1219.0	generate	Run4	generate/STIM_024.jpg	100
3126.851	1.11	1110.2	generate	Run4	generate/STIM_024.jpg	99
3131.098	0.9	900.1	generate	Run4	generate/STIM_024.jpg	99
3134.379	0.453	452.8	repeat	Run4	repeat/STIM_000.jpg	99
3137.582	0.615	615.0	repeat	Run4	repeat/STIM_000.jpg	99
3141.662	0.682	681.9	repeat	Run4	repeat/STIM_000.jpg	99
3146.033	0.859	859.2	repeat	Run4	repeat/STIM_000.jpg	99
3150.775	0.627	626.9	repeat	Run4	repeat/STIM_000.jpg	99
3153.815	0.622	622.4	repeat	Run4	repeat/STIM_001.jpg	99
3158.013	0.506	506.0	repeat	Run4	repeat/STIM_001.jpg	99
3161.712	0.726	725.7	repeat	Run4	repeat/STIM_001.jpg	99
3164.557	0.86	859.9	repeat	Run4	repeat/STIM_001.jpg	99
3168.24	0.559	559.4	repeat	Run4	repeat/STIM_001.jpg	100
3171.719	0.881	880.6	repeat	Run4	repeat/STIM_002.jpg	99
3175.604	0.47	469.7	repeat	Run4	repeat/STIM_002.jpg	100
3180.103	0.777	776.8	repeat	Run4	repeat/STIM_002.jpg	99
3183.926	0.749	748.9	repeat	Run4	repeat/STIM_002.jpg	100
3188.108	0.496	496.2	repeat	Run4	repeat/STIM_002.jpg	100
3192.362	0.582	581.5	repeat	Run4	repeat/STIM_003.jpg	99
3196.929	0.578	577.8	repeat	Run4	repeat/STIM_003.jpg	100
3200.531	0.531	530.7	repeat	Run4	repeat/STIM_003.jpg	99
3203.267	0.863	863.1	repeat	Run4	repeat/STIM_003.jpg	99
3206.509	0.671	671.3	repeat	Run4	repeat/STIM_003.jpg	100
3210.017	0.825	824.9	repeat	Run4	repeat/STIM_004.jpg	100
3212.987	0.613	613.3	repeat	Run4	repeat/STIM_004.jpg	99
3216.15	0.623	623.2	repeat	Run4	repeat/STIM_004.jpg	99
3219.034	0.732	731.7	repeat	Run4	repeat/STIM_004.jpg	99
3222.622	0.454	454.2	repeat	Run4	repeat/STIM_004.jpg	100
3226.431	0.633	633.4	repeat	Run4	repeat/STIM_005.jpg	99
3230.67	0.712	712.3	repeat	Run4	repeat/STIM_005.jpg	99
3233.599	0.853	853.1	repeat	Run4	repeat/STIM_005.jpg	100
3236.836	0.75	749.9	repeat	Run4	repeat/STIM_005.jpg	100
3240.414	0.808	807.8	repeat	Run4	repeat/STIM_005.jpg	100
3245.052	0.515	515.4	repeat	Run4	repeat/STIM_006.jpg	99
3247.876	0.769	769.1	repeat	Run4	repeat/STIM_006.jpg	99
3250.839	0.471	471.0	repeat	Run4	repeat/STIM_006.jpg	100
3253.784	0.854	853.6	repeat	Run4	repeat/STIM_006.jpg	99
3258.357	0.676	675.8	repeat	Run4	repeat/STIM_006.jpg	99
3262.12	0.565	564.9	repeat	Run4	repeat/STIM_007.jpg	99
3265.49	0.494	494.3	repeat	Run4	repeat/STIM_007.jpg	99
3268.468	0.8	799.9	repeat	Run4	repeat/STIM_007.jpg	100
3272.193	0.83	830.5	repeat	Run4	repeat/STIM_007.jpg	99
3276.506	0.853	852.8	repeat	Run4	repeat/STIM_007.jpg	99
3281.004	0.651	651.0	repeat	Run4	repeat/STIM_008.jpg	99
3284.245	0.87	870.2	repeat	Run4	repeat/STIM_008.jpg	99
3287.39	0.452	451.9	repeat	Run4	repeat/STIM_008.jpg	99
3291.156	0.493	492.9	repeat	Run4	repeat/STIM_008.jpg	99
3295.428	0.673	673.3	repeat	Run4	repeat/STIM_008.jpg	99
3299.706	0.73	729.6	repeat	Run4	repeat/STIM_009.jpg	99
3303.332	0.85	849.5	repeat	Run4	repeat/STIM_009.jpg	100
3306.896	0.726	725.5	repeat	Run4	repeat/STIM_009.jpg	99
3311.503	0.726	725.5	repeat	Run4	repeat/STIM_009.jpg	99
3315.191	0.522	521.5	repeat	Run4	repeat/STIM_009.jpg	100
3317.995	0.73	729.5	repeat	Run4	repeat/STIM_010.jpg	99
3321.78	0.573	572.7	repeat	Run4	repeat/STIM_010.jpg	100
3325.197	0.726	726.3	repeat	Run4	repeat/STIM_010.jpg	99
3329.924	0.714	713.9	repeat	Run4	repeat/STIM_010.jpg	100
3334.27	0.533	532.7	repeat	Run4	repeat/STIM_010.jpg	100
3337.81	0.722	721.7	repeat	Run4	repeat/STIM_011.jpg	99
3340.759	0.752	752.5	repeat	Run4	repeat/STIM_011.jpg	100
3344.303	0.838	837.5	repeat	Run4	repeat/STIM_011.jpg	99
3347.963	0.873	873.1	repeat	Run4	repeat/STIM_011.jpg	100
3351.334	0.751	750.6	repeat	Run4	repeat/STIM_011.jpg	99
3355.903	0.58	580.4	repeat	Run4	repeat/STIM_012.jpg	100
3358.75	0.667	666.9	repeat	Run4	repeat/STIM_012.jpg	100
3363.191	0.704	703.7	repeat	Run4	repeat/STIM_012.jpg	100
3366.726	0.817	816.7	repeat	Run4	repeat/STIM_012.jpg	100
3370.608	0.78	780.5	repeat	Run4	repeat/STIM_012.jpg	100
3374.616	0.474	474.3	repeat	Run4	repeat/STIM_013.jpg	100
3378.014	0.586	586.5	repeat	Run4	repeat/STIM_013.jpg	100
3382.251	0.546	545.8	repeat	Run4	repeat/STIM_013.jpg	100
3385.645	0.691	691.1	repeat	Run4	repeat/STIM_013.jpg	100
3389.375	0.868	867.9	repeat	Run4	repeat/STIM_013.jpg	100
3394.253	0.534	533.9	repeat	Run4	repeat/STIM_014.jpg	100
3398.294	0.539	539.0	repeat	Run4	repeat/STIM_014.jpg	99
3402.81	0.735	735.3	repeat	Run4	repeat/STIM_014.jpg	99
3406.647	0.528	528.4	repeat	Run4	repeat/STIM_014.jpg	99
3410.12	0.555	555.3	repeat	Run4	repeat/STIM_014.jpg	100
