onset	duration	accuracy	trial_type	learning_stage	stimulus
0.0	2.208	correct	generate	Run1	generate/STIM_000.jpg
5.586	1.425	correct	generate	Run1	generate/STIM_000.jpg
9.152	1.765	incorrect	generate	Run1	generate/STIM_000.jpg
14.424	2.176	correct	generate	Run1	generate/STIM_000.jpg
18.801	1.567	incorrect	generate	Run1	generate/STIM_000.jpg
22.485	3.07	correct	generate	Run1	generate/STIM_001.jpg
28.545	1.185	incorrect	generate	Run1	generate/STIM_001.jpg
31.778	1.201	correct	generate	Run1	generate/STIM_001.jpg
35.86	2.595	correct	generate	Run1	generate/STIM_001.jpg
41.033	1.249	incorrect	generate	Run1	generate/STIM_001.jpg
45.15	2.733	correct	generate	Run1	generate/STIM_002.jpg
51.446	2.25	incorrect	generate	Run1	generate/STIM_002.jpg
57.39	1.601	correct	generate	Run1	generate/STIM_002.jpg
62.428	1.718	incorrect	generate	Run1	generate/STIM_002.jpg
67.384	1.885	correct	generate	Run1	generate/STIM_002.jpg
71.872	1.299	correct	generate	Run1	generate/STIM_003.jpg
75.573	2.53	correct	generate	Run1	generate/STIM_003.jpg
81.739	1.215	correct	generate	Run1	generate/STIM_003.jpg
85.353	1.838	incorrect	generate	Run1	generate/STIM_003.jpg
90.314	1.78	incorrect	generate	Run1	generate/STIM_003.jpg
94.227	1.945	incorrect	generate	Run1	generate/STIM_004.jpg
99.026	1.449	correct	generate	Run1	generate/STIM_004.jpg
103.878	2.276	correct	generate	Run1	generate/STIM_004.jpg
109.734	2.634	correct	generate	Run1	generate/STIM_004.jpg
115.042	1.87	correct	generate	Run1	generate/STIM_004.jpg
119.587	1.537	correct	generate	Run1	generate/STIM_005.jpg
124.366	1.234	correct	generate	Run1	generate/STIM_005.jpg
128.573	2.263	incorrect	generate	Run1	generate/STIM_005.jpg
134.672	2.472	correct	generate	Run1	generate/STIM_005.jpg
140.649	1.321	correct	generate	Run1	generate/STIM_005.jpg
144.446	2.192	correct	generate	Run1	generate/STIM_006.jpg
149.336	1.76	incorrect	generate	Run1	generate/STIM_006.jpg
154.193	1.392	incorrect	generate	Run1	generate/STIM_006.jpg
157.861	2.607	correct	generate	Run1	generate/STIM_006.jpg
163.178	1.948	incorrect	generate	Run1	generate/STIM_006.jpg
168.17	2.227	incorrect	generate	Run1	generate/STIM_007.jpg
172.426	1.361	correct	generate	Run1	generate/STIM_007.jpg
176.64	2.507	incorrect	generate	Run1	generate/STIM_007.jpg
182.492	1.923	correct	generate	Run1	generate/STIM_007.jpg
186.919	2.211	incorrect	generate	Run1	generate/STIM_007.jpg
191.356	2.687	correct	generate	Run1	generate/STIM_008.jpg
197.03	2.291	correct	generate	Run1	generate/STIM_008.jpg
202.308	1.903	incorrect	generate	Run1	generate/STIM_008.jpg
207.943	2.573	correct	generate	Run1	generate/STIM_008.jpg
212.993	2.268	correct	generate	Run1	generate/STIM_008.jpg
219.248	1.623	incorrect	generate	Run1	generate/STIM_009.jpg
224.855	2.744	correct	generate	Run1	generate/STIM_009.jpg
230.593	2.698	incorrect	generate	Run1	generate/STIM_009.jpg
236.677	1.111	correct	generate	Run1	generate/STIM_009.jpg
240.874	1.16	incorrect	generate	Run1	generate/STIM_009.jpg
244.182	1.679	incorrect	generate	Run1	generate/STIM_010.jpg
248.043	2.017	correct	generate	Run1	generate/STIM_010.jpg
252.125	2.448	correct	generate	Run1	generate/STIM_010.jpg
256.765	1.415	correct	generate	Run1	generate/STIM_010.jpg
260.922	2.127	correct	generate	Run1	generate/STIM_010.jpg
265.475	2.097	incorrect	generate	Run1	generate/STIM_011.jpg
271.409	2.487	correct	generate	Run1	generate/STIM_011.jpg
277.633	1.279	correct	generate	Run1	generate/STIM_011.jpg
281.962	1.179	incorrect	generate	Run1	generate/STIM_011.jpg
286.735	2.32	correct	generate	Run1	generate/STIM_011.jpg
291.423	2.401	correct	generate	Run1	generate/STIM_012.jpg
296.905	1.353	incorrect	generate	Run1	generate/STIM_012.jpg
300.99	2.493	correct	generate	Run1	generate/STIM_012.jpg
305.529	1.289	correct	generate	Run1	generate/STIM_012.jpg
309.057	1.762	correct	generate	Run1	generate/STIM_012.jpg
314.463	2.038	correct	generate	Run1	generate/STIM_013.jpg
319.056	2.412	incorrect	generate	Run1	generate/STIM_013.jpg
324.971	1.195	correct	generate	Run1	generate/STIM_013.jpg
329.114	2.546	incorrect	generate	Run1	generate/STIM_013.jpg
333.752	1.21	incorrect	generate	Run1	generate/STIM_013.jpg
337.037	2.421	correct	generate	Run1	generate/STIM_014.jpg
343.176	2.168	correct	generate	Run1	generate/STIM_014.jpg
348.24	2.004	incorrect	generate	Run1	generate/STIM_014.jpg
354.022	2.222	incorrect	generate	Run1	generate/STIM_014.jpg
359.557	2.342	correct	generate	Run1	generate/STIM_014.jpg
364.794	2.974	incorrect	generate	Run1	generate/STIM_015.jpg
370.674	1.724	incorrect	generate	Run1	generate/STIM_015.jpg
376.171	1.555	correct	generate	Run1	generate/STIM_015.jpg
380.937	2.036	incorrect	generate	Run1	generate/STIM_015.jpg
386.622	1.822	correct	generate	Run1	generate/STIM_015.jpg
392.404	2.17	correct	generate	Run1	generate/STIM_016.jpg
397.836	1.877	incorrect	generate	Run1	generate/STIM_016.jpg
402.659	1.253	correct	generate	Run1	generate/STIM_016.jpg
407.684	2.443	correct	generate	Run1	generate/STIM_016.jpg
413.333	1.19	correct	generate	Run1	generate/STIM_016.jpg
416.809	3.064	correct	generate	Run1	generate/STIM_017.jpg
422.607	1.397	correct	generate	Run1	generate/STIM_017.jpg
427.888	2.371	correct	generate	Run1	generate/STIM_017.jpg
432.447	2.576	correct	generate	Run1	generate/STIM_017.jpg
438.574	2.145	incorrect	generate	Run1	generate/STIM_017.jpg
443.011	2.968	incorrect	generate	Run1	generate/STIM_018.jpg
449.355	1.883	incorrect	generate	Run1	generate/STIM_018.jpg
453.423	2.394	incorrect	generate	Run1	generate/STIM_018.jpg
458.64	1.683	incorrect	generate	Run1	generate/STIM_018.jpg
464.077	2.116	incorrect	generate	Run1	generate/STIM_018.jpg
470.104	2.764	incorrect	generate	Run1	generate/STIM_019.jpg
476.43	2.15	correct	generate	Run1	generate/STIM_019.jpg
481.779	2.338	correct	generate	Run1	generate/STIM_019.jpg
487.917	1.248	incorrect	generate	Run1	generate/STIM_019.jpg
492.875	2.103	incorrect	generate	Run1	generate/STIM_019.jpg
496.989	2.937	correct	generate	Run1	generate/STIM_020.jpg
502.664	2.624	incorrect	generate	Run1	generate/STIM_020.jpg
507.389	2.156	correct	generate	Run1	generate/STIM_020.jpg
512.443	2.45	correct	generate	Run1	generate/STIM_020.jpg
518.477	1.654	correct	generate	Run1	generate/STIM_020.jpg
523.345	2.884	incorrect	generate	Run1	generate/STIM_021.jpg
529.732	2.477	correct	generate	Run1	generate/STIM_021.jpg
535.512	2.373	correct	generate	Run1	generate/STIM_021.jpg
540.815	2.573	incorrect	generate	Run1	generate/STIM_021.jpg
547.263	2.081	incorrect	generate	Run1	generate/STIM_021.jpg
552.099	2.281	correct	generate	Run1	generate/STIM_022.jpg
556.97	1.288	correct	generate	Run1	generate/STIM_022.jpg
561.92	1.449	correct	generate	Run1	generate/STIM_022.jpg
565.94	2.55	incorrect	generate	Run1	generate/STIM_022.jpg
571.193	1.756	correct	generate	Run1	generate/STIM_022.jpg
576.576	1.886	incorrect	generate	Run1	generate/STIM_023.jpg
582.431	1.437	correct	generate	Run1	generate/STIM_023.jpg
587.483	1.821	correct	generate	Run1	generate/STIM_023.jpg
591.99	2.368	correct	generate	Run1	generate/STIM_023.jpg
597.375	1.009	correct	generate	Run1	generate/STIM_023.jpg
601.991	1.581	incorrect	generate	Run1	generate/STIM_024.jpg
607.246	2.188	correct	generate	Run1	generate/STIM_024.jpg
611.684	2.795	incorrect	generate	Run1	generate/STIM_024.jpg
616.963	2.275	incorrect	generate	Run1	generate/STIM_024.jpg
621.767	2.176	correct	generate	Run1	generate/STIM_024.jpg
627.45	0.923	incorrect	repeat	Run1	repeat/STIM_000.jpg
630.386	0.836	correct	repeat	Run1	repeat/STIM_000.jpg
634.974	0.545	correct	repeat	Run1	repeat/STIM_000.jpg
638.208	0.901	correct	repeat	Run1	repeat/STIM_000.jpg
641.956	0.608	incorrect	repeat	Run1	repeat/STIM_000.jpg
646.267	0.581	correct	repeat	Run1	repeat/STIM_001.jpg
650.839	0.65	correct	repeat	Run1	repeat/STIM_001.jpg
654.448	0.936	correct	repeat	Run1	repeat/STIM_001.jpg
657.63	0.958	correct	repeat	Run1	repeat/STIM_001.jpg
661.245	0.634	correct	repeat	Run1	repeat/STIM_001.jpg
665.533	0.923	correct	repeat	Run1	repeat/STIM_002.jpg
669.037	0.619	correct	repeat	Run1	repeat/STIM_002.jpg
672.746	0.814	correct	repeat	Run1	repeat/STIM_002.jpg
677.203	0.696	correct	repeat	Run1	repeat/STIM_002.jpg
681.141	0.685	correct	repeat	Run1	repeat/STIM_002.jpg
685.108	0.815	correct	repeat	Run1	repeat/STIM_003.jpg
688.076	0.873	correct	repeat	Run1	repeat/STIM_003.jpg
692.881	0.976	incorrect	repeat	Run1	repeat/STIM_003.jpg
697.797	0.567	correct	repeat	Run1	repeat/STIM_003.jpg
700.515	0.573	correct	repeat	Run1	repeat/STIM_003.jpg
704.109	0.687	incorrect	repeat	Run1	repeat/STIM_004.jpg
708.285	0.818	correct	repeat	Run1	repeat/STIM_004.jpg
711.26	0.839	correct	repeat	Run1	repeat/STIM_004.jpg
715.059	0.756	correct	repeat	Run1	repeat/STIM_004.jpg
719.396	0.937	incorrect	repeat	Run1	repeat/STIM_004.jpg
723.832	0.665	correct	repeat	Run1	repeat/STIM_005.jpg
726.646	0.567	incorrect	repeat	Run1	repeat/STIM_005.jpg
731.195	0.701	correct	repeat	Run1	repeat/STIM_005.jpg
735.0	0.923	correct	repeat	Run1	repeat/STIM_005.jpg
739.74	0.788	correct	repeat	Run1	repeat/STIM_005.jpg
742.598	0.99	correct	repeat	Run1	repeat/STIM_006.jpg
745.849	0.984	correct	repeat	Run1	repeat/STIM_006.jpg
750.047	0.802	incorrect	repeat	Run1	repeat/STIM_006.jpg
754.337	0.689	correct	repeat	Run1	repeat/STIM_006.jpg
757.201	0.668	correct	repeat	Run1	repeat/STIM_006.jpg
761.34	0.984	correct	repeat	Run1	repeat/STIM_007.jpg
765.144	0.976	correct	repeat	Run1	repeat/STIM_007.jpg
769.075	0.73	correct	repeat	Run1	repeat/STIM_007.jpg
773.207	0.807	correct	repeat	Run1	repeat/STIM_007.jpg
776.285	0.938	correct	repeat	Run1	repeat/STIM_007.jpg
779.409	0.825	incorrect	repeat	Run1	repeat/STIM_008.jpg
783.688	1.027	correct	repeat	Run1	repeat/STIM_008.jpg
788.0	0.941	correct	repeat	Run1	repeat/STIM_008.jpg
791.329	0.804	correct	repeat	Run1	repeat/STIM_008.jpg
794.976	0.722	incorrect	repeat	Run1	repeat/STIM_008.jpg
799.402	0.999	correct	repeat	Run1	repeat/STIM_009.jpg
803.021	0.913	correct	repeat	Run1	repeat/STIM_009.jpg
807.796	0.68	correct	repeat	Run1	repeat/STIM_009.jpg
812.134	0.673	correct	repeat	Run1	repeat/STIM_009.jpg
815.843	0.62	correct	repeat	Run1	repeat/STIM_009.jpg
819.648	0.74	correct	repeat	Run1	repeat/STIM_010.jpg
822.476	0.76	correct	repeat	Run1	repeat/STIM_010.jpg
825.236	0.613	correct	repeat	Run1	repeat/STIM_010.jpg
828.893	0.595	correct	repeat	Run1	repeat/STIM_010.jpg
832.268	0.61	incorrect	repeat	Run1	repeat/STIM_010.jpg
835.862	0.851	incorrect	repeat	Run1	repeat/STIM_011.jpg
840.214	0.532	incorrect	repeat	Run1	repeat/STIM_011.jpg
843.602	1.003	correct	repeat	Run1	repeat/STIM_011.jpg
848.356	0.855	incorrect	repeat	Run1	repeat/STIM_011.jpg
853.035	1.002	incorrect	repeat	Run1	repeat/STIM_011.jpg
856.742	0.566	correct	repeat	Run1	repeat/STIM_012.jpg
860.167	0.591	correct	repeat	Run1	repeat/STIM_012.jpg
863.275	0.897	incorrect	repeat	Run1	repeat/STIM_012.jpg
867.999	0.814	correct	repeat	Run1	repeat/STIM_012.jpg
870.976	0.865	correct	repeat	Run1	repeat/STIM_012.jpg
875.194	0.684	correct	repeat	Run1	repeat/STIM_013.jpg
878.307	0.967	correct	repeat	Run1	repeat/STIM_013.jpg
881.721	0.534	correct	repeat	Run1	repeat/STIM_013.jpg
884.695	0.776	incorrect	repeat	Run1	repeat/STIM_013.jpg
888.799	0.702	incorrect	repeat	Run1	repeat/STIM_013.jpg
893.16	0.683	incorrect	repeat	Run1	repeat/STIM_014.jpg
896.609	0.656	incorrect	repeat	Run1	repeat/STIM_014.jpg
899.287	0.948	correct	repeat	Run1	repeat/STIM_014.jpg
902.779	0.576	correct	repeat	Run1	repeat/STIM_014.jpg
905.446	0.746	correct	repeat	Run1	repeat/STIM_014.jpg
909.628	1.27	incorrect	generate	Run2	generate/STIM_000.jpg
914.475	1.214	correct	generate	Run2	generate/STIM_000.jpg
918.062	2.234	incorrect	generate	Run2	generate/STIM_000.jpg
922.515	2.166	incorrect	generate	Run2	generate/STIM_000.jpg
928.101	1.244	incorrect	generate	Run2	generate/STIM_000.jpg
932.267	1.572	correct	generate	Run2	generate/STIM_001.jpg
937.831	1.107	incorrect	generate	Run2	generate/STIM_001.jpg
941.959	1.958	correct	generate	Run2	generate/STIM_001.jpg
947.666	1.903	incorrect	generate	Run2	generate/STIM_001.jpg
952.789	1.326	correct	generate	Run2	generate/STIM_001.jpg
956.553	2.221	correct	generate	Run2	generate/STIM_002.jpg
961.034	2.3	correct	generate	Run2	generate/STIM_002.jpg
966.923	1.695	incorrect	generate	Run2	generate/STIM_002.jpg
971.721	1.446	correct	generate	Run2	generate/STIM_002.jpg
977.128	1.161	correct	generate	Run2	generate/STIM_002.jpg
980.849	1.091	correct	generate	Run2	generate/STIM_003.jpg
985.427	1.179	incorrect	generate	Run2	generate/STIM_003.jpg
988.932	1.832	correct	generate	Run2	generate/STIM_003.jpg
993.734	1.142	correct	generate	Run2	generate/STIM_003.jpg
998.02	1.385	incorrect	generate	Run2	generate/STIM_003.jpg
1003.12	1.114	correct	generate	Run2	generate/STIM_004.jpg
1007.771	1.002	correct	generate	Run2	generate/STIM_004.jpg
1012.149	1.567	correct	generate	Run2	generate/STIM_004.jpg
1016.271	1.196	correct	generate	Run2	generate/STIM_004.jpg
1020.095	0.884	incorrect	generate	Run2	generate/STIM_004.jpg
1023.458	1.478	correct	generate	Run2	generate/STIM_005.jpg
1027.072	1.058	correct	generate	Run2	generate/STIM_005.jpg
1030.894	2.044	correct	generate	Run2	generate/STIM_005.jpg
1035.869	1.146	correct	generate	Run2	generate/STIM_005.jpg
1040.549	1.014	correct	generate	Run2	generate/STIM_005.jpg
1045.384	1.377	incorrect	generate	Run2	generate/STIM_006.jpg
1049.734	1.501	correct	generate	Run2	generate/STIM_006.jpg
1054.911	1.27	correct	generate	Run2	generate/STIM_006.jpg
1058.233	1.674	incorrect	generate	Run2	generate/STIM_006.jpg
1062.883	1.185	correct	generate	Run2	generate/STIM_006.jpg
1067.3	2.374	incorrect	generate	Run2	generate/STIM_007.jpg
1073.366	2.172	correct	generate	Run2	generate/STIM_007.jpg
1077.854	1.193	incorrect	generate	Run2	generate/STIM_007.jpg
1082.176	1.709	correct	generate	Run2	generate/STIM_007.jpg
1087.304	1.619	correct	generate	Run2	generate/STIM_007.jpg
1091.475	2.523	correct	generate	Run2	generate/STIM_008.jpg
1096.395	1.544	correct	generate	Run2	generate/STIM_008.jpg
1101.222	1.711	correct	generate	Run2	generate/STIM_008.jpg
1106.705	1.328	correct	generate	Run2	generate/STIM_008.jpg
1110.937	2.147	incorrect	generate	Run2	generate/STIM_008.jpg
1117.023	2.332	correct	generate	Run2	generate/STIM_009.jpg
1122.618	2.04	incorrect	generate	Run2	generate/STIM_009.jpg
1126.823	1.801	incorrect	generate	Run2	generate/STIM_009.jpg
1131.347	0.975	correct	generate	Run2	generate/STIM_009.jpg
1134.922	1.387	correct	generate	Run2	generate/STIM_009.jpg
1140.272	1.129	correct	generate	Run2	generate/STIM_010.jpg
1144.05	2.13	correct	generate	Run2	generate/STIM_010.jpg
1148.39	1.411	correct	generate	Run2	generate/STIM_010.jpg
1152.3	1.806	correct	generate	Run2	generate/STIM_010.jpg
1156.17	0.932	correct	generate	Run2	generate/STIM_010.jpg
1159.642	1.136	incorrect	generate	Run2	generate/STIM_011.jpg
1162.974	2.304	correct	generate	Run2	generate/STIM_011.jpg
1168.371	1.007	correct	generate	Run2	generate/STIM_011.jpg
1171.5	1.136	correct	generate	Run2	generate/STIM_011.jpg
1176.586	1.142	correct	generate	Run2	generate/STIM_011.jpg
1180.503	1.841	correct	generate	Run2	generate/STIM_012.jpg
1186.035	1.645	correct	generate	Run2	generate/STIM_012.jpg
1190.087	2.239	correct	generate	Run2	generate/STIM_012.jpg
1194.613	1.37	correct	generate	Run2	generate/STIM_012.jpg
1198.659	1.886	correct	generate	Run2	generate/STIM_012.jpg
1202.696	1.297	incorrect	generate	Run2	generate/STIM_013.jpg
1206.281	2.142	correct	generate	Run2	generate/STIM_013.jpg
1212.254	2.26	correct	generate	Run2	generate/STIM_013.jpg
1217.623	1.794	correct	generate	Run2	generate/STIM_013.jpg
1221.502	1.557	correct	generate	Run2	generate/STIM_013.jpg
1225.779	1.599	incorrect	generate	Run2	generate/STIM_014.jpg
1229.812	2.189	correct	generate	Run2	generate/STIM_014.jpg
1235.946	1.252	correct	generate	Run2	generate/STIM_014.jpg
1240.002	1.512	correct	generate	Run2	generate/STIM_014.jpg
1244.581	1.468	correct	generate	Run2	generate/STIM_014.jpg
1249.819	1.238	incorrect	generate	Run2	generate/STIM_015.jpg
1253.154	1.255	incorrect	generate	Run2	generate/STIM_015.jpg
1256.52	1.124	correct	generate	Run2	generate/STIM_015.jpg
1260.268	1.31	correct	generate	Run2	generate/STIM_015.jpg
1265.298	1.693	correct	generate	Run2	generate/STIM_015.jpg
1269.103	1.896	incorrect	generate	Run2	generate/STIM_016.jpg
1273.49	2.016	incorrect	generate	Run2	generate/STIM_016.jpg
1277.745	1.187	correct	generate	Run2	generate/STIM_016.jpg
1281.514	1.541	correct	generate	Run2	generate/STIM_016.jpg
1285.511	1.585	correct	generate	Run2	generate/STIM_016.jpg
1291.014	2.454	correct	generate	Run2	generate/STIM_017.jpg
1296.712	1.348	correct	generate	Run2	generate/STIM_017.jpg
1301.62	1.138	incorrect	generate	Run2	generate/STIM_017.jpg
1306.617	1.031	correct	generate	Run2	generate/STIM_017.jpg
1309.957	1.098	correct	generate	Run2	generate/STIM_017.jpg
1314.031	2.069	correct	generate	Run2	generate/STIM_018.jpg
1320.02	2.114	correct	generate	Run2	generate/STIM_018.jpg
1326.051	0.947	incorrect	generate	Run2	generate/STIM_018.jpg
1329.55	1.082	correct	generate	Run2	generate/STIM_018.jpg
1333.885	1.804	correct	generate	Run2	generate/STIM_018.jpg
1338.743	1.937	correct	generate	Run2	generate/STIM_019.jpg
1343.068	2.211	incorrect	generate	Run2	generate/STIM_019.jpg
1347.632	1.612	incorrect	generate	Run2	generate/STIM_019.jpg
1351.796	1.696	incorrect	generate	Run2	generate/STIM_019.jpg
1356.785	1.264	correct	generate	Run2	generate/STIM_019.jpg
1360.213	1.628	correct	generate	Run2	generate/STIM_020.jpg
1365.717	1.68	correct	generate	Run2	generate/STIM_020.jpg
1369.414	1.81	correct	generate	Run2	generate/STIM_020.jpg
1375.013	1.485	correct	generate	Run2	generate/STIM_020.jpg
1379.501	1.451	correct	generate	Run2	generate/STIM_020.jpg
1384.222	1.287	correct	generate	Run2	generate/STIM_021.jpg
1388.813	2.123	correct	generate	Run2	generate/STIM_021.jpg
1394.051	1.418	correct	generate	Run2	generate/STIM_021.jpg
1397.867	0.979	correct	generate	Run2	generate/STIM_021.jpg
1401.764	1.161	correct	generate	Run2	generate/STIM_021.jpg
1406.144	1.448	correct	generate	Run2	generate/STIM_022.jpg
1411.109	1.274	correct	generate	Run2	generate/STIM_022.jpg
1414.453	1.402	correct	generate	Run2	generate/STIM_022.jpg
1418.729	1.573	correct	generate	Run2	generate/STIM_022.jpg
1423.326	1.773	correct	generate	Run2	generate/STIM_022.jpg
1427.801	1.824	correct	generate	Run2	generate/STIM_023.jpg
1433.45	1.632	correct	generate	Run2	generate/STIM_023.jpg
1437.828	2.319	correct	generate	Run2	generate/STIM_023.jpg
1443.739	2.053	incorrect	generate	Run2	generate/STIM_023.jpg
1448.349	1.631	correct	generate	Run2	generate/STIM_023.jpg
1452.441	2.561	correct	generate	Run2	generate/STIM_024.jpg
1458.671	2.441	incorrect	generate	Run2	generate/STIM_024.jpg
1463.199	1.526	correct	generate	Run2	generate/STIM_024.jpg
1468.61	1.924	incorrect	generate	Run2	generate/STIM_024.jpg
1473.737	1.592	correct	generate	Run2	generate/STIM_024.jpg
1477.777	0.863	correct	repeat	Run2	repeat/STIM_000.jpg
1482.3	0.862	incorrect	repeat	Run2	repeat/STIM_000.jpg
1485.344	0.89	correct	repeat	Run2	repeat/STIM_000.jpg
1488.863	0.741	correct	repeat	Run2	repeat/STIM_000.jpg
1492.522	0.581	correct	repeat	Run2	repeat/STIM_000.jpg
1496.118	0.823	correct	repeat	Run2	repeat/STIM_001.jpg
1499.186	0.716	correct	repeat	Run2	repeat/STIM_001.jpg
1503.85	1.035	correct	repeat	Run2	repeat/STIM_001.jpg
1507.71	0.536	correct	repeat	Run2	repeat/STIM_001.jpg
1510.785	0.681	incorrect	repeat	Run2	repeat/STIM_001.jpg
1513.918	0.78	correct	repeat	Run2	repeat/STIM_002.jpg
1517.289	0.749	correct	repeat	Run2	repeat/STIM_002.jpg
1521.341	0.948	correct	repeat	Run2	repeat/STIM_002.jpg
1525.556	0.696	correct	repeat	Run2	repeat/STIM_002.jpg
1528.356	0.701	correct	repeat	Run2	repeat/STIM_002.jpg
1532.652	0.96	incorrect	repeat	Run2	repeat/STIM_003.jpg
1536.886	0.601	correct	repeat	Run2	repeat/STIM_003.jpg
1540.777	0.836	incorrect	repeat	Run2	repeat/STIM_003.jpg
1544.897	0.52	correct	repeat	Run2	repeat/STIM_003.jpg
1548.347	0.557	correct	repeat	Run2	repeat/STIM_003.jpg
1552.58	0.87	correct	repeat	Run2	repeat/STIM_004.jpg
1556.206	0.576	correct	repeat	Run2	repeat/STIM_004.jpg
1560.407	0.565	correct	repeat	Run2	repeat/STIM_004.jpg
1564.351	0.659	correct	repeat	Run2	repeat/STIM_004.jpg
1568.404	1.007	correct	repeat	Run2	repeat/STIM_004.jpg
1572.025	0.628	correct	repeat	Run2	repeat/STIM_005.jpg
1576.24	0.561	incorrect	repeat	Run2	repeat/STIM_005.jpg
1579.332	0.947	correct	repeat	Run2	repeat/STIM_005.jpg
1584.046	0.816	correct	repeat	Run2	repeat/STIM_005.jpg
1588.016	0.911	correct	repeat	Run2	repeat/STIM_005.jpg
1591.024	0.724	correct	repeat	Run2	repeat/STIM_006.jpg
1595.232	0.816	correct	repeat	Run2	repeat/STIM_006.jpg
1598.956	1.009	correct	repeat	Run2	repeat/STIM_006.jpg
1602.994	0.748	correct	repeat	Run2	repeat/STIM_006.jpg
1606.837	0.557	correct	repeat	Run2	repeat/STIM_006.jpg
1610.52	1.01	correct	repeat	Run2	repeat/STIM_007.jpg
1613.648	0.982	correct	repeat	Run2	repeat/STIM_007.jpg
1617.314	0.551	correct	repeat	Run2	repeat/STIM_007.jpg
1621.358	1.002	correct	repeat	Run2	repeat/STIM_007.jpg
1625.471	0.725	correct	repeat	Run2	repeat/STIM_007.jpg
1629.398	0.865	correct	repeat	Run2	repeat/STIM_008.jpg
1634.097	0.676	correct	repeat	Run2	repeat/STIM_008.jpg
1636.94	0.569	correct	repeat	Run2	repeat/STIM_008.jpg
1639.574	0.665	correct	repeat	Run2	repeat/STIM_008.jpg
1642.766	0.943	correct	repeat	Run2	repeat/STIM_008.jpg
1647.023	0.85	correct	repeat	Run2	repeat/STIM_009.jpg
1651.102	0.982	correct	repeat	Run2	repeat/STIM_009.jpg
1654.668	0.77	correct	repeat	Run2	repeat/STIM_009.jpg
1658.09	0.681	correct	repeat	Run2	repeat/STIM_009.jpg
1662.478	0.701	incorrect	repeat	Run2	repeat/STIM_009.jpg
1666.812	0.869	incorrect	repeat	Run2	repeat/STIM_010.jpg
1671.515	1.002	correct	repeat	Run2	repeat/STIM_010.jpg
1676.389	0.703	correct	repeat	Run2	repeat/STIM_010.jpg
1680.205	0.594	correct	repeat	Run2	repeat/STIM_010.jpg
1682.84	0.925	correct	repeat	Run2	repeat/STIM_010.jpg
1685.906	0.787	incorrect	repeat	Run2	repeat/STIM_011.jpg
1689.67	1.026	correct	repeat	Run2	repeat/STIM_011.jpg
1693.063	0.551	correct	repeat	Run2	repeat/STIM_011.jpg
1695.884	0.562	correct	repeat	Run2	repeat/STIM_011.jpg
1699.11	0.68	correct	repeat	Run2	repeat/STIM_011.jpg
1702.009	0.895	correct	repeat	Run2	repeat/STIM_012.jpg
1705.245	0.574	correct	repeat	Run2	repeat/STIM_012.jpg
1707.863	0.636	correct	repeat	Run2	repeat/STIM_012.jpg
1710.501	0.898	incorrect	repeat	Run2	repeat/STIM_012.jpg
1714.813	0.723	incorrect	repeat	Run2	repeat/STIM_012.jpg
1719.088	0.912	correct	repeat	Run2	repeat/STIM_013.jpg
1722.95	0.849	correct	repeat	Run2	repeat/STIM_013.jpg
1726.687	0.681	correct	repeat	Run2	repeat/STIM_013.jpg
1729.727	0.857	correct	repeat	Run2	repeat/STIM_013.jpg
1734.275	0.957	correct	repeat	Run2	repeat/STIM_013.jpg
1738.804	0.861	correct	repeat	Run2	repeat/STIM_014.jpg
1742.823	0.707	correct	repeat	Run2	repeat/STIM_014.jpg
1745.618	0.959	correct	repeat	Run2	repeat/STIM_014.jpg
1750.281	0.824	correct	repeat	Run2	repeat/STIM_014.jpg
1754.084	0.933	correct	repeat	Run2	repeat/STIM_014.jpg
1758.744	1.291	correct	generate	Run3	generate/STIM_000.jpg
1762.126	1.588	correct	generate	Run3	generate/STIM_000.jpg
1766.973	1.55	correct	generate	Run3	generate/STIM_000.jpg
1772.403	1.242	correct	generate	Run3	generate/STIM_000.jpg
1776.786	1.673	correct	generate	Run3	generate/STIM_000.jpg
1781.209	1.391	correct	generate	Run3	generate/STIM_001.jpg
1786.401	2.119	correct	generate	Run3	generate/STIM_001.jpg
1790.828	1.252	correct	generate	Run3	generate/STIM_001.jpg
1795.58	0.885	correct	generate	Run3	generate/STIM_001.jpg
1799.791	1.204	correct	generate	Run3	generate/STIM_001.jpg
1803.263	1.518	correct	generate	Run3	generate/STIM_002.jpg
1807.729	1.767	incorrect	generate	Run3	generate/STIM_002.jpg
1812.697	1.003	correct	generate	Run3	generate/STIM_002.jpg
1815.866	1.51	correct	generate	Run3	generate/STIM_002.jpg
1819.638	1.64	correct	generate	Run3	generate/STIM_002.jpg
1824.721	0.95	correct	generate	Run3	generate/STIM_003.jpg
1828.227	1.171	correct	generate	Run3	generate/STIM_003.jpg
1832.628	1.397	correct	generate	Run3	generate/STIM_003.jpg
1836.587	1.468	correct	generate	Run3	generate/STIM_003.jpg
1840.64	1.245	correct	generate	Run3	generate/STIM_003.jpg
1845.531	1.948	correct	generate	Run3	generate/STIM_004.jpg
1849.631	1.12	correct	generate	Run3	generate/STIM_004.jpg
1853.053	2.13	correct	generate	Run3	generate/STIM_004.jpg
1858.344	1.435	correct	generate	Run3	generate/STIM_004.jpg
1863.263	1.82	correct	generate	Run3	generate/STIM_004.jpg
1868.576	1.922	correct	generate	Run3	generate/STIM_005.jpg
1872.775	1.758	correct	generate	Run3	generate/STIM_005.jpg
1877.799	1.191	correct	generate	Run3	generate/STIM_005.jpg
1882.516	1.384	correct	generate	Run3	generate/STIM_005.jpg
1887.465	1.395	correct	generate	Run3	generate/STIM_005.jpg
1892.117	1.166	correct	generate	Run3	generate/STIM_006.jpg
1896.305	2.03	correct	generate	Run3	generate/STIM_006.jpg
1901.177	0.887	incorrect	generate	Run3	generate/STIM_006.jpg
1904.751	1.865	correct	generate	Run3	generate/STIM_006.jpg
1909.519	1.234	correct	generate	Run3	generate/STIM_006.jpg
1914.126	1.203	correct	generate	Run3	generate/STIM_007.jpg
1917.791	1.68	correct	generate	Run3	generate/STIM_007.jpg
1922.09	1.448	correct	generate	Run3	generate/STIM_007.jpg
1926.373	1.744	correct	generate	Run3	generate/STIM_007.jpg
1931.135	1.259	correct	generate	Run3	generate/STIM_007.jpg
1934.868	0.927	correct	generate	Run3	generate/STIM_008.jpg
1939.599	1.219	correct	generate	Run3	generate/STIM_008.jpg
1943.476	1.973	incorrect	generate	Run3	generate/STIM_008.jpg
1947.592	1.792	incorrect	generate	Run3	generate/STIM_008.jpg
1953.072	1.614	correct	generate	Run3	generate/STIM_008.jpg
1957.0	1.314	correct	generate	Run3	generate/STIM_009.jpg
1960.357	1.009	correct	generate	Run3	generate/STIM_009.jpg
1964.032	1.3	correct	generate	Run3	generate/STIM_009.jpg
1967.76	1.121	incorrect	generate	Run3	generate/STIM_009.jpg
1972.084	0.884	incorrect	generate	Run3	generate/STIM_009.jpg
1976.773	2.1	correct	generate	Run3	generate/STIM_010.jpg
1980.977	1.033	correct	generate	Run3	generate/STIM_010.jpg
1984.859	1.648	correct	generate	Run3	generate/STIM_010.jpg
1990.113	0.971	incorrect	generate	Run3	generate/STIM_010.jpg
1993.456	1.201	correct	generate	Run3	generate/STIM_010.jpg
1998.336	2.053	correct	generate	Run3	generate/STIM_011.jpg
2004.188	2.041	correct	generate	Run3	generate/STIM_011.jpg
2009.124	1.152	correct	generate	Run3	generate/STIM_011.jpg
2013.442	1.844	correct	generate	Run3	generate/STIM_011.jpg
2017.394	1.374	incorrect	generate	Run3	generate/STIM_011.jpg
2021.704	1.199	incorrect	generate	Run3	generate/STIM_012.jpg
2026.223	1.863	correct	generate	Run3	generate/STIM_012.jpg
2031.124	0.926	correct	generate	Run3	generate/STIM_012.jpg
2034.84	1.481	correct	generate	Run3	generate/STIM_012.jpg
2039.239	1.917	correct	generate	Run3	generate/STIM_012.jpg
2044.084	1.74	incorrect	generate	Run3	generate/STIM_013.jpg
2047.887	2.052	correct	generate	Run3	generate/STIM_013.jpg
2053.601	1.328	correct	generate	Run3	generate/STIM_013.jpg
2057.52	0.959	correct	generate	Run3	generate/STIM_013.jpg
2060.514	1.136	incorrect	generate	Run3	generate/STIM_013.jpg
2064.788	1.784	incorrect	generate	Run3	generate/STIM_014.jpg
2069.228	0.992	correct	generate	Run3	generate/STIM_014.jpg
2072.288	1.256	correct	generate	Run3	generate/STIM_014.jpg
2076.828	0.979	incorrect	generate	Run3	generate/STIM_014.jpg
2080.739	1.693	correct	generate	Run3	generate/STIM_014.jpg
2085.525	1.252	correct	generate	Run3	generate/STIM_015.jpg
2090.375	1.898	incorrect	generate	Run3	generate/STIM_015.jpg
2096.112	1.047	correct	generate	Run3	generate/STIM_015.jpg
2101.12	1.723	correct	generate	Run3	generate/STIM_015.jpg
2105.829	1.45	correct	generate	Run3	generate/STIM_015.jpg
2110.18	1.686	correct	generate	Run3	generate/STIM_016.jpg
2115.582	1.899	correct	generate	Run3	generate/STIM_016.jpg
2119.69	0.925	correct	generate	Run3	generate/STIM_016.jpg
2123.497	1.682	incorrect	generate	Run3	generate/STIM_016.jpg
2127.432	1.524	correct	generate	Run3	generate/STIM_016.jpg
2132.006	1.25	correct	generate	Run3	generate/STIM_017.jpg
2135.727	1.136	correct	generate	Run3	generate/STIM_017.jpg
2139.986	1.954	correct	generate	Run3	generate/STIM_017.jpg
2145.567	1.351	correct	generate	Run3	generate/STIM_017.jpg
2150.855	1.329	incorrect	generate	Run3	generate/STIM_017.jpg
2155.192	1.067	correct	generate	Run3	generate/STIM_018.jpg
2158.593	0.932	correct	generate	Run3	generate/STIM_018.jpg
2162.772	2.024	incorrect	generate	Run3	generate/STIM_018.jpg
2168.165	2.156	correct	generate	Run3	generate/STIM_018.jpg
2173.87	1.279	incorrect	generate	Run3	generate/STIM_018.jpg
2178.598	1.974	incorrect	generate	Run3	generate/STIM_019.jpg
2183.156	2.031	correct	generate	Run3	generate/STIM_019.jpg
2187.574	1.456	correct	generate	Run3	generate/STIM_019.jpg
2191.889	1.613	correct	generate	Run3	generate/STIM_019.jpg
2196.353	1.798	correct	generate	Run3	generate/STIM_019.jpg
2201.611	1.096	correct	generate	Run3	generate/STIM_020.jpg
2206.31	2.05	correct	generate	Run3	generate/STIM_020.jpg
2210.908	0.886	correct	generate	Run3	generate/STIM_020.jpg
2214.676	2.062	correct	generate	Run3	generate/STIM_020.jpg
2220.36	1.826	incorrect	generate	Run3	generate/STIM_020.jpg
2224.808	2.03	correct	generate	Run3	generate/STIM_021.jpg
2230.12	1.012	correct	generate	Run3	generate/STIM_021.jpg
2233.728	1.168	correct	generate	Run3	generate/STIM_021.jpg
2238.565	1.286	incorrect	generate	Run3	generate/STIM_021.jpg
2242.828	1.589	correct	generate	Run3	generate/STIM_021.jpg
2247.362	1.66	correct	generate	Run3	generate/STIM_022.jpg
2251.966	1.483	correct	generate	Run3	generate/STIM_022.jpg
2256.382	1.897	correct	generate	Run3	generate/STIM_022.jpg
2260.59	1.394	correct	generate	Run3	generate/STIM_022.jpg
2265.788	0.874	correct	generate	Run3	generate/STIM_022.jpg
2269.485	1.04	correct	generate	Run3	generate/STIM_023.jpg
2274.257	1.898	incorrect	generate	Run3	generate/STIM_023.jpg
2280.022	0.963	correct	generate	Run3	generate/STIM_023.jpg
2283.181	1.594	correct	generate	Run3	generate/STIM_023.jpg
2288.32	1.844	correct	generate	Run3	generate/STIM_023.jpg
2292.436	1.678	incorrect	generate	Run3	generate/STIM_024.jpg
2296.718	2.096	correct	generate	Run3	generate/STIM_024.jpg
2302.483	2.0	incorrect	generate	Run3	generate/STIM_024.jpg
2306.77	1.908	correct	generate	Run3	generate/STIM_024.jpg
2310.806	1.897	correct	generate	Run3	generate/STIM_024.jpg
2316.375	0.62	correct	repeat	Run3	repeat/STIM_000.jpg
2320.254	0.62	correct	repeat	Run3	repeat/STIM_000.jpg
2323.072	0.588	correct	repeat	Run3	repeat/STIM_000.jpg
2327.064	0.811	correct	repeat	Run3	repeat/STIM_000.jpg
2331.681	0.867	correct	repeat	Run3	repeat/STIM_000.jpg
2334.749	0.69	correct	repeat	Run3	repeat/STIM_001.jpg
2337.965	0.854	correct	repeat	Run3	repeat/STIM_001.jpg
2341.335	0.852	correct	repeat	Run3	repeat/STIM_001.jpg
2345.252	1.016	correct	repeat	Run3	repeat/STIM_001.jpg
2348.966	0.536	correct	repeat	Run3	repeat/STIM_001.jpg
2351.83	0.899	incorrect	repeat	Run3	repeat/STIM_002.jpg
2356.58	0.537	correct	repeat	Run3	repeat/STIM_002.jpg
2359.261	0.753	correct	repeat	Run3	repeat/STIM_002.jpg
2363.163	0.647	correct	repeat	Run3	repeat/STIM_002.jpg
2367.103	1.016	correct	repeat	Run3	repeat/STIM_002.jpg
2371.33	0.55	correct	repeat	Run3	repeat/STIM_003.jpg
2374.204	0.623	correct	repeat	Run3	repeat/STIM_003.jpg
2378.189	0.936	correct	repeat	Run3	repeat/STIM_003.jpg
2382.207	0.685	incorrect	repeat	Run3	repeat/STIM_003.jpg
2386.027	0.884	correct	repeat	Run3	repeat/STIM_003.jpg
2389.676	0.552	correct	repeat	Run3	repeat/STIM_004.jpg
2392.433	0.657	correct	repeat	Run3	repeat/STIM_004.jpg
2395.659	0.965	correct	repeat	Run3	repeat/STIM_004.jpg
2399.145	1.009	incorrect	repeat	Run3	repeat/STIM_004.jpg
2402.348	0.623	correct	repeat	Run3	repeat/STIM_004.jpg
2406.102	1.002	correct	repeat	Run3	repeat/STIM_005.jpg
2410.702	0.728	correct	repeat	Run3	repeat/STIM_005.jpg
2413.497	0.538	correct	repeat	Run3	repeat/STIM_005.jpg
2417.318	0.611	correct	repeat	Run3	repeat/STIM_005.jpg
2421.805	0.968	correct	repeat	Run3	repeat/STIM_005.jpg
2425.979	0.568	incorrect	repeat	Run3	repeat/STIM_006.jpg
2430.01	0.884	correct	repeat	Run3	repeat/STIM_006.jpg
2433.891	0.747	correct	repeat	Run3	repeat/STIM_006.jpg
2437.345	0.952	correct	repeat	Run3	repeat/STIM_006.jpg
2441.411	0.838	correct	repeat	Run3	repeat/STIM_006.jpg
2445.062	0.94	incorrect	repeat	Run3	repeat/STIM_007.jpg
2448.009	0.763	correct	repeat	Run3	repeat/STIM_007.jpg
2451.644	0.608	correct	repeat	Run3	repeat/STIM_007.jpg
2455.516	0.972	correct	repeat	Run3	repeat/STIM_007.jpg
2460.433	0.678	incorrect	repeat	Run3	repeat/STIM_007.jpg
2465.101	1.006	correct	repeat	Run3	repeat/STIM_008.jpg
2468.925	0.702	incorrect	repeat	Run3	repeat/STIM_008.jpg
2472.969	0.788	correct	repeat	Run3	repeat/STIM_008.jpg
2476.967	0.6	correct	repeat	Run3	repeat/STIM_008.jpg
2480.609	0.772	correct	repeat	Run3	repeat/STIM_008.jpg
2483.881	0.537	correct	repeat	Run3	repeat/STIM_009.jpg
2487.002	0.836	correct	repeat	Run3	repeat/STIM_009.jpg
2491.054	1.021	correct	repeat	Run3	repeat/STIM_009.jpg
2494.213	0.837	incorrect	repeat	Run3	repeat/STIM_009.jpg
2498.1	0.778	incorrect	repeat	Run3	repeat/STIM_009.jpg
2502.162	1.018	correct	repeat	Run3	repeat/STIM_010.jpg
2505.836	1.021	correct	repeat	Run3	repeat/STIM_010.jpg
2509.321	0.861	correct	repeat	Run3	repeat/STIM_010.jpg
2513.262	0.783	incorrect	repeat	Run3	repeat/STIM_010.jpg
2518.027	0.859	correct	repeat	Run3	repeat/STIM_010.jpg
2522.351	0.642	correct	repeat	Run3	repeat/STIM_011.jpg
2526.484	0.934	correct	repeat	Run3	repeat/STIM_011.jpg
2531.051	0.783	correct	repeat	Run3	repeat/STIM_011.jpg
2534.424	0.794	correct	repeat	Run3	repeat/STIM_011.jpg
2537.344	0.647	incorrect	repeat	Run3	repeat/STIM_011.jpg
2541.0	0.828	correct	repeat	Run3	repeat/STIM_012.jpg
2544.174	0.615	incorrect	repeat	Run3	repeat/STIM_012.jpg
2548.061	0.661	correct	repeat	Run3	repeat/STIM_012.jpg
2551.551	0.867	correct	repeat	Run3	repeat/STIM_012.jpg
2556.314	0.65	correct	repeat	Run3	repeat/STIM_012.jpg
2559.683	0.953	correct	repeat	Run3	repeat/STIM_013.jpg
2563.039	0.727	incorrect	repeat	Run3	repeat/STIM_013.jpg
2566.4	0.882	correct	repeat	Run3	repeat/STIM_013.jpg
2570.701	0.793	correct	repeat	Run3	repeat/STIM_013.jpg
2574.188	0.709	incorrect	repeat	Run3	repeat/STIM_013.jpg
2578.368	0.563	correct	repeat	Run3	repeat/STIM_014.jpg
2582.728	0.705	correct	repeat	Run3	repeat/STIM_014.jpg
2586.333	0.786	correct	repeat	Run3	repeat/STIM_014.jpg
2589.538	0.95	correct	repeat	Run3	repeat/STIM_014.jpg
2593.559	0.831	correct	repeat	Run3	repeat/STIM_014.jpg
2597.124	1.898	correct	generate	Run4	generate/STIM_000.jpg
2601.968	1.994	incorrect	generate	Run4	generate/STIM_000.jpg
2606.958	1.124	correct	generate	Run4	generate/STIM_000.jpg
2610.543	1.253	correct	generate	Run4	generate/STIM_000.jpg
2614.27	1.498	correct	generate	Run4	generate/STIM_000.jpg
2618.801	0.941	correct	generate	Run4	generate/STIM_001.jpg
2623.317	2.022	correct	generate	Run4	generate/STIM_001.jpg
2629.209	1.591	correct	generate	Run4	generate/STIM_001.jpg
2634.578	1.078	correct	generate	Run4	generate/STIM_001.jpg
2639.351	1.128	correct	generate	Run4	generate/STIM_001.jpg
2644.438	1.293	correct	generate	Run4	generate/STIM_002.jpg
2648.761	1.856	correct	generate	Run4	generate/STIM_002.jpg
2653.758	1.036	correct	generate	Run4	generate/STIM_002.jpg
2657.066	1.364	correct	generate	Run4	generate/STIM_002.jpg
2660.659	1.647	correct	generate	Run4	generate/STIM_002.jpg
2666.29	2.148	correct	generate	Run4	generate/STIM_003.jpg
2672.083	0.895	correct	generate	Run4	generate/STIM_003.jpg
2676.409	1.401	correct	generate	Run4	generate/STIM_003.jpg
2681.257	1.812	correct	generate	Run4	generate/STIM_003.jpg
2685.219	1.196	correct	generate	Run4	generate/STIM_003.jpg
2688.948	1.171	correct	generate	Run4	generate/STIM_004.jpg
2693.605	1.805	incorrect	generate	Run4	generate/STIM_004.jpg
2698.854	1.761	incorrect	generate	Run4	generate/STIM_004.jpg
2704.361	1.388	correct	generate	Run4	generate/STIM_004.jpg
2708.97	2.091	correct	generate	Run4	generate/STIM_004.jpg
2713.096	1.563	correct	generate	Run4	generate/STIM_005.jpg
2717.329	1.41	correct	generate	Run4	generate/STIM_005.jpg
2721.059	0.924	incorrect	generate	Run4	generate/STIM_005.jpg
2725.256	1.18	correct	generate	Run4	generate/STIM_005.jpg
2728.781	1.523	correct	generate	Run4	generate/STIM_005.jpg
2733.435	1.977	correct	generate	Run4	generate/STIM_006.jpg
2738.809	1.65	correct	generate	Run4	generate/STIM_006.jpg
2743.596	2.04	correct	generate	Run4	generate/STIM_006.jpg
2748.149	1.709	correct	generate	Run4	generate/STIM_006.jpg
2753.157	1.376	correct	generate	Run4	generate/STIM_006.jpg
2757.687	1.702	correct	generate	Run4	generate/STIM_007.jpg
2763.279	1.04	incorrect	generate	Run4	generate/STIM_007.jpg
2767.168	0.966	correct	generate	Run4	generate/STIM_007.jpg
2771.239	1.72	correct	generate	Run4	generate/STIM_007.jpg
2776.936	1.274	correct	generate	Run4	generate/STIM_007.jpg
2781.002	1.718	correct	generate	Run4	generate/STIM_008.jpg
2785.733	1.945	correct	generate	Run4	generate/STIM_008.jpg
2790.595	2.037	correct	generate	Run4	generate/STIM_008.jpg
2794.756	1.768	correct	generate	Run4	generate/STIM_008.jpg
2799.507	1.576	correct	generate	Run4	generate/STIM_008.jpg
2804.755	1.268	correct	generate	Run4	generate/STIM_009.jpg
2809.183	1.537	correct	generate	Run4	generate/STIM_009.jpg
2814.331	1.959	correct	generate	Run4	generate/STIM_009.jpg
2819.299	1.333	correct	generate	Run4	generate/STIM_009.jpg
2824.241	1.722	correct	generate	Run4	generate/STIM_009.jpg
2828.472	1.168	correct	generate	Run4	generate/STIM_010.jpg
2832.153	2.109	incorrect	generate	Run4	generate/STIM_010.jpg
2838.046	1.419	correct	generate	Run4	generate/STIM_010.jpg
2842.792	2.054	correct	generate	Run4	generate/STIM_010.jpg
2848.527	1.036	correct	generate	Run4	generate/STIM_010.jpg
2851.895	1.998	correct	generate	Run4	generate/STIM_011.jpg
2856.298	1.063	incorrect	generate	Run4	generate/STIM_011.jpg
2860.243	1.905	incorrect	generate	Run4	generate/STIM_011.jpg
2864.953	2.009	correct	generate	Run4	generate/STIM_011.jpg
2870.563	1.916	incorrect	generate	Run4	generate/STIM_011.jpg
2875.282	1.284	correct	generate	Run4	generate/STIM_012.jpg
2879.999	1.377	correct	generate	Run4	generate/STIM_012.jpg
2884.639	1.028	correct	generate	Run4	generate/STIM_012.jpg
2888.989	1.391	correct	generate	Run4	generate/STIM_012.jpg
2893.51	1.182	correct	generate	Run4	generate/STIM_012.jpg
2898.29	1.647	correct	generate	Run4	generate/STIM_013.jpg
2902.221	1.085	correct	generate	Run4	generate/STIM_013.jpg
2906.221	0.997	incorrect	generate	Run4	generate/STIM_013.jpg
2911.212	1.182	correct	generate	Run4	generate/STIM_013.jpg
2914.728	1.5	correct	generate	Run4	generate/STIM_013.jpg
2919.935	0.897	correct	generate	Run4	generate/STIM_014.jpg
2924.122	1.633	correct	generate	Run4	generate/STIM_014.jpg
2928.582	1.25	incorrect	generate	Run4	generate/STIM_014.jpg
2932.507	1.959	correct	generate	Run4	generate/STIM_014.jpg
2938.119	2.002	correct	generate	Run4	generate/STIM_014.jpg
2942.162	1.326	correct	generate	Run4	generate/STIM_015.jpg
2945.681	1.002	correct	generate	Run4	generate/STIM_015.jpg
2949.579	1.419	correct	generate	Run4	generate/STIM_015.jpg
2953.436	1.183	correct	generate	Run4	generate/STIM_015.jpg
2957.688	1.905	correct	generate	Run4	generate/STIM_015.jpg
2961.855	1.903	correct	generate	Run4	generate/STIM_016.jpg
2966.667	1.566	correct	generate	Run4	generate/STIM_016.jpg
2971.274	1.63	correct	generate	Run4	generate/STIM_016.jpg
2975.899	1.148	correct	generate	Run4	generate/STIM_016.jpg
2980.06	1.73	correct	generate	Run4	generate/STIM_016.jpg
2985.559	1.557	incorrect	generate	Run4	generate/STIM_017.jpg
2990.696	1.113	correct	generate	Run4	generate/STIM_017.jpg
2995.185	1.91	correct	generate	Run4	generate/STIM_017.jpg
2999.317	1.301	correct	generate	Run4	generate/STIM_017.jpg
3002.795	1.044	incorrect	generate	Run4	generate/STIM_017.jpg
3006.185	1.094	correct	generate	Run4	generate/STIM_018.jpg
3009.497	2.081	incorrect	generate	Run4	generate/STIM_018.jpg
3014.839	1.626	correct	generate	Run4	generate/STIM_018.jpg
3018.539	1.327	correct	generate	Run4	generate/STIM_018.jpg
3023.732	1.2	correct	generate	Run4	generate/STIM_018.jpg
3028.286	1.175	correct	generate	Run4	generate/STIM_019.jpg
3033.329	2.02	correct	generate	Run4	generate/STIM_019.jpg
3039.229	1.673	correct	generate	Run4	generate/STIM_019.jpg
3043.694	1.842	correct	generate	Run4	generate/STIM_019.jpg
3049.494	1.516	correct	generate	Run4	generate/STIM_019.jpg
3053.447	1.047	correct	generate	Run4	generate/STIM_020.jpg
3056.642	1.005	correct	generate	Run4	generate/STIM_020.jpg
3060.629	1.33	correct	generate	Run4	generate/STIM_020.jpg
3064.285	1.149	correct	generate	Run4	generate/STIM_020.jpg
3069.408	1.168	correct	generate	Run4	generate/STIM_020.jpg
3074.087	1.134	incorrect	generate	Run4	generate/STIM_021.jpg
3078.363	1.056	correct	generate	Run4	generate/STIM_021.jpg
3081.5	0.905	correct	generate	Run4	generate/STIM_021.jpg
3085.562	2.059	correct	generate	Run4	generate/STIM_021.jpg
3091.596	1.106	correct	generate	Run4	generate/STIM_021.jpg
3094.737	1.292	correct	generate	Run4	generate/STIM_022.jpg
3098.428	1.938	correct	generate	Run4	generate/STIM_022.jpg
3104.041	0.953	correct	generate	Run4	generate/STIM_022.jpg
3107.175	1.481	correct	generate	Run4	generate/STIM_022.jpg
3111.323	1.132	correct	generate	Run4	generate/STIM_022.jpg
3116.124	1.688	incorrect	generate	Run4	generate/STIM_023.jpg
3120.296	1.718	correct	generate	Run4	generate/STIM_023.jpg
3124.823	0.954	incorrect	generate	Run4	generate/STIM_023.jpg
3129.717	1.879	correct	generate	Run4	generate/STIM_023.jpg
3135.273	1.993	incorrect	generate	Run4	generate/STIM_023.jpg
3139.451	1.33	correct	generate	Run4	generate/STIM_024.jpg
3143.446	2.13	correct	generate	Run4	generate/STIM_024.jpg
3147.866	1.258	correct	generate	Run4	generate/STIM_024.jpg
3151.509	1.215	correct	generate	Run4	generate/STIM_024.jpg
3155.752	1.65	correct	generate	Run4	generate/STIM_024.jpg
3161.342	0.888	correct	repeat	Run4	repeat/STIM_000.jpg
3165.087	0.899	incorrect	repeat	Run4	repeat/STIM_000.jpg
3168.283	0.95	correct	repeat	Run4	repeat/STIM_000.jpg
3172.598	0.636	correct	repeat	Run4	repeat/STIM_000.jpg
3176.615	1.01	correct	repeat	Run4	repeat/STIM_000.jpg
3179.692	0.79	correct	repeat	Run4	repeat/STIM_001.jpg
3182.676	1.03	correct	repeat	Run4	repeat/STIM_001.jpg
3187.497	0.682	correct	repeat	Run4	repeat/STIM_001.jpg
3190.28	0.691	correct	repeat	Run4	repeat/STIM_001.jpg
3193.998	0.909	incorrect	repeat	Run4	repeat/STIM_001.jpg
3198.043	0.907	correct	repeat	Run4	repeat/STIM_002.jpg
3201.204	0.77	correct	repeat	Run4	repeat/STIM_002.jpg
3205.337	0.885	incorrect	repeat	Run4	repeat/STIM_002.jpg
3208.563	0.774	correct	repeat	Run4	repeat/STIM_002.jpg
3212.967	1.034	correct	repeat	Run4	repeat/STIM_002.jpg
3216.892	0.802	correct	repeat	Run4	repeat/STIM_003.jpg
3220.047	0.601	correct	repeat	Run4	repeat/STIM_003.jpg
3224.545	0.962	correct	repeat	Run4	repeat/STIM_003.jpg
3228.707	0.824	correct	repeat	Run4	repeat/STIM_003.jpg
3231.926	0.903	incorrect	repeat	Run4	repeat/STIM_003.jpg
3236.257	0.734	correct	repeat	Run4	repeat/STIM_004.jpg
3240.515	0.607	correct	repeat	Run4	repeat/STIM_004.jpg
3243.784	0.872	correct	repeat	Run4	repeat/STIM_004.jpg
3248.622	0.68	correct	repeat	Run4	repeat/STIM_004.jpg
3252.283	0.567	incorrect	repeat	Run4	repeat/STIM_004.jpg
3254.931	0.708	incorrect	repeat	Run4	repeat/STIM_005.jpg
3257.653	0.63	correct	repeat	Run4	repeat/STIM_005.jpg
3262.014	0.977	correct	repeat	Run4	repeat/STIM_005.jpg
3266.719	0.677	correct	repeat	Run4	repeat/STIM_005.jpg
3270.392	0.758	incorrect	repeat	Run4	repeat/STIM_005.jpg
3273.205	0.966	correct	repeat	Run4	repeat/STIM_006.jpg
3277.951	0.729	correct	repeat	Run4	repeat/STIM_006.jpg
3282.132	0.752	incorrect	repeat	Run4	repeat/STIM_006.jpg
3286.561	1.012	correct	repeat	Run4	repeat/STIM_006.jpg
3291.199	0.97	incorrect	repeat	Run4	repeat/STIM_006.jpg
3295.651	0.71	correct	repeat	Run4	repeat/STIM_007.jpg
3299.075	0.995	correct	repeat	Run4	repeat/STIM_007.jpg
3304.006	0.846	correct	repeat	Run4	repeat/STIM_007.jpg
3307.853	0.522	correct	repeat	Run4	repeat/STIM_007.jpg
3311.366	0.628	correct	repeat	Run4	repeat/STIM_007.jpg
3314.622	0.567	correct	repeat	Run4	repeat/STIM_008.jpg
3319.08	0.53	correct	repeat	Run4	repeat/STIM_008.jpg
3321.828	1.0	correct	repeat	Run4	repeat/STIM_008.jpg
3325.169	0.671	incorrect	repeat	Run4	repeat/STIM_008.jpg
3329.406	0.839	correct	repeat	Run4	repeat/STIM_008.jpg
3334.236	0.749	correct	repeat	Run4	repeat/STIM_009.jpg
3337.346	0.61	correct	repeat	Run4	repeat/STIM_009.jpg
3340.414	0.585	incorrect	repeat	Run4	repeat/STIM_009.jpg
3344.579	0.627	correct	repeat	Run4	repeat/STIM_009.jpg
3348.279	0.719	incorrect	repeat	Run4	repeat/STIM_009.jpg
3352.246	0.753	correct	repeat	Run4	repeat/STIM_010.jpg
3355.832	0.686	correct	repeat	Run4	repeat/STIM_010.jpg
3359.097	0.62	correct	repeat	Run4	repeat/STIM_010.jpg
3362.163	0.784	correct	repeat	Run4	repeat/STIM_010.jpg
3365.155	0.606	correct	repeat	Run4	repeat/STIM_010.jpg
3369.381	0.695	correct	repeat	Run4	repeat/STIM_011.jpg
3373.366	0.612	correct	repeat	Run4	repeat/STIM_011.jpg
3377.949	0.831	correct	repeat	Run4	repeat/STIM_011.jpg
3380.781	0.785	correct	repeat	Run4	repeat/STIM_011.jpg
3384.162	0.814	correct	repeat	Run4	repeat/STIM_011.jpg
3388.238	0.821	correct	repeat	Run4	repeat/STIM_012.jpg
3392.758	0.618	correct	repeat	Run4	repeat/STIM_012.jpg
3396.737	0.925	correct	repeat	Run4	repeat/STIM_012.jpg
3400.193	0.917	correct	repeat	Run4	repeat/STIM_012.jpg
3404.356	0.963	incorrect	repeat	Run4	repeat/STIM_012.jpg
3408.533	0.926	correct	repeat	Run4	repeat/STIM_013.jpg
3413.38	0.775	correct	repeat	Run4	repeat/STIM_013.jpg
3417.515	0.556	incorrect	repeat	Run4	repeat/STIM_013.jpg
3420.292	0.736	correct	repeat	Run4	repeat/STIM_013.jpg
3423.768	0.67	correct	repeat	Run4	repeat/STIM_013.jpg
3427.604	0.59	correct	repeat	Run4	repeat/STIM_014.jpg
3430.258	0.696	correct	repeat	Run4	repeat/STIM_014.jpg
3434.75	0.618	correct	repeat	Run4	repeat/STIM_014.jpg
3438.987	0.837	correct	repeat	Run4	repeat/STIM_014.jpg
3442.071	0.871	correct	repeat	Run4	repeat/STIM_014.jpg
