onset	duration	accuracy	trial_type	learning_stage	stimulus
0.0	0.664	correct	2back	Block1	2back/STIM_000.jpg
3.312	1.303	correct	2back	Block1	2back/STIM_000.jpg
8.468	1.085	correct	2back	Block1	2back/STIM_000.jpg
12.193	0.865	incorrect	2back	Block1	2back/STIM_001.jpg
16.266	0.805	correct	2back	Block1	2back/STIM_001.jpg
20.869	0.686	correct	2back	Block1	2back/STIM_001.jpg
23.498	0.966	correct	2back	Block1	2back/STIM_002.jpg
28.0	0.966	correct	2back	Block1	2back/STIM_002.jpg
32.768	0.725	incorrect	2back	Block1	2back/STIM_002.jpg
36.003	1.147	correct	2back	Block1	2back/STIM_003.jpg
39.366	1.146	incorrect	2back	Block1	2back/STIM_003.jpg
42.597	0.639	correct	2back	Block1	2back/STIM_003.jpg
45.567	0.623	incorrect	2back	Block1	2back/STIM_004.jpg
48.315	1.208	correct	2back	Block1	2back/STIM_004.jpg
52.087	0.966	correct	2back	Block1	2back/STIM_004.jpg
56.221	1.2	correct	2back	Block1	2back/STIM_005.jpg
59.895	0.79	correct	2back	Block1	2back/STIM_005.jpg
64.284	1.16	correct	2back	Block1	2back/STIM_005.jpg
68.06	1.248	incorrect	2back	Block1	2back/STIM_006.jpg
71.764	1.198	correct	2back	Block1	2back/STIM_006.jpg
76.639	0.546	correct	2back	Block1	2back/STIM_006.jpg
80.97	0.828	incorrect	2back	Block1	2back/STIM_007.jpg
84.594	0.778	correct	2back	Block1	2back/STIM_007.jpg
89.215	0.559	correct	2back	Block1	2back/STIM_007.jpg
92.22	0.684	correct	2back	Block1	2back/STIM_008.jpg
95.956	0.798	correct	2back	Block1	2back/STIM_008.jpg
99.02	0.954	correct	2back	Block1	2back/STIM_008.jpg
103.941	1.319	correct	2back	Block1	2back/STIM_009.jpg
108.567	0.568	correct	2back	Block1	2back/STIM_009.jpg
111.488	0.822	correct	2back	Block1	2back/STIM_009.jpg
115.275	1.115	correct	2back	Block1	2back/STIM_010.jpg
119.998	1.256	correct	2back	Block1	2back/STIM_010.jpg
124.739	0.854	incorrect	2back	Block1	2back/STIM_010.jpg
129.091	0.796	correct	2back	Block1	2back/STIM_011.jpg
133.719	0.724	correct	2back	Block1	2back/STIM_011.jpg
138.194	0.6	correct	2back	Block1	2back/STIM_011.jpg
140.851	0.809	correct	2back	Block1	2back/STIM_012.jpg
145.267	0.851	incorrect	2back	Block1	2back/STIM_012.jpg
149.614	0.98	incorrect	2back	Block1	2back/STIM_012.jpg
152.688	1.051	correct	2back	Block1	2back/STIM_013.jpg
157.684	1.133	correct	2back	Block1	2back/STIM_013.jpg
161.193	0.795	correct	2back	Block1	2back/STIM_013.jpg
165.552	0.687	correct	2back	Block1	2back/STIM_014.jpg
169.217	1.299	correct	2back	Block1	2back/STIM_014.jpg
173.368	0.704	correct	2back	Block1	2back/STIM_014.jpg
176.505	0.714	correct	2back	Block1	2back/STIM_015.jpg
180.382	0.74	correct	2back	Block1	2back/STIM_015.jpg
183.979	0.805	incorrect	2back	Block1	2back/STIM_015.jpg
188.669	0.856	incorrect	2back	Block1	2back/STIM_016.jpg
191.63	0.908	incorrect	2back	Block1	2back/STIM_016.jpg
195.043	0.616	correct	2back	Block1	2back/STIM_016.jpg
198.017	0.91	correct	2back	Block1	2back/STIM_017.jpg
202.3	0.818	incorrect	2back	Block1	2back/STIM_017.jpg
206.663	0.992	correct	2back	Block1	2back/STIM_017.jpg
211.481	0.606	correct	2back	Block1	2back/STIM_018.jpg
215.159	0.672	correct	2back	Block1	2back/STIM_018.jpg
219.367	0.774	correct	2back	Block1	2back/STIM_018.jpg
223.492	0.512	incorrect	2back	Block1	2back/STIM_019.jpg
227.208	0.645	incorrect	2back	Block1	2back/STIM_019.jpg
230.395	0.766	correct	2back	Block1	2back/STIM_019.jpg
234.293	1.062	correct	2back	Block1	2back/STIM_020.jpg
238.601	1.286	incorrect	2back	Block1	2back/STIM_020.jpg
242.805	1.035	correct	2back	Block1	2back/STIM_020.jpg
246.936	1.138	incorrect	2back	Block1	2back/STIM_021.jpg
251.06	1.29	correct	2back	Block1	2back/STIM_021.jpg
255.493	1.045	correct	2back	Block1	2back/STIM_021.jpg
259.414	0.986	correct	2back	Block1	2back/STIM_022.jpg
262.631	0.789	correct	2back	Block1	2back/STIM_022.jpg
265.77	0.749	correct	2back	Block1	2back/STIM_022.jpg
269.826	0.881	incorrect	2back	Block1	2back/STIM_023.jpg
274.538	0.777	correct	2back	Block1	2back/STIM_023.jpg
278.075	1.115	correct	2back	Block1	2back/STIM_023.jpg
281.664	1.074	correct	2back	Block1	2back/STIM_024.jpg
286.076	0.61	correct	2back	Block1	2back/STIM_024.jpg
289.495	0.836	correct	2back	Block1	2back/STIM_024.jpg
293.939	1.257	correct	2back	Block1	2back/STIM_025.jpg
298.355	0.787	correct	2back	Block1	2back/STIM_025.jpg
302.193	1.006	correct	2back	Block1	2back/STIM_025.jpg
306.91	1.002	correct	2back	Block1	2back/STIM_026.jpg
310.063	0.729	correct	2back	Block1	2back/STIM_026.jpg
313.822	0.786	incorrect	2back	Block1	2back/STIM_026.jpg
317.519	0.968	correct	2back	Block1	2back/STIM_027.jpg
322.272	0.605	correct	2back	Block1	2back/STIM_027.jpg
326.496	0.637	correct	2back	Block1	2back/STIM_027.jpg
329.511	1.189	correct	2back	Block1	2back/STIM_028.jpg
334.129	0.543	correct	2back	Block1	2back/STIM_028.jpg
337.405	0.879	correct	2back	Block1	2back/STIM_028.jpg
341.026	0.727	correct	2back	Block1	2back/STIM_029.jpg
345.153	0.676	correct	2back	Block1	2back/STIM_029.jpg
347.95	0.483	incorrect	2back	Block1	2back/STIM_029.jpg
351.758	0.885	correct	2back	Block1	2back/STIM_030.jpg
355.409	0.998	correct	2back	Block1	2back/STIM_030.jpg
358.524	1.09	incorrect	2back	Block1	2back/STIM_030.jpg
363.307	1.384	correct	2back	Block1	2back/STIM_031.jpg
367.047	0.912	correct	2back	Block1	2back/STIM_031.jpg
370.56	0.466	correct	2back	Block1	2back/STIM_031.jpg
374.31	1.312	correct	2back	Block1	2back/STIM_032.jpg
379.12	0.606	correct	2back	Block1	2back/STIM_032.jpg
382.46	0.863	correct	2back	Block1	2back/STIM_032.jpg
386.078	0.793	correct	2back	Block1	2back/STIM_033.jpg
389.066	0.877	incorrect	2back	Block1	2back/STIM_033.jpg
393.755	0.657	correct	2back	Block1	2back/STIM_033.jpg
397.109	0.683	correct	2back	Block1	2back/STIM_034.jpg
400.895	0.957	correct	2back	Block1	2back/STIM_034.jpg
405.313	0.95	correct	2back	Block1	2back/STIM_034.jpg
409.041	0.927	correct	2back	Block1	2back/STIM_035.jpg
412.642	1.072	correct	2back	Block1	2back/STIM_035.jpg
417.49	0.883	correct	2back	Block1	2back/STIM_035.jpg
420.489	0.609	correct	2back	Block1	2back/STIM_036.jpg
424.619	0.708	correct	2back	Block1	2back/STIM_036.jpg
428.908	0.826	correct	2back	Block1	2back/STIM_036.jpg
432.362	1.213	correct	2back	Block1	2back/STIM_037.jpg
437.315	0.451	incorrect	2back	Block1	2back/STIM_037.jpg
441.565	0.832	correct	2back	Block1	2back/STIM_037.jpg
444.588	0.677	correct	2back	Block1	2back/STIM_038.jpg
447.595	0.788	correct	2back	Block1	2back/STIM_038.jpg
451.475	0.831	correct	2back	Block1	2back/STIM_038.jpg
456.258	0.941	correct	2back	Block1	2back/STIM_039.jpg
460.192	1.154	correct	2back	Block1	2back/STIM_039.jpg
464.855	0.586	correct	2back	Block1	2back/STIM_039.jpg
468.006	0.495	correct	0back	Block1	0back/STIM_000.jpg
471.494	0.601	correct	0back	Block1	0back/STIM_000.jpg
474.555	0.643	correct	0back	Block1	0back/STIM_000.jpg
478.047	0.472	correct	0back	Block1	0back/STIM_001.jpg
480.929	0.646	correct	0back	Block1	0back/STIM_001.jpg
485.099	0.727	correct	0back	Block1	0back/STIM_001.jpg
489.862	0.452	correct	0back	Block1	0back/STIM_002.jpg
493.954	0.637	correct	0back	Block1	0back/STIM_002.jpg
496.986	0.535	correct	0back	Block1	0back/STIM_002.jpg
500.444	0.427	correct	0back	Block1	0back/STIM_003.jpg
504.528	0.385	correct	0back	Block1	0back/STIM_003.jpg
508.1	0.523	correct	0back	Block1	0back/STIM_003.jpg
511.122	0.695	correct	0back	Block1	0back/STIM_004.jpg
515.565	0.433	correct	0back	Block1	0back/STIM_004.jpg
518.818	0.515	correct	0back	Block1	0back/STIM_004.jpg
522.313	0.621	correct	0back	Block1	0back/STIM_005.jpg
526.49	0.522	correct	0back	Block1	0back/STIM_005.jpg
529.8	0.61	correct	0back	Block1	0back/STIM_005.jpg
534.168	0.623	correct	0back	Block1	0back/STIM_006.jpg
538.299	0.437	correct	0back	Block1	0back/STIM_006.jpg
541.77	0.501	correct	0back	Block1	0back/STIM_006.jpg
545.316	0.417	correct	0back	Block1	0back/STIM_007.jpg
549.654	0.387	correct	0back	Block1	0back/STIM_007.jpg
553.276	0.741	correct	0back	Block1	0back/STIM_007.jpg
557.415	0.689	correct	0back	Block1	0back/STIM_008.jpg
561.603	0.755	correct	0back	Block1	0back/STIM_008.jpg
564.372	0.637	correct	0back	Block1	0back/STIM_008.jpg
568.782	0.412	correct	0back	Block1	0back/STIM_009.jpg
571.751	0.414	correct	0back	Block1	0back/STIM_009.jpg
575.75	0.572	correct	0back	Block1	0back/STIM_009.jpg
579.057	0.539	correct	0back	Block1	0back/STIM_010.jpg
582.702	0.692	correct	0back	Block1	0back/STIM_010.jpg
586.457	0.545	correct	0back	Block1	0back/STIM_010.jpg
589.084	0.498	correct	0back	Block1	0back/STIM_011.jpg
593.41	0.687	incorrect	0back	Block1	0back/STIM_011.jpg
597.409	0.368	correct	0back	Block1	0back/STIM_011.jpg
600.811	0.645	correct	0back	Block1	0back/STIM_012.jpg
604.14	0.55	correct	0back	Block1	0back/STIM_012.jpg
608.009	0.769	correct	0back	Block1	0back/STIM_012.jpg
612.111	0.46	correct	0back	Block1	0back/STIM_013.jpg
615.48	0.793	correct	0back	Block1	0back/STIM_013.jpg
618.294	0.66	correct	0back	Block1	0back/STIM_013.jpg
622.291	0.767	correct	0back	Block1	0back/STIM_014.jpg
625.105	0.696	correct	0back	Block1	0back/STIM_014.jpg
628.324	0.364	correct	0back	Block1	0back/STIM_014.jpg
632.017	0.76	correct	0back	Block1	0back/STIM_015.jpg
635.036	0.495	correct	0back	Block1	0back/STIM_015.jpg
639.455	0.51	correct	0back	Block1	0back/STIM_015.jpg
643.534	0.741	correct	0back	Block1	0back/STIM_016.jpg
646.3	0.779	correct	0back	Block1	0back/STIM_016.jpg
649.22	0.486	correct	0back	Block1	0back/STIM_016.jpg
653.224	0.69	correct	0back	Block1	0back/STIM_017.jpg
656.086	0.463	correct	0back	Block1	0back/STIM_017.jpg
659.567	0.561	correct	0back	Block1	0back/STIM_017.jpg
662.831	0.584	correct	0back	Block1	0back/STIM_018.jpg
666.825	0.539	incorrect	0back	Block1	0back/STIM_018.jpg
671.334	0.597	correct	0back	Block1	0back/STIM_018.jpg
673.995	0.416	correct	0back	Block1	0back/STIM_019.jpg
676.913	0.386	correct	0back	Block1	0back/STIM_019.jpg
679.581	0.343	correct	0back	Block1	0back/STIM_019.jpg
683.537	0.826	correct	2back	Block2	2back/STIM_000.jpg
687.459	0.529	correct	2back	Block2	2back/STIM_000.jpg
691.788	0.747	correct	2back	Block2	2back/STIM_000.jpg
695.221	0.915	correct	2back	Block2	2back/STIM_001.jpg
699.856	0.606	correct	2back	Block2	2back/STIM_001.jpg
703.843	0.682	correct	2back	Block2	2back/STIM_001.jpg
708.504	0.898	incorrect	2back	Block2	2back/STIM_002.jpg
711.763	1.034	correct	2back	Block2	2back/STIM_002.jpg
715.306	0.927	correct	2back	Block2	2back/STIM_002.jpg
718.955	0.944	correct	2back	Block2	2back/STIM_003.jpg
722.159	0.642	correct	2back	Block2	2back/STIM_003.jpg
726.431	0.778	correct	2back	Block2	2back/STIM_003.jpg
731.122	1.08	correct	2back	Block2	2back/STIM_004.jpg
735.718	0.801	correct	2back	Block2	2back/STIM_004.jpg
739.203	1.005	correct	2back	Block2	2back/STIM_004.jpg
743.177	0.849	correct	2back	Block2	2back/STIM_005.jpg
746.094	0.801	incorrect	2back	Block2	2back/STIM_005.jpg
750.093	0.776	incorrect	2back	Block2	2back/STIM_005.jpg
752.978	1.066	correct	2back	Block2	2back/STIM_006.jpg
757.747	0.964	incorrect	2back	Block2	2back/STIM_006.jpg
762.479	0.901	correct	2back	Block2	2back/STIM_006.jpg
766.292	0.86	correct	2back	Block2	2back/STIM_007.jpg
770.086	1.03	correct	2back	Block2	2back/STIM_007.jpg
773.536	0.871	correct	2back	Block2	2back/STIM_007.jpg
776.691	1.162	correct	2back	Block2	2back/STIM_008.jpg
780.013	0.764	correct	2back	Block2	2back/STIM_008.jpg
784.489	0.627	correct	2back	Block2	2back/STIM_008.jpg
788.379	1.032	correct	2back	Block2	2back/STIM_009.jpg
791.766	0.658	correct	2back	Block2	2back/STIM_009.jpg
794.602	0.981	correct	2back	Block2	2back/STIM_009.jpg
798.503	0.931	correct	2back	Block2	2back/STIM_010.jpg
803.256	1.034	correct	2back	Block2	2back/STIM_010.jpg
806.759	0.858	incorrect	2back	Block2	2back/STIM_010.jpg
811.647	0.818	incorrect	2back	Block2	2back/STIM_011.jpg
815.662	0.732	correct	2back	Block2	2back/STIM_011.jpg
819.171	0.789	correct	2back	Block2	2back/STIM_011.jpg
823.459	1.185	correct	2back	Block2	2back/STIM_012.jpg
828.494	0.519	correct	2back	Block2	2back/STIM_012.jpg
832.929	0.524	correct	2back	Block2	2back/STIM_012.jpg
837.079	1.158	correct	2back	Block2	2back/STIM_013.jpg
840.521	0.582	correct	2back	Block2	2back/STIM_013.jpg
843.28	0.668	correct	2back	Block2	2back/STIM_013.jpg
847.886	0.377	correct	2back	Block2	2back/STIM_014.jpg
851.652	1.127	correct	2back	Block2	2back/STIM_014.jpg
856.004	0.621	correct	2back	Block2	2back/STIM_014.jpg
860.162	0.914	correct	2back	Block2	2back/STIM_015.jpg
864.223	1.028	incorrect	2back	Block2	2back/STIM_015.jpg
868.264	0.678	correct	2back	Block2	2back/STIM_015.jpg
871.8	0.984	incorrect	2back	Block2	2back/STIM_016.jpg
876.678	0.863	correct	2back	Block2	2back/STIM_016.jpg
879.893	0.492	correct	2back	Block2	2back/STIM_016.jpg
883.099	0.987	correct	2back	Block2	2back/STIM_017.jpg
887.132	0.676	correct	2back	Block2	2back/STIM_017.jpg
891.093	0.542	correct	2back	Block2	2back/STIM_017.jpg
894.564	0.606	correct	2back	Block2	2back/STIM_018.jpg
898.29	1.004	correct	2back	Block2	2back/STIM_018.jpg
903.049	0.917	correct	2back	Block2	2back/STIM_018.jpg
906.877	1.193	correct	2back	Block2	2back/STIM_019.jpg
911.451	0.791	correct	2back	Block2	2back/STIM_019.jpg
915.761	1.037	correct	2back	Block2	2back/STIM_019.jpg
920.365	1.097	correct	2back	Block2	2back/STIM_020.jpg
924.96	0.706	correct	2back	Block2	2back/STIM_020.jpg
928.692	0.835	correct	2back	Block2	2back/STIM_020.jpg
931.785	0.866	correct	2back	Block2	2back/STIM_021.jpg
935.386	0.441	correct	2back	Block2	2back/STIM_021.jpg
939.447	0.911	correct	2back	Block2	2back/STIM_021.jpg
943.267	0.726	correct	2back	Block2	2back/STIM_022.jpg
946.981	1.044	correct	2back	Block2	2back/STIM_022.jpg
951.005	0.508	correct	2back	Block2	2back/STIM_022.jpg
954.002	0.527	incorrect	2back	Block2	2back/STIM_023.jpg
957.836	1.038	correct	2back	Block2	2back/STIM_023.jpg
961.877	0.589	correct	2back	Block2	2back/STIM_023.jpg
965.178	0.752	correct	2back	Block2	2back/STIM_024.jpg
968.394	0.833	correct	2back	Block2	2back/STIM_024.jpg
972.411	1.059	correct	2back	Block2	2back/STIM_024.jpg
975.976	0.715	correct	2back	Block2	2back/STIM_025.jpg
979.763	0.876	correct	2back	Block2	2back/STIM_025.jpg
983.91	0.599	correct	2back	Block2	2back/STIM_025.jpg
987.108	0.578	correct	2back	Block2	2back/STIM_026.jpg
990.335	0.698	correct	2back	Block2	2back/STIM_026.jpg
993.105	0.646	correct	2back	Block2	2back/STIM_026.jpg
996.92	0.74	correct	2back	Block2	2back/STIM_027.jpg
1001.192	0.936	correct	2back	Block2	2back/STIM_027.jpg
1004.371	0.808	correct	2back	Block2	2back/STIM_027.jpg
1007.825	0.534	correct	2back	Block2	2back/STIM_028.jpg
1010.864	1.002	correct	2back	Block2	2back/STIM_028.jpg
1014.672	0.708	correct	2back	Block2	2back/STIM_028.jpg
1017.608	0.693	correct	2back	Block2	2back/STIM_029.jpg
1020.754	0.744	correct	2back	Block2	2back/STIM_029.jpg
1024.295	0.772	correct	2back	Block2	2back/STIM_029.jpg
1027.804	0.736	correct	2back	Block2	2back/STIM_030.jpg
1030.55	0.73	incorrect	2back	Block2	2back/STIM_030.jpg
1033.504	0.496	correct	2back	Block2	2back/STIM_030.jpg
1037.7	0.712	correct	2back	Block2	2back/STIM_031.jpg
1040.549	0.944	correct	2back	Block2	2back/STIM_031.jpg
1044.655	0.839	correct	2back	Block2	2back/STIM_031.jpg
1048.26	1.112	correct	2back	Block2	2back/STIM_032.jpg
1051.82	0.526	correct	2back	Block2	2back/STIM_032.jpg
1055.417	0.879	incorrect	2back	Block2	2back/STIM_032.jpg
1059.463	0.921	incorrect	2back	Block2	2back/STIM_033.jpg
1062.927	0.751	correct	2back	Block2	2back/STIM_033.jpg
1066.061	1.02	correct	2back	Block2	2back/STIM_033.jpg
1069.331	1.097	correct	2back	Block2	2back/STIM_034.jpg
1073.632	1.012	correct	2back	Block2	2back/STIM_034.jpg
1077.81	0.51	correct	2back	Block2	2back/STIM_034.jpg
1080.513	0.923	correct	2back	Block2	2back/STIM_035.jpg
1084.398	1.012	correct	2back	Block2	2back/STIM_035.jpg
1087.588	0.992	correct	2back	Block2	2back/STIM_035.jpg
1091.104	0.691	correct	2back	Block2	2back/STIM_036.jpg
1094.782	0.593	correct	2back	Block2	2back/STIM_036.jpg
1099.072	0.529	correct	2back	Block2	2back/STIM_036.jpg
1102.939	0.835	correct	2back	Block2	2back/STIM_037.jpg
1105.892	0.854	correct	2back	Block2	2back/STIM_037.jpg
1108.938	0.748	correct	2back	Block2	2back/STIM_037.jpg
1113.15	0.517	incorrect	2back	Block2	2back/STIM_038.jpg
1115.905	0.697	correct	2back	Block2	2back/STIM_038.jpg
1120.546	0.606	correct	2back	Block2	2back/STIM_038.jpg
1124.907	1.05	correct	2back	Block2	2back/STIM_039.jpg
1128.058	0.883	correct	2back	Block2	2back/STIM_039.jpg
1132.471	0.624	correct	2back	Block2	2back/STIM_039.jpg
1135.16	0.694	correct	0back	Block2	0back/STIM_000.jpg
1138.83	0.477	correct	0back	Block2	0back/STIM_000.jpg
1142.072	0.558	correct	0back	Block2	0back/STIM_000.jpg
1145.57	0.683	correct	0back	Block2	0back/STIM_001.jpg
1148.479	0.761	correct	0back	Block2	0back/STIM_001.jpg
1152.414	0.599	correct	0back	Block2	0back/STIM_001.jpg
1155.129	0.542	correct	0back	Block2	0back/STIM_002.jpg
1158.936	0.533	correct	0back	Block2	0back/STIM_002.jpg
1162.574	0.61	correct	0back	Block2	0back/STIM_002.jpg
1165.439	0.658	correct	0back	Block2	0back/STIM_003.jpg
1169.375	0.552	correct	0back	Block2	0back/STIM_003.jpg
1173.752	0.57	correct	0back	Block2	0back/STIM_003.jpg
1177.902	0.473	incorrect	0back	Block2	0back/STIM_004.jpg
1181.765	0.571	correct	0back	Block2	0back/STIM_004.jpg
1185.699	0.778	correct	0back	Block2	0back/STIM_004.jpg
1190.179	0.625	correct	0back	Block2	0back/STIM_005.jpg
1194.384	0.59	correct	0back	Block2	0back/STIM_005.jpg
1198.572	0.443	correct	0back	Block2	0back/STIM_005.jpg
1201.239	0.721	correct	0back	Block2	0back/STIM_006.jpg
1204.775	0.498	correct	0back	Block2	0back/STIM_006.jpg
1207.29	0.622	correct	0back	Block2	0back/STIM_006.jpg
1211.447	0.583	correct	0back	Block2	0back/STIM_007.jpg
1215.646	0.498	correct	0back	Block2	0back/STIM_007.jpg
1219.802	0.586	correct	0back	Block2	0back/STIM_007.jpg
1223.255	0.716	correct	0back	Block2	0back/STIM_008.jpg
1226.805	0.829	correct	0back	Block2	0back/STIM_008.jpg
1230.392	0.462	correct	0back	Block2	0back/STIM_008.jpg
1234.039	0.444	correct	0back	Block2	0back/STIM_009.jpg
1238.336	0.386	correct	0back	Block2	0back/STIM_009.jpg
1242.684	0.835	correct	0back	Block2	0back/STIM_009.jpg
1246.334	0.576	correct	0back	Block2	0back/STIM_010.jpg
1249.548	0.812	correct	0back	Block2	0back/STIM_010.jpg
1253.954	0.613	correct	0back	Block2	0back/STIM_010.jpg
1257.697	0.553	correct	0back	Block2	0back/STIM_011.jpg
1261.44	0.656	correct	0back	Block2	0back/STIM_011.jpg
1265.012	0.394	correct	0back	Block2	0back/STIM_011.jpg
1268.934	0.489	correct	0back	Block2	0back/STIM_012.jpg
1272.689	0.688	correct	0back	Block2	0back/STIM_012.jpg
1275.744	0.715	correct	0back	Block2	0back/STIM_012.jpg
1280.067	0.542	correct	0back	Block2	0back/STIM_013.jpg
1283.375	0.572	correct	0back	Block2	0back/STIM_013.jpg
1287.744	0.532	correct	0back	Block2	0back/STIM_013.jpg
1291.859	0.67	correct	0back	Block2	0back/STIM_014.jpg
1294.933	0.698	correct	0back	Block2	0back/STIM_014.jpg
1298.486	0.548	incorrect	0back	Block2	0back/STIM_014.jpg
1301.141	0.393	correct	0back	Block2	0back/STIM_015.jpg
1304.404	0.626	correct	0back	Block2	0back/STIM_015.jpg
1307.37	0.43	correct	0back	Block2	0back/STIM_015.jpg
1310.1	0.495	correct	0back	Block2	0back/STIM_016.jpg
1314.189	0.512	correct	0back	Block2	0back/STIM_016.jpg
1318.197	0.748	correct	0back	Block2	0back/STIM_016.jpg
1322.426	0.743	correct	0back	Block2	0back/STIM_017.jpg
1326.021	0.684	correct	0back	Block2	0back/STIM_017.jpg
1330.313	0.586	correct	0back	Block2	0back/STIM_017.jpg
1333.737	0.527	correct	0back	Block2	0back/STIM_018.jpg
1336.719	0.56	correct	0back	Block2	0back/STIM_018.jpg
1341.016	0.647	correct	0back	Block2	0back/STIM_018.jpg
1344.811	0.724	correct	0back	Block2	0back/STIM_019.jpg
1348.67	0.404	correct	0back	Block2	0back/STIM_019.jpg
1351.144	0.511	correct	0back	Block2	0back/STIM_019.jpg
1354.259	0.874	correct	2back	Block3	2back/STIM_000.jpg
1357.469	0.644	correct	2back	Block3	2back/STIM_000.jpg
1361.205	0.511	correct	2back	Block3	2back/STIM_000.jpg
1364.973	0.913	correct	2back	Block3	2back/STIM_001.jpg
1369.129	0.724	correct	2back	Block3	2back/STIM_001.jpg
1372.276	0.596	correct	2back	Block3	2back/STIM_001.jpg
1375.712	0.674	correct	2back	Block3	2back/STIM_002.jpg
1379.444	0.72	correct	2back	Block3	2back/STIM_002.jpg
1382.509	0.595	correct	2back	Block3	2back/STIM_002.jpg
1387.033	0.798	correct	2back	Block3	2back/STIM_003.jpg
1391.282	0.694	correct	2back	Block3	2back/STIM_003.jpg
1395.229	0.638	correct	2back	Block3	2back/STIM_003.jpg
1399.442	0.75	correct	2back	Block3	2back/STIM_004.jpg
1403.236	0.714	correct	2back	Block3	2back/STIM_004.jpg
1406.055	0.736	correct	2back	Block3	2back/STIM_004.jpg
1409.27	0.988	correct	2back	Block3	2back/STIM_005.jpg
1413.877	0.912	correct	2back	Block3	2back/STIM_005.jpg
1417.563	0.802	correct	2back	Block3	2back/STIM_005.jpg
1420.471	0.714	incorrect	2back	Block3	2back/STIM_006.jpg
1424.694	0.864	correct	2back	Block3	2back/STIM_006.jpg
1429.072	0.555	correct	2back	Block3	2back/STIM_006.jpg
1432.645	0.842	correct	2back	Block3	2back/STIM_007.jpg
1437.261	0.628	correct	2back	Block3	2back/STIM_007.jpg
1440.736	0.696	correct	2back	Block3	2back/STIM_007.jpg
1444.737	0.6	correct	2back	Block3	2back/STIM_008.jpg
1448.166	0.783	correct	2back	Block3	2back/STIM_008.jpg
1451.368	0.666	correct	2back	Block3	2back/STIM_008.jpg
1455.163	0.727	correct	2back	Block3	2back/STIM_009.jpg
1458.136	0.572	correct	2back	Block3	2back/STIM_009.jpg
1460.865	0.628	correct	2back	Block3	2back/STIM_009.jpg
1463.726	0.62	correct	2back	Block3	2back/STIM_010.jpg
1467.082	0.655	correct	2back	Block3	2back/STIM_010.jpg
1470.06	0.707	correct	2back	Block3	2back/STIM_010.jpg
1474.462	0.941	correct	2back	Block3	2back/STIM_011.jpg
1478.091	0.454	correct	2back	Block3	2back/STIM_011.jpg
1481.957	0.615	correct	2back	Block3	2back/STIM_011.jpg
1486.53	0.821	correct	2back	Block3	2back/STIM_012.jpg
1489.84	0.725	correct	2back	Block3	2back/STIM_012.jpg
1492.711	0.63	correct	2back	Block3	2back/STIM_012.jpg
1495.982	0.845	correct	2back	Block3	2back/STIM_013.jpg
1500.783	0.751	correct	2back	Block3	2back/STIM_013.jpg
1504.386	0.521	correct	2back	Block3	2back/STIM_013.jpg
1507.59	0.59	correct	2back	Block3	2back/STIM_014.jpg
1510.845	0.767	correct	2back	Block3	2back/STIM_014.jpg
1513.757	0.767	correct	2back	Block3	2back/STIM_014.jpg
1516.735	0.813	correct	2back	Block3	2back/STIM_015.jpg
1521.575	0.946	correct	2back	Block3	2back/STIM_015.jpg
1524.613	0.777	incorrect	2back	Block3	2back/STIM_015.jpg
1527.957	0.486	correct	2back	Block3	2back/STIM_016.jpg
1531.711	0.609	incorrect	2back	Block3	2back/STIM_016.jpg
1535.035	0.601	correct	2back	Block3	2back/STIM_016.jpg
1539.045	0.796	correct	2back	Block3	2back/STIM_017.jpg
1543.699	0.929	correct	2back	Block3	2back/STIM_017.jpg
1546.713	0.589	correct	2back	Block3	2back/STIM_017.jpg
1550.107	0.453	correct	2back	Block3	2back/STIM_018.jpg
1553.954	0.692	correct	2back	Block3	2back/STIM_018.jpg
1556.796	0.502	correct	2back	Block3	2back/STIM_018.jpg
1560.173	0.564	incorrect	2back	Block3	2back/STIM_019.jpg
1563.985	0.518	correct	2back	Block3	2back/STIM_019.jpg
1566.569	0.557	correct	2back	Block3	2back/STIM_019.jpg
1570.48	0.775	correct	2back	Block3	2back/STIM_020.jpg
1574.837	0.778	correct	2back	Block3	2back/STIM_020.jpg
1578.052	0.39	correct	2back	Block3	2back/STIM_020.jpg
1581.286	0.805	correct	2back	Block3	2back/STIM_021.jpg
1584.429	0.814	correct	2back	Block3	2back/STIM_021.jpg
1588.372	0.828	correct	2back	Block3	2back/STIM_021.jpg
1591.214	0.587	correct	2back	Block3	2back/STIM_022.jpg
1594.397	0.797	correct	2back	Block3	2back/STIM_022.jpg
1598.315	0.418	correct	2back	Block3	2back/STIM_022.jpg
1600.909	0.487	correct	2back	Block3	2back/STIM_023.jpg
1604.367	0.488	correct	2back	Block3	2back/STIM_023.jpg
1607.261	0.874	correct	2back	Block3	2back/STIM_023.jpg
1611.381	0.601	correct	2back	Block3	2back/STIM_024.jpg
1614.843	0.756	correct	2back	Block3	2back/STIM_024.jpg
1618.737	0.452	correct	2back	Block3	2back/STIM_024.jpg
1623.0	0.493	correct	2back	Block3	2back/STIM_025.jpg
1626.185	0.517	correct	2back	Block3	2back/STIM_025.jpg
1629.186	0.859	correct	2back	Block3	2back/STIM_025.jpg
1632.62	0.55	correct	2back	Block3	2back/STIM_026.jpg
1637.131	0.522	correct	2back	Block3	2back/STIM_026.jpg
1640.218	0.671	correct	2back	Block3	2back/STIM_026.jpg
1643.618	0.507	correct	2back	Block3	2back/STIM_027.jpg
1646.565	0.525	incorrect	2back	Block3	2back/STIM_027.jpg
1650.286	0.485	correct	2back	Block3	2back/STIM_027.jpg
1653.718	0.862	correct	2back	Block3	2back/STIM_028.jpg
1658.381	0.46	correct	2back	Block3	2back/STIM_028.jpg
1660.946	0.788	correct	2back	Block3	2back/STIM_028.jpg
1664.499	0.488	correct	2back	Block3	2back/STIM_029.jpg
1668.945	0.965	correct	2back	Block3	2back/STIM_029.jpg
1672.861	0.72	correct	2back	Block3	2back/STIM_029.jpg
1677.494	0.584	correct	2back	Block3	2back/STIM_030.jpg
1680.289	0.643	correct	2back	Block3	2back/STIM_030.jpg
1683.69	0.68	correct	2back	Block3	2back/STIM_030.jpg
1687.042	0.588	correct	2back	Block3	2back/STIM_031.jpg
1690.021	0.628	correct	2back	Block3	2back/STIM_031.jpg
1693.084	0.956	correct	2back	Block3	2back/STIM_031.jpg
1697.694	0.631	correct	2back	Block3	2back/STIM_032.jpg
1700.956	0.481	correct	2back	Block3	2back/STIM_032.jpg
1704.936	0.566	correct	2back	Block3	2back/STIM_032.jpg
1708.321	0.876	correct	2back	Block3	2back/STIM_033.jpg
1711.564	0.617	incorrect	2back	Block3	2back/STIM_033.jpg
1715.795	0.559	correct	2back	Block3	2back/STIM_033.jpg
1719.161	0.664	correct	2back	Block3	2back/STIM_034.jpg
1723.13	0.834	correct	2back	Block3	2back/STIM_034.jpg
1725.934	0.498	correct	2back	Block3	2back/STIM_034.jpg
1729.043	0.965	correct	2back	Block3	2back/STIM_035.jpg
1732.253	0.826	correct	2back	Block3	2back/STIM_035.jpg
1735.612	0.672	correct	2back	Block3	2back/STIM_035.jpg
1739.455	0.535	correct	2back	Block3	2back/STIM_036.jpg
1742.492	0.748	correct	2back	Block3	2back/STIM_036.jpg
1746.872	0.796	correct	2back	Block3	2back/STIM_036.jpg
1750.247	0.823	correct	2back	Block3	2back/STIM_037.jpg
1754.754	0.594	correct	2back	Block3	2back/STIM_037.jpg
1759.123	0.853	correct	2back	Block3	2back/STIM_037.jpg
1762.221	0.328	correct	2back	Block3	2back/STIM_038.jpg
1766.37	0.826	correct	2back	Block3	2back/STIM_038.jpg
1770.536	0.448	correct	2back	Block3	2back/STIM_038.jpg
1774.864	0.855	correct	2back	Block3	2back/STIM_039.jpg
1778.73	0.574	correct	2back	Block3	2back/STIM_039.jpg
1782.948	0.849	correct	2back	Block3	2back/STIM_039.jpg
1787.545	0.53	correct	0back	Block3	0back/STIM_000.jpg
1791.26	0.65	correct	0back	Block3	0back/STIM_000.jpg
1795.342	0.458	correct	0back	Block3	0back/STIM_000.jpg
1799.074	0.482	correct	0back	Block3	0back/STIM_001.jpg
1801.971	0.69	correct	0back	Block3	0back/STIM_001.jpg
1806.037	0.399	correct	0back	Block3	0back/STIM_001.jpg
1808.613	0.422	correct	0back	Block3	0back/STIM_002.jpg
1811.258	0.711	correct	0back	Block3	0back/STIM_002.jpg
1815.934	0.453	correct	0back	Block3	0back/STIM_002.jpg
1819.773	0.625	correct	0back	Block3	0back/STIM_003.jpg
1822.838	0.693	correct	0back	Block3	0back/STIM_003.jpg
1827.472	0.636	correct	0back	Block3	0back/STIM_003.jpg
1831.73	0.475	correct	0back	Block3	0back/STIM_004.jpg
1835.971	0.686	correct	0back	Block3	0back/STIM_004.jpg
1838.809	0.578	incorrect	0back	Block3	0back/STIM_004.jpg
1841.492	0.754	correct	0back	Block3	0back/STIM_005.jpg
1844.613	0.58	correct	0back	Block3	0back/STIM_005.jpg
1848.479	0.382	correct	0back	Block3	0back/STIM_005.jpg
1852.835	0.569	correct	0back	Block3	0back/STIM_006.jpg
1856.422	0.497	correct	0back	Block3	0back/STIM_006.jpg
1859.189	0.413	correct	0back	Block3	0back/STIM_006.jpg
1862.159	0.562	correct	0back	Block3	0back/STIM_007.jpg
1865.047	0.573	correct	0back	Block3	0back/STIM_007.jpg
1867.875	0.508	correct	0back	Block3	0back/STIM_007.jpg
1870.899	0.516	correct	0back	Block3	0back/STIM_008.jpg
1874.773	0.368	correct	0back	Block3	0back/STIM_008.jpg
1877.382	0.345	correct	0back	Block3	0back/STIM_008.jpg
1880.508	0.562	correct	0back	Block3	0back/STIM_009.jpg
1883.68	0.614	correct	0back	Block3	0back/STIM_009.jpg
1887.441	0.424	incorrect	0back	Block3	0back/STIM_009.jpg
1891.407	0.638	correct	0back	Block3	0back/STIM_010.jpg
1894.419	0.737	correct	0back	Block3	0back/STIM_010.jpg
1897.972	0.586	correct	0back	Block3	0back/STIM_010.jpg
1900.945	0.677	correct	0back	Block3	0back/STIM_011.jpg
1904.454	0.746	correct	0back	Block3	0back/STIM_011.jpg
1907.543	0.626	correct	0back	Block3	0back/STIM_011.jpg
1911.14	0.731	correct	0back	Block3	0back/STIM_012.jpg
1915.888	0.442	correct	0back	Block3	0back/STIM_012.jpg
1919.913	0.759	correct	0back	Block3	0back/STIM_012.jpg
1924.458	0.526	correct	0back	Block3	0back/STIM_013.jpg
1927.189	0.444	correct	0back	Block3	0back/STIM_013.jpg
1930.788	0.576	correct	0back	Block3	0back/STIM_013.jpg
1934.749	0.409	correct	0back	Block3	0back/STIM_014.jpg
1938.135	0.681	correct	0back	Block3	0back/STIM_014.jpg
1942.807	0.604	correct	0back	Block3	0back/STIM_014.jpg
1947.323	0.591	correct	0back	Block3	0back/STIM_015.jpg
1950.817	0.638	correct	0back	Block3	0back/STIM_015.jpg
1955.414	0.603	correct	0back	Block3	0back/STIM_015.jpg
1958.425	0.499	correct	0back	Block3	0back/STIM_016.jpg
1962.856	0.38	incorrect	0back	Block3	0back/STIM_016.jpg
1966.847	0.389	correct	0back	Block3	0back/STIM_016.jpg
1971.14	0.661	correct	0back	Block3	0back/STIM_017.jpg
1975.546	0.753	correct	0back	Block3	0back/STIM_017.jpg
1979.701	0.516	incorrect	0back	Block3	0back/STIM_017.jpg
1983.596	0.754	correct	0back	Block3	0back/STIM_018.jpg
1988.295	0.595	correct	0back	Block3	0back/STIM_018.jpg
1992.28	0.622	correct	0back	Block3	0back/STIM_018.jpg
1996.754	0.593	correct	0back	Block3	0back/STIM_019.jpg
1999.76	0.466	correct	0back	Block3	0back/STIM_019.jpg
2002.969	0.54	correct	0back	Block3	0back/STIM_019.jpg
2007.446	0.713	correct	2back	Block4	2back/STIM_000.jpg
2011.16	0.448	correct	2back	Block4	2back/STIM_000.jpg
2014.065	0.358	correct	2back	Block4	2back/STIM_000.jpg
2018.276	1.016	incorrect	2back	Block4	2back/STIM_001.jpg
2022.663	0.511	correct	2back	Block4	2back/STIM_001.jpg
2026.887	0.55	correct	2back	Block4	2back/STIM_001.jpg
2031.253	0.656	correct	2back	Block4	2back/STIM_002.jpg
2035.903	0.611	incorrect	2back	Block4	2back/STIM_002.jpg
2038.847	0.657	correct	2back	Block4	2back/STIM_002.jpg
2041.98	0.523	correct	2back	Block4	2back/STIM_003.jpg
2045.383	0.706	correct	2back	Block4	2back/STIM_003.jpg
2048.899	0.541	correct	2back	Block4	2back/STIM_003.jpg
2053.242	0.644	correct	2back	Block4	2back/STIM_004.jpg
2056.289	0.917	correct	2back	Block4	2back/STIM_004.jpg
2060.047	0.639	correct	2back	Block4	2back/STIM_004.jpg
2062.796	0.92	correct	2back	Block4	2back/STIM_005.jpg
2066.517	0.867	correct	2back	Block4	2back/STIM_005.jpg
2070.14	0.637	correct	2back	Block4	2back/STIM_005.jpg
2073.264	0.796	correct	2back	Block4	2back/STIM_006.jpg
2076.844	0.901	correct	2back	Block4	2back/STIM_006.jpg
2080.955	0.434	correct	2back	Block4	2back/STIM_006.jpg
2084.861	0.859	correct	2back	Block4	2back/STIM_007.jpg
2089.304	0.868	correct	2back	Block4	2back/STIM_007.jpg
2093.773	0.576	correct	2back	Block4	2back/STIM_007.jpg
2096.556	0.485	correct	2back	Block4	2back/STIM_008.jpg
2099.966	0.775	correct	2back	Block4	2back/STIM_008.jpg
2103.043	0.809	correct	2back	Block4	2back/STIM_008.jpg
2106.264	0.901	correct	2back	Block4	2back/STIM_009.jpg
2109.726	0.618	correct	2back	Block4	2back/STIM_009.jpg
2114.296	0.825	correct	2back	Block4	2back/STIM_009.jpg
2117.47	0.976	correct	2back	Block4	2back/STIM_010.jpg
2121.65	0.492	correct	2back	Block4	2back/STIM_010.jpg
2125.975	0.597	correct	2back	Block4	2back/STIM_010.jpg
2130.042	0.901	correct	2back	Block4	2back/STIM_011.jpg
2133.042	0.986	correct	2back	Block4	2back/STIM_011.jpg
2137.885	0.584	correct	2back	Block4	2back/STIM_011.jpg
2141.397	0.546	correct	2back	Block4	2back/STIM_012.jpg
2145.406	0.416	correct	2back	Block4	2back/STIM_012.jpg
2149.644	0.622	correct	2back	Block4	2back/STIM_012.jpg
2152.644	0.402	correct	2back	Block4	2back/STIM_013.jpg
2156.492	0.834	correct	2back	Block4	2back/STIM_013.jpg
2160.59	0.366	correct	2back	Block4	2back/STIM_013.jpg
2163.168	0.762	correct	2back	Block4	2back/STIM_014.jpg
2166.151	0.893	correct	2back	Block4	2back/STIM_014.jpg
2169.537	0.544	correct	2back	Block4	2back/STIM_014.jpg
2173.01	0.887	correct	2back	Block4	2back/STIM_015.jpg
2177.367	0.478	correct	2back	Block4	2back/STIM_015.jpg
2180.343	0.589	correct	2back	Block4	2back/STIM_015.jpg
2183.324	0.471	correct	2back	Block4	2back/STIM_016.jpg
2187.305	0.655	correct	2back	Block4	2back/STIM_016.jpg
2191.109	0.845	correct	2back	Block4	2back/STIM_016.jpg
2194.923	0.708	correct	2back	Block4	2back/STIM_017.jpg
2199.49	0.743	correct	2back	Block4	2back/STIM_017.jpg
2202.215	0.764	correct	2back	Block4	2back/STIM_017.jpg
2206.324	0.604	correct	2back	Block4	2back/STIM_018.jpg
2209.118	0.479	correct	2back	Block4	2back/STIM_018.jpg
2212.073	0.504	correct	2back	Block4	2back/STIM_018.jpg
2216.308	0.684	correct	2back	Block4	2back/STIM_019.jpg
2220.297	0.588	correct	2back	Block4	2back/STIM_019.jpg
2223.908	0.596	correct	2back	Block4	2back/STIM_019.jpg
2226.87	0.442	correct	2back	Block4	2back/STIM_020.jpg
2230.138	0.781	correct	2back	Block4	2back/STIM_020.jpg
2233.282	0.748	correct	2back	Block4	2back/STIM_020.jpg
2236.673	0.732	correct	2back	Block4	2back/STIM_021.jpg
2241.138	0.482	correct	2back	Block4	2back/STIM_021.jpg
2244.624	0.607	correct	2back	Block4	2back/STIM_021.jpg
2248.37	0.87	correct	2back	Block4	2back/STIM_022.jpg
2251.803	0.958	correct	2back	Block4	2back/STIM_022.jpg
2255.41	0.852	correct	2back	Block4	2back/STIM_022.jpg
2258.948	0.606	incorrect	2back	Block4	2back/STIM_023.jpg
2262.709	0.873	correct	2back	Block4	2back/STIM_023.jpg
2267.023	0.939	correct	2back	Block4	2back/STIM_023.jpg
2271.92	0.669	correct	2back	Block4	2back/STIM_024.jpg
2275.683	0.812	correct	2back	Block4	2back/STIM_024.jpg
2279.168	0.784	correct	2back	Block4	2back/STIM_024.jpg
2283.27	0.444	correct	2back	Block4	2back/STIM_025.jpg
2286.86	0.401	correct	2back	Block4	2back/STIM_025.jpg
2291.214	0.706	correct	2back	Block4	2back/STIM_025.jpg
2295.079	0.564	correct	2back	Block4	2back/STIM_026.jpg
2298.625	0.755	correct	2back	Block4	2back/STIM_026.jpg
2301.671	0.544	correct	2back	Block4	2back/STIM_026.jpg
2304.882	0.581	incorrect	2back	Block4	2back/STIM_027.jpg
2308.586	0.619	correct	2back	Block4	2back/STIM_027.jpg
2311.869	0.792	correct	2back	Block4	2back/STIM_027.jpg
2315.038	0.389	correct	2back	Block4	2back/STIM_028.jpg
2317.974	0.687	correct	2back	Block4	2back/STIM_028.jpg
2321.884	0.622	correct	2back	Block4	2back/STIM_028.jpg
2325.269	0.702	correct	2back	Block4	2back/STIM_029.jpg
2328.771	0.566	correct	2back	Block4	2back/STIM_029.jpg
2331.507	0.804	correct	2back	Block4	2back/STIM_029.jpg
2335.412	0.582	correct	2back	Block4	2back/STIM_030.jpg
2338.911	0.831	correct	2back	Block4	2back/STIM_030.jpg
2342.037	0.786	correct	2back	Block4	2back/STIM_030.jpg
2346.68	0.618	correct	2back	Block4	2back/STIM_031.jpg
2350.113	0.534	correct	2back	Block4	2back/STIM_031.jpg
2353.216	0.796	correct	2back	Block4	2back/STIM_031.jpg
2356.837	0.715	correct	2back	Block4	2back/STIM_032.jpg
2360.277	0.826	correct	2back	Block4	2back/STIM_032.jpg
2364.641	0.719	correct	2back	Block4	2back/STIM_032.jpg
2368.512	0.647	correct	2back	Block4	2back/STIM_033.jpg
2372.795	0.604	correct	2back	Block4	2back/STIM_033.jpg
2376.773	0.615	correct	2back	Block4	2back/STIM_033.jpg
2381.135	0.47	correct	2back	Block4	2back/STIM_034.jpg
2384.198	0.451	correct	2back	Block4	2back/STIM_034.jpg
2386.892	0.98	correct	2back	Block4	2back/STIM_034.jpg
2390.049	0.836	correct	2back	Block4	2back/STIM_035.jpg
2394.81	0.806	correct	2back	Block4	2back/STIM_035.jpg
2399.226	0.994	correct	2back	Block4	2back/STIM_035.jpg
2403.592	0.488	correct	2back	Block4	2back/STIM_036.jpg
2407.208	0.855	correct	2back	Block4	2back/STIM_036.jpg
2411.554	0.553	correct	2back	Block4	2back/STIM_036.jpg
2415.109	0.788	correct	2back	Block4	2back/STIM_037.jpg
2418.315	0.478	correct	2back	Block4	2back/STIM_037.jpg
2422.793	0.677	correct	2back	Block4	2back/STIM_037.jpg
2426.004	0.572	correct	2back	Block4	2back/STIM_038.jpg
2429.524	0.673	correct	2back	Block4	2back/STIM_038.jpg
2432.667	0.414	correct	2back	Block4	2back/STIM_038.jpg
2435.722	0.651	correct	2back	Block4	2back/STIM_039.jpg
2440.014	0.59	correct	2back	Block4	2back/STIM_039.jpg
2442.883	0.579	correct	2back	Block4	2back/STIM_039.jpg
2445.598	0.637	correct	0back	Block4	0back/STIM_000.jpg
2448.475	0.448	correct	0back	Block4	0back/STIM_000.jpg
2452.242	0.719	correct	0back	Block4	0back/STIM_000.jpg
2455.323	0.756	correct	0back	Block4	0back/STIM_001.jpg
2458.773	0.608	correct	0back	Block4	0back/STIM_001.jpg
2461.799	0.499	correct	0back	Block4	0back/STIM_001.jpg
2464.414	0.419	correct	0back	Block4	0back/STIM_002.jpg
2467.883	0.399	correct	0back	Block4	0back/STIM_002.jpg
2472.343	0.622	correct	0back	Block4	0back/STIM_002.jpg
2476.103	0.537	correct	0back	Block4	0back/STIM_003.jpg
2478.849	0.358	correct	0back	Block4	0back/STIM_003.jpg
2482.584	0.339	correct	0back	Block4	0back/STIM_003.jpg
2485.135	0.674	correct	0back	Block4	0back/STIM_004.jpg
2488.282	0.744	correct	0back	Block4	0back/STIM_004.jpg
2492.275	0.498	correct	0back	Block4	0back/STIM_004.jpg
2495.247	0.69	correct	0back	Block4	0back/STIM_005.jpg
2499.962	0.535	correct	0back	Block4	0back/STIM_005.jpg
2503.9	0.822	correct	0back	Block4	0back/STIM_005.jpg
2507.936	0.665	correct	0back	Block4	0back/STIM_006.jpg
2512.291	0.507	correct	0back	Block4	0back/STIM_006.jpg
2516.157	0.526	correct	0back	Block4	0back/STIM_006.jpg
2519.506	0.844	correct	0back	Block4	0back/STIM_007.jpg
2522.43	0.664	correct	0back	Block4	0back/STIM_007.jpg
2527.042	0.29	correct	0back	Block4	0back/STIM_007.jpg
2530.646	0.686	correct	0back	Block4	0back/STIM_008.jpg
2534.739	0.727	incorrect	0back	Block4	0back/STIM_008.jpg
2537.717	0.704	correct	0back	Block4	0back/STIM_008.jpg
2541.086	0.552	correct	0back	Block4	0back/STIM_009.jpg
2544.727	0.596	correct	0back	Block4	0back/STIM_009.jpg
2548.675	0.686	correct	0back	Block4	0back/STIM_009.jpg
2552.175	0.467	correct	0back	Block4	0back/STIM_010.jpg
2554.741	0.462	correct	0back	Block4	0back/STIM_010.jpg
2558.01	0.628	correct	0back	Block4	0back/STIM_010.jpg
2561.871	0.423	correct	0back	Block4	0back/STIM_011.jpg
2564.471	0.386	correct	0back	Block4	0back/STIM_011.jpg
2567.214	0.655	correct	0back	Block4	0back/STIM_011.jpg
2570.981	0.754	correct	0back	Block4	0back/STIM_012.jpg
2575.173	0.725	correct	0back	Block4	0back/STIM_012.jpg
2579.312	0.475	correct	0back	Block4	0back/STIM_012.jpg
2583.185	0.53	correct	0back	Block4	0back/STIM_013.jpg
2586.162	0.731	correct	0back	Block4	0back/STIM_013.jpg
2590.481	0.495	correct	0back	Block4	0back/STIM_013.jpg
2593.069	0.657	correct	0back	Block4	0back/STIM_014.jpg
2596.454	0.634	correct	0back	Block4	0back/STIM_014.jpg
2600.729	0.774	correct	0back	Block4	0back/STIM_014.jpg
2605.019	0.546	correct	0back	Block4	0back/STIM_015.jpg
2607.623	0.674	correct	0back	Block4	0back/STIM_015.jpg
2610.881	0.729	correct	0back	Block4	0back/STIM_015.jpg
2613.964	0.775	correct	0back	Block4	0back/STIM_016.jpg
2618.199	0.585	correct	0back	Block4	0back/STIM_016.jpg
2621.294	0.537	correct	0back	Block4	0back/STIM_016.jpg
2625.023	0.509	correct	0back	Block4	0back/STIM_017.jpg
2627.755	0.748	correct	0back	Block4	0back/STIM_017.jpg
2630.872	0.721	correct	0back	Block4	0back/STIM_017.jpg
2635.146	0.452	correct	0back	Block4	0back/STIM_018.jpg
2638.743	0.412	correct	0back	Block4	0back/STIM_018.jpg
2641.88	0.594	correct	0back	Block4	0back/STIM_018.jpg
2646.304	0.623	incorrect	0back	Block4	0back/STIM_019.jpg
2650.104	0.622	correct	0back	Block4	0back/STIM_019.jpg
2653.817	0.742	correct	0back	Block4	0back/STIM_019.jpg
