onset	duration	accuracy_binary	trial_type	learning_stage	stimulus
0.0	0.775	0	2back	Block1	2back/STIM_000.jpg
3.952	0.997	0	2back	Block1	2back/STIM_000.jpg
8.264	1.264	1	2back	Block1	2back/STIM_000.jpg
11.983	0.796	0	2back	Block1	2back/STIM_001.jpg
15.617	1.306	1	2back	Block1	2back/STIM_001.jpg
20.486	1.32	0	2back	Block1	2back/STIM_001.jpg
23.922	1.501	1	2back	Block1	2back/STIM_002.jpg
27.773	0.645	1	2back	Block1	2back/STIM_002.jpg
32.156	1.344	0	2back	Block1	2back/STIM_002.jpg
36.93	1.248	1	2back	Block1	2back/STIM_003.jpg
40.993	0.869	0	2back	Block1	2back/STIM_003.jpg
44.524	0.81	1	2back	Block1	2back/STIM_003.jpg
48.223	1.246	0	2back	Block1	2back/STIM_004.jpg
52.694	0.853	1	2back	Block1	2back/STIM_004.jpg
57.412	1.371	1	2back	Block1	2back/STIM_004.jpg
61.744	1.228	1	2back	Block1	2back/STIM_005.jpg
65.779	1.364	1	2back	Block1	2back/STIM_005.jpg
69.401	0.696	0	2back	Block1	2back/STIM_005.jpg
72.103	1.44	0	2back	Block1	2back/STIM_006.jpg
75.902	1.193	1	2back	Block1	2back/STIM_006.jpg
80.252	0.895	1	2back	Block1	2back/STIM_006.jpg
85.068	1.282	0	2back	Block1	2back/STIM_007.jpg
89.504	0.773	1	2back	Block1	2back/STIM_007.jpg
92.325	0.884	0	2back	Block1	2back/STIM_007.jpg
96.118	0.822	0	2back	Block1	2back/STIM_008.jpg
99.319	1.408	1	2back	Block1	2back/STIM_008.jpg
102.73	1.237	1	2back	Block1	2back/STIM_008.jpg
106.353	1.197	1	2back	Block1	2back/STIM_009.jpg
109.807	0.676	0	2back	Block1	2back/STIM_009.jpg
113.439	1.368	1	2back	Block1	2back/STIM_009.jpg
117.987	1.432	1	2back	Block1	2back/STIM_010.jpg
122.886	0.992	1	2back	Block1	2back/STIM_010.jpg
127.311	0.609	0	2back	Block1	2back/STIM_010.jpg
131.341	1.339	1	2back	Block1	2back/STIM_011.jpg
135.577	0.798	1	2back	Block1	2back/STIM_011.jpg
139.04	0.797	1	2back	Block1	2back/STIM_011.jpg
142.055	1.018	1	2back	Block1	2back/STIM_012.jpg
146.672	0.951	0	2back	Block1	2back/STIM_012.jpg
149.654	0.905	0	2back	Block1	2back/STIM_012.jpg
154.253	0.85	1	2back	Block1	2back/STIM_013.jpg
157.412	0.941	1	2back	Block1	2back/STIM_013.jpg
160.457	1.341	1	2back	Block1	2back/STIM_013.jpg
165.628	1.42	1	2back	Block1	2back/STIM_014.jpg
170.401	1.423	0	2back	Block1	2back/STIM_014.jpg
175.745	1.083	1	2back	Block1	2back/STIM_014.jpg
179.651	0.829	1	2back	Block1	2back/STIM_015.jpg
184.137	1.277	0	2back	Block1	2back/STIM_015.jpg
188.384	1.375	0	2back	Block1	2back/STIM_015.jpg
193.551	1.073	0	2back	Block1	2back/STIM_016.jpg
198.138	1.252	0	2back	Block1	2back/STIM_016.jpg
202.634	1.396	1	2back	Block1	2back/STIM_016.jpg
207.731	1.019	0	2back	Block1	2back/STIM_017.jpg
211.074	1.036	0	2back	Block1	2back/STIM_017.jpg
215.89	1.388	0	2back	Block1	2back/STIM_017.jpg
219.719	1.35	0	2back	Block1	2back/STIM_018.jpg
224.905	1.396	1	2back	Block1	2back/STIM_018.jpg
228.597	1.15	1	2back	Block1	2back/STIM_018.jpg
233.067	1.371	0	2back	Block1	2back/STIM_019.jpg
238.307	1.128	0	2back	Block1	2back/STIM_019.jpg
242.344	1.038	0	2back	Block1	2back/STIM_019.jpg
245.614	1.128	1	2back	Block1	2back/STIM_020.jpg
249.878	0.783	0	2back	Block1	2back/STIM_020.jpg
254.354	1.288	1	2back	Block1	2back/STIM_020.jpg
258.832	0.863	0	2back	Block1	2back/STIM_021.jpg
263.201	1.36	1	2back	Block1	2back/STIM_021.jpg
266.875	1.263	0	2back	Block1	2back/STIM_021.jpg
270.369	0.921	0	2back	Block1	2back/STIM_022.jpg
274.934	1.451	1	2back	Block1	2back/STIM_022.jpg
279.557	1.28	1	2back	Block1	2back/STIM_022.jpg
283.351	1.102	0	2back	Block1	2back/STIM_023.jpg
288.178	0.893	1	2back	Block1	2back/STIM_023.jpg
292.959	0.996	1	2back	Block1	2back/STIM_023.jpg
296.099	1.44	0	2back	Block1	2back/STIM_024.jpg
300.884	0.882	1	2back	Block1	2back/STIM_024.jpg
305.349	0.869	1	2back	Block1	2back/STIM_024.jpg
308.543	1.159	1	2back	Block1	2back/STIM_025.jpg
313.012	1.441	1	2back	Block1	2back/STIM_025.jpg
316.907	0.759	1	2back	Block1	2back/STIM_025.jpg
320.957	1.324	1	2back	Block1	2back/STIM_026.jpg
325.432	0.715	1	2back	Block1	2back/STIM_026.jpg
330.114	0.739	0	2back	Block1	2back/STIM_026.jpg
333.109	0.858	1	2back	Block1	2back/STIM_027.jpg
337.16	0.658	1	2back	Block1	2back/STIM_027.jpg
340.681	0.815	0	2back	Block1	2back/STIM_027.jpg
344.589	0.943	1	2back	Block1	2back/STIM_028.jpg
348.93	1.095	1	2back	Block1	2back/STIM_028.jpg
352.106	0.756	1	2back	Block1	2back/STIM_028.jpg
355.255	1.455	1	2back	Block1	2back/STIM_029.jpg
359.482	0.802	1	2back	Block1	2back/STIM_029.jpg
363.163	0.837	0	2back	Block1	2back/STIM_029.jpg
367.199	0.88	0	2back	Block1	2back/STIM_030.jpg
370.806	1.269	1	2back	Block1	2back/STIM_030.jpg
376.052	1.227	0	2back	Block1	2back/STIM_030.jpg
379.616	0.76	0	2back	Block1	2back/STIM_031.jpg
382.629	0.993	0	2back	Block1	2back/STIM_031.jpg
386.52	1.412	1	2back	Block1	2back/STIM_031.jpg
390.4	0.924	1	2back	Block1	2back/STIM_032.jpg
393.681	0.909	1	2back	Block1	2back/STIM_032.jpg
398.234	1.142	1	2back	Block1	2back/STIM_032.jpg
402.688	1.102	1	2back	Block1	2back/STIM_033.jpg
406.532	1.279	0	2back	Block1	2back/STIM_033.jpg
410.92	1.23	1	2back	Block1	2back/STIM_033.jpg
414.161	0.898	1	2back	Block1	2back/STIM_034.jpg
417.508	1.12	1	2back	Block1	2back/STIM_034.jpg
422.507	1.33	0	2back	Block1	2back/STIM_034.jpg
426.645	1.379	1	2back	Block1	2back/STIM_035.jpg
431.805	0.801	1	2back	Block1	2back/STIM_035.jpg
435.823	1.042	1	2back	Block1	2back/STIM_035.jpg
439.01	1.36	1	2back	Block1	2back/STIM_036.jpg
444.293	0.967	0	2back	Block1	2back/STIM_036.jpg
448.833	0.906	1	2back	Block1	2back/STIM_036.jpg
453.426	1.16	1	2back	Block1	2back/STIM_037.jpg
456.65	1.393	0	2back	Block1	2back/STIM_037.jpg
460.142	1.227	1	2back	Block1	2back/STIM_037.jpg
464.647	0.772	0	2back	Block1	2back/STIM_038.jpg
467.679	1.029	1	2back	Block1	2back/STIM_038.jpg
472.503	1.392	1	2back	Block1	2back/STIM_038.jpg
477.142	0.794	1	2back	Block1	2back/STIM_039.jpg
481.566	1.314	1	2back	Block1	2back/STIM_039.jpg
485.243	0.897	0	2back	Block1	2back/STIM_039.jpg
489.308	0.505	1	0back	Block1	0back/STIM_000.jpg
491.975	0.454	1	0back	Block1	0back/STIM_000.jpg
495.291	0.831	1	0back	Block1	0back/STIM_000.jpg
499.874	0.85	1	0back	Block1	0back/STIM_001.jpg
503.169	0.61	0	0back	Block1	0back/STIM_001.jpg
506.951	0.72	1	0back	Block1	0back/STIM_001.jpg
510.976	0.673	1	0back	Block1	0back/STIM_002.jpg
514.218	0.89	1	0back	Block1	0back/STIM_002.jpg
518.202	0.723	0	0back	Block1	0back/STIM_002.jpg
520.933	0.628	1	0back	Block1	0back/STIM_003.jpg
523.754	0.524	1	0back	Block1	0back/STIM_003.jpg
526.906	0.526	1	0back	Block1	0back/STIM_003.jpg
529.97	0.724	1	0back	Block1	0back/STIM_004.jpg
533.276	0.781	1	0back	Block1	0back/STIM_004.jpg
537.242	0.557	1	0back	Block1	0back/STIM_004.jpg
540.266	0.643	1	0back	Block1	0back/STIM_005.jpg
543.832	0.456	1	0back	Block1	0back/STIM_005.jpg
547.13	0.749	0	0back	Block1	0back/STIM_005.jpg
550.387	0.781	1	0back	Block1	0back/STIM_006.jpg
553.675	0.68	0	0back	Block1	0back/STIM_006.jpg
558.273	0.666	1	0back	Block1	0back/STIM_006.jpg
561.079	0.54	1	0back	Block1	0back/STIM_007.jpg
564.614	0.592	1	0back	Block1	0back/STIM_007.jpg
569.155	0.649	1	0back	Block1	0back/STIM_007.jpg
573.403	0.819	1	0back	Block1	0back/STIM_008.jpg
577.317	0.598	1	0back	Block1	0back/STIM_008.jpg
580.016	0.697	1	0back	Block1	0back/STIM_008.jpg
583.172	0.76	1	0back	Block1	0back/STIM_009.jpg
586.162	0.698	1	0back	Block1	0back/STIM_009.jpg
590.14	0.708	1	0back	Block1	0back/STIM_009.jpg
593.13	0.488	1	0back	Block1	0back/STIM_010.jpg
596.318	0.731	1	0back	Block1	0back/STIM_010.jpg
599.959	0.807	1	0back	Block1	0back/STIM_010.jpg
603.75	0.724	0	0back	Block1	0back/STIM_011.jpg
606.909	0.684	0	0back	Block1	0back/STIM_011.jpg
610.009	0.664	1	0back	Block1	0back/STIM_011.jpg
613.859	0.65	1	0back	Block1	0back/STIM_012.jpg
617.65	0.734	1	0back	Block1	0back/STIM_012.jpg
621.464	0.73	1	0back	Block1	0back/STIM_012.jpg
625.398	0.591	0	0back	Block1	0back/STIM_013.jpg
629.932	0.714	1	0back	Block1	0back/STIM_013.jpg
634.06	0.669	1	0back	Block1	0back/STIM_013.jpg
638.249	0.693	1	0back	Block1	0back/STIM_014.jpg
642.055	0.64	1	0back	Block1	0back/STIM_014.jpg
645.818	0.653	0	0back	Block1	0back/STIM_014.jpg
650.394	0.483	1	0back	Block1	0back/STIM_015.jpg
653.332	0.851	1	0back	Block1	0back/STIM_015.jpg
656.446	0.581	1	0back	Block1	0back/STIM_015.jpg
659.3	0.567	1	0back	Block1	0back/STIM_016.jpg
662.866	0.502	1	0back	Block1	0back/STIM_016.jpg
666.626	0.886	1	0back	Block1	0back/STIM_016.jpg
671.352	0.513	1	0back	Block1	0back/STIM_017.jpg
674.946	0.771	1	0back	Block1	0back/STIM_017.jpg
678.135	0.546	1	0back	Block1	0back/STIM_017.jpg
680.83	0.459	1	0back	Block1	0back/STIM_018.jpg
684.717	0.855	0	0back	Block1	0back/STIM_018.jpg
688.87	0.868	1	0back	Block1	0back/STIM_018.jpg
692.657	0.497	1	0back	Block1	0back/STIM_019.jpg
696.525	0.809	1	0back	Block1	0back/STIM_019.jpg
699.391	0.871	1	0back	Block1	0back/STIM_019.jpg
702.434	0.783	1	2back	Block2	2back/STIM_000.jpg
707.212	0.791	1	2back	Block2	2back/STIM_000.jpg
711.014	1.018	1	2back	Block2	2back/STIM_000.jpg
715.366	1.197	1	2back	Block2	2back/STIM_001.jpg
720.052	1.256	1	2back	Block2	2back/STIM_001.jpg
724.586	0.878	1	2back	Block2	2back/STIM_001.jpg
728.589	0.645	0	2back	Block2	2back/STIM_002.jpg
731.874	0.658	1	2back	Block2	2back/STIM_002.jpg
736.518	0.979	1	2back	Block2	2back/STIM_002.jpg
741.311	1.171	1	2back	Block2	2back/STIM_003.jpg
745.215	0.862	1	2back	Block2	2back/STIM_003.jpg
749.357	0.532	1	2back	Block2	2back/STIM_003.jpg
752.295	1.224	1	2back	Block2	2back/STIM_004.jpg
756.916	0.73	0	2back	Block2	2back/STIM_004.jpg
760.968	1.152	1	2back	Block2	2back/STIM_004.jpg
764.726	0.688	1	2back	Block2	2back/STIM_005.jpg
769.257	0.582	0	2back	Block2	2back/STIM_005.jpg
773.104	1.068	0	2back	Block2	2back/STIM_005.jpg
777.52	1.069	1	2back	Block2	2back/STIM_006.jpg
781.648	0.725	0	2back	Block2	2back/STIM_006.jpg
784.494	0.619	0	2back	Block2	2back/STIM_006.jpg
789.093	1.218	1	2back	Block2	2back/STIM_007.jpg
793.603	0.648	1	2back	Block2	2back/STIM_007.jpg
796.386	0.719	1	2back	Block2	2back/STIM_007.jpg
800.298	0.964	1	2back	Block2	2back/STIM_008.jpg
805.211	1.225	1	2back	Block2	2back/STIM_008.jpg
809.626	1.023	1	2back	Block2	2back/STIM_008.jpg
813.003	1.148	0	2back	Block2	2back/STIM_009.jpg
816.529	1.195	1	2back	Block2	2back/STIM_009.jpg
820.138	0.536	1	2back	Block2	2back/STIM_009.jpg
823.271	0.715	1	2back	Block2	2back/STIM_010.jpg
827.347	1.116	1	2back	Block2	2back/STIM_010.jpg
831.732	0.836	0	2back	Block2	2back/STIM_010.jpg
836.292	0.663	0	2back	Block2	2back/STIM_011.jpg
840.457	1.038	1	2back	Block2	2back/STIM_011.jpg
844.168	1.158	1	2back	Block2	2back/STIM_011.jpg
848.207	0.819	1	2back	Block2	2back/STIM_012.jpg
852.775	1.023	1	2back	Block2	2back/STIM_012.jpg
856.86	1.161	1	2back	Block2	2back/STIM_012.jpg
861.506	1.328	1	2back	Block2	2back/STIM_013.jpg
866.294	1.009	1	2back	Block2	2back/STIM_013.jpg
870.339	0.933	0	2back	Block2	2back/STIM_013.jpg
873.61	0.873	1	2back	Block2	2back/STIM_014.jpg
878.439	0.788	1	2back	Block2	2back/STIM_014.jpg
882.527	0.509	0	2back	Block2	2back/STIM_014.jpg
886.799	0.837	0	2back	Block2	2back/STIM_015.jpg
890.701	0.597	0	2back	Block2	2back/STIM_015.jpg
893.571	1.154	1	2back	Block2	2back/STIM_015.jpg
898.313	1.291	0	2back	Block2	2back/STIM_016.jpg
901.733	0.663	1	2back	Block2	2back/STIM_016.jpg
904.826	0.668	1	2back	Block2	2back/STIM_016.jpg
908.799	1.136	1	2back	Block2	2back/STIM_017.jpg
913.055	1.166	0	2back	Block2	2back/STIM_017.jpg
918.032	0.965	1	2back	Block2	2back/STIM_017.jpg
921.498	0.774	1	2back	Block2	2back/STIM_018.jpg
925.222	1.204	1	2back	Block2	2back/STIM_018.jpg
929.899	0.661	0	2back	Block2	2back/STIM_018.jpg
934.153	0.897	1	2back	Block2	2back/STIM_019.jpg
938.563	0.853	0	2back	Block2	2back/STIM_019.jpg
942.308	0.591	1	2back	Block2	2back/STIM_019.jpg
945.648	1.312	1	2back	Block2	2back/STIM_020.jpg
949.099	1.06	1	2back	Block2	2back/STIM_020.jpg
952.753	1.0	1	2back	Block2	2back/STIM_020.jpg
956.09	0.698	1	2back	Block2	2back/STIM_021.jpg
960.655	0.718	1	2back	Block2	2back/STIM_021.jpg
963.645	1.101	0	2back	Block2	2back/STIM_021.jpg
967.504	1.307	1	2back	Block2	2back/STIM_022.jpg
972.508	0.799	1	2back	Block2	2back/STIM_022.jpg
975.729	0.772	1	2back	Block2	2back/STIM_022.jpg
979.196	0.666	0	2back	Block2	2back/STIM_023.jpg
982.266	0.847	0	2back	Block2	2back/STIM_023.jpg
985.378	1.063	1	2back	Block2	2back/STIM_023.jpg
988.783	1.03	1	2back	Block2	2back/STIM_024.jpg
993.159	0.733	1	2back	Block2	2back/STIM_024.jpg
997.05	0.632	0	2back	Block2	2back/STIM_024.jpg
999.751	1.122	1	2back	Block2	2back/STIM_025.jpg
1003.722	0.793	0	2back	Block2	2back/STIM_025.jpg
1007.761	0.662	1	2back	Block2	2back/STIM_025.jpg
1012.377	1.239	1	2back	Block2	2back/STIM_026.jpg
1017.202	1.154	0	2back	Block2	2back/STIM_026.jpg
1022.058	0.877	0	2back	Block2	2back/STIM_026.jpg
1025.262	0.758	1	2back	Block2	2back/STIM_027.jpg
1028.757	1.166	1	2back	Block2	2back/STIM_027.jpg
1031.975	0.72	1	2back	Block2	2back/STIM_027.jpg
1035.087	0.634	1	2back	Block2	2back/STIM_028.jpg
1039.254	1.05	1	2back	Block2	2back/STIM_028.jpg
1042.342	0.934	1	2back	Block2	2back/STIM_028.jpg
1045.319	0.61	1	2back	Block2	2back/STIM_029.jpg
1048.047	0.644	0	2back	Block2	2back/STIM_029.jpg
1052.639	0.823	1	2back	Block2	2back/STIM_029.jpg
1057.004	1.304	0	2back	Block2	2back/STIM_030.jpg
1062.218	0.799	0	2back	Block2	2back/STIM_030.jpg
1066.958	1.047	1	2back	Block2	2back/STIM_030.jpg
1071.445	1.28	1	2back	Block2	2back/STIM_031.jpg
1076.242	0.958	0	2back	Block2	2back/STIM_031.jpg
1079.907	0.516	0	2back	Block2	2back/STIM_031.jpg
1083.394	1.032	1	2back	Block2	2back/STIM_032.jpg
1088.044	0.907	1	2back	Block2	2back/STIM_032.jpg
1091.603	0.918	0	2back	Block2	2back/STIM_032.jpg
1096.467	1.004	0	2back	Block2	2back/STIM_033.jpg
1099.482	0.761	1	2back	Block2	2back/STIM_033.jpg
1102.427	0.562	1	2back	Block2	2back/STIM_033.jpg
1105.079	0.638	0	2back	Block2	2back/STIM_034.jpg
1108.667	0.8	0	2back	Block2	2back/STIM_034.jpg
1112.071	0.768	1	2back	Block2	2back/STIM_034.jpg
1115.504	0.947	1	2back	Block2	2back/STIM_035.jpg
1119.389	0.692	1	2back	Block2	2back/STIM_035.jpg
1122.108	0.885	1	2back	Block2	2back/STIM_035.jpg
1125.031	1.061	1	2back	Block2	2back/STIM_036.jpg
1129.432	0.602	1	2back	Block2	2back/STIM_036.jpg
1133.351	0.667	1	2back	Block2	2back/STIM_036.jpg
1136.528	1.018	0	2back	Block2	2back/STIM_037.jpg
1139.885	1.078	1	2back	Block2	2back/STIM_037.jpg
1143.489	0.97	0	2back	Block2	2back/STIM_037.jpg
1147.835	0.734	0	2back	Block2	2back/STIM_038.jpg
1151.304	0.851	0	2back	Block2	2back/STIM_038.jpg
1154.569	0.513	1	2back	Block2	2back/STIM_038.jpg
1158.834	1.054	1	2back	Block2	2back/STIM_039.jpg
1163.193	0.935	0	2back	Block2	2back/STIM_039.jpg
1167.216	0.717	1	2back	Block2	2back/STIM_039.jpg
1171.555	0.69	1	0back	Block2	0back/STIM_000.jpg
1175.811	0.872	0	0back	Block2	0back/STIM_000.jpg
1179.628	0.845	0	0back	Block2	0back/STIM_000.jpg
1183.68	0.788	1	0back	Block2	0back/STIM_001.jpg
1187.558	0.747	1	0back	Block2	0back/STIM_001.jpg
1190.731	0.787	1	0back	Block2	0back/STIM_001.jpg
1195.233	0.511	1	0back	Block2	0back/STIM_002.jpg
1198.904	0.539	1	0back	Block2	0back/STIM_002.jpg
1203.373	0.542	1	0back	Block2	0back/STIM_002.jpg
1206.149	0.458	1	0back	Block2	0back/STIM_003.jpg
1209.469	0.482	0	0back	Block2	0back/STIM_003.jpg
1212.801	0.744	1	0back	Block2	0back/STIM_003.jpg
1215.853	0.828	0	0back	Block2	0back/STIM_004.jpg
1219.428	0.694	1	0back	Block2	0back/STIM_004.jpg
1223.209	0.864	0	0back	Block2	0back/STIM_004.jpg
1227.743	0.715	1	0back	Block2	0back/STIM_005.jpg
1230.631	0.666	1	0back	Block2	0back/STIM_005.jpg
1235.241	0.478	1	0back	Block2	0back/STIM_005.jpg
1238.277	0.768	1	0back	Block2	0back/STIM_006.jpg
1242.189	0.602	1	0back	Block2	0back/STIM_006.jpg
1246.675	0.725	1	0back	Block2	0back/STIM_006.jpg
1251.301	0.733	1	0back	Block2	0back/STIM_007.jpg
1256.024	0.534	1	0back	Block2	0back/STIM_007.jpg
1258.866	0.887	0	0back	Block2	0back/STIM_007.jpg
1263.109	0.748	0	0back	Block2	0back/STIM_008.jpg
1266.223	0.572	1	0back	Block2	0back/STIM_008.jpg
1269.684	0.871	1	0back	Block2	0back/STIM_008.jpg
1273.235	0.502	1	0back	Block2	0back/STIM_009.jpg
1276.08	0.554	1	0back	Block2	0back/STIM_009.jpg
1278.64	0.738	0	0back	Block2	0back/STIM_009.jpg
1282.358	0.678	1	0back	Block2	0back/STIM_010.jpg
1285.771	0.779	1	0back	Block2	0back/STIM_010.jpg
1288.931	0.714	0	0back	Block2	0back/STIM_010.jpg
1292.539	0.726	1	0back	Block2	0back/STIM_011.jpg
1297.215	0.534	1	0back	Block2	0back/STIM_011.jpg
1301.475	0.872	1	0back	Block2	0back/STIM_011.jpg
1306.13	0.49	0	0back	Block2	0back/STIM_012.jpg
1308.968	0.512	0	0back	Block2	0back/STIM_012.jpg
1311.916	0.571	1	0back	Block2	0back/STIM_012.jpg
1315.777	0.777	1	0back	Block2	0back/STIM_013.jpg
1319.487	0.871	1	0back	Block2	0back/STIM_013.jpg
1322.465	0.668	1	0back	Block2	0back/STIM_013.jpg
1326.676	0.873	1	0back	Block2	0back/STIM_014.jpg
1330.19	0.892	1	0back	Block2	0back/STIM_014.jpg
1334.461	0.634	0	0back	Block2	0back/STIM_014.jpg
1338.457	0.689	1	0back	Block2	0back/STIM_015.jpg
1342.415	0.588	0	0back	Block2	0back/STIM_015.jpg
1346.324	0.684	0	0back	Block2	0back/STIM_015.jpg
1349.207	0.705	0	0back	Block2	0back/STIM_016.jpg
1352.446	0.568	0	0back	Block2	0back/STIM_016.jpg
1355.171	0.879	1	0back	Block2	0back/STIM_016.jpg
1358.381	0.651	1	0back	Block2	0back/STIM_017.jpg
1361.426	0.588	0	0back	Block2	0back/STIM_017.jpg
1365.334	0.479	1	0back	Block2	0back/STIM_017.jpg
1368.455	0.504	1	0back	Block2	0back/STIM_018.jpg
1372.786	0.83	1	0back	Block2	0back/STIM_018.jpg
1376.302	0.74	1	0back	Block2	0back/STIM_018.jpg
1379.889	0.765	1	0back	Block2	0back/STIM_019.jpg
1383.688	0.735	1	0back	Block2	0back/STIM_019.jpg
1386.955	0.758	1	0back	Block2	0back/STIM_019.jpg
1390.543	0.586	1	2back	Block3	2back/STIM_000.jpg
1395.065	0.524	0	2back	Block3	2back/STIM_000.jpg
1397.878	0.537	1	2back	Block3	2back/STIM_000.jpg
1401.766	0.631	1	2back	Block3	2back/STIM_001.jpg
1406.121	0.552	1	2back	Block3	2back/STIM_001.jpg
1409.992	0.75	1	2back	Block3	2back/STIM_001.jpg
1413.172	0.78	1	2back	Block3	2back/STIM_002.jpg
1417.441	0.54	1	2back	Block3	2back/STIM_002.jpg
1421.454	0.692	1	2back	Block3	2back/STIM_002.jpg
1425.447	0.958	1	2back	Block3	2back/STIM_003.jpg
1428.99	0.918	1	2back	Block3	2back/STIM_003.jpg
1432.337	0.795	1	2back	Block3	2back/STIM_003.jpg
1436.161	0.487	1	2back	Block3	2back/STIM_004.jpg
1438.951	0.668	1	2back	Block3	2back/STIM_004.jpg
1441.657	0.686	1	2back	Block3	2back/STIM_004.jpg
1444.969	0.801	1	2back	Block3	2back/STIM_005.jpg
1447.777	0.728	1	2back	Block3	2back/STIM_005.jpg
1451.429	0.843	1	2back	Block3	2back/STIM_005.jpg
1456.065	0.994	0	2back	Block3	2back/STIM_006.jpg
1460.313	1.066	1	2back	Block3	2back/STIM_006.jpg
1463.709	0.506	1	2back	Block3	2back/STIM_006.jpg
1467.407	0.971	1	2back	Block3	2back/STIM_007.jpg
1472.199	0.592	1	2back	Block3	2back/STIM_007.jpg
1475.629	0.558	1	2back	Block3	2back/STIM_007.jpg
1478.286	0.527	1	2back	Block3	2back/STIM_008.jpg
1482.287	0.969	1	2back	Block3	2back/STIM_008.jpg
1486.412	0.844	1	2back	Block3	2back/STIM_008.jpg
1490.532	0.927	1	2back	Block3	2back/STIM_009.jpg
1494.62	0.721	1	2back	Block3	2back/STIM_009.jpg
1497.779	0.945	1	2back	Block3	2back/STIM_009.jpg
1500.859	0.635	1	2back	Block3	2back/STIM_010.jpg
1504.646	0.969	1	2back	Block3	2back/STIM_010.jpg
1509.209	0.751	1	2back	Block3	2back/STIM_010.jpg
1513.688	0.85	1	2back	Block3	2back/STIM_011.jpg
1517.864	0.501	0	2back	Block3	2back/STIM_011.jpg
1521.542	0.856	1	2back	Block3	2back/STIM_011.jpg
1524.761	0.957	1	2back	Block3	2back/STIM_012.jpg
1527.967	0.776	1	2back	Block3	2back/STIM_012.jpg
1532.666	0.714	1	2back	Block3	2back/STIM_012.jpg
1536.185	0.84	0	2back	Block3	2back/STIM_013.jpg
1540.463	0.78	1	2back	Block3	2back/STIM_013.jpg
1544.58	1.089	1	2back	Block3	2back/STIM_013.jpg
1548.159	0.529	0	2back	Block3	2back/STIM_014.jpg
1551.329	0.95	1	2back	Block3	2back/STIM_014.jpg
1554.617	0.581	1	2back	Block3	2back/STIM_014.jpg
1557.498	0.819	1	2back	Block3	2back/STIM_015.jpg
1561.508	0.838	1	2back	Block3	2back/STIM_015.jpg
1565.607	0.733	0	2back	Block3	2back/STIM_015.jpg
1569.898	0.526	1	2back	Block3	2back/STIM_016.jpg
1573.558	0.615	0	2back	Block3	2back/STIM_016.jpg
1576.603	0.733	0	2back	Block3	2back/STIM_016.jpg
1580.53	0.659	0	2back	Block3	2back/STIM_017.jpg
1584.117	0.474	0	2back	Block3	2back/STIM_017.jpg
1587.173	0.59	1	2back	Block3	2back/STIM_017.jpg
1590.554	0.644	1	2back	Block3	2back/STIM_018.jpg
1594.318	0.546	1	2back	Block3	2back/STIM_018.jpg
1597.718	1.075	1	2back	Block3	2back/STIM_018.jpg
1601.037	0.587	0	2back	Block3	2back/STIM_019.jpg
1604.725	1.004	1	2back	Block3	2back/STIM_019.jpg
1607.845	0.648	1	2back	Block3	2back/STIM_019.jpg
1611.436	1.068	0	2back	Block3	2back/STIM_020.jpg
1614.925	0.752	0	2back	Block3	2back/STIM_020.jpg
1618.636	0.674	0	2back	Block3	2back/STIM_020.jpg
1622.493	0.967	1	2back	Block3	2back/STIM_021.jpg
1625.687	0.725	1	2back	Block3	2back/STIM_021.jpg
1629.814	0.583	1	2back	Block3	2back/STIM_021.jpg
1632.506	0.843	1	2back	Block3	2back/STIM_022.jpg
1636.968	0.855	1	2back	Block3	2back/STIM_022.jpg
1641.707	0.643	1	2back	Block3	2back/STIM_022.jpg
1644.936	0.53	1	2back	Block3	2back/STIM_023.jpg
1648.63	0.703	1	2back	Block3	2back/STIM_023.jpg
1653.199	0.691	1	2back	Block3	2back/STIM_023.jpg
1656.876	0.857	0	2back	Block3	2back/STIM_024.jpg
1659.979	0.816	1	2back	Block3	2back/STIM_024.jpg
1662.8	0.54	1	2back	Block3	2back/STIM_024.jpg
1665.556	0.563	1	2back	Block3	2back/STIM_025.jpg
1668.536	0.533	0	2back	Block3	2back/STIM_025.jpg
1672.999	0.557	1	2back	Block3	2back/STIM_025.jpg
1675.823	0.587	1	2back	Block3	2back/STIM_026.jpg
1679.384	0.851	1	2back	Block3	2back/STIM_026.jpg
1682.462	0.674	1	2back	Block3	2back/STIM_026.jpg
1685.674	0.781	1	2back	Block3	2back/STIM_027.jpg
1690.116	0.635	0	2back	Block3	2back/STIM_027.jpg
1693.915	0.554	1	2back	Block3	2back/STIM_027.jpg
1697.467	0.817	1	2back	Block3	2back/STIM_028.jpg
1702.23	0.926	1	2back	Block3	2back/STIM_028.jpg
1706.054	0.836	1	2back	Block3	2back/STIM_028.jpg
1710.299	0.692	1	2back	Block3	2back/STIM_029.jpg
1713.67	0.659	1	2back	Block3	2back/STIM_029.jpg
1717.154	0.88	1	2back	Block3	2back/STIM_029.jpg
1721.873	0.497	1	2back	Block3	2back/STIM_030.jpg
1725.922	0.796	1	2back	Block3	2back/STIM_030.jpg
1729.288	0.659	0	2back	Block3	2back/STIM_030.jpg
1733.535	1.03	1	2back	Block3	2back/STIM_031.jpg
1737.547	1.09	1	2back	Block3	2back/STIM_031.jpg
1740.873	0.789	1	2back	Block3	2back/STIM_031.jpg
1744.52	0.911	0	2back	Block3	2back/STIM_032.jpg
1748.129	0.897	1	2back	Block3	2back/STIM_032.jpg
1751.668	0.956	1	2back	Block3	2back/STIM_032.jpg
1755.022	0.961	1	2back	Block3	2back/STIM_033.jpg
1759.12	0.843	0	2back	Block3	2back/STIM_033.jpg
1762.701	0.892	1	2back	Block3	2back/STIM_033.jpg
1765.84	0.839	0	2back	Block3	2back/STIM_034.jpg
1769.067	0.531	1	2back	Block3	2back/STIM_034.jpg
1771.682	0.735	1	2back	Block3	2back/STIM_034.jpg
1776.132	1.06	1	2back	Block3	2back/STIM_035.jpg
1780.917	0.474	1	2back	Block3	2back/STIM_035.jpg
1783.447	0.526	1	2back	Block3	2back/STIM_035.jpg
1786.751	0.62	1	2back	Block3	2back/STIM_036.jpg
1790.926	1.032	1	2back	Block3	2back/STIM_036.jpg
1795.677	0.965	0	2back	Block3	2back/STIM_036.jpg
1799.566	0.708	1	2back	Block3	2back/STIM_037.jpg
1802.756	1.084	1	2back	Block3	2back/STIM_037.jpg
1807.203	0.821	0	2back	Block3	2back/STIM_037.jpg
1811.134	0.618	0	2back	Block3	2back/STIM_038.jpg
1815.215	0.927	1	2back	Block3	2back/STIM_038.jpg
1818.422	0.48	1	2back	Block3	2back/STIM_038.jpg
1821.854	0.525	1	2back	Block3	2back/STIM_039.jpg
1825.963	0.838	1	2back	Block3	2back/STIM_039.jpg
1830.416	0.685	1	2back	Block3	2back/STIM_039.jpg
1834.378	0.494	1	0back	Block3	0back/STIM_000.jpg
1837.367	0.457	1	0back	Block3	0back/STIM_000.jpg
1840.665	0.546	0	0back	Block3	0back/STIM_000.jpg
1844.538	0.619	1	0back	Block3	0back/STIM_001.jpg
1849.066	0.722	1	0back	Block3	0back/STIM_001.jpg
1853.007	0.656	1	0back	Block3	0back/STIM_001.jpg
1855.883	0.706	1	0back	Block3	0back/STIM_002.jpg
1859.618	0.659	1	0back	Block3	0back/STIM_002.jpg
1862.755	0.554	1	0back	Block3	0back/STIM_002.jpg
1866.493	0.898	1	0back	Block3	0back/STIM_003.jpg
1869.424	0.722	1	0back	Block3	0back/STIM_003.jpg
1872.621	0.88	1	0back	Block3	0back/STIM_003.jpg
1876.359	0.738	1	0back	Block3	0back/STIM_004.jpg
1881.09	0.844	1	0back	Block3	0back/STIM_004.jpg
1885.88	0.629	0	0back	Block3	0back/STIM_004.jpg
1889.658	0.568	1	0back	Block3	0back/STIM_005.jpg
1893.879	0.845	0	0back	Block3	0back/STIM_005.jpg
1897.322	0.564	1	0back	Block3	0back/STIM_005.jpg
1900.308	0.782	1	0back	Block3	0back/STIM_006.jpg
1904.109	0.606	0	0back	Block3	0back/STIM_006.jpg
1908.343	0.699	1	0back	Block3	0back/STIM_006.jpg
1912.223	0.548	0	0back	Block3	0back/STIM_007.jpg
1916.324	0.489	1	0back	Block3	0back/STIM_007.jpg
1920.67	0.689	1	0back	Block3	0back/STIM_007.jpg
1924.245	0.642	1	0back	Block3	0back/STIM_008.jpg
1926.968	0.84	1	0back	Block3	0back/STIM_008.jpg
1931.39	0.678	1	0back	Block3	0back/STIM_008.jpg
1934.72	0.454	1	0back	Block3	0back/STIM_009.jpg
1937.972	0.487	0	0back	Block3	0back/STIM_009.jpg
1941.21	0.512	0	0back	Block3	0back/STIM_009.jpg
1944.005	0.849	1	0back	Block3	0back/STIM_010.jpg
1947.473	0.496	0	0back	Block3	0back/STIM_010.jpg
1951.227	0.881	0	0back	Block3	0back/STIM_010.jpg
1954.983	0.767	1	0back	Block3	0back/STIM_011.jpg
1959.081	0.868	1	0back	Block3	0back/STIM_011.jpg
1963.049	0.664	0	0back	Block3	0back/STIM_011.jpg
1966.803	0.895	1	0back	Block3	0back/STIM_012.jpg
1971.043	0.534	1	0back	Block3	0back/STIM_012.jpg
1975.025	0.581	0	0back	Block3	0back/STIM_012.jpg
1979.425	0.848	1	0back	Block3	0back/STIM_013.jpg
1984.128	0.662	1	0back	Block3	0back/STIM_013.jpg
1987.291	0.857	0	0back	Block3	0back/STIM_013.jpg
1991.655	0.763	1	0back	Block3	0back/STIM_014.jpg
1995.752	0.452	1	0back	Block3	0back/STIM_014.jpg
1999.562	0.826	1	0back	Block3	0back/STIM_014.jpg
2003.274	0.884	1	0back	Block3	0back/STIM_015.jpg
2007.933	0.568	0	0back	Block3	0back/STIM_015.jpg
2010.564	0.553	1	0back	Block3	0back/STIM_015.jpg
2013.348	0.711	1	0back	Block3	0back/STIM_016.jpg
2016.731	0.71	0	0back	Block3	0back/STIM_016.jpg
2020.036	0.617	1	0back	Block3	0back/STIM_016.jpg
2023.957	0.627	1	0back	Block3	0back/STIM_017.jpg
2027.321	0.761	1	0back	Block3	0back/STIM_017.jpg
2030.996	0.862	0	0back	Block3	0back/STIM_017.jpg
2034.899	0.499	0	0back	Block3	0back/STIM_018.jpg
2037.616	0.889	1	0back	Block3	0back/STIM_018.jpg
2041.009	0.641	0	0back	Block3	0back/STIM_018.jpg
2044.613	0.669	1	0back	Block3	0back/STIM_019.jpg
2047.825	0.885	1	0back	Block3	0back/STIM_019.jpg
2052.588	0.65	1	0back	Block3	0back/STIM_019.jpg
2056.633	0.678	1	2back	Block4	2back/STIM_000.jpg
2060.268	0.861	1	2back	Block4	2back/STIM_000.jpg
2065.072	0.763	1	2back	Block4	2back/STIM_000.jpg
2069.26	0.763	0	2back	Block4	2back/STIM_001.jpg
2073.485	0.992	1	2back	Block4	2back/STIM_001.jpg
2077.827	0.627	1	2back	Block4	2back/STIM_001.jpg
2081.796	0.786	1	2back	Block4	2back/STIM_002.jpg
2085.13	0.777	0	2back	Block4	2back/STIM_002.jpg
2089.321	0.607	0	2back	Block4	2back/STIM_002.jpg
2093.598	1.035	1	2back	Block4	2back/STIM_003.jpg
2097.888	0.876	1	2back	Block4	2back/STIM_003.jpg
2102.17	0.788	1	2back	Block4	2back/STIM_003.jpg
2105.46	0.959	1	2back	Block4	2back/STIM_004.jpg
2110.299	0.62	1	2back	Block4	2back/STIM_004.jpg
2112.995	0.817	1	2back	Block4	2back/STIM_004.jpg
2115.879	0.846	1	2back	Block4	2back/STIM_005.jpg
2120.185	0.987	1	2back	Block4	2back/STIM_005.jpg
2123.938	0.765	1	2back	Block4	2back/STIM_005.jpg
2127.123	0.529	1	2back	Block4	2back/STIM_006.jpg
2130.474	1.046	1	2back	Block4	2back/STIM_006.jpg
2133.94	0.732	1	2back	Block4	2back/STIM_006.jpg
2137.58	0.583	1	2back	Block4	2back/STIM_007.jpg
2141.702	1.017	1	2back	Block4	2back/STIM_007.jpg
2145.319	0.8	1	2back	Block4	2back/STIM_007.jpg
2148.34	0.67	1	2back	Block4	2back/STIM_008.jpg
2152.247	0.576	1	2back	Block4	2back/STIM_008.jpg
2156.565	0.57	1	2back	Block4	2back/STIM_008.jpg
2160.472	0.984	1	2back	Block4	2back/STIM_009.jpg
2165.343	1.048	1	2back	Block4	2back/STIM_009.jpg
2169.776	1.094	1	2back	Block4	2back/STIM_009.jpg
2173.173	0.621	1	2back	Block4	2back/STIM_010.jpg
2176.041	1.04	1	2back	Block4	2back/STIM_010.jpg
2180.538	0.912	1	2back	Block4	2back/STIM_010.jpg
2185.302	0.534	0	2back	Block4	2back/STIM_011.jpg
2189.566	1.008	1	2back	Block4	2back/STIM_011.jpg
2194.435	0.752	1	2back	Block4	2back/STIM_011.jpg
2198.183	0.932	1	2back	Block4	2back/STIM_012.jpg
2202.092	0.902	1	2back	Block4	2back/STIM_012.jpg
2206.246	1.098	1	2back	Block4	2back/STIM_012.jpg
2211.278	0.549	1	2back	Block4	2back/STIM_013.jpg
2214.526	0.769	1	2back	Block4	2back/STIM_013.jpg
2217.314	0.516	1	2back	Block4	2back/STIM_013.jpg
2221.103	1.0	1	2back	Block4	2back/STIM_014.jpg
2224.458	0.824	1	2back	Block4	2back/STIM_014.jpg
2228.627	1.079	1	2back	Block4	2back/STIM_014.jpg
2233.241	0.48	1	2back	Block4	2back/STIM_015.jpg
2236.106	0.545	1	2back	Block4	2back/STIM_015.jpg
2238.712	0.529	1	2back	Block4	2back/STIM_015.jpg
2242.314	0.818	1	2back	Block4	2back/STIM_016.jpg
2246.524	0.709	1	2back	Block4	2back/STIM_016.jpg
2250.61	0.545	1	2back	Block4	2back/STIM_016.jpg
2253.932	0.609	1	2back	Block4	2back/STIM_017.jpg
2257.83	0.651	1	2back	Block4	2back/STIM_017.jpg
2261.343	1.043	1	2back	Block4	2back/STIM_017.jpg
2265.602	0.676	1	2back	Block4	2back/STIM_018.jpg
2268.533	0.737	1	2back	Block4	2back/STIM_018.jpg
2272.636	0.657	1	2back	Block4	2back/STIM_018.jpg
2275.648	0.627	1	2back	Block4	2back/STIM_019.jpg
2278.965	0.592	1	2back	Block4	2back/STIM_019.jpg
2282.685	0.533	1	2back	Block4	2back/STIM_019.jpg
2285.948	0.878	1	2back	Block4	2back/STIM_020.jpg
2289.495	0.794	1	2back	Block4	2back/STIM_020.jpg
2294.073	0.866	1	2back	Block4	2back/STIM_020.jpg
2298.831	1.008	0	2back	Block4	2back/STIM_021.jpg
2302.03	0.977	1	2back	Block4	2back/STIM_021.jpg
2306.95	1.08	1	2back	Block4	2back/STIM_021.jpg
2310.326	0.847	1	2back	Block4	2back/STIM_022.jpg
2313.882	0.569	0	2back	Block4	2back/STIM_022.jpg
2317.636	1.014	0	2back	Block4	2back/STIM_022.jpg
2321.415	0.663	0	2back	Block4	2back/STIM_023.jpg
2325.589	1.047	1	2back	Block4	2back/STIM_023.jpg
2328.95	0.976	1	2back	Block4	2back/STIM_023.jpg
2333.013	0.518	1	2back	Block4	2back/STIM_024.jpg
2336.219	0.545	1	2back	Block4	2back/STIM_024.jpg
2340.678	0.69	0	2back	Block4	2back/STIM_024.jpg
2345.094	0.689	1	2back	Block4	2back/STIM_025.jpg
2347.965	0.876	1	2back	Block4	2back/STIM_025.jpg
2351.954	0.808	1	2back	Block4	2back/STIM_025.jpg
2356.391	0.706	1	2back	Block4	2back/STIM_026.jpg
2360.736	0.58	1	2back	Block4	2back/STIM_026.jpg
2364.62	0.543	1	2back	Block4	2back/STIM_026.jpg
2368.592	0.586	0	2back	Block4	2back/STIM_027.jpg
2371.918	0.942	1	2back	Block4	2back/STIM_027.jpg
2376.759	0.754	1	2back	Block4	2back/STIM_027.jpg
2379.706	0.936	0	2back	Block4	2back/STIM_028.jpg
2384.568	1.024	1	2back	Block4	2back/STIM_028.jpg
2389.433	1.048	1	2back	Block4	2back/STIM_028.jpg
2394.226	0.569	0	2back	Block4	2back/STIM_029.jpg
2396.876	0.641	1	2back	Block4	2back/STIM_029.jpg
2400.962	0.694	1	2back	Block4	2back/STIM_029.jpg
2404.441	0.889	1	2back	Block4	2back/STIM_030.jpg
2407.622	0.49	1	2back	Block4	2back/STIM_030.jpg
2410.548	0.552	1	2back	Block4	2back/STIM_030.jpg
2413.679	0.979	1	2back	Block4	2back/STIM_031.jpg
2417.307	0.792	1	2back	Block4	2back/STIM_031.jpg
2420.486	0.741	1	2back	Block4	2back/STIM_031.jpg
2423.849	0.748	1	2back	Block4	2back/STIM_032.jpg
2426.777	0.838	1	2back	Block4	2back/STIM_032.jpg
2430.307	0.672	1	2back	Block4	2back/STIM_032.jpg
2433.268	0.507	1	2back	Block4	2back/STIM_033.jpg
2436.528	0.48	1	2back	Block4	2back/STIM_033.jpg
2439.327	0.709	1	2back	Block4	2back/STIM_033.jpg
2443.302	0.59	1	2back	Block4	2back/STIM_034.jpg
2447.266	0.496	1	2back	Block4	2back/STIM_034.jpg
2450.924	0.599	1	2back	Block4	2back/STIM_034.jpg
2454.59	0.916	1	2back	Block4	2back/STIM_035.jpg
2457.742	0.867	1	2back	Block4	2back/STIM_035.jpg
2462.47	0.567	1	2back	Block4	2back/STIM_035.jpg
2465.562	1.083	0	2back	Block4	2back/STIM_036.jpg
2469.811	0.839	1	2back	Block4	2back/STIM_036.jpg
2473.644	0.665	1	2back	Block4	2back/STIM_036.jpg
2477.972	0.782	1	2back	Block4	2back/STIM_037.jpg
2482.7	0.897	1	2back	Block4	2back/STIM_037.jpg
2486.239	0.681	1	2back	Block4	2back/STIM_037.jpg
2489.001	0.803	1	2back	Block4	2back/STIM_038.jpg
2493.564	0.919	1	2back	Block4	2back/STIM_038.jpg
2497.484	1.058	1	2back	Block4	2back/STIM_038.jpg
2501.617	0.99	0	2back	Block4	2back/STIM_039.jpg
2505.507	0.721	1	2back	Block4	2back/STIM_039.jpg
2509.641	0.976	1	2back	Block4	2back/STIM_039.jpg
2514.518	0.675	1	0back	Block4	0back/STIM_000.jpg
2517.321	0.51	1	0back	Block4	0back/STIM_000.jpg
2520.545	0.81	1	0back	Block4	0back/STIM_000.jpg
2524.197	0.607	1	0back	Block4	0back/STIM_001.jpg
2528.454	0.561	1	0back	Block4	0back/STIM_001.jpg
2532.917	0.501	0	0back	Block4	0back/STIM_001.jpg
2536.776	0.732	1	0back	Block4	0back/STIM_002.jpg
2539.918	0.669	1	0back	Block4	0back/STIM_002.jpg
2543.847	0.711	1	0back	Block4	0back/STIM_002.jpg
2547.166	0.8	0	0back	Block4	0back/STIM_003.jpg
2551.168	0.616	1	0back	Block4	0back/STIM_003.jpg
2555.305	0.611	1	0back	Block4	0back/STIM_003.jpg
2558.806	0.659	1	0back	Block4	0back/STIM_004.jpg
2563.051	0.858	1	0back	Block4	0back/STIM_004.jpg
2566.262	0.854	1	0back	Block4	0back/STIM_004.jpg
2570.948	0.481	1	0back	Block4	0back/STIM_005.jpg
2574.893	0.696	1	0back	Block4	0back/STIM_005.jpg
2579.038	0.533	1	0back	Block4	0back/STIM_005.jpg
2582.609	0.539	1	0back	Block4	0back/STIM_006.jpg
2586.568	0.628	0	0back	Block4	0back/STIM_006.jpg
2590.098	0.687	1	0back	Block4	0back/STIM_006.jpg
2593.636	0.8	0	0back	Block4	0back/STIM_007.jpg
2597.516	0.862	1	0back	Block4	0back/STIM_007.jpg
2601.742	0.507	1	0back	Block4	0back/STIM_007.jpg
2604.951	0.656	1	0back	Block4	0back/STIM_008.jpg
2608.595	0.508	0	0back	Block4	0back/STIM_008.jpg
2612.377	0.587	1	0back	Block4	0back/STIM_008.jpg
2616.545	0.562	1	0back	Block4	0back/STIM_009.jpg
2619.199	0.792	0	0back	Block4	0back/STIM_009.jpg
2623.489	0.763	1	0back	Block4	0back/STIM_009.jpg
2627.027	0.623	1	0back	Block4	0back/STIM_010.jpg
2631.007	0.576	1	0back	Block4	0back/STIM_010.jpg
2634.03	0.642	1	0back	Block4	0back/STIM_010.jpg
2638.603	0.531	1	0back	Block4	0back/STIM_011.jpg
2641.724	0.579	0	0back	Block4	0back/STIM_011.jpg
2644.711	0.894	0	0back	Block4	0back/STIM_011.jpg
2648.4	0.514	0	0back	Block4	0back/STIM_012.jpg
2652.42	0.834	1	0back	Block4	0back/STIM_012.jpg
2656.058	0.49	1	0back	Block4	0back/STIM_012.jpg
2660.512	0.817	0	0back	Block4	0back/STIM_013.jpg
2664.54	0.476	1	0back	Block4	0back/STIM_013.jpg
2667.922	0.572	1	0back	Block4	0back/STIM_013.jpg
2671.716	0.86	1	0back	Block4	0back/STIM_014.jpg
2675.592	0.533	0	0back	Block4	0back/STIM_014.jpg
2678.596	0.877	0	0back	Block4	0back/STIM_014.jpg
2683.39	0.875	0	0back	Block4	0back/STIM_015.jpg
2687.821	0.656	1	0back	Block4	0back/STIM_015.jpg
2691.977	0.457	1	0back	Block4	0back/STIM_015.jpg
2696.081	0.496	1	0back	Block4	0back/STIM_016.jpg
2698.948	0.708	1	0back	Block4	0back/STIM_016.jpg
2703.633	0.674	1	0back	Block4	0back/STIM_016.jpg
2706.591	0.67	1	0back	Block4	0back/STIM_017.jpg
2709.928	0.539	1	0back	Block4	0back/STIM_017.jpg
2713.007	0.577	1	0back	Block4	0back/STIM_017.jpg
2716.364	0.679	1	0back	Block4	0back/STIM_018.jpg
2720.229	0.74	0	0back	Block4	0back/STIM_018.jpg
2723.549	0.618	1	0back	Block4	0back/STIM_018.jpg
2726.171	0.613	0	0back	Block4	0back/STIM_019.jpg
2729.062	0.475	1	0back	Block4	0back/STIM_019.jpg
2733.348	0.608	1	0back	Block4	0back/STIM_019.jpg
