onset	duration	response_time_ms	trial_type	learning_stage	stimulus	response_port
0.0	0.775	775.3	2back	Block1	2back/STIM_000.jpg	99
3.952	0.997	996.6	2back	Block1	2back/STIM_000.jpg	100
8.264	1.264	1264.0	2back	Block1	2back/STIM_000.jpg	99
11.983	0.796	796.3	2back	Block1	2back/STIM_001.jpg	100
15.617	1.306	1306.4	2back	Block1	2back/STIM_001.jpg	99
20.486	1.32	1319.8	2back	Block1	2back/STIM_001.jpg	99
23.922	1.501	1500.9	2back	Block1	2back/STIM_002.jpg	100
27.773	0.645	645.4	2back	Block1	2back/STIM_002.jpg	99
32.156	1.344	1344.2	2back	Block1	2back/STIM_002.jpg	100
36.93	1.248	1248.5	2back	Block1	2back/STIM_003.jpg	99
40.993	0.869	868.6	2back	Block1	2back/STIM_003.jpg	100
44.524	0.81	810.0	2back	Block1	2back/STIM_003.jpg	100
48.223	1.246	1245.8	2back	Block1	2back/STIM_004.jpg	99
52.694	0.853	852.8	2back	Block1	2back/STIM_004.jpg	99
57.412	1.371	1370.6	2back	Block1	2back/STIM_004.jpg	99
61.744	1.228	1227.5	2back	Block1	2back/STIM_005.jpg	100
65.779	1.364	1363.5	2back	Block1	2back/STIM_005.jpg	99
69.401	0.696	695.7	2back	Block1	2back/STIM_005.jpg	99
72.103	1.44	1440.4	2back	Block1	2back/STIM_006.jpg	99
75.902	1.193	1193.2	2back	Block1	2back/STIM_006.jpg	100
80.252	0.895	894.7	2back	Block1	2back/STIM_006.jpg	100
85.068	1.282	1282.4	2back	Block1	2back/STIM_007.jpg	100
89.504	0.773	773.1	2back	Block1	2back/STIM_007.jpg	99
92.325	0.884	884.3	2back	Block1	2back/STIM_007.jpg	100
96.118	0.822	822.3	2back	Block1	2back/STIM_008.jpg	100
99.319	1.408	1408.0	2back	Block1	2back/STIM_008.jpg	99
102.73	1.237	1237.3	2back	Block1	2back/STIM_008.jpg	100
106.353	1.197	1196.8	2back	Block1	2back/STIM_009.jpg	100
109.807	0.676	675.5	2back	Block1	2back/STIM_009.jpg	99
113.439	1.368	1367.7	2back	Block1	2back/STIM_009.jpg	100
117.987	1.432	1432.4	2back	Block1	2back/STIM_010.jpg	99
122.886	0.992	992.3	2back	Block1	2back/STIM_010.jpg	99
127.311	0.609	609.4	2back	Block1	2back/STIM_010.jpg	100
131.341	1.339	1338.7	2back	Block1	2back/STIM_011.jpg	100
135.577	0.798	798.4	2back	Block1	2back/STIM_011.jpg	100
139.04	0.797	797.3	2back	Block1	2back/STIM_011.jpg	99
142.055	1.018	1017.8	2back	Block1	2back/STIM_012.jpg	99
146.672	0.951	950.9	2back	Block1	2back/STIM_012.jpg	100
149.654	0.905	905.4	2back	Block1	2back/STIM_012.jpg	100
154.253	0.85	849.8	2back	Block1	2back/STIM_013.jpg	99
157.412	0.941	941.1	2back	Block1	2back/STIM_013.jpg	100
160.457	1.341	1341.3	2back	Block1	2back/STIM_013.jpg	100
165.628	1.42	1420.1	2back	Block1	2back/STIM_014.jpg	100
170.401	1.423	1423.0	2back	Block1	2back/STIM_014.jpg	99
175.745	1.083	1082.8	2back	Block1	2back/STIM_014.jpg	99
179.651	0.829	829.2	2back	Block1	2back/STIM_015.jpg	99
184.137	1.277	1276.6	2back	Block1	2back/STIM_015.jpg	99
188.384	1.375	1375.2	2back	Block1	2back/STIM_015.jpg	99
193.551	1.073	1073.4	2back	Block1	2back/STIM_016.jpg	99
198.138	1.252	1252.3	2back	Block1	2back/STIM_016.jpg	100
202.634	1.396	1396.1	2back	Block1	2back/STIM_016.jpg	100
207.731	1.019	1018.7	2back	Block1	2back/STIM_017.jpg	100
211.074	1.036	1035.7	2back	Block1	2back/STIM_017.jpg	100
215.89	1.388	1388.0	2back	Block1	2back/STIM_017.jpg	99
219.719	1.35	1349.9	2back	Block1	2back/STIM_018.jpg	99
224.905	1.396	1396.1	2back	Block1	2back/STIM_018.jpg	100
228.597	1.15	1149.6	2back	Block1	2back/STIM_018.jpg	99
233.067	1.371	1370.8	2back	Block1	2back/STIM_019.jpg	100
238.307	1.128	1128.3	2back	Block1	2back/STIM_019.jpg	100
242.344	1.038	1038.5	2back	Block1	2back/STIM_019.jpg	99
245.614	1.128	1127.9	2back	Block1	2back/STIM_020.jpg	99
249.878	0.783	782.8	2back	Block1	2back/STIM_020.jpg	100
254.354	1.288	1288.2	2back	Block1	2back/STIM_020.jpg	99
258.832	0.863	862.8	2back	Block1	2back/STIM_021.jpg	100
263.201	1.36	1360.2	2back	Block1	2back/STIM_021.jpg	100
266.875	1.263	1263.4	2back	Block1	2back/STIM_021.jpg	99
270.369	0.921	921.0	2back	Block1	2back/STIM_022.jpg	99
274.934	1.451	1451.3	2back	Block1	2back/STIM_022.jpg	100
279.557	1.28	1280.4	2back	Block1	2back/STIM_022.jpg	99
283.351	1.102	1101.8	2back	Block1	2back/STIM_023.jpg	100
288.178	0.893	893.1	2back	Block1	2back/STIM_023.jpg	99
292.959	0.996	996.5	2back	Block1	2back/STIM_023.jpg	99
296.099	1.44	1440.2	2back	Block1	2back/STIM_024.jpg	100
300.884	0.882	882.5	2back	Block1	2back/STIM_024.jpg	100
305.349	0.869	868.8	2back	Block1	2back/STIM_024.jpg	99
308.543	1.159	1158.6	2back	Block1	2back/STIM_025.jpg	99
313.012	1.441	1441.0	2back	Block1	2back/STIM_025.jpg	99
316.907	0.759	759.1	2back	Block1	2back/STIM_025.jpg	99
320.957	1.324	1323.9	2back	Block1	2back/STIM_026.jpg	99
325.432	0.715	714.7	2back	Block1	2back/STIM_026.jpg	100
330.114	0.739	738.9	2back	Block1	2back/STIM_026.jpg	99
333.109	0.858	858.1	2back	Block1	2back/STIM_027.jpg	100
337.16	0.658	658.0	2back	Block1	2back/STIM_027.jpg	100
340.681	0.815	815.1	2back	Block1	2back/STIM_027.jpg	100
344.589	0.943	943.3	2back	Block1	2back/STIM_028.jpg	99
348.93	1.095	1095.3	2back	Block1	2back/STIM_028.jpg	99
352.106	0.756	756.1	2back	Block1	2back/STIM_028.jpg	100
355.255	1.455	1454.7	2back	Block1	2back/STIM_029.jpg	100
359.482	0.802	802.2	2back	Block1	2back/STIM_029.jpg	99
363.163	0.837	836.8	2back	Block1	2back/STIM_029.jpg	100
367.199	0.88	880.1	2back	Block1	2back/STIM_030.jpg	99
370.806	1.269	1269.2	2back	Block1	2back/STIM_030.jpg	100
376.052	1.227	1226.6	2back	Block1	2back/STIM_030.jpg	99
379.616	0.76	760.4	2back	Block1	2back/STIM_031.jpg	100
382.629	0.993	992.7	2back	Block1	2back/STIM_031.jpg	100
386.52	1.412	1411.9	2back	Block1	2back/STIM_031.jpg	99
390.4	0.924	924.2	2back	Block1	2back/STIM_032.jpg	100
393.681	0.909	909.2	2back	Block1	2back/STIM_032.jpg	99
398.234	1.142	1141.7	2back	Block1	2back/STIM_032.jpg	100
402.688	1.102	1102.2	2back	Block1	2back/STIM_033.jpg	99
406.532	1.279	1279.3	2back	Block1	2back/STIM_033.jpg	100
410.92	1.23	1229.7	2back	Block1	2back/STIM_033.jpg	100
414.161	0.898	897.8	2back	Block1	2back/STIM_034.jpg	100
417.508	1.12	1120.5	2back	Block1	2back/STIM_034.jpg	99
422.507	1.33	1330.0	2back	Block1	2back/STIM_034.jpg	99
426.645	1.379	1378.8	2back	Block1	2back/STIM_035.jpg	99
431.805	0.801	800.9	2back	Block1	2back/STIM_035.jpg	100
435.823	1.042	1042.1	2back	Block1	2back/STIM_035.jpg	99
439.01	1.36	1359.5	2back	Block1	2back/STIM_036.jpg	100
444.293	0.967	967.1	2back	Block1	2back/STIM_036.jpg	99
448.833	0.906	906.0	2back	Block1	2back/STIM_036.jpg	100
453.426	1.16	1159.9	2back	Block1	2back/STIM_037.jpg	100
456.65	1.393	1392.7	2back	Block1	2back/STIM_037.jpg	100
460.142	1.227	1226.6	2back	Block1	2back/STIM_037.jpg	99
464.647	0.772	771.7	2back	Block1	2back/STIM_038.jpg	99
467.679	1.029	1028.8	2back	Block1	2back/STIM_038.jpg	100
472.503	1.392	1392.0	2back	Block1	2back/STIM_038.jpg	100
477.142	0.794	793.5	2back	Block1	2back/STIM_039.jpg	100
481.566	1.314	1313.7	2back	Block1	2back/STIM_039.jpg	99
485.243	0.897	897.2	2back	Block1	2back/STIM_039.jpg	99
489.308	0.505	505.0	0back	Block1	0back/STIM_000.jpg	100
491.975	0.454	454.2	0back	Block1	0back/STIM_000.jpg	100
495.291	0.831	831.2	0back	Block1	0back/STIM_000.jpg	99
499.874	0.85	849.5	0back	Block1	0back/STIM_001.jpg	100
503.169	0.61	609.8	0back	Block1	0back/STIM_001.jpg	100
506.951	0.72	720.2	0back	Block1	0back/STIM_001.jpg	99
510.976	0.673	673.1	0back	Block1	0back/STIM_002.jpg	99
514.218	0.89	889.8	0back	Block1	0back/STIM_002.jpg	99
518.202	0.723	722.9	0back	Block1	0back/STIM_002.jpg	100
520.933	0.628	628.4	0back	Block1	0back/STIM_003.jpg	99
523.754	0.524	523.7	0back	Block1	0back/STIM_003.jpg	99
526.906	0.526	526.1	0back	Block1	0back/STIM_003.jpg	99
529.97	0.724	723.6	0back	Block1	0back/STIM_004.jpg	99
533.276	0.781	780.7	0back	Block1	0back/STIM_004.jpg	100
537.242	0.557	557.0	0back	Block1	0back/STIM_004.jpg	99
540.266	0.643	642.7	0back	Block1	0back/STIM_005.jpg	100
543.832	0.456	456.3	0back	Block1	0back/STIM_005.jpg	99
547.13	0.749	749.1	0back	Block1	0back/STIM_005.jpg	100
550.387	0.781	781.0	0back	Block1	0back/STIM_006.jpg	100
553.675	0.68	679.6	0back	Block1	0back/STIM_006.jpg	100
558.273	0.666	666.2	0back	Block1	0back/STIM_006.jpg	99
561.079	0.54	540.3	0back	Block1	0back/STIM_007.jpg	99
564.614	0.592	591.6	0back	Block1	0back/STIM_007.jpg	99
569.155	0.649	649.3	0back	Block1	0back/STIM_007.jpg	99
573.403	0.819	818.7	0back	Block1	0back/STIM_008.jpg	100
577.317	0.598	598.0	0back	Block1	0back/STIM_008.jpg	100
580.016	0.697	697.0	0back	Block1	0back/STIM_008.jpg	99
583.172	0.76	760.1	0back	Block1	0back/STIM_009.jpg	99
586.162	0.698	698.5	0back	Block1	0back/STIM_009.jpg	100
590.14	0.708	707.7	0back	Block1	0back/STIM_009.jpg	99
593.13	0.488	487.6	0back	Block1	0back/STIM_010.jpg	99
596.318	0.731	730.6	0back	Block1	0back/STIM_010.jpg	100
599.959	0.807	806.9	0back	Block1	0back/STIM_010.jpg	100
603.75	0.724	723.8	0back	Block1	0back/STIM_011.jpg	99
606.909	0.684	683.7	0back	Block1	0back/STIM_011.jpg	100
610.009	0.664	663.6	0back	Block1	0back/STIM_011.jpg	100
613.859	0.65	650.4	0back	Block1	0back/STIM_012.jpg	100
617.65	0.734	733.8	0back	Block1	0back/STIM_012.jpg	100
621.464	0.73	730.4	0back	Block1	0back/STIM_012.jpg	99
625.398	0.591	590.6	0back	Block1	0back/STIM_013.jpg	99
629.932	0.714	713.9	0back	Block1	0back/STIM_013.jpg	99
634.06	0.669	668.8	0back	Block1	0back/STIM_013.jpg	100
638.249	0.693	693.3	0back	Block1	0back/STIM_014.jpg	100
642.055	0.64	640.1	0back	Block1	0back/STIM_014.jpg	99
645.818	0.653	653.0	0back	Block1	0back/STIM_014.jpg	100
650.394	0.483	482.9	0back	Block1	0back/STIM_015.jpg	100
653.332	0.851	850.7	0back	Block1	0back/STIM_015.jpg	100
656.446	0.581	580.7	0back	Block1	0back/STIM_015.jpg	99
659.3	0.567	566.6	0back	Block1	0back/STIM_016.jpg	99
662.866	0.502	502.0	0back	Block1	0back/STIM_016.jpg	99
666.626	0.886	885.6	0back	Block1	0back/STIM_016.jpg	99
671.352	0.513	512.8	0back	Block1	0back/STIM_017.jpg	99
674.946	0.771	770.7	0back	Block1	0back/STIM_017.jpg	99
678.135	0.546	545.8	0back	Block1	0back/STIM_017.jpg	99
680.83	0.459	458.7	0back	Block1	0back/STIM_018.jpg	100
684.717	0.855	855.1	0back	Block1	0back/STIM_018.jpg	99
688.87	0.868	867.5	0back	Block1	0back/STIM_018.jpg	100
692.657	0.497	496.6	0back	Block1	0back/STIM_019.jpg	99
696.525	0.809	808.8	0back	Block1	0back/STIM_019.jpg	99
699.391	0.871	871.1	0back	Block1	0back/STIM_019.jpg	99
702.434	0.783	783.4	2back	Block2	2back/STIM_000.jpg	100
707.212	0.791	790.9	2back	Block2	2back/STIM_000.jpg	100
711.014	1.018	1017.8	2back	Block2	2back/STIM_000.jpg	100
715.366	1.197	1196.8	2back	Block2	2back/STIM_001.jpg	99
720.052	1.256	1255.7	2back	Block2	2back/STIM_001.jpg	99
724.586	0.878	877.6	2back	Block2	2back/STIM_001.jpg	100
728.589	0.645	645.3	2back	Block2	2back/STIM_002.jpg	100
731.874	0.658	658.3	2back	Block2	2back/STIM_002.jpg	100
736.518	0.979	979.0	2back	Block2	2back/STIM_002.jpg	100
741.311	1.171	1171.0	2back	Block2	2back/STIM_003.jpg	99
745.215	0.862	861.7	2back	Block2	2back/STIM_003.jpg	100
749.357	0.532	532.0	2back	Block2	2back/STIM_003.jpg	100
752.295	1.224	1224.0	2back	Block2	2back/STIM_004.jpg	99
756.916	0.73	729.7	2back	Block2	2back/STIM_004.jpg	100
760.968	1.152	1152.4	2back	Block2	2back/STIM_004.jpg	99
764.726	0.688	688.5	2back	Block2	2back/STIM_005.jpg	100
769.257	0.582	581.8	2back	Block2	2back/STIM_005.jpg	99
773.104	1.068	1067.8	2back	Block2	2back/STIM_005.jpg	99
777.52	1.069	1068.8	2back	Block2	2back/STIM_006.jpg	100
781.648	0.725	724.6	2back	Block2	2back/STIM_006.jpg	99
784.494	0.619	619.1	2back	Block2	2back/STIM_006.jpg	99
789.093	1.218	1218.5	2back	Block2	2back/STIM_007.jpg	100
793.603	0.648	647.6	2back	Block2	2back/STIM_007.jpg	100
796.386	0.719	719.0	2back	Block2	2back/STIM_007.jpg	100
800.298	0.964	964.2	2back	Block2	2back/STIM_008.jpg	99
805.211	1.225	1224.9	2back	Block2	2back/STIM_008.jpg	99
809.626	1.023	1023.0	2back	Block2	2back/STIM_008.jpg	100
813.003	1.148	1148.0	2back	Block2	2back/STIM_009.jpg	99
816.529	1.195	1194.7	2back	Block2	2back/STIM_009.jpg	99
820.138	0.536	536.1	2back	Block2	2back/STIM_009.jpg	100
823.271	0.715	715.3	2back	Block2	2back/STIM_010.jpg	100
827.347	1.116	1116.4	2back	Block2	2back/STIM_010.jpg	99
831.732	0.836	835.5	2back	Block2	2back/STIM_010.jpg	100
836.292	0.663	662.9	2back	Block2	2back/STIM_011.jpg	100
840.457	1.038	1037.9	2back	Block2	2back/STIM_011.jpg	100
844.168	1.158	1157.7	2back	Block2	2back/STIM_011.jpg	99
848.207	0.819	819.1	2back	Block2	2back/STIM_012.jpg	100
852.775	1.023	1023.1	2back	Block2	2back/STIM_012.jpg	99
856.86	1.161	1160.9	2back	Block2	2back/STIM_012.jpg	100
861.506	1.328	1327.5	2back	Block2	2back/STIM_013.jpg	99
866.294	1.009	1008.7	2back	Block2	2back/STIM_013.jpg	99
870.339	0.933	932.7	2back	Block2	2back/STIM_013.jpg	99
873.61	0.873	872.9	2back	Block2	2back/STIM_014.jpg	99
878.439	0.788	787.9	2back	Block2	2back/STIM_014.jpg	99
882.527	0.509	509.0	2back	Block2	2back/STIM_014.jpg	99
886.799	0.837	837.2	2back	Block2	2back/STIM_015.jpg	100
890.701	0.597	597.3	2back	Block2	2back/STIM_015.jpg	99
893.571	1.154	1153.8	2back	Block2	2back/STIM_015.jpg	100
898.313	1.291	1291.1	2back	Block2	2back/STIM_016.jpg	99
901.733	0.663	663.0	2back	Block2	2back/STIM_016.jpg	99
904.826	0.668	667.5	2back	Block2	2back/STIM_016.jpg	100
908.799	1.136	1136.4	2back	Block2	2back/STIM_017.jpg	99
913.055	1.166	1166.2	2back	Block2	2back/STIM_017.jpg	100
918.032	0.965	965.3	2back	Block2	2back/STIM_017.jpg	99
921.498	0.774	773.9	2back	Block2	2back/STIM_018.jpg	100
925.222	1.204	1204.3	2back	Block2	2back/STIM_018.jpg	99
929.899	0.661	661.0	2back	Block2	2back/STIM_018.jpg	100
934.153	0.897	896.8	2back	Block2	2back/STIM_019.jpg	99
938.563	0.853	852.8	2back	Block2	2back/STIM_019.jpg	100
942.308	0.591	591.3	2back	Block2	2back/STIM_019.jpg	100
945.648	1.312	1312.1	2back	Block2	2back/STIM_020.jpg	100
949.099	1.06	1059.5	2back	Block2	2back/STIM_020.jpg	99
952.753	1.0	999.5	2back	Block2	2back/STIM_020.jpg	99
956.09	0.698	698.1	2back	Block2	2back/STIM_021.jpg	99
960.655	0.718	717.5	2back	Block2	2back/STIM_021.jpg	99
963.645	1.101	1100.8	2back	Block2	2back/STIM_021.jpg	100
967.504	1.307	1307.1	2back	Block2	2back/STIM_022.jpg	99
972.508	0.799	799.2	2back	Block2	2back/STIM_022.jpg	99
975.729	0.772	771.7	2back	Block2	2back/STIM_022.jpg	100
979.196	0.666	665.9	2back	Block2	2back/STIM_023.jpg	99
982.266	0.847	846.7	2back	Block2	2back/STIM_023.jpg	99
985.378	1.063	1063.4	2back	Block2	2back/STIM_023.jpg	100
988.783	1.03	1030.5	2back	Block2	2back/STIM_024.jpg	99
993.159	0.733	733.4	2back	Block2	2back/STIM_024.jpg	99
997.05	0.632	632.4	2back	Block2	2back/STIM_024.jpg	99
999.751	1.122	1122.1	2back	Block2	2back/STIM_025.jpg	100
1003.722	0.793	793.4	2back	Block2	2back/STIM_025.jpg	99
1007.761	0.662	661.6	2back	Block2	2back/STIM_025.jpg	100
1012.377	1.239	1239.1	2back	Block2	2back/STIM_026.jpg	99
1017.202	1.154	1153.9	2back	Block2	2back/STIM_026.jpg	99
1022.058	0.877	877.0	2back	Block2	2back/STIM_026.jpg	100
1025.262	0.758	758.1	2back	Block2	2back/STIM_027.jpg	100
1028.757	1.166	1166.2	2back	Block2	2back/STIM_027.jpg	99
1031.975	0.72	719.8	2back	Block2	2back/STIM_027.jpg	99
1035.087	0.634	633.8	2back	Block2	2back/STIM_028.jpg	100
1039.254	1.05	1050.4	2back	Block2	2back/STIM_028.jpg	100
1042.342	0.934	934.5	2back	Block2	2back/STIM_028.jpg	99
1045.319	0.61	610.5	2back	Block2	2back/STIM_029.jpg	99
1048.047	0.644	643.5	2back	Block2	2back/STIM_029.jpg	99
1052.639	0.823	822.8	2back	Block2	2back/STIM_029.jpg	99
1057.004	1.304	1303.7	2back	Block2	2back/STIM_030.jpg	99
1062.218	0.799	798.8	2back	Block2	2back/STIM_030.jpg	99
1066.958	1.047	1047.3	2back	Block2	2back/STIM_030.jpg	99
1071.445	1.28	1280.1	2back	Block2	2back/STIM_031.jpg	100
1076.242	0.958	957.5	2back	Block2	2back/STIM_031.jpg	100
1079.907	0.516	515.9	2back	Block2	2back/STIM_031.jpg	100
1083.394	1.032	1032.3	2back	Block2	2back/STIM_032.jpg	99
1088.044	0.907	906.7	2back	Block2	2back/STIM_032.jpg	100
1091.603	0.918	918.0	2back	Block2	2back/STIM_032.jpg	99
1096.467	1.004	1004.4	2back	Block2	2back/STIM_033.jpg	99
1099.482	0.761	761.3	2back	Block2	2back/STIM_033.jpg	99
1102.427	0.562	562.1	2back	Block2	2back/STIM_033.jpg	99
1105.079	0.638	638.4	2back	Block2	2back/STIM_034.jpg	99
1108.667	0.8	800.3	2back	Block2	2back/STIM_034.jpg	99
1112.071	0.768	767.8	2back	Block2	2back/STIM_034.jpg	99
1115.504	0.947	947.3	2back	Block2	2back/STIM_035.jpg	99
1119.389	0.692	692.0	2back	Block2	2back/STIM_035.jpg	100
1122.108	0.885	885.4	2back	Block2	2back/STIM_035.jpg	100
1125.031	1.061	1060.8	2back	Block2	2back/STIM_036.jpg	100
1129.432	0.602	602.4	2back	Block2	2back/STIM_036.jpg	100
1133.351	0.667	666.6	2back	Block2	2back/STIM_036.jpg	100
1136.528	1.018	1017.6	2back	Block2	2back/STIM_037.jpg	100
1139.885	1.078	1078.0	2back	Block2	2back/STIM_037.jpg	100
1143.489	0.97	970.0	2back	Block2	2back/STIM_037.jpg	99
1147.835	0.734	733.6	2back	Block2	2back/STIM_038.jpg	100
1151.304	0.851	851.1	2back	Block2	2back/STIM_038.jpg	99
1154.569	0.513	513.0	2back	Block2	2back/STIM_038.jpg	100
1158.834	1.054	1054.1	2back	Block2	2back/STIM_039.jpg	100
1163.193	0.935	935.4	2back	Block2	2back/STIM_039.jpg	100
1167.216	0.717	717.4	2back	Block2	2back/STIM_039.jpg	100
1171.555	0.69	689.8	0back	Block2	0back/STIM_000.jpg	99
1175.811	0.872	872.5	0back	Block2	0back/STIM_000.jpg	100
1179.628	0.845	844.6	0back	Block2	0back/STIM_000.jpg	99
1183.68	0.788	788.1	0back	Block2	0back/STIM_001.jpg	100
1187.558	0.747	747.0	0back	Block2	0back/STIM_001.jpg	99
1190.731	0.787	786.6	0back	Block2	0back/STIM_001.jpg	100
1195.233	0.511	510.9	0back	Block2	0back/STIM_002.jpg	100
1198.904	0.539	539.1	0back	Block2	0back/STIM_002.jpg	100
1203.373	0.542	542.1	0back	Block2	0back/STIM_002.jpg	100
1206.149	0.458	458.4	0back	Block2	0back/STIM_003.jpg	99
1209.469	0.482	482.4	0back	Block2	0back/STIM_003.jpg	100
1212.801	0.744	743.9	0back	Block2	0back/STIM_003.jpg	100
1215.853	0.828	828.5	0back	Block2	0back/STIM_004.jpg	100
1219.428	0.694	693.6	0back	Block2	0back/STIM_004.jpg	100
1223.209	0.864	864.1	0back	Block2	0back/STIM_004.jpg	99
1227.743	0.715	714.9	0back	Block2	0back/STIM_005.jpg	100
1230.631	0.666	666.4	0back	Block2	0back/STIM_005.jpg	99
1235.241	0.478	478.3	0back	Block2	0back/STIM_005.jpg	99
1238.277	0.768	768.0	0back	Block2	0back/STIM_006.jpg	99
1242.189	0.602	602.3	0back	Block2	0back/STIM_006.jpg	99
1246.675	0.725	725.1	0back	Block2	0back/STIM_006.jpg	100
1251.301	0.733	732.8	0back	Block2	0back/STIM_007.jpg	100
1256.024	0.534	533.8	0back	Block2	0back/STIM_007.jpg	100
1258.866	0.887	886.6	0back	Block2	0back/STIM_007.jpg	99
1263.109	0.748	748.2	0back	Block2	0back/STIM_008.jpg	99
1266.223	0.572	572.2	0back	Block2	0back/STIM_008.jpg	99
1269.684	0.871	870.7	0back	Block2	0back/STIM_008.jpg	100
1273.235	0.502	501.6	0back	Block2	0back/STIM_009.jpg	100
1276.08	0.554	553.8	0back	Block2	0back/STIM_009.jpg	99
1278.64	0.738	737.7	0back	Block2	0back/STIM_009.jpg	99
1282.358	0.678	678.4	0back	Block2	0back/STIM_010.jpg	100
1285.771	0.779	778.9	0back	Block2	0back/STIM_010.jpg	100
1288.931	0.714	713.5	0back	Block2	0back/STIM_010.jpg	99
1292.539	0.726	726.5	0back	Block2	0back/STIM_011.jpg	100
1297.215	0.534	534.2	0back	Block2	0back/STIM_011.jpg	99
1301.475	0.872	872.5	0back	Block2	0back/STIM_011.jpg	99
1306.13	0.49	489.7	0back	Block2	0back/STIM_012.jpg	100
1308.968	0.512	511.8	0back	Block2	0back/STIM_012.jpg	99
1311.916	0.571	571.1	0back	Block2	0back/STIM_012.jpg	99
1315.777	0.777	776.6	0back	Block2	0back/STIM_013.jpg	100
1319.487	0.871	870.8	0back	Block2	0back/STIM_013.jpg	99
1322.465	0.668	668.1	0back	Block2	0back/STIM_013.jpg	99
1326.676	0.873	873.1	0back	Block2	0back/STIM_014.jpg	99
1330.19	0.892	892.1	0back	Block2	0back/STIM_014.jpg	99
1334.461	0.634	634.1	0back	Block2	0back/STIM_014.jpg	99
1338.457	0.689	689.2	0back	Block2	0back/STIM_015.jpg	99
1342.415	0.588	588.3	0back	Block2	0back/STIM_015.jpg	99
1346.324	0.684	684.0	0back	Block2	0back/STIM_015.jpg	100
1349.207	0.705	704.8	0back	Block2	0back/STIM_016.jpg	99
1352.446	0.568	568.3	0back	Block2	0back/STIM_016.jpg	99
1355.171	0.879	879.3	0back	Block2	0back/STIM_016.jpg	99
1358.381	0.651	651.3	0back	Block2	0back/STIM_017.jpg	99
1361.426	0.588	588.3	0back	Block2	0back/STIM_017.jpg	99
1365.334	0.479	479.3	0back	Block2	0back/STIM_017.jpg	99
1368.455	0.504	504.4	0back	Block2	0back/STIM_018.jpg	100
1372.786	0.83	830.1	0back	Block2	0back/STIM_018.jpg	99
1376.302	0.74	740.1	0back	Block2	0back/STIM_018.jpg	100
1379.889	0.765	764.7	0back	Block2	0back/STIM_019.jpg	100
1383.688	0.735	734.8	0back	Block2	0back/STIM_019.jpg	100
1386.955	0.758	758.2	0back	Block2	0back/STIM_019.jpg	99
1390.543	0.586	585.8	2back	Block3	2back/STIM_000.jpg	99
1395.065	0.524	523.5	2back	Block3	2back/STIM_000.jpg	100
1397.878	0.537	536.9	2back	Block3	2back/STIM_000.jpg	100
1401.766	0.631	631.4	2back	Block3	2back/STIM_001.jpg	99
1406.121	0.552	551.6	2back	Block3	2back/STIM_001.jpg	100
1409.992	0.75	750.2	2back	Block3	2back/STIM_001.jpg	100
1413.172	0.78	780.4	2back	Block3	2back/STIM_002.jpg	99
1417.441	0.54	539.8	2back	Block3	2back/STIM_002.jpg	99
1421.454	0.692	692.2	2back	Block3	2back/STIM_002.jpg	99
1425.447	0.958	957.9	2back	Block3	2back/STIM_003.jpg	99
1428.99	0.918	917.9	2back	Block3	2back/STIM_003.jpg	100
1432.337	0.795	795.0	2back	Block3	2back/STIM_003.jpg	100
1436.161	0.487	486.6	2back	Block3	2back/STIM_004.jpg	100
1438.951	0.668	668.5	2back	Block3	2back/STIM_004.jpg	100
1441.657	0.686	686.3	2back	Block3	2back/STIM_004.jpg	100
1444.969	0.801	801.4	2back	Block3	2back/STIM_005.jpg	100
1447.777	0.728	728.4	2back	Block3	2back/STIM_005.jpg	100
1451.429	0.843	842.6	2back	Block3	2back/STIM_005.jpg	99
1456.065	0.994	993.8	2back	Block3	2back/STIM_006.jpg	99
1460.313	1.066	1066.1	2back	Block3	2back/STIM_006.jpg	99
1463.709	0.506	505.9	2back	Block3	2back/STIM_006.jpg	100
1467.407	0.971	971.0	2back	Block3	2back/STIM_007.jpg	99
1472.199	0.592	592.1	2back	Block3	2back/STIM_007.jpg	100
1475.629	0.558	558.2	2back	Block3	2back/STIM_007.jpg	99
1478.286	0.527	526.8	2back	Block3	2back/STIM_008.jpg	99
1482.287	0.969	968.8	2back	Block3	2back/STIM_008.jpg	99
1486.412	0.844	843.5	2back	Block3	2back/STIM_008.jpg	99
1490.532	0.927	927.3	2back	Block3	2back/STIM_009.jpg	100
1494.62	0.721	721.0	2back	Block3	2back/STIM_009.jpg	100
1497.779	0.945	944.9	2back	Block3	2back/STIM_009.jpg	100
1500.859	0.635	635.0	2back	Block3	2back/STIM_010.jpg	99
1504.646	0.969	969.0	2back	Block3	2back/STIM_010.jpg	99
1509.209	0.751	750.7	2back	Block3	2back/STIM_010.jpg	100
1513.688	0.85	850.3	2back	Block3	2back/STIM_011.jpg	99
1517.864	0.501	501.4	2back	Block3	2back/STIM_011.jpg	100
1521.542	0.856	856.4	2back	Block3	2back/STIM_011.jpg	100
1524.761	0.957	956.7	2back	Block3	2back/STIM_012.jpg	99
1527.967	0.776	776.4	2back	Block3	2back/STIM_012.jpg	100
1532.666	0.714	714.4	2back	Block3	2back/STIM_012.jpg	99
1536.185	0.84	839.8	2back	Block3	2back/STIM_013.jpg	100
1540.463	0.78	780.5	2back	Block3	2back/STIM_013.jpg	100
1544.58	1.089	1089.1	2back	Block3	2back/STIM_013.jpg	100
1548.159	0.529	529.2	2back	Block3	2back/STIM_014.jpg	100
1551.329	0.95	949.5	2back	Block3	2back/STIM_014.jpg	99
1554.617	0.581	581.4	2back	Block3	2back/STIM_014.jpg	99
1557.498	0.819	819.4	2back	Block3	2back/STIM_015.jpg	100
1561.508	0.838	838.3	2back	Block3	2back/STIM_015.jpg	99
1565.607	0.733	732.6	2back	Block3	2back/STIM_015.jpg	99
1569.898	0.526	526.1	2back	Block3	2back/STIM_016.jpg	99
1573.558	0.615	615.2	2back	Block3	2back/STIM_016.jpg	99
1576.603	0.733	733.0	2back	Block3	2back/STIM_016.jpg	99
1580.53	0.659	658.9	2back	Block3	2back/STIM_017.jpg	99
1584.117	0.474	473.5	2back	Block3	2back/STIM_017.jpg	99
1587.173	0.59	590.3	2back	Block3	2back/STIM_017.jpg	99
1590.554	0.644	644.0	2back	Block3	2back/STIM_018.jpg	100
1594.318	0.546	545.5	2back	Block3	2back/STIM_018.jpg	99
1597.718	1.075	1075.4	2back	Block3	2back/STIM_018.jpg	99
1601.037	0.587	587.3	2back	Block3	2back/STIM_019.jpg	100
1604.725	1.004	1004.4	2back	Block3	2back/STIM_019.jpg	99
1607.845	0.648	647.6	2back	Block3	2back/STIM_019.jpg	100
1611.436	1.068	1068.1	2back	Block3	2back/STIM_020.jpg	100
1614.925	0.752	751.8	2back	Block3	2back/STIM_020.jpg	100
1618.636	0.674	673.7	2back	Block3	2back/STIM_020.jpg	99
1622.493	0.967	967.4	2back	Block3	2back/STIM_021.jpg	99
1625.687	0.725	725.4	2back	Block3	2back/STIM_021.jpg	99
1629.814	0.583	582.9	2back	Block3	2back/STIM_021.jpg	99
1632.506	0.843	843.2	2back	Block3	2back/STIM_022.jpg	100
1636.968	0.855	855.3	2back	Block3	2back/STIM_022.jpg	100
1641.707	0.643	642.8	2back	Block3	2back/STIM_022.jpg	99
1644.936	0.53	529.8	2back	Block3	2back/STIM_023.jpg	99
1648.63	0.703	703.1	2back	Block3	2back/STIM_023.jpg	99
1653.199	0.691	691.1	2back	Block3	2back/STIM_023.jpg	100
1656.876	0.857	856.8	2back	Block3	2back/STIM_024.jpg	99
1659.979	0.816	816.5	2back	Block3	2back/STIM_024.jpg	100
1662.8	0.54	539.9	2back	Block3	2back/STIM_024.jpg	99
1665.556	0.563	562.6	2back	Block3	2back/STIM_025.jpg	99
1668.536	0.533	532.7	2back	Block3	2back/STIM_025.jpg	100
1672.999	0.557	557.0	2back	Block3	2back/STIM_025.jpg	100
1675.823	0.587	586.7	2back	Block3	2back/STIM_026.jpg	99
1679.384	0.851	851.4	2back	Block3	2back/STIM_026.jpg	99
1682.462	0.674	674.1	2back	Block3	2back/STIM_026.jpg	99
1685.674	0.781	781.4	2back	Block3	2back/STIM_027.jpg	99
1690.116	0.635	634.9	2back	Block3	2back/STIM_027.jpg	100
1693.915	0.554	554.3	2back	Block3	2back/STIM_027.jpg	100
1697.467	0.817	816.8	2back	Block3	2back/STIM_028.jpg	100
1702.23	0.926	925.5	2back	Block3	2back/STIM_028.jpg	100
1706.054	0.836	836.0	2back	Block3	2back/STIM_028.jpg	100
1710.299	0.692	692.1	2back	Block3	2back/STIM_029.jpg	99
1713.67	0.659	658.7	2back	Block3	2back/STIM_029.jpg	100
1717.154	0.88	880.2	2back	Block3	2back/STIM_029.jpg	100
1721.873	0.497	496.6	2back	Block3	2back/STIM_030.jpg	100
1725.922	0.796	796.1	2back	Block3	2back/STIM_030.jpg	99
1729.288	0.659	659.4	2back	Block3	2back/STIM_030.jpg	99
1733.535	1.03	1029.6	2back	Block3	2back/STIM_031.jpg	99
1737.547	1.09	1089.5	2back	Block3	2back/STIM_031.jpg	99
1740.873	0.789	789.4	2back	Block3	2back/STIM_031.jpg	99
1744.52	0.911	910.9	2back	Block3	2back/STIM_032.jpg	100
1748.129	0.897	897.4	2back	Block3	2back/STIM_032.jpg	100
1751.668	0.956	956.3	2back	Block3	2back/STIM_032.jpg	99
1755.022	0.961	960.8	2back	Block3	2back/STIM_033.jpg	100
1759.12	0.843	843.3	2back	Block3	2back/STIM_033.jpg	100
1762.701	0.892	892.1	2back	Block3	2back/STIM_033.jpg	100
1765.84	0.839	838.6	2back	Block3	2back/STIM_034.jpg	100
1769.067	0.531	530.7	2back	Block3	2back/STIM_034.jpg	100
1771.682	0.735	735.2	2back	Block3	2back/STIM_034.jpg	100
1776.132	1.06	1060.4	2back	Block3	2back/STIM_035.jpg	99
1780.917	0.474	473.6	2back	Block3	2back/STIM_035.jpg	99
1783.447	0.526	526.5	2back	Block3	2back/STIM_035.jpg	100
1786.751	0.62	620.2	2back	Block3	2back/STIM_036.jpg	100
1790.926	1.032	1032.5	2back	Block3	2back/STIM_036.jpg	100
1795.677	0.965	965.0	2back	Block3	2back/STIM_036.jpg	99
1799.566	0.708	707.6	2back	Block3	2back/STIM_037.jpg	100
1802.756	1.084	1084.0	2back	Block3	2back/STIM_037.jpg	99
1807.203	0.821	820.6	2back	Block3	2back/STIM_037.jpg	99
1811.134	0.618	618.5	2back	Block3	2back/STIM_038.jpg	99
1815.215	0.927	926.8	2back	Block3	2back/STIM_038.jpg	100
1818.422	0.48	479.7	2back	Block3	2back/STIM_038.jpg	100
1821.854	0.525	525.2	2back	Block3	2back/STIM_039.jpg	99
1825.963	0.838	837.9	2back	Block3	2back/STIM_039.jpg	99
1830.416	0.685	684.8	2back	Block3	2back/STIM_039.jpg	100
1834.378	0.494	494.5	0back	Block3	0back/STIM_000.jpg	100
1837.367	0.457	456.9	0back	Block3	0back/STIM_000.jpg	99
1840.665	0.546	545.6	0back	Block3	0back/STIM_000.jpg	99
1844.538	0.619	619.0	0back	Block3	0back/STIM_001.jpg	100
1849.066	0.722	722.4	0back	Block3	0back/STIM_001.jpg	100
1853.007	0.656	656.2	0back	Block3	0back/STIM_001.jpg	100
1855.883	0.706	705.6	0back	Block3	0back/STIM_002.jpg	99
1859.618	0.659	658.7	0back	Block3	0back/STIM_002.jpg	99
1862.755	0.554	553.8	0back	Block3	0back/STIM_002.jpg	99
1866.493	0.898	897.9	0back	Block3	0back/STIM_003.jpg	99
1869.424	0.722	721.8	0back	Block3	0back/STIM_003.jpg	99
1872.621	0.88	879.5	0back	Block3	0back/STIM_003.jpg	100
1876.359	0.738	737.6	0back	Block3	0back/STIM_004.jpg	99
1881.09	0.844	844.3	0back	Block3	0back/STIM_004.jpg	99
1885.88	0.629	628.8	0back	Block3	0back/STIM_004.jpg	99
1889.658	0.568	567.7	0back	Block3	0back/STIM_005.jpg	99
1893.879	0.845	845.4	0back	Block3	0back/STIM_005.jpg	99
1897.322	0.564	563.6	0back	Block3	0back/STIM_005.jpg	100
1900.308	0.782	781.5	0back	Block3	0back/STIM_006.jpg	99
1904.109	0.606	606.5	0back	Block3	0back/STIM_006.jpg	100
1908.343	0.699	699.1	0back	Block3	0back/STIM_006.jpg	100
1912.223	0.548	547.5	0back	Block3	0back/STIM_007.jpg	99
1916.324	0.489	489.1	0back	Block3	0back/STIM_007.jpg	100
1920.67	0.689	688.8	0back	Block3	0back/STIM_007.jpg	99
1924.245	0.642	642.0	0back	Block3	0back/STIM_008.jpg	100
1926.968	0.84	840.0	0back	Block3	0back/STIM_008.jpg	100
1931.39	0.678	678.2	0back	Block3	0back/STIM_008.jpg	99
1934.72	0.454	454.3	0back	Block3	0back/STIM_009.jpg	100
1937.972	0.487	486.6	0back	Block3	0back/STIM_009.jpg	100
1941.21	0.512	511.9	0back	Block3	0back/STIM_009.jpg	99
1944.005	0.849	848.9	0back	Block3	0back/STIM_010.jpg	100
1947.473	0.496	496.1	0back	Block3	0back/STIM_010.jpg	99
1951.227	0.881	881.1	0back	Block3	0back/STIM_010.jpg	99
1954.983	0.767	766.6	0back	Block3	0back/STIM_011.jpg	99
1959.081	0.868	867.8	0back	Block3	0back/STIM_011.jpg	99
1963.049	0.664	664.3	0back	Block3	0back/STIM_011.jpg	99
1966.803	0.895	895.0	0back	Block3	0back/STIM_012.jpg	100
1971.043	0.534	533.9	0back	Block3	0back/STIM_012.jpg	100
1975.025	0.581	581.1	0back	Block3	0back/STIM_012.jpg	100
1979.425	0.848	848.5	0back	Block3	0back/STIM_013.jpg	100
1984.128	0.662	662.0	0back	Block3	0back/STIM_013.jpg	100
1987.291	0.857	857.1	0back	Block3	0back/STIM_013.jpg	100
1991.655	0.763	763.4	0back	Block3	0back/STIM_014.jpg	99
1995.752	0.452	452.1	0back	Block3	0back/STIM_014.jpg	100
1999.562	0.826	825.8	0back	Block3	0back/STIM_014.jpg	100
2003.274	0.884	884.3	0back	Block3	0back/STIM_015.jpg	99
2007.933	0.568	568.4	0back	Block3	0back/STIM_015.jpg	100
2010.564	0.553	552.7	0back	Block3	0back/STIM_015.jpg	99
2013.348	0.711	711.4	0back	Block3	0back/STIM_016.jpg	100
2016.731	0.71	709.6	0back	Block3	0back/STIM_016.jpg	100
2020.036	0.617	617.4	0back	Block3	0back/STIM_016.jpg	99
2023.957	0.627	626.9	0back	Block3	0back/STIM_017.jpg	100
2027.321	0.761	761.2	0back	Block3	0back/STIM_017.jpg	100
2030.996	0.862	861.5	0back	Block3	0back/STIM_017.jpg	99
2034.899	0.499	499.0	0back	Block3	0back/STIM_018.jpg	100
2037.616	0.889	888.6	0back	Block3	0back/STIM_018.jpg	100
2041.009	0.641	641.0	0back	Block3	0back/STIM_018.jpg	99
2044.613	0.669	668.6	0back	Block3	0back/STIM_019.jpg	99
2047.825	0.885	885.1	0back	Block3	0back/STIM_019.jpg	99
2052.588	0.65	650.1	0back	Block3	0back/STIM_019.jpg	99
2056.633	0.678	678.3	2back	Block4	2back/STIM_000.jpg	99
2060.268	0.861	861.4	2back	Block4	2back/STIM_000.jpg	100
2065.072	0.763	763.0	2back	Block4	2back/STIM_000.jpg	100
2069.26	0.763	763.0	2back	Block4	2back/STIM_001.jpg	100
2073.485	0.992	992.5	2back	Block4	2back/STIM_001.jpg	99
2077.827	0.627	627.3	2back	Block4	2back/STIM_001.jpg	99
2081.796	0.786	785.9	2back	Block4	2back/STIM_002.jpg	99
2085.13	0.777	776.9	2back	Block4	2back/STIM_002.jpg	100
2089.321	0.607	606.7	2back	Block4	2back/STIM_002.jpg	99
2093.598	1.035	1035.3	2back	Block4	2back/STIM_003.jpg	100
2097.888	0.876	875.6	2back	Block4	2back/STIM_003.jpg	99
2102.17	0.788	788.3	2back	Block4	2back/STIM_003.jpg	100
2105.46	0.959	958.7	2back	Block4	2back/STIM_004.jpg	100
2110.299	0.62	619.5	2back	Block4	2back/STIM_004.jpg	99
2112.995	0.817	816.6	2back	Block4	2back/STIM_004.jpg	99
2115.879	0.846	846.2	2back	Block4	2back/STIM_005.jpg	100
2120.185	0.987	987.0	2back	Block4	2back/STIM_005.jpg	99
2123.938	0.765	765.1	2back	Block4	2back/STIM_005.jpg	99
2127.123	0.529	529.4	2back	Block4	2back/STIM_006.jpg	99
2130.474	1.046	1046.2	2back	Block4	2back/STIM_006.jpg	100
2133.94	0.732	731.7	2back	Block4	2back/STIM_006.jpg	100
2137.58	0.583	583.4	2back	Block4	2back/STIM_007.jpg	99
2141.702	1.017	1016.7	2back	Block4	2back/STIM_007.jpg	99
2145.319	0.8	799.8	2back	Block4	2back/STIM_007.jpg	100
2148.34	0.67	669.5	2back	Block4	2back/STIM_008.jpg	99
2152.247	0.576	575.9	2back	Block4	2back/STIM_008.jpg	100
2156.565	0.57	570.1	2back	Block4	2back/STIM_008.jpg	99
2160.472	0.984	983.7	2back	Block4	2back/STIM_009.jpg	100
2165.343	1.048	1048.1	2back	Block4	2back/STIM_009.jpg	100
2169.776	1.094	1093.8	2back	Block4	2back/STIM_009.jpg	100
2173.173	0.621	620.7	2back	Block4	2back/STIM_010.jpg	99
2176.041	1.04	1040.1	2back	Block4	2back/STIM_010.jpg	100
2180.538	0.912	912.3	2back	Block4	2back/STIM_010.jpg	99
2185.302	0.534	533.7	2back	Block4	2back/STIM_011.jpg	100
2189.566	1.008	1007.5	2back	Block4	2back/STIM_011.jpg	99
2194.435	0.752	752.5	2back	Block4	2back/STIM_011.jpg	99
2198.183	0.932	932.5	2back	Block4	2back/STIM_012.jpg	100
2202.092	0.902	902.4	2back	Block4	2back/STIM_012.jpg	99
2206.246	1.098	1097.9	2back	Block4	2back/STIM_012.jpg	99
2211.278	0.549	549.0	2back	Block4	2back/STIM_013.jpg	100
2214.526	0.769	769.4	2back	Block4	2back/STIM_013.jpg	99
2217.314	0.516	515.5	2back	Block4	2back/STIM_013.jpg	100
2221.103	1.0	999.5	2back	Block4	2back/STIM_014.jpg	100
2224.458	0.824	823.6	2back	Block4	2back/STIM_014.jpg	99
2228.627	1.079	1078.8	2back	Block4	2back/STIM_014.jpg	100
2233.241	0.48	479.5	2back	Block4	2back/STIM_015.jpg	99
2236.106	0.545	545.2	2back	Block4	2back/STIM_015.jpg	100
2238.712	0.529	528.7	2back	Block4	2back/STIM_015.jpg	100
2242.314	0.818	817.8	2back	Block4	2back/STIM_016.jpg	99
2246.524	0.709	709.2	2back	Block4	2back/STIM_016.jpg	99
2250.61	0.545	545.1	2back	Block4	2back/STIM_016.jpg	100
2253.932	0.609	608.7	2back	Block4	2back/STIM_017.jpg	100
2257.83	0.651	651.1	2back	Block4	2back/STIM_017.jpg	100
2261.343	1.043	1043.0	2back	Block4	2back/STIM_017.jpg	100
2265.602	0.676	675.5	2back	Block4	2back/STIM_018.jpg	99
2268.533	0.737	737.2	2back	Block4	2back/STIM_018.jpg	100
2272.636	0.657	656.8	2back	Block4	2back/STIM_018.jpg	100
2275.648	0.627	626.8	2back	Block4	2back/STIM_019.jpg	100
2278.965	0.592	592.3	2back	Block4	2back/STIM_019.jpg	99
2282.685	0.533	532.6	2back	Block4	2back/STIM_019.jpg	99
2285.948	0.878	878.1	2back	Block4	2back/STIM_020.jpg	100
2289.495	0.794	794.2	2back	Block4	2back/STIM_020.jpg	100
2294.073	0.866	865.6	2back	Block4	2back/STIM_020.jpg	99
2298.831	1.008	1007.7	2back	Block4	2back/STIM_021.jpg	100
2302.03	0.977	977.4	2back	Block4	2back/STIM_021.jpg	99
2306.95	1.08	1080.3	2back	Block4	2back/STIM_021.jpg	99
2310.326	0.847	846.8	2back	Block4	2back/STIM_022.jpg	100
2313.882	0.569	568.8	2back	Block4	2back/STIM_022.jpg	99
2317.636	1.014	1013.6	2back	Block4	2back/STIM_022.jpg	100
2321.415	0.663	663.4	2back	Block4	2back/STIM_023.jpg	99
2325.589	1.047	1047.0	2back	Block4	2back/STIM_023.jpg	100
2328.95	0.976	976.1	2back	Block4	2back/STIM_023.jpg	100
2333.013	0.518	518.2	2back	Block4	2back/STIM_024.jpg	100
2336.219	0.545	544.6	2back	Block4	2back/STIM_024.jpg	99
2340.678	0.69	689.6	2back	Block4	2back/STIM_024.jpg	99
2345.094	0.689	689.0	2back	Block4	2back/STIM_025.jpg	100
2347.965	0.876	876.4	2back	Block4	2back/STIM_025.jpg	100
2351.954	0.808	808.3	2back	Block4	2back/STIM_025.jpg	99
2356.391	0.706	706.0	2back	Block4	2back/STIM_026.jpg	99
2360.736	0.58	580.0	2back	Block4	2back/STIM_026.jpg	100
2364.62	0.543	543.0	2back	Block4	2back/STIM_026.jpg	99
2368.592	0.586	586.3	2back	Block4	2back/STIM_027.jpg	99
2371.918	0.942	942.1	2back	Block4	2back/STIM_027.jpg	99
2376.759	0.754	753.6	2back	Block4	2back/STIM_027.jpg	99
2379.706	0.936	936.5	2back	Block4	2back/STIM_028.jpg	99
2384.568	1.024	1023.6	2back	Block4	2back/STIM_028.jpg	99
2389.433	1.048	1048.2	2back	Block4	2back/STIM_028.jpg	100
2394.226	0.569	569.1	2back	Block4	2back/STIM_029.jpg	100
2396.876	0.641	641.1	2back	Block4	2back/STIM_029.jpg	100
2400.962	0.694	694.2	2back	Block4	2back/STIM_029.jpg	99
2404.441	0.889	889.3	2back	Block4	2back/STIM_030.jpg	99
2407.622	0.49	489.6	2back	Block4	2back/STIM_030.jpg	99
2410.548	0.552	551.8	2back	Block4	2back/STIM_030.jpg	100
2413.679	0.979	978.8	2back	Block4	2back/STIM_031.jpg	99
2417.307	0.792	791.8	2back	Block4	2back/STIM_031.jpg	99
2420.486	0.741	740.7	2back	Block4	2back/STIM_031.jpg	100
2423.849	0.748	748.1	2back	Block4	2back/STIM_032.jpg	100
2426.777	0.838	838.1	2back	Block4	2back/STIM_032.jpg	99
2430.307	0.672	672.0	2back	Block4	2back/STIM_032.jpg	100
2433.268	0.507	506.9	2back	Block4	2back/STIM_033.jpg	99
2436.528	0.48	479.9	2back	Block4	2back/STIM_033.jpg	100
2439.327	0.709	709.3	2back	Block4	2back/STIM_033.jpg	100
2443.302	0.59	589.9	2back	Block4	2back/STIM_034.jpg	100
2447.266	0.496	496.4	2back	Block4	2back/STIM_034.jpg	100
2450.924	0.599	598.9	2back	Block4	2back/STIM_034.jpg	99
2454.59	0.916	915.7	2back	Block4	2back/STIM_035.jpg	100
2457.742	0.867	866.6	2back	Block4	2back/STIM_035.jpg	100
2462.47	0.567	567.3	2back	Block4	2back/STIM_035.jpg	99
2465.562	1.083	1082.8	2back	Block4	2back/STIM_036.jpg	100
2469.811	0.839	838.7	2back	Block4	2back/STIM_036.jpg	100
2473.644	0.665	664.8	2back	Block4	2back/STIM_036.jpg	99
2477.972	0.782	781.8	2back	Block4	2back/STIM_037.jpg	99
2482.7	0.897	896.7	2back	Block4	2back/STIM_037.jpg	100
2486.239	0.681	680.7	2back	Block4	2back/STIM_037.jpg	100
2489.001	0.803	803.3	2back	Block4	2back/STIM_038.jpg	99
2493.564	0.919	918.9	2back	Block4	2back/STIM_038.jpg	100
2497.484	1.058	1058.5	2back	Block4	2back/STIM_038.jpg	100
2501.617	0.99	990.4	2back	Block4	2back/STIM_039.jpg	100
2505.507	0.721	721.2	2back	Block4	2back/STIM_039.jpg	100
2509.641	0.976	975.8	2back	Block4	2back/STIM_039.jpg	99
2514.518	0.675	675.0	0back	Block4	0back/STIM_000.jpg	99
2517.321	0.51	509.8	0back	Block4	0back/STIM_000.jpg	100
2520.545	0.81	810.3	0back	Block4	0back/STIM_000.jpg	100
2524.197	0.607	607.1	0back	Block4	0back/STIM_001.jpg	99
2528.454	0.561	560.6	0back	Block4	0back/STIM_001.jpg	99
2532.917	0.501	501.5	0back	Block4	0back/STIM_001.jpg	100
2536.776	0.732	731.8	0back	Block4	0back/STIM_002.jpg	100
2539.918	0.669	669.3	0back	Block4	0back/STIM_002.jpg	99
2543.847	0.711	710.7	0back	Block4	0back/STIM_002.jpg	99
2547.166	0.8	799.6	0back	Block4	0back/STIM_003.jpg	100
2551.168	0.616	616.1	0back	Block4	0back/STIM_003.jpg	99
2555.305	0.611	610.9	0back	Block4	0back/STIM_003.jpg	99
2558.806	0.659	659.4	0back	Block4	0back/STIM_004.jpg	99
2563.051	0.858	858.0	0back	Block4	0back/STIM_004.jpg	100
2566.262	0.854	854.0	0back	Block4	0back/STIM_004.jpg	100
2570.948	0.481	480.6	0back	Block4	0back/STIM_005.jpg	100
2574.893	0.696	695.7	0back	Block4	0back/STIM_005.jpg	100
2579.038	0.533	532.6	0back	Block4	0back/STIM_005.jpg	99
2582.609	0.539	539.1	0back	Block4	0back/STIM_006.jpg	99
2586.568	0.628	627.5	0back	Block4	0back/STIM_006.jpg	100
2590.098	0.687	687.0	0back	Block4	0back/STIM_006.jpg	100
2593.636	0.8	799.8	0back	Block4	0back/STIM_007.jpg	99
2597.516	0.862	862.3	0back	Block4	0back/STIM_007.jpg	99
2601.742	0.507	506.8	0back	Block4	0back/STIM_007.jpg	100
2604.951	0.656	656.3	0back	Block4	0back/STIM_008.jpg	100
2608.595	0.508	507.7	0back	Block4	0back/STIM_008.jpg	100
2612.377	0.587	587.4	0back	Block4	0back/STIM_008.jpg	100
2616.545	0.562	561.7	0back	Block4	0back/STIM_009.jpg	99
2619.199	0.792	792.3	0back	Block4	0back/STIM_009.jpg	100
2623.489	0.763	763.0	0back	Block4	0back/STIM_009.jpg	100
2627.027	0.623	623.0	0back	Block4	0back/STIM_010.jpg	100
2631.007	0.576	575.6	0back	Block4	0back/STIM_010.jpg	99
2634.03	0.642	642.0	0back	Block4	0back/STIM_010.jpg	100
2638.603	0.531	531.1	0back	Block4	0back/STIM_011.jpg	100
2641.724	0.579	579.2	0back	Block4	0back/STIM_011.jpg	100
2644.711	0.894	894.2	0back	Block4	0back/STIM_011.jpg	99
2648.4	0.514	513.9	0back	Block4	0back/STIM_012.jpg	99
2652.42	0.834	834.3	0back	Block4	0back/STIM_012.jpg	100
2656.058	0.49	489.6	0back	Block4	0back/STIM_012.jpg	100
2660.512	0.817	817.0	0back	Block4	0back/STIM_013.jpg	100
2664.54	0.476	476.2	0back	Block4	0back/STIM_013.jpg	99
2667.922	0.572	572.0	0back	Block4	0back/STIM_013.jpg	99
2671.716	0.86	859.5	0back	Block4	0back/STIM_014.jpg	100
2675.592	0.533	532.9	0back	Block4	0back/STIM_014.jpg	100
2678.596	0.877	877.0	0back	Block4	0back/STIM_014.jpg	100
2683.39	0.875	874.7	0back	Block4	0back/STIM_015.jpg	100
2687.821	0.656	655.8	0back	Block4	0back/STIM_015.jpg	99
2691.977	0.457	457.0	0back	Block4	0back/STIM_015.jpg	99
2696.081	0.496	495.7	0back	Block4	0back/STIM_016.jpg	100
2698.948	0.708	708.3	0back	Block4	0back/STIM_016.jpg	99
2703.633	0.674	674.0	0back	Block4	0back/STIM_016.jpg	99
2706.591	0.67	670.4	0back	Block4	0back/STIM_017.jpg	100
2709.928	0.539	538.9	0back	Block4	0back/STIM_017.jpg	100
2713.007	0.577	576.6	0back	Block4	0back/STIM_017.jpg	100
2716.364	0.679	679.1	0back	Block4	0back/STIM_018.jpg	99
2720.229	0.74	739.6	0back	Block4	0back/STIM_018.jpg	100
2723.549	0.618	617.7	0back	Block4	0back/STIM_018.jpg	100
2726.171	0.613	613.2	0back	Block4	0back/STIM_019.jpg	100
2729.062	0.475	474.6	0back	Block4	0back/STIM_019.jpg	100
2733.348	0.608	607.7	0back	Block4	0back/STIM_019.jpg	99
