onset	duration	accuracy	trial_type	learning_stage	stimulus
0.0	0.775	incorrect	2back	Block1	2back/STIM_000.jpg
3.952	0.997	incorrect	2back	Block1	2back/STIM_000.jpg
8.264	1.264	correct	2back	Block1	2back/STIM_000.jpg
11.983	0.796	incorrect	2back	Block1	2back/STIM_001.jpg
15.617	1.306	correct	2back	Block1	2back/STIM_001.jpg
20.486	1.32	incorrect	2back	Block1	2back/STIM_001.jpg
23.922	1.501	correct	2back	Block1	2back/STIM_002.jpg
27.773	0.645	correct	2back	Block1	2back/STIM_002.jpg
32.156	1.344	incorrect	2back	Block1	2back/STIM_002.jpg
36.93	1.248	correct	2back	Block1	2back/STIM_003.jpg
40.993	0.869	incorrect	2back	Block1	2back/STIM_003.jpg
44.524	0.81	correct	2back	Block1	2back/STIM_003.jpg
48.223	1.246	incorrect	2back	Block1	2back/STIM_004.jpg
52.694	0.853	correct	2back	Block1	2back/STIM_004.jpg
57.412	1.371	correct	2back	Block1	2back/STIM_004.jpg
61.744	1.228	correct	2back	Block1	2back/STIM_005.jpg
65.779	1.364	correct	2back	Block1	2back/STIM_005.jpg
69.401	0.696	incorrect	2back	Block1	2back/STIM_005.jpg
72.103	1.44	incorrect	2back	Block1	2back/STIM_006.jpg
75.902	1.193	correct	2back	Block1	2back/STIM_006.jpg
80.252	0.895	correct	2back	Block1	2back/STIM_006.jpg
85.068	1.282	incorrect	2back	Block1	2back/STIM_007.jpg
89.504	0.773	correct	2back	Block1	2back/STIM_007.jpg
92.325	0.884	incorrect	2back	Block1	2back/STIM_007.jpg
96.118	0.822	incorrect	2back	Block1	2back/STIM_008.jpg
99.319	1.408	correct	2back	Block1	2back/STIM_008.jpg
102.73	1.237	correct	2back	Block1	2back/STIM_008.jpg
106.353	1.197	correct	2back	Block1	2back/STIM_009.jpg
109.807	0.676	incorrect	2back	Block1	2back/STIM_009.jpg
113.439	1.368	correct	2back	Block1	2back/STIM_009.jpg
117.987	1.432	correct	2back	Block1	2back/STIM_010.jpg
122.886	0.992	correct	2back	Block1	2back/STIM_010.jpg
127.311	0.609	incorrect	2back	Block1	2back/STIM_010.jpg
131.341	1.339	correct	2back	Block1	2back/STIM_011.jpg
135.577	0.798	correct	2back	Block1	2back/STIM_011.jpg
139.04	0.797	correct	2back	Block1	2back/STIM_011.jpg
142.055	1.018	correct	2back	Block1	2back/STIM_012.jpg
146.672	0.951	incorrect	2back	Block1	2back/STIM_012.jpg
149.654	0.905	incorrect	2back	Block1	2back/STIM_012.jpg
154.253	0.85	correct	2back	Block1	2back/STIM_013.jpg
157.412	0.941	correct	2back	Block1	2back/STIM_013.jpg
160.457	1.341	correct	2back	Block1	2back/STIM_013.jpg
165.628	1.42	correct	2back	Block1	2back/STIM_014.jpg
170.401	1.423	incorrect	2back	Block1	2back/STIM_014.jpg
175.745	1.083	correct	2back	Block1	2back/STIM_014.jpg
179.651	0.829	correct	2back	Block1	2back/STIM_015.jpg
184.137	1.277	incorrect	2back	Block1	2back/STIM_015.jpg
188.384	1.375	incorrect	2back	Block1	2back/STIM_015.jpg
193.551	1.073	incorrect	2back	Block1	2back/STIM_016.jpg
198.138	1.252	incorrect	2back	Block1	2back/STIM_016.jpg
202.634	1.396	correct	2back	Block1	2back/STIM_016.jpg
207.731	1.019	incorrect	2back	Block1	2back/STIM_017.jpg
211.074	1.036	incorrect	2back	Block1	2back/STIM_017.jpg
215.89	1.388	incorrect	2back	Block1	2back/STIM_017.jpg
219.719	1.35	incorrect	2back	Block1	2back/STIM_018.jpg
224.905	1.396	correct	2back	Block1	2back/STIM_018.jpg
228.597	1.15	correct	2back	Block1	2back/STIM_018.jpg
233.067	1.371	incorrect	2back	Block1	2back/STIM_019.jpg
238.307	1.128	incorrect	2back	Block1	2back/STIM_019.jpg
242.344	1.038	incorrect	2back	Block1	2back/STIM_019.jpg
245.614	1.128	correct	2back	Block1	2back/STIM_020.jpg
249.878	0.783	incorrect	2back	Block1	2back/STIM_020.jpg
254.354	1.288	correct	2back	Block1	2back/STIM_020.jpg
258.832	0.863	incorrect	2back	Block1	2back/STIM_021.jpg
263.201	1.36	correct	2back	Block1	2back/STIM_021.jpg
266.875	1.263	incorrect	2back	Block1	2back/STIM_021.jpg
270.369	0.921	incorrect	2back	Block1	2back/STIM_022.jpg
274.934	1.451	correct	2back	Block1	2back/STIM_022.jpg
279.557	1.28	correct	2back	Block1	2back/STIM_022.jpg
283.351	1.102	incorrect	2back	Block1	2back/STIM_023.jpg
288.178	0.893	correct	2back	Block1	2back/STIM_023.jpg
292.959	0.996	correct	2back	Block1	2back/STIM_023.jpg
296.099	1.44	incorrect	2back	Block1	2back/STIM_024.jpg
300.884	0.882	correct	2back	Block1	2back/STIM_024.jpg
305.349	0.869	correct	2back	Block1	2back/STIM_024.jpg
308.543	1.159	correct	2back	Block1	2back/STIM_025.jpg
313.012	1.441	correct	2back	Block1	2back/STIM_025.jpg
316.907	0.759	correct	2back	Block1	2back/STIM_025.jpg
320.957	1.324	correct	2back	Block1	2back/STIM_026.jpg
325.432	0.715	correct	2back	Block1	2back/STIM_026.jpg
330.114	0.739	incorrect	2back	Block1	2back/STIM_026.jpg
333.109	0.858	correct	2back	Block1	2back/STIM_027.jpg
337.16	0.658	correct	2back	Block1	2back/STIM_027.jpg
340.681	0.815	incorrect	2back	Block1	2back/STIM_027.jpg
344.589	0.943	correct	2back	Block1	2back/STIM_028.jpg
348.93	1.095	correct	2back	Block1	2back/STIM_028.jpg
352.106	0.756	correct	2back	Block1	2back/STIM_028.jpg
355.255	1.455	correct	2back	Block1	2back/STIM_029.jpg
359.482	0.802	correct	2back	Block1	2back/STIM_029.jpg
363.163	0.837	incorrect	2back	Block1	2back/STIM_029.jpg
367.199	0.88	incorrect	2back	Block1	2back/STIM_030.jpg
370.806	1.269	correct	2back	Block1	2back/STIM_030.jpg
376.052	1.227	incorrect	2back	Block1	2back/STIM_030.jpg
379.616	0.76	incorrect	2back	Block1	2back/STIM_031.jpg
382.629	0.993	incorrect	2back	Block1	2back/STIM_031.jpg
386.52	1.412	correct	2back	Block1	2back/STIM_031.jpg
390.4	0.924	correct	2back	Block1	2back/STIM_032.jpg
393.681	0.909	correct	2back	Block1	2back/STIM_032.jpg
398.234	1.142	correct	2back	Block1	2back/STIM_032.jpg
402.688	1.102	correct	2back	Block1	2back/STIM_033.jpg
406.532	1.279	incorrect	2back	Block1	2back/STIM_033.jpg
410.92	1.23	correct	2back	Block1	2back/STIM_033.jpg
414.161	0.898	correct	2back	Block1	2back/STIM_034.jpg
417.508	1.12	correct	2back	Block1	2back/STIM_034.jpg
422.507	1.33	incorrect	2back	Block1	2back/STIM_034.jpg
426.645	1.379	correct	2back	Block1	2back/STIM_035.jpg
431.805	0.801	correct	2back	Block1	2back/STIM_035.jpg
435.823	1.042	correct	2back	Block1	2back/STIM_035.jpg
439.01	1.36	correct	2back	Block1	2back/STIM_036.jpg
444.293	0.967	incorrect	2back	Block1	2back/STIM_036.jpg
448.833	0.906	correct	2back	Block1	2back/STIM_036.jpg
453.426	1.16	correct	2back	Block1	2back/STIM_037.jpg
456.65	1.393	incorrect	2back	Block1	2back/STIM_037.jpg
460.142	1.227	correct	2back	Block1	2back/STIM_037.jpg
464.647	0.772	incorrect	2back	Block1	2back/STIM_038.jpg
467.679	1.029	correct	2back	Block1	2back/STIM_038.jpg
472.503	1.392	correct	2back	Block1	2back/STIM_038.jpg
477.142	0.794	correct	2back	Block1	2back/STIM_039.jpg
481.566	1.314	correct	2back	Block1	2back/STIM_039.jpg
485.243	0.897	incorrect	2back	Block1	2back/STIM_039.jpg
489.308	0.505	correct	0back	Block1	0back/STIM_000.jpg
491.975	0.454	correct	0back	Block1	0back/STIM_000.jpg
495.291	0.831	correct	0back	Block1	0back/STIM_000.jpg
499.874	0.85	correct	0back	Block1	0back/STIM_001.jpg
503.169	0.61	incorrect	0back	Block1	0back/STIM_001.jpg
506.951	0.72	correct	0back	Block1	0back/STIM_001.jpg
510.976	0.673	correct	0back	Block1	0back/STIM_002.jpg
514.218	0.89	correct	0back	Block1	0back/STIM_002.jpg
518.202	0.723	incorrect	0back	Block1	0back/STIM_002.jpg
520.933	0.628	correct	0back	Block1	0back/STIM_003.jpg
523.754	0.524	correct	0back	Block1	0back/STIM_003.jpg
526.906	0.526	correct	0back	Block1	0back/STIM_003.jpg
529.97	0.724	correct	0back	Block1	0back/STIM_004.jpg
533.276	0.781	correct	0back	Block1	0back/STIM_004.jpg
537.242	0.557	correct	0back	Block1	0back/STIM_004.jpg
540.266	0.643	correct	0back	Block1	0back/STIM_005.jpg
543.832	0.456	correct	0back	Block1	0back/STIM_005.jpg
547.13	0.749	incorrect	0back	Block1	0back/STIM_005.jpg
550.387	0.781	correct	0back	Block1	0back/STIM_006.jpg
553.675	0.68	incorrect	0back	Block1	0back/STIM_006.jpg
558.273	0.666	correct	0back	Block1	0back/STIM_006.jpg
561.079	0.54	correct	0back	Block1	0back/STIM_007.jpg
564.614	0.592	correct	0back	Block1	0back/STIM_007.jpg
569.155	0.649	correct	0back	Block1	0back/STIM_007.jpg
573.403	0.819	correct	0back	Block1	0back/STIM_008.jpg
577.317	0.598	correct	0back	Block1	0back/STIM_008.jpg
580.016	0.697	correct	0back	Block1	0back/STIM_008.jpg
583.172	0.76	correct	0back	Block1	0back/STIM_009.jpg
586.162	0.698	correct	0back	Block1	0back/STIM_009.jpg
590.14	0.708	correct	0back	Block1	0back/STIM_009.jpg
593.13	0.488	correct	0back	Block1	0back/STIM_010.jpg
596.318	0.731	correct	0back	Block1	0back/STIM_010.jpg
599.959	0.807	correct	0back	Block1	0back/STIM_010.jpg
603.75	0.724	incorrect	0back	Block1	0back/STIM_011.jpg
606.909	0.684	incorrect	0back	Block1	0back/STIM_011.jpg
610.009	0.664	correct	0back	Block1	0back/STIM_011.jpg
613.859	0.65	correct	0back	Block1	0back/STIM_012.jpg
617.65	0.734	correct	0back	Block1	0back/STIM_012.jpg
621.464	0.73	correct	0back	Block1	0back/STIM_012.jpg
625.398	0.591	incorrect	0back	Block1	0back/STIM_013.jpg
629.932	0.714	correct	0back	Block1	0back/STIM_013.jpg
634.06	0.669	correct	0back	Block1	0back/STIM_013.jpg
638.249	0.693	correct	0back	Block1	0back/STIM_014.jpg
642.055	0.64	correct	0back	Block1	0back/STIM_014.jpg
645.818	0.653	incorrect	0back	Block1	0back/STIM_014.jpg
650.394	0.483	correct	0back	Block1	0back/STIM_015.jpg
653.332	0.851	correct	0back	Block1	0back/STIM_015.jpg
656.446	0.581	correct	0back	Block1	0back/STIM_015.jpg
659.3	0.567	correct	0back	Block1	0back/STIM_016.jpg
662.866	0.502	correct	0back	Block1	0back/STIM_016.jpg
666.626	0.886	correct	0back	Block1	0back/STIM_016.jpg
671.352	0.513	correct	0back	Block1	0back/STIM_017.jpg
674.946	0.771	correct	0back	Block1	0back/STIM_017.jpg
678.135	0.546	correct	0back	Block1	0back/STIM_017.jpg
680.83	0.459	correct	0back	Block1	0back/STIM_018.jpg
684.717	0.855	incorrect	0back	Block1	0back/STIM_018.jpg
688.87	0.868	correct	0back	Block1	0back/STIM_018.jpg
692.657	0.497	correct	0back	Block1	0back/STIM_019.jpg
696.525	0.809	correct	0back	Block1	0back/STIM_019.jpg
699.391	0.871	correct	0back	Block1	0back/STIM_019.jpg
702.434	0.783	correct	2back	Block2	2back/STIM_000.jpg
707.212	0.791	correct	2back	Block2	2back/STIM_000.jpg
711.014	1.018	correct	2back	Block2	2back/STIM_000.jpg
715.366	1.197	correct	2back	Block2	2back/STIM_001.jpg
720.052	1.256	correct	2back	Block2	2back/STIM_001.jpg
724.586	0.878	correct	2back	Block2	2back/STIM_001.jpg
728.589	0.645	incorrect	2back	Block2	2back/STIM_002.jpg
731.874	0.658	correct	2back	Block2	2back/STIM_002.jpg
736.518	0.979	correct	2back	Block2	2back/STIM_002.jpg
741.311	1.171	correct	2back	Block2	2back/STIM_003.jpg
745.215	0.862	correct	2back	Block2	2back/STIM_003.jpg
749.357	0.532	correct	2back	Block2	2back/STIM_003.jpg
752.295	1.224	correct	2back	Block2	2back/STIM_004.jpg
756.916	0.73	incorrect	2back	Block2	2back/STIM_004.jpg
760.968	1.152	correct	2back	Block2	2back/STIM_004.jpg
764.726	0.688	correct	2back	Block2	2back/STIM_005.jpg
769.257	0.582	incorrect	2back	Block2	2back/STIM_005.jpg
773.104	1.068	incorrect	2back	Block2	2back/STIM_005.jpg
777.52	1.069	correct	2back	Block2	2back/STIM_006.jpg
781.648	0.725	incorrect	2back	Block2	2back/STIM_006.jpg
784.494	0.619	incorrect	2back	Block2	2back/STIM_006.jpg
789.093	1.218	correct	2back	Block2	2back/STIM_007.jpg
793.603	0.648	correct	2back	Block2	2back/STIM_007.jpg
796.386	0.719	correct	2back	Block2	2back/STIM_007.jpg
800.298	0.964	correct	2back	Block2	2back/STIM_008.jpg
805.211	1.225	correct	2back	Block2	2back/STIM_008.jpg
809.626	1.023	correct	2back	Block2	2back/STIM_008.jpg
813.003	1.148	incorrect	2back	Block2	2back/STIM_009.jpg
816.529	1.195	correct	2back	Block2	2back/STIM_009.jpg
820.138	0.536	correct	2back	Block2	2back/STIM_009.jpg
823.271	0.715	correct	2back	Block2	2back/STIM_010.jpg
827.347	1.116	correct	2back	Block2	2back/STIM_010.jpg
831.732	0.836	incorrect	2back	Block2	2back/STIM_010.jpg
836.292	0.663	incorrect	2back	Block2	2back/STIM_011.jpg
840.457	1.038	correct	2back	Block2	2back/STIM_011.jpg
844.168	1.158	correct	2back	Block2	2back/STIM_011.jpg
848.207	0.819	correct	2back	Block2	2back/STIM_012.jpg
852.775	1.023	correct	2back	Block2	2back/STIM_012.jpg
856.86	1.161	correct	2back	Block2	2back/STIM_012.jpg
861.506	1.328	correct	2back	Block2	2back/STIM_013.jpg
866.294	1.009	correct	2back	Block2	2back/STIM_013.jpg
870.339	0.933	incorrect	2back	Block2	2back/STIM_013.jpg
873.61	0.873	correct	2back	Block2	2back/STIM_014.jpg
878.439	0.788	correct	2back	Block2	2back/STIM_014.jpg
882.527	0.509	incorrect	2back	Block2	2back/STIM_014.jpg
886.799	0.837	incorrect	2back	Block2	2back/STIM_015.jpg
890.701	0.597	incorrect	2back	Block2	2back/STIM_015.jpg
893.571	1.154	correct	2back	Block2	2back/STIM_015.jpg
898.313	1.291	incorrect	2back	Block2	2back/STIM_016.jpg
901.733	0.663	correct	2back	Block2	2back/STIM_016.jpg
904.826	0.668	correct	2back	Block2	2back/STIM_016.jpg
908.799	1.136	correct	2back	Block2	2back/STIM_017.jpg
913.055	1.166	incorrect	2back	Block2	2back/STIM_017.jpg
918.032	0.965	correct	2back	Block2	2back/STIM_017.jpg
921.498	0.774	correct	2back	Block2	2back/STIM_018.jpg
925.222	1.204	correct	2back	Block2	2back/STIM_018.jpg
929.899	0.661	incorrect	2back	Block2	2back/STIM_018.jpg
934.153	0.897	correct	2back	Block2	2back/STIM_019.jpg
938.563	0.853	incorrect	2back	Block2	2back/STIM_019.jpg
942.308	0.591	correct	2back	Block2	2back/STIM_019.jpg
945.648	1.312	correct	2back	Block2	2back/STIM_020.jpg
949.099	1.06	correct	2back	Block2	2back/STIM_020.jpg
952.753	1.0	correct	2back	Block2	2back/STIM_020.jpg
956.09	0.698	correct	2back	Block2	2back/STIM_021.jpg
960.655	0.718	correct	2back	Block2	2back/STIM_021.jpg
963.645	1.101	incorrect	2back	Block2	2back/STIM_021.jpg
967.504	1.307	correct	2back	Block2	2back/STIM_022.jpg
972.508	0.799	correct	2back	Block2	2back/STIM_022.jpg
975.729	0.772	correct	2back	Block2	2back/STIM_022.jpg
979.196	0.666	incorrect	2back	Block2	2back/STIM_023.jpg
982.266	0.847	incorrect	2back	Block2	2back/STIM_023.jpg
985.378	1.063	correct	2back	Block2	2back/STIM_023.jpg
988.783	1.03	correct	2back	Block2	2back/STIM_024.jpg
993.159	0.733	correct	2back	Block2	2back/STIM_024.jpg
997.05	0.632	incorrect	2back	Block2	2back/STIM_024.jpg
999.751	1.122	correct	2back	Block2	2back/STIM_025.jpg
1003.722	0.793	incorrect	2back	Block2	2back/STIM_025.jpg
1007.761	0.662	correct	2back	Block2	2back/STIM_025.jpg
1012.377	1.239	correct	2back	Block2	2back/STIM_026.jpg
1017.202	1.154	incorrect	2back	Block2	2back/STIM_026.jpg
1022.058	0.877	incorrect	2back	Block2	2back/STIM_026.jpg
1025.262	0.758	correct	2back	Block2	2back/STIM_027.jpg
1028.757	1.166	correct	2back	Block2	2back/STIM_027.jpg
1031.975	0.72	correct	2back	Block2	2back/STIM_027.jpg
1035.087	0.634	correct	2back	Block2	2back/STIM_028.jpg
1039.254	1.05	correct	2back	Block2	2back/STIM_028.jpg
1042.342	0.934	correct	2back	Block2	2back/STIM_028.jpg
1045.319	0.61	correct	2back	Block2	2back/STIM_029.jpg
1048.047	0.644	incorrect	2back	Block2	2back/STIM_029.jpg
1052.639	0.823	correct	2back	Block2	2back/STIM_029.jpg
1057.004	1.304	incorrect	2back	Block2	2back/STIM_030.jpg
1062.218	0.799	incorrect	2back	Block2	2back/STIM_030.jpg
1066.958	1.047	correct	2back	Block2	2back/STIM_030.jpg
1071.445	1.28	correct	2back	Block2	2back/STIM_031.jpg
1076.242	0.958	incorrect	2back	Block2	2back/STIM_031.jpg
1079.907	0.516	incorrect	2back	Block2	2back/STIM_031.jpg
1083.394	1.032	correct	2back	Block2	2back/STIM_032.jpg
1088.044	0.907	correct	2back	Block2	2back/STIM_032.jpg
1091.603	0.918	incorrect	2back	Block2	2back/STIM_032.jpg
1096.467	1.004	incorrect	2back	Block2	2back/STIM_033.jpg
1099.482	0.761	correct	2back	Block2	2back/STIM_033.jpg
1102.427	0.562	correct	2back	Block2	2back/STIM_033.jpg
1105.079	0.638	incorrect	2back	Block2	2back/STIM_034.jpg
1108.667	0.8	incorrect	2back	Block2	2back/STIM_034.jpg
1112.071	0.768	correct	2back	Block2	2back/STIM_034.jpg
1115.504	0.947	correct	2back	Block2	2back/STIM_035.jpg
1119.389	0.692	correct	2back	Block2	2back/STIM_035.jpg
1122.108	0.885	correct	2back	Block2	2back/STIM_035.jpg
1125.031	1.061	correct	2back	Block2	2back/STIM_036.jpg
1129.432	0.602	correct	2back	Block2	2back/STIM_036.jpg
1133.351	0.667	correct	2back	Block2	2back/STIM_036.jpg
1136.528	1.018	incorrect	2back	Block2	2back/STIM_037.jpg
1139.885	1.078	correct	2back	Block2	2back/STIM_037.jpg
1143.489	0.97	incorrect	2back	Block2	2back/STIM_037.jpg
1147.835	0.734	incorrect	2back	Block2	2back/STIM_038.jpg
1151.304	0.851	incorrect	2back	Block2	2back/STIM_038.jpg
1154.569	0.513	correct	2back	Block2	2back/STIM_038.jpg
1158.834	1.054	correct	2back	Block2	2back/STIM_039.jpg
1163.193	0.935	incorrect	2back	Block2	2back/STIM_039.jpg
1167.216	0.717	correct	2back	Block2	2back/STIM_039.jpg
1171.555	0.69	correct	0back	Block2	0back/STIM_000.jpg
1175.811	0.872	incorrect	0back	Block2	0back/STIM_000.jpg
1179.628	0.845	incorrect	0back	Block2	0back/STIM_000.jpg
1183.68	0.788	correct	0back	Block2	0back/STIM_001.jpg
1187.558	0.747	correct	0back	Block2	0back/STIM_001.jpg
1190.731	0.787	correct	0back	Block2	0back/STIM_001.jpg
1195.233	0.511	correct	0back	Block2	0back/STIM_002.jpg
1198.904	0.539	correct	0back	Block2	0back/STIM_002.jpg
1203.373	0.542	correct	0back	Block2	0back/STIM_002.jpg
1206.149	0.458	correct	0back	Block2	0back/STIM_003.jpg
1209.469	0.482	incorrect	0back	Block2	0back/STIM_003.jpg
1212.801	0.744	correct	0back	Block2	0back/STIM_003.jpg
1215.853	0.828	incorrect	0back	Block2	0back/STIM_004.jpg
1219.428	0.694	correct	0back	Block2	0back/STIM_004.jpg
1223.209	0.864	incorrect	0back	Block2	0back/STIM_004.jpg
1227.743	0.715	correct	0back	Block2	0back/STIM_005.jpg
1230.631	0.666	correct	0back	Block2	0back/STIM_005.jpg
1235.241	0.478	correct	0back	Block2	0back/STIM_005.jpg
1238.277	0.768	correct	0back	Block2	0back/STIM_006.jpg
1242.189	0.602	correct	0back	Block2	0back/STIM_006.jpg
1246.675	0.725	correct	0back	Block2	0back/STIM_006.jpg
1251.301	0.733	correct	0back	Block2	0back/STIM_007.jpg
1256.024	0.534	correct	0back	Block2	0back/STIM_007.jpg
1258.866	0.887	incorrect	0back	Block2	0back/STIM_007.jpg
1263.109	0.748	incorrect	0back	Block2	0back/STIM_008.jpg
1266.223	0.572	correct	0back	Block2	0back/STIM_008.jpg
1269.684	0.871	correct	0back	Block2	0back/STIM_008.jpg
1273.235	0.502	correct	0back	Block2	0back/STIM_009.jpg
1276.08	0.554	correct	0back	Block2	0back/STIM_009.jpg
1278.64	0.738	incorrect	0back	Block2	0back/STIM_009.jpg
1282.358	0.678	correct	0back	Block2	0back/STIM_010.jpg
1285.771	0.779	correct	0back	Block2	0back/STIM_010.jpg
1288.931	0.714	incorrect	0back	Block2	0back/STIM_010.jpg
1292.539	0.726	correct	0back	Block2	0back/STIM_011.jpg
1297.215	0.534	correct	0back	Block2	0back/STIM_011.jpg
1301.475	0.872	correct	0back	Block2	0back/STIM_011.jpg
1306.13	0.49	incorrect	0back	Block2	0back/STIM_012.jpg
1308.968	0.512	incorrect	0back	Block2	0back/STIM_012.jpg
1311.916	0.571	correct	0back	Block2	0back/STIM_012.jpg
1315.777	0.777	correct	0back	Block2	0back/STIM_013.jpg
1319.487	0.871	correct	0back	Block2	0back/STIM_013.jpg
1322.465	0.668	correct	0back	Block2	0back/STIM_013.jpg
1326.676	0.873	correct	0back	Block2	0back/STIM_014.jpg
1330.19	0.892	correct	0back	Block2	0back/STIM_014.jpg
1334.461	0.634	incorrect	0back	Block2	0back/STIM_014.jpg
1338.457	0.689	correct	0back	Block2	0back/STIM_015.jpg
1342.415	0.588	incorrect	0back	Block2	0back/STIM_015.jpg
1346.324	0.684	incorrect	0back	Block2	0back/STIM_015.jpg
1349.207	0.705	incorrect	0back	Block2	0back/STIM_016.jpg
1352.446	0.568	incorrect	0back	Block2	0back/STIM_016.jpg
1355.171	0.879	correct	0back	Block2	0back/STIM_016.jpg
1358.381	0.651	correct	0back	Block2	0back/STIM_017.jpg
1361.426	0.588	incorrect	0back	Block2	0back/STIM_017.jpg
1365.334	0.479	correct	0back	Block2	0back/STIM_017.jpg
1368.455	0.504	correct	0back	Block2	0back/STIM_018.jpg
1372.786	0.83	correct	0back	Block2	0back/STIM_018.jpg
1376.302	0.74	correct	0back	Block2	0back/STIM_018.jpg
1379.889	0.765	correct	0back	Block2	0back/STIM_019.jpg
1383.688	0.735	correct	0back	Block2	0back/STIM_019.jpg
1386.955	0.758	correct	0back	Block2	0back/STIM_019.jpg
1390.543	0.586	correct	2back	Block3	2back/STIM_000.jpg
1395.065	0.524	incorrect	2back	Block3	2back/STIM_000.jpg
1397.878	0.537	correct	2back	Block3	2back/STIM_000.jpg
1401.766	0.631	correct	2back	Block3	2back/STIM_001.jpg
1406.121	0.552	correct	2back	Block3	2back/STIM_001.jpg
1409.992	0.75	correct	2back	Block3	2back/STIM_001.jpg
1413.172	0.78	correct	2back	Block3	2back/STIM_002.jpg
1417.441	0.54	correct	2back	Block3	2back/STIM_002.jpg
1421.454	0.692	correct	2back	Block3	2back/STIM_002.jpg
1425.447	0.958	correct	2back	Block3	2back/STIM_003.jpg
1428.99	0.918	correct	2back	Block3	2back/STIM_003.jpg
1432.337	0.795	correct	2back	Block3	2back/STIM_003.jpg
1436.161	0.487	correct	2back	Block3	2back/STIM_004.jpg
1438.951	0.668	correct	2back	Block3	2back/STIM_004.jpg
1441.657	0.686	correct	2back	Block3	2back/STIM_004.jpg
1444.969	0.801	correct	2back	Block3	2back/STIM_005.jpg
1447.777	0.728	correct	2back	Block3	2back/STIM_005.jpg
1451.429	0.843	correct	2back	Block3	2back/STIM_005.jpg
1456.065	0.994	incorrect	2back	Block3	2back/STIM_006.jpg
1460.313	1.066	correct	2back	Block3	2back/STIM_006.jpg
1463.709	0.506	correct	2back	Block3	2back/STIM_006.jpg
1467.407	0.971	correct	2back	Block3	2back/STIM_007.jpg
1472.199	0.592	correct	2back	Block3	2back/STIM_007.jpg
1475.629	0.558	correct	2back	Block3	2back/STIM_007.jpg
1478.286	0.527	correct	2back	Block3	2back/STIM_008.jpg
1482.287	0.969	correct	2back	Block3	2back/STIM_008.jpg
1486.412	0.844	correct	2back	Block3	2back/STIM_008.jpg
1490.532	0.927	correct	2back	Block3	2back/STIM_009.jpg
1494.62	0.721	correct	2back	Block3	2back/STIM_009.jpg
1497.779	0.945	correct	2back	Block3	2back/STIM_009.jpg
1500.859	0.635	correct	2back	Block3	2back/STIM_010.jpg
1504.646	0.969	correct	2back	Block3	2back/STIM_010.jpg
1509.209	0.751	correct	2back	Block3	2back/STIM_010.jpg
1513.688	0.85	correct	2back	Block3	2back/STIM_011.jpg
1517.864	0.501	incorrect	2back	Block3	2back/STIM_011.jpg
1521.542	0.856	correct	2back	Block3	2back/STIM_011.jpg
1524.761	0.957	correct	2back	Block3	2back/STIM_012.jpg
1527.967	0.776	correct	2back	Block3	2back/STIM_012.jpg
1532.666	0.714	correct	2back	Block3	2back/STIM_012.jpg
1536.185	0.84	incorrect	2back	Block3	2back/STIM_013.jpg
1540.463	0.78	correct	2back	Block3	2back/STIM_013.jpg
1544.58	1.089	correct	2back	Block3	2back/STIM_013.jpg
1548.159	0.529	incorrect	2back	Block3	2back/STIM_014.jpg
1551.329	0.95	correct	2back	Block3	2back/STIM_014.jpg
1554.617	0.581	correct	2back	Block3	2back/STIM_014.jpg
1557.498	0.819	correct	2back	Block3	2back/STIM_015.jpg
1561.508	0.838	correct	2back	Block3	2back/STIM_015.jpg
1565.607	0.733	incorrect	2back	Block3	2back/STIM_015.jpg
1569.898	0.526	correct	2back	Block3	2back/STIM_016.jpg
1573.558	0.615	incorrect	2back	Block3	2back/STIM_016.jpg
1576.603	0.733	incorrect	2back	Block3	2back/STIM_016.jpg
1580.53	0.659	incorrect	2back	Block3	2back/STIM_017.jpg
1584.117	0.474	incorrect	2back	Block3	2back/STIM_017.jpg
1587.173	0.59	correct	2back	Block3	2back/STIM_017.jpg
1590.554	0.644	correct	2back	Block3	2back/STIM_018.jpg
1594.318	0.546	correct	2back	Block3	2back/STIM_018.jpg
1597.718	1.075	correct	2back	Block3	2back/STIM_018.jpg
1601.037	0.587	incorrect	2back	Block3	2back/STIM_019.jpg
1604.725	1.004	correct	2back	Block3	2back/STIM_019.jpg
1607.845	0.648	correct	2back	Block3	2back/STIM_019.jpg
1611.436	1.068	incorrect	2back	Block3	2back/STIM_020.jpg
1614.925	0.752	incorrect	2back	Block3	2back/STIM_020.jpg
1618.636	0.674	incorrect	2back	Block3	2back/STIM_020.jpg
1622.493	0.967	correct	2back	Block3	2back/STIM_021.jpg
1625.687	0.725	correct	2back	Block3	2back/STIM_021.jpg
1629.814	0.583	correct	2back	Block3	2back/STIM_021.jpg
1632.506	0.843	correct	2back	Block3	2back/STIM_022.jpg
1636.968	0.855	correct	2back	Block3	2back/STIM_022.jpg
1641.707	0.643	correct	2back	Block3	2back/STIM_022.jpg
1644.936	0.53	correct	2back	Block3	2back/STIM_023.jpg
1648.63	0.703	correct	2back	Block3	2back/STIM_023.jpg
1653.199	0.691	correct	2back	Block3	2back/STIM_023.jpg
1656.876	0.857	incorrect	2back	Block3	2back/STIM_024.jpg
1659.979	0.816	correct	2back	Block3	2back/STIM_024.jpg
1662.8	0.54	correct	2back	Block3	2back/STIM_024.jpg
1665.556	0.563	correct	2back	Block3	2back/STIM_025.jpg
1668.536	0.533	incorrect	2back	Block3	2back/STIM_025.jpg
1672.999	0.557	correct	2back	Block3	2back/STIM_025.jpg
1675.823	0.587	correct	2back	Block3	2back/STIM_026.jpg
1679.384	0.851	correct	2back	Block3	2back/STIM_026.jpg
1682.462	0.674	correct	2back	Block3	2back/STIM_026.jpg
1685.674	0.781	correct	2back	Block3	2back/STIM_027.jpg
1690.116	0.635	incorrect	2back	Block3	2back/STIM_027.jpg
1693.915	0.554	correct	2back	Block3	2back/STIM_027.jpg
1697.467	0.817	correct	2back	Block3	2back/STIM_028.jpg
1702.23	0.926	correct	2back	Block3	2back/STIM_028.jpg
1706.054	0.836	correct	2back	Block3	2back/STIM_028.jpg
1710.299	0.692	correct	2back	Block3	2back/STIM_029.jpg
1713.67	0.659	correct	2back	Block3	2back/STIM_029.jpg
1717.154	0.88	correct	2back	Block3	2back/STIM_029.jpg
1721.873	0.497	correct	2back	Block3	2back/STIM_030.jpg
1725.922	0.796	correct	2back	Block3	2back/STIM_030.jpg
1729.288	0.659	incorrect	2back	Block3	2back/STIM_030.jpg
1733.535	1.03	correct	2back	Block3	2back/STIM_031.jpg
1737.547	1.09	correct	2back	Block3	2back/STIM_031.jpg
1740.873	0.789	correct	2back	Block3	2back/STIM_031.jpg
1744.52	0.911	incorrect	2back	Block3	2back/STIM_032.jpg
1748.129	0.897	correct	2back	Block3	2back/STIM_032.jpg
1751.668	0.956	correct	2back	Block3	2back/STIM_032.jpg
1755.022	0.961	correct	2back	Block3	2back/STIM_033.jpg
1759.12	0.843	incorrect	2back	Block3	2back/STIM_033.jpg
1762.701	0.892	correct	2back	Block3	2back/STIM_033.jpg
1765.84	0.839	incorrect	2back	Block3	2back/STIM_034.jpg
1769.067	0.531	correct	2back	Block3	2back/STIM_034.jpg
1771.682	0.735	correct	2back	Block3	2back/STIM_034.jpg
1776.132	1.06	correct	2back	Block3	2back/STIM_035.jpg
1780.917	0.474	correct	2back	Block3	2back/STIM_035.jpg
1783.447	0.526	correct	2back	Block3	2back/STIM_035.jpg
1786.751	0.62	correct	2back	Block3	2back/STIM_036.jpg
1790.926	1.032	correct	2back	Block3	2back/STIM_036.jpg
1795.677	0.965	incorrect	2back	Block3	2back/STIM_036.jpg
1799.566	0.708	correct	2back	Block3	2back/STIM_037.jpg
1802.756	1.084	correct	2back	Block3	2back/STIM_037.jpg
1807.203	0.821	incorrect	2back	Block3	2back/STIM_037.jpg
1811.134	0.618	incorrect	2back	Block3	2back/STIM_038.jpg
1815.215	0.927	correct	2back	Block3	2back/STIM_038.jpg
1818.422	0.48	correct	2back	Block3	2back/STIM_038.jpg
1821.854	0.525	correct	2back	Block3	2back/STIM_039.jpg
1825.963	0.838	correct	2back	Block3	2back/STIM_039.jpg
1830.416	0.685	correct	2back	Block3	2back/STIM_039.jpg
1834.378	0.494	correct	0back	Block3	0back/STIM_000.jpg
1837.367	0.457	correct	0back	Block3	0back/STIM_000.jpg
1840.665	0.546	incorrect	0back	Block3	0back/STIM_000.jpg
1844.538	0.619	correct	0back	Block3	0back/STIM_001.jpg
1849.066	0.722	correct	0back	Block3	0back/STIM_001.jpg
1853.007	0.656	correct	0back	Block3	0back/STIM_001.jpg
1855.883	0.706	correct	0back	Block3	0back/STIM_002.jpg
1859.618	0.659	correct	0back	Block3	0back/STIM_002.jpg
1862.755	0.554	correct	0back	Block3	0back/STIM_002.jpg
1866.493	0.898	correct	0back	Block3	0back/STIM_003.jpg
1869.424	0.722	correct	0back	Block3	0back/STIM_003.jpg
1872.621	0.88	correct	0back	Block3	0back/STIM_003.jpg
1876.359	0.738	correct	0back	Block3	0back/STIM_004.jpg
1881.09	0.844	correct	0back	Block3	0back/STIM_004.jpg
1885.88	0.629	incorrect	0back	Block3	0back/STIM_004.jpg
1889.658	0.568	correct	0back	Block3	0back/STIM_005.jpg
1893.879	0.845	incorrect	0back	Block3	0back/STIM_005.jpg
1897.322	0.564	correct	0back	Block3	0back/STIM_005.jpg
1900.308	0.782	correct	0back	Block3	0back/STIM_006.jpg
1904.109	0.606	incorrect	0back	Block3	0back/STIM_006.jpg
1908.343	0.699	correct	0back	Block3	0back/STIM_006.jpg
1912.223	0.548	incorrect	0back	Block3	0back/STIM_007.jpg
1916.324	0.489	correct	0back	Block3	0back/STIM_007.jpg
1920.67	0.689	correct	0back	Block3	0back/STIM_007.jpg
1924.245	0.642	correct	0back	Block3	0back/STIM_008.jpg
1926.968	0.84	correct	0back	Block3	0back/STIM_008.jpg
1931.39	0.678	correct	0back	Block3	0back/STIM_008.jpg
1934.72	0.454	correct	0back	Block3	0back/STIM_009.jpg
1937.972	0.487	incorrect	0back	Block3	0back/STIM_009.jpg
1941.21	0.512	incorrect	0back	Block3	0back/STIM_009.jpg
1944.005	0.849	correct	0back	Block3	0back/STIM_010.jpg
1947.473	0.496	incorrect	0back	Block3	0back/STIM_010.jpg
1951.227	0.881	incorrect	0back	Block3	0back/STIM_010.jpg
1954.983	0.767	correct	0back	Block3	0back/STIM_011.jpg
1959.081	0.868	correct	0back	Block3	0back/STIM_011.jpg
1963.049	0.664	incorrect	0back	Block3	0back/STIM_011.jpg
1966.803	0.895	correct	0back	Block3	0back/STIM_012.jpg
1971.043	0.534	correct	0back	Block3	0back/STIM_012.jpg
1975.025	0.581	incorrect	0back	Block3	0back/STIM_012.jpg
1979.425	0.848	correct	0back	Block3	0back/STIM_013.jpg
1984.128	0.662	correct	0back	Block3	0back/STIM_013.jpg
1987.291	0.857	incorrect	0back	Block3	0back/STIM_013.jpg
1991.655	0.763	correct	0back	Block3	0back/STIM_014.jpg
1995.752	0.452	correct	0back	Block3	0back/STIM_014.jpg
1999.562	0.826	correct	0back	Block3	0back/STIM_014.jpg
2003.274	0.884	correct	0back	Block3	0back/STIM_015.jpg
2007.933	0.568	incorrect	0back	Block3	0back/STIM_015.jpg
2010.564	0.553	correct	0back	Block3	0back/STIM_015.jpg
2013.348	0.711	correct	0back	Block3	0back/STIM_016.jpg
2016.731	0.71	incorrect	0back	Block3	0back/STIM_016.jpg
2020.036	0.617	correct	0back	Block3	0back/STIM_016.jpg
2023.957	0.627	correct	0back	Block3	0back/STIM_017.jpg
2027.321	0.761	correct	0back	Block3	0back/STIM_017.jpg
2030.996	0.862	incorrect	0back	Block3	0back/STIM_017.jpg
2034.899	0.499	incorrect	0back	Block3	0back/STIM_018.jpg
2037.616	0.889	correct	0back	Block3	0back/STIM_018.jpg
2041.009	0.641	incorrect	0back	Block3	0back/STIM_018.jpg
2044.613	0.669	correct	0back	Block3	0back/STIM_019.jpg
2047.825	0.885	correct	0back	Block3	0back/STIM_019.jpg
2052.588	0.65	correct	0back	Block3	0back/STIM_019.jpg
2056.633	0.678	correct	2back	Block4	2back/STIM_000.jpg
2060.268	0.861	correct	2back	Block4	2back/STIM_000.jpg
2065.072	0.763	correct	2back	Block4	2back/STIM_000.jpg
2069.26	0.763	incorrect	2back	Block4	2back/STIM_001.jpg
2073.485	0.992	correct	2back	Block4	2back/STIM_001.jpg
2077.827	0.627	correct	2back	Block4	2back/STIM_001.jpg
2081.796	0.786	correct	2back	Block4	2back/STIM_002.jpg
2085.13	0.777	incorrect	2back	Block4	2back/STIM_002.jpg
2089.321	0.607	incorrect	2back	Block4	2back/STIM_002.jpg
2093.598	1.035	correct	2back	Block4	2back/STIM_003.jpg
2097.888	0.876	correct	2back	Block4	2back/STIM_003.jpg
2102.17	0.788	correct	2back	Block4	2back/STIM_003.jpg
2105.46	0.959	correct	2back	Block4	2back/STIM_004.jpg
2110.299	0.62	correct	2back	Block4	2back/STIM_004.jpg
2112.995	0.817	correct	2back	Block4	2back/STIM_004.jpg
2115.879	0.846	correct	2back	Block4	2back/STIM_005.jpg
2120.185	0.987	correct	2back	Block4	2back/STIM_005.jpg
2123.938	0.765	correct	2back	Block4	2back/STIM_005.jpg
2127.123	0.529	correct	2back	Block4	2back/STIM_006.jpg
2130.474	1.046	correct	2back	Block4	2back/STIM_006.jpg
2133.94	0.732	correct	2back	Block4	2back/STIM_006.jpg
2137.58	0.583	correct	2back	Block4	2back/STIM_007.jpg
2141.702	1.017	correct	2back	Block4	2back/STIM_007.jpg
2145.319	0.8	correct	2back	Block4	2back/STIM_007.jpg
2148.34	0.67	correct	2back	Block4	2back/STIM_008.jpg
2152.247	0.576	correct	2back	Block4	2back/STIM_008.jpg
2156.565	0.57	correct	2back	Block4	2back/STIM_008.jpg
2160.472	0.984	correct	2back	Block4	2back/STIM_009.jpg
2165.343	1.048	correct	2back	Block4	2back/STIM_009.jpg
2169.776	1.094	correct	2back	Block4	2back/STIM_009.jpg
2173.173	0.621	correct	2back	Block4	2back/STIM_010.jpg
2176.041	1.04	correct	2back	Block4	2back/STIM_010.jpg
2180.538	0.912	correct	2back	Block4	2back/STIM_010.jpg
2185.302	0.534	incorrect	2back	Block4	2back/STIM_011.jpg
2189.566	1.008	correct	2back	Block4	2back/STIM_011.jpg
2194.435	0.752	correct	2back	Block4	2back/STIM_011.jpg
2198.183	0.932	correct	2back	Block4	2back/STIM_012.jpg
2202.092	0.902	correct	2back	Block4	2back/STIM_012.jpg
2206.246	1.098	correct	2back	Block4	2back/STIM_012.jpg
2211.278	0.549	correct	2back	Block4	2back/STIM_013.jpg
2214.526	0.769	correct	2back	Block4	2back/STIM_013.jpg
2217.314	0.516	correct	2back	Block4	2back/STIM_013.jpg
2221.103	1.0	correct	2back	Block4	2back/STIM_014.jpg
2224.458	0.824	correct	2back	Block4	2back/STIM_014.jpg
2228.627	1.079	correct	2back	Block4	2back/STIM_014.jpg
2233.241	0.48	correct	2back	Block4	2back/STIM_015.jpg
2236.106	0.545	correct	2back	Block4	2back/STIM_015.jpg
2238.712	0.529	correct	2back	Block4	2back/STIM_015.jpg
2242.314	0.818	correct	2back	Block4	2back/STIM_016.jpg
2246.524	0.709	correct	2back	Block4	2back/STIM_016.jpg
2250.61	0.545	correct	2back	Block4	2back/STIM_016.jpg
2253.932	0.609	correct	2back	Block4	2back/STIM_017.jpg
2257.83	0.651	correct	2back	Block4	2back/STIM_017.jpg
2261.343	1.043	correct	2back	Block4	2back/STIM_017.jpg
2265.602	0.676	correct	2back	Block4	2back/STIM_018.jpg
2268.533	0.737	correct	2back	Block4	2back/STIM_018.jpg
2272.636	0.657	correct	2back	Block4	2back/STIM_018.jpg
2275.648	0.627	correct	2back	Block4	2back/STIM_019.jpg
2278.965	0.592	correct	2back	Block4	2back/STIM_019.jpg
2282.685	0.533	correct	2back	Block4	2back/STIM_019.jpg
2285.948	0.878	correct	2back	Block4	2back/STIM_020.jpg
2289.495	0.794	correct	2back	Block4	2back/STIM_020.jpg
2294.073	0.866	correct	2back	Block4	2back/STIM_020.jpg
2298.831	1.008	incorrect	2back	Block4	2back/STIM_021.jpg
2302.03	0.977	correct	2back	Block4	2back/STIM_021.jpg
2306.95	1.08	correct	2back	Block4	2back/STIM_021.jpg
2310.326	0.847	correct	2back	Block4	2back/STIM_022.jpg
2313.882	0.569	incorrect	2back	Block4	2back/STIM_022.jpg
2317.636	1.014	incorrect	2back	Block4	2back/STIM_022.jpg
2321.415	0.663	incorrect	2back	Block4	2back/STIM_023.jpg
2325.589	1.047	correct	2back	Block4	2back/STIM_023.jpg
2328.95	0.976	correct	2back	Block4	2back/STIM_023.jpg
2333.013	0.518	correct	2back	Block4	2back/STIM_024.jpg
2336.219	0.545	correct	2back	Block4	2back/STIM_024.jpg
2340.678	0.69	incorrect	2back	Block4	2back/STIM_024.jpg
2345.094	0.689	correct	2back	Block4	2back/STIM_025.jpg
2347.965	0.876	correct	2back	Block4	2back/STIM_025.jpg
2351.954	0.808	correct	2back	Block4	2back/STIM_025.jpg
2356.391	0.706	correct	2back	Block4	2back/STIM_026.jpg
2360.736	0.58	correct	2back	Block4	2back/STIM_026.jpg
2364.62	0.543	correct	2back	Block4	2back/STIM_026.jpg
2368.592	0.586	incorrect	2back	Block4	2back/STIM_027.jpg
2371.918	0.942	correct	2back	Block4	2back/STIM_027.jpg
2376.759	0.754	correct	2back	Block4	2back/STIM_027.jpg
2379.706	0.936	incorrect	2back	Block4	2back/STIM_028.jpg
2384.568	1.024	correct	2back	Block4	2back/STIM_028.jpg
2389.433	1.048	correct	2back	Block4	2back/STIM_028.jpg
2394.226	0.569	incorrect	2back	Block4	2back/STIM_029.jpg
2396.876	0.641	correct	2back	Block4	2back/STIM_029.jpg
2400.962	0.694	correct	2back	Block4	2back/STIM_029.jpg
2404.441	0.889	correct	2back	Block4	2back/STIM_030.jpg
2407.622	0.49	correct	2back	Block4	2back/STIM_030.jpg
2410.548	0.552	correct	2back	Block4	2back/STIM_030.jpg
2413.679	0.979	correct	2back	Block4	2back/STIM_031.jpg
2417.307	0.792	correct	2back	Block4	2back/STIM_031.jpg
2420.486	0.741	correct	2back	Block4	2back/STIM_031.jpg
2423.849	0.748	correct	2back	Block4	2back/STIM_032.jpg
2426.777	0.838	correct	2back	Block4	2back/STIM_032.jpg
2430.307	0.672	correct	2back	Block4	2back/STIM_032.jpg
2433.268	0.507	correct	2back	Block4	2back/STIM_033.jpg
2436.528	0.48	correct	2back	Block4	2back/STIM_033.jpg
2439.327	0.709	correct	2back	Block4	2back/STIM_033.jpg
2443.302	0.59	correct	2back	Block4	2back/STIM_034.jpg
2447.266	0.496	correct	2back	Block4	2back/STIM_034.jpg
2450.924	0.599	correct	2back	Block4	2back/STIM_034.jpg
2454.59	0.916	correct	2back	Block4	2back/STIM_035.jpg
2457.742	0.867	correct	2back	Block4	2back/STIM_035.jpg
2462.47	0.567	correct	2back	Block4	2back/STIM_035.jpg
2465.562	1.083	incorrect	2back	Block4	2back/STIM_036.jpg
2469.811	0.839	correct	2back	Block4	2back/STIM_036.jpg
2473.644	0.665	correct	2back	Block4	2back/STIM_036.jpg
2477.972	0.782	correct	2back	Block4	2back/STIM_037.jpg
2482.7	0.897	correct	2back	Block4	2back/STIM_037.jpg
2486.239	0.681	correct	2back	Block4	2back/STIM_037.jpg
2489.001	0.803	correct	2back	Block4	2back/STIM_038.jpg
2493.564	0.919	correct	2back	Block4	2back/STIM_038.jpg
2497.484	1.058	correct	2back	Block4	2back/STIM_038.jpg
2501.617	0.99	incorrect	2back	Block4	2back/STIM_039.jpg
2505.507	0.721	correct	2back	Block4	2back/STIM_039.jpg
2509.641	0.976	correct	2back	Block4	2back/STIM_039.jpg
2514.518	0.675	correct	0back	Block4	0back/STIM_000.jpg
2517.321	0.51	correct	0back	Block4	0back/STIM_000.jpg
2520.545	0.81	correct	0back	Block4	0back/STIM_000.jpg
2524.197	0.607	correct	0back	Block4	0back/STIM_001.jpg
2528.454	0.561	correct	0back	Block4	0back/STIM_001.jpg
2532.917	0.501	incorrect	0back	Block4	0back/STIM_001.jpg
2536.776	0.732	correct	0back	Block4	0back/STIM_002.jpg
2539.918	0.669	correct	0back	Block4	0back/STIM_002.jpg
2543.847	0.711	correct	0back	Block4	0back/STIM_002.jpg
2547.166	0.8	incorrect	0back	Block4	0back/STIM_003.jpg
2551.168	0.616	correct	0back	Block4	0back/STIM_003.jpg
2555.305	0.611	correct	0back	Block4	0back/STIM_003.jpg
2558.806	0.659	correct	0back	Block4	0back/STIM_004.jpg
2563.051	0.858	correct	0back	Block4	0back/STIM_004.jpg
2566.262	0.854	correct	0back	Block4	0back/STIM_004.jpg
2570.948	0.481	correct	0back	Block4	0back/STIM_005.jpg
2574.893	0.696	correct	0back	Block4	0back/STIM_005.jpg
2579.038	0.533	correct	0back	Block4	0back/STIM_005.jpg
2582.609	0.539	correct	0back	Block4	0back/STIM_006.jpg
2586.568	0.628	incorrect	0back	Block4	0back/STIM_006.jpg
2590.098	0.687	correct	0back	Block4	0back/STIM_006.jpg
2593.636	0.8	incorrect	0back	Block4	0back/STIM_007.jpg
2597.516	0.862	correct	0back	Block4	0back/STIM_007.jpg
2601.742	0.507	correct	0back	Block4	0back/STIM_007.jpg
2604.951	0.656	correct	0back	Block4	0back/STIM_008.jpg
2608.595	0.508	incorrect	0back	Block4	0back/STIM_008.jpg
2612.377	0.587	correct	0back	Block4	0back/STIM_008.jpg
2616.545	0.562	correct	0back	Block4	0back/STIM_009.jpg
2619.199	0.792	incorrect	0back	Block4	0back/STIM_009.jpg
2623.489	0.763	correct	0back	Block4	0back/STIM_009.jpg
2627.027	0.623	correct	0back	Block4	0back/STIM_010.jpg
2631.007	0.576	correct	0back	Block4	0back/STIM_010.jpg
2634.03	0.642	correct	0back	Block4	0back/STIM_010.jpg
2638.603	0.531	correct	0back	Block4	0back/STIM_011.jpg
2641.724	0.579	incorrect	0back	Block4	0back/STIM_011.jpg
2644.711	0.894	incorrect	0back	Block4	0back/STIM_011.jpg
2648.4	0.514	incorrect	0back	Block4	0back/STIM_012.jpg
2652.42	0.834	correct	0back	Block4	0back/STIM_012.jpg
2656.058	0.49	correct	0back	Block4	0back/STIM_012.jpg
2660.512	0.817	incorrect	0back	Block4	0back/STIM_013.jpg
2664.54	0.476	correct	0back	Block4	0back/STIM_013.jpg
2667.922	0.572	correct	0back	Block4	0back/STIM_013.jpg
2671.716	0.86	correct	0back	Block4	0back/STIM_014.jpg
2675.592	0.533	incorrect	0back	Block4	0back/STIM_014.jpg
2678.596	0.877	incorrect	0back	Block4	0back/STIM_014.jpg
2683.39	0.875	incorrect	0back	Block4	0back/STIM_015.jpg
2687.821	0.656	correct	0back	Block4	0back/STIM_015.jpg
2691.977	0.457	correct	0back	Block4	0back/STIM_015.jpg
2696.081	0.496	correct	0back	Block4	0back/STIM_016.jpg
2698.948	0.708	correct	0back	Block4	0back/STIM_016.jpg
2703.633	0.674	correct	0back	Block4	0back/STIM_016.jpg
2706.591	0.67	correct	0back	Block4	0back/STIM_017.jpg
2709.928	0.539	correct	0back	Block4	0back/STIM_017.jpg
2713.007	0.577	correct	0back	Block4	0back/STIM_017.jpg
2716.364	0.679	correct	0back	Block4	0back/STIM_018.jpg
2720.229	0.74	incorrect	0back	Block4	0back/STIM_018.jpg
2723.549	0.618	correct	0back	Block4	0back/STIM_018.jpg
2726.171	0.613	incorrect	0back	Block4	0back/STIM_019.jpg
2729.062	0.475	correct	0back	Block4	0back/STIM_019.jpg
2733.348	0.608	correct	0back	Block4	0back/STIM_019.jpg
