onset	duration	accuracy_binary	trial_type	learning_stage	stimulus
0.0	0.707	0	study	Phase1	study/STIM_000.jpg
4.376	0.738	1	study	Phase1	study/STIM_000.jpg
7.989	1.251	1	study	Phase1	study/STIM_000.jpg
12.084	0.71	1	study	Phase1	study/STIM_001.jpg
15.949	1.101	1	study	Phase1	study/STIM_001.jpg
19.682	0.69	1	study	Phase1	study/STIM_001.jpg
22.571	1.325	0	study	Phase1	study/STIM_002.jpg
27.836	1.338	0	study	Phase1	study/STIM_002.jpg
32.575	0.826	1	study	Phase1	study/STIM_002.jpg
36.313	1.084	1	study	Phase1	study/STIM_003.jpg
39.961	0.898	1	study	Phase1	study/STIM_003.jpg
42.971	0.978	1	study	Phase1	study/STIM_003.jpg
47.171	1.139	1	study	Phase1	study/STIM_004.jpg
50.996	1.327	0	study	Phase1	study/STIM_004.jpg
55.352	0.685	1	study	Phase1	study/STIM_004.jpg
59.965	0.995	0	study	Phase1	study/STIM_005.jpg
63.119	1.192	1	study	Phase1	study/STIM_005.jpg
67.462	0.705	1	study	Phase1	study/STIM_005.jpg
71.7	1.02	1	study	Phase1	study/STIM_006.jpg
76.017	1.365	1	study	Phase1	study/STIM_006.jpg
79.645	0.845	0	study	Phase1	study/STIM_006.jpg
84.307	1.32	1	study	Phase1	study/STIM_007.jpg
88.229	0.791	1	study	Phase1	study/STIM_007.jpg
91.968	0.781	1	study	Phase1	study/STIM_007.jpg
94.829	0.952	1	study	Phase1	study/STIM_008.jpg
98.078	1.434	1	study	Phase1	study/STIM_008.jpg
101.772	0.764	0	study	Phase1	study/STIM_008.jpg
105.387	1.155	1	study	Phase1	study/STIM_009.jpg
108.611	1.001	1	study	Phase1	study/STIM_009.jpg
113.382	0.675	1	study	Phase1	study/STIM_009.jpg
117.883	1.005	1	study	Phase1	study/STIM_010.jpg
121.155	1.394	1	study	Phase1	study/STIM_010.jpg
126.432	1.124	1	study	Phase1	study/STIM_010.jpg
131.432	0.91	0	study	Phase1	study/STIM_011.jpg
135.744	1.258	1	study	Phase1	study/STIM_011.jpg
139.411	1.216	1	study	Phase1	study/STIM_011.jpg
142.755	1.004	0	study	Phase1	study/STIM_012.jpg
146.368	1.432	1	study	Phase1	study/STIM_012.jpg
151.236	1.352	1	study	Phase1	study/STIM_012.jpg
156.191	1.044	1	study	Phase1	study/STIM_013.jpg
159.597	1.404	0	study	Phase1	study/STIM_013.jpg
163.653	1.184	1	study	Phase1	study/STIM_013.jpg
168.054	1.052	1	study	Phase1	study/STIM_014.jpg
171.563	0.69	0	study	Phase1	study/STIM_014.jpg
175.202	0.737	1	study	Phase1	study/STIM_014.jpg
178.738	0.725	1	study	Phase1	study/STIM_015.jpg
183.232	0.765	0	study	Phase1	study/STIM_015.jpg
187.326	0.928	0	study	Phase1	study/STIM_015.jpg
191.076	1.103	0	study	Phase1	study/STIM_016.jpg
195.563	1.174	0	study	Phase1	study/STIM_016.jpg
199.473	1.354	0	study	Phase1	study/STIM_016.jpg
203.831	1.446	0	study	Phase1	study/STIM_017.jpg
208.441	1.284	1	study	Phase1	study/STIM_017.jpg
212.639	0.97	1	study	Phase1	study/STIM_017.jpg
217.543	1.266	0	study	Phase1	study/STIM_018.jpg
222.535	1.029	1	study	Phase1	study/STIM_018.jpg
226.663	0.926	1	study	Phase1	study/STIM_018.jpg
229.997	1.376	0	study	Phase1	study/STIM_019.jpg
233.482	1.424	1	study	Phase1	study/STIM_019.jpg
237.487	0.966	1	study	Phase1	study/STIM_019.jpg
241.063	0.84	0	study	Phase1	study/STIM_020.jpg
244.499	1.269	1	study	Phase1	study/STIM_020.jpg
248.223	0.735	1	study	Phase1	study/STIM_020.jpg
252.838	0.967	1	study	Phase1	study/STIM_021.jpg
256.775	0.787	1	study	Phase1	study/STIM_021.jpg
260.483	1.149	1	study	Phase1	study/STIM_021.jpg
263.732	0.758	1	study	Phase1	study/STIM_022.jpg
267.054	0.791	0	study	Phase1	study/STIM_022.jpg
269.889	1.198	0	study	Phase1	study/STIM_022.jpg
274.022	1.189	1	study	Phase1	study/STIM_023.jpg
277.266	1.272	0	study	Phase1	study/STIM_023.jpg
282.062	1.289	1	study	Phase1	study/STIM_023.jpg
286.422	1.08	1	study	Phase1	study/STIM_024.jpg
291.276	1.361	0	study	Phase1	study/STIM_024.jpg
295.867	1.314	0	study	Phase1	study/STIM_024.jpg
300.2	1.06	1	study	Phase1	study/STIM_025.jpg
305.177	0.758	1	study	Phase1	study/STIM_025.jpg
308.499	0.821	1	study	Phase1	study/STIM_025.jpg
313.318	0.723	1	study	Phase1	study/STIM_026.jpg
316.207	0.767	1	study	Phase1	study/STIM_026.jpg
319.994	0.806	1	study	Phase1	study/STIM_026.jpg
322.974	0.933	0	study	Phase1	study/STIM_027.jpg
327.797	0.912	0	study	Phase1	study/STIM_027.jpg
332.527	0.614	1	study	Phase1	study/STIM_027.jpg
337.038	0.754	0	study	Phase1	study/STIM_028.jpg
341.713	1.075	0	study	Phase1	study/STIM_028.jpg
345.303	0.951	1	study	Phase1	study/STIM_028.jpg
349.721	1.518	1	study	Phase1	study/STIM_029.jpg
354.315	1.071	0	study	Phase1	study/STIM_029.jpg
357.725	1.353	1	study	Phase1	study/STIM_029.jpg
362.075	0.864	1	test	Phase1	test/STIM_000.jpg
366.027	0.919	1	test	Phase1	test/STIM_000.jpg
370.926	0.869	1	test	Phase1	test/STIM_000.jpg
375.34	0.608	0	test	Phase1	test/STIM_001.jpg
378.642	0.763	1	test	Phase1	test/STIM_001.jpg
382.373	0.978	1	test	Phase1	test/STIM_001.jpg
386.035	0.987	1	test	Phase1	test/STIM_002.jpg
389.471	0.806	1	test	Phase1	test/STIM_002.jpg
392.295	0.891	0	test	Phase1	test/STIM_002.jpg
396.077	1.08	1	test	Phase1	test/STIM_003.jpg
400.884	0.59	1	test	Phase1	test/STIM_003.jpg
405.21	0.853	1	test	Phase1	test/STIM_003.jpg
408.806	0.562	1	test	Phase1	test/STIM_004.jpg
412.157	1.021	1	test	Phase1	test/STIM_004.jpg
417.112	1.075	1	test	Phase1	test/STIM_004.jpg
420.882	1.038	1	test	Phase1	test/STIM_005.jpg
424.807	0.697	1	test	Phase1	test/STIM_005.jpg
428.88	0.669	0	test	Phase1	test/STIM_005.jpg
431.652	0.537	1	test	Phase1	test/STIM_006.jpg
434.896	0.694	0	test	Phase1	test/STIM_006.jpg
438.232	0.621	1	test	Phase1	test/STIM_006.jpg
442.803	0.751	1	test	Phase1	test/STIM_007.jpg
446.707	1.09	0	test	Phase1	test/STIM_007.jpg
451.159	0.931	1	test	Phase1	test/STIM_007.jpg
454.267	0.908	0	test	Phase1	test/STIM_008.jpg
458.368	0.945	1	test	Phase1	test/STIM_008.jpg
462.996	0.525	0	test	Phase1	test/STIM_008.jpg
466.442	0.636	1	test	Phase1	test/STIM_009.jpg
470.985	0.55	1	test	Phase1	test/STIM_009.jpg
474.231	0.875	1	test	Phase1	test/STIM_009.jpg
477.357	0.679	1	test	Phase1	test/STIM_010.jpg
480.463	0.751	1	test	Phase1	test/STIM_010.jpg
483.649	0.724	1	test	Phase1	test/STIM_010.jpg
488.326	1.073	1	test	Phase1	test/STIM_011.jpg
491.882	0.548	1	test	Phase1	test/STIM_011.jpg
494.963	0.807	1	test	Phase1	test/STIM_011.jpg
499.487	1.008	1	test	Phase1	test/STIM_012.jpg
503.869	0.693	1	test	Phase1	test/STIM_012.jpg
507.964	0.513	1	test	Phase1	test/STIM_012.jpg
511.136	0.918	1	test	Phase1	test/STIM_013.jpg
514.663	0.988	1	test	Phase1	test/STIM_013.jpg
518.543	0.938	1	test	Phase1	test/STIM_013.jpg
523.456	0.641	0	test	Phase1	test/STIM_014.jpg
527.316	1.049	1	test	Phase1	test/STIM_014.jpg
531.868	0.844	1	test	Phase1	test/STIM_014.jpg
535.661	0.705	0	test	Phase1	test/STIM_015.jpg
540.144	0.844	1	test	Phase1	test/STIM_015.jpg
544.026	0.538	1	test	Phase1	test/STIM_015.jpg
547.548	0.691	0	test	Phase1	test/STIM_016.jpg
551.247	0.698	1	test	Phase1	test/STIM_016.jpg
554.874	0.586	1	test	Phase1	test/STIM_016.jpg
559.195	0.926	1	test	Phase1	test/STIM_017.jpg
563.673	0.986	1	test	Phase1	test/STIM_017.jpg
566.887	0.889	1	test	Phase1	test/STIM_017.jpg
570.93	0.89	0	test	Phase1	test/STIM_018.jpg
574.878	0.528	1	test	Phase1	test/STIM_018.jpg
577.568	0.765	0	test	Phase1	test/STIM_018.jpg
581.424	0.586	0	test	Phase1	test/STIM_019.jpg
585.601	0.604	1	test	Phase1	test/STIM_019.jpg
588.496	1.027	1	test	Phase1	test/STIM_019.jpg
592.457	0.571	0	test	Phase1	test/STIM_020.jpg
596.764	0.998	1	test	Phase1	test/STIM_020.jpg
599.912	0.574	1	test	Phase1	test/STIM_020.jpg
603.001	0.588	1	test	Phase1	test/STIM_021.jpg
606.359	1.066	1	test	Phase1	test/STIM_021.jpg
611.094	0.928	1	test	Phase1	test/STIM_021.jpg
615.494	0.67	1	test	Phase1	test/STIM_022.jpg
618.846	1.098	1	test	Phase1	test/STIM_022.jpg
622.502	1.058	1	test	Phase1	test/STIM_022.jpg
626.954	0.937	0	test	Phase1	test/STIM_023.jpg
631.84	1.085	1	test	Phase1	test/STIM_023.jpg
636.569	0.89	1	test	Phase1	test/STIM_023.jpg
639.715	0.892	1	test	Phase1	test/STIM_024.jpg
644.431	0.767	1	test	Phase1	test/STIM_024.jpg
647.923	0.997	1	test	Phase1	test/STIM_024.jpg
651.838	0.54	1	test	Phase1	test/STIM_025.jpg
655.317	1.057	1	test	Phase1	test/STIM_025.jpg
658.997	0.818	1	test	Phase1	test/STIM_025.jpg
663.76	0.721	1	test	Phase1	test/STIM_026.jpg
667.192	0.912	1	test	Phase1	test/STIM_026.jpg
671.534	0.666	1	test	Phase1	test/STIM_026.jpg
674.45	0.896	1	test	Phase1	test/STIM_027.jpg
678.541	1.022	1	test	Phase1	test/STIM_027.jpg
682.462	0.779	0	test	Phase1	test/STIM_027.jpg
686.582	0.994	0	test	Phase1	test/STIM_028.jpg
690.419	1.004	1	test	Phase1	test/STIM_028.jpg
693.909	0.833	0	test	Phase1	test/STIM_028.jpg
696.946	1.047	1	test	Phase1	test/STIM_029.jpg
701.513	0.536	1	test	Phase1	test/STIM_029.jpg
704.925	0.71	1	test	Phase1	test/STIM_029.jpg
707.818	1.119	1	study	Phase2	study/STIM_000.jpg
711.31	0.669	1	study	Phase2	study/STIM_000.jpg
714.093	0.88	1	study	Phase2	study/STIM_000.jpg
717.008	0.61	1	study	Phase2	study/STIM_001.jpg
721.257	0.762	1	study	Phase2	study/STIM_001.jpg
725.212	0.681	1	study	Phase2	study/STIM_001.jpg
729.364	1.025	1	study	Phase2	study/STIM_002.jpg
733.872	0.998	0	study	Phase2	study/STIM_002.jpg
737.575	0.587	1	study	Phase2	study/STIM_002.jpg
741.515	1.192	1	study	Phase2	study/STIM_003.jpg
745.964	0.666	1	study	Phase2	study/STIM_003.jpg
750.256	0.874	1	study	Phase2	study/STIM_003.jpg
754.693	1.081	0	study	Phase2	study/STIM_004.jpg
757.886	1.047	1	study	Phase2	study/STIM_004.jpg
761.505	0.914	1	study	Phase2	study/STIM_004.jpg
766.335	0.599	0	study	Phase2	study/STIM_005.jpg
769.267	1.023	1	study	Phase2	study/STIM_005.jpg
772.761	0.821	1	study	Phase2	study/STIM_005.jpg
776.005	0.679	1	study	Phase2	study/STIM_006.jpg
779.685	1.158	1	study	Phase2	study/STIM_006.jpg
784.135	0.655	0	study	Phase2	study/STIM_006.jpg
788.157	1.002	1	study	Phase2	study/STIM_007.jpg
791.778	0.844	1	study	Phase2	study/STIM_007.jpg
796.591	0.693	1	study	Phase2	study/STIM_007.jpg
799.992	0.981	1	study	Phase2	study/STIM_008.jpg
804.804	0.721	1	study	Phase2	study/STIM_008.jpg
807.732	0.924	1	study	Phase2	study/STIM_008.jpg
810.993	1.271	1	study	Phase2	study/STIM_009.jpg
816.156	0.999	1	study	Phase2	study/STIM_009.jpg
819.532	0.7	1	study	Phase2	study/STIM_009.jpg
822.519	0.65	0	study	Phase2	study/STIM_010.jpg
826.761	0.637	0	study	Phase2	study/STIM_010.jpg
830.685	0.632	1	study	Phase2	study/STIM_010.jpg
833.651	1.239	1	study	Phase2	study/STIM_011.jpg
837.598	0.985	1	study	Phase2	study/STIM_011.jpg
841.937	0.94	1	study	Phase2	study/STIM_011.jpg
845.41	0.603	1	study	Phase2	study/STIM_012.jpg
849.795	0.926	1	study	Phase2	study/STIM_012.jpg
854.705	0.611	1	study	Phase2	study/STIM_012.jpg
858.664	1.28	1	study	Phase2	study/STIM_013.jpg
863.317	0.706	1	study	Phase2	study/STIM_013.jpg
866.237	1.003	1	study	Phase2	study/STIM_013.jpg
870.006	1.028	1	study	Phase2	study/STIM_014.jpg
873.91	0.751	1	study	Phase2	study/STIM_014.jpg
878.533	1.104	1	study	Phase2	study/STIM_014.jpg
883.387	1.105	1	study	Phase2	study/STIM_015.jpg
886.626	0.723	1	study	Phase2	study/STIM_015.jpg
890.615	0.965	1	study	Phase2	study/STIM_015.jpg
895.019	0.595	1	study	Phase2	study/STIM_016.jpg
898.868	0.64	0	study	Phase2	study/STIM_016.jpg
901.978	0.921	1	study	Phase2	study/STIM_016.jpg
906.091	0.652	1	study	Phase2	study/STIM_017.jpg
910.563	0.724	1	study	Phase2	study/STIM_017.jpg
915.285	0.642	1	study	Phase2	study/STIM_017.jpg
919.252	1.269	1	study	Phase2	study/STIM_018.jpg
923.527	1.079	0	study	Phase2	study/STIM_018.jpg
928.561	1.119	0	study	Phase2	study/STIM_018.jpg
932.279	0.647	1	study	Phase2	study/STIM_019.jpg
936.558	0.797	0	study	Phase2	study/STIM_019.jpg
940.04	1.13	1	study	Phase2	study/STIM_019.jpg
944.002	0.695	1	study	Phase2	study/STIM_020.jpg
948.338	0.732	1	study	Phase2	study/STIM_020.jpg
951.183	0.584	1	study	Phase2	study/STIM_020.jpg
955.624	0.932	0	study	Phase2	study/STIM_021.jpg
959.448	1.021	1	study	Phase2	study/STIM_021.jpg
962.817	0.736	1	study	Phase2	study/STIM_021.jpg
965.695	0.835	1	study	Phase2	study/STIM_022.jpg
970.522	0.862	1	study	Phase2	study/STIM_022.jpg
974.249	1.012	1	study	Phase2	study/STIM_022.jpg
979.034	0.87	1	study	Phase2	study/STIM_023.jpg
983.165	0.824	1	study	Phase2	study/STIM_023.jpg
986.176	0.518	1	study	Phase2	study/STIM_023.jpg
989.167	0.727	1	study	Phase2	study/STIM_024.jpg
992.534	0.884	1	study	Phase2	study/STIM_024.jpg
997.337	1.048	1	study	Phase2	study/STIM_024.jpg
1001.198	1.123	1	study	Phase2	study/STIM_025.jpg
1004.338	0.555	1	study	Phase2	study/STIM_025.jpg
1007.804	0.836	1	study	Phase2	study/STIM_025.jpg
1011.485	1.091	1	study	Phase2	study/STIM_026.jpg
1016.041	0.699	1	study	Phase2	study/STIM_026.jpg
1019.917	0.641	1	study	Phase2	study/STIM_026.jpg
1023.814	1.172	0	study	Phase2	study/STIM_027.jpg
1027.502	1.128	1	study	Phase2	study/STIM_027.jpg
1031.526	0.817	0	study	Phase2	study/STIM_027.jpg
1035.597	0.833	1	study	Phase2	study/STIM_028.jpg
1039.39	0.87	0	study	Phase2	study/STIM_028.jpg
1044.093	1.015	0	study	Phase2	study/STIM_028.jpg
1048.546	0.996	1	study	Phase2	study/STIM_029.jpg
1051.927	0.855	0	study	Phase2	study/STIM_029.jpg
1056.612	0.72	1	study	Phase2	study/STIM_029.jpg
1060.398	0.881	1	test	Phase2	test/STIM_000.jpg
1063.538	0.73	1	test	Phase2	test/STIM_000.jpg
1067.514	0.772	1	test	Phase2	test/STIM_000.jpg
1070.727	0.605	0	test	Phase2	test/STIM_001.jpg
1075.185	0.928	1	test	Phase2	test/STIM_001.jpg
1079.148	0.557	1	test	Phase2	test/STIM_001.jpg
1083.038	0.676	1	test	Phase2	test/STIM_002.jpg
1085.933	1.079	0	test	Phase2	test/STIM_002.jpg
1090.308	0.653	1	test	Phase2	test/STIM_002.jpg
1094.515	0.906	0	test	Phase2	test/STIM_003.jpg
1099.206	0.554	1	test	Phase2	test/STIM_003.jpg
1102.256	1.092	0	test	Phase2	test/STIM_003.jpg
1106.814	0.913	0	test	Phase2	test/STIM_004.jpg
1110.204	0.674	1	test	Phase2	test/STIM_004.jpg
1113.347	0.519	1	test	Phase2	test/STIM_004.jpg
1117.797	0.71	1	test	Phase2	test/STIM_005.jpg
1120.521	0.91	1	test	Phase2	test/STIM_005.jpg
1123.724	0.602	1	test	Phase2	test/STIM_005.jpg
1127.559	0.534	1	test	Phase2	test/STIM_006.jpg
1130.711	0.726	1	test	Phase2	test/STIM_006.jpg
1135.058	0.744	0	test	Phase2	test/STIM_006.jpg
1138.616	0.964	1	test	Phase2	test/STIM_007.jpg
1143.375	1.045	1	test	Phase2	test/STIM_007.jpg
1148.293	0.996	1	test	Phase2	test/STIM_007.jpg
1151.691	0.984	1	test	Phase2	test/STIM_008.jpg
1155.253	1.071	1	test	Phase2	test/STIM_008.jpg
1158.624	0.826	1	test	Phase2	test/STIM_008.jpg
1162.74	0.518	1	test	Phase2	test/STIM_009.jpg
1165.347	0.592	1	test	Phase2	test/STIM_009.jpg
1169.072	1.059	1	test	Phase2	test/STIM_009.jpg
1173.777	0.515	1	test	Phase2	test/STIM_010.jpg
1177.211	0.803	0	test	Phase2	test/STIM_010.jpg
1181.383	0.805	1	test	Phase2	test/STIM_010.jpg
1185.159	0.596	1	test	Phase2	test/STIM_011.jpg
1188.1	1.024	1	test	Phase2	test/STIM_011.jpg
1191.438	1.077	1	test	Phase2	test/STIM_011.jpg
1194.661	0.878	1	test	Phase2	test/STIM_012.jpg
1199.147	0.992	1	test	Phase2	test/STIM_012.jpg
1203.142	0.777	1	test	Phase2	test/STIM_012.jpg
1206.184	0.831	1	test	Phase2	test/STIM_013.jpg
1209.194	0.755	1	test	Phase2	test/STIM_013.jpg
1213.661	0.566	0	test	Phase2	test/STIM_013.jpg
1216.753	1.025	1	test	Phase2	test/STIM_014.jpg
1221.218	0.567	1	test	Phase2	test/STIM_014.jpg
1224.497	0.974	1	test	Phase2	test/STIM_014.jpg
1228.75	0.647	1	test	Phase2	test/STIM_015.jpg
1233.144	0.582	1	test	Phase2	test/STIM_015.jpg
1236.914	0.583	1	test	Phase2	test/STIM_015.jpg
1239.818	0.922	0	test	Phase2	test/STIM_016.jpg
1242.952	0.807	1	test	Phase2	test/STIM_016.jpg
1247.631	0.811	1	test	Phase2	test/STIM_016.jpg
1251.514	0.741	0	test	Phase2	test/STIM_017.jpg
1255.241	0.787	1	test	Phase2	test/STIM_017.jpg
1259.721	1.0	1	test	Phase2	test/STIM_017.jpg
1263.388	0.799	1	test	Phase2	test/STIM_018.jpg
1266.663	0.977	1	test	Phase2	test/STIM_018.jpg
1270.309	0.571	1	test	Phase2	test/STIM_018.jpg
1274.778	0.688	0	test	Phase2	test/STIM_019.jpg
1278.387	0.689	0	test	Phase2	test/STIM_019.jpg
1281.723	0.83	1	test	Phase2	test/STIM_019.jpg
1285.265	0.772	1	test	Phase2	test/STIM_020.jpg
1288.792	0.66	1	test	Phase2	test/STIM_020.jpg
1292.368	0.957	0	test	Phase2	test/STIM_020.jpg
1296.744	0.52	1	test	Phase2	test/STIM_021.jpg
1300.815	0.708	1	test	Phase2	test/STIM_021.jpg
1303.933	0.947	1	test	Phase2	test/STIM_021.jpg
1308.585	0.625	1	test	Phase2	test/STIM_022.jpg
1311.915	0.935	1	test	Phase2	test/STIM_022.jpg
1316.662	0.582	1	test	Phase2	test/STIM_022.jpg
1320.23	0.556	1	test	Phase2	test/STIM_023.jpg
1324.674	1.086	1	test	Phase2	test/STIM_023.jpg
1329.606	0.83	0	test	Phase2	test/STIM_023.jpg
1333.84	0.898	1	test	Phase2	test/STIM_024.jpg
1337.268	0.905	1	test	Phase2	test/STIM_024.jpg
1340.401	0.51	1	test	Phase2	test/STIM_024.jpg
1344.515	0.973	1	test	Phase2	test/STIM_025.jpg
1348.088	0.597	1	test	Phase2	test/STIM_025.jpg
1351.437	0.955	1	test	Phase2	test/STIM_025.jpg
1354.547	0.518	1	test	Phase2	test/STIM_026.jpg
1357.886	1.06	1	test	Phase2	test/STIM_026.jpg
1362.55	0.784	0	test	Phase2	test/STIM_026.jpg
1365.55	1.026	0	test	Phase2	test/STIM_027.jpg
1368.912	0.811	1	test	Phase2	test/STIM_027.jpg
1372.973	1.068	1	test	Phase2	test/STIM_027.jpg
1377.121	0.537	1	test	Phase2	test/STIM_028.jpg
1380.033	0.527	1	test	Phase2	test/STIM_028.jpg
1384.006	0.588	1	test	Phase2	test/STIM_028.jpg
1386.904	0.686	1	test	Phase2	test/STIM_029.jpg
1390.334	0.658	1	test	Phase2	test/STIM_029.jpg
1393.807	1.092	1	test	Phase2	test/STIM_029.jpg
1397.183	0.505	1	study	Phase3	study/STIM_000.jpg
1399.797	0.969	1	study	Phase3	study/STIM_000.jpg
1403.82	0.806	1	study	Phase3	study/STIM_000.jpg
1407.021	0.662	1	study	Phase3	study/STIM_001.jpg
1410.104	0.542	1	study	Phase3	study/STIM_001.jpg
1412.69	0.949	1	study	Phase3	study/STIM_001.jpg
1416.233	0.554	1	study	Phase3	study/STIM_002.jpg
1420.182	0.854	1	study	Phase3	study/STIM_002.jpg
1424.911	0.883	1	study	Phase3	study/STIM_002.jpg
1428.281	0.972	1	study	Phase3	study/STIM_003.jpg
1431.398	0.89	1	study	Phase3	study/STIM_003.jpg
1436.128	0.858	1	study	Phase3	study/STIM_003.jpg
1440.883	0.627	1	study	Phase3	study/STIM_004.jpg
1444.314	0.504	1	study	Phase3	study/STIM_004.jpg
1447.064	0.711	1	study	Phase3	study/STIM_004.jpg
1451.321	0.949	1	study	Phase3	study/STIM_005.jpg
1455.003	0.695	0	study	Phase3	study/STIM_005.jpg
1459.295	0.892	1	study	Phase3	study/STIM_005.jpg
1462.92	0.536	1	study	Phase3	study/STIM_006.jpg
1465.699	1.057	1	study	Phase3	study/STIM_006.jpg
1469.537	0.816	1	study	Phase3	study/STIM_006.jpg
1473.461	0.577	1	study	Phase3	study/STIM_007.jpg
1477.724	0.855	1	study	Phase3	study/STIM_007.jpg
1482.313	1.003	1	study	Phase3	study/STIM_007.jpg
1485.506	0.796	1	study	Phase3	study/STIM_008.jpg
1489.815	0.833	0	study	Phase3	study/STIM_008.jpg
1494.243	0.9	1	study	Phase3	study/STIM_008.jpg
1498.07	0.577	1	study	Phase3	study/STIM_009.jpg
1500.683	0.711	1	study	Phase3	study/STIM_009.jpg
1504.633	0.866	1	study	Phase3	study/STIM_009.jpg
1507.93	0.545	1	study	Phase3	study/STIM_010.jpg
1510.788	1.051	1	study	Phase3	study/STIM_010.jpg
1514.84	1.055	1	study	Phase3	study/STIM_010.jpg
1518.501	0.851	1	study	Phase3	study/STIM_011.jpg
1523.209	0.512	1	study	Phase3	study/STIM_011.jpg
1526.904	0.86	1	study	Phase3	study/STIM_011.jpg
1530.493	0.973	1	study	Phase3	study/STIM_012.jpg
1535.119	0.807	1	study	Phase3	study/STIM_012.jpg
1539.353	0.596	1	study	Phase3	study/STIM_012.jpg
1543.685	0.729	1	study	Phase3	study/STIM_013.jpg
1547.319	0.558	1	study	Phase3	study/STIM_013.jpg
1551.781	0.663	1	study	Phase3	study/STIM_013.jpg
1556.206	0.681	1	study	Phase3	study/STIM_014.jpg
1560.336	0.658	1	study	Phase3	study/STIM_014.jpg
1563.879	0.761	1	study	Phase3	study/STIM_014.jpg
1567.405	0.736	1	study	Phase3	study/STIM_015.jpg
1570.875	0.785	1	study	Phase3	study/STIM_015.jpg
1574.384	0.784	1	study	Phase3	study/STIM_015.jpg
1577.707	0.638	1	study	Phase3	study/STIM_016.jpg
1581.792	0.815	1	study	Phase3	study/STIM_016.jpg
1584.666	0.84	0	study	Phase3	study/STIM_016.jpg
1588.597	0.686	1	study	Phase3	study/STIM_017.jpg
1591.67	1.036	1	study	Phase3	study/STIM_017.jpg
1595.639	0.505	0	study	Phase3	study/STIM_017.jpg
1599.578	0.792	1	study	Phase3	study/STIM_018.jpg
1602.857	0.914	1	study	Phase3	study/STIM_018.jpg
1606.151	0.746	1	study	Phase3	study/STIM_018.jpg
1609.392	0.856	1	study	Phase3	study/STIM_019.jpg
1613.897	0.721	0	study	Phase3	study/STIM_019.jpg
1617.165	1.054	1	study	Phase3	study/STIM_019.jpg
1621.638	0.478	1	study	Phase3	study/STIM_020.jpg
1624.191	0.811	1	study	Phase3	study/STIM_020.jpg
1628.939	0.794	1	study	Phase3	study/STIM_020.jpg
1633.622	0.872	1	study	Phase3	study/STIM_021.jpg
1637.426	0.616	1	study	Phase3	study/STIM_021.jpg
1640.953	0.818	1	study	Phase3	study/STIM_021.jpg
1644.1	0.772	1	study	Phase3	study/STIM_022.jpg
1648.2	0.674	1	study	Phase3	study/STIM_022.jpg
1652.698	0.598	1	study	Phase3	study/STIM_022.jpg
1656.778	0.964	1	study	Phase3	study/STIM_023.jpg
1661.521	0.829	1	study	Phase3	study/STIM_023.jpg
1664.406	0.62	1	study	Phase3	study/STIM_023.jpg
1668.283	0.804	1	study	Phase3	study/STIM_024.jpg
1671.646	0.808	1	study	Phase3	study/STIM_024.jpg
1675.281	0.918	1	study	Phase3	study/STIM_024.jpg
1680.18	0.638	1	study	Phase3	study/STIM_025.jpg
1683.477	0.734	1	study	Phase3	study/STIM_025.jpg
1687.58	0.996	1	study	Phase3	study/STIM_025.jpg
1692.323	0.509	1	study	Phase3	study/STIM_026.jpg
1695.49	0.66	1	study	Phase3	study/STIM_026.jpg
1700.031	0.502	1	study	Phase3	study/STIM_026.jpg
1704.246	0.708	1	study	Phase3	study/STIM_027.jpg
1707.804	0.702	1	study	Phase3	study/STIM_027.jpg
1712.029	0.773	1	study	Phase3	study/STIM_027.jpg
1715.732	0.508	0	study	Phase3	study/STIM_028.jpg
1719.113	0.566	1	study	Phase3	study/STIM_028.jpg
1723.213	0.632	1	study	Phase3	study/STIM_028.jpg
1727.288	1.031	1	study	Phase3	study/STIM_029.jpg
1731.349	0.932	1	study	Phase3	study/STIM_029.jpg
1735.387	0.542	1	study	Phase3	study/STIM_029.jpg
1738.988	0.667	0	test	Phase3	test/STIM_000.jpg
1743.1	0.527	1	test	Phase3	test/STIM_000.jpg
1746.705	1.081	1	test	Phase3	test/STIM_000.jpg
1749.913	0.834	1	test	Phase3	test/STIM_001.jpg
1754.741	0.762	1	test	Phase3	test/STIM_001.jpg
1759.316	0.621	1	test	Phase3	test/STIM_001.jpg
1762.748	0.532	1	test	Phase3	test/STIM_002.jpg
1765.81	0.914	1	test	Phase3	test/STIM_002.jpg
1769.26	0.988	0	test	Phase3	test/STIM_002.jpg
1773.324	0.549	1	test	Phase3	test/STIM_003.jpg
1777.406	0.897	1	test	Phase3	test/STIM_003.jpg
1781.598	1.081	1	test	Phase3	test/STIM_003.jpg
1786.528	0.814	1	test	Phase3	test/STIM_004.jpg
1790.398	0.582	1	test	Phase3	test/STIM_004.jpg
1793.946	0.876	1	test	Phase3	test/STIM_004.jpg
1797.211	0.798	1	test	Phase3	test/STIM_005.jpg
1800.777	0.759	1	test	Phase3	test/STIM_005.jpg
1804.743	0.684	1	test	Phase3	test/STIM_005.jpg
1807.863	1.079	1	test	Phase3	test/STIM_006.jpg
1811.686	0.523	1	test	Phase3	test/STIM_006.jpg
1815.769	0.626	1	test	Phase3	test/STIM_006.jpg
1819.345	0.513	1	test	Phase3	test/STIM_007.jpg
1823.473	0.964	1	test	Phase3	test/STIM_007.jpg
1828.147	0.912	1	test	Phase3	test/STIM_007.jpg
1832.624	1.008	1	test	Phase3	test/STIM_008.jpg
1836.649	0.645	1	test	Phase3	test/STIM_008.jpg
1840.749	1.088	1	test	Phase3	test/STIM_008.jpg
1844.288	0.633	1	test	Phase3	test/STIM_009.jpg
1847.295	0.547	1	test	Phase3	test/STIM_009.jpg
1849.891	1.002	1	test	Phase3	test/STIM_009.jpg
1854.576	0.836	1	test	Phase3	test/STIM_010.jpg
1859.264	0.513	1	test	Phase3	test/STIM_010.jpg
1862.278	0.904	1	test	Phase3	test/STIM_010.jpg
1866.101	0.867	0	test	Phase3	test/STIM_011.jpg
1870.578	1.08	1	test	Phase3	test/STIM_011.jpg
1874.648	0.558	1	test	Phase3	test/STIM_011.jpg
1878.212	0.593	1	test	Phase3	test/STIM_012.jpg
1881.473	0.816	1	test	Phase3	test/STIM_012.jpg
1884.306	0.958	1	test	Phase3	test/STIM_012.jpg
1887.997	0.539	1	test	Phase3	test/STIM_013.jpg
1892.446	0.65	1	test	Phase3	test/STIM_013.jpg
1895.463	0.849	1	test	Phase3	test/STIM_013.jpg
1899.024	0.92	1	test	Phase3	test/STIM_014.jpg
1902.717	0.756	1	test	Phase3	test/STIM_014.jpg
1905.485	0.554	1	test	Phase3	test/STIM_014.jpg
1908.195	0.926	1	test	Phase3	test/STIM_015.jpg
1911.662	0.727	0	test	Phase3	test/STIM_015.jpg
1916.152	1.065	1	test	Phase3	test/STIM_015.jpg
1919.39	0.904	1	test	Phase3	test/STIM_016.jpg
1923.235	0.536	1	test	Phase3	test/STIM_016.jpg
1927.353	0.776	1	test	Phase3	test/STIM_016.jpg
1930.897	1.013	1	test	Phase3	test/STIM_017.jpg
1934.455	0.577	0	test	Phase3	test/STIM_017.jpg
1938.873	0.852	1	test	Phase3	test/STIM_017.jpg
1942.918	0.724	1	test	Phase3	test/STIM_018.jpg
1946.689	0.576	1	test	Phase3	test/STIM_018.jpg
1950.339	1.062	0	test	Phase3	test/STIM_018.jpg
1955.14	0.96	0	test	Phase3	test/STIM_019.jpg
1958.172	0.568	1	test	Phase3	test/STIM_019.jpg
1961.139	0.727	1	test	Phase3	test/STIM_019.jpg
1965.317	0.574	1	test	Phase3	test/STIM_020.jpg
1968.862	0.828	1	test	Phase3	test/STIM_020.jpg
1972.033	0.986	0	test	Phase3	test/STIM_020.jpg
1976.13	0.922	1	test	Phase3	test/STIM_021.jpg
1979.329	0.902	1	test	Phase3	test/STIM_021.jpg
1983.509	0.708	1	test	Phase3	test/STIM_021.jpg
1987.391	0.558	1	test	Phase3	test/STIM_022.jpg
1991.462	0.978	1	test	Phase3	test/STIM_022.jpg
1996.229	0.666	1	test	Phase3	test/STIM_022.jpg
2000.692	1.038	1	test	Phase3	test/STIM_023.jpg
2005.448	0.56	1	test	Phase3	test/STIM_023.jpg
2008.649	0.613	0	test	Phase3	test/STIM_023.jpg
2012.098	0.656	1	test	Phase3	test/STIM_024.jpg
2015.024	0.683	1	test	Phase3	test/STIM_024.jpg
2018.591	0.713	1	test	Phase3	test/STIM_024.jpg
2023.09	0.955	1	test	Phase3	test/STIM_025.jpg
2027.535	0.597	1	test	Phase3	test/STIM_025.jpg
2030.823	0.986	0	test	Phase3	test/STIM_025.jpg
2033.935	0.585	1	test	Phase3	test/STIM_026.jpg
2037.788	0.657	1	test	Phase3	test/STIM_026.jpg
2041.501	0.895	1	test	Phase3	test/STIM_026.jpg
2046.125	0.691	1	test	Phase3	test/STIM_027.jpg
2048.848	0.728	1	test	Phase3	test/STIM_027.jpg
2052.663	0.55	1	test	Phase3	test/STIM_027.jpg
2055.649	0.908	1	test	Phase3	test/STIM_028.jpg
2059.681	0.946	1	test	Phase3	test/STIM_028.jpg
2063.338	0.986	1	test	Phase3	test/STIM_028.jpg
2067.466	0.949	1	test	Phase3	test/STIM_029.jpg
2071.021	0.779	1	test	Phase3	test/STIM_029.jpg
2075.66	0.83	1	test	Phase3	test/STIM_029.jpg
