onset	duration	response_time_ms	trial_type	learning_stage	stimulus	response_port
0.0	1.14	1139.9	study	Phase1	study/STIM_000.jpg	100
3.428	0.913	912.9	study	Phase1	study/STIM_000.jpg	99
7.926	1.654	1654.2	study	Phase1	study/STIM_000.jpg	99
13.017	1.379	1379.4	study	Phase1	study/STIM_001.jpg	99
17.348	0.889	888.7	study	Phase1	study/STIM_001.jpg	99
21.36	1.029	1028.9	study	Phase1	study/STIM_001.jpg	100
24.617	0.972	971.7	study	Phase1	study/STIM_002.jpg	100
29.154	0.882	882.2	study	Phase1	study/STIM_002.jpg	99
33.076	1.598	1597.5	study	Phase1	study/STIM_002.jpg	100
37.233	1.573	1573.3	study	Phase1	study/STIM_003.jpg	100
40.683	1.607	1606.8	study	Phase1	study/STIM_003.jpg	100
45.303	1.569	1568.8	study	Phase1	study/STIM_003.jpg	100
49.102	1.185	1184.8	study	Phase1	study/STIM_004.jpg	100
52.514	1.536	1535.9	study	Phase1	study/STIM_004.jpg	99
57.842	1.514	1513.8	study	Phase1	study/STIM_004.jpg	99
61.339	1.753	1753.0	study	Phase1	study/STIM_005.jpg	99
66.188	1.638	1638.4	study	Phase1	study/STIM_005.jpg	100
71.36	0.834	833.5	study	Phase1	study/STIM_005.jpg	100
75.832	1.146	1145.6	study	Phase1	study/STIM_006.jpg	100
79.546	1.744	1744.5	study	Phase1	study/STIM_006.jpg	99
84.376	0.955	954.6	study	Phase1	study/STIM_006.jpg	99
87.598	1.157	1156.8	study	Phase1	study/STIM_007.jpg	100
92.463	1.065	1064.8	study	Phase1	study/STIM_007.jpg	100
96.942	1.293	1292.9	study	Phase1	study/STIM_007.jpg	99
100.406	1.608	1608.1	study	Phase1	study/STIM_008.jpg	100
104.165	1.616	1616.3	study	Phase1	study/STIM_008.jpg	99
109.084	1.1	1099.5	study	Phase1	study/STIM_008.jpg	100
112.893	1.953	1952.8	study	Phase1	study/STIM_009.jpg	99
117.267	1.204	1204.1	study	Phase1	study/STIM_009.jpg	99
120.869	1.744	1743.6	study	Phase1	study/STIM_009.jpg	100
126.204	1.074	1074.1	study	Phase1	study/STIM_010.jpg	99
130.921	0.991	990.7	study	Phase1	study/STIM_010.jpg	99
134.747	1.75	1749.8	study	Phase1	study/STIM_010.jpg	100
138.922	1.114	1114.5	study	Phase1	study/STIM_011.jpg	99
142.096	0.946	946.3	study	Phase1	study/STIM_011.jpg	100
145.839	1.596	1595.9	study	Phase1	study/STIM_011.jpg	100
149.535	1.53	1529.8	study	Phase1	study/STIM_012.jpg	99
153.174	0.932	931.6	study	Phase1	study/STIM_012.jpg	100
157.735	1.172	1171.9	study	Phase1	study/STIM_012.jpg	99
161.849	1.621	1621.3	study	Phase1	study/STIM_013.jpg	100
166.583	1.135	1135.0	study	Phase1	study/STIM_013.jpg	100
170.507	1.689	1689.4	study	Phase1	study/STIM_013.jpg	100
175.694	1.941	1941.0	study	Phase1	study/STIM_014.jpg	99
180.869	1.553	1553.3	study	Phase1	study/STIM_014.jpg	99
186.241	1.424	1424.3	study	Phase1	study/STIM_014.jpg	100
191.176	1.077	1076.9	study	Phase1	study/STIM_015.jpg	99
195.903	1.18	1180.2	study	Phase1	study/STIM_015.jpg	100
199.887	1.228	1227.5	study	Phase1	study/STIM_015.jpg	99
204.526	1.876	1876.2	study	Phase1	study/STIM_016.jpg	100
208.611	1.796	1795.5	study	Phase1	study/STIM_016.jpg	100
212.708	0.85	850.4	study	Phase1	study/STIM_016.jpg	99
217.313	1.566	1565.9	study	Phase1	study/STIM_017.jpg	100
221.26	1.646	1645.8	study	Phase1	study/STIM_017.jpg	100
225.455	1.428	1427.7	study	Phase1	study/STIM_017.jpg	100
230.385	1.175	1175.3	study	Phase1	study/STIM_018.jpg	99
234.23	1.424	1423.8	study	Phase1	study/STIM_018.jpg	99
237.59	1.639	1638.6	study	Phase1	study/STIM_018.jpg	100
242.768	2.004	2003.9	study	Phase1	study/STIM_019.jpg	100
247.098	1.528	1527.6	study	Phase1	study/STIM_019.jpg	100
252.319	1.334	1333.6	study	Phase1	study/STIM_019.jpg	99
255.763	1.97	1970.1	study	Phase1	study/STIM_020.jpg	100
259.868	1.17	1170.4	study	Phase1	study/STIM_020.jpg	100
263.456	1.534	1534.1	study	Phase1	study/STIM_020.jpg	99
267.087	1.363	1363.0	study	Phase1	study/STIM_021.jpg	100
271.489	1.275	1275.0	study	Phase1	study/STIM_021.jpg	99
276.616	1.655	1655.1	study	Phase1	study/STIM_021.jpg	99
280.215	0.91	909.6	study	Phase1	study/STIM_022.jpg	99
284.233	1.839	1839.4	study	Phase1	study/STIM_022.jpg	99
289.562	1.18	1180.3	study	Phase1	study/STIM_022.jpg	100
294.147	1.104	1104.4	study	Phase1	study/STIM_023.jpg	99
298.395	0.901	900.9	study	Phase1	study/STIM_023.jpg	99
302.292	1.797	1797.0	study	Phase1	study/STIM_023.jpg	99
307.541	1.403	1403.3	study	Phase1	study/STIM_024.jpg	100
311.964	1.718	1718.0	study	Phase1	study/STIM_024.jpg	100
316.775	1.395	1395.2	study	Phase1	study/STIM_024.jpg	99
320.35	1.015	1015.4	study	Phase1	study/STIM_025.jpg	99
324.991	1.198	1198.5	study	Phase1	study/STIM_025.jpg	99
329.448	1.113	1112.6	study	Phase1	study/STIM_025.jpg	100
332.781	1.984	1984.0	study	Phase1	study/STIM_026.jpg	100
338.268	1.268	1267.9	study	Phase1	study/STIM_026.jpg	99
341.702	0.905	905.4	study	Phase1	study/STIM_026.jpg	100
345.603	1.307	1306.9	study	Phase1	study/STIM_027.jpg	100
348.873	1.295	1294.8	study	Phase1	study/STIM_027.jpg	99
352.92	1.45	1450.3	study	Phase1	study/STIM_027.jpg	100
357.926	1.417	1416.7	study	Phase1	study/STIM_028.jpg	100
361.787	1.522	1521.6	study	Phase1	study/STIM_028.jpg	99
365.975	1.065	1064.9	study	Phase1	study/STIM_028.jpg	100
370.266	1.372	1372.0	study	Phase1	study/STIM_029.jpg	99
373.923	1.5	1500.2	study	Phase1	study/STIM_029.jpg	99
379.27	1.435	1434.6	study	Phase1	study/STIM_029.jpg	100
383.554	1.366	1366.2	test	Phase1	test/STIM_000.jpg	100
387.698	1.251	1250.6	test	Phase1	test/STIM_000.jpg	100
391.785	0.783	783.4	test	Phase1	test/STIM_000.jpg	100
395.012	1.392	1392.4	test	Phase1	test/STIM_001.jpg	100
400.157	1.069	1068.9	test	Phase1	test/STIM_001.jpg	99
404.216	0.746	746.5	test	Phase1	test/STIM_001.jpg	99
407.104	1.242	1241.6	test	Phase1	test/STIM_002.jpg	99
411.696	0.897	896.7	test	Phase1	test/STIM_002.jpg	99
415.263	1.394	1393.5	test	Phase1	test/STIM_002.jpg	100
419.35	0.953	953.3	test	Phase1	test/STIM_003.jpg	99
424.281	1.166	1166.4	test	Phase1	test/STIM_003.jpg	100
428.519	0.887	886.7	test	Phase1	test/STIM_003.jpg	99
431.545	1.159	1158.7	test	Phase1	test/STIM_004.jpg	100
436.034	1.326	1325.6	test	Phase1	test/STIM_004.jpg	99
440.407	1.432	1432.3	test	Phase1	test/STIM_004.jpg	100
444.294	0.87	870.3	test	Phase1	test/STIM_005.jpg	100
447.846	1.194	1193.8	test	Phase1	test/STIM_005.jpg	99
451.383	0.73	730.4	test	Phase1	test/STIM_005.jpg	100
454.973	0.883	882.7	test	Phase1	test/STIM_006.jpg	100
459.495	1.376	1376.4	test	Phase1	test/STIM_006.jpg	99
463.448	0.681	680.7	test	Phase1	test/STIM_006.jpg	100
467.704	0.718	717.8	test	Phase1	test/STIM_007.jpg	100
471.987	1.132	1132.2	test	Phase1	test/STIM_007.jpg	100
476.264	0.908	908.2	test	Phase1	test/STIM_007.jpg	99
480.619	1.31	1310.3	test	Phase1	test/STIM_008.jpg	99
485.681	0.927	926.7	test	Phase1	test/STIM_008.jpg	99
489.534	1.424	1424.0	test	Phase1	test/STIM_008.jpg	99
492.937	1.365	1364.6	test	Phase1	test/STIM_009.jpg	99
497.775	0.739	738.8	test	Phase1	test/STIM_009.jpg	99
502.216	0.886	885.7	test	Phase1	test/STIM_009.jpg	100
505.118	0.785	784.6	test	Phase1	test/STIM_010.jpg	100
508.974	1.176	1175.9	test	Phase1	test/STIM_010.jpg	100
513.947	0.769	769.1	test	Phase1	test/STIM_010.jpg	100
516.606	1.095	1095.3	test	Phase1	test/STIM_011.jpg	99
520.935	1.3	1300.0	test	Phase1	test/STIM_011.jpg	100
525.195	0.968	968.5	test	Phase1	test/STIM_011.jpg	100
528.261	1.24	1239.5	test	Phase1	test/STIM_012.jpg	100
532.87	1.053	1052.9	test	Phase1	test/STIM_012.jpg	100
537.106	0.779	779.4	test	Phase1	test/STIM_012.jpg	99
541.053	0.693	693.4	test	Phase1	test/STIM_013.jpg	99
544.8	0.795	795.2	test	Phase1	test/STIM_013.jpg	100
547.957	1.23	1229.8	test	Phase1	test/STIM_013.jpg	99
553.078	1.027	1027.0	test	Phase1	test/STIM_014.jpg	100
557.536	0.787	787.2	test	Phase1	test/STIM_014.jpg	100
561.321	0.676	676.1	test	Phase1	test/STIM_014.jpg	100
565.691	1.257	1257.3	test	Phase1	test/STIM_015.jpg	99
569.071	0.764	764.4	test	Phase1	test/STIM_015.jpg	100
572.113	1.262	1262.1	test	Phase1	test/STIM_015.jpg	99
576.463	0.916	915.9	test	Phase1	test/STIM_016.jpg	100
579.78	1.31	1309.7	test	Phase1	test/STIM_016.jpg	99
584.255	1.296	1296.0	test	Phase1	test/STIM_016.jpg	100
589.199	1.082	1081.8	test	Phase1	test/STIM_017.jpg	100
593.07	0.763	763.1	test	Phase1	test/STIM_017.jpg	100
597.3	0.761	760.9	test	Phase1	test/STIM_017.jpg	100
601.604	1.371	1370.7	test	Phase1	test/STIM_018.jpg	99
606.759	1.114	1113.5	test	Phase1	test/STIM_018.jpg	99
611.431	1.001	1000.8	test	Phase1	test/STIM_018.jpg	99
615.357	1.256	1255.6	test	Phase1	test/STIM_019.jpg	99
619.356	0.836	835.6	test	Phase1	test/STIM_019.jpg	99
623.335	0.74	740.4	test	Phase1	test/STIM_019.jpg	99
627.075	0.9	900.2	test	Phase1	test/STIM_020.jpg	100
630.387	1.389	1389.4	test	Phase1	test/STIM_020.jpg	99
633.989	0.993	993.0	test	Phase1	test/STIM_020.jpg	100
636.982	0.98	979.8	test	Phase1	test/STIM_021.jpg	99
640.911	1.005	1005.0	test	Phase1	test/STIM_021.jpg	99
645.692	0.943	943.0	test	Phase1	test/STIM_021.jpg	100
649.043	0.932	932.5	test	Phase1	test/STIM_022.jpg	99
652.375	1.19	1189.5	test	Phase1	test/STIM_022.jpg	100
656.31	1.24	1239.6	test	Phase1	test/STIM_022.jpg	99
660.58	0.793	792.9	test	Phase1	test/STIM_023.jpg	100
663.428	1.294	1294.3	test	Phase1	test/STIM_023.jpg	100
668.374	0.908	907.8	test	Phase1	test/STIM_023.jpg	99
671.859	1.351	1351.3	test	Phase1	test/STIM_024.jpg	99
675.45	1.018	1017.9	test	Phase1	test/STIM_024.jpg	99
678.787	1.41	1410.5	test	Phase1	test/STIM_024.jpg	99
682.801	1.402	1402.2	test	Phase1	test/STIM_025.jpg	99
686.586	1.167	1167.0	test	Phase1	test/STIM_025.jpg	99
691.656	0.936	936.0	test	Phase1	test/STIM_025.jpg	100
694.546	0.706	705.8	test	Phase1	test/STIM_026.jpg	100
699.224	1.209	1209.2	test	Phase1	test/STIM_026.jpg	100
703.405	0.919	918.6	test	Phase1	test/STIM_026.jpg	99
706.785	0.918	917.8	test	Phase1	test/STIM_027.jpg	99
710.727	0.743	742.7	test	Phase1	test/STIM_027.jpg	100
713.586	0.865	865.3	test	Phase1	test/STIM_027.jpg	100
717.748	1.359	1359.4	test	Phase1	test/STIM_028.jpg	99
721.633	0.784	784.3	test	Phase1	test/STIM_028.jpg	100
725.875	0.722	722.1	test	Phase1	test/STIM_028.jpg	99
729.568	1.078	1078.5	test	Phase1	test/STIM_029.jpg	99
733.765	1.17	1170.0	test	Phase1	test/STIM_029.jpg	99
736.869	0.775	775.1	test	Phase1	test/STIM_029.jpg	100
741.086	1.396	1396.4	study	Phase2	study/STIM_000.jpg	99
746.053	0.735	735.0	study	Phase2	study/STIM_000.jpg	100
749.315	0.959	959.0	study	Phase2	study/STIM_000.jpg	99
753.172	1.128	1128.5	study	Phase2	study/STIM_001.jpg	99
756.311	0.873	872.9	study	Phase2	study/STIM_001.jpg	100
760.316	0.642	641.8	study	Phase2	study/STIM_001.jpg	99
763.981	1.177	1176.8	study	Phase2	study/STIM_002.jpg	99
767.45	0.909	909.0	study	Phase2	study/STIM_002.jpg	100
771.435	0.892	891.7	study	Phase2	study/STIM_002.jpg	99
776.133	0.697	697.4	study	Phase2	study/STIM_003.jpg	99
780.408	1.029	1029.0	study	Phase2	study/STIM_003.jpg	99
783.577	1.249	1249.3	study	Phase2	study/STIM_003.jpg	100
788.266	1.695	1694.9	study	Phase2	study/STIM_004.jpg	100
792.054	0.924	923.7	study	Phase2	study/STIM_004.jpg	99
795.308	0.601	600.7	study	Phase2	study/STIM_004.jpg	99
798.767	1.616	1616.2	study	Phase2	study/STIM_005.jpg	100
802.41	1.606	1606.0	study	Phase2	study/STIM_005.jpg	100
806.483	0.957	956.8	study	Phase2	study/STIM_005.jpg	100
810.377	0.852	852.2	study	Phase2	study/STIM_006.jpg	99
813.864	1.389	1388.7	study	Phase2	study/STIM_006.jpg	100
817.429	0.827	826.7	study	Phase2	study/STIM_006.jpg	100
820.606	1.593	1592.6	study	Phase2	study/STIM_007.jpg	100
824.346	0.992	991.6	study	Phase2	study/STIM_007.jpg	99
828.536	0.793	792.8	study	Phase2	study/STIM_007.jpg	100
832.788	1.119	1119.3	study	Phase2	study/STIM_008.jpg	100
837.622	1.266	1266.1	study	Phase2	study/STIM_008.jpg	100
841.463	1.389	1389.1	study	Phase2	study/STIM_008.jpg	100
845.997	1.562	1561.9	study	Phase2	study/STIM_009.jpg	100
851.253	0.75	750.4	study	Phase2	study/STIM_009.jpg	99
855.45	1.337	1336.8	study	Phase2	study/STIM_009.jpg	99
858.951	1.414	1414.3	study	Phase2	study/STIM_010.jpg	99
862.481	1.155	1155.2	study	Phase2	study/STIM_010.jpg	99
866.167	0.626	626.5	study	Phase2	study/STIM_010.jpg	99
869.881	1.403	1402.7	study	Phase2	study/STIM_011.jpg	99
874.76	0.91	910.4	study	Phase2	study/STIM_011.jpg	99
879.275	0.829	829.1	study	Phase2	study/STIM_011.jpg	100
883.678	1.232	1232.1	study	Phase2	study/STIM_012.jpg	99
886.979	0.892	892.5	study	Phase2	study/STIM_012.jpg	100
890.561	1.397	1396.7	study	Phase2	study/STIM_012.jpg	100
894.956	1.347	1346.6	study	Phase2	study/STIM_013.jpg	99
898.65	1.043	1043.1	study	Phase2	study/STIM_013.jpg	99
901.971	1.414	1414.2	study	Phase2	study/STIM_013.jpg	100
906.716	1.449	1449.1	study	Phase2	study/STIM_014.jpg	99
911.14	1.434	1433.5	study	Phase2	study/STIM_014.jpg	99
916.407	1.003	1003.3	study	Phase2	study/STIM_014.jpg	99
920.125	1.659	1658.7	study	Phase2	study/STIM_015.jpg	99
925.35	1.378	1378.1	study	Phase2	study/STIM_015.jpg	99
928.862	1.354	1353.6	study	Phase2	study/STIM_015.jpg	99
933.571	1.195	1195.3	study	Phase2	study/STIM_016.jpg	100
938.183	1.112	1112.0	study	Phase2	study/STIM_016.jpg	99
941.882	0.893	893.4	study	Phase2	study/STIM_016.jpg	100
946.375	1.159	1159.0	study	Phase2	study/STIM_017.jpg	100
950.704	1.062	1061.9	study	Phase2	study/STIM_017.jpg	99
955.426	1.203	1203.1	study	Phase2	study/STIM_017.jpg	100
959.864	0.822	821.5	study	Phase2	study/STIM_018.jpg	100
963.588	1.196	1195.8	study	Phase2	study/STIM_018.jpg	99
966.828	0.75	750.2	study	Phase2	study/STIM_018.jpg	100
970.39	1.22	1220.4	study	Phase2	study/STIM_019.jpg	100
973.542	1.39	1389.7	study	Phase2	study/STIM_019.jpg	100
977.773	0.839	838.8	study	Phase2	study/STIM_019.jpg	99
980.892	0.993	992.8	study	Phase2	study/STIM_020.jpg	100
984.306	0.847	847.4	study	Phase2	study/STIM_020.jpg	99
988.446	1.278	1278.5	study	Phase2	study/STIM_020.jpg	100
991.81	1.02	1020.4	study	Phase2	study/STIM_021.jpg	99
995.915	1.343	1342.7	study	Phase2	study/STIM_021.jpg	100
1000.16	0.662	661.8	study	Phase2	study/STIM_021.jpg	100
1004.629	1.71	1710.0	study	Phase2	study/STIM_022.jpg	100
1009.049	1.577	1577.0	study	Phase2	study/STIM_022.jpg	99
1012.575	1.097	1097.2	study	Phase2	study/STIM_022.jpg	99
1016.464	1.179	1179.0	study	Phase2	study/STIM_023.jpg	99
1020.244	0.887	886.8	study	Phase2	study/STIM_023.jpg	100
1024.676	1.197	1197.2	study	Phase2	study/STIM_023.jpg	99
1029.645	1.719	1719.1	study	Phase2	study/STIM_024.jpg	99
1033.179	1.329	1328.8	study	Phase2	study/STIM_024.jpg	100
1038.348	1.513	1512.9	study	Phase2	study/STIM_024.jpg	99
1042.676	0.783	783.3	study	Phase2	study/STIM_025.jpg	100
1046.298	1.2	1200.4	study	Phase2	study/STIM_025.jpg	99
1050.927	0.968	967.8	study	Phase2	study/STIM_025.jpg	100
1053.913	1.152	1152.0	study	Phase2	study/STIM_026.jpg	99
1058.331	1.634	1633.6	study	Phase2	study/STIM_026.jpg	99
1062.76	1.002	1002.0	study	Phase2	study/STIM_026.jpg	99
1067.321	1.418	1418.1	study	Phase2	study/STIM_027.jpg	99
1070.99	1.457	1457.2	study	Phase2	study/STIM_027.jpg	100
1076.105	0.989	989.3	study	Phase2	study/STIM_027.jpg	100
1079.976	1.643	1643.3	study	Phase2	study/STIM_028.jpg	99
1084.161	1.506	1506.2	study	Phase2	study/STIM_028.jpg	100
1087.884	0.912	912.5	study	Phase2	study/STIM_028.jpg	99
1092.634	1.497	1496.8	study	Phase2	study/STIM_029.jpg	100
1097.938	1.092	1092.3	study	Phase2	study/STIM_029.jpg	99
1101.475	1.112	1112.4	study	Phase2	study/STIM_029.jpg	100
1106.297	1.294	1293.8	test	Phase2	test/STIM_000.jpg	99
1110.615	1.239	1239.3	test	Phase2	test/STIM_000.jpg	100
1115.484	1.091	1091.2	test	Phase2	test/STIM_000.jpg	100
1119.568	1.046	1046.2	test	Phase2	test/STIM_001.jpg	99
1122.808	1.159	1159.3	test	Phase2	test/STIM_001.jpg	100
1125.82	1.328	1328.0	test	Phase2	test/STIM_001.jpg	99
1130.117	1.105	1105.1	test	Phase2	test/STIM_002.jpg	100
1134.063	0.795	795.3	test	Phase2	test/STIM_002.jpg	99
1138.39	1.413	1412.9	test	Phase2	test/STIM_002.jpg	99
1142.328	1.331	1331.4	test	Phase2	test/STIM_003.jpg	99
1146.793	0.984	983.8	test	Phase2	test/STIM_003.jpg	99
1150.372	0.894	894.3	test	Phase2	test/STIM_003.jpg	99
1155.055	0.855	855.0	test	Phase2	test/STIM_004.jpg	100
1157.954	1.112	1111.7	test	Phase2	test/STIM_004.jpg	100
1162.798	1.277	1277.4	test	Phase2	test/STIM_004.jpg	100
1167.583	1.12	1119.9	test	Phase2	test/STIM_005.jpg	100
1172.064	1.411	1411.2	test	Phase2	test/STIM_005.jpg	100
1175.545	1.12	1120.2	test	Phase2	test/STIM_005.jpg	99
1179.7	1.05	1050.0	test	Phase2	test/STIM_006.jpg	100
1182.658	0.876	875.5	test	Phase2	test/STIM_006.jpg	99
1187.295	0.904	903.7	test	Phase2	test/STIM_006.jpg	99
1191.593	1.159	1159.3	test	Phase2	test/STIM_007.jpg	100
1195.437	0.777	777.1	test	Phase2	test/STIM_007.jpg	99
1198.451	0.9	899.8	test	Phase2	test/STIM_007.jpg	99
1201.755	1.242	1241.6	test	Phase2	test/STIM_008.jpg	99
1205.061	0.988	988.1	test	Phase2	test/STIM_008.jpg	100
1208.163	1.267	1266.8	test	Phase2	test/STIM_008.jpg	100
1213.159	1.32	1320.1	test	Phase2	test/STIM_009.jpg	99
1216.461	1.317	1316.9	test	Phase2	test/STIM_009.jpg	100
1221.208	1.046	1045.6	test	Phase2	test/STIM_009.jpg	100
1225.854	1.152	1152.4	test	Phase2	test/STIM_010.jpg	100
1229.275	0.899	898.9	test	Phase2	test/STIM_010.jpg	100
1233.618	0.77	769.8	test	Phase2	test/STIM_010.jpg	100
1238.346	0.683	682.8	test	Phase2	test/STIM_011.jpg	100
1241.694	1.343	1343.0	test	Phase2	test/STIM_011.jpg	100
1246.686	1.396	1396.4	test	Phase2	test/STIM_011.jpg	100
1250.085	0.916	915.8	test	Phase2	test/STIM_012.jpg	100
1254.637	1.048	1048.0	test	Phase2	test/STIM_012.jpg	99
1257.936	1.249	1249.1	test	Phase2	test/STIM_012.jpg	100
1261.637	1.16	1160.0	test	Phase2	test/STIM_013.jpg	99
1265.701	1.067	1066.9	test	Phase2	test/STIM_013.jpg	100
1269.537	0.919	918.8	test	Phase2	test/STIM_013.jpg	99
1273.543	0.721	721.1	test	Phase2	test/STIM_014.jpg	99
1277.574	0.964	963.7	test	Phase2	test/STIM_014.jpg	99
1281.941	1.429	1429.0	test	Phase2	test/STIM_014.jpg	100
1285.856	0.934	933.9	test	Phase2	test/STIM_015.jpg	100
1288.895	0.93	929.5	test	Phase2	test/STIM_015.jpg	99
1292.864	0.951	950.9	test	Phase2	test/STIM_015.jpg	100
1296.859	0.677	676.7	test	Phase2	test/STIM_016.jpg	100
1301.226	0.78	780.5	test	Phase2	test/STIM_016.jpg	100
1305.72	0.802	801.6	test	Phase2	test/STIM_016.jpg	99
1309.648	1.254	1253.6	test	Phase2	test/STIM_017.jpg	99
1314.344	0.704	704.3	test	Phase2	test/STIM_017.jpg	100
1317.825	0.951	950.6	test	Phase2	test/STIM_017.jpg	100
1321.137	1.26	1259.8	test	Phase2	test/STIM_018.jpg	99
1324.893	0.99	990.0	test	Phase2	test/STIM_018.jpg	99
1329.26	0.834	833.6	test	Phase2	test/STIM_018.jpg	99
1332.555	1.311	1310.9	test	Phase2	test/STIM_019.jpg	99
1336.866	1.134	1133.6	test	Phase2	test/STIM_019.jpg	100
1341.498	1.116	1116.3	test	Phase2	test/STIM_019.jpg	100
1344.723	0.999	999.1	test	Phase2	test/STIM_020.jpg	99
1348.315	1.383	1383.4	test	Phase2	test/STIM_020.jpg	99
1352.019	0.736	735.5	test	Phase2	test/STIM_020.jpg	100
1356.102	0.869	869.4	test	Phase2	test/STIM_021.jpg	100
1359.845	1.291	1291.3	test	Phase2	test/STIM_021.jpg	100
1363.765	1.154	1153.7	test	Phase2	test/STIM_021.jpg	99
1368.342	0.782	782.1	test	Phase2	test/STIM_022.jpg	100
1372.448	1.104	1104.0	test	Phase2	test/STIM_022.jpg	100
1376.261	0.753	753.2	test	Phase2	test/STIM_022.jpg	99
1380.007	1.164	1163.6	test	Phase2	test/STIM_023.jpg	100
1384.868	1.2	1199.7	test	Phase2	test/STIM_023.jpg	99
1388.779	1.187	1187.1	test	Phase2	test/STIM_023.jpg	100
1392.898	1.319	1318.9	test	Phase2	test/STIM_024.jpg	100
1396.945	1.434	1433.9	test	Phase2	test/STIM_024.jpg	100
1401.546	1.385	1385.2	test	Phase2	test/STIM_024.jpg	99
1406.477	0.897	897.4	test	Phase2	test/STIM_025.jpg	100
1409.78	1.034	1034.1	test	Phase2	test/STIM_025.jpg	99
1413.314	0.788	788.4	test	Phase2	test/STIM_025.jpg	100
1417.153	1.085	1084.9	test	Phase2	test/STIM_026.jpg	99
1421.555	1.365	1364.8	test	Phase2	test/STIM_026.jpg	99
1425.445	1.296	1296.4	test	Phase2	test/STIM_026.jpg	100
1428.826	1.067	1067.1	test	Phase2	test/STIM_027.jpg	99
1432.161	0.746	745.5	test	Phase2	test/STIM_027.jpg	100
1436.523	1.162	1161.6	test	Phase2	test/STIM_027.jpg	99
1440.677	1.113	1112.6	test	Phase2	test/STIM_028.jpg	100
1444.113	1.32	1320.1	test	Phase2	test/STIM_028.jpg	99
1448.706	0.798	798.3	test	Phase2	test/STIM_028.jpg	100
1452.021	1.098	1097.9	test	Phase2	test/STIM_029.jpg	100
1456.581	0.822	822.0	test	Phase2	test/STIM_029.jpg	99
1460.94	1.061	1061.4	test	Phase2	test/STIM_029.jpg	99
1465.257	0.953	953.3	study	Phase3	study/STIM_000.jpg	99
1468.656	1.109	1109.4	study	Phase3	study/STIM_000.jpg	99
1472.373	0.832	832.4	study	Phase3	study/STIM_000.jpg	99
1476.781	1.374	1373.7	study	Phase3	study/STIM_001.jpg	100
1481.315	1.249	1248.8	study	Phase3	study/STIM_001.jpg	99
1484.972	1.182	1182.3	study	Phase3	study/STIM_001.jpg	99
1489.742	0.967	967.3	study	Phase3	study/STIM_002.jpg	100
1493.468	0.887	886.7	study	Phase3	study/STIM_002.jpg	99
1497.734	0.642	642.2	study	Phase3	study/STIM_002.jpg	100
1501.202	1.021	1021.4	study	Phase3	study/STIM_003.jpg	100
1504.854	0.647	646.9	study	Phase3	study/STIM_003.jpg	100
1509.092	0.912	912.5	study	Phase3	study/STIM_003.jpg	100
1513.84	0.957	956.6	study	Phase3	study/STIM_004.jpg	99
1517.768	1.433	1433.0	study	Phase3	study/STIM_004.jpg	100
1521.465	1.368	1367.5	study	Phase3	study/STIM_004.jpg	99
1524.908	1.126	1126.3	study	Phase3	study/STIM_005.jpg	100
1528.821	1.402	1401.9	study	Phase3	study/STIM_005.jpg	99
1532.226	1.389	1389.1	study	Phase3	study/STIM_005.jpg	99
1536.055	1.039	1039.0	study	Phase3	study/STIM_006.jpg	100
1539.179	0.608	607.6	study	Phase3	study/STIM_006.jpg	99
1543.414	0.99	989.5	study	Phase3	study/STIM_006.jpg	99
1546.948	0.853	853.2	study	Phase3	study/STIM_007.jpg	99
1550.032	0.842	841.6	study	Phase3	study/STIM_007.jpg	100
1554.604	1.417	1417.4	study	Phase3	study/STIM_007.jpg	100
1559.609	0.882	881.9	study	Phase3	study/STIM_008.jpg	100
1564.139	1.108	1108.4	study	Phase3	study/STIM_008.jpg	100
1568.003	0.802	801.7	study	Phase3	study/STIM_008.jpg	100
1571.671	1.395	1394.7	study	Phase3	study/STIM_009.jpg	100
1575.634	1.034	1033.5	study	Phase3	study/STIM_009.jpg	100
1579.163	1.132	1131.7	study	Phase3	study/STIM_009.jpg	100
1584.111	1.252	1252.3	study	Phase3	study/STIM_010.jpg	99
1588.336	1.276	1275.7	study	Phase3	study/STIM_010.jpg	99
1592.271	0.832	832.4	study	Phase3	study/STIM_010.jpg	100
1595.624	1.34	1340.1	study	Phase3	study/STIM_011.jpg	100
1599.053	1.043	1043.1	study	Phase3	study/STIM_011.jpg	99
1602.203	0.736	735.9	study	Phase3	study/STIM_011.jpg	99
1605.783	1.261	1261.2	study	Phase3	study/STIM_012.jpg	99
1609.755	0.837	836.6	study	Phase3	study/STIM_012.jpg	100
1614.097	0.716	715.6	study	Phase3	study/STIM_012.jpg	100
1618.284	1.11	1109.8	study	Phase3	study/STIM_013.jpg	100
1621.65	1.304	1304.0	study	Phase3	study/STIM_013.jpg	99
1626.282	1.024	1023.6	study	Phase3	study/STIM_013.jpg	99
1631.13	1.336	1336.5	study	Phase3	study/STIM_014.jpg	100
1635.988	0.827	827.3	study	Phase3	study/STIM_014.jpg	99
1640.038	0.874	873.5	study	Phase3	study/STIM_014.jpg	100
1643.06	1.044	1043.7	study	Phase3	study/STIM_015.jpg	100
1647.786	0.7	700.1	study	Phase3	study/STIM_015.jpg	100
1651.694	0.736	735.6	study	Phase3	study/STIM_015.jpg	100
1656.195	0.7	700.2	study	Phase3	study/STIM_016.jpg	99
1659.043	1.37	1370.1	study	Phase3	study/STIM_016.jpg	99
1663.072	0.929	929.1	study	Phase3	study/STIM_016.jpg	100
1666.09	0.826	825.8	study	Phase3	study/STIM_017.jpg	100
1670.625	1.212	1212.2	study	Phase3	study/STIM_017.jpg	100
1674.386	1.104	1104.5	study	Phase3	study/STIM_017.jpg	100
1679.205	1.122	1122.1	study	Phase3	study/STIM_018.jpg	100
1684.027	1.328	1328.4	study	Phase3	study/STIM_018.jpg	99
1688.322	0.868	868.4	study	Phase3	study/STIM_018.jpg	100
1691.453	1.148	1147.9	study	Phase3	study/STIM_019.jpg	100
1695.424	0.648	647.5	study	Phase3	study/STIM_019.jpg	99
1698.723	1.346	1345.9	study	Phase3	study/STIM_019.jpg	100
1702.268	0.846	845.5	study	Phase3	study/STIM_020.jpg	100
1705.493	1.178	1177.7	study	Phase3	study/STIM_020.jpg	100
1709.233	0.911	911.0	study	Phase3	study/STIM_020.jpg	100
1713.982	0.798	797.9	study	Phase3	study/STIM_021.jpg	100
1716.986	0.991	991.1	study	Phase3	study/STIM_021.jpg	100
1721.704	1.438	1438.4	study	Phase3	study/STIM_021.jpg	100
1725.899	1.32	1320.5	study	Phase3	study/STIM_022.jpg	99
1729.094	0.831	830.6	study	Phase3	study/STIM_022.jpg	99
1732.337	0.72	719.7	study	Phase3	study/STIM_022.jpg	100
1736.323	0.881	880.6	study	Phase3	study/STIM_023.jpg	99
1739.529	1.217	1216.8	study	Phase3	study/STIM_023.jpg	100
1743.617	0.948	947.6	study	Phase3	study/STIM_023.jpg	99
1746.869	0.837	837.2	study	Phase3	study/STIM_024.jpg	100
1749.925	0.893	892.7	study	Phase3	study/STIM_024.jpg	99
1753.982	0.94	940.0	study	Phase3	study/STIM_024.jpg	99
1756.927	0.785	784.6	study	Phase3	study/STIM_025.jpg	99
1760.865	0.687	686.9	study	Phase3	study/STIM_025.jpg	100
1764.751	1.194	1194.1	study	Phase3	study/STIM_025.jpg	99
1768.441	0.684	683.7	study	Phase3	study/STIM_026.jpg	100
1771.324	1.362	1361.8	study	Phase3	study/STIM_026.jpg	99
1775.182	1.199	1199.1	study	Phase3	study/STIM_026.jpg	99
1778.898	1.179	1179.3	study	Phase3	study/STIM_027.jpg	100
1783.373	0.671	671.4	study	Phase3	study/STIM_027.jpg	100
1787.492	0.823	822.7	study	Phase3	study/STIM_027.jpg	100
1791.913	0.593	593.4	study	Phase3	study/STIM_028.jpg	100
1795.434	0.931	930.6	study	Phase3	study/STIM_028.jpg	99
1799.946	0.858	858.2	study	Phase3	study/STIM_028.jpg	99
1804.112	1.204	1204.4	study	Phase3	study/STIM_029.jpg	100
1808.227	0.955	955.1	study	Phase3	study/STIM_029.jpg	100
1812.351	0.846	845.8	study	Phase3	study/STIM_029.jpg	100
1816.805	0.902	902.0	test	Phase3	test/STIM_000.jpg	100
1820.6	0.826	825.7	test	Phase3	test/STIM_000.jpg	99
1823.46	0.91	909.5	test	Phase3	test/STIM_000.jpg	100
1827.222	1.256	1255.7	test	Phase3	test/STIM_001.jpg	99
1831.888	0.74	740.2	test	Phase3	test/STIM_001.jpg	99
1835.589	1.331	1330.6	test	Phase3	test/STIM_001.jpg	99
1840.528	0.826	825.5	test	Phase3	test/STIM_002.jpg	100
1844.282	0.868	867.8	test	Phase3	test/STIM_002.jpg	100
1848.886	0.823	822.9	test	Phase3	test/STIM_002.jpg	100
1851.821	1.445	1445.1	test	Phase3	test/STIM_003.jpg	100
1856.405	1.367	1367.4	test	Phase3	test/STIM_003.jpg	99
1860.886	0.688	688.5	test	Phase3	test/STIM_003.jpg	100
1865.176	1.284	1284.4	test	Phase3	test/STIM_004.jpg	100
1869.066	1.037	1037.0	test	Phase3	test/STIM_004.jpg	99
1872.522	0.835	834.9	test	Phase3	test/STIM_004.jpg	100
1876.88	0.865	864.7	test	Phase3	test/STIM_005.jpg	99
1880.684	1.273	1273.4	test	Phase3	test/STIM_005.jpg	100
1884.047	0.96	960.4	test	Phase3	test/STIM_005.jpg	100
1887.998	1.288	1288.2	test	Phase3	test/STIM_006.jpg	100
1892.755	1.128	1128.0	test	Phase3	test/STIM_006.jpg	99
1895.858	1.371	1371.1	test	Phase3	test/STIM_006.jpg	100
1899.451	1.264	1264.3	test	Phase3	test/STIM_007.jpg	100
1903.69	1.166	1166.3	test	Phase3	test/STIM_007.jpg	100
1908.373	0.921	920.6	test	Phase3	test/STIM_007.jpg	100
1912.233	1.167	1167.0	test	Phase3	test/STIM_008.jpg	99
1916.088	1.082	1082.1	test	Phase3	test/STIM_008.jpg	99
1921.005	1.062	1061.7	test	Phase3	test/STIM_008.jpg	99
1923.914	0.823	822.8	test	Phase3	test/STIM_009.jpg	99
1928.414	1.039	1038.9	test	Phase3	test/STIM_009.jpg	99
1932.351	1.068	1068.5	test	Phase3	test/STIM_009.jpg	99
1936.899	0.917	916.8	test	Phase3	test/STIM_010.jpg	99
1941.494	1.398	1398.5	test	Phase3	test/STIM_010.jpg	100
1946.108	1.336	1335.6	test	Phase3	test/STIM_010.jpg	100
1950.455	0.747	747.1	test	Phase3	test/STIM_011.jpg	100
1953.389	0.755	754.7	test	Phase3	test/STIM_011.jpg	99
1956.982	1.117	1117.1	test	Phase3	test/STIM_011.jpg	99
1961.025	0.856	856.2	test	Phase3	test/STIM_012.jpg	100
1965.028	0.964	963.6	test	Phase3	test/STIM_012.jpg	100
1968.689	1.254	1253.7	test	Phase3	test/STIM_012.jpg	100
1972.793	1.099	1098.8	test	Phase3	test/STIM_013.jpg	99
1977.155	1.124	1123.5	test	Phase3	test/STIM_013.jpg	99
1980.359	0.722	722.2	test	Phase3	test/STIM_013.jpg	100
1984.401	0.747	747.3	test	Phase3	test/STIM_014.jpg	99
1988.275	1.288	1288.4	test	Phase3	test/STIM_014.jpg	99
1991.934	1.303	1303.2	test	Phase3	test/STIM_014.jpg	99
1995.559	1.527	1526.6	test	Phase3	test/STIM_015.jpg	100
1999.354	0.812	811.9	test	Phase3	test/STIM_015.jpg	99
2002.49	1.294	1293.5	test	Phase3	test/STIM_015.jpg	99
2007.148	1.459	1459.4	test	Phase3	test/STIM_016.jpg	99
2010.773	1.048	1048.4	test	Phase3	test/STIM_016.jpg	100
2015.344	0.724	724.1	test	Phase3	test/STIM_016.jpg	99
2019.134	1.369	1368.7	test	Phase3	test/STIM_017.jpg	99
2023.437	1.317	1317.1	test	Phase3	test/STIM_017.jpg	99
2027.617	0.77	770.3	test	Phase3	test/STIM_017.jpg	100
2030.915	1.408	1407.5	test	Phase3	test/STIM_018.jpg	100
2035.098	1.164	1164.5	test	Phase3	test/STIM_018.jpg	100
2039.141	1.175	1175.4	test	Phase3	test/STIM_018.jpg	99
2043.511	1.142	1141.8	test	Phase3	test/STIM_019.jpg	100
2048.471	0.687	687.4	test	Phase3	test/STIM_019.jpg	99
2051.693	1.393	1392.8	test	Phase3	test/STIM_019.jpg	99
2056.454	0.777	776.8	test	Phase3	test/STIM_020.jpg	100
2060.443	1.252	1251.7	test	Phase3	test/STIM_020.jpg	100
2065.507	1.427	1427.0	test	Phase3	test/STIM_020.jpg	99
2070.376	1.129	1129.3	test	Phase3	test/STIM_021.jpg	99
2073.967	1.116	1116.5	test	Phase3	test/STIM_021.jpg	99
2077.796	1.151	1151.2	test	Phase3	test/STIM_021.jpg	99
2082.259	0.801	800.8	test	Phase3	test/STIM_022.jpg	100
2085.811	0.896	896.4	test	Phase3	test/STIM_022.jpg	100
2089.561	1.34	1339.5	test	Phase3	test/STIM_022.jpg	99
2094.281	0.67	670.4	test	Phase3	test/STIM_023.jpg	100
2098.933	1.285	1285.1	test	Phase3	test/STIM_023.jpg	100
2103.075	0.89	889.5	test	Phase3	test/STIM_023.jpg	100
2107.398	1.234	1234.4	test	Phase3	test/STIM_024.jpg	100
2112.383	1.142	1141.7	test	Phase3	test/STIM_024.jpg	100
2116.401	1.118	1118.5	test	Phase3	test/STIM_024.jpg	99
2120.398	1.05	1049.8	test	Phase3	test/STIM_025.jpg	100
2124.977	0.963	963.1	test	Phase3	test/STIM_025.jpg	100
2129.488	1.38	1380.2	test	Phase3	test/STIM_025.jpg	99
2133.479	0.82	820.3	test	Phase3	test/STIM_026.jpg	99
2136.399	1.361	1360.9	test	Phase3	test/STIM_026.jpg	100
2140.158	0.985	985.1	test	Phase3	test/STIM_026.jpg	100
2144.632	0.983	983.3	test	Phase3	test/STIM_027.jpg	100
2148.086	1.08	1080.2	test	Phase3	test/STIM_027.jpg	99
2152.266	1.095	1095.4	test	Phase3	test/STIM_027.jpg	100
2157.137	1.329	1328.6	test	Phase3	test/STIM_028.jpg	99
2160.865	0.835	835.3	test	Phase3	test/STIM_028.jpg	99
2165.348	1.468	1468.5	test	Phase3	test/STIM_028.jpg	100
2168.848	1.373	1372.8	test	Phase3	test/STIM_029.jpg	100
2172.13	1.035	1035.2	test	Phase3	test/STIM_029.jpg	99
2176.127	0.956	956.5	test	Phase3	test/STIM_029.jpg	100
