onset	duration	accuracy	trial_type	learning_stage	stimulus
0.0	4.471	correct	navigation	Trial1	navigation/STIM_000.jpg
7.769	2.776	incorrect	navigation	Trial1	navigation/STIM_000.jpg
12.592	3.624	correct	navigation	Trial1	navigation/STIM_000.jpg
19.466	4.131	correct	navigation	Trial1	navigation/STIM_000.jpg
26.711	3.794	incorrect	navigation	Trial1	navigation/STIM_000.jpg
33.546	2.427	correct	navigation	Trial1	navigation/STIM_000.jpg
39.55	5.1	correct	navigation	Trial1	navigation/STIM_001.jpg
48.154	4.633	incorrect	navigation	Trial1	navigation/STIM_001.jpg
55.82	3.96	correct	navigation	Trial1	navigation/STIM_001.jpg
61.893	2.406	correct	navigation	Trial1	navigation/STIM_001.jpg
67.966	2.19	incorrect	navigation	Trial1	navigation/STIM_001.jpg
72.87	2.874	incorrect	navigation	Trial1	navigation/STIM_001.jpg
79.189	4.162	correct	navigation	Trial1	navigation/STIM_002.jpg
86.231	2.934	correct	navigation	Trial1	navigation/STIM_002.jpg
92.425	3.731	correct	navigation	Trial1	navigation/STIM_002.jpg
100.071	3.08	incorrect	navigation	Trial1	navigation/STIM_002.jpg
105.637	3.277	correct	navigation	Trial1	navigation/STIM_002.jpg
111.927	1.77	correct	navigation	Trial1	navigation/STIM_002.jpg
116.252	4.378	correct	navigation	Trial1	navigation/STIM_003.jpg
123.803	3.666	incorrect	navigation	Trial1	navigation/STIM_003.jpg
131.0	1.973	incorrect	navigation	Trial1	navigation/STIM_003.jpg
135.403	2.133	incorrect	navigation	Trial1	navigation/STIM_003.jpg
140.162	2.236	incorrect	navigation	Trial1	navigation/STIM_003.jpg
144.75	2.611	incorrect	navigation	Trial1	navigation/STIM_003.jpg
151.1	3.774	correct	navigation	Trial1	navigation/STIM_004.jpg
157.743	4.692	incorrect	navigation	Trial1	navigation/STIM_004.jpg
165.315	3.854	correct	navigation	Trial1	navigation/STIM_004.jpg
172.474	2.41	correct	navigation	Trial1	navigation/STIM_004.jpg
177.078	2.475	correct	navigation	Trial1	navigation/STIM_004.jpg
182.925	1.586	incorrect	navigation	Trial1	navigation/STIM_004.jpg
186.752	2.131	incorrect	navigation	Trial1	navigation/STIM_005.jpg
191.875	4.05	incorrect	navigation	Trial1	navigation/STIM_005.jpg
198.253	2.621	correct	navigation	Trial1	navigation/STIM_005.jpg
204.856	1.845	correct	navigation	Trial1	navigation/STIM_005.jpg
210.6	2.049	correct	navigation	Trial1	navigation/STIM_005.jpg
215.284	3.608	correct	navigation	Trial1	navigation/STIM_005.jpg
221.729	3.265	correct	navigation	Trial1	navigation/STIM_006.jpg
228.191	1.997	correct	navigation	Trial1	navigation/STIM_006.jpg
232.874	4.629	correct	navigation	Trial1	navigation/STIM_006.jpg
240.538	4.048	correct	navigation	Trial1	navigation/STIM_006.jpg
246.72	2.696	correct	navigation	Trial1	navigation/STIM_006.jpg
251.72	3.72	correct	navigation	Trial1	navigation/STIM_006.jpg
257.856	2.573	correct	navigation	Trial1	navigation/STIM_007.jpg
262.753	3.541	correct	navigation	Trial1	navigation/STIM_007.jpg
270.055	3.183	incorrect	navigation	Trial1	navigation/STIM_007.jpg
276.66	3.279	correct	navigation	Trial1	navigation/STIM_007.jpg
283.841	3.278	incorrect	navigation	Trial1	navigation/STIM_007.jpg
289.57	3.173	correct	navigation	Trial1	navigation/STIM_007.jpg
295.998	4.135	correct	navigation	Trial1	navigation/STIM_008.jpg
303.318	2.899	correct	navigation	Trial1	navigation/STIM_008.jpg
308.82	4.166	correct	navigation	Trial1	navigation/STIM_008.jpg
315.729	3.409	correct	navigation	Trial1	navigation/STIM_008.jpg
321.952	3.155	correct	navigation	Trial1	navigation/STIM_008.jpg
327.622	2.111	incorrect	navigation	Trial1	navigation/STIM_008.jpg
332.302	4.963	correct	navigation	Trial1	navigation/STIM_009.jpg
340.692	3.826	correct	navigation	Trial1	navigation/STIM_009.jpg
347.272	4.445	correct	navigation	Trial1	navigation/STIM_009.jpg
354.124	2.672	correct	navigation	Trial1	navigation/STIM_009.jpg
358.823	1.748	incorrect	navigation	Trial1	navigation/STIM_009.jpg
363.639	2.115	incorrect	navigation	Trial1	navigation/STIM_009.jpg
369.547	3.369	correct	navigation	Trial1	navigation/STIM_010.jpg
375.295	2.592	correct	navigation	Trial1	navigation/STIM_010.jpg
380.877	3.257	correct	navigation	Trial1	navigation/STIM_010.jpg
387.908	2.914	incorrect	navigation	Trial1	navigation/STIM_010.jpg
394.145	3.132	incorrect	navigation	Trial1	navigation/STIM_010.jpg
399.589	3.89	correct	navigation	Trial1	navigation/STIM_010.jpg
406.859	3.501	correct	navigation	Trial1	navigation/STIM_011.jpg
413.069	3.455	incorrect	navigation	Trial1	navigation/STIM_011.jpg
420.394	2.907	incorrect	navigation	Trial1	navigation/STIM_011.jpg
426.473	1.842	incorrect	navigation	Trial1	navigation/STIM_011.jpg
431.198	1.846	correct	navigation	Trial1	navigation/STIM_011.jpg
435.558	2.753	correct	navigation	Trial1	navigation/STIM_011.jpg
441.559	1.478	correct	pointing	Trial1	pointing/STIM_000.jpg
445.107	0.91	incorrect	pointing	Trial1	pointing/STIM_000.jpg
448.679	1.493	incorrect	pointing	Trial1	pointing/STIM_000.jpg
453.129	0.991	correct	pointing	Trial1	pointing/STIM_000.jpg
457.774	1.276	correct	pointing	Trial1	pointing/STIM_000.jpg
462.555	1.126	correct	pointing	Trial1	pointing/STIM_000.jpg
466.964	0.92	correct	pointing	Trial1	pointing/STIM_001.jpg
471.495	0.997	incorrect	pointing	Trial1	pointing/STIM_001.jpg
474.947	0.981	correct	pointing	Trial1	pointing/STIM_001.jpg
478.721	1.152	correct	pointing	Trial1	pointing/STIM_001.jpg
483.799	1.276	correct	pointing	Trial1	pointing/STIM_001.jpg
487.756	1.236	correct	pointing	Trial1	pointing/STIM_001.jpg
491.417	0.992	correct	pointing	Trial1	pointing/STIM_002.jpg
494.476	1.329	correct	pointing	Trial1	pointing/STIM_002.jpg
498.854	1.089	correct	pointing	Trial1	pointing/STIM_002.jpg
502.149	0.924	correct	pointing	Trial1	pointing/STIM_002.jpg
506.679	1.533	incorrect	pointing	Trial1	pointing/STIM_002.jpg
510.593	1.282	correct	pointing	Trial1	pointing/STIM_002.jpg
514.429	1.297	correct	pointing	Trial1	pointing/STIM_003.jpg
518.693	1.084	correct	pointing	Trial1	pointing/STIM_003.jpg
522.311	1.134	correct	pointing	Trial1	pointing/STIM_003.jpg
525.449	0.932	incorrect	pointing	Trial1	pointing/STIM_003.jpg
528.831	1.507	correct	pointing	Trial1	pointing/STIM_003.jpg
533.313	1.181	correct	pointing	Trial1	pointing/STIM_003.jpg
538.453	1.261	incorrect	pointing	Trial1	pointing/STIM_004.jpg
542.166	1.351	correct	pointing	Trial1	pointing/STIM_004.jpg
546.903	1.334	correct	pointing	Trial1	pointing/STIM_004.jpg
550.777	0.95	correct	pointing	Trial1	pointing/STIM_004.jpg
555.654	0.936	correct	pointing	Trial1	pointing/STIM_004.jpg
558.821	1.312	incorrect	pointing	Trial1	pointing/STIM_004.jpg
563.571	1.065	incorrect	pointing	Trial1	pointing/STIM_005.jpg
567.594	0.913	correct	pointing	Trial1	pointing/STIM_005.jpg
571.268	0.888	correct	pointing	Trial1	pointing/STIM_005.jpg
575.246	1.237	correct	pointing	Trial1	pointing/STIM_005.jpg
579.083	1.374	correct	pointing	Trial1	pointing/STIM_005.jpg
582.591	1.412	correct	pointing	Trial1	pointing/STIM_005.jpg
586.553	1.5	correct	pointing	Trial1	pointing/STIM_006.jpg
591.145	1.13	correct	pointing	Trial1	pointing/STIM_006.jpg
595.362	1.556	incorrect	pointing	Trial1	pointing/STIM_006.jpg
599.404	1.219	correct	pointing	Trial1	pointing/STIM_006.jpg
603.559	1.555	correct	pointing	Trial1	pointing/STIM_006.jpg
607.506	1.373	correct	pointing	Trial1	pointing/STIM_006.jpg
612.128	1.356	correct	pointing	Trial1	pointing/STIM_007.jpg
616.172	1.378	correct	pointing	Trial1	pointing/STIM_007.jpg
621.423	1.036	correct	pointing	Trial1	pointing/STIM_007.jpg
624.596	1.38	correct	pointing	Trial1	pointing/STIM_007.jpg
628.352	1.359	correct	pointing	Trial1	pointing/STIM_007.jpg
633.505	0.843	incorrect	pointing	Trial1	pointing/STIM_007.jpg
637.459	1.057	correct	pointing	Trial1	pointing/STIM_008.jpg
642.099	1.016	correct	pointing	Trial1	pointing/STIM_008.jpg
646.932	0.971	correct	pointing	Trial1	pointing/STIM_008.jpg
650.538	1.396	correct	pointing	Trial1	pointing/STIM_008.jpg
655.767	1.174	correct	pointing	Trial1	pointing/STIM_008.jpg
659.899	1.088	correct	pointing	Trial1	pointing/STIM_008.jpg
663.967	1.123	correct	pointing	Trial1	pointing/STIM_009.jpg
667.915	1.337	correct	pointing	Trial1	pointing/STIM_009.jpg
672.925	1.396	correct	pointing	Trial1	pointing/STIM_009.jpg
676.777	1.068	correct	pointing	Trial1	pointing/STIM_009.jpg
680.074	1.256	correct	pointing	Trial1	pointing/STIM_009.jpg
683.733	0.922	correct	pointing	Trial1	pointing/STIM_009.jpg
688.183	1.2	incorrect	pointing	Trial1	pointing/STIM_010.jpg
692.869	1.077	incorrect	pointing	Trial1	pointing/STIM_010.jpg
697.313	0.96	correct	pointing	Trial1	pointing/STIM_010.jpg
701.163	1.404	incorrect	pointing	Trial1	pointing/STIM_010.jpg
706.45	1.235	correct	pointing	Trial1	pointing/STIM_010.jpg
711.089	1.517	correct	pointing	Trial1	pointing/STIM_010.jpg
715.995	1.147	correct	pointing	Trial1	pointing/STIM_011.jpg
720.98	1.348	correct	pointing	Trial1	pointing/STIM_011.jpg
725.869	1.304	correct	pointing	Trial1	pointing/STIM_011.jpg
730.841	1.394	incorrect	pointing	Trial1	pointing/STIM_011.jpg
735.411	0.95	correct	pointing	Trial1	pointing/STIM_011.jpg
739.079	1.23	correct	pointing	Trial1	pointing/STIM_011.jpg
744.094	3.41	correct	navigation	Trial2	navigation/STIM_000.jpg
750.445	2.932	incorrect	navigation	Trial2	navigation/STIM_000.jpg
756.258	1.654	correct	navigation	Trial2	navigation/STIM_000.jpg
760.07	2.369	correct	navigation	Trial2	navigation/STIM_000.jpg
766.122	2.347	correct	navigation	Trial2	navigation/STIM_000.jpg
771.093	3.03	correct	navigation	Trial2	navigation/STIM_000.jpg
776.954	2.127	correct	navigation	Trial2	navigation/STIM_001.jpg
782.665	1.975	correct	navigation	Trial2	navigation/STIM_001.jpg
786.686	3.794	incorrect	navigation	Trial2	navigation/STIM_001.jpg
793.361	1.719	correct	navigation	Trial2	navigation/STIM_001.jpg
797.77	3.016	correct	navigation	Trial2	navigation/STIM_001.jpg
803.201	2.733	correct	navigation	Trial2	navigation/STIM_001.jpg
809.13	1.852	correct	navigation	Trial2	navigation/STIM_002.jpg
814.711	2.659	correct	navigation	Trial2	navigation/STIM_002.jpg
820.879	2.843	correct	navigation	Trial2	navigation/STIM_002.jpg
826.606	2.569	correct	navigation	Trial2	navigation/STIM_002.jpg
831.257	1.65	correct	navigation	Trial2	navigation/STIM_002.jpg
835.089	1.97	correct	navigation	Trial2	navigation/STIM_002.jpg
840.213	2.314	incorrect	navigation	Trial2	navigation/STIM_003.jpg
844.976	3.934	correct	navigation	Trial2	navigation/STIM_003.jpg
851.618	3.625	incorrect	navigation	Trial2	navigation/STIM_003.jpg
858.635	2.128	correct	navigation	Trial2	navigation/STIM_003.jpg
863.469	2.956	correct	navigation	Trial2	navigation/STIM_003.jpg
869.796	3.278	correct	navigation	Trial2	navigation/STIM_003.jpg
875.828	3.118	correct	navigation	Trial2	navigation/STIM_004.jpg
881.236	3.516	correct	navigation	Trial2	navigation/STIM_004.jpg
887.004	3.136	incorrect	navigation	Trial2	navigation/STIM_004.jpg
892.871	2.93	correct	navigation	Trial2	navigation/STIM_004.jpg
899.515	1.695	incorrect	navigation	Trial2	navigation/STIM_004.jpg
903.837	1.703	correct	navigation	Trial2	navigation/STIM_004.jpg
908.77	2.107	incorrect	navigation	Trial2	navigation/STIM_005.jpg
913.384	2.317	correct	navigation	Trial2	navigation/STIM_005.jpg
917.932	2.42	correct	navigation	Trial2	navigation/STIM_005.jpg
923.315	2.927	correct	navigation	Trial2	navigation/STIM_005.jpg
929.049	1.979	correct	navigation	Trial2	navigation/STIM_005.jpg
933.299	2.304	correct	navigation	Trial2	navigation/STIM_005.jpg
939.051	4.37	correct	navigation	Trial2	navigation/STIM_006.jpg
945.995	3.922	correct	navigation	Trial2	navigation/STIM_006.jpg
952.337	1.567	correct	navigation	Trial2	navigation/STIM_006.jpg
955.931	2.823	incorrect	navigation	Trial2	navigation/STIM_006.jpg
962.257	2.251	correct	navigation	Trial2	navigation/STIM_006.jpg
967.236	2.767	correct	navigation	Trial2	navigation/STIM_006.jpg
973.043	4.195	incorrect	navigation	Trial2	navigation/STIM_007.jpg
980.221	3.104	correct	navigation	Trial2	navigation/STIM_007.jpg
987.261	2.212	incorrect	navigation	Trial2	navigation/STIM_007.jpg
991.776	2.526	correct	navigation	Trial2	navigation/STIM_007.jpg
996.694	2.865	correct	navigation	Trial2	navigation/STIM_007.jpg
1002.851	3.011	correct	navigation	Trial2	navigation/STIM_007.jpg
1009.854	3.893	correct	navigation	Trial2	navigation/STIM_008.jpg
1017.6	1.879	correct	navigation	Trial2	navigation/STIM_008.jpg
1022.066	1.863	incorrect	navigation	Trial2	navigation/STIM_008.jpg
1027.747	1.977	incorrect	navigation	Trial2	navigation/STIM_008.jpg
1033.173	2.019	correct	navigation	Trial2	navigation/STIM_008.jpg
1039.051	2.566	incorrect	navigation	Trial2	navigation/STIM_008.jpg
1043.743	1.817	incorrect	navigation	Trial2	navigation/STIM_009.jpg
1047.871	1.704	correct	navigation	Trial2	navigation/STIM_009.jpg
1051.929	1.745	correct	navigation	Trial2	navigation/STIM_009.jpg
1057.304	2.011	incorrect	navigation	Trial2	navigation/STIM_009.jpg
1062.02	2.266	correct	navigation	Trial2	navigation/STIM_009.jpg
1067.748	2.184	correct	navigation	Trial2	navigation/STIM_009.jpg
1071.936	4.125	correct	navigation	Trial2	navigation/STIM_010.jpg
1079.763	1.813	correct	navigation	Trial2	navigation/STIM_010.jpg
1085.547	2.504	incorrect	navigation	Trial2	navigation/STIM_010.jpg
1090.736	1.486	correct	navigation	Trial2	navigation/STIM_010.jpg
1095.619	1.886	correct	navigation	Trial2	navigation/STIM_010.jpg
1099.962	1.842	correct	navigation	Trial2	navigation/STIM_010.jpg
1105.513	2.899	correct	navigation	Trial2	navigation/STIM_011.jpg
1111.373	2.203	correct	navigation	Trial2	navigation/STIM_011.jpg
1117.195	3.653	correct	navigation	Trial2	navigation/STIM_011.jpg
1124.446	2.394	correct	navigation	Trial2	navigation/STIM_011.jpg
1129.162	3.171	correct	navigation	Trial2	navigation/STIM_011.jpg
1135.065	1.901	correct	navigation	Trial2	navigation/STIM_011.jpg
1140.439	1.013	correct	pointing	Trial2	pointing/STIM_000.jpg
1144.048	0.998	correct	pointing	Trial2	pointing/STIM_000.jpg
1148.769	0.994	correct	pointing	Trial2	pointing/STIM_000.jpg
1152.725	1.454	correct	pointing	Trial2	pointing/STIM_000.jpg
1156.389	1.279	correct	pointing	Trial2	pointing/STIM_000.jpg
1160.806	1.198	correct	pointing	Trial2	pointing/STIM_000.jpg
1165.611	0.984	correct	pointing	Trial2	pointing/STIM_001.jpg
1168.911	1.304	correct	pointing	Trial2	pointing/STIM_001.jpg
1174.025	1.557	correct	pointing	Trial2	pointing/STIM_001.jpg
1178.521	0.925	correct	pointing	Trial2	pointing/STIM_001.jpg
1182.986	0.845	incorrect	pointing	Trial2	pointing/STIM_001.jpg
1187.574	1.19	correct	pointing	Trial2	pointing/STIM_001.jpg
1192.061	1.456	correct	pointing	Trial2	pointing/STIM_002.jpg
1196.466	1.204	correct	pointing	Trial2	pointing/STIM_002.jpg
1199.696	0.994	correct	pointing	Trial2	pointing/STIM_002.jpg
1203.741	1.387	incorrect	pointing	Trial2	pointing/STIM_002.jpg
1208.094	1.353	correct	pointing	Trial2	pointing/STIM_002.jpg
1211.512	1.426	correct	pointing	Trial2	pointing/STIM_002.jpg
1215.721	1.21	correct	pointing	Trial2	pointing/STIM_003.jpg
1219.773	1.332	correct	pointing	Trial2	pointing/STIM_003.jpg
1223.376	1.433	correct	pointing	Trial2	pointing/STIM_003.jpg
1227.065	1.224	correct	pointing	Trial2	pointing/STIM_003.jpg
1231.489	1.055	correct	pointing	Trial2	pointing/STIM_003.jpg
1235.419	1.451	incorrect	pointing	Trial2	pointing/STIM_003.jpg
1239.621	0.9	correct	pointing	Trial2	pointing/STIM_004.jpg
1242.844	0.887	correct	pointing	Trial2	pointing/STIM_004.jpg
1245.946	0.852	incorrect	pointing	Trial2	pointing/STIM_004.jpg
1249.793	1.165	correct	pointing	Trial2	pointing/STIM_004.jpg
1254.548	1.194	correct	pointing	Trial2	pointing/STIM_004.jpg
1257.938	1.148	incorrect	pointing	Trial2	pointing/STIM_004.jpg
1261.095	1.28	correct	pointing	Trial2	pointing/STIM_005.jpg
1264.929	1.402	correct	pointing	Trial2	pointing/STIM_005.jpg
1270.049	1.39	correct	pointing	Trial2	pointing/STIM_005.jpg
1274.304	1.079	correct	pointing	Trial2	pointing/STIM_005.jpg
1277.827	1.062	correct	pointing	Trial2	pointing/STIM_005.jpg
1281.09	0.881	correct	pointing	Trial2	pointing/STIM_005.jpg
1285.113	0.96	incorrect	pointing	Trial2	pointing/STIM_006.jpg
1289.594	0.879	correct	pointing	Trial2	pointing/STIM_006.jpg
1294.137	1.365	correct	pointing	Trial2	pointing/STIM_006.jpg
1297.985	1.164	correct	pointing	Trial2	pointing/STIM_006.jpg
1301.353	1.019	correct	pointing	Trial2	pointing/STIM_006.jpg
1304.522	1.176	incorrect	pointing	Trial2	pointing/STIM_006.jpg
1309.366	0.969	incorrect	pointing	Trial2	pointing/STIM_007.jpg
1313.147	1.444	correct	pointing	Trial2	pointing/STIM_007.jpg
1318.389	1.336	correct	pointing	Trial2	pointing/STIM_007.jpg
1321.725	1.136	correct	pointing	Trial2	pointing/STIM_007.jpg
1326.163	1.102	correct	pointing	Trial2	pointing/STIM_007.jpg
1329.618	0.948	correct	pointing	Trial2	pointing/STIM_007.jpg
1333.415	1.153	incorrect	pointing	Trial2	pointing/STIM_008.jpg
1336.597	1.146	correct	pointing	Trial2	pointing/STIM_008.jpg
1341.462	0.983	correct	pointing	Trial2	pointing/STIM_008.jpg
1346.022	1.224	correct	pointing	Trial2	pointing/STIM_008.jpg
1351.151	1.203	correct	pointing	Trial2	pointing/STIM_008.jpg
1354.574	0.962	incorrect	pointing	Trial2	pointing/STIM_008.jpg
1358.177	1.208	correct	pointing	Trial2	pointing/STIM_009.jpg
1363.312	1.169	correct	pointing	Trial2	pointing/STIM_009.jpg
1367.075	1.126	correct	pointing	Trial2	pointing/STIM_009.jpg
1372.088	0.973	correct	pointing	Trial2	pointing/STIM_009.jpg
1375.226	1.438	correct	pointing	Trial2	pointing/STIM_009.jpg
1378.73	1.175	correct	pointing	Trial2	pointing/STIM_009.jpg
1383.398	1.403	incorrect	pointing	Trial2	pointing/STIM_010.jpg
1386.986	1.009	correct	pointing	Trial2	pointing/STIM_010.jpg
1390.259	1.552	correct	pointing	Trial2	pointing/STIM_010.jpg
1395.454	1.386	correct	pointing	Trial2	pointing/STIM_010.jpg
1400.645	1.443	correct	pointing	Trial2	pointing/STIM_010.jpg
1406.039	1.41	correct	pointing	Trial2	pointing/STIM_010.jpg
1409.645	1.481	correct	pointing	Trial2	pointing/STIM_011.jpg
1414.519	1.357	correct	pointing	Trial2	pointing/STIM_011.jpg
1418.264	0.935	correct	pointing	Trial2	pointing/STIM_011.jpg
1421.216	0.845	incorrect	pointing	Trial2	pointing/STIM_011.jpg
1425.711	1.426	correct	pointing	Trial2	pointing/STIM_011.jpg
1430.682	0.855	incorrect	pointing	Trial2	pointing/STIM_011.jpg
1435.146	3.34	incorrect	navigation	Trial3	navigation/STIM_000.jpg
1441.937	2.295	incorrect	navigation	Trial3	navigation/STIM_000.jpg
1447.579	1.624	incorrect	navigation	Trial3	navigation/STIM_000.jpg
1452.637	1.856	correct	navigation	Trial3	navigation/STIM_000.jpg
1457.103	1.713	correct	navigation	Trial3	navigation/STIM_000.jpg
1461.521	1.475	correct	navigation	Trial3	navigation/STIM_000.jpg
1465.959	2.555	correct	navigation	Trial3	navigation/STIM_001.jpg
1472.335	3.053	correct	navigation	Trial3	navigation/STIM_001.jpg
1478.643	1.658	correct	navigation	Trial3	navigation/STIM_001.jpg
1483.499	2.228	incorrect	navigation	Trial3	navigation/STIM_001.jpg
1488.605	3.14	correct	navigation	Trial3	navigation/STIM_001.jpg
1494.068	3.133	correct	navigation	Trial3	navigation/STIM_001.jpg
1499.77	2.218	incorrect	navigation	Trial3	navigation/STIM_002.jpg
1505.266	1.614	correct	navigation	Trial3	navigation/STIM_002.jpg
1508.89	1.686	correct	navigation	Trial3	navigation/STIM_002.jpg
1514.145	3.027	correct	navigation	Trial3	navigation/STIM_002.jpg
1520.936	1.83	correct	navigation	Trial3	navigation/STIM_002.jpg
1525.572	2.086	incorrect	navigation	Trial3	navigation/STIM_002.jpg
1531.582	2.881	correct	navigation	Trial3	navigation/STIM_003.jpg
1537.047	3.193	correct	navigation	Trial3	navigation/STIM_003.jpg
1543.053	1.9	correct	navigation	Trial3	navigation/STIM_003.jpg
1548.73	1.799	correct	navigation	Trial3	navigation/STIM_003.jpg
1554.122	2.664	correct	navigation	Trial3	navigation/STIM_003.jpg
1559.947	1.904	incorrect	navigation	Trial3	navigation/STIM_003.jpg
1565.585	2.222	incorrect	navigation	Trial3	navigation/STIM_004.jpg
1570.885	2.281	correct	navigation	Trial3	navigation/STIM_004.jpg
1576.287	3.136	correct	navigation	Trial3	navigation/STIM_004.jpg
1581.969	3.413	correct	navigation	Trial3	navigation/STIM_004.jpg
1588.706	2.881	correct	navigation	Trial3	navigation/STIM_004.jpg
1594.675	3.514	correct	navigation	Trial3	navigation/STIM_004.jpg
1601.613	2.18	correct	navigation	Trial3	navigation/STIM_005.jpg
1606.782	2.625	correct	navigation	Trial3	navigation/STIM_005.jpg
1612.011	1.933	correct	navigation	Trial3	navigation/STIM_005.jpg
1617.067	1.881	correct	navigation	Trial3	navigation/STIM_005.jpg
1621.927	3.533	correct	navigation	Trial3	navigation/STIM_005.jpg
1627.951	1.585	incorrect	navigation	Trial3	navigation/STIM_005.jpg
1631.727	2.718	correct	navigation	Trial3	navigation/STIM_006.jpg
1637.581	1.832	correct	navigation	Trial3	navigation/STIM_006.jpg
1642.861	2.44	correct	navigation	Trial3	navigation/STIM_006.jpg
1647.405	2.521	correct	navigation	Trial3	navigation/STIM_006.jpg
1653.687	2.775	correct	navigation	Trial3	navigation/STIM_006.jpg
1659.786	1.468	correct	navigation	Trial3	navigation/STIM_006.jpg
1664.268	1.733	incorrect	navigation	Trial3	navigation/STIM_007.jpg
1669.574	3.56	correct	navigation	Trial3	navigation/STIM_007.jpg
1676.909	3.048	correct	navigation	Trial3	navigation/STIM_007.jpg
1682.272	1.478	correct	navigation	Trial3	navigation/STIM_007.jpg
1686.825	1.951	incorrect	navigation	Trial3	navigation/STIM_007.jpg
1691.615	3.161	correct	navigation	Trial3	navigation/STIM_007.jpg
1698.227	3.122	correct	navigation	Trial3	navigation/STIM_008.jpg
1703.369	1.867	correct	navigation	Trial3	navigation/STIM_008.jpg
1707.722	3.517	incorrect	navigation	Trial3	navigation/STIM_008.jpg
1714.367	2.599	incorrect	navigation	Trial3	navigation/STIM_008.jpg
1720.627	1.861	correct	navigation	Trial3	navigation/STIM_008.jpg
1726.194	1.558	correct	navigation	Trial3	navigation/STIM_008.jpg
1730.854	3.073	incorrect	navigation	Trial3	navigation/STIM_009.jpg
1736.794	1.682	correct	navigation	Trial3	navigation/STIM_009.jpg
1741.605	2.575	correct	navigation	Trial3	navigation/STIM_009.jpg
1747.792	2.654	correct	navigation	Trial3	navigation/STIM_009.jpg
1753.286	2.019	incorrect	navigation	Trial3	navigation/STIM_009.jpg
1759.207	2.655	correct	navigation	Trial3	navigation/STIM_009.jpg
1765.745	2.857	correct	navigation	Trial3	navigation/STIM_010.jpg
1772.077	3.229	incorrect	navigation	Trial3	navigation/STIM_010.jpg
1778.784	2.591	incorrect	navigation	Trial3	navigation/STIM_010.jpg
1783.473	1.565	correct	navigation	Trial3	navigation/STIM_010.jpg
1788.313	3.546	correct	navigation	Trial3	navigation/STIM_010.jpg
1794.48	1.926	correct	navigation	Trial3	navigation/STIM_010.jpg
1799.03	2.561	correct	navigation	Trial3	navigation/STIM_011.jpg
1804.175	2.595	correct	navigation	Trial3	navigation/STIM_011.jpg
1808.949	3.127	correct	navigation	Trial3	navigation/STIM_011.jpg
1814.863	3.391	incorrect	navigation	Trial3	navigation/STIM_011.jpg
1821.61	3.177	correct	navigation	Trial3	navigation/STIM_011.jpg
1827.793	1.916	correct	navigation	Trial3	navigation/STIM_011.jpg
1833.165	1.27	correct	pointing	Trial3	pointing/STIM_000.jpg
1837.296	0.855	correct	pointing	Trial3	pointing/STIM_000.jpg
1841.103	0.954	correct	pointing	Trial3	pointing/STIM_000.jpg
1844.332	1.145	correct	pointing	Trial3	pointing/STIM_000.jpg
1849.134	1.314	correct	pointing	Trial3	pointing/STIM_000.jpg
1854.36	1.56	correct	pointing	Trial3	pointing/STIM_000.jpg
1859.071	1.554	correct	pointing	Trial3	pointing/STIM_001.jpg
1863.793	0.961	correct	pointing	Trial3	pointing/STIM_001.jpg
1867.619	1.155	correct	pointing	Trial3	pointing/STIM_001.jpg
1872.255	1.377	incorrect	pointing	Trial3	pointing/STIM_001.jpg
1876.636	0.998	correct	pointing	Trial3	pointing/STIM_001.jpg
1881.418	1.334	correct	pointing	Trial3	pointing/STIM_001.jpg
1886.131	1.243	correct	pointing	Trial3	pointing/STIM_002.jpg
1890.844	1.306	incorrect	pointing	Trial3	pointing/STIM_002.jpg
1896.019	1.124	correct	pointing	Trial3	pointing/STIM_002.jpg
1900.042	1.276	incorrect	pointing	Trial3	pointing/STIM_002.jpg
1905.151	0.995	correct	pointing	Trial3	pointing/STIM_002.jpg
1909.339	1.499	correct	pointing	Trial3	pointing/STIM_002.jpg
1914.372	1.059	correct	pointing	Trial3	pointing/STIM_003.jpg
1917.557	1.247	correct	pointing	Trial3	pointing/STIM_003.jpg
1921.145	0.998	correct	pointing	Trial3	pointing/STIM_003.jpg
1924.716	0.978	correct	pointing	Trial3	pointing/STIM_003.jpg
1929.673	1.235	incorrect	pointing	Trial3	pointing/STIM_003.jpg
1934.034	1.357	correct	pointing	Trial3	pointing/STIM_003.jpg
1937.687	1.022	correct	pointing	Trial3	pointing/STIM_004.jpg
1941.471	1.277	incorrect	pointing	Trial3	pointing/STIM_004.jpg
1946.322	0.952	correct	pointing	Trial3	pointing/STIM_004.jpg
1951.033	0.969	correct	pointing	Trial3	pointing/STIM_004.jpg
1955.378	1.017	correct	pointing	Trial3	pointing/STIM_004.jpg
1960.329	1.32	correct	pointing	Trial3	pointing/STIM_004.jpg
1965.481	1.135	correct	pointing	Trial3	pointing/STIM_005.jpg
1969.804	1.362	correct	pointing	Trial3	pointing/STIM_005.jpg
1974.426	0.97	correct	pointing	Trial3	pointing/STIM_005.jpg
1979.013	1.155	correct	pointing	Trial3	pointing/STIM_005.jpg
1982.981	1.3	correct	pointing	Trial3	pointing/STIM_005.jpg
1986.967	1.295	correct	pointing	Trial3	pointing/STIM_005.jpg
1991.356	0.945	correct	pointing	Trial3	pointing/STIM_006.jpg
1995.851	1.075	correct	pointing	Trial3	pointing/STIM_006.jpg
1999.251	1.298	correct	pointing	Trial3	pointing/STIM_006.jpg
2003.17	1.439	correct	pointing	Trial3	pointing/STIM_006.jpg
2008.541	1.207	correct	pointing	Trial3	pointing/STIM_006.jpg
2012.193	1.18	correct	pointing	Trial3	pointing/STIM_006.jpg
2017.024	1.225	correct	pointing	Trial3	pointing/STIM_007.jpg
2021.077	1.17	correct	pointing	Trial3	pointing/STIM_007.jpg
2025.056	1.222	correct	pointing	Trial3	pointing/STIM_007.jpg
2029.006	1.411	correct	pointing	Trial3	pointing/STIM_007.jpg
2034.165	0.904	correct	pointing	Trial3	pointing/STIM_007.jpg
2037.366	1.485	correct	pointing	Trial3	pointing/STIM_007.jpg
2040.872	1.413	correct	pointing	Trial3	pointing/STIM_008.jpg
2046.124	0.938	incorrect	pointing	Trial3	pointing/STIM_008.jpg
2050.589	1.339	correct	pointing	Trial3	pointing/STIM_008.jpg
2055.28	1.161	incorrect	pointing	Trial3	pointing/STIM_008.jpg
2059.977	1.313	correct	pointing	Trial3	pointing/STIM_008.jpg
2064.892	1.506	correct	pointing	Trial3	pointing/STIM_008.jpg
2069.71	1.014	correct	pointing	Trial3	pointing/STIM_009.jpg
2074.227	0.853	correct	pointing	Trial3	pointing/STIM_009.jpg
2078.339	0.932	correct	pointing	Trial3	pointing/STIM_009.jpg
2083.14	1.265	incorrect	pointing	Trial3	pointing/STIM_009.jpg
2087.581	0.916	correct	pointing	Trial3	pointing/STIM_009.jpg
2092.123	0.875	incorrect	pointing	Trial3	pointing/STIM_009.jpg
2096.476	1.248	incorrect	pointing	Trial3	pointing/STIM_010.jpg
2100.577	0.953	correct	pointing	Trial3	pointing/STIM_010.jpg
2103.821	1.329	correct	pointing	Trial3	pointing/STIM_010.jpg
2107.51	1.447	correct	pointing	Trial3	pointing/STIM_010.jpg
2111.93	0.9	correct	pointing	Trial3	pointing/STIM_010.jpg
2116.415	1.42	incorrect	pointing	Trial3	pointing/STIM_010.jpg
2121.275	1.548	correct	pointing	Trial3	pointing/STIM_011.jpg
2125.478	1.002	incorrect	pointing	Trial3	pointing/STIM_011.jpg
2128.609	1.453	correct	pointing	Trial3	pointing/STIM_011.jpg
2133.647	1.144	correct	pointing	Trial3	pointing/STIM_011.jpg
2137.832	1.317	correct	pointing	Trial3	pointing/STIM_011.jpg
2142.26	0.859	correct	pointing	Trial3	pointing/STIM_011.jpg
