onset	duration	response_time_ms	trial_type	learning_stage	stimulus	response_port
0.0	3.595	3594.6	navigation	Trial1	navigation/STIM_000.jpg	99
6.571	2.714	2713.9	navigation	Trial1	navigation/STIM_000.jpg	99
11.561	3.704	3704.1	navigation	Trial1	navigation/STIM_000.jpg	100
18.556	2.082	2082.4	navigation	Trial1	navigation/STIM_000.jpg	99
24.197	3.535	3534.8	navigation	Trial1	navigation/STIM_000.jpg	99
31.382	1.98	1979.5	navigation	Trial1	navigation/STIM_000.jpg	100
36.417	4.061	4061.1	navigation	Trial1	navigation/STIM_001.jpg	100
43.89	4.595	4595.3	navigation	Trial1	navigation/STIM_001.jpg	99
52.192	3.639	3638.9	navigation	Trial1	navigation/STIM_001.jpg	100
57.833	3.872	3872.0	navigation	Trial1	navigation/STIM_001.jpg	100
63.949	2.523	2523.4	navigation	Trial1	navigation/STIM_001.jpg	99
70.375	2.016	2015.8	navigation	Trial1	navigation/STIM_001.jpg	99
75.816	4.464	4464.1	navigation	Trial1	navigation/STIM_002.jpg	99
83.445	3.743	3743.4	navigation	Trial1	navigation/STIM_002.jpg	99
89.915	3.307	3307.0	navigation	Trial1	navigation/STIM_002.jpg	99
95.89	2.409	2408.9	navigation	Trial1	navigation/STIM_002.jpg	100
101.258	1.875	1875.2	navigation	Trial1	navigation/STIM_002.jpg	99
106.509	2.266	2266.4	navigation	Trial1	navigation/STIM_002.jpg	100
111.087	4.621	4621.3	navigation	Trial1	navigation/STIM_003.jpg	100
119.556	3.429	3428.7	navigation	Trial1	navigation/STIM_003.jpg	100
125.048	4.446	4446.0	navigation	Trial1	navigation/STIM_003.jpg	99
131.95	3.498	3497.7	navigation	Trial1	navigation/STIM_003.jpg	99
138.386	2.389	2389.2	navigation	Trial1	navigation/STIM_003.jpg	100
143.025	3.196	3196.0	navigation	Trial1	navigation/STIM_003.jpg	100
148.327	2.22	2220.3	navigation	Trial1	navigation/STIM_004.jpg	99
153.668	3.283	3283.4	navigation	Trial1	navigation/STIM_004.jpg	100
160.65	2.28	2279.6	navigation	Trial1	navigation/STIM_004.jpg	99
165.724	3.492	3492.4	navigation	Trial1	navigation/STIM_004.jpg	99
173.114	2.7	2700.4	navigation	Trial1	navigation/STIM_004.jpg	100
179.561	2.64	2640.4	navigation	Trial1	navigation/STIM_004.jpg	100
185.381	3.367	3367.2	navigation	Trial1	navigation/STIM_005.jpg	99
191.059	4.498	4497.9	navigation	Trial1	navigation/STIM_005.jpg	100
199.489	2.36	2360.1	navigation	Trial1	navigation/STIM_005.jpg	99
204.641	2.148	2148.4	navigation	Trial1	navigation/STIM_005.jpg	100
209.462	3.654	3654.2	navigation	Trial1	navigation/STIM_005.jpg	99
215.801	2.851	2851.0	navigation	Trial1	navigation/STIM_005.jpg	100
221.483	2.62	2620.4	navigation	Trial1	navigation/STIM_006.jpg	99
227.911	3.711	3711.3	navigation	Trial1	navigation/STIM_006.jpg	100
234.442	2.148	2148.5	navigation	Trial1	navigation/STIM_006.jpg	99
240.217	2.667	2667.0	navigation	Trial1	navigation/STIM_006.jpg	99
245.305	3.212	3212.4	navigation	Trial1	navigation/STIM_006.jpg	100
252.003	3.446	3446.0	navigation	Trial1	navigation/STIM_006.jpg	99
258.608	2.71	2709.9	navigation	Trial1	navigation/STIM_007.jpg	99
263.599	3.253	3252.9	navigation	Trial1	navigation/STIM_007.jpg	100
268.97	3.137	3137.1	navigation	Trial1	navigation/STIM_007.jpg	100
275.407	3.066	3065.6	navigation	Trial1	navigation/STIM_007.jpg	99
282.427	3.232	3231.7	navigation	Trial1	navigation/STIM_007.jpg	100
287.812	2.911	2911.3	navigation	Trial1	navigation/STIM_007.jpg	99
294.556	4.391	4391.3	navigation	Trial1	navigation/STIM_008.jpg	99
301.569	3.003	3003.1	navigation	Trial1	navigation/STIM_008.jpg	99
307.888	4.222	4222.2	navigation	Trial1	navigation/STIM_008.jpg	100
315.611	3.186	3186.4	navigation	Trial1	navigation/STIM_008.jpg	100
320.983	3.722	3722.2	navigation	Trial1	navigation/STIM_008.jpg	100
327.368	2.652	2652.1	navigation	Trial1	navigation/STIM_008.jpg	99
333.84	3.839	3839.1	navigation	Trial1	navigation/STIM_009.jpg	100
341.11	3.348	3347.7	navigation	Trial1	navigation/STIM_009.jpg	100
346.819	3.797	3797.3	navigation	Trial1	navigation/STIM_009.jpg	100
352.948	3.305	3304.9	navigation	Trial1	navigation/STIM_009.jpg	100
358.602	2.566	2565.6	navigation	Trial1	navigation/STIM_009.jpg	99
364.246	2.074	2073.8	navigation	Trial1	navigation/STIM_009.jpg	99
368.384	4.488	4488.4	navigation	Trial1	navigation/STIM_010.jpg	99
376.596	1.853	1853.1	navigation	Trial1	navigation/STIM_010.jpg	99
381.248	2.481	2481.4	navigation	Trial1	navigation/STIM_010.jpg	99
387.736	3.221	3220.9	navigation	Trial1	navigation/STIM_010.jpg	99
394.184	1.77	1770.0	navigation	Trial1	navigation/STIM_010.jpg	100
398.076	2.67	2670.3	navigation	Trial1	navigation/STIM_010.jpg	99
404.588	3.37	3370.3	navigation	Trial1	navigation/STIM_011.jpg	99
411.325	3.524	3523.6	navigation	Trial1	navigation/STIM_011.jpg	99
417.614	3.862	3861.9	navigation	Trial1	navigation/STIM_011.jpg	100
424.563	3.951	3951.2	navigation	Trial1	navigation/STIM_011.jpg	99
430.834	1.98	1979.5	navigation	Trial1	navigation/STIM_011.jpg	100
435.903	3.437	3436.7	navigation	Trial1	navigation/STIM_011.jpg	100
442.474	1.112	1111.6	pointing	Trial1	pointing/STIM_000.jpg	99
446.067	1.446	1446.2	pointing	Trial1	pointing/STIM_000.jpg	99
451.266	1.1	1100.4	pointing	Trial1	pointing/STIM_000.jpg	100
456.06	0.872	872.2	pointing	Trial1	pointing/STIM_000.jpg	100
459.59	1.441	1441.2	pointing	Trial1	pointing/STIM_000.jpg	99
464.69	0.952	951.7	pointing	Trial1	pointing/STIM_000.jpg	100
469.436	1.428	1428.3	pointing	Trial1	pointing/STIM_001.jpg	100
473.272	1.052	1052.5	pointing	Trial1	pointing/STIM_001.jpg	100
477.913	0.935	934.6	pointing	Trial1	pointing/STIM_001.jpg	100
482.405	0.855	854.6	pointing	Trial1	pointing/STIM_001.jpg	100
486.175	1.373	1372.6	pointing	Trial1	pointing/STIM_001.jpg	99
490.796	0.93	930.1	pointing	Trial1	pointing/STIM_001.jpg	99
494.953	0.816	816.0	pointing	Trial1	pointing/STIM_002.jpg	100
498.088	1.057	1056.6	pointing	Trial1	pointing/STIM_002.jpg	100
502.777	1.141	1141.1	pointing	Trial1	pointing/STIM_002.jpg	99
506.695	1.1	1100.0	pointing	Trial1	pointing/STIM_002.jpg	100
510.061	1.483	1483.3	pointing	Trial1	pointing/STIM_002.jpg	99
513.687	1.067	1066.7	pointing	Trial1	pointing/STIM_002.jpg	99
518.391	1.331	1331.2	pointing	Trial1	pointing/STIM_003.jpg	100
522.078	1.151	1151.4	pointing	Trial1	pointing/STIM_003.jpg	100
525.53	0.848	847.8	pointing	Trial1	pointing/STIM_003.jpg	100
528.779	0.836	836.1	pointing	Trial1	pointing/STIM_003.jpg	99
532.888	1.074	1074.5	pointing	Trial1	pointing/STIM_003.jpg	99
536.198	1.336	1336.5	pointing	Trial1	pointing/STIM_003.jpg	99
540.302	1.214	1213.8	pointing	Trial1	pointing/STIM_004.jpg	100
545.125	1.164	1163.6	pointing	Trial1	pointing/STIM_004.jpg	100
549.123	1.183	1183.2	pointing	Trial1	pointing/STIM_004.jpg	100
553.859	1.236	1236.2	pointing	Trial1	pointing/STIM_004.jpg	99
557.729	1.176	1175.6	pointing	Trial1	pointing/STIM_004.jpg	100
562.384	1.096	1096.4	pointing	Trial1	pointing/STIM_004.jpg	99
566.426	1.4	1400.3	pointing	Trial1	pointing/STIM_005.jpg	100
571.649	1.328	1328.0	pointing	Trial1	pointing/STIM_005.jpg	99
576.85	1.227	1226.6	pointing	Trial1	pointing/STIM_005.jpg	99
581.006	0.94	939.8	pointing	Trial1	pointing/STIM_005.jpg	100
584.434	1.243	1243.0	pointing	Trial1	pointing/STIM_005.jpg	99
589.371	1.363	1363.2	pointing	Trial1	pointing/STIM_005.jpg	99
594.709	0.937	937.0	pointing	Trial1	pointing/STIM_006.jpg	100
598.951	1.221	1220.8	pointing	Trial1	pointing/STIM_006.jpg	99
602.619	0.895	894.7	pointing	Trial1	pointing/STIM_006.jpg	99
607.012	1.13	1129.6	pointing	Trial1	pointing/STIM_006.jpg	100
611.106	0.954	954.2	pointing	Trial1	pointing/STIM_006.jpg	99
615.821	0.879	879.2	pointing	Trial1	pointing/STIM_006.jpg	100
620.407	1.409	1409.3	pointing	Trial1	pointing/STIM_007.jpg	99
625.151	0.799	798.7	pointing	Trial1	pointing/STIM_007.jpg	99
628.767	0.958	957.5	pointing	Trial1	pointing/STIM_007.jpg	100
632.532	1.169	1169.1	pointing	Trial1	pointing/STIM_007.jpg	99
636.677	0.858	858.2	pointing	Trial1	pointing/STIM_007.jpg	99
640.413	1.49	1490.2	pointing	Trial1	pointing/STIM_007.jpg	100
644.909	1.071	1070.7	pointing	Trial1	pointing/STIM_008.jpg	100
649.292	1.33	1330.4	pointing	Trial1	pointing/STIM_008.jpg	99
652.69	1.283	1283.3	pointing	Trial1	pointing/STIM_008.jpg	100
656.237	1.194	1193.5	pointing	Trial1	pointing/STIM_008.jpg	100
660.774	1.528	1528.3	pointing	Trial1	pointing/STIM_008.jpg	100
666.13	1.061	1060.9	pointing	Trial1	pointing/STIM_008.jpg	99
669.734	1.276	1275.7	pointing	Trial1	pointing/STIM_009.jpg	99
674.403	1.063	1062.6	pointing	Trial1	pointing/STIM_009.jpg	100
679.427	1.006	1005.9	pointing	Trial1	pointing/STIM_009.jpg	100
683.941	0.968	968.4	pointing	Trial1	pointing/STIM_009.jpg	100
688.318	1.366	1366.2	pointing	Trial1	pointing/STIM_009.jpg	100
692.98	0.987	986.7	pointing	Trial1	pointing/STIM_009.jpg	100
696.769	0.982	982.2	pointing	Trial1	pointing/STIM_010.jpg	100
700.612	0.928	928.4	pointing	Trial1	pointing/STIM_010.jpg	99
704.091	1.365	1364.9	pointing	Trial1	pointing/STIM_010.jpg	99
709.145	1.108	1107.9	pointing	Trial1	pointing/STIM_010.jpg	100
713.077	1.345	1345.0	pointing	Trial1	pointing/STIM_010.jpg	100
716.656	0.925	924.6	pointing	Trial1	pointing/STIM_010.jpg	100
720.752	1.163	1163.1	pointing	Trial1	pointing/STIM_011.jpg	99
725.343	1.018	1018.4	pointing	Trial1	pointing/STIM_011.jpg	99
729.818	1.44	1440.2	pointing	Trial1	pointing/STIM_011.jpg	99
734.13	0.927	926.7	pointing	Trial1	pointing/STIM_011.jpg	99
738.636	0.972	971.6	pointing	Trial1	pointing/STIM_011.jpg	100
742.37	1.431	1430.8	pointing	Trial1	pointing/STIM_011.jpg	99
746.817	2.375	2375.2	navigation	Trial2	navigation/STIM_000.jpg	100
753.118	1.872	1871.6	navigation	Trial2	navigation/STIM_000.jpg	100
758.756	2.081	2081.0	navigation	Trial2	navigation/STIM_000.jpg	100
763.391	2.657	2657.0	navigation	Trial2	navigation/STIM_000.jpg	100
769.098	1.893	1892.6	navigation	Trial2	navigation/STIM_000.jpg	100
773.153	2.62	2620.3	navigation	Trial2	navigation/STIM_000.jpg	99
778.575	3.69	3690.1	navigation	Trial2	navigation/STIM_001.jpg	99
785.039	3.708	3707.6	navigation	Trial2	navigation/STIM_001.jpg	100
791.41	2.148	2147.7	navigation	Trial2	navigation/STIM_001.jpg	100
797.394	3.229	3228.7	navigation	Trial2	navigation/STIM_001.jpg	100
803.948	2.507	2506.9	navigation	Trial2	navigation/STIM_001.jpg	100
809.896	2.869	2869.0	navigation	Trial2	navigation/STIM_001.jpg	99
815.097	2.208	2208.3	navigation	Trial2	navigation/STIM_002.jpg	100
819.398	1.954	1953.6	navigation	Trial2	navigation/STIM_002.jpg	99
823.852	3.106	3105.8	navigation	Trial2	navigation/STIM_002.jpg	100
829.234	3.468	3467.6	navigation	Trial2	navigation/STIM_002.jpg	99
835.111	3.224	3224.4	navigation	Trial2	navigation/STIM_002.jpg	99
840.457	1.775	1774.9	navigation	Trial2	navigation/STIM_002.jpg	99
844.607	3.078	3078.0	navigation	Trial2	navigation/STIM_003.jpg	99
851.494	4.087	4087.3	navigation	Trial2	navigation/STIM_003.jpg	99
859.351	2.12	2120.2	navigation	Trial2	navigation/STIM_003.jpg	99
864.522	1.916	1916.4	navigation	Trial2	navigation/STIM_003.jpg	99
868.92	1.781	1781.1	navigation	Trial2	navigation/STIM_003.jpg	100
874.407	1.879	1879.0	navigation	Trial2	navigation/STIM_003.jpg	99
878.657	2.89	2889.5	navigation	Trial2	navigation/STIM_004.jpg	99
884.093	3.832	3831.9	navigation	Trial2	navigation/STIM_004.jpg	100
890.918	2.581	2581.0	navigation	Trial2	navigation/STIM_004.jpg	100
896.221	3.101	3100.7	navigation	Trial2	navigation/STIM_004.jpg	99
902.191	1.767	1766.9	navigation	Trial2	navigation/STIM_004.jpg	100
907.439	3.082	3081.6	navigation	Trial2	navigation/STIM_004.jpg	100
913.311	1.946	1945.5	navigation	Trial2	navigation/STIM_005.jpg	99
917.274	2.509	2509.0	navigation	Trial2	navigation/STIM_005.jpg	100
922.955	3.345	3345.2	navigation	Trial2	navigation/STIM_005.jpg	99
929.397	2.454	2453.7	navigation	Trial2	navigation/STIM_005.jpg	99
934.977	2.984	2984.1	navigation	Trial2	navigation/STIM_005.jpg	100
940.335	1.784	1784.3	navigation	Trial2	navigation/STIM_005.jpg	99
945.108	3.343	3343.4	navigation	Trial2	navigation/STIM_006.jpg	100
951.95	3.531	3530.6	navigation	Trial2	navigation/STIM_006.jpg	100
959.398	2.115	2115.4	navigation	Trial2	navigation/STIM_006.jpg	100
965.033	2.705	2705.0	navigation	Trial2	navigation/STIM_006.jpg	100
970.679	2.085	2084.7	navigation	Trial2	navigation/STIM_006.jpg	100
976.136	2.953	2953.0	navigation	Trial2	navigation/STIM_006.jpg	100
982.47	3.469	3469.1	navigation	Trial2	navigation/STIM_007.jpg	100
988.075	2.735	2735.0	navigation	Trial2	navigation/STIM_007.jpg	99
994.379	2.159	2159.3	navigation	Trial2	navigation/STIM_007.jpg	100
999.294	1.672	1672.2	navigation	Trial2	navigation/STIM_007.jpg	99
1004.351	2.22	2219.7	navigation	Trial2	navigation/STIM_007.jpg	100
1008.985	2.189	2188.9	navigation	Trial2	navigation/STIM_007.jpg	99
1013.447	2.053	2053.3	navigation	Trial2	navigation/STIM_008.jpg	99
1019.236	2.384	2384.3	navigation	Trial2	navigation/STIM_008.jpg	99
1024.459	2.44	2440.5	navigation	Trial2	navigation/STIM_008.jpg	100
1029.187	3.18	3179.5	navigation	Trial2	navigation/STIM_008.jpg	99
1036.015	2.67	2669.9	navigation	Trial2	navigation/STIM_008.jpg	100
1042.236	3.439	3438.7	navigation	Trial2	navigation/STIM_008.jpg	100
1048.581	3.592	3591.6	navigation	Trial2	navigation/STIM_009.jpg	99
1054.744	2.508	2508.0	navigation	Trial2	navigation/STIM_009.jpg	100
1060.849	2.056	2056.2	navigation	Trial2	navigation/STIM_009.jpg	100
1065.365	2.888	2888.0	navigation	Trial2	navigation/STIM_009.jpg	99
1070.778	2.011	2011.2	navigation	Trial2	navigation/STIM_009.jpg	100
1075.254	2.047	2046.7	navigation	Trial2	navigation/STIM_009.jpg	99
1080.484	2.242	2242.0	navigation	Trial2	navigation/STIM_010.jpg	100
1086.621	1.706	1705.9	navigation	Trial2	navigation/STIM_010.jpg	100
1091.244	3.08	3080.0	navigation	Trial2	navigation/STIM_010.jpg	99
1097.12	2.089	2089.2	navigation	Trial2	navigation/STIM_010.jpg	100
1101.647	2.561	2560.7	navigation	Trial2	navigation/STIM_010.jpg	100
1106.967	3.463	3462.8	navigation	Trial2	navigation/STIM_010.jpg	100
1113.728	3.121	3121.0	navigation	Trial2	navigation/STIM_011.jpg	100
1120.498	3.231	3231.0	navigation	Trial2	navigation/STIM_011.jpg	100
1127.173	1.716	1715.6	navigation	Trial2	navigation/STIM_011.jpg	100
1131.342	2.251	2251.0	navigation	Trial2	navigation/STIM_011.jpg	100
1136.503	1.429	1429.1	navigation	Trial2	navigation/STIM_011.jpg	99
1141.577	2.678	2678.2	navigation	Trial2	navigation/STIM_011.jpg	99
1147.976	1.408	1408.5	pointing	Trial2	pointing/STIM_000.jpg	100
1152.457	1.212	1211.8	pointing	Trial2	pointing/STIM_000.jpg	100
1155.98	0.847	846.9	pointing	Trial2	pointing/STIM_000.jpg	100
1159.509	1.275	1275.1	pointing	Trial2	pointing/STIM_000.jpg	99
1164.353	0.883	882.7	pointing	Trial2	pointing/STIM_000.jpg	99
1168.633	1.196	1195.7	pointing	Trial2	pointing/STIM_000.jpg	100
1172.866	1.253	1252.8	pointing	Trial2	pointing/STIM_001.jpg	99
1177.745	1.017	1017.2	pointing	Trial2	pointing/STIM_001.jpg	100
1181.52	1.047	1047.1	pointing	Trial2	pointing/STIM_001.jpg	100
1184.817	0.982	982.0	pointing	Trial2	pointing/STIM_001.jpg	99
1187.889	1.199	1199.2	pointing	Trial2	pointing/STIM_001.jpg	100
1192.992	1.364	1363.9	pointing	Trial2	pointing/STIM_001.jpg	100
1197.109	0.797	797.4	pointing	Trial2	pointing/STIM_002.jpg	99
1201.883	1.462	1462.4	pointing	Trial2	pointing/STIM_002.jpg	100
1206.051	1.361	1361.2	pointing	Trial2	pointing/STIM_002.jpg	100
1210.859	1.072	1071.8	pointing	Trial2	pointing/STIM_002.jpg	99
1215.034	1.004	1004.5	pointing	Trial2	pointing/STIM_002.jpg	99
1219.816	1.282	1282.1	pointing	Trial2	pointing/STIM_002.jpg	100
1224.501	1.358	1358.1	pointing	Trial2	pointing/STIM_003.jpg	100
1228.83	1.353	1353.3	pointing	Trial2	pointing/STIM_003.jpg	100
1232.647	1.148	1148.2	pointing	Trial2	pointing/STIM_003.jpg	99
1237.366	0.964	963.8	pointing	Trial2	pointing/STIM_003.jpg	100
1241.385	1.521	1521.4	pointing	Trial2	pointing/STIM_003.jpg	99
1245.869	1.184	1183.8	pointing	Trial2	pointing/STIM_003.jpg	99
1249.313	0.863	862.9	pointing	Trial2	pointing/STIM_004.jpg	100
1252.644	1.056	1056.5	pointing	Trial2	pointing/STIM_004.jpg	100
1256.778	1.196	1196.0	pointing	Trial2	pointing/STIM_004.jpg	100
1261.848	1.451	1450.6	pointing	Trial2	pointing/STIM_004.jpg	100
1265.247	1.164	1163.6	pointing	Trial2	pointing/STIM_004.jpg	99
1268.722	1.251	1250.8	pointing	Trial2	pointing/STIM_004.jpg	99
1273.414	1.273	1272.9	pointing	Trial2	pointing/STIM_005.jpg	100
1276.929	1.246	1245.7	pointing	Trial2	pointing/STIM_005.jpg	100
1281.681	1.346	1346.2	pointing	Trial2	pointing/STIM_005.jpg	99
1285.664	0.988	987.7	pointing	Trial2	pointing/STIM_005.jpg	100
1290.162	1.328	1328.2	pointing	Trial2	pointing/STIM_005.jpg	100
1294.695	1.467	1466.9	pointing	Trial2	pointing/STIM_005.jpg	100
1298.518	1.022	1022.4	pointing	Trial2	pointing/STIM_006.jpg	99
1301.773	1.017	1016.9	pointing	Trial2	pointing/STIM_006.jpg	99
1306.101	1.381	1381.1	pointing	Trial2	pointing/STIM_006.jpg	99
1310.605	0.92	919.7	pointing	Trial2	pointing/STIM_006.jpg	99
1315.499	0.884	884.2	pointing	Trial2	pointing/STIM_006.jpg	99
1318.873	1.193	1193.3	pointing	Trial2	pointing/STIM_006.jpg	100
1323.405	0.872	871.6	pointing	Trial2	pointing/STIM_007.jpg	99
1326.615	1.054	1054.2	pointing	Trial2	pointing/STIM_007.jpg	99
1329.86	1.402	1401.6	pointing	Trial2	pointing/STIM_007.jpg	100
1334.996	0.881	881.0	pointing	Trial2	pointing/STIM_007.jpg	100
1339.284	1.104	1103.7	pointing	Trial2	pointing/STIM_007.jpg	99
1343.301	0.832	832.4	pointing	Trial2	pointing/STIM_007.jpg	100
1347.71	1.355	1355.4	pointing	Trial2	pointing/STIM_008.jpg	99
1351.169	1.169	1168.7	pointing	Trial2	pointing/STIM_008.jpg	99
1356.036	1.456	1456.5	pointing	Trial2	pointing/STIM_008.jpg	99
1361.189	0.968	967.6	pointing	Trial2	pointing/STIM_008.jpg	99
1365.389	1.197	1197.3	pointing	Trial2	pointing/STIM_008.jpg	99
1369.636	1.464	1463.9	pointing	Trial2	pointing/STIM_008.jpg	99
1374.576	0.79	790.3	pointing	Trial2	pointing/STIM_009.jpg	100
1378.306	1.034	1033.6	pointing	Trial2	pointing/STIM_009.jpg	99
1383.281	0.777	777.2	pointing	Trial2	pointing/STIM_009.jpg	99
1387.956	0.976	976.5	pointing	Trial2	pointing/STIM_009.jpg	99
1391.414	0.913	913.3	pointing	Trial2	pointing/STIM_009.jpg	100
1394.955	1.013	1013.4	pointing	Trial2	pointing/STIM_009.jpg	99
1398.356	1.137	1137.2	pointing	Trial2	pointing/STIM_010.jpg	100
1403.079	1.165	1165.3	pointing	Trial2	pointing/STIM_010.jpg	100
1407.401	1.263	1262.8	pointing	Trial2	pointing/STIM_010.jpg	99
1411.243	1.238	1237.8	pointing	Trial2	pointing/STIM_010.jpg	100
1415.804	1.453	1452.6	pointing	Trial2	pointing/STIM_010.jpg	100
1419.296	0.952	951.6	pointing	Trial2	pointing/STIM_010.jpg	100
1423.128	1.158	1158.2	pointing	Trial2	pointing/STIM_011.jpg	100
1427.995	0.876	875.9	pointing	Trial2	pointing/STIM_011.jpg	99
1432.82	0.872	872.4	pointing	Trial2	pointing/STIM_011.jpg	99
1435.87	1.139	1138.6	pointing	Trial2	pointing/STIM_011.jpg	100
1440.659	1.012	1012.4	pointing	Trial2	pointing/STIM_011.jpg	99
1445.625	0.862	862.5	pointing	Trial2	pointing/STIM_011.jpg	99
1450.225	2.918	2917.8	navigation	Trial3	navigation/STIM_000.jpg	100
1455.234	2.45	2450.1	navigation	Trial3	navigation/STIM_000.jpg	100
1460.942	3.259	3258.9	navigation	Trial3	navigation/STIM_000.jpg	100
1468.181	2.928	2928.2	navigation	Trial3	navigation/STIM_000.jpg	99
1473.836	3.321	3321.2	navigation	Trial3	navigation/STIM_000.jpg	100
1480.271	2.74	2739.6	navigation	Trial3	navigation/STIM_000.jpg	100
1485.937	2.166	2166.2	navigation	Trial3	navigation/STIM_001.jpg	100
1491.159	2.38	2379.9	navigation	Trial3	navigation/STIM_001.jpg	99
1496.787	1.442	1442.1	navigation	Trial3	navigation/STIM_001.jpg	99
1500.962	2.102	2102.3	navigation	Trial3	navigation/STIM_001.jpg	99
1505.125	3.18	3180.1	navigation	Trial3	navigation/STIM_001.jpg	99
1511.189	3.216	3215.8	navigation	Trial3	navigation/STIM_001.jpg	99
1517.544	2.291	2290.6	navigation	Trial3	navigation/STIM_002.jpg	100
1522.177	2.593	2593.1	navigation	Trial3	navigation/STIM_002.jpg	100
1527.764	1.742	1742.3	navigation	Trial3	navigation/STIM_002.jpg	99
1532.571	1.322	1321.8	navigation	Trial3	navigation/STIM_002.jpg	99
1537.029	2.736	2736.0	navigation	Trial3	navigation/STIM_002.jpg	100
1542.925	2.464	2464.4	navigation	Trial3	navigation/STIM_002.jpg	100
1547.878	3.002	3002.4	navigation	Trial3	navigation/STIM_003.jpg	100
1553.577	2.236	2236.0	navigation	Trial3	navigation/STIM_003.jpg	100
1559.596	3.477	3477.2	navigation	Trial3	navigation/STIM_003.jpg	99
1565.525	3.317	3316.6	navigation	Trial3	navigation/STIM_003.jpg	100
1572.28	1.43	1429.8	navigation	Trial3	navigation/STIM_003.jpg	99
1576.196	1.498	1498.0	navigation	Trial3	navigation/STIM_003.jpg	99
1580.192	2.599	2598.9	navigation	Trial3	navigation/STIM_004.jpg	99
1585.746	2.643	2642.7	navigation	Trial3	navigation/STIM_004.jpg	99
1591.652	1.702	1701.8	navigation	Trial3	navigation/STIM_004.jpg	100
1596.761	1.947	1947.4	navigation	Trial3	navigation/STIM_004.jpg	99
1601.117	1.946	1946.5	navigation	Trial3	navigation/STIM_004.jpg	100
1606.808	2.724	2724.0	navigation	Trial3	navigation/STIM_004.jpg	100
1611.89	3.444	3443.5	navigation	Trial3	navigation/STIM_005.jpg	99
1618.199	2.061	2061.3	navigation	Trial3	navigation/STIM_005.jpg	100
1622.876	2.747	2746.8	navigation	Trial3	navigation/STIM_005.jpg	100
1628.244	1.429	1429.0	navigation	Trial3	navigation/STIM_005.jpg	100
1633.082	2.752	2751.6	navigation	Trial3	navigation/STIM_005.jpg	99
1639.409	1.528	1527.5	navigation	Trial3	navigation/STIM_005.jpg	99
1644.13	1.883	1883.1	navigation	Trial3	navigation/STIM_006.jpg	99
1648.581	3.333	3333.3	navigation	Trial3	navigation/STIM_006.jpg	99
1654.747	3.029	3029.4	navigation	Trial3	navigation/STIM_006.jpg	99
1660.257	2.927	2927.4	navigation	Trial3	navigation/STIM_006.jpg	99
1666.957	1.483	1482.6	navigation	Trial3	navigation/STIM_006.jpg	99
1671.759	3.399	3399.0	navigation	Trial3	navigation/STIM_006.jpg	100
1678.104	3.458	3457.7	navigation	Trial3	navigation/STIM_007.jpg	100
1684.269	3.132	3132.5	navigation	Trial3	navigation/STIM_007.jpg	99
1690.607	3.551	3551.2	navigation	Trial3	navigation/STIM_007.jpg	99
1696.269	3.13	3130.0	navigation	Trial3	navigation/STIM_007.jpg	99
1701.586	3.021	3020.6	navigation	Trial3	navigation/STIM_007.jpg	99
1707.641	1.573	1573.4	navigation	Trial3	navigation/STIM_007.jpg	99
1712.075	1.73	1730.3	navigation	Trial3	navigation/STIM_008.jpg	100
1716.205	2.064	2064.4	navigation	Trial3	navigation/STIM_008.jpg	100
1720.878	1.548	1548.2	navigation	Trial3	navigation/STIM_008.jpg	100
1726.121	1.706	1705.9	navigation	Trial3	navigation/STIM_008.jpg	99
1731.281	3.155	3154.6	navigation	Trial3	navigation/STIM_008.jpg	99
1737.356	2.682	2681.8	navigation	Trial3	navigation/STIM_008.jpg	99
1743.047	1.607	1607.0	navigation	Trial3	navigation/STIM_009.jpg	100
1747.947	1.618	1617.9	navigation	Trial3	navigation/STIM_009.jpg	100
1752.626	3.039	3039.2	navigation	Trial3	navigation/STIM_009.jpg	99
1758.685	1.578	1578.3	navigation	Trial3	navigation/STIM_009.jpg	100
1762.348	2.162	2162.0	navigation	Trial3	navigation/STIM_009.jpg	99
1767.023	1.533	1532.9	navigation	Trial3	navigation/STIM_009.jpg	99
1771.215	1.735	1735.0	navigation	Trial3	navigation/STIM_010.jpg	100
1776.549	2.504	2504.3	navigation	Trial3	navigation/STIM_010.jpg	100
1782.639	1.704	1704.1	navigation	Trial3	navigation/STIM_010.jpg	99
1787.745	2.157	2156.9	navigation	Trial3	navigation/STIM_010.jpg	99
1792.539	2.533	2533.3	navigation	Trial3	navigation/STIM_010.jpg	99
1798.701	3.394	3393.7	navigation	Trial3	navigation/STIM_010.jpg	100
1804.547	2.749	2748.7	navigation	Trial3	navigation/STIM_011.jpg	100
1809.995	1.722	1722.0	navigation	Trial3	navigation/STIM_011.jpg	100
1814.851	2.616	2615.5	navigation	Trial3	navigation/STIM_011.jpg	100
1821.164	2.785	2785.3	navigation	Trial3	navigation/STIM_011.jpg	100
1827.104	3.383	3382.6	navigation	Trial3	navigation/STIM_011.jpg	99
1833.341	2.772	2772.2	navigation	Trial3	navigation/STIM_011.jpg	100
1838.185	1.301	1301.4	pointing	Trial3	pointing/STIM_000.jpg	100
1843.262	1.038	1037.6	pointing	Trial3	pointing/STIM_000.jpg	100
1847.748	1.177	1176.8	pointing	Trial3	pointing/STIM_000.jpg	100
1852.728	0.917	916.6	pointing	Trial3	pointing/STIM_000.jpg	100
1856.127	1.22	1220.5	pointing	Trial3	pointing/STIM_000.jpg	99
1859.695	1.154	1153.7	pointing	Trial3	pointing/STIM_000.jpg	99
1863.022	1.381	1381.3	pointing	Trial3	pointing/STIM_001.jpg	99
1867.643	1.003	1002.6	pointing	Trial3	pointing/STIM_001.jpg	100
1871.866	1.024	1024.4	pointing	Trial3	pointing/STIM_001.jpg	100
1875.767	1.15	1150.2	pointing	Trial3	pointing/STIM_001.jpg	99
1879.453	1.059	1058.9	pointing	Trial3	pointing/STIM_001.jpg	100
1884.213	1.083	1082.6	pointing	Trial3	pointing/STIM_001.jpg	99
1888.328	1.482	1481.6	pointing	Trial3	pointing/STIM_002.jpg	100
1893.454	1.178	1177.5	pointing	Trial3	pointing/STIM_002.jpg	99
1898.37	1.042	1042.5	pointing	Trial3	pointing/STIM_002.jpg	100
1901.802	1.101	1101.4	pointing	Trial3	pointing/STIM_002.jpg	100
1906.478	0.941	941.4	pointing	Trial3	pointing/STIM_002.jpg	99
1909.919	0.978	977.6	pointing	Trial3	pointing/STIM_002.jpg	99
1913.314	1.056	1056.3	pointing	Trial3	pointing/STIM_003.jpg	99
1917.31	1.272	1272.2	pointing	Trial3	pointing/STIM_003.jpg	100
1922.584	1.35	1349.6	pointing	Trial3	pointing/STIM_003.jpg	100
1927.596	1.326	1325.5	pointing	Trial3	pointing/STIM_003.jpg	99
1931.862	1.515	1515.3	pointing	Trial3	pointing/STIM_003.jpg	100
1936.847	1.362	1361.9	pointing	Trial3	pointing/STIM_003.jpg	99
1940.452	1.439	1438.8	pointing	Trial3	pointing/STIM_004.jpg	99
1943.984	0.819	818.9	pointing	Trial3	pointing/STIM_004.jpg	99
1947.756	1.379	1379.1	pointing	Trial3	pointing/STIM_004.jpg	100
1952.745	1.325	1325.3	pointing	Trial3	pointing/STIM_004.jpg	99
1956.39	1.505	1504.7	pointing	Trial3	pointing/STIM_004.jpg	100
1961.64	1.525	1525.3	pointing	Trial3	pointing/STIM_004.jpg	100
1966.092	1.289	1289.1	pointing	Trial3	pointing/STIM_005.jpg	100
1970.337	0.776	775.6	pointing	Trial3	pointing/STIM_005.jpg	99
1973.805	1.276	1275.6	pointing	Trial3	pointing/STIM_005.jpg	99
1977.599	1.13	1129.9	pointing	Trial3	pointing/STIM_005.jpg	99
1982.106	1.241	1241.2	pointing	Trial3	pointing/STIM_005.jpg	99
1985.828	0.977	976.7	pointing	Trial3	pointing/STIM_005.jpg	99
1989.654	1.445	1445.4	pointing	Trial3	pointing/STIM_006.jpg	100
1994.595	0.988	987.7	pointing	Trial3	pointing/STIM_006.jpg	100
1998.033	1.394	1394.4	pointing	Trial3	pointing/STIM_006.jpg	99
2003.324	0.928	928.5	pointing	Trial3	pointing/STIM_006.jpg	100
2008.257	1.207	1206.9	pointing	Trial3	pointing/STIM_006.jpg	99
2013.418	0.947	946.8	pointing	Trial3	pointing/STIM_006.jpg	99
2016.629	1.068	1067.9	pointing	Trial3	pointing/STIM_007.jpg	99
2020.374	0.836	835.7	pointing	Trial3	pointing/STIM_007.jpg	99
2024.266	0.989	989.3	pointing	Trial3	pointing/STIM_007.jpg	100
2027.864	0.712	711.8	pointing	Trial3	pointing/STIM_007.jpg	99
2032.002	1.316	1316.3	pointing	Trial3	pointing/STIM_007.jpg	100
2036.788	1.324	1323.9	pointing	Trial3	pointing/STIM_007.jpg	99
2042.053	1.057	1056.8	pointing	Trial3	pointing/STIM_008.jpg	100
2045.733	1.278	1278.0	pointing	Trial3	pointing/STIM_008.jpg	99
2050.298	1.279	1279.0	pointing	Trial3	pointing/STIM_008.jpg	99
2054.136	1.355	1355.4	pointing	Trial3	pointing/STIM_008.jpg	99
2058.973	1.422	1422.1	pointing	Trial3	pointing/STIM_008.jpg	99
2063.01	1.01	1010.0	pointing	Trial3	pointing/STIM_008.jpg	99
2066.358	0.88	879.9	pointing	Trial3	pointing/STIM_009.jpg	99
2070.806	1.434	1433.9	pointing	Trial3	pointing/STIM_009.jpg	99
2075.596	0.799	799.3	pointing	Trial3	pointing/STIM_009.jpg	99
2080.073	1.018	1017.6	pointing	Trial3	pointing/STIM_009.jpg	99
2083.464	1.295	1295.4	pointing	Trial3	pointing/STIM_009.jpg	100
2088.038	0.896	896.1	pointing	Trial3	pointing/STIM_009.jpg	99
2091.495	1.337	1336.7	pointing	Trial3	pointing/STIM_010.jpg	100
2095.646	0.804	804.1	pointing	Trial3	pointing/STIM_010.jpg	100
2099.174	1.444	1444.1	pointing	Trial3	pointing/STIM_010.jpg	100
2103.36	1.005	1004.6	pointing	Trial3	pointing/STIM_010.jpg	100
2108.04	1.076	1075.9	pointing	Trial3	pointing/STIM_010.jpg	100
2113.01	1.024	1024.0	pointing	Trial3	pointing/STIM_010.jpg	99
2117.673	1.369	1368.9	pointing	Trial3	pointing/STIM_011.jpg	99
2121.668	1.07	1070.4	pointing	Trial3	pointing/STIM_011.jpg	100
2125.017	1.164	1164.5	pointing	Trial3	pointing/STIM_011.jpg	100
2129.668	1.075	1075.4	pointing	Trial3	pointing/STIM_011.jpg	99
2133.935	0.963	963.3	pointing	Trial3	pointing/STIM_011.jpg	99
2136.89	0.861	861.2	pointing	Trial3	pointing/STIM_011.jpg	100
