onset	duration	response_time_ms	trial_type	learning_stage	stimulus	response_port
0.0	0.654	653.8	incongruent	Block1	incongruent/STIM_000.jpg	99
3.587	0.622	621.7	incongruent	Block1	incongruent/STIM_000.jpg	100
7.39	1.145	1144.6	incongruent	Block1	incongruent/STIM_000.jpg	100
12.317	1.084	1083.5	incongruent	Block1	incongruent/STIM_000.jpg	99
17.239	0.562	561.8	incongruent	Block1	incongruent/STIM_000.jpg	100
20.431	1.171	1171.3	incongruent	Block1	incongruent/STIM_001.jpg	100
25.184	0.88	879.8	incongruent	Block1	incongruent/STIM_001.jpg	99
28.246	0.952	951.6	incongruent	Block1	incongruent/STIM_001.jpg	100
32.206	1.032	1032.1	incongruent	Block1	incongruent/STIM_001.jpg	100
36.243	0.548	548.2	incongruent	Block1	incongruent/STIM_001.jpg	100
40.234	0.793	793.4	incongruent	Block1	incongruent/STIM_002.jpg	100
44.402	0.863	863.3	incongruent	Block1	incongruent/STIM_002.jpg	99
48.284	0.845	844.6	incongruent	Block1	incongruent/STIM_002.jpg	100
52.431	0.818	818.3	incongruent	Block1	incongruent/STIM_002.jpg	100
56.052	0.726	725.9	incongruent	Block1	incongruent/STIM_002.jpg	100
60.06	0.794	794.0	incongruent	Block1	incongruent/STIM_003.jpg	99
63.316	0.954	954.0	incongruent	Block1	incongruent/STIM_003.jpg	100
67.72	0.974	973.8	incongruent	Block1	incongruent/STIM_003.jpg	100
72.278	0.595	594.6	incongruent	Block1	incongruent/STIM_003.jpg	99
75.374	0.959	958.9	incongruent	Block1	incongruent/STIM_003.jpg	100
79.048	0.965	965.0	incongruent	Block1	incongruent/STIM_004.jpg	99
82.205	0.779	779.2	incongruent	Block1	incongruent/STIM_004.jpg	100
85.61	0.692	692.2	incongruent	Block1	incongruent/STIM_004.jpg	99
90.172	0.642	642.1	incongruent	Block1	incongruent/STIM_004.jpg	99
93.176	0.802	801.5	incongruent	Block1	incongruent/STIM_004.jpg	100
96.985	0.959	958.7	incongruent	Block1	incongruent/STIM_005.jpg	99
100.281	0.585	585.2	incongruent	Block1	incongruent/STIM_005.jpg	100
103.007	0.913	912.6	incongruent	Block1	incongruent/STIM_005.jpg	99
106.323	1.028	1028.0	incongruent	Block1	incongruent/STIM_005.jpg	99
110.412	0.51	509.9	incongruent	Block1	incongruent/STIM_005.jpg	100
113.048	0.758	758.0	incongruent	Block1	incongruent/STIM_006.jpg	99
117.373	1.116	1116.5	incongruent	Block1	incongruent/STIM_006.jpg	99
120.687	0.826	826.0	incongruent	Block1	incongruent/STIM_006.jpg	99
125.324	0.546	545.7	incongruent	Block1	incongruent/STIM_006.jpg	99
128.861	0.87	870.4	incongruent	Block1	incongruent/STIM_006.jpg	99
132.648	1.176	1176.0	incongruent	Block1	incongruent/STIM_007.jpg	100
136.054	0.831	831.1	incongruent	Block1	incongruent/STIM_007.jpg	99
140.309	0.598	598.0	incongruent	Block1	incongruent/STIM_007.jpg	100
144.849	0.595	594.7	incongruent	Block1	incongruent/STIM_007.jpg	99
148.217	1.029	1029.1	incongruent	Block1	incongruent/STIM_007.jpg	100
152.862	1.021	1021.2	incongruent	Block1	incongruent/STIM_008.jpg	100
156.147	0.765	765.0	incongruent	Block1	incongruent/STIM_008.jpg	99
159.061	1.112	1112.2	incongruent	Block1	incongruent/STIM_008.jpg	99
163.299	0.923	923.3	incongruent	Block1	incongruent/STIM_008.jpg	99
168.048	0.515	514.7	incongruent	Block1	incongruent/STIM_008.jpg	99
171.747	0.841	841.2	incongruent	Block1	incongruent/STIM_009.jpg	99
175.811	0.599	599.0	incongruent	Block1	incongruent/STIM_009.jpg	100
179.788	0.794	794.3	incongruent	Block1	incongruent/STIM_009.jpg	100
183.641	0.759	758.7	incongruent	Block1	incongruent/STIM_009.jpg	99
188.132	0.75	750.0	incongruent	Block1	incongruent/STIM_009.jpg	99
190.97	0.654	654.1	incongruent	Block1	incongruent/STIM_010.jpg	100
194.538	1.127	1127.4	incongruent	Block1	incongruent/STIM_010.jpg	100
198.9	1.025	1025.4	incongruent	Block1	incongruent/STIM_010.jpg	100
202.468	1.016	1016.4	incongruent	Block1	incongruent/STIM_010.jpg	100
206.93	0.574	574.2	incongruent	Block1	incongruent/STIM_010.jpg	100
209.753	1.13	1129.6	incongruent	Block1	incongruent/STIM_011.jpg	99
214.346	0.892	892.1	incongruent	Block1	incongruent/STIM_011.jpg	99
217.67	1.118	1118.5	incongruent	Block1	incongruent/STIM_011.jpg	99
221.613	0.611	610.8	incongruent	Block1	incongruent/STIM_011.jpg	100
225.912	0.865	864.7	incongruent	Block1	incongruent/STIM_011.jpg	100
229.221	0.94	939.5	incongruent	Block1	incongruent/STIM_012.jpg	99
233.847	1.032	1031.7	incongruent	Block1	incongruent/STIM_012.jpg	100
237.124	0.562	562.1	incongruent	Block1	incongruent/STIM_012.jpg	100
240.974	0.795	794.6	incongruent	Block1	incongruent/STIM_012.jpg	100
244.151	0.663	663.0	incongruent	Block1	incongruent/STIM_012.jpg	100
248.257	1.072	1072.2	incongruent	Block1	incongruent/STIM_013.jpg	99
251.654	0.697	697.3	incongruent	Block1	incongruent/STIM_013.jpg	100
254.603	0.645	644.9	incongruent	Block1	incongruent/STIM_013.jpg	99
257.79	1.039	1039.4	incongruent	Block1	incongruent/STIM_013.jpg	99
262.548	0.683	683.1	incongruent	Block1	incongruent/STIM_013.jpg	99
265.698	0.963	962.9	incongruent	Block1	incongruent/STIM_014.jpg	99
269.918	0.667	667.3	incongruent	Block1	incongruent/STIM_014.jpg	99
273.771	0.784	784.4	incongruent	Block1	incongruent/STIM_014.jpg	99
276.881	0.774	773.5	incongruent	Block1	incongruent/STIM_014.jpg	100
279.964	0.968	967.7	incongruent	Block1	incongruent/STIM_014.jpg	99
283.966	1.114	1113.9	incongruent	Block1	incongruent/STIM_015.jpg	100
288.653	0.746	745.9	incongruent	Block1	incongruent/STIM_015.jpg	100
292.26	1.044	1044.2	incongruent	Block1	incongruent/STIM_015.jpg	99
297.001	1.094	1094.1	incongruent	Block1	incongruent/STIM_015.jpg	99
301.691	0.81	809.7	incongruent	Block1	incongruent/STIM_015.jpg	99
304.752	1.282	1281.5	incongruent	Block1	incongruent/STIM_016.jpg	99
308.539	1.096	1096.4	incongruent	Block1	incongruent/STIM_016.jpg	100
312.32	1.061	1060.7	incongruent	Block1	incongruent/STIM_016.jpg	99
317.316	0.525	525.2	incongruent	Block1	incongruent/STIM_016.jpg	100
321.435	0.754	754.1	incongruent	Block1	incongruent/STIM_016.jpg	99
325.567	0.826	825.6	incongruent	Block1	incongruent/STIM_017.jpg	99
329.566	0.639	639.1	incongruent	Block1	incongruent/STIM_017.jpg	100
333.21	1.069	1069.0	incongruent	Block1	incongruent/STIM_017.jpg	100
336.733	0.751	750.9	incongruent	Block1	incongruent/STIM_017.jpg	100
341.336	0.68	679.5	incongruent	Block1	incongruent/STIM_017.jpg	99
345.354	0.666	666.0	incongruent	Block1	incongruent/STIM_018.jpg	100
348.219	0.902	902.5	incongruent	Block1	incongruent/STIM_018.jpg	99
352.273	0.812	812.4	incongruent	Block1	incongruent/STIM_018.jpg	99
355.889	0.614	614.5	incongruent	Block1	incongruent/STIM_018.jpg	99
360.151	0.802	802.4	incongruent	Block1	incongruent/STIM_018.jpg	99
364.463	1.153	1153.3	incongruent	Block1	incongruent/STIM_019.jpg	99
369.346	1.152	1152.3	incongruent	Block1	incongruent/STIM_019.jpg	99
373.083	1.034	1034.4	incongruent	Block1	incongruent/STIM_019.jpg	100
377.869	0.697	697.1	incongruent	Block1	incongruent/STIM_019.jpg	100
381.262	0.61	609.8	incongruent	Block1	incongruent/STIM_019.jpg	99
385.1	1.027	1026.6	incongruent	Block1	incongruent/STIM_020.jpg	100
388.129	1.038	1037.7	incongruent	Block1	incongruent/STIM_020.jpg	99
391.296	0.576	575.5	incongruent	Block1	incongruent/STIM_020.jpg	99
394.136	1.036	1036.2	incongruent	Block1	incongruent/STIM_020.jpg	99
397.569	0.98	980.4	incongruent	Block1	incongruent/STIM_020.jpg	100
401.787	0.797	797.4	incongruent	Block1	incongruent/STIM_021.jpg	100
405.478	1.047	1046.9	incongruent	Block1	incongruent/STIM_021.jpg	99
408.774	0.846	845.8	incongruent	Block1	incongruent/STIM_021.jpg	99
412.438	0.716	715.6	incongruent	Block1	incongruent/STIM_021.jpg	99
416.828	0.517	517.1	incongruent	Block1	incongruent/STIM_021.jpg	100
419.933	0.78	779.5	incongruent	Block1	incongruent/STIM_022.jpg	99
424.3	1.018	1018.1	incongruent	Block1	incongruent/STIM_022.jpg	99
427.445	0.693	692.8	incongruent	Block1	incongruent/STIM_022.jpg	100
430.915	0.664	664.1	incongruent	Block1	incongruent/STIM_022.jpg	100
435.069	0.883	882.7	incongruent	Block1	incongruent/STIM_022.jpg	99
438.491	0.773	773.3	incongruent	Block1	incongruent/STIM_023.jpg	100
442.473	0.739	739.4	incongruent	Block1	incongruent/STIM_023.jpg	100
446.75	0.636	635.5	incongruent	Block1	incongruent/STIM_023.jpg	100
450.576	0.563	562.6	incongruent	Block1	incongruent/STIM_023.jpg	99
454.004	0.687	686.7	incongruent	Block1	incongruent/STIM_023.jpg	99
457.93	1.082	1082.3	incongruent	Block1	incongruent/STIM_024.jpg	100
462.908	0.718	718.3	incongruent	Block1	incongruent/STIM_024.jpg	99
466.707	0.75	749.5	incongruent	Block1	incongruent/STIM_024.jpg	99
469.633	0.709	709.3	incongruent	Block1	incongruent/STIM_024.jpg	100
473.797	1.027	1026.9	incongruent	Block1	incongruent/STIM_024.jpg	99
476.852	1.216	1215.6	incongruent	Block1	incongruent/STIM_025.jpg	100
481.391	0.992	992.3	incongruent	Block1	incongruent/STIM_025.jpg	99
485.238	0.664	663.6	incongruent	Block1	incongruent/STIM_025.jpg	99
489.815	1.035	1035.0	incongruent	Block1	incongruent/STIM_025.jpg	100
494.737	0.782	782.2	incongruent	Block1	incongruent/STIM_025.jpg	100
498.356	0.772	772.3	incongruent	Block1	incongruent/STIM_026.jpg	99
502.037	0.763	762.8	incongruent	Block1	incongruent/STIM_026.jpg	99
505.202	0.577	577.0	incongruent	Block1	incongruent/STIM_026.jpg	99
508.561	0.75	749.8	incongruent	Block1	incongruent/STIM_026.jpg	100
512.842	0.96	960.1	incongruent	Block1	incongruent/STIM_026.jpg	99
517.389	0.689	688.7	incongruent	Block1	incongruent/STIM_027.jpg	100
521.24	1.234	1234.5	incongruent	Block1	incongruent/STIM_027.jpg	100
524.975	1.008	1007.9	incongruent	Block1	incongruent/STIM_027.jpg	100
529.157	0.589	589.3	incongruent	Block1	incongruent/STIM_027.jpg	99
533.193	0.865	865.2	incongruent	Block1	incongruent/STIM_027.jpg	100
537.525	0.769	768.9	incongruent	Block1	incongruent/STIM_028.jpg	99
540.587	0.682	682.0	incongruent	Block1	incongruent/STIM_028.jpg	100
543.343	1.167	1167.3	incongruent	Block1	incongruent/STIM_028.jpg	100
548.43	0.887	886.8	incongruent	Block1	incongruent/STIM_028.jpg	100
552.741	0.821	821.2	incongruent	Block1	incongruent/STIM_028.jpg	100
555.696	1.0	999.5	incongruent	Block1	incongruent/STIM_029.jpg	100
560.206	0.59	589.8	incongruent	Block1	incongruent/STIM_029.jpg	99
563.607	1.119	1119.2	incongruent	Block1	incongruent/STIM_029.jpg	100
568.138	0.74	740.3	incongruent	Block1	incongruent/STIM_029.jpg	99
571.688	0.784	783.9	incongruent	Block1	incongruent/STIM_029.jpg	99
575.927	0.692	692.4	congruent	Block1	congruent/STIM_000.jpg	100
580.599	0.74	740.2	congruent	Block1	congruent/STIM_000.jpg	100
583.542	0.656	656.4	congruent	Block1	congruent/STIM_000.jpg	99
587.084	0.471	471.1	congruent	Block1	congruent/STIM_000.jpg	100
590.608	0.772	772.3	congruent	Block1	congruent/STIM_000.jpg	100
595.336	0.509	508.9	congruent	Block1	congruent/STIM_001.jpg	99
599.771	0.615	615.3	congruent	Block1	congruent/STIM_001.jpg	100
603.545	0.691	690.6	congruent	Block1	congruent/STIM_001.jpg	99
606.477	0.495	495.3	congruent	Block1	congruent/STIM_001.jpg	100
609.703	0.478	477.9	congruent	Block1	congruent/STIM_001.jpg	99
612.435	0.509	509.4	congruent	Block1	congruent/STIM_002.jpg	100
615.627	0.684	683.7	congruent	Block1	congruent/STIM_002.jpg	99
619.518	0.497	497.3	congruent	Block1	congruent/STIM_002.jpg	100
623.646	0.676	676.3	congruent	Block1	congruent/STIM_002.jpg	99
627.296	0.668	667.7	congruent	Block1	congruent/STIM_002.jpg	99
631.713	0.448	447.6	congruent	Block1	congruent/STIM_003.jpg	99
635.032	0.762	762.3	congruent	Block1	congruent/STIM_003.jpg	100
639.344	0.634	633.7	congruent	Block1	congruent/STIM_003.jpg	100
643.78	0.75	750.1	congruent	Block1	congruent/STIM_003.jpg	99
646.836	0.712	711.8	congruent	Block1	congruent/STIM_003.jpg	100
649.913	0.643	642.9	congruent	Block1	congruent/STIM_004.jpg	100
653.938	0.522	522.1	congruent	Block1	congruent/STIM_004.jpg	99
657.488	0.596	595.9	congruent	Block1	congruent/STIM_004.jpg	99
661.779	0.741	741.2	congruent	Block1	congruent/STIM_004.jpg	99
665.787	0.46	460.3	congruent	Block1	congruent/STIM_004.jpg	100
668.302	0.712	711.5	congruent	Block1	congruent/STIM_005.jpg	99
671.945	0.644	643.6	congruent	Block1	congruent/STIM_005.jpg	100
675.099	0.674	673.6	congruent	Block1	congruent/STIM_005.jpg	99
679.516	0.558	558.3	congruent	Block1	congruent/STIM_005.jpg	99
683.385	0.658	657.9	congruent	Block1	congruent/STIM_005.jpg	100
687.072	0.478	477.7	congruent	Block1	congruent/STIM_006.jpg	100
689.718	0.625	625.0	congruent	Block1	congruent/STIM_006.jpg	99
693.459	0.531	531.0	congruent	Block1	congruent/STIM_006.jpg	100
697.772	0.68	679.8	congruent	Block1	congruent/STIM_006.jpg	99
701.906	0.666	666.2	congruent	Block1	congruent/STIM_006.jpg	100
706.076	0.619	618.6	congruent	Block1	congruent/STIM_007.jpg	99
709.41	0.668	668.2	congruent	Block1	congruent/STIM_007.jpg	99
713.786	0.721	720.7	congruent	Block1	congruent/STIM_007.jpg	99
717.109	0.574	574.4	congruent	Block1	congruent/STIM_007.jpg	100
720.589	0.635	635.1	congruent	Block1	congruent/STIM_007.jpg	99
724.721	0.545	545.2	congruent	Block1	congruent/STIM_008.jpg	100
727.92	0.444	444.3	congruent	Block1	congruent/STIM_008.jpg	99
731.757	0.504	503.8	congruent	Block1	congruent/STIM_008.jpg	100
735.989	0.54	539.6	congruent	Block1	congruent/STIM_008.jpg	99
739.804	0.502	502.5	congruent	Block1	congruent/STIM_008.jpg	99
742.663	0.525	524.9	congruent	Block1	congruent/STIM_009.jpg	100
746.942	0.694	694.5	congruent	Block1	congruent/STIM_009.jpg	100
750.926	0.686	685.9	congruent	Block1	congruent/STIM_009.jpg	100
755.298	0.454	454.1	congruent	Block1	congruent/STIM_009.jpg	100
758.71	0.724	723.8	congruent	Block1	congruent/STIM_009.jpg	99
762.637	0.607	607.0	congruent	Block1	congruent/STIM_010.jpg	99
766.848	0.61	609.8	congruent	Block1	congruent/STIM_010.jpg	99
770.057	0.751	751.3	congruent	Block1	congruent/STIM_010.jpg	99
774.152	0.733	732.9	congruent	Block1	congruent/STIM_010.jpg	100
776.98	0.477	476.9	congruent	Block1	congruent/STIM_010.jpg	99
781.211	0.573	573.2	congruent	Block1	congruent/STIM_011.jpg	99
784.665	0.719	718.6	congruent	Block1	congruent/STIM_011.jpg	100
787.475	0.611	611.3	congruent	Block1	congruent/STIM_011.jpg	100
791.935	0.454	454.1	congruent	Block1	congruent/STIM_011.jpg	100
796.246	0.504	504.1	congruent	Block1	congruent/STIM_011.jpg	99
800.11	0.536	536.0	congruent	Block1	congruent/STIM_012.jpg	100
803.874	0.527	527.4	congruent	Block1	congruent/STIM_012.jpg	99
807.063	0.508	508.0	congruent	Block1	congruent/STIM_012.jpg	100
811.55	0.569	569.1	congruent	Block1	congruent/STIM_012.jpg	100
815.371	0.586	586.4	congruent	Block1	congruent/STIM_012.jpg	99
818.45	0.722	722.5	congruent	Block1	congruent/STIM_013.jpg	100
822.657	0.593	593.4	congruent	Block1	congruent/STIM_013.jpg	100
825.675	0.669	669.4	congruent	Block1	congruent/STIM_013.jpg	99
828.938	0.461	461.3	congruent	Block1	congruent/STIM_013.jpg	100
831.49	0.573	573.4	congruent	Block1	congruent/STIM_013.jpg	99
835.122	0.741	740.6	congruent	Block1	congruent/STIM_014.jpg	100
839.713	0.465	464.6	congruent	Block1	congruent/STIM_014.jpg	100
843.1	0.47	469.6	congruent	Block1	congruent/STIM_014.jpg	99
845.666	0.515	515.3	congruent	Block1	congruent/STIM_014.jpg	100
848.562	0.563	562.7	congruent	Block1	congruent/STIM_014.jpg	99
851.357	0.772	771.6	congruent	Block1	congruent/STIM_015.jpg	99
854.266	0.592	592.5	congruent	Block1	congruent/STIM_015.jpg	99
858.292	0.535	535.4	congruent	Block1	congruent/STIM_015.jpg	99
862.003	0.436	435.9	congruent	Block1	congruent/STIM_015.jpg	100
865.686	0.542	542.2	congruent	Block1	congruent/STIM_015.jpg	100
870.031	0.735	735.4	congruent	Block1	congruent/STIM_016.jpg	100
873.359	0.661	661.3	congruent	Block1	congruent/STIM_016.jpg	99
876.056	0.702	701.9	congruent	Block1	congruent/STIM_016.jpg	99
880.48	0.644	643.6	congruent	Block1	congruent/STIM_016.jpg	100
883.348	0.532	531.9	congruent	Block1	congruent/STIM_016.jpg	99
887.51	0.446	446.5	congruent	Block1	congruent/STIM_017.jpg	99
891.127	0.652	651.6	congruent	Block1	congruent/STIM_017.jpg	99
894.94	0.615	614.6	congruent	Block1	congruent/STIM_017.jpg	99
898.028	0.654	654.1	congruent	Block1	congruent/STIM_017.jpg	99
902.516	0.562	562.5	congruent	Block1	congruent/STIM_017.jpg	99
905.565	0.526	525.5	congruent	Block1	congruent/STIM_018.jpg	100
908.236	0.727	726.6	congruent	Block1	congruent/STIM_018.jpg	99
912.035	0.562	562.1	congruent	Block1	congruent/STIM_018.jpg	99
916.574	0.638	638.0	congruent	Block1	congruent/STIM_018.jpg	99
921.118	0.626	625.8	congruent	Block1	congruent/STIM_018.jpg	100
925.553	0.718	717.7	congruent	Block1	congruent/STIM_019.jpg	100
929.576	0.597	597.2	congruent	Block1	congruent/STIM_019.jpg	99
932.988	0.736	735.9	congruent	Block1	congruent/STIM_019.jpg	99
937.457	0.608	608.2	congruent	Block1	congruent/STIM_019.jpg	100
940.483	0.748	748.1	congruent	Block1	congruent/STIM_019.jpg	100
944.855	0.681	680.6	congruent	Block1	congruent/STIM_020.jpg	100
949.178	0.682	681.7	congruent	Block1	congruent/STIM_020.jpg	100
953.234	0.775	775.3	congruent	Block1	congruent/STIM_020.jpg	100
957.175	0.601	601.3	congruent	Block1	congruent/STIM_020.jpg	99
960.539	0.727	726.7	congruent	Block1	congruent/STIM_020.jpg	99
964.64	0.501	500.7	congruent	Block1	congruent/STIM_021.jpg	99
968.943	0.603	603.3	congruent	Block1	congruent/STIM_021.jpg	100
973.235	0.538	538.1	congruent	Block1	congruent/STIM_021.jpg	99
977.553	0.618	618.5	congruent	Block1	congruent/STIM_021.jpg	100
980.727	0.695	694.6	congruent	Block1	congruent/STIM_021.jpg	100
984.031	0.71	710.3	congruent	Block1	congruent/STIM_022.jpg	100
988.287	0.625	625.2	congruent	Block1	congruent/STIM_022.jpg	99
991.479	0.592	591.8	congruent	Block1	congruent/STIM_022.jpg	99
994.942	0.681	680.6	congruent	Block1	congruent/STIM_022.jpg	100
998.495	0.446	446.2	congruent	Block1	congruent/STIM_022.jpg	100
1000.95	0.717	716.9	congruent	Block1	congruent/STIM_023.jpg	99
1005.083	0.746	746.4	congruent	Block1	congruent/STIM_023.jpg	99
1009.459	0.676	676.3	congruent	Block1	congruent/STIM_023.jpg	100
1013.848	0.68	679.7	congruent	Block1	congruent/STIM_023.jpg	100
1017.658	0.607	607.1	congruent	Block1	congruent/STIM_023.jpg	100
1022.045	0.702	701.5	congruent	Block1	congruent/STIM_024.jpg	100
1026.447	0.717	717.4	congruent	Block1	congruent/STIM_024.jpg	99
1030.985	0.63	630.5	congruent	Block1	congruent/STIM_024.jpg	100
1034.351	0.559	558.8	congruent	Block1	congruent/STIM_024.jpg	99
1037.483	0.444	443.9	congruent	Block1	congruent/STIM_024.jpg	100
1040.901	0.592	591.8	congruent	Block1	congruent/STIM_025.jpg	100
1044.212	0.508	508.5	congruent	Block1	congruent/STIM_025.jpg	99
1047.27	0.546	546.2	congruent	Block1	congruent/STIM_025.jpg	100
1050.734	0.594	594.3	congruent	Block1	congruent/STIM_025.jpg	99
1054.332	0.54	539.5	congruent	Block1	congruent/STIM_025.jpg	99
1057.303	0.492	491.7	congruent	Block1	congruent/STIM_026.jpg	99
1060.982	0.682	682.4	congruent	Block1	congruent/STIM_026.jpg	99
1065.045	0.597	596.7	congruent	Block1	congruent/STIM_026.jpg	99
1068.571	0.685	685.2	congruent	Block1	congruent/STIM_026.jpg	100
1073.241	0.682	682.5	congruent	Block1	congruent/STIM_026.jpg	99
1076.0	0.76	759.8	congruent	Block1	congruent/STIM_027.jpg	100
1080.017	0.437	436.9	congruent	Block1	congruent/STIM_027.jpg	100
1083.016	0.673	673.2	congruent	Block1	congruent/STIM_027.jpg	100
1086.174	0.614	613.5	congruent	Block1	congruent/STIM_027.jpg	100
1090.527	0.757	756.7	congruent	Block1	congruent/STIM_027.jpg	99
1094.04	0.572	572.4	congruent	Block1	congruent/STIM_028.jpg	100
1098.03	0.718	718.5	congruent	Block1	congruent/STIM_028.jpg	99
1102.306	0.694	694.5	congruent	Block1	congruent/STIM_028.jpg	100
1105.785	0.536	536.3	congruent	Block1	congruent/STIM_028.jpg	99
1108.592	0.504	504.3	congruent	Block1	congruent/STIM_028.jpg	99
1112.935	0.775	774.7	congruent	Block1	congruent/STIM_029.jpg	100
1116.968	0.514	513.5	congruent	Block1	congruent/STIM_029.jpg	100
1120.497	0.614	613.9	congruent	Block1	congruent/STIM_029.jpg	100
1124.372	0.733	732.7	congruent	Block1	congruent/STIM_029.jpg	100
1128.735	0.553	552.7	congruent	Block1	congruent/STIM_029.jpg	99
1132.829	0.751	751.0	incongruent	Block2	incongruent/STIM_000.jpg	99
1137.205	0.58	580.4	incongruent	Block2	incongruent/STIM_000.jpg	100
1141.444	0.654	653.5	incongruent	Block2	incongruent/STIM_000.jpg	99
1145.883	0.562	561.9	incongruent	Block2	incongruent/STIM_000.jpg	100
1149.7	0.652	651.9	incongruent	Block2	incongruent/STIM_000.jpg	99
1152.838	0.653	653.4	incongruent	Block2	incongruent/STIM_001.jpg	99
1155.56	0.538	538.3	incongruent	Block2	incongruent/STIM_001.jpg	99
1159.787	0.906	906.3	incongruent	Block2	incongruent/STIM_001.jpg	99
1162.982	0.874	873.5	incongruent	Block2	incongruent/STIM_001.jpg	100
1167.79	0.586	585.8	incongruent	Block2	incongruent/STIM_001.jpg	100
1172.0	0.8	799.7	incongruent	Block2	incongruent/STIM_002.jpg	100
1176.199	0.611	610.7	incongruent	Block2	incongruent/STIM_002.jpg	99
1180.567	0.918	918.1	incongruent	Block2	incongruent/STIM_002.jpg	100
1185.092	0.895	894.8	incongruent	Block2	incongruent/STIM_002.jpg	99
1188.731	0.636	635.8	incongruent	Block2	incongruent/STIM_002.jpg	99
1191.521	1.077	1077.0	incongruent	Block2	incongruent/STIM_003.jpg	99
1195.087	0.932	932.1	incongruent	Block2	incongruent/STIM_003.jpg	100
1198.429	0.936	935.7	incongruent	Block2	incongruent/STIM_003.jpg	100
1202.375	0.608	607.9	incongruent	Block2	incongruent/STIM_003.jpg	100
1205.822	0.775	775.2	incongruent	Block2	incongruent/STIM_003.jpg	100
1209.282	0.932	932.0	incongruent	Block2	incongruent/STIM_004.jpg	99
1212.247	0.615	615.0	incongruent	Block2	incongruent/STIM_004.jpg	100
1216.089	0.899	899.4	incongruent	Block2	incongruent/STIM_004.jpg	99
1220.017	0.908	907.9	incongruent	Block2	incongruent/STIM_004.jpg	99
1223.85	0.48	479.8	incongruent	Block2	incongruent/STIM_004.jpg	99
1226.874	0.646	646.2	incongruent	Block2	incongruent/STIM_005.jpg	99
1229.526	0.571	571.0	incongruent	Block2	incongruent/STIM_005.jpg	99
1232.569	0.867	867.0	incongruent	Block2	incongruent/STIM_005.jpg	99
1236.666	0.453	452.6	incongruent	Block2	incongruent/STIM_005.jpg	99
1239.155	0.686	686.3	incongruent	Block2	incongruent/STIM_005.jpg	99
1242.677	0.606	605.6	incongruent	Block2	incongruent/STIM_006.jpg	99
1246.959	0.708	707.6	incongruent	Block2	incongruent/STIM_006.jpg	100
1251.183	0.628	627.7	incongruent	Block2	incongruent/STIM_006.jpg	100
1255.315	0.804	804.1	incongruent	Block2	incongruent/STIM_006.jpg	99
1259.442	0.702	702.5	incongruent	Block2	incongruent/STIM_006.jpg	100
1262.227	0.59	590.3	incongruent	Block2	incongruent/STIM_007.jpg	100
1266.154	0.896	896.1	incongruent	Block2	incongruent/STIM_007.jpg	100
1271.044	0.897	896.8	incongruent	Block2	incongruent/STIM_007.jpg	99
1275.379	0.576	575.5	incongruent	Block2	incongruent/STIM_007.jpg	100
1279.546	0.598	598.3	incongruent	Block2	incongruent/STIM_007.jpg	99
1282.999	0.719	719.2	incongruent	Block2	incongruent/STIM_008.jpg	100
1287.381	0.964	963.9	incongruent	Block2	incongruent/STIM_008.jpg	99
1292.195	0.526	526.5	incongruent	Block2	incongruent/STIM_008.jpg	100
1294.916	0.653	652.9	incongruent	Block2	incongruent/STIM_008.jpg	99
1299.409	0.831	831.4	incongruent	Block2	incongruent/STIM_008.jpg	100
1302.281	0.628	627.5	incongruent	Block2	incongruent/STIM_009.jpg	100
1305.061	0.696	695.5	incongruent	Block2	incongruent/STIM_009.jpg	100
1309.401	0.691	691.1	incongruent	Block2	incongruent/STIM_009.jpg	99
1314.001	0.697	696.8	incongruent	Block2	incongruent/STIM_009.jpg	100
1318.096	0.643	643.0	incongruent	Block2	incongruent/STIM_009.jpg	99
1321.161	0.657	657.0	incongruent	Block2	incongruent/STIM_010.jpg	99
1324.22	0.621	620.9	incongruent	Block2	incongruent/STIM_010.jpg	100
1327.832	0.837	837.3	incongruent	Block2	incongruent/STIM_010.jpg	100
1332.531	0.457	457.3	incongruent	Block2	incongruent/STIM_010.jpg	99
1335.63	0.617	617.2	incongruent	Block2	incongruent/STIM_010.jpg	99
1339.004	1.009	1008.8	incongruent	Block2	incongruent/STIM_011.jpg	100
1342.189	0.934	934.0	incongruent	Block2	incongruent/STIM_011.jpg	99
1345.885	0.858	857.6	incongruent	Block2	incongruent/STIM_011.jpg	99
1350.199	0.458	457.5	incongruent	Block2	incongruent/STIM_011.jpg	100
1353.927	0.796	796.2	incongruent	Block2	incongruent/STIM_011.jpg	99
1358.034	0.56	559.5	incongruent	Block2	incongruent/STIM_012.jpg	100
1361.261	0.871	870.8	incongruent	Block2	incongruent/STIM_012.jpg	99
1365.755	0.523	522.6	incongruent	Block2	incongruent/STIM_012.jpg	100
1370.091	0.856	855.7	incongruent	Block2	incongruent/STIM_012.jpg	99
1374.533	0.696	695.9	incongruent	Block2	incongruent/STIM_012.jpg	99
1378.563	1.016	1015.7	incongruent	Block2	incongruent/STIM_013.jpg	99
1382.459	0.64	640.0	incongruent	Block2	incongruent/STIM_013.jpg	100
1386.215	0.694	694.3	incongruent	Block2	incongruent/STIM_013.jpg	100
1389.301	0.456	455.6	incongruent	Block2	incongruent/STIM_013.jpg	100
1392.123	0.454	454.5	incongruent	Block2	incongruent/STIM_013.jpg	99
1395.016	0.777	777.2	incongruent	Block2	incongruent/STIM_014.jpg	99
1398.02	0.928	927.9	incongruent	Block2	incongruent/STIM_014.jpg	100
1402.37	0.784	784.1	incongruent	Block2	incongruent/STIM_014.jpg	99
1405.569	0.844	843.8	incongruent	Block2	incongruent/STIM_014.jpg	100
1409.042	0.739	739.3	incongruent	Block2	incongruent/STIM_014.jpg	99
1412.859	0.538	538.4	incongruent	Block2	incongruent/STIM_015.jpg	99
1417.075	0.921	920.9	incongruent	Block2	incongruent/STIM_015.jpg	100
1421.594	0.75	749.6	incongruent	Block2	incongruent/STIM_015.jpg	100
1424.482	0.642	642.1	incongruent	Block2	incongruent/STIM_015.jpg	100
1429.01	0.901	900.9	incongruent	Block2	incongruent/STIM_015.jpg	99
1432.785	0.818	818.2	incongruent	Block2	incongruent/STIM_016.jpg	100
1436.476	0.715	715.2	incongruent	Block2	incongruent/STIM_016.jpg	100
1440.691	0.525	524.8	incongruent	Block2	incongruent/STIM_016.jpg	99
1444.444	0.59	589.8	incongruent	Block2	incongruent/STIM_016.jpg	99
1447.627	0.719	719.0	incongruent	Block2	incongruent/STIM_016.jpg	99
1451.322	1.032	1032.2	incongruent	Block2	incongruent/STIM_017.jpg	99
1455.656	0.839	838.7	incongruent	Block2	incongruent/STIM_017.jpg	100
1459.298	0.754	753.6	incongruent	Block2	incongruent/STIM_017.jpg	100
1462.339	0.528	527.5	incongruent	Block2	incongruent/STIM_017.jpg	100
1466.124	0.436	435.8	incongruent	Block2	incongruent/STIM_017.jpg	100
1469.237	0.656	656.1	incongruent	Block2	incongruent/STIM_018.jpg	100
1473.75	0.76	759.9	incongruent	Block2	incongruent/STIM_018.jpg	100
1478.063	0.651	651.4	incongruent	Block2	incongruent/STIM_018.jpg	100
1482.567	0.444	444.1	incongruent	Block2	incongruent/STIM_018.jpg	100
1485.488	0.551	551.1	incongruent	Block2	incongruent/STIM_018.jpg	100
1488.223	0.871	871.0	incongruent	Block2	incongruent/STIM_019.jpg	99
1491.26	0.596	595.9	incongruent	Block2	incongruent/STIM_019.jpg	99
1494.23	0.798	797.9	incongruent	Block2	incongruent/STIM_019.jpg	100
1498.918	0.801	801.3	incongruent	Block2	incongruent/STIM_019.jpg	99
1502.411	0.907	906.9	incongruent	Block2	incongruent/STIM_019.jpg	99
1505.993	0.66	660.0	incongruent	Block2	incongruent/STIM_020.jpg	99
1508.734	0.576	575.7	incongruent	Block2	incongruent/STIM_020.jpg	99
1512.138	0.459	459.3	incongruent	Block2	incongruent/STIM_020.jpg	100
1515.301	0.892	892.0	incongruent	Block2	incongruent/STIM_020.jpg	99
1519.332	0.441	441.3	incongruent	Block2	incongruent/STIM_020.jpg	99
1523.291	0.748	748.4	incongruent	Block2	incongruent/STIM_021.jpg	99
1527.049	1.033	1033.0	incongruent	Block2	incongruent/STIM_021.jpg	100
1530.429	0.455	455.2	incongruent	Block2	incongruent/STIM_021.jpg	99
1532.938	0.734	733.9	incongruent	Block2	incongruent/STIM_021.jpg	100
1536.967	0.575	575.1	incongruent	Block2	incongruent/STIM_021.jpg	100
1540.731	0.544	543.9	incongruent	Block2	incongruent/STIM_022.jpg	100
1544.405	0.96	960.4	incongruent	Block2	incongruent/STIM_022.jpg	100
1548.75	0.88	879.5	incongruent	Block2	incongruent/STIM_022.jpg	100
1552.452	0.522	522.4	incongruent	Block2	incongruent/STIM_022.jpg	99
1555.79	0.854	853.8	incongruent	Block2	incongruent/STIM_022.jpg	100
1560.516	0.857	856.8	incongruent	Block2	incongruent/STIM_023.jpg	99
1565.327	0.644	644.1	incongruent	Block2	incongruent/STIM_023.jpg	100
1568.57	0.782	782.1	incongruent	Block2	incongruent/STIM_023.jpg	100
1572.003	0.511	510.6	incongruent	Block2	incongruent/STIM_023.jpg	100
1575.551	0.858	857.6	incongruent	Block2	incongruent/STIM_023.jpg	100
1579.0	0.583	583.0	incongruent	Block2	incongruent/STIM_024.jpg	99
1582.103	0.958	958.1	incongruent	Block2	incongruent/STIM_024.jpg	100
1586.257	0.728	727.8	incongruent	Block2	incongruent/STIM_024.jpg	99
1589.933	0.528	527.7	incongruent	Block2	incongruent/STIM_024.jpg	100
1593.575	0.578	577.9	incongruent	Block2	incongruent/STIM_024.jpg	100
1596.985	1.013	1013.1	incongruent	Block2	incongruent/STIM_025.jpg	100
1601.146	0.849	849.0	incongruent	Block2	incongruent/STIM_025.jpg	100
1605.609	0.876	875.7	incongruent	Block2	incongruent/STIM_025.jpg	100
1609.438	0.605	605.0	incongruent	Block2	incongruent/STIM_025.jpg	99
1613.779	0.633	632.8	incongruent	Block2	incongruent/STIM_025.jpg	99
1617.964	0.529	528.8	incongruent	Block2	incongruent/STIM_026.jpg	99
1621.758	0.634	633.9	incongruent	Block2	incongruent/STIM_026.jpg	99
1624.66	0.608	607.8	incongruent	Block2	incongruent/STIM_026.jpg	100
1628.28	0.806	806.0	incongruent	Block2	incongruent/STIM_026.jpg	99
1631.958	0.709	709.4	incongruent	Block2	incongruent/STIM_026.jpg	99
1635.442	0.688	687.6	incongruent	Block2	incongruent/STIM_027.jpg	100
1638.532	0.743	743.2	incongruent	Block2	incongruent/STIM_027.jpg	100
1641.279	0.734	734.4	incongruent	Block2	incongruent/STIM_027.jpg	100
1645.23	0.848	848.5	incongruent	Block2	incongruent/STIM_027.jpg	99
1648.603	0.868	867.9	incongruent	Block2	incongruent/STIM_027.jpg	100
1653.382	0.646	645.9	incongruent	Block2	incongruent/STIM_028.jpg	100
1657.693	0.791	790.6	incongruent	Block2	incongruent/STIM_028.jpg	100
1661.141	0.696	695.9	incongruent	Block2	incongruent/STIM_028.jpg	100
1664.761	0.785	785.4	incongruent	Block2	incongruent/STIM_028.jpg	99
1668.788	0.716	715.9	incongruent	Block2	incongruent/STIM_028.jpg	99
1672.463	0.933	932.8	incongruent	Block2	incongruent/STIM_029.jpg	99
1677.126	0.597	596.8	incongruent	Block2	incongruent/STIM_029.jpg	99
1679.734	0.832	831.5	incongruent	Block2	incongruent/STIM_029.jpg	100
1682.578	0.858	858.1	incongruent	Block2	incongruent/STIM_029.jpg	99
1686.864	0.584	584.4	incongruent	Block2	incongruent/STIM_029.jpg	100
1691.018	0.652	652.4	congruent	Block2	congruent/STIM_000.jpg	99
1695.047	0.602	602.0	congruent	Block2	congruent/STIM_000.jpg	99
1697.859	0.496	495.8	congruent	Block2	congruent/STIM_000.jpg	100
1700.807	0.463	463.0	congruent	Block2	congruent/STIM_000.jpg	100
1703.916	0.552	552.4	congruent	Block2	congruent/STIM_000.jpg	100
1708.264	0.439	439.3	congruent	Block2	congruent/STIM_001.jpg	100
1712.27	0.614	613.6	congruent	Block2	congruent/STIM_001.jpg	99
1716.519	0.49	489.5	congruent	Block2	congruent/STIM_001.jpg	100
1720.739	0.45	450.1	congruent	Block2	congruent/STIM_001.jpg	99
1724.18	0.742	741.9	congruent	Block2	congruent/STIM_001.jpg	99
1728.05	0.677	677.4	congruent	Block2	congruent/STIM_002.jpg	100
1731.965	0.622	622.1	congruent	Block2	congruent/STIM_002.jpg	100
1735.043	0.699	698.7	congruent	Block2	congruent/STIM_002.jpg	99
1739.42	0.702	701.9	congruent	Block2	congruent/STIM_002.jpg	100
1743.093	0.628	628.3	congruent	Block2	congruent/STIM_002.jpg	99
1746.715	0.519	519.3	congruent	Block2	congruent/STIM_003.jpg	99
1749.594	0.651	651.1	congruent	Block2	congruent/STIM_003.jpg	100
1753.207	0.441	440.7	congruent	Block2	congruent/STIM_003.jpg	100
1756.816	0.683	682.7	congruent	Block2	congruent/STIM_003.jpg	100
1761.116	0.444	443.8	congruent	Block2	congruent/STIM_003.jpg	100
1763.645	0.435	435.0	congruent	Block2	congruent/STIM_004.jpg	100
1766.84	0.718	718.4	congruent	Block2	congruent/STIM_004.jpg	99
1771.409	0.45	450.5	congruent	Block2	congruent/STIM_004.jpg	100
1774.491	0.766	766.4	congruent	Block2	congruent/STIM_004.jpg	100
1777.623	0.468	467.5	congruent	Block2	congruent/STIM_004.jpg	99
1781.296	0.52	520.5	congruent	Block2	congruent/STIM_005.jpg	99
1783.988	0.661	661.1	congruent	Block2	congruent/STIM_005.jpg	99
1788.64	0.551	550.8	congruent	Block2	congruent/STIM_005.jpg	99
1791.271	0.674	673.6	congruent	Block2	congruent/STIM_005.jpg	99
1795.774	0.61	610.1	congruent	Block2	congruent/STIM_005.jpg	99
1799.604	0.745	744.9	congruent	Block2	congruent/STIM_006.jpg	100
1803.804	0.674	674.0	congruent	Block2	congruent/STIM_006.jpg	99
1808.426	0.63	630.4	congruent	Block2	congruent/STIM_006.jpg	99
1811.091	0.698	698.0	congruent	Block2	congruent/STIM_006.jpg	99
1813.817	0.583	582.6	congruent	Block2	congruent/STIM_006.jpg	99
1817.968	0.73	729.8	congruent	Block2	congruent/STIM_007.jpg	100
1822.582	0.661	661.4	congruent	Block2	congruent/STIM_007.jpg	99
1826.238	0.526	526.0	congruent	Block2	congruent/STIM_007.jpg	99
1830.608	0.657	657.3	congruent	Block2	congruent/STIM_007.jpg	100
1834.583	0.48	480.5	congruent	Block2	congruent/STIM_007.jpg	100
1837.104	0.506	505.8	congruent	Block2	congruent/STIM_008.jpg	99
1840.747	0.522	521.7	congruent	Block2	congruent/STIM_008.jpg	99
1844.188	0.774	774.0	congruent	Block2	congruent/STIM_008.jpg	100
1847.492	0.65	649.5	congruent	Block2	congruent/STIM_008.jpg	100
1850.574	0.667	667.0	congruent	Block2	congruent/STIM_008.jpg	100
1853.932	0.571	571.1	congruent	Block2	congruent/STIM_009.jpg	100
1858.111	0.595	595.1	congruent	Block2	congruent/STIM_009.jpg	100
1861.463	0.498	498.3	congruent	Block2	congruent/STIM_009.jpg	99
1864.302	0.597	597.1	congruent	Block2	congruent/STIM_009.jpg	99
1868.727	0.541	540.6	congruent	Block2	congruent/STIM_009.jpg	99
1872.145	0.708	708.2	congruent	Block2	congruent/STIM_010.jpg	99
1875.669	0.481	480.7	congruent	Block2	congruent/STIM_010.jpg	99
1879.089	0.681	680.7	congruent	Block2	congruent/STIM_010.jpg	99
1883.143	0.525	524.6	congruent	Block2	congruent/STIM_010.jpg	99
1886.398	0.501	501.0	congruent	Block2	congruent/STIM_010.jpg	99
1890.682	0.611	610.9	congruent	Block2	congruent/STIM_011.jpg	99
1894.396	0.444	444.4	congruent	Block2	congruent/STIM_011.jpg	100
1897.888	0.523	522.7	congruent	Block2	congruent/STIM_011.jpg	100
1900.793	0.546	546.0	congruent	Block2	congruent/STIM_011.jpg	100
1904.835	0.595	595.0	congruent	Block2	congruent/STIM_011.jpg	99
1908.762	0.603	602.9	congruent	Block2	congruent/STIM_012.jpg	100
1913.284	0.583	583.3	congruent	Block2	congruent/STIM_012.jpg	100
1917.587	0.769	768.6	congruent	Block2	congruent/STIM_012.jpg	100
1921.636	0.749	749.2	congruent	Block2	congruent/STIM_012.jpg	100
1925.695	0.626	626.0	congruent	Block2	congruent/STIM_012.jpg	99
1929.814	0.689	689.3	congruent	Block2	congruent/STIM_013.jpg	100
1932.599	0.479	479.1	congruent	Block2	congruent/STIM_013.jpg	100
1936.359	0.603	603.0	congruent	Block2	congruent/STIM_013.jpg	100
1938.984	0.586	586.5	congruent	Block2	congruent/STIM_013.jpg	99
1943.496	0.663	663.4	congruent	Block2	congruent/STIM_013.jpg	100
1947.454	0.712	712.0	congruent	Block2	congruent/STIM_014.jpg	100
1951.701	0.662	661.8	congruent	Block2	congruent/STIM_014.jpg	99
1954.702	0.457	456.9	congruent	Block2	congruent/STIM_014.jpg	99
1958.69	0.517	517.0	congruent	Block2	congruent/STIM_014.jpg	100
1963.069	0.553	552.6	congruent	Block2	congruent/STIM_014.jpg	100
1966.847	0.508	507.7	congruent	Block2	congruent/STIM_015.jpg	100
1970.575	0.578	577.9	congruent	Block2	congruent/STIM_015.jpg	100
1973.99	0.566	566.0	congruent	Block2	congruent/STIM_015.jpg	100
1978.063	0.708	707.5	congruent	Block2	congruent/STIM_015.jpg	99
1982.762	0.761	760.8	congruent	Block2	congruent/STIM_015.jpg	99
1987.239	0.65	650.1	congruent	Block2	congruent/STIM_016.jpg	99
1990.971	0.5	500.3	congruent	Block2	congruent/STIM_016.jpg	99
1995.214	0.499	499.0	congruent	Block2	congruent/STIM_016.jpg	100
1999.502	0.472	472.1	congruent	Block2	congruent/STIM_016.jpg	99
2003.956	0.711	711.2	congruent	Block2	congruent/STIM_016.jpg	100
2008.437	0.52	520.4	congruent	Block2	congruent/STIM_017.jpg	99
2012.385	0.693	693.4	congruent	Block2	congruent/STIM_017.jpg	99
2016.34	0.773	772.7	congruent	Block2	congruent/STIM_017.jpg	99
2019.146	0.7	699.9	congruent	Block2	congruent/STIM_017.jpg	99
2023.41	0.445	445.4	congruent	Block2	congruent/STIM_017.jpg	99
2026.917	0.634	634.1	congruent	Block2	congruent/STIM_018.jpg	100
2030.124	0.698	697.9	congruent	Block2	congruent/STIM_018.jpg	100
2033.151	0.677	677.1	congruent	Block2	congruent/STIM_018.jpg	99
2037.116	0.479	479.1	congruent	Block2	congruent/STIM_018.jpg	99
2039.599	0.584	584.4	congruent	Block2	congruent/STIM_018.jpg	99
2042.448	0.568	568.3	congruent	Block2	congruent/STIM_019.jpg	99
2046.51	0.679	678.6	congruent	Block2	congruent/STIM_019.jpg	99
2050.554	0.771	771.4	congruent	Block2	congruent/STIM_019.jpg	99
2053.428	0.482	482.4	congruent	Block2	congruent/STIM_019.jpg	100
2056.451	0.73	729.9	congruent	Block2	congruent/STIM_019.jpg	100
2059.911	0.52	519.7	congruent	Block2	congruent/STIM_020.jpg	100
2064.066	0.562	562.2	congruent	Block2	congruent/STIM_020.jpg	100
2066.957	0.672	671.7	congruent	Block2	congruent/STIM_020.jpg	100
2069.977	0.756	755.5	congruent	Block2	congruent/STIM_020.jpg	99
2073.851	0.75	749.9	congruent	Block2	congruent/STIM_020.jpg	99
2077.68	0.767	767.4	congruent	Block2	congruent/STIM_021.jpg	100
2081.099	0.756	756.1	congruent	Block2	congruent/STIM_021.jpg	100
2085.211	0.531	531.1	congruent	Block2	congruent/STIM_021.jpg	99
2088.386	0.596	595.5	congruent	Block2	congruent/STIM_021.jpg	100
2091.173	0.542	542.2	congruent	Block2	congruent/STIM_021.jpg	100
2093.975	0.542	542.4	congruent	Block2	congruent/STIM_022.jpg	99
2098.407	0.66	660.2	congruent	Block2	congruent/STIM_022.jpg	99
2102.664	0.514	513.6	congruent	Block2	congruent/STIM_022.jpg	100
2106.798	0.47	470.2	congruent	Block2	congruent/STIM_022.jpg	100
2109.709	0.508	508.4	congruent	Block2	congruent/STIM_022.jpg	100
2113.214	0.571	571.1	congruent	Block2	congruent/STIM_023.jpg	100
2116.034	0.482	481.8	congruent	Block2	congruent/STIM_023.jpg	100
2119.984	0.614	614.5	congruent	Block2	congruent/STIM_023.jpg	99
2122.855	0.453	452.7	congruent	Block2	congruent/STIM_023.jpg	99
2126.746	0.524	524.0	congruent	Block2	congruent/STIM_023.jpg	100
2130.018	0.644	644.1	congruent	Block2	congruent/STIM_024.jpg	99
2132.862	0.714	714.3	congruent	Block2	congruent/STIM_024.jpg	99
2135.837	0.515	514.7	congruent	Block2	congruent/STIM_024.jpg	99
2140.008	0.594	594.3	congruent	Block2	congruent/STIM_024.jpg	100
2144.413	0.719	718.7	congruent	Block2	congruent/STIM_024.jpg	100
2147.739	0.745	745.0	congruent	Block2	congruent/STIM_025.jpg	100
2152.34	0.663	662.9	congruent	Block2	congruent/STIM_025.jpg	100
2155.613	0.775	774.7	congruent	Block2	congruent/STIM_025.jpg	100
2160.329	0.644	644.0	congruent	Block2	congruent/STIM_025.jpg	100
2164.146	0.558	558.5	congruent	Block2	congruent/STIM_025.jpg	99
2167.463	0.59	589.8	congruent	Block2	congruent/STIM_026.jpg	99
2170.956	0.537	537.3	congruent	Block2	congruent/STIM_026.jpg	100
2174.249	0.626	625.6	congruent	Block2	congruent/STIM_026.jpg	99
2178.562	0.513	513.3	congruent	Block2	congruent/STIM_026.jpg	100
2182.802	0.68	679.9	congruent	Block2	congruent/STIM_026.jpg	99
2187.446	0.712	712.4	congruent	Block2	congruent/STIM_027.jpg	100
2191.963	0.66	660.3	congruent	Block2	congruent/STIM_027.jpg	99
2195.07	0.648	648.4	congruent	Block2	congruent/STIM_027.jpg	100
2197.995	0.667	667.2	congruent	Block2	congruent/STIM_027.jpg	100
2201.223	0.559	558.8	congruent	Block2	congruent/STIM_027.jpg	99
2204.212	0.574	574.4	congruent	Block2	congruent/STIM_028.jpg	100
2207.786	0.464	464.4	congruent	Block2	congruent/STIM_028.jpg	99
2211.849	0.532	531.8	congruent	Block2	congruent/STIM_028.jpg	99
2214.414	0.728	727.9	congruent	Block2	congruent/STIM_028.jpg	99
2217.754	0.535	535.1	congruent	Block2	congruent/STIM_028.jpg	100
2220.776	0.615	615.4	congruent	Block2	congruent/STIM_029.jpg	100
2223.447	0.573	573.0	congruent	Block2	congruent/STIM_029.jpg	100
2226.439	0.492	491.9	congruent	Block2	congruent/STIM_029.jpg	99
2230.763	0.478	477.8	congruent	Block2	congruent/STIM_029.jpg	100
2233.68	0.667	666.7	congruent	Block2	congruent/STIM_029.jpg	99
2236.492	0.761	760.8	incongruent	Block3	incongruent/STIM_000.jpg	99
2241.216	0.708	708.3	incongruent	Block3	incongruent/STIM_000.jpg	99
2244.135	0.762	762.3	incongruent	Block3	incongruent/STIM_000.jpg	100
2248.885	0.707	706.7	incongruent	Block3	incongruent/STIM_000.jpg	100
2252.432	0.888	888.4	incongruent	Block3	incongruent/STIM_000.jpg	99
2257.056	0.718	718.4	incongruent	Block3	incongruent/STIM_001.jpg	100
2260.214	0.627	627.4	incongruent	Block3	incongruent/STIM_001.jpg	100
2264.651	0.497	497.3	incongruent	Block3	incongruent/STIM_001.jpg	99
2268.261	0.481	481.1	incongruent	Block3	incongruent/STIM_001.jpg	100
2271.705	0.608	608.0	incongruent	Block3	incongruent/STIM_001.jpg	100
2275.733	0.678	678.5	incongruent	Block3	incongruent/STIM_002.jpg	100
2278.848	0.823	822.7	incongruent	Block3	incongruent/STIM_002.jpg	100
2283.074	0.898	897.5	incongruent	Block3	incongruent/STIM_002.jpg	99
2286.174	0.759	759.4	incongruent	Block3	incongruent/STIM_002.jpg	99
2290.663	0.599	598.6	incongruent	Block3	incongruent/STIM_002.jpg	100
2293.451	0.492	491.6	incongruent	Block3	incongruent/STIM_003.jpg	99
2296.272	0.626	626.2	incongruent	Block3	incongruent/STIM_003.jpg	100
2299.944	0.476	475.8	incongruent	Block3	incongruent/STIM_003.jpg	99
2302.735	0.623	622.6	incongruent	Block3	incongruent/STIM_003.jpg	100
2307.308	0.425	425.2	incongruent	Block3	incongruent/STIM_003.jpg	100
2310.909	0.84	840.2	incongruent	Block3	incongruent/STIM_004.jpg	100
2315.222	0.522	522.5	incongruent	Block3	incongruent/STIM_004.jpg	100
2319.231	0.622	621.9	incongruent	Block3	incongruent/STIM_004.jpg	99
2323.377	0.614	614.5	incongruent	Block3	incongruent/STIM_004.jpg	100
2327.236	0.581	580.6	incongruent	Block3	incongruent/STIM_004.jpg	100
2329.828	0.894	893.9	incongruent	Block3	incongruent/STIM_005.jpg	100
2333.885	0.57	569.9	incongruent	Block3	incongruent/STIM_005.jpg	100
2337.246	0.637	637.1	incongruent	Block3	incongruent/STIM_005.jpg	100
2341.726	0.719	719.4	incongruent	Block3	incongruent/STIM_005.jpg	99
2344.472	0.611	611.1	incongruent	Block3	incongruent/STIM_005.jpg	99
2347.217	0.699	698.6	incongruent	Block3	incongruent/STIM_006.jpg	100
2350.862	0.58	579.7	incongruent	Block3	incongruent/STIM_006.jpg	100
2354.586	0.545	544.9	incongruent	Block3	incongruent/STIM_006.jpg	100
2358.083	0.784	783.9	incongruent	Block3	incongruent/STIM_006.jpg	99
2362.572	0.742	741.5	incongruent	Block3	incongruent/STIM_006.jpg	100
2365.715	0.456	455.8	incongruent	Block3	incongruent/STIM_007.jpg	99
2369.869	0.587	586.7	incongruent	Block3	incongruent/STIM_007.jpg	100
2373.527	0.719	718.9	incongruent	Block3	incongruent/STIM_007.jpg	100
2378.077	0.813	812.8	incongruent	Block3	incongruent/STIM_007.jpg	100
2382.703	0.748	748.2	incongruent	Block3	incongruent/STIM_007.jpg	99
2385.47	0.814	814.3	incongruent	Block3	incongruent/STIM_008.jpg	99
2388.316	0.572	572.0	incongruent	Block3	incongruent/STIM_008.jpg	100
2391.805	0.906	906.4	incongruent	Block3	incongruent/STIM_008.jpg	100
2395.574	0.848	848.3	incongruent	Block3	incongruent/STIM_008.jpg	99
2400.223	0.683	682.7	incongruent	Block3	incongruent/STIM_008.jpg	100
2404.204	0.803	803.4	incongruent	Block3	incongruent/STIM_009.jpg	100
2408.186	0.81	810.3	incongruent	Block3	incongruent/STIM_009.jpg	99
2412.31	0.537	536.9	incongruent	Block3	incongruent/STIM_009.jpg	100
2414.95	0.506	506.0	incongruent	Block3	incongruent/STIM_009.jpg	100
2418.082	0.845	844.9	incongruent	Block3	incongruent/STIM_009.jpg	100
2422.792	0.444	444.4	incongruent	Block3	incongruent/STIM_010.jpg	100
2426.998	0.771	771.2	incongruent	Block3	incongruent/STIM_010.jpg	99
2431.057	0.62	619.9	incongruent	Block3	incongruent/STIM_010.jpg	99
2435.366	0.843	843.4	incongruent	Block3	incongruent/STIM_010.jpg	100
2439.288	0.444	444.2	incongruent	Block3	incongruent/STIM_010.jpg	100
2443.457	0.861	861.2	incongruent	Block3	incongruent/STIM_011.jpg	100
2447.657	0.813	812.8	incongruent	Block3	incongruent/STIM_011.jpg	99
2450.978	0.649	649.0	incongruent	Block3	incongruent/STIM_011.jpg	99
2453.788	0.846	846.0	incongruent	Block3	incongruent/STIM_011.jpg	100
2457.364	0.497	497.4	incongruent	Block3	incongruent/STIM_011.jpg	100
2460.098	0.516	516.1	incongruent	Block3	incongruent/STIM_012.jpg	100
2464.433	0.616	615.9	incongruent	Block3	incongruent/STIM_012.jpg	100
2468.318	0.486	486.2	incongruent	Block3	incongruent/STIM_012.jpg	100
2471.598	0.513	512.6	incongruent	Block3	incongruent/STIM_012.jpg	100
2475.149	0.433	433.3	incongruent	Block3	incongruent/STIM_012.jpg	99
2479.034	0.747	747.4	incongruent	Block3	incongruent/STIM_013.jpg	99
2482.003	0.643	643.4	incongruent	Block3	incongruent/STIM_013.jpg	99
2484.878	0.579	578.7	incongruent	Block3	incongruent/STIM_013.jpg	99
2489.128	0.593	593.3	incongruent	Block3	incongruent/STIM_013.jpg	100
2491.774	0.901	900.9	incongruent	Block3	incongruent/STIM_013.jpg	99
2495.8	0.803	802.8	incongruent	Block3	incongruent/STIM_014.jpg	100
2500.255	0.562	562.2	incongruent	Block3	incongruent/STIM_014.jpg	100
2503.34	0.714	713.9	incongruent	Block3	incongruent/STIM_014.jpg	100
2507.188	0.638	637.5	incongruent	Block3	incongruent/STIM_014.jpg	100
2510.328	0.483	483.3	incongruent	Block3	incongruent/STIM_014.jpg	100
2513.585	0.563	563.0	incongruent	Block3	incongruent/STIM_015.jpg	99
2517.842	0.437	437.3	incongruent	Block3	incongruent/STIM_015.jpg	100
2520.836	0.767	767.2	incongruent	Block3	incongruent/STIM_015.jpg	99
2524.915	0.544	543.9	incongruent	Block3	incongruent/STIM_015.jpg	99
2528.098	0.786	786.3	incongruent	Block3	incongruent/STIM_015.jpg	100
2532.398	0.476	476.3	incongruent	Block3	incongruent/STIM_016.jpg	100
2536.582	0.824	824.5	incongruent	Block3	incongruent/STIM_016.jpg	100
2539.407	0.538	538.4	incongruent	Block3	incongruent/STIM_016.jpg	100
2542.611	0.849	849.2	incongruent	Block3	incongruent/STIM_016.jpg	100
2545.835	0.746	745.8	incongruent	Block3	incongruent/STIM_016.jpg	100
2549.767	0.551	551.0	incongruent	Block3	incongruent/STIM_017.jpg	100
2553.735	0.542	542.5	incongruent	Block3	incongruent/STIM_017.jpg	100
2556.715	0.73	729.8	incongruent	Block3	incongruent/STIM_017.jpg	99
2560.215	0.902	901.6	incongruent	Block3	incongruent/STIM_017.jpg	99
2563.83	0.666	665.7	incongruent	Block3	incongruent/STIM_017.jpg	100
2568.174	0.544	543.8	incongruent	Block3	incongruent/STIM_018.jpg	99
2572.091	0.879	878.6	incongruent	Block3	incongruent/STIM_018.jpg	99
2576.76	0.706	705.6	incongruent	Block3	incongruent/STIM_018.jpg	100
2580.276	0.817	817.4	incongruent	Block3	incongruent/STIM_018.jpg	100
2583.606	0.8	800.2	incongruent	Block3	incongruent/STIM_018.jpg	100
2586.72	0.568	568.0	incongruent	Block3	incongruent/STIM_019.jpg	100
2589.435	0.494	493.5	incongruent	Block3	incongruent/STIM_019.jpg	100
2592.083	0.791	790.8	incongruent	Block3	incongruent/STIM_019.jpg	99
2596.339	0.864	864.3	incongruent	Block3	incongruent/STIM_019.jpg	100
2599.647	0.722	721.9	incongruent	Block3	incongruent/STIM_019.jpg	99
2603.543	0.742	742.3	incongruent	Block3	incongruent/STIM_020.jpg	99
2608.082	0.84	840.1	incongruent	Block3	incongruent/STIM_020.jpg	100
2612.736	0.578	577.6	incongruent	Block3	incongruent/STIM_020.jpg	99
2616.779	0.846	845.5	incongruent	Block3	incongruent/STIM_020.jpg	100
2620.972	0.426	425.7	incongruent	Block3	incongruent/STIM_020.jpg	100
2624.521	0.604	604.4	incongruent	Block3	incongruent/STIM_021.jpg	100
2629.099	0.818	817.7	incongruent	Block3	incongruent/STIM_021.jpg	99
2632.759	0.575	574.6	incongruent	Block3	incongruent/STIM_021.jpg	99
2636.612	0.493	493.3	incongruent	Block3	incongruent/STIM_021.jpg	100
2640.521	0.584	584.3	incongruent	Block3	incongruent/STIM_021.jpg	99
2643.637	0.456	456.1	incongruent	Block3	incongruent/STIM_022.jpg	100
2647.085	0.738	737.6	incongruent	Block3	incongruent/STIM_022.jpg	100
2651.592	0.777	777.1	incongruent	Block3	incongruent/STIM_022.jpg	99
2655.532	0.591	591.4	incongruent	Block3	incongruent/STIM_022.jpg	100
2659.53	0.436	435.8	incongruent	Block3	incongruent/STIM_022.jpg	100
2662.399	0.504	503.7	incongruent	Block3	incongruent/STIM_023.jpg	100
2665.642	0.66	660.2	incongruent	Block3	incongruent/STIM_023.jpg	99
2669.934	0.488	487.5	incongruent	Block3	incongruent/STIM_023.jpg	99
2673.152	0.458	457.6	incongruent	Block3	incongruent/STIM_023.jpg	100
2676.034	0.514	513.5	incongruent	Block3	incongruent/STIM_023.jpg	99
2680.337	0.528	527.8	incongruent	Block3	incongruent/STIM_024.jpg	100
2684.594	0.436	436.5	incongruent	Block3	incongruent/STIM_024.jpg	99
2687.964	0.459	459.4	incongruent	Block3	incongruent/STIM_024.jpg	100
2691.646	0.426	425.6	incongruent	Block3	incongruent/STIM_024.jpg	99
2694.674	0.633	632.8	incongruent	Block3	incongruent/STIM_024.jpg	99
2697.821	0.69	690.5	incongruent	Block3	incongruent/STIM_025.jpg	99
2701.337	0.891	890.9	incongruent	Block3	incongruent/STIM_025.jpg	99
2705.647	0.507	507.3	incongruent	Block3	incongruent/STIM_025.jpg	99
2709.632	0.654	654.5	incongruent	Block3	incongruent/STIM_025.jpg	99
2712.828	0.768	768.5	incongruent	Block3	incongruent/STIM_025.jpg	99
2715.799	0.887	887.2	incongruent	Block3	incongruent/STIM_026.jpg	100
2719.488	0.578	577.9	incongruent	Block3	incongruent/STIM_026.jpg	99
2723.931	0.91	909.8	incongruent	Block3	incongruent/STIM_026.jpg	99
2728.161	0.712	712.3	incongruent	Block3	incongruent/STIM_026.jpg	100
2732.234	0.844	844.0	incongruent	Block3	incongruent/STIM_026.jpg	99
2735.765	0.699	699.1	incongruent	Block3	incongruent/STIM_027.jpg	100
2740.433	0.797	797.0	incongruent	Block3	incongruent/STIM_027.jpg	100
2744.701	0.449	448.9	incongruent	Block3	incongruent/STIM_027.jpg	100
2747.648	0.505	505.5	incongruent	Block3	incongruent/STIM_027.jpg	100
2750.956	0.698	697.9	incongruent	Block3	incongruent/STIM_027.jpg	100
2753.783	0.539	538.7	incongruent	Block3	incongruent/STIM_028.jpg	99
2757.276	0.869	868.6	incongruent	Block3	incongruent/STIM_028.jpg	100
2761.33	0.865	864.6	incongruent	Block3	incongruent/STIM_028.jpg	99
2765.598	0.862	861.5	incongruent	Block3	incongruent/STIM_028.jpg	100
2770.276	0.712	712.3	incongruent	Block3	incongruent/STIM_028.jpg	99
2774.792	0.692	692.4	incongruent	Block3	incongruent/STIM_029.jpg	99
2778.874	0.607	606.9	incongruent	Block3	incongruent/STIM_029.jpg	99
2782.116	0.461	461.0	incongruent	Block3	incongruent/STIM_029.jpg	100
2785.587	0.817	816.8	incongruent	Block3	incongruent/STIM_029.jpg	100
2789.051	0.829	829.0	incongruent	Block3	incongruent/STIM_029.jpg	99
2792.136	0.665	665.4	congruent	Block3	congruent/STIM_000.jpg	99
2795.345	0.686	685.9	congruent	Block3	congruent/STIM_000.jpg	100
2798.611	0.52	520.4	congruent	Block3	congruent/STIM_000.jpg	100
2803.022	0.736	735.6	congruent	Block3	congruent/STIM_000.jpg	100
2805.925	0.503	503.4	congruent	Block3	congruent/STIM_000.jpg	100
2808.697	0.622	622.1	congruent	Block3	congruent/STIM_001.jpg	99
2812.458	0.54	539.9	congruent	Block3	congruent/STIM_001.jpg	99
2815.61	0.456	456.3	congruent	Block3	congruent/STIM_001.jpg	100
2818.689	0.559	559.0	congruent	Block3	congruent/STIM_001.jpg	99
2822.665	0.77	770.1	congruent	Block3	congruent/STIM_001.jpg	99
2826.754	0.693	692.9	congruent	Block3	congruent/STIM_002.jpg	99
2830.838	0.736	736.1	congruent	Block3	congruent/STIM_002.jpg	100
2834.528	0.446	446.4	congruent	Block3	congruent/STIM_002.jpg	99
2838.219	0.68	680.4	congruent	Block3	congruent/STIM_002.jpg	100
2841.437	0.439	438.9	congruent	Block3	congruent/STIM_002.jpg	99
2845.369	0.511	511.5	congruent	Block3	congruent/STIM_003.jpg	100
2849.453	0.498	497.5	congruent	Block3	congruent/STIM_003.jpg	99
2852.991	0.665	665.1	congruent	Block3	congruent/STIM_003.jpg	100
2856.071	0.652	652.4	congruent	Block3	congruent/STIM_003.jpg	99
2860.212	0.706	706.0	congruent	Block3	congruent/STIM_003.jpg	100
2863.499	0.701	701.4	congruent	Block3	congruent/STIM_004.jpg	100
2867.921	0.453	452.6	congruent	Block3	congruent/STIM_004.jpg	100
2870.669	0.475	475.0	congruent	Block3	congruent/STIM_004.jpg	100
2874.359	0.59	590.2	congruent	Block3	congruent/STIM_004.jpg	99
2877.107	0.463	462.8	congruent	Block3	congruent/STIM_004.jpg	100
2879.909	0.566	566.1	congruent	Block3	congruent/STIM_005.jpg	99
2883.461	0.526	525.5	congruent	Block3	congruent/STIM_005.jpg	99
2887.087	0.72	720.4	congruent	Block3	congruent/STIM_005.jpg	99
2890.721	0.572	572.0	congruent	Block3	congruent/STIM_005.jpg	99
2894.273	0.697	697.1	congruent	Block3	congruent/STIM_005.jpg	99
2897.088	0.692	691.9	congruent	Block3	congruent/STIM_006.jpg	99
2901.254	0.56	560.4	congruent	Block3	congruent/STIM_006.jpg	100
2905.132	0.665	665.3	congruent	Block3	congruent/STIM_006.jpg	99
2909.772	0.755	755.1	congruent	Block3	congruent/STIM_006.jpg	100
2913.16	0.641	640.6	congruent	Block3	congruent/STIM_006.jpg	100
2916.563	0.492	491.5	congruent	Block3	congruent/STIM_007.jpg	100
2920.866	0.509	508.7	congruent	Block3	congruent/STIM_007.jpg	99
2923.773	0.55	550.0	congruent	Block3	congruent/STIM_007.jpg	99
2927.296	0.507	507.1	congruent	Block3	congruent/STIM_007.jpg	99
2931.569	0.777	776.8	congruent	Block3	congruent/STIM_007.jpg	99
2935.811	0.513	513.4	congruent	Block3	congruent/STIM_008.jpg	99
2938.922	0.654	653.6	congruent	Block3	congruent/STIM_008.jpg	100
2942.693	0.709	708.6	congruent	Block3	congruent/STIM_008.jpg	100
2945.981	0.606	605.6	congruent	Block3	congruent/STIM_008.jpg	99
2950.046	0.572	572.0	congruent	Block3	congruent/STIM_008.jpg	100
2953.834	0.563	563.4	congruent	Block3	congruent/STIM_009.jpg	99
2956.564	0.579	579.1	congruent	Block3	congruent/STIM_009.jpg	99
2959.381	0.738	737.7	congruent	Block3	congruent/STIM_009.jpg	100
2962.705	0.456	455.6	congruent	Block3	congruent/STIM_009.jpg	100
2966.258	0.631	631.1	congruent	Block3	congruent/STIM_009.jpg	99
2969.945	0.747	746.7	congruent	Block3	congruent/STIM_010.jpg	99
2972.916	0.76	759.5	congruent	Block3	congruent/STIM_010.jpg	100
2977.503	0.69	690.0	congruent	Block3	congruent/STIM_010.jpg	100
2980.346	0.531	530.9	congruent	Block3	congruent/STIM_010.jpg	99
2983.705	0.659	658.7	congruent	Block3	congruent/STIM_010.jpg	100
2987.38	0.706	706.5	congruent	Block3	congruent/STIM_011.jpg	100
2992.064	0.594	594.3	congruent	Block3	congruent/STIM_011.jpg	100
2995.29	0.743	743.1	congruent	Block3	congruent/STIM_011.jpg	100
2998.587	0.446	446.2	congruent	Block3	congruent/STIM_011.jpg	99
3002.469	0.779	779.3	congruent	Block3	congruent/STIM_011.jpg	99
3006.303	0.519	518.9	congruent	Block3	congruent/STIM_012.jpg	100
3009.922	0.736	735.6	congruent	Block3	congruent/STIM_012.jpg	100
3013.45	0.663	662.9	congruent	Block3	congruent/STIM_012.jpg	99
3017.596	0.623	622.9	congruent	Block3	congruent/STIM_012.jpg	100
3021.284	0.473	472.7	congruent	Block3	congruent/STIM_012.jpg	100
3024.641	0.622	621.8	congruent	Block3	congruent/STIM_013.jpg	100
3028.264	0.448	448.3	congruent	Block3	congruent/STIM_013.jpg	99
3031.278	0.515	515.4	congruent	Block3	congruent/STIM_013.jpg	100
3034.818	0.524	524.3	congruent	Block3	congruent/STIM_013.jpg	100
3038.605	0.452	451.5	congruent	Block3	congruent/STIM_013.jpg	99
3042.186	0.451	450.8	congruent	Block3	congruent/STIM_014.jpg	100
3046.078	0.562	561.6	congruent	Block3	congruent/STIM_014.jpg	99
3050.005	0.718	718.2	congruent	Block3	congruent/STIM_014.jpg	99
3053.771	0.678	678.2	congruent	Block3	congruent/STIM_014.jpg	99
3056.721	0.475	474.8	congruent	Block3	congruent/STIM_014.jpg	100
3059.775	0.754	753.8	congruent	Block3	congruent/STIM_015.jpg	100
3063.421	0.72	719.8	congruent	Block3	congruent/STIM_015.jpg	100
3066.724	0.642	641.7	congruent	Block3	congruent/STIM_015.jpg	99
3070.02	0.547	547.4	congruent	Block3	congruent/STIM_015.jpg	99
3074.479	0.569	569.3	congruent	Block3	congruent/STIM_015.jpg	100
3078.922	0.643	642.8	congruent	Block3	congruent/STIM_016.jpg	99
3082.409	0.719	719.1	congruent	Block3	congruent/STIM_016.jpg	99
3085.585	0.674	674.0	congruent	Block3	congruent/STIM_016.jpg	100
3089.735	0.637	637.4	congruent	Block3	congruent/STIM_016.jpg	100
3092.739	0.558	558.4	congruent	Block3	congruent/STIM_016.jpg	99
3095.614	0.775	775.0	congruent	Block3	congruent/STIM_017.jpg	100
3099.289	0.636	635.9	congruent	Block3	congruent/STIM_017.jpg	99
3103.267	0.444	443.8	congruent	Block3	congruent/STIM_017.jpg	100
3106.211	0.492	492.2	congruent	Block3	congruent/STIM_017.jpg	99
3110.323	0.727	727.4	congruent	Block3	congruent/STIM_017.jpg	100
3113.422	0.458	458.1	congruent	Block3	congruent/STIM_018.jpg	100
3116.233	0.728	727.5	congruent	Block3	congruent/STIM_018.jpg	99
3120.661	0.694	694.0	congruent	Block3	congruent/STIM_018.jpg	99
3124.062	0.526	525.7	congruent	Block3	congruent/STIM_018.jpg	100
3127.608	0.75	750.4	congruent	Block3	congruent/STIM_018.jpg	100
3131.374	0.463	462.8	congruent	Block3	congruent/STIM_019.jpg	99
3133.847	0.556	556.4	congruent	Block3	congruent/STIM_019.jpg	100
3137.138	0.696	695.8	congruent	Block3	congruent/STIM_019.jpg	100
3139.894	0.499	499.1	congruent	Block3	congruent/STIM_019.jpg	100
3143.122	0.687	686.6	congruent	Block3	congruent/STIM_019.jpg	99
3146.276	0.667	667.1	congruent	Block3	congruent/STIM_020.jpg	99
3149.648	0.656	655.5	congruent	Block3	congruent/STIM_020.jpg	100
3152.469	0.452	452.3	congruent	Block3	congruent/STIM_020.jpg	99
3155.629	0.627	626.7	congruent	Block3	congruent/STIM_020.jpg	99
3158.286	0.538	538.3	congruent	Block3	congruent/STIM_020.jpg	100
3161.184	0.694	694.0	congruent	Block3	congruent/STIM_021.jpg	100
3164.79	0.762	761.6	congruent	Block3	congruent/STIM_021.jpg	99
3169.321	0.437	436.8	congruent	Block3	congruent/STIM_021.jpg	99
3173.751	0.464	464.2	congruent	Block3	congruent/STIM_021.jpg	99
3176.933	0.488	488.5	congruent	Block3	congruent/STIM_021.jpg	100
3180.922	0.462	462.5	congruent	Block3	congruent/STIM_022.jpg	100
3185.122	0.703	703.1	congruent	Block3	congruent/STIM_022.jpg	99
3188.572	0.535	534.8	congruent	Block3	congruent/STIM_022.jpg	100
3191.631	0.6	599.8	congruent	Block3	congruent/STIM_022.jpg	99
3194.605	0.542	541.6	congruent	Block3	congruent/STIM_022.jpg	99
3198.722	0.533	533.3	congruent	Block3	congruent/STIM_023.jpg	100
3202.599	0.723	723.4	congruent	Block3	congruent/STIM_023.jpg	100
3207.112	0.544	544.3	congruent	Block3	congruent/STIM_023.jpg	100
3209.783	0.568	568.0	congruent	Block3	congruent/STIM_023.jpg	100
3213.61	0.577	576.7	congruent	Block3	congruent/STIM_023.jpg	99
3216.253	0.596	596.1	congruent	Block3	congruent/STIM_024.jpg	99
3219.825	0.631	630.7	congruent	Block3	congruent/STIM_024.jpg	99
3223.576	0.442	441.9	congruent	Block3	congruent/STIM_024.jpg	100
3227.991	0.608	608.5	congruent	Block3	congruent/STIM_024.jpg	100
3232.06	0.5	500.4	congruent	Block3	congruent/STIM_024.jpg	100
3235.313	0.678	677.6	congruent	Block3	congruent/STIM_025.jpg	99
3238.296	0.506	505.7	congruent	Block3	congruent/STIM_025.jpg	99
3240.821	0.611	610.8	congruent	Block3	congruent/STIM_025.jpg	100
3244.734	0.446	445.8	congruent	Block3	congruent/STIM_025.jpg	99
3248.15	0.759	759.1	congruent	Block3	congruent/STIM_025.jpg	99
3251.971	0.725	725.3	congruent	Block3	congruent/STIM_026.jpg	100
3255.759	0.511	510.8	congruent	Block3	congruent/STIM_026.jpg	100
3259.405	0.567	566.7	congruent	Block3	congruent/STIM_026.jpg	99
3263.118	0.684	684.2	congruent	Block3	congruent/STIM_026.jpg	100
3267.67	0.539	538.6	congruent	Block3	congruent/STIM_026.jpg	99
3270.637	0.49	489.9	congruent	Block3	congruent/STIM_027.jpg	100
3274.307	0.524	524.2	congruent	Block3	congruent/STIM_027.jpg	99
3278.3	0.543	543.2	congruent	Block3	congruent/STIM_027.jpg	99
3282.763	0.7	699.6	congruent	Block3	congruent/STIM_027.jpg	100
3286.482	0.434	434.3	congruent	Block3	congruent/STIM_027.jpg	99
3289.086	0.574	574.1	congruent	Block3	congruent/STIM_028.jpg	99
3292.181	0.484	483.8	congruent	Block3	congruent/STIM_028.jpg	99
3295.271	0.599	598.9	congruent	Block3	congruent/STIM_028.jpg	100
3299.388	0.697	696.7	congruent	Block3	congruent/STIM_028.jpg	99
3302.356	0.497	497.1	congruent	Block3	congruent/STIM_028.jpg	100
3306.447	0.442	442.1	congruent	Block3	congruent/STIM_029.jpg	99
3309.736	0.512	511.8	congruent	Block3	congruent/STIM_029.jpg	99
3313.707	0.48	480.4	congruent	Block3	congruent/STIM_029.jpg	100
3317.983	0.742	742.3	congruent	Block3	congruent/STIM_029.jpg	100
3322.3	0.507	506.7	congruent	Block3	congruent/STIM_029.jpg	100
