onset	duration	accuracy_binary	trial_type	learning_stage	stimulus
0.0	0.654	1	incongruent	Block1	incongruent/STIM_000.jpg
3.587	0.622	0	incongruent	Block1	incongruent/STIM_000.jpg
7.39	1.145	0	incongruent	Block1	incongruent/STIM_000.jpg
12.317	1.084	0	incongruent	Block1	incongruent/STIM_000.jpg
17.239	0.562	1	incongruent	Block1	incongruent/STIM_000.jpg
20.431	1.171	0	incongruent	Block1	incongruent/STIM_001.jpg
25.184	0.88	1	incongruent	Block1	incongruent/STIM_001.jpg
28.246	0.952	1	incongruent	Block1	incongruent/STIM_001.jpg
32.206	1.032	0	incongruent	Block1	incongruent/STIM_001.jpg
36.243	0.548	1	incongruent	Block1	incongruent/STIM_001.jpg
40.234	0.793	0	incongruent	Block1	incongruent/STIM_002.jpg
44.402	0.863	1	incongruent	Block1	incongruent/STIM_002.jpg
48.284	0.845	0	incongruent	Block1	incongruent/STIM_002.jpg
52.431	0.818	1	incongruent	Block1	incongruent/STIM_002.jpg
56.052	0.726	0	incongruent	Block1	incongruent/STIM_002.jpg
60.06	0.794	1	incongruent	Block1	incongruent/STIM_003.jpg
63.316	0.954	0	incongruent	Block1	incongruent/STIM_003.jpg
67.72	0.974	0	incongruent	Block1	incongruent/STIM_003.jpg
72.278	0.595	0	incongruent	Block1	incongruent/STIM_003.jpg
75.374	0.959	1	incongruent	Block1	incongruent/STIM_003.jpg
79.048	0.965	1	incongruent	Block1	incongruent/STIM_004.jpg
82.205	0.779	1	incongruent	Block1	incongruent/STIM_004.jpg
85.61	0.692	0	incongruent	Block1	incongruent/STIM_004.jpg
90.172	0.642	1	incongruent	Block1	incongruent/STIM_004.jpg
93.176	0.802	0	incongruent	Block1	incongruent/STIM_004.jpg
96.985	0.959	1	incongruent	Block1	incongruent/STIM_005.jpg
100.281	0.585	1	incongruent	Block1	incongruent/STIM_005.jpg
103.007	0.913	1	incongruent	Block1	incongruent/STIM_005.jpg
106.323	1.028	1	incongruent	Block1	incongruent/STIM_005.jpg
110.412	0.51	1	incongruent	Block1	incongruent/STIM_005.jpg
113.048	0.758	0	incongruent	Block1	incongruent/STIM_006.jpg
117.373	1.116	0	incongruent	Block1	incongruent/STIM_006.jpg
120.687	0.826	0	incongruent	Block1	incongruent/STIM_006.jpg
125.324	0.546	0	incongruent	Block1	incongruent/STIM_006.jpg
128.861	0.87	0	incongruent	Block1	incongruent/STIM_006.jpg
132.648	1.176	1	incongruent	Block1	incongruent/STIM_007.jpg
136.054	0.831	1	incongruent	Block1	incongruent/STIM_007.jpg
140.309	0.598	1	incongruent	Block1	incongruent/STIM_007.jpg
144.849	0.595	1	incongruent	Block1	incongruent/STIM_007.jpg
148.217	1.029	1	incongruent	Block1	incongruent/STIM_007.jpg
152.862	1.021	1	incongruent	Block1	incongruent/STIM_008.jpg
156.147	0.765	0	incongruent	Block1	incongruent/STIM_008.jpg
159.061	1.112	0	incongruent	Block1	incongruent/STIM_008.jpg
163.299	0.923	0	incongruent	Block1	incongruent/STIM_008.jpg
168.048	0.515	1	incongruent	Block1	incongruent/STIM_008.jpg
171.747	0.841	1	incongruent	Block1	incongruent/STIM_009.jpg
175.811	0.599	1	incongruent	Block1	incongruent/STIM_009.jpg
179.788	0.794	0	incongruent	Block1	incongruent/STIM_009.jpg
183.641	0.759	0	incongruent	Block1	incongruent/STIM_009.jpg
188.132	0.75	0	incongruent	Block1	incongruent/STIM_009.jpg
190.97	0.654	1	incongruent	Block1	incongruent/STIM_010.jpg
194.538	1.127	1	incongruent	Block1	incongruent/STIM_010.jpg
198.9	1.025	1	incongruent	Block1	incongruent/STIM_010.jpg
202.468	1.016	1	incongruent	Block1	incongruent/STIM_010.jpg
206.93	0.574	1	incongruent	Block1	incongruent/STIM_010.jpg
209.753	1.13	1	incongruent	Block1	incongruent/STIM_011.jpg
214.346	0.892	1	incongruent	Block1	incongruent/STIM_011.jpg
217.67	1.118	0	incongruent	Block1	incongruent/STIM_011.jpg
221.613	0.611	0	incongruent	Block1	incongruent/STIM_011.jpg
225.912	0.865	1	incongruent	Block1	incongruent/STIM_011.jpg
229.221	0.94	1	incongruent	Block1	incongruent/STIM_012.jpg
233.847	1.032	0	incongruent	Block1	incongruent/STIM_012.jpg
237.124	0.562	0	incongruent	Block1	incongruent/STIM_012.jpg
240.974	0.795	1	incongruent	Block1	incongruent/STIM_012.jpg
244.151	0.663	1	incongruent	Block1	incongruent/STIM_012.jpg
248.257	1.072	0	incongruent	Block1	incongruent/STIM_013.jpg
251.654	0.697	1	incongruent	Block1	incongruent/STIM_013.jpg
254.603	0.645	0	incongruent	Block1	incongruent/STIM_013.jpg
257.79	1.039	0	incongruent	Block1	incongruent/STIM_013.jpg
262.548	0.683	1	incongruent	Block1	incongruent/STIM_013.jpg
265.698	0.963	1	incongruent	Block1	incongruent/STIM_014.jpg
269.918	0.667	1	incongruent	Block1	incongruent/STIM_014.jpg
273.771	0.784	0	incongruent	Block1	incongruent/STIM_014.jpg
276.881	0.774	1	incongruent	Block1	incongruent/STIM_014.jpg
279.964	0.968	1	incongruent	Block1	incongruent/STIM_014.jpg
283.966	1.114	1	incongruent	Block1	incongruent/STIM_015.jpg
288.653	0.746	0	incongruent	Block1	incongruent/STIM_015.jpg
292.26	1.044	1	incongruent	Block1	incongruent/STIM_015.jpg
297.001	1.094	0	incongruent	Block1	incongruent/STIM_015.jpg
301.691	0.81	1	incongruent	Block1	incongruent/STIM_015.jpg
304.752	1.282	1	incongruent	Block1	incongruent/STIM_016.jpg
308.539	1.096	1	incongruent	Block1	incongruent/STIM_016.jpg
312.32	1.061	1	incongruent	Block1	incongruent/STIM_016.jpg
317.316	0.525	1	incongruent	Block1	incongruent/STIM_016.jpg
321.435	0.754	1	incongruent	Block1	incongruent/STIM_016.jpg
325.567	0.826	1	incongruent	Block1	incongruent/STIM_017.jpg
329.566	0.639	1	incongruent	Block1	incongruent/STIM_017.jpg
333.21	1.069	1	incongruent	Block1	incongruent/STIM_017.jpg
336.733	0.751	1	incongruent	Block1	incongruent/STIM_017.jpg
341.336	0.68	1	incongruent	Block1	incongruent/STIM_017.jpg
345.354	0.666	1	incongruent	Block1	incongruent/STIM_018.jpg
348.219	0.902	0	incongruent	Block1	incongruent/STIM_018.jpg
352.273	0.812	0	incongruent	Block1	incongruent/STIM_018.jpg
355.889	0.614	0	incongruent	Block1	incongruent/STIM_018.jpg
360.151	0.802	1	incongruent	Block1	incongruent/STIM_018.jpg
364.463	1.153	0	incongruent	Block1	incongruent/STIM_019.jpg
369.346	1.152	1	incongruent	Block1	incongruent/STIM_019.jpg
373.083	1.034	1	incongruent	Block1	incongruent/STIM_019.jpg
377.869	0.697	0	incongruent	Block1	incongruent/STIM_019.jpg
381.262	0.61	1	incongruent	Block1	incongruent/STIM_019.jpg
385.1	1.027	1	incongruent	Block1	incongruent/STIM_020.jpg
388.129	1.038	1	incongruent	Block1	incongruent/STIM_020.jpg
391.296	0.576	1	incongruent	Block1	incongruent/STIM_020.jpg
394.136	1.036	1	incongruent	Block1	incongruent/STIM_020.jpg
397.569	0.98	1	incongruent	Block1	incongruent/STIM_020.jpg
401.787	0.797	1	incongruent	Block1	incongruent/STIM_021.jpg
405.478	1.047	1	incongruent	Block1	incongruent/STIM_021.jpg
408.774	0.846	1	incongruent	Block1	incongruent/STIM_021.jpg
412.438	0.716	1	incongruent	Block1	incongruent/STIM_021.jpg
416.828	0.517	1	incongruent	Block1	incongruent/STIM_021.jpg
419.933	0.78	1	incongruent	Block1	incongruent/STIM_022.jpg
424.3	1.018	0	incongruent	Block1	incongruent/STIM_022.jpg
427.445	0.693	0	incongruent	Block1	incongruent/STIM_022.jpg
430.915	0.664	1	incongruent	Block1	incongruent/STIM_022.jpg
435.069	0.883	0	incongruent	Block1	incongruent/STIM_022.jpg
438.491	0.773	1	incongruent	Block1	incongruent/STIM_023.jpg
442.473	0.739	1	incongruent	Block1	incongruent/STIM_023.jpg
446.75	0.636	1	incongruent	Block1	incongruent/STIM_023.jpg
450.576	0.563	0	incongruent	Block1	incongruent/STIM_023.jpg
454.004	0.687	1	incongruent	Block1	incongruent/STIM_023.jpg
457.93	1.082	0	incongruent	Block1	incongruent/STIM_024.jpg
462.908	0.718	0	incongruent	Block1	incongruent/STIM_024.jpg
466.707	0.75	1	incongruent	Block1	incongruent/STIM_024.jpg
469.633	0.709	1	incongruent	Block1	incongruent/STIM_024.jpg
473.797	1.027	0	incongruent	Block1	incongruent/STIM_024.jpg
476.852	1.216	0	incongruent	Block1	incongruent/STIM_025.jpg
481.391	0.992	0	incongruent	Block1	incongruent/STIM_025.jpg
485.238	0.664	1	incongruent	Block1	incongruent/STIM_025.jpg
489.815	1.035	1	incongruent	Block1	incongruent/STIM_025.jpg
494.737	0.782	1	incongruent	Block1	incongruent/STIM_025.jpg
498.356	0.772	0	incongruent	Block1	incongruent/STIM_026.jpg
502.037	0.763	1	incongruent	Block1	incongruent/STIM_026.jpg
505.202	0.577	0	incongruent	Block1	incongruent/STIM_026.jpg
508.561	0.75	1	incongruent	Block1	incongruent/STIM_026.jpg
512.842	0.96	1	incongruent	Block1	incongruent/STIM_026.jpg
517.389	0.689	0	incongruent	Block1	incongruent/STIM_027.jpg
521.24	1.234	1	incongruent	Block1	incongruent/STIM_027.jpg
524.975	1.008	1	incongruent	Block1	incongruent/STIM_027.jpg
529.157	0.589	0	incongruent	Block1	incongruent/STIM_027.jpg
533.193	0.865	1	incongruent	Block1	incongruent/STIM_027.jpg
537.525	0.769	1	incongruent	Block1	incongruent/STIM_028.jpg
540.587	0.682	1	incongruent	Block1	incongruent/STIM_028.jpg
543.343	1.167	0	incongruent	Block1	incongruent/STIM_028.jpg
548.43	0.887	1	incongruent	Block1	incongruent/STIM_028.jpg
552.741	0.821	1	incongruent	Block1	incongruent/STIM_028.jpg
555.696	1.0	0	incongruent	Block1	incongruent/STIM_029.jpg
560.206	0.59	0	incongruent	Block1	incongruent/STIM_029.jpg
563.607	1.119	1	incongruent	Block1	incongruent/STIM_029.jpg
568.138	0.74	1	incongruent	Block1	incongruent/STIM_029.jpg
571.688	0.784	1	incongruent	Block1	incongruent/STIM_029.jpg
575.927	0.692	1	congruent	Block1	congruent/STIM_000.jpg
580.599	0.74	0	congruent	Block1	congruent/STIM_000.jpg
583.542	0.656	1	congruent	Block1	congruent/STIM_000.jpg
587.084	0.471	0	congruent	Block1	congruent/STIM_000.jpg
590.608	0.772	1	congruent	Block1	congruent/STIM_000.jpg
595.336	0.509	0	congruent	Block1	congruent/STIM_001.jpg
599.771	0.615	1	congruent	Block1	congruent/STIM_001.jpg
603.545	0.691	1	congruent	Block1	congruent/STIM_001.jpg
606.477	0.495	1	congruent	Block1	congruent/STIM_001.jpg
609.703	0.478	1	congruent	Block1	congruent/STIM_001.jpg
612.435	0.509	0	congruent	Block1	congruent/STIM_002.jpg
615.627	0.684	0	congruent	Block1	congruent/STIM_002.jpg
619.518	0.497	1	congruent	Block1	congruent/STIM_002.jpg
623.646	0.676	1	congruent	Block1	congruent/STIM_002.jpg
627.296	0.668	1	congruent	Block1	congruent/STIM_002.jpg
631.713	0.448	1	congruent	Block1	congruent/STIM_003.jpg
635.032	0.762	1	congruent	Block1	congruent/STIM_003.jpg
639.344	0.634	0	congruent	Block1	congruent/STIM_003.jpg
643.78	0.75	1	congruent	Block1	congruent/STIM_003.jpg
646.836	0.712	1	congruent	Block1	congruent/STIM_003.jpg
649.913	0.643	0	congruent	Block1	congruent/STIM_004.jpg
653.938	0.522	1	congruent	Block1	congruent/STIM_004.jpg
657.488	0.596	1	congruent	Block1	congruent/STIM_004.jpg
661.779	0.741	1	congruent	Block1	congruent/STIM_004.jpg
665.787	0.46	0	congruent	Block1	congruent/STIM_004.jpg
668.302	0.712	1	congruent	Block1	congruent/STIM_005.jpg
671.945	0.644	1	congruent	Block1	congruent/STIM_005.jpg
675.099	0.674	1	congruent	Block1	congruent/STIM_005.jpg
679.516	0.558	1	congruent	Block1	congruent/STIM_005.jpg
683.385	0.658	0	congruent	Block1	congruent/STIM_005.jpg
687.072	0.478	0	congruent	Block1	congruent/STIM_006.jpg
689.718	0.625	1	congruent	Block1	congruent/STIM_006.jpg
693.459	0.531	1	congruent	Block1	congruent/STIM_006.jpg
697.772	0.68	1	congruent	Block1	congruent/STIM_006.jpg
701.906	0.666	1	congruent	Block1	congruent/STIM_006.jpg
706.076	0.619	1	congruent	Block1	congruent/STIM_007.jpg
709.41	0.668	1	congruent	Block1	congruent/STIM_007.jpg
713.786	0.721	1	congruent	Block1	congruent/STIM_007.jpg
717.109	0.574	0	congruent	Block1	congruent/STIM_007.jpg
720.589	0.635	0	congruent	Block1	congruent/STIM_007.jpg
724.721	0.545	0	congruent	Block1	congruent/STIM_008.jpg
727.92	0.444	1	congruent	Block1	congruent/STIM_008.jpg
731.757	0.504	0	congruent	Block1	congruent/STIM_008.jpg
735.989	0.54	1	congruent	Block1	congruent/STIM_008.jpg
739.804	0.502	1	congruent	Block1	congruent/STIM_008.jpg
742.663	0.525	1	congruent	Block1	congruent/STIM_009.jpg
746.942	0.694	1	congruent	Block1	congruent/STIM_009.jpg
750.926	0.686	0	congruent	Block1	congruent/STIM_009.jpg
755.298	0.454	0	congruent	Block1	congruent/STIM_009.jpg
758.71	0.724	1	congruent	Block1	congruent/STIM_009.jpg
762.637	0.607	0	congruent	Block1	congruent/STIM_010.jpg
766.848	0.61	0	congruent	Block1	congruent/STIM_010.jpg
770.057	0.751	1	congruent	Block1	congruent/STIM_010.jpg
774.152	0.733	1	congruent	Block1	congruent/STIM_010.jpg
776.98	0.477	0	congruent	Block1	congruent/STIM_010.jpg
781.211	0.573	1	congruent	Block1	congruent/STIM_011.jpg
784.665	0.719	1	congruent	Block1	congruent/STIM_011.jpg
787.475	0.611	1	congruent	Block1	congruent/STIM_011.jpg
791.935	0.454	1	congruent	Block1	congruent/STIM_011.jpg
796.246	0.504	1	congruent	Block1	congruent/STIM_011.jpg
800.11	0.536	1	congruent	Block1	congruent/STIM_012.jpg
803.874	0.527	0	congruent	Block1	congruent/STIM_012.jpg
807.063	0.508	1	congruent	Block1	congruent/STIM_012.jpg
811.55	0.569	1	congruent	Block1	congruent/STIM_012.jpg
815.371	0.586	0	congruent	Block1	congruent/STIM_012.jpg
818.45	0.722	1	congruent	Block1	congruent/STIM_013.jpg
822.657	0.593	0	congruent	Block1	congruent/STIM_013.jpg
825.675	0.669	0	congruent	Block1	congruent/STIM_013.jpg
828.938	0.461	1	congruent	Block1	congruent/STIM_013.jpg
831.49	0.573	0	congruent	Block1	congruent/STIM_013.jpg
835.122	0.741	0	congruent	Block1	congruent/STIM_014.jpg
839.713	0.465	1	congruent	Block1	congruent/STIM_014.jpg
843.1	0.47	0	congruent	Block1	congruent/STIM_014.jpg
845.666	0.515	1	congruent	Block1	congruent/STIM_014.jpg
848.562	0.563	0	congruent	Block1	congruent/STIM_014.jpg
851.357	0.772	0	congruent	Block1	congruent/STIM_015.jpg
854.266	0.592	1	congruent	Block1	congruent/STIM_015.jpg
858.292	0.535	1	congruent	Block1	congruent/STIM_015.jpg
862.003	0.436	1	congruent	Block1	congruent/STIM_015.jpg
865.686	0.542	1	congruent	Block1	congruent/STIM_015.jpg
870.031	0.735	0	congruent	Block1	congruent/STIM_016.jpg
873.359	0.661	1	congruent	Block1	congruent/STIM_016.jpg
876.056	0.702	1	congruent	Block1	congruent/STIM_016.jpg
880.48	0.644	1	congruent	Block1	congruent/STIM_016.jpg
883.348	0.532	1	congruent	Block1	congruent/STIM_016.jpg
887.51	0.446	1	congruent	Block1	congruent/STIM_017.jpg
891.127	0.652	1	congruent	Block1	congruent/STIM_017.jpg
894.94	0.615	1	congruent	Block1	congruent/STIM_017.jpg
898.028	0.654	1	congruent	Block1	congruent/STIM_017.jpg
902.516	0.562	1	congruent	Block1	congruent/STIM_017.jpg
905.565	0.526	1	congruent	Block1	congruent/STIM_018.jpg
908.236	0.727	1	congruent	Block1	congruent/STIM_018.jpg
912.035	0.562	1	congruent	Block1	congruent/STIM_018.jpg
916.574	0.638	1	congruent	Block1	congruent/STIM_018.jpg
921.118	0.626	0	congruent	Block1	congruent/STIM_018.jpg
925.553	0.718	0	congruent	Block1	congruent/STIM_019.jpg
929.576	0.597	1	congruent	Block1	congruent/STIM_019.jpg
932.988	0.736	1	congruent	Block1	congruent/STIM_019.jpg
937.457	0.608	1	congruent	Block1	congruent/STIM_019.jpg
940.483	0.748	1	congruent	Block1	congruent/STIM_019.jpg
944.855	0.681	1	congruent	Block1	congruent/STIM_020.jpg
949.178	0.682	1	congruent	Block1	congruent/STIM_020.jpg
953.234	0.775	1	congruent	Block1	congruent/STIM_020.jpg
957.175	0.601	1	congruent	Block1	congruent/STIM_020.jpg
960.539	0.727	1	congruent	Block1	congruent/STIM_020.jpg
964.64	0.501	1	congruent	Block1	congruent/STIM_021.jpg
968.943	0.603	1	congruent	Block1	congruent/STIM_021.jpg
973.235	0.538	0	congruent	Block1	congruent/STIM_021.jpg
977.553	0.618	1	congruent	Block1	congruent/STIM_021.jpg
980.727	0.695	1	congruent	Block1	congruent/STIM_021.jpg
984.031	0.71	1	congruent	Block1	congruent/STIM_022.jpg
988.287	0.625	0	congruent	Block1	congruent/STIM_022.jpg
991.479	0.592	0	congruent	Block1	congruent/STIM_022.jpg
994.942	0.681	1	congruent	Block1	congruent/STIM_022.jpg
998.495	0.446	1	congruent	Block1	congruent/STIM_022.jpg
1000.95	0.717	0	congruent	Block1	congruent/STIM_023.jpg
1005.083	0.746	1	congruent	Block1	congruent/STIM_023.jpg
1009.459	0.676	1	congruent	Block1	congruent/STIM_023.jpg
1013.848	0.68	1	congruent	Block1	congruent/STIM_023.jpg
1017.658	0.607	0	congruent	Block1	congruent/STIM_023.jpg
1022.045	0.702	1	congruent	Block1	congruent/STIM_024.jpg
1026.447	0.717	1	congruent	Block1	congruent/STIM_024.jpg
1030.985	0.63	1	congruent	Block1	congruent/STIM_024.jpg
1034.351	0.559	1	congruent	Block1	congruent/STIM_024.jpg
1037.483	0.444	0	congruent	Block1	congruent/STIM_024.jpg
1040.901	0.592	1	congruent	Block1	congruent/STIM_025.jpg
1044.212	0.508	0	congruent	Block1	congruent/STIM_025.jpg
1047.27	0.546	1	congruent	Block1	congruent/STIM_025.jpg
1050.734	0.594	1	congruent	Block1	congruent/STIM_025.jpg
1054.332	0.54	0	congruent	Block1	congruent/STIM_025.jpg
1057.303	0.492	1	congruent	Block1	congruent/STIM_026.jpg
1060.982	0.682	1	congruent	Block1	congruent/STIM_026.jpg
1065.045	0.597	1	congruent	Block1	congruent/STIM_026.jpg
1068.571	0.685	1	congruent	Block1	congruent/STIM_026.jpg
1073.241	0.682	1	congruent	Block1	congruent/STIM_026.jpg
1076.0	0.76	0	congruent	Block1	congruent/STIM_027.jpg
1080.017	0.437	0	congruent	Block1	congruent/STIM_027.jpg
1083.016	0.673	1	congruent	Block1	congruent/STIM_027.jpg
1086.174	0.614	1	congruent	Block1	congruent/STIM_027.jpg
1090.527	0.757	0	congruent	Block1	congruent/STIM_027.jpg
1094.04	0.572	1	congruent	Block1	congruent/STIM_028.jpg
1098.03	0.718	1	congruent	Block1	congruent/STIM_028.jpg
1102.306	0.694	1	congruent	Block1	congruent/STIM_028.jpg
1105.785	0.536	1	congruent	Block1	congruent/STIM_028.jpg
1108.592	0.504	1	congruent	Block1	congruent/STIM_028.jpg
1112.935	0.775	1	congruent	Block1	congruent/STIM_029.jpg
1116.968	0.514	0	congruent	Block1	congruent/STIM_029.jpg
1120.497	0.614	0	congruent	Block1	congruent/STIM_029.jpg
1124.372	0.733	0	congruent	Block1	congruent/STIM_029.jpg
1128.735	0.553	1	congruent	Block1	congruent/STIM_029.jpg
1132.829	0.751	1	incongruent	Block2	incongruent/STIM_000.jpg
1137.205	0.58	1	incongruent	Block2	incongruent/STIM_000.jpg
1141.444	0.654	1	incongruent	Block2	incongruent/STIM_000.jpg
1145.883	0.562	0	incongruent	Block2	incongruent/STIM_000.jpg
1149.7	0.652	1	incongruent	Block2	incongruent/STIM_000.jpg
1152.838	0.653	1	incongruent	Block2	incongruent/STIM_001.jpg
1155.56	0.538	1	incongruent	Block2	incongruent/STIM_001.jpg
1159.787	0.906	1	incongruent	Block2	incongruent/STIM_001.jpg
1162.982	0.874	1	incongruent	Block2	incongruent/STIM_001.jpg
1167.79	0.586	0	incongruent	Block2	incongruent/STIM_001.jpg
1172.0	0.8	1	incongruent	Block2	incongruent/STIM_002.jpg
1176.199	0.611	1	incongruent	Block2	incongruent/STIM_002.jpg
1180.567	0.918	1	incongruent	Block2	incongruent/STIM_002.jpg
1185.092	0.895	1	incongruent	Block2	incongruent/STIM_002.jpg
1188.731	0.636	1	incongruent	Block2	incongruent/STIM_002.jpg
1191.521	1.077	1	incongruent	Block2	incongruent/STIM_003.jpg
1195.087	0.932	1	incongruent	Block2	incongruent/STIM_003.jpg
1198.429	0.936	1	incongruent	Block2	incongruent/STIM_003.jpg
1202.375	0.608	1	incongruent	Block2	incongruent/STIM_003.jpg
1205.822	0.775	1	incongruent	Block2	incongruent/STIM_003.jpg
1209.282	0.932	1	incongruent	Block2	incongruent/STIM_004.jpg
1212.247	0.615	1	incongruent	Block2	incongruent/STIM_004.jpg
1216.089	0.899	0	incongruent	Block2	incongruent/STIM_004.jpg
1220.017	0.908	0	incongruent	Block2	incongruent/STIM_004.jpg
1223.85	0.48	1	incongruent	Block2	incongruent/STIM_004.jpg
1226.874	0.646	0	incongruent	Block2	incongruent/STIM_005.jpg
1229.526	0.571	1	incongruent	Block2	incongruent/STIM_005.jpg
1232.569	0.867	0	incongruent	Block2	incongruent/STIM_005.jpg
1236.666	0.453	1	incongruent	Block2	incongruent/STIM_005.jpg
1239.155	0.686	1	incongruent	Block2	incongruent/STIM_005.jpg
1242.677	0.606	1	incongruent	Block2	incongruent/STIM_006.jpg
1246.959	0.708	0	incongruent	Block2	incongruent/STIM_006.jpg
1251.183	0.628	1	incongruent	Block2	incongruent/STIM_006.jpg
1255.315	0.804	0	incongruent	Block2	incongruent/STIM_006.jpg
1259.442	0.702	1	incongruent	Block2	incongruent/STIM_006.jpg
1262.227	0.59	1	incongruent	Block2	incongruent/STIM_007.jpg
1266.154	0.896	1	incongruent	Block2	incongruent/STIM_007.jpg
1271.044	0.897	1	incongruent	Block2	incongruent/STIM_007.jpg
1275.379	0.576	1	incongruent	Block2	incongruent/STIM_007.jpg
1279.546	0.598	1	incongruent	Block2	incongruent/STIM_007.jpg
1282.999	0.719	1	incongruent	Block2	incongruent/STIM_008.jpg
1287.381	0.964	1	incongruent	Block2	incongruent/STIM_008.jpg
1292.195	0.526	0	incongruent	Block2	incongruent/STIM_008.jpg
1294.916	0.653	0	incongruent	Block2	incongruent/STIM_008.jpg
1299.409	0.831	0	incongruent	Block2	incongruent/STIM_008.jpg
1302.281	0.628	0	incongruent	Block2	incongruent/STIM_009.jpg
1305.061	0.696	1	incongruent	Block2	incongruent/STIM_009.jpg
1309.401	0.691	1	incongruent	Block2	incongruent/STIM_009.jpg
1314.001	0.697	1	incongruent	Block2	incongruent/STIM_009.jpg
1318.096	0.643	1	incongruent	Block2	incongruent/STIM_009.jpg
1321.161	0.657	0	incongruent	Block2	incongruent/STIM_010.jpg
1324.22	0.621	1	incongruent	Block2	incongruent/STIM_010.jpg
1327.832	0.837	0	incongruent	Block2	incongruent/STIM_010.jpg
1332.531	0.457	1	incongruent	Block2	incongruent/STIM_010.jpg
1335.63	0.617	0	incongruent	Block2	incongruent/STIM_010.jpg
1339.004	1.009	1	incongruent	Block2	incongruent/STIM_011.jpg
1342.189	0.934	1	incongruent	Block2	incongruent/STIM_011.jpg
1345.885	0.858	0	incongruent	Block2	incongruent/STIM_011.jpg
1350.199	0.458	1	incongruent	Block2	incongruent/STIM_011.jpg
1353.927	0.796	1	incongruent	Block2	incongruent/STIM_011.jpg
1358.034	0.56	0	incongruent	Block2	incongruent/STIM_012.jpg
1361.261	0.871	1	incongruent	Block2	incongruent/STIM_012.jpg
1365.755	0.523	1	incongruent	Block2	incongruent/STIM_012.jpg
1370.091	0.856	1	incongruent	Block2	incongruent/STIM_012.jpg
1374.533	0.696	1	incongruent	Block2	incongruent/STIM_012.jpg
1378.563	1.016	1	incongruent	Block2	incongruent/STIM_013.jpg
1382.459	0.64	1	incongruent	Block2	incongruent/STIM_013.jpg
1386.215	0.694	1	incongruent	Block2	incongruent/STIM_013.jpg
1389.301	0.456	0	incongruent	Block2	incongruent/STIM_013.jpg
1392.123	0.454	1	incongruent	Block2	incongruent/STIM_013.jpg
1395.016	0.777	0	incongruent	Block2	incongruent/STIM_014.jpg
1398.02	0.928	1	incongruent	Block2	incongruent/STIM_014.jpg
1402.37	0.784	1	incongruent	Block2	incongruent/STIM_014.jpg
1405.569	0.844	1	incongruent	Block2	incongruent/STIM_014.jpg
1409.042	0.739	0	incongruent	Block2	incongruent/STIM_014.jpg
1412.859	0.538	0	incongruent	Block2	incongruent/STIM_015.jpg
1417.075	0.921	0	incongruent	Block2	incongruent/STIM_015.jpg
1421.594	0.75	1	incongruent	Block2	incongruent/STIM_015.jpg
1424.482	0.642	1	incongruent	Block2	incongruent/STIM_015.jpg
1429.01	0.901	0	incongruent	Block2	incongruent/STIM_015.jpg
1432.785	0.818	1	incongruent	Block2	incongruent/STIM_016.jpg
1436.476	0.715	1	incongruent	Block2	incongruent/STIM_016.jpg
1440.691	0.525	0	incongruent	Block2	incongruent/STIM_016.jpg
1444.444	0.59	1	incongruent	Block2	incongruent/STIM_016.jpg
1447.627	0.719	1	incongruent	Block2	incongruent/STIM_016.jpg
1451.322	1.032	1	incongruent	Block2	incongruent/STIM_017.jpg
1455.656	0.839	1	incongruent	Block2	incongruent/STIM_017.jpg
1459.298	0.754	1	incongruent	Block2	incongruent/STIM_017.jpg
1462.339	0.528	0	incongruent	Block2	incongruent/STIM_017.jpg
1466.124	0.436	1	incongruent	Block2	incongruent/STIM_017.jpg
1469.237	0.656	1	incongruent	Block2	incongruent/STIM_018.jpg
1473.75	0.76	1	incongruent	Block2	incongruent/STIM_018.jpg
1478.063	0.651	0	incongruent	Block2	incongruent/STIM_018.jpg
1482.567	0.444	0	incongruent	Block2	incongruent/STIM_018.jpg
1485.488	0.551	1	incongruent	Block2	incongruent/STIM_018.jpg
1488.223	0.871	1	incongruent	Block2	incongruent/STIM_019.jpg
1491.26	0.596	0	incongruent	Block2	incongruent/STIM_019.jpg
1494.23	0.798	0	incongruent	Block2	incongruent/STIM_019.jpg
1498.918	0.801	1	incongruent	Block2	incongruent/STIM_019.jpg
1502.411	0.907	1	incongruent	Block2	incongruent/STIM_019.jpg
1505.993	0.66	1	incongruent	Block2	incongruent/STIM_020.jpg
1508.734	0.576	0	incongruent	Block2	incongruent/STIM_020.jpg
1512.138	0.459	1	incongruent	Block2	incongruent/STIM_020.jpg
1515.301	0.892	1	incongruent	Block2	incongruent/STIM_020.jpg
1519.332	0.441	1	incongruent	Block2	incongruent/STIM_020.jpg
1523.291	0.748	1	incongruent	Block2	incongruent/STIM_021.jpg
1527.049	1.033	0	incongruent	Block2	incongruent/STIM_021.jpg
1530.429	0.455	1	incongruent	Block2	incongruent/STIM_021.jpg
1532.938	0.734	1	incongruent	Block2	incongruent/STIM_021.jpg
1536.967	0.575	1	incongruent	Block2	incongruent/STIM_021.jpg
1540.731	0.544	0	incongruent	Block2	incongruent/STIM_022.jpg
1544.405	0.96	0	incongruent	Block2	incongruent/STIM_022.jpg
1548.75	0.88	1	incongruent	Block2	incongruent/STIM_022.jpg
1552.452	0.522	1	incongruent	Block2	incongruent/STIM_022.jpg
1555.79	0.854	1	incongruent	Block2	incongruent/STIM_022.jpg
1560.516	0.857	1	incongruent	Block2	incongruent/STIM_023.jpg
1565.327	0.644	1	incongruent	Block2	incongruent/STIM_023.jpg
1568.57	0.782	1	incongruent	Block2	incongruent/STIM_023.jpg
1572.003	0.511	0	incongruent	Block2	incongruent/STIM_023.jpg
1575.551	0.858	1	incongruent	Block2	incongruent/STIM_023.jpg
1579.0	0.583	0	incongruent	Block2	incongruent/STIM_024.jpg
1582.103	0.958	1	incongruent	Block2	incongruent/STIM_024.jpg
1586.257	0.728	1	incongruent	Block2	incongruent/STIM_024.jpg
1589.933	0.528	1	incongruent	Block2	incongruent/STIM_024.jpg
1593.575	0.578	1	incongruent	Block2	incongruent/STIM_024.jpg
1596.985	1.013	0	incongruent	Block2	incongruent/STIM_025.jpg
1601.146	0.849	0	incongruent	Block2	incongruent/STIM_025.jpg
1605.609	0.876	0	incongruent	Block2	incongruent/STIM_025.jpg
1609.438	0.605	1	incongruent	Block2	incongruent/STIM_025.jpg
1613.779	0.633	1	incongruent	Block2	incongruent/STIM_025.jpg
1617.964	0.529	1	incongruent	Block2	incongruent/STIM_026.jpg
1621.758	0.634	1	incongruent	Block2	incongruent/STIM_026.jpg
1624.66	0.608	1	incongruent	Block2	incongruent/STIM_026.jpg
1628.28	0.806	1	incongruent	Block2	incongruent/STIM_026.jpg
1631.958	0.709	1	incongruent	Block2	incongruent/STIM_026.jpg
1635.442	0.688	1	incongruent	Block2	incongruent/STIM_027.jpg
1638.532	0.743	0	incongruent	Block2	incongruent/STIM_027.jpg
1641.279	0.734	0	incongruent	Block2	incongruent/STIM_027.jpg
1645.23	0.848	0	incongruent	Block2	incongruent/STIM_027.jpg
1648.603	0.868	0	incongruent	Block2	incongruent/STIM_027.jpg
1653.382	0.646	1	incongruent	Block2	incongruent/STIM_028.jpg
1657.693	0.791	0	incongruent	Block2	incongruent/STIM_028.jpg
1661.141	0.696	0	incongruent	Block2	incongruent/STIM_028.jpg
1664.761	0.785	1	incongruent	Block2	incongruent/STIM_028.jpg
1668.788	0.716	1	incongruent	Block2	incongruent/STIM_028.jpg
1672.463	0.933	1	incongruent	Block2	incongruent/STIM_029.jpg
1677.126	0.597	1	incongruent	Block2	incongruent/STIM_029.jpg
1679.734	0.832	1	incongruent	Block2	incongruent/STIM_029.jpg
1682.578	0.858	1	incongruent	Block2	incongruent/STIM_029.jpg
1686.864	0.584	1	incongruent	Block2	incongruent/STIM_029.jpg
1691.018	0.652	1	congruent	Block2	congruent/STIM_000.jpg
1695.047	0.602	1	congruent	Block2	congruent/STIM_000.jpg
1697.859	0.496	1	congruent	Block2	congruent/STIM_000.jpg
1700.807	0.463	1	congruent	Block2	congruent/STIM_000.jpg
1703.916	0.552	1	congruent	Block2	congruent/STIM_000.jpg
1708.264	0.439	1	congruent	Block2	congruent/STIM_001.jpg
1712.27	0.614	1	congruent	Block2	congruent/STIM_001.jpg
1716.519	0.49	1	congruent	Block2	congruent/STIM_001.jpg
1720.739	0.45	1	congruent	Block2	congruent/STIM_001.jpg
1724.18	0.742	1	congruent	Block2	congruent/STIM_001.jpg
1728.05	0.677	1	congruent	Block2	congruent/STIM_002.jpg
1731.965	0.622	1	congruent	Block2	congruent/STIM_002.jpg
1735.043	0.699	1	congruent	Block2	congruent/STIM_002.jpg
1739.42	0.702	1	congruent	Block2	congruent/STIM_002.jpg
1743.093	0.628	1	congruent	Block2	congruent/STIM_002.jpg
1746.715	0.519	1	congruent	Block2	congruent/STIM_003.jpg
1749.594	0.651	1	congruent	Block2	congruent/STIM_003.jpg
1753.207	0.441	1	congruent	Block2	congruent/STIM_003.jpg
1756.816	0.683	1	congruent	Block2	congruent/STIM_003.jpg
1761.116	0.444	1	congruent	Block2	congruent/STIM_003.jpg
1763.645	0.435	1	congruent	Block2	congruent/STIM_004.jpg
1766.84	0.718	1	congruent	Block2	congruent/STIM_004.jpg
1771.409	0.45	1	congruent	Block2	congruent/STIM_004.jpg
1774.491	0.766	0	congruent	Block2	congruent/STIM_004.jpg
1777.623	0.468	1	congruent	Block2	congruent/STIM_004.jpg
1781.296	0.52	1	congruent	Block2	congruent/STIM_005.jpg
1783.988	0.661	1	congruent	Block2	congruent/STIM_005.jpg
1788.64	0.551	0	congruent	Block2	congruent/STIM_005.jpg
1791.271	0.674	1	congruent	Block2	congruent/STIM_005.jpg
1795.774	0.61	1	congruent	Block2	congruent/STIM_005.jpg
1799.604	0.745	1	congruent	Block2	congruent/STIM_006.jpg
1803.804	0.674	1	congruent	Block2	congruent/STIM_006.jpg
1808.426	0.63	0	congruent	Block2	congruent/STIM_006.jpg
1811.091	0.698	0	congruent	Block2	congruent/STIM_006.jpg
1813.817	0.583	1	congruent	Block2	congruent/STIM_006.jpg
1817.968	0.73	1	congruent	Block2	congruent/STIM_007.jpg
1822.582	0.661	1	congruent	Block2	congruent/STIM_007.jpg
1826.238	0.526	1	congruent	Block2	congruent/STIM_007.jpg
1830.608	0.657	0	congruent	Block2	congruent/STIM_007.jpg
1834.583	0.48	1	congruent	Block2	congruent/STIM_007.jpg
1837.104	0.506	0	congruent	Block2	congruent/STIM_008.jpg
1840.747	0.522	1	congruent	Block2	congruent/STIM_008.jpg
1844.188	0.774	1	congruent	Block2	congruent/STIM_008.jpg
1847.492	0.65	1	congruent	Block2	congruent/STIM_008.jpg
1850.574	0.667	0	congruent	Block2	congruent/STIM_008.jpg
1853.932	0.571	0	congruent	Block2	congruent/STIM_009.jpg
1858.111	0.595	1	congruent	Block2	congruent/STIM_009.jpg
1861.463	0.498	0	congruent	Block2	congruent/STIM_009.jpg
1864.302	0.597	0	congruent	Block2	congruent/STIM_009.jpg
1868.727	0.541	1	congruent	Block2	congruent/STIM_009.jpg
1872.145	0.708	0	congruent	Block2	congruent/STIM_010.jpg
1875.669	0.481	0	congruent	Block2	congruent/STIM_010.jpg
1879.089	0.681	0	congruent	Block2	congruent/STIM_010.jpg
1883.143	0.525	1	congruent	Block2	congruent/STIM_010.jpg
1886.398	0.501	1	congruent	Block2	congruent/STIM_010.jpg
1890.682	0.611	0	congruent	Block2	congruent/STIM_011.jpg
1894.396	0.444	1	congruent	Block2	congruent/STIM_011.jpg
1897.888	0.523	1	congruent	Block2	congruent/STIM_011.jpg
1900.793	0.546	1	congruent	Block2	congruent/STIM_011.jpg
1904.835	0.595	1	congruent	Block2	congruent/STIM_011.jpg
1908.762	0.603	0	congruent	Block2	congruent/STIM_012.jpg
1913.284	0.583	0	congruent	Block2	congruent/STIM_012.jpg
1917.587	0.769	1	congruent	Block2	congruent/STIM_012.jpg
1921.636	0.749	0	congruent	Block2	congruent/STIM_012.jpg
1925.695	0.626	1	congruent	Block2	congruent/STIM_012.jpg
1929.814	0.689	1	congruent	Block2	congruent/STIM_013.jpg
1932.599	0.479	1	congruent	Block2	congruent/STIM_013.jpg
1936.359	0.603	1	congruent	Block2	congruent/STIM_013.jpg
1938.984	0.586	0	congruent	Block2	congruent/STIM_013.jpg
1943.496	0.663	0	congruent	Block2	congruent/STIM_013.jpg
1947.454	0.712	1	congruent	Block2	congruent/STIM_014.jpg
1951.701	0.662	1	congruent	Block2	congruent/STIM_014.jpg
1954.702	0.457	1	congruent	Block2	congruent/STIM_014.jpg
1958.69	0.517	1	congruent	Block2	congruent/STIM_014.jpg
1963.069	0.553	1	congruent	Block2	congruent/STIM_014.jpg
1966.847	0.508	1	congruent	Block2	congruent/STIM_015.jpg
1970.575	0.578	1	congruent	Block2	congruent/STIM_015.jpg
1973.99	0.566	1	congruent	Block2	congruent/STIM_015.jpg
1978.063	0.708	1	congruent	Block2	congruent/STIM_015.jpg
1982.762	0.761	1	congruent	Block2	congruent/STIM_015.jpg
1987.239	0.65	0	congruent	Block2	congruent/STIM_016.jpg
1990.971	0.5	0	congruent	Block2	congruent/STIM_016.jpg
1995.214	0.499	1	congruent	Block2	congruent/STIM_016.jpg
1999.502	0.472	1	congruent	Block2	congruent/STIM_016.jpg
2003.956	0.711	0	congruent	Block2	congruent/STIM_016.jpg
2008.437	0.52	0	congruent	Block2	congruent/STIM_017.jpg
2012.385	0.693	1	congruent	Block2	congruent/STIM_017.jpg
2016.34	0.773	0	congruent	Block2	congruent/STIM_017.jpg
2019.146	0.7	0	congruent	Block2	congruent/STIM_017.jpg
2023.41	0.445	0	congruent	Block2	congruent/STIM_017.jpg
2026.917	0.634	1	congruent	Block2	congruent/STIM_018.jpg
2030.124	0.698	1	congruent	Block2	congruent/STIM_018.jpg
2033.151	0.677	1	congruent	Block2	congruent/STIM_018.jpg
2037.116	0.479	1	congruent	Block2	congruent/STIM_018.jpg
2039.599	0.584	1	congruent	Block2	congruent/STIM_018.jpg
2042.448	0.568	1	congruent	Block2	congruent/STIM_019.jpg
2046.51	0.679	1	congruent	Block2	congruent/STIM_019.jpg
2050.554	0.771	1	congruent	Block2	congruent/STIM_019.jpg
2053.428	0.482	1	congruent	Block2	congruent/STIM_019.jpg
2056.451	0.73	1	congruent	Block2	congruent/STIM_019.jpg
2059.911	0.52	0	congruent	Block2	congruent/STIM_020.jpg
2064.066	0.562	1	congruent	Block2	congruent/STIM_020.jpg
2066.957	0.672	1	congruent	Block2	congruent/STIM_020.jpg
2069.977	0.756	1	congruent	Block2	congruent/STIM_020.jpg
2073.851	0.75	1	congruent	Block2	congruent/STIM_020.jpg
2077.68	0.767	0	congruent	Block2	congruent/STIM_021.jpg
2081.099	0.756	1	congruent	Block2	congruent/STIM_021.jpg
2085.211	0.531	1	congruent	Block2	congruent/STIM_021.jpg
2088.386	0.596	0	congruent	Block2	congruent/STIM_021.jpg
2091.173	0.542	1	congruent	Block2	congruent/STIM_021.jpg
2093.975	0.542	1	congruent	Block2	congruent/STIM_022.jpg
2098.407	0.66	1	congruent	Block2	congruent/STIM_022.jpg
2102.664	0.514	1	congruent	Block2	congruent/STIM_022.jpg
2106.798	0.47	1	congruent	Block2	congruent/STIM_022.jpg
2109.709	0.508	1	congruent	Block2	congruent/STIM_022.jpg
2113.214	0.571	1	congruent	Block2	congruent/STIM_023.jpg
2116.034	0.482	0	congruent	Block2	congruent/STIM_023.jpg
2119.984	0.614	0	congruent	Block2	congruent/STIM_023.jpg
2122.855	0.453	1	congruent	Block2	congruent/STIM_023.jpg
2126.746	0.524	0	congruent	Block2	congruent/STIM_023.jpg
2130.018	0.644	0	congruent	Block2	congruent/STIM_024.jpg
2132.862	0.714	0	congruent	Block2	congruent/STIM_024.jpg
2135.837	0.515	0	congruent	Block2	congruent/STIM_024.jpg
2140.008	0.594	1	congruent	Block2	congruent/STIM_024.jpg
2144.413	0.719	0	congruent	Block2	congruent/STIM_024.jpg
2147.739	0.745	0	congruent	Block2	congruent/STIM_025.jpg
2152.34	0.663	1	congruent	Block2	congruent/STIM_025.jpg
2155.613	0.775	1	congruent	Block2	congruent/STIM_025.jpg
2160.329	0.644	0	congruent	Block2	congruent/STIM_025.jpg
2164.146	0.558	1	congruent	Block2	congruent/STIM_025.jpg
2167.463	0.59	0	congruent	Block2	congruent/STIM_026.jpg
2170.956	0.537	0	congruent	Block2	congruent/STIM_026.jpg
2174.249	0.626	1	congruent	Block2	congruent/STIM_026.jpg
2178.562	0.513	1	congruent	Block2	congruent/STIM_026.jpg
2182.802	0.68	1	congruent	Block2	congruent/STIM_026.jpg
2187.446	0.712	1	congruent	Block2	congruent/STIM_027.jpg
2191.963	0.66	0	congruent	Block2	congruent/STIM_027.jpg
2195.07	0.648	1	congruent	Block2	congruent/STIM_027.jpg
2197.995	0.667	1	congruent	Block2	congruent/STIM_027.jpg
2201.223	0.559	1	congruent	Block2	congruent/STIM_027.jpg
2204.212	0.574	0	congruent	Block2	congruent/STIM_028.jpg
2207.786	0.464	1	congruent	Block2	congruent/STIM_028.jpg
2211.849	0.532	1	congruent	Block2	congruent/STIM_028.jpg
2214.414	0.728	1	congruent	Block2	congruent/STIM_028.jpg
2217.754	0.535	1	congruent	Block2	congruent/STIM_028.jpg
2220.776	0.615	0	congruent	Block2	congruent/STIM_029.jpg
2223.447	0.573	1	congruent	Block2	congruent/STIM_029.jpg
2226.439	0.492	1	congruent	Block2	congruent/STIM_029.jpg
2230.763	0.478	0	congruent	Block2	congruent/STIM_029.jpg
2233.68	0.667	1	congruent	Block2	congruent/STIM_029.jpg
2236.492	0.761	1	incongruent	Block3	incongruent/STIM_000.jpg
2241.216	0.708	1	incongruent	Block3	incongruent/STIM_000.jpg
2244.135	0.762	1	incongruent	Block3	incongruent/STIM_000.jpg
2248.885	0.707	0	incongruent	Block3	incongruent/STIM_000.jpg
2252.432	0.888	0	incongruent	Block3	incongruent/STIM_000.jpg
2257.056	0.718	1	incongruent	Block3	incongruent/STIM_001.jpg
2260.214	0.627	0	incongruent	Block3	incongruent/STIM_001.jpg
2264.651	0.497	1	incongruent	Block3	incongruent/STIM_001.jpg
2268.261	0.481	1	incongruent	Block3	incongruent/STIM_001.jpg
2271.705	0.608	0	incongruent	Block3	incongruent/STIM_001.jpg
2275.733	0.678	1	incongruent	Block3	incongruent/STIM_002.jpg
2278.848	0.823	1	incongruent	Block3	incongruent/STIM_002.jpg
2283.074	0.898	1	incongruent	Block3	incongruent/STIM_002.jpg
2286.174	0.759	0	incongruent	Block3	incongruent/STIM_002.jpg
2290.663	0.599	1	incongruent	Block3	incongruent/STIM_002.jpg
2293.451	0.492	1	incongruent	Block3	incongruent/STIM_003.jpg
2296.272	0.626	1	incongruent	Block3	incongruent/STIM_003.jpg
2299.944	0.476	1	incongruent	Block3	incongruent/STIM_003.jpg
2302.735	0.623	1	incongruent	Block3	incongruent/STIM_003.jpg
2307.308	0.425	1	incongruent	Block3	incongruent/STIM_003.jpg
2310.909	0.84	0	incongruent	Block3	incongruent/STIM_004.jpg
2315.222	0.522	0	incongruent	Block3	incongruent/STIM_004.jpg
2319.231	0.622	1	incongruent	Block3	incongruent/STIM_004.jpg
2323.377	0.614	1	incongruent	Block3	incongruent/STIM_004.jpg
2327.236	0.581	1	incongruent	Block3	incongruent/STIM_004.jpg
2329.828	0.894	1	incongruent	Block3	incongruent/STIM_005.jpg
2333.885	0.57	1	incongruent	Block3	incongruent/STIM_005.jpg
2337.246	0.637	1	incongruent	Block3	incongruent/STIM_005.jpg
2341.726	0.719	1	incongruent	Block3	incongruent/STIM_005.jpg
2344.472	0.611	1	incongruent	Block3	incongruent/STIM_005.jpg
2347.217	0.699	1	incongruent	Block3	incongruent/STIM_006.jpg
2350.862	0.58	0	incongruent	Block3	incongruent/STIM_006.jpg
2354.586	0.545	1	incongruent	Block3	incongruent/STIM_006.jpg
2358.083	0.784	0	incongruent	Block3	incongruent/STIM_006.jpg
2362.572	0.742	1	incongruent	Block3	incongruent/STIM_006.jpg
2365.715	0.456	1	incongruent	Block3	incongruent/STIM_007.jpg
2369.869	0.587	1	incongruent	Block3	incongruent/STIM_007.jpg
2373.527	0.719	1	incongruent	Block3	incongruent/STIM_007.jpg
2378.077	0.813	1	incongruent	Block3	incongruent/STIM_007.jpg
2382.703	0.748	0	incongruent	Block3	incongruent/STIM_007.jpg
2385.47	0.814	1	incongruent	Block3	incongruent/STIM_008.jpg
2388.316	0.572	1	incongruent	Block3	incongruent/STIM_008.jpg
2391.805	0.906	1	incongruent	Block3	incongruent/STIM_008.jpg
2395.574	0.848	1	incongruent	Block3	incongruent/STIM_008.jpg
2400.223	0.683	1	incongruent	Block3	incongruent/STIM_008.jpg
2404.204	0.803	0	incongruent	Block3	incongruent/STIM_009.jpg
2408.186	0.81	1	incongruent	Block3	incongruent/STIM_009.jpg
2412.31	0.537	1	incongruent	Block3	incongruent/STIM_009.jpg
2414.95	0.506	1	incongruent	Block3	incongruent/STIM_009.jpg
2418.082	0.845	1	incongruent	Block3	incongruent/STIM_009.jpg
2422.792	0.444	0	incongruent	Block3	incongruent/STIM_010.jpg
2426.998	0.771	1	incongruent	Block3	incongruent/STIM_010.jpg
2431.057	0.62	1	incongruent	Block3	incongruent/STIM_010.jpg
2435.366	0.843	1	incongruent	Block3	incongruent/STIM_010.jpg
2439.288	0.444	1	incongruent	Block3	incongruent/STIM_010.jpg
2443.457	0.861	1	incongruent	Block3	incongruent/STIM_011.jpg
2447.657	0.813	1	incongruent	Block3	incongruent/STIM_011.jpg
2450.978	0.649	1	incongruent	Block3	incongruent/STIM_011.jpg
2453.788	0.846	1	incongruent	Block3	incongruent/STIM_011.jpg
2457.364	0.497	0	incongruent	Block3	incongruent/STIM_011.jpg
2460.098	0.516	1	incongruent	Block3	incongruent/STIM_012.jpg
2464.433	0.616	1	incongruent	Block3	incongruent/STIM_012.jpg
2468.318	0.486	1	incongruent	Block3	incongruent/STIM_012.jpg
2471.598	0.513	1	incongruent	Block3	incongruent/STIM_012.jpg
2475.149	0.433	1	incongruent	Block3	incongruent/STIM_012.jpg
2479.034	0.747	1	incongruent	Block3	incongruent/STIM_013.jpg
2482.003	0.643	0	incongruent	Block3	incongruent/STIM_013.jpg
2484.878	0.579	0	incongruent	Block3	incongruent/STIM_013.jpg
2489.128	0.593	1	incongruent	Block3	incongruent/STIM_013.jpg
2491.774	0.901	1	incongruent	Block3	incongruent/STIM_013.jpg
2495.8	0.803	1	incongruent	Block3	incongruent/STIM_014.jpg
2500.255	0.562	0	incongruent	Block3	incongruent/STIM_014.jpg
2503.34	0.714	0	incongruent	Block3	incongruent/STIM_014.jpg
2507.188	0.638	1	incongruent	Block3	incongruent/STIM_014.jpg
2510.328	0.483	1	incongruent	Block3	incongruent/STIM_014.jpg
2513.585	0.563	0	incongruent	Block3	incongruent/STIM_015.jpg
2517.842	0.437	1	incongruent	Block3	incongruent/STIM_015.jpg
2520.836	0.767	1	incongruent	Block3	incongruent/STIM_015.jpg
2524.915	0.544	0	incongruent	Block3	incongruent/STIM_015.jpg
2528.098	0.786	1	incongruent	Block3	incongruent/STIM_015.jpg
2532.398	0.476	0	incongruent	Block3	incongruent/STIM_016.jpg
2536.582	0.824	0	incongruent	Block3	incongruent/STIM_016.jpg
2539.407	0.538	1	incongruent	Block3	incongruent/STIM_016.jpg
2542.611	0.849	1	incongruent	Block3	incongruent/STIM_016.jpg
2545.835	0.746	1	incongruent	Block3	incongruent/STIM_016.jpg
2549.767	0.551	0	incongruent	Block3	incongruent/STIM_017.jpg
2553.735	0.542	1	incongruent	Block3	incongruent/STIM_017.jpg
2556.715	0.73	1	incongruent	Block3	incongruent/STIM_017.jpg
2560.215	0.902	1	incongruent	Block3	incongruent/STIM_017.jpg
2563.83	0.666	1	incongruent	Block3	incongruent/STIM_017.jpg
2568.174	0.544	1	incongruent	Block3	incongruent/STIM_018.jpg
2572.091	0.879	1	incongruent	Block3	incongruent/STIM_018.jpg
2576.76	0.706	1	incongruent	Block3	incongruent/STIM_018.jpg
2580.276	0.817	1	incongruent	Block3	incongruent/STIM_018.jpg
2583.606	0.8	0	incongruent	Block3	incongruent/STIM_018.jpg
2586.72	0.568	1	incongruent	Block3	incongruent/STIM_019.jpg
2589.435	0.494	1	incongruent	Block3	incongruent/STIM_019.jpg
2592.083	0.791	1	incongruent	Block3	incongruent/STIM_019.jpg
2596.339	0.864	1	incongruent	Block3	incongruent/STIM_019.jpg
2599.647	0.722	1	incongruent	Block3	incongruent/STIM_019.jpg
2603.543	0.742	1	incongruent	Block3	incongruent/STIM_020.jpg
2608.082	0.84	1	incongruent	Block3	incongruent/STIM_020.jpg
2612.736	0.578	1	incongruent	Block3	incongruent/STIM_020.jpg
2616.779	0.846	1	incongruent	Block3	incongruent/STIM_020.jpg
2620.972	0.426	0	incongruent	Block3	incongruent/STIM_020.jpg
2624.521	0.604	0	incongruent	Block3	incongruent/STIM_021.jpg
2629.099	0.818	1	incongruent	Block3	incongruent/STIM_021.jpg
2632.759	0.575	1	incongruent	Block3	incongruent/STIM_021.jpg
2636.612	0.493	1	incongruent	Block3	incongruent/STIM_021.jpg
2640.521	0.584	0	incongruent	Block3	incongruent/STIM_021.jpg
2643.637	0.456	0	incongruent	Block3	incongruent/STIM_022.jpg
2647.085	0.738	0	incongruent	Block3	incongruent/STIM_022.jpg
2651.592	0.777	1	incongruent	Block3	incongruent/STIM_022.jpg
2655.532	0.591	1	incongruent	Block3	incongruent/STIM_022.jpg
2659.53	0.436	1	incongruent	Block3	incongruent/STIM_022.jpg
2662.399	0.504	0	incongruent	Block3	incongruent/STIM_023.jpg
2665.642	0.66	1	incongruent	Block3	incongruent/STIM_023.jpg
2669.934	0.488	1	incongruent	Block3	incongruent/STIM_023.jpg
2673.152	0.458	0	incongruent	Block3	incongruent/STIM_023.jpg
2676.034	0.514	1	incongruent	Block3	incongruent/STIM_023.jpg
2680.337	0.528	1	incongruent	Block3	incongruent/STIM_024.jpg
2684.594	0.436	1	incongruent	Block3	incongruent/STIM_024.jpg
2687.964	0.459	1	incongruent	Block3	incongruent/STIM_024.jpg
2691.646	0.426	0	incongruent	Block3	incongruent/STIM_024.jpg
2694.674	0.633	1	incongruent	Block3	incongruent/STIM_024.jpg
2697.821	0.69	0	incongruent	Block3	incongruent/STIM_025.jpg
2701.337	0.891	0	incongruent	Block3	incongruent/STIM_025.jpg
2705.647	0.507	1	incongruent	Block3	incongruent/STIM_025.jpg
2709.632	0.654	1	incongruent	Block3	incongruent/STIM_025.jpg
2712.828	0.768	1	incongruent	Block3	incongruent/STIM_025.jpg
2715.799	0.887	1	incongruent	Block3	incongruent/STIM_026.jpg
2719.488	0.578	1	incongruent	Block3	incongruent/STIM_026.jpg
2723.931	0.91	1	incongruent	Block3	incongruent/STIM_026.jpg
2728.161	0.712	1	incongruent	Block3	incongruent/STIM_026.jpg
2732.234	0.844	0	incongruent	Block3	incongruent/STIM_026.jpg
2735.765	0.699	1	incongruent	Block3	incongruent/STIM_027.jpg
2740.433	0.797	1	incongruent	Block3	incongruent/STIM_027.jpg
2744.701	0.449	0	incongruent	Block3	incongruent/STIM_027.jpg
2747.648	0.505	1	incongruent	Block3	incongruent/STIM_027.jpg
2750.956	0.698	1	incongruent	Block3	incongruent/STIM_027.jpg
2753.783	0.539	1	incongruent	Block3	incongruent/STIM_028.jpg
2757.276	0.869	1	incongruent	Block3	incongruent/STIM_028.jpg
2761.33	0.865	1	incongruent	Block3	incongruent/STIM_028.jpg
2765.598	0.862	0	incongruent	Block3	incongruent/STIM_028.jpg
2770.276	0.712	1	incongruent	Block3	incongruent/STIM_028.jpg
2774.792	0.692	0	incongruent	Block3	incongruent/STIM_029.jpg
2778.874	0.607	1	incongruent	Block3	incongruent/STIM_029.jpg
2782.116	0.461	1	incongruent	Block3	incongruent/STIM_029.jpg
2785.587	0.817	1	incongruent	Block3	incongruent/STIM_029.jpg
2789.051	0.829	1	incongruent	Block3	incongruent/STIM_029.jpg
2792.136	0.665	1	congruent	Block3	congruent/STIM_000.jpg
2795.345	0.686	1	congruent	Block3	congruent/STIM_000.jpg
2798.611	0.52	1	congruent	Block3	congruent/STIM_000.jpg
2803.022	0.736	0	congruent	Block3	congruent/STIM_000.jpg
2805.925	0.503	1	congruent	Block3	congruent/STIM_000.jpg
2808.697	0.622	0	congruent	Block3	congruent/STIM_001.jpg
2812.458	0.54	1	congruent	Block3	congruent/STIM_001.jpg
2815.61	0.456	1	congruent	Block3	congruent/STIM_001.jpg
2818.689	0.559	1	congruent	Block3	congruent/STIM_001.jpg
2822.665	0.77	1	congruent	Block3	congruent/STIM_001.jpg
2826.754	0.693	1	congruent	Block3	congruent/STIM_002.jpg
2830.838	0.736	1	congruent	Block3	congruent/STIM_002.jpg
2834.528	0.446	0	congruent	Block3	congruent/STIM_002.jpg
2838.219	0.68	0	congruent	Block3	congruent/STIM_002.jpg
2841.437	0.439	0	congruent	Block3	congruent/STIM_002.jpg
2845.369	0.511	1	congruent	Block3	congruent/STIM_003.jpg
2849.453	0.498	0	congruent	Block3	congruent/STIM_003.jpg
2852.991	0.665	0	congruent	Block3	congruent/STIM_003.jpg
2856.071	0.652	1	congruent	Block3	congruent/STIM_003.jpg
2860.212	0.706	1	congruent	Block3	congruent/STIM_003.jpg
2863.499	0.701	1	congruent	Block3	congruent/STIM_004.jpg
2867.921	0.453	0	congruent	Block3	congruent/STIM_004.jpg
2870.669	0.475	1	congruent	Block3	congruent/STIM_004.jpg
2874.359	0.59	1	congruent	Block3	congruent/STIM_004.jpg
2877.107	0.463	0	congruent	Block3	congruent/STIM_004.jpg
2879.909	0.566	1	congruent	Block3	congruent/STIM_005.jpg
2883.461	0.526	1	congruent	Block3	congruent/STIM_005.jpg
2887.087	0.72	0	congruent	Block3	congruent/STIM_005.jpg
2890.721	0.572	1	congruent	Block3	congruent/STIM_005.jpg
2894.273	0.697	1	congruent	Block3	congruent/STIM_005.jpg
2897.088	0.692	1	congruent	Block3	congruent/STIM_006.jpg
2901.254	0.56	1	congruent	Block3	congruent/STIM_006.jpg
2905.132	0.665	1	congruent	Block3	congruent/STIM_006.jpg
2909.772	0.755	1	congruent	Block3	congruent/STIM_006.jpg
2913.16	0.641	1	congruent	Block3	congruent/STIM_006.jpg
2916.563	0.492	1	congruent	Block3	congruent/STIM_007.jpg
2920.866	0.509	0	congruent	Block3	congruent/STIM_007.jpg
2923.773	0.55	1	congruent	Block3	congruent/STIM_007.jpg
2927.296	0.507	1	congruent	Block3	congruent/STIM_007.jpg
2931.569	0.777	0	congruent	Block3	congruent/STIM_007.jpg
2935.811	0.513	1	congruent	Block3	congruent/STIM_008.jpg
2938.922	0.654	1	congruent	Block3	congruent/STIM_008.jpg
2942.693	0.709	0	congruent	Block3	congruent/STIM_008.jpg
2945.981	0.606	0	congruent	Block3	congruent/STIM_008.jpg
2950.046	0.572	1	congruent	Block3	congruent/STIM_008.jpg
2953.834	0.563	1	congruent	Block3	congruent/STIM_009.jpg
2956.564	0.579	1	congruent	Block3	congruent/STIM_009.jpg
2959.381	0.738	1	congruent	Block3	congruent/STIM_009.jpg
2962.705	0.456	1	congruent	Block3	congruent/STIM_009.jpg
2966.258	0.631	1	congruent	Block3	congruent/STIM_009.jpg
2969.945	0.747	1	congruent	Block3	congruent/STIM_010.jpg
2972.916	0.76	1	congruent	Block3	congruent/STIM_010.jpg
2977.503	0.69	0	congruent	Block3	congruent/STIM_010.jpg
2980.346	0.531	1	congruent	Block3	congruent/STIM_010.jpg
2983.705	0.659	1	congruent	Block3	congruent/STIM_010.jpg
2987.38	0.706	1	congruent	Block3	congruent/STIM_011.jpg
2992.064	0.594	1	congruent	Block3	congruent/STIM_011.jpg
2995.29	0.743	1	congruent	Block3	congruent/STIM_011.jpg
2998.587	0.446	1	congruent	Block3	congruent/STIM_011.jpg
3002.469	0.779	1	congruent	Block3	congruent/STIM_011.jpg
3006.303	0.519	1	congruent	Block3	congruent/STIM_012.jpg
3009.922	0.736	1	congruent	Block3	congruent/STIM_012.jpg
3013.45	0.663	1	congruent	Block3	congruent/STIM_012.jpg
3017.596	0.623	1	congruent	Block3	congruent/STIM_012.jpg
3021.284	0.473	0	congruent	Block3	congruent/STIM_012.jpg
3024.641	0.622	1	congruent	Block3	congruent/STIM_013.jpg
3028.264	0.448	1	congruent	Block3	congruent/STIM_013.jpg
3031.278	0.515	0	congruent	Block3	congruent/STIM_013.jpg
3034.818	0.524	0	congruent	Block3	congruent/STIM_013.jpg
3038.605	0.452	0	congruent	Block3	congruent/STIM_013.jpg
3042.186	0.451	1	congruent	Block3	congruent/STIM_014.jpg
3046.078	0.562	1	congruent	Block3	congruent/STIM_014.jpg
3050.005	0.718	1	congruent	Block3	congruent/STIM_014.jpg
3053.771	0.678	1	congruent	Block3	congruent/STIM_014.jpg
3056.721	0.475	1	congruent	Block3	congruent/STIM_014.jpg
3059.775	0.754	1	congruent	Block3	congruent/STIM_015.jpg
3063.421	0.72	1	congruent	Block3	congruent/STIM_015.jpg
3066.724	0.642	0	congruent	Block3	congruent/STIM_015.jpg
3070.02	0.547	1	congruent	Block3	congruent/STIM_015.jpg
3074.479	0.569	1	congruent	Block3	congruent/STIM_015.jpg
3078.922	0.643	0	congruent	Block3	congruent/STIM_016.jpg
3082.409	0.719	1	congruent	Block3	congruent/STIM_016.jpg
3085.585	0.674	1	congruent	Block3	congruent/STIM_016.jpg
3089.735	0.637	1	congruent	Block3	congruent/STIM_016.jpg
3092.739	0.558	1	congruent	Block3	congruent/STIM_016.jpg
3095.614	0.775	1	congruent	Block3	congruent/STIM_017.jpg
3099.289	0.636	1	congruent	Block3	congruent/STIM_017.jpg
3103.267	0.444	1	congruent	Block3	congruent/STIM_017.jpg
3106.211	0.492	1	congruent	Block3	congruent/STIM_017.jpg
3110.323	0.727	1	congruent	Block3	congruent/STIM_017.jpg
3113.422	0.458	0	congruent	Block3	congruent/STIM_018.jpg
3116.233	0.728	1	congruent	Block3	congruent/STIM_018.jpg
3120.661	0.694	1	congruent	Block3	congruent/STIM_018.jpg
3124.062	0.526	1	congruent	Block3	congruent/STIM_018.jpg
3127.608	0.75	1	congruent	Block3	congruent/STIM_018.jpg
3131.374	0.463	1	congruent	Block3	congruent/STIM_019.jpg
3133.847	0.556	1	congruent	Block3	congruent/STIM_019.jpg
3137.138	0.696	0	congruent	Block3	congruent/STIM_019.jpg
3139.894	0.499	1	congruent	Block3	congruent/STIM_019.jpg
3143.122	0.687	1	congruent	Block3	congruent/STIM_019.jpg
3146.276	0.667	1	congruent	Block3	congruent/STIM_020.jpg
3149.648	0.656	0	congruent	Block3	congruent/STIM_020.jpg
3152.469	0.452	0	congruent	Block3	congruent/STIM_020.jpg
3155.629	0.627	0	congruent	Block3	congruent/STIM_020.jpg
3158.286	0.538	0	congruent	Block3	congruent/STIM_020.jpg
3161.184	0.694	0	congruent	Block3	congruent/STIM_021.jpg
3164.79	0.762	0	congruent	Block3	congruent/STIM_021.jpg
3169.321	0.437	1	congruent	Block3	congruent/STIM_021.jpg
3173.751	0.464	0	congruent	Block3	congruent/STIM_021.jpg
3176.933	0.488	1	congruent	Block3	congruent/STIM_021.jpg
3180.922	0.462	1	congruent	Block3	congruent/STIM_022.jpg
3185.122	0.703	1	congruent	Block3	congruent/STIM_022.jpg
3188.572	0.535	1	congruent	Block3	congruent/STIM_022.jpg
3191.631	0.6	0	congruent	Block3	congruent/STIM_022.jpg
3194.605	0.542	1	congruent	Block3	congruent/STIM_022.jpg
3198.722	0.533	1	congruent	Block3	congruent/STIM_023.jpg
3202.599	0.723	0	congruent	Block3	congruent/STIM_023.jpg
3207.112	0.544	0	congruent	Block3	congruent/STIM_023.jpg
3209.783	0.568	0	congruent	Block3	congruent/STIM_023.jpg
3213.61	0.577	1	congruent	Block3	congruent/STIM_023.jpg
3216.253	0.596	1	congruent	Block3	congruent/STIM_024.jpg
3219.825	0.631	1	congruent	Block3	congruent/STIM_024.jpg
3223.576	0.442	0	congruent	Block3	congruent/STIM_024.jpg
3227.991	0.608	0	congruent	Block3	congruent/STIM_024.jpg
3232.06	0.5	1	congruent	Block3	congruent/STIM_024.jpg
3235.313	0.678	1	congruent	Block3	congruent/STIM_025.jpg
3238.296	0.506	0	congruent	Block3	congruent/STIM_025.jpg
3240.821	0.611	0	congruent	Block3	congruent/STIM_025.jpg
3244.734	0.446	1	congruent	Block3	congruent/STIM_025.jpg
3248.15	0.759	1	congruent	Block3	congruent/STIM_025.jpg
3251.971	0.725	1	congruent	Block3	congruent/STIM_026.jpg
3255.759	0.511	1	congruent	Block3	congruent/STIM_026.jpg
3259.405	0.567	1	congruent	Block3	congruent/STIM_026.jpg
3263.118	0.684	1	congruent	Block3	congruent/STIM_026.jpg
3267.67	0.539	1	congruent	Block3	congruent/STIM_026.jpg
3270.637	0.49	1	congruent	Block3	congruent/STIM_027.jpg
3274.307	0.524	1	congruent	Block3	congruent/STIM_027.jpg
3278.3	0.543	0	congruent	Block3	congruent/STIM_027.jpg
3282.763	0.7	1	congruent	Block3	congruent/STIM_027.jpg
3286.482	0.434	1	congruent	Block3	congruent/STIM_027.jpg
3289.086	0.574	0	congruent	Block3	congruent/STIM_028.jpg
3292.181	0.484	1	congruent	Block3	congruent/STIM_028.jpg
3295.271	0.599	1	congruent	Block3	congruent/STIM_028.jpg
3299.388	0.697	1	congruent	Block3	congruent/STIM_028.jpg
3302.356	0.497	0	congruent	Block3	congruent/STIM_028.jpg
3306.447	0.442	0	congruent	Block3	congruent/STIM_029.jpg
3309.736	0.512	0	congruent	Block3	congruent/STIM_029.jpg
3313.707	0.48	0	congruent	Block3	congruent/STIM_029.jpg
3317.983	0.742	1	congruent	Block3	congruent/STIM_029.jpg
3322.3	0.507	1	congruent	Block3	congruent/STIM_029.jpg
