onset	duration	accuracy_binary	trial_type	learning_stage	stimulus
0.0	1.142	1	incongruent	Block1	incongruent/STIM_000.jpg
4.885	0.796	1	incongruent	Block1	incongruent/STIM_000.jpg
7.805	1.057	1	incongruent	Block1	incongruent/STIM_000.jpg
12.178	1.022	1	incongruent	Block1	incongruent/STIM_000.jpg
15.501	0.829	1	incongruent	Block1	incongruent/STIM_000.jpg
19.578	1.274	1	incongruent	Block1	incongruent/STIM_001.jpg
23.182	1.45	1	incongruent	Block1	incongruent/STIM_001.jpg
26.961	0.767	1	incongruent	Block1	incongruent/STIM_001.jpg
30.839	1.301	0	incongruent	Block1	incongruent/STIM_001.jpg
34.821	1.036	1	incongruent	Block1	incongruent/STIM_001.jpg
37.894	1.145	1	incongruent	Block1	incongruent/STIM_002.jpg
42.237	1.17	1	incongruent	Block1	incongruent/STIM_002.jpg
45.45	1.076	1	incongruent	Block1	incongruent/STIM_002.jpg
49.267	1.099	1	incongruent	Block1	incongruent/STIM_002.jpg
52.879	1.006	1	incongruent	Block1	incongruent/STIM_002.jpg
56.241	1.514	1	incongruent	Block1	incongruent/STIM_003.jpg
60.679	0.953	1	incongruent	Block1	incongruent/STIM_003.jpg
65.414	0.674	0	incongruent	Block1	incongruent/STIM_003.jpg
68.165	0.814	0	incongruent	Block1	incongruent/STIM_003.jpg
70.951	0.779	1	incongruent	Block1	incongruent/STIM_003.jpg
75.44	1.52	1	incongruent	Block1	incongruent/STIM_004.jpg
79.754	1.244	1	incongruent	Block1	incongruent/STIM_004.jpg
83.777	1.287	1	incongruent	Block1	incongruent/STIM_004.jpg
87.29	0.804	1	incongruent	Block1	incongruent/STIM_004.jpg
91.356	1.232	1	incongruent	Block1	incongruent/STIM_004.jpg
94.844	1.033	1	incongruent	Block1	incongruent/STIM_005.jpg
99.033	1.08	1	incongruent	Block1	incongruent/STIM_005.jpg
103.592	0.945	1	incongruent	Block1	incongruent/STIM_005.jpg
108.187	0.867	1	incongruent	Block1	incongruent/STIM_005.jpg
111.869	1.133	1	incongruent	Block1	incongruent/STIM_005.jpg
115.066	1.566	1	incongruent	Block1	incongruent/STIM_006.jpg
120.047	1.33	1	incongruent	Block1	incongruent/STIM_006.jpg
124.046	1.106	1	incongruent	Block1	incongruent/STIM_006.jpg
127.695	0.711	1	incongruent	Block1	incongruent/STIM_006.jpg
131.051	0.98	0	incongruent	Block1	incongruent/STIM_006.jpg
135.731	0.975	1	incongruent	Block1	incongruent/STIM_007.jpg
139.497	1.248	1	incongruent	Block1	incongruent/STIM_007.jpg
143.643	1.124	1	incongruent	Block1	incongruent/STIM_007.jpg
147.626	1.233	1	incongruent	Block1	incongruent/STIM_007.jpg
151.634	1.1	1	incongruent	Block1	incongruent/STIM_007.jpg
154.821	1.566	1	incongruent	Block1	incongruent/STIM_008.jpg
160.149	1.246	0	incongruent	Block1	incongruent/STIM_008.jpg
163.88	0.784	0	incongruent	Block1	incongruent/STIM_008.jpg
166.711	0.898	0	incongruent	Block1	incongruent/STIM_008.jpg
169.657	0.745	1	incongruent	Block1	incongruent/STIM_008.jpg
173.121	0.957	1	incongruent	Block1	incongruent/STIM_009.jpg
176.563	1.228	1	incongruent	Block1	incongruent/STIM_009.jpg
179.708	1.316	1	incongruent	Block1	incongruent/STIM_009.jpg
183.983	1.074	0	incongruent	Block1	incongruent/STIM_009.jpg
188.901	0.944	1	incongruent	Block1	incongruent/STIM_009.jpg
192.541	0.913	1	incongruent	Block1	incongruent/STIM_010.jpg
196.895	1.19	1	incongruent	Block1	incongruent/STIM_010.jpg
200.134	0.79	1	incongruent	Block1	incongruent/STIM_010.jpg
204.287	0.636	1	incongruent	Block1	incongruent/STIM_010.jpg
207.919	0.796	1	incongruent	Block1	incongruent/STIM_010.jpg
210.715	1.372	1	incongruent	Block1	incongruent/STIM_011.jpg
214.722	1.457	1	incongruent	Block1	incongruent/STIM_011.jpg
219.694	0.909	1	incongruent	Block1	incongruent/STIM_011.jpg
224.117	1.183	1	incongruent	Block1	incongruent/STIM_011.jpg
228.844	0.761	1	incongruent	Block1	incongruent/STIM_011.jpg
232.351	1.564	1	incongruent	Block1	incongruent/STIM_012.jpg
236.025	1.442	1	incongruent	Block1	incongruent/STIM_012.jpg
240.665	1.194	1	incongruent	Block1	incongruent/STIM_012.jpg
244.57	0.758	1	incongruent	Block1	incongruent/STIM_012.jpg
249.098	1.156	1	incongruent	Block1	incongruent/STIM_012.jpg
252.639	1.36	1	incongruent	Block1	incongruent/STIM_013.jpg
255.886	0.947	1	incongruent	Block1	incongruent/STIM_013.jpg
260.236	1.078	1	incongruent	Block1	incongruent/STIM_013.jpg
264.245	0.827	1	incongruent	Block1	incongruent/STIM_013.jpg
268.777	1.145	1	incongruent	Block1	incongruent/STIM_013.jpg
273.528	1.299	1	incongruent	Block1	incongruent/STIM_014.jpg
278.3	1.36	1	incongruent	Block1	incongruent/STIM_014.jpg
282.836	0.894	1	incongruent	Block1	incongruent/STIM_014.jpg
286.038	0.873	1	incongruent	Block1	incongruent/STIM_014.jpg
289.91	1.185	1	incongruent	Block1	incongruent/STIM_014.jpg
293.836	1.405	1	incongruent	Block1	incongruent/STIM_015.jpg
298.359	0.839	0	incongruent	Block1	incongruent/STIM_015.jpg
302.548	1.026	1	incongruent	Block1	incongruent/STIM_015.jpg
306.843	1.02	1	incongruent	Block1	incongruent/STIM_015.jpg
310.158	0.593	1	incongruent	Block1	incongruent/STIM_015.jpg
313.826	0.837	1	incongruent	Block1	incongruent/STIM_016.jpg
316.814	0.888	1	incongruent	Block1	incongruent/STIM_016.jpg
321.045	0.996	1	incongruent	Block1	incongruent/STIM_016.jpg
324.939	0.832	1	incongruent	Block1	incongruent/STIM_016.jpg
328.561	0.861	1	incongruent	Block1	incongruent/STIM_016.jpg
331.446	1.27	1	incongruent	Block1	incongruent/STIM_017.jpg
336.582	1.501	1	incongruent	Block1	incongruent/STIM_017.jpg
340.256	0.887	1	incongruent	Block1	incongruent/STIM_017.jpg
344.266	1.28	1	incongruent	Block1	incongruent/STIM_017.jpg
348.671	0.744	1	incongruent	Block1	incongruent/STIM_017.jpg
351.509	1.13	1	incongruent	Block1	incongruent/STIM_018.jpg
355.83	0.812	1	incongruent	Block1	incongruent/STIM_018.jpg
359.202	0.958	1	incongruent	Block1	incongruent/STIM_018.jpg
362.462	0.826	0	incongruent	Block1	incongruent/STIM_018.jpg
367.254	1.096	1	incongruent	Block1	incongruent/STIM_018.jpg
370.672	1.257	1	incongruent	Block1	incongruent/STIM_019.jpg
375.646	0.858	1	incongruent	Block1	incongruent/STIM_019.jpg
380.32	1.189	1	incongruent	Block1	incongruent/STIM_019.jpg
385.151	0.98	1	incongruent	Block1	incongruent/STIM_019.jpg
388.994	0.75	1	incongruent	Block1	incongruent/STIM_019.jpg
393.206	1.16	1	incongruent	Block1	incongruent/STIM_020.jpg
398.076	1.402	1	incongruent	Block1	incongruent/STIM_020.jpg
402.896	0.956	1	incongruent	Block1	incongruent/STIM_020.jpg
405.834	1.354	1	incongruent	Block1	incongruent/STIM_020.jpg
410.146	0.628	1	incongruent	Block1	incongruent/STIM_020.jpg
413.211	1.139	1	incongruent	Block1	incongruent/STIM_021.jpg
416.357	1.021	1	incongruent	Block1	incongruent/STIM_021.jpg
420.887	1.316	1	incongruent	Block1	incongruent/STIM_021.jpg
425.643	1.268	1	incongruent	Block1	incongruent/STIM_021.jpg
430.247	1.19	1	incongruent	Block1	incongruent/STIM_021.jpg
434.508	0.999	1	incongruent	Block1	incongruent/STIM_022.jpg
438.971	1.156	1	incongruent	Block1	incongruent/STIM_022.jpg
442.26	1.402	1	incongruent	Block1	incongruent/STIM_022.jpg
447.515	0.948	1	incongruent	Block1	incongruent/STIM_022.jpg
451.878	0.983	1	incongruent	Block1	incongruent/STIM_022.jpg
456.563	1.554	1	incongruent	Block1	incongruent/STIM_023.jpg
461.561	0.809	1	incongruent	Block1	incongruent/STIM_023.jpg
466.199	0.968	1	incongruent	Block1	incongruent/STIM_023.jpg
470.092	0.788	1	incongruent	Block1	incongruent/STIM_023.jpg
473.205	0.865	1	incongruent	Block1	incongruent/STIM_023.jpg
478.053	1.15	1	incongruent	Block1	incongruent/STIM_024.jpg
481.171	1.067	0	incongruent	Block1	incongruent/STIM_024.jpg
485.883	1.481	1	incongruent	Block1	incongruent/STIM_024.jpg
491.001	0.731	1	incongruent	Block1	incongruent/STIM_024.jpg
495.068	0.815	1	incongruent	Block1	incongruent/STIM_024.jpg
499.554	0.906	1	incongruent	Block1	incongruent/STIM_025.jpg
503.886	1.115	1	incongruent	Block1	incongruent/STIM_025.jpg
508.142	1.296	1	incongruent	Block1	incongruent/STIM_025.jpg
512.744	0.796	1	incongruent	Block1	incongruent/STIM_025.jpg
517.124	1.132	1	incongruent	Block1	incongruent/STIM_025.jpg
521.679	0.912	0	incongruent	Block1	incongruent/STIM_026.jpg
526.116	1.522	1	incongruent	Block1	incongruent/STIM_026.jpg
531.042	1.393	0	incongruent	Block1	incongruent/STIM_026.jpg
535.446	1.237	1	incongruent	Block1	incongruent/STIM_026.jpg
539.068	0.835	1	incongruent	Block1	incongruent/STIM_026.jpg
543.448	1.302	0	incongruent	Block1	incongruent/STIM_027.jpg
547.481	0.99	1	incongruent	Block1	incongruent/STIM_027.jpg
552.149	1.247	1	incongruent	Block1	incongruent/STIM_027.jpg
556.381	1.264	0	incongruent	Block1	incongruent/STIM_027.jpg
560.095	1.08	1	incongruent	Block1	incongruent/STIM_027.jpg
563.896	0.835	1	incongruent	Block1	incongruent/STIM_028.jpg
567.892	1.254	1	incongruent	Block1	incongruent/STIM_028.jpg
572.151	0.981	0	incongruent	Block1	incongruent/STIM_028.jpg
576.15	1.303	1	incongruent	Block1	incongruent/STIM_028.jpg
579.502	0.945	1	incongruent	Block1	incongruent/STIM_028.jpg
583.917	0.827	1	incongruent	Block1	incongruent/STIM_029.jpg
587.189	1.481	0	incongruent	Block1	incongruent/STIM_029.jpg
591.173	1.264	1	incongruent	Block1	incongruent/STIM_029.jpg
595.827	0.795	1	incongruent	Block1	incongruent/STIM_029.jpg
599.865	0.474	1	incongruent	Block1	incongruent/STIM_029.jpg
603.748	0.749	1	congruent	Block1	congruent/STIM_000.jpg
607.476	0.726	1	congruent	Block1	congruent/STIM_000.jpg
611.564	0.764	1	congruent	Block1	congruent/STIM_000.jpg
614.595	0.745	1	congruent	Block1	congruent/STIM_000.jpg
619.136	0.893	1	congruent	Block1	congruent/STIM_000.jpg
622.344	0.964	0	congruent	Block1	congruent/STIM_001.jpg
626.406	0.552	1	congruent	Block1	congruent/STIM_001.jpg
630.71	0.863	1	congruent	Block1	congruent/STIM_001.jpg
634.096	0.614	1	congruent	Block1	congruent/STIM_001.jpg
638.219	0.916	1	congruent	Block1	congruent/STIM_001.jpg
642.291	0.951	1	congruent	Block1	congruent/STIM_002.jpg
645.466	0.829	1	congruent	Block1	congruent/STIM_002.jpg
650.002	0.864	1	congruent	Block1	congruent/STIM_002.jpg
654.411	0.787	1	congruent	Block1	congruent/STIM_002.jpg
657.794	0.583	1	congruent	Block1	congruent/STIM_002.jpg
661.167	0.807	1	congruent	Block1	congruent/STIM_003.jpg
665.246	1.011	1	congruent	Block1	congruent/STIM_003.jpg
669.82	0.928	1	congruent	Block1	congruent/STIM_003.jpg
673.829	0.561	1	congruent	Block1	congruent/STIM_003.jpg
678.006	0.942	1	congruent	Block1	congruent/STIM_003.jpg
682.183	0.688	1	congruent	Block1	congruent/STIM_004.jpg
686.215	0.917	1	congruent	Block1	congruent/STIM_004.jpg
690.809	0.912	1	congruent	Block1	congruent/STIM_004.jpg
695.057	0.709	1	congruent	Block1	congruent/STIM_004.jpg
698.321	0.65	1	congruent	Block1	congruent/STIM_004.jpg
701.489	0.871	1	congruent	Block1	congruent/STIM_005.jpg
705.343	0.826	1	congruent	Block1	congruent/STIM_005.jpg
708.422	0.824	1	congruent	Block1	congruent/STIM_005.jpg
711.361	0.798	1	congruent	Block1	congruent/STIM_005.jpg
716.157	0.552	1	congruent	Block1	congruent/STIM_005.jpg
719.188	0.917	1	congruent	Block1	congruent/STIM_006.jpg
723.327	0.854	1	congruent	Block1	congruent/STIM_006.jpg
727.811	0.92	1	congruent	Block1	congruent/STIM_006.jpg
730.724	0.602	1	congruent	Block1	congruent/STIM_006.jpg
734.987	0.495	1	congruent	Block1	congruent/STIM_006.jpg
739.127	0.571	1	congruent	Block1	congruent/STIM_007.jpg
743.509	0.811	1	congruent	Block1	congruent/STIM_007.jpg
746.957	0.983	1	congruent	Block1	congruent/STIM_007.jpg
751.12	1.013	1	congruent	Block1	congruent/STIM_007.jpg
754.577	0.602	1	congruent	Block1	congruent/STIM_007.jpg
757.271	0.874	1	congruent	Block1	congruent/STIM_008.jpg
761.932	0.898	1	congruent	Block1	congruent/STIM_008.jpg
765.859	0.642	1	congruent	Block1	congruent/STIM_008.jpg
769.01	0.835	1	congruent	Block1	congruent/STIM_008.jpg
772.845	0.774	1	congruent	Block1	congruent/STIM_008.jpg
777.071	0.452	1	congruent	Block1	congruent/STIM_009.jpg
779.665	0.757	1	congruent	Block1	congruent/STIM_009.jpg
782.766	0.559	1	congruent	Block1	congruent/STIM_009.jpg
786.829	0.906	0	congruent	Block1	congruent/STIM_009.jpg
790.046	0.843	1	congruent	Block1	congruent/STIM_009.jpg
793.743	0.884	1	congruent	Block1	congruent/STIM_010.jpg
798.017	0.82	1	congruent	Block1	congruent/STIM_010.jpg
801.87	0.835	1	congruent	Block1	congruent/STIM_010.jpg
805.275	0.595	1	congruent	Block1	congruent/STIM_010.jpg
809.299	0.796	1	congruent	Block1	congruent/STIM_010.jpg
812.938	0.895	1	congruent	Block1	congruent/STIM_011.jpg
817.591	0.635	1	congruent	Block1	congruent/STIM_011.jpg
821.111	0.637	1	congruent	Block1	congruent/STIM_011.jpg
824.176	0.76	1	congruent	Block1	congruent/STIM_011.jpg
828.656	0.565	1	congruent	Block1	congruent/STIM_011.jpg
831.975	0.479	1	congruent	Block1	congruent/STIM_012.jpg
835.487	0.78	0	congruent	Block1	congruent/STIM_012.jpg
838.559	0.882	1	congruent	Block1	congruent/STIM_012.jpg
843.166	0.502	1	congruent	Block1	congruent/STIM_012.jpg
846.053	0.978	1	congruent	Block1	congruent/STIM_012.jpg
849.25	0.801	1	congruent	Block1	congruent/STIM_013.jpg
853.386	0.788	1	congruent	Block1	congruent/STIM_013.jpg
856.798	0.825	1	congruent	Block1	congruent/STIM_013.jpg
861.498	1.04	1	congruent	Block1	congruent/STIM_013.jpg
864.558	0.797	1	congruent	Block1	congruent/STIM_013.jpg
868.738	1.012	1	congruent	Block1	congruent/STIM_014.jpg
873.531	0.915	1	congruent	Block1	congruent/STIM_014.jpg
877.162	0.488	0	congruent	Block1	congruent/STIM_014.jpg
879.751	0.829	1	congruent	Block1	congruent/STIM_014.jpg
883.621	0.84	1	congruent	Block1	congruent/STIM_014.jpg
888.059	0.7	0	congruent	Block1	congruent/STIM_015.jpg
892.458	0.733	1	congruent	Block1	congruent/STIM_015.jpg
896.904	0.909	1	congruent	Block1	congruent/STIM_015.jpg
900.367	0.787	1	congruent	Block1	congruent/STIM_015.jpg
904.617	0.69	1	congruent	Block1	congruent/STIM_015.jpg
907.926	0.875	0	congruent	Block1	congruent/STIM_016.jpg
911.638	0.972	1	congruent	Block1	congruent/STIM_016.jpg
915.373	0.703	1	congruent	Block1	congruent/STIM_016.jpg
919.759	0.567	1	congruent	Block1	congruent/STIM_016.jpg
923.028	0.921	1	congruent	Block1	congruent/STIM_016.jpg
926.334	0.713	1	congruent	Block1	congruent/STIM_017.jpg
930.748	0.492	1	congruent	Block1	congruent/STIM_017.jpg
934.482	0.789	1	congruent	Block1	congruent/STIM_017.jpg
938.461	0.857	1	congruent	Block1	congruent/STIM_017.jpg
943.013	0.58	1	congruent	Block1	congruent/STIM_017.jpg
947.423	0.856	1	congruent	Block1	congruent/STIM_018.jpg
951.774	0.511	1	congruent	Block1	congruent/STIM_018.jpg
954.77	0.708	1	congruent	Block1	congruent/STIM_018.jpg
958.647	0.904	1	congruent	Block1	congruent/STIM_018.jpg
963.405	0.646	1	congruent	Block1	congruent/STIM_018.jpg
966.36	0.993	1	congruent	Block1	congruent/STIM_019.jpg
970.795	0.875	1	congruent	Block1	congruent/STIM_019.jpg
973.644	0.593	1	congruent	Block1	congruent/STIM_019.jpg
976.96	0.915	1	congruent	Block1	congruent/STIM_019.jpg
981.622	0.682	1	congruent	Block1	congruent/STIM_019.jpg
985.106	0.796	1	congruent	Block1	congruent/STIM_020.jpg
987.978	0.616	1	congruent	Block1	congruent/STIM_020.jpg
991.345	1.015	1	congruent	Block1	congruent/STIM_020.jpg
996.037	0.623	1	congruent	Block1	congruent/STIM_020.jpg
1000.0	0.587	1	congruent	Block1	congruent/STIM_020.jpg
1002.639	0.539	1	congruent	Block1	congruent/STIM_021.jpg
1006.539	0.693	1	congruent	Block1	congruent/STIM_021.jpg
1010.532	0.948	1	congruent	Block1	congruent/STIM_021.jpg
1015.322	0.639	1	congruent	Block1	congruent/STIM_021.jpg
1019.674	0.878	1	congruent	Block1	congruent/STIM_021.jpg
1022.883	0.981	1	congruent	Block1	congruent/STIM_022.jpg
1026.487	0.773	1	congruent	Block1	congruent/STIM_022.jpg
1030.93	0.796	1	congruent	Block1	congruent/STIM_022.jpg
1034.845	0.726	1	congruent	Block1	congruent/STIM_022.jpg
1038.787	0.766	1	congruent	Block1	congruent/STIM_022.jpg
1042.876	0.79	1	congruent	Block1	congruent/STIM_023.jpg
1046.677	0.712	1	congruent	Block1	congruent/STIM_023.jpg
1049.384	0.774	1	congruent	Block1	congruent/STIM_023.jpg
1052.607	0.976	1	congruent	Block1	congruent/STIM_023.jpg
1057.268	0.816	1	congruent	Block1	congruent/STIM_023.jpg
1060.963	0.937	1	congruent	Block1	congruent/STIM_024.jpg
1064.383	0.834	1	congruent	Block1	congruent/STIM_024.jpg
1068.303	0.811	1	congruent	Block1	congruent/STIM_024.jpg
1072.48	0.857	1	congruent	Block1	congruent/STIM_024.jpg
1077.295	0.598	1	congruent	Block1	congruent/STIM_024.jpg
1080.245	0.688	1	congruent	Block1	congruent/STIM_025.jpg
1084.759	0.796	1	congruent	Block1	congruent/STIM_025.jpg
1087.606	0.799	1	congruent	Block1	congruent/STIM_025.jpg
1090.704	0.944	1	congruent	Block1	congruent/STIM_025.jpg
1094.548	0.976	1	congruent	Block1	congruent/STIM_025.jpg
1097.869	0.82	1	congruent	Block1	congruent/STIM_026.jpg
1101.255	0.908	1	congruent	Block1	congruent/STIM_026.jpg
1104.363	0.809	1	congruent	Block1	congruent/STIM_026.jpg
1108.443	0.901	1	congruent	Block1	congruent/STIM_026.jpg
1111.716	0.874	1	congruent	Block1	congruent/STIM_026.jpg
1115.498	0.523	1	congruent	Block1	congruent/STIM_027.jpg
1118.363	0.684	1	congruent	Block1	congruent/STIM_027.jpg
1121.228	0.625	1	congruent	Block1	congruent/STIM_027.jpg
1125.002	0.666	1	congruent	Block1	congruent/STIM_027.jpg
1129.485	0.515	1	congruent	Block1	congruent/STIM_027.jpg
1132.535	0.881	1	congruent	Block1	congruent/STIM_028.jpg
1136.136	0.848	1	congruent	Block1	congruent/STIM_028.jpg
1140.122	0.723	1	congruent	Block1	congruent/STIM_028.jpg
1144.754	0.908	1	congruent	Block1	congruent/STIM_028.jpg
1147.939	0.838	1	congruent	Block1	congruent/STIM_028.jpg
1151.487	0.885	1	congruent	Block1	congruent/STIM_029.jpg
1155.616	0.782	1	congruent	Block1	congruent/STIM_029.jpg
1160.207	0.831	1	congruent	Block1	congruent/STIM_029.jpg
1164.765	0.744	1	congruent	Block1	congruent/STIM_029.jpg
1167.972	0.683	1	congruent	Block1	congruent/STIM_029.jpg
1171.587	1.228	1	incongruent	Block2	incongruent/STIM_000.jpg
1175.055	1.154	1	incongruent	Block2	incongruent/STIM_000.jpg
1179.243	0.608	1	incongruent	Block2	incongruent/STIM_000.jpg
1183.416	0.758	0	incongruent	Block2	incongruent/STIM_000.jpg
1187.489	0.623	1	incongruent	Block2	incongruent/STIM_000.jpg
1191.234	1.315	1	incongruent	Block2	incongruent/STIM_001.jpg
1195.34	1.168	1	incongruent	Block2	incongruent/STIM_001.jpg
1198.802	1.17	1	incongruent	Block2	incongruent/STIM_001.jpg
1203.219	0.892	1	incongruent	Block2	incongruent/STIM_001.jpg
1207.911	0.828	1	incongruent	Block2	incongruent/STIM_001.jpg
1211.087	0.938	1	incongruent	Block2	incongruent/STIM_002.jpg
1214.455	1.124	1	incongruent	Block2	incongruent/STIM_002.jpg
1217.828	0.958	1	incongruent	Block2	incongruent/STIM_002.jpg
1222.423	0.807	1	incongruent	Block2	incongruent/STIM_002.jpg
1225.229	0.55	1	incongruent	Block2	incongruent/STIM_002.jpg
1229.318	1.11	1	incongruent	Block2	incongruent/STIM_003.jpg
1233.47	0.896	1	incongruent	Block2	incongruent/STIM_003.jpg
1237.234	0.596	1	incongruent	Block2	incongruent/STIM_003.jpg
1241.266	0.777	1	incongruent	Block2	incongruent/STIM_003.jpg
1245.069	1.021	1	incongruent	Block2	incongruent/STIM_003.jpg
1249.794	0.963	1	incongruent	Block2	incongruent/STIM_004.jpg
1253.833	0.961	1	incongruent	Block2	incongruent/STIM_004.jpg
1257.978	1.061	1	incongruent	Block2	incongruent/STIM_004.jpg
1261.054	0.848	0	incongruent	Block2	incongruent/STIM_004.jpg
1265.756	0.6	1	incongruent	Block2	incongruent/STIM_004.jpg
1268.752	1.128	0	incongruent	Block2	incongruent/STIM_005.jpg
1271.938	0.558	1	incongruent	Block2	incongruent/STIM_005.jpg
1275.421	1.085	1	incongruent	Block2	incongruent/STIM_005.jpg
1280.202	0.891	1	incongruent	Block2	incongruent/STIM_005.jpg
1284.425	0.58	1	incongruent	Block2	incongruent/STIM_005.jpg
1288.486	0.948	1	incongruent	Block2	incongruent/STIM_006.jpg
1291.341	0.915	1	incongruent	Block2	incongruent/STIM_006.jpg
1294.718	0.911	1	incongruent	Block2	incongruent/STIM_006.jpg
1298.542	0.929	1	incongruent	Block2	incongruent/STIM_006.jpg
1302.769	1.009	1	incongruent	Block2	incongruent/STIM_006.jpg
1306.491	1.152	1	incongruent	Block2	incongruent/STIM_007.jpg
1311.01	0.634	1	incongruent	Block2	incongruent/STIM_007.jpg
1314.649	1.154	1	incongruent	Block2	incongruent/STIM_007.jpg
1318.985	1.054	1	incongruent	Block2	incongruent/STIM_007.jpg
1322.498	1.031	1	incongruent	Block2	incongruent/STIM_007.jpg
1327.112	0.967	1	incongruent	Block2	incongruent/STIM_008.jpg
1331.98	0.992	1	incongruent	Block2	incongruent/STIM_008.jpg
1335.749	1.014	1	incongruent	Block2	incongruent/STIM_008.jpg
1339.289	0.912	1	incongruent	Block2	incongruent/STIM_008.jpg
1343.87	0.834	1	incongruent	Block2	incongruent/STIM_008.jpg
1347.007	0.921	1	incongruent	Block2	incongruent/STIM_009.jpg
1350.556	1.019	1	incongruent	Block2	incongruent/STIM_009.jpg
1353.855	0.545	1	incongruent	Block2	incongruent/STIM_009.jpg
1357.776	0.703	1	incongruent	Block2	incongruent/STIM_009.jpg
1361.168	0.662	1	incongruent	Block2	incongruent/STIM_009.jpg
1363.785	0.987	0	incongruent	Block2	incongruent/STIM_010.jpg
1367.224	0.827	1	incongruent	Block2	incongruent/STIM_010.jpg
1371.642	0.833	1	incongruent	Block2	incongruent/STIM_010.jpg
1374.615	1.143	1	incongruent	Block2	incongruent/STIM_010.jpg
1378.379	1.008	1	incongruent	Block2	incongruent/STIM_010.jpg
1383.115	1.136	1	incongruent	Block2	incongruent/STIM_011.jpg
1386.676	1.219	1	incongruent	Block2	incongruent/STIM_011.jpg
1391.599	0.969	1	incongruent	Block2	incongruent/STIM_011.jpg
1394.672	0.641	1	incongruent	Block2	incongruent/STIM_011.jpg
1397.401	0.744	1	incongruent	Block2	incongruent/STIM_011.jpg
1400.569	0.708	0	incongruent	Block2	incongruent/STIM_012.jpg
1404.295	1.165	1	incongruent	Block2	incongruent/STIM_012.jpg
1409.281	1.186	1	incongruent	Block2	incongruent/STIM_012.jpg
1413.417	0.588	1	incongruent	Block2	incongruent/STIM_012.jpg
1416.531	0.828	1	incongruent	Block2	incongruent/STIM_012.jpg
1419.499	1.285	1	incongruent	Block2	incongruent/STIM_013.jpg
1422.734	1.211	1	incongruent	Block2	incongruent/STIM_013.jpg
1427.378	0.916	1	incongruent	Block2	incongruent/STIM_013.jpg
1431.786	0.608	1	incongruent	Block2	incongruent/STIM_013.jpg
1436.154	1.068	1	incongruent	Block2	incongruent/STIM_013.jpg
1439.597	1.231	1	incongruent	Block2	incongruent/STIM_014.jpg
1443.885	0.808	1	incongruent	Block2	incongruent/STIM_014.jpg
1448.271	0.774	1	incongruent	Block2	incongruent/STIM_014.jpg
1451.47	0.673	1	incongruent	Block2	incongruent/STIM_014.jpg
1455.188	0.91	1	incongruent	Block2	incongruent/STIM_014.jpg
1459.309	0.985	1	incongruent	Block2	incongruent/STIM_015.jpg
1464.011	0.826	1	incongruent	Block2	incongruent/STIM_015.jpg
1467.472	1.16	1	incongruent	Block2	incongruent/STIM_015.jpg
1471.889	0.652	1	incongruent	Block2	incongruent/STIM_015.jpg
1476.362	0.828	1	incongruent	Block2	incongruent/STIM_015.jpg
1479.966	1.121	1	incongruent	Block2	incongruent/STIM_016.jpg
1483.059	0.863	1	incongruent	Block2	incongruent/STIM_016.jpg
1486.897	0.839	1	incongruent	Block2	incongruent/STIM_016.jpg
1491.385	0.666	1	incongruent	Block2	incongruent/STIM_016.jpg
1494.859	0.713	1	incongruent	Block2	incongruent/STIM_016.jpg
1499.54	1.138	1	incongruent	Block2	incongruent/STIM_017.jpg
1503.101	1.244	1	incongruent	Block2	incongruent/STIM_017.jpg
1507.042	0.695	1	incongruent	Block2	incongruent/STIM_017.jpg
1511.249	0.807	1	incongruent	Block2	incongruent/STIM_017.jpg
1514.973	1.073	1	incongruent	Block2	incongruent/STIM_017.jpg
1519.488	0.964	1	incongruent	Block2	incongruent/STIM_018.jpg
1523.298	0.908	1	incongruent	Block2	incongruent/STIM_018.jpg
1526.774	1.015	1	incongruent	Block2	incongruent/STIM_018.jpg
1531.329	0.504	1	incongruent	Block2	incongruent/STIM_018.jpg
1534.097	0.936	1	incongruent	Block2	incongruent/STIM_018.jpg
1538.335	0.805	1	incongruent	Block2	incongruent/STIM_019.jpg
1541.218	0.615	1	incongruent	Block2	incongruent/STIM_019.jpg
1544.023	1.143	1	incongruent	Block2	incongruent/STIM_019.jpg
1547.805	0.652	1	incongruent	Block2	incongruent/STIM_019.jpg
1551.519	0.717	1	incongruent	Block2	incongruent/STIM_019.jpg
1556.092	0.99	1	incongruent	Block2	incongruent/STIM_020.jpg
1560.09	1.258	1	incongruent	Block2	incongruent/STIM_020.jpg
1564.823	0.805	1	incongruent	Block2	incongruent/STIM_020.jpg
1568.522	1.102	1	incongruent	Block2	incongruent/STIM_020.jpg
1573.055	0.59	1	incongruent	Block2	incongruent/STIM_020.jpg
1577.125	1.355	1	incongruent	Block2	incongruent/STIM_021.jpg
1580.966	0.902	1	incongruent	Block2	incongruent/STIM_021.jpg
1585.207	0.773	1	incongruent	Block2	incongruent/STIM_021.jpg
1589.874	0.989	1	incongruent	Block2	incongruent/STIM_021.jpg
1593.24	0.631	1	incongruent	Block2	incongruent/STIM_021.jpg
1596.674	1.386	1	incongruent	Block2	incongruent/STIM_022.jpg
1601.315	1.105	0	incongruent	Block2	incongruent/STIM_022.jpg
1604.689	1.228	1	incongruent	Block2	incongruent/STIM_022.jpg
1609.351	0.618	1	incongruent	Block2	incongruent/STIM_022.jpg
1613.362	0.658	1	incongruent	Block2	incongruent/STIM_022.jpg
1616.957	1.21	1	incongruent	Block2	incongruent/STIM_023.jpg
1621.185	0.781	1	incongruent	Block2	incongruent/STIM_023.jpg
1625.336	1.14	1	incongruent	Block2	incongruent/STIM_023.jpg
1628.979	0.974	1	incongruent	Block2	incongruent/STIM_023.jpg
1632.887	0.67	1	incongruent	Block2	incongruent/STIM_023.jpg
1637.105	1.052	1	incongruent	Block2	incongruent/STIM_024.jpg
1641.119	0.651	1	incongruent	Block2	incongruent/STIM_024.jpg
1644.152	1.164	1	incongruent	Block2	incongruent/STIM_024.jpg
1649.121	1.018	1	incongruent	Block2	incongruent/STIM_024.jpg
1652.639	0.728	1	incongruent	Block2	incongruent/STIM_024.jpg
1657.302	1.102	1	incongruent	Block2	incongruent/STIM_025.jpg
1660.514	0.658	0	incongruent	Block2	incongruent/STIM_025.jpg
1663.91	0.728	1	incongruent	Block2	incongruent/STIM_025.jpg
1667.604	0.604	1	incongruent	Block2	incongruent/STIM_025.jpg
1670.436	1.061	1	incongruent	Block2	incongruent/STIM_025.jpg
1673.831	0.699	1	incongruent	Block2	incongruent/STIM_026.jpg
1678.317	0.881	1	incongruent	Block2	incongruent/STIM_026.jpg
1681.421	1.15	1	incongruent	Block2	incongruent/STIM_026.jpg
1684.874	0.55	1	incongruent	Block2	incongruent/STIM_026.jpg
1689.485	0.717	1	incongruent	Block2	incongruent/STIM_026.jpg
1693.832	1.188	1	incongruent	Block2	incongruent/STIM_027.jpg
1698.826	1.13	1	incongruent	Block2	incongruent/STIM_027.jpg
1703.651	1.178	1	incongruent	Block2	incongruent/STIM_027.jpg
1707.139	0.686	1	incongruent	Block2	incongruent/STIM_027.jpg
1711.298	0.787	0	incongruent	Block2	incongruent/STIM_027.jpg
1715.122	1.136	1	incongruent	Block2	incongruent/STIM_028.jpg
1719.099	1.27	0	incongruent	Block2	incongruent/STIM_028.jpg
1722.561	1.09	1	incongruent	Block2	incongruent/STIM_028.jpg
1726.323	0.667	1	incongruent	Block2	incongruent/STIM_028.jpg
1729.837	0.72	1	incongruent	Block2	incongruent/STIM_028.jpg
1733.142	0.789	1	incongruent	Block2	incongruent/STIM_029.jpg
1736.031	0.73	1	incongruent	Block2	incongruent/STIM_029.jpg
1740.308	0.68	1	incongruent	Block2	incongruent/STIM_029.jpg
1744.003	0.625	1	incongruent	Block2	incongruent/STIM_029.jpg
1748.395	0.897	1	incongruent	Block2	incongruent/STIM_029.jpg
1752.607	1.037	1	congruent	Block2	congruent/STIM_000.jpg
1755.601	0.907	1	congruent	Block2	congruent/STIM_000.jpg
1759.046	0.621	1	congruent	Block2	congruent/STIM_000.jpg
1762.302	0.986	1	congruent	Block2	congruent/STIM_000.jpg
1765.757	0.613	1	congruent	Block2	congruent/STIM_000.jpg
1770.247	0.843	1	congruent	Block2	congruent/STIM_001.jpg
1773.641	0.815	1	congruent	Block2	congruent/STIM_001.jpg
1777.984	0.499	1	congruent	Block2	congruent/STIM_001.jpg
1781.533	0.899	1	congruent	Block2	congruent/STIM_001.jpg
1785.388	0.981	1	congruent	Block2	congruent/STIM_001.jpg
1788.357	0.934	1	congruent	Block2	congruent/STIM_002.jpg
1792.39	0.858	1	congruent	Block2	congruent/STIM_002.jpg
1795.804	0.627	1	congruent	Block2	congruent/STIM_002.jpg
1800.212	0.827	1	congruent	Block2	congruent/STIM_002.jpg
1804.26	0.649	1	congruent	Block2	congruent/STIM_002.jpg
1808.263	0.78	1	congruent	Block2	congruent/STIM_003.jpg
1812.504	0.849	1	congruent	Block2	congruent/STIM_003.jpg
1816.947	0.865	1	congruent	Block2	congruent/STIM_003.jpg
1821.021	0.556	1	congruent	Block2	congruent/STIM_003.jpg
1824.715	0.867	1	congruent	Block2	congruent/STIM_003.jpg
1829.382	0.928	1	congruent	Block2	congruent/STIM_004.jpg
1833.335	0.607	1	congruent	Block2	congruent/STIM_004.jpg
1837.407	0.833	1	congruent	Block2	congruent/STIM_004.jpg
1840.561	0.784	1	congruent	Block2	congruent/STIM_004.jpg
1844.09	0.673	1	congruent	Block2	congruent/STIM_004.jpg
1847.04	0.861	1	congruent	Block2	congruent/STIM_005.jpg
1849.859	0.613	1	congruent	Block2	congruent/STIM_005.jpg
1854.406	0.54	1	congruent	Block2	congruent/STIM_005.jpg
1857.618	0.743	1	congruent	Block2	congruent/STIM_005.jpg
1861.024	0.942	1	congruent	Block2	congruent/STIM_005.jpg
1864.399	0.636	1	congruent	Block2	congruent/STIM_006.jpg
1866.997	0.691	1	congruent	Block2	congruent/STIM_006.jpg
1870.095	0.591	0	congruent	Block2	congruent/STIM_006.jpg
1874.281	0.646	0	congruent	Block2	congruent/STIM_006.jpg
1877.048	0.797	1	congruent	Block2	congruent/STIM_006.jpg
1880.079	0.597	1	congruent	Block2	congruent/STIM_007.jpg
1883.883	0.653	1	congruent	Block2	congruent/STIM_007.jpg
1886.792	0.836	1	congruent	Block2	congruent/STIM_007.jpg
1890.588	0.618	1	congruent	Block2	congruent/STIM_007.jpg
1894.846	0.603	1	congruent	Block2	congruent/STIM_007.jpg
1897.475	0.601	0	congruent	Block2	congruent/STIM_008.jpg
1901.844	0.806	1	congruent	Block2	congruent/STIM_008.jpg
1904.981	0.88	1	congruent	Block2	congruent/STIM_008.jpg
1908.035	0.886	1	congruent	Block2	congruent/STIM_008.jpg
1911.717	0.883	1	congruent	Block2	congruent/STIM_008.jpg
1915.273	0.836	1	congruent	Block2	congruent/STIM_009.jpg
1919.132	0.859	1	congruent	Block2	congruent/STIM_009.jpg
1923.598	0.677	1	congruent	Block2	congruent/STIM_009.jpg
1927.413	0.568	0	congruent	Block2	congruent/STIM_009.jpg
1930.779	0.779	1	congruent	Block2	congruent/STIM_009.jpg
1935.148	0.764	1	congruent	Block2	congruent/STIM_010.jpg
1937.893	0.687	1	congruent	Block2	congruent/STIM_010.jpg
1941.133	0.945	0	congruent	Block2	congruent/STIM_010.jpg
1945.595	0.602	1	congruent	Block2	congruent/STIM_010.jpg
1948.664	0.78	1	congruent	Block2	congruent/STIM_010.jpg
1951.863	0.841	1	congruent	Block2	congruent/STIM_011.jpg
1955.791	0.549	1	congruent	Block2	congruent/STIM_011.jpg
1958.754	0.576	1	congruent	Block2	congruent/STIM_011.jpg
1963.187	0.898	1	congruent	Block2	congruent/STIM_011.jpg
1966.098	0.546	1	congruent	Block2	congruent/STIM_011.jpg
1969.939	0.673	1	congruent	Block2	congruent/STIM_012.jpg
1974.412	0.903	1	congruent	Block2	congruent/STIM_012.jpg
1977.78	0.921	1	congruent	Block2	congruent/STIM_012.jpg
1981.556	0.626	0	congruent	Block2	congruent/STIM_012.jpg
1985.275	0.642	1	congruent	Block2	congruent/STIM_012.jpg
1987.952	0.797	1	congruent	Block2	congruent/STIM_013.jpg
1991.501	0.656	1	congruent	Block2	congruent/STIM_013.jpg
1995.352	0.634	1	congruent	Block2	congruent/STIM_013.jpg
1999.973	0.871	1	congruent	Block2	congruent/STIM_013.jpg
2003.853	0.627	0	congruent	Block2	congruent/STIM_013.jpg
2008.016	0.802	1	congruent	Block2	congruent/STIM_014.jpg
2010.92	0.682	1	congruent	Block2	congruent/STIM_014.jpg
2014.368	0.912	1	congruent	Block2	congruent/STIM_014.jpg
2018.76	0.889	1	congruent	Block2	congruent/STIM_014.jpg
2021.968	0.711	1	congruent	Block2	congruent/STIM_014.jpg
2026.085	0.9	1	congruent	Block2	congruent/STIM_015.jpg
2030.14	0.796	1	congruent	Block2	congruent/STIM_015.jpg
2033.037	0.812	1	congruent	Block2	congruent/STIM_015.jpg
2037.371	1.003	1	congruent	Block2	congruent/STIM_015.jpg
2040.293	0.86	1	congruent	Block2	congruent/STIM_015.jpg
2043.867	0.628	1	congruent	Block2	congruent/STIM_016.jpg
2046.659	0.835	0	congruent	Block2	congruent/STIM_016.jpg
2049.549	0.592	1	congruent	Block2	congruent/STIM_016.jpg
2052.617	0.614	1	congruent	Block2	congruent/STIM_016.jpg
2057.186	0.887	1	congruent	Block2	congruent/STIM_016.jpg
2061.961	0.781	1	congruent	Block2	congruent/STIM_017.jpg
2066.514	0.84	1	congruent	Block2	congruent/STIM_017.jpg
2069.967	0.718	1	congruent	Block2	congruent/STIM_017.jpg
2073.231	0.592	1	congruent	Block2	congruent/STIM_017.jpg
2077.682	1.028	1	congruent	Block2	congruent/STIM_017.jpg
2082.047	0.575	1	congruent	Block2	congruent/STIM_018.jpg
2085.81	0.704	1	congruent	Block2	congruent/STIM_018.jpg
2089.399	0.558	1	congruent	Block2	congruent/STIM_018.jpg
2093.185	0.91	1	congruent	Block2	congruent/STIM_018.jpg
2096.842	0.7	1	congruent	Block2	congruent/STIM_018.jpg
2100.84	0.676	1	congruent	Block2	congruent/STIM_019.jpg
2104.82	0.703	1	congruent	Block2	congruent/STIM_019.jpg
2108.825	0.85	1	congruent	Block2	congruent/STIM_019.jpg
2111.943	0.751	1	congruent	Block2	congruent/STIM_019.jpg
2116.161	0.703	1	congruent	Block2	congruent/STIM_019.jpg
2120.359	0.995	1	congruent	Block2	congruent/STIM_020.jpg
2124.867	0.834	1	congruent	Block2	congruent/STIM_020.jpg
2128.322	0.856	1	congruent	Block2	congruent/STIM_020.jpg
2131.36	0.562	1	congruent	Block2	congruent/STIM_020.jpg
2135.63	0.789	1	congruent	Block2	congruent/STIM_020.jpg
2139.238	0.657	0	congruent	Block2	congruent/STIM_021.jpg
2143.755	0.942	1	congruent	Block2	congruent/STIM_021.jpg
2148.354	0.641	1	congruent	Block2	congruent/STIM_021.jpg
2152.693	0.908	1	congruent	Block2	congruent/STIM_021.jpg
2156.539	0.536	1	congruent	Block2	congruent/STIM_021.jpg
2160.233	0.822	1	congruent	Block2	congruent/STIM_022.jpg
2163.254	0.564	1	congruent	Block2	congruent/STIM_022.jpg
2167.124	0.888	1	congruent	Block2	congruent/STIM_022.jpg
2171.037	0.785	1	congruent	Block2	congruent/STIM_022.jpg
2175.564	0.76	1	congruent	Block2	congruent/STIM_022.jpg
2179.677	0.726	1	congruent	Block2	congruent/STIM_023.jpg
2182.725	0.699	0	congruent	Block2	congruent/STIM_023.jpg
2187.058	0.894	1	congruent	Block2	congruent/STIM_023.jpg
2190.496	0.725	1	congruent	Block2	congruent/STIM_023.jpg
2195.05	0.785	0	congruent	Block2	congruent/STIM_023.jpg
2197.856	0.818	1	congruent	Block2	congruent/STIM_024.jpg
2201.77	0.529	1	congruent	Block2	congruent/STIM_024.jpg
2205.655	0.552	1	congruent	Block2	congruent/STIM_024.jpg
2210.168	0.919	1	congruent	Block2	congruent/STIM_024.jpg
2214.347	0.734	1	congruent	Block2	congruent/STIM_024.jpg
2217.279	0.871	1	congruent	Block2	congruent/STIM_025.jpg
2221.43	0.61	1	congruent	Block2	congruent/STIM_025.jpg
2225.092	0.561	1	congruent	Block2	congruent/STIM_025.jpg
2228.295	0.953	1	congruent	Block2	congruent/STIM_025.jpg
2232.883	0.753	1	congruent	Block2	congruent/STIM_025.jpg
2236.575	0.701	1	congruent	Block2	congruent/STIM_026.jpg
2239.712	0.77	1	congruent	Block2	congruent/STIM_026.jpg
2242.603	0.62	1	congruent	Block2	congruent/STIM_026.jpg
2246.937	0.808	1	congruent	Block2	congruent/STIM_026.jpg
2250.386	0.546	1	congruent	Block2	congruent/STIM_026.jpg
2253.438	0.62	1	congruent	Block2	congruent/STIM_027.jpg
2257.819	0.755	1	congruent	Block2	congruent/STIM_027.jpg
2260.618	0.77	1	congruent	Block2	congruent/STIM_027.jpg
2265.183	0.719	1	congruent	Block2	congruent/STIM_027.jpg
2269.119	0.78	1	congruent	Block2	congruent/STIM_027.jpg
2273.612	0.868	1	congruent	Block2	congruent/STIM_028.jpg
2276.947	0.908	1	congruent	Block2	congruent/STIM_028.jpg
2280.261	0.455	1	congruent	Block2	congruent/STIM_028.jpg
2284.415	0.707	1	congruent	Block2	congruent/STIM_028.jpg
2288.801	0.892	1	congruent	Block2	congruent/STIM_028.jpg
2292.99	0.731	1	congruent	Block2	congruent/STIM_029.jpg
2296.637	0.708	1	congruent	Block2	congruent/STIM_029.jpg
2300.904	0.876	1	congruent	Block2	congruent/STIM_029.jpg
2304.399	0.69	1	congruent	Block2	congruent/STIM_029.jpg
2308.337	0.515	1	congruent	Block2	congruent/STIM_029.jpg
2312.015	0.573	1	incongruent	Block3	incongruent/STIM_000.jpg
2316.081	0.6	1	incongruent	Block3	incongruent/STIM_000.jpg
2319.801	0.858	1	incongruent	Block3	incongruent/STIM_000.jpg
2323.44	1.153	1	incongruent	Block3	incongruent/STIM_000.jpg
2327.904	0.738	0	incongruent	Block3	incongruent/STIM_000.jpg
2332.388	0.608	1	incongruent	Block3	incongruent/STIM_001.jpg
2336.027	1.061	1	incongruent	Block3	incongruent/STIM_001.jpg
2340.76	0.929	1	incongruent	Block3	incongruent/STIM_001.jpg
2345.144	1.059	1	incongruent	Block3	incongruent/STIM_001.jpg
2349.116	0.755	0	incongruent	Block3	incongruent/STIM_001.jpg
2353.441	0.764	1	incongruent	Block3	incongruent/STIM_002.jpg
2357.883	0.866	1	incongruent	Block3	incongruent/STIM_002.jpg
2361.925	0.672	1	incongruent	Block3	incongruent/STIM_002.jpg
2366.193	0.92	0	incongruent	Block3	incongruent/STIM_002.jpg
2370.538	1.025	1	incongruent	Block3	incongruent/STIM_002.jpg
2374.424	0.921	1	incongruent	Block3	incongruent/STIM_003.jpg
2377.795	0.527	1	incongruent	Block3	incongruent/STIM_003.jpg
2381.37	0.766	1	incongruent	Block3	incongruent/STIM_003.jpg
2384.502	0.574	1	incongruent	Block3	incongruent/STIM_003.jpg
2387.771	0.684	1	incongruent	Block3	incongruent/STIM_003.jpg
2391.81	1.138	1	incongruent	Block3	incongruent/STIM_004.jpg
2396.35	0.741	0	incongruent	Block3	incongruent/STIM_004.jpg
2400.816	0.996	1	incongruent	Block3	incongruent/STIM_004.jpg
2404.999	0.625	1	incongruent	Block3	incongruent/STIM_004.jpg
2408.722	0.687	1	incongruent	Block3	incongruent/STIM_004.jpg
2411.344	0.661	1	incongruent	Block3	incongruent/STIM_005.jpg
2414.136	0.915	1	incongruent	Block3	incongruent/STIM_005.jpg
2418.45	0.951	1	incongruent	Block3	incongruent/STIM_005.jpg
2422.189	1.08	1	incongruent	Block3	incongruent/STIM_005.jpg
2426.105	0.955	1	incongruent	Block3	incongruent/STIM_005.jpg
2429.097	0.942	1	incongruent	Block3	incongruent/STIM_006.jpg
2433.823	0.545	1	incongruent	Block3	incongruent/STIM_006.jpg
2437.397	0.775	1	incongruent	Block3	incongruent/STIM_006.jpg
2440.426	0.796	0	incongruent	Block3	incongruent/STIM_006.jpg
2443.816	0.499	1	incongruent	Block3	incongruent/STIM_006.jpg
2448.035	0.792	1	incongruent	Block3	incongruent/STIM_007.jpg
2451.452	1.052	1	incongruent	Block3	incongruent/STIM_007.jpg
2455.201	0.872	1	incongruent	Block3	incongruent/STIM_007.jpg
2458.835	0.968	1	incongruent	Block3	incongruent/STIM_007.jpg
2462.839	0.871	1	incongruent	Block3	incongruent/STIM_007.jpg
2466.134	0.558	1	incongruent	Block3	incongruent/STIM_008.jpg
2470.293	0.664	1	incongruent	Block3	incongruent/STIM_008.jpg
2474.013	1.039	1	incongruent	Block3	incongruent/STIM_008.jpg
2477.477	0.721	1	incongruent	Block3	incongruent/STIM_008.jpg
2480.485	0.63	1	incongruent	Block3	incongruent/STIM_008.jpg
2484.424	0.61	1	incongruent	Block3	incongruent/STIM_009.jpg
2488.243	0.862	1	incongruent	Block3	incongruent/STIM_009.jpg
2492.29	0.848	1	incongruent	Block3	incongruent/STIM_009.jpg
2496.728	0.802	1	incongruent	Block3	incongruent/STIM_009.jpg
2500.458	0.892	1	incongruent	Block3	incongruent/STIM_009.jpg
2504.62	0.692	1	incongruent	Block3	incongruent/STIM_010.jpg
2509.046	0.634	1	incongruent	Block3	incongruent/STIM_010.jpg
2512.449	0.768	1	incongruent	Block3	incongruent/STIM_010.jpg
2516.476	1.074	1	incongruent	Block3	incongruent/STIM_010.jpg
2519.966	0.752	1	incongruent	Block3	incongruent/STIM_010.jpg
2524.027	1.08	1	incongruent	Block3	incongruent/STIM_011.jpg
2527.991	1.018	1	incongruent	Block3	incongruent/STIM_011.jpg
2531.465	0.681	1	incongruent	Block3	incongruent/STIM_011.jpg
2535.183	1.125	1	incongruent	Block3	incongruent/STIM_011.jpg
2539.863	0.883	0	incongruent	Block3	incongruent/STIM_011.jpg
2543.518	0.554	1	incongruent	Block3	incongruent/STIM_012.jpg
2547.409	0.969	1	incongruent	Block3	incongruent/STIM_012.jpg
2551.542	1.028	1	incongruent	Block3	incongruent/STIM_012.jpg
2555.555	0.824	1	incongruent	Block3	incongruent/STIM_012.jpg
2559.019	0.66	1	incongruent	Block3	incongruent/STIM_012.jpg
2562.104	0.671	1	incongruent	Block3	incongruent/STIM_013.jpg
2565.795	0.669	1	incongruent	Block3	incongruent/STIM_013.jpg
2569.098	0.613	1	incongruent	Block3	incongruent/STIM_013.jpg
2573.493	0.905	1	incongruent	Block3	incongruent/STIM_013.jpg
2577.327	0.677	1	incongruent	Block3	incongruent/STIM_013.jpg
2580.759	0.861	1	incongruent	Block3	incongruent/STIM_014.jpg
2584.525	1.063	1	incongruent	Block3	incongruent/STIM_014.jpg
2588.759	0.6	1	incongruent	Block3	incongruent/STIM_014.jpg
2591.918	0.979	1	incongruent	Block3	incongruent/STIM_014.jpg
2596.224	0.706	1	incongruent	Block3	incongruent/STIM_014.jpg
2598.984	0.502	1	incongruent	Block3	incongruent/STIM_015.jpg
2603.148	1.203	1	incongruent	Block3	incongruent/STIM_015.jpg
2606.887	1.164	1	incongruent	Block3	incongruent/STIM_015.jpg
2610.409	0.933	1	incongruent	Block3	incongruent/STIM_015.jpg
2613.904	0.842	1	incongruent	Block3	incongruent/STIM_015.jpg
2617.068	0.734	1	incongruent	Block3	incongruent/STIM_016.jpg
2621.128	0.804	1	incongruent	Block3	incongruent/STIM_016.jpg
2624.968	0.952	1	incongruent	Block3	incongruent/STIM_016.jpg
2628.967	0.812	1	incongruent	Block3	incongruent/STIM_016.jpg
2632.324	1.064	1	incongruent	Block3	incongruent/STIM_016.jpg
2636.881	0.828	1	incongruent	Block3	incongruent/STIM_017.jpg
2639.982	0.948	1	incongruent	Block3	incongruent/STIM_017.jpg
2644.407	0.923	1	incongruent	Block3	incongruent/STIM_017.jpg
2648.005	1.038	1	incongruent	Block3	incongruent/STIM_017.jpg
2651.02	1.123	1	incongruent	Block3	incongruent/STIM_017.jpg
2654.174	0.66	1	incongruent	Block3	incongruent/STIM_018.jpg
2657.489	0.834	1	incongruent	Block3	incongruent/STIM_018.jpg
2661.054	0.934	1	incongruent	Block3	incongruent/STIM_018.jpg
2664.544	0.842	1	incongruent	Block3	incongruent/STIM_018.jpg
2667.577	0.702	1	incongruent	Block3	incongruent/STIM_018.jpg
2671.0	0.778	1	incongruent	Block3	incongruent/STIM_019.jpg
2675.697	0.833	1	incongruent	Block3	incongruent/STIM_019.jpg
2679.755	1.091	1	incongruent	Block3	incongruent/STIM_019.jpg
2683.451	0.667	1	incongruent	Block3	incongruent/STIM_019.jpg
2687.127	0.942	1	incongruent	Block3	incongruent/STIM_019.jpg
2690.356	0.881	1	incongruent	Block3	incongruent/STIM_020.jpg
2693.931	0.726	1	incongruent	Block3	incongruent/STIM_020.jpg
2696.786	0.797	1	incongruent	Block3	incongruent/STIM_020.jpg
2700.815	0.964	1	incongruent	Block3	incongruent/STIM_020.jpg
2704.19	0.484	1	incongruent	Block3	incongruent/STIM_020.jpg
2707.682	1.075	0	incongruent	Block3	incongruent/STIM_021.jpg
2711.131	0.989	1	incongruent	Block3	incongruent/STIM_021.jpg
2715.318	0.54	1	incongruent	Block3	incongruent/STIM_021.jpg
2719.026	0.997	1	incongruent	Block3	incongruent/STIM_021.jpg
2721.97	0.736	1	incongruent	Block3	incongruent/STIM_021.jpg
2726.343	1.143	1	incongruent	Block3	incongruent/STIM_022.jpg
2731.294	0.928	1	incongruent	Block3	incongruent/STIM_022.jpg
2734.421	0.887	1	incongruent	Block3	incongruent/STIM_022.jpg
2738.668	0.82	1	incongruent	Block3	incongruent/STIM_022.jpg
2741.693	0.648	1	incongruent	Block3	incongruent/STIM_022.jpg
2745.259	0.694	1	incongruent	Block3	incongruent/STIM_023.jpg
2749.393	0.702	1	incongruent	Block3	incongruent/STIM_023.jpg
2754.079	0.705	1	incongruent	Block3	incongruent/STIM_023.jpg
2757.769	1.082	1	incongruent	Block3	incongruent/STIM_023.jpg
2762.116	1.073	1	incongruent	Block3	incongruent/STIM_023.jpg
2765.519	1.022	1	incongruent	Block3	incongruent/STIM_024.jpg
2769.854	0.929	1	incongruent	Block3	incongruent/STIM_024.jpg
2773.494	0.938	1	incongruent	Block3	incongruent/STIM_024.jpg
2777.553	1.025	0	incongruent	Block3	incongruent/STIM_024.jpg
2781.545	0.715	1	incongruent	Block3	incongruent/STIM_024.jpg
2785.722	0.89	1	incongruent	Block3	incongruent/STIM_025.jpg
2789.403	0.749	1	incongruent	Block3	incongruent/STIM_025.jpg
2793.563	0.709	1	incongruent	Block3	incongruent/STIM_025.jpg
2796.576	0.568	1	incongruent	Block3	incongruent/STIM_025.jpg
2800.716	0.955	1	incongruent	Block3	incongruent/STIM_025.jpg
2803.951	0.854	1	incongruent	Block3	incongruent/STIM_026.jpg
2808.533	0.925	1	incongruent	Block3	incongruent/STIM_026.jpg
2813.397	1.082	1	incongruent	Block3	incongruent/STIM_026.jpg
2817.036	0.677	1	incongruent	Block3	incongruent/STIM_026.jpg
2820.819	1.11	0	incongruent	Block3	incongruent/STIM_026.jpg
2825.37	0.948	1	incongruent	Block3	incongruent/STIM_027.jpg
2829.424	0.539	1	incongruent	Block3	incongruent/STIM_027.jpg
2833.801	1.045	1	incongruent	Block3	incongruent/STIM_027.jpg
2838.01	1.008	1	incongruent	Block3	incongruent/STIM_027.jpg
2842.21	0.989	1	incongruent	Block3	incongruent/STIM_027.jpg
2845.442	0.517	1	incongruent	Block3	incongruent/STIM_028.jpg
2848.543	0.84	1	incongruent	Block3	incongruent/STIM_028.jpg
2853.297	0.828	1	incongruent	Block3	incongruent/STIM_028.jpg
2856.202	0.623	1	incongruent	Block3	incongruent/STIM_028.jpg
2860.718	0.719	1	incongruent	Block3	incongruent/STIM_028.jpg
2864.516	0.672	1	incongruent	Block3	incongruent/STIM_029.jpg
2867.817	0.745	1	incongruent	Block3	incongruent/STIM_029.jpg
2872.454	0.851	1	incongruent	Block3	incongruent/STIM_029.jpg
2876.713	1.087	1	incongruent	Block3	incongruent/STIM_029.jpg
2879.748	0.671	1	incongruent	Block3	incongruent/STIM_029.jpg
2884.137	0.652	1	congruent	Block3	congruent/STIM_000.jpg
2888.124	0.982	1	congruent	Block3	congruent/STIM_000.jpg
2892.682	0.507	1	congruent	Block3	congruent/STIM_000.jpg
2895.942	0.76	1	congruent	Block3	congruent/STIM_000.jpg
2898.847	0.837	1	congruent	Block3	congruent/STIM_000.jpg
2902.427	0.57	1	congruent	Block3	congruent/STIM_001.jpg
2905.558	0.59	1	congruent	Block3	congruent/STIM_001.jpg
2909.87	0.739	1	congruent	Block3	congruent/STIM_001.jpg
2913.003	0.979	1	congruent	Block3	congruent/STIM_001.jpg
2916.746	0.772	1	congruent	Block3	congruent/STIM_001.jpg
2920.339	0.787	1	congruent	Block3	congruent/STIM_002.jpg
2923.405	0.624	1	congruent	Block3	congruent/STIM_002.jpg
2927.905	0.887	0	congruent	Block3	congruent/STIM_002.jpg
2931.139	0.973	1	congruent	Block3	congruent/STIM_002.jpg
2935.5	0.902	0	congruent	Block3	congruent/STIM_002.jpg
2939.488	0.518	1	congruent	Block3	congruent/STIM_003.jpg
2943.365	0.733	1	congruent	Block3	congruent/STIM_003.jpg
2946.547	0.672	1	congruent	Block3	congruent/STIM_003.jpg
2949.62	0.723	1	congruent	Block3	congruent/STIM_003.jpg
2952.804	0.606	1	congruent	Block3	congruent/STIM_003.jpg
2955.949	0.784	1	congruent	Block3	congruent/STIM_004.jpg
2958.678	0.694	0	congruent	Block3	congruent/STIM_004.jpg
2962.213	0.838	1	congruent	Block3	congruent/STIM_004.jpg
2966.456	0.531	1	congruent	Block3	congruent/STIM_004.jpg
2969.223	0.638	1	congruent	Block3	congruent/STIM_004.jpg
2973.724	0.908	1	congruent	Block3	congruent/STIM_005.jpg
2978.283	0.621	1	congruent	Block3	congruent/STIM_005.jpg
2982.252	0.951	1	congruent	Block3	congruent/STIM_005.jpg
2986.077	0.839	1	congruent	Block3	congruent/STIM_005.jpg
2990.55	0.616	1	congruent	Block3	congruent/STIM_005.jpg
2993.24	0.774	1	congruent	Block3	congruent/STIM_006.jpg
2996.694	0.633	1	congruent	Block3	congruent/STIM_006.jpg
3001.094	0.805	1	congruent	Block3	congruent/STIM_006.jpg
3004.385	0.78	1	congruent	Block3	congruent/STIM_006.jpg
3007.794	0.61	1	congruent	Block3	congruent/STIM_006.jpg
3010.827	0.9	1	congruent	Block3	congruent/STIM_007.jpg
3014.794	0.905	1	congruent	Block3	congruent/STIM_007.jpg
3019.167	0.87	1	congruent	Block3	congruent/STIM_007.jpg
3023.388	0.838	1	congruent	Block3	congruent/STIM_007.jpg
3027.429	0.746	1	congruent	Block3	congruent/STIM_007.jpg
3031.053	1.037	1	congruent	Block3	congruent/STIM_008.jpg
3035.812	0.63	1	congruent	Block3	congruent/STIM_008.jpg
3038.573	0.923	0	congruent	Block3	congruent/STIM_008.jpg
3041.839	0.774	1	congruent	Block3	congruent/STIM_008.jpg
3045.386	0.907	1	congruent	Block3	congruent/STIM_008.jpg
3048.974	0.876	1	congruent	Block3	congruent/STIM_009.jpg
3053.613	0.778	1	congruent	Block3	congruent/STIM_009.jpg
3056.318	0.727	1	congruent	Block3	congruent/STIM_009.jpg
3059.336	0.817	1	congruent	Block3	congruent/STIM_009.jpg
3063.705	0.591	1	congruent	Block3	congruent/STIM_009.jpg
3067.821	0.682	1	congruent	Block3	congruent/STIM_010.jpg
3070.731	0.95	1	congruent	Block3	congruent/STIM_010.jpg
3074.199	0.811	1	congruent	Block3	congruent/STIM_010.jpg
3077.134	0.846	1	congruent	Block3	congruent/STIM_010.jpg
3081.452	0.739	1	congruent	Block3	congruent/STIM_010.jpg
3085.729	0.806	1	congruent	Block3	congruent/STIM_011.jpg
3090.026	0.904	1	congruent	Block3	congruent/STIM_011.jpg
3094.507	0.814	1	congruent	Block3	congruent/STIM_011.jpg
3098.906	0.884	1	congruent	Block3	congruent/STIM_011.jpg
3103.514	0.878	1	congruent	Block3	congruent/STIM_011.jpg
3107.432	0.832	1	congruent	Block3	congruent/STIM_012.jpg
3111.648	0.585	1	congruent	Block3	congruent/STIM_012.jpg
3115.616	0.875	1	congruent	Block3	congruent/STIM_012.jpg
3120.076	0.695	1	congruent	Block3	congruent/STIM_012.jpg
3123.318	0.713	0	congruent	Block3	congruent/STIM_012.jpg
3126.859	0.939	1	congruent	Block3	congruent/STIM_013.jpg
3131.656	0.603	1	congruent	Block3	congruent/STIM_013.jpg
3134.573	0.853	1	congruent	Block3	congruent/STIM_013.jpg
3138.458	0.873	1	congruent	Block3	congruent/STIM_013.jpg
3142.359	0.582	1	congruent	Block3	congruent/STIM_013.jpg
3146.445	0.934	1	congruent	Block3	congruent/STIM_014.jpg
3151.279	0.798	1	congruent	Block3	congruent/STIM_014.jpg
3155.943	0.632	1	congruent	Block3	congruent/STIM_014.jpg
3159.521	0.85	1	congruent	Block3	congruent/STIM_014.jpg
3163.151	0.61	1	congruent	Block3	congruent/STIM_014.jpg
3166.475	0.602	1	congruent	Block3	congruent/STIM_015.jpg
3169.529	0.732	1	congruent	Block3	congruent/STIM_015.jpg
3172.294	0.986	1	congruent	Block3	congruent/STIM_015.jpg
3175.7	0.886	1	congruent	Block3	congruent/STIM_015.jpg
3179.253	0.829	1	congruent	Block3	congruent/STIM_015.jpg
3183.454	0.928	1	congruent	Block3	congruent/STIM_016.jpg
3186.642	0.816	1	congruent	Block3	congruent/STIM_016.jpg
3190.471	0.557	1	congruent	Block3	congruent/STIM_016.jpg
3193.64	0.739	1	congruent	Block3	congruent/STIM_016.jpg
3197.651	0.964	1	congruent	Block3	congruent/STIM_016.jpg
3201.064	0.939	1	congruent	Block3	congruent/STIM_017.jpg
3205.151	0.826	1	congruent	Block3	congruent/STIM_017.jpg
3208.544	0.706	1	congruent	Block3	congruent/STIM_017.jpg
3212.839	0.704	1	congruent	Block3	congruent/STIM_017.jpg
3216.545	1.007	1	congruent	Block3	congruent/STIM_017.jpg
3220.676	0.603	1	congruent	Block3	congruent/STIM_018.jpg
3224.368	0.934	1	congruent	Block3	congruent/STIM_018.jpg
3229.238	0.883	1	congruent	Block3	congruent/STIM_018.jpg
3232.136	0.929	1	congruent	Block3	congruent/STIM_018.jpg
3235.054	0.728	1	congruent	Block3	congruent/STIM_018.jpg
3237.954	0.892	1	congruent	Block3	congruent/STIM_019.jpg
3241.923	0.886	1	congruent	Block3	congruent/STIM_019.jpg
3246.35	0.543	0	congruent	Block3	congruent/STIM_019.jpg
3250.624	0.844	1	congruent	Block3	congruent/STIM_019.jpg
3254.726	0.855	1	congruent	Block3	congruent/STIM_019.jpg
3258.592	0.54	1	congruent	Block3	congruent/STIM_020.jpg
3261.141	0.565	1	congruent	Block3	congruent/STIM_020.jpg
3265.065	0.851	1	congruent	Block3	congruent/STIM_020.jpg
3268.372	0.872	1	congruent	Block3	congruent/STIM_020.jpg
3271.789	0.716	1	congruent	Block3	congruent/STIM_020.jpg
3276.497	0.851	1	congruent	Block3	congruent/STIM_021.jpg
3279.592	0.593	1	congruent	Block3	congruent/STIM_021.jpg
3283.013	0.84	1	congruent	Block3	congruent/STIM_021.jpg
3287.445	0.825	1	congruent	Block3	congruent/STIM_021.jpg
3290.194	0.776	1	congruent	Block3	congruent/STIM_021.jpg
3294.902	0.738	1	congruent	Block3	congruent/STIM_022.jpg
3298.504	0.768	1	congruent	Block3	congruent/STIM_022.jpg
3302.353	0.771	1	congruent	Block3	congruent/STIM_022.jpg
3307.011	0.709	1	congruent	Block3	congruent/STIM_022.jpg
3310.212	0.95	1	congruent	Block3	congruent/STIM_022.jpg
3314.415	0.894	1	congruent	Block3	congruent/STIM_023.jpg
3317.993	0.953	1	congruent	Block3	congruent/STIM_023.jpg
3321.026	0.861	1	congruent	Block3	congruent/STIM_023.jpg
3325.118	0.782	0	congruent	Block3	congruent/STIM_023.jpg
3328.569	0.655	1	congruent	Block3	congruent/STIM_023.jpg
3332.543	0.892	1	congruent	Block3	congruent/STIM_024.jpg
3335.937	0.84	1	congruent	Block3	congruent/STIM_024.jpg
3340.578	0.692	1	congruent	Block3	congruent/STIM_024.jpg
3343.243	0.514	1	congruent	Block3	congruent/STIM_024.jpg
3346.563	1.026	1	congruent	Block3	congruent/STIM_024.jpg
3349.48	0.701	1	congruent	Block3	congruent/STIM_025.jpg
3353.166	0.736	1	congruent	Block3	congruent/STIM_025.jpg
3356.004	0.546	1	congruent	Block3	congruent/STIM_025.jpg
3360.052	0.686	1	congruent	Block3	congruent/STIM_025.jpg
3363.388	0.798	1	congruent	Block3	congruent/STIM_025.jpg
3367.438	0.509	1	congruent	Block3	congruent/STIM_026.jpg
3371.746	0.824	1	congruent	Block3	congruent/STIM_026.jpg
3374.913	0.834	1	congruent	Block3	congruent/STIM_026.jpg
3379.252	0.87	1	congruent	Block3	congruent/STIM_026.jpg
3382.539	0.805	1	congruent	Block3	congruent/STIM_026.jpg
3386.366	0.697	1	congruent	Block3	congruent/STIM_027.jpg
3390.902	0.656	1	congruent	Block3	congruent/STIM_027.jpg
3393.844	0.551	1	congruent	Block3	congruent/STIM_027.jpg
3396.884	0.643	1	congruent	Block3	congruent/STIM_027.jpg
3400.971	0.707	1	congruent	Block3	congruent/STIM_027.jpg
3404.99	0.818	1	congruent	Block3	congruent/STIM_028.jpg
3409.414	0.7	1	congruent	Block3	congruent/STIM_028.jpg
3413.049	0.811	1	congruent	Block3	congruent/STIM_028.jpg
3417.634	0.906	1	congruent	Block3	congruent/STIM_028.jpg
3420.553	0.665	1	congruent	Block3	congruent/STIM_028.jpg
3423.359	0.689	1	congruent	Block3	congruent/STIM_029.jpg
3426.616	0.751	1	congruent	Block3	congruent/STIM_029.jpg
3429.353	0.889	1	congruent	Block3	congruent/STIM_029.jpg
3432.553	0.788	1	congruent	Block3	congruent/STIM_029.jpg
3436.223	0.845	1	congruent	Block3	congruent/STIM_029.jpg
