onset	duration	accuracy_binary	trial_type	learning_stage	stimulus
0.0	4.088	0	navigation	Trial1	navigation/STIM_000.jpg
8.013	2.584	1	navigation	Trial1	navigation/STIM_000.jpg
14.027	3.456	1	navigation	Trial1	navigation/STIM_000.jpg
19.754	2.548	1	navigation	Trial1	navigation/STIM_000.jpg
24.617	3.2	1	navigation	Trial1	navigation/STIM_000.jpg
31.696	3.151	1	navigation	Trial1	navigation/STIM_000.jpg
38.612	3.098	1	navigation	Trial1	navigation/STIM_001.jpg
43.733	3.416	1	navigation	Trial1	navigation/STIM_001.jpg
50.907	2.168	1	navigation	Trial1	navigation/STIM_001.jpg
56.653	2.153	1	navigation	Trial1	navigation/STIM_001.jpg
61.023	3.253	1	navigation	Trial1	navigation/STIM_001.jpg
67.067	3.542	1	navigation	Trial1	navigation/STIM_001.jpg
74.272	4.669	1	navigation	Trial1	navigation/STIM_002.jpg
82.205	4.056	1	navigation	Trial1	navigation/STIM_002.jpg
89.463	2.16	1	navigation	Trial1	navigation/STIM_002.jpg
94.458	3.37	1	navigation	Trial1	navigation/STIM_002.jpg
101.189	2.096	1	navigation	Trial1	navigation/STIM_002.jpg
105.363	3.623	1	navigation	Trial1	navigation/STIM_002.jpg
112.475	3.668	1	navigation	Trial1	navigation/STIM_003.jpg
118.792	4.104	1	navigation	Trial1	navigation/STIM_003.jpg
125.353	1.94	0	navigation	Trial1	navigation/STIM_003.jpg
131.198	2.493	1	navigation	Trial1	navigation/STIM_003.jpg
137.333	3.445	1	navigation	Trial1	navigation/STIM_003.jpg
143.083	2.414	1	navigation	Trial1	navigation/STIM_003.jpg
148.748	2.997	1	navigation	Trial1	navigation/STIM_004.jpg
154.359	4.186	1	navigation	Trial1	navigation/STIM_004.jpg
161.431	4.12	1	navigation	Trial1	navigation/STIM_004.jpg
168.317	2.45	1	navigation	Trial1	navigation/STIM_004.jpg
173.441	3.685	1	navigation	Trial1	navigation/STIM_004.jpg
179.307	2.924	1	navigation	Trial1	navigation/STIM_004.jpg
184.919	2.907	1	navigation	Trial1	navigation/STIM_005.jpg
189.966	2.625	0	navigation	Trial1	navigation/STIM_005.jpg
196.333	4.444	1	navigation	Trial1	navigation/STIM_005.jpg
204.403	3.764	1	navigation	Trial1	navigation/STIM_005.jpg
210.927	3.57	1	navigation	Trial1	navigation/STIM_005.jpg
217.236	1.684	1	navigation	Trial1	navigation/STIM_005.jpg
222.164	2.796	1	navigation	Trial1	navigation/STIM_006.jpg
227.824	2.406	1	navigation	Trial1	navigation/STIM_006.jpg
233.389	1.812	1	navigation	Trial1	navigation/STIM_006.jpg
237.207	2.923	1	navigation	Trial1	navigation/STIM_006.jpg
243.026	1.992	1	navigation	Trial1	navigation/STIM_006.jpg
248.58	2.399	1	navigation	Trial1	navigation/STIM_006.jpg
253.487	2.28	1	navigation	Trial1	navigation/STIM_007.jpg
257.95	4.545	1	navigation	Trial1	navigation/STIM_007.jpg
265.936	3.561	1	navigation	Trial1	navigation/STIM_007.jpg
271.778	4.073	1	navigation	Trial1	navigation/STIM_007.jpg
278.133	2.045	1	navigation	Trial1	navigation/STIM_007.jpg
282.41	2.248	1	navigation	Trial1	navigation/STIM_007.jpg
286.95	4.042	1	navigation	Trial1	navigation/STIM_008.jpg
294.612	3.851	1	navigation	Trial1	navigation/STIM_008.jpg
302.341	3.935	1	navigation	Trial1	navigation/STIM_008.jpg
309.356	3.854	1	navigation	Trial1	navigation/STIM_008.jpg
316.588	3.942	1	navigation	Trial1	navigation/STIM_008.jpg
324.237	2.123	0	navigation	Trial1	navigation/STIM_008.jpg
329.584	2.522	1	navigation	Trial1	navigation/STIM_009.jpg
335.717	4.477	0	navigation	Trial1	navigation/STIM_009.jpg
343.357	4.007	1	navigation	Trial1	navigation/STIM_009.jpg
349.45	2.063	1	navigation	Trial1	navigation/STIM_009.jpg
353.794	2.113	1	navigation	Trial1	navigation/STIM_009.jpg
359.736	3.043	1	navigation	Trial1	navigation/STIM_009.jpg
366.236	3.805	1	navigation	Trial1	navigation/STIM_010.jpg
372.911	3.011	1	navigation	Trial1	navigation/STIM_010.jpg
379.889	3.742	1	navigation	Trial1	navigation/STIM_010.jpg
386.969	2.105	1	navigation	Trial1	navigation/STIM_010.jpg
392.905	1.641	1	navigation	Trial1	navigation/STIM_010.jpg
397.227	2.026	1	navigation	Trial1	navigation/STIM_010.jpg
401.717	2.123	1	navigation	Trial1	navigation/STIM_011.jpg
406.873	2.352	1	navigation	Trial1	navigation/STIM_011.jpg
412.604	2.824	1	navigation	Trial1	navigation/STIM_011.jpg
418.93	4.127	1	navigation	Trial1	navigation/STIM_011.jpg
426.203	3.505	1	navigation	Trial1	navigation/STIM_011.jpg
432.135	1.678	1	navigation	Trial1	navigation/STIM_011.jpg
437.412	1.334	1	pointing	Trial1	pointing/STIM_000.jpg
441.361	1.306	1	pointing	Trial1	pointing/STIM_000.jpg
444.813	1.356	1	pointing	Trial1	pointing/STIM_000.jpg
449.074	1.052	1	pointing	Trial1	pointing/STIM_000.jpg
453.07	1.177	1	pointing	Trial1	pointing/STIM_000.jpg
457.762	0.975	1	pointing	Trial1	pointing/STIM_000.jpg
461.774	1.296	1	pointing	Trial1	pointing/STIM_001.jpg
466.157	0.964	1	pointing	Trial1	pointing/STIM_001.jpg
470.343	1.149	1	pointing	Trial1	pointing/STIM_001.jpg
475.331	1.146	1	pointing	Trial1	pointing/STIM_001.jpg
479.455	0.984	1	pointing	Trial1	pointing/STIM_001.jpg
484.123	0.868	1	pointing	Trial1	pointing/STIM_001.jpg
488.345	1.43	1	pointing	Trial1	pointing/STIM_002.jpg
492.719	0.903	1	pointing	Trial1	pointing/STIM_002.jpg
497.459	1.23	1	pointing	Trial1	pointing/STIM_002.jpg
501.194	1.114	1	pointing	Trial1	pointing/STIM_002.jpg
504.632	1.031	1	pointing	Trial1	pointing/STIM_002.jpg
508.254	1.31	1	pointing	Trial1	pointing/STIM_002.jpg
513.277	1.093	1	pointing	Trial1	pointing/STIM_003.jpg
518.367	1.175	1	pointing	Trial1	pointing/STIM_003.jpg
522.75	0.935	1	pointing	Trial1	pointing/STIM_003.jpg
527.314	1.228	1	pointing	Trial1	pointing/STIM_003.jpg
532.01	0.986	1	pointing	Trial1	pointing/STIM_003.jpg
536.711	1.4	1	pointing	Trial1	pointing/STIM_003.jpg
541.645	0.826	1	pointing	Trial1	pointing/STIM_004.jpg
545.977	1.301	1	pointing	Trial1	pointing/STIM_004.jpg
549.949	1.35	1	pointing	Trial1	pointing/STIM_004.jpg
554.416	0.944	1	pointing	Trial1	pointing/STIM_004.jpg
557.514	1.447	1	pointing	Trial1	pointing/STIM_004.jpg
561.279	0.924	1	pointing	Trial1	pointing/STIM_004.jpg
565.145	1.316	1	pointing	Trial1	pointing/STIM_005.jpg
569.275	1.454	1	pointing	Trial1	pointing/STIM_005.jpg
573.705	0.896	0	pointing	Trial1	pointing/STIM_005.jpg
577.679	0.795	1	pointing	Trial1	pointing/STIM_005.jpg
581.119	1.104	1	pointing	Trial1	pointing/STIM_005.jpg
585.924	0.885	1	pointing	Trial1	pointing/STIM_005.jpg
590.631	1.225	1	pointing	Trial1	pointing/STIM_006.jpg
595.424	1.342	1	pointing	Trial1	pointing/STIM_006.jpg
599.756	0.944	1	pointing	Trial1	pointing/STIM_006.jpg
604.292	1.03	1	pointing	Trial1	pointing/STIM_006.jpg
607.789	1.139	1	pointing	Trial1	pointing/STIM_006.jpg
612.455	1.151	1	pointing	Trial1	pointing/STIM_006.jpg
617.383	1.426	1	pointing	Trial1	pointing/STIM_007.jpg
622.153	0.97	1	pointing	Trial1	pointing/STIM_007.jpg
626.568	0.967	0	pointing	Trial1	pointing/STIM_007.jpg
629.582	0.981	1	pointing	Trial1	pointing/STIM_007.jpg
634.031	0.792	1	pointing	Trial1	pointing/STIM_007.jpg
637.603	1.379	1	pointing	Trial1	pointing/STIM_007.jpg
641.492	1.454	1	pointing	Trial1	pointing/STIM_008.jpg
644.955	0.968	1	pointing	Trial1	pointing/STIM_008.jpg
648.675	1.38	1	pointing	Trial1	pointing/STIM_008.jpg
653.682	1.282	1	pointing	Trial1	pointing/STIM_008.jpg
658.57	1.155	1	pointing	Trial1	pointing/STIM_008.jpg
662.579	1.199	1	pointing	Trial1	pointing/STIM_008.jpg
666.573	1.446	1	pointing	Trial1	pointing/STIM_009.jpg
670.509	0.843	1	pointing	Trial1	pointing/STIM_009.jpg
674.348	0.897	1	pointing	Trial1	pointing/STIM_009.jpg
679.243	1.267	1	pointing	Trial1	pointing/STIM_009.jpg
682.739	1.212	1	pointing	Trial1	pointing/STIM_009.jpg
687.795	1.257	1	pointing	Trial1	pointing/STIM_009.jpg
691.387	1.368	1	pointing	Trial1	pointing/STIM_010.jpg
695.535	1.04	1	pointing	Trial1	pointing/STIM_010.jpg
699.76	1.167	1	pointing	Trial1	pointing/STIM_010.jpg
703.51	0.999	1	pointing	Trial1	pointing/STIM_010.jpg
707.164	0.838	1	pointing	Trial1	pointing/STIM_010.jpg
710.141	1.396	1	pointing	Trial1	pointing/STIM_010.jpg
714.603	1.273	1	pointing	Trial1	pointing/STIM_011.jpg
718.55	0.795	1	pointing	Trial1	pointing/STIM_011.jpg
722.523	1.37	1	pointing	Trial1	pointing/STIM_011.jpg
727.324	0.986	1	pointing	Trial1	pointing/STIM_011.jpg
730.321	1.455	1	pointing	Trial1	pointing/STIM_011.jpg
733.796	1.34	1	pointing	Trial1	pointing/STIM_011.jpg
738.848	2.22	1	navigation	Trial2	navigation/STIM_000.jpg
743.55	2.441	1	navigation	Trial2	navigation/STIM_000.jpg
749.307	3.35	1	navigation	Trial2	navigation/STIM_000.jpg
754.837	2.326	1	navigation	Trial2	navigation/STIM_000.jpg
760.205	2.496	1	navigation	Trial2	navigation/STIM_000.jpg
765.917	2.495	1	navigation	Trial2	navigation/STIM_000.jpg
771.588	3.375	1	navigation	Trial2	navigation/STIM_001.jpg
778.613	3.283	1	navigation	Trial2	navigation/STIM_001.jpg
785.399	2.559	1	navigation	Trial2	navigation/STIM_001.jpg
791.914	2.511	1	navigation	Trial2	navigation/STIM_001.jpg
796.557	1.763	1	navigation	Trial2	navigation/STIM_001.jpg
800.36	1.502	1	navigation	Trial2	navigation/STIM_001.jpg
804.768	1.775	1	navigation	Trial2	navigation/STIM_002.jpg
809.813	3.386	1	navigation	Trial2	navigation/STIM_002.jpg
815.996	3.002	1	navigation	Trial2	navigation/STIM_002.jpg
822.054	1.39	1	navigation	Trial2	navigation/STIM_002.jpg
825.94	2.315	1	navigation	Trial2	navigation/STIM_002.jpg
830.561	2.582	1	navigation	Trial2	navigation/STIM_002.jpg
835.398	3.599	1	navigation	Trial2	navigation/STIM_003.jpg
842.568	3.044	1	navigation	Trial2	navigation/STIM_003.jpg
849.277	3.209	1	navigation	Trial2	navigation/STIM_003.jpg
856.47	1.915	1	navigation	Trial2	navigation/STIM_003.jpg
860.43	3.417	1	navigation	Trial2	navigation/STIM_003.jpg
866.485	2.117	1	navigation	Trial2	navigation/STIM_003.jpg
871.686	4.15	1	navigation	Trial2	navigation/STIM_004.jpg
879.19	1.946	1	navigation	Trial2	navigation/STIM_004.jpg
884.778	2.956	1	navigation	Trial2	navigation/STIM_004.jpg
890.371	3.145	1	navigation	Trial2	navigation/STIM_004.jpg
896.961	2.052	1	navigation	Trial2	navigation/STIM_004.jpg
901.672	1.479	1	navigation	Trial2	navigation/STIM_004.jpg
906.67	2.61	1	navigation	Trial2	navigation/STIM_005.jpg
911.687	3.385	1	navigation	Trial2	navigation/STIM_005.jpg
918.315	2.722	0	navigation	Trial2	navigation/STIM_005.jpg
924.401	2.528	1	navigation	Trial2	navigation/STIM_005.jpg
930.481	1.878	1	navigation	Trial2	navigation/STIM_005.jpg
935.034	2.84	1	navigation	Trial2	navigation/STIM_005.jpg
941.362	3.013	1	navigation	Trial2	navigation/STIM_006.jpg
946.591	2.355	1	navigation	Trial2	navigation/STIM_006.jpg
952.664	3.689	1	navigation	Trial2	navigation/STIM_006.jpg
959.938	1.83	1	navigation	Trial2	navigation/STIM_006.jpg
964.092	2.624	1	navigation	Trial2	navigation/STIM_006.jpg
969.791	2.126	1	navigation	Trial2	navigation/STIM_006.jpg
974.02	2.397	1	navigation	Trial2	navigation/STIM_007.jpg
980.382	3.781	1	navigation	Trial2	navigation/STIM_007.jpg
986.34	2.167	1	navigation	Trial2	navigation/STIM_007.jpg
991.743	1.538	1	navigation	Trial2	navigation/STIM_007.jpg
996.065	2.75	1	navigation	Trial2	navigation/STIM_007.jpg
1002.444	2.995	1	navigation	Trial2	navigation/STIM_007.jpg
1008.421	4.039	1	navigation	Trial2	navigation/STIM_008.jpg
1015.658	3.167	1	navigation	Trial2	navigation/STIM_008.jpg
1022.239	2.784	1	navigation	Trial2	navigation/STIM_008.jpg
1028.414	1.425	1	navigation	Trial2	navigation/STIM_008.jpg
1032.308	2.368	1	navigation	Trial2	navigation/STIM_008.jpg
1036.871	2.521	1	navigation	Trial2	navigation/STIM_008.jpg
1041.458	3.017	1	navigation	Trial2	navigation/STIM_009.jpg
1046.778	3.76	1	navigation	Trial2	navigation/STIM_009.jpg
1053.519	2.917	1	navigation	Trial2	navigation/STIM_009.jpg
1058.807	2.15	1	navigation	Trial2	navigation/STIM_009.jpg
1063.761	3.348	1	navigation	Trial2	navigation/STIM_009.jpg
1069.491	3.328	1	navigation	Trial2	navigation/STIM_009.jpg
1076.7	3.136	1	navigation	Trial2	navigation/STIM_010.jpg
1082.27	2.756	1	navigation	Trial2	navigation/STIM_010.jpg
1088.183	2.569	1	navigation	Trial2	navigation/STIM_010.jpg
1093.116	2.664	1	navigation	Trial2	navigation/STIM_010.jpg
1097.875	3.339	1	navigation	Trial2	navigation/STIM_010.jpg
1104.91	3.207	1	navigation	Trial2	navigation/STIM_010.jpg
1111.779	4.014	1	navigation	Trial2	navigation/STIM_011.jpg
1118.515	2.162	1	navigation	Trial2	navigation/STIM_011.jpg
1124.018	1.684	1	navigation	Trial2	navigation/STIM_011.jpg
1128.954	2.578	1	navigation	Trial2	navigation/STIM_011.jpg
1134.803	2.734	1	navigation	Trial2	navigation/STIM_011.jpg
1141.228	2.852	1	navigation	Trial2	navigation/STIM_011.jpg
1147.97	1.395	1	pointing	Trial2	pointing/STIM_000.jpg
1151.818	1.148	1	pointing	Trial2	pointing/STIM_000.jpg
1156.444	1.098	1	pointing	Trial2	pointing/STIM_000.jpg
1161.285	1.341	1	pointing	Trial2	pointing/STIM_000.jpg
1165.39	1.458	1	pointing	Trial2	pointing/STIM_000.jpg
1170.583	0.821	1	pointing	Trial2	pointing/STIM_000.jpg
1174.329	0.898	1	pointing	Trial2	pointing/STIM_001.jpg
1177.96	1.251	1	pointing	Trial2	pointing/STIM_001.jpg
1182.529	0.974	1	pointing	Trial2	pointing/STIM_001.jpg
1185.867	0.96	1	pointing	Trial2	pointing/STIM_001.jpg
1189.761	0.81	1	pointing	Trial2	pointing/STIM_001.jpg
1193.166	1.289	1	pointing	Trial2	pointing/STIM_001.jpg
1196.973	1.032	1	pointing	Trial2	pointing/STIM_002.jpg
1200.481	1.142	1	pointing	Trial2	pointing/STIM_002.jpg
1203.75	0.837	1	pointing	Trial2	pointing/STIM_002.jpg
1206.944	1.056	1	pointing	Trial2	pointing/STIM_002.jpg
1210.114	1.205	1	pointing	Trial2	pointing/STIM_002.jpg
1213.876	0.792	1	pointing	Trial2	pointing/STIM_002.jpg
1216.715	1.018	1	pointing	Trial2	pointing/STIM_003.jpg
1220.141	1.36	1	pointing	Trial2	pointing/STIM_003.jpg
1223.988	1.452	1	pointing	Trial2	pointing/STIM_003.jpg
1227.679	1.193	1	pointing	Trial2	pointing/STIM_003.jpg
1231.623	1.177	1	pointing	Trial2	pointing/STIM_003.jpg
1236.759	1.024	1	pointing	Trial2	pointing/STIM_003.jpg
1240.076	0.911	1	pointing	Trial2	pointing/STIM_004.jpg
1243.331	1.262	1	pointing	Trial2	pointing/STIM_004.jpg
1247.227	0.838	1	pointing	Trial2	pointing/STIM_004.jpg
1250.549	1.054	1	pointing	Trial2	pointing/STIM_004.jpg
1254.04	1.456	1	pointing	Trial2	pointing/STIM_004.jpg
1258.227	1.162	1	pointing	Trial2	pointing/STIM_004.jpg
1261.455	1.191	1	pointing	Trial2	pointing/STIM_005.jpg
1265.03	1.164	1	pointing	Trial2	pointing/STIM_005.jpg
1268.255	1.04	1	pointing	Trial2	pointing/STIM_005.jpg
1272.901	1.01	1	pointing	Trial2	pointing/STIM_005.jpg
1277.797	1.17	1	pointing	Trial2	pointing/STIM_005.jpg
1281.401	1.427	1	pointing	Trial2	pointing/STIM_005.jpg
1285.596	1.359	1	pointing	Trial2	pointing/STIM_006.jpg
1289.32	0.903	1	pointing	Trial2	pointing/STIM_006.jpg
1294.143	1.219	1	pointing	Trial2	pointing/STIM_006.jpg
1298.674	1.434	0	pointing	Trial2	pointing/STIM_006.jpg
1302.257	1.333	1	pointing	Trial2	pointing/STIM_006.jpg
1307.408	0.934	1	pointing	Trial2	pointing/STIM_006.jpg
1311.794	0.9	1	pointing	Trial2	pointing/STIM_007.jpg
1316.434	1.308	1	pointing	Trial2	pointing/STIM_007.jpg
1320.794	1.262	1	pointing	Trial2	pointing/STIM_007.jpg
1324.943	0.923	1	pointing	Trial2	pointing/STIM_007.jpg
1327.912	1.478	1	pointing	Trial2	pointing/STIM_007.jpg
1331.995	0.796	1	pointing	Trial2	pointing/STIM_007.jpg
1335.096	1.334	1	pointing	Trial2	pointing/STIM_008.jpg
1339.001	1.054	1	pointing	Trial2	pointing/STIM_008.jpg
1342.892	1.038	1	pointing	Trial2	pointing/STIM_008.jpg
1346.994	1.122	1	pointing	Trial2	pointing/STIM_008.jpg
1350.319	0.942	1	pointing	Trial2	pointing/STIM_008.jpg
1353.528	1.327	1	pointing	Trial2	pointing/STIM_008.jpg
1357.679	1.36	1	pointing	Trial2	pointing/STIM_009.jpg
1362.049	1.18	1	pointing	Trial2	pointing/STIM_009.jpg
1365.545	1.07	1	pointing	Trial2	pointing/STIM_009.jpg
1369.969	1.135	1	pointing	Trial2	pointing/STIM_009.jpg
1373.166	1.406	1	pointing	Trial2	pointing/STIM_009.jpg
1378.305	1.456	1	pointing	Trial2	pointing/STIM_009.jpg
1382.597	1.083	1	pointing	Trial2	pointing/STIM_010.jpg
1387.623	1.037	1	pointing	Trial2	pointing/STIM_010.jpg
1392.35	1.117	1	pointing	Trial2	pointing/STIM_010.jpg
1396.681	1.476	1	pointing	Trial2	pointing/STIM_010.jpg
1401.861	1.344	1	pointing	Trial2	pointing/STIM_010.jpg
1406.562	1.118	1	pointing	Trial2	pointing/STIM_010.jpg
1411.453	0.995	0	pointing	Trial2	pointing/STIM_011.jpg
1414.882	1.334	1	pointing	Trial2	pointing/STIM_011.jpg
1418.305	1.092	1	pointing	Trial2	pointing/STIM_011.jpg
1423.185	0.961	1	pointing	Trial2	pointing/STIM_011.jpg
1427.197	0.798	1	pointing	Trial2	pointing/STIM_011.jpg
1430.721	1.118	1	pointing	Trial2	pointing/STIM_011.jpg
1434.176	2.393	1	navigation	Trial3	navigation/STIM_000.jpg
1439.586	2.851	1	navigation	Trial3	navigation/STIM_000.jpg
1444.913	1.584	1	navigation	Trial3	navigation/STIM_000.jpg
1449.745	2.1	1	navigation	Trial3	navigation/STIM_000.jpg
1454.711	1.484	1	navigation	Trial3	navigation/STIM_000.jpg
1459.45	3.149	1	navigation	Trial3	navigation/STIM_000.jpg
1466.222	2.589	1	navigation	Trial3	navigation/STIM_001.jpg
1471.885	3.067	1	navigation	Trial3	navigation/STIM_001.jpg
1478.59	2.136	1	navigation	Trial3	navigation/STIM_001.jpg
1484.578	2.788	1	navigation	Trial3	navigation/STIM_001.jpg
1490.824	2.367	1	navigation	Trial3	navigation/STIM_001.jpg
1496.346	3.186	1	navigation	Trial3	navigation/STIM_001.jpg
1503.372	1.946	1	navigation	Trial3	navigation/STIM_002.jpg
1509.306	3.239	1	navigation	Trial3	navigation/STIM_002.jpg
1516.123	2.482	1	navigation	Trial3	navigation/STIM_002.jpg
1522.223	3.36	1	navigation	Trial3	navigation/STIM_002.jpg
1528.976	2.069	1	navigation	Trial3	navigation/STIM_002.jpg
1533.723	1.517	1	navigation	Trial3	navigation/STIM_002.jpg
1537.822	3.025	1	navigation	Trial3	navigation/STIM_003.jpg
1543.92	3.037	1	navigation	Trial3	navigation/STIM_003.jpg
1549.264	2.36	1	navigation	Trial3	navigation/STIM_003.jpg
1554.033	2.791	1	navigation	Trial3	navigation/STIM_003.jpg
1560.088	1.492	1	navigation	Trial3	navigation/STIM_003.jpg
1564.401	1.886	1	navigation	Trial3	navigation/STIM_003.jpg
1568.804	3.177	1	navigation	Trial3	navigation/STIM_004.jpg
1575.081	3.287	1	navigation	Trial3	navigation/STIM_004.jpg
1581.291	2.128	1	navigation	Trial3	navigation/STIM_004.jpg
1586.38	3.149	1	navigation	Trial3	navigation/STIM_004.jpg
1591.972	2.469	1	navigation	Trial3	navigation/STIM_004.jpg
1596.895	3.337	1	navigation	Trial3	navigation/STIM_004.jpg
1602.572	1.546	1	navigation	Trial3	navigation/STIM_005.jpg
1607.371	3.244	1	navigation	Trial3	navigation/STIM_005.jpg
1614.197	3.024	1	navigation	Trial3	navigation/STIM_005.jpg
1620.006	1.765	1	navigation	Trial3	navigation/STIM_005.jpg
1624.992	1.565	1	navigation	Trial3	navigation/STIM_005.jpg
1630.092	3.216	1	navigation	Trial3	navigation/STIM_005.jpg
1636.488	2.7	1	navigation	Trial3	navigation/STIM_006.jpg
1641.855	1.784	1	navigation	Trial3	navigation/STIM_006.jpg
1647.433	2.715	1	navigation	Trial3	navigation/STIM_006.jpg
1652.505	3.176	1	navigation	Trial3	navigation/STIM_006.jpg
1659.286	2.126	1	navigation	Trial3	navigation/STIM_006.jpg
1665.286	3.151	1	navigation	Trial3	navigation/STIM_006.jpg
1670.811	1.596	1	navigation	Trial3	navigation/STIM_007.jpg
1675.754	2.166	1	navigation	Trial3	navigation/STIM_007.jpg
1681.748	3.136	1	navigation	Trial3	navigation/STIM_007.jpg
1688.267	2.745	1	navigation	Trial3	navigation/STIM_007.jpg
1694.46	1.507	1	navigation	Trial3	navigation/STIM_007.jpg
1697.967	3.073	1	navigation	Trial3	navigation/STIM_007.jpg
1703.627	2.243	1	navigation	Trial3	navigation/STIM_008.jpg
1708.302	3.069	1	navigation	Trial3	navigation/STIM_008.jpg
1713.811	2.655	1	navigation	Trial3	navigation/STIM_008.jpg
1720.251	1.895	1	navigation	Trial3	navigation/STIM_008.jpg
1724.555	3.145	1	navigation	Trial3	navigation/STIM_008.jpg
1730.146	3.401	1	navigation	Trial3	navigation/STIM_008.jpg
1736.697	1.762	1	navigation	Trial3	navigation/STIM_009.jpg
1741.904	3.394	1	navigation	Trial3	navigation/STIM_009.jpg
1747.578	2.114	1	navigation	Trial3	navigation/STIM_009.jpg
1753.451	2.881	1	navigation	Trial3	navigation/STIM_009.jpg
1759.503	1.752	1	navigation	Trial3	navigation/STIM_009.jpg
1763.578	1.866	1	navigation	Trial3	navigation/STIM_009.jpg
1767.799	2.725	1	navigation	Trial3	navigation/STIM_010.jpg
1772.871	2.768	1	navigation	Trial3	navigation/STIM_010.jpg
1778.48	2.596	1	navigation	Trial3	navigation/STIM_010.jpg
1783.128	2.282	1	navigation	Trial3	navigation/STIM_010.jpg
1787.776	1.588	1	navigation	Trial3	navigation/STIM_010.jpg
1792.262	3.076	1	navigation	Trial3	navigation/STIM_010.jpg
1798.679	2.542	1	navigation	Trial3	navigation/STIM_011.jpg
1803.435	2.477	1	navigation	Trial3	navigation/STIM_011.jpg
1809.298	3.003	1	navigation	Trial3	navigation/STIM_011.jpg
1816.245	2.3	1	navigation	Trial3	navigation/STIM_011.jpg
1822.188	1.806	1	navigation	Trial3	navigation/STIM_011.jpg
1827.362	2.9	1	navigation	Trial3	navigation/STIM_011.jpg
1832.886	0.808	1	pointing	Trial3	pointing/STIM_000.jpg
1837.131	1.331	1	pointing	Trial3	pointing/STIM_000.jpg
1841.91	1.442	1	pointing	Trial3	pointing/STIM_000.jpg
1846.628	1.445	1	pointing	Trial3	pointing/STIM_000.jpg
1850.892	1.019	1	pointing	Trial3	pointing/STIM_000.jpg
1854.676	1.1	1	pointing	Trial3	pointing/STIM_000.jpg
1859.722	0.794	1	pointing	Trial3	pointing/STIM_001.jpg
1863.721	0.934	1	pointing	Trial3	pointing/STIM_001.jpg
1867.938	1.198	1	pointing	Trial3	pointing/STIM_001.jpg
1872.118	1.432	1	pointing	Trial3	pointing/STIM_001.jpg
1877.161	0.935	1	pointing	Trial3	pointing/STIM_001.jpg
1880.95	0.826	1	pointing	Trial3	pointing/STIM_001.jpg
1884.784	1.403	1	pointing	Trial3	pointing/STIM_002.jpg
1889.548	0.811	1	pointing	Trial3	pointing/STIM_002.jpg
1892.744	1.041	1	pointing	Trial3	pointing/STIM_002.jpg
1897.536	0.806	1	pointing	Trial3	pointing/STIM_002.jpg
1900.545	0.904	1	pointing	Trial3	pointing/STIM_002.jpg
1905.213	0.847	1	pointing	Trial3	pointing/STIM_002.jpg
1908.774	1.352	1	pointing	Trial3	pointing/STIM_003.jpg
1913.529	0.805	1	pointing	Trial3	pointing/STIM_003.jpg
1917.272	1.327	1	pointing	Trial3	pointing/STIM_003.jpg
1921.192	0.914	1	pointing	Trial3	pointing/STIM_003.jpg
1925.131	1.135	1	pointing	Trial3	pointing/STIM_003.jpg
1928.891	0.844	1	pointing	Trial3	pointing/STIM_003.jpg
1933.253	0.947	1	pointing	Trial3	pointing/STIM_004.jpg
1936.634	0.94	1	pointing	Trial3	pointing/STIM_004.jpg
1939.667	0.985	1	pointing	Trial3	pointing/STIM_004.jpg
1942.892	0.999	1	pointing	Trial3	pointing/STIM_004.jpg
1946.414	0.878	1	pointing	Trial3	pointing/STIM_004.jpg
1950.641	1.35	1	pointing	Trial3	pointing/STIM_004.jpg
1954.762	1.386	1	pointing	Trial3	pointing/STIM_005.jpg
1958.225	0.946	1	pointing	Trial3	pointing/STIM_005.jpg
1963.024	0.828	1	pointing	Trial3	pointing/STIM_005.jpg
1966.432	0.872	1	pointing	Trial3	pointing/STIM_005.jpg
1971.3	0.893	1	pointing	Trial3	pointing/STIM_005.jpg
1975.606	1.338	1	pointing	Trial3	pointing/STIM_005.jpg
1979.854	0.836	1	pointing	Trial3	pointing/STIM_006.jpg
1984.334	1.476	1	pointing	Trial3	pointing/STIM_006.jpg
1988.485	0.941	1	pointing	Trial3	pointing/STIM_006.jpg
1993.24	0.924	1	pointing	Trial3	pointing/STIM_006.jpg
1996.327	1.287	1	pointing	Trial3	pointing/STIM_006.jpg
1999.974	1.322	1	pointing	Trial3	pointing/STIM_006.jpg
2004.625	0.901	1	pointing	Trial3	pointing/STIM_007.jpg
2007.924	1.449	1	pointing	Trial3	pointing/STIM_007.jpg
2011.778	0.847	1	pointing	Trial3	pointing/STIM_007.jpg
2016.191	1.127	1	pointing	Trial3	pointing/STIM_007.jpg
2020.144	1.299	1	pointing	Trial3	pointing/STIM_007.jpg
2023.67	1.2	1	pointing	Trial3	pointing/STIM_007.jpg
2028.165	0.979	1	pointing	Trial3	pointing/STIM_008.jpg
2031.405	1.228	1	pointing	Trial3	pointing/STIM_008.jpg
2036.232	0.893	1	pointing	Trial3	pointing/STIM_008.jpg
2040.04	1.299	1	pointing	Trial3	pointing/STIM_008.jpg
2045.228	0.957	1	pointing	Trial3	pointing/STIM_008.jpg
2050.173	1.266	1	pointing	Trial3	pointing/STIM_008.jpg
2053.751	1.078	1	pointing	Trial3	pointing/STIM_009.jpg
2058.158	1.092	1	pointing	Trial3	pointing/STIM_009.jpg
2062.368	1.043	1	pointing	Trial3	pointing/STIM_009.jpg
2067.0	1.313	1	pointing	Trial3	pointing/STIM_009.jpg
2071.576	1.111	1	pointing	Trial3	pointing/STIM_009.jpg
2074.691	1.298	1	pointing	Trial3	pointing/STIM_009.jpg
2078.866	1.307	1	pointing	Trial3	pointing/STIM_010.jpg
2083.492	1.261	1	pointing	Trial3	pointing/STIM_010.jpg
2087.888	1.296	1	pointing	Trial3	pointing/STIM_010.jpg
2092.058	1.398	1	pointing	Trial3	pointing/STIM_010.jpg
2096.794	0.804	1	pointing	Trial3	pointing/STIM_010.jpg
2100.722	1.404	1	pointing	Trial3	pointing/STIM_010.jpg
2105.824	1.365	1	pointing	Trial3	pointing/STIM_011.jpg
2110.74	1.373	1	pointing	Trial3	pointing/STIM_011.jpg
2115.223	0.822	1	pointing	Trial3	pointing/STIM_011.jpg
2119.364	1.003	1	pointing	Trial3	pointing/STIM_011.jpg
2123.37	0.953	1	pointing	Trial3	pointing/STIM_011.jpg
2128.173	1.058	1	pointing	Trial3	pointing/STIM_011.jpg
