onset	duration	response_time_ms	trial_type	learning_stage	stimulus	response_port
0.0	4.088	4088.5	navigation	Trial1	navigation/STIM_000.jpg	99
8.013	2.584	2583.5	navigation	Trial1	navigation/STIM_000.jpg	100
14.027	3.456	3456.3	navigation	Trial1	navigation/STIM_000.jpg	100
19.754	2.548	2547.8	navigation	Trial1	navigation/STIM_000.jpg	100
24.617	3.2	3200.1	navigation	Trial1	navigation/STIM_000.jpg	100
31.696	3.151	3150.9	navigation	Trial1	navigation/STIM_000.jpg	99
38.612	3.098	3098.4	navigation	Trial1	navigation/STIM_001.jpg	100
43.733	3.416	3416.4	navigation	Trial1	navigation/STIM_001.jpg	99
50.907	2.168	2168.3	navigation	Trial1	navigation/STIM_001.jpg	100
56.653	2.153	2153.0	navigation	Trial1	navigation/STIM_001.jpg	99
61.023	3.253	3252.7	navigation	Trial1	navigation/STIM_001.jpg	100
67.067	3.542	3542.4	navigation	Trial1	navigation/STIM_001.jpg	99
74.272	4.669	4669.3	navigation	Trial1	navigation/STIM_002.jpg	100
82.205	4.056	4055.9	navigation	Trial1	navigation/STIM_002.jpg	100
89.463	2.16	2160.3	navigation	Trial1	navigation/STIM_002.jpg	99
94.458	3.37	3370.5	navigation	Trial1	navigation/STIM_002.jpg	99
101.189	2.096	2096.2	navigation	Trial1	navigation/STIM_002.jpg	100
105.363	3.623	3622.9	navigation	Trial1	navigation/STIM_002.jpg	99
112.475	3.668	3668.5	navigation	Trial1	navigation/STIM_003.jpg	100
118.792	4.104	4103.9	navigation	Trial1	navigation/STIM_003.jpg	99
125.353	1.94	1939.7	navigation	Trial1	navigation/STIM_003.jpg	100
131.198	2.493	2493.1	navigation	Trial1	navigation/STIM_003.jpg	99
137.333	3.445	3445.2	navigation	Trial1	navigation/STIM_003.jpg	99
143.083	2.414	2414.1	navigation	Trial1	navigation/STIM_003.jpg	100
148.748	2.997	2996.6	navigation	Trial1	navigation/STIM_004.jpg	99
154.359	4.186	4186.5	navigation	Trial1	navigation/STIM_004.jpg	99
161.431	4.12	4120.4	navigation	Trial1	navigation/STIM_004.jpg	100
168.317	2.45	2450.0	navigation	Trial1	navigation/STIM_004.jpg	100
173.441	3.685	3685.1	navigation	Trial1	navigation/STIM_004.jpg	100
179.307	2.924	2923.8	navigation	Trial1	navigation/STIM_004.jpg	100
184.919	2.907	2906.7	navigation	Trial1	navigation/STIM_005.jpg	99
189.966	2.625	2624.6	navigation	Trial1	navigation/STIM_005.jpg	99
196.333	4.444	4443.9	navigation	Trial1	navigation/STIM_005.jpg	99
204.403	3.764	3764.0	navigation	Trial1	navigation/STIM_005.jpg	99
210.927	3.57	3570.5	navigation	Trial1	navigation/STIM_005.jpg	100
217.236	1.684	1683.6	navigation	Trial1	navigation/STIM_005.jpg	99
222.164	2.796	2795.9	navigation	Trial1	navigation/STIM_006.jpg	100
227.824	2.406	2406.0	navigation	Trial1	navigation/STIM_006.jpg	99
233.389	1.812	1811.5	navigation	Trial1	navigation/STIM_006.jpg	100
237.207	2.923	2922.8	navigation	Trial1	navigation/STIM_006.jpg	99
243.026	1.992	1991.8	navigation	Trial1	navigation/STIM_006.jpg	100
248.58	2.399	2398.8	navigation	Trial1	navigation/STIM_006.jpg	100
253.487	2.28	2280.5	navigation	Trial1	navigation/STIM_007.jpg	99
257.95	4.545	4544.7	navigation	Trial1	navigation/STIM_007.jpg	99
265.936	3.561	3560.6	navigation	Trial1	navigation/STIM_007.jpg	99
271.778	4.073	4073.4	navigation	Trial1	navigation/STIM_007.jpg	100
278.133	2.045	2044.6	navigation	Trial1	navigation/STIM_007.jpg	99
282.41	2.248	2248.5	navigation	Trial1	navigation/STIM_007.jpg	99
286.95	4.042	4042.3	navigation	Trial1	navigation/STIM_008.jpg	100
294.612	3.851	3850.7	navigation	Trial1	navigation/STIM_008.jpg	99
302.341	3.935	3935.1	navigation	Trial1	navigation/STIM_008.jpg	100
309.356	3.854	3853.5	navigation	Trial1	navigation/STIM_008.jpg	100
316.588	3.942	3942.0	navigation	Trial1	navigation/STIM_008.jpg	100
324.237	2.123	2122.7	navigation	Trial1	navigation/STIM_008.jpg	99
329.584	2.522	2521.8	navigation	Trial1	navigation/STIM_009.jpg	100
335.717	4.477	4477.0	navigation	Trial1	navigation/STIM_009.jpg	100
343.357	4.007	4006.9	navigation	Trial1	navigation/STIM_009.jpg	99
349.45	2.063	2062.9	navigation	Trial1	navigation/STIM_009.jpg	99
353.794	2.113	2113.4	navigation	Trial1	navigation/STIM_009.jpg	99
359.736	3.043	3043.0	navigation	Trial1	navigation/STIM_009.jpg	99
366.236	3.805	3805.1	navigation	Trial1	navigation/STIM_010.jpg	99
372.911	3.011	3011.2	navigation	Trial1	navigation/STIM_010.jpg	100
379.889	3.742	3742.0	navigation	Trial1	navigation/STIM_010.jpg	100
386.969	2.105	2105.3	navigation	Trial1	navigation/STIM_010.jpg	99
392.905	1.641	1641.0	navigation	Trial1	navigation/STIM_010.jpg	100
397.227	2.026	2026.2	navigation	Trial1	navigation/STIM_010.jpg	99
401.717	2.123	2123.3	navigation	Trial1	navigation/STIM_011.jpg	100
406.873	2.352	2351.5	navigation	Trial1	navigation/STIM_011.jpg	99
412.604	2.824	2824.3	navigation	Trial1	navigation/STIM_011.jpg	99
418.93	4.127	4127.2	navigation	Trial1	navigation/STIM_011.jpg	100
426.203	3.505	3505.2	navigation	Trial1	navigation/STIM_011.jpg	100
432.135	1.678	1678.1	navigation	Trial1	navigation/STIM_011.jpg	100
437.412	1.334	1333.7	pointing	Trial1	pointing/STIM_000.jpg	99
441.361	1.306	1306.2	pointing	Trial1	pointing/STIM_000.jpg	100
444.813	1.356	1356.5	pointing	Trial1	pointing/STIM_000.jpg	99
449.074	1.052	1052.0	pointing	Trial1	pointing/STIM_000.jpg	100
453.07	1.177	1177.4	pointing	Trial1	pointing/STIM_000.jpg	99
457.762	0.975	975.4	pointing	Trial1	pointing/STIM_000.jpg	99
461.774	1.296	1296.2	pointing	Trial1	pointing/STIM_001.jpg	99
466.157	0.964	964.1	pointing	Trial1	pointing/STIM_001.jpg	100
470.343	1.149	1148.6	pointing	Trial1	pointing/STIM_001.jpg	99
475.331	1.146	1145.9	pointing	Trial1	pointing/STIM_001.jpg	99
479.455	0.984	984.3	pointing	Trial1	pointing/STIM_001.jpg	100
484.123	0.868	867.8	pointing	Trial1	pointing/STIM_001.jpg	99
488.345	1.43	1430.2	pointing	Trial1	pointing/STIM_002.jpg	100
492.719	0.903	903.4	pointing	Trial1	pointing/STIM_002.jpg	99
497.459	1.23	1229.9	pointing	Trial1	pointing/STIM_002.jpg	99
501.194	1.114	1114.1	pointing	Trial1	pointing/STIM_002.jpg	100
504.632	1.031	1031.0	pointing	Trial1	pointing/STIM_002.jpg	100
508.254	1.31	1309.6	pointing	Trial1	pointing/STIM_002.jpg	99
513.277	1.093	1093.3	pointing	Trial1	pointing/STIM_003.jpg	99
518.367	1.175	1175.3	pointing	Trial1	pointing/STIM_003.jpg	100
522.75	0.935	935.0	pointing	Trial1	pointing/STIM_003.jpg	99
527.314	1.228	1227.9	pointing	Trial1	pointing/STIM_003.jpg	100
532.01	0.986	985.8	pointing	Trial1	pointing/STIM_003.jpg	100
536.711	1.4	1400.4	pointing	Trial1	pointing/STIM_003.jpg	99
541.645	0.826	825.5	pointing	Trial1	pointing/STIM_004.jpg	100
545.977	1.301	1300.6	pointing	Trial1	pointing/STIM_004.jpg	100
549.949	1.35	1349.6	pointing	Trial1	pointing/STIM_004.jpg	100
554.416	0.944	943.7	pointing	Trial1	pointing/STIM_004.jpg	99
557.514	1.447	1447.1	pointing	Trial1	pointing/STIM_004.jpg	100
561.279	0.924	923.7	pointing	Trial1	pointing/STIM_004.jpg	100
565.145	1.316	1316.0	pointing	Trial1	pointing/STIM_005.jpg	100
569.275	1.454	1454.1	pointing	Trial1	pointing/STIM_005.jpg	100
573.705	0.896	896.5	pointing	Trial1	pointing/STIM_005.jpg	100
577.679	0.795	795.0	pointing	Trial1	pointing/STIM_005.jpg	100
581.119	1.104	1103.6	pointing	Trial1	pointing/STIM_005.jpg	100
585.924	0.885	884.6	pointing	Trial1	pointing/STIM_005.jpg	100
590.631	1.225	1225.3	pointing	Trial1	pointing/STIM_006.jpg	100
595.424	1.342	1342.4	pointing	Trial1	pointing/STIM_006.jpg	99
599.756	0.944	943.8	pointing	Trial1	pointing/STIM_006.jpg	100
604.292	1.03	1029.5	pointing	Trial1	pointing/STIM_006.jpg	99
607.789	1.139	1139.2	pointing	Trial1	pointing/STIM_006.jpg	100
612.455	1.151	1150.6	pointing	Trial1	pointing/STIM_006.jpg	100
617.383	1.426	1425.5	pointing	Trial1	pointing/STIM_007.jpg	100
622.153	0.97	970.3	pointing	Trial1	pointing/STIM_007.jpg	100
626.568	0.967	967.1	pointing	Trial1	pointing/STIM_007.jpg	100
629.582	0.981	980.6	pointing	Trial1	pointing/STIM_007.jpg	100
634.031	0.792	792.3	pointing	Trial1	pointing/STIM_007.jpg	99
637.603	1.379	1378.7	pointing	Trial1	pointing/STIM_007.jpg	100
641.492	1.454	1453.5	pointing	Trial1	pointing/STIM_008.jpg	100
644.955	0.968	968.1	pointing	Trial1	pointing/STIM_008.jpg	99
648.675	1.38	1379.8	pointing	Trial1	pointing/STIM_008.jpg	99
653.682	1.282	1281.7	pointing	Trial1	pointing/STIM_008.jpg	100
658.57	1.155	1155.3	pointing	Trial1	pointing/STIM_008.jpg	100
662.579	1.199	1199.0	pointing	Trial1	pointing/STIM_008.jpg	100
666.573	1.446	1445.5	pointing	Trial1	pointing/STIM_009.jpg	100
670.509	0.843	842.7	pointing	Trial1	pointing/STIM_009.jpg	100
674.348	0.897	896.8	pointing	Trial1	pointing/STIM_009.jpg	99
679.243	1.267	1266.7	pointing	Trial1	pointing/STIM_009.jpg	100
682.739	1.212	1212.0	pointing	Trial1	pointing/STIM_009.jpg	100
687.795	1.257	1257.4	pointing	Trial1	pointing/STIM_009.jpg	100
691.387	1.368	1367.6	pointing	Trial1	pointing/STIM_010.jpg	99
695.535	1.04	1040.3	pointing	Trial1	pointing/STIM_010.jpg	100
699.76	1.167	1167.1	pointing	Trial1	pointing/STIM_010.jpg	100
703.51	0.999	998.9	pointing	Trial1	pointing/STIM_010.jpg	100
707.164	0.838	837.7	pointing	Trial1	pointing/STIM_010.jpg	100
710.141	1.396	1395.5	pointing	Trial1	pointing/STIM_010.jpg	100
714.603	1.273	1272.9	pointing	Trial1	pointing/STIM_011.jpg	100
718.55	0.795	794.7	pointing	Trial1	pointing/STIM_011.jpg	100
722.523	1.37	1370.1	pointing	Trial1	pointing/STIM_011.jpg	100
727.324	0.986	985.9	pointing	Trial1	pointing/STIM_011.jpg	99
730.321	1.455	1455.2	pointing	Trial1	pointing/STIM_011.jpg	99
733.796	1.34	1340.3	pointing	Trial1	pointing/STIM_011.jpg	100
738.848	2.22	2220.4	navigation	Trial2	navigation/STIM_000.jpg	99
743.55	2.441	2440.7	navigation	Trial2	navigation/STIM_000.jpg	100
749.307	3.35	3349.7	navigation	Trial2	navigation/STIM_000.jpg	99
754.837	2.326	2326.5	navigation	Trial2	navigation/STIM_000.jpg	99
760.205	2.496	2495.8	navigation	Trial2	navigation/STIM_000.jpg	99
765.917	2.495	2494.8	navigation	Trial2	navigation/STIM_000.jpg	100
771.588	3.375	3374.7	navigation	Trial2	navigation/STIM_001.jpg	99
778.613	3.283	3283.4	navigation	Trial2	navigation/STIM_001.jpg	99
785.399	2.559	2559.3	navigation	Trial2	navigation/STIM_001.jpg	99
791.914	2.511	2510.8	navigation	Trial2	navigation/STIM_001.jpg	100
796.557	1.763	1763.1	navigation	Trial2	navigation/STIM_001.jpg	99
800.36	1.502	1502.2	navigation	Trial2	navigation/STIM_001.jpg	99
804.768	1.775	1774.6	navigation	Trial2	navigation/STIM_002.jpg	100
809.813	3.386	3386.1	navigation	Trial2	navigation/STIM_002.jpg	99
815.996	3.002	3002.4	navigation	Trial2	navigation/STIM_002.jpg	99
822.054	1.39	1390.0	navigation	Trial2	navigation/STIM_002.jpg	100
825.94	2.315	2314.9	navigation	Trial2	navigation/STIM_002.jpg	99
830.561	2.582	2581.7	navigation	Trial2	navigation/STIM_002.jpg	99
835.398	3.599	3598.9	navigation	Trial2	navigation/STIM_003.jpg	99
842.568	3.044	3044.1	navigation	Trial2	navigation/STIM_003.jpg	100
849.277	3.209	3208.9	navigation	Trial2	navigation/STIM_003.jpg	100
856.47	1.915	1915.1	navigation	Trial2	navigation/STIM_003.jpg	99
860.43	3.417	3416.9	navigation	Trial2	navigation/STIM_003.jpg	99
866.485	2.117	2117.0	navigation	Trial2	navigation/STIM_003.jpg	99
871.686	4.15	4150.0	navigation	Trial2	navigation/STIM_004.jpg	100
879.19	1.946	1945.5	navigation	Trial2	navigation/STIM_004.jpg	99
884.778	2.956	2956.3	navigation	Trial2	navigation/STIM_004.jpg	100
890.371	3.145	3145.3	navigation	Trial2	navigation/STIM_004.jpg	100
896.961	2.052	2051.6	navigation	Trial2	navigation/STIM_004.jpg	99
901.672	1.479	1479.3	navigation	Trial2	navigation/STIM_004.jpg	99
906.67	2.61	2610.4	navigation	Trial2	navigation/STIM_005.jpg	99
911.687	3.385	3385.0	navigation	Trial2	navigation/STIM_005.jpg	99
918.315	2.722	2722.5	navigation	Trial2	navigation/STIM_005.jpg	99
924.401	2.528	2528.1	navigation	Trial2	navigation/STIM_005.jpg	99
930.481	1.878	1878.3	navigation	Trial2	navigation/STIM_005.jpg	99
935.034	2.84	2840.1	navigation	Trial2	navigation/STIM_005.jpg	100
941.362	3.013	3013.2	navigation	Trial2	navigation/STIM_006.jpg	99
946.591	2.355	2354.7	navigation	Trial2	navigation/STIM_006.jpg	100
952.664	3.689	3689.2	navigation	Trial2	navigation/STIM_006.jpg	100
959.938	1.83	1829.8	navigation	Trial2	navigation/STIM_006.jpg	99
964.092	2.624	2624.3	navigation	Trial2	navigation/STIM_006.jpg	99
969.791	2.126	2126.5	navigation	Trial2	navigation/STIM_006.jpg	99
974.02	2.397	2396.9	navigation	Trial2	navigation/STIM_007.jpg	99
980.382	3.781	3781.4	navigation	Trial2	navigation/STIM_007.jpg	100
986.34	2.167	2167.1	navigation	Trial2	navigation/STIM_007.jpg	100
991.743	1.538	1538.2	navigation	Trial2	navigation/STIM_007.jpg	99
996.065	2.75	2749.6	navigation	Trial2	navigation/STIM_007.jpg	99
1002.444	2.995	2995.0	navigation	Trial2	navigation/STIM_007.jpg	99
1008.421	4.039	4039.2	navigation	Trial2	navigation/STIM_008.jpg	99
1015.658	3.167	3166.9	navigation	Trial2	navigation/STIM_008.jpg	99
1022.239	2.784	2784.4	navigation	Trial2	navigation/STIM_008.jpg	99
1028.414	1.425	1424.6	navigation	Trial2	navigation/STIM_008.jpg	99
1032.308	2.368	2367.5	navigation	Trial2	navigation/STIM_008.jpg	99
1036.871	2.521	2520.8	navigation	Trial2	navigation/STIM_008.jpg	99
1041.458	3.017	3017.2	navigation	Trial2	navigation/STIM_009.jpg	99
1046.778	3.76	3759.9	navigation	Trial2	navigation/STIM_009.jpg	100
1053.519	2.917	2917.2	navigation	Trial2	navigation/STIM_009.jpg	99
1058.807	2.15	2150.0	navigation	Trial2	navigation/STIM_009.jpg	100
1063.761	3.348	3347.8	navigation	Trial2	navigation/STIM_009.jpg	100
1069.491	3.328	3328.5	navigation	Trial2	navigation/STIM_009.jpg	99
1076.7	3.136	3135.8	navigation	Trial2	navigation/STIM_010.jpg	99
1082.27	2.756	2756.5	navigation	Trial2	navigation/STIM_010.jpg	100
1088.183	2.569	2569.0	navigation	Trial2	navigation/STIM_010.jpg	99
1093.116	2.664	2664.1	navigation	Trial2	navigation/STIM_010.jpg	100
1097.875	3.339	3339.3	navigation	Trial2	navigation/STIM_010.jpg	99
1104.91	3.207	3206.6	navigation	Trial2	navigation/STIM_010.jpg	100
1111.779	4.014	4014.5	navigation	Trial2	navigation/STIM_011.jpg	100
1118.515	2.162	2162.4	navigation	Trial2	navigation/STIM_011.jpg	99
1124.018	1.684	1684.2	navigation	Trial2	navigation/STIM_011.jpg	100
1128.954	2.578	2577.8	navigation	Trial2	navigation/STIM_011.jpg	100
1134.803	2.734	2733.7	navigation	Trial2	navigation/STIM_011.jpg	100
1141.228	2.852	2852.1	navigation	Trial2	navigation/STIM_011.jpg	100
1147.97	1.395	1394.7	pointing	Trial2	pointing/STIM_000.jpg	99
1151.818	1.148	1147.7	pointing	Trial2	pointing/STIM_000.jpg	99
1156.444	1.098	1097.7	pointing	Trial2	pointing/STIM_000.jpg	100
1161.285	1.341	1341.1	pointing	Trial2	pointing/STIM_000.jpg	100
1165.39	1.458	1458.4	pointing	Trial2	pointing/STIM_000.jpg	99
1170.583	0.821	820.8	pointing	Trial2	pointing/STIM_000.jpg	99
1174.329	0.898	898.1	pointing	Trial2	pointing/STIM_001.jpg	100
1177.96	1.251	1251.1	pointing	Trial2	pointing/STIM_001.jpg	100
1182.529	0.974	974.5	pointing	Trial2	pointing/STIM_001.jpg	99
1185.867	0.96	960.2	pointing	Trial2	pointing/STIM_001.jpg	99
1189.761	0.81	809.8	pointing	Trial2	pointing/STIM_001.jpg	99
1193.166	1.289	1288.7	pointing	Trial2	pointing/STIM_001.jpg	99
1196.973	1.032	1031.5	pointing	Trial2	pointing/STIM_002.jpg	100
1200.481	1.142	1142.4	pointing	Trial2	pointing/STIM_002.jpg	100
1203.75	0.837	836.6	pointing	Trial2	pointing/STIM_002.jpg	100
1206.944	1.056	1055.6	pointing	Trial2	pointing/STIM_002.jpg	99
1210.114	1.205	1205.4	pointing	Trial2	pointing/STIM_002.jpg	100
1213.876	0.792	792.0	pointing	Trial2	pointing/STIM_002.jpg	100
1216.715	1.018	1018.4	pointing	Trial2	pointing/STIM_003.jpg	100
1220.141	1.36	1360.2	pointing	Trial2	pointing/STIM_003.jpg	100
1223.988	1.452	1452.3	pointing	Trial2	pointing/STIM_003.jpg	100
1227.679	1.193	1193.3	pointing	Trial2	pointing/STIM_003.jpg	99
1231.623	1.177	1177.0	pointing	Trial2	pointing/STIM_003.jpg	100
1236.759	1.024	1024.2	pointing	Trial2	pointing/STIM_003.jpg	100
1240.076	0.911	911.1	pointing	Trial2	pointing/STIM_004.jpg	99
1243.331	1.262	1261.9	pointing	Trial2	pointing/STIM_004.jpg	100
1247.227	0.838	838.2	pointing	Trial2	pointing/STIM_004.jpg	100
1250.549	1.054	1054.0	pointing	Trial2	pointing/STIM_004.jpg	99
1254.04	1.456	1455.6	pointing	Trial2	pointing/STIM_004.jpg	100
1258.227	1.162	1161.9	pointing	Trial2	pointing/STIM_004.jpg	99
1261.455	1.191	1191.4	pointing	Trial2	pointing/STIM_005.jpg	100
1265.03	1.164	1164.3	pointing	Trial2	pointing/STIM_005.jpg	99
1268.255	1.04	1040.5	pointing	Trial2	pointing/STIM_005.jpg	100
1272.901	1.01	1009.8	pointing	Trial2	pointing/STIM_005.jpg	99
1277.797	1.17	1170.3	pointing	Trial2	pointing/STIM_005.jpg	99
1281.401	1.427	1426.7	pointing	Trial2	pointing/STIM_005.jpg	100
1285.596	1.359	1358.9	pointing	Trial2	pointing/STIM_006.jpg	100
1289.32	0.903	902.9	pointing	Trial2	pointing/STIM_006.jpg	100
1294.143	1.219	1218.7	pointing	Trial2	pointing/STIM_006.jpg	99
1298.674	1.434	1434.3	pointing	Trial2	pointing/STIM_006.jpg	100
1302.257	1.333	1333.1	pointing	Trial2	pointing/STIM_006.jpg	100
1307.408	0.934	934.3	pointing	Trial2	pointing/STIM_006.jpg	99
1311.794	0.9	900.4	pointing	Trial2	pointing/STIM_007.jpg	100
1316.434	1.308	1307.8	pointing	Trial2	pointing/STIM_007.jpg	99
1320.794	1.262	1261.8	pointing	Trial2	pointing/STIM_007.jpg	100
1324.943	0.923	923.0	pointing	Trial2	pointing/STIM_007.jpg	99
1327.912	1.478	1478.4	pointing	Trial2	pointing/STIM_007.jpg	99
1331.995	0.796	796.1	pointing	Trial2	pointing/STIM_007.jpg	99
1335.096	1.334	1333.5	pointing	Trial2	pointing/STIM_008.jpg	99
1339.001	1.054	1053.9	pointing	Trial2	pointing/STIM_008.jpg	99
1342.892	1.038	1038.0	pointing	Trial2	pointing/STIM_008.jpg	99
1346.994	1.122	1121.5	pointing	Trial2	pointing/STIM_008.jpg	99
1350.319	0.942	941.6	pointing	Trial2	pointing/STIM_008.jpg	99
1353.528	1.327	1327.2	pointing	Trial2	pointing/STIM_008.jpg	100
1357.679	1.36	1360.3	pointing	Trial2	pointing/STIM_009.jpg	100
1362.049	1.18	1179.9	pointing	Trial2	pointing/STIM_009.jpg	99
1365.545	1.07	1070.5	pointing	Trial2	pointing/STIM_009.jpg	99
1369.969	1.135	1134.8	pointing	Trial2	pointing/STIM_009.jpg	100
1373.166	1.406	1406.1	pointing	Trial2	pointing/STIM_009.jpg	99
1378.305	1.456	1455.9	pointing	Trial2	pointing/STIM_009.jpg	100
1382.597	1.083	1082.8	pointing	Trial2	pointing/STIM_010.jpg	99
1387.623	1.037	1037.4	pointing	Trial2	pointing/STIM_010.jpg	99
1392.35	1.117	1116.8	pointing	Trial2	pointing/STIM_010.jpg	99
1396.681	1.476	1475.5	pointing	Trial2	pointing/STIM_010.jpg	99
1401.861	1.344	1343.9	pointing	Trial2	pointing/STIM_010.jpg	99
1406.562	1.118	1117.7	pointing	Trial2	pointing/STIM_010.jpg	100
1411.453	0.995	994.7	pointing	Trial2	pointing/STIM_011.jpg	100
1414.882	1.334	1334.3	pointing	Trial2	pointing/STIM_011.jpg	100
1418.305	1.092	1091.9	pointing	Trial2	pointing/STIM_011.jpg	99
1423.185	0.961	961.2	pointing	Trial2	pointing/STIM_011.jpg	99
1427.197	0.798	798.2	pointing	Trial2	pointing/STIM_011.jpg	100
1430.721	1.118	1117.9	pointing	Trial2	pointing/STIM_011.jpg	99
1434.176	2.393	2392.9	navigation	Trial3	navigation/STIM_000.jpg	99
1439.586	2.851	2851.1	navigation	Trial3	navigation/STIM_000.jpg	100
1444.913	1.584	1584.2	navigation	Trial3	navigation/STIM_000.jpg	100
1449.745	2.1	2099.7	navigation	Trial3	navigation/STIM_000.jpg	100
1454.711	1.484	1484.5	navigation	Trial3	navigation/STIM_000.jpg	100
1459.45	3.149	3149.0	navigation	Trial3	navigation/STIM_000.jpg	100
1466.222	2.589	2588.8	navigation	Trial3	navigation/STIM_001.jpg	99
1471.885	3.067	3067.2	navigation	Trial3	navigation/STIM_001.jpg	100
1478.59	2.136	2136.2	navigation	Trial3	navigation/STIM_001.jpg	99
1484.578	2.788	2788.2	navigation	Trial3	navigation/STIM_001.jpg	100
1490.824	2.367	2366.8	navigation	Trial3	navigation/STIM_001.jpg	99
1496.346	3.186	3185.6	navigation	Trial3	navigation/STIM_001.jpg	99
1503.372	1.946	1946.2	navigation	Trial3	navigation/STIM_002.jpg	100
1509.306	3.239	3238.7	navigation	Trial3	navigation/STIM_002.jpg	100
1516.123	2.482	2481.9	navigation	Trial3	navigation/STIM_002.jpg	99
1522.223	3.36	3360.0	navigation	Trial3	navigation/STIM_002.jpg	99
1528.976	2.069	2068.9	navigation	Trial3	navigation/STIM_002.jpg	100
1533.723	1.517	1517.1	navigation	Trial3	navigation/STIM_002.jpg	100
1537.822	3.025	3025.3	navigation	Trial3	navigation/STIM_003.jpg	99
1543.92	3.037	3037.2	navigation	Trial3	navigation/STIM_003.jpg	100
1549.264	2.36	2360.3	navigation	Trial3	navigation/STIM_003.jpg	99
1554.033	2.791	2790.8	navigation	Trial3	navigation/STIM_003.jpg	99
1560.088	1.492	1491.9	navigation	Trial3	navigation/STIM_003.jpg	100
1564.401	1.886	1886.4	navigation	Trial3	navigation/STIM_003.jpg	100
1568.804	3.177	3176.6	navigation	Trial3	navigation/STIM_004.jpg	99
1575.081	3.287	3286.7	navigation	Trial3	navigation/STIM_004.jpg	99
1581.291	2.128	2128.5	navigation	Trial3	navigation/STIM_004.jpg	100
1586.38	3.149	3149.0	navigation	Trial3	navigation/STIM_004.jpg	99
1591.972	2.469	2469.3	navigation	Trial3	navigation/STIM_004.jpg	100
1596.895	3.337	3336.9	navigation	Trial3	navigation/STIM_004.jpg	100
1602.572	1.546	1546.1	navigation	Trial3	navigation/STIM_005.jpg	99
1607.371	3.244	3244.1	navigation	Trial3	navigation/STIM_005.jpg	99
1614.197	3.024	3024.2	navigation	Trial3	navigation/STIM_005.jpg	100
1620.006	1.765	1764.9	navigation	Trial3	navigation/STIM_005.jpg	100
1624.992	1.565	1565.1	navigation	Trial3	navigation/STIM_005.jpg	100
1630.092	3.216	3215.7	navigation	Trial3	navigation/STIM_005.jpg	99
1636.488	2.7	2700.4	navigation	Trial3	navigation/STIM_006.jpg	99
1641.855	1.784	1784.4	navigation	Trial3	navigation/STIM_006.jpg	99
1647.433	2.715	2714.7	navigation	Trial3	navigation/STIM_006.jpg	100
1652.505	3.176	3176.0	navigation	Trial3	navigation/STIM_006.jpg	100
1659.286	2.126	2126.3	navigation	Trial3	navigation/STIM_006.jpg	99
1665.286	3.151	3150.8	navigation	Trial3	navigation/STIM_006.jpg	100
1670.811	1.596	1595.7	navigation	Trial3	navigation/STIM_007.jpg	100
1675.754	2.166	2166.1	navigation	Trial3	navigation/STIM_007.jpg	99
1681.748	3.136	3135.6	navigation	Trial3	navigation/STIM_007.jpg	100
1688.267	2.745	2744.8	navigation	Trial3	navigation/STIM_007.jpg	100
1694.46	1.507	1506.6	navigation	Trial3	navigation/STIM_007.jpg	99
1697.967	3.073	3073.4	navigation	Trial3	navigation/STIM_007.jpg	100
1703.627	2.243	2242.9	navigation	Trial3	navigation/STIM_008.jpg	99
1708.302	3.069	3069.4	navigation	Trial3	navigation/STIM_008.jpg	100
1713.811	2.655	2655.2	navigation	Trial3	navigation/STIM_008.jpg	100
1720.251	1.895	1895.2	navigation	Trial3	navigation/STIM_008.jpg	99
1724.555	3.145	3144.7	navigation	Trial3	navigation/STIM_008.jpg	100
1730.146	3.401	3401.3	navigation	Trial3	navigation/STIM_008.jpg	100
1736.697	1.762	1761.8	navigation	Trial3	navigation/STIM_009.jpg	99
1741.904	3.394	3394.1	navigation	Trial3	navigation/STIM_009.jpg	100
1747.578	2.114	2114.1	navigation	Trial3	navigation/STIM_009.jpg	99
1753.451	2.881	2880.9	navigation	Trial3	navigation/STIM_009.jpg	100
1759.503	1.752	1752.5	navigation	Trial3	navigation/STIM_009.jpg	99
1763.578	1.866	1865.5	navigation	Trial3	navigation/STIM_009.jpg	100
1767.799	2.725	2725.1	navigation	Trial3	navigation/STIM_010.jpg	99
1772.871	2.768	2767.5	navigation	Trial3	navigation/STIM_010.jpg	100
1778.48	2.596	2595.7	navigation	Trial3	navigation/STIM_010.jpg	99
1783.128	2.282	2282.4	navigation	Trial3	navigation/STIM_010.jpg	99
1787.776	1.588	1588.0	navigation	Trial3	navigation/STIM_010.jpg	100
1792.262	3.076	3076.5	navigation	Trial3	navigation/STIM_010.jpg	99
1798.679	2.542	2541.9	navigation	Trial3	navigation/STIM_011.jpg	100
1803.435	2.477	2477.4	navigation	Trial3	navigation/STIM_011.jpg	100
1809.298	3.003	3003.1	navigation	Trial3	navigation/STIM_011.jpg	99
1816.245	2.3	2300.0	navigation	Trial3	navigation/STIM_011.jpg	99
1822.188	1.806	1805.7	navigation	Trial3	navigation/STIM_011.jpg	99
1827.362	2.9	2899.8	navigation	Trial3	navigation/STIM_011.jpg	99
1832.886	0.808	808.2	pointing	Trial3	pointing/STIM_000.jpg	100
1837.131	1.331	1331.3	pointing	Trial3	pointing/STIM_000.jpg	100
1841.91	1.442	1441.7	pointing	Trial3	pointing/STIM_000.jpg	99
1846.628	1.445	1445.4	pointing	Trial3	pointing/STIM_000.jpg	100
1850.892	1.019	1019.4	pointing	Trial3	pointing/STIM_000.jpg	100
1854.676	1.1	1099.9	pointing	Trial3	pointing/STIM_000.jpg	99
1859.722	0.794	793.7	pointing	Trial3	pointing/STIM_001.jpg	100
1863.721	0.934	934.4	pointing	Trial3	pointing/STIM_001.jpg	100
1867.938	1.198	1197.7	pointing	Trial3	pointing/STIM_001.jpg	100
1872.118	1.432	1431.6	pointing	Trial3	pointing/STIM_001.jpg	99
1877.161	0.935	934.7	pointing	Trial3	pointing/STIM_001.jpg	99
1880.95	0.826	826.3	pointing	Trial3	pointing/STIM_001.jpg	99
1884.784	1.403	1402.7	pointing	Trial3	pointing/STIM_002.jpg	100
1889.548	0.811	810.7	pointing	Trial3	pointing/STIM_002.jpg	99
1892.744	1.041	1041.3	pointing	Trial3	pointing/STIM_002.jpg	100
1897.536	0.806	805.5	pointing	Trial3	pointing/STIM_002.jpg	100
1900.545	0.904	904.3	pointing	Trial3	pointing/STIM_002.jpg	99
1905.213	0.847	846.7	pointing	Trial3	pointing/STIM_002.jpg	100
1908.774	1.352	1351.8	pointing	Trial3	pointing/STIM_003.jpg	100
1913.529	0.805	804.9	pointing	Trial3	pointing/STIM_003.jpg	99
1917.272	1.327	1327.0	pointing	Trial3	pointing/STIM_003.jpg	100
1921.192	0.914	914.0	pointing	Trial3	pointing/STIM_003.jpg	100
1925.131	1.135	1135.3	pointing	Trial3	pointing/STIM_003.jpg	99
1928.891	0.844	843.5	pointing	Trial3	pointing/STIM_003.jpg	99
1933.253	0.947	947.3	pointing	Trial3	pointing/STIM_004.jpg	99
1936.634	0.94	939.5	pointing	Trial3	pointing/STIM_004.jpg	100
1939.667	0.985	985.1	pointing	Trial3	pointing/STIM_004.jpg	99
1942.892	0.999	998.8	pointing	Trial3	pointing/STIM_004.jpg	99
1946.414	0.878	877.6	pointing	Trial3	pointing/STIM_004.jpg	99
1950.641	1.35	1350.5	pointing	Trial3	pointing/STIM_004.jpg	100
1954.762	1.386	1386.2	pointing	Trial3	pointing/STIM_005.jpg	100
1958.225	0.946	945.8	pointing	Trial3	pointing/STIM_005.jpg	99
1963.024	0.828	828.1	pointing	Trial3	pointing/STIM_005.jpg	100
1966.432	0.872	872.0	pointing	Trial3	pointing/STIM_005.jpg	100
1971.3	0.893	893.0	pointing	Trial3	pointing/STIM_005.jpg	100
1975.606	1.338	1338.3	pointing	Trial3	pointing/STIM_005.jpg	99
1979.854	0.836	836.1	pointing	Trial3	pointing/STIM_006.jpg	99
1984.334	1.476	1476.4	pointing	Trial3	pointing/STIM_006.jpg	100
1988.485	0.941	940.9	pointing	Trial3	pointing/STIM_006.jpg	100
1993.24	0.924	924.4	pointing	Trial3	pointing/STIM_006.jpg	99
1996.327	1.287	1286.8	pointing	Trial3	pointing/STIM_006.jpg	100
1999.974	1.322	1322.3	pointing	Trial3	pointing/STIM_006.jpg	99
2004.625	0.901	901.0	pointing	Trial3	pointing/STIM_007.jpg	100
2007.924	1.449	1449.3	pointing	Trial3	pointing/STIM_007.jpg	99
2011.778	0.847	846.7	pointing	Trial3	pointing/STIM_007.jpg	100
2016.191	1.127	1127.1	pointing	Trial3	pointing/STIM_007.jpg	99
2020.144	1.299	1299.1	pointing	Trial3	pointing/STIM_007.jpg	100
2023.67	1.2	1200.4	pointing	Trial3	pointing/STIM_007.jpg	100
2028.165	0.979	978.6	pointing	Trial3	pointing/STIM_008.jpg	99
2031.405	1.228	1228.3	pointing	Trial3	pointing/STIM_008.jpg	100
2036.232	0.893	892.8	pointing	Trial3	pointing/STIM_008.jpg	100
2040.04	1.299	1298.6	pointing	Trial3	pointing/STIM_008.jpg	99
2045.228	0.957	957.2	pointing	Trial3	pointing/STIM_008.jpg	99
2050.173	1.266	1266.4	pointing	Trial3	pointing/STIM_008.jpg	99
2053.751	1.078	1078.0	pointing	Trial3	pointing/STIM_009.jpg	99
2058.158	1.092	1091.9	pointing	Trial3	pointing/STIM_009.jpg	99
2062.368	1.043	1043.4	pointing	Trial3	pointing/STIM_009.jpg	99
2067.0	1.313	1313.1	pointing	Trial3	pointing/STIM_009.jpg	99
2071.576	1.111	1111.1	pointing	Trial3	pointing/STIM_009.jpg	100
2074.691	1.298	1298.5	pointing	Trial3	pointing/STIM_009.jpg	100
2078.866	1.307	1307.3	pointing	Trial3	pointing/STIM_010.jpg	99
2083.492	1.261	1260.7	pointing	Trial3	pointing/STIM_010.jpg	99
2087.888	1.296	1295.9	pointing	Trial3	pointing/STIM_010.jpg	100
2092.058	1.398	1398.2	pointing	Trial3	pointing/STIM_010.jpg	99
2096.794	0.804	804.0	pointing	Trial3	pointing/STIM_010.jpg	99
2100.722	1.404	1404.5	pointing	Trial3	pointing/STIM_010.jpg	99
2105.824	1.365	1364.8	pointing	Trial3	pointing/STIM_011.jpg	99
2110.74	1.373	1373.1	pointing	Trial3	pointing/STIM_011.jpg	99
2115.223	0.822	822.1	pointing	Trial3	pointing/STIM_011.jpg	100
2119.364	1.003	1002.7	pointing	Trial3	pointing/STIM_011.jpg	99
2123.37	0.953	953.2	pointing	Trial3	pointing/STIM_011.jpg	100
2128.173	1.058	1057.6	pointing	Trial3	pointing/STIM_011.jpg	100
