onset	duration	accuracy	trial_type	learning_stage	stimulus
0.0	3.584	correct	navigation	Trial1	navigation/STIM_000.jpg
7.544	2.966	correct	navigation	Trial1	navigation/STIM_000.jpg
13.993	2.399	correct	navigation	Trial1	navigation/STIM_000.jpg
18.561	3.896	correct	navigation	Trial1	navigation/STIM_000.jpg
25.659	3.303	correct	navigation	Trial1	navigation/STIM_000.jpg
32.377	1.703	correct	navigation	Trial1	navigation/STIM_000.jpg
36.63	2.986	correct	navigation	Trial1	navigation/STIM_001.jpg
42.298	2.295	correct	navigation	Trial1	navigation/STIM_001.jpg
47.637	2.42	incorrect	navigation	Trial1	navigation/STIM_001.jpg
53.62	2.31	correct	navigation	Trial1	navigation/STIM_001.jpg
59.517	2.941	correct	navigation	Trial1	navigation/STIM_001.jpg
65.668	1.562	correct	navigation	Trial1	navigation/STIM_001.jpg
69.97	2.77	correct	navigation	Trial1	navigation/STIM_002.jpg
76.439	2.487	correct	navigation	Trial1	navigation/STIM_002.jpg
81.765	2.053	correct	navigation	Trial1	navigation/STIM_002.jpg
86.682	2.563	correct	navigation	Trial1	navigation/STIM_002.jpg
91.649	3.606	correct	navigation	Trial1	navigation/STIM_002.jpg
98.176	1.989	correct	navigation	Trial1	navigation/STIM_002.jpg
102.771	3.622	correct	navigation	Trial1	navigation/STIM_003.jpg
108.774	3.793	incorrect	navigation	Trial1	navigation/STIM_003.jpg
116.095	1.89	correct	navigation	Trial1	navigation/STIM_003.jpg
121.464	3.148	correct	navigation	Trial1	navigation/STIM_003.jpg
127.432	2.131	correct	navigation	Trial1	navigation/STIM_003.jpg
132.296	2.344	correct	navigation	Trial1	navigation/STIM_003.jpg
137.058	4.817	correct	navigation	Trial1	navigation/STIM_004.jpg
144.96	2.272	correct	navigation	Trial1	navigation/STIM_004.jpg
149.783	3.724	correct	navigation	Trial1	navigation/STIM_004.jpg
157.393	1.865	incorrect	navigation	Trial1	navigation/STIM_004.jpg
163.125	3.253	correct	navigation	Trial1	navigation/STIM_004.jpg
169.581	2.57	correct	navigation	Trial1	navigation/STIM_004.jpg
175.991	4.004	correct	navigation	Trial1	navigation/STIM_005.jpg
183.379	4.404	correct	navigation	Trial1	navigation/STIM_005.jpg
191.567	2.435	correct	navigation	Trial1	navigation/STIM_005.jpg
196.037	3.739	correct	navigation	Trial1	navigation/STIM_005.jpg
203.365	2.965	correct	navigation	Trial1	navigation/STIM_005.jpg
208.705	1.754	correct	navigation	Trial1	navigation/STIM_005.jpg
213.15	2.756	incorrect	navigation	Trial1	navigation/STIM_006.jpg
219.744	3.326	correct	navigation	Trial1	navigation/STIM_006.jpg
225.085	2.045	correct	navigation	Trial1	navigation/STIM_006.jpg
230.511	4.205	correct	navigation	Trial1	navigation/STIM_006.jpg
238.637	3.324	correct	navigation	Trial1	navigation/STIM_006.jpg
244.546	1.806	correct	navigation	Trial1	navigation/STIM_006.jpg
249.972	2.747	correct	navigation	Trial1	navigation/STIM_007.jpg
255.809	2.434	correct	navigation	Trial1	navigation/STIM_007.jpg
261.444	4.129	incorrect	navigation	Trial1	navigation/STIM_007.jpg
268.749	3.319	correct	navigation	Trial1	navigation/STIM_007.jpg
274.509	2.571	correct	navigation	Trial1	navigation/STIM_007.jpg
279.344	2.175	correct	navigation	Trial1	navigation/STIM_007.jpg
284.107	4.034	incorrect	navigation	Trial1	navigation/STIM_008.jpg
291.883	4.744	correct	navigation	Trial1	navigation/STIM_008.jpg
300.594	1.866	correct	navigation	Trial1	navigation/STIM_008.jpg
304.902	2.01	correct	navigation	Trial1	navigation/STIM_008.jpg
309.037	2.447	incorrect	navigation	Trial1	navigation/STIM_008.jpg
314.585	2.731	correct	navigation	Trial1	navigation/STIM_008.jpg
321.081	3.434	correct	navigation	Trial1	navigation/STIM_009.jpg
326.694	2.086	incorrect	navigation	Trial1	navigation/STIM_009.jpg
332.227	2.503	correct	navigation	Trial1	navigation/STIM_009.jpg
337.143	3.727	correct	navigation	Trial1	navigation/STIM_009.jpg
344.519	2.708	correct	navigation	Trial1	navigation/STIM_009.jpg
349.586	3.548	correct	navigation	Trial1	navigation/STIM_009.jpg
356.527	2.089	correct	navigation	Trial1	navigation/STIM_010.jpg
362.539	4.442	correct	navigation	Trial1	navigation/STIM_010.jpg
370.355	2.405	correct	navigation	Trial1	navigation/STIM_010.jpg
376.317	2.205	correct	navigation	Trial1	navigation/STIM_010.jpg
381.63	3.325	correct	navigation	Trial1	navigation/STIM_010.jpg
387.953	2.075	correct	navigation	Trial1	navigation/STIM_010.jpg
392.62	2.222	correct	navigation	Trial1	navigation/STIM_011.jpg
397.337	4.131	correct	navigation	Trial1	navigation/STIM_011.jpg
404.978	4.215	correct	navigation	Trial1	navigation/STIM_011.jpg
412.432	3.405	incorrect	navigation	Trial1	navigation/STIM_011.jpg
419.074	2.151	correct	navigation	Trial1	navigation/STIM_011.jpg
424.787	2.601	incorrect	navigation	Trial1	navigation/STIM_011.jpg
431.049	1.216	correct	pointing	Trial1	pointing/STIM_000.jpg
435.48	1.122	correct	pointing	Trial1	pointing/STIM_000.jpg
439.519	0.924	correct	pointing	Trial1	pointing/STIM_000.jpg
443.689	0.969	incorrect	pointing	Trial1	pointing/STIM_000.jpg
447.375	1.019	correct	pointing	Trial1	pointing/STIM_000.jpg
450.621	1.501	correct	pointing	Trial1	pointing/STIM_000.jpg
454.822	0.854	correct	pointing	Trial1	pointing/STIM_001.jpg
459.47	1.36	correct	pointing	Trial1	pointing/STIM_001.jpg
463.854	1.125	correct	pointing	Trial1	pointing/STIM_001.jpg
467.94	1.107	correct	pointing	Trial1	pointing/STIM_001.jpg
472.507	1.326	correct	pointing	Trial1	pointing/STIM_001.jpg
477.336	0.886	correct	pointing	Trial1	pointing/STIM_001.jpg
480.721	1.399	correct	pointing	Trial1	pointing/STIM_002.jpg
484.71	0.844	correct	pointing	Trial1	pointing/STIM_002.jpg
487.992	1.345	correct	pointing	Trial1	pointing/STIM_002.jpg
492.554	1.183	correct	pointing	Trial1	pointing/STIM_002.jpg
495.936	0.922	correct	pointing	Trial1	pointing/STIM_002.jpg
499.236	1.457	correct	pointing	Trial1	pointing/STIM_002.jpg
503.841	1.372	correct	pointing	Trial1	pointing/STIM_003.jpg
509.175	1.019	correct	pointing	Trial1	pointing/STIM_003.jpg
512.984	1.119	correct	pointing	Trial1	pointing/STIM_003.jpg
516.789	1.475	correct	pointing	Trial1	pointing/STIM_003.jpg
521.952	1.387	correct	pointing	Trial1	pointing/STIM_003.jpg
525.782	1.229	correct	pointing	Trial1	pointing/STIM_003.jpg
529.335	1.206	correct	pointing	Trial1	pointing/STIM_004.jpg
533.223	0.857	correct	pointing	Trial1	pointing/STIM_004.jpg
537.21	1.215	correct	pointing	Trial1	pointing/STIM_004.jpg
541.213	1.266	correct	pointing	Trial1	pointing/STIM_004.jpg
546.064	0.982	correct	pointing	Trial1	pointing/STIM_004.jpg
549.159	1.37	correct	pointing	Trial1	pointing/STIM_004.jpg
553.146	0.816	correct	pointing	Trial1	pointing/STIM_005.jpg
557.275	1.241	correct	pointing	Trial1	pointing/STIM_005.jpg
562.07	0.976	correct	pointing	Trial1	pointing/STIM_005.jpg
566.014	1.087	correct	pointing	Trial1	pointing/STIM_005.jpg
570.072	1.179	correct	pointing	Trial1	pointing/STIM_005.jpg
573.777	1.099	correct	pointing	Trial1	pointing/STIM_005.jpg
578.257	0.977	correct	pointing	Trial1	pointing/STIM_006.jpg
581.765	0.979	correct	pointing	Trial1	pointing/STIM_006.jpg
585.361	0.858	correct	pointing	Trial1	pointing/STIM_006.jpg
590.168	1.054	correct	pointing	Trial1	pointing/STIM_006.jpg
593.281	1.414	correct	pointing	Trial1	pointing/STIM_006.jpg
597.474	0.845	correct	pointing	Trial1	pointing/STIM_006.jpg
601.622	0.87	correct	pointing	Trial1	pointing/STIM_007.jpg
605.781	1.231	correct	pointing	Trial1	pointing/STIM_007.jpg
610.911	1.282	correct	pointing	Trial1	pointing/STIM_007.jpg
616.18	1.019	correct	pointing	Trial1	pointing/STIM_007.jpg
620.124	1.103	correct	pointing	Trial1	pointing/STIM_007.jpg
623.271	0.936	correct	pointing	Trial1	pointing/STIM_007.jpg
627.447	1.449	correct	pointing	Trial1	pointing/STIM_008.jpg
630.93	1.011	correct	pointing	Trial1	pointing/STIM_008.jpg
634.434	1.179	correct	pointing	Trial1	pointing/STIM_008.jpg
638.794	1.352	correct	pointing	Trial1	pointing/STIM_008.jpg
643.204	1.361	correct	pointing	Trial1	pointing/STIM_008.jpg
647.582	0.991	correct	pointing	Trial1	pointing/STIM_008.jpg
652.435	1.478	correct	pointing	Trial1	pointing/STIM_009.jpg
656.38	0.959	correct	pointing	Trial1	pointing/STIM_009.jpg
659.635	1.138	correct	pointing	Trial1	pointing/STIM_009.jpg
664.231	1.36	correct	pointing	Trial1	pointing/STIM_009.jpg
668.039	1.214	correct	pointing	Trial1	pointing/STIM_009.jpg
671.998	1.317	correct	pointing	Trial1	pointing/STIM_009.jpg
677.028	1.053	correct	pointing	Trial1	pointing/STIM_010.jpg
680.606	1.374	correct	pointing	Trial1	pointing/STIM_010.jpg
684.65	1.033	correct	pointing	Trial1	pointing/STIM_010.jpg
687.709	1.449	correct	pointing	Trial1	pointing/STIM_010.jpg
691.869	1.243	correct	pointing	Trial1	pointing/STIM_010.jpg
695.54	1.204	correct	pointing	Trial1	pointing/STIM_010.jpg
699.267	1.119	correct	pointing	Trial1	pointing/STIM_011.jpg
703.229	0.908	correct	pointing	Trial1	pointing/STIM_011.jpg
707.751	1.199	correct	pointing	Trial1	pointing/STIM_011.jpg
712.598	1.226	correct	pointing	Trial1	pointing/STIM_011.jpg
717.812	0.821	correct	pointing	Trial1	pointing/STIM_011.jpg
722.141	1.203	correct	pointing	Trial1	pointing/STIM_011.jpg
726.103	2.212	correct	navigation	Trial2	navigation/STIM_000.jpg
732.071	2.026	correct	navigation	Trial2	navigation/STIM_000.jpg
737.132	2.581	correct	navigation	Trial2	navigation/STIM_000.jpg
742.68	3.263	correct	navigation	Trial2	navigation/STIM_000.jpg
748.571	2.179	correct	navigation	Trial2	navigation/STIM_000.jpg
753.846	1.716	correct	navigation	Trial2	navigation/STIM_000.jpg
759.557	3.993	correct	navigation	Trial2	navigation/STIM_001.jpg
765.684	2.658	correct	navigation	Trial2	navigation/STIM_001.jpg
771.176	1.626	correct	navigation	Trial2	navigation/STIM_001.jpg
776.463	1.584	correct	navigation	Trial2	navigation/STIM_001.jpg
780.219	2.312	correct	navigation	Trial2	navigation/STIM_001.jpg
785.294	2.766	correct	navigation	Trial2	navigation/STIM_001.jpg
792.029	3.582	correct	navigation	Trial2	navigation/STIM_002.jpg
798.917	3.312	correct	navigation	Trial2	navigation/STIM_002.jpg
805.257	3.225	incorrect	navigation	Trial2	navigation/STIM_002.jpg
811.576	2.86	correct	navigation	Trial2	navigation/STIM_002.jpg
817.934	1.602	correct	navigation	Trial2	navigation/STIM_002.jpg
822.554	3.229	correct	navigation	Trial2	navigation/STIM_002.jpg
828.379	3.866	correct	navigation	Trial2	navigation/STIM_003.jpg
834.327	2.784	correct	navigation	Trial2	navigation/STIM_003.jpg
840.748	2.335	correct	navigation	Trial2	navigation/STIM_003.jpg
845.11	3.048	correct	navigation	Trial2	navigation/STIM_003.jpg
850.711	1.515	correct	navigation	Trial2	navigation/STIM_003.jpg
855.18	3.486	correct	navigation	Trial2	navigation/STIM_003.jpg
860.751	1.737	incorrect	navigation	Trial2	navigation/STIM_004.jpg
866.321	3.294	correct	navigation	Trial2	navigation/STIM_004.jpg
872.541	3.682	correct	navigation	Trial2	navigation/STIM_004.jpg
878.484	2.443	correct	navigation	Trial2	navigation/STIM_004.jpg
884.052	2.436	correct	navigation	Trial2	navigation/STIM_004.jpg
889.124	3.259	correct	navigation	Trial2	navigation/STIM_004.jpg
895.595	2.592	correct	navigation	Trial2	navigation/STIM_005.jpg
901.831	3.051	correct	navigation	Trial2	navigation/STIM_005.jpg
908.601	3.125	correct	navigation	Trial2	navigation/STIM_005.jpg
913.869	2.383	correct	navigation	Trial2	navigation/STIM_005.jpg
918.715	2.793	correct	navigation	Trial2	navigation/STIM_005.jpg
924.116	3.38	correct	navigation	Trial2	navigation/STIM_005.jpg
930.487	4.233	incorrect	navigation	Trial2	navigation/STIM_006.jpg
937.824	2.167	correct	navigation	Trial2	navigation/STIM_006.jpg
943.032	1.842	correct	navigation	Trial2	navigation/STIM_006.jpg
947.783	1.658	correct	navigation	Trial2	navigation/STIM_006.jpg
951.448	3.357	correct	navigation	Trial2	navigation/STIM_006.jpg
957.781	2.58	correct	navigation	Trial2	navigation/STIM_006.jpg
963.456	2.57	correct	navigation	Trial2	navigation/STIM_007.jpg
969.999	2.507	correct	navigation	Trial2	navigation/STIM_007.jpg
976.431	3.745	correct	navigation	Trial2	navigation/STIM_007.jpg
983.339	2.997	correct	navigation	Trial2	navigation/STIM_007.jpg
988.684	1.702	correct	navigation	Trial2	navigation/STIM_007.jpg
994.193	1.583	correct	navigation	Trial2	navigation/STIM_007.jpg
997.87	1.75	correct	navigation	Trial2	navigation/STIM_008.jpg
1002.302	2.872	correct	navigation	Trial2	navigation/STIM_008.jpg
1008.472	2.872	correct	navigation	Trial2	navigation/STIM_008.jpg
1015.097	3.12	correct	navigation	Trial2	navigation/STIM_008.jpg
1020.349	3.427	correct	navigation	Trial2	navigation/STIM_008.jpg
1027.426	3.513	correct	navigation	Trial2	navigation/STIM_008.jpg
1034.061	2.245	correct	navigation	Trial2	navigation/STIM_009.jpg
1038.943	3.879	correct	navigation	Trial2	navigation/STIM_009.jpg
1045.177	3.226	correct	navigation	Trial2	navigation/STIM_009.jpg
1050.754	3.15	correct	navigation	Trial2	navigation/STIM_009.jpg
1057.901	3.036	correct	navigation	Trial2	navigation/STIM_009.jpg
1063.262	1.964	correct	navigation	Trial2	navigation/STIM_009.jpg
1067.584	3.866	correct	navigation	Trial2	navigation/STIM_010.jpg
1074.429	2.768	correct	navigation	Trial2	navigation/STIM_010.jpg
1080.52	1.601	correct	navigation	Trial2	navigation/STIM_010.jpg
1085.453	3.313	correct	navigation	Trial2	navigation/STIM_010.jpg
1091.984	3.494	correct	navigation	Trial2	navigation/STIM_010.jpg
1099.394	3.411	correct	navigation	Trial2	navigation/STIM_010.jpg
1104.812	2.16	correct	navigation	Trial2	navigation/STIM_011.jpg
1110.866	2.919	correct	navigation	Trial2	navigation/STIM_011.jpg
1115.802	3.062	correct	navigation	Trial2	navigation/STIM_011.jpg
1122.418	2.931	correct	navigation	Trial2	navigation/STIM_011.jpg
1128.081	2.648	correct	navigation	Trial2	navigation/STIM_011.jpg
1133.597	2.252	correct	navigation	Trial2	navigation/STIM_011.jpg
1138.24	1.285	correct	pointing	Trial2	pointing/STIM_000.jpg
1142.02	1.18	correct	pointing	Trial2	pointing/STIM_000.jpg
1145.683	0.995	correct	pointing	Trial2	pointing/STIM_000.jpg
1150.04	1.21	correct	pointing	Trial2	pointing/STIM_000.jpg
1153.27	1.215	correct	pointing	Trial2	pointing/STIM_000.jpg
1157.608	0.923	correct	pointing	Trial2	pointing/STIM_000.jpg
1161.788	0.879	correct	pointing	Trial2	pointing/STIM_001.jpg
1165.173	0.844	correct	pointing	Trial2	pointing/STIM_001.jpg
1168.519	1.176	correct	pointing	Trial2	pointing/STIM_001.jpg
1172.889	1.323	correct	pointing	Trial2	pointing/STIM_001.jpg
1176.234	1.347	correct	pointing	Trial2	pointing/STIM_001.jpg
1180.308	0.83	correct	pointing	Trial2	pointing/STIM_001.jpg
1184.389	0.987	correct	pointing	Trial2	pointing/STIM_002.jpg
1187.713	1.342	correct	pointing	Trial2	pointing/STIM_002.jpg
1192.251	1.309	correct	pointing	Trial2	pointing/STIM_002.jpg
1196.089	1.338	correct	pointing	Trial2	pointing/STIM_002.jpg
1201.329	1.205	correct	pointing	Trial2	pointing/STIM_002.jpg
1204.825	1.336	correct	pointing	Trial2	pointing/STIM_002.jpg
1208.422	1.386	incorrect	pointing	Trial2	pointing/STIM_003.jpg
1212.909	1.27	correct	pointing	Trial2	pointing/STIM_003.jpg
1217.57	0.854	correct	pointing	Trial2	pointing/STIM_003.jpg
1220.953	0.856	correct	pointing	Trial2	pointing/STIM_003.jpg
1225.632	1.455	correct	pointing	Trial2	pointing/STIM_003.jpg
1230.764	1.003	incorrect	pointing	Trial2	pointing/STIM_003.jpg
1233.873	1.022	correct	pointing	Trial2	pointing/STIM_004.jpg
1238.165	1.059	correct	pointing	Trial2	pointing/STIM_004.jpg
1243.198	1.048	correct	pointing	Trial2	pointing/STIM_004.jpg
1247.779	1.433	correct	pointing	Trial2	pointing/STIM_004.jpg
1251.623	1.372	correct	pointing	Trial2	pointing/STIM_004.jpg
1256.438	1.475	correct	pointing	Trial2	pointing/STIM_004.jpg
1260.493	1.166	correct	pointing	Trial2	pointing/STIM_005.jpg
1265.029	1.075	correct	pointing	Trial2	pointing/STIM_005.jpg
1268.21	0.906	correct	pointing	Trial2	pointing/STIM_005.jpg
1273.019	1.154	correct	pointing	Trial2	pointing/STIM_005.jpg
1277.276	1.255	correct	pointing	Trial2	pointing/STIM_005.jpg
1282.357	1.232	incorrect	pointing	Trial2	pointing/STIM_005.jpg
1287.263	1.396	correct	pointing	Trial2	pointing/STIM_006.jpg
1290.955	0.947	correct	pointing	Trial2	pointing/STIM_006.jpg
1295.078	0.932	correct	pointing	Trial2	pointing/STIM_006.jpg
1298.358	0.835	correct	pointing	Trial2	pointing/STIM_006.jpg
1302.789	0.838	correct	pointing	Trial2	pointing/STIM_006.jpg
1307.364	1.225	correct	pointing	Trial2	pointing/STIM_006.jpg
1311.19	1.079	correct	pointing	Trial2	pointing/STIM_007.jpg
1316.094	1.134	correct	pointing	Trial2	pointing/STIM_007.jpg
1319.439	1.164	correct	pointing	Trial2	pointing/STIM_007.jpg
1324.0	1.105	correct	pointing	Trial2	pointing/STIM_007.jpg
1328.521	1.504	correct	pointing	Trial2	pointing/STIM_007.jpg
1333.636	1.05	correct	pointing	Trial2	pointing/STIM_007.jpg
1337.719	0.838	incorrect	pointing	Trial2	pointing/STIM_008.jpg
1341.268	1.162	correct	pointing	Trial2	pointing/STIM_008.jpg
1344.995	0.878	correct	pointing	Trial2	pointing/STIM_008.jpg
1348.153	1.369	correct	pointing	Trial2	pointing/STIM_008.jpg
1351.884	1.366	correct	pointing	Trial2	pointing/STIM_008.jpg
1355.311	1.26	incorrect	pointing	Trial2	pointing/STIM_008.jpg
1359.923	1.265	correct	pointing	Trial2	pointing/STIM_009.jpg
1363.505	1.248	correct	pointing	Trial2	pointing/STIM_009.jpg
1367.996	0.992	correct	pointing	Trial2	pointing/STIM_009.jpg
1372.532	1.017	correct	pointing	Trial2	pointing/STIM_009.jpg
1377.289	0.833	correct	pointing	Trial2	pointing/STIM_009.jpg
1380.233	1.325	correct	pointing	Trial2	pointing/STIM_009.jpg
1384.895	1.365	correct	pointing	Trial2	pointing/STIM_010.jpg
1389.757	0.837	correct	pointing	Trial2	pointing/STIM_010.jpg
1393.039	1.276	correct	pointing	Trial2	pointing/STIM_010.jpg
1396.481	1.215	correct	pointing	Trial2	pointing/STIM_010.jpg
1400.747	0.845	correct	pointing	Trial2	pointing/STIM_010.jpg
1404.388	1.064	correct	pointing	Trial2	pointing/STIM_010.jpg
1407.666	1.496	incorrect	pointing	Trial2	pointing/STIM_011.jpg
1411.82	1.259	correct	pointing	Trial2	pointing/STIM_011.jpg
1415.411	1.03	correct	pointing	Trial2	pointing/STIM_011.jpg
1418.63	1.361	correct	pointing	Trial2	pointing/STIM_011.jpg
1423.885	1.452	correct	pointing	Trial2	pointing/STIM_011.jpg
1428.906	1.151	correct	pointing	Trial2	pointing/STIM_011.jpg
1433.068	2.589	correct	navigation	Trial3	navigation/STIM_000.jpg
1438.182	3.28	correct	navigation	Trial3	navigation/STIM_000.jpg
1445.273	1.495	correct	navigation	Trial3	navigation/STIM_000.jpg
1448.946	2.161	correct	navigation	Trial3	navigation/STIM_000.jpg
1453.384	3.418	correct	navigation	Trial3	navigation/STIM_000.jpg
1459.316	2.697	correct	navigation	Trial3	navigation/STIM_000.jpg
1466.003	1.678	correct	navigation	Trial3	navigation/STIM_001.jpg
1470.028	3.321	correct	navigation	Trial3	navigation/STIM_001.jpg
1476.046	1.599	correct	navigation	Trial3	navigation/STIM_001.jpg
1480.507	1.487	correct	navigation	Trial3	navigation/STIM_001.jpg
1484.215	2.172	correct	navigation	Trial3	navigation/STIM_001.jpg
1490.073	1.747	correct	navigation	Trial3	navigation/STIM_001.jpg
1494.654	2.989	correct	navigation	Trial3	navigation/STIM_002.jpg
1501.566	2.194	correct	navigation	Trial3	navigation/STIM_002.jpg
1506.588	3.374	correct	navigation	Trial3	navigation/STIM_002.jpg
1513.185	2.21	correct	navigation	Trial3	navigation/STIM_002.jpg
1518.498	3.043	incorrect	navigation	Trial3	navigation/STIM_002.jpg
1525.217	1.919	correct	navigation	Trial3	navigation/STIM_002.jpg
1530.642	1.609	correct	navigation	Trial3	navigation/STIM_003.jpg
1535.252	2.588	correct	navigation	Trial3	navigation/STIM_003.jpg
1540.884	2.014	correct	navigation	Trial3	navigation/STIM_003.jpg
1546.146	3.234	correct	navigation	Trial3	navigation/STIM_003.jpg
1551.952	2.45	correct	navigation	Trial3	navigation/STIM_003.jpg
1557.224	3.162	correct	navigation	Trial3	navigation/STIM_003.jpg
1563.311	1.864	correct	navigation	Trial3	navigation/STIM_004.jpg
1568.521	2.296	correct	navigation	Trial3	navigation/STIM_004.jpg
1574.749	2.426	correct	navigation	Trial3	navigation/STIM_004.jpg
1580.665	2.866	correct	navigation	Trial3	navigation/STIM_004.jpg
1587.223	2.686	correct	navigation	Trial3	navigation/STIM_004.jpg
1593.451	3.038	correct	navigation	Trial3	navigation/STIM_004.jpg
1600.183	2.83	correct	navigation	Trial3	navigation/STIM_005.jpg
1606.655	2.872	correct	navigation	Trial3	navigation/STIM_005.jpg
1612.277	2.971	correct	navigation	Trial3	navigation/STIM_005.jpg
1617.561	2.766	correct	navigation	Trial3	navigation/STIM_005.jpg
1623.778	2.379	correct	navigation	Trial3	navigation/STIM_005.jpg
1629.877	1.853	correct	navigation	Trial3	navigation/STIM_005.jpg
1634.011	3.201	correct	navigation	Trial3	navigation/STIM_006.jpg
1639.707	1.718	correct	navigation	Trial3	navigation/STIM_006.jpg
1645.277	2.36	correct	navigation	Trial3	navigation/STIM_006.jpg
1650.964	2.692	correct	navigation	Trial3	navigation/STIM_006.jpg
1657.287	1.754	correct	navigation	Trial3	navigation/STIM_006.jpg
1662.135	2.97	correct	navigation	Trial3	navigation/STIM_006.jpg
1668.778	3.36	correct	navigation	Trial3	navigation/STIM_007.jpg
1675.598	1.437	correct	navigation	Trial3	navigation/STIM_007.jpg
1680.379	2.036	correct	navigation	Trial3	navigation/STIM_007.jpg
1685.009	2.549	correct	navigation	Trial3	navigation/STIM_007.jpg
1690.492	3.01	correct	navigation	Trial3	navigation/STIM_007.jpg
1695.727	2.765	correct	navigation	Trial3	navigation/STIM_007.jpg
1701.577	2.398	correct	navigation	Trial3	navigation/STIM_008.jpg
1707.662	2.948	correct	navigation	Trial3	navigation/STIM_008.jpg
1713.822	2.0	correct	navigation	Trial3	navigation/STIM_008.jpg
1718.658	3.435	correct	navigation	Trial3	navigation/STIM_008.jpg
1724.136	2.428	correct	navigation	Trial3	navigation/STIM_008.jpg
1728.961	2.063	correct	navigation	Trial3	navigation/STIM_008.jpg
1733.81	2.49	correct	navigation	Trial3	navigation/STIM_009.jpg
1739.894	3.095	correct	navigation	Trial3	navigation/STIM_009.jpg
1745.959	2.786	correct	navigation	Trial3	navigation/STIM_009.jpg
1751.125	1.596	correct	navigation	Trial3	navigation/STIM_009.jpg
1756.472	2.755	correct	navigation	Trial3	navigation/STIM_009.jpg
1761.603	3.223	correct	navigation	Trial3	navigation/STIM_009.jpg
1767.519	1.892	correct	navigation	Trial3	navigation/STIM_010.jpg
1772.496	2.795	correct	navigation	Trial3	navigation/STIM_010.jpg
1778.768	1.904	correct	navigation	Trial3	navigation/STIM_010.jpg
1784.589	2.881	correct	navigation	Trial3	navigation/STIM_010.jpg
1791.372	2.699	correct	navigation	Trial3	navigation/STIM_010.jpg
1796.175	1.559	correct	navigation	Trial3	navigation/STIM_010.jpg
1800.922	2.225	correct	navigation	Trial3	navigation/STIM_011.jpg
1805.471	2.083	correct	navigation	Trial3	navigation/STIM_011.jpg
1810.655	3.25	correct	navigation	Trial3	navigation/STIM_011.jpg
1815.988	3.264	correct	navigation	Trial3	navigation/STIM_011.jpg
1823.107	2.327	correct	navigation	Trial3	navigation/STIM_011.jpg
1828.531	1.501	correct	navigation	Trial3	navigation/STIM_011.jpg
1833.429	1.236	correct	pointing	Trial3	pointing/STIM_000.jpg
1838.558	1.38	correct	pointing	Trial3	pointing/STIM_000.jpg
1843.615	1.323	correct	pointing	Trial3	pointing/STIM_000.jpg
1848.673	1.297	correct	pointing	Trial3	pointing/STIM_000.jpg
1852.286	0.987	incorrect	pointing	Trial3	pointing/STIM_000.jpg
1855.634	0.843	correct	pointing	Trial3	pointing/STIM_000.jpg
1858.768	1.073	correct	pointing	Trial3	pointing/STIM_001.jpg
1862.068	1.213	correct	pointing	Trial3	pointing/STIM_001.jpg
1866.073	0.834	correct	pointing	Trial3	pointing/STIM_001.jpg
1870.268	1.488	correct	pointing	Trial3	pointing/STIM_001.jpg
1875.576	1.51	correct	pointing	Trial3	pointing/STIM_001.jpg
1881.02	1.149	correct	pointing	Trial3	pointing/STIM_001.jpg
1884.504	0.832	correct	pointing	Trial3	pointing/STIM_002.jpg
1887.786	1.238	correct	pointing	Trial3	pointing/STIM_002.jpg
1892.716	1.084	correct	pointing	Trial3	pointing/STIM_002.jpg
1897.522	1.17	correct	pointing	Trial3	pointing/STIM_002.jpg
1901.557	1.114	correct	pointing	Trial3	pointing/STIM_002.jpg
1905.913	1.461	correct	pointing	Trial3	pointing/STIM_002.jpg
1910.241	1.297	incorrect	pointing	Trial3	pointing/STIM_003.jpg
1915.41	0.886	correct	pointing	Trial3	pointing/STIM_003.jpg
1918.698	1.415	correct	pointing	Trial3	pointing/STIM_003.jpg
1924.055	0.915	correct	pointing	Trial3	pointing/STIM_003.jpg
1927.736	1.256	correct	pointing	Trial3	pointing/STIM_003.jpg
1932.131	1.505	correct	pointing	Trial3	pointing/STIM_003.jpg
1936.42	0.862	correct	pointing	Trial3	pointing/STIM_004.jpg
1940.394	1.487	correct	pointing	Trial3	pointing/STIM_004.jpg
1944.349	0.945	correct	pointing	Trial3	pointing/STIM_004.jpg
1947.574	1.312	correct	pointing	Trial3	pointing/STIM_004.jpg
1952.268	1.183	correct	pointing	Trial3	pointing/STIM_004.jpg
1955.804	0.983	correct	pointing	Trial3	pointing/STIM_004.jpg
1959.999	1.307	correct	pointing	Trial3	pointing/STIM_005.jpg
1964.617	0.966	correct	pointing	Trial3	pointing/STIM_005.jpg
1967.632	1.42	correct	pointing	Trial3	pointing/STIM_005.jpg
1971.278	1.102	correct	pointing	Trial3	pointing/STIM_005.jpg
1975.312	1.413	correct	pointing	Trial3	pointing/STIM_005.jpg
1980.023	1.093	correct	pointing	Trial3	pointing/STIM_005.jpg
1984.008	1.417	correct	pointing	Trial3	pointing/STIM_006.jpg
1987.636	1.272	correct	pointing	Trial3	pointing/STIM_006.jpg
1992.507	1.326	correct	pointing	Trial3	pointing/STIM_006.jpg
1997.01	0.969	correct	pointing	Trial3	pointing/STIM_006.jpg
2001.441	1.039	correct	pointing	Trial3	pointing/STIM_006.jpg
2004.876	1.457	correct	pointing	Trial3	pointing/STIM_006.jpg
2010.085	1.305	correct	pointing	Trial3	pointing/STIM_007.jpg
2015.36	0.843	correct	pointing	Trial3	pointing/STIM_007.jpg
2019.872	0.832	correct	pointing	Trial3	pointing/STIM_007.jpg
2022.905	0.971	correct	pointing	Trial3	pointing/STIM_007.jpg
2027.037	1.448	correct	pointing	Trial3	pointing/STIM_007.jpg
2031.739	1.226	correct	pointing	Trial3	pointing/STIM_007.jpg
2035.251	0.996	correct	pointing	Trial3	pointing/STIM_008.jpg
2039.649	1.067	correct	pointing	Trial3	pointing/STIM_008.jpg
2043.356	1.342	correct	pointing	Trial3	pointing/STIM_008.jpg
2048.318	0.978	correct	pointing	Trial3	pointing/STIM_008.jpg
2053.271	0.935	correct	pointing	Trial3	pointing/STIM_008.jpg
2056.603	1.08	correct	pointing	Trial3	pointing/STIM_008.jpg
2061.307	0.938	correct	pointing	Trial3	pointing/STIM_009.jpg
2065.351	1.496	correct	pointing	Trial3	pointing/STIM_009.jpg
2070.251	1.11	correct	pointing	Trial3	pointing/STIM_009.jpg
2073.601	1.28	incorrect	pointing	Trial3	pointing/STIM_009.jpg
2077.62	1.51	correct	pointing	Trial3	pointing/STIM_009.jpg
2081.799	1.39	correct	pointing	Trial3	pointing/STIM_009.jpg
2087.18	1.442	correct	pointing	Trial3	pointing/STIM_010.jpg
2092.56	1.471	correct	pointing	Trial3	pointing/STIM_010.jpg
2096.247	0.892	correct	pointing	Trial3	pointing/STIM_010.jpg
2100.219	0.98	correct	pointing	Trial3	pointing/STIM_010.jpg
2103.643	1.318	correct	pointing	Trial3	pointing/STIM_010.jpg
2108.056	1.414	correct	pointing	Trial3	pointing/STIM_010.jpg
2112.56	1.47	correct	pointing	Trial3	pointing/STIM_011.jpg
2117.198	1.241	incorrect	pointing	Trial3	pointing/STIM_011.jpg
2121.958	1.012	correct	pointing	Trial3	pointing/STIM_011.jpg
2125.493	1.216	correct	pointing	Trial3	pointing/STIM_011.jpg
2130.476	1.219	correct	pointing	Trial3	pointing/STIM_011.jpg
2134.205	1.039	correct	pointing	Trial3	pointing/STIM_011.jpg
