onset	duration	response_time_ms	trial_type	learning_stage	stimulus	response_port
0.0	3.472	3472.0	navigation	Trial1	navigation/STIM_000.jpg	99
5.886	2.689	2689.4	navigation	Trial1	navigation/STIM_000.jpg	99
12.347	1.962	1961.5	navigation	Trial1	navigation/STIM_000.jpg	100
17.666	3.041	3040.8	navigation	Trial1	navigation/STIM_000.jpg	100
23.149	2.766	2765.8	navigation	Trial1	navigation/STIM_000.jpg	100
27.975	1.86	1859.7	navigation	Trial1	navigation/STIM_000.jpg	100
33.755	2.353	2352.6	navigation	Trial1	navigation/STIM_001.jpg	100
39.104	4.652	4651.8	navigation	Trial1	navigation/STIM_001.jpg	100
46.108	2.364	2364.4	navigation	Trial1	navigation/STIM_001.jpg	100
52.159	1.985	1984.8	navigation	Trial1	navigation/STIM_001.jpg	99
57.757	2.148	2147.8	navigation	Trial1	navigation/STIM_001.jpg	100
62.78	2.569	2569.2	navigation	Trial1	navigation/STIM_001.jpg	100
68.631	2.479	2478.6	navigation	Trial1	navigation/STIM_002.jpg	100
73.487	3.412	3411.8	navigation	Trial1	navigation/STIM_002.jpg	99
79.831	1.882	1882.4	navigation	Trial1	navigation/STIM_002.jpg	99
85.103	3.816	3815.7	navigation	Trial1	navigation/STIM_002.jpg	100
92.849	2.823	2823.4	navigation	Trial1	navigation/STIM_002.jpg	100
98.807	1.814	1814.1	navigation	Trial1	navigation/STIM_002.jpg	100
104.617	4.685	4685.0	navigation	Trial1	navigation/STIM_003.jpg	100
112.577	3.09	3090.5	navigation	Trial1	navigation/STIM_003.jpg	100
119.544	2.876	2876.1	navigation	Trial1	navigation/STIM_003.jpg	100
124.716	3.278	3278.5	navigation	Trial1	navigation/STIM_003.jpg	100
130.859	1.78	1780.3	navigation	Trial1	navigation/STIM_003.jpg	99
136.338	2.883	2883.3	navigation	Trial1	navigation/STIM_003.jpg	100
143.143	3.406	3406.5	navigation	Trial1	navigation/STIM_004.jpg	100
148.884	3.035	3034.8	navigation	Trial1	navigation/STIM_004.jpg	100
154.197	2.275	2275.3	navigation	Trial1	navigation/STIM_004.jpg	100
159.634	2.68	2680.0	navigation	Trial1	navigation/STIM_004.jpg	100
164.432	3.143	3143.0	navigation	Trial1	navigation/STIM_004.jpg	99
169.928	1.95	1950.5	navigation	Trial1	navigation/STIM_004.jpg	100
174.878	4.849	4848.7	navigation	Trial1	navigation/STIM_005.jpg	100
183.738	1.984	1983.5	navigation	Trial1	navigation/STIM_005.jpg	100
189.627	2.275	2274.6	navigation	Trial1	navigation/STIM_005.jpg	99
193.934	3.07	3070.4	navigation	Trial1	navigation/STIM_005.jpg	99
200.618	2.451	2451.1	navigation	Trial1	navigation/STIM_005.jpg	99
206.017	3.15	3150.3	navigation	Trial1	navigation/STIM_005.jpg	99
211.331	4.493	4492.9	navigation	Trial1	navigation/STIM_006.jpg	99
219.159	2.853	2853.2	navigation	Trial1	navigation/STIM_006.jpg	100
224.717	3.253	3252.8	navigation	Trial1	navigation/STIM_006.jpg	99
230.066	2.812	2812.5	navigation	Trial1	navigation/STIM_006.jpg	99
236.009	2.105	2104.9	navigation	Trial1	navigation/STIM_006.jpg	100
240.148	3.593	3593.3	navigation	Trial1	navigation/STIM_006.jpg	100
245.834	4.638	4637.8	navigation	Trial1	navigation/STIM_007.jpg	99
254.486	4.25	4249.5	navigation	Trial1	navigation/STIM_007.jpg	100
261.323	3.041	3041.4	navigation	Trial1	navigation/STIM_007.jpg	100
268.134	3.776	3776.1	navigation	Trial1	navigation/STIM_007.jpg	100
275.239	2.12	2120.2	navigation	Trial1	navigation/STIM_007.jpg	100
280.744	1.733	1733.4	navigation	Trial1	navigation/STIM_007.jpg	99
284.86	4.182	4181.8	navigation	Trial1	navigation/STIM_008.jpg	99
291.295	4.142	4141.9	navigation	Trial1	navigation/STIM_008.jpg	99
298.922	2.034	2034.4	navigation	Trial1	navigation/STIM_008.jpg	99
303.077	2.176	2175.8	navigation	Trial1	navigation/STIM_008.jpg	99
307.365	3.555	3554.9	navigation	Trial1	navigation/STIM_008.jpg	100
313.984	1.98	1980.5	navigation	Trial1	navigation/STIM_008.jpg	100
319.835	2.819	2818.6	navigation	Trial1	navigation/STIM_009.jpg	99
326.646	3.745	3745.0	navigation	Trial1	navigation/STIM_009.jpg	100
333.967	4.306	4306.5	navigation	Trial1	navigation/STIM_009.jpg	100
341.541	2.404	2404.4	navigation	Trial1	navigation/STIM_009.jpg	100
347.681	3.119	3118.7	navigation	Trial1	navigation/STIM_009.jpg	100
353.887	2.186	2185.7	navigation	Trial1	navigation/STIM_009.jpg	99
359.484	4.0	3999.8	navigation	Trial1	navigation/STIM_010.jpg	100
366.72	1.894	1894.1	navigation	Trial1	navigation/STIM_010.jpg	99
371.804	4.478	4477.6	navigation	Trial1	navigation/STIM_010.jpg	100
379.709	4.179	4179.3	navigation	Trial1	navigation/STIM_010.jpg	99
386.559	3.818	3817.7	navigation	Trial1	navigation/STIM_010.jpg	100
393.661	1.738	1737.5	navigation	Trial1	navigation/STIM_010.jpg	99
397.764	3.789	3789.3	navigation	Trial1	navigation/STIM_011.jpg	99
405.186	2.418	2418.1	navigation	Trial1	navigation/STIM_011.jpg	100
410.434	2.72	2719.7	navigation	Trial1	navigation/STIM_011.jpg	99
415.862	3.404	3404.4	navigation	Trial1	navigation/STIM_011.jpg	99
422.965	3.13	3129.9	navigation	Trial1	navigation/STIM_011.jpg	100
429.893	3.577	3577.4	navigation	Trial1	navigation/STIM_011.jpg	100
436.007	1.129	1128.9	pointing	Trial1	pointing/STIM_000.jpg	100
440.71	1.034	1033.8	pointing	Trial1	pointing/STIM_000.jpg	99
444.668	0.925	925.1	pointing	Trial1	pointing/STIM_000.jpg	100
449.068	0.938	937.6	pointing	Trial1	pointing/STIM_000.jpg	100
452.175	1.214	1214.0	pointing	Trial1	pointing/STIM_000.jpg	100
455.775	0.974	973.5	pointing	Trial1	pointing/STIM_000.jpg	99
460.065	0.877	877.2	pointing	Trial1	pointing/STIM_001.jpg	100
464.362	1.255	1255.1	pointing	Trial1	pointing/STIM_001.jpg	99
468.625	1.378	1377.5	pointing	Trial1	pointing/STIM_001.jpg	99
473.509	1.367	1366.6	pointing	Trial1	pointing/STIM_001.jpg	100
478.772	1.416	1416.3	pointing	Trial1	pointing/STIM_001.jpg	100
482.801	1.1	1100.5	pointing	Trial1	pointing/STIM_001.jpg	99
486.066	0.798	798.3	pointing	Trial1	pointing/STIM_002.jpg	99
489.6	1.45	1449.9	pointing	Trial1	pointing/STIM_002.jpg	100
494.112	1.458	1458.0	pointing	Trial1	pointing/STIM_002.jpg	99
499.237	1.092	1092.2	pointing	Trial1	pointing/STIM_002.jpg	99
504.199	1.194	1193.6	pointing	Trial1	pointing/STIM_002.jpg	100
507.968	1.12	1119.8	pointing	Trial1	pointing/STIM_002.jpg	99
511.404	1.224	1224.0	pointing	Trial1	pointing/STIM_003.jpg	99
515.748	0.806	806.1	pointing	Trial1	pointing/STIM_003.jpg	100
519.543	0.835	835.1	pointing	Trial1	pointing/STIM_003.jpg	99
524.183	1.033	1032.6	pointing	Trial1	pointing/STIM_003.jpg	100
528.675	1.108	1107.5	pointing	Trial1	pointing/STIM_003.jpg	99
532.506	1.078	1078.4	pointing	Trial1	pointing/STIM_003.jpg	99
536.942	0.911	911.3	pointing	Trial1	pointing/STIM_004.jpg	100
541.41	1.129	1129.0	pointing	Trial1	pointing/STIM_004.jpg	100
546.099	0.854	854.0	pointing	Trial1	pointing/STIM_004.jpg	99
549.179	1.062	1062.1	pointing	Trial1	pointing/STIM_004.jpg	100
552.403	1.363	1362.6	pointing	Trial1	pointing/STIM_004.jpg	100
555.846	0.931	930.8	pointing	Trial1	pointing/STIM_004.jpg	99
559.23	0.94	939.6	pointing	Trial1	pointing/STIM_005.jpg	100
563.896	1.376	1375.7	pointing	Trial1	pointing/STIM_005.jpg	100
567.345	1.324	1324.3	pointing	Trial1	pointing/STIM_005.jpg	99
571.557	1.056	1055.5	pointing	Trial1	pointing/STIM_005.jpg	99
574.664	1.026	1026.5	pointing	Trial1	pointing/STIM_005.jpg	100
579.593	0.923	923.3	pointing	Trial1	pointing/STIM_005.jpg	99
582.67	0.815	814.6	pointing	Trial1	pointing/STIM_006.jpg	99
586.327	1.467	1467.3	pointing	Trial1	pointing/STIM_006.jpg	100
591.316	0.901	901.1	pointing	Trial1	pointing/STIM_006.jpg	100
594.676	0.957	957.3	pointing	Trial1	pointing/STIM_006.jpg	99
598.579	0.914	913.5	pointing	Trial1	pointing/STIM_006.jpg	100
601.61	0.961	961.2	pointing	Trial1	pointing/STIM_006.jpg	99
606.471	1.106	1105.7	pointing	Trial1	pointing/STIM_007.jpg	100
611.334	1.444	1444.4	pointing	Trial1	pointing/STIM_007.jpg	99
615.452	0.851	850.8	pointing	Trial1	pointing/STIM_007.jpg	99
620.294	1.232	1232.3	pointing	Trial1	pointing/STIM_007.jpg	100
623.725	1.063	1062.9	pointing	Trial1	pointing/STIM_007.jpg	100
627.399	1.133	1133.4	pointing	Trial1	pointing/STIM_007.jpg	99
631.342	1.113	1113.2	pointing	Trial1	pointing/STIM_008.jpg	100
634.764	1.454	1454.2	pointing	Trial1	pointing/STIM_008.jpg	99
638.253	1.155	1154.9	pointing	Trial1	pointing/STIM_008.jpg	100
643.162	0.857	856.6	pointing	Trial1	pointing/STIM_008.jpg	100
647.972	1.06	1060.3	pointing	Trial1	pointing/STIM_008.jpg	100
652.479	0.83	830.4	pointing	Trial1	pointing/STIM_008.jpg	100
656.083	0.935	935.1	pointing	Trial1	pointing/STIM_009.jpg	99
659.597	1.315	1315.4	pointing	Trial1	pointing/STIM_009.jpg	99
663.191	1.328	1327.8	pointing	Trial1	pointing/STIM_009.jpg	100
666.541	1.228	1228.3	pointing	Trial1	pointing/STIM_009.jpg	99
670.322	1.233	1232.9	pointing	Trial1	pointing/STIM_009.jpg	100
674.738	0.923	923.0	pointing	Trial1	pointing/STIM_009.jpg	99
677.935	1.282	1281.6	pointing	Trial1	pointing/STIM_010.jpg	100
682.574	1.206	1205.9	pointing	Trial1	pointing/STIM_010.jpg	99
686.939	1.452	1452.2	pointing	Trial1	pointing/STIM_010.jpg	100
691.301	1.07	1069.5	pointing	Trial1	pointing/STIM_010.jpg	100
694.532	0.887	886.8	pointing	Trial1	pointing/STIM_010.jpg	99
698.424	1.338	1338.1	pointing	Trial1	pointing/STIM_010.jpg	99
702.121	1.13	1130.2	pointing	Trial1	pointing/STIM_011.jpg	99
705.836	1.364	1364.0	pointing	Trial1	pointing/STIM_011.jpg	100
709.414	1.284	1284.5	pointing	Trial1	pointing/STIM_011.jpg	99
714.173	1.082	1082.0	pointing	Trial1	pointing/STIM_011.jpg	99
719.101	0.919	918.9	pointing	Trial1	pointing/STIM_011.jpg	100
722.058	1.294	1293.8	pointing	Trial1	pointing/STIM_011.jpg	100
725.948	2.658	2658.4	navigation	Trial2	navigation/STIM_000.jpg	100
731.404	3.442	3442.1	navigation	Trial2	navigation/STIM_000.jpg	99
737.903	2.208	2208.2	navigation	Trial2	navigation/STIM_000.jpg	99
743.466	1.506	1506.2	navigation	Trial2	navigation/STIM_000.jpg	100
748.547	2.238	2238.5	navigation	Trial2	navigation/STIM_000.jpg	99
753.38	2.374	2373.9	navigation	Trial2	navigation/STIM_000.jpg	99
759.462	3.961	3960.9	navigation	Trial2	navigation/STIM_001.jpg	99
767.232	2.931	2931.1	navigation	Trial2	navigation/STIM_001.jpg	99
772.628	2.897	2896.8	navigation	Trial2	navigation/STIM_001.jpg	100
778.101	1.78	1780.1	navigation	Trial2	navigation/STIM_001.jpg	100
783.699	1.642	1641.7	navigation	Trial2	navigation/STIM_001.jpg	100
788.187	1.71	1709.7	navigation	Trial2	navigation/STIM_001.jpg	99
792.595	2.538	2538.0	navigation	Trial2	navigation/STIM_002.jpg	99
798.288	2.99	2989.8	navigation	Trial2	navigation/STIM_002.jpg	100
803.979	2.824	2823.7	navigation	Trial2	navigation/STIM_002.jpg	99
810.098	1.767	1766.6	navigation	Trial2	navigation/STIM_002.jpg	100
815.7	2.561	2561.4	navigation	Trial2	navigation/STIM_002.jpg	100
821.568	2.759	2759.1	navigation	Trial2	navigation/STIM_002.jpg	99
828.183	2.945	2944.6	navigation	Trial2	navigation/STIM_003.jpg	99
834.032	1.852	1851.6	navigation	Trial2	navigation/STIM_003.jpg	100
838.343	1.788	1787.5	navigation	Trial2	navigation/STIM_003.jpg	100
843.862	1.914	1913.8	navigation	Trial2	navigation/STIM_003.jpg	100
848.735	2.892	2891.7	navigation	Trial2	navigation/STIM_003.jpg	100
854.369	2.541	2540.6	navigation	Trial2	navigation/STIM_003.jpg	99
859.78	2.198	2197.9	navigation	Trial2	navigation/STIM_004.jpg	99
864.569	3.245	3245.3	navigation	Trial2	navigation/STIM_004.jpg	100
870.912	3.619	3619.4	navigation	Trial2	navigation/STIM_004.jpg	100
877.919	2.499	2498.6	navigation	Trial2	navigation/STIM_004.jpg	100
884.333	2.56	2559.8	navigation	Trial2	navigation/STIM_004.jpg	100
889.741	2.485	2485.3	navigation	Trial2	navigation/STIM_004.jpg	100
894.841	4.157	4156.8	navigation	Trial2	navigation/STIM_005.jpg	99
901.625	3.636	3636.1	navigation	Trial2	navigation/STIM_005.jpg	99
908.788	2.332	2331.5	navigation	Trial2	navigation/STIM_005.jpg	99
913.295	3.164	3164.3	navigation	Trial2	navigation/STIM_005.jpg	100
918.818	2.239	2238.6	navigation	Trial2	navigation/STIM_005.jpg	99
923.481	2.814	2814.5	navigation	Trial2	navigation/STIM_005.jpg	99
929.971	3.82	3819.5	navigation	Trial2	navigation/STIM_006.jpg	100
937.105	2.137	2136.9	navigation	Trial2	navigation/STIM_006.jpg	99
942.362	3.656	3655.9	navigation	Trial2	navigation/STIM_006.jpg	100
949.8	3.464	3464.2	navigation	Trial2	navigation/STIM_006.jpg	100
955.564	1.894	1893.7	navigation	Trial2	navigation/STIM_006.jpg	99
959.928	2.424	2424.0	navigation	Trial2	navigation/STIM_006.jpg	100
965.784	2.745	2745.3	navigation	Trial2	navigation/STIM_007.jpg	100
971.498	3.308	3308.1	navigation	Trial2	navigation/STIM_007.jpg	99
978.279	2.156	2156.0	navigation	Trial2	navigation/STIM_007.jpg	99
982.624	3.27	3270.5	navigation	Trial2	navigation/STIM_007.jpg	100
988.89	3.288	3287.6	navigation	Trial2	navigation/STIM_007.jpg	100
995.072	2.906	2906.5	navigation	Trial2	navigation/STIM_007.jpg	100
1000.65	1.8	1799.5	navigation	Trial2	navigation/STIM_008.jpg	99
1005.909	3.561	3561.2	navigation	Trial2	navigation/STIM_008.jpg	99
1013.407	3.667	3667.0	navigation	Trial2	navigation/STIM_008.jpg	100
1020.43	2.677	2677.3	navigation	Trial2	navigation/STIM_008.jpg	100
1025.416	2.536	2536.0	navigation	Trial2	navigation/STIM_008.jpg	99
1031.134	2.35	2350.2	navigation	Trial2	navigation/STIM_008.jpg	99
1037.073	3.693	3692.6	navigation	Trial2	navigation/STIM_009.jpg	99
1043.888	2.407	2407.3	navigation	Trial2	navigation/STIM_009.jpg	100
1049.297	3.142	3141.7	navigation	Trial2	navigation/STIM_009.jpg	100
1054.522	1.961	1961.2	navigation	Trial2	navigation/STIM_009.jpg	100
1058.498	3.348	3347.7	navigation	Trial2	navigation/STIM_009.jpg	99
1065.313	1.872	1872.4	navigation	Trial2	navigation/STIM_009.jpg	99
1069.656	3.348	3347.5	navigation	Trial2	navigation/STIM_010.jpg	100
1076.977	2.368	2368.1	navigation	Trial2	navigation/STIM_010.jpg	99
1083.304	1.793	1792.6	navigation	Trial2	navigation/STIM_010.jpg	99
1088.644	3.132	3132.3	navigation	Trial2	navigation/STIM_010.jpg	99
1095.518	1.462	1462.3	navigation	Trial2	navigation/STIM_010.jpg	100
1099.076	1.651	1651.1	navigation	Trial2	navigation/STIM_010.jpg	99
1104.476	1.723	1722.6	navigation	Trial2	navigation/STIM_011.jpg	99
1108.719	2.421	2421.3	navigation	Trial2	navigation/STIM_011.jpg	100
1114.537	2.922	2922.1	navigation	Trial2	navigation/STIM_011.jpg	100
1121.44	2.058	2058.5	navigation	Trial2	navigation/STIM_011.jpg	100
1127.097	3.17	3170.2	navigation	Trial2	navigation/STIM_011.jpg	100
1133.844	3.218	3217.6	navigation	Trial2	navigation/STIM_011.jpg	99
1140.16	1.146	1145.8	pointing	Trial2	pointing/STIM_000.jpg	100
1145.162	1.255	1255.1	pointing	Trial2	pointing/STIM_000.jpg	99
1148.544	1.386	1385.9	pointing	Trial2	pointing/STIM_000.jpg	99
1152.348	0.949	948.6	pointing	Trial2	pointing/STIM_000.jpg	99
1156.288	1.407	1406.8	pointing	Trial2	pointing/STIM_000.jpg	99
1160.843	1.079	1078.7	pointing	Trial2	pointing/STIM_000.jpg	100
1163.944	0.919	919.3	pointing	Trial2	pointing/STIM_001.jpg	100
1168.105	1.243	1242.8	pointing	Trial2	pointing/STIM_001.jpg	100
1172.325	1.119	1119.1	pointing	Trial2	pointing/STIM_001.jpg	100
1176.723	1.012	1012.3	pointing	Trial2	pointing/STIM_001.jpg	100
1180.732	1.062	1061.6	pointing	Trial2	pointing/STIM_001.jpg	99
1185.54	0.843	843.0	pointing	Trial2	pointing/STIM_001.jpg	99
1189.384	1.099	1099.3	pointing	Trial2	pointing/STIM_002.jpg	99
1192.911	1.168	1168.4	pointing	Trial2	pointing/STIM_002.jpg	100
1196.703	1.436	1436.4	pointing	Trial2	pointing/STIM_002.jpg	100
1200.622	1.226	1226.1	pointing	Trial2	pointing/STIM_002.jpg	99
1204.526	1.191	1191.4	pointing	Trial2	pointing/STIM_002.jpg	99
1208.445	1.129	1129.4	pointing	Trial2	pointing/STIM_002.jpg	100
1212.328	1.255	1254.6	pointing	Trial2	pointing/STIM_003.jpg	99
1216.009	1.128	1127.5	pointing	Trial2	pointing/STIM_003.jpg	99
1220.709	0.858	857.5	pointing	Trial2	pointing/STIM_003.jpg	100
1223.83	1.135	1134.8	pointing	Trial2	pointing/STIM_003.jpg	100
1228.147	1.283	1283.0	pointing	Trial2	pointing/STIM_003.jpg	100
1232.12	1.209	1209.1	pointing	Trial2	pointing/STIM_003.jpg	99
1236.811	0.809	808.6	pointing	Trial2	pointing/STIM_004.jpg	100
1240.739	1.097	1097.3	pointing	Trial2	pointing/STIM_004.jpg	99
1244.595	1.394	1393.9	pointing	Trial2	pointing/STIM_004.jpg	99
1248.294	1.454	1453.9	pointing	Trial2	pointing/STIM_004.jpg	100
1251.989	0.837	837.2	pointing	Trial2	pointing/STIM_004.jpg	99
1255.99	0.87	869.8	pointing	Trial2	pointing/STIM_004.jpg	99
1260.505	0.988	988.0	pointing	Trial2	pointing/STIM_005.jpg	99
1265.042	1.342	1341.7	pointing	Trial2	pointing/STIM_005.jpg	99
1270.299	0.962	961.9	pointing	Trial2	pointing/STIM_005.jpg	99
1273.855	1.313	1312.8	pointing	Trial2	pointing/STIM_005.jpg	99
1278.393	1.146	1145.8	pointing	Trial2	pointing/STIM_005.jpg	99
1282.868	1.116	1116.5	pointing	Trial2	pointing/STIM_005.jpg	100
1286.899	0.798	797.6	pointing	Trial2	pointing/STIM_006.jpg	100
1290.031	1.288	1288.5	pointing	Trial2	pointing/STIM_006.jpg	99
1295.216	1.318	1317.6	pointing	Trial2	pointing/STIM_006.jpg	99
1298.879	1.203	1203.2	pointing	Trial2	pointing/STIM_006.jpg	99
1302.33	0.87	870.4	pointing	Trial2	pointing/STIM_006.jpg	99
1305.366	0.965	964.7	pointing	Trial2	pointing/STIM_006.jpg	99
1310.047	0.991	991.3	pointing	Trial2	pointing/STIM_007.jpg	100
1314.392	1.29	1290.4	pointing	Trial2	pointing/STIM_007.jpg	99
1318.335	0.991	990.9	pointing	Trial2	pointing/STIM_007.jpg	100
1321.437	0.96	959.8	pointing	Trial2	pointing/STIM_007.jpg	100
1326.12	1.385	1385.3	pointing	Trial2	pointing/STIM_007.jpg	99
1330.381	1.276	1276.3	pointing	Trial2	pointing/STIM_007.jpg	100
1334.513	0.876	875.6	pointing	Trial2	pointing/STIM_008.jpg	99
1337.893	1.281	1280.6	pointing	Trial2	pointing/STIM_008.jpg	100
1341.59	1.226	1226.5	pointing	Trial2	pointing/STIM_008.jpg	99
1346.355	0.878	878.0	pointing	Trial2	pointing/STIM_008.jpg	100
1349.845	1.358	1358.2	pointing	Trial2	pointing/STIM_008.jpg	100
1354.03	1.368	1368.0	pointing	Trial2	pointing/STIM_008.jpg	100
1358.272	1.084	1083.7	pointing	Trial2	pointing/STIM_009.jpg	100
1363.157	1.29	1289.7	pointing	Trial2	pointing/STIM_009.jpg	99
1368.225	1.331	1330.6	pointing	Trial2	pointing/STIM_009.jpg	99
1372.062	1.104	1103.6	pointing	Trial2	pointing/STIM_009.jpg	100
1375.86	0.846	845.8	pointing	Trial2	pointing/STIM_009.jpg	99
1379.287	0.913	912.9	pointing	Trial2	pointing/STIM_009.jpg	100
1382.951	1.043	1042.8	pointing	Trial2	pointing/STIM_010.jpg	99
1386.283	1.175	1175.1	pointing	Trial2	pointing/STIM_010.jpg	99
1390.433	1.237	1237.3	pointing	Trial2	pointing/STIM_010.jpg	100
1393.933	1.035	1035.3	pointing	Trial2	pointing/STIM_010.jpg	100
1397.308	0.933	933.2	pointing	Trial2	pointing/STIM_010.jpg	99
1402.172	1.192	1191.5	pointing	Trial2	pointing/STIM_010.jpg	99
1406.732	1.465	1465.2	pointing	Trial2	pointing/STIM_011.jpg	100
1410.232	1.252	1252.5	pointing	Trial2	pointing/STIM_011.jpg	99
1414.277	1.036	1035.9	pointing	Trial2	pointing/STIM_011.jpg	100
1417.539	1.307	1306.8	pointing	Trial2	pointing/STIM_011.jpg	99
1421.797	1.33	1329.5	pointing	Trial2	pointing/STIM_011.jpg	99
1426.001	1.312	1312.1	pointing	Trial2	pointing/STIM_011.jpg	99
1431.167	1.467	1467.2	navigation	Trial3	navigation/STIM_000.jpg	99
1434.769	1.477	1477.0	navigation	Trial3	navigation/STIM_000.jpg	99
1439.125	2.104	2104.1	navigation	Trial3	navigation/STIM_000.jpg	100
1444.827	3.107	3106.9	navigation	Trial3	navigation/STIM_000.jpg	99
1451.525	1.513	1512.8	navigation	Trial3	navigation/STIM_000.jpg	100
1456.74	2.449	2449.4	navigation	Trial3	navigation/STIM_000.jpg	99
1462.152	2.179	2178.8	navigation	Trial3	navigation/STIM_001.jpg	99
1468.212	1.496	1495.5	navigation	Trial3	navigation/STIM_001.jpg	99
1473.059	2.309	2309.1	navigation	Trial3	navigation/STIM_001.jpg	100
1478.031	3.458	3457.6	navigation	Trial3	navigation/STIM_001.jpg	100
1484.436	2.967	2966.7	navigation	Trial3	navigation/STIM_001.jpg	99
1489.714	2.207	2206.6	navigation	Trial3	navigation/STIM_001.jpg	100
1495.018	1.437	1437.0	navigation	Trial3	navigation/STIM_002.jpg	99
1498.633	2.898	2897.8	navigation	Trial3	navigation/STIM_002.jpg	99
1505.054	2.335	2335.3	navigation	Trial3	navigation/STIM_002.jpg	99
1509.998	3.355	3355.4	navigation	Trial3	navigation/STIM_002.jpg	99
1517.057	3.022	3022.2	navigation	Trial3	navigation/STIM_002.jpg	99
1522.24	2.246	2246.2	navigation	Trial3	navigation/STIM_002.jpg	99
1526.935	3.343	3342.6	navigation	Trial3	navigation/STIM_003.jpg	99
1532.869	1.644	1643.6	navigation	Trial3	navigation/STIM_003.jpg	100
1536.825	1.935	1935.2	navigation	Trial3	navigation/STIM_003.jpg	99
1542.766	3.188	3187.6	navigation	Trial3	navigation/STIM_003.jpg	99
1548.439	2.608	2607.7	navigation	Trial3	navigation/STIM_003.jpg	100
1554.767	1.63	1629.7	navigation	Trial3	navigation/STIM_003.jpg	99
1559.555	2.839	2838.6	navigation	Trial3	navigation/STIM_004.jpg	100
1564.863	3.314	3313.9	navigation	Trial3	navigation/STIM_004.jpg	99
1571.11	2.358	2358.4	navigation	Trial3	navigation/STIM_004.jpg	99
1576.886	1.608	1607.5	navigation	Trial3	navigation/STIM_004.jpg	99
1581.422	3.203	3202.8	navigation	Trial3	navigation/STIM_004.jpg	99
1586.758	1.999	1998.9	navigation	Trial3	navigation/STIM_004.jpg	100
1592.186	2.857	2857.0	navigation	Trial3	navigation/STIM_005.jpg	99
1597.864	2.32	2320.0	navigation	Trial3	navigation/STIM_005.jpg	99
1603.612	3.477	3477.4	navigation	Trial3	navigation/STIM_005.jpg	100
1609.709	3.08	3079.5	navigation	Trial3	navigation/STIM_005.jpg	100
1615.324	1.453	1453.1	navigation	Trial3	navigation/STIM_005.jpg	99
1619.99	2.09	2090.4	navigation	Trial3	navigation/STIM_005.jpg	99
1625.143	2.168	2168.5	navigation	Trial3	navigation/STIM_006.jpg	100
1630.644	2.89	2890.0	navigation	Trial3	navigation/STIM_006.jpg	99
1635.584	2.672	2672.5	navigation	Trial3	navigation/STIM_006.jpg	99
1642.12	3.208	3207.6	navigation	Trial3	navigation/STIM_006.jpg	100
1648.235	2.365	2364.6	navigation	Trial3	navigation/STIM_006.jpg	100
1653.39	2.102	2101.9	navigation	Trial3	navigation/STIM_006.jpg	100
1659.026	1.922	1922.2	navigation	Trial3	navigation/STIM_007.jpg	100
1663.851	1.66	1659.7	navigation	Trial3	navigation/STIM_007.jpg	99
1669.165	2.888	2888.5	navigation	Trial3	navigation/STIM_007.jpg	100
1675.829	2.261	2261.3	navigation	Trial3	navigation/STIM_007.jpg	100
1681.589	2.342	2341.9	navigation	Trial3	navigation/STIM_007.jpg	99
1686.026	2.429	2428.7	navigation	Trial3	navigation/STIM_007.jpg	99
1691.389	2.051	2051.3	navigation	Trial3	navigation/STIM_008.jpg	100
1697.211	3.145	3144.8	navigation	Trial3	navigation/STIM_008.jpg	99
1702.836	2.357	2357.0	navigation	Trial3	navigation/STIM_008.jpg	99
1708.512	1.661	1661.3	navigation	Trial3	navigation/STIM_008.jpg	99
1713.947	1.494	1493.6	navigation	Trial3	navigation/STIM_008.jpg	99
1719.168	2.461	2461.0	navigation	Trial3	navigation/STIM_008.jpg	99
1724.908	2.577	2577.1	navigation	Trial3	navigation/STIM_009.jpg	100
1729.642	2.134	2133.5	navigation	Trial3	navigation/STIM_009.jpg	100
1734.708	2.985	2985.0	navigation	Trial3	navigation/STIM_009.jpg	100
1740.258	2.733	2732.9	navigation	Trial3	navigation/STIM_009.jpg	100
1745.074	3.27	3269.9	navigation	Trial3	navigation/STIM_009.jpg	100
1751.591	1.895	1895.1	navigation	Trial3	navigation/STIM_009.jpg	99
1756.083	2.14	2139.8	navigation	Trial3	navigation/STIM_010.jpg	100
1761.563	2.509	2509.4	navigation	Trial3	navigation/STIM_010.jpg	100
1767.894	2.186	2185.8	navigation	Trial3	navigation/STIM_010.jpg	100
1772.141	2.759	2758.6	navigation	Trial3	navigation/STIM_010.jpg	99
1778.449	2.224	2224.2	navigation	Trial3	navigation/STIM_010.jpg	99
1782.746	2.591	2590.8	navigation	Trial3	navigation/STIM_010.jpg	99
1787.742	3.481	3480.6	navigation	Trial3	navigation/STIM_011.jpg	100
1794.855	3.2	3200.0	navigation	Trial3	navigation/STIM_011.jpg	100
1801.552	2.738	2738.1	navigation	Trial3	navigation/STIM_011.jpg	99
1806.34	1.851	1851.1	navigation	Trial3	navigation/STIM_011.jpg	99
1812.063	2.925	2924.6	navigation	Trial3	navigation/STIM_011.jpg	100
1818.478	1.688	1687.5	navigation	Trial3	navigation/STIM_011.jpg	99
1823.725	1.177	1177.0	pointing	Trial3	pointing/STIM_000.jpg	99
1828.414	1.072	1071.7	pointing	Trial3	pointing/STIM_000.jpg	100
1832.96	1.14	1140.1	pointing	Trial3	pointing/STIM_000.jpg	99
1837.842	1.181	1181.4	pointing	Trial3	pointing/STIM_000.jpg	100
1842.728	0.963	962.9	pointing	Trial3	pointing/STIM_000.jpg	100
1847.682	1.492	1491.7	pointing	Trial3	pointing/STIM_000.jpg	100
1851.734	0.95	950.4	pointing	Trial3	pointing/STIM_001.jpg	100
1855.403	1.109	1109.4	pointing	Trial3	pointing/STIM_001.jpg	100
1859.934	1.346	1345.9	pointing	Trial3	pointing/STIM_001.jpg	99
1863.568	0.948	948.0	pointing	Trial3	pointing/STIM_001.jpg	100
1868.097	1.294	1293.6	pointing	Trial3	pointing/STIM_001.jpg	100
1871.975	1.079	1078.7	pointing	Trial3	pointing/STIM_001.jpg	99
1876.613	1.147	1147.4	pointing	Trial3	pointing/STIM_002.jpg	100
1880.85	0.819	819.0	pointing	Trial3	pointing/STIM_002.jpg	100
1884.094	1.307	1307.2	pointing	Trial3	pointing/STIM_002.jpg	100
1889.389	0.859	859.3	pointing	Trial3	pointing/STIM_002.jpg	99
1893.783	1.209	1209.2	pointing	Trial3	pointing/STIM_002.jpg	99
1897.57	1.039	1039.0	pointing	Trial3	pointing/STIM_002.jpg	99
1902.357	1.316	1315.6	pointing	Trial3	pointing/STIM_003.jpg	99
1906.966	0.805	804.8	pointing	Trial3	pointing/STIM_003.jpg	99
1910.787	1.212	1211.9	pointing	Trial3	pointing/STIM_003.jpg	100
1915.214	0.918	918.1	pointing	Trial3	pointing/STIM_003.jpg	99
1918.593	1.379	1378.8	pointing	Trial3	pointing/STIM_003.jpg	99
1922.481	1.236	1236.3	pointing	Trial3	pointing/STIM_003.jpg	100
1926.003	1.364	1364.3	pointing	Trial3	pointing/STIM_004.jpg	100
1930.913	1.133	1133.0	pointing	Trial3	pointing/STIM_004.jpg	99
1934.329	1.122	1121.5	pointing	Trial3	pointing/STIM_004.jpg	100
1939.26	0.979	979.2	pointing	Trial3	pointing/STIM_004.jpg	99
1942.491	1.307	1307.4	pointing	Trial3	pointing/STIM_004.jpg	100
1946.465	1.494	1493.9	pointing	Trial3	pointing/STIM_004.jpg	100
1951.253	1.274	1274.3	pointing	Trial3	pointing/STIM_005.jpg	99
1955.095	1.218	1217.5	pointing	Trial3	pointing/STIM_005.jpg	100
1958.827	0.814	814.4	pointing	Trial3	pointing/STIM_005.jpg	100
1962.73	1.246	1246.4	pointing	Trial3	pointing/STIM_005.jpg	100
1967.398	1.23	1230.3	pointing	Trial3	pointing/STIM_005.jpg	99
1972.48	0.885	884.8	pointing	Trial3	pointing/STIM_005.jpg	100
1976.853	1.39	1389.6	pointing	Trial3	pointing/STIM_006.jpg	100
1982.045	1.256	1256.5	pointing	Trial3	pointing/STIM_006.jpg	100
1985.325	1.321	1320.7	pointing	Trial3	pointing/STIM_006.jpg	100
1989.956	1.152	1152.1	pointing	Trial3	pointing/STIM_006.jpg	99
1994.964	1.425	1424.8	pointing	Trial3	pointing/STIM_006.jpg	99
1999.008	1.272	1272.5	pointing	Trial3	pointing/STIM_006.jpg	99
2004.209	1.188	1188.3	pointing	Trial3	pointing/STIM_007.jpg	99
2008.492	1.017	1016.7	pointing	Trial3	pointing/STIM_007.jpg	100
2011.831	1.471	1470.6	pointing	Trial3	pointing/STIM_007.jpg	100
2016.133	0.899	898.8	pointing	Trial3	pointing/STIM_007.jpg	99
2019.337	1.188	1187.5	pointing	Trial3	pointing/STIM_007.jpg	100
2024.36	1.484	1483.8	pointing	Trial3	pointing/STIM_007.jpg	99
2029.189	1.489	1489.2	pointing	Trial3	pointing/STIM_008.jpg	99
2033.716	1.437	1437.0	pointing	Trial3	pointing/STIM_008.jpg	100
2037.445	0.96	960.1	pointing	Trial3	pointing/STIM_008.jpg	99
2042.351	1.006	1006.2	pointing	Trial3	pointing/STIM_008.jpg	99
2046.504	1.265	1265.0	pointing	Trial3	pointing/STIM_008.jpg	100
2050.326	0.863	862.6	pointing	Trial3	pointing/STIM_008.jpg	100
2053.219	1.294	1293.9	pointing	Trial3	pointing/STIM_009.jpg	99
2057.257	0.832	831.7	pointing	Trial3	pointing/STIM_009.jpg	100
2061.993	1.183	1183.1	pointing	Trial3	pointing/STIM_009.jpg	100
2066.969	1.355	1354.6	pointing	Trial3	pointing/STIM_009.jpg	100
2070.795	1.314	1313.5	pointing	Trial3	pointing/STIM_009.jpg	99
2074.312	1.182	1181.8	pointing	Trial3	pointing/STIM_009.jpg	99
2079.025	1.293	1292.9	pointing	Trial3	pointing/STIM_010.jpg	99
2083.861	1.279	1278.7	pointing	Trial3	pointing/STIM_010.jpg	99
2087.759	0.857	856.6	pointing	Trial3	pointing/STIM_010.jpg	99
2091.853	1.08	1079.6	pointing	Trial3	pointing/STIM_010.jpg	100
2095.943	0.868	868.1	pointing	Trial3	pointing/STIM_010.jpg	100
2100.685	1.174	1173.6	pointing	Trial3	pointing/STIM_010.jpg	99
2104.307	1.367	1366.6	pointing	Trial3	pointing/STIM_011.jpg	99
2108.471	1.134	1134.1	pointing	Trial3	pointing/STIM_011.jpg	99
2112.284	0.834	834.0	pointing	Trial3	pointing/STIM_011.jpg	99
2115.906	1.076	1076.2	pointing	Trial3	pointing/STIM_011.jpg	100
2120.403	1.26	1259.6	pointing	Trial3	pointing/STIM_011.jpg	100
2125.552	1.149	1149.3	pointing	Trial3	pointing/STIM_011.jpg	99
