onset	duration	response_time_ms	trial_type	learning_stage	stimulus	response_port
0.0	2.766	2766.1	navigation	Trial1	navigation/STIM_000.jpg	100
7.024	2.155	2155.3	navigation	Trial1	navigation/STIM_000.jpg	100
13.19	2.441	2440.7	navigation	Trial1	navigation/STIM_000.jpg	100
18.672	2.808	2808.3	navigation	Trial1	navigation/STIM_000.jpg	100
25.34	3.164	3163.5	navigation	Trial1	navigation/STIM_000.jpg	99
31.504	1.483	1482.6	navigation	Trial1	navigation/STIM_000.jpg	100
35.681	3.963	3963.1	navigation	Trial1	navigation/STIM_001.jpg	99
42.679	2.076	2076.1	navigation	Trial1	navigation/STIM_001.jpg	100
48.427	3.337	3337.3	navigation	Trial1	navigation/STIM_001.jpg	100
55.982	2.059	2059.2	navigation	Trial1	navigation/STIM_001.jpg	99
60.616	3.472	3471.7	navigation	Trial1	navigation/STIM_001.jpg	99
67.143	1.388	1388.4	navigation	Trial1	navigation/STIM_001.jpg	99
70.803	3.624	3624.4	navigation	Trial1	navigation/STIM_002.jpg	100
77.518	1.93	1930.2	navigation	Trial1	navigation/STIM_002.jpg	99
83.596	1.98	1980.1	navigation	Trial1	navigation/STIM_002.jpg	100
88.068	2.328	2327.7	navigation	Trial1	navigation/STIM_002.jpg	100
93.563	1.983	1983.1	navigation	Trial1	navigation/STIM_002.jpg	100
99.248	2.227	2226.6	navigation	Trial1	navigation/STIM_002.jpg	99
105.749	3.185	3185.0	navigation	Trial1	navigation/STIM_003.jpg	100
112.806	2.208	2208.3	navigation	Trial1	navigation/STIM_003.jpg	100
118.563	2.484	2484.2	navigation	Trial1	navigation/STIM_003.jpg	100
124.484	2.487	2487.0	navigation	Trial1	navigation/STIM_003.jpg	99
130.154	1.44	1440.2	navigation	Trial1	navigation/STIM_003.jpg	99
134.394	2.386	2386.3	navigation	Trial1	navigation/STIM_003.jpg	99
140.117	3.474	3474.4	navigation	Trial1	navigation/STIM_004.jpg	100
147.382	3.239	3239.1	navigation	Trial1	navigation/STIM_004.jpg	100
154.523	2.29	2290.5	navigation	Trial1	navigation/STIM_004.jpg	100
159.318	2.528	2527.9	navigation	Trial1	navigation/STIM_004.jpg	99
165.023	2.124	2123.8	navigation	Trial1	navigation/STIM_004.jpg	99
171.161	1.921	1920.9	navigation	Trial1	navigation/STIM_004.jpg	99
175.817	2.254	2254.5	navigation	Trial1	navigation/STIM_005.jpg	100
181.401	2.944	2944.4	navigation	Trial1	navigation/STIM_005.jpg	99
187.338	3.185	3185.4	navigation	Trial1	navigation/STIM_005.jpg	100
193.911	3.301	3301.3	navigation	Trial1	navigation/STIM_005.jpg	99
201.237	1.785	1785.3	navigation	Trial1	navigation/STIM_005.jpg	100
206.772	1.777	1776.6	navigation	Trial1	navigation/STIM_005.jpg	99
210.97	2.306	2305.8	navigation	Trial1	navigation/STIM_006.jpg	100
215.723	3.459	3458.7	navigation	Trial1	navigation/STIM_006.jpg	99
221.853	3.787	3787.3	navigation	Trial1	navigation/STIM_006.jpg	99
228.549	3.425	3424.9	navigation	Trial1	navigation/STIM_006.jpg	99
235.274	2.856	2855.9	navigation	Trial1	navigation/STIM_006.jpg	100
240.875	3.114	3113.7	navigation	Trial1	navigation/STIM_006.jpg	99
247.513	2.632	2632.2	navigation	Trial1	navigation/STIM_007.jpg	99
252.859	2.225	2224.9	navigation	Trial1	navigation/STIM_007.jpg	100
258.898	2.874	2874.2	navigation	Trial1	navigation/STIM_007.jpg	100
264.206	1.585	1584.8	navigation	Trial1	navigation/STIM_007.jpg	99
268.511	1.434	1433.5	navigation	Trial1	navigation/STIM_007.jpg	99
273.429	3.216	3216.4	navigation	Trial1	navigation/STIM_007.jpg	99
280.433	4.311	4310.8	navigation	Trial1	navigation/STIM_008.jpg	100
288.262	3.681	3680.8	navigation	Trial1	navigation/STIM_008.jpg	100
294.41	3.018	3017.7	navigation	Trial1	navigation/STIM_008.jpg	99
301.528	2.934	2933.7	navigation	Trial1	navigation/STIM_008.jpg	100
307.778	2.351	2351.1	navigation	Trial1	navigation/STIM_008.jpg	100
312.639	2.994	2994.2	navigation	Trial1	navigation/STIM_008.jpg	99
319.571	2.707	2706.8	navigation	Trial1	navigation/STIM_009.jpg	100
326.607	3.025	3025.4	navigation	Trial1	navigation/STIM_009.jpg	99
332.969	3.266	3266.1	navigation	Trial1	navigation/STIM_009.jpg	100
338.96	3.27	3269.9	navigation	Trial1	navigation/STIM_009.jpg	99
344.755	2.534	2533.7	navigation	Trial1	navigation/STIM_009.jpg	100
350.765	3.283	3282.8	navigation	Trial1	navigation/STIM_009.jpg	100
357.572	3.293	3293.0	navigation	Trial1	navigation/STIM_010.jpg	100
364.292	3.093	3092.7	navigation	Trial1	navigation/STIM_010.jpg	100
370.691	1.67	1669.6	navigation	Trial1	navigation/STIM_010.jpg	100
375.457	3.476	3476.3	navigation	Trial1	navigation/STIM_010.jpg	100
381.387	1.916	1916.1	navigation	Trial1	navigation/STIM_010.jpg	99
386.954	1.681	1681.2	navigation	Trial1	navigation/STIM_010.jpg	99
391.103	3.323	3322.6	navigation	Trial1	navigation/STIM_011.jpg	100
397.286	2.429	2429.4	navigation	Trial1	navigation/STIM_011.jpg	99
402.053	1.701	1701.0	navigation	Trial1	navigation/STIM_011.jpg	99
406.883	1.704	1704.3	navigation	Trial1	navigation/STIM_011.jpg	100
411.889	3.014	3014.5	navigation	Trial1	navigation/STIM_011.jpg	100
417.725	2.615	2615.0	navigation	Trial1	navigation/STIM_011.jpg	99
422.823	1.036	1035.8	pointing	Trial1	pointing/STIM_000.jpg	100
426.694	0.749	749.1	pointing	Trial1	pointing/STIM_000.jpg	99
429.776	0.869	869.3	pointing	Trial1	pointing/STIM_000.jpg	100
433.832	1.294	1293.5	pointing	Trial1	pointing/STIM_000.jpg	99
438.638	0.762	761.6	pointing	Trial1	pointing/STIM_000.jpg	99
441.92	1.066	1066.1	pointing	Trial1	pointing/STIM_000.jpg	99
445.421	1.189	1188.8	pointing	Trial1	pointing/STIM_001.jpg	99
450.206	0.713	712.9	pointing	Trial1	pointing/STIM_001.jpg	100
453.236	1.1	1100.5	pointing	Trial1	pointing/STIM_001.jpg	99
457.123	0.966	965.6	pointing	Trial1	pointing/STIM_001.jpg	99
460.854	0.835	835.1	pointing	Trial1	pointing/STIM_001.jpg	99
465.141	1.135	1135.2	pointing	Trial1	pointing/STIM_001.jpg	100
470.04	1.309	1309.4	pointing	Trial1	pointing/STIM_002.jpg	100
474.536	0.844	844.4	pointing	Trial1	pointing/STIM_002.jpg	100
477.887	1.012	1011.5	pointing	Trial1	pointing/STIM_002.jpg	99
481.864	1.282	1282.1	pointing	Trial1	pointing/STIM_002.jpg	99
487.018	0.736	736.5	pointing	Trial1	pointing/STIM_002.jpg	100
490.432	0.884	884.5	pointing	Trial1	pointing/STIM_002.jpg	99
494.159	0.735	734.8	pointing	Trial1	pointing/STIM_003.jpg	100
498.631	1.222	1221.5	pointing	Trial1	pointing/STIM_003.jpg	100
503.42	0.999	999.3	pointing	Trial1	pointing/STIM_003.jpg	100
507.277	1.037	1036.7	pointing	Trial1	pointing/STIM_003.jpg	99
512.304	0.965	964.6	pointing	Trial1	pointing/STIM_003.jpg	99
515.894	1.034	1034.4	pointing	Trial1	pointing/STIM_003.jpg	100
519.32	0.832	831.6	pointing	Trial1	pointing/STIM_004.jpg	99
523.64	1.014	1014.4	pointing	Trial1	pointing/STIM_004.jpg	100
527.256	0.803	803.1	pointing	Trial1	pointing/STIM_004.jpg	100
530.408	0.939	939.3	pointing	Trial1	pointing/STIM_004.jpg	100
535.321	0.821	821.3	pointing	Trial1	pointing/STIM_004.jpg	100
538.422	1.177	1177.3	pointing	Trial1	pointing/STIM_004.jpg	99
543.45	0.712	712.5	pointing	Trial1	pointing/STIM_005.jpg	99
547.987	1.128	1127.6	pointing	Trial1	pointing/STIM_005.jpg	100
553.193	1.048	1048.1	pointing	Trial1	pointing/STIM_005.jpg	99
556.376	1.126	1125.8	pointing	Trial1	pointing/STIM_005.jpg	100
560.905	1.175	1174.7	pointing	Trial1	pointing/STIM_005.jpg	100
564.763	0.95	949.5	pointing	Trial1	pointing/STIM_005.jpg	99
569.114	1.152	1151.8	pointing	Trial1	pointing/STIM_006.jpg	100
573.39	0.936	936.3	pointing	Trial1	pointing/STIM_006.jpg	99
576.465	1.317	1317.4	pointing	Trial1	pointing/STIM_006.jpg	100
580.994	0.862	862.0	pointing	Trial1	pointing/STIM_006.jpg	99
584.681	1.008	1008.0	pointing	Trial1	pointing/STIM_006.jpg	99
589.274	0.875	875.1	pointing	Trial1	pointing/STIM_006.jpg	99
593.347	1.162	1162.3	pointing	Trial1	pointing/STIM_007.jpg	99
597.844	0.974	974.0	pointing	Trial1	pointing/STIM_007.jpg	99
601.643	0.9	900.0	pointing	Trial1	pointing/STIM_007.jpg	99
605.428	1.201	1201.1	pointing	Trial1	pointing/STIM_007.jpg	100
609.264	0.98	979.5	pointing	Trial1	pointing/STIM_007.jpg	100
613.957	1.25	1250.0	pointing	Trial1	pointing/STIM_007.jpg	99
619.026	0.836	836.4	pointing	Trial1	pointing/STIM_008.jpg	99
623.229	0.748	748.1	pointing	Trial1	pointing/STIM_008.jpg	100
627.374	0.845	845.2	pointing	Trial1	pointing/STIM_008.jpg	99
630.961	1.15	1149.9	pointing	Trial1	pointing/STIM_008.jpg	100
634.625	1.071	1071.4	pointing	Trial1	pointing/STIM_008.jpg	100
639.644	0.779	778.6	pointing	Trial1	pointing/STIM_008.jpg	99
644.264	1.028	1027.8	pointing	Trial1	pointing/STIM_009.jpg	99
647.451	0.849	848.7	pointing	Trial1	pointing/STIM_009.jpg	99
650.711	1.05	1049.7	pointing	Trial1	pointing/STIM_009.jpg	99
654.349	1.05	1049.5	pointing	Trial1	pointing/STIM_009.jpg	99
659.473	1.036	1036.1	pointing	Trial1	pointing/STIM_009.jpg	99
664.238	0.968	968.1	pointing	Trial1	pointing/STIM_009.jpg	99
667.621	1.192	1191.7	pointing	Trial1	pointing/STIM_010.jpg	100
671.728	0.79	790.3	pointing	Trial1	pointing/STIM_010.jpg	100
674.98	1.314	1313.6	pointing	Trial1	pointing/STIM_010.jpg	99
679.214	1.278	1277.7	pointing	Trial1	pointing/STIM_010.jpg	100
682.802	1.333	1332.7	pointing	Trial1	pointing/STIM_010.jpg	99
688.082	0.821	820.7	pointing	Trial1	pointing/STIM_010.jpg	99
692.117	0.922	921.5	pointing	Trial1	pointing/STIM_011.jpg	99
695.199	0.749	749.4	pointing	Trial1	pointing/STIM_011.jpg	100
698.197	0.954	953.8	pointing	Trial1	pointing/STIM_011.jpg	100
701.322	0.818	817.5	pointing	Trial1	pointing/STIM_011.jpg	99
704.372	1.169	1168.8	pointing	Trial1	pointing/STIM_011.jpg	100
708.966	1.248	1247.9	pointing	Trial1	pointing/STIM_011.jpg	99
713.242	3.049	3049.0	navigation	Trial2	navigation/STIM_000.jpg	100
720.518	2.738	2738.1	navigation	Trial2	navigation/STIM_000.jpg	100
727.568	1.704	1704.4	navigation	Trial2	navigation/STIM_000.jpg	99
733.209	3.091	3091.3	navigation	Trial2	navigation/STIM_000.jpg	99
739.546	1.621	1621.1	navigation	Trial2	navigation/STIM_000.jpg	99
744.415	2.88	2879.5	navigation	Trial2	navigation/STIM_000.jpg	99
749.853	3.418	3417.8	navigation	Trial2	navigation/STIM_001.jpg	99
757.468	2.891	2891.1	navigation	Trial2	navigation/STIM_001.jpg	99
764.379	1.879	1879.2	navigation	Trial2	navigation/STIM_001.jpg	100
769.902	3.018	3017.6	navigation	Trial2	navigation/STIM_001.jpg	99
777.132	1.62	1620.1	navigation	Trial2	navigation/STIM_001.jpg	100
782.805	2.118	2118.5	navigation	Trial2	navigation/STIM_001.jpg	100
788.36	2.077	2076.9	navigation	Trial2	navigation/STIM_002.jpg	100
792.908	3.261	3260.8	navigation	Trial2	navigation/STIM_002.jpg	100
799.311	2.904	2904.3	navigation	Trial2	navigation/STIM_002.jpg	100
806.383	1.355	1355.1	navigation	Trial2	navigation/STIM_002.jpg	99
811.622	2.645	2644.6	navigation	Trial2	navigation/STIM_002.jpg	99
817.927	2.44	2440.3	navigation	Trial2	navigation/STIM_002.jpg	99
824.626	2.136	2135.8	navigation	Trial2	navigation/STIM_003.jpg	100
829.228	2.069	2069.4	navigation	Trial2	navigation/STIM_003.jpg	100
834.937	3.018	3018.3	navigation	Trial2	navigation/STIM_003.jpg	100
840.899	1.269	1269.0	navigation	Trial2	navigation/STIM_003.jpg	100
844.414	2.284	2283.9	navigation	Trial2	navigation/STIM_003.jpg	100
849.763	3.05	3049.7	navigation	Trial2	navigation/STIM_003.jpg	100
855.692	2.893	2893.0	navigation	Trial2	navigation/STIM_004.jpg	99
861.093	3.143	3142.7	navigation	Trial2	navigation/STIM_004.jpg	100
868.351	2.705	2705.1	navigation	Trial2	navigation/STIM_004.jpg	99
874.909	2.084	2084.5	navigation	Trial2	navigation/STIM_004.jpg	100
881.104	2.466	2465.6	navigation	Trial2	navigation/STIM_004.jpg	99
886.608	2.931	2930.8	navigation	Trial2	navigation/STIM_004.jpg	100
893.866	2.165	2164.8	navigation	Trial2	navigation/STIM_005.jpg	100
900.193	3.117	3117.0	navigation	Trial2	navigation/STIM_005.jpg	100
907.437	2.056	2055.5	navigation	Trial2	navigation/STIM_005.jpg	100
912.136	2.303	2303.0	navigation	Trial2	navigation/STIM_005.jpg	99
917.806	2.945	2945.4	navigation	Trial2	navigation/STIM_005.jpg	100
923.401	1.764	1764.2	navigation	Trial2	navigation/STIM_005.jpg	100
927.767	3.736	3736.2	navigation	Trial2	navigation/STIM_006.jpg	99
934.881	1.741	1741.3	navigation	Trial2	navigation/STIM_006.jpg	100
939.275	1.364	1364.5	navigation	Trial2	navigation/STIM_006.jpg	99
943.37	2.704	2703.5	navigation	Trial2	navigation/STIM_006.jpg	99
949.331	2.037	2036.9	navigation	Trial2	navigation/STIM_006.jpg	99
955.545	2.292	2291.9	navigation	Trial2	navigation/STIM_006.jpg	99
960.538	1.818	1818.3	navigation	Trial2	navigation/STIM_007.jpg	99
965.51	2.652	2651.5	navigation	Trial2	navigation/STIM_007.jpg	99
970.948	2.864	2863.5	navigation	Trial2	navigation/STIM_007.jpg	99
977.996	1.516	1516.4	navigation	Trial2	navigation/STIM_007.jpg	100
983.122	1.693	1693.1	navigation	Trial2	navigation/STIM_007.jpg	100
988.235	2.762	2762.1	navigation	Trial2	navigation/STIM_007.jpg	100
994.839	2.863	2862.6	navigation	Trial2	navigation/STIM_008.jpg	100
1001.031	3.422	3421.9	navigation	Trial2	navigation/STIM_008.jpg	100
1006.934	2.501	2501.0	navigation	Trial2	navigation/STIM_008.jpg	99
1013.631	2.058	2058.3	navigation	Trial2	navigation/STIM_008.jpg	99
1018.513	2.194	2194.4	navigation	Trial2	navigation/STIM_008.jpg	99
1024.795	2.245	2245.1	navigation	Trial2	navigation/STIM_008.jpg	99
1031.072	3.038	3037.9	navigation	Trial2	navigation/STIM_009.jpg	100
1037.51	2.355	2355.0	navigation	Trial2	navigation/STIM_009.jpg	99
1043.731	2.875	2875.4	navigation	Trial2	navigation/STIM_009.jpg	99
1050.802	2.42	2420.0	navigation	Trial2	navigation/STIM_009.jpg	99
1056.089	3.038	3038.1	navigation	Trial2	navigation/STIM_009.jpg	100
1061.739	1.443	1442.9	navigation	Trial2	navigation/STIM_009.jpg	100
1066.431	2.715	2715.0	navigation	Trial2	navigation/STIM_010.jpg	100
1072.354	1.589	1589.3	navigation	Trial2	navigation/STIM_010.jpg	100
1077.3	1.579	1579.4	navigation	Trial2	navigation/STIM_010.jpg	99
1081.408	2.279	2278.9	navigation	Trial2	navigation/STIM_010.jpg	99
1087.183	3.026	3026.5	navigation	Trial2	navigation/STIM_010.jpg	100
1092.796	2.358	2358.5	navigation	Trial2	navigation/STIM_010.jpg	100
1099.0	3.311	3311.2	navigation	Trial2	navigation/STIM_011.jpg	100
1105.651	2.76	2759.7	navigation	Trial2	navigation/STIM_011.jpg	100
1110.854	2.146	2145.6	navigation	Trial2	navigation/STIM_011.jpg	99
1117.21	1.623	1622.6	navigation	Trial2	navigation/STIM_011.jpg	99
1122.581	2.715	2715.4	navigation	Trial2	navigation/STIM_011.jpg	99
1129.077	2.452	2452.4	navigation	Trial2	navigation/STIM_011.jpg	99
1134.449	1.271	1271.0	pointing	Trial2	pointing/STIM_000.jpg	99
1138.826	1.273	1273.3	pointing	Trial2	pointing/STIM_000.jpg	100
1143.226	0.83	830.4	pointing	Trial2	pointing/STIM_000.jpg	99
1147.598	0.739	738.6	pointing	Trial2	pointing/STIM_000.jpg	99
1151.628	0.751	750.8	pointing	Trial2	pointing/STIM_000.jpg	99
1155.596	0.949	948.9	pointing	Trial2	pointing/STIM_000.jpg	100
1158.939	1.279	1279.4	pointing	Trial2	pointing/STIM_001.jpg	100
1163.399	1.06	1059.9	pointing	Trial2	pointing/STIM_001.jpg	100
1167.546	0.884	883.9	pointing	Trial2	pointing/STIM_001.jpg	99
1170.959	1.183	1183.0	pointing	Trial2	pointing/STIM_001.jpg	99
1174.418	1.185	1184.6	pointing	Trial2	pointing/STIM_001.jpg	100
1179.292	1.318	1318.1	pointing	Trial2	pointing/STIM_001.jpg	99
1184.329	1.046	1046.1	pointing	Trial2	pointing/STIM_002.jpg	100
1188.897	1.129	1129.0	pointing	Trial2	pointing/STIM_002.jpg	99
1194.004	1.196	1195.9	pointing	Trial2	pointing/STIM_002.jpg	99
1199.072	1.085	1084.6	pointing	Trial2	pointing/STIM_002.jpg	99
1202.62	0.87	869.8	pointing	Trial2	pointing/STIM_002.jpg	100
1207.08	0.847	846.6	pointing	Trial2	pointing/STIM_002.jpg	99
1210.135	1.232	1231.7	pointing	Trial2	pointing/STIM_003.jpg	100
1215.009	1.093	1093.3	pointing	Trial2	pointing/STIM_003.jpg	99
1218.414	0.781	780.7	pointing	Trial2	pointing/STIM_003.jpg	100
1222.75	1.125	1124.8	pointing	Trial2	pointing/STIM_003.jpg	99
1227.09	0.727	727.4	pointing	Trial2	pointing/STIM_003.jpg	100
1230.297	0.915	914.9	pointing	Trial2	pointing/STIM_003.jpg	100
1234.874	0.75	749.6	pointing	Trial2	pointing/STIM_004.jpg	100
1238.601	0.764	764.5	pointing	Trial2	pointing/STIM_004.jpg	100
1242.096	0.987	987.0	pointing	Trial2	pointing/STIM_004.jpg	100
1247.134	0.98	980.3	pointing	Trial2	pointing/STIM_004.jpg	100
1251.097	1.201	1201.2	pointing	Trial2	pointing/STIM_004.jpg	99
1255.185	1.27	1270.1	pointing	Trial2	pointing/STIM_004.jpg	99
1260.508	1.04	1039.7	pointing	Trial2	pointing/STIM_005.jpg	99
1265.325	1.143	1143.1	pointing	Trial2	pointing/STIM_005.jpg	100
1268.832	1.148	1147.8	pointing	Trial2	pointing/STIM_005.jpg	100
1272.368	0.712	711.5	pointing	Trial2	pointing/STIM_005.jpg	99
1275.299	1.322	1322.3	pointing	Trial2	pointing/STIM_005.jpg	100
1280.756	0.989	989.2	pointing	Trial2	pointing/STIM_005.jpg	100
1284.117	0.851	850.8	pointing	Trial2	pointing/STIM_006.jpg	100
1287.779	0.727	727.2	pointing	Trial2	pointing/STIM_006.jpg	100
1291.821	0.769	769.1	pointing	Trial2	pointing/STIM_006.jpg	99
1296.263	0.931	931.3	pointing	Trial2	pointing/STIM_006.jpg	100
1300.359	0.913	913.0	pointing	Trial2	pointing/STIM_006.jpg	100
1304.157	1.293	1292.8	pointing	Trial2	pointing/STIM_006.jpg	99
1308.91	1.092	1091.7	pointing	Trial2	pointing/STIM_007.jpg	100
1313.844	0.956	955.7	pointing	Trial2	pointing/STIM_007.jpg	100
1318.272	1.166	1165.9	pointing	Trial2	pointing/STIM_007.jpg	99
1321.741	0.714	713.5	pointing	Trial2	pointing/STIM_007.jpg	99
1326.032	1.16	1160.0	pointing	Trial2	pointing/STIM_007.jpg	100
1329.5	0.808	808.3	pointing	Trial2	pointing/STIM_007.jpg	99
1333.188	0.861	860.9	pointing	Trial2	pointing/STIM_008.jpg	99
1338.052	1.266	1265.7	pointing	Trial2	pointing/STIM_008.jpg	99
1343.046	0.948	947.6	pointing	Trial2	pointing/STIM_008.jpg	100
1346.971	1.107	1106.6	pointing	Trial2	pointing/STIM_008.jpg	100
1350.96	0.861	861.4	pointing	Trial2	pointing/STIM_008.jpg	100
1355.042	0.79	789.8	pointing	Trial2	pointing/STIM_008.jpg	100
1359.742	1.123	1123.1	pointing	Trial2	pointing/STIM_009.jpg	100
1363.06	0.711	711.1	pointing	Trial2	pointing/STIM_009.jpg	100
1367.547	1.04	1039.9	pointing	Trial2	pointing/STIM_009.jpg	100
1371.375	0.985	984.7	pointing	Trial2	pointing/STIM_009.jpg	100
1375.89	0.84	839.5	pointing	Trial2	pointing/STIM_009.jpg	99
1380.686	1.199	1199.1	pointing	Trial2	pointing/STIM_009.jpg	100
1384.712	1.307	1306.9	pointing	Trial2	pointing/STIM_010.jpg	100
1388.958	0.855	854.8	pointing	Trial2	pointing/STIM_010.jpg	100
1393.473	1.311	1310.9	pointing	Trial2	pointing/STIM_010.jpg	99
1397.223	0.949	948.7	pointing	Trial2	pointing/STIM_010.jpg	99
1400.473	1.224	1223.6	pointing	Trial2	pointing/STIM_010.jpg	100
1405.19	1.108	1107.8	pointing	Trial2	pointing/STIM_010.jpg	100
1409.799	1.066	1065.9	pointing	Trial2	pointing/STIM_011.jpg	100
1413.395	1.051	1050.9	pointing	Trial2	pointing/STIM_011.jpg	99
1417.048	1.2	1200.5	pointing	Trial2	pointing/STIM_011.jpg	99
1421.213	0.83	830.5	pointing	Trial2	pointing/STIM_011.jpg	100
1425.995	1.041	1041.3	pointing	Trial2	pointing/STIM_011.jpg	99
1429.924	1.311	1310.9	pointing	Trial2	pointing/STIM_011.jpg	99
1434.985	2.104	2103.6	navigation	Trial3	navigation/STIM_000.jpg	99
1440.775	1.368	1368.1	navigation	Trial3	navigation/STIM_000.jpg	100
1444.726	1.519	1518.7	navigation	Trial3	navigation/STIM_000.jpg	99
1448.669	2.897	2896.7	navigation	Trial3	navigation/STIM_000.jpg	100
1455.832	2.76	2760.5	navigation	Trial3	navigation/STIM_000.jpg	99
1461.299	1.845	1845.0	navigation	Trial3	navigation/STIM_000.jpg	99
1467.28	2.635	2634.7	navigation	Trial3	navigation/STIM_001.jpg	99
1473.814	2.695	2695.4	navigation	Trial3	navigation/STIM_001.jpg	99
1479.703	1.698	1698.3	navigation	Trial3	navigation/STIM_001.jpg	100
1483.953	2.438	2437.5	navigation	Trial3	navigation/STIM_001.jpg	100
1488.85	2.483	2483.1	navigation	Trial3	navigation/STIM_001.jpg	99
1494.492	2.745	2745.3	navigation	Trial3	navigation/STIM_001.jpg	99
1501.314	3.102	3102.4	navigation	Trial3	navigation/STIM_002.jpg	100
1507.5	2.202	2202.0	navigation	Trial3	navigation/STIM_002.jpg	100
1512.077	2.102	2102.5	navigation	Trial3	navigation/STIM_002.jpg	99
1518.017	2.244	2244.0	navigation	Trial3	navigation/STIM_002.jpg	99
1524.198	2.112	2112.2	navigation	Trial3	navigation/STIM_002.jpg	99
1529.204	2.133	2133.0	navigation	Trial3	navigation/STIM_002.jpg	99
1534.62	1.921	1920.6	navigation	Trial3	navigation/STIM_003.jpg	99
1539.266	1.763	1763.2	navigation	Trial3	navigation/STIM_003.jpg	100
1544.989	2.544	2544.5	navigation	Trial3	navigation/STIM_003.jpg	99
1550.838	2.067	2067.1	navigation	Trial3	navigation/STIM_003.jpg	99
1555.674	2.696	2696.5	navigation	Trial3	navigation/STIM_003.jpg	99
1562.125	2.364	2363.8	navigation	Trial3	navigation/STIM_003.jpg	99
1568.598	1.424	1423.9	navigation	Trial3	navigation/STIM_004.jpg	99
1572.555	2.784	2784.5	navigation	Trial3	navigation/STIM_004.jpg	100
1579.203	1.425	1425.2	navigation	Trial3	navigation/STIM_004.jpg	99
1583.294	2.403	2402.8	navigation	Trial3	navigation/STIM_004.jpg	100
1589.367	3.099	3098.8	navigation	Trial3	navigation/STIM_004.jpg	99
1595.817	1.246	1246.5	navigation	Trial3	navigation/STIM_004.jpg	100
1601.195	2.26	2260.4	navigation	Trial3	navigation/STIM_005.jpg	99
1607.277	2.925	2925.1	navigation	Trial3	navigation/STIM_005.jpg	100
1613.105	2.868	2868.4	navigation	Trial3	navigation/STIM_005.jpg	100
1618.701	1.606	1605.8	navigation	Trial3	navigation/STIM_005.jpg	100
1623.458	3.096	3095.8	navigation	Trial3	navigation/STIM_005.jpg	100
1629.75	1.529	1529.4	navigation	Trial3	navigation/STIM_005.jpg	99
1633.553	1.351	1351.2	navigation	Trial3	navigation/STIM_006.jpg	99
1637.78	1.732	1731.9	navigation	Trial3	navigation/STIM_006.jpg	99
1642.588	2.64	2640.0	navigation	Trial3	navigation/STIM_006.jpg	99
1649.454	1.63	1630.0	navigation	Trial3	navigation/STIM_006.jpg	100
1654.091	2.948	2948.4	navigation	Trial3	navigation/STIM_006.jpg	100
1660.898	2.151	2151.4	navigation	Trial3	navigation/STIM_006.jpg	99
1665.388	2.342	2341.5	navigation	Trial3	navigation/STIM_007.jpg	100
1670.128	2.296	2295.9	navigation	Trial3	navigation/STIM_007.jpg	99
1674.996	2.386	2386.1	navigation	Trial3	navigation/STIM_007.jpg	100
1681.151	2.696	2695.7	navigation	Trial3	navigation/STIM_007.jpg	100
1687.585	2.991	2990.8	navigation	Trial3	navigation/STIM_007.jpg	99
1694.624	1.983	1983.4	navigation	Trial3	navigation/STIM_007.jpg	100
1700.643	1.927	1926.8	navigation	Trial3	navigation/STIM_008.jpg	100
1705.216	2.967	2967.2	navigation	Trial3	navigation/STIM_008.jpg	99
1712.174	1.788	1788.0	navigation	Trial3	navigation/STIM_008.jpg	100
1717.397	1.952	1952.3	navigation	Trial3	navigation/STIM_008.jpg	100
1722.206	1.352	1351.7	navigation	Trial3	navigation/STIM_008.jpg	100
1726.024	2.983	2982.6	navigation	Trial3	navigation/STIM_008.jpg	100
1732.017	2.95	2950.4	navigation	Trial3	navigation/STIM_009.jpg	100
1737.763	2.998	2998.4	navigation	Trial3	navigation/STIM_009.jpg	100
1744.849	1.876	1875.5	navigation	Trial3	navigation/STIM_009.jpg	100
1750.683	1.583	1583.0	navigation	Trial3	navigation/STIM_009.jpg	100
1754.75	1.286	1285.8	navigation	Trial3	navigation/STIM_009.jpg	100
1759.607	2.267	2267.3	navigation	Trial3	navigation/STIM_009.jpg	100
1764.537	2.558	2558.0	navigation	Trial3	navigation/STIM_010.jpg	99
1769.609	1.571	1571.4	navigation	Trial3	navigation/STIM_010.jpg	100
1773.929	1.602	1602.1	navigation	Trial3	navigation/STIM_010.jpg	100
1779.435	2.853	2852.9	navigation	Trial3	navigation/STIM_010.jpg	100
1786.291	1.966	1966.2	navigation	Trial3	navigation/STIM_010.jpg	100
1790.778	2.847	2846.9	navigation	Trial3	navigation/STIM_010.jpg	100
1796.653	2.723	2722.7	navigation	Trial3	navigation/STIM_011.jpg	99
1803.274	2.68	2679.7	navigation	Trial3	navigation/STIM_011.jpg	100
1810.032	2.804	2803.5	navigation	Trial3	navigation/STIM_011.jpg	100
1815.7	3.057	3056.7	navigation	Trial3	navigation/STIM_011.jpg	100
1821.533	2.776	2776.2	navigation	Trial3	navigation/STIM_011.jpg	99
1828.346	2.636	2635.8	navigation	Trial3	navigation/STIM_011.jpg	100
1833.56	0.803	802.6	pointing	Trial3	pointing/STIM_000.jpg	99
1837.202	1.112	1111.9	pointing	Trial3	pointing/STIM_000.jpg	99
1841.186	0.759	759.3	pointing	Trial3	pointing/STIM_000.jpg	99
1844.86	0.997	997.4	pointing	Trial3	pointing/STIM_000.jpg	100
1849.464	1.292	1291.8	pointing	Trial3	pointing/STIM_000.jpg	100
1853.869	1.186	1186.3	pointing	Trial3	pointing/STIM_000.jpg	99
1858.653	1.327	1327.2	pointing	Trial3	pointing/STIM_001.jpg	99
1862.488	0.989	988.8	pointing	Trial3	pointing/STIM_001.jpg	100
1867.312	1.27	1270.3	pointing	Trial3	pointing/STIM_001.jpg	100
1871.802	1.098	1098.2	pointing	Trial3	pointing/STIM_001.jpg	100
1875.87	0.759	758.8	pointing	Trial3	pointing/STIM_001.jpg	100
1880.304	0.992	991.6	pointing	Trial3	pointing/STIM_001.jpg	100
1885.316	0.939	938.6	pointing	Trial3	pointing/STIM_002.jpg	99
1890.22	1.115	1114.8	pointing	Trial3	pointing/STIM_002.jpg	100
1894.046	1.255	1254.9	pointing	Trial3	pointing/STIM_002.jpg	100
1897.97	1.193	1193.4	pointing	Trial3	pointing/STIM_002.jpg	100
1902.747	1.194	1194.1	pointing	Trial3	pointing/STIM_002.jpg	100
1907.175	0.756	756.4	pointing	Trial3	pointing/STIM_002.jpg	99
1911.047	1.063	1063.2	pointing	Trial3	pointing/STIM_003.jpg	100
1915.789	0.829	828.9	pointing	Trial3	pointing/STIM_003.jpg	100
1920.095	0.816	816.4	pointing	Trial3	pointing/STIM_003.jpg	100
1923.051	0.978	978.3	pointing	Trial3	pointing/STIM_003.jpg	99
1926.446	1.129	1129.2	pointing	Trial3	pointing/STIM_003.jpg	100
1931.05	1.231	1230.6	pointing	Trial3	pointing/STIM_003.jpg	100
1935.501	1.245	1245.2	pointing	Trial3	pointing/STIM_004.jpg	99
1940.66	1.175	1174.7	pointing	Trial3	pointing/STIM_004.jpg	100
1944.228	0.942	941.7	pointing	Trial3	pointing/STIM_004.jpg	100
1948.495	0.969	968.9	pointing	Trial3	pointing/STIM_004.jpg	99
1952.23	0.932	931.9	pointing	Trial3	pointing/STIM_004.jpg	100
1955.66	1.239	1238.7	pointing	Trial3	pointing/STIM_004.jpg	100
1959.148	1.173	1173.4	pointing	Trial3	pointing/STIM_005.jpg	100
1963.48	0.921	921.4	pointing	Trial3	pointing/STIM_005.jpg	100
1967.17	1.227	1226.9	pointing	Trial3	pointing/STIM_005.jpg	99
1971.989	0.968	967.9	pointing	Trial3	pointing/STIM_005.jpg	99
1975.884	1.264	1263.5	pointing	Trial3	pointing/STIM_005.jpg	99
1980.227	0.847	847.1	pointing	Trial3	pointing/STIM_005.jpg	99
1983.248	1.039	1038.7	pointing	Trial3	pointing/STIM_006.jpg	99
1987.84	1.024	1024.3	pointing	Trial3	pointing/STIM_006.jpg	100
1992.169	1.062	1062.1	pointing	Trial3	pointing/STIM_006.jpg	100
1996.415	0.758	757.7	pointing	Trial3	pointing/STIM_006.jpg	99
2000.573	0.741	741.2	pointing	Trial3	pointing/STIM_006.jpg	99
2005.155	1.031	1031.3	pointing	Trial3	pointing/STIM_006.jpg	100
2010.306	1.168	1168.5	pointing	Trial3	pointing/STIM_007.jpg	100
2014.08	1.138	1137.8	pointing	Trial3	pointing/STIM_007.jpg	100
2018.878	1.275	1275.3	pointing	Trial3	pointing/STIM_007.jpg	100
2023.529	0.887	887.0	pointing	Trial3	pointing/STIM_007.jpg	99
2028.449	1.13	1129.7	pointing	Trial3	pointing/STIM_007.jpg	99
2033.583	1.023	1022.9	pointing	Trial3	pointing/STIM_007.jpg	100
2038.32	1.305	1305.4	pointing	Trial3	pointing/STIM_008.jpg	99
2042.48	1.273	1272.8	pointing	Trial3	pointing/STIM_008.jpg	99
2047.011	1.041	1041.4	pointing	Trial3	pointing/STIM_008.jpg	100
2051.276	1.006	1006.3	pointing	Trial3	pointing/STIM_008.jpg	100
2054.606	1.248	1248.4	pointing	Trial3	pointing/STIM_008.jpg	99
2059.005	1.226	1226.4	pointing	Trial3	pointing/STIM_008.jpg	100
2063.438	0.846	846.3	pointing	Trial3	pointing/STIM_009.jpg	99
2068.359	1.049	1048.6	pointing	Trial3	pointing/STIM_009.jpg	100
2071.915	1.187	1186.9	pointing	Trial3	pointing/STIM_009.jpg	100
2076.969	0.963	963.2	pointing	Trial3	pointing/STIM_009.jpg	99
2080.701	0.993	993.3	pointing	Trial3	pointing/STIM_009.jpg	99
2085.814	1.333	1333.2	pointing	Trial3	pointing/STIM_009.jpg	100
2090.176	1.302	1302.5	pointing	Trial3	pointing/STIM_010.jpg	99
2095.382	1.055	1054.9	pointing	Trial3	pointing/STIM_010.jpg	100
2099.035	1.307	1306.9	pointing	Trial3	pointing/STIM_010.jpg	99
2103.495	1.217	1217.0	pointing	Trial3	pointing/STIM_010.jpg	100
2106.9	1.124	1124.5	pointing	Trial3	pointing/STIM_010.jpg	100
2110.801	1.262	1262.2	pointing	Trial3	pointing/STIM_010.jpg	99
2116.215	1.278	1277.6	pointing	Trial3	pointing/STIM_011.jpg	99
2121.609	0.991	991.0	pointing	Trial3	pointing/STIM_011.jpg	99
2124.995	0.846	846.0	pointing	Trial3	pointing/STIM_011.jpg	100
2129.187	1.034	1033.6	pointing	Trial3	pointing/STIM_011.jpg	99
2134.142	0.972	972.3	pointing	Trial3	pointing/STIM_011.jpg	99
2139.053	1.132	1132.4	pointing	Trial3	pointing/STIM_011.jpg	100
