onset	duration	response_time_ms	trial_type	learning_stage	stimulus	response_port
0.0	3.761	3760.8	navigation	Trial1	navigation/STIM_000.jpg	99
7.255	4.375	4375.3	navigation	Trial1	navigation/STIM_000.jpg	100
14.784	5.061	5060.6	navigation	Trial1	navigation/STIM_000.jpg	100
22.262	3.346	3345.9	navigation	Trial1	navigation/STIM_000.jpg	99
28.624	3.874	3873.9	navigation	Trial1	navigation/STIM_000.jpg	99
36.484	3.947	3946.8	navigation	Trial1	navigation/STIM_000.jpg	100
42.795	4.451	4451.2	navigation	Trial1	navigation/STIM_001.jpg	100
50.07	4.467	4466.7	navigation	Trial1	navigation/STIM_001.jpg	99
57.547	2.305	2305.0	navigation	Trial1	navigation/STIM_001.jpg	100
62.351	3.5	3500.5	navigation	Trial1	navigation/STIM_001.jpg	99
69.432	4.092	4092.0	navigation	Trial1	navigation/STIM_001.jpg	99
76.496	2.94	2940.2	navigation	Trial1	navigation/STIM_001.jpg	99
82.524	4.073	4073.3	navigation	Trial1	navigation/STIM_002.jpg	100
90.285	4.865	4865.0	navigation	Trial1	navigation/STIM_002.jpg	100
99.012	2.644	2643.5	navigation	Trial1	navigation/STIM_002.jpg	100
105.025	3.56	3560.5	navigation	Trial1	navigation/STIM_002.jpg	99
112.46	2.05	2049.9	navigation	Trial1	navigation/STIM_002.jpg	99
116.584	2.207	2207.4	navigation	Trial1	navigation/STIM_002.jpg	99
122.681	4.848	4847.5	navigation	Trial1	navigation/STIM_003.jpg	99
130.46	3.578	3578.2	navigation	Trial1	navigation/STIM_003.jpg	99
137.381	2.564	2563.6	navigation	Trial1	navigation/STIM_003.jpg	100
143.625	2.435	2434.7	navigation	Trial1	navigation/STIM_003.jpg	99
148.569	4.494	4494.2	navigation	Trial1	navigation/STIM_003.jpg	99
156.505	1.817	1816.8	navigation	Trial1	navigation/STIM_003.jpg	99
161.251	5.355	5354.8	navigation	Trial1	navigation/STIM_004.jpg	100
169.659	3.877	3877.2	navigation	Trial1	navigation/STIM_004.jpg	99
176.625	4.28	4280.2	navigation	Trial1	navigation/STIM_004.jpg	99
184.375	1.996	1995.6	navigation	Trial1	navigation/STIM_004.jpg	99
189.152	4.027	4026.7	navigation	Trial1	navigation/STIM_004.jpg	99
196.42	3.312	3311.8	navigation	Trial1	navigation/STIM_004.jpg	100
203.011	3.165	3164.8	navigation	Trial1	navigation/STIM_005.jpg	99
208.497	5.193	5193.0	navigation	Trial1	navigation/STIM_005.jpg	99
216.839	4.654	4654.0	navigation	Trial1	navigation/STIM_005.jpg	99
224.856	3.272	3272.5	navigation	Trial1	navigation/STIM_005.jpg	100
230.493	2.342	2341.9	navigation	Trial1	navigation/STIM_005.jpg	100
235.503	3.137	3137.3	navigation	Trial1	navigation/STIM_005.jpg	99
241.052	4.392	4392.5	navigation	Trial1	navigation/STIM_006.jpg	99
248.184	2.839	2839.4	navigation	Trial1	navigation/STIM_006.jpg	99
253.749	4.476	4476.4	navigation	Trial1	navigation/STIM_006.jpg	100
260.337	2.401	2401.3	navigation	Trial1	navigation/STIM_006.jpg	99
265.257	4.261	4261.1	navigation	Trial1	navigation/STIM_006.jpg	99
273.068	3.882	3882.3	navigation	Trial1	navigation/STIM_006.jpg	99
280.18	4.718	4718.0	navigation	Trial1	navigation/STIM_007.jpg	99
288.857	3.519	3519.4	navigation	Trial1	navigation/STIM_007.jpg	99
295.752	3.41	3409.5	navigation	Trial1	navigation/STIM_007.jpg	100
301.464	4.278	4277.6	navigation	Trial1	navigation/STIM_007.jpg	100
309.041	2.529	2528.9	navigation	Trial1	navigation/STIM_007.jpg	100
314.281	3.579	3578.7	navigation	Trial1	navigation/STIM_007.jpg	99
320.885	4.953	4953.0	navigation	Trial1	navigation/STIM_008.jpg	99
327.947	2.167	2167.2	navigation	Trial1	navigation/STIM_008.jpg	100
333.913	3.589	3588.9	navigation	Trial1	navigation/STIM_008.jpg	99
340.845	2.81	2809.8	navigation	Trial1	navigation/STIM_008.jpg	99
345.786	2.285	2284.8	navigation	Trial1	navigation/STIM_008.jpg	99
351.902	1.83	1829.5	navigation	Trial1	navigation/STIM_008.jpg	100
356.069	4.295	4295.1	navigation	Trial1	navigation/STIM_009.jpg	100
362.366	4.193	4193.2	navigation	Trial1	navigation/STIM_009.jpg	99
369.208	3.732	3731.8	navigation	Trial1	navigation/STIM_009.jpg	100
375.71	4.656	4655.8	navigation	Trial1	navigation/STIM_009.jpg	99
382.392	3.943	3943.0	navigation	Trial1	navigation/STIM_009.jpg	100
388.914	3.332	3332.2	navigation	Trial1	navigation/STIM_009.jpg	100
394.833	3.339	3338.6	navigation	Trial1	navigation/STIM_010.jpg	99
401.928	2.169	2169.2	navigation	Trial1	navigation/STIM_010.jpg	99
407.36	2.48	2479.6	navigation	Trial1	navigation/STIM_010.jpg	99
412.361	2.563	2562.6	navigation	Trial1	navigation/STIM_010.jpg	99
418.87	3.052	3052.2	navigation	Trial1	navigation/STIM_010.jpg	99
424.515	2.369	2369.4	navigation	Trial1	navigation/STIM_010.jpg	100
430.682	4.224	4224.1	navigation	Trial1	navigation/STIM_011.jpg	100
438.505	3.501	3500.8	navigation	Trial1	navigation/STIM_011.jpg	99
445.771	2.178	2177.7	navigation	Trial1	navigation/STIM_011.jpg	100
451.576	3.092	3091.6	navigation	Trial1	navigation/STIM_011.jpg	99
457.269	2.216	2215.9	navigation	Trial1	navigation/STIM_011.jpg	100
463.214	2.234	2233.8	navigation	Trial1	navigation/STIM_011.jpg	100
467.929	0.941	941.3	pointing	Trial1	pointing/STIM_000.jpg	99
472.742	1.172	1172.2	pointing	Trial1	pointing/STIM_000.jpg	100
475.934	1.515	1515.1	pointing	Trial1	pointing/STIM_000.jpg	100
480.337	0.945	945.1	pointing	Trial1	pointing/STIM_000.jpg	100
485.159	1.007	1007.2	pointing	Trial1	pointing/STIM_000.jpg	99
488.617	1.359	1359.3	pointing	Trial1	pointing/STIM_000.jpg	99
493.35	1.12	1120.5	pointing	Trial1	pointing/STIM_001.jpg	100
497.104	1.152	1152.4	pointing	Trial1	pointing/STIM_001.jpg	99
501.083	1.258	1257.5	pointing	Trial1	pointing/STIM_001.jpg	99
504.576	1.235	1235.2	pointing	Trial1	pointing/STIM_001.jpg	100
508.893	1.125	1124.8	pointing	Trial1	pointing/STIM_001.jpg	99
512.215	1.629	1629.3	pointing	Trial1	pointing/STIM_001.jpg	100
516.628	1.612	1611.5	pointing	Trial1	pointing/STIM_002.jpg	100
521.979	0.944	944.5	pointing	Trial1	pointing/STIM_002.jpg	100
526.053	1.257	1256.7	pointing	Trial1	pointing/STIM_002.jpg	100
529.833	1.496	1496.2	pointing	Trial1	pointing/STIM_002.jpg	100
534.875	1.322	1322.2	pointing	Trial1	pointing/STIM_002.jpg	99
539.797	1.201	1200.9	pointing	Trial1	pointing/STIM_002.jpg	99
544.132	1.658	1657.5	pointing	Trial1	pointing/STIM_003.jpg	99
548.336	1.345	1345.0	pointing	Trial1	pointing/STIM_003.jpg	99
552.657	1.516	1515.5	pointing	Trial1	pointing/STIM_003.jpg	99
556.487	1.126	1125.5	pointing	Trial1	pointing/STIM_003.jpg	99
560.198	1.586	1585.5	pointing	Trial1	pointing/STIM_003.jpg	100
565.419	1.238	1238.5	pointing	Trial1	pointing/STIM_003.jpg	99
570.091	1.275	1275.4	pointing	Trial1	pointing/STIM_004.jpg	99
574.757	1.214	1214.1	pointing	Trial1	pointing/STIM_004.jpg	100
578.287	1.523	1523.3	pointing	Trial1	pointing/STIM_004.jpg	99
583.033	0.916	915.9	pointing	Trial1	pointing/STIM_004.jpg	99
587.373	1.086	1085.7	pointing	Trial1	pointing/STIM_004.jpg	100
591.184	1.612	1612.1	pointing	Trial1	pointing/STIM_004.jpg	100
595.003	1.551	1551.1	pointing	Trial1	pointing/STIM_005.jpg	100
600.029	1.354	1353.9	pointing	Trial1	pointing/STIM_005.jpg	99
604.065	0.998	998.3	pointing	Trial1	pointing/STIM_005.jpg	100
608.91	0.934	934.3	pointing	Trial1	pointing/STIM_005.jpg	99
613.807	1.18	1179.8	pointing	Trial1	pointing/STIM_005.jpg	100
617.805	1.516	1516.2	pointing	Trial1	pointing/STIM_005.jpg	100
623.075	1.543	1543.2	pointing	Trial1	pointing/STIM_006.jpg	99
628.068	1.385	1385.2	pointing	Trial1	pointing/STIM_006.jpg	99
633.224	1.3	1300.1	pointing	Trial1	pointing/STIM_006.jpg	99
636.704	1.498	1497.6	pointing	Trial1	pointing/STIM_006.jpg	100
640.711	0.967	967.4	pointing	Trial1	pointing/STIM_006.jpg	100
645.461	1.109	1108.7	pointing	Trial1	pointing/STIM_006.jpg	100
650.111	1.536	1536.4	pointing	Trial1	pointing/STIM_007.jpg	100
654.129	1.313	1313.1	pointing	Trial1	pointing/STIM_007.jpg	100
658.55	1.674	1674.5	pointing	Trial1	pointing/STIM_007.jpg	100
662.431	1.638	1638.5	pointing	Trial1	pointing/STIM_007.jpg	100
666.846	1.316	1316.4	pointing	Trial1	pointing/STIM_007.jpg	99
671.703	1.163	1163.1	pointing	Trial1	pointing/STIM_007.jpg	99
676.698	1.694	1693.6	pointing	Trial1	pointing/STIM_008.jpg	100
680.769	1.163	1163.2	pointing	Trial1	pointing/STIM_008.jpg	100
683.968	1.25	1250.5	pointing	Trial1	pointing/STIM_008.jpg	99
688.799	1.208	1207.5	pointing	Trial1	pointing/STIM_008.jpg	99
693.324	1.647	1646.8	pointing	Trial1	pointing/STIM_008.jpg	100
697.103	1.478	1478.1	pointing	Trial1	pointing/STIM_008.jpg	100
700.596	1.237	1237.2	pointing	Trial1	pointing/STIM_009.jpg	99
705.826	1.032	1032.1	pointing	Trial1	pointing/STIM_009.jpg	100
710.801	1.437	1436.9	pointing	Trial1	pointing/STIM_009.jpg	100
715.727	1.26	1260.5	pointing	Trial1	pointing/STIM_009.jpg	100
719.636	1.041	1041.0	pointing	Trial1	pointing/STIM_009.jpg	100
724.015	1.675	1674.9	pointing	Trial1	pointing/STIM_009.jpg	99
728.736	1.53	1529.7	pointing	Trial1	pointing/STIM_010.jpg	99
733.517	0.939	938.8	pointing	Trial1	pointing/STIM_010.jpg	99
737.067	1.197	1196.8	pointing	Trial1	pointing/STIM_010.jpg	99
740.698	1.437	1436.7	pointing	Trial1	pointing/STIM_010.jpg	100
744.623	1.071	1070.8	pointing	Trial1	pointing/STIM_010.jpg	100
748.613	1.535	1534.8	pointing	Trial1	pointing/STIM_010.jpg	99
753.968	1.099	1099.3	pointing	Trial1	pointing/STIM_011.jpg	100
757.508	1.61	1609.9	pointing	Trial1	pointing/STIM_011.jpg	99
762.246	1.283	1282.8	pointing	Trial1	pointing/STIM_011.jpg	99
767.278	1.12	1120.5	pointing	Trial1	pointing/STIM_011.jpg	99
772.2	1.586	1585.7	pointing	Trial1	pointing/STIM_011.jpg	99
777.346	1.069	1069.0	pointing	Trial1	pointing/STIM_011.jpg	100
780.615	1.978	1978.0	navigation	Trial2	navigation/STIM_000.jpg	100
785.244	3.788	3787.8	navigation	Trial2	navigation/STIM_000.jpg	99
792.657	2.765	2765.3	navigation	Trial2	navigation/STIM_000.jpg	99
798.651	1.713	1713.4	navigation	Trial2	navigation/STIM_000.jpg	100
802.713	1.908	1908.2	navigation	Trial2	navigation/STIM_000.jpg	100
806.985	1.7	1700.1	navigation	Trial2	navigation/STIM_000.jpg	99
811.389	4.656	4655.6	navigation	Trial2	navigation/STIM_001.jpg	99
819.701	2.565	2565.3	navigation	Trial2	navigation/STIM_001.jpg	99
824.271	3.346	3346.1	navigation	Trial2	navigation/STIM_001.jpg	99
830.488	3.227	3227.4	navigation	Trial2	navigation/STIM_001.jpg	99
835.772	3.352	3352.2	navigation	Trial2	navigation/STIM_001.jpg	99
842.09	3.644	3644.2	navigation	Trial2	navigation/STIM_001.jpg	100
847.957	3.91	3909.8	navigation	Trial2	navigation/STIM_002.jpg	99
855.851	3.854	3854.3	navigation	Trial2	navigation/STIM_002.jpg	99
862.623	4.15	4150.1	navigation	Trial2	navigation/STIM_002.jpg	100
870.385	3.454	3454.4	navigation	Trial2	navigation/STIM_002.jpg	100
876.541	2.392	2392.3	navigation	Trial2	navigation/STIM_002.jpg	99
881.055	3.444	3443.9	navigation	Trial2	navigation/STIM_002.jpg	99
888.042	2.138	2137.7	navigation	Trial2	navigation/STIM_003.jpg	99
894.045	2.336	2335.6	navigation	Trial2	navigation/STIM_003.jpg	99
898.519	2.726	2725.6	navigation	Trial2	navigation/STIM_003.jpg	100
905.17	1.62	1620.4	navigation	Trial2	navigation/STIM_003.jpg	99
909.046	2.524	2524.1	navigation	Trial2	navigation/STIM_003.jpg	100
914.512	1.74	1740.5	navigation	Trial2	navigation/STIM_003.jpg	99
919.779	4.261	4261.0	navigation	Trial2	navigation/STIM_004.jpg	99
926.431	4.174	4174.4	navigation	Trial2	navigation/STIM_004.jpg	100
933.457	3.53	3529.7	navigation	Trial2	navigation/STIM_004.jpg	100
940.123	1.633	1632.9	navigation	Trial2	navigation/STIM_004.jpg	100
944.16	3.062	3062.1	navigation	Trial2	navigation/STIM_004.jpg	99
951.144	3.002	3001.9	navigation	Trial2	navigation/STIM_004.jpg	100
956.222	2.344	2343.7	navigation	Trial2	navigation/STIM_005.jpg	100
962.303	3.472	3472.1	navigation	Trial2	navigation/STIM_005.jpg	99
968.244	2.346	2346.1	navigation	Trial2	navigation/STIM_005.jpg	99
974.556	2.083	2083.0	navigation	Trial2	navigation/STIM_005.jpg	99
979.781	3.789	3789.1	navigation	Trial2	navigation/STIM_005.jpg	100
985.887	3.212	3211.9	navigation	Trial2	navigation/STIM_005.jpg	99
991.825	4.677	4676.9	navigation	Trial2	navigation/STIM_006.jpg	99
999.723	3.09	3089.9	navigation	Trial2	navigation/STIM_006.jpg	99
1005.459	2.569	2569.2	navigation	Trial2	navigation/STIM_006.jpg	99
1010.505	1.897	1897.1	navigation	Trial2	navigation/STIM_006.jpg	99
1015.797	2.776	2776.5	navigation	Trial2	navigation/STIM_006.jpg	100
1022.554	2.773	2772.8	navigation	Trial2	navigation/STIM_006.jpg	100
1028.175	2.056	2056.5	navigation	Trial2	navigation/STIM_007.jpg	100
1032.842	2.262	2261.5	navigation	Trial2	navigation/STIM_007.jpg	100
1038.758	3.976	3976.4	navigation	Trial2	navigation/STIM_007.jpg	99
1046.211	3.578	3578.2	navigation	Trial2	navigation/STIM_007.jpg	100
1053.014	1.995	1994.9	navigation	Trial2	navigation/STIM_007.jpg	100
1057.193	2.598	2598.4	navigation	Trial2	navigation/STIM_007.jpg	100
1062.792	3.602	3602.3	navigation	Trial2	navigation/STIM_008.jpg	100
1069.587	4.226	4226.1	navigation	Trial2	navigation/STIM_008.jpg	100
1076.341	3.244	3243.8	navigation	Trial2	navigation/STIM_008.jpg	100
1082.786	3.516	3515.8	navigation	Trial2	navigation/STIM_008.jpg	99
1089.709	3.452	3452.0	navigation	Trial2	navigation/STIM_008.jpg	100
1096.764	3.263	3262.7	navigation	Trial2	navigation/STIM_008.jpg	99
1102.042	2.357	2357.2	navigation	Trial2	navigation/STIM_009.jpg	99
1107.72	3.974	3974.3	navigation	Trial2	navigation/STIM_009.jpg	99
1113.742	2.206	2205.5	navigation	Trial2	navigation/STIM_009.jpg	99
1118.543	3.467	3466.6	navigation	Trial2	navigation/STIM_009.jpg	99
1125.376	2.166	2166.5	navigation	Trial2	navigation/STIM_009.jpg	99
1131.387	3.023	3022.8	navigation	Trial2	navigation/STIM_009.jpg	99
1136.433	3.722	3722.1	navigation	Trial2	navigation/STIM_010.jpg	99
1142.562	3.897	3897.2	navigation	Trial2	navigation/STIM_010.jpg	100
1149.255	3.865	3864.6	navigation	Trial2	navigation/STIM_010.jpg	99
1156.044	3.327	3327.3	navigation	Trial2	navigation/STIM_010.jpg	99
1161.715	3.008	3007.9	navigation	Trial2	navigation/STIM_010.jpg	100
1168.132	3.331	3331.1	navigation	Trial2	navigation/STIM_010.jpg	99
1174.983	2.798	2798.2	navigation	Trial2	navigation/STIM_011.jpg	99
1179.917	2.286	2286.5	navigation	Trial2	navigation/STIM_011.jpg	100
1185.974	4.128	4127.6	navigation	Trial2	navigation/STIM_011.jpg	99
1192.644	2.787	2787.3	navigation	Trial2	navigation/STIM_011.jpg	100
1197.511	3.668	3667.7	navigation	Trial2	navigation/STIM_011.jpg	100
1205.174	2.065	2064.6	navigation	Trial2	navigation/STIM_011.jpg	99
1210.401	0.954	954.4	pointing	Trial2	pointing/STIM_000.jpg	99
1215.157	1.227	1226.8	pointing	Trial2	pointing/STIM_000.jpg	99
1220.339	1.562	1562.1	pointing	Trial2	pointing/STIM_000.jpg	100
1225.627	1.617	1617.4	pointing	Trial2	pointing/STIM_000.jpg	99
1230.787	1.181	1181.2	pointing	Trial2	pointing/STIM_000.jpg	100
1234.686	1.27	1269.6	pointing	Trial2	pointing/STIM_000.jpg	99
1239.279	1.114	1114.2	pointing	Trial2	pointing/STIM_001.jpg	99
1242.693	1.548	1547.8	pointing	Trial2	pointing/STIM_001.jpg	99
1246.585	1.335	1334.9	pointing	Trial2	pointing/STIM_001.jpg	100
1250.922	1.489	1489.4	pointing	Trial2	pointing/STIM_001.jpg	99
1256.182	0.909	909.4	pointing	Trial2	pointing/STIM_001.jpg	99
1260.973	1.694	1694.5	pointing	Trial2	pointing/STIM_001.jpg	100
1266.172	1.062	1062.1	pointing	Trial2	pointing/STIM_002.jpg	99
1270.051	1.569	1569.2	pointing	Trial2	pointing/STIM_002.jpg	100
1275.374	1.644	1643.6	pointing	Trial2	pointing/STIM_002.jpg	100
1279.191	0.985	984.7	pointing	Trial2	pointing/STIM_002.jpg	100
1282.636	1.629	1629.1	pointing	Trial2	pointing/STIM_002.jpg	99
1286.415	1.35	1350.5	pointing	Trial2	pointing/STIM_002.jpg	99
1291.489	1.127	1127.1	pointing	Trial2	pointing/STIM_003.jpg	100
1294.764	1.495	1495.2	pointing	Trial2	pointing/STIM_003.jpg	100
1298.51	0.956	955.6	pointing	Trial2	pointing/STIM_003.jpg	100
1301.916	1.188	1187.5	pointing	Trial2	pointing/STIM_003.jpg	99
1307.098	1.199	1198.8	pointing	Trial2	pointing/STIM_003.jpg	99
1310.812	1.156	1155.5	pointing	Trial2	pointing/STIM_003.jpg	99
1315.964	0.985	984.8	pointing	Trial2	pointing/STIM_004.jpg	99
1319.936	1.569	1568.6	pointing	Trial2	pointing/STIM_004.jpg	100
1324.726	1.333	1332.9	pointing	Trial2	pointing/STIM_004.jpg	100
1329.612	1.656	1656.4	pointing	Trial2	pointing/STIM_004.jpg	99
1334.551	1.158	1157.9	pointing	Trial2	pointing/STIM_004.jpg	99
1338.911	1.035	1034.8	pointing	Trial2	pointing/STIM_004.jpg	100
1343.245	1.373	1373.4	pointing	Trial2	pointing/STIM_005.jpg	100
1348.168	1.301	1301.4	pointing	Trial2	pointing/STIM_005.jpg	100
1352.16	1.694	1694.3	pointing	Trial2	pointing/STIM_005.jpg	100
1357.73	1.107	1106.7	pointing	Trial2	pointing/STIM_005.jpg	100
1362.634	1.076	1076.1	pointing	Trial2	pointing/STIM_005.jpg	99
1366.622	1.031	1030.7	pointing	Trial2	pointing/STIM_005.jpg	99
1370.042	1.7	1700.1	pointing	Trial2	pointing/STIM_006.jpg	100
1375.182	1.297	1297.2	pointing	Trial2	pointing/STIM_006.jpg	99
1379.857	1.616	1616.3	pointing	Trial2	pointing/STIM_006.jpg	100
1384.175	1.374	1374.5	pointing	Trial2	pointing/STIM_006.jpg	100
1388.365	1.462	1461.7	pointing	Trial2	pointing/STIM_006.jpg	99
1392.979	1.644	1644.3	pointing	Trial2	pointing/STIM_006.jpg	99
1397.3	1.596	1595.9	pointing	Trial2	pointing/STIM_007.jpg	100
1402.458	1.087	1087.2	pointing	Trial2	pointing/STIM_007.jpg	100
1407.444	1.666	1665.7	pointing	Trial2	pointing/STIM_007.jpg	100
1411.143	1.623	1623.0	pointing	Trial2	pointing/STIM_007.jpg	99
1414.887	1.639	1638.7	pointing	Trial2	pointing/STIM_007.jpg	99
1419.841	0.915	914.8	pointing	Trial2	pointing/STIM_007.jpg	99
1423.777	1.414	1413.9	pointing	Trial2	pointing/STIM_008.jpg	99
1428.628	1.559	1558.8	pointing	Trial2	pointing/STIM_008.jpg	100
1432.631	1.669	1668.9	pointing	Trial2	pointing/STIM_008.jpg	99
1437.902	1.159	1158.8	pointing	Trial2	pointing/STIM_008.jpg	99
1441.697	0.96	959.6	pointing	Trial2	pointing/STIM_008.jpg	100
1445.23	1.158	1158.5	pointing	Trial2	pointing/STIM_008.jpg	99
1448.902	0.91	910.3	pointing	Trial2	pointing/STIM_009.jpg	99
1453.507	1.517	1517.0	pointing	Trial2	pointing/STIM_009.jpg	99
1457.963	1.039	1038.7	pointing	Trial2	pointing/STIM_009.jpg	99
1462.408	1.105	1105.2	pointing	Trial2	pointing/STIM_009.jpg	99
1467.009	1.532	1532.3	pointing	Trial2	pointing/STIM_009.jpg	100
1472.493	1.155	1154.7	pointing	Trial2	pointing/STIM_009.jpg	99
1476.677	1.19	1190.0	pointing	Trial2	pointing/STIM_010.jpg	99
1480.404	1.688	1688.3	pointing	Trial2	pointing/STIM_010.jpg	99
1485.762	1.605	1605.4	pointing	Trial2	pointing/STIM_010.jpg	100
1490.382	1.003	1003.4	pointing	Trial2	pointing/STIM_010.jpg	99
1493.498	1.167	1167.0	pointing	Trial2	pointing/STIM_010.jpg	99
1498.12	1.495	1494.8	pointing	Trial2	pointing/STIM_010.jpg	99
1502.108	1.65	1649.7	pointing	Trial2	pointing/STIM_011.jpg	100
1506.66	1.359	1359.3	pointing	Trial2	pointing/STIM_011.jpg	100
1510.193	1.542	1541.9	pointing	Trial2	pointing/STIM_011.jpg	99
1515.468	1.05	1049.6	pointing	Trial2	pointing/STIM_011.jpg	100
1519.226	1.069	1069.2	pointing	Trial2	pointing/STIM_011.jpg	99
1524.039	1.05	1049.7	pointing	Trial2	pointing/STIM_011.jpg	100
1528.372	2.753	2753.3	navigation	Trial3	navigation/STIM_000.jpg	100
1533.628	2.916	2915.8	navigation	Trial3	navigation/STIM_000.jpg	99
1539.906	2.078	2078.1	navigation	Trial3	navigation/STIM_000.jpg	100
1545.235	1.836	1835.7	navigation	Trial3	navigation/STIM_000.jpg	99
1550.883	2.592	2592.2	navigation	Trial3	navigation/STIM_000.jpg	100
1557.357	2.659	2658.8	navigation	Trial3	navigation/STIM_000.jpg	99
1562.938	3.764	3764.2	navigation	Trial3	navigation/STIM_001.jpg	100
1569.469	2.246	2245.7	navigation	Trial3	navigation/STIM_001.jpg	99
1575.148	2.876	2875.6	navigation	Trial3	navigation/STIM_001.jpg	100
1581.092	3.271	3270.9	navigation	Trial3	navigation/STIM_001.jpg	100
1587.64	2.371	2370.6	navigation	Trial3	navigation/STIM_001.jpg	100
1592.097	3.256	3255.5	navigation	Trial3	navigation/STIM_001.jpg	99
1598.14	2.059	2058.8	navigation	Trial3	navigation/STIM_002.jpg	100
1603.529	2.007	2007.4	navigation	Trial3	navigation/STIM_002.jpg	99
1608.286	3.143	3143.2	navigation	Trial3	navigation/STIM_002.jpg	99
1614.337	2.76	2760.2	navigation	Trial3	navigation/STIM_002.jpg	99
1620.466	2.432	2431.9	navigation	Trial3	navigation/STIM_002.jpg	99
1624.957	2.618	2618.4	navigation	Trial3	navigation/STIM_002.jpg	99
1630.067	2.933	2933.2	navigation	Trial3	navigation/STIM_003.jpg	100
1636.966	3.971	3970.9	navigation	Trial3	navigation/STIM_003.jpg	100
1644.367	2.038	2037.9	navigation	Trial3	navigation/STIM_003.jpg	100
1649.879	2.582	2582.4	navigation	Trial3	navigation/STIM_003.jpg	100
1654.768	3.137	3137.0	navigation	Trial3	navigation/STIM_003.jpg	99
1660.123	1.806	1805.5	navigation	Trial3	navigation/STIM_003.jpg	99
1665.423	2.942	2941.7	navigation	Trial3	navigation/STIM_004.jpg	100
1671.241	2.552	2552.0	navigation	Trial3	navigation/STIM_004.jpg	100
1677.237	2.245	2245.0	navigation	Trial3	navigation/STIM_004.jpg	99
1682.703	2.44	2439.5	navigation	Trial3	navigation/STIM_004.jpg	99
1688.848	3.855	3855.4	navigation	Trial3	navigation/STIM_004.jpg	100
1696.007	3.258	3257.9	navigation	Trial3	navigation/STIM_004.jpg	100
1702.582	2.892	2892.0	navigation	Trial3	navigation/STIM_005.jpg	100
1708.004	2.716	2715.8	navigation	Trial3	navigation/STIM_005.jpg	100
1713.803	2.347	2347.1	navigation	Trial3	navigation/STIM_005.jpg	99
1718.619	3.686	3686.0	navigation	Trial3	navigation/STIM_005.jpg	100
1725.485	2.889	2888.8	navigation	Trial3	navigation/STIM_005.jpg	100
1731.974	2.421	2421.3	navigation	Trial3	navigation/STIM_005.jpg	100
1737.307	1.799	1799.4	navigation	Trial3	navigation/STIM_006.jpg	99
1742.36	1.649	1649.2	navigation	Trial3	navigation/STIM_006.jpg	100
1747.537	2.085	2084.8	navigation	Trial3	navigation/STIM_006.jpg	100
1752.119	2.102	2101.7	navigation	Trial3	navigation/STIM_006.jpg	100
1756.496	3.282	3282.1	navigation	Trial3	navigation/STIM_006.jpg	99
1762.636	2.385	2384.7	navigation	Trial3	navigation/STIM_006.jpg	99
1768.966	3.34	3339.8	navigation	Trial3	navigation/STIM_007.jpg	100
1775.92	3.107	3106.6	navigation	Trial3	navigation/STIM_007.jpg	100
1781.36	1.633	1633.1	navigation	Trial3	navigation/STIM_007.jpg	99
1786.474	1.705	1705.2	navigation	Trial3	navigation/STIM_007.jpg	100
1791.708	3.465	3465.1	navigation	Trial3	navigation/STIM_007.jpg	100
1799.063	1.85	1849.9	navigation	Trial3	navigation/STIM_007.jpg	99
1803.342	2.143	2142.8	navigation	Trial3	navigation/STIM_008.jpg	99
1808.56	3.351	3350.7	navigation	Trial3	navigation/STIM_008.jpg	100
1815.113	2.867	2867.1	navigation	Trial3	navigation/STIM_008.jpg	99
1821.55	3.625	3625.2	navigation	Trial3	navigation/STIM_008.jpg	100
1827.842	2.109	2108.9	navigation	Trial3	navigation/STIM_008.jpg	100
1832.343	2.908	2907.5	navigation	Trial3	navigation/STIM_008.jpg	100
1838.973	2.696	2696.3	navigation	Trial3	navigation/STIM_009.jpg	100
1845.465	1.971	1970.9	navigation	Trial3	navigation/STIM_009.jpg	100
1849.772	2.768	2767.7	navigation	Trial3	navigation/STIM_009.jpg	99
1855.504	2.466	2466.3	navigation	Trial3	navigation/STIM_009.jpg	100
1860.643	3.248	3248.3	navigation	Trial3	navigation/STIM_009.jpg	100
1866.89	3.795	3794.8	navigation	Trial3	navigation/STIM_009.jpg	100
1874.409	2.086	2085.6	navigation	Trial3	navigation/STIM_010.jpg	100
1878.911	1.903	1903.1	navigation	Trial3	navigation/STIM_010.jpg	100
1884.176	2.098	2098.0	navigation	Trial3	navigation/STIM_010.jpg	100
1888.379	3.018	3018.3	navigation	Trial3	navigation/STIM_010.jpg	100
1893.417	2.845	2844.8	navigation	Trial3	navigation/STIM_010.jpg	100
1899.84	2.521	2521.0	navigation	Trial3	navigation/STIM_010.jpg	100
1905.282	3.649	3649.4	navigation	Trial3	navigation/STIM_011.jpg	99
1912.438	2.244	2244.5	navigation	Trial3	navigation/STIM_011.jpg	99
1917.462	2.54	2540.1	navigation	Trial3	navigation/STIM_011.jpg	99
1922.93	2.83	2829.8	navigation	Trial3	navigation/STIM_011.jpg	100
1928.516	3.302	3302.0	navigation	Trial3	navigation/STIM_011.jpg	100
1935.374	3.577	3577.2	navigation	Trial3	navigation/STIM_011.jpg	100
1942.428	1.518	1517.9	pointing	Trial3	pointing/STIM_000.jpg	99
1947.686	1.178	1178.3	pointing	Trial3	pointing/STIM_000.jpg	99
1951.649	0.983	983.4	pointing	Trial3	pointing/STIM_000.jpg	99
1956.248	1.392	1391.8	pointing	Trial3	pointing/STIM_000.jpg	99
1961.404	1.281	1280.8	pointing	Trial3	pointing/STIM_000.jpg	100
1966.66	1.256	1256.1	pointing	Trial3	pointing/STIM_000.jpg	99
1970.576	1.034	1033.6	pointing	Trial3	pointing/STIM_001.jpg	100
1975.23	0.986	985.9	pointing	Trial3	pointing/STIM_001.jpg	100
1980.155	1.627	1627.0	pointing	Trial3	pointing/STIM_001.jpg	100
1985.074	1.509	1508.9	pointing	Trial3	pointing/STIM_001.jpg	100
1988.629	1.698	1698.4	pointing	Trial3	pointing/STIM_001.jpg	99
1992.915	1.24	1239.8	pointing	Trial3	pointing/STIM_001.jpg	99
1997.414	0.97	970.1	pointing	Trial3	pointing/STIM_002.jpg	100
2001.552	1.365	1364.6	pointing	Trial3	pointing/STIM_002.jpg	99
2005.592	1.547	1547.2	pointing	Trial3	pointing/STIM_002.jpg	99
2010.538	1.402	1401.8	pointing	Trial3	pointing/STIM_002.jpg	99
2015.789	1.055	1054.7	pointing	Trial3	pointing/STIM_002.jpg	99
2020.522	1.544	1543.6	pointing	Trial3	pointing/STIM_002.jpg	99
2025.735	1.175	1175.1	pointing	Trial3	pointing/STIM_003.jpg	100
2030.765	1.335	1335.2	pointing	Trial3	pointing/STIM_003.jpg	99
2034.417	1.472	1472.2	pointing	Trial3	pointing/STIM_003.jpg	99
2039.396	1.552	1552.2	pointing	Trial3	pointing/STIM_003.jpg	100
2043.557	1.402	1401.7	pointing	Trial3	pointing/STIM_003.jpg	100
2047.644	1.138	1137.5	pointing	Trial3	pointing/STIM_003.jpg	100
2051.987	1.695	1695.4	pointing	Trial3	pointing/STIM_004.jpg	100
2056.699	1.627	1626.6	pointing	Trial3	pointing/STIM_004.jpg	100
2060.529	1.244	1244.3	pointing	Trial3	pointing/STIM_004.jpg	99
2064.709	1.599	1599.3	pointing	Trial3	pointing/STIM_004.jpg	100
2069.474	1.078	1077.9	pointing	Trial3	pointing/STIM_004.jpg	100
2072.578	1.19	1190.2	pointing	Trial3	pointing/STIM_004.jpg	100
2077.553	1.642	1642.5	pointing	Trial3	pointing/STIM_005.jpg	99
2081.314	1.649	1648.8	pointing	Trial3	pointing/STIM_005.jpg	99
2086.752	1.489	1488.6	pointing	Trial3	pointing/STIM_005.jpg	99
2091.644	0.923	923.0	pointing	Trial3	pointing/STIM_005.jpg	99
2094.712	0.939	938.7	pointing	Trial3	pointing/STIM_005.jpg	100
2098.863	1.156	1155.7	pointing	Trial3	pointing/STIM_005.jpg	99
2102.704	1.511	1511.3	pointing	Trial3	pointing/STIM_006.jpg	100
2106.561	1.17	1170.3	pointing	Trial3	pointing/STIM_006.jpg	100
2109.864	1.372	1372.3	pointing	Trial3	pointing/STIM_006.jpg	100
2113.506	1.486	1486.5	pointing	Trial3	pointing/STIM_006.jpg	99
2118.063	1.523	1523.2	pointing	Trial3	pointing/STIM_006.jpg	100
2121.99	1.005	1005.3	pointing	Trial3	pointing/STIM_006.jpg	99
2126.978	1.122	1122.0	pointing	Trial3	pointing/STIM_007.jpg	100
2131.494	1.336	1336.2	pointing	Trial3	pointing/STIM_007.jpg	100
2136.52	1.094	1093.7	pointing	Trial3	pointing/STIM_007.jpg	99
2140.388	1.635	1634.8	pointing	Trial3	pointing/STIM_007.jpg	100
2144.843	1.211	1210.9	pointing	Trial3	pointing/STIM_007.jpg	100
2149.616	1.495	1495.2	pointing	Trial3	pointing/STIM_007.jpg	99
2153.461	0.922	921.7	pointing	Trial3	pointing/STIM_008.jpg	99
2157.881	1.696	1696.2	pointing	Trial3	pointing/STIM_008.jpg	100
2162.409	1.415	1415.4	pointing	Trial3	pointing/STIM_008.jpg	100
2167.333	1.069	1069.4	pointing	Trial3	pointing/STIM_008.jpg	99
2171.734	1.516	1516.0	pointing	Trial3	pointing/STIM_008.jpg	100
2175.878	1.252	1251.9	pointing	Trial3	pointing/STIM_008.jpg	100
2179.153	1.632	1631.8	pointing	Trial3	pointing/STIM_009.jpg	100
2182.885	0.969	969.2	pointing	Trial3	pointing/STIM_009.jpg	100
2186.265	1.226	1226.2	pointing	Trial3	pointing/STIM_009.jpg	100
2191.333	1.029	1029.4	pointing	Trial3	pointing/STIM_009.jpg	100
2195.654	1.118	1118.0	pointing	Trial3	pointing/STIM_009.jpg	100
2200.583	1.581	1581.1	pointing	Trial3	pointing/STIM_009.jpg	100
2204.708	1.688	1687.9	pointing	Trial3	pointing/STIM_010.jpg	99
2209.144	1.161	1160.8	pointing	Trial3	pointing/STIM_010.jpg	99
2213.434	1.623	1623.4	pointing	Trial3	pointing/STIM_010.jpg	99
2218.32	1.136	1136.4	pointing	Trial3	pointing/STIM_010.jpg	99
2222.357	1.599	1598.7	pointing	Trial3	pointing/STIM_010.jpg	99
2227.903	1.18	1179.5	pointing	Trial3	pointing/STIM_010.jpg	99
2231.892	1.092	1092.0	pointing	Trial3	pointing/STIM_011.jpg	99
2236.008	1.092	1092.2	pointing	Trial3	pointing/STIM_011.jpg	100
2239.706	1.132	1132.1	pointing	Trial3	pointing/STIM_011.jpg	99
2243.113	1.38	1379.7	pointing	Trial3	pointing/STIM_011.jpg	100
2247.695	1.596	1595.6	pointing	Trial3	pointing/STIM_011.jpg	99
2253.039	1.588	1588.2	pointing	Trial3	pointing/STIM_011.jpg	100
