onset	duration	response_time_ms	trial_type	learning_stage	stimulus	response_port
0.0	1.095	1094.7	study	Phase1	study/STIM_000.jpg	99
4.981	1.325	1325.4	study	Phase1	study/STIM_000.jpg	100
8.459	1.538	1538.5	study	Phase1	study/STIM_000.jpg	99
13.811	1.269	1269.4	study	Phase1	study/STIM_001.jpg	100
17.998	0.913	912.6	study	Phase1	study/STIM_001.jpg	100
21.028	1.138	1137.6	study	Phase1	study/STIM_001.jpg	99
24.632	1.315	1315.1	study	Phase1	study/STIM_002.jpg	99
28.989	0.953	953.3	study	Phase1	study/STIM_002.jpg	99
32.653	0.996	996.1	study	Phase1	study/STIM_002.jpg	100
35.926	1.733	1733.3	study	Phase1	study/STIM_003.jpg	99
40.948	1.068	1068.1	study	Phase1	study/STIM_003.jpg	99
45.199	1.093	1092.6	study	Phase1	study/STIM_003.jpg	100
48.608	1.037	1036.9	study	Phase1	study/STIM_004.jpg	100
53.397	1.147	1147.3	study	Phase1	study/STIM_004.jpg	100
56.548	1.106	1106.1	study	Phase1	study/STIM_004.jpg	100
60.279	1.062	1061.7	study	Phase1	study/STIM_005.jpg	99
64.598	1.658	1657.9	study	Phase1	study/STIM_005.jpg	100
68.554	1.423	1423.2	study	Phase1	study/STIM_005.jpg	99
73.068	0.894	893.9	study	Phase1	study/STIM_006.jpg	99
76.873	0.876	876.2	study	Phase1	study/STIM_006.jpg	99
80.411	1.44	1439.6	study	Phase1	study/STIM_006.jpg	100
84.812	1.603	1602.7	study	Phase1	study/STIM_007.jpg	99
89.994	1.58	1579.9	study	Phase1	study/STIM_007.jpg	100
94.433	1.074	1073.8	study	Phase1	study/STIM_007.jpg	100
97.602	0.856	855.9	study	Phase1	study/STIM_008.jpg	100
101.901	0.887	887.3	study	Phase1	study/STIM_008.jpg	99
105.311	1.332	1331.5	study	Phase1	study/STIM_008.jpg	100
108.848	1.067	1067.4	study	Phase1	study/STIM_009.jpg	100
112.224	1.228	1228.0	study	Phase1	study/STIM_009.jpg	99
116.745	1.501	1500.6	study	Phase1	study/STIM_009.jpg	100
121.299	1.058	1058.0	study	Phase1	study/STIM_010.jpg	99
125.735	1.703	1703.0	study	Phase1	study/STIM_010.jpg	99
130.956	1.551	1550.8	study	Phase1	study/STIM_010.jpg	99
135.603	1.296	1296.3	study	Phase1	study/STIM_011.jpg	99
140.419	1.129	1129.3	study	Phase1	study/STIM_011.jpg	100
144.797	0.76	759.8	study	Phase1	study/STIM_011.jpg	100
148.043	1.716	1715.5	study	Phase1	study/STIM_012.jpg	100
152.816	1.58	1579.7	study	Phase1	study/STIM_012.jpg	99
156.614	1.604	1603.7	study	Phase1	study/STIM_012.jpg	100
160.542	1.651	1650.7	study	Phase1	study/STIM_013.jpg	99
165.836	1.042	1042.0	study	Phase1	study/STIM_013.jpg	100
170.246	1.092	1092.1	study	Phase1	study/STIM_013.jpg	99
173.591	1.424	1423.9	study	Phase1	study/STIM_014.jpg	99
176.999	1.517	1517.0	study	Phase1	study/STIM_014.jpg	100
181.115	1.388	1388.3	study	Phase1	study/STIM_014.jpg	100
185.866	0.829	828.8	study	Phase1	study/STIM_015.jpg	100
189.799	1.726	1725.5	study	Phase1	study/STIM_015.jpg	100
194.858	0.892	891.8	study	Phase1	study/STIM_015.jpg	99
197.89	1.713	1713.0	study	Phase1	study/STIM_016.jpg	100
202.031	1.482	1482.0	study	Phase1	study/STIM_016.jpg	100
205.966	0.829	828.9	study	Phase1	study/STIM_016.jpg	100
209.274	1.83	1830.1	study	Phase1	study/STIM_017.jpg	99
213.111	1.642	1641.8	study	Phase1	study/STIM_017.jpg	100
217.425	1.205	1204.7	study	Phase1	study/STIM_017.jpg	99
221.877	1.444	1443.6	study	Phase1	study/STIM_018.jpg	99
227.114	1.22	1220.5	study	Phase1	study/STIM_018.jpg	100
230.927	1.528	1528.3	study	Phase1	study/STIM_018.jpg	99
235.55	1.781	1781.2	study	Phase1	study/STIM_019.jpg	100
240.649	1.015	1015.2	study	Phase1	study/STIM_019.jpg	100
244.433	1.569	1569.4	study	Phase1	study/STIM_019.jpg	100
248.544	0.883	882.6	study	Phase1	study/STIM_020.jpg	100
251.707	1.593	1592.9	study	Phase1	study/STIM_020.jpg	100
256.609	0.829	828.6	study	Phase1	study/STIM_020.jpg	100
261.351	0.954	954.2	study	Phase1	study/STIM_021.jpg	99
264.993	1.742	1742.0	study	Phase1	study/STIM_021.jpg	99
268.798	1.378	1377.9	study	Phase1	study/STIM_021.jpg	99
273.465	0.922	922.0	study	Phase1	study/STIM_022.jpg	99
277.12	1.294	1294.2	study	Phase1	study/STIM_022.jpg	99
282.335	1.425	1424.6	study	Phase1	study/STIM_022.jpg	100
286.791	0.915	914.6	study	Phase1	study/STIM_023.jpg	100
289.984	1.012	1012.4	study	Phase1	study/STIM_023.jpg	99
294.291	1.022	1022.1	study	Phase1	study/STIM_023.jpg	99
299.173	1.371	1371.1	study	Phase1	study/STIM_024.jpg	99
303.062	1.714	1714.5	study	Phase1	study/STIM_024.jpg	99
308.519	1.585	1584.9	study	Phase1	study/STIM_024.jpg	100
313.697	1.282	1282.0	study	Phase1	study/STIM_025.jpg	100
318.44	1.091	1090.9	study	Phase1	study/STIM_025.jpg	100
322.592	1.505	1504.9	study	Phase1	study/STIM_025.jpg	100
327.739	1.034	1034.1	study	Phase1	study/STIM_026.jpg	100
331.981	1.421	1420.9	study	Phase1	study/STIM_026.jpg	99
336.761	1.276	1275.8	study	Phase1	study/STIM_026.jpg	100
341.339	1.43	1430.3	study	Phase1	study/STIM_027.jpg	100
346.491	1.007	1007.4	study	Phase1	study/STIM_027.jpg	99
349.832	1.34	1340.1	study	Phase1	study/STIM_027.jpg	99
353.167	1.814	1813.8	study	Phase1	study/STIM_028.jpg	99
356.969	1.605	1604.9	study	Phase1	study/STIM_028.jpg	100
360.755	1.594	1593.7	study	Phase1	study/STIM_028.jpg	100
364.541	1.692	1692.4	study	Phase1	study/STIM_029.jpg	100
368.758	1.573	1573.4	study	Phase1	study/STIM_029.jpg	100
373.548	1.558	1558.0	study	Phase1	study/STIM_029.jpg	99
377.53	1.238	1238.4	test	Phase1	test/STIM_000.jpg	99
381.609	1.305	1305.1	test	Phase1	test/STIM_000.jpg	100
385.532	1.074	1073.7	test	Phase1	test/STIM_000.jpg	100
388.819	1.245	1244.8	test	Phase1	test/STIM_001.jpg	99
393.596	1.01	1010.4	test	Phase1	test/STIM_001.jpg	100
398.355	0.863	863.3	test	Phase1	test/STIM_001.jpg	99
403.166	1.226	1225.9	test	Phase1	test/STIM_002.jpg	100
406.393	0.774	774.0	test	Phase1	test/STIM_002.jpg	100
410.409	1.117	1116.7	test	Phase1	test/STIM_002.jpg	99
414.616	1.08	1079.6	test	Phase1	test/STIM_003.jpg	100
419.115	1.293	1292.7	test	Phase1	test/STIM_003.jpg	100
422.722	1.287	1287.4	test	Phase1	test/STIM_003.jpg	99
427.968	1.112	1111.8	test	Phase1	test/STIM_004.jpg	99
431.707	0.706	706.5	test	Phase1	test/STIM_004.jpg	99
436.134	0.92	920.0	test	Phase1	test/STIM_004.jpg	99
440.9	0.794	793.6	test	Phase1	test/STIM_005.jpg	99
444.62	0.763	763.3	test	Phase1	test/STIM_005.jpg	100
448.729	0.679	679.2	test	Phase1	test/STIM_005.jpg	99
453.099	0.659	659.3	test	Phase1	test/STIM_006.jpg	100
457.356	1.224	1223.9	test	Phase1	test/STIM_006.jpg	100
461.168	0.973	973.2	test	Phase1	test/STIM_006.jpg	100
464.428	1.036	1036.0	test	Phase1	test/STIM_007.jpg	100
469.145	0.691	691.2	test	Phase1	test/STIM_007.jpg	100
472.906	1.112	1111.6	test	Phase1	test/STIM_007.jpg	100
476.503	0.621	621.4	test	Phase1	test/STIM_008.jpg	99
480.931	1.18	1180.5	test	Phase1	test/STIM_008.jpg	99
486.045	0.92	920.5	test	Phase1	test/STIM_008.jpg	99
488.972	1.286	1286.4	test	Phase1	test/STIM_009.jpg	100
493.016	0.643	643.3	test	Phase1	test/STIM_009.jpg	99
495.655	0.843	842.9	test	Phase1	test/STIM_009.jpg	100
498.79	1.001	1000.6	test	Phase1	test/STIM_010.jpg	100
503.339	1.013	1012.7	test	Phase1	test/STIM_010.jpg	100
508.065	1.171	1170.8	test	Phase1	test/STIM_010.jpg	99
511.215	0.938	937.6	test	Phase1	test/STIM_011.jpg	100
515.757	1.205	1204.6	test	Phase1	test/STIM_011.jpg	99
520.365	1.186	1186.0	test	Phase1	test/STIM_011.jpg	99
524.914	1.193	1193.2	test	Phase1	test/STIM_012.jpg	99
528.679	0.843	842.6	test	Phase1	test/STIM_012.jpg	99
533.066	1.08	1079.8	test	Phase1	test/STIM_012.jpg	100
537.033	1.236	1235.6	test	Phase1	test/STIM_013.jpg	99
541.654	0.784	783.9	test	Phase1	test/STIM_013.jpg	99
544.992	0.963	963.1	test	Phase1	test/STIM_013.jpg	99
548.955	0.739	739.3	test	Phase1	test/STIM_014.jpg	100
552.22	1.314	1314.4	test	Phase1	test/STIM_014.jpg	100
556.595	0.677	677.1	test	Phase1	test/STIM_014.jpg	100
560.951	0.929	929.2	test	Phase1	test/STIM_015.jpg	100
565.468	1.0	1000.4	test	Phase1	test/STIM_015.jpg	99
570.348	1.288	1287.9	test	Phase1	test/STIM_015.jpg	100
573.74	1.062	1061.6	test	Phase1	test/STIM_016.jpg	99
576.914	1.248	1247.8	test	Phase1	test/STIM_016.jpg	100
580.84	1.143	1142.8	test	Phase1	test/STIM_016.jpg	99
584.7	0.689	689.1	test	Phase1	test/STIM_017.jpg	100
588.554	1.184	1183.7	test	Phase1	test/STIM_017.jpg	99
592.764	0.805	804.6	test	Phase1	test/STIM_017.jpg	100
596.275	0.66	659.6	test	Phase1	test/STIM_018.jpg	99
599.18	0.922	922.4	test	Phase1	test/STIM_018.jpg	99
603.698	1.259	1259.3	test	Phase1	test/STIM_018.jpg	100
607.904	0.982	981.8	test	Phase1	test/STIM_019.jpg	100
610.999	1.088	1088.0	test	Phase1	test/STIM_019.jpg	100
615.07	0.766	766.3	test	Phase1	test/STIM_019.jpg	100
618.309	0.662	662.4	test	Phase1	test/STIM_020.jpg	99
622.34	1.076	1076.2	test	Phase1	test/STIM_020.jpg	99
625.396	0.701	701.2	test	Phase1	test/STIM_020.jpg	100
628.628	1.262	1262.2	test	Phase1	test/STIM_021.jpg	99
632.176	1.252	1252.2	test	Phase1	test/STIM_021.jpg	100
636.666	1.22	1219.8	test	Phase1	test/STIM_021.jpg	100
641.333	1.088	1087.9	test	Phase1	test/STIM_022.jpg	100
645.721	0.669	668.6	test	Phase1	test/STIM_022.jpg	99
650.257	0.771	770.9	test	Phase1	test/STIM_022.jpg	99
653.727	0.673	673.1	test	Phase1	test/STIM_023.jpg	99
656.961	0.942	942.0	test	Phase1	test/STIM_023.jpg	100
660.916	1.076	1076.5	test	Phase1	test/STIM_023.jpg	100
665.713	1.084	1084.2	test	Phase1	test/STIM_024.jpg	99
669.732	1.202	1201.7	test	Phase1	test/STIM_024.jpg	99
674.721	0.774	774.0	test	Phase1	test/STIM_024.jpg	99
678.051	0.647	647.3	test	Phase1	test/STIM_025.jpg	99
680.907	1.098	1097.5	test	Phase1	test/STIM_025.jpg	100
685.826	1.044	1044.5	test	Phase1	test/STIM_025.jpg	100
690.839	1.025	1024.9	test	Phase1	test/STIM_026.jpg	99
695.678	0.818	818.1	test	Phase1	test/STIM_026.jpg	100
699.359	1.226	1226.1	test	Phase1	test/STIM_026.jpg	100
703.769	0.723	723.3	test	Phase1	test/STIM_027.jpg	100
708.388	0.912	912.2	test	Phase1	test/STIM_027.jpg	100
713.095	1.232	1232.1	test	Phase1	test/STIM_027.jpg	99
717.28	1.136	1136.1	test	Phase1	test/STIM_028.jpg	100
721.645	0.628	628.0	test	Phase1	test/STIM_028.jpg	100
726.257	1.293	1292.6	test	Phase1	test/STIM_028.jpg	100
730.588	0.78	780.1	test	Phase1	test/STIM_029.jpg	100
734.268	1.144	1144.5	test	Phase1	test/STIM_029.jpg	100
738.178	1.008	1008.5	test	Phase1	test/STIM_029.jpg	99
741.325	1.16	1160.4	study	Phase2	study/STIM_000.jpg	100
745.746	0.943	943.0	study	Phase2	study/STIM_000.jpg	100
749.112	0.642	642.5	study	Phase2	study/STIM_000.jpg	100
753.379	0.696	695.7	study	Phase2	study/STIM_001.jpg	99
756.316	0.995	994.9	study	Phase2	study/STIM_001.jpg	99
759.648	0.696	696.3	study	Phase2	study/STIM_001.jpg	99
764.153	1.362	1361.7	study	Phase2	study/STIM_002.jpg	99
768.137	1.195	1195.2	study	Phase2	study/STIM_002.jpg	100
772.371	1.109	1109.4	study	Phase2	study/STIM_002.jpg	100
776.286	0.994	994.4	study	Phase2	study/STIM_003.jpg	100
780.74	1.22	1219.9	study	Phase2	study/STIM_003.jpg	100
785.488	1.344	1343.6	study	Phase2	study/STIM_003.jpg	99
789.622	1.383	1383.0	study	Phase2	study/STIM_004.jpg	100
794.735	1.234	1233.7	study	Phase2	study/STIM_004.jpg	100
799.28	0.682	681.8	study	Phase2	study/STIM_004.jpg	100
802.062	1.081	1080.7	study	Phase2	study/STIM_005.jpg	100
805.965	0.654	653.6	study	Phase2	study/STIM_005.jpg	100
808.742	1.208	1208.1	study	Phase2	study/STIM_005.jpg	99
813.54	0.719	719.3	study	Phase2	study/STIM_006.jpg	99
818.053	0.753	753.1	study	Phase2	study/STIM_006.jpg	99
822.382	0.954	953.8	study	Phase2	study/STIM_006.jpg	99
825.773	1.493	1493.2	study	Phase2	study/STIM_007.jpg	99
829.674	1.081	1080.6	study	Phase2	study/STIM_007.jpg	100
834.107	1.005	1005.2	study	Phase2	study/STIM_007.jpg	100
837.228	0.812	811.7	study	Phase2	study/STIM_008.jpg	99
840.65	1.332	1331.6	study	Phase2	study/STIM_008.jpg	100
844.213	0.843	843.1	study	Phase2	study/STIM_008.jpg	99
848.566	1.491	1491.0	study	Phase2	study/STIM_009.jpg	99
852.241	0.826	826.3	study	Phase2	study/STIM_009.jpg	99
856.624	1.136	1136.4	study	Phase2	study/STIM_009.jpg	100
861.416	1.437	1437.3	study	Phase2	study/STIM_010.jpg	99
865.377	0.761	761.3	study	Phase2	study/STIM_010.jpg	99
868.924	0.94	939.7	study	Phase2	study/STIM_010.jpg	100
872.381	1.236	1236.1	study	Phase2	study/STIM_011.jpg	100
876.132	0.87	870.1	study	Phase2	study/STIM_011.jpg	100
880.438	1.345	1345.1	study	Phase2	study/STIM_011.jpg	100
885.402	1.293	1292.8	study	Phase2	study/STIM_012.jpg	100
890.289	1.415	1414.9	study	Phase2	study/STIM_012.jpg	100
894.305	1.011	1010.9	study	Phase2	study/STIM_012.jpg	100
897.398	1.307	1307.1	study	Phase2	study/STIM_013.jpg	100
902.258	1.114	1114.4	study	Phase2	study/STIM_013.jpg	100
905.621	0.799	798.9	study	Phase2	study/STIM_013.jpg	100
908.422	1.014	1014.2	study	Phase2	study/STIM_014.jpg	99
912.866	0.991	990.6	study	Phase2	study/STIM_014.jpg	100
916.426	0.712	712.3	study	Phase2	study/STIM_014.jpg	99
919.531	0.793	792.8	study	Phase2	study/STIM_015.jpg	100
923.467	0.861	861.3	study	Phase2	study/STIM_015.jpg	99
926.418	1.294	1293.5	study	Phase2	study/STIM_015.jpg	100
930.384	1.022	1021.8	study	Phase2	study/STIM_016.jpg	100
934.354	0.964	964.5	study	Phase2	study/STIM_016.jpg	99
938.494	0.671	671.2	study	Phase2	study/STIM_016.jpg	99
943.11	1.112	1111.7	study	Phase2	study/STIM_017.jpg	99
946.501	1.336	1336.4	study	Phase2	study/STIM_017.jpg	100
950.022	0.947	947.1	study	Phase2	study/STIM_017.jpg	99
954.914	0.804	803.5	study	Phase2	study/STIM_018.jpg	99
958.105	1.224	1224.4	study	Phase2	study/STIM_018.jpg	99
962.604	0.87	870.2	study	Phase2	study/STIM_018.jpg	100
966.396	1.017	1017.3	study	Phase2	study/STIM_019.jpg	99
970.161	1.309	1309.4	study	Phase2	study/STIM_019.jpg	99
975.253	0.782	781.8	study	Phase2	study/STIM_019.jpg	100
978.782	0.852	852.1	study	Phase2	study/STIM_020.jpg	100
982.033	1.36	1360.2	study	Phase2	study/STIM_020.jpg	99
986.362	1.214	1213.6	study	Phase2	study/STIM_020.jpg	99
991.267	1.112	1111.7	study	Phase2	study/STIM_021.jpg	99
995.997	1.028	1027.9	study	Phase2	study/STIM_021.jpg	100
1000.793	1.292	1292.3	study	Phase2	study/STIM_021.jpg	100
1004.894	1.342	1342.4	study	Phase2	study/STIM_022.jpg	99
1009.874	0.931	930.9	study	Phase2	study/STIM_022.jpg	99
1014.57	1.227	1227.4	study	Phase2	study/STIM_022.jpg	99
1018.501	0.824	823.9	study	Phase2	study/STIM_023.jpg	100
1022.296	1.377	1377.4	study	Phase2	study/STIM_023.jpg	99
1027.397	1.112	1111.9	study	Phase2	study/STIM_023.jpg	99
1030.729	1.532	1531.9	study	Phase2	study/STIM_024.jpg	100
1034.281	1.085	1085.0	study	Phase2	study/STIM_024.jpg	100
1038.778	0.871	870.8	study	Phase2	study/STIM_024.jpg	99
1043.318	1.222	1221.5	study	Phase2	study/STIM_025.jpg	100
1047.744	1.355	1355.3	study	Phase2	study/STIM_025.jpg	99
1051.136	0.705	705.1	study	Phase2	study/STIM_025.jpg	99
1054.813	1.071	1071.0	study	Phase2	study/STIM_026.jpg	99
1059.231	0.95	950.5	study	Phase2	study/STIM_026.jpg	99
1062.954	0.618	618.4	study	Phase2	study/STIM_026.jpg	99
1066.328	1.233	1232.6	study	Phase2	study/STIM_027.jpg	100
1070.767	1.093	1092.9	study	Phase2	study/STIM_027.jpg	99
1075.09	0.695	695.3	study	Phase2	study/STIM_027.jpg	100
1079.212	1.169	1168.7	study	Phase2	study/STIM_028.jpg	100
1082.905	0.692	692.1	study	Phase2	study/STIM_028.jpg	100
1086.121	0.923	923.2	study	Phase2	study/STIM_028.jpg	99
1090.542	1.42	1420.4	study	Phase2	study/STIM_029.jpg	100
1094.863	0.868	867.9	study	Phase2	study/STIM_029.jpg	99
1098.261	1.089	1088.8	study	Phase2	study/STIM_029.jpg	99
1102.366	0.644	644.2	test	Phase2	test/STIM_000.jpg	99
1105.586	1.264	1264.0	test	Phase2	test/STIM_000.jpg	100
1109.653	0.652	652.0	test	Phase2	test/STIM_000.jpg	99
1113.611	0.79	789.6	test	Phase2	test/STIM_001.jpg	100
1117.656	0.773	773.2	test	Phase2	test/STIM_001.jpg	99
1120.95	0.645	645.4	test	Phase2	test/STIM_001.jpg	100
1123.896	0.724	724.5	test	Phase2	test/STIM_002.jpg	100
1128.482	1.022	1022.3	test	Phase2	test/STIM_002.jpg	100
1132.613	0.616	615.6	test	Phase2	test/STIM_002.jpg	100
1136.281	0.934	933.8	test	Phase2	test/STIM_003.jpg	99
1140.658	0.852	852.2	test	Phase2	test/STIM_003.jpg	99
1145.198	1.292	1292.5	test	Phase2	test/STIM_003.jpg	99
1150.377	0.999	998.8	test	Phase2	test/STIM_004.jpg	99
1153.782	0.712	711.7	test	Phase2	test/STIM_004.jpg	99
1157.324	0.769	769.4	test	Phase2	test/STIM_004.jpg	100
1161.99	1.135	1134.7	test	Phase2	test/STIM_005.jpg	100
1166.59	1.048	1047.7	test	Phase2	test/STIM_005.jpg	99
1170.884	1.097	1097.3	test	Phase2	test/STIM_005.jpg	99
1174.601	0.885	884.9	test	Phase2	test/STIM_006.jpg	99
1177.723	1.142	1141.9	test	Phase2	test/STIM_006.jpg	100
1182.227	1.277	1277.0	test	Phase2	test/STIM_006.jpg	100
1186.956	0.749	749.4	test	Phase2	test/STIM_007.jpg	99
1190.962	1.163	1162.7	test	Phase2	test/STIM_007.jpg	99
1194.726	1.071	1071.1	test	Phase2	test/STIM_007.jpg	99
1198.47	0.983	983.0	test	Phase2	test/STIM_008.jpg	99
1202.635	1.153	1152.8	test	Phase2	test/STIM_008.jpg	99
1207.706	1.138	1138.1	test	Phase2	test/STIM_008.jpg	99
1212.31	0.974	973.8	test	Phase2	test/STIM_009.jpg	99
1216.737	1.102	1101.7	test	Phase2	test/STIM_009.jpg	100
1221.261	1.234	1233.7	test	Phase2	test/STIM_009.jpg	100
1225.602	1.042	1041.9	test	Phase2	test/STIM_010.jpg	100
1230.6	1.172	1171.9	test	Phase2	test/STIM_010.jpg	99
1234.466	1.124	1123.9	test	Phase2	test/STIM_010.jpg	99
1238.497	0.856	856.3	test	Phase2	test/STIM_011.jpg	99
1242.92	0.848	848.5	test	Phase2	test/STIM_011.jpg	99
1247.58	1.006	1005.6	test	Phase2	test/STIM_011.jpg	100
1252.107	0.839	839.3	test	Phase2	test/STIM_012.jpg	100
1255.022	0.968	968.3	test	Phase2	test/STIM_012.jpg	99
1259.344	0.64	640.5	test	Phase2	test/STIM_012.jpg	99
1263.517	0.621	620.6	test	Phase2	test/STIM_013.jpg	99
1266.386	1.11	1109.5	test	Phase2	test/STIM_013.jpg	99
1270.579	0.852	852.1	test	Phase2	test/STIM_013.jpg	100
1273.557	1.228	1228.4	test	Phase2	test/STIM_014.jpg	100
1278.728	1.218	1218.2	test	Phase2	test/STIM_014.jpg	100
1283.119	0.669	669.3	test	Phase2	test/STIM_014.jpg	100
1286.011	0.98	980.4	test	Phase2	test/STIM_015.jpg	100
1289.918	0.73	729.7	test	Phase2	test/STIM_015.jpg	100
1294.611	1.325	1324.7	test	Phase2	test/STIM_015.jpg	99
1299.686	0.643	643.0	test	Phase2	test/STIM_016.jpg	100
1303.055	0.62	620.1	test	Phase2	test/STIM_016.jpg	99
1305.85	0.981	980.6	test	Phase2	test/STIM_016.jpg	99
1309.353	1.23	1229.5	test	Phase2	test/STIM_017.jpg	99
1312.689	0.79	789.6	test	Phase2	test/STIM_017.jpg	100
1316.638	1.03	1029.7	test	Phase2	test/STIM_017.jpg	99
1320.593	0.801	801.0	test	Phase2	test/STIM_018.jpg	99
1324.576	1.235	1235.2	test	Phase2	test/STIM_018.jpg	100
1329.324	0.646	646.4	test	Phase2	test/STIM_018.jpg	99
1332.397	1.265	1264.7	test	Phase2	test/STIM_019.jpg	100
1336.795	0.729	729.0	test	Phase2	test/STIM_019.jpg	99
1340.337	0.641	641.1	test	Phase2	test/STIM_019.jpg	100
1344.526	0.81	809.7	test	Phase2	test/STIM_020.jpg	99
1348.046	1.16	1160.3	test	Phase2	test/STIM_020.jpg	100
1351.365	1.214	1213.7	test	Phase2	test/STIM_020.jpg	100
1354.904	1.135	1134.9	test	Phase2	test/STIM_021.jpg	99
1358.263	0.851	850.9	test	Phase2	test/STIM_021.jpg	99
1361.451	0.853	853.4	test	Phase2	test/STIM_021.jpg	99
1365.001	1.121	1121.1	test	Phase2	test/STIM_022.jpg	100
1369.62	1.068	1068.4	test	Phase2	test/STIM_022.jpg	100
1373.533	1.113	1113.4	test	Phase2	test/STIM_022.jpg	100
1378.362	1.277	1277.2	test	Phase2	test/STIM_023.jpg	99
1383.594	1.037	1037.1	test	Phase2	test/STIM_023.jpg	100
1387.621	0.776	775.6	test	Phase2	test/STIM_023.jpg	99
1391.362	0.822	822.0	test	Phase2	test/STIM_024.jpg	99
1394.973	0.816	815.8	test	Phase2	test/STIM_024.jpg	99
1399.304	0.893	893.4	test	Phase2	test/STIM_024.jpg	99
1403.946	1.147	1147.3	test	Phase2	test/STIM_025.jpg	99
1408.515	0.722	722.3	test	Phase2	test/STIM_025.jpg	100
1412.035	1.079	1079.3	test	Phase2	test/STIM_025.jpg	100
1416.22	1.07	1069.8	test	Phase2	test/STIM_026.jpg	99
1420.455	0.94	940.0	test	Phase2	test/STIM_026.jpg	99
1424.198	0.833	833.3	test	Phase2	test/STIM_026.jpg	100
1428.415	1.01	1009.5	test	Phase2	test/STIM_027.jpg	99
1431.502	1.018	1018.2	test	Phase2	test/STIM_027.jpg	100
1434.589	0.973	973.3	test	Phase2	test/STIM_027.jpg	100
1437.553	0.808	808.3	test	Phase2	test/STIM_028.jpg	99
1440.509	1.044	1044.5	test	Phase2	test/STIM_028.jpg	100
1443.838	0.642	641.8	test	Phase2	test/STIM_028.jpg	100
1447.938	0.738	738.0	test	Phase2	test/STIM_029.jpg	99
1451.754	0.867	866.8	test	Phase2	test/STIM_029.jpg	99
1454.989	0.938	937.5	test	Phase2	test/STIM_029.jpg	100
1458.826	0.854	854.4	study	Phase3	study/STIM_000.jpg	99
1462.977	1.027	1026.9	study	Phase3	study/STIM_000.jpg	99
1467.971	0.975	975.3	study	Phase3	study/STIM_000.jpg	99
1472.486	0.672	672.1	study	Phase3	study/STIM_001.jpg	99
1476.194	1.272	1272.3	study	Phase3	study/STIM_001.jpg	100
1481.041	0.908	908.2	study	Phase3	study/STIM_001.jpg	99
1484.572	1.163	1162.8	study	Phase3	study/STIM_002.jpg	99
1489.256	0.67	669.7	study	Phase3	study/STIM_002.jpg	99
1492.987	0.66	659.7	study	Phase3	study/STIM_002.jpg	99
1495.81	1.255	1254.8	study	Phase3	study/STIM_003.jpg	100
1500.282	0.717	716.9	study	Phase3	study/STIM_003.jpg	100
1503.275	0.953	953.2	study	Phase3	study/STIM_003.jpg	100
1506.248	0.644	644.4	study	Phase3	study/STIM_004.jpg	100
1510.308	1.208	1208.5	study	Phase3	study/STIM_004.jpg	100
1514.544	0.646	645.7	study	Phase3	study/STIM_004.jpg	99
1517.389	0.819	818.8	study	Phase3	study/STIM_005.jpg	99
1520.911	0.806	805.9	study	Phase3	study/STIM_005.jpg	100
1524.045	1.174	1174.2	study	Phase3	study/STIM_005.jpg	100
1528.179	0.646	646.5	study	Phase3	study/STIM_006.jpg	99
1532.455	0.777	777.2	study	Phase3	study/STIM_006.jpg	100
1536.571	1.275	1275.1	study	Phase3	study/STIM_006.jpg	99
1540.226	0.891	891.1	study	Phase3	study/STIM_007.jpg	100
1543.239	1.074	1074.4	study	Phase3	study/STIM_007.jpg	99
1548.241	0.764	763.7	study	Phase3	study/STIM_007.jpg	100
1552.11	0.714	714.0	study	Phase3	study/STIM_008.jpg	99
1556.485	1.149	1148.9	study	Phase3	study/STIM_008.jpg	99
1560.577	0.973	973.2	study	Phase3	study/STIM_008.jpg	100
1564.011	1.158	1158.0	study	Phase3	study/STIM_009.jpg	100
1568.742	1.124	1124.2	study	Phase3	study/STIM_009.jpg	99
1573.301	0.723	723.4	study	Phase3	study/STIM_009.jpg	100
1577.412	1.081	1080.6	study	Phase3	study/STIM_010.jpg	100
1580.836	0.914	913.8	study	Phase3	study/STIM_010.jpg	99
1584.856	1.196	1196.0	study	Phase3	study/STIM_010.jpg	100
1589.62	1.191	1191.4	study	Phase3	study/STIM_011.jpg	99
1594.532	0.727	727.4	study	Phase3	study/STIM_011.jpg	99
1597.595	0.7	699.6	study	Phase3	study/STIM_011.jpg	100
1602.201	0.993	993.0	study	Phase3	study/STIM_012.jpg	100
1607.05	0.632	632.5	study	Phase3	study/STIM_012.jpg	100
1610.252	1.011	1010.7	study	Phase3	study/STIM_012.jpg	99
1614.817	0.616	616.3	study	Phase3	study/STIM_013.jpg	99
1618.185	0.969	968.6	study	Phase3	study/STIM_013.jpg	100
1623.063	1.202	1201.8	study	Phase3	study/STIM_013.jpg	99
1627.505	0.886	885.9	study	Phase3	study/STIM_014.jpg	99
1631.484	0.825	825.2	study	Phase3	study/STIM_014.jpg	99
1634.483	1.269	1269.1	study	Phase3	study/STIM_014.jpg	100
1638.289	1.225	1225.2	study	Phase3	study/STIM_015.jpg	100
1643.112	1.041	1041.1	study	Phase3	study/STIM_015.jpg	100
1647.002	0.895	895.3	study	Phase3	study/STIM_015.jpg	100
1651.401	0.779	779.1	study	Phase3	study/STIM_016.jpg	100
1655.353	1.15	1150.1	study	Phase3	study/STIM_016.jpg	99
1659.884	0.807	807.0	study	Phase3	study/STIM_016.jpg	99
1664.139	0.807	807.4	study	Phase3	study/STIM_017.jpg	100
1667.256	1.274	1274.1	study	Phase3	study/STIM_017.jpg	99
1671.085	1.099	1099.1	study	Phase3	study/STIM_017.jpg	99
1675.47	0.613	613.2	study	Phase3	study/STIM_018.jpg	100
1680.029	0.657	657.0	study	Phase3	study/STIM_018.jpg	100
1682.815	1.048	1048.3	study	Phase3	study/STIM_018.jpg	99
1686.463	0.812	811.8	study	Phase3	study/STIM_019.jpg	100
1691.143	1.217	1217.0	study	Phase3	study/STIM_019.jpg	99
1694.55	0.737	737.3	study	Phase3	study/STIM_019.jpg	99
1699.214	1.002	1002.2	study	Phase3	study/STIM_020.jpg	99
1703.832	0.667	667.3	study	Phase3	study/STIM_020.jpg	100
1708.436	1.261	1261.1	study	Phase3	study/STIM_020.jpg	100
1712.773	0.988	988.0	study	Phase3	study/STIM_021.jpg	99
1716.836	1.032	1032.0	study	Phase3	study/STIM_021.jpg	99
1720.48	0.614	613.7	study	Phase3	study/STIM_021.jpg	100
1724.689	1.112	1112.5	study	Phase3	study/STIM_022.jpg	99
1729.029	0.7	699.6	study	Phase3	study/STIM_022.jpg	100
1732.958	1.178	1178.5	study	Phase3	study/STIM_022.jpg	100
1736.17	1.223	1222.9	study	Phase3	study/STIM_023.jpg	99
1740.281	0.626	626.5	study	Phase3	study/STIM_023.jpg	100
1743.944	1.157	1157.0	study	Phase3	study/STIM_023.jpg	99
1747.221	1.074	1073.9	study	Phase3	study/STIM_024.jpg	100
1750.453	0.855	855.1	study	Phase3	study/STIM_024.jpg	99
1754.951	0.901	901.1	study	Phase3	study/STIM_024.jpg	100
1758.989	1.269	1268.6	study	Phase3	study/STIM_025.jpg	100
1763.932	0.844	844.2	study	Phase3	study/STIM_025.jpg	100
1767.944	0.885	884.8	study	Phase3	study/STIM_025.jpg	100
1771.007	0.882	881.9	study	Phase3	study/STIM_026.jpg	99
1775.123	1.123	1122.8	study	Phase3	study/STIM_026.jpg	99
1778.868	0.955	955.1	study	Phase3	study/STIM_026.jpg	100
1781.896	0.948	947.9	study	Phase3	study/STIM_027.jpg	100
1785.036	0.881	880.9	study	Phase3	study/STIM_027.jpg	100
1788.957	0.592	591.5	study	Phase3	study/STIM_027.jpg	99
1792.001	0.814	814.3	study	Phase3	study/STIM_028.jpg	100
1796.518	0.605	604.7	study	Phase3	study/STIM_028.jpg	100
1799.9	1.012	1012.2	study	Phase3	study/STIM_028.jpg	99
1804.349	1.108	1107.6	study	Phase3	study/STIM_029.jpg	99
1809.259	0.866	866.2	study	Phase3	study/STIM_029.jpg	99
1813.445	1.002	1001.6	study	Phase3	study/STIM_029.jpg	99
1818.348	1.012	1012.1	test	Phase3	test/STIM_000.jpg	100
1822.137	0.761	761.2	test	Phase3	test/STIM_000.jpg	100
1826.288	1.016	1016.4	test	Phase3	test/STIM_000.jpg	100
1830.967	1.065	1065.0	test	Phase3	test/STIM_001.jpg	100
1835.406	1.014	1014.5	test	Phase3	test/STIM_001.jpg	99
1839.869	0.857	856.9	test	Phase3	test/STIM_001.jpg	99
1843.674	1.096	1096.1	test	Phase3	test/STIM_002.jpg	99
1848.049	1.2	1200.5	test	Phase3	test/STIM_002.jpg	99
1852.638	0.66	660.2	test	Phase3	test/STIM_002.jpg	100
1855.351	1.062	1062.1	test	Phase3	test/STIM_003.jpg	99
1859.936	0.793	793.0	test	Phase3	test/STIM_003.jpg	100
1863.948	0.614	613.8	test	Phase3	test/STIM_003.jpg	99
1867.036	0.825	825.0	test	Phase3	test/STIM_004.jpg	100
1871.373	0.801	801.1	test	Phase3	test/STIM_004.jpg	100
1875.241	0.942	941.8	test	Phase3	test/STIM_004.jpg	99
1878.692	0.677	677.0	test	Phase3	test/STIM_005.jpg	99
1881.725	0.906	906.5	test	Phase3	test/STIM_005.jpg	100
1886.376	0.845	845.1	test	Phase3	test/STIM_005.jpg	100
1891.103	1.282	1282.5	test	Phase3	test/STIM_006.jpg	99
1896.328	1.08	1079.5	test	Phase3	test/STIM_006.jpg	100
1901.164	0.946	945.9	test	Phase3	test/STIM_006.jpg	99
1905.675	1.057	1057.0	test	Phase3	test/STIM_007.jpg	100
1910.366	0.84	839.9	test	Phase3	test/STIM_007.jpg	99
1914.658	1.02	1020.5	test	Phase3	test/STIM_007.jpg	100
1918.023	0.719	719.4	test	Phase3	test/STIM_008.jpg	100
1920.9	0.76	759.7	test	Phase3	test/STIM_008.jpg	100
1923.912	0.789	788.6	test	Phase3	test/STIM_008.jpg	99
1928.08	0.83	830.4	test	Phase3	test/STIM_009.jpg	99
1931.395	1.032	1031.8	test	Phase3	test/STIM_009.jpg	100
1935.912	0.877	876.6	test	Phase3	test/STIM_009.jpg	100
1939.987	1.143	1143.2	test	Phase3	test/STIM_010.jpg	100
1944.542	0.913	912.6	test	Phase3	test/STIM_010.jpg	100
1948.607	0.752	751.5	test	Phase3	test/STIM_010.jpg	99
1953.018	1.299	1299.1	test	Phase3	test/STIM_011.jpg	99
1957.644	1.228	1227.6	test	Phase3	test/STIM_011.jpg	99
1962.673	0.805	804.9	test	Phase3	test/STIM_011.jpg	100
1965.938	1.03	1029.9	test	Phase3	test/STIM_012.jpg	100
1968.95	1.068	1067.7	test	Phase3	test/STIM_012.jpg	99
1973.686	0.795	795.3	test	Phase3	test/STIM_012.jpg	99
1976.622	0.996	995.7	test	Phase3	test/STIM_013.jpg	100
1980.278	0.938	937.9	test	Phase3	test/STIM_013.jpg	100
1983.409	0.985	985.0	test	Phase3	test/STIM_013.jpg	100
1986.8	0.795	794.6	test	Phase3	test/STIM_014.jpg	99
1990.569	1.233	1233.3	test	Phase3	test/STIM_014.jpg	99
1994.952	0.812	812.3	test	Phase3	test/STIM_014.jpg	100
1999.335	1.181	1180.8	test	Phase3	test/STIM_015.jpg	100
2004.001	1.22	1219.8	test	Phase3	test/STIM_015.jpg	100
2008.7	1.165	1165.2	test	Phase3	test/STIM_015.jpg	100
2013.471	1.177	1176.7	test	Phase3	test/STIM_016.jpg	100
2018.468	0.989	989.4	test	Phase3	test/STIM_016.jpg	99
2021.477	1.281	1281.3	test	Phase3	test/STIM_016.jpg	100
2025.49	0.947	946.7	test	Phase3	test/STIM_017.jpg	100
2029.599	1.171	1171.2	test	Phase3	test/STIM_017.jpg	99
2034.235	1.091	1090.9	test	Phase3	test/STIM_017.jpg	99
2037.956	1.234	1234.1	test	Phase3	test/STIM_018.jpg	100
2041.916	1.069	1069.1	test	Phase3	test/STIM_018.jpg	100
2045.981	1.127	1127.1	test	Phase3	test/STIM_018.jpg	99
2049.525	0.7	700.0	test	Phase3	test/STIM_019.jpg	99
2052.254	1.006	1005.9	test	Phase3	test/STIM_019.jpg	99
2056.973	1.313	1312.7	test	Phase3	test/STIM_019.jpg	100
2061.16	0.86	859.9	test	Phase3	test/STIM_020.jpg	99
2065.22	0.856	856.5	test	Phase3	test/STIM_020.jpg	100
2069.35	1.007	1007.1	test	Phase3	test/STIM_020.jpg	99
2074.221	1.168	1167.7	test	Phase3	test/STIM_021.jpg	100
2078.885	0.932	932.5	test	Phase3	test/STIM_021.jpg	99
2083.573	0.79	789.9	test	Phase3	test/STIM_021.jpg	99
2087.213	0.648	648.3	test	Phase3	test/STIM_022.jpg	100
2091.349	0.858	857.9	test	Phase3	test/STIM_022.jpg	100
2095.371	0.664	664.0	test	Phase3	test/STIM_022.jpg	99
2099.076	1.057	1056.9	test	Phase3	test/STIM_023.jpg	99
2103.464	0.68	679.5	test	Phase3	test/STIM_023.jpg	99
2107.351	1.122	1121.5	test	Phase3	test/STIM_023.jpg	100
2110.894	1.201	1200.9	test	Phase3	test/STIM_024.jpg	99
2115.223	1.005	1005.0	test	Phase3	test/STIM_024.jpg	99
2118.348	0.827	827.3	test	Phase3	test/STIM_024.jpg	99
2122.12	1.255	1255.1	test	Phase3	test/STIM_025.jpg	100
2126.917	0.816	816.5	test	Phase3	test/STIM_025.jpg	100
2130.557	0.865	865.0	test	Phase3	test/STIM_025.jpg	99
2134.431	0.852	852.1	test	Phase3	test/STIM_026.jpg	100
2137.6	1.162	1162.5	test	Phase3	test/STIM_026.jpg	99
2141.079	1.018	1017.7	test	Phase3	test/STIM_026.jpg	99
2144.659	0.932	931.7	test	Phase3	test/STIM_027.jpg	100
2147.661	1.169	1168.9	test	Phase3	test/STIM_027.jpg	100
2152.327	1.058	1057.7	test	Phase3	test/STIM_027.jpg	100
2156.813	0.78	780.1	test	Phase3	test/STIM_028.jpg	100
2159.701	0.892	892.0	test	Phase3	test/STIM_028.jpg	99
2163.416	0.618	618.5	test	Phase3	test/STIM_028.jpg	100
2167.887	1.179	1179.1	test	Phase3	test/STIM_029.jpg	100
2172.481	1.088	1088.4	test	Phase3	test/STIM_029.jpg	100
2176.291	1.263	1263.4	test	Phase3	test/STIM_029.jpg	100
