onset	duration	accuracy_binary	trial_type	learning_stage	stimulus
0.0	1.55	1	study	Phase1	study/STIM_000.jpg
4.495	1.663	0	study	Phase1	study/STIM_000.jpg
8.946	1.294	1	study	Phase1	study/STIM_000.jpg
12.494	1.495	0	study	Phase1	study/STIM_001.jpg
16.835	1.006	1	study	Phase1	study/STIM_001.jpg
20.332	1.038	1	study	Phase1	study/STIM_001.jpg
24.551	0.872	1	study	Phase1	study/STIM_002.jpg
28.677	1.186	1	study	Phase1	study/STIM_002.jpg
33.386	1.122	0	study	Phase1	study/STIM_002.jpg
38.338	0.838	1	study	Phase1	study/STIM_003.jpg
41.776	0.911	1	study	Phase1	study/STIM_003.jpg
45.537	0.746	0	study	Phase1	study/STIM_003.jpg
48.476	0.824	1	study	Phase1	study/STIM_004.jpg
51.968	1.606	1	study	Phase1	study/STIM_004.jpg
57.425	0.777	1	study	Phase1	study/STIM_004.jpg
60.698	1.584	1	study	Phase1	study/STIM_005.jpg
66.187	0.784	1	study	Phase1	study/STIM_005.jpg
69.9	1.364	1	study	Phase1	study/STIM_005.jpg
74.12	1.517	1	study	Phase1	study/STIM_006.jpg
78.779	1.38	1	study	Phase1	study/STIM_006.jpg
83.041	1.39	0	study	Phase1	study/STIM_006.jpg
88.178	1.591	0	study	Phase1	study/STIM_007.jpg
92.029	0.966	0	study	Phase1	study/STIM_007.jpg
96.961	0.908	1	study	Phase1	study/STIM_007.jpg
100.419	0.818	0	study	Phase1	study/STIM_008.jpg
103.434	1.105	1	study	Phase1	study/STIM_008.jpg
107.935	1.321	1	study	Phase1	study/STIM_008.jpg
112.879	1.664	0	study	Phase1	study/STIM_009.jpg
116.74	1.554	1	study	Phase1	study/STIM_009.jpg
121.089	1.004	1	study	Phase1	study/STIM_009.jpg
125.289	0.885	0	study	Phase1	study/STIM_010.jpg
129.054	0.742	0	study	Phase1	study/STIM_010.jpg
132.828	0.762	0	study	Phase1	study/STIM_010.jpg
137.577	1.628	0	study	Phase1	study/STIM_011.jpg
142.365	1.091	0	study	Phase1	study/STIM_011.jpg
146.398	0.743	1	study	Phase1	study/STIM_011.jpg
149.392	1.255	1	study	Phase1	study/STIM_012.jpg
154.639	1.614	1	study	Phase1	study/STIM_012.jpg
158.283	1.341	1	study	Phase1	study/STIM_012.jpg
163.355	1.572	1	study	Phase1	study/STIM_013.jpg
167.873	0.986	0	study	Phase1	study/STIM_013.jpg
172.821	1.48	0	study	Phase1	study/STIM_013.jpg
176.852	0.885	1	study	Phase1	study/STIM_014.jpg
181.552	1.251	0	study	Phase1	study/STIM_014.jpg
186.298	0.88	1	study	Phase1	study/STIM_014.jpg
190.232	0.869	0	study	Phase1	study/STIM_015.jpg
194.304	1.067	1	study	Phase1	study/STIM_015.jpg
199.135	1.378	1	study	Phase1	study/STIM_015.jpg
203.537	1.027	1	study	Phase1	study/STIM_016.jpg
207.15	1.604	0	study	Phase1	study/STIM_016.jpg
211.066	1.422	0	study	Phase1	study/STIM_016.jpg
216.439	1.23	0	study	Phase1	study/STIM_017.jpg
220.705	0.804	1	study	Phase1	study/STIM_017.jpg
223.754	0.961	1	study	Phase1	study/STIM_017.jpg
228.171	1.476	1	study	Phase1	study/STIM_018.jpg
232.268	1.608	0	study	Phase1	study/STIM_018.jpg
236.867	1.287	0	study	Phase1	study/STIM_018.jpg
240.498	1.511	1	study	Phase1	study/STIM_019.jpg
246.004	1.584	1	study	Phase1	study/STIM_019.jpg
251.013	1.53	1	study	Phase1	study/STIM_019.jpg
256.197	1.526	0	study	Phase1	study/STIM_020.jpg
261.385	0.974	1	study	Phase1	study/STIM_020.jpg
265.17	1.004	1	study	Phase1	study/STIM_020.jpg
269.885	1.528	0	study	Phase1	study/STIM_021.jpg
274.742	1.651	1	study	Phase1	study/STIM_021.jpg
279.495	1.169	1	study	Phase1	study/STIM_021.jpg
283.367	1.74	0	study	Phase1	study/STIM_022.jpg
287.325	0.917	1	study	Phase1	study/STIM_022.jpg
291.542	1.154	0	study	Phase1	study/STIM_022.jpg
295.82	1.596	1	study	Phase1	study/STIM_023.jpg
300.868	1.621	1	study	Phase1	study/STIM_023.jpg
304.505	0.956	0	study	Phase1	study/STIM_023.jpg
308.556	1.66	1	study	Phase1	study/STIM_024.jpg
312.681	1.221	1	study	Phase1	study/STIM_024.jpg
317.877	0.729	1	study	Phase1	study/STIM_024.jpg
322.582	1.731	0	study	Phase1	study/STIM_025.jpg
326.313	1.283	0	study	Phase1	study/STIM_025.jpg
330.244	1.52	1	study	Phase1	study/STIM_025.jpg
334.985	1.482	0	study	Phase1	study/STIM_026.jpg
339.172	1.175	1	study	Phase1	study/STIM_026.jpg
342.548	1.255	0	study	Phase1	study/STIM_026.jpg
346.919	1.691	1	study	Phase1	study/STIM_027.jpg
351.879	1.295	1	study	Phase1	study/STIM_027.jpg
355.445	1.485	0	study	Phase1	study/STIM_027.jpg
360.211	1.379	0	study	Phase1	study/STIM_028.jpg
363.671	0.869	0	study	Phase1	study/STIM_028.jpg
368.304	1.451	1	study	Phase1	study/STIM_028.jpg
372.334	1.645	1	study	Phase1	study/STIM_029.jpg
377.971	0.978	1	study	Phase1	study/STIM_029.jpg
381.783	0.821	0	study	Phase1	study/STIM_029.jpg
385.954	0.814	1	test	Phase1	test/STIM_000.jpg
389.179	0.89	0	test	Phase1	test/STIM_000.jpg
392.895	0.719	1	test	Phase1	test/STIM_000.jpg
397.0	1.242	1	test	Phase1	test/STIM_001.jpg
400.565	0.77	1	test	Phase1	test/STIM_001.jpg
403.607	0.755	0	test	Phase1	test/STIM_001.jpg
406.789	0.742	0	test	Phase1	test/STIM_002.jpg
409.782	0.774	1	test	Phase1	test/STIM_002.jpg
413.029	0.702	0	test	Phase1	test/STIM_002.jpg
416.73	1.158	1	test	Phase1	test/STIM_003.jpg
420.973	1.028	0	test	Phase1	test/STIM_003.jpg
425.756	1.175	1	test	Phase1	test/STIM_003.jpg
429.653	1.042	0	test	Phase1	test/STIM_004.jpg
434.304	0.705	1	test	Phase1	test/STIM_004.jpg
438.536	0.906	1	test	Phase1	test/STIM_004.jpg
442.66	0.655	1	test	Phase1	test/STIM_005.jpg
447.041	0.904	1	test	Phase1	test/STIM_005.jpg
451.265	0.714	1	test	Phase1	test/STIM_005.jpg
454.02	1.207	0	test	Phase1	test/STIM_006.jpg
457.398	0.902	1	test	Phase1	test/STIM_006.jpg
460.47	0.918	1	test	Phase1	test/STIM_006.jpg
464.548	1.032	1	test	Phase1	test/STIM_007.jpg
468.446	1.023	1	test	Phase1	test/STIM_007.jpg
472.352	0.852	1	test	Phase1	test/STIM_007.jpg
475.682	0.638	1	test	Phase1	test/STIM_008.jpg
479.394	0.814	1	test	Phase1	test/STIM_008.jpg
483.321	1.19	1	test	Phase1	test/STIM_008.jpg
486.892	1.249	0	test	Phase1	test/STIM_009.jpg
491.083	0.75	1	test	Phase1	test/STIM_009.jpg
495.445	0.632	0	test	Phase1	test/STIM_009.jpg
499.357	0.709	0	test	Phase1	test/STIM_010.jpg
503.477	0.823	1	test	Phase1	test/STIM_010.jpg
507.965	0.941	1	test	Phase1	test/STIM_010.jpg
511.732	0.686	0	test	Phase1	test/STIM_011.jpg
515.481	0.814	1	test	Phase1	test/STIM_011.jpg
519.536	0.743	1	test	Phase1	test/STIM_011.jpg
522.421	0.997	1	test	Phase1	test/STIM_012.jpg
526.055	1.148	0	test	Phase1	test/STIM_012.jpg
530.722	0.867	0	test	Phase1	test/STIM_012.jpg
534.278	0.946	1	test	Phase1	test/STIM_013.jpg
537.391	0.658	1	test	Phase1	test/STIM_013.jpg
541.992	1.11	0	test	Phase1	test/STIM_013.jpg
546.115	0.76	0	test	Phase1	test/STIM_014.jpg
549.737	0.609	1	test	Phase1	test/STIM_014.jpg
553.306	1.038	1	test	Phase1	test/STIM_014.jpg
558.068	0.835	0	test	Phase1	test/STIM_015.jpg
562.046	0.723	1	test	Phase1	test/STIM_015.jpg
566.14	0.865	1	test	Phase1	test/STIM_015.jpg
570.236	0.689	1	test	Phase1	test/STIM_016.jpg
574.455	1.023	1	test	Phase1	test/STIM_016.jpg
578.978	0.626	0	test	Phase1	test/STIM_016.jpg
582.904	0.747	1	test	Phase1	test/STIM_017.jpg
587.235	0.978	1	test	Phase1	test/STIM_017.jpg
591.505	0.682	0	test	Phase1	test/STIM_017.jpg
595.582	0.935	0	test	Phase1	test/STIM_018.jpg
600.112	0.932	1	test	Phase1	test/STIM_018.jpg
604.881	1.108	0	test	Phase1	test/STIM_018.jpg
608.863	1.239	1	test	Phase1	test/STIM_019.jpg
613.172	1.03	0	test	Phase1	test/STIM_019.jpg
616.593	0.771	1	test	Phase1	test/STIM_019.jpg
620.843	0.68	0	test	Phase1	test/STIM_020.jpg
624.57	0.846	1	test	Phase1	test/STIM_020.jpg
628.443	0.801	0	test	Phase1	test/STIM_020.jpg
632.721	1.011	1	test	Phase1	test/STIM_021.jpg
637.158	1.14	1	test	Phase1	test/STIM_021.jpg
642.289	0.909	1	test	Phase1	test/STIM_021.jpg
646.553	0.97	1	test	Phase1	test/STIM_022.jpg
649.958	0.872	1	test	Phase1	test/STIM_022.jpg
653.194	1.07	0	test	Phase1	test/STIM_022.jpg
658.044	1.016	0	test	Phase1	test/STIM_023.jpg
661.722	0.67	1	test	Phase1	test/STIM_023.jpg
665.817	0.814	0	test	Phase1	test/STIM_023.jpg
669.283	0.71	0	test	Phase1	test/STIM_024.jpg
673.432	0.924	1	test	Phase1	test/STIM_024.jpg
676.717	0.892	0	test	Phase1	test/STIM_024.jpg
679.745	0.838	0	test	Phase1	test/STIM_025.jpg
683.317	0.912	1	test	Phase1	test/STIM_025.jpg
686.966	0.657	1	test	Phase1	test/STIM_025.jpg
690.677	0.704	1	test	Phase1	test/STIM_026.jpg
695.049	0.822	0	test	Phase1	test/STIM_026.jpg
698.937	0.693	0	test	Phase1	test/STIM_026.jpg
702.989	0.642	1	test	Phase1	test/STIM_027.jpg
705.641	0.8	1	test	Phase1	test/STIM_027.jpg
709.702	0.72	1	test	Phase1	test/STIM_027.jpg
713.053	1.147	1	test	Phase1	test/STIM_028.jpg
717.03	0.904	1	test	Phase1	test/STIM_028.jpg
720.895	0.647	1	test	Phase1	test/STIM_028.jpg
723.917	0.931	1	test	Phase1	test/STIM_029.jpg
727.415	0.998	0	test	Phase1	test/STIM_029.jpg
731.829	0.851	1	test	Phase1	test/STIM_029.jpg
736.61	1.324	1	study	Phase2	study/STIM_000.jpg
740.344	1.208	1	study	Phase2	study/STIM_000.jpg
745.003	0.858	0	study	Phase2	study/STIM_000.jpg
749.778	0.836	1	study	Phase2	study/STIM_001.jpg
753.964	0.86	1	study	Phase2	study/STIM_001.jpg
757.11	1.257	1	study	Phase2	study/STIM_001.jpg
761.832	1.366	0	study	Phase2	study/STIM_002.jpg
765.965	0.881	1	study	Phase2	study/STIM_002.jpg
769.213	0.996	1	study	Phase2	study/STIM_002.jpg
772.473	0.771	0	study	Phase2	study/STIM_003.jpg
776.767	0.881	1	study	Phase2	study/STIM_003.jpg
781.204	0.689	0	study	Phase2	study/STIM_003.jpg
785.383	1.137	1	study	Phase2	study/STIM_004.jpg
788.835	0.764	0	study	Phase2	study/STIM_004.jpg
791.646	1.219	0	study	Phase2	study/STIM_004.jpg
795.699	0.876	1	study	Phase2	study/STIM_005.jpg
799.86	0.974	1	study	Phase2	study/STIM_005.jpg
803.595	0.924	1	study	Phase2	study/STIM_005.jpg
807.34	0.923	1	study	Phase2	study/STIM_006.jpg
810.338	0.759	1	study	Phase2	study/STIM_006.jpg
814.878	1.031	1	study	Phase2	study/STIM_006.jpg
818.588	0.995	1	study	Phase2	study/STIM_007.jpg
822.739	1.035	1	study	Phase2	study/STIM_007.jpg
826.942	1.144	1	study	Phase2	study/STIM_007.jpg
832.0	1.447	1	study	Phase2	study/STIM_008.jpg
835.519	0.632	1	study	Phase2	study/STIM_008.jpg
838.3	0.857	1	study	Phase2	study/STIM_008.jpg
842.407	0.82	1	study	Phase2	study/STIM_009.jpg
845.433	1.268	1	study	Phase2	study/STIM_009.jpg
849.474	1.25	0	study	Phase2	study/STIM_009.jpg
854.352	1.114	0	study	Phase2	study/STIM_010.jpg
857.635	0.757	1	study	Phase2	study/STIM_010.jpg
861.605	0.758	1	study	Phase2	study/STIM_010.jpg
864.578	0.744	1	study	Phase2	study/STIM_011.jpg
868.238	0.905	1	study	Phase2	study/STIM_011.jpg
871.941	0.83	1	study	Phase2	study/STIM_011.jpg
875.901	1.125	0	study	Phase2	study/STIM_012.jpg
880.334	1.238	1	study	Phase2	study/STIM_012.jpg
885.311	0.786	1	study	Phase2	study/STIM_012.jpg
889.492	0.818	1	study	Phase2	study/STIM_013.jpg
892.504	1.222	1	study	Phase2	study/STIM_013.jpg
896.305	0.679	1	study	Phase2	study/STIM_013.jpg
899.99	0.832	0	study	Phase2	study/STIM_014.jpg
904.324	1.031	0	study	Phase2	study/STIM_014.jpg
908.527	1.266	0	study	Phase2	study/STIM_014.jpg
912.327	0.898	1	study	Phase2	study/STIM_015.jpg
916.528	0.784	1	study	Phase2	study/STIM_015.jpg
921.168	1.137	1	study	Phase2	study/STIM_015.jpg
925.964	0.995	1	study	Phase2	study/STIM_016.jpg
930.218	0.898	0	study	Phase2	study/STIM_016.jpg
933.968	1.268	1	study	Phase2	study/STIM_016.jpg
937.622	1.166	1	study	Phase2	study/STIM_017.jpg
942.624	1.059	0	study	Phase2	study/STIM_017.jpg
946.408	1.256	1	study	Phase2	study/STIM_017.jpg
951.117	0.885	0	study	Phase2	study/STIM_018.jpg
955.159	1.274	1	study	Phase2	study/STIM_018.jpg
960.126	0.989	1	study	Phase2	study/STIM_018.jpg
964.763	0.679	1	study	Phase2	study/STIM_019.jpg
968.505	1.365	1	study	Phase2	study/STIM_019.jpg
972.174	0.705	1	study	Phase2	study/STIM_019.jpg
975.407	1.026	1	study	Phase2	study/STIM_020.jpg
979.306	0.667	1	study	Phase2	study/STIM_020.jpg
982.824	1.206	0	study	Phase2	study/STIM_020.jpg
987.65	0.806	0	study	Phase2	study/STIM_021.jpg
991.78	1.332	1	study	Phase2	study/STIM_021.jpg
995.33	1.216	0	study	Phase2	study/STIM_021.jpg
999.011	1.065	1	study	Phase2	study/STIM_022.jpg
1002.669	0.924	1	study	Phase2	study/STIM_022.jpg
1006.493	0.865	1	study	Phase2	study/STIM_022.jpg
1011.196	0.746	1	study	Phase2	study/STIM_023.jpg
1015.805	1.158	1	study	Phase2	study/STIM_023.jpg
1019.633	1.191	1	study	Phase2	study/STIM_023.jpg
1023.471	1.246	0	study	Phase2	study/STIM_024.jpg
1027.095	0.759	0	study	Phase2	study/STIM_024.jpg
1031.277	0.972	1	study	Phase2	study/STIM_024.jpg
1034.609	1.018	1	study	Phase2	study/STIM_025.jpg
1039.337	1.138	1	study	Phase2	study/STIM_025.jpg
1044.261	0.69	1	study	Phase2	study/STIM_025.jpg
1047.216	1.048	1	study	Phase2	study/STIM_026.jpg
1050.575	1.309	0	study	Phase2	study/STIM_026.jpg
1055.382	0.617	1	study	Phase2	study/STIM_026.jpg
1059.241	1.356	1	study	Phase2	study/STIM_027.jpg
1063.974	0.78	1	study	Phase2	study/STIM_027.jpg
1068.517	0.667	1	study	Phase2	study/STIM_027.jpg
1072.251	1.011	0	study	Phase2	study/STIM_028.jpg
1077.153	1.294	1	study	Phase2	study/STIM_028.jpg
1081.26	0.662	1	study	Phase2	study/STIM_028.jpg
1084.214	1.089	0	study	Phase2	study/STIM_029.jpg
1088.324	0.861	1	study	Phase2	study/STIM_029.jpg
1093.122	0.884	1	study	Phase2	study/STIM_029.jpg
1097.332	0.841	0	test	Phase2	test/STIM_000.jpg
1100.352	0.666	1	test	Phase2	test/STIM_000.jpg
1104.535	0.906	0	test	Phase2	test/STIM_000.jpg
1108.06	0.815	1	test	Phase2	test/STIM_001.jpg
1112.576	0.629	1	test	Phase2	test/STIM_001.jpg
1116.7	0.587	1	test	Phase2	test/STIM_001.jpg
1120.7	0.634	1	test	Phase2	test/STIM_002.jpg
1124.309	1.029	1	test	Phase2	test/STIM_002.jpg
1129.1	0.863	1	test	Phase2	test/STIM_002.jpg
1132.478	1.107	1	test	Phase2	test/STIM_003.jpg
1135.729	0.595	1	test	Phase2	test/STIM_003.jpg
1139.097	0.773	1	test	Phase2	test/STIM_003.jpg
1142.563	1.247	1	test	Phase2	test/STIM_004.jpg
1146.472	1.241	1	test	Phase2	test/STIM_004.jpg
1151.423	0.729	1	test	Phase2	test/STIM_004.jpg
1154.859	0.718	1	test	Phase2	test/STIM_005.jpg
1158.005	1.261	1	test	Phase2	test/STIM_005.jpg
1161.286	1.178	1	test	Phase2	test/STIM_005.jpg
1165.307	0.64	1	test	Phase2	test/STIM_006.jpg
1168.735	0.914	1	test	Phase2	test/STIM_006.jpg
1172.929	1.239	1	test	Phase2	test/STIM_006.jpg
1176.847	0.809	1	test	Phase2	test/STIM_007.jpg
1180.175	0.841	0	test	Phase2	test/STIM_007.jpg
1184.735	1.012	1	test	Phase2	test/STIM_007.jpg
1188.602	1.018	1	test	Phase2	test/STIM_008.jpg
1193.095	0.608	1	test	Phase2	test/STIM_008.jpg
1197.144	0.652	1	test	Phase2	test/STIM_008.jpg
1201.371	0.966	1	test	Phase2	test/STIM_009.jpg
1204.706	0.605	1	test	Phase2	test/STIM_009.jpg
1208.217	0.941	0	test	Phase2	test/STIM_009.jpg
1212.59	1.26	1	test	Phase2	test/STIM_010.jpg
1216.11	0.642	0	test	Phase2	test/STIM_010.jpg
1219.286	1.05	0	test	Phase2	test/STIM_010.jpg
1222.543	0.898	1	test	Phase2	test/STIM_011.jpg
1227.099	1.155	0	test	Phase2	test/STIM_011.jpg
1231.879	0.969	1	test	Phase2	test/STIM_011.jpg
1235.038	1.089	1	test	Phase2	test/STIM_012.jpg
1238.682	0.649	0	test	Phase2	test/STIM_012.jpg
1242.621	1.192	1	test	Phase2	test/STIM_012.jpg
1247.735	1.103	0	test	Phase2	test/STIM_013.jpg
1251.934	0.897	0	test	Phase2	test/STIM_013.jpg
1255.974	1.063	1	test	Phase2	test/STIM_013.jpg
1260.531	0.682	1	test	Phase2	test/STIM_014.jpg
1264.251	0.981	1	test	Phase2	test/STIM_014.jpg
1268.263	0.949	1	test	Phase2	test/STIM_014.jpg
1272.635	0.728	0	test	Phase2	test/STIM_015.jpg
1275.984	0.91	1	test	Phase2	test/STIM_015.jpg
1280.507	1.117	1	test	Phase2	test/STIM_015.jpg
1283.72	0.997	1	test	Phase2	test/STIM_016.jpg
1288.536	0.823	1	test	Phase2	test/STIM_016.jpg
1292.41	1.127	0	test	Phase2	test/STIM_016.jpg
1297.421	0.952	1	test	Phase2	test/STIM_017.jpg
1301.425	1.111	0	test	Phase2	test/STIM_017.jpg
1306.134	0.942	0	test	Phase2	test/STIM_017.jpg
1309.299	1.09	1	test	Phase2	test/STIM_018.jpg
1312.774	0.671	1	test	Phase2	test/STIM_018.jpg
1316.768	0.769	0	test	Phase2	test/STIM_018.jpg
1320.177	0.925	0	test	Phase2	test/STIM_019.jpg
1323.836	0.922	0	test	Phase2	test/STIM_019.jpg
1328.403	0.605	1	test	Phase2	test/STIM_019.jpg
1331.495	1.076	0	test	Phase2	test/STIM_020.jpg
1335.161	1.004	1	test	Phase2	test/STIM_020.jpg
1339.064	0.902	1	test	Phase2	test/STIM_020.jpg
1343.815	1.162	1	test	Phase2	test/STIM_021.jpg
1348.506	0.798	0	test	Phase2	test/STIM_021.jpg
1352.338	0.898	0	test	Phase2	test/STIM_021.jpg
1357.167	1.155	1	test	Phase2	test/STIM_022.jpg
1360.932	0.782	1	test	Phase2	test/STIM_022.jpg
1365.406	1.222	1	test	Phase2	test/STIM_022.jpg
1369.843	1.078	1	test	Phase2	test/STIM_023.jpg
1373.736	0.712	0	test	Phase2	test/STIM_023.jpg
1378.175	1.183	0	test	Phase2	test/STIM_023.jpg
1382.052	1.035	1	test	Phase2	test/STIM_024.jpg
1386.339	0.866	1	test	Phase2	test/STIM_024.jpg
1390.875	1.186	1	test	Phase2	test/STIM_024.jpg
1394.849	1.17	1	test	Phase2	test/STIM_025.jpg
1398.096	1.018	0	test	Phase2	test/STIM_025.jpg
1401.664	1.246	1	test	Phase2	test/STIM_025.jpg
1406.801	0.693	1	test	Phase2	test/STIM_026.jpg
1410.329	1.083	1	test	Phase2	test/STIM_026.jpg
1415.384	1.095	1	test	Phase2	test/STIM_026.jpg
1418.692	0.909	1	test	Phase2	test/STIM_027.jpg
1422.141	0.684	0	test	Phase2	test/STIM_027.jpg
1426.685	0.916	1	test	Phase2	test/STIM_027.jpg
1430.902	1.223	0	test	Phase2	test/STIM_028.jpg
1434.432	0.675	0	test	Phase2	test/STIM_028.jpg
1437.711	0.741	0	test	Phase2	test/STIM_028.jpg
1441.106	0.861	1	test	Phase2	test/STIM_029.jpg
1444.278	0.849	1	test	Phase2	test/STIM_029.jpg
1448.226	1.086	0	test	Phase2	test/STIM_029.jpg
1452.343	1.128	1	study	Phase3	study/STIM_000.jpg
1455.785	0.713	0	study	Phase3	study/STIM_000.jpg
1460.447	0.802	0	study	Phase3	study/STIM_000.jpg
1464.987	0.682	1	study	Phase3	study/STIM_001.jpg
1467.737	0.558	1	study	Phase3	study/STIM_001.jpg
1471.609	0.642	1	study	Phase3	study/STIM_001.jpg
1474.509	0.909	1	study	Phase3	study/STIM_002.jpg
1478.922	1.094	1	study	Phase3	study/STIM_002.jpg
1482.401	1.154	1	study	Phase3	study/STIM_002.jpg
1486.509	0.66	1	study	Phase3	study/STIM_003.jpg
1491.015	0.547	1	study	Phase3	study/STIM_003.jpg
1495.306	0.839	1	study	Phase3	study/STIM_003.jpg
1498.904	0.565	1	study	Phase3	study/STIM_004.jpg
1502.382	0.908	0	study	Phase3	study/STIM_004.jpg
1506.858	1.087	1	study	Phase3	study/STIM_004.jpg
1511.754	0.624	1	study	Phase3	study/STIM_005.jpg
1515.495	0.703	1	study	Phase3	study/STIM_005.jpg
1518.8	1.129	1	study	Phase3	study/STIM_005.jpg
1523.22	0.607	1	study	Phase3	study/STIM_006.jpg
1526.438	0.959	1	study	Phase3	study/STIM_006.jpg
1529.663	0.99	1	study	Phase3	study/STIM_006.jpg
1532.856	1.038	1	study	Phase3	study/STIM_007.jpg
1536.782	0.715	1	study	Phase3	study/STIM_007.jpg
1539.651	1.06	1	study	Phase3	study/STIM_007.jpg
1544.387	0.997	1	study	Phase3	study/STIM_008.jpg
1549.117	0.672	1	study	Phase3	study/STIM_008.jpg
1552.063	0.806	1	study	Phase3	study/STIM_008.jpg
1555.191	1.112	1	study	Phase3	study/STIM_009.jpg
1558.335	1.19	1	study	Phase3	study/STIM_009.jpg
1563.374	0.888	1	study	Phase3	study/STIM_009.jpg
1567.044	0.964	1	study	Phase3	study/STIM_010.jpg
1571.424	1.088	1	study	Phase3	study/STIM_010.jpg
1575.322	1.198	0	study	Phase3	study/STIM_010.jpg
1579.213	0.57	1	study	Phase3	study/STIM_011.jpg
1582.525	0.614	1	study	Phase3	study/STIM_011.jpg
1586.289	0.751	0	study	Phase3	study/STIM_011.jpg
1590.76	0.944	1	study	Phase3	study/STIM_012.jpg
1595.434	0.718	1	study	Phase3	study/STIM_012.jpg
1599.942	0.668	1	study	Phase3	study/STIM_012.jpg
1604.216	0.757	0	study	Phase3	study/STIM_013.jpg
1607.137	0.62	1	study	Phase3	study/STIM_013.jpg
1610.566	0.568	0	study	Phase3	study/STIM_013.jpg
1613.549	0.706	1	study	Phase3	study/STIM_014.jpg
1617.779	0.546	0	study	Phase3	study/STIM_014.jpg
1620.498	0.922	1	study	Phase3	study/STIM_014.jpg
1623.477	0.86	1	study	Phase3	study/STIM_015.jpg
1626.832	1.067	1	study	Phase3	study/STIM_015.jpg
1631.398	0.94	1	study	Phase3	study/STIM_015.jpg
1635.432	0.672	1	study	Phase3	study/STIM_016.jpg
1639.67	1.208	1	study	Phase3	study/STIM_016.jpg
1644.061	0.881	0	study	Phase3	study/STIM_016.jpg
1648.902	0.908	1	study	Phase3	study/STIM_017.jpg
1652.505	0.749	1	study	Phase3	study/STIM_017.jpg
1655.331	0.74	1	study	Phase3	study/STIM_017.jpg
1658.985	0.86	0	study	Phase3	study/STIM_018.jpg
1662.85	0.861	0	study	Phase3	study/STIM_018.jpg
1667.416	0.607	1	study	Phase3	study/STIM_018.jpg
1670.975	0.672	1	study	Phase3	study/STIM_019.jpg
1673.678	0.659	1	study	Phase3	study/STIM_019.jpg
1677.446	0.634	1	study	Phase3	study/STIM_019.jpg
1681.768	0.936	1	study	Phase3	study/STIM_020.jpg
1684.947	0.556	0	study	Phase3	study/STIM_020.jpg
1688.76	0.87	0	study	Phase3	study/STIM_020.jpg
1692.044	1.101	1	study	Phase3	study/STIM_021.jpg
1697.071	1.227	1	study	Phase3	study/STIM_021.jpg
1700.814	0.703	1	study	Phase3	study/STIM_021.jpg
1705.491	0.774	1	study	Phase3	study/STIM_022.jpg
1710.183	1.104	1	study	Phase3	study/STIM_022.jpg
1713.625	0.665	1	study	Phase3	study/STIM_022.jpg
1718.193	1.162	0	study	Phase3	study/STIM_023.jpg
1721.931	0.947	1	study	Phase3	study/STIM_023.jpg
1725.116	0.797	1	study	Phase3	study/STIM_023.jpg
1729.816	0.927	0	study	Phase3	study/STIM_024.jpg
1733.187	1.051	0	study	Phase3	study/STIM_024.jpg
1736.68	0.549	1	study	Phase3	study/STIM_024.jpg
1740.93	1.215	1	study	Phase3	study/STIM_025.jpg
1745.635	0.724	0	study	Phase3	study/STIM_025.jpg
1749.832	0.884	1	study	Phase3	study/STIM_025.jpg
1754.198	0.695	0	study	Phase3	study/STIM_026.jpg
1757.85	0.596	1	study	Phase3	study/STIM_026.jpg
1761.727	0.72	1	study	Phase3	study/STIM_026.jpg
1766.096	0.62	1	study	Phase3	study/STIM_027.jpg
1769.422	1.057	1	study	Phase3	study/STIM_027.jpg
1772.782	0.997	1	study	Phase3	study/STIM_027.jpg
1776.425	0.6	0	study	Phase3	study/STIM_028.jpg
1779.246	0.548	0	study	Phase3	study/STIM_028.jpg
1782.393	0.621	1	study	Phase3	study/STIM_028.jpg
1786.997	1.16	1	study	Phase3	study/STIM_029.jpg
1791.697	1.184	1	study	Phase3	study/STIM_029.jpg
1796.65	1.082	1	study	Phase3	study/STIM_029.jpg
1799.899	0.917	0	test	Phase3	test/STIM_000.jpg
1804.812	0.829	1	test	Phase3	test/STIM_000.jpg
1809.187	0.865	1	test	Phase3	test/STIM_000.jpg
1812.526	1.043	1	test	Phase3	test/STIM_001.jpg
1817.529	0.674	1	test	Phase3	test/STIM_001.jpg
1820.288	0.762	1	test	Phase3	test/STIM_001.jpg
1823.446	0.958	0	test	Phase3	test/STIM_002.jpg
1827.056	1.006	1	test	Phase3	test/STIM_002.jpg
1830.731	1.054	1	test	Phase3	test/STIM_002.jpg
1835.072	1.237	1	test	Phase3	test/STIM_003.jpg
1839.145	1.094	1	test	Phase3	test/STIM_003.jpg
1842.891	1.065	1	test	Phase3	test/STIM_003.jpg
1847.593	0.786	1	test	Phase3	test/STIM_004.jpg
1851.529	0.825	1	test	Phase3	test/STIM_004.jpg
1855.049	0.684	1	test	Phase3	test/STIM_004.jpg
1858.377	0.897	0	test	Phase3	test/STIM_005.jpg
1861.302	0.979	1	test	Phase3	test/STIM_005.jpg
1864.703	0.667	0	test	Phase3	test/STIM_005.jpg
1867.56	0.759	1	test	Phase3	test/STIM_006.jpg
1870.655	0.889	0	test	Phase3	test/STIM_006.jpg
1875.264	1.126	1	test	Phase3	test/STIM_006.jpg
1879.448	0.977	1	test	Phase3	test/STIM_007.jpg
1883.224	0.963	0	test	Phase3	test/STIM_007.jpg
1887.279	0.639	1	test	Phase3	test/STIM_007.jpg
1891.889	0.629	1	test	Phase3	test/STIM_008.jpg
1895.002	0.719	1	test	Phase3	test/STIM_008.jpg
1897.809	0.9	0	test	Phase3	test/STIM_008.jpg
1901.818	0.899	1	test	Phase3	test/STIM_009.jpg
1906.158	0.67	0	test	Phase3	test/STIM_009.jpg
1910.692	1.079	0	test	Phase3	test/STIM_009.jpg
1914.889	0.856	1	test	Phase3	test/STIM_010.jpg
1919.288	0.671	0	test	Phase3	test/STIM_010.jpg
1922.438	0.89	1	test	Phase3	test/STIM_010.jpg
1926.428	0.845	1	test	Phase3	test/STIM_011.jpg
1931.244	0.876	0	test	Phase3	test/STIM_011.jpg
1935.046	0.664	0	test	Phase3	test/STIM_011.jpg
1938.383	0.902	0	test	Phase3	test/STIM_012.jpg
1941.67	0.999	1	test	Phase3	test/STIM_012.jpg
1945.302	0.907	1	test	Phase3	test/STIM_012.jpg
1949.296	0.796	1	test	Phase3	test/STIM_013.jpg
1953.354	0.751	1	test	Phase3	test/STIM_013.jpg
1956.187	0.646	0	test	Phase3	test/STIM_013.jpg
1960.543	0.691	1	test	Phase3	test/STIM_014.jpg
1963.942	1.024	0	test	Phase3	test/STIM_014.jpg
1968.873	1.081	1	test	Phase3	test/STIM_014.jpg
1972.509	0.985	1	test	Phase3	test/STIM_015.jpg
1976.916	0.599	1	test	Phase3	test/STIM_015.jpg
1981.371	0.666	0	test	Phase3	test/STIM_015.jpg
1984.666	1.184	1	test	Phase3	test/STIM_016.jpg
1988.296	0.607	0	test	Phase3	test/STIM_016.jpg
1990.98	0.681	1	test	Phase3	test/STIM_016.jpg
1995.151	0.903	0	test	Phase3	test/STIM_017.jpg
1998.366	0.8	1	test	Phase3	test/STIM_017.jpg
2001.896	0.822	1	test	Phase3	test/STIM_017.jpg
2005.908	1.136	1	test	Phase3	test/STIM_018.jpg
2009.275	1.156	1	test	Phase3	test/STIM_018.jpg
2013.375	0.762	0	test	Phase3	test/STIM_018.jpg
2017.612	0.97	1	test	Phase3	test/STIM_019.jpg
2021.648	0.685	1	test	Phase3	test/STIM_019.jpg
2025.319	1.017	0	test	Phase3	test/STIM_019.jpg
2028.619	0.986	1	test	Phase3	test/STIM_020.jpg
2032.059	0.748	1	test	Phase3	test/STIM_020.jpg
2034.926	0.88	1	test	Phase3	test/STIM_020.jpg
2038.423	1.144	1	test	Phase3	test/STIM_021.jpg
2043.298	1.078	1	test	Phase3	test/STIM_021.jpg
2048.224	1.063	1	test	Phase3	test/STIM_021.jpg
2052.233	0.893	0	test	Phase3	test/STIM_022.jpg
2055.257	1.204	1	test	Phase3	test/STIM_022.jpg
2059.696	1.216	1	test	Phase3	test/STIM_022.jpg
2063.238	1.095	0	test	Phase3	test/STIM_023.jpg
2067.255	1.251	0	test	Phase3	test/STIM_023.jpg
2071.9	0.845	1	test	Phase3	test/STIM_023.jpg
2075.808	0.754	1	test	Phase3	test/STIM_024.jpg
2078.987	0.926	1	test	Phase3	test/STIM_024.jpg
2081.986	1.106	1	test	Phase3	test/STIM_024.jpg
2086.127	0.975	1	test	Phase3	test/STIM_025.jpg
2090.624	0.869	0	test	Phase3	test/STIM_025.jpg
2094.88	0.933	0	test	Phase3	test/STIM_025.jpg
2098.282	0.666	1	test	Phase3	test/STIM_026.jpg
2101.865	0.91	0	test	Phase3	test/STIM_026.jpg
2105.5	1.212	1	test	Phase3	test/STIM_026.jpg
2109.559	0.617	1	test	Phase3	test/STIM_027.jpg
2113.382	0.982	1	test	Phase3	test/STIM_027.jpg
2117.89	1.176	1	test	Phase3	test/STIM_027.jpg
2121.702	0.802	1	test	Phase3	test/STIM_028.jpg
2125.401	1.114	0	test	Phase3	test/STIM_028.jpg
2128.959	0.783	1	test	Phase3	test/STIM_028.jpg
2132.137	0.732	1	test	Phase3	test/STIM_029.jpg
2136.301	0.857	0	test	Phase3	test/STIM_029.jpg
2139.898	1.202	0	test	Phase3	test/STIM_029.jpg
