onset	duration	response_time_ms	trial_type	learning_stage	stimulus	response_port
0.0	3.757	3756.6	navigation	Trial1	navigation/STIM_000.jpg	99
7.323	1.718	1717.5	navigation	Trial1	navigation/STIM_000.jpg	99
12.867	2.475	2474.6	navigation	Trial1	navigation/STIM_000.jpg	99
19.32	2.816	2816.1	navigation	Trial1	navigation/STIM_000.jpg	99
24.584	2.181	2181.4	navigation	Trial1	navigation/STIM_000.jpg	99
28.917	2.032	2031.9	navigation	Trial1	navigation/STIM_000.jpg	99
33.057	1.758	1757.8	navigation	Trial1	navigation/STIM_001.jpg	100
38.594	2.894	2894.3	navigation	Trial1	navigation/STIM_001.jpg	99
43.847	2.074	2073.6	navigation	Trial1	navigation/STIM_001.jpg	100
48.539	3.456	3455.8	navigation	Trial1	navigation/STIM_001.jpg	100
55.556	1.683	1683.1	navigation	Trial1	navigation/STIM_001.jpg	100
59.941	1.968	1967.7	navigation	Trial1	navigation/STIM_001.jpg	99
64.866	2.529	2528.7	navigation	Trial1	navigation/STIM_002.jpg	99
70.768	3.212	3212.2	navigation	Trial1	navigation/STIM_002.jpg	99
76.396	2.983	2982.6	navigation	Trial1	navigation/STIM_002.jpg	99
82.709	3.181	3181.0	navigation	Trial1	navigation/STIM_002.jpg	100
88.748	2.578	2578.0	navigation	Trial1	navigation/STIM_002.jpg	99
95.129	2.01	2010.3	navigation	Trial1	navigation/STIM_002.jpg	100
99.739	1.668	1668.5	navigation	Trial1	navigation/STIM_003.jpg	100
105.016	2.21	2210.5	navigation	Trial1	navigation/STIM_003.jpg	99
109.881	2.105	2104.6	navigation	Trial1	navigation/STIM_003.jpg	99
114.547	3.145	3145.3	navigation	Trial1	navigation/STIM_003.jpg	99
120.453	1.597	1597.2	navigation	Trial1	navigation/STIM_003.jpg	100
124.536	2.576	2576.1	navigation	Trial1	navigation/STIM_003.jpg	99
131.014	2.761	2760.8	navigation	Trial1	navigation/STIM_004.jpg	100
136.198	3.409	3409.3	navigation	Trial1	navigation/STIM_004.jpg	100
142.087	2.634	2633.6	navigation	Trial1	navigation/STIM_004.jpg	99
147.652	1.641	1641.2	navigation	Trial1	navigation/STIM_004.jpg	99
151.31	1.579	1579.2	navigation	Trial1	navigation/STIM_004.jpg	99
155.212	1.605	1605.0	navigation	Trial1	navigation/STIM_004.jpg	99
159.622	2.558	2557.9	navigation	Trial1	navigation/STIM_005.jpg	100
165.481	3.342	3342.1	navigation	Trial1	navigation/STIM_005.jpg	99
171.858	2.512	2512.1	navigation	Trial1	navigation/STIM_005.jpg	100
176.79	1.781	1780.7	navigation	Trial1	navigation/STIM_005.jpg	99
181.499	2.054	2054.2	navigation	Trial1	navigation/STIM_005.jpg	99
186.754	1.824	1824.3	navigation	Trial1	navigation/STIM_005.jpg	100
192.092	3.575	3574.8	navigation	Trial1	navigation/STIM_006.jpg	99
198.909	2.576	2575.6	navigation	Trial1	navigation/STIM_006.jpg	100
205.155	2.373	2373.1	navigation	Trial1	navigation/STIM_006.jpg	100
210.67	2.824	2824.0	navigation	Trial1	navigation/STIM_006.jpg	100
216.388	1.796	1796.2	navigation	Trial1	navigation/STIM_006.jpg	100
220.305	2.83	2830.5	navigation	Trial1	navigation/STIM_006.jpg	99
227.055	2.677	2676.8	navigation	Trial1	navigation/STIM_007.jpg	99
231.92	2.026	2025.9	navigation	Trial1	navigation/STIM_007.jpg	100
237.453	2.205	2204.8	navigation	Trial1	navigation/STIM_007.jpg	99
242.797	2.277	2276.8	navigation	Trial1	navigation/STIM_007.jpg	100
247.698	2.683	2682.8	navigation	Trial1	navigation/STIM_007.jpg	100
253.854	1.931	1931.2	navigation	Trial1	navigation/STIM_007.jpg	100
257.927	3.853	3852.8	navigation	Trial1	navigation/STIM_008.jpg	99
264.453	2.76	2759.8	navigation	Trial1	navigation/STIM_008.jpg	100
270.762	2.151	2150.7	navigation	Trial1	navigation/STIM_008.jpg	99
275.57	1.748	1748.4	navigation	Trial1	navigation/STIM_008.jpg	100
281.294	2.577	2577.1	navigation	Trial1	navigation/STIM_008.jpg	100
287.83	2.658	2658.3	navigation	Trial1	navigation/STIM_008.jpg	99
293.88	2.013	2012.9	navigation	Trial1	navigation/STIM_009.jpg	100
299.553	3.421	3420.9	navigation	Trial1	navigation/STIM_009.jpg	100
305.023	1.819	1818.8	navigation	Trial1	navigation/STIM_009.jpg	99
309.446	2.428	2428.2	navigation	Trial1	navigation/STIM_009.jpg	99
315.132	2.233	2233.0	navigation	Trial1	navigation/STIM_009.jpg	99
321.317	2.935	2934.9	navigation	Trial1	navigation/STIM_009.jpg	100
326.768	1.826	1825.6	navigation	Trial1	navigation/STIM_010.jpg	100
331.929	1.949	1948.8	navigation	Trial1	navigation/STIM_010.jpg	100
337.317	1.475	1475.3	navigation	Trial1	navigation/STIM_010.jpg	100
341.329	1.549	1548.6	navigation	Trial1	navigation/STIM_010.jpg	99
345.766	2.601	2601.1	navigation	Trial1	navigation/STIM_010.jpg	99
351.875	2.648	2648.3	navigation	Trial1	navigation/STIM_010.jpg	100
357.587	3.713	3712.6	navigation	Trial1	navigation/STIM_011.jpg	100
364.798	3.506	3506.5	navigation	Trial1	navigation/STIM_011.jpg	100
372.087	3.229	3228.9	navigation	Trial1	navigation/STIM_011.jpg	99
378.979	3.0	2999.6	navigation	Trial1	navigation/STIM_011.jpg	100
385.495	2.586	2586.0	navigation	Trial1	navigation/STIM_011.jpg	100
391.345	1.393	1392.7	navigation	Trial1	navigation/STIM_011.jpg	99
395.562	0.945	944.6	pointing	Trial1	pointing/STIM_000.jpg	100
399.264	0.968	967.8	pointing	Trial1	pointing/STIM_000.jpg	99
403.362	0.879	878.7	pointing	Trial1	pointing/STIM_000.jpg	99
406.661	1.056	1056.4	pointing	Trial1	pointing/STIM_000.jpg	100
411.47	0.789	788.7	pointing	Trial1	pointing/STIM_000.jpg	100
415.52	0.907	906.9	pointing	Trial1	pointing/STIM_000.jpg	100
419.888	1.128	1127.8	pointing	Trial1	pointing/STIM_001.jpg	99
424.706	0.708	708.0	pointing	Trial1	pointing/STIM_001.jpg	99
429.266	0.714	714.5	pointing	Trial1	pointing/STIM_001.jpg	100
433.782	0.817	816.9	pointing	Trial1	pointing/STIM_001.jpg	100
436.86	0.704	704.5	pointing	Trial1	pointing/STIM_001.jpg	100
440.266	1.032	1031.9	pointing	Trial1	pointing/STIM_001.jpg	99
444.063	0.888	888.2	pointing	Trial1	pointing/STIM_002.jpg	100
447.013	1.039	1038.9	pointing	Trial1	pointing/STIM_002.jpg	100
450.201	1.188	1187.7	pointing	Trial1	pointing/STIM_002.jpg	99
454.564	0.917	916.6	pointing	Trial1	pointing/STIM_002.jpg	100
458.689	1.104	1104.4	pointing	Trial1	pointing/STIM_002.jpg	99
463.571	0.97	970.3	pointing	Trial1	pointing/STIM_002.jpg	100
466.785	0.855	855.2	pointing	Trial1	pointing/STIM_003.jpg	100
471.397	0.742	742.5	pointing	Trial1	pointing/STIM_003.jpg	100
476.14	0.757	757.0	pointing	Trial1	pointing/STIM_003.jpg	99
479.015	0.933	933.4	pointing	Trial1	pointing/STIM_003.jpg	100
483.114	0.935	934.8	pointing	Trial1	pointing/STIM_003.jpg	99
487.59	0.85	850.3	pointing	Trial1	pointing/STIM_003.jpg	99
491.926	0.913	913.3	pointing	Trial1	pointing/STIM_004.jpg	100
495.91	0.93	929.9	pointing	Trial1	pointing/STIM_004.jpg	99
499.037	1.017	1017.4	pointing	Trial1	pointing/STIM_004.jpg	100
503.269	1.009	1009.2	pointing	Trial1	pointing/STIM_004.jpg	100
507.759	0.804	804.2	pointing	Trial1	pointing/STIM_004.jpg	100
512.525	0.738	738.3	pointing	Trial1	pointing/STIM_004.jpg	100
516.663	1.022	1021.5	pointing	Trial1	pointing/STIM_005.jpg	99
520.988	0.843	843.4	pointing	Trial1	pointing/STIM_005.jpg	99
524.034	0.955	954.6	pointing	Trial1	pointing/STIM_005.jpg	99
528.589	1.046	1045.8	pointing	Trial1	pointing/STIM_005.jpg	99
533.22	1.079	1078.9	pointing	Trial1	pointing/STIM_005.jpg	99
538.252	0.663	663.3	pointing	Trial1	pointing/STIM_005.jpg	99
542.416	0.928	928.5	pointing	Trial1	pointing/STIM_006.jpg	99
545.486	0.952	952.1	pointing	Trial1	pointing/STIM_006.jpg	99
548.646	0.864	864.1	pointing	Trial1	pointing/STIM_006.jpg	100
552.02	0.737	737.0	pointing	Trial1	pointing/STIM_006.jpg	99
555.122	0.691	691.3	pointing	Trial1	pointing/STIM_006.jpg	99
558.506	0.822	822.3	pointing	Trial1	pointing/STIM_006.jpg	99
562.841	0.908	908.3	pointing	Trial1	pointing/STIM_007.jpg	100
567.68	1.198	1197.9	pointing	Trial1	pointing/STIM_007.jpg	100
572.706	1.0	999.7	pointing	Trial1	pointing/STIM_007.jpg	100
576.006	0.7	700.1	pointing	Trial1	pointing/STIM_007.jpg	100
579.542	0.847	847.3	pointing	Trial1	pointing/STIM_007.jpg	100
582.86	1.196	1196.1	pointing	Trial1	pointing/STIM_007.jpg	100
587.117	0.744	743.7	pointing	Trial1	pointing/STIM_008.jpg	100
590.675	0.77	770.3	pointing	Trial1	pointing/STIM_008.jpg	100
594.807	0.79	790.0	pointing	Trial1	pointing/STIM_008.jpg	99
598.197	1.078	1077.5	pointing	Trial1	pointing/STIM_008.jpg	99
602.228	0.73	729.9	pointing	Trial1	pointing/STIM_008.jpg	100
605.338	0.911	911.2	pointing	Trial1	pointing/STIM_008.jpg	99
608.361	0.83	830.5	pointing	Trial1	pointing/STIM_009.jpg	100
611.198	0.796	796.4	pointing	Trial1	pointing/STIM_009.jpg	100
615.017	0.719	719.1	pointing	Trial1	pointing/STIM_009.jpg	100
618.476	1.118	1118.2	pointing	Trial1	pointing/STIM_009.jpg	100
622.692	1.177	1176.6	pointing	Trial1	pointing/STIM_009.jpg	100
627.024	0.81	810.3	pointing	Trial1	pointing/STIM_009.jpg	99
631.661	1.064	1064.0	pointing	Trial1	pointing/STIM_010.jpg	100
636.52	1.192	1192.5	pointing	Trial1	pointing/STIM_010.jpg	99
641.596	1.126	1126.3	pointing	Trial1	pointing/STIM_010.jpg	99
645.606	0.846	846.2	pointing	Trial1	pointing/STIM_010.jpg	99
650.346	0.886	885.9	pointing	Trial1	pointing/STIM_010.jpg	99
654.696	1.225	1225.0	pointing	Trial1	pointing/STIM_010.jpg	100
659.213	1.05	1050.1	pointing	Trial1	pointing/STIM_011.jpg	99
662.882	1.01	1009.8	pointing	Trial1	pointing/STIM_011.jpg	99
667.43	1.18	1180.3	pointing	Trial1	pointing/STIM_011.jpg	100
671.42	0.857	856.8	pointing	Trial1	pointing/STIM_011.jpg	99
674.83	0.715	714.7	pointing	Trial1	pointing/STIM_011.jpg	99
677.594	1.044	1044.0	pointing	Trial1	pointing/STIM_011.jpg	100
681.749	2.415	2414.7	navigation	Trial2	navigation/STIM_000.jpg	99
687.541	1.529	1528.8	navigation	Trial2	navigation/STIM_000.jpg	100
691.112	2.389	2389.2	navigation	Trial2	navigation/STIM_000.jpg	99
696.374	2.38	2380.5	navigation	Trial2	navigation/STIM_000.jpg	99
702.416	1.69	1689.7	navigation	Trial2	navigation/STIM_000.jpg	100
706.683	2.768	2768.1	navigation	Trial2	navigation/STIM_000.jpg	100
712.34	1.418	1417.6	navigation	Trial2	navigation/STIM_001.jpg	99
716.409	2.37	2370.4	navigation	Trial2	navigation/STIM_001.jpg	100
721.365	2.594	2594.3	navigation	Trial2	navigation/STIM_001.jpg	100
726.002	2.605	2604.8	navigation	Trial2	navigation/STIM_001.jpg	100
731.637	1.767	1766.9	navigation	Trial2	navigation/STIM_001.jpg	99
735.479	1.176	1175.7	navigation	Trial2	navigation/STIM_001.jpg	99
739.799	2.362	2362.2	navigation	Trial2	navigation/STIM_002.jpg	99
745.599	3.001	3000.7	navigation	Trial2	navigation/STIM_002.jpg	100
752.102	2.866	2865.8	navigation	Trial2	navigation/STIM_002.jpg	100
758.775	2.571	2571.1	navigation	Trial2	navigation/STIM_002.jpg	99
764.042	2.726	2726.1	navigation	Trial2	navigation/STIM_002.jpg	99
768.894	1.8	1800.1	navigation	Trial2	navigation/STIM_002.jpg	100
773.356	3.101	3100.6	navigation	Trial2	navigation/STIM_003.jpg	99
778.822	2.979	2979.2	navigation	Trial2	navigation/STIM_003.jpg	99
785.565	2.858	2858.0	navigation	Trial2	navigation/STIM_003.jpg	99
791.689	2.799	2799.1	navigation	Trial2	navigation/STIM_003.jpg	100
798.149	2.398	2398.5	navigation	Trial2	navigation/STIM_003.jpg	99
802.896	1.878	1877.5	navigation	Trial2	navigation/STIM_003.jpg	100
807.65	1.708	1707.9	navigation	Trial2	navigation/STIM_004.jpg	99
813.294	2.31	2310.5	navigation	Trial2	navigation/STIM_004.jpg	99
818.825	2.502	2501.9	navigation	Trial2	navigation/STIM_004.jpg	99
824.269	2.667	2667.0	navigation	Trial2	navigation/STIM_004.jpg	99
830.334	1.417	1416.9	navigation	Trial2	navigation/STIM_004.jpg	99
834.744	2.542	2541.7	navigation	Trial2	navigation/STIM_004.jpg	99
840.246	2.767	2766.9	navigation	Trial2	navigation/STIM_005.jpg	99
846.928	1.633	1633.4	navigation	Trial2	navigation/STIM_005.jpg	99
851.006	1.237	1236.8	navigation	Trial2	navigation/STIM_005.jpg	100
855.886	1.221	1221.0	navigation	Trial2	navigation/STIM_005.jpg	99
860.876	2.347	2347.3	navigation	Trial2	navigation/STIM_005.jpg	99
867.195	2.398	2398.4	navigation	Trial2	navigation/STIM_005.jpg	99
871.931	2.277	2277.3	navigation	Trial2	navigation/STIM_006.jpg	99
876.656	1.698	1697.5	navigation	Trial2	navigation/STIM_006.jpg	100
882.231	2.317	2317.2	navigation	Trial2	navigation/STIM_006.jpg	100
888.321	1.471	1471.1	navigation	Trial2	navigation/STIM_006.jpg	99
892.039	1.712	1712.0	navigation	Trial2	navigation/STIM_006.jpg	100
896.128	1.24	1240.5	navigation	Trial2	navigation/STIM_006.jpg	99
900.18	1.538	1538.3	navigation	Trial2	navigation/STIM_007.jpg	100
904.221	1.797	1796.8	navigation	Trial2	navigation/STIM_007.jpg	99
908.057	2.739	2739.0	navigation	Trial2	navigation/STIM_007.jpg	99
913.555	1.694	1693.7	navigation	Trial2	navigation/STIM_007.jpg	100
917.743	1.539	1539.4	navigation	Trial2	navigation/STIM_007.jpg	99
923.045	1.43	1430.1	navigation	Trial2	navigation/STIM_007.jpg	100
927.307	3.064	3063.9	navigation	Trial2	navigation/STIM_008.jpg	99
934.108	1.733	1733.2	navigation	Trial2	navigation/STIM_008.jpg	99
938.07	1.714	1714.2	navigation	Trial2	navigation/STIM_008.jpg	99
942.082	1.706	1705.9	navigation	Trial2	navigation/STIM_008.jpg	99
947.472	1.625	1625.2	navigation	Trial2	navigation/STIM_008.jpg	100
951.532	1.348	1347.5	navigation	Trial2	navigation/STIM_008.jpg	100
956.711	2.007	2007.0	navigation	Trial2	navigation/STIM_009.jpg	99
961.18	1.351	1351.1	navigation	Trial2	navigation/STIM_009.jpg	100
964.658	2.37	2370.2	navigation	Trial2	navigation/STIM_009.jpg	100
970.049	2.545	2544.6	navigation	Trial2	navigation/STIM_009.jpg	100
976.162	2.023	2022.9	navigation	Trial2	navigation/STIM_009.jpg	100
981.756	2.784	2783.7	navigation	Trial2	navigation/STIM_009.jpg	100
988.527	2.636	2635.7	navigation	Trial2	navigation/STIM_010.jpg	99
994.822	1.322	1321.5	navigation	Trial2	navigation/STIM_010.jpg	100
998.44	2.364	2363.7	navigation	Trial2	navigation/STIM_010.jpg	99
1004.353	1.736	1735.5	navigation	Trial2	navigation/STIM_010.jpg	100
1009.841	2.668	2667.7	navigation	Trial2	navigation/STIM_010.jpg	100
1016.494	2.626	2626.0	navigation	Trial2	navigation/STIM_010.jpg	99
1022.368	2.298	2298.2	navigation	Trial2	navigation/STIM_011.jpg	100
1027.117	2.354	2353.6	navigation	Trial2	navigation/STIM_011.jpg	99
1032.744	2.303	2302.7	navigation	Trial2	navigation/STIM_011.jpg	100
1038.906	1.968	1968.5	navigation	Trial2	navigation/STIM_011.jpg	100
1043.883	2.26	2259.5	navigation	Trial2	navigation/STIM_011.jpg	100
1048.78	1.451	1450.6	navigation	Trial2	navigation/STIM_011.jpg	100
1053.086	0.78	780.2	pointing	Trial2	pointing/STIM_000.jpg	99
1056.463	0.953	953.1	pointing	Trial2	pointing/STIM_000.jpg	99
1059.525	0.945	945.1	pointing	Trial2	pointing/STIM_000.jpg	99
1063.097	0.9	899.7	pointing	Trial2	pointing/STIM_000.jpg	100
1067.062	1.187	1186.6	pointing	Trial2	pointing/STIM_000.jpg	99
1070.637	0.988	988.5	pointing	Trial2	pointing/STIM_000.jpg	100
1075.393	0.946	945.9	pointing	Trial2	pointing/STIM_001.jpg	99
1080.108	0.931	931.3	pointing	Trial2	pointing/STIM_001.jpg	100
1084.262	0.919	919.2	pointing	Trial2	pointing/STIM_001.jpg	99
1087.186	1.07	1070.4	pointing	Trial2	pointing/STIM_001.jpg	99
1090.589	0.881	881.3	pointing	Trial2	pointing/STIM_001.jpg	100
1093.566	1.125	1125.4	pointing	Trial2	pointing/STIM_001.jpg	99
1097.856	1.033	1033.1	pointing	Trial2	pointing/STIM_002.jpg	100
1102.236	0.697	697.2	pointing	Trial2	pointing/STIM_002.jpg	99
1105.973	0.82	820.3	pointing	Trial2	pointing/STIM_002.jpg	100
1110.023	1.049	1049.3	pointing	Trial2	pointing/STIM_002.jpg	99
1113.178	0.99	989.8	pointing	Trial2	pointing/STIM_002.jpg	99
1117.804	1.14	1139.8	pointing	Trial2	pointing/STIM_002.jpg	99
1121.418	0.657	656.6	pointing	Trial2	pointing/STIM_003.jpg	100
1124.243	0.83	830.0	pointing	Trial2	pointing/STIM_003.jpg	100
1127.604	0.726	726.2	pointing	Trial2	pointing/STIM_003.jpg	100
1131.808	0.898	897.5	pointing	Trial2	pointing/STIM_003.jpg	99
1134.989	0.986	985.6	pointing	Trial2	pointing/STIM_003.jpg	99
1138.04	1.028	1027.8	pointing	Trial2	pointing/STIM_003.jpg	100
1141.992	1.053	1053.4	pointing	Trial2	pointing/STIM_004.jpg	100
1146.994	0.752	751.9	pointing	Trial2	pointing/STIM_004.jpg	99
1150.199	0.893	892.9	pointing	Trial2	pointing/STIM_004.jpg	100
1154.366	0.965	965.2	pointing	Trial2	pointing/STIM_004.jpg	99
1159.294	0.768	768.3	pointing	Trial2	pointing/STIM_004.jpg	100
1164.003	1.167	1167.3	pointing	Trial2	pointing/STIM_004.jpg	99
1168.675	1.034	1034.5	pointing	Trial2	pointing/STIM_005.jpg	100
1172.748	1.033	1033.3	pointing	Trial2	pointing/STIM_005.jpg	99
1176.943	0.849	849.2	pointing	Trial2	pointing/STIM_005.jpg	99
1181.148	0.697	697.2	pointing	Trial2	pointing/STIM_005.jpg	99
1184.625	0.839	838.9	pointing	Trial2	pointing/STIM_005.jpg	100
1188.14	1.142	1142.2	pointing	Trial2	pointing/STIM_005.jpg	100
1192.002	0.898	898.0	pointing	Trial2	pointing/STIM_006.jpg	100
1195.883	1.02	1019.9	pointing	Trial2	pointing/STIM_006.jpg	100
1199.728	1.213	1213.3	pointing	Trial2	pointing/STIM_006.jpg	99
1203.343	0.894	893.9	pointing	Trial2	pointing/STIM_006.jpg	100
1207.857	1.214	1214.4	pointing	Trial2	pointing/STIM_006.jpg	99
1212.66	0.943	942.9	pointing	Trial2	pointing/STIM_006.jpg	100
1217.422	1.171	1171.1	pointing	Trial2	pointing/STIM_007.jpg	99
1222.095	1.127	1127.3	pointing	Trial2	pointing/STIM_007.jpg	99
1226.23	1.05	1049.7	pointing	Trial2	pointing/STIM_007.jpg	100
1230.304	1.223	1223.2	pointing	Trial2	pointing/STIM_007.jpg	99
1234.993	1.018	1018.3	pointing	Trial2	pointing/STIM_007.jpg	99
1238.592	0.869	869.3	pointing	Trial2	pointing/STIM_007.jpg	100
1242.785	1.042	1042.4	pointing	Trial2	pointing/STIM_008.jpg	100
1246.879	0.824	823.6	pointing	Trial2	pointing/STIM_008.jpg	99
1250.26	1.219	1219.0	pointing	Trial2	pointing/STIM_008.jpg	99
1254.214	0.776	776.2	pointing	Trial2	pointing/STIM_008.jpg	100
1258.269	1.072	1072.3	pointing	Trial2	pointing/STIM_008.jpg	99
1263.094	0.829	829.4	pointing	Trial2	pointing/STIM_008.jpg	100
1266.689	0.723	723.3	pointing	Trial2	pointing/STIM_009.jpg	100
1270.423	0.801	800.8	pointing	Trial2	pointing/STIM_009.jpg	99
1274.803	0.748	747.7	pointing	Trial2	pointing/STIM_009.jpg	99
1277.716	0.76	760.3	pointing	Trial2	pointing/STIM_009.jpg	99
1282.117	1.18	1180.1	pointing	Trial2	pointing/STIM_009.jpg	100
1286.688	1.169	1169.3	pointing	Trial2	pointing/STIM_009.jpg	99
1291.43	0.744	743.6	pointing	Trial2	pointing/STIM_010.jpg	99
1295.394	1.091	1091.2	pointing	Trial2	pointing/STIM_010.jpg	100
1300.367	0.866	866.3	pointing	Trial2	pointing/STIM_010.jpg	100
1304.469	1.016	1015.6	pointing	Trial2	pointing/STIM_010.jpg	99
1309.414	0.69	689.7	pointing	Trial2	pointing/STIM_010.jpg	99
1312.163	1.004	1003.9	pointing	Trial2	pointing/STIM_010.jpg	100
1315.634	0.889	888.6	pointing	Trial2	pointing/STIM_011.jpg	99
1319.965	0.739	738.6	pointing	Trial2	pointing/STIM_011.jpg	100
1323.635	1.057	1057.0	pointing	Trial2	pointing/STIM_011.jpg	99
1327.152	0.712	712.3	pointing	Trial2	pointing/STIM_011.jpg	99
1330.609	1.218	1217.7	pointing	Trial2	pointing/STIM_011.jpg	100
1335.755	0.989	988.6	pointing	Trial2	pointing/STIM_011.jpg	100
1340.095	1.278	1278.5	navigation	Trial3	navigation/STIM_000.jpg	99
1344.833	1.956	1955.5	navigation	Trial3	navigation/STIM_000.jpg	100
1350.31	2.634	2633.6	navigation	Trial3	navigation/STIM_000.jpg	99
1355.696	2.184	2184.4	navigation	Trial3	navigation/STIM_000.jpg	99
1361.739	2.788	2787.5	navigation	Trial3	navigation/STIM_000.jpg	99
1367.468	2.594	2593.5	navigation	Trial3	navigation/STIM_000.jpg	100
1372.861	2.085	2084.8	navigation	Trial3	navigation/STIM_001.jpg	99
1377.021	2.773	2773.4	navigation	Trial3	navigation/STIM_001.jpg	100
1383.557	2.094	2093.6	navigation	Trial3	navigation/STIM_001.jpg	100
1387.779	1.693	1692.6	navigation	Trial3	navigation/STIM_001.jpg	100
1392.685	2.08	2079.7	navigation	Trial3	navigation/STIM_001.jpg	99
1397.804	2.036	2035.7	navigation	Trial3	navigation/STIM_001.jpg	100
1402.015	2.728	2727.8	navigation	Trial3	navigation/STIM_002.jpg	99
1407.466	1.699	1699.2	navigation	Trial3	navigation/STIM_002.jpg	100
1413.043	2.233	2233.1	navigation	Trial3	navigation/STIM_002.jpg	100
1417.87	1.238	1237.5	navigation	Trial3	navigation/STIM_002.jpg	99
1421.143	2.202	2201.6	navigation	Trial3	navigation/STIM_002.jpg	99
1426.57	2.802	2802.2	navigation	Trial3	navigation/STIM_002.jpg	99
1432.934	2.556	2556.3	navigation	Trial3	navigation/STIM_003.jpg	100
1438.667	2.281	2281.4	navigation	Trial3	navigation/STIM_003.jpg	100
1444.255	1.645	1645.3	navigation	Trial3	navigation/STIM_003.jpg	99
1448.845	1.461	1461.1	navigation	Trial3	navigation/STIM_003.jpg	100
1453.554	2.425	2424.7	navigation	Trial3	navigation/STIM_003.jpg	99
1458.881	1.378	1378.1	navigation	Trial3	navigation/STIM_003.jpg	99
1462.632	1.235	1235.3	navigation	Trial3	navigation/STIM_004.jpg	99
1467.387	1.486	1486.4	navigation	Trial3	navigation/STIM_004.jpg	100
1472.525	1.603	1603.2	navigation	Trial3	navigation/STIM_004.jpg	99
1477.585	1.415	1414.6	navigation	Trial3	navigation/STIM_004.jpg	99
1482.371	2.136	2136.3	navigation	Trial3	navigation/STIM_004.jpg	100
1488.276	1.442	1442.2	navigation	Trial3	navigation/STIM_004.jpg	99
1493.02	2.089	2088.6	navigation	Trial3	navigation/STIM_005.jpg	100
1498.397	2.351	2350.9	navigation	Trial3	navigation/STIM_005.jpg	99
1504.702	2.562	2562.2	navigation	Trial3	navigation/STIM_005.jpg	99
1509.905	1.442	1441.5	navigation	Trial3	navigation/STIM_005.jpg	99
1515.298	1.365	1365.1	navigation	Trial3	navigation/STIM_005.jpg	100
1520.325	2.479	2479.4	navigation	Trial3	navigation/STIM_005.jpg	100
1526.12	1.891	1890.8	navigation	Trial3	navigation/STIM_006.jpg	100
1530.364	2.566	2565.9	navigation	Trial3	navigation/STIM_006.jpg	99
1535.447	1.146	1146.1	navigation	Trial3	navigation/STIM_006.jpg	100
1539.346	2.438	2438.2	navigation	Trial3	navigation/STIM_006.jpg	100
1544.616	1.411	1411.2	navigation	Trial3	navigation/STIM_006.jpg	99
1549.605	1.223	1222.7	navigation	Trial3	navigation/STIM_006.jpg	99
1553.509	1.578	1577.5	navigation	Trial3	navigation/STIM_007.jpg	100
1557.609	1.31	1310.2	navigation	Trial3	navigation/STIM_007.jpg	100
1561.713	2.124	2123.6	navigation	Trial3	navigation/STIM_007.jpg	99
1567.054	1.598	1597.7	navigation	Trial3	navigation/STIM_007.jpg	100
1571.287	2.439	2439.2	navigation	Trial3	navigation/STIM_007.jpg	100
1577.479	1.34	1340.0	navigation	Trial3	navigation/STIM_007.jpg	100
1582.469	2.552	2551.8	navigation	Trial3	navigation/STIM_008.jpg	100
1588.29	1.316	1316.4	navigation	Trial3	navigation/STIM_008.jpg	100
1591.72	2.513	2513.2	navigation	Trial3	navigation/STIM_008.jpg	100
1597.069	1.484	1483.9	navigation	Trial3	navigation/STIM_008.jpg	99
1601.016	1.946	1946.3	navigation	Trial3	navigation/STIM_008.jpg	99
1605.11	1.23	1229.5	navigation	Trial3	navigation/STIM_008.jpg	100
1609.58	1.856	1855.5	navigation	Trial3	navigation/STIM_009.jpg	99
1614.033	1.429	1429.4	navigation	Trial3	navigation/STIM_009.jpg	99
1618.663	2.508	2508.4	navigation	Trial3	navigation/STIM_009.jpg	99
1624.084	1.461	1460.7	navigation	Trial3	navigation/STIM_009.jpg	100
1629.162	2.716	2716.5	navigation	Trial3	navigation/STIM_009.jpg	100
1634.609	1.795	1794.7	navigation	Trial3	navigation/STIM_009.jpg	100
1639.499	1.82	1819.6	navigation	Trial3	navigation/STIM_010.jpg	99
1643.61	1.507	1506.7	navigation	Trial3	navigation/STIM_010.jpg	100
1649.023	2.784	2784.2	navigation	Trial3	navigation/STIM_010.jpg	100
1655.71	2.172	2171.8	navigation	Trial3	navigation/STIM_010.jpg	99
1660.301	1.712	1712.5	navigation	Trial3	navigation/STIM_010.jpg	100
1664.305	2.596	2596.0	navigation	Trial3	navigation/STIM_010.jpg	99
1670.299	1.441	1440.8	navigation	Trial3	navigation/STIM_011.jpg	100
1673.779	1.317	1317.1	navigation	Trial3	navigation/STIM_011.jpg	100
1678.832	2.286	2286.4	navigation	Trial3	navigation/STIM_011.jpg	99
1684.443	1.77	1769.5	navigation	Trial3	navigation/STIM_011.jpg	100
1689.001	2.717	2717.4	navigation	Trial3	navigation/STIM_011.jpg	100
1694.85	1.932	1931.6	navigation	Trial3	navigation/STIM_011.jpg	100
1699.55	0.939	938.7	pointing	Trial3	pointing/STIM_000.jpg	99
1702.657	0.857	857.3	pointing	Trial3	pointing/STIM_000.jpg	100
1707.234	0.782	781.5	pointing	Trial3	pointing/STIM_000.jpg	100
1711.151	1.087	1086.6	pointing	Trial3	pointing/STIM_000.jpg	100
1714.882	0.906	905.5	pointing	Trial3	pointing/STIM_000.jpg	100
1717.878	0.804	804.0	pointing	Trial3	pointing/STIM_000.jpg	99
1721.166	0.792	792.4	pointing	Trial3	pointing/STIM_001.jpg	99
1725.673	1.221	1221.3	pointing	Trial3	pointing/STIM_001.jpg	100
1729.926	0.817	817.3	pointing	Trial3	pointing/STIM_001.jpg	99
1733.667	0.919	919.2	pointing	Trial3	pointing/STIM_001.jpg	100
1736.767	0.742	742.3	pointing	Trial3	pointing/STIM_001.jpg	100
1740.267	0.69	690.1	pointing	Trial3	pointing/STIM_001.jpg	100
1742.989	1.175	1174.9	pointing	Trial3	pointing/STIM_002.jpg	100
1746.922	1.132	1131.7	pointing	Trial3	pointing/STIM_002.jpg	99
1750.904	0.99	989.7	pointing	Trial3	pointing/STIM_002.jpg	100
1755.052	1.098	1097.6	pointing	Trial3	pointing/STIM_002.jpg	100
1758.662	0.863	863.4	pointing	Trial3	pointing/STIM_002.jpg	100
1763.012	1.182	1182.0	pointing	Trial3	pointing/STIM_002.jpg	99
1766.685	1.134	1134.2	pointing	Trial3	pointing/STIM_003.jpg	100
1771.175	1.211	1211.3	pointing	Trial3	pointing/STIM_003.jpg	100
1775.433	0.939	939.2	pointing	Trial3	pointing/STIM_003.jpg	99
1778.982	1.015	1015.3	pointing	Trial3	pointing/STIM_003.jpg	99
1782.099	0.815	815.4	pointing	Trial3	pointing/STIM_003.jpg	99
1785.174	1.085	1084.7	pointing	Trial3	pointing/STIM_003.jpg	100
1789.667	0.706	706.2	pointing	Trial3	pointing/STIM_004.jpg	100
1794.32	0.792	791.8	pointing	Trial3	pointing/STIM_004.jpg	99
1798.857	1.027	1027.4	pointing	Trial3	pointing/STIM_004.jpg	100
1802.36	0.975	974.9	pointing	Trial3	pointing/STIM_004.jpg	99
1806.554	1.066	1066.4	pointing	Trial3	pointing/STIM_004.jpg	99
1810.372	1.177	1176.6	pointing	Trial3	pointing/STIM_004.jpg	100
1814.374	0.945	945.2	pointing	Trial3	pointing/STIM_005.jpg	99
1818.011	0.665	665.1	pointing	Trial3	pointing/STIM_005.jpg	100
1820.948	0.871	870.6	pointing	Trial3	pointing/STIM_005.jpg	99
1825.366	0.799	799.2	pointing	Trial3	pointing/STIM_005.jpg	99
1829.656	1.07	1070.5	pointing	Trial3	pointing/STIM_005.jpg	99
1834.228	1.225	1224.6	pointing	Trial3	pointing/STIM_005.jpg	100
1838.359	0.973	973.2	pointing	Trial3	pointing/STIM_006.jpg	99
1842.677	0.917	916.6	pointing	Trial3	pointing/STIM_006.jpg	99
1845.834	1.166	1166.3	pointing	Trial3	pointing/STIM_006.jpg	99
1850.333	1.022	1021.5	pointing	Trial3	pointing/STIM_006.jpg	99
1854.758	0.678	677.9	pointing	Trial3	pointing/STIM_006.jpg	99
1857.7	0.727	726.8	pointing	Trial3	pointing/STIM_006.jpg	99
1861.773	0.866	865.7	pointing	Trial3	pointing/STIM_007.jpg	100
1865.196	1.225	1224.9	pointing	Trial3	pointing/STIM_007.jpg	100
1870.0	0.882	881.9	pointing	Trial3	pointing/STIM_007.jpg	100
1874.526	0.847	847.1	pointing	Trial3	pointing/STIM_007.jpg	99
1878.085	1.024	1024.0	pointing	Trial3	pointing/STIM_007.jpg	100
1881.74	0.991	991.3	pointing	Trial3	pointing/STIM_007.jpg	99
1886.534	0.757	757.3	pointing	Trial3	pointing/STIM_008.jpg	100
1890.422	1.108	1108.5	pointing	Trial3	pointing/STIM_008.jpg	99
1895.165	0.765	764.8	pointing	Trial3	pointing/STIM_008.jpg	99
1899.853	0.791	791.4	pointing	Trial3	pointing/STIM_008.jpg	99
1903.872	0.801	800.6	pointing	Trial3	pointing/STIM_008.jpg	100
1908.63	0.668	668.2	pointing	Trial3	pointing/STIM_008.jpg	100
1911.403	0.922	922.0	pointing	Trial3	pointing/STIM_009.jpg	100
1915.413	0.935	934.8	pointing	Trial3	pointing/STIM_009.jpg	99
1919.201	0.868	868.2	pointing	Trial3	pointing/STIM_009.jpg	99
1923.068	0.68	680.1	pointing	Trial3	pointing/STIM_009.jpg	99
1927.552	0.727	727.2	pointing	Trial3	pointing/STIM_009.jpg	99
1930.327	0.825	824.8	pointing	Trial3	pointing/STIM_009.jpg	100
1935.097	1.058	1057.7	pointing	Trial3	pointing/STIM_010.jpg	100
1938.512	1.025	1024.9	pointing	Trial3	pointing/STIM_010.jpg	99
1941.819	0.831	830.7	pointing	Trial3	pointing/STIM_010.jpg	100
1946.412	1.017	1017.4	pointing	Trial3	pointing/STIM_010.jpg	99
1950.238	1.125	1125.1	pointing	Trial3	pointing/STIM_010.jpg	100
1953.603	1.147	1146.6	pointing	Trial3	pointing/STIM_010.jpg	99
1957.665	0.931	930.8	pointing	Trial3	pointing/STIM_011.jpg	100
1960.731	0.895	895.2	pointing	Trial3	pointing/STIM_011.jpg	100
1964.72	0.731	730.6	pointing	Trial3	pointing/STIM_011.jpg	100
1967.906	0.775	774.6	pointing	Trial3	pointing/STIM_011.jpg	99
1970.757	1.03	1029.9	pointing	Trial3	pointing/STIM_011.jpg	100
1973.873	0.756	756.3	pointing	Trial3	pointing/STIM_011.jpg	99
