onset	duration	accuracy_binary	trial_type	learning_stage	stimulus
0.0	1.306	1	2back	Block1	2back/STIM_000.jpg
3.976	1.276	1	2back	Block1	2back/STIM_000.jpg
8.045	1.087	1	2back	Block1	2back/STIM_000.jpg
12.826	0.786	1	2back	Block1	2back/STIM_001.jpg
16.88	1.396	1	2back	Block1	2back/STIM_001.jpg
21.526	1.268	1	2back	Block1	2back/STIM_001.jpg
26.309	0.871	0	2back	Block1	2back/STIM_002.jpg
31.017	1.383	1	2back	Block1	2back/STIM_002.jpg
34.413	0.618	1	2back	Block1	2back/STIM_002.jpg
37.761	1.175	0	2back	Block1	2back/STIM_003.jpg
41.872	1.565	1	2back	Block1	2back/STIM_003.jpg
45.587	0.765	1	2back	Block1	2back/STIM_003.jpg
48.679	1.156	1	2back	Block1	2back/STIM_004.jpg
53.541	1.475	1	2back	Block1	2back/STIM_004.jpg
58.224	1.246	1	2back	Block1	2back/STIM_004.jpg
61.475	1.245	1	2back	Block1	2back/STIM_005.jpg
66.188	0.924	1	2back	Block1	2back/STIM_005.jpg
70.481	1.023	1	2back	Block1	2back/STIM_005.jpg
74.17	1.377	1	2back	Block1	2back/STIM_006.jpg
77.541	0.727	1	2back	Block1	2back/STIM_006.jpg
80.237	0.862	1	2back	Block1	2back/STIM_006.jpg
84.171	1.582	1	2back	Block1	2back/STIM_007.jpg
88.357	1.062	0	2back	Block1	2back/STIM_007.jpg
92.061	1.386	1	2back	Block1	2back/STIM_007.jpg
96.704	1.227	1	2back	Block1	2back/STIM_008.jpg
100.553	1.34	0	2back	Block1	2back/STIM_008.jpg
105.299	0.867	1	2back	Block1	2back/STIM_008.jpg
108.053	0.66	1	2back	Block1	2back/STIM_009.jpg
110.749	1.382	1	2back	Block1	2back/STIM_009.jpg
115.812	0.946	1	2back	Block1	2back/STIM_009.jpg
118.873	1.284	1	2back	Block1	2back/STIM_010.jpg
123.863	1.059	1	2back	Block1	2back/STIM_010.jpg
127.582	0.95	1	2back	Block1	2back/STIM_010.jpg
130.703	1.042	1	2back	Block1	2back/STIM_011.jpg
133.892	1.225	1	2back	Block1	2back/STIM_011.jpg
137.4	1.472	1	2back	Block1	2back/STIM_011.jpg
140.934	1.319	0	2back	Block1	2back/STIM_012.jpg
144.992	0.705	0	2back	Block1	2back/STIM_012.jpg
149.543	1.066	1	2back	Block1	2back/STIM_012.jpg
154.023	1.343	1	2back	Block1	2back/STIM_013.jpg
158.882	1.457	1	2back	Block1	2back/STIM_013.jpg
163.389	0.799	1	2back	Block1	2back/STIM_013.jpg
166.103	1.039	1	2back	Block1	2back/STIM_014.jpg
169.407	1.194	1	2back	Block1	2back/STIM_014.jpg
174.004	0.878	1	2back	Block1	2back/STIM_014.jpg
178.534	1.097	1	2back	Block1	2back/STIM_015.jpg
182.584	0.946	1	2back	Block1	2back/STIM_015.jpg
185.919	1.247	0	2back	Block1	2back/STIM_015.jpg
190.27	1.345	1	2back	Block1	2back/STIM_016.jpg
194.209	1.19	1	2back	Block1	2back/STIM_016.jpg
199.116	0.782	1	2back	Block1	2back/STIM_016.jpg
202.06	1.314	1	2back	Block1	2back/STIM_017.jpg
207.095	1.173	1	2back	Block1	2back/STIM_017.jpg
211.877	0.669	1	2back	Block1	2back/STIM_017.jpg
215.008	1.257	1	2back	Block1	2back/STIM_018.jpg
218.28	1.417	1	2back	Block1	2back/STIM_018.jpg
221.597	0.857	1	2back	Block1	2back/STIM_018.jpg
225.605	0.744	1	2back	Block1	2back/STIM_019.jpg
229.527	1.018	1	2back	Block1	2back/STIM_019.jpg
234.155	0.662	1	2back	Block1	2back/STIM_019.jpg
236.782	1.378	1	2back	Block1	2back/STIM_020.jpg
241.813	1.016	1	2back	Block1	2back/STIM_020.jpg
246.492	1.248	1	2back	Block1	2back/STIM_020.jpg
250.042	0.638	1	2back	Block1	2back/STIM_021.jpg
252.913	0.784	1	2back	Block1	2back/STIM_021.jpg
256.422	0.61	1	2back	Block1	2back/STIM_021.jpg
259.159	0.965	1	2back	Block1	2back/STIM_022.jpg
262.724	1.32	1	2back	Block1	2back/STIM_022.jpg
267.3	1.216	1	2back	Block1	2back/STIM_022.jpg
270.86	1.347	1	2back	Block1	2back/STIM_023.jpg
274.611	0.96	1	2back	Block1	2back/STIM_023.jpg
278.066	0.937	1	2back	Block1	2back/STIM_023.jpg
282.053	0.76	1	2back	Block1	2back/STIM_024.jpg
285.207	0.738	1	2back	Block1	2back/STIM_024.jpg
289.684	1.065	1	2back	Block1	2back/STIM_024.jpg
292.701	1.417	1	2back	Block1	2back/STIM_025.jpg
297.02	0.652	1	2back	Block1	2back/STIM_025.jpg
300.633	0.778	1	2back	Block1	2back/STIM_025.jpg
305.003	1.217	1	2back	Block1	2back/STIM_026.jpg
309.538	0.592	1	2back	Block1	2back/STIM_026.jpg
313.982	1.303	0	2back	Block1	2back/STIM_026.jpg
317.185	1.618	0	2back	Block1	2back/STIM_027.jpg
320.751	1.226	1	2back	Block1	2back/STIM_027.jpg
325.57	1.264	1	2back	Block1	2back/STIM_027.jpg
329.374	1.443	1	2back	Block1	2back/STIM_028.jpg
333.834	1.209	1	2back	Block1	2back/STIM_028.jpg
338.376	0.878	1	2back	Block1	2back/STIM_028.jpg
341.614	1.381	1	2back	Block1	2back/STIM_029.jpg
346.346	1.486	1	2back	Block1	2back/STIM_029.jpg
350.659	1.288	0	2back	Block1	2back/STIM_029.jpg
354.56	0.863	1	2back	Block1	2back/STIM_030.jpg
358.81	1.05	1	2back	Block1	2back/STIM_030.jpg
362.624	0.975	1	2back	Block1	2back/STIM_030.jpg
366.713	1.14	1	2back	Block1	2back/STIM_031.jpg
370.286	1.249	0	2back	Block1	2back/STIM_031.jpg
374.046	0.791	1	2back	Block1	2back/STIM_031.jpg
376.922	1.039	1	2back	Block1	2back/STIM_032.jpg
380.796	1.127	1	2back	Block1	2back/STIM_032.jpg
384.667	1.11	0	2back	Block1	2back/STIM_032.jpg
389.35	0.959	0	2back	Block1	2back/STIM_033.jpg
392.663	0.673	0	2back	Block1	2back/STIM_033.jpg
395.396	0.982	0	2back	Block1	2back/STIM_033.jpg
398.464	1.066	1	2back	Block1	2back/STIM_034.jpg
403.239	0.684	1	2back	Block1	2back/STIM_034.jpg
406.066	1.174	0	2back	Block1	2back/STIM_034.jpg
409.752	0.8	1	2back	Block1	2back/STIM_035.jpg
413.562	1.315	0	2back	Block1	2back/STIM_035.jpg
418.41	1.309	0	2back	Block1	2back/STIM_035.jpg
422.93	1.509	1	2back	Block1	2back/STIM_036.jpg
428.188	0.966	1	2back	Block1	2back/STIM_036.jpg
431.269	1.149	1	2back	Block1	2back/STIM_036.jpg
435.43	1.526	1	2back	Block1	2back/STIM_037.jpg
438.911	1.521	1	2back	Block1	2back/STIM_037.jpg
442.988	0.946	1	2back	Block1	2back/STIM_037.jpg
446.679	1.434	1	2back	Block1	2back/STIM_038.jpg
451.08	1.221	0	2back	Block1	2back/STIM_038.jpg
456.058	0.698	1	2back	Block1	2back/STIM_038.jpg
459.143	1.112	0	2back	Block1	2back/STIM_039.jpg
462.877	1.425	1	2back	Block1	2back/STIM_039.jpg
466.789	1.265	1	2back	Block1	2back/STIM_039.jpg
470.037	0.909	1	0back	Block1	0back/STIM_000.jpg
474.015	0.851	1	0back	Block1	0back/STIM_000.jpg
477.43	0.688	1	0back	Block1	0back/STIM_000.jpg
480.449	0.54	1	0back	Block1	0back/STIM_001.jpg
482.943	0.89	1	0back	Block1	0back/STIM_001.jpg
486.541	0.691	1	0back	Block1	0back/STIM_001.jpg
490.404	0.518	1	0back	Block1	0back/STIM_002.jpg
492.954	0.892	1	0back	Block1	0back/STIM_002.jpg
496.072	0.853	1	0back	Block1	0back/STIM_002.jpg
499.76	0.727	1	0back	Block1	0back/STIM_003.jpg
504.175	0.658	1	0back	Block1	0back/STIM_003.jpg
507.797	0.882	1	0back	Block1	0back/STIM_003.jpg
510.998	0.694	1	0back	Block1	0back/STIM_004.jpg
514.099	0.433	1	0back	Block1	0back/STIM_004.jpg
518.187	0.769	1	0back	Block1	0back/STIM_004.jpg
522.471	0.558	1	0back	Block1	0back/STIM_005.jpg
525.78	0.881	1	0back	Block1	0back/STIM_005.jpg
530.073	0.519	1	0back	Block1	0back/STIM_005.jpg
533.517	0.812	1	0back	Block1	0back/STIM_006.jpg
536.368	0.563	1	0back	Block1	0back/STIM_006.jpg
540.158	0.862	1	0back	Block1	0back/STIM_006.jpg
544.521	0.756	1	0back	Block1	0back/STIM_007.jpg
547.656	0.86	1	0back	Block1	0back/STIM_007.jpg
550.555	0.479	1	0back	Block1	0back/STIM_007.jpg
553.682	0.4	1	0back	Block1	0back/STIM_008.jpg
556.616	0.805	1	0back	Block1	0back/STIM_008.jpg
560.06	0.534	1	0back	Block1	0back/STIM_008.jpg
563.211	0.906	1	0back	Block1	0back/STIM_009.jpg
566.152	0.89	1	0back	Block1	0back/STIM_009.jpg
570.341	0.901	1	0back	Block1	0back/STIM_009.jpg
573.872	0.818	1	0back	Block1	0back/STIM_010.jpg
576.797	0.447	1	0back	Block1	0back/STIM_010.jpg
579.862	0.454	1	0back	Block1	0back/STIM_010.jpg
583.471	0.843	1	0back	Block1	0back/STIM_011.jpg
587.583	0.904	1	0back	Block1	0back/STIM_011.jpg
591.991	0.521	1	0back	Block1	0back/STIM_011.jpg
595.61	0.426	1	0back	Block1	0back/STIM_012.jpg
599.952	0.797	1	0back	Block1	0back/STIM_012.jpg
604.15	0.825	1	0back	Block1	0back/STIM_012.jpg
607.627	0.858	1	0back	Block1	0back/STIM_013.jpg
611.593	0.764	1	0back	Block1	0back/STIM_013.jpg
615.009	0.702	1	0back	Block1	0back/STIM_013.jpg
619.196	1.016	1	0back	Block1	0back/STIM_014.jpg
622.377	0.511	1	0back	Block1	0back/STIM_014.jpg
624.898	0.853	1	0back	Block1	0back/STIM_014.jpg
628.661	0.71	1	0back	Block1	0back/STIM_015.jpg
632.723	0.672	1	0back	Block1	0back/STIM_015.jpg
635.325	0.531	1	0back	Block1	0back/STIM_015.jpg
637.946	0.9	1	0back	Block1	0back/STIM_016.jpg
641.074	0.598	1	0back	Block1	0back/STIM_016.jpg
644.886	0.718	1	0back	Block1	0back/STIM_016.jpg
649.059	0.924	1	0back	Block1	0back/STIM_017.jpg
653.245	0.666	1	0back	Block1	0back/STIM_017.jpg
656.524	0.826	1	0back	Block1	0back/STIM_017.jpg
660.192	0.418	1	0back	Block1	0back/STIM_018.jpg
663.19	0.559	1	0back	Block1	0back/STIM_018.jpg
666.15	0.872	1	0back	Block1	0back/STIM_018.jpg
669.472	0.807	1	0back	Block1	0back/STIM_019.jpg
672.56	0.842	1	0back	Block1	0back/STIM_019.jpg
676.143	0.713	1	0back	Block1	0back/STIM_019.jpg
679.612	0.985	1	2back	Block2	2back/STIM_000.jpg
683.489	0.517	1	2back	Block2	2back/STIM_000.jpg
687.399	0.709	1	2back	Block2	2back/STIM_000.jpg
691.166	1.09	1	2back	Block2	2back/STIM_001.jpg
695.754	0.776	1	2back	Block2	2back/STIM_001.jpg
698.904	0.889	1	2back	Block2	2back/STIM_001.jpg
703.193	1.303	1	2back	Block2	2back/STIM_002.jpg
706.961	0.797	1	2back	Block2	2back/STIM_002.jpg
710.297	1.188	1	2back	Block2	2back/STIM_002.jpg
713.533	0.688	1	2back	Block2	2back/STIM_003.jpg
716.456	0.834	1	2back	Block2	2back/STIM_003.jpg
719.675	0.534	1	2back	Block2	2back/STIM_003.jpg
723.696	0.994	0	2back	Block2	2back/STIM_004.jpg
727.808	0.997	1	2back	Block2	2back/STIM_004.jpg
732.344	0.694	1	2back	Block2	2back/STIM_004.jpg
735.743	0.738	1	2back	Block2	2back/STIM_005.jpg
739.897	0.804	1	2back	Block2	2back/STIM_005.jpg
743.831	0.621	1	2back	Block2	2back/STIM_005.jpg
747.021	0.873	1	2back	Block2	2back/STIM_006.jpg
750.461	1.004	1	2back	Block2	2back/STIM_006.jpg
754.321	1.02	1	2back	Block2	2back/STIM_006.jpg
758.506	0.979	1	2back	Block2	2back/STIM_007.jpg
762.35	0.937	1	2back	Block2	2back/STIM_007.jpg
766.939	0.544	1	2back	Block2	2back/STIM_007.jpg
771.007	0.908	0	2back	Block2	2back/STIM_008.jpg
774.301	0.87	1	2back	Block2	2back/STIM_008.jpg
778.573	0.962	1	2back	Block2	2back/STIM_008.jpg
783.291	1.083	1	2back	Block2	2back/STIM_009.jpg
786.973	0.834	1	2back	Block2	2back/STIM_009.jpg
790.312	0.918	1	2back	Block2	2back/STIM_009.jpg
794.448	0.544	1	2back	Block2	2back/STIM_010.jpg
798.788	1.079	1	2back	Block2	2back/STIM_010.jpg
802.967	1.146	1	2back	Block2	2back/STIM_010.jpg
807.711	1.014	1	2back	Block2	2back/STIM_011.jpg
812.301	1.231	1	2back	Block2	2back/STIM_011.jpg
816.02	1.072	0	2back	Block2	2back/STIM_011.jpg
819.056	0.719	1	2back	Block2	2back/STIM_012.jpg
822.198	1.153	1	2back	Block2	2back/STIM_012.jpg
826.551	0.503	1	2back	Block2	2back/STIM_012.jpg
829.163	0.954	0	2back	Block2	2back/STIM_013.jpg
832.329	1.06	1	2back	Block2	2back/STIM_013.jpg
835.526	0.61	1	2back	Block2	2back/STIM_013.jpg
838.116	1.245	0	2back	Block2	2back/STIM_014.jpg
842.135	0.798	1	2back	Block2	2back/STIM_014.jpg
845.644	1.148	1	2back	Block2	2back/STIM_014.jpg
849.44	0.94	1	2back	Block2	2back/STIM_015.jpg
853.378	0.857	1	2back	Block2	2back/STIM_015.jpg
857.602	1.178	1	2back	Block2	2back/STIM_015.jpg
862.332	0.695	0	2back	Block2	2back/STIM_016.jpg
865.987	1.239	1	2back	Block2	2back/STIM_016.jpg
871.08	1.102	1	2back	Block2	2back/STIM_016.jpg
874.607	1.233	1	2back	Block2	2back/STIM_017.jpg
879.533	0.944	1	2back	Block2	2back/STIM_017.jpg
884.267	0.713	1	2back	Block2	2back/STIM_017.jpg
888.095	1.234	1	2back	Block2	2back/STIM_018.jpg
892.992	1.048	1	2back	Block2	2back/STIM_018.jpg
896.173	1.048	1	2back	Block2	2back/STIM_018.jpg
900.239	1.357	1	2back	Block2	2back/STIM_019.jpg
905.151	0.815	1	2back	Block2	2back/STIM_019.jpg
907.935	0.784	0	2back	Block2	2back/STIM_019.jpg
911.468	1.141	1	2back	Block2	2back/STIM_020.jpg
915.382	0.847	1	2back	Block2	2back/STIM_020.jpg
919.381	0.886	1	2back	Block2	2back/STIM_020.jpg
923.798	0.646	1	2back	Block2	2back/STIM_021.jpg
927.19	1.031	1	2back	Block2	2back/STIM_021.jpg
930.224	0.912	1	2back	Block2	2back/STIM_021.jpg
934.893	0.692	1	2back	Block2	2back/STIM_022.jpg
938.399	0.765	1	2back	Block2	2back/STIM_022.jpg
942.839	0.98	1	2back	Block2	2back/STIM_022.jpg
945.711	1.319	1	2back	Block2	2back/STIM_023.jpg
949.082	1.14	1	2back	Block2	2back/STIM_023.jpg
952.922	1.095	1	2back	Block2	2back/STIM_023.jpg
956.967	1.052	1	2back	Block2	2back/STIM_024.jpg
961.531	1.035	1	2back	Block2	2back/STIM_024.jpg
966.027	0.978	1	2back	Block2	2back/STIM_024.jpg
969.055	1.155	1	2back	Block2	2back/STIM_025.jpg
973.026	1.093	1	2back	Block2	2back/STIM_025.jpg
977.26	0.968	1	2back	Block2	2back/STIM_025.jpg
980.25	0.802	1	2back	Block2	2back/STIM_026.jpg
983.462	1.007	1	2back	Block2	2back/STIM_026.jpg
988.124	0.875	1	2back	Block2	2back/STIM_026.jpg
992.498	0.84	1	2back	Block2	2back/STIM_027.jpg
995.841	0.831	1	2back	Block2	2back/STIM_027.jpg
999.71	0.981	1	2back	Block2	2back/STIM_027.jpg
1003.066	0.611	0	2back	Block2	2back/STIM_028.jpg
1006.615	1.224	1	2back	Block2	2back/STIM_028.jpg
1010.06	0.682	0	2back	Block2	2back/STIM_028.jpg
1013.704	1.228	1	2back	Block2	2back/STIM_029.jpg
1016.885	0.932	1	2back	Block2	2back/STIM_029.jpg
1019.706	0.662	1	2back	Block2	2back/STIM_029.jpg
1022.719	1.371	1	2back	Block2	2back/STIM_030.jpg
1026.397	0.641	1	2back	Block2	2back/STIM_030.jpg
1029.095	0.986	1	2back	Block2	2back/STIM_030.jpg
1033.748	1.167	1	2back	Block2	2back/STIM_031.jpg
1038.248	0.661	1	2back	Block2	2back/STIM_031.jpg
1041.813	0.961	1	2back	Block2	2back/STIM_031.jpg
1045.842	0.875	0	2back	Block2	2back/STIM_032.jpg
1050.29	0.775	1	2back	Block2	2back/STIM_032.jpg
1054.042	0.942	1	2back	Block2	2back/STIM_032.jpg
1056.907	0.799	1	2back	Block2	2back/STIM_033.jpg
1059.802	1.167	1	2back	Block2	2back/STIM_033.jpg
1064.52	0.934	1	2back	Block2	2back/STIM_033.jpg
1068.384	0.919	1	2back	Block2	2back/STIM_034.jpg
1071.789	1.107	1	2back	Block2	2back/STIM_034.jpg
1076.557	1.161	0	2back	Block2	2back/STIM_034.jpg
1079.61	0.876	1	2back	Block2	2back/STIM_035.jpg
1083.142	0.9	1	2back	Block2	2back/STIM_035.jpg
1087.569	1.144	1	2back	Block2	2back/STIM_035.jpg
1091.046	1.087	1	2back	Block2	2back/STIM_036.jpg
1095.093	0.975	1	2back	Block2	2back/STIM_036.jpg
1098.332	0.854	1	2back	Block2	2back/STIM_036.jpg
1102.56	1.117	1	2back	Block2	2back/STIM_037.jpg
1105.858	0.563	1	2back	Block2	2back/STIM_037.jpg
1109.667	0.5	1	2back	Block2	2back/STIM_037.jpg
1114.142	1.117	1	2back	Block2	2back/STIM_038.jpg
1118.925	0.913	1	2back	Block2	2back/STIM_038.jpg
1123.506	0.83	0	2back	Block2	2back/STIM_038.jpg
1126.611	1.172	1	2back	Block2	2back/STIM_039.jpg
1130.764	0.649	1	2back	Block2	2back/STIM_039.jpg
1134.332	0.926	1	2back	Block2	2back/STIM_039.jpg
1138.855	0.827	1	0back	Block2	0back/STIM_000.jpg
1142.122	0.764	1	0back	Block2	0back/STIM_000.jpg
1145.026	0.622	1	0back	Block2	0back/STIM_000.jpg
1149.233	0.791	1	0back	Block2	0back/STIM_001.jpg
1153.166	0.81	1	0back	Block2	0back/STIM_001.jpg
1157.686	0.403	1	0back	Block2	0back/STIM_001.jpg
1160.644	0.503	1	0back	Block2	0back/STIM_002.jpg
1164.018	0.738	1	0back	Block2	0back/STIM_002.jpg
1167.688	0.656	1	0back	Block2	0back/STIM_002.jpg
1171.933	0.665	0	0back	Block2	0back/STIM_003.jpg
1176.39	0.657	1	0back	Block2	0back/STIM_003.jpg
1180.407	0.404	1	0back	Block2	0back/STIM_003.jpg
1183.298	0.636	1	0back	Block2	0back/STIM_004.jpg
1187.039	0.508	1	0back	Block2	0back/STIM_004.jpg
1191.421	0.592	1	0back	Block2	0back/STIM_004.jpg
1195.641	0.864	1	0back	Block2	0back/STIM_005.jpg
1200.05	0.628	1	0back	Block2	0back/STIM_005.jpg
1203.385	0.595	1	0back	Block2	0back/STIM_005.jpg
1207.918	0.792	1	0back	Block2	0back/STIM_006.jpg
1212.103	0.758	1	0back	Block2	0back/STIM_006.jpg
1216.126	0.576	1	0back	Block2	0back/STIM_006.jpg
1218.814	0.662	1	0back	Block2	0back/STIM_007.jpg
1223.349	0.835	1	0back	Block2	0back/STIM_007.jpg
1227.446	0.454	1	0back	Block2	0back/STIM_007.jpg
1230.12	0.744	1	0back	Block2	0back/STIM_008.jpg
1234.262	0.803	1	0back	Block2	0back/STIM_008.jpg
1238.503	0.666	1	0back	Block2	0back/STIM_008.jpg
1242.883	0.501	1	0back	Block2	0back/STIM_009.jpg
1246.205	0.766	1	0back	Block2	0back/STIM_009.jpg
1248.923	0.72	1	0back	Block2	0back/STIM_009.jpg
1252.222	0.773	0	0back	Block2	0back/STIM_010.jpg
1255.448	0.809	1	0back	Block2	0back/STIM_010.jpg
1259.364	0.662	1	0back	Block2	0back/STIM_010.jpg
1263.716	0.778	1	0back	Block2	0back/STIM_011.jpg
1266.974	0.762	1	0back	Block2	0back/STIM_011.jpg
1270.788	0.945	1	0back	Block2	0back/STIM_011.jpg
1275.382	0.707	1	0back	Block2	0back/STIM_012.jpg
1279.874	0.596	1	0back	Block2	0back/STIM_012.jpg
1284.14	0.567	1	0back	Block2	0back/STIM_012.jpg
1288.091	0.557	1	0back	Block2	0back/STIM_013.jpg
1292.076	0.672	1	0back	Block2	0back/STIM_013.jpg
1296.677	0.526	1	0back	Block2	0back/STIM_013.jpg
1299.58	0.833	1	0back	Block2	0back/STIM_014.jpg
1302.557	0.908	1	0back	Block2	0back/STIM_014.jpg
1306.255	0.736	1	0back	Block2	0back/STIM_014.jpg
1310.085	0.454	0	0back	Block2	0back/STIM_015.jpg
1312.904	0.549	1	0back	Block2	0back/STIM_015.jpg
1317.435	0.467	0	0back	Block2	0back/STIM_015.jpg
1321.088	0.694	1	0back	Block2	0back/STIM_016.jpg
1325.183	0.654	1	0back	Block2	0back/STIM_016.jpg
1328.822	0.831	1	0back	Block2	0back/STIM_016.jpg
1331.645	0.923	1	0back	Block2	0back/STIM_017.jpg
1336.225	0.831	1	0back	Block2	0back/STIM_017.jpg
1340.897	0.808	1	0back	Block2	0back/STIM_017.jpg
1344.557	0.496	1	0back	Block2	0back/STIM_018.jpg
1347.193	0.909	1	0back	Block2	0back/STIM_018.jpg
1350.638	0.705	1	0back	Block2	0back/STIM_018.jpg
1355.281	0.73	1	0back	Block2	0back/STIM_019.jpg
1358.267	0.821	1	0back	Block2	0back/STIM_019.jpg
1362.307	0.591	1	0back	Block2	0back/STIM_019.jpg
1365.11	1.202	1	2back	Block3	2back/STIM_000.jpg
1368.422	0.702	1	2back	Block3	2back/STIM_000.jpg
1372.774	0.474	1	2back	Block3	2back/STIM_000.jpg
1376.746	1.095	1	2back	Block3	2back/STIM_001.jpg
1381.186	0.83	1	2back	Block3	2back/STIM_001.jpg
1384.716	0.722	1	2back	Block3	2back/STIM_001.jpg
1388.44	1.037	1	2back	Block3	2back/STIM_002.jpg
1392.068	0.882	1	2back	Block3	2back/STIM_002.jpg
1396.664	0.895	1	2back	Block3	2back/STIM_002.jpg
1399.604	0.532	1	2back	Block3	2back/STIM_003.jpg
1402.383	0.924	1	2back	Block3	2back/STIM_003.jpg
1406.28	0.996	0	2back	Block3	2back/STIM_003.jpg
1411.164	0.948	1	2back	Block3	2back/STIM_004.jpg
1416.013	0.8	1	2back	Block3	2back/STIM_004.jpg
1419.474	0.942	1	2back	Block3	2back/STIM_004.jpg
1422.367	0.606	1	2back	Block3	2back/STIM_005.jpg
1425.603	0.698	1	2back	Block3	2back/STIM_005.jpg
1429.081	0.875	1	2back	Block3	2back/STIM_005.jpg
1431.949	0.599	0	2back	Block3	2back/STIM_006.jpg
1435.776	0.595	1	2back	Block3	2back/STIM_006.jpg
1439.94	0.898	1	2back	Block3	2back/STIM_006.jpg
1442.813	0.832	1	2back	Block3	2back/STIM_007.jpg
1445.918	0.958	1	2back	Block3	2back/STIM_007.jpg
1450.31	0.642	1	2back	Block3	2back/STIM_007.jpg
1453.349	0.961	0	2back	Block3	2back/STIM_008.jpg
1456.483	0.665	1	2back	Block3	2back/STIM_008.jpg
1459.915	0.829	1	2back	Block3	2back/STIM_008.jpg
1463.314	1.106	1	2back	Block3	2back/STIM_009.jpg
1468.145	0.968	1	2back	Block3	2back/STIM_009.jpg
1471.646	0.55	1	2back	Block3	2back/STIM_009.jpg
1475.578	1.124	1	2back	Block3	2back/STIM_010.jpg
1480.354	0.728	1	2back	Block3	2back/STIM_010.jpg
1484.154	0.528	1	2back	Block3	2back/STIM_010.jpg
1486.824	0.467	0	2back	Block3	2back/STIM_011.jpg
1491.041	0.658	1	2back	Block3	2back/STIM_011.jpg
1494.942	0.487	0	2back	Block3	2back/STIM_011.jpg
1497.64	0.596	1	2back	Block3	2back/STIM_012.jpg
1501.898	1.137	1	2back	Block3	2back/STIM_012.jpg
1505.872	0.554	1	2back	Block3	2back/STIM_012.jpg
1508.508	0.875	1	2back	Block3	2back/STIM_013.jpg
1512.92	1.02	1	2back	Block3	2back/STIM_013.jpg
1516.568	0.924	1	2back	Block3	2back/STIM_013.jpg
1521.404	0.616	1	2back	Block3	2back/STIM_014.jpg
1525.575	0.864	1	2back	Block3	2back/STIM_014.jpg
1529.667	0.66	1	2back	Block3	2back/STIM_014.jpg
1533.261	0.69	0	2back	Block3	2back/STIM_015.jpg
1536.726	0.513	1	2back	Block3	2back/STIM_015.jpg
1541.14	0.55	1	2back	Block3	2back/STIM_015.jpg
1543.769	0.979	1	2back	Block3	2back/STIM_016.jpg
1548.112	0.432	1	2back	Block3	2back/STIM_016.jpg
1552.298	0.907	1	2back	Block3	2back/STIM_016.jpg
1556.229	0.545	1	2back	Block3	2back/STIM_017.jpg
1559.573	0.792	1	2back	Block3	2back/STIM_017.jpg
1563.326	1.045	1	2back	Block3	2back/STIM_017.jpg
1566.491	0.858	1	2back	Block3	2back/STIM_018.jpg
1571.173	0.9	1	2back	Block3	2back/STIM_018.jpg
1575.142	0.77	1	2back	Block3	2back/STIM_018.jpg
1579.206	0.851	1	2back	Block3	2back/STIM_019.jpg
1581.904	0.752	1	2back	Block3	2back/STIM_019.jpg
1585.468	0.877	1	2back	Block3	2back/STIM_019.jpg
1588.576	0.45	1	2back	Block3	2back/STIM_020.jpg
1592.176	0.887	1	2back	Block3	2back/STIM_020.jpg
1595.801	0.987	1	2back	Block3	2back/STIM_020.jpg
1599.175	1.123	1	2back	Block3	2back/STIM_021.jpg
1603.027	0.927	1	2back	Block3	2back/STIM_021.jpg
1607.33	0.83	1	2back	Block3	2back/STIM_021.jpg
1610.638	0.684	1	2back	Block3	2back/STIM_022.jpg
1615.197	0.649	1	2back	Block3	2back/STIM_022.jpg
1619.717	0.852	1	2back	Block3	2back/STIM_022.jpg
1622.97	1.042	1	2back	Block3	2back/STIM_023.jpg
1627.487	0.632	1	2back	Block3	2back/STIM_023.jpg
1630.398	0.838	1	2back	Block3	2back/STIM_023.jpg
1634.0	0.98	1	2back	Block3	2back/STIM_024.jpg
1637.241	0.976	1	2back	Block3	2back/STIM_024.jpg
1641.549	0.922	1	2back	Block3	2back/STIM_024.jpg
1645.524	0.961	1	2back	Block3	2back/STIM_025.jpg
1648.446	0.876	1	2back	Block3	2back/STIM_025.jpg
1652.851	0.418	1	2back	Block3	2back/STIM_025.jpg
1656.23	1.006	1	2back	Block3	2back/STIM_026.jpg
1659.276	0.722	1	2back	Block3	2back/STIM_026.jpg
1662.609	0.587	1	2back	Block3	2back/STIM_026.jpg
1665.842	0.696	1	2back	Block3	2back/STIM_027.jpg
1669.198	0.632	1	2back	Block3	2back/STIM_027.jpg
1673.638	0.593	1	2back	Block3	2back/STIM_027.jpg
1676.317	0.59	1	2back	Block3	2back/STIM_028.jpg
1680.78	0.998	1	2back	Block3	2back/STIM_028.jpg
1684.883	1.047	1	2back	Block3	2back/STIM_028.jpg
1688.59	1.077	1	2back	Block3	2back/STIM_029.jpg
1692.4	0.811	1	2back	Block3	2back/STIM_029.jpg
1696.031	0.805	1	2back	Block3	2back/STIM_029.jpg
1699.772	0.603	1	2back	Block3	2back/STIM_030.jpg
1703.984	0.513	1	2back	Block3	2back/STIM_030.jpg
1706.96	0.891	1	2back	Block3	2back/STIM_030.jpg
1711.496	0.961	1	2back	Block3	2back/STIM_031.jpg
1714.906	1.052	1	2back	Block3	2back/STIM_031.jpg
1718.661	0.958	1	2back	Block3	2back/STIM_031.jpg
1722.662	0.895	1	2back	Block3	2back/STIM_032.jpg
1726.774	0.863	1	2back	Block3	2back/STIM_032.jpg
1729.886	0.944	1	2back	Block3	2back/STIM_032.jpg
1734.661	0.801	1	2back	Block3	2back/STIM_033.jpg
1739.065	0.802	1	2back	Block3	2back/STIM_033.jpg
1742.6	0.617	1	2back	Block3	2back/STIM_033.jpg
1746.658	0.834	1	2back	Block3	2back/STIM_034.jpg
1750.886	1.065	1	2back	Block3	2back/STIM_034.jpg
1754.181	0.802	1	2back	Block3	2back/STIM_034.jpg
1757.768	0.68	1	2back	Block3	2back/STIM_035.jpg
1761.416	0.867	1	2back	Block3	2back/STIM_035.jpg
1766.054	0.587	1	2back	Block3	2back/STIM_035.jpg
1768.96	1.155	1	2back	Block3	2back/STIM_036.jpg
1772.122	0.932	1	2back	Block3	2back/STIM_036.jpg
1775.896	0.742	1	2back	Block3	2back/STIM_036.jpg
1780.399	0.871	1	2back	Block3	2back/STIM_037.jpg
1783.923	0.479	1	2back	Block3	2back/STIM_037.jpg
1787.927	0.716	1	2back	Block3	2back/STIM_037.jpg
1792.082	0.933	1	2back	Block3	2back/STIM_038.jpg
1795.063	0.715	1	2back	Block3	2back/STIM_038.jpg
1798.743	0.512	1	2back	Block3	2back/STIM_038.jpg
1801.66	0.878	1	2back	Block3	2back/STIM_039.jpg
1806.298	0.907	1	2back	Block3	2back/STIM_039.jpg
1809.401	1.007	1	2back	Block3	2back/STIM_039.jpg
1814.248	0.512	1	0back	Block3	0back/STIM_000.jpg
1818.509	0.505	1	0back	Block3	0back/STIM_000.jpg
1822.743	0.586	1	0back	Block3	0back/STIM_000.jpg
1825.48	0.698	1	0back	Block3	0back/STIM_001.jpg
1828.806	0.938	1	0back	Block3	0back/STIM_001.jpg
1831.713	0.816	1	0back	Block3	0back/STIM_001.jpg
1836.213	0.918	1	0back	Block3	0back/STIM_002.jpg
1839.049	0.527	1	0back	Block3	0back/STIM_002.jpg
1843.393	0.641	1	0back	Block3	0back/STIM_002.jpg
1846.027	0.928	1	0back	Block3	0back/STIM_003.jpg
1849.492	0.739	1	0back	Block3	0back/STIM_003.jpg
1852.158	0.54	1	0back	Block3	0back/STIM_003.jpg
1855.917	0.625	1	0back	Block3	0back/STIM_004.jpg
1859.933	0.76	1	0back	Block3	0back/STIM_004.jpg
1863.255	0.821	1	0back	Block3	0back/STIM_004.jpg
1866.652	0.658	1	0back	Block3	0back/STIM_005.jpg
1870.854	0.691	1	0back	Block3	0back/STIM_005.jpg
1875.427	0.57	1	0back	Block3	0back/STIM_005.jpg
1878.364	0.825	1	0back	Block3	0back/STIM_006.jpg
1881.127	0.44	1	0back	Block3	0back/STIM_006.jpg
1883.742	0.628	1	0back	Block3	0back/STIM_006.jpg
1886.612	0.514	1	0back	Block3	0back/STIM_007.jpg
1890.252	0.685	1	0back	Block3	0back/STIM_007.jpg
1893.919	0.68	1	0back	Block3	0back/STIM_007.jpg
1896.989	0.403	1	0back	Block3	0back/STIM_008.jpg
1901.009	0.558	1	0back	Block3	0back/STIM_008.jpg
1903.972	0.646	1	0back	Block3	0back/STIM_008.jpg
1906.834	0.6	1	0back	Block3	0back/STIM_009.jpg
1911.225	0.457	1	0back	Block3	0back/STIM_009.jpg
1915.491	0.654	1	0back	Block3	0back/STIM_009.jpg
1919.206	0.578	1	0back	Block3	0back/STIM_010.jpg
1922.17	0.639	1	0back	Block3	0back/STIM_010.jpg
1925.951	0.617	1	0back	Block3	0back/STIM_010.jpg
1928.547	0.649	1	0back	Block3	0back/STIM_011.jpg
1931.469	0.821	1	0back	Block3	0back/STIM_011.jpg
1935.78	0.534	1	0back	Block3	0back/STIM_011.jpg
1939.885	0.485	1	0back	Block3	0back/STIM_012.jpg
1943.793	0.643	1	0back	Block3	0back/STIM_012.jpg
1947.561	0.513	1	0back	Block3	0back/STIM_012.jpg
1950.719	0.848	1	0back	Block3	0back/STIM_013.jpg
1954.92	0.548	1	0back	Block3	0back/STIM_013.jpg
1957.953	0.821	1	0back	Block3	0back/STIM_013.jpg
1960.781	0.674	1	0back	Block3	0back/STIM_014.jpg
1963.608	0.63	1	0back	Block3	0back/STIM_014.jpg
1966.348	0.818	1	0back	Block3	0back/STIM_014.jpg
1970.545	0.462	1	0back	Block3	0back/STIM_015.jpg
1974.746	0.754	1	0back	Block3	0back/STIM_015.jpg
1979.211	0.814	1	0back	Block3	0back/STIM_015.jpg
1983.767	0.696	1	0back	Block3	0back/STIM_016.jpg
1987.066	0.67	1	0back	Block3	0back/STIM_016.jpg
1989.777	0.894	1	0back	Block3	0back/STIM_016.jpg
1993.765	0.453	1	0back	Block3	0back/STIM_017.jpg
1996.646	0.758	1	0back	Block3	0back/STIM_017.jpg
1999.899	0.794	1	0back	Block3	0back/STIM_017.jpg
2003.87	0.489	1	0back	Block3	0back/STIM_018.jpg
2006.921	0.74	1	0back	Block3	0back/STIM_018.jpg
2011.416	0.587	1	0back	Block3	0back/STIM_018.jpg
2015.31	0.695	1	0back	Block3	0back/STIM_019.jpg
2019.517	0.709	1	0back	Block3	0back/STIM_019.jpg
2023.704	0.449	0	0back	Block3	0back/STIM_019.jpg
2026.984	0.718	1	2back	Block4	2back/STIM_000.jpg
2031.093	0.853	1	2back	Block4	2back/STIM_000.jpg
2034.437	0.643	1	2back	Block4	2back/STIM_000.jpg
2038.725	0.913	1	2back	Block4	2back/STIM_001.jpg
2042.215	0.641	1	2back	Block4	2back/STIM_001.jpg
2045.602	0.497	1	2back	Block4	2back/STIM_001.jpg
2048.582	0.644	1	2back	Block4	2back/STIM_002.jpg
2052.7	0.787	1	2back	Block4	2back/STIM_002.jpg
2057.366	0.635	1	2back	Block4	2back/STIM_002.jpg
2060.643	0.63	1	2back	Block4	2back/STIM_003.jpg
2063.77	0.855	1	2back	Block4	2back/STIM_003.jpg
2068.23	0.908	1	2back	Block4	2back/STIM_003.jpg
2071.08	0.876	1	2back	Block4	2back/STIM_004.jpg
2074.29	0.695	1	2back	Block4	2back/STIM_004.jpg
2078.19	0.608	1	2back	Block4	2back/STIM_004.jpg
2081.206	0.576	1	2back	Block4	2back/STIM_005.jpg
2084.406	0.848	1	2back	Block4	2back/STIM_005.jpg
2088.365	0.856	1	2back	Block4	2back/STIM_005.jpg
2091.804	0.57	1	2back	Block4	2back/STIM_006.jpg
2094.669	0.771	1	2back	Block4	2back/STIM_006.jpg
2098.182	1.108	1	2back	Block4	2back/STIM_006.jpg
2101.305	0.376	1	2back	Block4	2back/STIM_007.jpg
2105.336	0.9	1	2back	Block4	2back/STIM_007.jpg
2108.636	0.78	1	2back	Block4	2back/STIM_007.jpg
2112.437	0.623	1	2back	Block4	2back/STIM_008.jpg
2115.465	0.931	1	2back	Block4	2back/STIM_008.jpg
2119.315	0.774	1	2back	Block4	2back/STIM_008.jpg
2122.272	0.997	1	2back	Block4	2back/STIM_009.jpg
2126.011	0.593	0	2back	Block4	2back/STIM_009.jpg
2129.722	1.107	1	2back	Block4	2back/STIM_009.jpg
2133.485	0.795	1	2back	Block4	2back/STIM_010.jpg
2136.962	0.482	1	2back	Block4	2back/STIM_010.jpg
2140.702	1.028	1	2back	Block4	2back/STIM_010.jpg
2144.94	0.965	1	2back	Block4	2back/STIM_011.jpg
2149.561	0.594	1	2back	Block4	2back/STIM_011.jpg
2152.96	1.09	1	2back	Block4	2back/STIM_011.jpg
2157.814	0.962	1	2back	Block4	2back/STIM_012.jpg
2161.957	0.9	1	2back	Block4	2back/STIM_012.jpg
2164.856	0.633	1	2back	Block4	2back/STIM_012.jpg
2168.863	0.655	1	2back	Block4	2back/STIM_013.jpg
2172.523	0.57	1	2back	Block4	2back/STIM_013.jpg
2175.543	0.861	1	2back	Block4	2back/STIM_013.jpg
2178.587	0.572	1	2back	Block4	2back/STIM_014.jpg
2182.625	0.658	1	2back	Block4	2back/STIM_014.jpg
2186.722	0.779	1	2back	Block4	2back/STIM_014.jpg
2190.361	0.858	0	2back	Block4	2back/STIM_015.jpg
2194.202	0.843	1	2back	Block4	2back/STIM_015.jpg
2197.349	1.076	1	2back	Block4	2back/STIM_015.jpg
2201.392	0.837	1	2back	Block4	2back/STIM_016.jpg
2205.485	0.618	1	2back	Block4	2back/STIM_016.jpg
2209.24	0.475	1	2back	Block4	2back/STIM_016.jpg
2213.585	0.493	1	2back	Block4	2back/STIM_017.jpg
2217.82	0.778	1	2back	Block4	2back/STIM_017.jpg
2220.968	0.916	1	2back	Block4	2back/STIM_017.jpg
2224.523	0.533	1	2back	Block4	2back/STIM_018.jpg
2228.364	0.491	1	2back	Block4	2back/STIM_018.jpg
2231.846	0.724	1	2back	Block4	2back/STIM_018.jpg
2234.855	0.879	1	2back	Block4	2back/STIM_019.jpg
2238.912	0.526	1	2back	Block4	2back/STIM_019.jpg
2242.105	1.086	1	2back	Block4	2back/STIM_019.jpg
2245.132	0.901	1	2back	Block4	2back/STIM_020.jpg
2248.69	0.776	1	2back	Block4	2back/STIM_020.jpg
2252.408	0.677	1	2back	Block4	2back/STIM_020.jpg
2255.362	0.932	1	2back	Block4	2back/STIM_021.jpg
2260.193	0.615	1	2back	Block4	2back/STIM_021.jpg
2264.669	0.827	1	2back	Block4	2back/STIM_021.jpg
2267.556	0.801	1	2back	Block4	2back/STIM_022.jpg
2270.87	1.092	1	2back	Block4	2back/STIM_022.jpg
2275.05	1.085	1	2back	Block4	2back/STIM_022.jpg
2278.737	0.883	1	2back	Block4	2back/STIM_023.jpg
2282.864	0.675	1	2back	Block4	2back/STIM_023.jpg
2286.222	1.104	1	2back	Block4	2back/STIM_023.jpg
2291.091	0.795	1	2back	Block4	2back/STIM_024.jpg
2294.651	0.632	1	2back	Block4	2back/STIM_024.jpg
2298.836	1.047	1	2back	Block4	2back/STIM_024.jpg
2303.651	1.076	1	2back	Block4	2back/STIM_025.jpg
2308.269	0.816	1	2back	Block4	2back/STIM_025.jpg
2311.484	0.515	1	2back	Block4	2back/STIM_025.jpg
2314.416	0.949	1	2back	Block4	2back/STIM_026.jpg
2317.88	0.607	1	2back	Block4	2back/STIM_026.jpg
2322.231	0.643	1	2back	Block4	2back/STIM_026.jpg
2326.817	0.577	1	2back	Block4	2back/STIM_027.jpg
2331.258	0.54	1	2back	Block4	2back/STIM_027.jpg
2334.814	0.526	1	2back	Block4	2back/STIM_027.jpg
2337.409	0.695	1	2back	Block4	2back/STIM_028.jpg
2341.523	0.724	1	2back	Block4	2back/STIM_028.jpg
2345.102	0.886	1	2back	Block4	2back/STIM_028.jpg
2347.906	0.981	1	2back	Block4	2back/STIM_029.jpg
2352.682	0.727	1	2back	Block4	2back/STIM_029.jpg
2356.862	0.656	1	2back	Block4	2back/STIM_029.jpg
2360.674	0.516	1	2back	Block4	2back/STIM_030.jpg
2363.383	0.938	1	2back	Block4	2back/STIM_030.jpg
2367.902	0.597	1	2back	Block4	2back/STIM_030.jpg
2371.43	0.421	1	2back	Block4	2back/STIM_031.jpg
2375.453	1.045	1	2back	Block4	2back/STIM_031.jpg
2379.529	0.572	1	2back	Block4	2back/STIM_031.jpg
2384.054	0.833	1	2back	Block4	2back/STIM_032.jpg
2386.905	0.592	1	2back	Block4	2back/STIM_032.jpg
2390.227	0.608	1	2back	Block4	2back/STIM_032.jpg
2394.224	0.865	1	2back	Block4	2back/STIM_033.jpg
2398.447	0.583	1	2back	Block4	2back/STIM_033.jpg
2401.985	0.73	1	2back	Block4	2back/STIM_033.jpg
2405.195	0.786	1	2back	Block4	2back/STIM_034.jpg
2409.404	0.709	0	2back	Block4	2back/STIM_034.jpg
2413.875	0.71	1	2back	Block4	2back/STIM_034.jpg
2417.429	0.691	1	2back	Block4	2back/STIM_035.jpg
2421.876	0.601	1	2back	Block4	2back/STIM_035.jpg
2425.954	0.388	1	2back	Block4	2back/STIM_035.jpg
2429.25	0.495	1	2back	Block4	2back/STIM_036.jpg
2432.897	1.057	1	2back	Block4	2back/STIM_036.jpg
2436.454	0.891	1	2back	Block4	2back/STIM_036.jpg
2440.923	0.979	1	2back	Block4	2back/STIM_037.jpg
2443.931	1.078	1	2back	Block4	2back/STIM_037.jpg
2448.777	0.984	1	2back	Block4	2back/STIM_037.jpg
2452.337	0.558	1	2back	Block4	2back/STIM_038.jpg
2455.809	0.489	1	2back	Block4	2back/STIM_038.jpg
2459.821	0.803	1	2back	Block4	2back/STIM_038.jpg
2463.168	0.761	1	2back	Block4	2back/STIM_039.jpg
2467.842	0.873	1	2back	Block4	2back/STIM_039.jpg
2471.019	0.508	1	2back	Block4	2back/STIM_039.jpg
2475.108	0.53	1	0back	Block4	0back/STIM_000.jpg
2479.031	0.875	1	0back	Block4	0back/STIM_000.jpg
2482.154	0.591	1	0back	Block4	0back/STIM_000.jpg
2485.609	0.666	1	0back	Block4	0back/STIM_001.jpg
2488.302	0.77	1	0back	Block4	0back/STIM_001.jpg
2492.623	0.812	1	0back	Block4	0back/STIM_001.jpg
2496.177	0.477	1	0back	Block4	0back/STIM_002.jpg
2499.74	0.814	1	0back	Block4	0back/STIM_002.jpg
2503.985	0.461	1	0back	Block4	0back/STIM_002.jpg
2507.128	0.665	1	0back	Block4	0back/STIM_003.jpg
2510.34	0.471	1	0back	Block4	0back/STIM_003.jpg
2513.938	0.841	1	0back	Block4	0back/STIM_003.jpg
2518.172	0.722	1	0back	Block4	0back/STIM_004.jpg
2522.687	0.658	1	0back	Block4	0back/STIM_004.jpg
2527.25	0.696	1	0back	Block4	0back/STIM_004.jpg
2530.332	0.635	1	0back	Block4	0back/STIM_005.jpg
2534.055	0.743	1	0back	Block4	0back/STIM_005.jpg
2538.24	0.897	1	0back	Block4	0back/STIM_005.jpg
2541.401	0.716	1	0back	Block4	0back/STIM_006.jpg
2545.219	0.579	1	0back	Block4	0back/STIM_006.jpg
2548.725	0.79	1	0back	Block4	0back/STIM_006.jpg
2553.101	0.624	1	0back	Block4	0back/STIM_007.jpg
2556.476	0.503	1	0back	Block4	0back/STIM_007.jpg
2560.615	0.502	1	0back	Block4	0back/STIM_007.jpg
2564.308	0.977	1	0back	Block4	0back/STIM_008.jpg
2568.1	0.627	1	0back	Block4	0back/STIM_008.jpg
2572.523	0.487	1	0back	Block4	0back/STIM_008.jpg
2575.874	0.643	1	0back	Block4	0back/STIM_009.jpg
2579.916	0.708	1	0back	Block4	0back/STIM_009.jpg
2584.205	0.436	1	0back	Block4	0back/STIM_009.jpg
2588.376	0.919	1	0back	Block4	0back/STIM_010.jpg
2591.203	0.557	1	0back	Block4	0back/STIM_010.jpg
2594.786	0.857	1	0back	Block4	0back/STIM_010.jpg
2598.21	0.917	1	0back	Block4	0back/STIM_011.jpg
2601.527	0.534	1	0back	Block4	0back/STIM_011.jpg
2604.862	0.495	1	0back	Block4	0back/STIM_011.jpg
2607.428	0.728	1	0back	Block4	0back/STIM_012.jpg
2611.613	0.736	0	0back	Block4	0back/STIM_012.jpg
2615.258	0.642	1	0back	Block4	0back/STIM_012.jpg
2619.194	0.75	1	0back	Block4	0back/STIM_013.jpg
2622.051	0.801	1	0back	Block4	0back/STIM_013.jpg
2626.334	0.529	1	0back	Block4	0back/STIM_013.jpg
2630.423	0.66	1	0back	Block4	0back/STIM_014.jpg
2633.49	0.52	1	0back	Block4	0back/STIM_014.jpg
2636.918	0.545	1	0back	Block4	0back/STIM_014.jpg
2639.669	0.613	1	0back	Block4	0back/STIM_015.jpg
2643.906	0.543	1	0back	Block4	0back/STIM_015.jpg
2648.221	0.588	1	0back	Block4	0back/STIM_015.jpg
2651.076	0.907	1	0back	Block4	0back/STIM_016.jpg
2655.143	0.624	1	0back	Block4	0back/STIM_016.jpg
2657.851	0.891	1	0back	Block4	0back/STIM_016.jpg
2661.338	0.812	1	0back	Block4	0back/STIM_017.jpg
2664.448	0.656	1	0back	Block4	0back/STIM_017.jpg
2668.226	0.518	1	0back	Block4	0back/STIM_017.jpg
2671.679	0.505	1	0back	Block4	0back/STIM_018.jpg
2675.522	0.569	1	0back	Block4	0back/STIM_018.jpg
2678.894	0.832	1	0back	Block4	0back/STIM_018.jpg
2682.477	0.93	1	0back	Block4	0back/STIM_019.jpg
2687.138	0.555	1	0back	Block4	0back/STIM_019.jpg
2689.961	0.784	1	0back	Block4	0back/STIM_019.jpg
