onset	duration	response_time_ms	trial_type	learning_stage	stimulus	response_port
0.0	1.306	1305.5	2back	Block1	2back/STIM_000.jpg	99
3.976	1.276	1276.1	2back	Block1	2back/STIM_000.jpg	99
8.045	1.087	1087.2	2back	Block1	2back/STIM_000.jpg	99
12.826	0.786	785.9	2back	Block1	2back/STIM_001.jpg	100
16.88	1.396	1396.3	2back	Block1	2back/STIM_001.jpg	100
21.526	1.268	1268.5	2back	Block1	2back/STIM_001.jpg	99
26.309	0.871	870.9	2back	Block1	2back/STIM_002.jpg	100
31.017	1.383	1382.9	2back	Block1	2back/STIM_002.jpg	99
34.413	0.618	617.9	2back	Block1	2back/STIM_002.jpg	99
37.761	1.175	1175.1	2back	Block1	2back/STIM_003.jpg	100
41.872	1.565	1564.6	2back	Block1	2back/STIM_003.jpg	99
45.587	0.765	765.4	2back	Block1	2back/STIM_003.jpg	99
48.679	1.156	1155.6	2back	Block1	2back/STIM_004.jpg	99
53.541	1.475	1475.3	2back	Block1	2back/STIM_004.jpg	100
58.224	1.246	1246.4	2back	Block1	2back/STIM_004.jpg	99
61.475	1.245	1244.9	2back	Block1	2back/STIM_005.jpg	99
66.188	0.924	924.4	2back	Block1	2back/STIM_005.jpg	100
70.481	1.023	1022.8	2back	Block1	2back/STIM_005.jpg	99
74.17	1.377	1377.0	2back	Block1	2back/STIM_006.jpg	100
77.541	0.727	727.3	2back	Block1	2back/STIM_006.jpg	99
80.237	0.862	862.3	2back	Block1	2back/STIM_006.jpg	99
84.171	1.582	1581.8	2back	Block1	2back/STIM_007.jpg	100
88.357	1.062	1061.7	2back	Block1	2back/STIM_007.jpg	99
92.061	1.386	1386.3	2back	Block1	2back/STIM_007.jpg	100
96.704	1.227	1226.9	2back	Block1	2back/STIM_008.jpg	100
100.553	1.34	1339.7	2back	Block1	2back/STIM_008.jpg	99
105.299	0.867	866.6	2back	Block1	2back/STIM_008.jpg	100
108.053	0.66	660.1	2back	Block1	2back/STIM_009.jpg	100
110.749	1.382	1381.5	2back	Block1	2back/STIM_009.jpg	99
115.812	0.946	945.6	2back	Block1	2back/STIM_009.jpg	100
118.873	1.284	1283.9	2back	Block1	2back/STIM_010.jpg	99
123.863	1.059	1059.0	2back	Block1	2back/STIM_010.jpg	99
127.582	0.95	950.4	2back	Block1	2back/STIM_010.jpg	100
130.703	1.042	1042.5	2back	Block1	2back/STIM_011.jpg	100
133.892	1.225	1225.0	2back	Block1	2back/STIM_011.jpg	100
137.4	1.472	1471.6	2back	Block1	2back/STIM_011.jpg	100
140.934	1.319	1318.8	2back	Block1	2back/STIM_012.jpg	99
144.992	0.705	704.7	2back	Block1	2back/STIM_012.jpg	99
149.543	1.066	1065.6	2back	Block1	2back/STIM_012.jpg	99
154.023	1.343	1342.7	2back	Block1	2back/STIM_013.jpg	100
158.882	1.457	1457.0	2back	Block1	2back/STIM_013.jpg	100
163.389	0.799	799.1	2back	Block1	2back/STIM_013.jpg	100
166.103	1.039	1039.4	2back	Block1	2back/STIM_014.jpg	99
169.407	1.194	1193.7	2back	Block1	2back/STIM_014.jpg	99
174.004	0.878	877.8	2back	Block1	2back/STIM_014.jpg	99
178.534	1.097	1096.6	2back	Block1	2back/STIM_015.jpg	100
182.584	0.946	946.5	2back	Block1	2back/STIM_015.jpg	100
185.919	1.247	1247.2	2back	Block1	2back/STIM_015.jpg	99
190.27	1.345	1345.4	2back	Block1	2back/STIM_016.jpg	100
194.209	1.19	1189.6	2back	Block1	2back/STIM_016.jpg	100
199.116	0.782	782.0	2back	Block1	2back/STIM_016.jpg	99
202.06	1.314	1314.4	2back	Block1	2back/STIM_017.jpg	100
207.095	1.173	1173.1	2back	Block1	2back/STIM_017.jpg	99
211.877	0.669	668.7	2back	Block1	2back/STIM_017.jpg	99
215.008	1.257	1256.6	2back	Block1	2back/STIM_018.jpg	100
218.28	1.417	1417.1	2back	Block1	2back/STIM_018.jpg	99
221.597	0.857	857.0	2back	Block1	2back/STIM_018.jpg	100
225.605	0.744	743.6	2back	Block1	2back/STIM_019.jpg	99
229.527	1.018	1018.2	2back	Block1	2back/STIM_019.jpg	100
234.155	0.662	661.5	2back	Block1	2back/STIM_019.jpg	100
236.782	1.378	1378.4	2back	Block1	2back/STIM_020.jpg	100
241.813	1.016	1016.4	2back	Block1	2back/STIM_020.jpg	99
246.492	1.248	1247.6	2back	Block1	2back/STIM_020.jpg	99
250.042	0.638	637.7	2back	Block1	2back/STIM_021.jpg	100
252.913	0.784	783.6	2back	Block1	2back/STIM_021.jpg	100
256.422	0.61	610.4	2back	Block1	2back/STIM_021.jpg	100
259.159	0.965	964.9	2back	Block1	2back/STIM_022.jpg	99
262.724	1.32	1320.1	2back	Block1	2back/STIM_022.jpg	99
267.3	1.216	1216.1	2back	Block1	2back/STIM_022.jpg	99
270.86	1.347	1346.7	2back	Block1	2back/STIM_023.jpg	100
274.611	0.96	960.4	2back	Block1	2back/STIM_023.jpg	100
278.066	0.937	937.0	2back	Block1	2back/STIM_023.jpg	99
282.053	0.76	760.0	2back	Block1	2back/STIM_024.jpg	99
285.207	0.738	738.5	2back	Block1	2back/STIM_024.jpg	100
289.684	1.065	1065.1	2back	Block1	2back/STIM_024.jpg	100
292.701	1.417	1417.1	2back	Block1	2back/STIM_025.jpg	99
297.02	0.652	651.6	2back	Block1	2back/STIM_025.jpg	100
300.633	0.778	778.3	2back	Block1	2back/STIM_025.jpg	99
305.003	1.217	1216.7	2back	Block1	2back/STIM_026.jpg	99
309.538	0.592	592.1	2back	Block1	2back/STIM_026.jpg	100
313.982	1.303	1302.6	2back	Block1	2back/STIM_026.jpg	99
317.185	1.618	1618.3	2back	Block1	2back/STIM_027.jpg	100
320.751	1.226	1225.5	2back	Block1	2back/STIM_027.jpg	100
325.57	1.264	1263.5	2back	Block1	2back/STIM_027.jpg	99
329.374	1.443	1443.2	2back	Block1	2back/STIM_028.jpg	100
333.834	1.209	1209.4	2back	Block1	2back/STIM_028.jpg	99
338.376	0.878	877.9	2back	Block1	2back/STIM_028.jpg	100
341.614	1.381	1380.9	2back	Block1	2back/STIM_029.jpg	99
346.346	1.486	1485.9	2back	Block1	2back/STIM_029.jpg	99
350.659	1.288	1288.0	2back	Block1	2back/STIM_029.jpg	99
354.56	0.863	862.9	2back	Block1	2back/STIM_030.jpg	100
358.81	1.05	1050.3	2back	Block1	2back/STIM_030.jpg	99
362.624	0.975	975.4	2back	Block1	2back/STIM_030.jpg	99
366.713	1.14	1140.4	2back	Block1	2back/STIM_031.jpg	100
370.286	1.249	1249.2	2back	Block1	2back/STIM_031.jpg	100
374.046	0.791	790.9	2back	Block1	2back/STIM_031.jpg	100
376.922	1.039	1039.3	2back	Block1	2back/STIM_032.jpg	100
380.796	1.127	1127.1	2back	Block1	2back/STIM_032.jpg	100
384.667	1.11	1109.7	2back	Block1	2back/STIM_032.jpg	99
389.35	0.959	959.1	2back	Block1	2back/STIM_033.jpg	99
392.663	0.673	673.0	2back	Block1	2back/STIM_033.jpg	99
395.396	0.982	982.0	2back	Block1	2back/STIM_033.jpg	100
398.464	1.066	1065.5	2back	Block1	2back/STIM_034.jpg	99
403.239	0.684	683.7	2back	Block1	2back/STIM_034.jpg	100
406.066	1.174	1174.0	2back	Block1	2back/STIM_034.jpg	100
409.752	0.8	800.2	2back	Block1	2back/STIM_035.jpg	99
413.562	1.315	1315.4	2back	Block1	2back/STIM_035.jpg	100
418.41	1.309	1308.7	2back	Block1	2back/STIM_035.jpg	99
422.93	1.509	1508.6	2back	Block1	2back/STIM_036.jpg	99
428.188	0.966	965.7	2back	Block1	2back/STIM_036.jpg	100
431.269	1.149	1149.0	2back	Block1	2back/STIM_036.jpg	99
435.43	1.526	1525.6	2back	Block1	2back/STIM_037.jpg	99
438.911	1.521	1521.3	2back	Block1	2back/STIM_037.jpg	99
442.988	0.946	946.5	2back	Block1	2back/STIM_037.jpg	100
446.679	1.434	1433.9	2back	Block1	2back/STIM_038.jpg	99
451.08	1.221	1221.0	2back	Block1	2back/STIM_038.jpg	99
456.058	0.698	698.3	2back	Block1	2back/STIM_038.jpg	99
459.143	1.112	1111.7	2back	Block1	2back/STIM_039.jpg	99
462.877	1.425	1424.8	2back	Block1	2back/STIM_039.jpg	100
466.789	1.265	1264.6	2back	Block1	2back/STIM_039.jpg	100
470.037	0.909	909.0	0back	Block1	0back/STIM_000.jpg	100
474.015	0.851	851.0	0back	Block1	0back/STIM_000.jpg	100
477.43	0.688	687.7	0back	Block1	0back/STIM_000.jpg	100
480.449	0.54	539.6	0back	Block1	0back/STIM_001.jpg	100
482.943	0.89	890.4	0back	Block1	0back/STIM_001.jpg	100
486.541	0.691	691.3	0back	Block1	0back/STIM_001.jpg	100
490.404	0.518	517.7	0back	Block1	0back/STIM_002.jpg	99
492.954	0.892	892.4	0back	Block1	0back/STIM_002.jpg	100
496.072	0.853	853.0	0back	Block1	0back/STIM_002.jpg	99
499.76	0.727	727.1	0back	Block1	0back/STIM_003.jpg	99
504.175	0.658	658.2	0back	Block1	0back/STIM_003.jpg	99
507.797	0.882	882.5	0back	Block1	0back/STIM_003.jpg	100
510.998	0.694	693.7	0back	Block1	0back/STIM_004.jpg	100
514.099	0.433	433.3	0back	Block1	0back/STIM_004.jpg	99
518.187	0.769	769.3	0back	Block1	0back/STIM_004.jpg	99
522.471	0.558	557.8	0back	Block1	0back/STIM_005.jpg	99
525.78	0.881	881.3	0back	Block1	0back/STIM_005.jpg	99
530.073	0.519	519.3	0back	Block1	0back/STIM_005.jpg	100
533.517	0.812	811.7	0back	Block1	0back/STIM_006.jpg	99
536.368	0.563	562.8	0back	Block1	0back/STIM_006.jpg	100
540.158	0.862	862.1	0back	Block1	0back/STIM_006.jpg	100
544.521	0.756	755.9	0back	Block1	0back/STIM_007.jpg	99
547.656	0.86	860.2	0back	Block1	0back/STIM_007.jpg	99
550.555	0.479	478.8	0back	Block1	0back/STIM_007.jpg	100
553.682	0.4	399.6	0back	Block1	0back/STIM_008.jpg	100
556.616	0.805	805.0	0back	Block1	0back/STIM_008.jpg	99
560.06	0.534	534.3	0back	Block1	0back/STIM_008.jpg	99
563.211	0.906	905.7	0back	Block1	0back/STIM_009.jpg	100
566.152	0.89	890.5	0back	Block1	0back/STIM_009.jpg	100
570.341	0.901	901.1	0back	Block1	0back/STIM_009.jpg	100
573.872	0.818	817.6	0back	Block1	0back/STIM_010.jpg	100
576.797	0.447	447.4	0back	Block1	0back/STIM_010.jpg	100
579.862	0.454	453.5	0back	Block1	0back/STIM_010.jpg	100
583.471	0.843	842.8	0back	Block1	0back/STIM_011.jpg	100
587.583	0.904	903.7	0back	Block1	0back/STIM_011.jpg	99
591.991	0.521	520.6	0back	Block1	0back/STIM_011.jpg	100
595.61	0.426	426.4	0back	Block1	0back/STIM_012.jpg	100
599.952	0.797	797.4	0back	Block1	0back/STIM_012.jpg	100
604.15	0.825	824.9	0back	Block1	0back/STIM_012.jpg	100
607.627	0.858	857.6	0back	Block1	0back/STIM_013.jpg	100
611.593	0.764	763.8	0back	Block1	0back/STIM_013.jpg	100
615.009	0.702	702.0	0back	Block1	0back/STIM_013.jpg	100
619.196	1.016	1015.7	0back	Block1	0back/STIM_014.jpg	100
622.377	0.511	511.3	0back	Block1	0back/STIM_014.jpg	100
624.898	0.853	853.4	0back	Block1	0back/STIM_014.jpg	100
628.661	0.71	709.7	0back	Block1	0back/STIM_015.jpg	100
632.723	0.672	672.5	0back	Block1	0back/STIM_015.jpg	99
635.325	0.531	531.2	0back	Block1	0back/STIM_015.jpg	99
637.946	0.9	900.5	0back	Block1	0back/STIM_016.jpg	100
641.074	0.598	598.1	0back	Block1	0back/STIM_016.jpg	99
644.886	0.718	718.4	0back	Block1	0back/STIM_016.jpg	99
649.059	0.924	923.7	0back	Block1	0back/STIM_017.jpg	100
653.245	0.666	665.5	0back	Block1	0back/STIM_017.jpg	100
656.524	0.826	826.2	0back	Block1	0back/STIM_017.jpg	99
660.192	0.418	417.8	0back	Block1	0back/STIM_018.jpg	99
663.19	0.559	559.2	0back	Block1	0back/STIM_018.jpg	99
666.15	0.872	871.8	0back	Block1	0back/STIM_018.jpg	99
669.472	0.807	807.1	0back	Block1	0back/STIM_019.jpg	99
672.56	0.842	842.0	0back	Block1	0back/STIM_019.jpg	100
676.143	0.713	713.1	0back	Block1	0back/STIM_019.jpg	100
679.612	0.985	985.3	2back	Block2	2back/STIM_000.jpg	100
683.489	0.517	516.9	2back	Block2	2back/STIM_000.jpg	99
687.399	0.709	708.9	2back	Block2	2back/STIM_000.jpg	100
691.166	1.09	1089.5	2back	Block2	2back/STIM_001.jpg	100
695.754	0.776	776.2	2back	Block2	2back/STIM_001.jpg	100
698.904	0.889	889.3	2back	Block2	2back/STIM_001.jpg	99
703.193	1.303	1303.0	2back	Block2	2back/STIM_002.jpg	100
706.961	0.797	796.6	2back	Block2	2back/STIM_002.jpg	100
710.297	1.188	1188.4	2back	Block2	2back/STIM_002.jpg	100
713.533	0.688	688.4	2back	Block2	2back/STIM_003.jpg	100
716.456	0.834	833.7	2back	Block2	2back/STIM_003.jpg	100
719.675	0.534	534.1	2back	Block2	2back/STIM_003.jpg	99
723.696	0.994	994.3	2back	Block2	2back/STIM_004.jpg	100
727.808	0.997	996.8	2back	Block2	2back/STIM_004.jpg	100
732.344	0.694	693.6	2back	Block2	2back/STIM_004.jpg	100
735.743	0.738	737.7	2back	Block2	2back/STIM_005.jpg	100
739.897	0.804	804.4	2back	Block2	2back/STIM_005.jpg	100
743.831	0.621	621.0	2back	Block2	2back/STIM_005.jpg	100
747.021	0.873	872.7	2back	Block2	2back/STIM_006.jpg	100
750.461	1.004	1003.8	2back	Block2	2back/STIM_006.jpg	99
754.321	1.02	1020.4	2back	Block2	2back/STIM_006.jpg	99
758.506	0.979	979.1	2back	Block2	2back/STIM_007.jpg	99
762.35	0.937	936.7	2back	Block2	2back/STIM_007.jpg	100
766.939	0.544	544.0	2back	Block2	2back/STIM_007.jpg	99
771.007	0.908	908.3	2back	Block2	2back/STIM_008.jpg	100
774.301	0.87	870.1	2back	Block2	2back/STIM_008.jpg	100
778.573	0.962	961.9	2back	Block2	2back/STIM_008.jpg	100
783.291	1.083	1083.3	2back	Block2	2back/STIM_009.jpg	100
786.973	0.834	834.5	2back	Block2	2back/STIM_009.jpg	100
790.312	0.918	918.5	2back	Block2	2back/STIM_009.jpg	100
794.448	0.544	544.5	2back	Block2	2back/STIM_010.jpg	100
798.788	1.079	1079.2	2back	Block2	2back/STIM_010.jpg	99
802.967	1.146	1146.0	2back	Block2	2back/STIM_010.jpg	99
807.711	1.014	1013.5	2back	Block2	2back/STIM_011.jpg	100
812.301	1.231	1231.2	2back	Block2	2back/STIM_011.jpg	100
816.02	1.072	1072.0	2back	Block2	2back/STIM_011.jpg	99
819.056	0.719	719.1	2back	Block2	2back/STIM_012.jpg	99
822.198	1.153	1153.1	2back	Block2	2back/STIM_012.jpg	100
826.551	0.503	503.4	2back	Block2	2back/STIM_012.jpg	99
829.163	0.954	953.8	2back	Block2	2back/STIM_013.jpg	99
832.329	1.06	1059.9	2back	Block2	2back/STIM_013.jpg	100
835.526	0.61	609.7	2back	Block2	2back/STIM_013.jpg	100
838.116	1.245	1245.0	2back	Block2	2back/STIM_014.jpg	99
842.135	0.798	798.4	2back	Block2	2back/STIM_014.jpg	99
845.644	1.148	1148.3	2back	Block2	2back/STIM_014.jpg	99
849.44	0.94	940.1	2back	Block2	2back/STIM_015.jpg	99
853.378	0.857	857.1	2back	Block2	2back/STIM_015.jpg	100
857.602	1.178	1178.5	2back	Block2	2back/STIM_015.jpg	100
862.332	0.695	695.2	2back	Block2	2back/STIM_016.jpg	100
865.987	1.239	1239.4	2back	Block2	2back/STIM_016.jpg	100
871.08	1.102	1101.8	2back	Block2	2back/STIM_016.jpg	100
874.607	1.233	1232.6	2back	Block2	2back/STIM_017.jpg	100
879.533	0.944	943.5	2back	Block2	2back/STIM_017.jpg	99
884.267	0.713	712.6	2back	Block2	2back/STIM_017.jpg	99
888.095	1.234	1234.0	2back	Block2	2back/STIM_018.jpg	99
892.992	1.048	1047.7	2back	Block2	2back/STIM_018.jpg	100
896.173	1.048	1047.9	2back	Block2	2back/STIM_018.jpg	100
900.239	1.357	1357.4	2back	Block2	2back/STIM_019.jpg	99
905.151	0.815	814.7	2back	Block2	2back/STIM_019.jpg	99
907.935	0.784	783.9	2back	Block2	2back/STIM_019.jpg	99
911.468	1.141	1140.6	2back	Block2	2back/STIM_020.jpg	100
915.382	0.847	847.2	2back	Block2	2back/STIM_020.jpg	99
919.381	0.886	886.3	2back	Block2	2back/STIM_020.jpg	100
923.798	0.646	645.7	2back	Block2	2back/STIM_021.jpg	100
927.19	1.031	1031.3	2back	Block2	2back/STIM_021.jpg	100
930.224	0.912	912.4	2back	Block2	2back/STIM_021.jpg	100
934.893	0.692	692.5	2back	Block2	2back/STIM_022.jpg	100
938.399	0.765	765.4	2back	Block2	2back/STIM_022.jpg	100
942.839	0.98	979.8	2back	Block2	2back/STIM_022.jpg	99
945.711	1.319	1319.4	2back	Block2	2back/STIM_023.jpg	100
949.082	1.14	1139.8	2back	Block2	2back/STIM_023.jpg	100
952.922	1.095	1095.3	2back	Block2	2back/STIM_023.jpg	100
956.967	1.052	1052.0	2back	Block2	2back/STIM_024.jpg	100
961.531	1.035	1035.0	2back	Block2	2back/STIM_024.jpg	100
966.027	0.978	977.9	2back	Block2	2back/STIM_024.jpg	99
969.055	1.155	1155.4	2back	Block2	2back/STIM_025.jpg	99
973.026	1.093	1093.3	2back	Block2	2back/STIM_025.jpg	99
977.26	0.968	968.2	2back	Block2	2back/STIM_025.jpg	100
980.25	0.802	801.9	2back	Block2	2back/STIM_026.jpg	100
983.462	1.007	1006.7	2back	Block2	2back/STIM_026.jpg	99
988.124	0.875	875.1	2back	Block2	2back/STIM_026.jpg	99
992.498	0.84	840.5	2back	Block2	2back/STIM_027.jpg	100
995.841	0.831	831.2	2back	Block2	2back/STIM_027.jpg	100
999.71	0.981	981.3	2back	Block2	2back/STIM_027.jpg	100
1003.066	0.611	611.3	2back	Block2	2back/STIM_028.jpg	99
1006.615	1.224	1223.8	2back	Block2	2back/STIM_028.jpg	100
1010.06	0.682	682.5	2back	Block2	2back/STIM_028.jpg	100
1013.704	1.228	1227.8	2back	Block2	2back/STIM_029.jpg	100
1016.885	0.932	931.7	2back	Block2	2back/STIM_029.jpg	99
1019.706	0.662	661.9	2back	Block2	2back/STIM_029.jpg	99
1022.719	1.371	1371.2	2back	Block2	2back/STIM_030.jpg	99
1026.397	0.641	641.3	2back	Block2	2back/STIM_030.jpg	99
1029.095	0.986	986.2	2back	Block2	2back/STIM_030.jpg	99
1033.748	1.167	1167.3	2back	Block2	2back/STIM_031.jpg	99
1038.248	0.661	660.8	2back	Block2	2back/STIM_031.jpg	100
1041.813	0.961	960.7	2back	Block2	2back/STIM_031.jpg	99
1045.842	0.875	875.4	2back	Block2	2back/STIM_032.jpg	100
1050.29	0.775	774.9	2back	Block2	2back/STIM_032.jpg	100
1054.042	0.942	942.0	2back	Block2	2back/STIM_032.jpg	99
1056.907	0.799	799.1	2back	Block2	2back/STIM_033.jpg	100
1059.802	1.167	1167.3	2back	Block2	2back/STIM_033.jpg	99
1064.52	0.934	933.5	2back	Block2	2back/STIM_033.jpg	99
1068.384	0.919	919.3	2back	Block2	2back/STIM_034.jpg	99
1071.789	1.107	1106.7	2back	Block2	2back/STIM_034.jpg	100
1076.557	1.161	1161.2	2back	Block2	2back/STIM_034.jpg	100
1079.61	0.876	876.2	2back	Block2	2back/STIM_035.jpg	100
1083.142	0.9	900.0	2back	Block2	2back/STIM_035.jpg	99
1087.569	1.144	1143.7	2back	Block2	2back/STIM_035.jpg	99
1091.046	1.087	1086.8	2back	Block2	2back/STIM_036.jpg	100
1095.093	0.975	974.7	2back	Block2	2back/STIM_036.jpg	100
1098.332	0.854	854.0	2back	Block2	2back/STIM_036.jpg	100
1102.56	1.117	1117.4	2back	Block2	2back/STIM_037.jpg	100
1105.858	0.563	563.2	2back	Block2	2back/STIM_037.jpg	99
1109.667	0.5	500.2	2back	Block2	2back/STIM_037.jpg	100
1114.142	1.117	1117.0	2back	Block2	2back/STIM_038.jpg	99
1118.925	0.913	912.8	2back	Block2	2back/STIM_038.jpg	99
1123.506	0.83	829.9	2back	Block2	2back/STIM_038.jpg	99
1126.611	1.172	1171.6	2back	Block2	2back/STIM_039.jpg	100
1130.764	0.649	649.2	2back	Block2	2back/STIM_039.jpg	100
1134.332	0.926	925.6	2back	Block2	2back/STIM_039.jpg	100
1138.855	0.827	827.2	0back	Block2	0back/STIM_000.jpg	99
1142.122	0.764	764.4	0back	Block2	0back/STIM_000.jpg	99
1145.026	0.622	621.8	0back	Block2	0back/STIM_000.jpg	99
1149.233	0.791	791.0	0back	Block2	0back/STIM_001.jpg	100
1153.166	0.81	809.6	0back	Block2	0back/STIM_001.jpg	99
1157.686	0.403	403.4	0back	Block2	0back/STIM_001.jpg	99
1160.644	0.503	503.1	0back	Block2	0back/STIM_002.jpg	99
1164.018	0.738	738.4	0back	Block2	0back/STIM_002.jpg	100
1167.688	0.656	656.5	0back	Block2	0back/STIM_002.jpg	99
1171.933	0.665	664.8	0back	Block2	0back/STIM_003.jpg	100
1176.39	0.657	656.7	0back	Block2	0back/STIM_003.jpg	100
1180.407	0.404	403.9	0back	Block2	0back/STIM_003.jpg	100
1183.298	0.636	636.4	0back	Block2	0back/STIM_004.jpg	100
1187.039	0.508	508.0	0back	Block2	0back/STIM_004.jpg	99
1191.421	0.592	591.5	0back	Block2	0back/STIM_004.jpg	100
1195.641	0.864	863.6	0back	Block2	0back/STIM_005.jpg	99
1200.05	0.628	628.3	0back	Block2	0back/STIM_005.jpg	99
1203.385	0.595	595.3	0back	Block2	0back/STIM_005.jpg	99
1207.918	0.792	791.5	0back	Block2	0back/STIM_006.jpg	100
1212.103	0.758	758.0	0back	Block2	0back/STIM_006.jpg	99
1216.126	0.576	576.1	0back	Block2	0back/STIM_006.jpg	99
1218.814	0.662	662.3	0back	Block2	0back/STIM_007.jpg	100
1223.349	0.835	834.7	0back	Block2	0back/STIM_007.jpg	100
1227.446	0.454	453.8	0back	Block2	0back/STIM_007.jpg	100
1230.12	0.744	744.5	0back	Block2	0back/STIM_008.jpg	99
1234.262	0.803	803.0	0back	Block2	0back/STIM_008.jpg	99
1238.503	0.666	666.4	0back	Block2	0back/STIM_008.jpg	100
1242.883	0.501	500.7	0back	Block2	0back/STIM_009.jpg	99
1246.205	0.766	766.2	0back	Block2	0back/STIM_009.jpg	99
1248.923	0.72	719.6	0back	Block2	0back/STIM_009.jpg	100
1252.222	0.773	772.8	0back	Block2	0back/STIM_010.jpg	99
1255.448	0.809	808.6	0back	Block2	0back/STIM_010.jpg	100
1259.364	0.662	662.4	0back	Block2	0back/STIM_010.jpg	100
1263.716	0.778	777.5	0back	Block2	0back/STIM_011.jpg	100
1266.974	0.762	762.5	0back	Block2	0back/STIM_011.jpg	100
1270.788	0.945	945.3	0back	Block2	0back/STIM_011.jpg	99
1275.382	0.707	707.1	0back	Block2	0back/STIM_012.jpg	100
1279.874	0.596	596.0	0back	Block2	0back/STIM_012.jpg	99
1284.14	0.567	566.8	0back	Block2	0back/STIM_012.jpg	100
1288.091	0.557	557.2	0back	Block2	0back/STIM_013.jpg	100
1292.076	0.672	672.4	0back	Block2	0back/STIM_013.jpg	99
1296.677	0.526	525.7	0back	Block2	0back/STIM_013.jpg	99
1299.58	0.833	833.3	0back	Block2	0back/STIM_014.jpg	100
1302.557	0.908	907.5	0back	Block2	0back/STIM_014.jpg	100
1306.255	0.736	736.2	0back	Block2	0back/STIM_014.jpg	99
1310.085	0.454	453.6	0back	Block2	0back/STIM_015.jpg	100
1312.904	0.549	549.4	0back	Block2	0back/STIM_015.jpg	99
1317.435	0.467	467.1	0back	Block2	0back/STIM_015.jpg	100
1321.088	0.694	694.5	0back	Block2	0back/STIM_016.jpg	99
1325.183	0.654	653.7	0back	Block2	0back/STIM_016.jpg	99
1328.822	0.831	830.8	0back	Block2	0back/STIM_016.jpg	99
1331.645	0.923	922.9	0back	Block2	0back/STIM_017.jpg	99
1336.225	0.831	830.7	0back	Block2	0back/STIM_017.jpg	99
1340.897	0.808	807.6	0back	Block2	0back/STIM_017.jpg	99
1344.557	0.496	496.4	0back	Block2	0back/STIM_018.jpg	100
1347.193	0.909	908.9	0back	Block2	0back/STIM_018.jpg	99
1350.638	0.705	704.9	0back	Block2	0back/STIM_018.jpg	100
1355.281	0.73	729.9	0back	Block2	0back/STIM_019.jpg	100
1358.267	0.821	820.8	0back	Block2	0back/STIM_019.jpg	100
1362.307	0.591	591.0	0back	Block2	0back/STIM_019.jpg	99
1365.11	1.202	1201.8	2back	Block3	2back/STIM_000.jpg	100
1368.422	0.702	701.5	2back	Block3	2back/STIM_000.jpg	100
1372.774	0.474	474.1	2back	Block3	2back/STIM_000.jpg	99
1376.746	1.095	1095.4	2back	Block3	2back/STIM_001.jpg	100
1381.186	0.83	829.6	2back	Block3	2back/STIM_001.jpg	99
1384.716	0.722	722.3	2back	Block3	2back/STIM_001.jpg	100
1388.44	1.037	1037.1	2back	Block3	2back/STIM_002.jpg	100
1392.068	0.882	882.3	2back	Block3	2back/STIM_002.jpg	99
1396.664	0.895	895.1	2back	Block3	2back/STIM_002.jpg	100
1399.604	0.532	532.2	2back	Block3	2back/STIM_003.jpg	100
1402.383	0.924	923.7	2back	Block3	2back/STIM_003.jpg	100
1406.28	0.996	996.1	2back	Block3	2back/STIM_003.jpg	100
1411.164	0.948	948.2	2back	Block3	2back/STIM_004.jpg	100
1416.013	0.8	800.1	2back	Block3	2back/STIM_004.jpg	100
1419.474	0.942	942.0	2back	Block3	2back/STIM_004.jpg	99
1422.367	0.606	605.8	2back	Block3	2back/STIM_005.jpg	100
1425.603	0.698	697.8	2back	Block3	2back/STIM_005.jpg	99
1429.081	0.875	875.0	2back	Block3	2back/STIM_005.jpg	99
1431.949	0.599	599.4	2back	Block3	2back/STIM_006.jpg	99
1435.776	0.595	594.7	2back	Block3	2back/STIM_006.jpg	99
1439.94	0.898	898.2	2back	Block3	2back/STIM_006.jpg	100
1442.813	0.832	832.2	2back	Block3	2back/STIM_007.jpg	100
1445.918	0.958	958.2	2back	Block3	2back/STIM_007.jpg	99
1450.31	0.642	642.1	2back	Block3	2back/STIM_007.jpg	99
1453.349	0.961	961.0	2back	Block3	2back/STIM_008.jpg	100
1456.483	0.665	665.0	2back	Block3	2back/STIM_008.jpg	99
1459.915	0.829	829.3	2back	Block3	2back/STIM_008.jpg	100
1463.314	1.106	1105.6	2back	Block3	2back/STIM_009.jpg	100
1468.145	0.968	968.2	2back	Block3	2back/STIM_009.jpg	100
1471.646	0.55	549.7	2back	Block3	2back/STIM_009.jpg	99
1475.578	1.124	1124.4	2back	Block3	2back/STIM_010.jpg	99
1480.354	0.728	728.5	2back	Block3	2back/STIM_010.jpg	99
1484.154	0.528	528.3	2back	Block3	2back/STIM_010.jpg	99
1486.824	0.467	466.9	2back	Block3	2back/STIM_011.jpg	99
1491.041	0.658	658.1	2back	Block3	2back/STIM_011.jpg	99
1494.942	0.487	487.1	2back	Block3	2back/STIM_011.jpg	99
1497.64	0.596	596.5	2back	Block3	2back/STIM_012.jpg	100
1501.898	1.137	1136.8	2back	Block3	2back/STIM_012.jpg	100
1505.872	0.554	554.2	2back	Block3	2back/STIM_012.jpg	100
1508.508	0.875	875.3	2back	Block3	2back/STIM_013.jpg	100
1512.92	1.02	1019.5	2back	Block3	2back/STIM_013.jpg	99
1516.568	0.924	923.5	2back	Block3	2back/STIM_013.jpg	99
1521.404	0.616	615.7	2back	Block3	2back/STIM_014.jpg	99
1525.575	0.864	863.7	2back	Block3	2back/STIM_014.jpg	99
1529.667	0.66	660.4	2back	Block3	2back/STIM_014.jpg	99
1533.261	0.69	690.0	2back	Block3	2back/STIM_015.jpg	100
1536.726	0.513	512.7	2back	Block3	2back/STIM_015.jpg	100
1541.14	0.55	549.5	2back	Block3	2back/STIM_015.jpg	99
1543.769	0.979	979.1	2back	Block3	2back/STIM_016.jpg	100
1548.112	0.432	432.2	2back	Block3	2back/STIM_016.jpg	99
1552.298	0.907	907.1	2back	Block3	2back/STIM_016.jpg	100
1556.229	0.545	545.1	2back	Block3	2back/STIM_017.jpg	99
1559.573	0.792	791.8	2back	Block3	2back/STIM_017.jpg	99
1563.326	1.045	1044.7	2back	Block3	2back/STIM_017.jpg	99
1566.491	0.858	858.3	2back	Block3	2back/STIM_018.jpg	100
1571.173	0.9	899.5	2back	Block3	2back/STIM_018.jpg	100
1575.142	0.77	770.4	2back	Block3	2back/STIM_018.jpg	100
1579.206	0.851	850.7	2back	Block3	2back/STIM_019.jpg	99
1581.904	0.752	752.0	2back	Block3	2back/STIM_019.jpg	100
1585.468	0.877	877.1	2back	Block3	2back/STIM_019.jpg	100
1588.576	0.45	449.5	2back	Block3	2back/STIM_020.jpg	100
1592.176	0.887	886.7	2back	Block3	2back/STIM_020.jpg	100
1595.801	0.987	986.7	2back	Block3	2back/STIM_020.jpg	99
1599.175	1.123	1122.6	2back	Block3	2back/STIM_021.jpg	99
1603.027	0.927	927.3	2back	Block3	2back/STIM_021.jpg	99
1607.33	0.83	830.2	2back	Block3	2back/STIM_021.jpg	99
1610.638	0.684	683.7	2back	Block3	2back/STIM_022.jpg	99
1615.197	0.649	649.3	2back	Block3	2back/STIM_022.jpg	99
1619.717	0.852	852.1	2back	Block3	2back/STIM_022.jpg	99
1622.97	1.042	1042.4	2back	Block3	2back/STIM_023.jpg	100
1627.487	0.632	632.5	2back	Block3	2back/STIM_023.jpg	99
1630.398	0.838	837.9	2back	Block3	2back/STIM_023.jpg	100
1634.0	0.98	980.2	2back	Block3	2back/STIM_024.jpg	99
1637.241	0.976	976.1	2back	Block3	2back/STIM_024.jpg	100
1641.549	0.922	921.7	2back	Block3	2back/STIM_024.jpg	99
1645.524	0.961	960.6	2back	Block3	2back/STIM_025.jpg	100
1648.446	0.876	875.7	2back	Block3	2back/STIM_025.jpg	99
1652.851	0.418	417.6	2back	Block3	2back/STIM_025.jpg	100
1656.23	1.006	1006.4	2back	Block3	2back/STIM_026.jpg	100
1659.276	0.722	721.7	2back	Block3	2back/STIM_026.jpg	100
1662.609	0.587	587.2	2back	Block3	2back/STIM_026.jpg	100
1665.842	0.696	695.9	2back	Block3	2back/STIM_027.jpg	100
1669.198	0.632	631.7	2back	Block3	2back/STIM_027.jpg	100
1673.638	0.593	593.1	2back	Block3	2back/STIM_027.jpg	100
1676.317	0.59	590.3	2back	Block3	2back/STIM_028.jpg	99
1680.78	0.998	997.8	2back	Block3	2back/STIM_028.jpg	99
1684.883	1.047	1047.0	2back	Block3	2back/STIM_028.jpg	99
1688.59	1.077	1077.0	2back	Block3	2back/STIM_029.jpg	99
1692.4	0.811	810.9	2back	Block3	2back/STIM_029.jpg	99
1696.031	0.805	804.6	2back	Block3	2back/STIM_029.jpg	100
1699.772	0.603	603.4	2back	Block3	2back/STIM_030.jpg	100
1703.984	0.513	512.8	2back	Block3	2back/STIM_030.jpg	99
1706.96	0.891	890.7	2back	Block3	2back/STIM_030.jpg	99
1711.496	0.961	961.4	2back	Block3	2back/STIM_031.jpg	100
1714.906	1.052	1051.7	2back	Block3	2back/STIM_031.jpg	99
1718.661	0.958	958.2	2back	Block3	2back/STIM_031.jpg	100
1722.662	0.895	895.2	2back	Block3	2back/STIM_032.jpg	100
1726.774	0.863	862.9	2back	Block3	2back/STIM_032.jpg	99
1729.886	0.944	943.6	2back	Block3	2back/STIM_032.jpg	100
1734.661	0.801	800.7	2back	Block3	2back/STIM_033.jpg	99
1739.065	0.802	801.7	2back	Block3	2back/STIM_033.jpg	100
1742.6	0.617	617.4	2back	Block3	2back/STIM_033.jpg	100
1746.658	0.834	833.7	2back	Block3	2back/STIM_034.jpg	99
1750.886	1.065	1064.8	2back	Block3	2back/STIM_034.jpg	99
1754.181	0.802	802.2	2back	Block3	2back/STIM_034.jpg	99
1757.768	0.68	680.3	2back	Block3	2back/STIM_035.jpg	100
1761.416	0.867	867.3	2back	Block3	2back/STIM_035.jpg	99
1766.054	0.587	587.2	2back	Block3	2back/STIM_035.jpg	99
1768.96	1.155	1155.0	2back	Block3	2back/STIM_036.jpg	100
1772.122	0.932	931.5	2back	Block3	2back/STIM_036.jpg	99
1775.896	0.742	742.1	2back	Block3	2back/STIM_036.jpg	100
1780.399	0.871	870.9	2back	Block3	2back/STIM_037.jpg	99
1783.923	0.479	478.6	2back	Block3	2back/STIM_037.jpg	100
1787.927	0.716	715.9	2back	Block3	2back/STIM_037.jpg	99
1792.082	0.933	933.1	2back	Block3	2back/STIM_038.jpg	100
1795.063	0.715	715.0	2back	Block3	2back/STIM_038.jpg	100
1798.743	0.512	511.8	2back	Block3	2back/STIM_038.jpg	100
1801.66	0.878	877.9	2back	Block3	2back/STIM_039.jpg	100
1806.298	0.907	906.9	2back	Block3	2back/STIM_039.jpg	100
1809.401	1.007	1007.1	2back	Block3	2back/STIM_039.jpg	100
1814.248	0.512	512.1	0back	Block3	0back/STIM_000.jpg	100
1818.509	0.505	505.1	0back	Block3	0back/STIM_000.jpg	99
1822.743	0.586	585.8	0back	Block3	0back/STIM_000.jpg	99
1825.48	0.698	697.5	0back	Block3	0back/STIM_001.jpg	99
1828.806	0.938	938.3	0back	Block3	0back/STIM_001.jpg	100
1831.713	0.816	816.5	0back	Block3	0back/STIM_001.jpg	99
1836.213	0.918	918.5	0back	Block3	0back/STIM_002.jpg	100
1839.049	0.527	526.8	0back	Block3	0back/STIM_002.jpg	100
1843.393	0.641	641.3	0back	Block3	0back/STIM_002.jpg	100
1846.027	0.928	928.1	0back	Block3	0back/STIM_003.jpg	100
1849.492	0.739	738.8	0back	Block3	0back/STIM_003.jpg	99
1852.158	0.54	539.6	0back	Block3	0back/STIM_003.jpg	100
1855.917	0.625	625.4	0back	Block3	0back/STIM_004.jpg	99
1859.933	0.76	759.8	0back	Block3	0back/STIM_004.jpg	100
1863.255	0.821	820.9	0back	Block3	0back/STIM_004.jpg	100
1866.652	0.658	658.5	0back	Block3	0back/STIM_005.jpg	99
1870.854	0.691	691.0	0back	Block3	0back/STIM_005.jpg	100
1875.427	0.57	569.9	0back	Block3	0back/STIM_005.jpg	99
1878.364	0.825	825.0	0back	Block3	0back/STIM_006.jpg	99
1881.127	0.44	439.6	0back	Block3	0back/STIM_006.jpg	100
1883.742	0.628	628.3	0back	Block3	0back/STIM_006.jpg	100
1886.612	0.514	514.5	0back	Block3	0back/STIM_007.jpg	100
1890.252	0.685	684.9	0back	Block3	0back/STIM_007.jpg	99
1893.919	0.68	679.7	0back	Block3	0back/STIM_007.jpg	99
1896.989	0.403	403.1	0back	Block3	0back/STIM_008.jpg	100
1901.009	0.558	558.1	0back	Block3	0back/STIM_008.jpg	100
1903.972	0.646	646.3	0back	Block3	0back/STIM_008.jpg	100
1906.834	0.6	600.0	0back	Block3	0back/STIM_009.jpg	100
1911.225	0.457	457.3	0back	Block3	0back/STIM_009.jpg	99
1915.491	0.654	654.1	0back	Block3	0back/STIM_009.jpg	100
1919.206	0.578	578.0	0back	Block3	0back/STIM_010.jpg	99
1922.17	0.639	639.2	0back	Block3	0back/STIM_010.jpg	100
1925.951	0.617	617.3	0back	Block3	0back/STIM_010.jpg	100
1928.547	0.649	649.2	0back	Block3	0back/STIM_011.jpg	100
1931.469	0.821	820.9	0back	Block3	0back/STIM_011.jpg	100
1935.78	0.534	534.2	0back	Block3	0back/STIM_011.jpg	99
1939.885	0.485	485.3	0back	Block3	0back/STIM_012.jpg	100
1943.793	0.643	643.3	0back	Block3	0back/STIM_012.jpg	99
1947.561	0.513	512.6	0back	Block3	0back/STIM_012.jpg	99
1950.719	0.848	847.6	0back	Block3	0back/STIM_013.jpg	100
1954.92	0.548	548.5	0back	Block3	0back/STIM_013.jpg	99
1957.953	0.821	821.0	0back	Block3	0back/STIM_013.jpg	100
1960.781	0.674	673.5	0back	Block3	0back/STIM_014.jpg	99
1963.608	0.63	629.6	0back	Block3	0back/STIM_014.jpg	99
1966.348	0.818	817.5	0back	Block3	0back/STIM_014.jpg	99
1970.545	0.462	461.8	0back	Block3	0back/STIM_015.jpg	100
1974.746	0.754	754.1	0back	Block3	0back/STIM_015.jpg	100
1979.211	0.814	813.7	0back	Block3	0back/STIM_015.jpg	99
1983.767	0.696	696.1	0back	Block3	0back/STIM_016.jpg	99
1987.066	0.67	669.7	0back	Block3	0back/STIM_016.jpg	100
1989.777	0.894	894.4	0back	Block3	0back/STIM_016.jpg	99
1993.765	0.453	453.1	0back	Block3	0back/STIM_017.jpg	99
1996.646	0.758	758.0	0back	Block3	0back/STIM_017.jpg	99
1999.899	0.794	794.4	0back	Block3	0back/STIM_017.jpg	100
2003.87	0.489	488.7	0back	Block3	0back/STIM_018.jpg	100
2006.921	0.74	739.9	0back	Block3	0back/STIM_018.jpg	99
2011.416	0.587	586.6	0back	Block3	0back/STIM_018.jpg	99
2015.31	0.695	695.4	0back	Block3	0back/STIM_019.jpg	99
2019.517	0.709	708.8	0back	Block3	0back/STIM_019.jpg	100
2023.704	0.449	449.0	0back	Block3	0back/STIM_019.jpg	99
2026.984	0.718	718.1	2back	Block4	2back/STIM_000.jpg	99
2031.093	0.853	852.7	2back	Block4	2back/STIM_000.jpg	99
2034.437	0.643	642.9	2back	Block4	2back/STIM_000.jpg	100
2038.725	0.913	912.6	2back	Block4	2back/STIM_001.jpg	100
2042.215	0.641	640.8	2back	Block4	2back/STIM_001.jpg	100
2045.602	0.497	497.0	2back	Block4	2back/STIM_001.jpg	99
2048.582	0.644	644.0	2back	Block4	2back/STIM_002.jpg	99
2052.7	0.787	786.7	2back	Block4	2back/STIM_002.jpg	99
2057.366	0.635	635.4	2back	Block4	2back/STIM_002.jpg	100
2060.643	0.63	630.0	2back	Block4	2back/STIM_003.jpg	99
2063.77	0.855	854.9	2back	Block4	2back/STIM_003.jpg	100
2068.23	0.908	908.3	2back	Block4	2back/STIM_003.jpg	100
2071.08	0.876	876.1	2back	Block4	2back/STIM_004.jpg	100
2074.29	0.695	695.4	2back	Block4	2back/STIM_004.jpg	99
2078.19	0.608	608.1	2back	Block4	2back/STIM_004.jpg	99
2081.206	0.576	576.2	2back	Block4	2back/STIM_005.jpg	99
2084.406	0.848	848.2	2back	Block4	2back/STIM_005.jpg	100
2088.365	0.856	856.4	2back	Block4	2back/STIM_005.jpg	100
2091.804	0.57	569.6	2back	Block4	2back/STIM_006.jpg	100
2094.669	0.771	770.7	2back	Block4	2back/STIM_006.jpg	99
2098.182	1.108	1107.5	2back	Block4	2back/STIM_006.jpg	100
2101.305	0.376	376.2	2back	Block4	2back/STIM_007.jpg	100
2105.336	0.9	899.7	2back	Block4	2back/STIM_007.jpg	99
2108.636	0.78	779.6	2back	Block4	2back/STIM_007.jpg	100
2112.437	0.623	623.0	2back	Block4	2back/STIM_008.jpg	99
2115.465	0.931	930.6	2back	Block4	2back/STIM_008.jpg	100
2119.315	0.774	774.3	2back	Block4	2back/STIM_008.jpg	100
2122.272	0.997	996.6	2back	Block4	2back/STIM_009.jpg	100
2126.011	0.593	592.8	2back	Block4	2back/STIM_009.jpg	99
2129.722	1.107	1107.2	2back	Block4	2back/STIM_009.jpg	100
2133.485	0.795	794.6	2back	Block4	2back/STIM_010.jpg	100
2136.962	0.482	482.1	2back	Block4	2back/STIM_010.jpg	99
2140.702	1.028	1028.0	2back	Block4	2back/STIM_010.jpg	100
2144.94	0.965	964.8	2back	Block4	2back/STIM_011.jpg	100
2149.561	0.594	594.4	2back	Block4	2back/STIM_011.jpg	99
2152.96	1.09	1090.0	2back	Block4	2back/STIM_011.jpg	100
2157.814	0.962	962.0	2back	Block4	2back/STIM_012.jpg	100
2161.957	0.9	900.4	2back	Block4	2back/STIM_012.jpg	100
2164.856	0.633	633.3	2back	Block4	2back/STIM_012.jpg	100
2168.863	0.655	654.7	2back	Block4	2back/STIM_013.jpg	99
2172.523	0.57	570.5	2back	Block4	2back/STIM_013.jpg	100
2175.543	0.861	860.7	2back	Block4	2back/STIM_013.jpg	99
2178.587	0.572	571.9	2back	Block4	2back/STIM_014.jpg	99
2182.625	0.658	658.4	2back	Block4	2back/STIM_014.jpg	99
2186.722	0.779	779.4	2back	Block4	2back/STIM_014.jpg	100
2190.361	0.858	858.2	2back	Block4	2back/STIM_015.jpg	100
2194.202	0.843	842.9	2back	Block4	2back/STIM_015.jpg	99
2197.349	1.076	1075.7	2back	Block4	2back/STIM_015.jpg	100
2201.392	0.837	837.4	2back	Block4	2back/STIM_016.jpg	99
2205.485	0.618	617.7	2back	Block4	2back/STIM_016.jpg	100
2209.24	0.475	475.1	2back	Block4	2back/STIM_016.jpg	100
2213.585	0.493	493.4	2back	Block4	2back/STIM_017.jpg	100
2217.82	0.778	778.5	2back	Block4	2back/STIM_017.jpg	99
2220.968	0.916	916.2	2back	Block4	2back/STIM_017.jpg	100
2224.523	0.533	533.0	2back	Block4	2back/STIM_018.jpg	99
2228.364	0.491	491.0	2back	Block4	2back/STIM_018.jpg	100
2231.846	0.724	724.5	2back	Block4	2back/STIM_018.jpg	100
2234.855	0.879	879.3	2back	Block4	2back/STIM_019.jpg	99
2238.912	0.526	525.7	2back	Block4	2back/STIM_019.jpg	99
2242.105	1.086	1085.9	2back	Block4	2back/STIM_019.jpg	100
2245.132	0.901	901.1	2back	Block4	2back/STIM_020.jpg	100
2248.69	0.776	776.1	2back	Block4	2back/STIM_020.jpg	99
2252.408	0.677	677.0	2back	Block4	2back/STIM_020.jpg	100
2255.362	0.932	932.5	2back	Block4	2back/STIM_021.jpg	100
2260.193	0.615	614.8	2back	Block4	2back/STIM_021.jpg	99
2264.669	0.827	827.4	2back	Block4	2back/STIM_021.jpg	100
2267.556	0.801	800.9	2back	Block4	2back/STIM_022.jpg	100
2270.87	1.092	1092.4	2back	Block4	2back/STIM_022.jpg	100
2275.05	1.085	1085.1	2back	Block4	2back/STIM_022.jpg	99
2278.737	0.883	883.3	2back	Block4	2back/STIM_023.jpg	100
2282.864	0.675	675.4	2back	Block4	2back/STIM_023.jpg	99
2286.222	1.104	1103.6	2back	Block4	2back/STIM_023.jpg	99
2291.091	0.795	794.7	2back	Block4	2back/STIM_024.jpg	99
2294.651	0.632	631.6	2back	Block4	2back/STIM_024.jpg	100
2298.836	1.047	1046.7	2back	Block4	2back/STIM_024.jpg	99
2303.651	1.076	1075.8	2back	Block4	2back/STIM_025.jpg	99
2308.269	0.816	815.8	2back	Block4	2back/STIM_025.jpg	100
2311.484	0.515	514.6	2back	Block4	2back/STIM_025.jpg	99
2314.416	0.949	949.3	2back	Block4	2back/STIM_026.jpg	100
2317.88	0.607	606.9	2back	Block4	2back/STIM_026.jpg	100
2322.231	0.643	643.1	2back	Block4	2back/STIM_026.jpg	100
2326.817	0.577	576.7	2back	Block4	2back/STIM_027.jpg	99
2331.258	0.54	540.5	2back	Block4	2back/STIM_027.jpg	100
2334.814	0.526	525.5	2back	Block4	2back/STIM_027.jpg	100
2337.409	0.695	694.9	2back	Block4	2back/STIM_028.jpg	100
2341.523	0.724	724.0	2back	Block4	2back/STIM_028.jpg	99
2345.102	0.886	885.9	2back	Block4	2back/STIM_028.jpg	99
2347.906	0.981	980.9	2back	Block4	2back/STIM_029.jpg	100
2352.682	0.727	726.7	2back	Block4	2back/STIM_029.jpg	100
2356.862	0.656	655.7	2back	Block4	2back/STIM_029.jpg	99
2360.674	0.516	516.1	2back	Block4	2back/STIM_030.jpg	100
2363.383	0.938	938.1	2back	Block4	2back/STIM_030.jpg	99
2367.902	0.597	596.6	2back	Block4	2back/STIM_030.jpg	100
2371.43	0.421	420.6	2back	Block4	2back/STIM_031.jpg	100
2375.453	1.045	1044.6	2back	Block4	2back/STIM_031.jpg	100
2379.529	0.572	572.0	2back	Block4	2back/STIM_031.jpg	99
2384.054	0.833	833.2	2back	Block4	2back/STIM_032.jpg	100
2386.905	0.592	592.0	2back	Block4	2back/STIM_032.jpg	100
2390.227	0.608	607.6	2back	Block4	2back/STIM_032.jpg	99
2394.224	0.865	864.8	2back	Block4	2back/STIM_033.jpg	100
2398.447	0.583	583.4	2back	Block4	2back/STIM_033.jpg	99
2401.985	0.73	730.3	2back	Block4	2back/STIM_033.jpg	99
2405.195	0.786	785.7	2back	Block4	2back/STIM_034.jpg	100
2409.404	0.709	708.8	2back	Block4	2back/STIM_034.jpg	99
2413.875	0.71	710.5	2back	Block4	2back/STIM_034.jpg	99
2417.429	0.691	690.9	2back	Block4	2back/STIM_035.jpg	100
2421.876	0.601	601.4	2back	Block4	2back/STIM_035.jpg	99
2425.954	0.388	388.0	2back	Block4	2back/STIM_035.jpg	100
2429.25	0.495	495.0	2back	Block4	2back/STIM_036.jpg	100
2432.897	1.057	1057.1	2back	Block4	2back/STIM_036.jpg	100
2436.454	0.891	890.9	2back	Block4	2back/STIM_036.jpg	99
2440.923	0.979	979.0	2back	Block4	2back/STIM_037.jpg	100
2443.931	1.078	1077.5	2back	Block4	2back/STIM_037.jpg	99
2448.777	0.984	984.4	2back	Block4	2back/STIM_037.jpg	100
2452.337	0.558	557.6	2back	Block4	2back/STIM_038.jpg	99
2455.809	0.489	488.9	2back	Block4	2back/STIM_038.jpg	99
2459.821	0.803	802.7	2back	Block4	2back/STIM_038.jpg	99
2463.168	0.761	761.4	2back	Block4	2back/STIM_039.jpg	100
2467.842	0.873	873.4	2back	Block4	2back/STIM_039.jpg	100
2471.019	0.508	508.5	2back	Block4	2back/STIM_039.jpg	100
2475.108	0.53	530.4	0back	Block4	0back/STIM_000.jpg	99
2479.031	0.875	875.2	0back	Block4	0back/STIM_000.jpg	99
2482.154	0.591	591.0	0back	Block4	0back/STIM_000.jpg	100
2485.609	0.666	665.8	0back	Block4	0back/STIM_001.jpg	100
2488.302	0.77	770.2	0back	Block4	0back/STIM_001.jpg	99
2492.623	0.812	812.1	0back	Block4	0back/STIM_001.jpg	99
2496.177	0.477	477.4	0back	Block4	0back/STIM_002.jpg	99
2499.74	0.814	813.7	0back	Block4	0back/STIM_002.jpg	100
2503.985	0.461	461.4	0back	Block4	0back/STIM_002.jpg	100
2507.128	0.665	665.3	0back	Block4	0back/STIM_003.jpg	100
2510.34	0.471	471.3	0back	Block4	0back/STIM_003.jpg	99
2513.938	0.841	841.3	0back	Block4	0back/STIM_003.jpg	99
2518.172	0.722	722.5	0back	Block4	0back/STIM_004.jpg	99
2522.687	0.658	658.5	0back	Block4	0back/STIM_004.jpg	99
2527.25	0.696	696.1	0back	Block4	0back/STIM_004.jpg	100
2530.332	0.635	634.7	0back	Block4	0back/STIM_005.jpg	99
2534.055	0.743	742.7	0back	Block4	0back/STIM_005.jpg	100
2538.24	0.897	896.9	0back	Block4	0back/STIM_005.jpg	99
2541.401	0.716	716.0	0back	Block4	0back/STIM_006.jpg	100
2545.219	0.579	578.7	0back	Block4	0back/STIM_006.jpg	99
2548.725	0.79	790.2	0back	Block4	0back/STIM_006.jpg	100
2553.101	0.624	624.4	0back	Block4	0back/STIM_007.jpg	100
2556.476	0.503	503.1	0back	Block4	0back/STIM_007.jpg	99
2560.615	0.502	501.7	0back	Block4	0back/STIM_007.jpg	100
2564.308	0.977	976.9	0back	Block4	0back/STIM_008.jpg	100
2568.1	0.627	627.3	0back	Block4	0back/STIM_008.jpg	100
2572.523	0.487	487.2	0back	Block4	0back/STIM_008.jpg	99
2575.874	0.643	643.0	0back	Block4	0back/STIM_009.jpg	99
2579.916	0.708	708.5	0back	Block4	0back/STIM_009.jpg	100
2584.205	0.436	436.0	0back	Block4	0back/STIM_009.jpg	99
2588.376	0.919	918.6	0back	Block4	0back/STIM_010.jpg	99
2591.203	0.557	557.3	0back	Block4	0back/STIM_010.jpg	100
2594.786	0.857	857.1	0back	Block4	0back/STIM_010.jpg	99
2598.21	0.917	917.2	0back	Block4	0back/STIM_011.jpg	99
2601.527	0.534	533.6	0back	Block4	0back/STIM_011.jpg	100
2604.862	0.495	495.1	0back	Block4	0back/STIM_011.jpg	100
2607.428	0.728	728.2	0back	Block4	0back/STIM_012.jpg	100
2611.613	0.736	735.8	0back	Block4	0back/STIM_012.jpg	99
2615.258	0.642	641.9	0back	Block4	0back/STIM_012.jpg	100
2619.194	0.75	750.2	0back	Block4	0back/STIM_013.jpg	100
2622.051	0.801	800.9	0back	Block4	0back/STIM_013.jpg	99
2626.334	0.529	528.9	0back	Block4	0back/STIM_013.jpg	100
2630.423	0.66	659.8	0back	Block4	0back/STIM_014.jpg	100
2633.49	0.52	520.3	0back	Block4	0back/STIM_014.jpg	100
2636.918	0.545	544.7	0back	Block4	0back/STIM_014.jpg	100
2639.669	0.613	613.0	0back	Block4	0back/STIM_015.jpg	99
2643.906	0.543	543.3	0back	Block4	0back/STIM_015.jpg	100
2648.221	0.588	588.1	0back	Block4	0back/STIM_015.jpg	100
2651.076	0.907	907.3	0back	Block4	0back/STIM_016.jpg	100
2655.143	0.624	623.9	0back	Block4	0back/STIM_016.jpg	100
2657.851	0.891	890.9	0back	Block4	0back/STIM_016.jpg	99
2661.338	0.812	811.9	0back	Block4	0back/STIM_017.jpg	99
2664.448	0.656	655.7	0back	Block4	0back/STIM_017.jpg	99
2668.226	0.518	517.9	0back	Block4	0back/STIM_017.jpg	99
2671.679	0.505	504.8	0back	Block4	0back/STIM_018.jpg	99
2675.522	0.569	569.3	0back	Block4	0back/STIM_018.jpg	99
2678.894	0.832	832.3	0back	Block4	0back/STIM_018.jpg	100
2682.477	0.93	929.9	0back	Block4	0back/STIM_019.jpg	100
2687.138	0.555	555.4	0back	Block4	0back/STIM_019.jpg	100
2689.961	0.784	783.9	0back	Block4	0back/STIM_019.jpg	100
