onset	duration	accuracy_binary	trial_type	learning_stage	stimulus
0.0	2.421	1	regulate	Run1	regulate/STIM_000.jpg
6.236	2.6	1	regulate	Run1	regulate/STIM_000.jpg
12.715	1.99	1	regulate	Run1	regulate/STIM_000.jpg
18.425	1.927	1	regulate	Run1	regulate/STIM_000.jpg
23.464	2.003	1	regulate	Run1	regulate/STIM_001.jpg
28.348	2.574	1	regulate	Run1	regulate/STIM_001.jpg
34.552	3.214	1	regulate	Run1	regulate/STIM_001.jpg
39.593	2.021	1	regulate	Run1	regulate/STIM_001.jpg
44.604	3.422	1	regulate	Run1	regulate/STIM_002.jpg
50.108	2.132	1	regulate	Run1	regulate/STIM_002.jpg
55.175	1.926	1	regulate	Run1	regulate/STIM_002.jpg
59.419	2.489	1	regulate	Run1	regulate/STIM_002.jpg
64.547	3.489	1	regulate	Run1	regulate/STIM_003.jpg
70.48	3.045	1	regulate	Run1	regulate/STIM_003.jpg
77.095	1.502	1	regulate	Run1	regulate/STIM_003.jpg
81.817	2.668	1	regulate	Run1	regulate/STIM_003.jpg
87.609	2.725	1	regulate	Run1	regulate/STIM_004.jpg
93.184	1.945	1	regulate	Run1	regulate/STIM_004.jpg
97.891	2.804	1	regulate	Run1	regulate/STIM_004.jpg
103.354	3.077	1	regulate	Run1	regulate/STIM_004.jpg
109.554	3.172	1	regulate	Run1	regulate/STIM_005.jpg
115.347	2.698	1	regulate	Run1	regulate/STIM_005.jpg
120.132	1.925	1	regulate	Run1	regulate/STIM_005.jpg
124.303	1.496	1	regulate	Run1	regulate/STIM_005.jpg
128.402	2.844	0	regulate	Run1	regulate/STIM_006.jpg
134.964	3.321	1	regulate	Run1	regulate/STIM_006.jpg
141.588	2.183	1	regulate	Run1	regulate/STIM_006.jpg
146.577	1.661	1	regulate	Run1	regulate/STIM_006.jpg
150.439	2.718	1	regulate	Run1	regulate/STIM_007.jpg
156.53	1.745	0	regulate	Run1	regulate/STIM_007.jpg
162.035	3.059	1	regulate	Run1	regulate/STIM_007.jpg
167.984	2.571	1	regulate	Run1	regulate/STIM_007.jpg
173.718	2.907	1	regulate	Run1	regulate/STIM_008.jpg
180.029	1.715	1	regulate	Run1	regulate/STIM_008.jpg
183.898	1.508	1	regulate	Run1	regulate/STIM_008.jpg
189.096	2.315	1	regulate	Run1	regulate/STIM_008.jpg
194.578	3.15	1	regulate	Run1	regulate/STIM_009.jpg
200.377	2.811	1	regulate	Run1	regulate/STIM_009.jpg
206.196	1.761	1	regulate	Run1	regulate/STIM_009.jpg
209.987	2.586	1	regulate	Run1	regulate/STIM_009.jpg
215.007	3.005	1	regulate	Run1	regulate/STIM_010.jpg
221.404	2.522	1	regulate	Run1	regulate/STIM_010.jpg
226.567	3.046	0	regulate	Run1	regulate/STIM_010.jpg
233.082	1.366	1	regulate	Run1	regulate/STIM_010.jpg
238.092	2.492	1	regulate	Run1	regulate/STIM_011.jpg
242.502	2.599	0	regulate	Run1	regulate/STIM_011.jpg
248.373	2.28	0	regulate	Run1	regulate/STIM_011.jpg
254.339	1.779	1	regulate	Run1	regulate/STIM_011.jpg
259.823	3.105	1	regulate	Run1	regulate/STIM_012.jpg
265.11	1.841	1	regulate	Run1	regulate/STIM_012.jpg
270.442	2.462	1	regulate	Run1	regulate/STIM_012.jpg
275.053	1.379	0	regulate	Run1	regulate/STIM_012.jpg
280.224	3.294	1	regulate	Run1	regulate/STIM_013.jpg
286.537	1.938	1	regulate	Run1	regulate/STIM_013.jpg
290.7	2.172	0	regulate	Run1	regulate/STIM_013.jpg
295.338	1.628	1	regulate	Run1	regulate/STIM_013.jpg
299.873	3.09	1	regulate	Run1	regulate/STIM_014.jpg
305.196	3.392	1	regulate	Run1	regulate/STIM_014.jpg
312.089	3.361	0	regulate	Run1	regulate/STIM_014.jpg
318.199	1.698	1	regulate	Run1	regulate/STIM_014.jpg
322.012	3.24	1	regulate	Run1	regulate/STIM_015.jpg
328.661	2.898	1	regulate	Run1	regulate/STIM_015.jpg
334.037	3.24	1	regulate	Run1	regulate/STIM_015.jpg
339.521	2.602	1	regulate	Run1	regulate/STIM_015.jpg
344.384	2.316	0	regulate	Run1	regulate/STIM_016.jpg
349.113	2.271	1	regulate	Run1	regulate/STIM_016.jpg
354.979	1.611	0	regulate	Run1	regulate/STIM_016.jpg
359.907	2.713	1	regulate	Run1	regulate/STIM_016.jpg
364.462	2.726	1	regulate	Run1	regulate/STIM_017.jpg
370.979	2.746	1	regulate	Run1	regulate/STIM_017.jpg
376.218	2.727	1	regulate	Run1	regulate/STIM_017.jpg
382.001	2.418	0	regulate	Run1	regulate/STIM_017.jpg
387.06	1.828	1	regulate	Run1	regulate/STIM_018.jpg
391.485	1.616	0	regulate	Run1	regulate/STIM_018.jpg
396.476	2.329	1	regulate	Run1	regulate/STIM_018.jpg
401.371	2.222	0	regulate	Run1	regulate/STIM_018.jpg
405.965	2.389	0	regulate	Run1	regulate/STIM_019.jpg
411.768	3.366	1	regulate	Run1	regulate/STIM_019.jpg
417.727	1.656	1	regulate	Run1	regulate/STIM_019.jpg
423.145	1.875	1	regulate	Run1	regulate/STIM_019.jpg
426.987	2.002	1	regulate	Run1	regulate/STIM_020.jpg
432.282	3.209	1	regulate	Run1	regulate/STIM_020.jpg
437.388	2.182	1	regulate	Run1	regulate/STIM_020.jpg
443.124	2.812	1	regulate	Run1	regulate/STIM_020.jpg
449.44	3.516	1	regulate	Run1	regulate/STIM_021.jpg
455.004	3.281	1	regulate	Run1	regulate/STIM_021.jpg
461.747	1.619	1	regulate	Run1	regulate/STIM_021.jpg
467.048	3.109	1	regulate	Run1	regulate/STIM_021.jpg
471.998	2.91	1	regulate	Run1	regulate/STIM_022.jpg
477.648	3.151	1	regulate	Run1	regulate/STIM_022.jpg
483.329	3.115	1	regulate	Run1	regulate/STIM_022.jpg
489.566	1.79	1	regulate	Run1	regulate/STIM_022.jpg
493.659	2.549	1	regulate	Run1	regulate/STIM_023.jpg
498.574	1.589	1	regulate	Run1	regulate/STIM_023.jpg
502.604	1.507	1	regulate	Run1	regulate/STIM_023.jpg
507.955	1.365	1	regulate	Run1	regulate/STIM_023.jpg
512.8	1.943	0	regulate	Run1	regulate/STIM_024.jpg
518.526	2.882	0	regulate	Run1	regulate/STIM_024.jpg
523.775	3.121	1	regulate	Run1	regulate/STIM_024.jpg
529.223	1.911	1	regulate	Run1	regulate/STIM_024.jpg
534.482	1.955	1	regulate	Run1	regulate/STIM_025.jpg
539.173	2.244	1	regulate	Run1	regulate/STIM_025.jpg
545.0	2.791	1	regulate	Run1	regulate/STIM_025.jpg
551.683	2.765	1	regulate	Run1	regulate/STIM_025.jpg
557.847	3.549	1	regulate	Run1	regulate/STIM_026.jpg
563.948	1.606	0	regulate	Run1	regulate/STIM_026.jpg
569.167	1.535	0	regulate	Run1	regulate/STIM_026.jpg
573.132	2.78	0	regulate	Run1	regulate/STIM_026.jpg
578.402	2.972	1	regulate	Run1	regulate/STIM_027.jpg
584.175	2.252	1	regulate	Run1	regulate/STIM_027.jpg
589.534	2.783	1	regulate	Run1	regulate/STIM_027.jpg
595.307	1.756	1	regulate	Run1	regulate/STIM_027.jpg
600.205	3.077	1	regulate	Run1	regulate/STIM_028.jpg
605.607	2.998	1	regulate	Run1	regulate/STIM_028.jpg
611.434	1.692	0	regulate	Run1	regulate/STIM_028.jpg
616.777	1.978	1	regulate	Run1	regulate/STIM_028.jpg
622.32	3.692	1	regulate	Run1	regulate/STIM_029.jpg
629.553	2.965	1	regulate	Run1	regulate/STIM_029.jpg
635.021	1.464	1	regulate	Run1	regulate/STIM_029.jpg
640.018	1.416	1	regulate	Run1	regulate/STIM_029.jpg
644.954	1.051	1	observe	Run1	observe/STIM_000.jpg
648.694	1.533	0	observe	Run1	observe/STIM_000.jpg
653.06	1.663	1	observe	Run1	observe/STIM_000.jpg
657.085	1.265	1	observe	Run1	observe/STIM_000.jpg
661.463	1.294	1	observe	Run1	observe/STIM_001.jpg
665.957	1.54	1	observe	Run1	observe/STIM_001.jpg
671.419	1.637	1	observe	Run1	observe/STIM_001.jpg
675.885	1.443	1	observe	Run1	observe/STIM_001.jpg
679.92	1.406	1	observe	Run1	observe/STIM_002.jpg
684.595	1.029	1	observe	Run1	observe/STIM_002.jpg
689.046	1.306	1	observe	Run1	observe/STIM_002.jpg
694.177	1.275	1	observe	Run1	observe/STIM_002.jpg
697.912	0.86	1	observe	Run1	observe/STIM_003.jpg
702.454	1.244	1	observe	Run1	observe/STIM_003.jpg
705.81	1.215	1	observe	Run1	observe/STIM_003.jpg
709.78	1.304	1	observe	Run1	observe/STIM_003.jpg
713.536	0.998	1	observe	Run1	observe/STIM_004.jpg
718.324	0.816	1	observe	Run1	observe/STIM_004.jpg
722.802	1.08	1	observe	Run1	observe/STIM_004.jpg
727.474	1.563	0	observe	Run1	observe/STIM_004.jpg
731.187	1.686	0	observe	Run1	observe/STIM_005.jpg
734.904	1.663	0	observe	Run1	observe/STIM_005.jpg
740.368	1.372	1	observe	Run1	observe/STIM_005.jpg
744.335	1.005	1	observe	Run1	observe/STIM_005.jpg
748.36	0.897	1	observe	Run1	observe/STIM_006.jpg
751.538	1.049	1	observe	Run1	observe/STIM_006.jpg
755.856	0.894	1	observe	Run1	observe/STIM_006.jpg
759.326	1.242	1	observe	Run1	observe/STIM_006.jpg
762.671	1.15	1	observe	Run1	observe/STIM_007.jpg
766.865	1.657	0	observe	Run1	observe/STIM_007.jpg
772.371	0.93	1	observe	Run1	observe/STIM_007.jpg
775.697	1.393	1	observe	Run1	observe/STIM_007.jpg
780.318	1.472	1	observe	Run1	observe/STIM_008.jpg
785.268	1.422	1	observe	Run1	observe/STIM_008.jpg
789.835	1.302	1	observe	Run1	observe/STIM_008.jpg
793.552	0.914	1	observe	Run1	observe/STIM_008.jpg
796.767	1.44	1	observe	Run1	observe/STIM_009.jpg
800.384	1.114	1	observe	Run1	observe/STIM_009.jpg
804.174	1.06	1	observe	Run1	observe/STIM_009.jpg
808.577	0.981	1	observe	Run1	observe/STIM_009.jpg
812.346	1.431	0	observe	Run1	observe/STIM_010.jpg
816.064	1.086	1	observe	Run1	observe/STIM_010.jpg
819.911	1.409	1	observe	Run1	observe/STIM_010.jpg
823.649	1.716	1	observe	Run1	observe/STIM_010.jpg
827.494	0.999	1	observe	Run1	observe/STIM_011.jpg
830.906	1.202	1	observe	Run1	observe/STIM_011.jpg
835.449	1.403	1	observe	Run1	observe/STIM_011.jpg
839.629	1.044	1	observe	Run1	observe/STIM_011.jpg
842.856	1.186	1	observe	Run1	observe/STIM_012.jpg
846.087	0.936	1	observe	Run1	observe/STIM_012.jpg
850.345	1.364	1	observe	Run1	observe/STIM_012.jpg
854.289	1.337	1	observe	Run1	observe/STIM_012.jpg
858.753	1.536	1	observe	Run1	observe/STIM_013.jpg
862.736	1.703	1	observe	Run1	observe/STIM_013.jpg
867.914	1.184	1	observe	Run1	observe/STIM_013.jpg
872.078	1.549	0	observe	Run1	observe/STIM_013.jpg
876.903	1.669	1	observe	Run1	observe/STIM_014.jpg
880.625	1.326	1	observe	Run1	observe/STIM_014.jpg
883.953	1.465	1	observe	Run1	observe/STIM_014.jpg
887.951	1.226	0	observe	Run1	observe/STIM_014.jpg
891.229	1.622	1	observe	Run1	observe/STIM_015.jpg
895.235	1.097	1	observe	Run1	observe/STIM_015.jpg
899.92	1.082	1	observe	Run1	observe/STIM_015.jpg
903.808	1.376	1	observe	Run1	observe/STIM_015.jpg
907.675	1.284	0	observe	Run1	observe/STIM_016.jpg
911.029	1.646	0	observe	Run1	observe/STIM_016.jpg
915.459	1.154	1	observe	Run1	observe/STIM_016.jpg
919.166	1.163	1	observe	Run1	observe/STIM_016.jpg
923.886	1.041	1	observe	Run1	observe/STIM_017.jpg
927.153	1.055	1	observe	Run1	observe/STIM_017.jpg
930.892	1.201	1	observe	Run1	observe/STIM_017.jpg
935.021	1.397	1	observe	Run1	observe/STIM_017.jpg
938.812	1.246	1	observe	Run1	observe/STIM_018.jpg
942.334	1.417	1	observe	Run1	observe/STIM_018.jpg
947.525	0.94	1	observe	Run1	observe/STIM_018.jpg
951.184	0.993	1	observe	Run1	observe/STIM_018.jpg
955.013	1.598	1	observe	Run1	observe/STIM_019.jpg
959.343	1.376	0	observe	Run1	observe/STIM_019.jpg
963.314	1.639	0	observe	Run1	observe/STIM_019.jpg
968.019	1.338	1	observe	Run1	observe/STIM_019.jpg
973.143	2.362	1	regulate	Run2	regulate/STIM_000.jpg
979.32	2.064	1	regulate	Run2	regulate/STIM_000.jpg
984.189	2.311	1	regulate	Run2	regulate/STIM_000.jpg
988.511	2.225	0	regulate	Run2	regulate/STIM_000.jpg
992.777	1.376	1	regulate	Run2	regulate/STIM_001.jpg
997.14	1.843	1	regulate	Run2	regulate/STIM_001.jpg
1002.296	2.605	1	regulate	Run2	regulate/STIM_001.jpg
1008.158	1.711	1	regulate	Run2	regulate/STIM_001.jpg
1012.691	1.461	0	regulate	Run2	regulate/STIM_002.jpg
1017.087	2.046	1	regulate	Run2	regulate/STIM_002.jpg
1021.129	2.484	1	regulate	Run2	regulate/STIM_002.jpg
1026.785	2.409	1	regulate	Run2	regulate/STIM_002.jpg
1032.088	1.444	1	regulate	Run2	regulate/STIM_003.jpg
1036.039	1.616	1	regulate	Run2	regulate/STIM_003.jpg
1039.559	1.454	1	regulate	Run2	regulate/STIM_003.jpg
1043.66	1.109	1	regulate	Run2	regulate/STIM_003.jpg
1047.24	1.975	1	regulate	Run2	regulate/STIM_004.jpg
1051.604	1.93	1	regulate	Run2	regulate/STIM_004.jpg
1055.366	2.236	1	regulate	Run2	regulate/STIM_004.jpg
1060.402	2.279	1	regulate	Run2	regulate/STIM_004.jpg
1065.652	2.416	0	regulate	Run2	regulate/STIM_005.jpg
1070.115	1.504	1	regulate	Run2	regulate/STIM_005.jpg
1075.243	1.86	1	regulate	Run2	regulate/STIM_005.jpg
1080.946	1.432	1	regulate	Run2	regulate/STIM_005.jpg
1085.734	2.538	1	regulate	Run2	regulate/STIM_006.jpg
1091.018	1.463	1	regulate	Run2	regulate/STIM_006.jpg
1094.554	1.203	1	regulate	Run2	regulate/STIM_006.jpg
1099.501	1.476	0	regulate	Run2	regulate/STIM_006.jpg
1103.249	1.354	1	regulate	Run2	regulate/STIM_007.jpg
1107.647	1.427	1	regulate	Run2	regulate/STIM_007.jpg
1111.238	2.411	1	regulate	Run2	regulate/STIM_007.jpg
1115.939	1.526	0	regulate	Run2	regulate/STIM_007.jpg
1121.189	1.909	1	regulate	Run2	regulate/STIM_008.jpg
1126.648	2.608	1	regulate	Run2	regulate/STIM_008.jpg
1131.969	1.751	1	regulate	Run2	regulate/STIM_008.jpg
1136.627	1.476	1	regulate	Run2	regulate/STIM_008.jpg
1140.812	1.473	1	regulate	Run2	regulate/STIM_009.jpg
1145.358	2.558	1	regulate	Run2	regulate/STIM_009.jpg
1150.29	1.386	1	regulate	Run2	regulate/STIM_009.jpg
1154.952	1.716	1	regulate	Run2	regulate/STIM_009.jpg
1160.439	2.209	1	regulate	Run2	regulate/STIM_010.jpg
1165.956	1.525	1	regulate	Run2	regulate/STIM_010.jpg
1170.212	2.029	1	regulate	Run2	regulate/STIM_010.jpg
1175.627	2.024	1	regulate	Run2	regulate/STIM_010.jpg
1180.586	1.554	1	regulate	Run2	regulate/STIM_011.jpg
1185.343	1.233	1	regulate	Run2	regulate/STIM_011.jpg
1189.78	2.227	0	regulate	Run2	regulate/STIM_011.jpg
1194.858	1.649	1	regulate	Run2	regulate/STIM_011.jpg
1198.872	3.068	1	regulate	Run2	regulate/STIM_012.jpg
1205.246	2.32	1	regulate	Run2	regulate/STIM_012.jpg
1210.41	2.049	1	regulate	Run2	regulate/STIM_012.jpg
1215.684	1.274	1	regulate	Run2	regulate/STIM_012.jpg
1219.889	2.91	1	regulate	Run2	regulate/STIM_013.jpg
1225.566	2.913	1	regulate	Run2	regulate/STIM_013.jpg
1230.579	1.434	0	regulate	Run2	regulate/STIM_013.jpg
1235.816	1.393	1	regulate	Run2	regulate/STIM_013.jpg
1240.14	1.824	1	regulate	Run2	regulate/STIM_014.jpg
1244.365	1.31	1	regulate	Run2	regulate/STIM_014.jpg
1248.96	2.122	1	regulate	Run2	regulate/STIM_014.jpg
1253.071	1.155	1	regulate	Run2	regulate/STIM_014.jpg
1257.603	1.956	1	regulate	Run2	regulate/STIM_015.jpg
1262.952	2.428	1	regulate	Run2	regulate/STIM_015.jpg
1269.007	2.034	1	regulate	Run2	regulate/STIM_015.jpg
1274.78	1.614	1	regulate	Run2	regulate/STIM_015.jpg
1279.069	2.477	1	regulate	Run2	regulate/STIM_016.jpg
1284.502	1.322	1	regulate	Run2	regulate/STIM_016.jpg
1289.633	1.966	1	regulate	Run2	regulate/STIM_016.jpg
1294.836	2.418	0	regulate	Run2	regulate/STIM_016.jpg
1299.944	2.468	1	regulate	Run2	regulate/STIM_017.jpg
1304.66	1.256	1	regulate	Run2	regulate/STIM_017.jpg
1309.062	2.651	1	regulate	Run2	regulate/STIM_017.jpg
1315.038	1.529	1	regulate	Run2	regulate/STIM_017.jpg
1319.305	2.77	0	regulate	Run2	regulate/STIM_018.jpg
1324.628	2.003	1	regulate	Run2	regulate/STIM_018.jpg
1330.399	1.33	1	regulate	Run2	regulate/STIM_018.jpg
1335.476	2.226	1	regulate	Run2	regulate/STIM_018.jpg
1340.925	2.915	1	regulate	Run2	regulate/STIM_019.jpg
1346.787	2.232	1	regulate	Run2	regulate/STIM_019.jpg
1350.971	2.095	1	regulate	Run2	regulate/STIM_019.jpg
1356.001	1.11	1	regulate	Run2	regulate/STIM_019.jpg
1360.711	2.057	0	regulate	Run2	regulate/STIM_020.jpg
1366.057	1.506	1	regulate	Run2	regulate/STIM_020.jpg
1371.397	2.449	1	regulate	Run2	regulate/STIM_020.jpg
1377.3	2.059	1	regulate	Run2	regulate/STIM_020.jpg
1381.465	2.824	1	regulate	Run2	regulate/STIM_021.jpg
1387.326	1.87	1	regulate	Run2	regulate/STIM_021.jpg
1392.665	1.296	1	regulate	Run2	regulate/STIM_021.jpg
1396.831	1.846	1	regulate	Run2	regulate/STIM_021.jpg
1402.321	1.31	1	regulate	Run2	regulate/STIM_022.jpg
1407.049	1.576	1	regulate	Run2	regulate/STIM_022.jpg
1411.304	1.625	1	regulate	Run2	regulate/STIM_022.jpg
1415.193	2.244	1	regulate	Run2	regulate/STIM_022.jpg
1420.078	2.428	1	regulate	Run2	regulate/STIM_023.jpg
1425.598	2.535	0	regulate	Run2	regulate/STIM_023.jpg
1430.251	1.61	1	regulate	Run2	regulate/STIM_023.jpg
1433.867	2.199	1	regulate	Run2	regulate/STIM_023.jpg
1439.911	2.93	1	regulate	Run2	regulate/STIM_024.jpg
1445.43	1.604	1	regulate	Run2	regulate/STIM_024.jpg
1450.637	2.372	1	regulate	Run2	regulate/STIM_024.jpg
1455.786	2.16	1	regulate	Run2	regulate/STIM_024.jpg
1461.793	1.889	1	regulate	Run2	regulate/STIM_025.jpg
1466.171	1.835	1	regulate	Run2	regulate/STIM_025.jpg
1470.122	2.498	1	regulate	Run2	regulate/STIM_025.jpg
1476.095	1.085	1	regulate	Run2	regulate/STIM_025.jpg
1479.98	2.55	1	regulate	Run2	regulate/STIM_026.jpg
1484.609	2.607	1	regulate	Run2	regulate/STIM_026.jpg
1490.852	1.41	1	regulate	Run2	regulate/STIM_026.jpg
1495.778	1.4	1	regulate	Run2	regulate/STIM_026.jpg
1499.518	2.153	0	regulate	Run2	regulate/STIM_027.jpg
1505.101	1.738	1	regulate	Run2	regulate/STIM_027.jpg
1508.894	1.458	1	regulate	Run2	regulate/STIM_027.jpg
1513.818	2.243	1	regulate	Run2	regulate/STIM_027.jpg
1519.846	2.487	1	regulate	Run2	regulate/STIM_028.jpg
1524.686	2.181	0	regulate	Run2	regulate/STIM_028.jpg
1530.108	1.27	1	regulate	Run2	regulate/STIM_028.jpg
1535.121	1.996	1	regulate	Run2	regulate/STIM_028.jpg
1539.71	1.572	1	regulate	Run2	regulate/STIM_029.jpg
1545.165	2.693	1	regulate	Run2	regulate/STIM_029.jpg
1551.403	2.187	1	regulate	Run2	regulate/STIM_029.jpg
1557.096	1.3	1	regulate	Run2	regulate/STIM_029.jpg
1561.72	0.942	1	observe	Run2	observe/STIM_000.jpg
1565.524	1.258	1	observe	Run2	observe/STIM_000.jpg
1570.324	0.88	0	observe	Run2	observe/STIM_000.jpg
1574.184	1.519	1	observe	Run2	observe/STIM_000.jpg
1579.459	0.962	1	observe	Run2	observe/STIM_001.jpg
1582.594	1.31	1	observe	Run2	observe/STIM_001.jpg
1586.954	1.051	1	observe	Run2	observe/STIM_001.jpg
1590.283	1.479	1	observe	Run2	observe/STIM_001.jpg
1595.483	1.697	1	observe	Run2	observe/STIM_002.jpg
1600.597	1.392	1	observe	Run2	observe/STIM_002.jpg
1605.529	1.702	1	observe	Run2	observe/STIM_002.jpg
1610.007	1.559	1	observe	Run2	observe/STIM_002.jpg
1614.274	1.553	1	observe	Run2	observe/STIM_003.jpg
1619.737	1.676	1	observe	Run2	observe/STIM_003.jpg
1624.133	1.504	1	observe	Run2	observe/STIM_003.jpg
1628.522	1.182	1	observe	Run2	observe/STIM_003.jpg
1633.479	1.369	1	observe	Run2	observe/STIM_004.jpg
1638.366	1.119	0	observe	Run2	observe/STIM_004.jpg
1641.684	1.675	1	observe	Run2	observe/STIM_004.jpg
1646.711	1.599	1	observe	Run2	observe/STIM_004.jpg
1650.964	1.585	1	observe	Run2	observe/STIM_005.jpg
1655.978	1.184	1	observe	Run2	observe/STIM_005.jpg
1660.487	1.438	1	observe	Run2	observe/STIM_005.jpg
1665.1	0.986	1	observe	Run2	observe/STIM_005.jpg
1669.974	0.883	1	observe	Run2	observe/STIM_006.jpg
1674.367	1.418	1	observe	Run2	observe/STIM_006.jpg
1677.849	1.044	1	observe	Run2	observe/STIM_006.jpg
1682.747	1.324	1	observe	Run2	observe/STIM_006.jpg
1687.399	1.349	1	observe	Run2	observe/STIM_007.jpg
1691.679	1.526	1	observe	Run2	observe/STIM_007.jpg
1695.92	1.084	1	observe	Run2	observe/STIM_007.jpg
1700.826	1.45	1	observe	Run2	observe/STIM_007.jpg
1705.346	1.372	1	observe	Run2	observe/STIM_008.jpg
1709.576	1.315	1	observe	Run2	observe/STIM_008.jpg
1713.365	1.229	1	observe	Run2	observe/STIM_008.jpg
1717.822	1.147	0	observe	Run2	observe/STIM_008.jpg
1722.793	0.836	1	observe	Run2	observe/STIM_009.jpg
1727.6	1.58	1	observe	Run2	observe/STIM_009.jpg
1733.058	1.487	1	observe	Run2	observe/STIM_009.jpg
1737.148	1.156	1	observe	Run2	observe/STIM_009.jpg
1741.041	1.438	1	observe	Run2	observe/STIM_010.jpg
1746.356	1.504	1	observe	Run2	observe/STIM_010.jpg
1750.128	1.334	1	observe	Run2	observe/STIM_010.jpg
1754.197	0.838	1	observe	Run2	observe/STIM_010.jpg
1758.033	1.491	1	observe	Run2	observe/STIM_011.jpg
1763.067	1.205	1	observe	Run2	observe/STIM_011.jpg
1768.038	1.126	1	observe	Run2	observe/STIM_011.jpg
1771.877	1.354	1	observe	Run2	observe/STIM_011.jpg
1776.469	1.496	1	observe	Run2	observe/STIM_012.jpg
1781.748	1.391	1	observe	Run2	observe/STIM_012.jpg
1786.567	1.211	0	observe	Run2	observe/STIM_012.jpg
1791.154	0.947	1	observe	Run2	observe/STIM_012.jpg
1794.138	1.068	0	observe	Run2	observe/STIM_013.jpg
1797.668	1.522	1	observe	Run2	observe/STIM_013.jpg
1803.098	0.793	0	observe	Run2	observe/STIM_013.jpg
1805.967	1.431	1	observe	Run2	observe/STIM_013.jpg
1810.515	0.89	1	observe	Run2	observe/STIM_014.jpg
1815.088	1.169	1	observe	Run2	observe/STIM_014.jpg
1820.034	1.026	1	observe	Run2	observe/STIM_014.jpg
1823.989	1.257	0	observe	Run2	observe/STIM_014.jpg
1828.468	1.573	1	observe	Run2	observe/STIM_015.jpg
1832.309	1.475	1	observe	Run2	observe/STIM_015.jpg
1837.46	1.6	1	observe	Run2	observe/STIM_015.jpg
1841.369	1.553	1	observe	Run2	observe/STIM_015.jpg
1845.046	0.883	1	observe	Run2	observe/STIM_016.jpg
1849.836	1.412	1	observe	Run2	observe/STIM_016.jpg
1854.27	0.91	1	observe	Run2	observe/STIM_016.jpg
1857.546	0.881	1	observe	Run2	observe/STIM_016.jpg
1861.675	0.943	1	observe	Run2	observe/STIM_017.jpg
1866.001	1.069	1	observe	Run2	observe/STIM_017.jpg
1869.669	1.023	1	observe	Run2	observe/STIM_017.jpg
1874.598	1.517	1	observe	Run2	observe/STIM_017.jpg
1879.176	1.405	1	observe	Run2	observe/STIM_018.jpg
1883.457	1.2	1	observe	Run2	observe/STIM_018.jpg
1887.499	1.443	1	observe	Run2	observe/STIM_018.jpg
1891.992	1.442	1	observe	Run2	observe/STIM_018.jpg
1895.906	1.185	1	observe	Run2	observe/STIM_019.jpg
1899.922	1.331	1	observe	Run2	observe/STIM_019.jpg
1903.797	1.512	0	observe	Run2	observe/STIM_019.jpg
1908.569	1.511	0	observe	Run2	observe/STIM_019.jpg
1913.956	1.947	1	regulate	Run3	regulate/STIM_000.jpg
1918.788	1.588	1	regulate	Run3	regulate/STIM_000.jpg
1922.298	2.394	1	regulate	Run3	regulate/STIM_000.jpg
1926.705	2.306	1	regulate	Run3	regulate/STIM_000.jpg
1931.002	1.815	1	regulate	Run3	regulate/STIM_001.jpg
1936.431	1.493	1	regulate	Run3	regulate/STIM_001.jpg
1940.704	1.421	1	regulate	Run3	regulate/STIM_001.jpg
1945.286	1.563	1	regulate	Run3	regulate/STIM_001.jpg
1950.419	2.298	1	regulate	Run3	regulate/STIM_002.jpg
1954.737	2.263	1	regulate	Run3	regulate/STIM_002.jpg
1959.757	1.801	1	regulate	Run3	regulate/STIM_002.jpg
1965.441	2.433	1	regulate	Run3	regulate/STIM_002.jpg
1970.679	1.821	1	regulate	Run3	regulate/STIM_003.jpg
1974.931	1.178	1	regulate	Run3	regulate/STIM_003.jpg
1979.358	1.633	1	regulate	Run3	regulate/STIM_003.jpg
1983.152	1.89	1	regulate	Run3	regulate/STIM_003.jpg
1987.062	1.818	1	regulate	Run3	regulate/STIM_004.jpg
1991.527	1.352	1	regulate	Run3	regulate/STIM_004.jpg
1996.352	1.31	1	regulate	Run3	regulate/STIM_004.jpg
2000.268	1.541	1	regulate	Run3	regulate/STIM_004.jpg
2004.958	1.271	1	regulate	Run3	regulate/STIM_005.jpg
2010.067	1.965	1	regulate	Run3	regulate/STIM_005.jpg
2015.486	2.497	1	regulate	Run3	regulate/STIM_005.jpg
2020.03	2.426	1	regulate	Run3	regulate/STIM_005.jpg
2025.032	1.222	1	regulate	Run3	regulate/STIM_006.jpg
2029.161	1.719	1	regulate	Run3	regulate/STIM_006.jpg
2033.622	1.798	1	regulate	Run3	regulate/STIM_006.jpg
2039.327	2.184	1	regulate	Run3	regulate/STIM_006.jpg
2045.266	1.854	1	regulate	Run3	regulate/STIM_007.jpg
2050.95	2.339	1	regulate	Run3	regulate/STIM_007.jpg
2056.754	2.493	1	regulate	Run3	regulate/STIM_007.jpg
2061.594	2.421	1	regulate	Run3	regulate/STIM_007.jpg
2065.997	1.794	1	regulate	Run3	regulate/STIM_008.jpg
2071.297	2.44	1	regulate	Run3	regulate/STIM_008.jpg
2076.269	2.29	1	regulate	Run3	regulate/STIM_008.jpg
2082.038	2.055	1	regulate	Run3	regulate/STIM_008.jpg
2086.922	1.217	1	regulate	Run3	regulate/STIM_009.jpg
2091.258	1.142	1	regulate	Run3	regulate/STIM_009.jpg
2094.913	1.371	1	regulate	Run3	regulate/STIM_009.jpg
2098.603	1.097	1	regulate	Run3	regulate/STIM_009.jpg
2102.774	1.935	1	regulate	Run3	regulate/STIM_010.jpg
2108.307	1.674	1	regulate	Run3	regulate/STIM_010.jpg
2113.371	1.882	1	regulate	Run3	regulate/STIM_010.jpg
2117.717	1.398	1	regulate	Run3	regulate/STIM_010.jpg
2121.926	2.334	1	regulate	Run3	regulate/STIM_011.jpg
2126.507	2.031	1	regulate	Run3	regulate/STIM_011.jpg
2131.502	1.702	1	regulate	Run3	regulate/STIM_011.jpg
2136.851	2.354	0	regulate	Run3	regulate/STIM_011.jpg
2141.346	1.979	1	regulate	Run3	regulate/STIM_012.jpg
2146.107	1.136	1	regulate	Run3	regulate/STIM_012.jpg
2150.231	2.06	0	regulate	Run3	regulate/STIM_012.jpg
2155.668	2.091	1	regulate	Run3	regulate/STIM_012.jpg
2160.779	2.327	1	regulate	Run3	regulate/STIM_013.jpg
2165.037	1.554	0	regulate	Run3	regulate/STIM_013.jpg
2170.486	1.371	1	regulate	Run3	regulate/STIM_013.jpg
2174.473	2.536	1	regulate	Run3	regulate/STIM_013.jpg
2179.082	1.364	1	regulate	Run3	regulate/STIM_014.jpg
2183.852	2.216	1	regulate	Run3	regulate/STIM_014.jpg
2188.929	2.33	1	regulate	Run3	regulate/STIM_014.jpg
2193.52	2.474	1	regulate	Run3	regulate/STIM_014.jpg
2198.554	1.188	1	regulate	Run3	regulate/STIM_015.jpg
2202.925	2.02	1	regulate	Run3	regulate/STIM_015.jpg
2208.566	2.18	1	regulate	Run3	regulate/STIM_015.jpg
2213.183	1.505	1	regulate	Run3	regulate/STIM_015.jpg
2216.955	1.847	1	regulate	Run3	regulate/STIM_016.jpg
2220.987	1.675	1	regulate	Run3	regulate/STIM_016.jpg
2224.711	2.574	1	regulate	Run3	regulate/STIM_016.jpg
2229.559	1.092	1	regulate	Run3	regulate/STIM_016.jpg
2233.831	1.544	1	regulate	Run3	regulate/STIM_017.jpg
2238.149	1.744	1	regulate	Run3	regulate/STIM_017.jpg
2242.908	2.314	1	regulate	Run3	regulate/STIM_017.jpg
2248.608	1.642	1	regulate	Run3	regulate/STIM_017.jpg
2254.013	1.675	1	regulate	Run3	regulate/STIM_018.jpg
2258.679	2.331	0	regulate	Run3	regulate/STIM_018.jpg
2264.732	2.329	1	regulate	Run3	regulate/STIM_018.jpg
2270.692	2.45	1	regulate	Run3	regulate/STIM_018.jpg
2275.107	1.315	1	regulate	Run3	regulate/STIM_019.jpg
2279.747	1.412	1	regulate	Run3	regulate/STIM_019.jpg
2284.504	2.253	1	regulate	Run3	regulate/STIM_019.jpg
2289.123	2.428	1	regulate	Run3	regulate/STIM_019.jpg
2293.723	1.812	1	regulate	Run3	regulate/STIM_020.jpg
2298.526	2.386	1	regulate	Run3	regulate/STIM_020.jpg
2303.873	1.507	0	regulate	Run3	regulate/STIM_020.jpg
2307.971	1.065	1	regulate	Run3	regulate/STIM_020.jpg
2311.924	2.257	1	regulate	Run3	regulate/STIM_021.jpg
2316.755	2.532	0	regulate	Run3	regulate/STIM_021.jpg
2322.921	2.244	1	regulate	Run3	regulate/STIM_021.jpg
2328.17	1.43	1	regulate	Run3	regulate/STIM_021.jpg
2332.824	1.282	1	regulate	Run3	regulate/STIM_022.jpg
2336.505	2.046	1	regulate	Run3	regulate/STIM_022.jpg
2341.476	1.559	0	regulate	Run3	regulate/STIM_022.jpg
2346.49	1.331	1	regulate	Run3	regulate/STIM_022.jpg
2350.898	1.788	1	regulate	Run3	regulate/STIM_023.jpg
2355.941	1.99	1	regulate	Run3	regulate/STIM_023.jpg
2361.06	1.626	1	regulate	Run3	regulate/STIM_023.jpg
2366.461	1.846	1	regulate	Run3	regulate/STIM_023.jpg
2371.739	1.548	1	regulate	Run3	regulate/STIM_024.jpg
2375.406	2.078	1	regulate	Run3	regulate/STIM_024.jpg
2380.965	2.255	1	regulate	Run3	regulate/STIM_024.jpg
2385.118	2.549	1	regulate	Run3	regulate/STIM_024.jpg
2390.008	1.629	1	regulate	Run3	regulate/STIM_025.jpg
2395.505	1.035	1	regulate	Run3	regulate/STIM_025.jpg
2399.55	1.521	1	regulate	Run3	regulate/STIM_025.jpg
2403.584	2.058	1	regulate	Run3	regulate/STIM_025.jpg
2409.333	1.887	1	regulate	Run3	regulate/STIM_026.jpg
2413.774	2.436	1	regulate	Run3	regulate/STIM_026.jpg
2419.46	2.035	1	regulate	Run3	regulate/STIM_026.jpg
2424.246	1.965	1	regulate	Run3	regulate/STIM_026.jpg
2429.47	1.553	1	regulate	Run3	regulate/STIM_027.jpg
2434.986	1.293	0	regulate	Run3	regulate/STIM_027.jpg
2438.222	1.554	0	regulate	Run3	regulate/STIM_027.jpg
2442.702	2.461	1	regulate	Run3	regulate/STIM_027.jpg
2448.26	1.059	1	regulate	Run3	regulate/STIM_028.jpg
2452.222	2.127	1	regulate	Run3	regulate/STIM_028.jpg
2457.748	1.332	1	regulate	Run3	regulate/STIM_028.jpg
2462.167	2.024	1	regulate	Run3	regulate/STIM_028.jpg
2466.199	2.308	1	regulate	Run3	regulate/STIM_029.jpg
2471.175	1.811	1	regulate	Run3	regulate/STIM_029.jpg
2476.297	2.057	1	regulate	Run3	regulate/STIM_029.jpg
2482.182	1.88	1	regulate	Run3	regulate/STIM_029.jpg
2487.044	1.054	1	observe	Run3	observe/STIM_000.jpg
2491.41	1.083	1	observe	Run3	observe/STIM_000.jpg
2495.977	1.346	1	observe	Run3	observe/STIM_000.jpg
2499.73	1.48	1	observe	Run3	observe/STIM_000.jpg
2503.402	1.058	1	observe	Run3	observe/STIM_001.jpg
2507.143	1.088	0	observe	Run3	observe/STIM_001.jpg
2511.989	1.403	1	observe	Run3	observe/STIM_001.jpg
2517.266	1.005	1	observe	Run3	observe/STIM_001.jpg
2521.432	1.429	1	observe	Run3	observe/STIM_002.jpg
2524.839	0.883	1	observe	Run3	observe/STIM_002.jpg
2528.243	1.466	1	observe	Run3	observe/STIM_002.jpg
2532.606	1.235	1	observe	Run3	observe/STIM_002.jpg
2537.089	1.298	1	observe	Run3	observe/STIM_003.jpg
2540.519	1.506	1	observe	Run3	observe/STIM_003.jpg
2545.519	1.169	1	observe	Run3	observe/STIM_003.jpg
2548.572	1.057	1	observe	Run3	observe/STIM_003.jpg
2553.277	1.046	1	observe	Run3	observe/STIM_004.jpg
2557.557	1.008	1	observe	Run3	observe/STIM_004.jpg
2560.725	1.585	1	observe	Run3	observe/STIM_004.jpg
2566.05	1.567	0	observe	Run3	observe/STIM_004.jpg
2571.161	1.193	1	observe	Run3	observe/STIM_005.jpg
2575.574	1.298	0	observe	Run3	observe/STIM_005.jpg
2579.803	1.069	1	observe	Run3	observe/STIM_005.jpg
2583.723	1.088	0	observe	Run3	observe/STIM_005.jpg
2587.869	1.562	1	observe	Run3	observe/STIM_006.jpg
2592.5	0.82	1	observe	Run3	observe/STIM_006.jpg
2595.616	1.616	1	observe	Run3	observe/STIM_006.jpg
2600.053	0.79	1	observe	Run3	observe/STIM_006.jpg
2603.081	1.492	1	observe	Run3	observe/STIM_007.jpg
2606.75	1.077	0	observe	Run3	observe/STIM_007.jpg
2611.009	1.031	1	observe	Run3	observe/STIM_007.jpg
2615.986	1.35	1	observe	Run3	observe/STIM_007.jpg
2620.421	1.441	1	observe	Run3	observe/STIM_008.jpg
2625.626	0.846	1	observe	Run3	observe/STIM_008.jpg
2628.947	1.364	1	observe	Run3	observe/STIM_008.jpg
2632.719	1.289	1	observe	Run3	observe/STIM_008.jpg
2636.51	1.515	1	observe	Run3	observe/STIM_009.jpg
2641.512	1.542	0	observe	Run3	observe/STIM_009.jpg
2645.93	1.334	1	observe	Run3	observe/STIM_009.jpg
2651.014	1.61	1	observe	Run3	observe/STIM_009.jpg
2655.025	1.154	1	observe	Run3	observe/STIM_010.jpg
2658.461	1.006	1	observe	Run3	observe/STIM_010.jpg
2661.666	1.315	1	observe	Run3	observe/STIM_010.jpg
2665.405	1.48	1	observe	Run3	observe/STIM_010.jpg
2669.308	1.572	1	observe	Run3	observe/STIM_011.jpg
2673.604	1.443	1	observe	Run3	observe/STIM_011.jpg
2678.447	1.383	1	observe	Run3	observe/STIM_011.jpg
2683.242	1.563	1	observe	Run3	observe/STIM_011.jpg
2686.789	0.788	1	observe	Run3	observe/STIM_012.jpg
2690.462	1.11	1	observe	Run3	observe/STIM_012.jpg
2695.209	0.994	1	observe	Run3	observe/STIM_012.jpg
2699.646	1.518	1	observe	Run3	observe/STIM_012.jpg
2704.507	1.148	1	observe	Run3	observe/STIM_013.jpg
2708.504	1.568	1	observe	Run3	observe/STIM_013.jpg
2713.542	1.592	1	observe	Run3	observe/STIM_013.jpg
2717.787	1.154	1	observe	Run3	observe/STIM_013.jpg
2721.047	0.885	1	observe	Run3	observe/STIM_014.jpg
2725.503	1.565	1	observe	Run3	observe/STIM_014.jpg
2729.447	0.893	1	observe	Run3	observe/STIM_014.jpg
2734.005	1.06	1	observe	Run3	observe/STIM_014.jpg
2738.129	1.282	1	observe	Run3	observe/STIM_015.jpg
2743.319	1.16	1	observe	Run3	observe/STIM_015.jpg
2747.604	1.035	1	observe	Run3	observe/STIM_015.jpg
2751.132	1.116	1	observe	Run3	observe/STIM_015.jpg
2756.024	1.076	1	observe	Run3	observe/STIM_016.jpg
2759.625	0.831	1	observe	Run3	observe/STIM_016.jpg
2762.538	1.138	1	observe	Run3	observe/STIM_016.jpg
2767.147	1.571	1	observe	Run3	observe/STIM_016.jpg
2772.484	1.547	1	observe	Run3	observe/STIM_017.jpg
2777.143	1.078	1	observe	Run3	observe/STIM_017.jpg
2781.573	1.03	1	observe	Run3	observe/STIM_017.jpg
2785.708	1.268	0	observe	Run3	observe/STIM_017.jpg
2788.929	1.582	0	observe	Run3	observe/STIM_018.jpg
2792.86	1.138	1	observe	Run3	observe/STIM_018.jpg
2796.043	1.035	1	observe	Run3	observe/STIM_018.jpg
2800.369	1.312	1	observe	Run3	observe/STIM_018.jpg
2804.474	1.613	1	observe	Run3	observe/STIM_019.jpg
2809.562	1.306	1	observe	Run3	observe/STIM_019.jpg
2813.863	1.447	1	observe	Run3	observe/STIM_019.jpg
2817.389	1.205	1	observe	Run3	observe/STIM_019.jpg
