onset	duration	accuracy_binary	trial_type	learning_stage	stimulus
0.0	3.286	1	regulate	Run1	regulate/STIM_000.jpg
6.739	2.052	1	regulate	Run1	regulate/STIM_000.jpg
11.845	2.411	1	regulate	Run1	regulate/STIM_000.jpg
17.085	3.009	1	regulate	Run1	regulate/STIM_000.jpg
23.259	3.437	1	regulate	Run1	regulate/STIM_001.jpg
29.679	1.964	1	regulate	Run1	regulate/STIM_001.jpg
34.458	2.215	1	regulate	Run1	regulate/STIM_001.jpg
39.762	2.857	1	regulate	Run1	regulate/STIM_001.jpg
46.065	3.131	1	regulate	Run1	regulate/STIM_002.jpg
53.105	2.601	1	regulate	Run1	regulate/STIM_002.jpg
59.593	1.973	1	regulate	Run1	regulate/STIM_002.jpg
65.192	2.329	1	regulate	Run1	regulate/STIM_002.jpg
70.395	2.941	1	regulate	Run1	regulate/STIM_003.jpg
76.757	1.669	1	regulate	Run1	regulate/STIM_003.jpg
81.526	2.026	1	regulate	Run1	regulate/STIM_003.jpg
86.961	1.969	1	regulate	Run1	regulate/STIM_003.jpg
91.142	2.274	1	regulate	Run1	regulate/STIM_004.jpg
96.749	2.337	1	regulate	Run1	regulate/STIM_004.jpg
101.404	2.721	1	regulate	Run1	regulate/STIM_004.jpg
107.541	1.307	1	regulate	Run1	regulate/STIM_004.jpg
111.077	2.64	1	regulate	Run1	regulate/STIM_005.jpg
116.478	2.89	1	regulate	Run1	regulate/STIM_005.jpg
122.318	2.744	1	regulate	Run1	regulate/STIM_005.jpg
128.137	2.253	1	regulate	Run1	regulate/STIM_005.jpg
134.257	2.855	0	regulate	Run1	regulate/STIM_006.jpg
139.695	2.522	1	regulate	Run1	regulate/STIM_006.jpg
145.578	2.205	1	regulate	Run1	regulate/STIM_006.jpg
149.86	2.072	1	regulate	Run1	regulate/STIM_006.jpg
155.034	3.059	0	regulate	Run1	regulate/STIM_007.jpg
160.251	2.355	1	regulate	Run1	regulate/STIM_007.jpg
166.298	3.105	1	regulate	Run1	regulate/STIM_007.jpg
172.223	2.973	1	regulate	Run1	regulate/STIM_007.jpg
177.349	1.792	1	regulate	Run1	regulate/STIM_008.jpg
183.084	2.623	1	regulate	Run1	regulate/STIM_008.jpg
188.986	2.234	1	regulate	Run1	regulate/STIM_008.jpg
195.176	2.686	1	regulate	Run1	regulate/STIM_008.jpg
200.363	1.617	1	regulate	Run1	regulate/STIM_009.jpg
204.985	1.627	1	regulate	Run1	regulate/STIM_009.jpg
209.042	2.078	1	regulate	Run1	regulate/STIM_009.jpg
213.258	1.533	1	regulate	Run1	regulate/STIM_009.jpg
218.76	2.269	1	regulate	Run1	regulate/STIM_010.jpg
224.356	1.863	1	regulate	Run1	regulate/STIM_010.jpg
228.401	1.8	1	regulate	Run1	regulate/STIM_010.jpg
232.386	2.599	1	regulate	Run1	regulate/STIM_010.jpg
237.475	2.023	1	regulate	Run1	regulate/STIM_011.jpg
242.269	1.837	0	regulate	Run1	regulate/STIM_011.jpg
247.333	2.029	0	regulate	Run1	regulate/STIM_011.jpg
251.629	2.875	1	regulate	Run1	regulate/STIM_011.jpg
257.529	2.195	1	regulate	Run1	regulate/STIM_012.jpg
262.509	2.433	1	regulate	Run1	regulate/STIM_012.jpg
267.483	2.231	1	regulate	Run1	regulate/STIM_012.jpg
273.294	2.649	1	regulate	Run1	regulate/STIM_012.jpg
277.991	1.675	1	regulate	Run1	regulate/STIM_013.jpg
282.555	2.003	1	regulate	Run1	regulate/STIM_013.jpg
287.858	2.326	1	regulate	Run1	regulate/STIM_013.jpg
292.509	2.758	1	regulate	Run1	regulate/STIM_013.jpg
298.558	1.943	1	regulate	Run1	regulate/STIM_014.jpg
302.862	1.725	1	regulate	Run1	regulate/STIM_014.jpg
308.074	1.491	0	regulate	Run1	regulate/STIM_014.jpg
313.166	2.89	1	regulate	Run1	regulate/STIM_014.jpg
318.379	1.594	1	regulate	Run1	regulate/STIM_015.jpg
322.599	2.716	1	regulate	Run1	regulate/STIM_015.jpg
328.373	2.836	1	regulate	Run1	regulate/STIM_015.jpg
334.227	1.614	1	regulate	Run1	regulate/STIM_015.jpg
339.464	3.268	1	regulate	Run1	regulate/STIM_016.jpg
346.162	2.602	0	regulate	Run1	regulate/STIM_016.jpg
352.481	1.78	1	regulate	Run1	regulate/STIM_016.jpg
357.426	2.246	1	regulate	Run1	regulate/STIM_016.jpg
363.562	2.1	0	regulate	Run1	regulate/STIM_017.jpg
369.136	2.136	1	regulate	Run1	regulate/STIM_017.jpg
375.246	1.544	1	regulate	Run1	regulate/STIM_017.jpg
379.382	1.933	1	regulate	Run1	regulate/STIM_017.jpg
383.621	2.112	1	regulate	Run1	regulate/STIM_018.jpg
388.657	1.518	0	regulate	Run1	regulate/STIM_018.jpg
394.171	1.787	1	regulate	Run1	regulate/STIM_018.jpg
398.301	2.561	0	regulate	Run1	regulate/STIM_018.jpg
404.481	3.066	0	regulate	Run1	regulate/STIM_019.jpg
409.648	2.51	1	regulate	Run1	regulate/STIM_019.jpg
414.873	2.32	1	regulate	Run1	regulate/STIM_019.jpg
420.97	1.469	1	regulate	Run1	regulate/STIM_019.jpg
425.493	2.737	1	regulate	Run1	regulate/STIM_020.jpg
430.482	2.154	1	regulate	Run1	regulate/STIM_020.jpg
435.437	3.08	1	regulate	Run1	regulate/STIM_020.jpg
441.217	1.934	1	regulate	Run1	regulate/STIM_020.jpg
446.053	2.01	0	regulate	Run1	regulate/STIM_021.jpg
450.587	1.549	1	regulate	Run1	regulate/STIM_021.jpg
455.72	2.436	1	regulate	Run1	regulate/STIM_021.jpg
461.947	2.156	1	regulate	Run1	regulate/STIM_021.jpg
466.673	3.046	1	regulate	Run1	regulate/STIM_022.jpg
472.469	2.533	1	regulate	Run1	regulate/STIM_022.jpg
477.793	1.846	1	regulate	Run1	regulate/STIM_022.jpg
483.355	1.788	1	regulate	Run1	regulate/STIM_022.jpg
487.277	3.302	1	regulate	Run1	regulate/STIM_023.jpg
494.034	2.396	1	regulate	Run1	regulate/STIM_023.jpg
499.1	2.111	1	regulate	Run1	regulate/STIM_023.jpg
503.706	2.136	1	regulate	Run1	regulate/STIM_023.jpg
508.317	3.382	0	regulate	Run1	regulate/STIM_024.jpg
514.378	3.03	0	regulate	Run1	regulate/STIM_024.jpg
520.141	2.975	1	regulate	Run1	regulate/STIM_024.jpg
526.059	2.418	1	regulate	Run1	regulate/STIM_024.jpg
532.228	2.398	1	regulate	Run1	regulate/STIM_025.jpg
537.983	2.034	1	regulate	Run1	regulate/STIM_025.jpg
543.02	3.069	1	regulate	Run1	regulate/STIM_025.jpg
550.088	2.607	1	regulate	Run1	regulate/STIM_025.jpg
556.293	1.88	1	regulate	Run1	regulate/STIM_026.jpg
560.645	3.157	1	regulate	Run1	regulate/STIM_026.jpg
567.522	3.066	1	regulate	Run1	regulate/STIM_026.jpg
572.66	1.768	1	regulate	Run1	regulate/STIM_026.jpg
576.664	2.315	1	regulate	Run1	regulate/STIM_027.jpg
581.491	3.102	1	regulate	Run1	regulate/STIM_027.jpg
587.8	2.124	1	regulate	Run1	regulate/STIM_027.jpg
592.431	2.851	1	regulate	Run1	regulate/STIM_027.jpg
597.555	2.793	1	regulate	Run1	regulate/STIM_028.jpg
603.642	1.916	1	regulate	Run1	regulate/STIM_028.jpg
607.599	2.006	1	regulate	Run1	regulate/STIM_028.jpg
613.106	2.19	1	regulate	Run1	regulate/STIM_028.jpg
618.331	1.951	1	regulate	Run1	regulate/STIM_029.jpg
624.058	2.966	1	regulate	Run1	regulate/STIM_029.jpg
630.963	2.706	1	regulate	Run1	regulate/STIM_029.jpg
636.029	1.354	1	regulate	Run1	regulate/STIM_029.jpg
639.767	0.867	1	observe	Run1	observe/STIM_000.jpg
643.978	1.094	1	observe	Run1	observe/STIM_000.jpg
649.004	1.042	1	observe	Run1	observe/STIM_000.jpg
652.297	0.881	1	observe	Run1	observe/STIM_000.jpg
655.914	0.868	1	observe	Run1	observe/STIM_001.jpg
659.025	1.301	1	observe	Run1	observe/STIM_001.jpg
664.066	1.62	1	observe	Run1	observe/STIM_001.jpg
668.802	1.453	1	observe	Run1	observe/STIM_001.jpg
673.154	0.872	1	observe	Run1	observe/STIM_002.jpg
677.125	1.523	1	observe	Run1	observe/STIM_002.jpg
680.656	1.354	1	observe	Run1	observe/STIM_002.jpg
685.554	1.294	1	observe	Run1	observe/STIM_002.jpg
690.445	1.58	1	observe	Run1	observe/STIM_003.jpg
695.614	1.334	1	observe	Run1	observe/STIM_003.jpg
700.871	1.111	1	observe	Run1	observe/STIM_003.jpg
704.726	1.114	1	observe	Run1	observe/STIM_003.jpg
709.822	1.462	1	observe	Run1	observe/STIM_004.jpg
713.794	1.247	1	observe	Run1	observe/STIM_004.jpg
718.662	1.609	1	observe	Run1	observe/STIM_004.jpg
722.708	1.16	1	observe	Run1	observe/STIM_004.jpg
725.87	1.06	0	observe	Run1	observe/STIM_005.jpg
730.23	1.207	1	observe	Run1	observe/STIM_005.jpg
733.863	1.058	1	observe	Run1	observe/STIM_005.jpg
738.31	0.879	1	observe	Run1	observe/STIM_005.jpg
741.572	1.265	1	observe	Run1	observe/STIM_006.jpg
745.264	1.266	1	observe	Run1	observe/STIM_006.jpg
749.72	1.562	1	observe	Run1	observe/STIM_006.jpg
754.361	1.615	1	observe	Run1	observe/STIM_006.jpg
758.423	1.587	1	observe	Run1	observe/STIM_007.jpg
763.479	1.523	0	observe	Run1	observe/STIM_007.jpg
767.243	1.222	1	observe	Run1	observe/STIM_007.jpg
772.227	1.538	1	observe	Run1	observe/STIM_007.jpg
776.515	1.218	1	observe	Run1	observe/STIM_008.jpg
780.918	1.615	1	observe	Run1	observe/STIM_008.jpg
786.231	1.313	1	observe	Run1	observe/STIM_008.jpg
790.08	1.464	1	observe	Run1	observe/STIM_008.jpg
794.388	1.351	1	observe	Run1	observe/STIM_009.jpg
798.401	0.984	1	observe	Run1	observe/STIM_009.jpg
803.26	0.852	1	observe	Run1	observe/STIM_009.jpg
806.715	1.132	0	observe	Run1	observe/STIM_009.jpg
810.261	1.573	0	observe	Run1	observe/STIM_010.jpg
814.053	1.275	1	observe	Run1	observe/STIM_010.jpg
818.387	1.186	1	observe	Run1	observe/STIM_010.jpg
822.693	1.524	1	observe	Run1	observe/STIM_010.jpg
827.011	1.176	1	observe	Run1	observe/STIM_011.jpg
831.984	1.433	1	observe	Run1	observe/STIM_011.jpg
836.087	1.228	0	observe	Run1	observe/STIM_011.jpg
840.347	1.312	1	observe	Run1	observe/STIM_011.jpg
844.294	1.125	1	observe	Run1	observe/STIM_012.jpg
847.782	0.851	1	observe	Run1	observe/STIM_012.jpg
850.973	0.939	1	observe	Run1	observe/STIM_012.jpg
855.485	1.563	1	observe	Run1	observe/STIM_012.jpg
860.135	1.606	1	observe	Run1	observe/STIM_013.jpg
864.353	1.273	1	observe	Run1	observe/STIM_013.jpg
869.112	0.877	1	observe	Run1	observe/STIM_013.jpg
873.75	1.217	0	observe	Run1	observe/STIM_013.jpg
878.04	1.032	1	observe	Run1	observe/STIM_014.jpg
883.048	1.399	1	observe	Run1	observe/STIM_014.jpg
887.107	1.261	1	observe	Run1	observe/STIM_014.jpg
892.304	0.966	1	observe	Run1	observe/STIM_014.jpg
896.049	1.067	1	observe	Run1	observe/STIM_015.jpg
900.196	1.602	1	observe	Run1	observe/STIM_015.jpg
905.521	1.583	1	observe	Run1	observe/STIM_015.jpg
909.298	1.212	1	observe	Run1	observe/STIM_015.jpg
913.316	1.425	0	observe	Run1	observe/STIM_016.jpg
916.989	1.206	1	observe	Run1	observe/STIM_016.jpg
921.149	1.416	1	observe	Run1	observe/STIM_016.jpg
925.075	1.154	1	observe	Run1	observe/STIM_016.jpg
929.278	1.422	1	observe	Run1	observe/STIM_017.jpg
933.317	1.545	1	observe	Run1	observe/STIM_017.jpg
938.787	1.58	1	observe	Run1	observe/STIM_017.jpg
943.836	1.433	1	observe	Run1	observe/STIM_017.jpg
948.77	1.478	1	observe	Run1	observe/STIM_018.jpg
953.78	1.396	1	observe	Run1	observe/STIM_018.jpg
958.646	0.904	1	observe	Run1	observe/STIM_018.jpg
962.4	0.993	1	observe	Run1	observe/STIM_018.jpg
966.897	1.104	1	observe	Run1	observe/STIM_019.jpg
971.632	0.94	0	observe	Run1	observe/STIM_019.jpg
975.335	0.917	1	observe	Run1	observe/STIM_019.jpg
979.519	0.92	1	observe	Run1	observe/STIM_019.jpg
984.186	1.584	1	regulate	Run2	regulate/STIM_000.jpg
988.641	2.209	1	regulate	Run2	regulate/STIM_000.jpg
993.838	1.868	1	regulate	Run2	regulate/STIM_000.jpg
998.248	2.093	0	regulate	Run2	regulate/STIM_000.jpg
1002.692	1.646	1	regulate	Run2	regulate/STIM_001.jpg
1007.353	2.649	1	regulate	Run2	regulate/STIM_001.jpg
1013.774	2.646	1	regulate	Run2	regulate/STIM_001.jpg
1019.595	1.324	1	regulate	Run2	regulate/STIM_001.jpg
1023.062	2.793	0	regulate	Run2	regulate/STIM_002.jpg
1029.408	1.508	1	regulate	Run2	regulate/STIM_002.jpg
1033.934	1.287	1	regulate	Run2	regulate/STIM_002.jpg
1037.786	1.252	1	regulate	Run2	regulate/STIM_002.jpg
1042.484	2.199	1	regulate	Run2	regulate/STIM_003.jpg
1048.112	1.516	1	regulate	Run2	regulate/STIM_003.jpg
1053.069	2.313	1	regulate	Run2	regulate/STIM_003.jpg
1059.011	1.947	1	regulate	Run2	regulate/STIM_003.jpg
1064.396	2.188	1	regulate	Run2	regulate/STIM_004.jpg
1070.168	2.174	1	regulate	Run2	regulate/STIM_004.jpg
1075.3	2.499	1	regulate	Run2	regulate/STIM_004.jpg
1080.875	2.226	1	regulate	Run2	regulate/STIM_004.jpg
1086.093	1.988	0	regulate	Run2	regulate/STIM_005.jpg
1091.765	2.183	1	regulate	Run2	regulate/STIM_005.jpg
1097.942	2.076	1	regulate	Run2	regulate/STIM_005.jpg
1102.552	1.456	1	regulate	Run2	regulate/STIM_005.jpg
1106.206	1.839	1	regulate	Run2	regulate/STIM_006.jpg
1110.118	2.844	1	regulate	Run2	regulate/STIM_006.jpg
1116.681	1.301	1	regulate	Run2	regulate/STIM_006.jpg
1120.32	2.272	1	regulate	Run2	regulate/STIM_006.jpg
1125.261	1.583	1	regulate	Run2	regulate/STIM_007.jpg
1129.231	2.669	1	regulate	Run2	regulate/STIM_007.jpg
1135.19	1.539	1	regulate	Run2	regulate/STIM_007.jpg
1139.405	2.269	0	regulate	Run2	regulate/STIM_007.jpg
1144.642	2.356	1	regulate	Run2	regulate/STIM_008.jpg
1150.662	1.293	1	regulate	Run2	regulate/STIM_008.jpg
1154.038	1.485	1	regulate	Run2	regulate/STIM_008.jpg
1158.242	2.441	1	regulate	Run2	regulate/STIM_008.jpg
1163.048	2.784	1	regulate	Run2	regulate/STIM_009.jpg
1169.507	2.385	1	regulate	Run2	regulate/STIM_009.jpg
1175.321	1.752	1	regulate	Run2	regulate/STIM_009.jpg
1179.839	2.045	1	regulate	Run2	regulate/STIM_009.jpg
1184.403	2.816	1	regulate	Run2	regulate/STIM_010.jpg
1190.878	1.73	0	regulate	Run2	regulate/STIM_010.jpg
1194.928	2.202	1	regulate	Run2	regulate/STIM_010.jpg
1200.083	2.174	1	regulate	Run2	regulate/STIM_010.jpg
1205.542	1.489	1	regulate	Run2	regulate/STIM_011.jpg
1209.575	1.64	1	regulate	Run2	regulate/STIM_011.jpg
1214.306	1.862	0	regulate	Run2	regulate/STIM_011.jpg
1219.25	2.151	1	regulate	Run2	regulate/STIM_011.jpg
1223.635	2.028	1	regulate	Run2	regulate/STIM_012.jpg
1227.895	2.266	1	regulate	Run2	regulate/STIM_012.jpg
1233.082	2.568	1	regulate	Run2	regulate/STIM_012.jpg
1239.504	1.611	1	regulate	Run2	regulate/STIM_012.jpg
1243.365	2.248	1	regulate	Run2	regulate/STIM_013.jpg
1248.566	1.786	1	regulate	Run2	regulate/STIM_013.jpg
1252.614	2.398	0	regulate	Run2	regulate/STIM_013.jpg
1257.215	1.228	1	regulate	Run2	regulate/STIM_013.jpg
1260.844	2.346	1	regulate	Run2	regulate/STIM_014.jpg
1266.351	2.083	1	regulate	Run2	regulate/STIM_014.jpg
1270.437	1.471	1	regulate	Run2	regulate/STIM_014.jpg
1275.074	1.115	1	regulate	Run2	regulate/STIM_014.jpg
1278.771	1.376	1	regulate	Run2	regulate/STIM_015.jpg
1283.169	2.435	1	regulate	Run2	regulate/STIM_015.jpg
1289.183	2.339	1	regulate	Run2	regulate/STIM_015.jpg
1295.262	1.1	1	regulate	Run2	regulate/STIM_015.jpg
1299.815	3.011	1	regulate	Run2	regulate/STIM_016.jpg
1304.866	2.085	1	regulate	Run2	regulate/STIM_016.jpg
1309.676	2.041	1	regulate	Run2	regulate/STIM_016.jpg
1314.522	2.329	1	regulate	Run2	regulate/STIM_016.jpg
1319.027	2.036	1	regulate	Run2	regulate/STIM_017.jpg
1324.803	2.216	1	regulate	Run2	regulate/STIM_017.jpg
1330.9	1.24	1	regulate	Run2	regulate/STIM_017.jpg
1336.024	1.13	1	regulate	Run2	regulate/STIM_017.jpg
1340.191	2.498	0	regulate	Run2	regulate/STIM_018.jpg
1344.754	1.564	1	regulate	Run2	regulate/STIM_018.jpg
1349.164	1.501	1	regulate	Run2	regulate/STIM_018.jpg
1353.916	1.929	0	regulate	Run2	regulate/STIM_018.jpg
1359.133	2.432	1	regulate	Run2	regulate/STIM_019.jpg
1363.747	2.244	1	regulate	Run2	regulate/STIM_019.jpg
1368.97	2.639	1	regulate	Run2	regulate/STIM_019.jpg
1374.889	2.429	0	regulate	Run2	regulate/STIM_019.jpg
1380.774	2.192	1	regulate	Run2	regulate/STIM_020.jpg
1386.268	1.999	1	regulate	Run2	regulate/STIM_020.jpg
1390.386	1.966	1	regulate	Run2	regulate/STIM_020.jpg
1396.089	2.449	1	regulate	Run2	regulate/STIM_020.jpg
1400.6	2.494	1	regulate	Run2	regulate/STIM_021.jpg
1405.789	1.525	1	regulate	Run2	regulate/STIM_021.jpg
1410.783	1.17	1	regulate	Run2	regulate/STIM_021.jpg
1415.042	1.225	1	regulate	Run2	regulate/STIM_021.jpg
1418.43	1.828	1	regulate	Run2	regulate/STIM_022.jpg
1424.059	2.845	1	regulate	Run2	regulate/STIM_022.jpg
1430.336	2.649	1	regulate	Run2	regulate/STIM_022.jpg
1435.098	2.423	1	regulate	Run2	regulate/STIM_022.jpg
1439.761	2.378	1	regulate	Run2	regulate/STIM_023.jpg
1444.589	2.514	1	regulate	Run2	regulate/STIM_023.jpg
1450.63	1.886	1	regulate	Run2	regulate/STIM_023.jpg
1455.787	2.307	1	regulate	Run2	regulate/STIM_023.jpg
1460.281	2.661	1	regulate	Run2	regulate/STIM_024.jpg
1466.521	1.688	1	regulate	Run2	regulate/STIM_024.jpg
1470.21	1.777	1	regulate	Run2	regulate/STIM_024.jpg
1475.439	1.473	1	regulate	Run2	regulate/STIM_024.jpg
1479.626	1.827	1	regulate	Run2	regulate/STIM_025.jpg
1485.442	1.595	1	regulate	Run2	regulate/STIM_025.jpg
1489.766	1.442	1	regulate	Run2	regulate/STIM_025.jpg
1493.82	2.001	1	regulate	Run2	regulate/STIM_025.jpg
1499.623	2.43	1	regulate	Run2	regulate/STIM_026.jpg
1504.493	1.787	1	regulate	Run2	regulate/STIM_026.jpg
1509.596	1.291	1	regulate	Run2	regulate/STIM_026.jpg
1513.019	1.154	1	regulate	Run2	regulate/STIM_026.jpg
1517.736	2.962	0	regulate	Run2	regulate/STIM_027.jpg
1523.85	1.61	1	regulate	Run2	regulate/STIM_027.jpg
1529.444	1.488	1	regulate	Run2	regulate/STIM_027.jpg
1533.332	1.692	1	regulate	Run2	regulate/STIM_027.jpg
1538.362	2.889	1	regulate	Run2	regulate/STIM_028.jpg
1544.765	2.344	0	regulate	Run2	regulate/STIM_028.jpg
1550.966	2.25	1	regulate	Run2	regulate/STIM_028.jpg
1556.525	1.479	1	regulate	Run2	regulate/STIM_028.jpg
1561.971	2.033	1	regulate	Run2	regulate/STIM_029.jpg
1566.41	1.863	1	regulate	Run2	regulate/STIM_029.jpg
1571.454	2.429	1	regulate	Run2	regulate/STIM_029.jpg
1576.426	1.401	1	regulate	Run2	regulate/STIM_029.jpg
1580.098	1.191	1	observe	Run2	observe/STIM_000.jpg
1583.957	1.036	1	observe	Run2	observe/STIM_000.jpg
1587.558	1.348	1	observe	Run2	observe/STIM_000.jpg
1590.916	1.075	1	observe	Run2	observe/STIM_000.jpg
1595.555	1.071	1	observe	Run2	observe/STIM_001.jpg
1599.304	1.344	1	observe	Run2	observe/STIM_001.jpg
1603.658	1.175	1	observe	Run2	observe/STIM_001.jpg
1606.948	0.951	1	observe	Run2	observe/STIM_001.jpg
1611.852	1.48	1	observe	Run2	observe/STIM_002.jpg
1616.04	1.394	1	observe	Run2	observe/STIM_002.jpg
1619.662	1.359	1	observe	Run2	observe/STIM_002.jpg
1623.513	0.873	1	observe	Run2	observe/STIM_002.jpg
1627.957	1.494	1	observe	Run2	observe/STIM_003.jpg
1631.977	1.307	1	observe	Run2	observe/STIM_003.jpg
1635.428	1.415	1	observe	Run2	observe/STIM_003.jpg
1638.888	1.619	1	observe	Run2	observe/STIM_003.jpg
1644.472	1.153	1	observe	Run2	observe/STIM_004.jpg
1649.507	1.125	1	observe	Run2	observe/STIM_004.jpg
1653.172	1.19	1	observe	Run2	observe/STIM_004.jpg
1656.833	0.987	1	observe	Run2	observe/STIM_004.jpg
1660.064	1.062	1	observe	Run2	observe/STIM_005.jpg
1664.286	1.46	1	observe	Run2	observe/STIM_005.jpg
1669.675	1.377	1	observe	Run2	observe/STIM_005.jpg
1673.289	1.155	1	observe	Run2	observe/STIM_005.jpg
1676.645	0.924	1	observe	Run2	observe/STIM_006.jpg
1680.269	1.222	1	observe	Run2	observe/STIM_006.jpg
1685.223	1.015	1	observe	Run2	observe/STIM_006.jpg
1689.854	1.541	1	observe	Run2	observe/STIM_006.jpg
1693.752	0.831	1	observe	Run2	observe/STIM_007.jpg
1696.753	1.547	0	observe	Run2	observe/STIM_007.jpg
1701.165	1.415	1	observe	Run2	observe/STIM_007.jpg
1706.494	1.008	1	observe	Run2	observe/STIM_007.jpg
1711.491	1.53	1	observe	Run2	observe/STIM_008.jpg
1715.432	1.14	1	observe	Run2	observe/STIM_008.jpg
1719.544	1.207	1	observe	Run2	observe/STIM_008.jpg
1723.991	1.096	1	observe	Run2	observe/STIM_008.jpg
1728.653	0.978	1	observe	Run2	observe/STIM_009.jpg
1732.81	0.867	1	observe	Run2	observe/STIM_009.jpg
1735.872	1.029	1	observe	Run2	observe/STIM_009.jpg
1740.521	1.0	1	observe	Run2	observe/STIM_009.jpg
1743.6	1.46	1	observe	Run2	observe/STIM_010.jpg
1747.477	1.602	1	observe	Run2	observe/STIM_010.jpg
1751.788	0.914	1	observe	Run2	observe/STIM_010.jpg
1755.146	1.538	1	observe	Run2	observe/STIM_010.jpg
1760.132	1.029	1	observe	Run2	observe/STIM_011.jpg
1764.198	0.961	1	observe	Run2	observe/STIM_011.jpg
1767.509	1.063	1	observe	Run2	observe/STIM_011.jpg
1772.091	1.11	1	observe	Run2	observe/STIM_011.jpg
1775.205	1.104	1	observe	Run2	observe/STIM_012.jpg
1778.38	1.213	1	observe	Run2	observe/STIM_012.jpg
1782.446	1.153	0	observe	Run2	observe/STIM_012.jpg
1786.439	1.177	1	observe	Run2	observe/STIM_012.jpg
1790.634	1.628	0	observe	Run2	observe/STIM_013.jpg
1794.99	1.06	1	observe	Run2	observe/STIM_013.jpg
1798.237	0.983	0	observe	Run2	observe/STIM_013.jpg
1801.244	1.576	1	observe	Run2	observe/STIM_013.jpg
1805.833	1.156	1	observe	Run2	observe/STIM_014.jpg
1810.354	1.53	1	observe	Run2	observe/STIM_014.jpg
1814.081	1.474	1	observe	Run2	observe/STIM_014.jpg
1819.322	1.02	0	observe	Run2	observe/STIM_014.jpg
1822.799	1.049	1	observe	Run2	observe/STIM_015.jpg
1827.283	0.855	1	observe	Run2	observe/STIM_015.jpg
1830.93	0.859	1	observe	Run2	observe/STIM_015.jpg
1835.298	1.172	1	observe	Run2	observe/STIM_015.jpg
1839.249	0.994	1	observe	Run2	observe/STIM_016.jpg
1842.806	0.822	1	observe	Run2	observe/STIM_016.jpg
1846.123	1.248	1	observe	Run2	observe/STIM_016.jpg
1851.285	1.156	1	observe	Run2	observe/STIM_016.jpg
1855.689	1.328	1	observe	Run2	observe/STIM_017.jpg
1861.0	1.118	1	observe	Run2	observe/STIM_017.jpg
1864.858	1.021	1	observe	Run2	observe/STIM_017.jpg
1868.302	1.478	1	observe	Run2	observe/STIM_017.jpg
1872.66	1.226	1	observe	Run2	observe/STIM_018.jpg
1877.828	1.022	1	observe	Run2	observe/STIM_018.jpg
1882.595	1.273	1	observe	Run2	observe/STIM_018.jpg
1885.998	0.958	1	observe	Run2	observe/STIM_018.jpg
1889.169	1.179	1	observe	Run2	observe/STIM_019.jpg
1893.913	1.197	1	observe	Run2	observe/STIM_019.jpg
1897.632	0.972	0	observe	Run2	observe/STIM_019.jpg
1901.2	1.324	1	observe	Run2	observe/STIM_019.jpg
1905.206	2.109	1	regulate	Run3	regulate/STIM_000.jpg
1910.893	1.665	1	regulate	Run3	regulate/STIM_000.jpg
1915.166	1.431	1	regulate	Run3	regulate/STIM_000.jpg
1919.911	1.431	1	regulate	Run3	regulate/STIM_000.jpg
1924.537	2.371	1	regulate	Run3	regulate/STIM_001.jpg
1930.362	1.362	1	regulate	Run3	regulate/STIM_001.jpg
1934.447	1.082	1	regulate	Run3	regulate/STIM_001.jpg
1937.864	1.375	1	regulate	Run3	regulate/STIM_001.jpg
1941.709	1.882	1	regulate	Run3	regulate/STIM_002.jpg
1945.604	2.056	1	regulate	Run3	regulate/STIM_002.jpg
1950.067	1.416	1	regulate	Run3	regulate/STIM_002.jpg
1955.163	1.647	1	regulate	Run3	regulate/STIM_002.jpg
1959.583	1.141	1	regulate	Run3	regulate/STIM_003.jpg
1963.052	1.531	1	regulate	Run3	regulate/STIM_003.jpg
1966.751	1.087	1	regulate	Run3	regulate/STIM_003.jpg
1970.143	1.785	1	regulate	Run3	regulate/STIM_003.jpg
1975.891	1.858	1	regulate	Run3	regulate/STIM_004.jpg
1981.613	1.518	1	regulate	Run3	regulate/STIM_004.jpg
1987.017	1.977	1	regulate	Run3	regulate/STIM_004.jpg
1992.165	2.327	1	regulate	Run3	regulate/STIM_004.jpg
1996.916	1.41	1	regulate	Run3	regulate/STIM_005.jpg
2000.393	2.464	1	regulate	Run3	regulate/STIM_005.jpg
2006.757	2.496	1	regulate	Run3	regulate/STIM_005.jpg
2011.569	1.181	1	regulate	Run3	regulate/STIM_005.jpg
2015.394	2.404	1	regulate	Run3	regulate/STIM_006.jpg
2021.418	2.379	1	regulate	Run3	regulate/STIM_006.jpg
2026.58	2.109	1	regulate	Run3	regulate/STIM_006.jpg
2032.499	1.595	1	regulate	Run3	regulate/STIM_006.jpg
2037.879	1.879	1	regulate	Run3	regulate/STIM_007.jpg
2042.452	1.311	1	regulate	Run3	regulate/STIM_007.jpg
2046.903	1.648	1	regulate	Run3	regulate/STIM_007.jpg
2051.316	1.981	1	regulate	Run3	regulate/STIM_007.jpg
2056.247	2.116	1	regulate	Run3	regulate/STIM_008.jpg
2061.329	1.624	1	regulate	Run3	regulate/STIM_008.jpg
2065.063	2.121	1	regulate	Run3	regulate/STIM_008.jpg
2069.966	1.421	1	regulate	Run3	regulate/STIM_008.jpg
2073.719	2.255	1	regulate	Run3	regulate/STIM_009.jpg
2078.003	2.492	1	regulate	Run3	regulate/STIM_009.jpg
2084.413	2.243	1	regulate	Run3	regulate/STIM_009.jpg
2090.427	2.031	1	regulate	Run3	regulate/STIM_009.jpg
2096.411	2.314	1	regulate	Run3	regulate/STIM_010.jpg
2102.126	1.672	1	regulate	Run3	regulate/STIM_010.jpg
2107.579	2.415	1	regulate	Run3	regulate/STIM_010.jpg
2112.196	2.324	1	regulate	Run3	regulate/STIM_010.jpg
2116.923	1.275	1	regulate	Run3	regulate/STIM_011.jpg
2120.409	1.854	1	regulate	Run3	regulate/STIM_011.jpg
2125.33	2.183	1	regulate	Run3	regulate/STIM_011.jpg
2130.299	1.694	1	regulate	Run3	regulate/STIM_011.jpg
2135.46	2.025	1	regulate	Run3	regulate/STIM_012.jpg
2140.963	1.23	1	regulate	Run3	regulate/STIM_012.jpg
2145.499	1.846	1	regulate	Run3	regulate/STIM_012.jpg
2151.198	1.368	1	regulate	Run3	regulate/STIM_012.jpg
2154.905	1.308	1	regulate	Run3	regulate/STIM_013.jpg
2159.411	2.334	1	regulate	Run3	regulate/STIM_013.jpg
2163.982	1.152	1	regulate	Run3	regulate/STIM_013.jpg
2169.091	1.979	1	regulate	Run3	regulate/STIM_013.jpg
2173.391	2.382	1	regulate	Run3	regulate/STIM_014.jpg
2179.111	2.395	1	regulate	Run3	regulate/STIM_014.jpg
2185.305	1.369	1	regulate	Run3	regulate/STIM_014.jpg
2188.816	1.99	1	regulate	Run3	regulate/STIM_014.jpg
2194.041	1.948	1	regulate	Run3	regulate/STIM_015.jpg
2198.968	1.624	1	regulate	Run3	regulate/STIM_015.jpg
2204.352	1.686	1	regulate	Run3	regulate/STIM_015.jpg
2209.437	2.271	1	regulate	Run3	regulate/STIM_015.jpg
2215.127	1.787	1	regulate	Run3	regulate/STIM_016.jpg
2220.908	1.303	1	regulate	Run3	regulate/STIM_016.jpg
2225.944	2.133	1	regulate	Run3	regulate/STIM_016.jpg
2230.092	1.376	1	regulate	Run3	regulate/STIM_016.jpg
2234.319	1.655	1	regulate	Run3	regulate/STIM_017.jpg
2239.63	1.168	1	regulate	Run3	regulate/STIM_017.jpg
2243.878	1.112	1	regulate	Run3	regulate/STIM_017.jpg
2247.701	1.874	1	regulate	Run3	regulate/STIM_017.jpg
2251.947	2.363	1	regulate	Run3	regulate/STIM_018.jpg
2257.882	1.23	1	regulate	Run3	regulate/STIM_018.jpg
2261.762	2.414	1	regulate	Run3	regulate/STIM_018.jpg
2267.312	1.444	1	regulate	Run3	regulate/STIM_018.jpg
2270.766	1.319	1	regulate	Run3	regulate/STIM_019.jpg
2276.055	1.173	1	regulate	Run3	regulate/STIM_019.jpg
2280.416	2.091	1	regulate	Run3	regulate/STIM_019.jpg
2286.295	2.27	1	regulate	Run3	regulate/STIM_019.jpg
2291.358	1.473	1	regulate	Run3	regulate/STIM_020.jpg
2295.85	2.259	1	regulate	Run3	regulate/STIM_020.jpg
2302.01	2.174	0	regulate	Run3	regulate/STIM_020.jpg
2307.426	1.416	1	regulate	Run3	regulate/STIM_020.jpg
2311.611	1.677	1	regulate	Run3	regulate/STIM_021.jpg
2316.316	1.365	1	regulate	Run3	regulate/STIM_021.jpg
2319.752	1.458	1	regulate	Run3	regulate/STIM_021.jpg
2325.163	2.011	1	regulate	Run3	regulate/STIM_021.jpg
2330.821	1.097	1	regulate	Run3	regulate/STIM_022.jpg
2333.991	1.732	1	regulate	Run3	regulate/STIM_022.jpg
2338.2	2.492	0	regulate	Run3	regulate/STIM_022.jpg
2343.711	1.377	1	regulate	Run3	regulate/STIM_022.jpg
2348.992	1.467	1	regulate	Run3	regulate/STIM_023.jpg
2352.57	1.892	1	regulate	Run3	regulate/STIM_023.jpg
2357.416	2.353	1	regulate	Run3	regulate/STIM_023.jpg
2361.826	2.37	1	regulate	Run3	regulate/STIM_023.jpg
2366.575	2.269	1	regulate	Run3	regulate/STIM_024.jpg
2372.28	1.919	1	regulate	Run3	regulate/STIM_024.jpg
2376.331	1.614	1	regulate	Run3	regulate/STIM_024.jpg
2380.38	1.579	1	regulate	Run3	regulate/STIM_024.jpg
2384.206	2.361	1	regulate	Run3	regulate/STIM_025.jpg
2390.256	2.239	1	regulate	Run3	regulate/STIM_025.jpg
2394.972	2.376	1	regulate	Run3	regulate/STIM_025.jpg
2401.123	1.228	1	regulate	Run3	regulate/STIM_025.jpg
2405.143	2.16	1	regulate	Run3	regulate/STIM_026.jpg
2410.363	2.294	1	regulate	Run3	regulate/STIM_026.jpg
2415.321	1.798	1	regulate	Run3	regulate/STIM_026.jpg
2419.512	2.441	1	regulate	Run3	regulate/STIM_026.jpg
2425.28	2.06	1	regulate	Run3	regulate/STIM_027.jpg
2430.129	1.846	1	regulate	Run3	regulate/STIM_027.jpg
2435.344	2.207	0	regulate	Run3	regulate/STIM_027.jpg
2441.287	1.858	1	regulate	Run3	regulate/STIM_027.jpg
2445.298	1.107	1	regulate	Run3	regulate/STIM_028.jpg
2449.826	2.271	1	regulate	Run3	regulate/STIM_028.jpg
2456.036	2.065	1	regulate	Run3	regulate/STIM_028.jpg
2462.042	2.241	1	regulate	Run3	regulate/STIM_028.jpg
2466.91	2.385	1	regulate	Run3	regulate/STIM_029.jpg
2473.257	1.803	1	regulate	Run3	regulate/STIM_029.jpg
2478.29	1.255	1	regulate	Run3	regulate/STIM_029.jpg
2481.928	1.424	1	regulate	Run3	regulate/STIM_029.jpg
2485.503	1.155	1	observe	Run3	observe/STIM_000.jpg
2489.052	0.858	1	observe	Run3	observe/STIM_000.jpg
2493.525	1.249	1	observe	Run3	observe/STIM_000.jpg
2496.825	1.309	1	observe	Run3	observe/STIM_000.jpg
2500.196	1.286	1	observe	Run3	observe/STIM_001.jpg
2504.112	1.404	0	observe	Run3	observe/STIM_001.jpg
2509.415	1.258	1	observe	Run3	observe/STIM_001.jpg
2514.475	1.478	1	observe	Run3	observe/STIM_001.jpg
2519.623	1.296	1	observe	Run3	observe/STIM_002.jpg
2523.252	1.062	1	observe	Run3	observe/STIM_002.jpg
2527.032	1.27	1	observe	Run3	observe/STIM_002.jpg
2531.161	1.45	1	observe	Run3	observe/STIM_002.jpg
2535.681	1.459	1	observe	Run3	observe/STIM_003.jpg
2539.933	1.355	1	observe	Run3	observe/STIM_003.jpg
2544.719	1.306	1	observe	Run3	observe/STIM_003.jpg
2548.41	1.33	1	observe	Run3	observe/STIM_003.jpg
2553.412	1.531	1	observe	Run3	observe/STIM_004.jpg
2558.58	1.313	1	observe	Run3	observe/STIM_004.jpg
2562.907	0.974	1	observe	Run3	observe/STIM_004.jpg
2566.413	1.343	0	observe	Run3	observe/STIM_004.jpg
2570.595	1.189	1	observe	Run3	observe/STIM_005.jpg
2574.791	1.454	0	observe	Run3	observe/STIM_005.jpg
2579.982	1.544	1	observe	Run3	observe/STIM_005.jpg
2584.381	0.937	0	observe	Run3	observe/STIM_005.jpg
2588.946	0.858	1	observe	Run3	observe/STIM_006.jpg
2593.581	1.565	1	observe	Run3	observe/STIM_006.jpg
2597.315	1.391	1	observe	Run3	observe/STIM_006.jpg
2601.488	0.86	1	observe	Run3	observe/STIM_006.jpg
2604.941	1.018	1	observe	Run3	observe/STIM_007.jpg
2609.493	0.912	1	observe	Run3	observe/STIM_007.jpg
2612.703	1.333	1	observe	Run3	observe/STIM_007.jpg
2617.178	1.476	1	observe	Run3	observe/STIM_007.jpg
2622.239	1.386	1	observe	Run3	observe/STIM_008.jpg
2626.25	1.368	1	observe	Run3	observe/STIM_008.jpg
2629.843	1.21	1	observe	Run3	observe/STIM_008.jpg
2634.633	1.574	1	observe	Run3	observe/STIM_008.jpg
2638.82	1.509	1	observe	Run3	observe/STIM_009.jpg
2643.185	1.191	0	observe	Run3	observe/STIM_009.jpg
2648.121	1.203	1	observe	Run3	observe/STIM_009.jpg
2651.647	0.982	1	observe	Run3	observe/STIM_009.jpg
2655.308	1.298	1	observe	Run3	observe/STIM_010.jpg
2660.472	1.054	1	observe	Run3	observe/STIM_010.jpg
2664.731	1.216	1	observe	Run3	observe/STIM_010.jpg
2668.4	1.184	1	observe	Run3	observe/STIM_010.jpg
2671.657	1.362	1	observe	Run3	observe/STIM_011.jpg
2675.174	1.396	1	observe	Run3	observe/STIM_011.jpg
2678.853	1.28	1	observe	Run3	observe/STIM_011.jpg
2683.379	0.878	1	observe	Run3	observe/STIM_011.jpg
2687.096	1.524	1	observe	Run3	observe/STIM_012.jpg
2691.186	0.919	1	observe	Run3	observe/STIM_012.jpg
2695.845	0.995	1	observe	Run3	observe/STIM_012.jpg
2699.48	1.44	1	observe	Run3	observe/STIM_012.jpg
2702.951	1.452	1	observe	Run3	observe/STIM_013.jpg
2707.927	1.608	1	observe	Run3	observe/STIM_013.jpg
2711.638	1.601	1	observe	Run3	observe/STIM_013.jpg
2716.356	1.409	1	observe	Run3	observe/STIM_013.jpg
2721.225	1.384	1	observe	Run3	observe/STIM_014.jpg
2726.124	1.348	1	observe	Run3	observe/STIM_014.jpg
2729.55	1.564	1	observe	Run3	observe/STIM_014.jpg
2734.789	1.171	1	observe	Run3	observe/STIM_014.jpg
2739.482	1.206	1	observe	Run3	observe/STIM_015.jpg
2744.602	1.078	1	observe	Run3	observe/STIM_015.jpg
2748.761	1.549	1	observe	Run3	observe/STIM_015.jpg
2752.853	1.007	1	observe	Run3	observe/STIM_015.jpg
2757.134	1.508	1	observe	Run3	observe/STIM_016.jpg
2761.771	1.35	1	observe	Run3	observe/STIM_016.jpg
2765.757	1.433	1	observe	Run3	observe/STIM_016.jpg
2770.923	1.114	1	observe	Run3	observe/STIM_016.jpg
2775.853	1.053	1	observe	Run3	observe/STIM_017.jpg
2779.373	1.489	1	observe	Run3	observe/STIM_017.jpg
2783.969	1.312	1	observe	Run3	observe/STIM_017.jpg
2788.541	0.861	0	observe	Run3	observe/STIM_017.jpg
2792.125	1.43	1	observe	Run3	observe/STIM_018.jpg
2797.326	1.084	1	observe	Run3	observe/STIM_018.jpg
2800.47	0.969	1	observe	Run3	observe/STIM_018.jpg
2803.83	1.307	1	observe	Run3	observe/STIM_018.jpg
2807.993	0.959	1	observe	Run3	observe/STIM_019.jpg
2812.388	1.348	1	observe	Run3	observe/STIM_019.jpg
2815.772	1.005	1	observe	Run3	observe/STIM_019.jpg
2819.126	1.376	1	observe	Run3	observe/STIM_019.jpg
