onset	duration	response_time_ms	trial_type	learning_stage	stimulus	response_port
0.0	2.421	2421.1	regulate	Run1	regulate/STIM_000.jpg	99
6.236	2.6	2600.5	regulate	Run1	regulate/STIM_000.jpg	99
12.715	1.99	1990.4	regulate	Run1	regulate/STIM_000.jpg	99
18.425	1.927	1926.7	regulate	Run1	regulate/STIM_000.jpg	100
23.464	2.003	2002.8	regulate	Run1	regulate/STIM_001.jpg	100
28.348	2.574	2573.8	regulate	Run1	regulate/STIM_001.jpg	99
34.552	3.214	3213.8	regulate	Run1	regulate/STIM_001.jpg	100
39.593	2.021	2020.7	regulate	Run1	regulate/STIM_001.jpg	100
44.604	3.422	3422.5	regulate	Run1	regulate/STIM_002.jpg	100
50.108	2.132	2132.2	regulate	Run1	regulate/STIM_002.jpg	100
55.175	1.926	1925.9	regulate	Run1	regulate/STIM_002.jpg	99
59.419	2.489	2488.8	regulate	Run1	regulate/STIM_002.jpg	99
64.547	3.489	3488.9	regulate	Run1	regulate/STIM_003.jpg	100
70.48	3.045	3044.6	regulate	Run1	regulate/STIM_003.jpg	99
77.095	1.502	1502.1	regulate	Run1	regulate/STIM_003.jpg	99
81.817	2.668	2668.1	regulate	Run1	regulate/STIM_003.jpg	99
87.609	2.725	2724.7	regulate	Run1	regulate/STIM_004.jpg	100
93.184	1.945	1944.8	regulate	Run1	regulate/STIM_004.jpg	99
97.891	2.804	2803.5	regulate	Run1	regulate/STIM_004.jpg	100
103.354	3.077	3076.8	regulate	Run1	regulate/STIM_004.jpg	100
109.554	3.172	3172.4	regulate	Run1	regulate/STIM_005.jpg	100
115.347	2.698	2698.2	regulate	Run1	regulate/STIM_005.jpg	100
120.132	1.925	1924.8	regulate	Run1	regulate/STIM_005.jpg	99
124.303	1.496	1496.0	regulate	Run1	regulate/STIM_005.jpg	100
128.402	2.844	2844.5	regulate	Run1	regulate/STIM_006.jpg	99
134.964	3.321	3320.9	regulate	Run1	regulate/STIM_006.jpg	99
141.588	2.183	2183.0	regulate	Run1	regulate/STIM_006.jpg	100
146.577	1.661	1661.1	regulate	Run1	regulate/STIM_006.jpg	99
150.439	2.718	2717.9	regulate	Run1	regulate/STIM_007.jpg	100
156.53	1.745	1745.1	regulate	Run1	regulate/STIM_007.jpg	100
162.035	3.059	3059.4	regulate	Run1	regulate/STIM_007.jpg	100
167.984	2.571	2571.4	regulate	Run1	regulate/STIM_007.jpg	100
173.718	2.907	2907.1	regulate	Run1	regulate/STIM_008.jpg	99
180.029	1.715	1714.6	regulate	Run1	regulate/STIM_008.jpg	100
183.898	1.508	1507.5	regulate	Run1	regulate/STIM_008.jpg	100
189.096	2.315	2315.0	regulate	Run1	regulate/STIM_008.jpg	100
194.578	3.15	3149.7	regulate	Run1	regulate/STIM_009.jpg	99
200.377	2.811	2810.8	regulate	Run1	regulate/STIM_009.jpg	100
206.196	1.761	1761.2	regulate	Run1	regulate/STIM_009.jpg	100
209.987	2.586	2585.6	regulate	Run1	regulate/STIM_009.jpg	100
215.007	3.005	3004.8	regulate	Run1	regulate/STIM_010.jpg	99
221.404	2.522	2521.5	regulate	Run1	regulate/STIM_010.jpg	99
226.567	3.046	3045.8	regulate	Run1	regulate/STIM_010.jpg	99
233.082	1.366	1365.9	regulate	Run1	regulate/STIM_010.jpg	99
238.092	2.492	2491.6	regulate	Run1	regulate/STIM_011.jpg	100
242.502	2.599	2598.7	regulate	Run1	regulate/STIM_011.jpg	100
248.373	2.28	2280.4	regulate	Run1	regulate/STIM_011.jpg	100
254.339	1.779	1779.4	regulate	Run1	regulate/STIM_011.jpg	99
259.823	3.105	3105.3	regulate	Run1	regulate/STIM_012.jpg	99
265.11	1.841	1840.6	regulate	Run1	regulate/STIM_012.jpg	100
270.442	2.462	2461.7	regulate	Run1	regulate/STIM_012.jpg	100
275.053	1.379	1378.6	regulate	Run1	regulate/STIM_012.jpg	100
280.224	3.294	3293.6	regulate	Run1	regulate/STIM_013.jpg	99
286.537	1.938	1937.5	regulate	Run1	regulate/STIM_013.jpg	99
290.7	2.172	2172.3	regulate	Run1	regulate/STIM_013.jpg	100
295.338	1.628	1627.9	regulate	Run1	regulate/STIM_013.jpg	99
299.873	3.09	3089.9	regulate	Run1	regulate/STIM_014.jpg	100
305.196	3.392	3391.9	regulate	Run1	regulate/STIM_014.jpg	100
312.089	3.361	3360.6	regulate	Run1	regulate/STIM_014.jpg	99
318.199	1.698	1698.4	regulate	Run1	regulate/STIM_014.jpg	99
322.012	3.24	3239.6	regulate	Run1	regulate/STIM_015.jpg	100
328.661	2.898	2898.3	regulate	Run1	regulate/STIM_015.jpg	99
334.037	3.24	3239.7	regulate	Run1	regulate/STIM_015.jpg	100
339.521	2.602	2602.4	regulate	Run1	regulate/STIM_015.jpg	100
344.384	2.316	2316.3	regulate	Run1	regulate/STIM_016.jpg	99
349.113	2.271	2270.9	regulate	Run1	regulate/STIM_016.jpg	100
354.979	1.611	1611.0	regulate	Run1	regulate/STIM_016.jpg	99
359.907	2.713	2713.3	regulate	Run1	regulate/STIM_016.jpg	99
364.462	2.726	2726.3	regulate	Run1	regulate/STIM_017.jpg	100
370.979	2.746	2745.8	regulate	Run1	regulate/STIM_017.jpg	99
376.218	2.727	2727.1	regulate	Run1	regulate/STIM_017.jpg	100
382.001	2.418	2418.0	regulate	Run1	regulate/STIM_017.jpg	100
387.06	1.828	1827.6	regulate	Run1	regulate/STIM_018.jpg	99
391.485	1.616	1616.1	regulate	Run1	regulate/STIM_018.jpg	100
396.476	2.329	2329.2	regulate	Run1	regulate/STIM_018.jpg	99
401.371	2.222	2221.8	regulate	Run1	regulate/STIM_018.jpg	99
405.965	2.389	2389.3	regulate	Run1	regulate/STIM_019.jpg	100
411.768	3.366	3365.9	regulate	Run1	regulate/STIM_019.jpg	99
417.727	1.656	1655.5	regulate	Run1	regulate/STIM_019.jpg	99
423.145	1.875	1875.4	regulate	Run1	regulate/STIM_019.jpg	99
426.987	2.002	2001.5	regulate	Run1	regulate/STIM_020.jpg	99
432.282	3.209	3209.3	regulate	Run1	regulate/STIM_020.jpg	100
437.388	2.182	2181.8	regulate	Run1	regulate/STIM_020.jpg	99
443.124	2.812	2811.5	regulate	Run1	regulate/STIM_020.jpg	100
449.44	3.516	3516.3	regulate	Run1	regulate/STIM_021.jpg	100
455.004	3.281	3280.8	regulate	Run1	regulate/STIM_021.jpg	100
461.747	1.619	1619.2	regulate	Run1	regulate/STIM_021.jpg	100
467.048	3.109	3108.8	regulate	Run1	regulate/STIM_021.jpg	100
471.998	2.91	2910.4	regulate	Run1	regulate/STIM_022.jpg	99
477.648	3.151	3151.3	regulate	Run1	regulate/STIM_022.jpg	100
483.329	3.115	3115.4	regulate	Run1	regulate/STIM_022.jpg	100
489.566	1.79	1790.0	regulate	Run1	regulate/STIM_022.jpg	99
493.659	2.549	2549.1	regulate	Run1	regulate/STIM_023.jpg	99
498.574	1.589	1589.2	regulate	Run1	regulate/STIM_023.jpg	99
502.604	1.507	1507.2	regulate	Run1	regulate/STIM_023.jpg	99
507.955	1.365	1365.4	regulate	Run1	regulate/STIM_023.jpg	100
512.8	1.943	1942.7	regulate	Run1	regulate/STIM_024.jpg	99
518.526	2.882	2882.0	regulate	Run1	regulate/STIM_024.jpg	100
523.775	3.121	3120.9	regulate	Run1	regulate/STIM_024.jpg	100
529.223	1.911	1911.1	regulate	Run1	regulate/STIM_024.jpg	100
534.482	1.955	1954.6	regulate	Run1	regulate/STIM_025.jpg	100
539.173	2.244	2244.1	regulate	Run1	regulate/STIM_025.jpg	100
545.0	2.791	2791.1	regulate	Run1	regulate/STIM_025.jpg	100
551.683	2.765	2765.3	regulate	Run1	regulate/STIM_025.jpg	99
557.847	3.549	3549.0	regulate	Run1	regulate/STIM_026.jpg	99
563.948	1.606	1606.3	regulate	Run1	regulate/STIM_026.jpg	100
569.167	1.535	1535.3	regulate	Run1	regulate/STIM_026.jpg	100
573.132	2.78	2780.1	regulate	Run1	regulate/STIM_026.jpg	99
578.402	2.972	2972.3	regulate	Run1	regulate/STIM_027.jpg	100
584.175	2.252	2251.7	regulate	Run1	regulate/STIM_027.jpg	100
589.534	2.783	2782.6	regulate	Run1	regulate/STIM_027.jpg	100
595.307	1.756	1756.1	regulate	Run1	regulate/STIM_027.jpg	99
600.205	3.077	3077.2	regulate	Run1	regulate/STIM_028.jpg	100
605.607	2.998	2998.4	regulate	Run1	regulate/STIM_028.jpg	99
611.434	1.692	1691.9	regulate	Run1	regulate/STIM_028.jpg	100
616.777	1.978	1978.3	regulate	Run1	regulate/STIM_028.jpg	100
622.32	3.692	3691.8	regulate	Run1	regulate/STIM_029.jpg	99
629.553	2.965	2965.1	regulate	Run1	regulate/STIM_029.jpg	100
635.021	1.464	1463.8	regulate	Run1	regulate/STIM_029.jpg	99
640.018	1.416	1415.6	regulate	Run1	regulate/STIM_029.jpg	100
644.954	1.051	1050.8	observe	Run1	observe/STIM_000.jpg	100
648.694	1.533	1533.3	observe	Run1	observe/STIM_000.jpg	100
653.06	1.663	1662.8	observe	Run1	observe/STIM_000.jpg	99
657.085	1.265	1265.1	observe	Run1	observe/STIM_000.jpg	99
661.463	1.294	1293.9	observe	Run1	observe/STIM_001.jpg	100
665.957	1.54	1539.8	observe	Run1	observe/STIM_001.jpg	99
671.419	1.637	1636.6	observe	Run1	observe/STIM_001.jpg	99
675.885	1.443	1442.6	observe	Run1	observe/STIM_001.jpg	99
679.92	1.406	1405.9	observe	Run1	observe/STIM_002.jpg	100
684.595	1.029	1029.1	observe	Run1	observe/STIM_002.jpg	99
689.046	1.306	1305.8	observe	Run1	observe/STIM_002.jpg	100
694.177	1.275	1275.1	observe	Run1	observe/STIM_002.jpg	99
697.912	0.86	860.2	observe	Run1	observe/STIM_003.jpg	100
702.454	1.244	1244.5	observe	Run1	observe/STIM_003.jpg	100
705.81	1.215	1214.8	observe	Run1	observe/STIM_003.jpg	99
709.78	1.304	1304.0	observe	Run1	observe/STIM_003.jpg	100
713.536	0.998	997.6	observe	Run1	observe/STIM_004.jpg	100
718.324	0.816	816.4	observe	Run1	observe/STIM_004.jpg	100
722.802	1.08	1079.7	observe	Run1	observe/STIM_004.jpg	99
727.474	1.563	1563.4	observe	Run1	observe/STIM_004.jpg	99
731.187	1.686	1686.5	observe	Run1	observe/STIM_005.jpg	99
734.904	1.663	1662.6	observe	Run1	observe/STIM_005.jpg	100
740.368	1.372	1371.8	observe	Run1	observe/STIM_005.jpg	100
744.335	1.005	1005.1	observe	Run1	observe/STIM_005.jpg	99
748.36	0.897	897.0	observe	Run1	observe/STIM_006.jpg	99
751.538	1.049	1049.3	observe	Run1	observe/STIM_006.jpg	99
755.856	0.894	894.5	observe	Run1	observe/STIM_006.jpg	99
759.326	1.242	1241.8	observe	Run1	observe/STIM_006.jpg	100
762.671	1.15	1150.3	observe	Run1	observe/STIM_007.jpg	99
766.865	1.657	1657.1	observe	Run1	observe/STIM_007.jpg	99
772.371	0.93	929.5	observe	Run1	observe/STIM_007.jpg	100
775.697	1.393	1393.3	observe	Run1	observe/STIM_007.jpg	99
780.318	1.472	1471.7	observe	Run1	observe/STIM_008.jpg	100
785.268	1.422	1422.2	observe	Run1	observe/STIM_008.jpg	100
789.835	1.302	1301.8	observe	Run1	observe/STIM_008.jpg	100
793.552	0.914	913.5	observe	Run1	observe/STIM_008.jpg	99
796.767	1.44	1439.5	observe	Run1	observe/STIM_009.jpg	100
800.384	1.114	1113.6	observe	Run1	observe/STIM_009.jpg	100
804.174	1.06	1059.7	observe	Run1	observe/STIM_009.jpg	99
808.577	0.981	980.7	observe	Run1	observe/STIM_009.jpg	100
812.346	1.431	1431.4	observe	Run1	observe/STIM_010.jpg	100
816.064	1.086	1085.9	observe	Run1	observe/STIM_010.jpg	99
819.911	1.409	1409.4	observe	Run1	observe/STIM_010.jpg	99
823.649	1.716	1716.1	observe	Run1	observe/STIM_010.jpg	99
827.494	0.999	998.6	observe	Run1	observe/STIM_011.jpg	100
830.906	1.202	1202.3	observe	Run1	observe/STIM_011.jpg	99
835.449	1.403	1403.3	observe	Run1	observe/STIM_011.jpg	100
839.629	1.044	1044.2	observe	Run1	observe/STIM_011.jpg	100
842.856	1.186	1185.7	observe	Run1	observe/STIM_012.jpg	99
846.087	0.936	935.8	observe	Run1	observe/STIM_012.jpg	100
850.345	1.364	1364.0	observe	Run1	observe/STIM_012.jpg	99
854.289	1.337	1337.3	observe	Run1	observe/STIM_012.jpg	100
858.753	1.536	1536.0	observe	Run1	observe/STIM_013.jpg	99
862.736	1.703	1703.1	observe	Run1	observe/STIM_013.jpg	99
867.914	1.184	1184.4	observe	Run1	observe/STIM_013.jpg	100
872.078	1.549	1549.4	observe	Run1	observe/STIM_013.jpg	99
876.903	1.669	1668.9	observe	Run1	observe/STIM_014.jpg	99
880.625	1.326	1326.0	observe	Run1	observe/STIM_014.jpg	99
883.953	1.465	1464.8	observe	Run1	observe/STIM_014.jpg	100
887.951	1.226	1226.2	observe	Run1	observe/STIM_014.jpg	100
891.229	1.622	1621.7	observe	Run1	observe/STIM_015.jpg	99
895.235	1.097	1097.1	observe	Run1	observe/STIM_015.jpg	99
899.92	1.082	1082.1	observe	Run1	observe/STIM_015.jpg	99
903.808	1.376	1376.3	observe	Run1	observe/STIM_015.jpg	100
907.675	1.284	1284.5	observe	Run1	observe/STIM_016.jpg	99
911.029	1.646	1645.8	observe	Run1	observe/STIM_016.jpg	99
915.459	1.154	1153.8	observe	Run1	observe/STIM_016.jpg	99
919.166	1.163	1162.7	observe	Run1	observe/STIM_016.jpg	99
923.886	1.041	1040.8	observe	Run1	observe/STIM_017.jpg	100
927.153	1.055	1054.9	observe	Run1	observe/STIM_017.jpg	100
930.892	1.201	1200.6	observe	Run1	observe/STIM_017.jpg	100
935.021	1.397	1396.7	observe	Run1	observe/STIM_017.jpg	100
938.812	1.246	1246.2	observe	Run1	observe/STIM_018.jpg	99
942.334	1.417	1417.3	observe	Run1	observe/STIM_018.jpg	100
947.525	0.94	940.4	observe	Run1	observe/STIM_018.jpg	99
951.184	0.993	993.1	observe	Run1	observe/STIM_018.jpg	100
955.013	1.598	1597.8	observe	Run1	observe/STIM_019.jpg	99
959.343	1.376	1376.0	observe	Run1	observe/STIM_019.jpg	100
963.314	1.639	1639.0	observe	Run1	observe/STIM_019.jpg	99
968.019	1.338	1338.5	observe	Run1	observe/STIM_019.jpg	100
973.143	2.362	2361.9	regulate	Run2	regulate/STIM_000.jpg	99
979.32	2.064	2063.5	regulate	Run2	regulate/STIM_000.jpg	99
984.189	2.311	2311.0	regulate	Run2	regulate/STIM_000.jpg	100
988.511	2.225	2225.0	regulate	Run2	regulate/STIM_000.jpg	99
992.777	1.376	1375.7	regulate	Run2	regulate/STIM_001.jpg	100
997.14	1.843	1842.7	regulate	Run2	regulate/STIM_001.jpg	99
1002.296	2.605	2605.2	regulate	Run2	regulate/STIM_001.jpg	99
1008.158	1.711	1711.0	regulate	Run2	regulate/STIM_001.jpg	100
1012.691	1.461	1460.7	regulate	Run2	regulate/STIM_002.jpg	100
1017.087	2.046	2045.7	regulate	Run2	regulate/STIM_002.jpg	99
1021.129	2.484	2483.8	regulate	Run2	regulate/STIM_002.jpg	100
1026.785	2.409	2409.0	regulate	Run2	regulate/STIM_002.jpg	99
1032.088	1.444	1444.4	regulate	Run2	regulate/STIM_003.jpg	100
1036.039	1.616	1615.6	regulate	Run2	regulate/STIM_003.jpg	100
1039.559	1.454	1454.2	regulate	Run2	regulate/STIM_003.jpg	99
1043.66	1.109	1108.6	regulate	Run2	regulate/STIM_003.jpg	100
1047.24	1.975	1975.4	regulate	Run2	regulate/STIM_004.jpg	99
1051.604	1.93	1929.8	regulate	Run2	regulate/STIM_004.jpg	100
1055.366	2.236	2236.0	regulate	Run2	regulate/STIM_004.jpg	100
1060.402	2.279	2279.4	regulate	Run2	regulate/STIM_004.jpg	99
1065.652	2.416	2415.6	regulate	Run2	regulate/STIM_005.jpg	100
1070.115	1.504	1504.3	regulate	Run2	regulate/STIM_005.jpg	99
1075.243	1.86	1859.7	regulate	Run2	regulate/STIM_005.jpg	100
1080.946	1.432	1432.1	regulate	Run2	regulate/STIM_005.jpg	100
1085.734	2.538	2537.5	regulate	Run2	regulate/STIM_006.jpg	99
1091.018	1.463	1462.9	regulate	Run2	regulate/STIM_006.jpg	100
1094.554	1.203	1202.8	regulate	Run2	regulate/STIM_006.jpg	99
1099.501	1.476	1476.3	regulate	Run2	regulate/STIM_006.jpg	100
1103.249	1.354	1354.1	regulate	Run2	regulate/STIM_007.jpg	99
1107.647	1.427	1426.6	regulate	Run2	regulate/STIM_007.jpg	99
1111.238	2.411	2411.1	regulate	Run2	regulate/STIM_007.jpg	100
1115.939	1.526	1526.2	regulate	Run2	regulate/STIM_007.jpg	100
1121.189	1.909	1909.2	regulate	Run2	regulate/STIM_008.jpg	100
1126.648	2.608	2608.2	regulate	Run2	regulate/STIM_008.jpg	100
1131.969	1.751	1750.9	regulate	Run2	regulate/STIM_008.jpg	99
1136.627	1.476	1475.6	regulate	Run2	regulate/STIM_008.jpg	100
1140.812	1.473	1473.2	regulate	Run2	regulate/STIM_009.jpg	100
1145.358	2.558	2558.1	regulate	Run2	regulate/STIM_009.jpg	100
1150.29	1.386	1386.5	regulate	Run2	regulate/STIM_009.jpg	100
1154.952	1.716	1716.3	regulate	Run2	regulate/STIM_009.jpg	100
1160.439	2.209	2208.8	regulate	Run2	regulate/STIM_010.jpg	99
1165.956	1.525	1525.4	regulate	Run2	regulate/STIM_010.jpg	100
1170.212	2.029	2029.3	regulate	Run2	regulate/STIM_010.jpg	99
1175.627	2.024	2024.2	regulate	Run2	regulate/STIM_010.jpg	99
1180.586	1.554	1553.8	regulate	Run2	regulate/STIM_011.jpg	100
1185.343	1.233	1233.3	regulate	Run2	regulate/STIM_011.jpg	99
1189.78	2.227	2226.9	regulate	Run2	regulate/STIM_011.jpg	100
1194.858	1.649	1649.4	regulate	Run2	regulate/STIM_011.jpg	100
1198.872	3.068	3068.3	regulate	Run2	regulate/STIM_012.jpg	100
1205.246	2.32	2319.5	regulate	Run2	regulate/STIM_012.jpg	100
1210.41	2.049	2048.8	regulate	Run2	regulate/STIM_012.jpg	100
1215.684	1.274	1273.9	regulate	Run2	regulate/STIM_012.jpg	100
1219.889	2.91	2909.8	regulate	Run2	regulate/STIM_013.jpg	99
1225.566	2.913	2912.7	regulate	Run2	regulate/STIM_013.jpg	99
1230.579	1.434	1434.0	regulate	Run2	regulate/STIM_013.jpg	100
1235.816	1.393	1393.1	regulate	Run2	regulate/STIM_013.jpg	100
1240.14	1.824	1824.0	regulate	Run2	regulate/STIM_014.jpg	100
1244.365	1.31	1310.4	regulate	Run2	regulate/STIM_014.jpg	100
1248.96	2.122	2122.0	regulate	Run2	regulate/STIM_014.jpg	100
1253.071	1.155	1155.3	regulate	Run2	regulate/STIM_014.jpg	99
1257.603	1.956	1956.5	regulate	Run2	regulate/STIM_015.jpg	100
1262.952	2.428	2428.0	regulate	Run2	regulate/STIM_015.jpg	100
1269.007	2.034	2033.5	regulate	Run2	regulate/STIM_015.jpg	100
1274.78	1.614	1613.7	regulate	Run2	regulate/STIM_015.jpg	99
1279.069	2.477	2476.7	regulate	Run2	regulate/STIM_016.jpg	99
1284.502	1.322	1321.6	regulate	Run2	regulate/STIM_016.jpg	99
1289.633	1.966	1965.9	regulate	Run2	regulate/STIM_016.jpg	100
1294.836	2.418	2418.3	regulate	Run2	regulate/STIM_016.jpg	100
1299.944	2.468	2467.8	regulate	Run2	regulate/STIM_017.jpg	99
1304.66	1.256	1255.9	regulate	Run2	regulate/STIM_017.jpg	99
1309.062	2.651	2651.1	regulate	Run2	regulate/STIM_017.jpg	99
1315.038	1.529	1529.3	regulate	Run2	regulate/STIM_017.jpg	100
1319.305	2.77	2770.1	regulate	Run2	regulate/STIM_018.jpg	99
1324.628	2.003	2003.1	regulate	Run2	regulate/STIM_018.jpg	99
1330.399	1.33	1329.8	regulate	Run2	regulate/STIM_018.jpg	100
1335.476	2.226	2226.4	regulate	Run2	regulate/STIM_018.jpg	99
1340.925	2.915	2915.1	regulate	Run2	regulate/STIM_019.jpg	100
1346.787	2.232	2232.1	regulate	Run2	regulate/STIM_019.jpg	100
1350.971	2.095	2094.6	regulate	Run2	regulate/STIM_019.jpg	99
1356.001	1.11	1110.4	regulate	Run2	regulate/STIM_019.jpg	99
1360.711	2.057	2056.9	regulate	Run2	regulate/STIM_020.jpg	100
1366.057	1.506	1505.8	regulate	Run2	regulate/STIM_020.jpg	99
1371.397	2.449	2449.2	regulate	Run2	regulate/STIM_020.jpg	99
1377.3	2.059	2059.1	regulate	Run2	regulate/STIM_020.jpg	99
1381.465	2.824	2824.0	regulate	Run2	regulate/STIM_021.jpg	99
1387.326	1.87	1870.3	regulate	Run2	regulate/STIM_021.jpg	100
1392.665	1.296	1296.2	regulate	Run2	regulate/STIM_021.jpg	99
1396.831	1.846	1845.8	regulate	Run2	regulate/STIM_021.jpg	100
1402.321	1.31	1309.9	regulate	Run2	regulate/STIM_022.jpg	100
1407.049	1.576	1576.3	regulate	Run2	regulate/STIM_022.jpg	99
1411.304	1.625	1624.7	regulate	Run2	regulate/STIM_022.jpg	100
1415.193	2.244	2243.9	regulate	Run2	regulate/STIM_022.jpg	100
1420.078	2.428	2427.8	regulate	Run2	regulate/STIM_023.jpg	99
1425.598	2.535	2535.1	regulate	Run2	regulate/STIM_023.jpg	100
1430.251	1.61	1609.6	regulate	Run2	regulate/STIM_023.jpg	100
1433.867	2.199	2199.1	regulate	Run2	regulate/STIM_023.jpg	99
1439.911	2.93	2929.8	regulate	Run2	regulate/STIM_024.jpg	99
1445.43	1.604	1603.5	regulate	Run2	regulate/STIM_024.jpg	100
1450.637	2.372	2371.5	regulate	Run2	regulate/STIM_024.jpg	100
1455.786	2.16	2160.5	regulate	Run2	regulate/STIM_024.jpg	99
1461.793	1.889	1889.0	regulate	Run2	regulate/STIM_025.jpg	99
1466.171	1.835	1834.6	regulate	Run2	regulate/STIM_025.jpg	99
1470.122	2.498	2498.5	regulate	Run2	regulate/STIM_025.jpg	100
1476.095	1.085	1084.8	regulate	Run2	regulate/STIM_025.jpg	100
1479.98	2.55	2549.8	regulate	Run2	regulate/STIM_026.jpg	100
1484.609	2.607	2606.8	regulate	Run2	regulate/STIM_026.jpg	100
1490.852	1.41	1409.9	regulate	Run2	regulate/STIM_026.jpg	99
1495.778	1.4	1399.5	regulate	Run2	regulate/STIM_026.jpg	99
1499.518	2.153	2153.1	regulate	Run2	regulate/STIM_027.jpg	99
1505.101	1.738	1738.0	regulate	Run2	regulate/STIM_027.jpg	100
1508.894	1.458	1458.1	regulate	Run2	regulate/STIM_027.jpg	99
1513.818	2.243	2242.8	regulate	Run2	regulate/STIM_027.jpg	99
1519.846	2.487	2487.4	regulate	Run2	regulate/STIM_028.jpg	99
1524.686	2.181	2181.2	regulate	Run2	regulate/STIM_028.jpg	99
1530.108	1.27	1270.4	regulate	Run2	regulate/STIM_028.jpg	100
1535.121	1.996	1995.9	regulate	Run2	regulate/STIM_028.jpg	99
1539.71	1.572	1572.3	regulate	Run2	regulate/STIM_029.jpg	100
1545.165	2.693	2692.6	regulate	Run2	regulate/STIM_029.jpg	100
1551.403	2.187	2186.6	regulate	Run2	regulate/STIM_029.jpg	100
1557.096	1.3	1300.3	regulate	Run2	regulate/STIM_029.jpg	100
1561.72	0.942	942.1	observe	Run2	observe/STIM_000.jpg	99
1565.524	1.258	1258.0	observe	Run2	observe/STIM_000.jpg	99
1570.324	0.88	879.5	observe	Run2	observe/STIM_000.jpg	100
1574.184	1.519	1519.1	observe	Run2	observe/STIM_000.jpg	99
1579.459	0.962	962.5	observe	Run2	observe/STIM_001.jpg	99
1582.594	1.31	1310.3	observe	Run2	observe/STIM_001.jpg	100
1586.954	1.051	1051.0	observe	Run2	observe/STIM_001.jpg	100
1590.283	1.479	1479.2	observe	Run2	observe/STIM_001.jpg	100
1595.483	1.697	1697.3	observe	Run2	observe/STIM_002.jpg	99
1600.597	1.392	1391.8	observe	Run2	observe/STIM_002.jpg	100
1605.529	1.702	1702.5	observe	Run2	observe/STIM_002.jpg	99
1610.007	1.559	1558.7	observe	Run2	observe/STIM_002.jpg	99
1614.274	1.553	1553.4	observe	Run2	observe/STIM_003.jpg	99
1619.737	1.676	1675.8	observe	Run2	observe/STIM_003.jpg	99
1624.133	1.504	1503.8	observe	Run2	observe/STIM_003.jpg	99
1628.522	1.182	1182.2	observe	Run2	observe/STIM_003.jpg	99
1633.479	1.369	1368.6	observe	Run2	observe/STIM_004.jpg	100
1638.366	1.119	1119.3	observe	Run2	observe/STIM_004.jpg	100
1641.684	1.675	1675.3	observe	Run2	observe/STIM_004.jpg	100
1646.711	1.599	1599.4	observe	Run2	observe/STIM_004.jpg	100
1650.964	1.585	1585.0	observe	Run2	observe/STIM_005.jpg	100
1655.978	1.184	1184.5	observe	Run2	observe/STIM_005.jpg	100
1660.487	1.438	1438.5	observe	Run2	observe/STIM_005.jpg	99
1665.1	0.986	985.7	observe	Run2	observe/STIM_005.jpg	99
1669.974	0.883	882.7	observe	Run2	observe/STIM_006.jpg	99
1674.367	1.418	1417.6	observe	Run2	observe/STIM_006.jpg	100
1677.849	1.044	1043.8	observe	Run2	observe/STIM_006.jpg	99
1682.747	1.324	1324.3	observe	Run2	observe/STIM_006.jpg	100
1687.399	1.349	1349.1	observe	Run2	observe/STIM_007.jpg	100
1691.679	1.526	1526.2	observe	Run2	observe/STIM_007.jpg	100
1695.92	1.084	1084.1	observe	Run2	observe/STIM_007.jpg	100
1700.826	1.45	1450.1	observe	Run2	observe/STIM_007.jpg	100
1705.346	1.372	1372.3	observe	Run2	observe/STIM_008.jpg	99
1709.576	1.315	1315.1	observe	Run2	observe/STIM_008.jpg	99
1713.365	1.229	1229.3	observe	Run2	observe/STIM_008.jpg	99
1717.822	1.147	1147.0	observe	Run2	observe/STIM_008.jpg	100
1722.793	0.836	836.5	observe	Run2	observe/STIM_009.jpg	100
1727.6	1.58	1580.3	observe	Run2	observe/STIM_009.jpg	100
1733.058	1.487	1487.3	observe	Run2	observe/STIM_009.jpg	100
1737.148	1.156	1155.6	observe	Run2	observe/STIM_009.jpg	99
1741.041	1.438	1438.1	observe	Run2	observe/STIM_010.jpg	100
1746.356	1.504	1503.6	observe	Run2	observe/STIM_010.jpg	100
1750.128	1.334	1333.7	observe	Run2	observe/STIM_010.jpg	99
1754.197	0.838	837.5	observe	Run2	observe/STIM_010.jpg	100
1758.033	1.491	1491.1	observe	Run2	observe/STIM_011.jpg	100
1763.067	1.205	1205.1	observe	Run2	observe/STIM_011.jpg	99
1768.038	1.126	1125.6	observe	Run2	observe/STIM_011.jpg	100
1771.877	1.354	1354.1	observe	Run2	observe/STIM_011.jpg	99
1776.469	1.496	1496.2	observe	Run2	observe/STIM_012.jpg	99
1781.748	1.391	1390.6	observe	Run2	observe/STIM_012.jpg	100
1786.567	1.211	1211.1	observe	Run2	observe/STIM_012.jpg	99
1791.154	0.947	947.0	observe	Run2	observe/STIM_012.jpg	99
1794.138	1.068	1067.6	observe	Run2	observe/STIM_013.jpg	100
1797.668	1.522	1522.1	observe	Run2	observe/STIM_013.jpg	100
1803.098	0.793	792.8	observe	Run2	observe/STIM_013.jpg	99
1805.967	1.431	1431.0	observe	Run2	observe/STIM_013.jpg	99
1810.515	0.89	889.9	observe	Run2	observe/STIM_014.jpg	99
1815.088	1.169	1168.6	observe	Run2	observe/STIM_014.jpg	100
1820.034	1.026	1026.2	observe	Run2	observe/STIM_014.jpg	99
1823.989	1.257	1257.2	observe	Run2	observe/STIM_014.jpg	99
1828.468	1.573	1573.0	observe	Run2	observe/STIM_015.jpg	100
1832.309	1.475	1475.1	observe	Run2	observe/STIM_015.jpg	99
1837.46	1.6	1600.4	observe	Run2	observe/STIM_015.jpg	100
1841.369	1.553	1552.7	observe	Run2	observe/STIM_015.jpg	99
1845.046	0.883	883.1	observe	Run2	observe/STIM_016.jpg	100
1849.836	1.412	1412.4	observe	Run2	observe/STIM_016.jpg	99
1854.27	0.91	909.7	observe	Run2	observe/STIM_016.jpg	100
1857.546	0.881	881.2	observe	Run2	observe/STIM_016.jpg	99
1861.675	0.943	943.2	observe	Run2	observe/STIM_017.jpg	99
1866.001	1.069	1069.2	observe	Run2	observe/STIM_017.jpg	100
1869.669	1.023	1022.7	observe	Run2	observe/STIM_017.jpg	99
1874.598	1.517	1516.6	observe	Run2	observe/STIM_017.jpg	99
1879.176	1.405	1404.6	observe	Run2	observe/STIM_018.jpg	99
1883.457	1.2	1200.0	observe	Run2	observe/STIM_018.jpg	99
1887.499	1.443	1442.6	observe	Run2	observe/STIM_018.jpg	99
1891.992	1.442	1441.8	observe	Run2	observe/STIM_018.jpg	100
1895.906	1.185	1185.3	observe	Run2	observe/STIM_019.jpg	100
1899.922	1.331	1331.1	observe	Run2	observe/STIM_019.jpg	100
1903.797	1.512	1512.2	observe	Run2	observe/STIM_019.jpg	100
1908.569	1.511	1511.0	observe	Run2	observe/STIM_019.jpg	100
1913.956	1.947	1946.9	regulate	Run3	regulate/STIM_000.jpg	100
1918.788	1.588	1587.7	regulate	Run3	regulate/STIM_000.jpg	100
1922.298	2.394	2394.2	regulate	Run3	regulate/STIM_000.jpg	100
1926.705	2.306	2305.8	regulate	Run3	regulate/STIM_000.jpg	100
1931.002	1.815	1815.2	regulate	Run3	regulate/STIM_001.jpg	100
1936.431	1.493	1492.9	regulate	Run3	regulate/STIM_001.jpg	99
1940.704	1.421	1421.3	regulate	Run3	regulate/STIM_001.jpg	99
1945.286	1.563	1563.2	regulate	Run3	regulate/STIM_001.jpg	99
1950.419	2.298	2297.5	regulate	Run3	regulate/STIM_002.jpg	99
1954.737	2.263	2262.7	regulate	Run3	regulate/STIM_002.jpg	99
1959.757	1.801	1800.7	regulate	Run3	regulate/STIM_002.jpg	100
1965.441	2.433	2433.2	regulate	Run3	regulate/STIM_002.jpg	100
1970.679	1.821	1821.2	regulate	Run3	regulate/STIM_003.jpg	100
1974.931	1.178	1177.5	regulate	Run3	regulate/STIM_003.jpg	100
1979.358	1.633	1633.4	regulate	Run3	regulate/STIM_003.jpg	99
1983.152	1.89	1890.5	regulate	Run3	regulate/STIM_003.jpg	99
1987.062	1.818	1817.6	regulate	Run3	regulate/STIM_004.jpg	100
1991.527	1.352	1351.7	regulate	Run3	regulate/STIM_004.jpg	100
1996.352	1.31	1310.5	regulate	Run3	regulate/STIM_004.jpg	100
2000.268	1.541	1541.1	regulate	Run3	regulate/STIM_004.jpg	100
2004.958	1.271	1270.7	regulate	Run3	regulate/STIM_005.jpg	100
2010.067	1.965	1964.9	regulate	Run3	regulate/STIM_005.jpg	99
2015.486	2.497	2497.2	regulate	Run3	regulate/STIM_005.jpg	99
2020.03	2.426	2425.9	regulate	Run3	regulate/STIM_005.jpg	99
2025.032	1.222	1222.2	regulate	Run3	regulate/STIM_006.jpg	100
2029.161	1.719	1719.0	regulate	Run3	regulate/STIM_006.jpg	100
2033.622	1.798	1798.5	regulate	Run3	regulate/STIM_006.jpg	99
2039.327	2.184	2183.5	regulate	Run3	regulate/STIM_006.jpg	100
2045.266	1.854	1853.8	regulate	Run3	regulate/STIM_007.jpg	100
2050.95	2.339	2339.1	regulate	Run3	regulate/STIM_007.jpg	100
2056.754	2.493	2492.8	regulate	Run3	regulate/STIM_007.jpg	99
2061.594	2.421	2421.3	regulate	Run3	regulate/STIM_007.jpg	100
2065.997	1.794	1793.8	regulate	Run3	regulate/STIM_008.jpg	100
2071.297	2.44	2440.5	regulate	Run3	regulate/STIM_008.jpg	100
2076.269	2.29	2290.2	regulate	Run3	regulate/STIM_008.jpg	100
2082.038	2.055	2055.1	regulate	Run3	regulate/STIM_008.jpg	99
2086.922	1.217	1217.0	regulate	Run3	regulate/STIM_009.jpg	100
2091.258	1.142	1142.1	regulate	Run3	regulate/STIM_009.jpg	99
2094.913	1.371	1370.9	regulate	Run3	regulate/STIM_009.jpg	100
2098.603	1.097	1096.7	regulate	Run3	regulate/STIM_009.jpg	99
2102.774	1.935	1934.6	regulate	Run3	regulate/STIM_010.jpg	100
2108.307	1.674	1674.0	regulate	Run3	regulate/STIM_010.jpg	100
2113.371	1.882	1881.6	regulate	Run3	regulate/STIM_010.jpg	100
2117.717	1.398	1398.3	regulate	Run3	regulate/STIM_010.jpg	99
2121.926	2.334	2333.5	regulate	Run3	regulate/STIM_011.jpg	100
2126.507	2.031	2031.4	regulate	Run3	regulate/STIM_011.jpg	99
2131.502	1.702	1702.3	regulate	Run3	regulate/STIM_011.jpg	99
2136.851	2.354	2354.4	regulate	Run3	regulate/STIM_011.jpg	100
2141.346	1.979	1978.8	regulate	Run3	regulate/STIM_012.jpg	99
2146.107	1.136	1135.8	regulate	Run3	regulate/STIM_012.jpg	99
2150.231	2.06	2060.2	regulate	Run3	regulate/STIM_012.jpg	99
2155.668	2.091	2090.8	regulate	Run3	regulate/STIM_012.jpg	100
2160.779	2.327	2326.8	regulate	Run3	regulate/STIM_013.jpg	99
2165.037	1.554	1554.4	regulate	Run3	regulate/STIM_013.jpg	100
2170.486	1.371	1371.4	regulate	Run3	regulate/STIM_013.jpg	100
2174.473	2.536	2536.5	regulate	Run3	regulate/STIM_013.jpg	100
2179.082	1.364	1364.0	regulate	Run3	regulate/STIM_014.jpg	100
2183.852	2.216	2216.0	regulate	Run3	regulate/STIM_014.jpg	99
2188.929	2.33	2329.7	regulate	Run3	regulate/STIM_014.jpg	100
2193.52	2.474	2474.3	regulate	Run3	regulate/STIM_014.jpg	100
2198.554	1.188	1188.2	regulate	Run3	regulate/STIM_015.jpg	100
2202.925	2.02	2020.4	regulate	Run3	regulate/STIM_015.jpg	100
2208.566	2.18	2180.4	regulate	Run3	regulate/STIM_015.jpg	99
2213.183	1.505	1504.7	regulate	Run3	regulate/STIM_015.jpg	99
2216.955	1.847	1847.1	regulate	Run3	regulate/STIM_016.jpg	99
2220.987	1.675	1675.2	regulate	Run3	regulate/STIM_016.jpg	99
2224.711	2.574	2573.9	regulate	Run3	regulate/STIM_016.jpg	100
2229.559	1.092	1092.0	regulate	Run3	regulate/STIM_016.jpg	100
2233.831	1.544	1544.5	regulate	Run3	regulate/STIM_017.jpg	99
2238.149	1.744	1744.0	regulate	Run3	regulate/STIM_017.jpg	100
2242.908	2.314	2314.1	regulate	Run3	regulate/STIM_017.jpg	99
2248.608	1.642	1641.7	regulate	Run3	regulate/STIM_017.jpg	99
2254.013	1.675	1674.7	regulate	Run3	regulate/STIM_018.jpg	99
2258.679	2.331	2331.0	regulate	Run3	regulate/STIM_018.jpg	100
2264.732	2.329	2328.8	regulate	Run3	regulate/STIM_018.jpg	99
2270.692	2.45	2450.0	regulate	Run3	regulate/STIM_018.jpg	100
2275.107	1.315	1315.2	regulate	Run3	regulate/STIM_019.jpg	100
2279.747	1.412	1411.9	regulate	Run3	regulate/STIM_019.jpg	99
2284.504	2.253	2252.8	regulate	Run3	regulate/STIM_019.jpg	99
2289.123	2.428	2427.7	regulate	Run3	regulate/STIM_019.jpg	100
2293.723	1.812	1812.1	regulate	Run3	regulate/STIM_020.jpg	100
2298.526	2.386	2385.7	regulate	Run3	regulate/STIM_020.jpg	99
2303.873	1.507	1506.6	regulate	Run3	regulate/STIM_020.jpg	99
2307.971	1.065	1064.9	regulate	Run3	regulate/STIM_020.jpg	99
2311.924	2.257	2256.9	regulate	Run3	regulate/STIM_021.jpg	99
2316.755	2.532	2531.8	regulate	Run3	regulate/STIM_021.jpg	100
2322.921	2.244	2243.6	regulate	Run3	regulate/STIM_021.jpg	99
2328.17	1.43	1430.1	regulate	Run3	regulate/STIM_021.jpg	100
2332.824	1.282	1282.3	regulate	Run3	regulate/STIM_022.jpg	99
2336.505	2.046	2046.0	regulate	Run3	regulate/STIM_022.jpg	99
2341.476	1.559	1558.6	regulate	Run3	regulate/STIM_022.jpg	99
2346.49	1.331	1330.8	regulate	Run3	regulate/STIM_022.jpg	100
2350.898	1.788	1788.5	regulate	Run3	regulate/STIM_023.jpg	100
2355.941	1.99	1989.7	regulate	Run3	regulate/STIM_023.jpg	99
2361.06	1.626	1626.0	regulate	Run3	regulate/STIM_023.jpg	99
2366.461	1.846	1845.9	regulate	Run3	regulate/STIM_023.jpg	99
2371.739	1.548	1548.1	regulate	Run3	regulate/STIM_024.jpg	100
2375.406	2.078	2077.6	regulate	Run3	regulate/STIM_024.jpg	100
2380.965	2.255	2255.4	regulate	Run3	regulate/STIM_024.jpg	100
2385.118	2.549	2549.0	regulate	Run3	regulate/STIM_024.jpg	99
2390.008	1.629	1628.8	regulate	Run3	regulate/STIM_025.jpg	100
2395.505	1.035	1035.3	regulate	Run3	regulate/STIM_025.jpg	99
2399.55	1.521	1521.0	regulate	Run3	regulate/STIM_025.jpg	99
2403.584	2.058	2058.5	regulate	Run3	regulate/STIM_025.jpg	100
2409.333	1.887	1887.0	regulate	Run3	regulate/STIM_026.jpg	100
2413.774	2.436	2436.4	regulate	Run3	regulate/STIM_026.jpg	99
2419.46	2.035	2035.1	regulate	Run3	regulate/STIM_026.jpg	99
2424.246	1.965	1965.3	regulate	Run3	regulate/STIM_026.jpg	99
2429.47	1.553	1552.7	regulate	Run3	regulate/STIM_027.jpg	99
2434.986	1.293	1292.6	regulate	Run3	regulate/STIM_027.jpg	99
2438.222	1.554	1553.7	regulate	Run3	regulate/STIM_027.jpg	99
2442.702	2.461	2461.2	regulate	Run3	regulate/STIM_027.jpg	99
2448.26	1.059	1059.1	regulate	Run3	regulate/STIM_028.jpg	100
2452.222	2.127	2126.8	regulate	Run3	regulate/STIM_028.jpg	99
2457.748	1.332	1332.3	regulate	Run3	regulate/STIM_028.jpg	99
2462.167	2.024	2024.0	regulate	Run3	regulate/STIM_028.jpg	99
2466.199	2.308	2307.6	regulate	Run3	regulate/STIM_029.jpg	99
2471.175	1.811	1811.2	regulate	Run3	regulate/STIM_029.jpg	99
2476.297	2.057	2056.7	regulate	Run3	regulate/STIM_029.jpg	99
2482.182	1.88	1879.9	regulate	Run3	regulate/STIM_029.jpg	99
2487.044	1.054	1054.1	observe	Run3	observe/STIM_000.jpg	99
2491.41	1.083	1083.0	observe	Run3	observe/STIM_000.jpg	99
2495.977	1.346	1346.5	observe	Run3	observe/STIM_000.jpg	99
2499.73	1.48	1480.1	observe	Run3	observe/STIM_000.jpg	100
2503.402	1.058	1058.1	observe	Run3	observe/STIM_001.jpg	99
2507.143	1.088	1088.5	observe	Run3	observe/STIM_001.jpg	100
2511.989	1.403	1402.7	observe	Run3	observe/STIM_001.jpg	99
2517.266	1.005	1004.7	observe	Run3	observe/STIM_001.jpg	99
2521.432	1.429	1429.1	observe	Run3	observe/STIM_002.jpg	100
2524.839	0.883	882.8	observe	Run3	observe/STIM_002.jpg	100
2528.243	1.466	1466.4	observe	Run3	observe/STIM_002.jpg	100
2532.606	1.235	1234.8	observe	Run3	observe/STIM_002.jpg	100
2537.089	1.298	1297.7	observe	Run3	observe/STIM_003.jpg	100
2540.519	1.506	1506.4	observe	Run3	observe/STIM_003.jpg	99
2545.519	1.169	1169.2	observe	Run3	observe/STIM_003.jpg	100
2548.572	1.057	1057.0	observe	Run3	observe/STIM_003.jpg	99
2553.277	1.046	1046.0	observe	Run3	observe/STIM_004.jpg	100
2557.557	1.008	1008.1	observe	Run3	observe/STIM_004.jpg	99
2560.725	1.585	1585.4	observe	Run3	observe/STIM_004.jpg	100
2566.05	1.567	1566.6	observe	Run3	observe/STIM_004.jpg	99
2571.161	1.193	1193.3	observe	Run3	observe/STIM_005.jpg	99
2575.574	1.298	1297.7	observe	Run3	observe/STIM_005.jpg	99
2579.803	1.069	1068.9	observe	Run3	observe/STIM_005.jpg	99
2583.723	1.088	1088.3	observe	Run3	observe/STIM_005.jpg	99
2587.869	1.562	1561.8	observe	Run3	observe/STIM_006.jpg	100
2592.5	0.82	820.5	observe	Run3	observe/STIM_006.jpg	99
2595.616	1.616	1616.1	observe	Run3	observe/STIM_006.jpg	100
2600.053	0.79	790.4	observe	Run3	observe/STIM_006.jpg	99
2603.081	1.492	1491.6	observe	Run3	observe/STIM_007.jpg	100
2606.75	1.077	1076.7	observe	Run3	observe/STIM_007.jpg	99
2611.009	1.031	1031.0	observe	Run3	observe/STIM_007.jpg	100
2615.986	1.35	1349.9	observe	Run3	observe/STIM_007.jpg	100
2620.421	1.441	1440.8	observe	Run3	observe/STIM_008.jpg	99
2625.626	0.846	845.5	observe	Run3	observe/STIM_008.jpg	100
2628.947	1.364	1363.9	observe	Run3	observe/STIM_008.jpg	100
2632.719	1.289	1288.9	observe	Run3	observe/STIM_008.jpg	99
2636.51	1.515	1514.9	observe	Run3	observe/STIM_009.jpg	100
2641.512	1.542	1541.9	observe	Run3	observe/STIM_009.jpg	100
2645.93	1.334	1334.0	observe	Run3	observe/STIM_009.jpg	99
2651.014	1.61	1610.3	observe	Run3	observe/STIM_009.jpg	100
2655.025	1.154	1153.5	observe	Run3	observe/STIM_010.jpg	99
2658.461	1.006	1005.9	observe	Run3	observe/STIM_010.jpg	100
2661.666	1.315	1315.0	observe	Run3	observe/STIM_010.jpg	100
2665.405	1.48	1479.7	observe	Run3	observe/STIM_010.jpg	100
2669.308	1.572	1571.9	observe	Run3	observe/STIM_011.jpg	99
2673.604	1.443	1442.7	observe	Run3	observe/STIM_011.jpg	100
2678.447	1.383	1383.3	observe	Run3	observe/STIM_011.jpg	99
2683.242	1.563	1562.8	observe	Run3	observe/STIM_011.jpg	100
2686.789	0.788	788.5	observe	Run3	observe/STIM_012.jpg	100
2690.462	1.11	1109.6	observe	Run3	observe/STIM_012.jpg	100
2695.209	0.994	993.6	observe	Run3	observe/STIM_012.jpg	100
2699.646	1.518	1518.4	observe	Run3	observe/STIM_012.jpg	100
2704.507	1.148	1148.1	observe	Run3	observe/STIM_013.jpg	100
2708.504	1.568	1568.1	observe	Run3	observe/STIM_013.jpg	100
2713.542	1.592	1592.0	observe	Run3	observe/STIM_013.jpg	100
2717.787	1.154	1154.1	observe	Run3	observe/STIM_013.jpg	99
2721.047	0.885	884.6	observe	Run3	observe/STIM_014.jpg	99
2725.503	1.565	1565.4	observe	Run3	observe/STIM_014.jpg	99
2729.447	0.893	893.4	observe	Run3	observe/STIM_014.jpg	100
2734.005	1.06	1060.3	observe	Run3	observe/STIM_014.jpg	99
2738.129	1.282	1281.8	observe	Run3	observe/STIM_015.jpg	99
2743.319	1.16	1159.6	observe	Run3	observe/STIM_015.jpg	99
2747.604	1.035	1034.9	observe	Run3	observe/STIM_015.jpg	99
2751.132	1.116	1115.7	observe	Run3	observe/STIM_015.jpg	100
2756.024	1.076	1075.9	observe	Run3	observe/STIM_016.jpg	100
2759.625	0.831	831.3	observe	Run3	observe/STIM_016.jpg	100
2762.538	1.138	1138.5	observe	Run3	observe/STIM_016.jpg	100
2767.147	1.571	1570.8	observe	Run3	observe/STIM_016.jpg	99
2772.484	1.547	1547.1	observe	Run3	observe/STIM_017.jpg	100
2777.143	1.078	1077.8	observe	Run3	observe/STIM_017.jpg	99
2781.573	1.03	1029.8	observe	Run3	observe/STIM_017.jpg	100
2785.708	1.268	1268.2	observe	Run3	observe/STIM_017.jpg	100
2788.929	1.582	1581.8	observe	Run3	observe/STIM_018.jpg	99
2792.86	1.138	1138.4	observe	Run3	observe/STIM_018.jpg	99
2796.043	1.035	1035.4	observe	Run3	observe/STIM_018.jpg	99
2800.369	1.312	1311.5	observe	Run3	observe/STIM_018.jpg	100
2804.474	1.613	1613.3	observe	Run3	observe/STIM_019.jpg	99
2809.562	1.306	1305.6	observe	Run3	observe/STIM_019.jpg	100
2813.863	1.447	1446.7	observe	Run3	observe/STIM_019.jpg	100
2817.389	1.205	1204.7	observe	Run3	observe/STIM_019.jpg	100
