onset	duration	response_time_ms	trial_type	learning_stage	stimulus	response_port
0.0	3.286	3286.2	regulate	Run1	regulate/STIM_000.jpg	99
6.739	2.052	2052.3	regulate	Run1	regulate/STIM_000.jpg	99
11.845	2.411	2411.0	regulate	Run1	regulate/STIM_000.jpg	99
17.085	3.009	3009.3	regulate	Run1	regulate/STIM_000.jpg	100
23.259	3.437	3437.0	regulate	Run1	regulate/STIM_001.jpg	100
29.679	1.964	1963.7	regulate	Run1	regulate/STIM_001.jpg	99
34.458	2.215	2215.4	regulate	Run1	regulate/STIM_001.jpg	100
39.762	2.857	2857.1	regulate	Run1	regulate/STIM_001.jpg	100
46.065	3.131	3131.2	regulate	Run1	regulate/STIM_002.jpg	100
53.105	2.601	2600.9	regulate	Run1	regulate/STIM_002.jpg	100
59.593	1.973	1973.4	regulate	Run1	regulate/STIM_002.jpg	99
65.192	2.329	2328.9	regulate	Run1	regulate/STIM_002.jpg	99
70.395	2.941	2941.3	regulate	Run1	regulate/STIM_003.jpg	100
76.757	1.669	1669.0	regulate	Run1	regulate/STIM_003.jpg	99
81.526	2.026	2026.3	regulate	Run1	regulate/STIM_003.jpg	99
86.961	1.969	1969.1	regulate	Run1	regulate/STIM_003.jpg	99
91.142	2.274	2273.7	regulate	Run1	regulate/STIM_004.jpg	100
96.749	2.337	2336.7	regulate	Run1	regulate/STIM_004.jpg	99
101.404	2.721	2721.4	regulate	Run1	regulate/STIM_004.jpg	100
107.541	1.307	1307.4	regulate	Run1	regulate/STIM_004.jpg	100
111.077	2.64	2640.3	regulate	Run1	regulate/STIM_005.jpg	100
116.478	2.89	2890.1	regulate	Run1	regulate/STIM_005.jpg	100
122.318	2.744	2744.4	regulate	Run1	regulate/STIM_005.jpg	99
128.137	2.253	2252.6	regulate	Run1	regulate/STIM_005.jpg	100
134.257	2.855	2855.3	regulate	Run1	regulate/STIM_006.jpg	99
139.695	2.522	2521.9	regulate	Run1	regulate/STIM_006.jpg	99
145.578	2.205	2205.3	regulate	Run1	regulate/STIM_006.jpg	100
149.86	2.072	2072.4	regulate	Run1	regulate/STIM_006.jpg	99
155.034	3.059	3058.9	regulate	Run1	regulate/STIM_007.jpg	100
160.251	2.355	2355.3	regulate	Run1	regulate/STIM_007.jpg	100
166.298	3.105	3105.4	regulate	Run1	regulate/STIM_007.jpg	100
172.223	2.973	2973.4	regulate	Run1	regulate/STIM_007.jpg	100
177.349	1.792	1791.8	regulate	Run1	regulate/STIM_008.jpg	99
183.084	2.623	2622.8	regulate	Run1	regulate/STIM_008.jpg	100
188.986	2.234	2234.4	regulate	Run1	regulate/STIM_008.jpg	100
195.176	2.686	2686.3	regulate	Run1	regulate/STIM_008.jpg	100
200.363	1.617	1617.1	regulate	Run1	regulate/STIM_009.jpg	99
204.985	1.627	1626.6	regulate	Run1	regulate/STIM_009.jpg	100
209.042	2.078	2078.3	regulate	Run1	regulate/STIM_009.jpg	100
213.258	1.533	1533.4	regulate	Run1	regulate/STIM_009.jpg	100
218.76	2.269	2269.2	regulate	Run1	regulate/STIM_010.jpg	99
224.356	1.863	1862.7	regulate	Run1	regulate/STIM_010.jpg	99
228.401	1.8	1799.8	regulate	Run1	regulate/STIM_010.jpg	99
232.386	2.599	2599.2	regulate	Run1	regulate/STIM_010.jpg	99
237.475	2.023	2023.0	regulate	Run1	regulate/STIM_011.jpg	100
242.269	1.837	1836.6	regulate	Run1	regulate/STIM_011.jpg	100
247.333	2.029	2029.0	regulate	Run1	regulate/STIM_011.jpg	100
251.629	2.875	2875.0	regulate	Run1	regulate/STIM_011.jpg	99
257.529	2.195	2195.2	regulate	Run1	regulate/STIM_012.jpg	99
262.509	2.433	2432.9	regulate	Run1	regulate/STIM_012.jpg	100
267.483	2.231	2231.2	regulate	Run1	regulate/STIM_012.jpg	100
273.294	2.649	2649.0	regulate	Run1	regulate/STIM_012.jpg	100
277.991	1.675	1675.3	regulate	Run1	regulate/STIM_013.jpg	99
282.555	2.003	2002.9	regulate	Run1	regulate/STIM_013.jpg	99
287.858	2.326	2326.0	regulate	Run1	regulate/STIM_013.jpg	100
292.509	2.758	2757.9	regulate	Run1	regulate/STIM_013.jpg	99
298.558	1.943	1942.8	regulate	Run1	regulate/STIM_014.jpg	100
302.862	1.725	1724.6	regulate	Run1	regulate/STIM_014.jpg	100
308.074	1.491	1491.2	regulate	Run1	regulate/STIM_014.jpg	99
313.166	2.89	2890.3	regulate	Run1	regulate/STIM_014.jpg	99
318.379	1.594	1594.4	regulate	Run1	regulate/STIM_015.jpg	100
322.599	2.716	2716.5	regulate	Run1	regulate/STIM_015.jpg	99
328.373	2.836	2835.5	regulate	Run1	regulate/STIM_015.jpg	100
334.227	1.614	1614.0	regulate	Run1	regulate/STIM_015.jpg	100
339.464	3.268	3267.5	regulate	Run1	regulate/STIM_016.jpg	99
346.162	2.602	2602.0	regulate	Run1	regulate/STIM_016.jpg	100
352.481	1.78	1780.3	regulate	Run1	regulate/STIM_016.jpg	99
357.426	2.246	2245.9	regulate	Run1	regulate/STIM_016.jpg	99
363.562	2.1	2099.7	regulate	Run1	regulate/STIM_017.jpg	100
369.136	2.136	2136.2	regulate	Run1	regulate/STIM_017.jpg	99
375.246	1.544	1543.8	regulate	Run1	regulate/STIM_017.jpg	100
379.382	1.933	1933.0	regulate	Run1	regulate/STIM_017.jpg	100
383.621	2.112	2111.7	regulate	Run1	regulate/STIM_018.jpg	99
388.657	1.518	1518.0	regulate	Run1	regulate/STIM_018.jpg	100
394.171	1.787	1786.9	regulate	Run1	regulate/STIM_018.jpg	99
398.301	2.561	2561.3	regulate	Run1	regulate/STIM_018.jpg	99
404.481	3.066	3066.3	regulate	Run1	regulate/STIM_019.jpg	100
409.648	2.51	2510.5	regulate	Run1	regulate/STIM_019.jpg	99
414.873	2.32	2320.5	regulate	Run1	regulate/STIM_019.jpg	99
420.97	1.469	1468.7	regulate	Run1	regulate/STIM_019.jpg	99
425.493	2.737	2736.9	regulate	Run1	regulate/STIM_020.jpg	99
430.482	2.154	2154.3	regulate	Run1	regulate/STIM_020.jpg	100
435.437	3.08	3080.4	regulate	Run1	regulate/STIM_020.jpg	99
441.217	1.934	1934.1	regulate	Run1	regulate/STIM_020.jpg	100
446.053	2.01	2009.7	regulate	Run1	regulate/STIM_021.jpg	100
450.587	1.549	1549.2	regulate	Run1	regulate/STIM_021.jpg	100
455.72	2.436	2435.9	regulate	Run1	regulate/STIM_021.jpg	100
461.947	2.156	2155.8	regulate	Run1	regulate/STIM_021.jpg	100
466.673	3.046	3046.1	regulate	Run1	regulate/STIM_022.jpg	99
472.469	2.533	2533.4	regulate	Run1	regulate/STIM_022.jpg	100
477.793	1.846	1846.5	regulate	Run1	regulate/STIM_022.jpg	100
483.355	1.788	1788.4	regulate	Run1	regulate/STIM_022.jpg	99
487.277	3.302	3302.4	regulate	Run1	regulate/STIM_023.jpg	99
494.034	2.396	2395.8	regulate	Run1	regulate/STIM_023.jpg	99
499.1	2.111	2111.2	regulate	Run1	regulate/STIM_023.jpg	99
503.706	2.136	2135.6	regulate	Run1	regulate/STIM_023.jpg	100
508.317	3.382	3381.9	regulate	Run1	regulate/STIM_024.jpg	99
514.378	3.03	3029.5	regulate	Run1	regulate/STIM_024.jpg	100
520.141	2.975	2974.6	regulate	Run1	regulate/STIM_024.jpg	100
526.059	2.418	2418.0	regulate	Run1	regulate/STIM_024.jpg	100
532.228	2.398	2397.5	regulate	Run1	regulate/STIM_025.jpg	100
537.983	2.034	2034.5	regulate	Run1	regulate/STIM_025.jpg	100
543.02	3.069	3069.3	regulate	Run1	regulate/STIM_025.jpg	100
550.088	2.607	2607.4	regulate	Run1	regulate/STIM_025.jpg	99
556.293	1.88	1879.9	regulate	Run1	regulate/STIM_026.jpg	99
560.645	3.157	3157.4	regulate	Run1	regulate/STIM_026.jpg	100
567.522	3.066	3066.2	regulate	Run1	regulate/STIM_026.jpg	100
572.66	1.768	1768.2	regulate	Run1	regulate/STIM_026.jpg	99
576.664	2.315	2314.6	regulate	Run1	regulate/STIM_027.jpg	100
581.491	3.102	3101.7	regulate	Run1	regulate/STIM_027.jpg	100
587.8	2.124	2123.6	regulate	Run1	regulate/STIM_027.jpg	100
592.431	2.851	2851.1	regulate	Run1	regulate/STIM_027.jpg	99
597.555	2.793	2793.1	regulate	Run1	regulate/STIM_028.jpg	100
603.642	1.916	1915.6	regulate	Run1	regulate/STIM_028.jpg	99
607.599	2.006	2005.6	regulate	Run1	regulate/STIM_028.jpg	100
613.106	2.19	2190.0	regulate	Run1	regulate/STIM_028.jpg	100
618.331	1.951	1951.1	regulate	Run1	regulate/STIM_029.jpg	99
624.058	2.966	2965.7	regulate	Run1	regulate/STIM_029.jpg	100
630.963	2.706	2706.3	regulate	Run1	regulate/STIM_029.jpg	99
636.029	1.354	1353.5	regulate	Run1	regulate/STIM_029.jpg	100
639.767	0.867	867.1	observe	Run1	observe/STIM_000.jpg	100
643.978	1.094	1094.3	observe	Run1	observe/STIM_000.jpg	100
649.004	1.042	1042.4	observe	Run1	observe/STIM_000.jpg	99
652.297	0.881	880.7	observe	Run1	observe/STIM_000.jpg	99
655.914	0.868	867.5	observe	Run1	observe/STIM_001.jpg	100
659.025	1.301	1300.9	observe	Run1	observe/STIM_001.jpg	99
664.066	1.62	1619.9	observe	Run1	observe/STIM_001.jpg	99
668.802	1.453	1452.6	observe	Run1	observe/STIM_001.jpg	99
673.154	0.872	871.8	observe	Run1	observe/STIM_002.jpg	100
677.125	1.523	1523.0	observe	Run1	observe/STIM_002.jpg	99
680.656	1.354	1353.7	observe	Run1	observe/STIM_002.jpg	100
685.554	1.294	1294.2	observe	Run1	observe/STIM_002.jpg	99
690.445	1.58	1580.2	observe	Run1	observe/STIM_003.jpg	100
695.614	1.334	1333.6	observe	Run1	observe/STIM_003.jpg	100
700.871	1.111	1110.9	observe	Run1	observe/STIM_003.jpg	99
704.726	1.114	1113.6	observe	Run1	observe/STIM_003.jpg	100
709.822	1.462	1462.1	observe	Run1	observe/STIM_004.jpg	100
713.794	1.247	1246.9	observe	Run1	observe/STIM_004.jpg	100
718.662	1.609	1609.3	observe	Run1	observe/STIM_004.jpg	99
722.708	1.16	1159.8	observe	Run1	observe/STIM_004.jpg	99
725.87	1.06	1060.1	observe	Run1	observe/STIM_005.jpg	99
730.23	1.207	1207.1	observe	Run1	observe/STIM_005.jpg	100
733.863	1.058	1058.4	observe	Run1	observe/STIM_005.jpg	100
738.31	0.879	879.2	observe	Run1	observe/STIM_005.jpg	99
741.572	1.265	1265.0	observe	Run1	observe/STIM_006.jpg	99
745.264	1.266	1266.4	observe	Run1	observe/STIM_006.jpg	99
749.72	1.562	1562.0	observe	Run1	observe/STIM_006.jpg	99
754.361	1.615	1614.6	observe	Run1	observe/STIM_006.jpg	100
758.423	1.587	1586.9	observe	Run1	observe/STIM_007.jpg	99
763.479	1.523	1522.6	observe	Run1	observe/STIM_007.jpg	99
767.243	1.222	1222.5	observe	Run1	observe/STIM_007.jpg	100
772.227	1.538	1537.7	observe	Run1	observe/STIM_007.jpg	99
776.515	1.218	1218.2	observe	Run1	observe/STIM_008.jpg	100
780.918	1.615	1615.0	observe	Run1	observe/STIM_008.jpg	100
786.231	1.313	1313.4	observe	Run1	observe/STIM_008.jpg	100
790.08	1.464	1464.2	observe	Run1	observe/STIM_008.jpg	99
794.388	1.351	1351.1	observe	Run1	observe/STIM_009.jpg	100
798.401	0.984	984.0	observe	Run1	observe/STIM_009.jpg	100
803.26	0.852	852.1	observe	Run1	observe/STIM_009.jpg	99
806.715	1.132	1131.9	observe	Run1	observe/STIM_009.jpg	100
810.261	1.573	1573.3	observe	Run1	observe/STIM_010.jpg	100
814.053	1.275	1275.2	observe	Run1	observe/STIM_010.jpg	99
818.387	1.186	1186.1	observe	Run1	observe/STIM_010.jpg	99
822.693	1.524	1523.9	observe	Run1	observe/STIM_010.jpg	99
827.011	1.176	1176.2	observe	Run1	observe/STIM_011.jpg	100
831.984	1.433	1432.9	observe	Run1	observe/STIM_011.jpg	99
836.087	1.228	1227.9	observe	Run1	observe/STIM_011.jpg	100
840.347	1.312	1312.2	observe	Run1	observe/STIM_011.jpg	100
844.294	1.125	1125.1	observe	Run1	observe/STIM_012.jpg	99
847.782	0.851	850.7	observe	Run1	observe/STIM_012.jpg	100
850.973	0.939	939.2	observe	Run1	observe/STIM_012.jpg	99
855.485	1.563	1563.1	observe	Run1	observe/STIM_012.jpg	100
860.135	1.606	1605.5	observe	Run1	observe/STIM_013.jpg	99
864.353	1.273	1273.2	observe	Run1	observe/STIM_013.jpg	99
869.112	0.877	876.8	observe	Run1	observe/STIM_013.jpg	100
873.75	1.217	1216.8	observe	Run1	observe/STIM_013.jpg	99
878.04	1.032	1031.6	observe	Run1	observe/STIM_014.jpg	99
883.048	1.399	1398.8	observe	Run1	observe/STIM_014.jpg	99
887.107	1.261	1260.8	observe	Run1	observe/STIM_014.jpg	100
892.304	0.966	965.9	observe	Run1	observe/STIM_014.jpg	100
896.049	1.067	1066.8	observe	Run1	observe/STIM_015.jpg	99
900.196	1.602	1602.5	observe	Run1	observe/STIM_015.jpg	99
905.521	1.583	1583.1	observe	Run1	observe/STIM_015.jpg	99
909.298	1.212	1212.5	observe	Run1	observe/STIM_015.jpg	100
913.316	1.425	1424.9	observe	Run1	observe/STIM_016.jpg	99
916.989	1.206	1206.4	observe	Run1	observe/STIM_016.jpg	99
921.149	1.416	1415.5	observe	Run1	observe/STIM_016.jpg	99
925.075	1.154	1153.9	observe	Run1	observe/STIM_016.jpg	99
929.278	1.422	1421.5	observe	Run1	observe/STIM_017.jpg	100
933.317	1.545	1544.9	observe	Run1	observe/STIM_017.jpg	100
938.787	1.58	1579.8	observe	Run1	observe/STIM_017.jpg	100
943.836	1.433	1433.2	observe	Run1	observe/STIM_017.jpg	100
948.77	1.478	1477.8	observe	Run1	observe/STIM_018.jpg	99
953.78	1.396	1396.3	observe	Run1	observe/STIM_018.jpg	100
958.646	0.904	903.6	observe	Run1	observe/STIM_018.jpg	99
962.4	0.993	992.7	observe	Run1	observe/STIM_018.jpg	100
966.897	1.104	1103.9	observe	Run1	observe/STIM_019.jpg	99
971.632	0.94	940.3	observe	Run1	observe/STIM_019.jpg	100
975.335	0.917	916.8	observe	Run1	observe/STIM_019.jpg	99
979.519	0.92	920.1	observe	Run1	observe/STIM_019.jpg	100
984.186	1.584	1583.7	regulate	Run2	regulate/STIM_000.jpg	99
988.641	2.209	2208.6	regulate	Run2	regulate/STIM_000.jpg	99
993.838	1.868	1867.9	regulate	Run2	regulate/STIM_000.jpg	100
998.248	2.093	2092.6	regulate	Run2	regulate/STIM_000.jpg	99
1002.692	1.646	1646.3	regulate	Run2	regulate/STIM_001.jpg	100
1007.353	2.649	2649.3	regulate	Run2	regulate/STIM_001.jpg	99
1013.774	2.646	2645.7	regulate	Run2	regulate/STIM_001.jpg	99
1019.595	1.324	1323.5	regulate	Run2	regulate/STIM_001.jpg	100
1023.062	2.793	2792.9	regulate	Run2	regulate/STIM_002.jpg	100
1029.408	1.508	1507.9	regulate	Run2	regulate/STIM_002.jpg	99
1033.934	1.287	1286.7	regulate	Run2	regulate/STIM_002.jpg	100
1037.786	1.252	1252.5	regulate	Run2	regulate/STIM_002.jpg	99
1042.484	2.199	2199.1	regulate	Run2	regulate/STIM_003.jpg	100
1048.112	1.516	1515.6	regulate	Run2	regulate/STIM_003.jpg	100
1053.069	2.313	2312.7	regulate	Run2	regulate/STIM_003.jpg	99
1059.011	1.947	1946.7	regulate	Run2	regulate/STIM_003.jpg	100
1064.396	2.188	2188.3	regulate	Run2	regulate/STIM_004.jpg	99
1070.168	2.174	2174.5	regulate	Run2	regulate/STIM_004.jpg	100
1075.3	2.499	2499.2	regulate	Run2	regulate/STIM_004.jpg	100
1080.875	2.226	2225.8	regulate	Run2	regulate/STIM_004.jpg	99
1086.093	1.988	1987.7	regulate	Run2	regulate/STIM_005.jpg	100
1091.765	2.183	2182.6	regulate	Run2	regulate/STIM_005.jpg	99
1097.942	2.076	2076.0	regulate	Run2	regulate/STIM_005.jpg	100
1102.552	1.456	1455.5	regulate	Run2	regulate/STIM_005.jpg	100
1106.206	1.839	1839.4	regulate	Run2	regulate/STIM_006.jpg	99
1110.118	2.844	2844.2	regulate	Run2	regulate/STIM_006.jpg	100
1116.681	1.301	1301.1	regulate	Run2	regulate/STIM_006.jpg	99
1120.32	2.272	2272.5	regulate	Run2	regulate/STIM_006.jpg	100
1125.261	1.583	1583.3	regulate	Run2	regulate/STIM_007.jpg	99
1129.231	2.669	2668.9	regulate	Run2	regulate/STIM_007.jpg	99
1135.19	1.539	1539.4	regulate	Run2	regulate/STIM_007.jpg	100
1139.405	2.269	2268.8	regulate	Run2	regulate/STIM_007.jpg	100
1144.642	2.356	2356.1	regulate	Run2	regulate/STIM_008.jpg	100
1150.662	1.293	1292.7	regulate	Run2	regulate/STIM_008.jpg	100
1154.038	1.485	1485.1	regulate	Run2	regulate/STIM_008.jpg	99
1158.242	2.441	2440.7	regulate	Run2	regulate/STIM_008.jpg	100
1163.048	2.784	2784.0	regulate	Run2	regulate/STIM_009.jpg	100
1169.507	2.385	2384.8	regulate	Run2	regulate/STIM_009.jpg	100
1175.321	1.752	1752.4	regulate	Run2	regulate/STIM_009.jpg	100
1179.839	2.045	2045.2	regulate	Run2	regulate/STIM_009.jpg	100
1184.403	2.816	2816.5	regulate	Run2	regulate/STIM_010.jpg	99
1190.878	1.73	1730.5	regulate	Run2	regulate/STIM_010.jpg	100
1194.928	2.202	2202.5	regulate	Run2	regulate/STIM_010.jpg	99
1200.083	2.174	2174.3	regulate	Run2	regulate/STIM_010.jpg	99
1205.542	1.489	1489.3	regulate	Run2	regulate/STIM_011.jpg	100
1209.575	1.64	1639.8	regulate	Run2	regulate/STIM_011.jpg	99
1214.306	1.862	1861.7	regulate	Run2	regulate/STIM_011.jpg	100
1219.25	2.151	2150.6	regulate	Run2	regulate/STIM_011.jpg	100
1223.635	2.028	2028.3	regulate	Run2	regulate/STIM_012.jpg	100
1227.895	2.266	2265.9	regulate	Run2	regulate/STIM_012.jpg	100
1233.082	2.568	2568.1	regulate	Run2	regulate/STIM_012.jpg	100
1239.504	1.611	1611.1	regulate	Run2	regulate/STIM_012.jpg	100
1243.365	2.248	2247.6	regulate	Run2	regulate/STIM_013.jpg	99
1248.566	1.786	1785.7	regulate	Run2	regulate/STIM_013.jpg	99
1252.614	2.398	2397.8	regulate	Run2	regulate/STIM_013.jpg	100
1257.215	1.228	1228.5	regulate	Run2	regulate/STIM_013.jpg	100
1260.844	2.346	2345.6	regulate	Run2	regulate/STIM_014.jpg	100
1266.351	2.083	2082.8	regulate	Run2	regulate/STIM_014.jpg	100
1270.437	1.471	1471.1	regulate	Run2	regulate/STIM_014.jpg	100
1275.074	1.115	1114.9	regulate	Run2	regulate/STIM_014.jpg	99
1278.771	1.376	1376.2	regulate	Run2	regulate/STIM_015.jpg	100
1283.169	2.435	2435.0	regulate	Run2	regulate/STIM_015.jpg	100
1289.183	2.339	2339.0	regulate	Run2	regulate/STIM_015.jpg	100
1295.262	1.1	1100.5	regulate	Run2	regulate/STIM_015.jpg	99
1299.815	3.011	3011.3	regulate	Run2	regulate/STIM_016.jpg	99
1304.866	2.085	2084.9	regulate	Run2	regulate/STIM_016.jpg	99
1309.676	2.041	2040.9	regulate	Run2	regulate/STIM_016.jpg	100
1314.522	2.329	2329.4	regulate	Run2	regulate/STIM_016.jpg	100
1319.027	2.036	2036.0	regulate	Run2	regulate/STIM_017.jpg	99
1324.803	2.216	2216.1	regulate	Run2	regulate/STIM_017.jpg	99
1330.9	1.24	1239.7	regulate	Run2	regulate/STIM_017.jpg	99
1336.024	1.13	1130.5	regulate	Run2	regulate/STIM_017.jpg	100
1340.191	2.498	2498.1	regulate	Run2	regulate/STIM_018.jpg	99
1344.754	1.564	1564.2	regulate	Run2	regulate/STIM_018.jpg	99
1349.164	1.501	1501.0	regulate	Run2	regulate/STIM_018.jpg	100
1353.916	1.929	1929.3	regulate	Run2	regulate/STIM_018.jpg	99
1359.133	2.432	2432.4	regulate	Run2	regulate/STIM_019.jpg	100
1363.747	2.244	2243.7	regulate	Run2	regulate/STIM_019.jpg	100
1368.97	2.639	2638.6	regulate	Run2	regulate/STIM_019.jpg	99
1374.889	2.429	2429.0	regulate	Run2	regulate/STIM_019.jpg	99
1380.774	2.192	2191.7	regulate	Run2	regulate/STIM_020.jpg	100
1386.268	1.999	1999.1	regulate	Run2	regulate/STIM_020.jpg	99
1390.386	1.966	1966.1	regulate	Run2	regulate/STIM_020.jpg	99
1396.089	2.449	2448.8	regulate	Run2	regulate/STIM_020.jpg	99
1400.6	2.494	2493.9	regulate	Run2	regulate/STIM_021.jpg	99
1405.789	1.525	1525.1	regulate	Run2	regulate/STIM_021.jpg	100
1410.783	1.17	1169.6	regulate	Run2	regulate/STIM_021.jpg	99
1415.042	1.225	1225.2	regulate	Run2	regulate/STIM_021.jpg	100
1418.43	1.828	1827.8	regulate	Run2	regulate/STIM_022.jpg	100
1424.059	2.845	2844.6	regulate	Run2	regulate/STIM_022.jpg	99
1430.336	2.649	2648.7	regulate	Run2	regulate/STIM_022.jpg	100
1435.098	2.423	2422.9	regulate	Run2	regulate/STIM_022.jpg	100
1439.761	2.378	2377.5	regulate	Run2	regulate/STIM_023.jpg	99
1444.589	2.514	2514.4	regulate	Run2	regulate/STIM_023.jpg	100
1450.63	1.886	1886.5	regulate	Run2	regulate/STIM_023.jpg	100
1455.787	2.307	2307.0	regulate	Run2	regulate/STIM_023.jpg	99
1460.281	2.661	2661.4	regulate	Run2	regulate/STIM_024.jpg	99
1466.521	1.688	1687.7	regulate	Run2	regulate/STIM_024.jpg	100
1470.21	1.777	1776.9	regulate	Run2	regulate/STIM_024.jpg	100
1475.439	1.473	1472.7	regulate	Run2	regulate/STIM_024.jpg	99
1479.626	1.827	1826.6	regulate	Run2	regulate/STIM_025.jpg	99
1485.442	1.595	1595.2	regulate	Run2	regulate/STIM_025.jpg	99
1489.766	1.442	1442.3	regulate	Run2	regulate/STIM_025.jpg	100
1493.82	2.001	2001.4	regulate	Run2	regulate/STIM_025.jpg	100
1499.623	2.43	2429.6	regulate	Run2	regulate/STIM_026.jpg	100
1504.493	1.787	1786.9	regulate	Run2	regulate/STIM_026.jpg	100
1509.596	1.291	1290.6	regulate	Run2	regulate/STIM_026.jpg	99
1513.019	1.154	1154.3	regulate	Run2	regulate/STIM_026.jpg	99
1517.736	2.962	2961.9	regulate	Run2	regulate/STIM_027.jpg	99
1523.85	1.61	1610.1	regulate	Run2	regulate/STIM_027.jpg	100
1529.444	1.488	1488.3	regulate	Run2	regulate/STIM_027.jpg	99
1533.332	1.692	1692.5	regulate	Run2	regulate/STIM_027.jpg	99
1538.362	2.889	2889.0	regulate	Run2	regulate/STIM_028.jpg	99
1544.765	2.344	2343.8	regulate	Run2	regulate/STIM_028.jpg	99
1550.966	2.25	2250.3	regulate	Run2	regulate/STIM_028.jpg	100
1556.525	1.479	1478.9	regulate	Run2	regulate/STIM_028.jpg	99
1561.971	2.033	2032.5	regulate	Run2	regulate/STIM_029.jpg	100
1566.41	1.863	1862.8	regulate	Run2	regulate/STIM_029.jpg	100
1571.454	2.429	2429.2	regulate	Run2	regulate/STIM_029.jpg	100
1576.426	1.401	1401.3	regulate	Run2	regulate/STIM_029.jpg	100
1580.098	1.191	1190.8	observe	Run2	observe/STIM_000.jpg	99
1583.957	1.036	1035.9	observe	Run2	observe/STIM_000.jpg	99
1587.558	1.348	1348.2	observe	Run2	observe/STIM_000.jpg	100
1590.916	1.075	1074.6	observe	Run2	observe/STIM_000.jpg	99
1595.555	1.071	1070.7	observe	Run2	observe/STIM_001.jpg	99
1599.304	1.344	1344.3	observe	Run2	observe/STIM_001.jpg	100
1603.658	1.175	1174.9	observe	Run2	observe/STIM_001.jpg	100
1606.948	0.951	951.0	observe	Run2	observe/STIM_001.jpg	100
1611.852	1.48	1480.3	observe	Run2	observe/STIM_002.jpg	99
1616.04	1.394	1394.0	observe	Run2	observe/STIM_002.jpg	100
1619.662	1.359	1358.9	observe	Run2	observe/STIM_002.jpg	99
1623.513	0.873	872.7	observe	Run2	observe/STIM_002.jpg	99
1627.957	1.494	1494.4	observe	Run2	observe/STIM_003.jpg	99
1631.977	1.307	1307.2	observe	Run2	observe/STIM_003.jpg	99
1635.428	1.415	1415.1	observe	Run2	observe/STIM_003.jpg	99
1638.888	1.619	1618.9	observe	Run2	observe/STIM_003.jpg	99
1644.472	1.153	1153.1	observe	Run2	observe/STIM_004.jpg	100
1649.507	1.125	1125.0	observe	Run2	observe/STIM_004.jpg	100
1653.172	1.19	1190.5	observe	Run2	observe/STIM_004.jpg	100
1656.833	0.987	986.8	observe	Run2	observe/STIM_004.jpg	100
1660.064	1.062	1062.5	observe	Run2	observe/STIM_005.jpg	100
1664.286	1.46	1459.8	observe	Run2	observe/STIM_005.jpg	100
1669.675	1.377	1376.7	observe	Run2	observe/STIM_005.jpg	99
1673.289	1.155	1155.0	observe	Run2	observe/STIM_005.jpg	99
1676.645	0.924	924.5	observe	Run2	observe/STIM_006.jpg	99
1680.269	1.222	1222.1	observe	Run2	observe/STIM_006.jpg	100
1685.223	1.015	1015.3	observe	Run2	observe/STIM_006.jpg	99
1689.854	1.541	1540.6	observe	Run2	observe/STIM_006.jpg	100
1693.752	0.831	831.3	observe	Run2	observe/STIM_007.jpg	100
1696.753	1.547	1546.9	observe	Run2	observe/STIM_007.jpg	100
1701.165	1.415	1414.6	observe	Run2	observe/STIM_007.jpg	100
1706.494	1.008	1008.4	observe	Run2	observe/STIM_007.jpg	100
1711.491	1.53	1529.5	observe	Run2	observe/STIM_008.jpg	99
1715.432	1.14	1140.1	observe	Run2	observe/STIM_008.jpg	99
1719.544	1.207	1206.6	observe	Run2	observe/STIM_008.jpg	99
1723.991	1.096	1096.4	observe	Run2	observe/STIM_008.jpg	100
1728.653	0.978	978.5	observe	Run2	observe/STIM_009.jpg	100
1732.81	0.867	866.7	observe	Run2	observe/STIM_009.jpg	100
1735.872	1.029	1028.9	observe	Run2	observe/STIM_009.jpg	100
1740.521	1.0	1000.3	observe	Run2	observe/STIM_009.jpg	99
1743.6	1.46	1460.2	observe	Run2	observe/STIM_010.jpg	100
1747.477	1.602	1602.0	observe	Run2	observe/STIM_010.jpg	100
1751.788	0.914	913.7	observe	Run2	observe/STIM_010.jpg	99
1755.146	1.538	1538.2	observe	Run2	observe/STIM_010.jpg	100
1760.132	1.029	1028.7	observe	Run2	observe/STIM_011.jpg	100
1764.198	0.961	961.0	observe	Run2	observe/STIM_011.jpg	99
1767.509	1.063	1062.7	observe	Run2	observe/STIM_011.jpg	100
1772.091	1.11	1110.5	observe	Run2	observe/STIM_011.jpg	99
1775.205	1.104	1104.4	observe	Run2	observe/STIM_012.jpg	99
1778.38	1.213	1213.3	observe	Run2	observe/STIM_012.jpg	100
1782.446	1.153	1152.7	observe	Run2	observe/STIM_012.jpg	99
1786.439	1.177	1177.4	observe	Run2	observe/STIM_012.jpg	99
1790.634	1.628	1628.2	observe	Run2	observe/STIM_013.jpg	100
1794.99	1.06	1059.8	observe	Run2	observe/STIM_013.jpg	100
1798.237	0.983	982.9	observe	Run2	observe/STIM_013.jpg	99
1801.244	1.576	1576.5	observe	Run2	observe/STIM_013.jpg	99
1805.833	1.156	1155.8	observe	Run2	observe/STIM_014.jpg	99
1810.354	1.53	1529.6	observe	Run2	observe/STIM_014.jpg	100
1814.081	1.474	1474.4	observe	Run2	observe/STIM_014.jpg	99
1819.322	1.02	1020.1	observe	Run2	observe/STIM_014.jpg	99
1822.799	1.049	1048.8	observe	Run2	observe/STIM_015.jpg	100
1827.283	0.855	854.8	observe	Run2	observe/STIM_015.jpg	99
1830.93	0.859	859.3	observe	Run2	observe/STIM_015.jpg	100
1835.298	1.172	1171.9	observe	Run2	observe/STIM_015.jpg	99
1839.249	0.994	994.0	observe	Run2	observe/STIM_016.jpg	100
1842.806	0.822	822.5	observe	Run2	observe/STIM_016.jpg	99
1846.123	1.248	1248.1	observe	Run2	observe/STIM_016.jpg	100
1851.285	1.156	1155.5	observe	Run2	observe/STIM_016.jpg	99
1855.689	1.328	1328.5	observe	Run2	observe/STIM_017.jpg	99
1861.0	1.118	1118.5	observe	Run2	observe/STIM_017.jpg	100
1864.858	1.021	1020.7	observe	Run2	observe/STIM_017.jpg	99
1868.302	1.478	1478.0	observe	Run2	observe/STIM_017.jpg	99
1872.66	1.226	1225.7	observe	Run2	observe/STIM_018.jpg	99
1877.828	1.022	1022.1	observe	Run2	observe/STIM_018.jpg	99
1882.595	1.273	1272.6	observe	Run2	observe/STIM_018.jpg	99
1885.998	0.958	957.9	observe	Run2	observe/STIM_018.jpg	100
1889.169	1.179	1179.2	observe	Run2	observe/STIM_019.jpg	100
1893.913	1.197	1197.3	observe	Run2	observe/STIM_019.jpg	100
1897.632	0.972	972.4	observe	Run2	observe/STIM_019.jpg	100
1901.2	1.324	1324.0	observe	Run2	observe/STIM_019.jpg	100
1905.206	2.109	2109.1	regulate	Run3	regulate/STIM_000.jpg	100
1910.893	1.665	1665.0	regulate	Run3	regulate/STIM_000.jpg	100
1915.166	1.431	1431.3	regulate	Run3	regulate/STIM_000.jpg	100
1919.911	1.431	1430.8	regulate	Run3	regulate/STIM_000.jpg	100
1924.537	2.371	2370.8	regulate	Run3	regulate/STIM_001.jpg	100
1930.362	1.362	1361.5	regulate	Run3	regulate/STIM_001.jpg	99
1934.447	1.082	1082.4	regulate	Run3	regulate/STIM_001.jpg	99
1937.864	1.375	1375.2	regulate	Run3	regulate/STIM_001.jpg	99
1941.709	1.882	1882.5	regulate	Run3	regulate/STIM_002.jpg	99
1945.604	2.056	2056.5	regulate	Run3	regulate/STIM_002.jpg	99
1950.067	1.416	1416.0	regulate	Run3	regulate/STIM_002.jpg	100
1955.163	1.647	1647.3	regulate	Run3	regulate/STIM_002.jpg	100
1959.583	1.141	1141.2	regulate	Run3	regulate/STIM_003.jpg	100
1963.052	1.531	1530.8	regulate	Run3	regulate/STIM_003.jpg	100
1966.751	1.087	1086.8	regulate	Run3	regulate/STIM_003.jpg	99
1970.143	1.785	1785.0	regulate	Run3	regulate/STIM_003.jpg	99
1975.891	1.858	1857.5	regulate	Run3	regulate/STIM_004.jpg	100
1981.613	1.518	1518.1	regulate	Run3	regulate/STIM_004.jpg	100
1987.017	1.977	1977.1	regulate	Run3	regulate/STIM_004.jpg	100
1992.165	2.327	2326.8	regulate	Run3	regulate/STIM_004.jpg	100
1996.916	1.41	1409.6	regulate	Run3	regulate/STIM_005.jpg	100
2000.393	2.464	2464.5	regulate	Run3	regulate/STIM_005.jpg	99
2006.757	2.496	2495.6	regulate	Run3	regulate/STIM_005.jpg	99
2011.569	1.181	1180.8	regulate	Run3	regulate/STIM_005.jpg	99
2015.394	2.404	2403.9	regulate	Run3	regulate/STIM_006.jpg	100
2021.418	2.379	2379.4	regulate	Run3	regulate/STIM_006.jpg	100
2026.58	2.109	2108.6	regulate	Run3	regulate/STIM_006.jpg	99
2032.499	1.595	1595.3	regulate	Run3	regulate/STIM_006.jpg	100
2037.879	1.879	1878.6	regulate	Run3	regulate/STIM_007.jpg	100
2042.452	1.311	1310.7	regulate	Run3	regulate/STIM_007.jpg	100
2046.903	1.648	1648.0	regulate	Run3	regulate/STIM_007.jpg	99
2051.316	1.981	1980.6	regulate	Run3	regulate/STIM_007.jpg	100
2056.247	2.116	2116.0	regulate	Run3	regulate/STIM_008.jpg	100
2061.329	1.624	1624.5	regulate	Run3	regulate/STIM_008.jpg	100
2065.063	2.121	2120.7	regulate	Run3	regulate/STIM_008.jpg	100
2069.966	1.421	1421.2	regulate	Run3	regulate/STIM_008.jpg	99
2073.719	2.255	2254.8	regulate	Run3	regulate/STIM_009.jpg	100
2078.003	2.492	2492.3	regulate	Run3	regulate/STIM_009.jpg	99
2084.413	2.243	2242.7	regulate	Run3	regulate/STIM_009.jpg	100
2090.427	2.031	2030.9	regulate	Run3	regulate/STIM_009.jpg	99
2096.411	2.314	2313.5	regulate	Run3	regulate/STIM_010.jpg	100
2102.126	1.672	1671.5	regulate	Run3	regulate/STIM_010.jpg	100
2107.579	2.415	2414.7	regulate	Run3	regulate/STIM_010.jpg	100
2112.196	2.324	2323.9	regulate	Run3	regulate/STIM_010.jpg	99
2116.923	1.275	1275.2	regulate	Run3	regulate/STIM_011.jpg	100
2120.409	1.854	1853.7	regulate	Run3	regulate/STIM_011.jpg	99
2125.33	2.183	2182.8	regulate	Run3	regulate/STIM_011.jpg	99
2130.299	1.694	1693.9	regulate	Run3	regulate/STIM_011.jpg	100
2135.46	2.025	2024.5	regulate	Run3	regulate/STIM_012.jpg	99
2140.963	1.23	1230.2	regulate	Run3	regulate/STIM_012.jpg	99
2145.499	1.846	1846.5	regulate	Run3	regulate/STIM_012.jpg	99
2151.198	1.368	1368.3	regulate	Run3	regulate/STIM_012.jpg	100
2154.905	1.308	1308.1	regulate	Run3	regulate/STIM_013.jpg	99
2159.411	2.334	2333.8	regulate	Run3	regulate/STIM_013.jpg	100
2163.982	1.152	1152.5	regulate	Run3	regulate/STIM_013.jpg	100
2169.091	1.979	1979.0	regulate	Run3	regulate/STIM_013.jpg	100
2173.391	2.382	2381.5	regulate	Run3	regulate/STIM_014.jpg	100
2179.111	2.395	2394.9	regulate	Run3	regulate/STIM_014.jpg	99
2185.305	1.369	1368.9	regulate	Run3	regulate/STIM_014.jpg	100
2188.816	1.99	1990.1	regulate	Run3	regulate/STIM_014.jpg	100
2194.041	1.948	1947.6	regulate	Run3	regulate/STIM_015.jpg	100
2198.968	1.624	1623.7	regulate	Run3	regulate/STIM_015.jpg	100
2204.352	1.686	1685.5	regulate	Run3	regulate/STIM_015.jpg	99
2209.437	2.271	2270.8	regulate	Run3	regulate/STIM_015.jpg	99
2215.127	1.787	1786.6	regulate	Run3	regulate/STIM_016.jpg	99
2220.908	1.303	1303.0	regulate	Run3	regulate/STIM_016.jpg	99
2225.944	2.133	2133.0	regulate	Run3	regulate/STIM_016.jpg	100
2230.092	1.376	1376.2	regulate	Run3	regulate/STIM_016.jpg	100
2234.319	1.655	1655.0	regulate	Run3	regulate/STIM_017.jpg	99
2239.63	1.168	1167.8	regulate	Run3	regulate/STIM_017.jpg	100
2243.878	1.112	1112.4	regulate	Run3	regulate/STIM_017.jpg	99
2247.701	1.874	1873.5	regulate	Run3	regulate/STIM_017.jpg	99
2251.947	2.363	2362.8	regulate	Run3	regulate/STIM_018.jpg	99
2257.882	1.23	1230.4	regulate	Run3	regulate/STIM_018.jpg	100
2261.762	2.414	2414.5	regulate	Run3	regulate/STIM_018.jpg	99
2267.312	1.444	1444.1	regulate	Run3	regulate/STIM_018.jpg	100
2270.766	1.319	1318.9	regulate	Run3	regulate/STIM_019.jpg	100
2276.055	1.173	1173.1	regulate	Run3	regulate/STIM_019.jpg	99
2280.416	2.091	2091.2	regulate	Run3	regulate/STIM_019.jpg	99
2286.295	2.27	2270.1	regulate	Run3	regulate/STIM_019.jpg	100
2291.358	1.473	1473.1	regulate	Run3	regulate/STIM_020.jpg	100
2295.85	2.259	2259.3	regulate	Run3	regulate/STIM_020.jpg	99
2302.01	2.174	2174.2	regulate	Run3	regulate/STIM_020.jpg	99
2307.426	1.416	1416.1	regulate	Run3	regulate/STIM_020.jpg	99
2311.611	1.677	1677.2	regulate	Run3	regulate/STIM_021.jpg	99
2316.316	1.365	1364.6	regulate	Run3	regulate/STIM_021.jpg	100
2319.752	1.458	1457.9	regulate	Run3	regulate/STIM_021.jpg	99
2325.163	2.011	2011.5	regulate	Run3	regulate/STIM_021.jpg	100
2330.821	1.097	1096.8	regulate	Run3	regulate/STIM_022.jpg	99
2333.991	1.732	1731.9	regulate	Run3	regulate/STIM_022.jpg	99
2338.2	2.492	2491.7	regulate	Run3	regulate/STIM_022.jpg	99
2343.711	1.377	1376.6	regulate	Run3	regulate/STIM_022.jpg	100
2348.992	1.467	1466.9	regulate	Run3	regulate/STIM_023.jpg	100
2352.57	1.892	1892.4	regulate	Run3	regulate/STIM_023.jpg	99
2357.416	2.353	2352.7	regulate	Run3	regulate/STIM_023.jpg	99
2361.826	2.37	2369.9	regulate	Run3	regulate/STIM_023.jpg	99
2366.575	2.269	2269.4	regulate	Run3	regulate/STIM_024.jpg	100
2372.28	1.919	1919.1	regulate	Run3	regulate/STIM_024.jpg	100
2376.331	1.614	1614.5	regulate	Run3	regulate/STIM_024.jpg	100
2380.38	1.579	1578.8	regulate	Run3	regulate/STIM_024.jpg	99
2384.206	2.361	2360.8	regulate	Run3	regulate/STIM_025.jpg	100
2390.256	2.239	2239.2	regulate	Run3	regulate/STIM_025.jpg	99
2394.972	2.376	2376.4	regulate	Run3	regulate/STIM_025.jpg	99
2401.123	1.228	1228.0	regulate	Run3	regulate/STIM_025.jpg	100
2405.143	2.16	2159.9	regulate	Run3	regulate/STIM_026.jpg	100
2410.363	2.294	2293.6	regulate	Run3	regulate/STIM_026.jpg	99
2415.321	1.798	1797.9	regulate	Run3	regulate/STIM_026.jpg	99
2419.512	2.441	2441.1	regulate	Run3	regulate/STIM_026.jpg	99
2425.28	2.06	2060.3	regulate	Run3	regulate/STIM_027.jpg	99
2430.129	1.846	1845.8	regulate	Run3	regulate/STIM_027.jpg	99
2435.344	2.207	2207.4	regulate	Run3	regulate/STIM_027.jpg	99
2441.287	1.858	1857.7	regulate	Run3	regulate/STIM_027.jpg	99
2445.298	1.107	1106.7	regulate	Run3	regulate/STIM_028.jpg	100
2449.826	2.271	2270.8	regulate	Run3	regulate/STIM_028.jpg	99
2456.036	2.065	2065.2	regulate	Run3	regulate/STIM_028.jpg	99
2462.042	2.241	2240.8	regulate	Run3	regulate/STIM_028.jpg	99
2466.91	2.385	2385.2	regulate	Run3	regulate/STIM_029.jpg	99
2473.257	1.803	1802.8	regulate	Run3	regulate/STIM_029.jpg	99
2478.29	1.255	1255.0	regulate	Run3	regulate/STIM_029.jpg	99
2481.928	1.424	1424.2	regulate	Run3	regulate/STIM_029.jpg	99
2485.503	1.155	1155.0	observe	Run3	observe/STIM_000.jpg	99
2489.052	0.858	858.1	observe	Run3	observe/STIM_000.jpg	99
2493.525	1.249	1249.2	observe	Run3	observe/STIM_000.jpg	99
2496.825	1.309	1308.8	observe	Run3	observe/STIM_000.jpg	100
2500.196	1.286	1285.6	observe	Run3	observe/STIM_001.jpg	99
2504.112	1.404	1403.6	observe	Run3	observe/STIM_001.jpg	100
2509.415	1.258	1258.1	observe	Run3	observe/STIM_001.jpg	99
2514.475	1.478	1477.5	observe	Run3	observe/STIM_001.jpg	99
2519.623	1.296	1296.5	observe	Run3	observe/STIM_002.jpg	100
2523.252	1.062	1062.0	observe	Run3	observe/STIM_002.jpg	100
2527.032	1.27	1270.2	observe	Run3	observe/STIM_002.jpg	100
2531.161	1.45	1450.5	observe	Run3	observe/STIM_002.jpg	100
2535.681	1.459	1459.2	observe	Run3	observe/STIM_003.jpg	100
2539.933	1.355	1355.0	observe	Run3	observe/STIM_003.jpg	99
2544.719	1.306	1305.8	observe	Run3	observe/STIM_003.jpg	100
2548.41	1.33	1329.8	observe	Run3	observe/STIM_003.jpg	99
2553.412	1.531	1530.7	observe	Run3	observe/STIM_004.jpg	100
2558.58	1.313	1312.9	observe	Run3	observe/STIM_004.jpg	99
2562.907	0.974	973.7	observe	Run3	observe/STIM_004.jpg	100
2566.413	1.343	1343.0	observe	Run3	observe/STIM_004.jpg	99
2570.595	1.189	1188.6	observe	Run3	observe/STIM_005.jpg	99
2574.791	1.454	1454.4	observe	Run3	observe/STIM_005.jpg	99
2579.982	1.544	1544.0	observe	Run3	observe/STIM_005.jpg	99
2584.381	0.937	937.4	observe	Run3	observe/STIM_005.jpg	99
2588.946	0.858	857.6	observe	Run3	observe/STIM_006.jpg	100
2593.581	1.565	1565.2	observe	Run3	observe/STIM_006.jpg	99
2597.315	1.391	1390.8	observe	Run3	observe/STIM_006.jpg	100
2601.488	0.86	860.2	observe	Run3	observe/STIM_006.jpg	99
2604.941	1.018	1018.3	observe	Run3	observe/STIM_007.jpg	100
2609.493	0.912	911.8	observe	Run3	observe/STIM_007.jpg	99
2612.703	1.333	1333.3	observe	Run3	observe/STIM_007.jpg	100
2617.178	1.476	1475.6	observe	Run3	observe/STIM_007.jpg	100
2622.239	1.386	1385.5	observe	Run3	observe/STIM_008.jpg	99
2626.25	1.368	1367.7	observe	Run3	observe/STIM_008.jpg	100
2629.843	1.21	1210.1	observe	Run3	observe/STIM_008.jpg	100
2634.633	1.574	1574.1	observe	Run3	observe/STIM_008.jpg	99
2638.82	1.509	1508.8	observe	Run3	observe/STIM_009.jpg	100
2643.185	1.191	1190.9	observe	Run3	observe/STIM_009.jpg	100
2648.121	1.203	1203.1	observe	Run3	observe/STIM_009.jpg	99
2651.647	0.982	982.0	observe	Run3	observe/STIM_009.jpg	100
2655.308	1.298	1297.7	observe	Run3	observe/STIM_010.jpg	99
2660.472	1.054	1053.9	observe	Run3	observe/STIM_010.jpg	100
2664.731	1.216	1216.0	observe	Run3	observe/STIM_010.jpg	100
2668.4	1.184	1183.6	observe	Run3	observe/STIM_010.jpg	100
2671.657	1.362	1362.5	observe	Run3	observe/STIM_011.jpg	99
2675.174	1.396	1395.8	observe	Run3	observe/STIM_011.jpg	100
2678.853	1.28	1280.0	observe	Run3	observe/STIM_011.jpg	99
2683.379	0.878	877.7	observe	Run3	observe/STIM_011.jpg	100
2687.096	1.524	1524.2	observe	Run3	observe/STIM_012.jpg	100
2691.186	0.919	918.7	observe	Run3	observe/STIM_012.jpg	100
2695.845	0.995	995.3	observe	Run3	observe/STIM_012.jpg	100
2699.48	1.44	1440.1	observe	Run3	observe/STIM_012.jpg	100
2702.951	1.452	1452.3	observe	Run3	observe/STIM_013.jpg	100
2707.927	1.608	1607.8	observe	Run3	observe/STIM_013.jpg	100
2711.638	1.601	1601.1	observe	Run3	observe/STIM_013.jpg	100
2716.356	1.409	1408.6	observe	Run3	observe/STIM_013.jpg	99
2721.225	1.384	1383.6	observe	Run3	observe/STIM_014.jpg	99
2726.124	1.348	1347.6	observe	Run3	observe/STIM_014.jpg	99
2729.55	1.564	1564.3	observe	Run3	observe/STIM_014.jpg	100
2734.789	1.171	1171.0	observe	Run3	observe/STIM_014.jpg	99
2739.482	1.206	1206.0	observe	Run3	observe/STIM_015.jpg	99
2744.602	1.078	1078.4	observe	Run3	observe/STIM_015.jpg	99
2748.761	1.549	1549.0	observe	Run3	observe/STIM_015.jpg	99
2752.853	1.007	1006.6	observe	Run3	observe/STIM_015.jpg	100
2757.134	1.508	1507.8	observe	Run3	observe/STIM_016.jpg	100
2761.771	1.35	1349.9	observe	Run3	observe/STIM_016.jpg	100
2765.757	1.433	1433.1	observe	Run3	observe/STIM_016.jpg	100
2770.923	1.114	1113.5	observe	Run3	observe/STIM_016.jpg	99
2775.853	1.053	1052.9	observe	Run3	observe/STIM_017.jpg	100
2779.373	1.489	1489.2	observe	Run3	observe/STIM_017.jpg	99
2783.969	1.312	1312.1	observe	Run3	observe/STIM_017.jpg	100
2788.541	0.861	860.8	observe	Run3	observe/STIM_017.jpg	100
2792.125	1.43	1430.3	observe	Run3	observe/STIM_018.jpg	99
2797.326	1.084	1083.6	observe	Run3	observe/STIM_018.jpg	99
2800.47	0.969	968.9	observe	Run3	observe/STIM_018.jpg	99
2803.83	1.307	1306.6	observe	Run3	observe/STIM_018.jpg	100
2807.993	0.959	958.7	observe	Run3	observe/STIM_019.jpg	99
2812.388	1.348	1348.2	observe	Run3	observe/STIM_019.jpg	100
2815.772	1.005	1004.8	observe	Run3	observe/STIM_019.jpg	100
2819.126	1.376	1375.9	observe	Run3	observe/STIM_019.jpg	100
