onset	duration	response_time_ms	trial_type	learning_stage	stimulus	response_port
0.0	0.873	873.3	incongruent	Block1	incongruent/STIM_000.jpg	99
3.496	1.019	1019.0	incongruent	Block1	incongruent/STIM_000.jpg	99
7.842	1.23	1230.1	incongruent	Block1	incongruent/STIM_000.jpg	99
12.279	0.639	639.4	incongruent	Block1	incongruent/STIM_000.jpg	100
15.05	0.539	538.7	incongruent	Block1	incongruent/STIM_000.jpg	100
17.869	0.979	978.7	incongruent	Block1	incongruent/STIM_001.jpg	99
22.646	1.195	1194.9	incongruent	Block1	incongruent/STIM_001.jpg	100
27.616	1.069	1069.3	incongruent	Block1	incongruent/STIM_001.jpg	100
31.095	0.76	760.0	incongruent	Block1	incongruent/STIM_001.jpg	100
34.922	0.8	800.2	incongruent	Block1	incongruent/STIM_001.jpg	99
39.058	1.321	1321.1	incongruent	Block1	incongruent/STIM_002.jpg	99
43.179	0.902	902.0	incongruent	Block1	incongruent/STIM_002.jpg	100
47.224	1.174	1174.1	incongruent	Block1	incongruent/STIM_002.jpg	99
51.165	0.631	631.2	incongruent	Block1	incongruent/STIM_002.jpg	100
55.572	0.823	822.7	incongruent	Block1	incongruent/STIM_002.jpg	100
59.344	0.734	733.5	incongruent	Block1	incongruent/STIM_003.jpg	99
62.61	0.614	613.5	incongruent	Block1	incongruent/STIM_003.jpg	99
65.76	0.588	588.2	incongruent	Block1	incongruent/STIM_003.jpg	99
68.56	1.021	1021.3	incongruent	Block1	incongruent/STIM_003.jpg	99
72.596	0.953	953.2	incongruent	Block1	incongruent/STIM_003.jpg	100
76.042	0.937	937.1	incongruent	Block1	incongruent/STIM_004.jpg	99
80.879	0.694	693.9	incongruent	Block1	incongruent/STIM_004.jpg	100
83.65	0.875	875.0	incongruent	Block1	incongruent/STIM_004.jpg	99
87.906	0.565	565.0	incongruent	Block1	incongruent/STIM_004.jpg	100
90.779	0.658	657.6	incongruent	Block1	incongruent/STIM_004.jpg	100
93.446	1.112	1112.4	incongruent	Block1	incongruent/STIM_005.jpg	99
98.103	0.666	665.9	incongruent	Block1	incongruent/STIM_005.jpg	99
101.144	0.635	634.6	incongruent	Block1	incongruent/STIM_005.jpg	99
104.72	0.634	634.0	incongruent	Block1	incongruent/STIM_005.jpg	100
109.01	0.715	714.9	incongruent	Block1	incongruent/STIM_005.jpg	100
113.589	0.744	743.7	incongruent	Block1	incongruent/STIM_006.jpg	100
117.781	1.175	1175.2	incongruent	Block1	incongruent/STIM_006.jpg	100
122.191	0.791	790.8	incongruent	Block1	incongruent/STIM_006.jpg	99
125.766	0.763	762.7	incongruent	Block1	incongruent/STIM_006.jpg	99
129.707	0.529	528.7	incongruent	Block1	incongruent/STIM_006.jpg	99
132.759	0.916	916.2	incongruent	Block1	incongruent/STIM_007.jpg	100
135.793	1.168	1168.2	incongruent	Block1	incongruent/STIM_007.jpg	99
139.408	0.609	609.2	incongruent	Block1	incongruent/STIM_007.jpg	99
143.731	1.024	1023.8	incongruent	Block1	incongruent/STIM_007.jpg	100
147.303	0.94	939.7	incongruent	Block1	incongruent/STIM_007.jpg	99
151.286	1.307	1307.3	incongruent	Block1	incongruent/STIM_008.jpg	100
156.176	1.152	1152.3	incongruent	Block1	incongruent/STIM_008.jpg	100
161.24	0.664	663.6	incongruent	Block1	incongruent/STIM_008.jpg	100
165.54	0.773	773.0	incongruent	Block1	incongruent/STIM_008.jpg	99
169.369	0.862	861.6	incongruent	Block1	incongruent/STIM_008.jpg	100
173.727	0.904	903.5	incongruent	Block1	incongruent/STIM_009.jpg	99
176.933	0.675	674.8	incongruent	Block1	incongruent/STIM_009.jpg	100
180.651	1.199	1199.4	incongruent	Block1	incongruent/STIM_009.jpg	99
184.299	0.629	629.2	incongruent	Block1	incongruent/STIM_009.jpg	99
187.781	0.572	572.5	incongruent	Block1	incongruent/STIM_009.jpg	100
190.599	0.695	694.7	incongruent	Block1	incongruent/STIM_010.jpg	100
194.36	1.215	1214.8	incongruent	Block1	incongruent/STIM_010.jpg	99
199.03	0.602	602.0	incongruent	Block1	incongruent/STIM_010.jpg	99
201.934	1.146	1146.3	incongruent	Block1	incongruent/STIM_010.jpg	100
206.016	0.63	630.5	incongruent	Block1	incongruent/STIM_010.jpg	100
209.762	0.917	917.4	incongruent	Block1	incongruent/STIM_011.jpg	99
214.212	0.962	962.4	incongruent	Block1	incongruent/STIM_011.jpg	99
218.029	1.084	1084.0	incongruent	Block1	incongruent/STIM_011.jpg	100
221.507	1.068	1067.6	incongruent	Block1	incongruent/STIM_011.jpg	100
226.086	0.845	844.8	incongruent	Block1	incongruent/STIM_011.jpg	99
229.096	0.997	996.7	incongruent	Block1	incongruent/STIM_012.jpg	99
233.878	1.15	1150.5	incongruent	Block1	incongruent/STIM_012.jpg	99
237.487	0.723	723.3	incongruent	Block1	incongruent/STIM_012.jpg	100
240.377	0.637	637.0	incongruent	Block1	incongruent/STIM_012.jpg	99
243.9	0.701	700.6	incongruent	Block1	incongruent/STIM_012.jpg	100
246.716	1.036	1036.5	incongruent	Block1	incongruent/STIM_013.jpg	100
251.574	1.158	1158.0	incongruent	Block1	incongruent/STIM_013.jpg	100
255.512	0.866	866.1	incongruent	Block1	incongruent/STIM_013.jpg	99
259.578	0.752	751.7	incongruent	Block1	incongruent/STIM_013.jpg	100
264.075	0.998	997.6	incongruent	Block1	incongruent/STIM_013.jpg	99
268.802	0.814	814.5	incongruent	Block1	incongruent/STIM_014.jpg	99
272.307	1.061	1061.0	incongruent	Block1	incongruent/STIM_014.jpg	99
276.526	0.684	684.4	incongruent	Block1	incongruent/STIM_014.jpg	99
279.621	0.638	637.7	incongruent	Block1	incongruent/STIM_014.jpg	99
284.024	0.735	734.7	incongruent	Block1	incongruent/STIM_014.jpg	99
288.553	1.015	1015.4	incongruent	Block1	incongruent/STIM_015.jpg	99
291.734	1.192	1192.3	incongruent	Block1	incongruent/STIM_015.jpg	99
295.164	0.585	584.8	incongruent	Block1	incongruent/STIM_015.jpg	99
299.115	1.111	1110.6	incongruent	Block1	incongruent/STIM_015.jpg	99
303.535	0.599	598.9	incongruent	Block1	incongruent/STIM_015.jpg	100
307.54	0.999	998.6	incongruent	Block1	incongruent/STIM_016.jpg	99
310.958	0.606	606.5	incongruent	Block1	incongruent/STIM_016.jpg	99
314.858	0.741	740.6	incongruent	Block1	incongruent/STIM_016.jpg	100
319.166	1.111	1110.6	incongruent	Block1	incongruent/STIM_016.jpg	100
323.232	0.72	719.8	incongruent	Block1	incongruent/STIM_016.jpg	99
327.867	0.688	688.5	incongruent	Block1	incongruent/STIM_017.jpg	99
331.467	1.102	1101.8	incongruent	Block1	incongruent/STIM_017.jpg	100
336.241	1.154	1154.3	incongruent	Block1	incongruent/STIM_017.jpg	100
340.734	0.816	816.5	incongruent	Block1	incongruent/STIM_017.jpg	99
344.056	0.706	706.4	incongruent	Block1	incongruent/STIM_017.jpg	99
348.686	0.676	676.3	incongruent	Block1	incongruent/STIM_018.jpg	99
353.237	1.221	1220.8	incongruent	Block1	incongruent/STIM_018.jpg	100
357.167	0.669	668.9	incongruent	Block1	incongruent/STIM_018.jpg	99
361.414	0.774	773.5	incongruent	Block1	incongruent/STIM_018.jpg	100
365.793	0.84	840.0	incongruent	Block1	incongruent/STIM_018.jpg	100
369.263	0.744	743.7	incongruent	Block1	incongruent/STIM_019.jpg	100
372.876	1.175	1174.9	incongruent	Block1	incongruent/STIM_019.jpg	99
377.984	0.899	899.4	incongruent	Block1	incongruent/STIM_019.jpg	99
381.868	0.999	998.8	incongruent	Block1	incongruent/STIM_019.jpg	100
385.905	0.83	830.5	incongruent	Block1	incongruent/STIM_019.jpg	99
390.288	0.722	722.0	incongruent	Block1	incongruent/STIM_020.jpg	100
393.496	1.016	1016.0	incongruent	Block1	incongruent/STIM_020.jpg	100
397.127	1.218	1218.5	incongruent	Block1	incongruent/STIM_020.jpg	100
401.576	0.61	610.2	incongruent	Block1	incongruent/STIM_020.jpg	100
405.373	0.552	551.6	incongruent	Block1	incongruent/STIM_020.jpg	100
409.661	1.308	1307.8	incongruent	Block1	incongruent/STIM_021.jpg	99
414.23	0.838	838.1	incongruent	Block1	incongruent/STIM_021.jpg	99
417.626	0.893	892.9	incongruent	Block1	incongruent/STIM_021.jpg	99
420.719	1.105	1104.9	incongruent	Block1	incongruent/STIM_021.jpg	100
424.104	0.831	831.0	incongruent	Block1	incongruent/STIM_021.jpg	100
427.418	0.743	743.2	incongruent	Block1	incongruent/STIM_022.jpg	100
430.53	1.061	1060.6	incongruent	Block1	incongruent/STIM_022.jpg	99
435.079	0.642	642.2	incongruent	Block1	incongruent/STIM_022.jpg	99
438.458	0.805	805.2	incongruent	Block1	incongruent/STIM_022.jpg	100
442.439	0.795	795.3	incongruent	Block1	incongruent/STIM_022.jpg	99
446.287	1.082	1082.1	incongruent	Block1	incongruent/STIM_023.jpg	99
450.463	1.11	1109.5	incongruent	Block1	incongruent/STIM_023.jpg	100
455.322	0.616	615.5	incongruent	Block1	incongruent/STIM_023.jpg	99
458.717	0.83	829.5	incongruent	Block1	incongruent/STIM_023.jpg	99
463.267	1.078	1077.9	incongruent	Block1	incongruent/STIM_023.jpg	100
467.623	1.102	1102.1	incongruent	Block1	incongruent/STIM_024.jpg	100
470.922	0.789	789.4	incongruent	Block1	incongruent/STIM_024.jpg	100
475.647	1.008	1007.6	incongruent	Block1	incongruent/STIM_024.jpg	100
480.174	0.998	997.5	incongruent	Block1	incongruent/STIM_024.jpg	99
485.139	0.718	718.1	incongruent	Block1	incongruent/STIM_024.jpg	100
489.414	1.317	1316.8	incongruent	Block1	incongruent/STIM_025.jpg	100
492.904	0.772	771.9	incongruent	Block1	incongruent/STIM_025.jpg	100
496.63	1.193	1192.9	incongruent	Block1	incongruent/STIM_025.jpg	99
501.49	1.039	1039.3	incongruent	Block1	incongruent/STIM_025.jpg	99
505.605	0.785	785.4	incongruent	Block1	incongruent/STIM_025.jpg	100
510.105	0.8	799.6	incongruent	Block1	incongruent/STIM_026.jpg	99
514.54	0.629	628.7	incongruent	Block1	incongruent/STIM_026.jpg	99
518.344	1.021	1021.2	incongruent	Block1	incongruent/STIM_026.jpg	99
522.525	1.015	1015.1	incongruent	Block1	incongruent/STIM_026.jpg	100
527.078	0.601	601.4	incongruent	Block1	incongruent/STIM_026.jpg	99
530.312	1.023	1023.4	incongruent	Block1	incongruent/STIM_027.jpg	99
534.57	0.766	765.7	incongruent	Block1	incongruent/STIM_027.jpg	99
537.476	0.819	819.4	incongruent	Block1	incongruent/STIM_027.jpg	99
540.631	0.623	623.0	incongruent	Block1	incongruent/STIM_027.jpg	99
544.018	0.601	601.2	incongruent	Block1	incongruent/STIM_027.jpg	100
547.407	1.178	1178.1	incongruent	Block1	incongruent/STIM_028.jpg	99
550.834	1.145	1145.4	incongruent	Block1	incongruent/STIM_028.jpg	100
553.999	0.69	690.2	incongruent	Block1	incongruent/STIM_028.jpg	100
557.539	0.614	614.0	incongruent	Block1	incongruent/STIM_028.jpg	100
562.022	0.99	990.4	incongruent	Block1	incongruent/STIM_028.jpg	100
565.146	1.368	1367.7	incongruent	Block1	incongruent/STIM_029.jpg	99
569.364	0.671	670.9	incongruent	Block1	incongruent/STIM_029.jpg	99
572.946	0.799	798.6	incongruent	Block1	incongruent/STIM_029.jpg	99
576.461	0.627	627.3	incongruent	Block1	incongruent/STIM_029.jpg	100
580.656	0.552	551.5	incongruent	Block1	incongruent/STIM_029.jpg	100
585.033	0.787	786.9	congruent	Block1	congruent/STIM_000.jpg	100
589.787	0.647	647.3	congruent	Block1	congruent/STIM_000.jpg	99
593.14	0.498	497.6	congruent	Block1	congruent/STIM_000.jpg	100
596.077	0.516	515.6	congruent	Block1	congruent/STIM_000.jpg	100
598.938	0.462	462.2	congruent	Block1	congruent/STIM_000.jpg	100
602.834	0.817	817.1	congruent	Block1	congruent/STIM_001.jpg	99
606.809	0.652	651.6	congruent	Block1	congruent/STIM_001.jpg	99
610.011	0.48	479.8	congruent	Block1	congruent/STIM_001.jpg	99
613.132	0.492	492.4	congruent	Block1	congruent/STIM_001.jpg	100
616.864	0.663	663.3	congruent	Block1	congruent/STIM_001.jpg	99
620.807	0.555	555.1	congruent	Block1	congruent/STIM_002.jpg	99
623.721	0.728	728.3	congruent	Block1	congruent/STIM_002.jpg	99
626.767	0.5	499.5	congruent	Block1	congruent/STIM_002.jpg	99
629.654	0.471	470.8	congruent	Block1	congruent/STIM_002.jpg	99
633.662	0.614	613.6	congruent	Block1	congruent/STIM_002.jpg	100
637.741	0.728	728.2	congruent	Block1	congruent/STIM_003.jpg	100
642.292	0.767	767.4	congruent	Block1	congruent/STIM_003.jpg	99
646.828	0.524	523.5	congruent	Block1	congruent/STIM_003.jpg	100
650.541	0.465	464.7	congruent	Block1	congruent/STIM_003.jpg	99
654.303	0.804	804.1	congruent	Block1	congruent/STIM_003.jpg	100
658.462	0.63	629.9	congruent	Block1	congruent/STIM_004.jpg	99
662.24	0.707	706.7	congruent	Block1	congruent/STIM_004.jpg	99
666.623	0.712	712.2	congruent	Block1	congruent/STIM_004.jpg	99
670.469	0.629	628.6	congruent	Block1	congruent/STIM_004.jpg	100
674.629	0.677	676.6	congruent	Block1	congruent/STIM_004.jpg	99
677.361	0.633	633.1	congruent	Block1	congruent/STIM_005.jpg	100
681.948	0.574	573.7	congruent	Block1	congruent/STIM_005.jpg	100
684.781	0.738	738.1	congruent	Block1	congruent/STIM_005.jpg	99
689.175	0.609	608.9	congruent	Block1	congruent/STIM_005.jpg	99
693.429	0.797	797.2	congruent	Block1	congruent/STIM_005.jpg	99
696.954	0.63	629.6	congruent	Block1	congruent/STIM_006.jpg	99
699.804	0.668	667.9	congruent	Block1	congruent/STIM_006.jpg	100
703.291	0.6	599.6	congruent	Block1	congruent/STIM_006.jpg	99
707.629	0.636	635.8	congruent	Block1	congruent/STIM_006.jpg	100
712.03	0.558	557.9	congruent	Block1	congruent/STIM_006.jpg	100
714.663	0.665	665.2	congruent	Block1	congruent/STIM_007.jpg	100
719.118	0.806	805.7	congruent	Block1	congruent/STIM_007.jpg	99
723.579	0.794	793.7	congruent	Block1	congruent/STIM_007.jpg	100
727.852	0.789	789.2	congruent	Block1	congruent/STIM_007.jpg	100
731.398	0.748	748.1	congruent	Block1	congruent/STIM_007.jpg	99
735.428	0.654	654.5	congruent	Block1	congruent/STIM_008.jpg	99
738.803	0.482	481.8	congruent	Block1	congruent/STIM_008.jpg	99
741.732	0.479	478.8	congruent	Block1	congruent/STIM_008.jpg	99
744.291	0.719	718.9	congruent	Block1	congruent/STIM_008.jpg	100
748.966	0.632	631.7	congruent	Block1	congruent/STIM_008.jpg	99
753.315	0.685	685.0	congruent	Block1	congruent/STIM_009.jpg	100
756.593	0.63	630.0	congruent	Block1	congruent/STIM_009.jpg	100
760.514	0.728	727.6	congruent	Block1	congruent/STIM_009.jpg	100
764.46	0.46	460.0	congruent	Block1	congruent/STIM_009.jpg	99
767.121	0.8	799.9	congruent	Block1	congruent/STIM_009.jpg	99
770.083	0.612	612.1	congruent	Block1	congruent/STIM_010.jpg	99
772.945	0.767	766.6	congruent	Block1	congruent/STIM_010.jpg	100
775.94	0.597	597.4	congruent	Block1	congruent/STIM_010.jpg	100
779.607	0.524	524.4	congruent	Block1	congruent/STIM_010.jpg	99
783.614	0.739	739.1	congruent	Block1	congruent/STIM_010.jpg	100
787.954	0.811	811.0	congruent	Block1	congruent/STIM_011.jpg	100
791.598	0.766	766.2	congruent	Block1	congruent/STIM_011.jpg	100
794.832	0.701	700.9	congruent	Block1	congruent/STIM_011.jpg	99
798.096	0.696	695.8	congruent	Block1	congruent/STIM_011.jpg	100
801.581	0.663	663.2	congruent	Block1	congruent/STIM_011.jpg	100
806.166	0.575	575.0	congruent	Block1	congruent/STIM_012.jpg	99
810.712	0.488	488.3	congruent	Block1	congruent/STIM_012.jpg	100
813.56	0.699	698.6	congruent	Block1	congruent/STIM_012.jpg	99
816.451	0.597	596.9	congruent	Block1	congruent/STIM_012.jpg	100
819.536	0.629	628.9	congruent	Block1	congruent/STIM_012.jpg	99
823.171	0.541	540.9	congruent	Block1	congruent/STIM_013.jpg	100
827.54	0.807	806.6	congruent	Block1	congruent/STIM_013.jpg	100
830.611	0.691	691.1	congruent	Block1	congruent/STIM_013.jpg	100
834.631	0.538	537.5	congruent	Block1	congruent/STIM_013.jpg	99
837.169	0.764	764.1	congruent	Block1	congruent/STIM_013.jpg	100
841.643	0.47	470.3	congruent	Block1	congruent/STIM_014.jpg	100
844.64	0.637	636.6	congruent	Block1	congruent/STIM_014.jpg	99
848.178	0.516	515.5	congruent	Block1	congruent/STIM_014.jpg	99
852.06	0.641	640.7	congruent	Block1	congruent/STIM_014.jpg	100
856.16	0.787	786.7	congruent	Block1	congruent/STIM_014.jpg	99
859.241	0.796	796.3	congruent	Block1	congruent/STIM_015.jpg	100
862.285	0.621	620.9	congruent	Block1	congruent/STIM_015.jpg	99
866.024	0.595	595.3	congruent	Block1	congruent/STIM_015.jpg	99
870.127	0.759	759.3	congruent	Block1	congruent/STIM_015.jpg	100
873.88	0.668	667.9	congruent	Block1	congruent/STIM_015.jpg	99
876.678	0.632	632.4	congruent	Block1	congruent/STIM_016.jpg	99
879.993	0.778	777.5	congruent	Block1	congruent/STIM_016.jpg	99
884.32	0.814	813.5	congruent	Block1	congruent/STIM_016.jpg	100
888.118	0.653	653.2	congruent	Block1	congruent/STIM_016.jpg	100
891.982	0.626	625.8	congruent	Block1	congruent/STIM_016.jpg	99
896.242	0.574	574.1	congruent	Block1	congruent/STIM_017.jpg	100
899.494	0.594	593.7	congruent	Block1	congruent/STIM_017.jpg	99
903.237	0.619	619.1	congruent	Block1	congruent/STIM_017.jpg	100
907.225	0.468	468.5	congruent	Block1	congruent/STIM_017.jpg	99
911.024	0.633	633.1	congruent	Block1	congruent/STIM_017.jpg	100
914.449	0.654	654.3	congruent	Block1	congruent/STIM_018.jpg	99
918.202	0.568	568.5	congruent	Block1	congruent/STIM_018.jpg	100
921.752	0.526	525.8	congruent	Block1	congruent/STIM_018.jpg	99
925.942	0.614	614.2	congruent	Block1	congruent/STIM_018.jpg	99
929.147	0.585	585.2	congruent	Block1	congruent/STIM_018.jpg	99
931.869	0.716	716.5	congruent	Block1	congruent/STIM_019.jpg	99
934.801	0.63	630.3	congruent	Block1	congruent/STIM_019.jpg	99
939.014	0.724	724.4	congruent	Block1	congruent/STIM_019.jpg	99
943.063	0.518	518.5	congruent	Block1	congruent/STIM_019.jpg	100
946.102	0.497	496.9	congruent	Block1	congruent/STIM_019.jpg	100
949.425	0.814	814.4	congruent	Block1	congruent/STIM_020.jpg	99
953.941	0.532	531.9	congruent	Block1	congruent/STIM_020.jpg	100
957.831	0.687	686.6	congruent	Block1	congruent/STIM_020.jpg	99
960.783	0.634	634.2	congruent	Block1	congruent/STIM_020.jpg	100
964.262	0.597	597.3	congruent	Block1	congruent/STIM_020.jpg	100
967.646	0.686	685.9	congruent	Block1	congruent/STIM_021.jpg	100
972.218	0.608	608.0	congruent	Block1	congruent/STIM_021.jpg	100
976.109	0.704	704.2	congruent	Block1	congruent/STIM_021.jpg	99
980.249	0.616	615.8	congruent	Block1	congruent/STIM_021.jpg	100
983.227	0.796	795.6	congruent	Block1	congruent/STIM_021.jpg	100
986.976	0.797	797.0	congruent	Block1	congruent/STIM_022.jpg	100
991.081	0.508	508.2	congruent	Block1	congruent/STIM_022.jpg	100
994.58	0.551	550.9	congruent	Block1	congruent/STIM_022.jpg	100
998.907	0.551	550.8	congruent	Block1	congruent/STIM_022.jpg	100
1002.221	0.746	745.9	congruent	Block1	congruent/STIM_022.jpg	99
1005.642	0.815	815.0	congruent	Block1	congruent/STIM_023.jpg	99
1009.74	0.669	668.7	congruent	Block1	congruent/STIM_023.jpg	100
1012.49	0.663	663.0	congruent	Block1	congruent/STIM_023.jpg	99
1017.006	0.681	680.7	congruent	Block1	congruent/STIM_023.jpg	100
1019.74	0.527	526.9	congruent	Block1	congruent/STIM_023.jpg	99
1023.346	0.626	625.5	congruent	Block1	congruent/STIM_024.jpg	99
1027.917	0.495	495.4	congruent	Block1	congruent/STIM_024.jpg	99
1031.053	0.531	531.4	congruent	Block1	congruent/STIM_024.jpg	100
1035.556	0.785	784.8	congruent	Block1	congruent/STIM_024.jpg	100
1039.395	0.627	627.2	congruent	Block1	congruent/STIM_024.jpg	100
1043.89	0.746	745.6	congruent	Block1	congruent/STIM_025.jpg	99
1047.166	0.471	470.6	congruent	Block1	congruent/STIM_025.jpg	99
1051.279	0.476	475.6	congruent	Block1	congruent/STIM_025.jpg	99
1054.471	0.659	658.6	congruent	Block1	congruent/STIM_025.jpg	100
1057.664	0.616	615.7	congruent	Block1	congruent/STIM_025.jpg	99
1061.94	0.777	777.2	congruent	Block1	congruent/STIM_026.jpg	100
1066.37	0.599	599.4	congruent	Block1	congruent/STIM_026.jpg	100
1069.279	0.728	728.2	congruent	Block1	congruent/STIM_026.jpg	99
1073.39	0.474	473.5	congruent	Block1	congruent/STIM_026.jpg	99
1077.851	0.518	518.3	congruent	Block1	congruent/STIM_026.jpg	99
1080.878	0.555	554.9	congruent	Block1	congruent/STIM_027.jpg	99
1083.497	0.529	529.1	congruent	Block1	congruent/STIM_027.jpg	100
1087.121	0.638	637.5	congruent	Block1	congruent/STIM_027.jpg	99
1091.074	0.712	712.4	congruent	Block1	congruent/STIM_027.jpg	99
1095.687	0.62	619.6	congruent	Block1	congruent/STIM_027.jpg	99
1098.767	0.477	477.1	congruent	Block1	congruent/STIM_028.jpg	99
1102.992	0.554	553.6	congruent	Block1	congruent/STIM_028.jpg	99
1106.824	0.754	754.3	congruent	Block1	congruent/STIM_028.jpg	100
1111.053	0.627	627.3	congruent	Block1	congruent/STIM_028.jpg	100
1114.408	0.469	469.1	congruent	Block1	congruent/STIM_028.jpg	99
1117.509	0.698	698.1	congruent	Block1	congruent/STIM_029.jpg	99
1120.213	0.712	712.0	congruent	Block1	congruent/STIM_029.jpg	100
1123.868	0.706	705.7	congruent	Block1	congruent/STIM_029.jpg	100
1128.318	0.594	594.2	congruent	Block1	congruent/STIM_029.jpg	99
1131.649	0.511	510.9	congruent	Block1	congruent/STIM_029.jpg	100
1135.65	0.632	631.7	incongruent	Block2	incongruent/STIM_000.jpg	99
1140.127	0.715	715.1	incongruent	Block2	incongruent/STIM_000.jpg	99
1144.673	0.735	734.7	incongruent	Block2	incongruent/STIM_000.jpg	99
1148.49	0.878	878.5	incongruent	Block2	incongruent/STIM_000.jpg	99
1151.381	0.753	753.0	incongruent	Block2	incongruent/STIM_000.jpg	100
1154.929	0.608	608.2	incongruent	Block2	incongruent/STIM_001.jpg	99
1159.491	0.867	867.3	incongruent	Block2	incongruent/STIM_001.jpg	100
1163.73	0.665	665.2	incongruent	Block2	incongruent/STIM_001.jpg	99
1166.595	0.648	648.1	incongruent	Block2	incongruent/STIM_001.jpg	99
1170.8	0.74	740.0	incongruent	Block2	incongruent/STIM_001.jpg	100
1175.433	1.055	1055.1	incongruent	Block2	incongruent/STIM_002.jpg	100
1179.795	1.086	1086.5	incongruent	Block2	incongruent/STIM_002.jpg	100
1183.793	0.789	789.3	incongruent	Block2	incongruent/STIM_002.jpg	99
1188.21	0.9	900.2	incongruent	Block2	incongruent/STIM_002.jpg	99
1191.809	0.568	567.8	incongruent	Block2	incongruent/STIM_002.jpg	99
1194.829	0.608	608.2	incongruent	Block2	incongruent/STIM_003.jpg	100
1198.508	0.973	973.4	incongruent	Block2	incongruent/STIM_003.jpg	99
1201.792	0.734	734.5	incongruent	Block2	incongruent/STIM_003.jpg	100
1206.123	0.911	910.6	incongruent	Block2	incongruent/STIM_003.jpg	99
1209.505	0.94	940.2	incongruent	Block2	incongruent/STIM_003.jpg	99
1214.131	0.831	830.8	incongruent	Block2	incongruent/STIM_004.jpg	100
1218.449	0.88	880.5	incongruent	Block2	incongruent/STIM_004.jpg	99
1221.86	0.95	950.5	incongruent	Block2	incongruent/STIM_004.jpg	100
1225.283	0.539	539.1	incongruent	Block2	incongruent/STIM_004.jpg	100
1228.395	0.949	949.3	incongruent	Block2	incongruent/STIM_004.jpg	99
1231.728	0.639	639.2	incongruent	Block2	incongruent/STIM_005.jpg	99
1235.283	0.714	714.4	incongruent	Block2	incongruent/STIM_005.jpg	99
1238.037	0.832	831.5	incongruent	Block2	incongruent/STIM_005.jpg	99
1242.809	0.673	673.2	incongruent	Block2	incongruent/STIM_005.jpg	99
1245.78	0.928	928.0	incongruent	Block2	incongruent/STIM_005.jpg	100
1249.942	0.635	635.4	incongruent	Block2	incongruent/STIM_006.jpg	100
1253.556	0.847	846.9	incongruent	Block2	incongruent/STIM_006.jpg	100
1256.787	0.488	487.8	incongruent	Block2	incongruent/STIM_006.jpg	100
1260.206	0.873	872.8	incongruent	Block2	incongruent/STIM_006.jpg	99
1263.504	0.925	925.3	incongruent	Block2	incongruent/STIM_006.jpg	99
1266.562	0.946	946.5	incongruent	Block2	incongruent/STIM_007.jpg	100
1269.819	0.968	968.4	incongruent	Block2	incongruent/STIM_007.jpg	99
1274.374	0.59	589.5	incongruent	Block2	incongruent/STIM_007.jpg	100
1277.686	0.544	544.4	incongruent	Block2	incongruent/STIM_007.jpg	100
1281.407	0.916	915.8	incongruent	Block2	incongruent/STIM_007.jpg	99
1285.055	0.881	881.4	incongruent	Block2	incongruent/STIM_008.jpg	99
1288.977	0.994	993.9	incongruent	Block2	incongruent/STIM_008.jpg	99
1293.136	0.875	875.4	incongruent	Block2	incongruent/STIM_008.jpg	99
1296.509	0.557	557.1	incongruent	Block2	incongruent/STIM_008.jpg	100
1301.007	0.708	707.6	incongruent	Block2	incongruent/STIM_008.jpg	99
1305.507	1.123	1123.1	incongruent	Block2	incongruent/STIM_009.jpg	99
1308.698	0.726	726.4	incongruent	Block2	incongruent/STIM_009.jpg	100
1311.532	0.812	812.2	incongruent	Block2	incongruent/STIM_009.jpg	100
1315.123	0.934	933.9	incongruent	Block2	incongruent/STIM_009.jpg	100
1319.926	0.497	496.6	incongruent	Block2	incongruent/STIM_009.jpg	100
1323.579	0.946	945.6	incongruent	Block2	incongruent/STIM_010.jpg	99
1328.247	1.071	1070.8	incongruent	Block2	incongruent/STIM_010.jpg	99
1332.751	0.706	706.0	incongruent	Block2	incongruent/STIM_010.jpg	99
1336.544	0.522	522.0	incongruent	Block2	incongruent/STIM_010.jpg	99
1340.529	0.575	574.6	incongruent	Block2	incongruent/STIM_010.jpg	100
1344.4	0.94	939.7	incongruent	Block2	incongruent/STIM_011.jpg	99
1348.317	1.026	1025.8	incongruent	Block2	incongruent/STIM_011.jpg	100
1352.635	0.799	798.9	incongruent	Block2	incongruent/STIM_011.jpg	99
1355.821	0.598	598.5	incongruent	Block2	incongruent/STIM_011.jpg	99
1359.777	0.658	658.1	incongruent	Block2	incongruent/STIM_011.jpg	99
1362.734	0.98	980.2	incongruent	Block2	incongruent/STIM_012.jpg	100
1366.153	0.585	584.9	incongruent	Block2	incongruent/STIM_012.jpg	99
1368.986	0.607	607.2	incongruent	Block2	incongruent/STIM_012.jpg	99
1373.351	0.683	683.3	incongruent	Block2	incongruent/STIM_012.jpg	100
1376.98	0.481	480.6	incongruent	Block2	incongruent/STIM_012.jpg	100
1379.947	0.805	805.3	incongruent	Block2	incongruent/STIM_013.jpg	100
1384.437	0.687	687.4	incongruent	Block2	incongruent/STIM_013.jpg	100
1388.45	0.837	836.7	incongruent	Block2	incongruent/STIM_013.jpg	100
1393.079	0.705	704.9	incongruent	Block2	incongruent/STIM_013.jpg	99
1396.3	0.891	891.2	incongruent	Block2	incongruent/STIM_013.jpg	99
1400.97	0.622	621.7	incongruent	Block2	incongruent/STIM_014.jpg	99
1405.54	0.745	744.6	incongruent	Block2	incongruent/STIM_014.jpg	99
1408.585	0.676	676.5	incongruent	Block2	incongruent/STIM_014.jpg	100
1412.739	0.833	833.1	incongruent	Block2	incongruent/STIM_014.jpg	100
1415.808	0.584	583.9	incongruent	Block2	incongruent/STIM_014.jpg	99
1418.761	1.002	1001.9	incongruent	Block2	incongruent/STIM_015.jpg	99
1422.865	0.799	798.6	incongruent	Block2	incongruent/STIM_015.jpg	100
1426.236	0.572	571.9	incongruent	Block2	incongruent/STIM_015.jpg	99
1430.716	0.466	465.6	incongruent	Block2	incongruent/STIM_015.jpg	99
1433.367	0.892	891.5	incongruent	Block2	incongruent/STIM_015.jpg	99
1437.361	0.846	845.7	incongruent	Block2	incongruent/STIM_016.jpg	100
1440.689	0.852	851.6	incongruent	Block2	incongruent/STIM_016.jpg	99
1444.25	0.563	562.9	incongruent	Block2	incongruent/STIM_016.jpg	100
1447.502	0.898	897.9	incongruent	Block2	incongruent/STIM_016.jpg	99
1451.116	0.723	723.2	incongruent	Block2	incongruent/STIM_016.jpg	99
1453.94	0.924	923.8	incongruent	Block2	incongruent/STIM_017.jpg	100
1457.69	0.598	597.9	incongruent	Block2	incongruent/STIM_017.jpg	100
1462.003	0.597	597.2	incongruent	Block2	incongruent/STIM_017.jpg	100
1466.021	0.851	850.6	incongruent	Block2	incongruent/STIM_017.jpg	100
1470.17	0.864	864.0	incongruent	Block2	incongruent/STIM_017.jpg	100
1473.256	0.599	598.7	incongruent	Block2	incongruent/STIM_018.jpg	100
1477.455	0.947	947.0	incongruent	Block2	incongruent/STIM_018.jpg	99
1481.985	0.685	685.1	incongruent	Block2	incongruent/STIM_018.jpg	100
1486.251	0.737	737.1	incongruent	Block2	incongruent/STIM_018.jpg	100
1490.269	0.496	495.5	incongruent	Block2	incongruent/STIM_018.jpg	100
1494.559	1.049	1049.0	incongruent	Block2	incongruent/STIM_019.jpg	99
1499.515	1.086	1086.5	incongruent	Block2	incongruent/STIM_019.jpg	100
1504.504	0.624	624.5	incongruent	Block2	incongruent/STIM_019.jpg	99
1508.769	0.562	562.4	incongruent	Block2	incongruent/STIM_019.jpg	100
1512.295	0.836	836.1	incongruent	Block2	incongruent/STIM_019.jpg	99
1515.906	1.074	1074.1	incongruent	Block2	incongruent/STIM_020.jpg	99
1519.751	0.816	815.8	incongruent	Block2	incongruent/STIM_020.jpg	99
1523.374	0.673	672.8	incongruent	Block2	incongruent/STIM_020.jpg	99
1527.393	0.523	523.3	incongruent	Block2	incongruent/STIM_020.jpg	99
1530.84	0.669	669.2	incongruent	Block2	incongruent/STIM_020.jpg	100
1534.242	0.623	622.7	incongruent	Block2	incongruent/STIM_021.jpg	99
1538.128	0.595	595.1	incongruent	Block2	incongruent/STIM_021.jpg	100
1542.061	0.843	843.0	incongruent	Block2	incongruent/STIM_021.jpg	100
1546.457	0.94	940.4	incongruent	Block2	incongruent/STIM_021.jpg	100
1550.849	0.668	667.5	incongruent	Block2	incongruent/STIM_021.jpg	99
1553.727	1.142	1142.5	incongruent	Block2	incongruent/STIM_022.jpg	100
1558.462	0.599	599.0	incongruent	Block2	incongruent/STIM_022.jpg	100
1562.655	0.583	583.4	incongruent	Block2	incongruent/STIM_022.jpg	100
1566.672	0.926	926.2	incongruent	Block2	incongruent/STIM_022.jpg	99
1570.082	0.673	672.9	incongruent	Block2	incongruent/STIM_022.jpg	100
1574.108	1.107	1106.6	incongruent	Block2	incongruent/STIM_023.jpg	99
1578.637	0.6	600.3	incongruent	Block2	incongruent/STIM_023.jpg	100
1583.121	0.854	854.1	incongruent	Block2	incongruent/STIM_023.jpg	99
1587.653	0.886	885.9	incongruent	Block2	incongruent/STIM_023.jpg	100
1592.478	0.62	620.0	incongruent	Block2	incongruent/STIM_023.jpg	100
1596.533	0.953	952.7	incongruent	Block2	incongruent/STIM_024.jpg	99
1600.993	0.967	966.9	incongruent	Block2	incongruent/STIM_024.jpg	99
1605.756	0.533	532.9	incongruent	Block2	incongruent/STIM_024.jpg	99
1609.445	0.745	744.7	incongruent	Block2	incongruent/STIM_024.jpg	100
1612.6	0.916	916.1	incongruent	Block2	incongruent/STIM_024.jpg	99
1617.266	0.877	877.0	incongruent	Block2	incongruent/STIM_025.jpg	100
1620.365	1.021	1020.6	incongruent	Block2	incongruent/STIM_025.jpg	99
1623.397	0.633	632.8	incongruent	Block2	incongruent/STIM_025.jpg	100
1627.259	0.597	596.8	incongruent	Block2	incongruent/STIM_025.jpg	99
1630.486	0.767	767.2	incongruent	Block2	incongruent/STIM_025.jpg	100
1634.362	1.049	1048.7	incongruent	Block2	incongruent/STIM_026.jpg	99
1637.634	0.704	704.3	incongruent	Block2	incongruent/STIM_026.jpg	99
1642.029	0.665	665.2	incongruent	Block2	incongruent/STIM_026.jpg	99
1645.618	0.48	479.8	incongruent	Block2	incongruent/STIM_026.jpg	99
1648.44	0.727	727.4	incongruent	Block2	incongruent/STIM_026.jpg	99
1652.089	0.866	866.4	incongruent	Block2	incongruent/STIM_027.jpg	99
1656.834	0.73	729.8	incongruent	Block2	incongruent/STIM_027.jpg	100
1659.784	0.848	847.7	incongruent	Block2	incongruent/STIM_027.jpg	99
1662.649	0.511	511.3	incongruent	Block2	incongruent/STIM_027.jpg	100
1665.646	0.725	725.3	incongruent	Block2	incongruent/STIM_027.jpg	99
1669.896	0.676	676.3	incongruent	Block2	incongruent/STIM_028.jpg	99
1674.557	0.989	989.1	incongruent	Block2	incongruent/STIM_028.jpg	99
1677.959	0.86	859.6	incongruent	Block2	incongruent/STIM_028.jpg	99
1681.584	0.683	682.7	incongruent	Block2	incongruent/STIM_028.jpg	100
1685.789	0.462	462.0	incongruent	Block2	incongruent/STIM_028.jpg	99
1690.249	0.874	874.1	incongruent	Block2	incongruent/STIM_029.jpg	100
1694.775	0.926	926.1	incongruent	Block2	incongruent/STIM_029.jpg	100
1697.706	0.95	950.3	incongruent	Block2	incongruent/STIM_029.jpg	100
1701.446	0.604	603.7	incongruent	Block2	incongruent/STIM_029.jpg	99
1705.773	0.926	926.5	incongruent	Block2	incongruent/STIM_029.jpg	99
1710.136	0.722	721.6	congruent	Block2	congruent/STIM_000.jpg	100
1714.528	0.484	483.8	congruent	Block2	congruent/STIM_000.jpg	100
1717.841	0.592	591.9	congruent	Block2	congruent/STIM_000.jpg	100
1720.492	0.632	632.2	congruent	Block2	congruent/STIM_000.jpg	100
1724.952	0.541	541.3	congruent	Block2	congruent/STIM_000.jpg	100
1727.614	0.81	809.8	congruent	Block2	congruent/STIM_001.jpg	99
1732.409	0.508	507.7	congruent	Block2	congruent/STIM_001.jpg	100
1736.238	0.816	816.5	congruent	Block2	congruent/STIM_001.jpg	99
1739.424	0.491	490.7	congruent	Block2	congruent/STIM_001.jpg	99
1742.903	0.787	787.1	congruent	Block2	congruent/STIM_001.jpg	99
1747.33	0.579	578.6	congruent	Block2	congruent/STIM_002.jpg	99
1750.844	0.521	520.6	congruent	Block2	congruent/STIM_002.jpg	99
1753.398	0.492	492.3	congruent	Block2	congruent/STIM_002.jpg	99
1756.871	0.776	775.6	congruent	Block2	congruent/STIM_002.jpg	99
1761.558	0.491	491.3	congruent	Block2	congruent/STIM_002.jpg	100
1765.702	0.536	536.4	congruent	Block2	congruent/STIM_003.jpg	99
1769.382	0.672	672.0	congruent	Block2	congruent/STIM_003.jpg	99
1772.204	0.803	803.1	congruent	Block2	congruent/STIM_003.jpg	100
1775.931	0.482	482.3	congruent	Block2	congruent/STIM_003.jpg	99
1779.594	0.73	729.8	congruent	Block2	congruent/STIM_003.jpg	100
1783.987	0.573	572.9	congruent	Block2	congruent/STIM_004.jpg	99
1787.856	0.539	538.9	congruent	Block2	congruent/STIM_004.jpg	100
1790.461	0.779	778.7	congruent	Block2	congruent/STIM_004.jpg	99
1794.773	0.623	623.3	congruent	Block2	congruent/STIM_004.jpg	100
1798.905	0.465	464.9	congruent	Block2	congruent/STIM_004.jpg	99
1801.968	0.652	652.4	congruent	Block2	congruent/STIM_005.jpg	100
1805.26	0.658	657.5	congruent	Block2	congruent/STIM_005.jpg	99
1807.961	0.818	818.5	congruent	Block2	congruent/STIM_005.jpg	100
1811.252	0.498	497.7	congruent	Block2	congruent/STIM_005.jpg	99
1815.283	0.605	605.1	congruent	Block2	congruent/STIM_005.jpg	100
1817.911	0.793	793.2	congruent	Block2	congruent/STIM_006.jpg	100
1822.471	0.522	522.0	congruent	Block2	congruent/STIM_006.jpg	99
1825.157	0.718	717.6	congruent	Block2	congruent/STIM_006.jpg	100
1829.318	0.762	762.4	congruent	Block2	congruent/STIM_006.jpg	99
1832.323	0.506	506.2	congruent	Block2	congruent/STIM_006.jpg	100
1836.372	0.761	761.0	congruent	Block2	congruent/STIM_007.jpg	100
1840.534	0.768	767.7	congruent	Block2	congruent/STIM_007.jpg	99
1843.707	0.562	561.8	congruent	Block2	congruent/STIM_007.jpg	99
1847.25	0.821	820.7	congruent	Block2	congruent/STIM_007.jpg	100
1851.763	0.81	810.5	congruent	Block2	congruent/STIM_007.jpg	100
1854.823	0.764	764.2	congruent	Block2	congruent/STIM_008.jpg	99
1857.741	0.636	635.9	congruent	Block2	congruent/STIM_008.jpg	100
1862.13	0.75	749.6	congruent	Block2	congruent/STIM_008.jpg	100
1864.9	0.636	636.5	congruent	Block2	congruent/STIM_008.jpg	99
1869.467	0.788	788.2	congruent	Block2	congruent/STIM_008.jpg	99
1872.756	0.715	715.2	congruent	Block2	congruent/STIM_009.jpg	99
1876.242	0.566	565.6	congruent	Block2	congruent/STIM_009.jpg	99
1880.469	0.534	534.5	congruent	Block2	congruent/STIM_009.jpg	99
1884.101	0.79	789.5	congruent	Block2	congruent/STIM_009.jpg	100
1887.268	0.482	482.3	congruent	Block2	congruent/STIM_009.jpg	99
1890.469	0.562	562.2	congruent	Block2	congruent/STIM_010.jpg	100
1893.609	0.458	457.5	congruent	Block2	congruent/STIM_010.jpg	100
1896.93	0.49	489.8	congruent	Block2	congruent/STIM_010.jpg	99
1901.245	0.477	476.6	congruent	Block2	congruent/STIM_010.jpg	100
1905.317	0.464	464.2	congruent	Block2	congruent/STIM_010.jpg	99
1908.676	0.516	515.6	congruent	Block2	congruent/STIM_011.jpg	100
1912.465	0.764	764.3	congruent	Block2	congruent/STIM_011.jpg	100
1915.573	0.468	468.0	congruent	Block2	congruent/STIM_011.jpg	100
1919.551	0.483	483.0	congruent	Block2	congruent/STIM_011.jpg	100
1923.096	0.475	474.6	congruent	Block2	congruent/STIM_011.jpg	100
1927.508	0.773	773.2	congruent	Block2	congruent/STIM_012.jpg	99
1932.027	0.618	618.2	congruent	Block2	congruent/STIM_012.jpg	100
1936.481	0.592	591.6	congruent	Block2	congruent/STIM_012.jpg	100
1940.921	0.472	472.5	congruent	Block2	congruent/STIM_012.jpg	100
1944.98	0.526	525.9	congruent	Block2	congruent/STIM_012.jpg	99
1948.059	0.608	607.5	congruent	Block2	congruent/STIM_013.jpg	100
1951.194	0.751	750.6	congruent	Block2	congruent/STIM_013.jpg	100
1954.0	0.666	666.2	congruent	Block2	congruent/STIM_013.jpg	99
1957.053	0.562	562.0	congruent	Block2	congruent/STIM_013.jpg	99
1960.924	0.702	702.4	congruent	Block2	congruent/STIM_013.jpg	99
1963.862	0.618	618.3	congruent	Block2	congruent/STIM_014.jpg	100
1967.551	0.813	812.8	congruent	Block2	congruent/STIM_014.jpg	100
1971.225	0.53	529.7	congruent	Block2	congruent/STIM_014.jpg	100
1975.46	0.593	592.7	congruent	Block2	congruent/STIM_014.jpg	99
1978.742	0.771	771.3	congruent	Block2	congruent/STIM_014.jpg	100
1982.711	0.492	491.7	congruent	Block2	congruent/STIM_015.jpg	100
1987.017	0.59	589.9	congruent	Block2	congruent/STIM_015.jpg	99
1991.51	0.764	764.0	congruent	Block2	congruent/STIM_015.jpg	100
1995.734	0.704	703.6	congruent	Block2	congruent/STIM_015.jpg	99
1999.484	0.527	526.9	congruent	Block2	congruent/STIM_015.jpg	99
2003.253	0.588	587.7	congruent	Block2	congruent/STIM_016.jpg	100
2006.653	0.587	586.8	congruent	Block2	congruent/STIM_016.jpg	99
2010.636	0.698	697.5	congruent	Block2	congruent/STIM_016.jpg	99
2014.285	0.74	740.1	congruent	Block2	congruent/STIM_016.jpg	99
2018.48	0.689	689.4	congruent	Block2	congruent/STIM_016.jpg	99
2022.391	0.71	709.5	congruent	Block2	congruent/STIM_017.jpg	99
2026.959	0.608	608.0	congruent	Block2	congruent/STIM_017.jpg	100
2030.859	0.644	644.3	congruent	Block2	congruent/STIM_017.jpg	100
2034.447	0.542	542.3	congruent	Block2	congruent/STIM_017.jpg	100
2037.502	0.81	810.2	congruent	Block2	congruent/STIM_017.jpg	100
2042.142	0.517	517.1	congruent	Block2	congruent/STIM_018.jpg	100
2046.13	0.691	691.4	congruent	Block2	congruent/STIM_018.jpg	100
2049.879	0.462	462.1	congruent	Block2	congruent/STIM_018.jpg	99
2052.627	0.793	792.8	congruent	Block2	congruent/STIM_018.jpg	100
2057.035	0.516	515.9	congruent	Block2	congruent/STIM_018.jpg	99
2059.749	0.782	781.6	congruent	Block2	congruent/STIM_019.jpg	99
2062.604	0.646	645.5	congruent	Block2	congruent/STIM_019.jpg	100
2065.456	0.602	602.2	congruent	Block2	congruent/STIM_019.jpg	99
2068.823	0.526	525.7	congruent	Block2	congruent/STIM_019.jpg	99
2071.58	0.467	467.4	congruent	Block2	congruent/STIM_019.jpg	99
2075.357	0.771	770.7	congruent	Block2	congruent/STIM_020.jpg	99
2079.346	0.743	743.3	congruent	Block2	congruent/STIM_020.jpg	100
2083.86	0.536	535.5	congruent	Block2	congruent/STIM_020.jpg	100
2086.814	0.531	530.6	congruent	Block2	congruent/STIM_020.jpg	100
2090.953	0.792	792.1	congruent	Block2	congruent/STIM_020.jpg	99
2094.052	0.695	695.2	congruent	Block2	congruent/STIM_021.jpg	100
2097.044	0.57	570.3	congruent	Block2	congruent/STIM_021.jpg	100
2100.225	0.808	807.9	congruent	Block2	congruent/STIM_021.jpg	100
2104.948	0.528	527.5	congruent	Block2	congruent/STIM_021.jpg	99
2108.51	0.501	500.8	congruent	Block2	congruent/STIM_021.jpg	100
2111.608	0.667	666.7	congruent	Block2	congruent/STIM_022.jpg	100
2115.546	0.5	500.5	congruent	Block2	congruent/STIM_022.jpg	99
2118.28	0.765	765.4	congruent	Block2	congruent/STIM_022.jpg	99
2122.583	0.677	677.3	congruent	Block2	congruent/STIM_022.jpg	100
2125.52	0.561	560.6	congruent	Block2	congruent/STIM_022.jpg	99
2128.175	0.797	796.8	congruent	Block2	congruent/STIM_023.jpg	99
2132.337	0.723	722.6	congruent	Block2	congruent/STIM_023.jpg	100
2135.958	0.481	481.3	congruent	Block2	congruent/STIM_023.jpg	99
2138.58	0.65	650.2	congruent	Block2	congruent/STIM_023.jpg	100
2141.401	0.566	566.3	congruent	Block2	congruent/STIM_023.jpg	99
2144.03	0.737	736.6	congruent	Block2	congruent/STIM_024.jpg	100
2147.11	0.742	741.5	congruent	Block2	congruent/STIM_024.jpg	100
2150.384	0.538	537.5	congruent	Block2	congruent/STIM_024.jpg	100
2153.716	0.724	723.9	congruent	Block2	congruent/STIM_024.jpg	100
2158.353	0.778	778.1	congruent	Block2	congruent/STIM_024.jpg	100
2161.78	0.801	800.9	congruent	Block2	congruent/STIM_025.jpg	99
2166.356	0.784	784.5	congruent	Block2	congruent/STIM_025.jpg	99
2170.02	0.756	755.9	congruent	Block2	congruent/STIM_025.jpg	100
2174.127	0.636	636.0	congruent	Block2	congruent/STIM_025.jpg	99
2177.504	0.538	538.0	congruent	Block2	congruent/STIM_025.jpg	99
2181.11	0.563	562.9	congruent	Block2	congruent/STIM_026.jpg	100
2184.219	0.634	634.5	congruent	Block2	congruent/STIM_026.jpg	100
2187.78	0.506	506.2	congruent	Block2	congruent/STIM_026.jpg	99
2190.502	0.71	709.6	congruent	Block2	congruent/STIM_026.jpg	99
2194.09	0.649	648.8	congruent	Block2	congruent/STIM_026.jpg	99
2197.101	0.638	638.2	congruent	Block2	congruent/STIM_027.jpg	99
2199.904	0.643	643.3	congruent	Block2	congruent/STIM_027.jpg	100
2203.411	0.618	618.0	congruent	Block2	congruent/STIM_027.jpg	100
2206.929	0.59	589.7	congruent	Block2	congruent/STIM_027.jpg	99
2211.343	0.63	630.1	congruent	Block2	congruent/STIM_027.jpg	99
2214.141	0.504	504.4	congruent	Block2	congruent/STIM_028.jpg	100
2217.492	0.613	613.2	congruent	Block2	congruent/STIM_028.jpg	100
2221.308	0.465	465.4	congruent	Block2	congruent/STIM_028.jpg	100
2224.933	0.579	579.2	congruent	Block2	congruent/STIM_028.jpg	100
2228.909	0.576	576.2	congruent	Block2	congruent/STIM_028.jpg	99
2232.791	0.541	540.8	congruent	Block2	congruent/STIM_029.jpg	100
2237.292	0.644	644.1	congruent	Block2	congruent/STIM_029.jpg	99
2240.98	0.778	778.4	congruent	Block2	congruent/STIM_029.jpg	99
2243.79	0.669	669.0	congruent	Block2	congruent/STIM_029.jpg	100
2247.804	0.534	533.5	congruent	Block2	congruent/STIM_029.jpg	100
2251.593	0.466	465.7	incongruent	Block3	incongruent/STIM_000.jpg	99
2254.704	0.916	915.8	incongruent	Block3	incongruent/STIM_000.jpg	99
2259.296	0.75	749.8	incongruent	Block3	incongruent/STIM_000.jpg	100
2262.486	0.53	529.7	incongruent	Block3	incongruent/STIM_000.jpg	99
2265.727	0.51	509.7	incongruent	Block3	incongruent/STIM_000.jpg	99
2268.926	0.475	475.1	incongruent	Block3	incongruent/STIM_001.jpg	99
2271.805	0.578	578.0	incongruent	Block3	incongruent/STIM_001.jpg	100
2274.843	0.595	594.6	incongruent	Block3	incongruent/STIM_001.jpg	99
2277.878	0.453	453.3	incongruent	Block3	incongruent/STIM_001.jpg	100
2281.783	0.61	609.7	incongruent	Block3	incongruent/STIM_001.jpg	100
2285.379	0.95	950.3	incongruent	Block3	incongruent/STIM_002.jpg	100
2288.509	0.794	793.5	incongruent	Block3	incongruent/STIM_002.jpg	100
2292.527	0.944	943.9	incongruent	Block3	incongruent/STIM_002.jpg	99
2296.93	0.625	624.6	incongruent	Block3	incongruent/STIM_002.jpg	100
2301.309	0.504	504.4	incongruent	Block3	incongruent/STIM_002.jpg	100
2304.445	0.531	531.4	incongruent	Block3	incongruent/STIM_003.jpg	99
2307.357	0.815	814.6	incongruent	Block3	incongruent/STIM_003.jpg	100
2310.624	0.598	597.6	incongruent	Block3	incongruent/STIM_003.jpg	100
2314.247	0.733	732.7	incongruent	Block3	incongruent/STIM_003.jpg	99
2318.596	0.826	825.7	incongruent	Block3	incongruent/STIM_003.jpg	100
2322.572	0.901	900.9	incongruent	Block3	incongruent/STIM_004.jpg	99
2327.368	0.885	885.3	incongruent	Block3	incongruent/STIM_004.jpg	99
2331.591	0.791	790.6	incongruent	Block3	incongruent/STIM_004.jpg	99
2335.881	0.804	804.3	incongruent	Block3	incongruent/STIM_004.jpg	100
2340.179	0.667	667.3	incongruent	Block3	incongruent/STIM_004.jpg	99
2343.136	0.453	452.6	incongruent	Block3	incongruent/STIM_005.jpg	99
2346.824	0.952	951.8	incongruent	Block3	incongruent/STIM_005.jpg	99
2350.446	0.632	632.1	incongruent	Block3	incongruent/STIM_005.jpg	100
2354.542	0.846	846.4	incongruent	Block3	incongruent/STIM_005.jpg	100
2357.415	0.591	591.2	incongruent	Block3	incongruent/STIM_005.jpg	99
2360.574	0.758	757.7	incongruent	Block3	incongruent/STIM_006.jpg	100
2363.839	0.598	597.6	incongruent	Block3	incongruent/STIM_006.jpg	99
2367.162	0.93	929.7	incongruent	Block3	incongruent/STIM_006.jpg	100
2371.494	0.733	732.9	incongruent	Block3	incongruent/STIM_006.jpg	100
2375.441	0.85	850.4	incongruent	Block3	incongruent/STIM_006.jpg	100
2378.894	0.95	950.5	incongruent	Block3	incongruent/STIM_007.jpg	99
2383.356	0.73	730.3	incongruent	Block3	incongruent/STIM_007.jpg	99
2387.954	0.716	716.0	incongruent	Block3	incongruent/STIM_007.jpg	100
2391.114	0.714	714.2	incongruent	Block3	incongruent/STIM_007.jpg	99
2395.401	0.85	849.5	incongruent	Block3	incongruent/STIM_007.jpg	100
2398.966	0.708	708.3	incongruent	Block3	incongruent/STIM_008.jpg	99
2402.192	0.929	929.0	incongruent	Block3	incongruent/STIM_008.jpg	100
2406.112	0.844	844.5	incongruent	Block3	incongruent/STIM_008.jpg	99
2409.08	0.827	826.8	incongruent	Block3	incongruent/STIM_008.jpg	100
2413.254	0.713	712.8	incongruent	Block3	incongruent/STIM_008.jpg	99
2416.324	0.834	834.3	incongruent	Block3	incongruent/STIM_009.jpg	100
2420.164	0.447	447.1	incongruent	Block3	incongruent/STIM_009.jpg	99
2423.026	0.723	723.4	incongruent	Block3	incongruent/STIM_009.jpg	99
2425.918	0.818	818.0	incongruent	Block3	incongruent/STIM_009.jpg	100
2429.395	0.869	868.6	incongruent	Block3	incongruent/STIM_009.jpg	100
2433.118	0.684	683.7	incongruent	Block3	incongruent/STIM_010.jpg	100
2436.111	0.495	495.0	incongruent	Block3	incongruent/STIM_010.jpg	99
2438.77	0.904	903.5	incongruent	Block3	incongruent/STIM_010.jpg	99
2442.502	0.53	530.5	incongruent	Block3	incongruent/STIM_010.jpg	100
2445.381	0.709	708.8	incongruent	Block3	incongruent/STIM_010.jpg	100
2448.467	0.912	912.1	incongruent	Block3	incongruent/STIM_011.jpg	100
2452.033	0.476	475.8	incongruent	Block3	incongruent/STIM_011.jpg	100
2455.447	0.661	660.9	incongruent	Block3	incongruent/STIM_011.jpg	100
2458.387	0.623	622.6	incongruent	Block3	incongruent/STIM_011.jpg	100
2461.922	0.749	748.8	incongruent	Block3	incongruent/STIM_011.jpg	99
2465.858	0.776	776.1	incongruent	Block3	incongruent/STIM_012.jpg	100
2468.812	0.872	871.7	incongruent	Block3	incongruent/STIM_012.jpg	99
2472.3	0.483	483.4	incongruent	Block3	incongruent/STIM_012.jpg	99
2476.48	0.93	930.0	incongruent	Block3	incongruent/STIM_012.jpg	99
2481.119	0.943	943.1	incongruent	Block3	incongruent/STIM_012.jpg	99
2484.092	0.926	925.8	incongruent	Block3	incongruent/STIM_013.jpg	99
2488.723	0.819	818.8	incongruent	Block3	incongruent/STIM_013.jpg	100
2491.621	0.749	749.0	incongruent	Block3	incongruent/STIM_013.jpg	99
2495.655	0.799	798.6	incongruent	Block3	incongruent/STIM_013.jpg	99
2499.204	0.687	687.1	incongruent	Block3	incongruent/STIM_013.jpg	100
2502.28	0.611	611.0	incongruent	Block3	incongruent/STIM_014.jpg	100
2506.384	0.681	681.2	incongruent	Block3	incongruent/STIM_014.jpg	100
2509.59	0.772	771.9	incongruent	Block3	incongruent/STIM_014.jpg	100
2513.212	0.541	541.0	incongruent	Block3	incongruent/STIM_014.jpg	99
2516.025	0.677	677.2	incongruent	Block3	incongruent/STIM_014.jpg	99
2519.901	0.511	510.7	incongruent	Block3	incongruent/STIM_015.jpg	99
2522.784	0.87	870.1	incongruent	Block3	incongruent/STIM_015.jpg	99
2527.424	0.48	480.4	incongruent	Block3	incongruent/STIM_015.jpg	99
2530.19	0.895	894.9	incongruent	Block3	incongruent/STIM_015.jpg	100
2533.102	0.948	947.9	incongruent	Block3	incongruent/STIM_015.jpg	100
2536.893	0.735	735.1	incongruent	Block3	incongruent/STIM_016.jpg	99
2540.863	0.769	769.0	incongruent	Block3	incongruent/STIM_016.jpg	100
2545.422	0.818	817.7	incongruent	Block3	incongruent/STIM_016.jpg	99
2550.238	0.789	789.2	incongruent	Block3	incongruent/STIM_016.jpg	99
2553.099	0.951	950.8	incongruent	Block3	incongruent/STIM_016.jpg	99
2557.392	0.493	493.1	incongruent	Block3	incongruent/STIM_017.jpg	99
2561.733	0.667	667.4	incongruent	Block3	incongruent/STIM_017.jpg	100
2565.141	0.727	726.7	incongruent	Block3	incongruent/STIM_017.jpg	99
2569.575	0.483	483.2	incongruent	Block3	incongruent/STIM_017.jpg	100
2573.8	0.592	591.5	incongruent	Block3	incongruent/STIM_017.jpg	100
2577.028	0.665	664.7	incongruent	Block3	incongruent/STIM_018.jpg	99
2579.889	0.684	684.0	incongruent	Block3	incongruent/STIM_018.jpg	99
2584.133	0.512	512.1	incongruent	Block3	incongruent/STIM_018.jpg	99
2587.063	0.532	531.5	incongruent	Block3	incongruent/STIM_018.jpg	100
2589.753	0.491	490.6	incongruent	Block3	incongruent/STIM_018.jpg	99
2593.118	0.625	625.0	incongruent	Block3	incongruent/STIM_019.jpg	99
2596.273	0.832	831.5	incongruent	Block3	incongruent/STIM_019.jpg	100
2600.877	0.668	667.9	incongruent	Block3	incongruent/STIM_019.jpg	100
2604.42	0.945	945.1	incongruent	Block3	incongruent/STIM_019.jpg	99
2607.402	0.475	474.9	incongruent	Block3	incongruent/STIM_019.jpg	99
2610.81	0.712	711.7	incongruent	Block3	incongruent/STIM_020.jpg	99
2614.403	0.739	739.1	incongruent	Block3	incongruent/STIM_020.jpg	100
2617.452	0.922	921.9	incongruent	Block3	incongruent/STIM_020.jpg	100
2621.857	0.566	565.8	incongruent	Block3	incongruent/STIM_020.jpg	100
2625.261	0.951	951.1	incongruent	Block3	incongruent/STIM_020.jpg	99
2629.25	0.64	640.5	incongruent	Block3	incongruent/STIM_021.jpg	100
2633.449	0.58	579.7	incongruent	Block3	incongruent/STIM_021.jpg	100
2636.275	0.759	759.0	incongruent	Block3	incongruent/STIM_021.jpg	99
2639.974	0.685	684.7	incongruent	Block3	incongruent/STIM_021.jpg	100
2644.011	0.872	871.6	incongruent	Block3	incongruent/STIM_021.jpg	100
2648.23	0.952	952.4	incongruent	Block3	incongruent/STIM_022.jpg	99
2652.441	0.563	562.9	incongruent	Block3	incongruent/STIM_022.jpg	100
2655.122	0.708	708.4	incongruent	Block3	incongruent/STIM_022.jpg	99
2659.365	0.695	695.4	incongruent	Block3	incongruent/STIM_022.jpg	100
2662.141	0.49	490.1	incongruent	Block3	incongruent/STIM_022.jpg	99
2664.806	0.674	674.3	incongruent	Block3	incongruent/STIM_023.jpg	100
2669.092	0.908	908.3	incongruent	Block3	incongruent/STIM_023.jpg	99
2673.31	0.921	920.9	incongruent	Block3	incongruent/STIM_023.jpg	100
2676.792	0.473	472.7	incongruent	Block3	incongruent/STIM_023.jpg	99
2680.587	0.83	829.9	incongruent	Block3	incongruent/STIM_023.jpg	100
2684.83	0.92	920.5	incongruent	Block3	incongruent/STIM_024.jpg	100
2688.727	0.741	740.6	incongruent	Block3	incongruent/STIM_024.jpg	99
2692.083	0.698	698.2	incongruent	Block3	incongruent/STIM_024.jpg	100
2696.327	0.601	600.8	incongruent	Block3	incongruent/STIM_024.jpg	99
2699.175	0.452	452.5	incongruent	Block3	incongruent/STIM_024.jpg	99
2703.296	0.699	698.8	incongruent	Block3	incongruent/STIM_025.jpg	100
2706.85	0.555	554.8	incongruent	Block3	incongruent/STIM_025.jpg	99
2710.484	0.66	659.5	incongruent	Block3	incongruent/STIM_025.jpg	99
2713.299	0.591	590.8	incongruent	Block3	incongruent/STIM_025.jpg	100
2717.395	0.644	644.0	incongruent	Block3	incongruent/STIM_025.jpg	100
2721.794	0.55	550.4	incongruent	Block3	incongruent/STIM_026.jpg	100
2725.091	0.947	947.1	incongruent	Block3	incongruent/STIM_026.jpg	100
2729.019	0.843	843.4	incongruent	Block3	incongruent/STIM_026.jpg	100
2732.567	0.743	743.1	incongruent	Block3	incongruent/STIM_026.jpg	100
2736.075	0.744	744.3	incongruent	Block3	incongruent/STIM_026.jpg	100
2739.458	0.451	450.6	incongruent	Block3	incongruent/STIM_027.jpg	100
2743.014	0.648	648.0	incongruent	Block3	incongruent/STIM_027.jpg	99
2746.713	0.655	655.0	incongruent	Block3	incongruent/STIM_027.jpg	99
2750.039	0.915	914.7	incongruent	Block3	incongruent/STIM_027.jpg	99
2753.248	0.599	599.2	incongruent	Block3	incongruent/STIM_027.jpg	100
2757.646	0.759	758.9	incongruent	Block3	incongruent/STIM_028.jpg	99
2760.722	0.943	943.4	incongruent	Block3	incongruent/STIM_028.jpg	100
2763.866	0.805	804.7	incongruent	Block3	incongruent/STIM_028.jpg	100
2768.641	0.828	828.1	incongruent	Block3	incongruent/STIM_028.jpg	100
2773.129	0.785	784.7	incongruent	Block3	incongruent/STIM_028.jpg	100
2777.298	0.638	637.5	incongruent	Block3	incongruent/STIM_029.jpg	99
2780.609	0.574	573.8	incongruent	Block3	incongruent/STIM_029.jpg	99
2784.773	0.492	491.8	incongruent	Block3	incongruent/STIM_029.jpg	100
2788.82	0.9	899.5	incongruent	Block3	incongruent/STIM_029.jpg	100
2791.827	0.877	877.0	incongruent	Block3	incongruent/STIM_029.jpg	100
2796.701	0.6	599.6	congruent	Block3	congruent/STIM_000.jpg	99
2799.422	0.662	661.5	congruent	Block3	congruent/STIM_000.jpg	100
2803.424	0.495	494.8	congruent	Block3	congruent/STIM_000.jpg	99
2806.245	0.587	586.8	congruent	Block3	congruent/STIM_000.jpg	100
2808.875	0.706	706.5	congruent	Block3	congruent/STIM_000.jpg	100
2811.828	0.517	517.0	congruent	Block3	congruent/STIM_001.jpg	100
2814.745	0.785	784.9	congruent	Block3	congruent/STIM_001.jpg	99
2817.917	0.722	721.6	congruent	Block3	congruent/STIM_001.jpg	100
2822.559	0.543	543.2	congruent	Block3	congruent/STIM_001.jpg	99
2826.084	0.55	550.3	congruent	Block3	congruent/STIM_001.jpg	100
2830.153	0.71	709.7	congruent	Block3	congruent/STIM_002.jpg	99
2834.451	0.522	522.4	congruent	Block3	congruent/STIM_002.jpg	99
2837.489	0.687	686.6	congruent	Block3	congruent/STIM_002.jpg	99
2840.946	0.721	720.8	congruent	Block3	congruent/STIM_002.jpg	100
2845.565	0.712	712.4	congruent	Block3	congruent/STIM_002.jpg	100
2850.212	0.535	534.9	congruent	Block3	congruent/STIM_003.jpg	100
2853.043	0.802	802.4	congruent	Block3	congruent/STIM_003.jpg	99
2857.133	0.669	669.4	congruent	Block3	congruent/STIM_003.jpg	100
2860.226	0.576	575.9	congruent	Block3	congruent/STIM_003.jpg	99
2864.524	0.472	471.8	congruent	Block3	congruent/STIM_003.jpg	99
2868.1	0.643	643.4	congruent	Block3	congruent/STIM_004.jpg	99
2870.906	0.658	658.4	congruent	Block3	congruent/STIM_004.jpg	99
2873.748	0.672	672.1	congruent	Block3	congruent/STIM_004.jpg	100
2877.432	0.494	494.1	congruent	Block3	congruent/STIM_004.jpg	99
2880.174	0.638	637.8	congruent	Block3	congruent/STIM_004.jpg	99
2884.471	0.473	472.8	congruent	Block3	congruent/STIM_005.jpg	99
2887.375	0.531	530.8	congruent	Block3	congruent/STIM_005.jpg	99
2890.14	0.738	737.8	congruent	Block3	congruent/STIM_005.jpg	100
2894.056	0.655	654.6	congruent	Block3	congruent/STIM_005.jpg	99
2897.861	0.703	702.7	congruent	Block3	congruent/STIM_005.jpg	99
2902.273	0.58	579.7	congruent	Block3	congruent/STIM_006.jpg	100
2906.367	0.637	637.2	congruent	Block3	congruent/STIM_006.jpg	100
2910.57	0.494	493.9	congruent	Block3	congruent/STIM_006.jpg	99
2913.259	0.765	764.6	congruent	Block3	congruent/STIM_006.jpg	100
2917.966	0.785	784.8	congruent	Block3	congruent/STIM_006.jpg	99
2922.482	0.57	569.9	congruent	Block3	congruent/STIM_007.jpg	99
2926.104	0.8	799.8	congruent	Block3	congruent/STIM_007.jpg	99
2930.03	0.671	671.4	congruent	Block3	congruent/STIM_007.jpg	99
2933.082	0.783	782.8	congruent	Block3	congruent/STIM_007.jpg	99
2936.273	0.821	820.6	congruent	Block3	congruent/STIM_007.jpg	100
2939.119	0.604	604.3	congruent	Block3	congruent/STIM_008.jpg	99
2943.642	0.506	505.8	congruent	Block3	congruent/STIM_008.jpg	99
2946.325	0.672	671.9	congruent	Block3	congruent/STIM_008.jpg	99
2949.655	0.538	537.6	congruent	Block3	congruent/STIM_008.jpg	100
2953.034	0.457	457.0	congruent	Block3	congruent/STIM_008.jpg	100
2955.816	0.756	756.1	congruent	Block3	congruent/STIM_009.jpg	99
2959.743	0.76	760.0	congruent	Block3	congruent/STIM_009.jpg	100
2962.989	0.506	506.2	congruent	Block3	congruent/STIM_009.jpg	100
2966.035	0.461	460.9	congruent	Block3	congruent/STIM_009.jpg	99
2968.991	0.46	459.6	congruent	Block3	congruent/STIM_009.jpg	99
2971.578	0.642	642.5	congruent	Block3	congruent/STIM_010.jpg	100
2975.745	0.75	749.7	congruent	Block3	congruent/STIM_010.jpg	99
2978.911	0.748	748.1	congruent	Block3	congruent/STIM_010.jpg	99
2982.461	0.615	614.9	congruent	Block3	congruent/STIM_010.jpg	100
2986.908	0.643	643.3	congruent	Block3	congruent/STIM_010.jpg	100
2990.179	0.595	595.0	congruent	Block3	congruent/STIM_011.jpg	99
2994.615	0.76	760.2	congruent	Block3	congruent/STIM_011.jpg	99
2998.127	0.65	649.9	congruent	Block3	congruent/STIM_011.jpg	99
3002.482	0.65	649.5	congruent	Block3	congruent/STIM_011.jpg	99
3006.218	0.734	734.1	congruent	Block3	congruent/STIM_011.jpg	100
3009.92	0.755	754.9	congruent	Block3	congruent/STIM_012.jpg	100
3013.578	0.491	491.2	congruent	Block3	congruent/STIM_012.jpg	100
3017.559	0.707	706.6	congruent	Block3	congruent/STIM_012.jpg	99
3021.441	0.718	717.8	congruent	Block3	congruent/STIM_012.jpg	100
3025.312	0.794	794.3	congruent	Block3	congruent/STIM_012.jpg	99
3029.988	0.671	670.8	congruent	Block3	congruent/STIM_013.jpg	100
3032.753	0.511	511.0	congruent	Block3	congruent/STIM_013.jpg	100
3036.344	0.8	799.8	congruent	Block3	congruent/STIM_013.jpg	100
3039.949	0.575	575.1	congruent	Block3	congruent/STIM_013.jpg	99
3042.59	0.567	566.9	congruent	Block3	congruent/STIM_013.jpg	99
3045.976	0.516	515.5	congruent	Block3	congruent/STIM_014.jpg	99
3048.797	0.745	745.1	congruent	Block3	congruent/STIM_014.jpg	99
3052.62	0.771	771.3	congruent	Block3	congruent/STIM_014.jpg	100
3057.056	0.523	523.1	congruent	Block3	congruent/STIM_014.jpg	99
3061.44	0.737	737.4	congruent	Block3	congruent/STIM_014.jpg	100
3065.06	0.707	706.7	congruent	Block3	congruent/STIM_015.jpg	100
3069.484	0.555	554.6	congruent	Block3	congruent/STIM_015.jpg	100
3072.43	0.65	650.2	congruent	Block3	congruent/STIM_015.jpg	100
3075.759	0.704	704.2	congruent	Block3	congruent/STIM_015.jpg	100
3078.736	0.63	629.5	congruent	Block3	congruent/STIM_015.jpg	99
3083.341	0.496	496.3	congruent	Block3	congruent/STIM_016.jpg	100
3085.985	0.556	556.1	congruent	Block3	congruent/STIM_016.jpg	99
3090.387	0.758	757.9	congruent	Block3	congruent/STIM_016.jpg	99
3093.974	0.771	771.1	congruent	Block3	congruent/STIM_016.jpg	99
3097.049	0.472	471.5	congruent	Block3	congruent/STIM_016.jpg	99
3099.79	0.689	689.0	congruent	Block3	congruent/STIM_017.jpg	100
3103.502	0.778	777.8	congruent	Block3	congruent/STIM_017.jpg	100
3107.412	0.746	745.9	congruent	Block3	congruent/STIM_017.jpg	100
3110.967	0.526	525.6	congruent	Block3	congruent/STIM_017.jpg	99
3113.914	0.598	597.9	congruent	Block3	congruent/STIM_017.jpg	100
3117.429	0.656	656.2	congruent	Block3	congruent/STIM_018.jpg	100
3121.379	0.573	572.6	congruent	Block3	congruent/STIM_018.jpg	99
3124.801	0.652	652.0	congruent	Block3	congruent/STIM_018.jpg	100
3128.379	0.584	584.3	congruent	Block3	congruent/STIM_018.jpg	99
3132.769	0.513	512.7	congruent	Block3	congruent/STIM_018.jpg	99
3136.189	0.51	509.9	congruent	Block3	congruent/STIM_019.jpg	99
3138.757	0.631	630.9	congruent	Block3	congruent/STIM_019.jpg	100
3142.729	0.502	501.8	congruent	Block3	congruent/STIM_019.jpg	99
3145.528	0.612	611.9	congruent	Block3	congruent/STIM_019.jpg	99
3149.808	0.613	613.0	congruent	Block3	congruent/STIM_019.jpg	100
3153.294	0.672	671.5	congruent	Block3	congruent/STIM_020.jpg	100
3156.358	0.708	707.5	congruent	Block3	congruent/STIM_020.jpg	100
3159.75	0.81	809.9	congruent	Block3	congruent/STIM_020.jpg	99
3164.42	0.749	748.7	congruent	Block3	congruent/STIM_020.jpg	100
3168.714	0.623	622.8	congruent	Block3	congruent/STIM_020.jpg	100
3173.186	0.675	675.2	congruent	Block3	congruent/STIM_021.jpg	99
3176.388	0.701	700.8	congruent	Block3	congruent/STIM_021.jpg	99
3179.541	0.785	784.7	congruent	Block3	congruent/STIM_021.jpg	100
3182.564	0.789	788.8	congruent	Block3	congruent/STIM_021.jpg	99
3187.111	0.771	771.1	congruent	Block3	congruent/STIM_021.jpg	100
3190.962	0.777	776.7	congruent	Block3	congruent/STIM_022.jpg	100
3193.905	0.574	574.2	congruent	Block3	congruent/STIM_022.jpg	100
3196.976	0.622	622.5	congruent	Block3	congruent/STIM_022.jpg	99
3200.568	0.789	789.1	congruent	Block3	congruent/STIM_022.jpg	100
3204.727	0.696	695.9	congruent	Block3	congruent/STIM_022.jpg	100
3208.216	0.715	714.6	congruent	Block3	congruent/STIM_023.jpg	100
3210.962	0.549	548.9	congruent	Block3	congruent/STIM_023.jpg	99
3214.124	0.719	718.7	congruent	Block3	congruent/STIM_023.jpg	99
3218.021	0.546	545.5	congruent	Block3	congruent/STIM_023.jpg	99
3221.559	0.507	507.3	congruent	Block3	congruent/STIM_023.jpg	100
3225.22	0.656	655.5	congruent	Block3	congruent/STIM_024.jpg	99
3228.869	0.79	790.5	congruent	Block3	congruent/STIM_024.jpg	99
3232.088	0.709	709.0	congruent	Block3	congruent/STIM_024.jpg	99
3235.883	0.739	739.3	congruent	Block3	congruent/STIM_024.jpg	100
3240.453	0.71	710.1	congruent	Block3	congruent/STIM_024.jpg	99
3243.261	0.514	514.2	congruent	Block3	congruent/STIM_025.jpg	99
3245.882	0.764	764.2	congruent	Block3	congruent/STIM_025.jpg	100
3249.476	0.482	481.6	congruent	Block3	congruent/STIM_025.jpg	100
3252.606	0.723	722.6	congruent	Block3	congruent/STIM_025.jpg	100
3256.538	0.552	551.5	congruent	Block3	congruent/STIM_025.jpg	100
3260.057	0.538	537.9	congruent	Block3	congruent/STIM_026.jpg	99
3264.033	0.504	503.8	congruent	Block3	congruent/STIM_026.jpg	100
3267.567	0.543	543.1	congruent	Block3	congruent/STIM_026.jpg	99
3271.12	0.468	467.7	congruent	Block3	congruent/STIM_026.jpg	99
3275.006	0.533	533.4	congruent	Block3	congruent/STIM_026.jpg	100
3278.502	0.544	543.8	congruent	Block3	congruent/STIM_027.jpg	99
3281.385	0.616	616.2	congruent	Block3	congruent/STIM_027.jpg	99
3284.958	0.688	688.3	congruent	Block3	congruent/STIM_027.jpg	100
3289.171	0.529	529.0	congruent	Block3	congruent/STIM_027.jpg	100
3292.44	0.539	538.6	congruent	Block3	congruent/STIM_027.jpg	100
3295.612	0.577	576.8	congruent	Block3	congruent/STIM_028.jpg	100
3298.279	0.588	588.2	congruent	Block3	congruent/STIM_028.jpg	100
3301.531	0.718	718.4	congruent	Block3	congruent/STIM_028.jpg	100
3305.623	0.665	665.0	congruent	Block3	congruent/STIM_028.jpg	100
3309.919	0.649	649.3	congruent	Block3	congruent/STIM_028.jpg	99
3313.147	0.591	591.3	congruent	Block3	congruent/STIM_029.jpg	99
3317.499	0.792	792.1	congruent	Block3	congruent/STIM_029.jpg	99
3322.117	0.54	540.4	congruent	Block3	congruent/STIM_029.jpg	99
3326.213	0.629	628.7	congruent	Block3	congruent/STIM_029.jpg	100
3329.625	0.502	501.9	congruent	Block3	congruent/STIM_029.jpg	100
