onset	duration	response_time_ms	trial_type	learning_stage	stimulus	response_port
0.0	1.206	1205.6	incongruent	Block1	incongruent/STIM_000.jpg	99
3.346	0.679	678.7	incongruent	Block1	incongruent/STIM_000.jpg	99
7.038	0.817	817.4	incongruent	Block1	incongruent/STIM_000.jpg	99
10.481	0.858	858.3	incongruent	Block1	incongruent/STIM_000.jpg	100
15.057	0.944	944.5	incongruent	Block1	incongruent/STIM_000.jpg	100
19.72	0.814	814.3	incongruent	Block1	incongruent/STIM_001.jpg	99
22.868	1.114	1113.7	incongruent	Block1	incongruent/STIM_001.jpg	100
26.233	0.652	651.9	incongruent	Block1	incongruent/STIM_001.jpg	100
29.967	1.14	1140.3	incongruent	Block1	incongruent/STIM_001.jpg	100
33.87	1.048	1047.7	incongruent	Block1	incongruent/STIM_001.jpg	99
37.695	1.163	1162.6	incongruent	Block1	incongruent/STIM_002.jpg	99
42.68	1.089	1089.0	incongruent	Block1	incongruent/STIM_002.jpg	100
46.034	0.734	734.0	incongruent	Block1	incongruent/STIM_002.jpg	99
50.709	1.025	1024.9	incongruent	Block1	incongruent/STIM_002.jpg	100
54.036	0.96	959.9	incongruent	Block1	incongruent/STIM_002.jpg	100
58.533	0.95	950.2	incongruent	Block1	incongruent/STIM_003.jpg	99
61.616	0.842	842.1	incongruent	Block1	incongruent/STIM_003.jpg	99
64.459	1.007	1007.2	incongruent	Block1	incongruent/STIM_003.jpg	99
69.036	0.969	968.7	incongruent	Block1	incongruent/STIM_003.jpg	99
72.58	0.57	569.8	incongruent	Block1	incongruent/STIM_003.jpg	100
76.195	0.872	872.2	incongruent	Block1	incongruent/STIM_004.jpg	99
80.8	0.703	702.6	incongruent	Block1	incongruent/STIM_004.jpg	100
85.235	1.199	1198.7	incongruent	Block1	incongruent/STIM_004.jpg	99
89.269	1.215	1215.0	incongruent	Block1	incongruent/STIM_004.jpg	100
93.244	1.013	1012.6	incongruent	Block1	incongruent/STIM_004.jpg	100
98.118	0.842	841.7	incongruent	Block1	incongruent/STIM_005.jpg	99
101.247	1.159	1158.7	incongruent	Block1	incongruent/STIM_005.jpg	99
105.785	0.656	656.4	incongruent	Block1	incongruent/STIM_005.jpg	99
108.745	1.1	1099.5	incongruent	Block1	incongruent/STIM_005.jpg	100
112.886	0.751	750.8	incongruent	Block1	incongruent/STIM_005.jpg	100
116.488	0.839	839.3	incongruent	Block1	incongruent/STIM_006.jpg	100
121.176	1.056	1056.1	incongruent	Block1	incongruent/STIM_006.jpg	100
125.028	1.084	1083.6	incongruent	Block1	incongruent/STIM_006.jpg	99
128.88	0.85	850.5	incongruent	Block1	incongruent/STIM_006.jpg	99
133.384	1.156	1156.0	incongruent	Block1	incongruent/STIM_006.jpg	99
137.317	0.887	887.2	incongruent	Block1	incongruent/STIM_007.jpg	100
142.134	1.226	1226.5	incongruent	Block1	incongruent/STIM_007.jpg	99
145.503	0.991	991.1	incongruent	Block1	incongruent/STIM_007.jpg	99
148.518	0.888	887.8	incongruent	Block1	incongruent/STIM_007.jpg	100
153.505	0.78	779.9	incongruent	Block1	incongruent/STIM_007.jpg	99
157.932	0.784	783.6	incongruent	Block1	incongruent/STIM_008.jpg	100
162.746	0.654	653.5	incongruent	Block1	incongruent/STIM_008.jpg	100
166.51	0.964	964.1	incongruent	Block1	incongruent/STIM_008.jpg	100
169.727	0.611	610.9	incongruent	Block1	incongruent/STIM_008.jpg	99
174.014	1.097	1096.8	incongruent	Block1	incongruent/STIM_008.jpg	100
178.023	0.939	939.2	incongruent	Block1	incongruent/STIM_009.jpg	99
182.172	0.958	958.2	incongruent	Block1	incongruent/STIM_009.jpg	100
185.87	0.758	758.4	incongruent	Block1	incongruent/STIM_009.jpg	99
189.675	1.056	1055.9	incongruent	Block1	incongruent/STIM_009.jpg	99
193.624	0.74	739.9	incongruent	Block1	incongruent/STIM_009.jpg	100
197.744	0.862	861.6	incongruent	Block1	incongruent/STIM_010.jpg	100
202.04	0.749	749.2	incongruent	Block1	incongruent/STIM_010.jpg	99
206.316	0.865	865.2	incongruent	Block1	incongruent/STIM_010.jpg	99
209.713	0.572	572.3	incongruent	Block1	incongruent/STIM_010.jpg	100
213.365	0.623	623.3	incongruent	Block1	incongruent/STIM_010.jpg	100
216.485	0.779	779.1	incongruent	Block1	incongruent/STIM_011.jpg	99
220.128	1.296	1296.3	incongruent	Block1	incongruent/STIM_011.jpg	99
225.493	0.94	940.5	incongruent	Block1	incongruent/STIM_011.jpg	100
229.442	1.005	1004.8	incongruent	Block1	incongruent/STIM_011.jpg	100
234.305	0.659	658.8	incongruent	Block1	incongruent/STIM_011.jpg	99
238.644	0.707	706.9	incongruent	Block1	incongruent/STIM_012.jpg	99
243.015	1.112	1112.5	incongruent	Block1	incongruent/STIM_012.jpg	99
246.741	1.063	1063.4	incongruent	Block1	incongruent/STIM_012.jpg	100
250.553	1.147	1146.6	incongruent	Block1	incongruent/STIM_012.jpg	99
254.827	0.749	749.0	incongruent	Block1	incongruent/STIM_012.jpg	100
258.627	0.827	827.2	incongruent	Block1	incongruent/STIM_013.jpg	100
262.368	1.074	1074.2	incongruent	Block1	incongruent/STIM_013.jpg	100
267.327	1.069	1069.4	incongruent	Block1	incongruent/STIM_013.jpg	99
271.501	0.643	643.0	incongruent	Block1	incongruent/STIM_013.jpg	100
275.317	0.631	631.4	incongruent	Block1	incongruent/STIM_013.jpg	99
279.528	1.34	1340.1	incongruent	Block1	incongruent/STIM_014.jpg	99
283.728	1.3	1300.0	incongruent	Block1	incongruent/STIM_014.jpg	99
288.204	0.957	956.7	incongruent	Block1	incongruent/STIM_014.jpg	99
292.362	0.726	726.4	incongruent	Block1	incongruent/STIM_014.jpg	99
296.732	0.767	766.7	incongruent	Block1	incongruent/STIM_014.jpg	99
300.265	0.995	994.6	incongruent	Block1	incongruent/STIM_015.jpg	99
303.426	0.923	923.4	incongruent	Block1	incongruent/STIM_015.jpg	99
307.092	1.279	1278.6	incongruent	Block1	incongruent/STIM_015.jpg	99
311.199	1.09	1090.3	incongruent	Block1	incongruent/STIM_015.jpg	99
315.704	0.579	578.7	incongruent	Block1	incongruent/STIM_015.jpg	100
319.073	1.152	1151.7	incongruent	Block1	incongruent/STIM_016.jpg	99
322.948	1.12	1120.3	incongruent	Block1	incongruent/STIM_016.jpg	99
326.629	1.103	1103.3	incongruent	Block1	incongruent/STIM_016.jpg	100
330.616	0.827	827.3	incongruent	Block1	incongruent/STIM_016.jpg	100
333.94	0.868	867.5	incongruent	Block1	incongruent/STIM_016.jpg	99
337.999	1.23	1229.5	incongruent	Block1	incongruent/STIM_017.jpg	99
341.944	0.736	735.6	incongruent	Block1	incongruent/STIM_017.jpg	100
345.298	1.075	1074.8	incongruent	Block1	incongruent/STIM_017.jpg	100
349.549	0.778	777.8	incongruent	Block1	incongruent/STIM_017.jpg	99
354.175	1.007	1007.3	incongruent	Block1	incongruent/STIM_017.jpg	99
358.462	0.888	887.7	incongruent	Block1	incongruent/STIM_018.jpg	99
362.686	0.799	798.8	incongruent	Block1	incongruent/STIM_018.jpg	100
365.612	1.243	1243.4	incongruent	Block1	incongruent/STIM_018.jpg	99
370.293	1.136	1135.6	incongruent	Block1	incongruent/STIM_018.jpg	100
375.44	0.85	850.2	incongruent	Block1	incongruent/STIM_018.jpg	100
379.198	0.943	943.0	incongruent	Block1	incongruent/STIM_019.jpg	100
383.362	0.73	730.1	incongruent	Block1	incongruent/STIM_019.jpg	99
387.329	1.027	1026.9	incongruent	Block1	incongruent/STIM_019.jpg	99
391.309	0.985	985.2	incongruent	Block1	incongruent/STIM_019.jpg	100
395.801	1.144	1143.6	incongruent	Block1	incongruent/STIM_019.jpg	99
400.357	1.004	1003.8	incongruent	Block1	incongruent/STIM_020.jpg	100
404.079	0.841	841.3	incongruent	Block1	incongruent/STIM_020.jpg	100
407.971	1.008	1008.5	incongruent	Block1	incongruent/STIM_020.jpg	100
411.826	0.644	644.1	incongruent	Block1	incongruent/STIM_020.jpg	100
415.25	1.043	1043.4	incongruent	Block1	incongruent/STIM_020.jpg	100
419.879	0.912	912.3	incongruent	Block1	incongruent/STIM_021.jpg	99
424.166	1.049	1048.6	incongruent	Block1	incongruent/STIM_021.jpg	99
428.421	0.802	801.9	incongruent	Block1	incongruent/STIM_021.jpg	99
431.839	1.005	1004.9	incongruent	Block1	incongruent/STIM_021.jpg	100
435.702	0.613	612.9	incongruent	Block1	incongruent/STIM_021.jpg	100
439.347	1.004	1004.3	incongruent	Block1	incongruent/STIM_022.jpg	100
442.929	1.137	1137.3	incongruent	Block1	incongruent/STIM_022.jpg	99
447.506	0.958	958.4	incongruent	Block1	incongruent/STIM_022.jpg	99
452.406	0.861	861.2	incongruent	Block1	incongruent/STIM_022.jpg	100
456.366	0.945	944.7	incongruent	Block1	incongruent/STIM_022.jpg	99
460.462	0.853	853.1	incongruent	Block1	incongruent/STIM_023.jpg	99
464.374	1.322	1322.2	incongruent	Block1	incongruent/STIM_023.jpg	100
469.258	0.784	783.7	incongruent	Block1	incongruent/STIM_023.jpg	99
473.064	0.818	818.0	incongruent	Block1	incongruent/STIM_023.jpg	99
477.408	0.993	992.9	incongruent	Block1	incongruent/STIM_023.jpg	100
481.123	1.314	1313.6	incongruent	Block1	incongruent/STIM_024.jpg	100
485.726	1.074	1074.2	incongruent	Block1	incongruent/STIM_024.jpg	100
490.144	1.059	1059.2	incongruent	Block1	incongruent/STIM_024.jpg	100
495.17	1.06	1060.4	incongruent	Block1	incongruent/STIM_024.jpg	99
498.916	0.954	954.2	incongruent	Block1	incongruent/STIM_024.jpg	100
502.676	1.056	1055.8	incongruent	Block1	incongruent/STIM_025.jpg	100
506.519	0.877	876.9	incongruent	Block1	incongruent/STIM_025.jpg	100
510.195	0.916	915.7	incongruent	Block1	incongruent/STIM_025.jpg	99
514.316	0.691	691.3	incongruent	Block1	incongruent/STIM_025.jpg	99
518.937	0.534	534.0	incongruent	Block1	incongruent/STIM_025.jpg	100
523.064	1.311	1310.6	incongruent	Block1	incongruent/STIM_026.jpg	99
526.576	1.015	1015.2	incongruent	Block1	incongruent/STIM_026.jpg	99
531.469	1.065	1064.9	incongruent	Block1	incongruent/STIM_026.jpg	99
536.525	1.093	1092.6	incongruent	Block1	incongruent/STIM_026.jpg	100
540.317	1.054	1053.6	incongruent	Block1	incongruent/STIM_026.jpg	99
544.534	1.11	1110.1	incongruent	Block1	incongruent/STIM_027.jpg	99
549.42	0.896	896.0	incongruent	Block1	incongruent/STIM_027.jpg	99
552.983	1.014	1013.6	incongruent	Block1	incongruent/STIM_027.jpg	99
557.48	0.737	737.4	incongruent	Block1	incongruent/STIM_027.jpg	99
561.384	0.801	800.9	incongruent	Block1	incongruent/STIM_027.jpg	100
565.988	1.339	1338.6	incongruent	Block1	incongruent/STIM_028.jpg	99
571.312	0.914	913.5	incongruent	Block1	incongruent/STIM_028.jpg	100
574.765	0.573	572.6	incongruent	Block1	incongruent/STIM_028.jpg	100
578.107	0.961	960.6	incongruent	Block1	incongruent/STIM_028.jpg	100
581.383	0.536	535.7	incongruent	Block1	incongruent/STIM_028.jpg	100
585.469	1.3	1299.8	incongruent	Block1	incongruent/STIM_029.jpg	99
589.287	0.706	706.2	incongruent	Block1	incongruent/STIM_029.jpg	99
592.363	0.742	742.0	incongruent	Block1	incongruent/STIM_029.jpg	99
596.548	0.744	744.4	incongruent	Block1	incongruent/STIM_029.jpg	100
600.705	0.603	603.4	incongruent	Block1	incongruent/STIM_029.jpg	100
605.279	0.691	691.2	congruent	Block1	congruent/STIM_000.jpg	100
608.68	0.58	580.5	congruent	Block1	congruent/STIM_000.jpg	99
612.697	0.469	469.2	congruent	Block1	congruent/STIM_000.jpg	100
616.302	0.709	709.1	congruent	Block1	congruent/STIM_000.jpg	100
620.061	0.77	769.7	congruent	Block1	congruent/STIM_000.jpg	100
623.98	0.707	707.2	congruent	Block1	congruent/STIM_001.jpg	99
627.527	0.762	762.2	congruent	Block1	congruent/STIM_001.jpg	99
631.032	0.646	646.2	congruent	Block1	congruent/STIM_001.jpg	99
635.508	0.845	845.0	congruent	Block1	congruent/STIM_001.jpg	100
639.769	0.802	802.0	congruent	Block1	congruent/STIM_001.jpg	99
644.203	0.875	875.1	congruent	Block1	congruent/STIM_002.jpg	99
647.269	0.498	498.4	congruent	Block1	congruent/STIM_002.jpg	99
651.403	0.536	536.1	congruent	Block1	congruent/STIM_002.jpg	99
655.384	0.724	724.3	congruent	Block1	congruent/STIM_002.jpg	99
658.292	0.667	666.8	congruent	Block1	congruent/STIM_002.jpg	100
662.86	0.637	636.9	congruent	Block1	congruent/STIM_003.jpg	100
666.461	0.697	697.1	congruent	Block1	congruent/STIM_003.jpg	99
669.838	0.696	696.0	congruent	Block1	congruent/STIM_003.jpg	100
672.813	0.712	712.1	congruent	Block1	congruent/STIM_003.jpg	99
675.861	0.618	618.2	congruent	Block1	congruent/STIM_003.jpg	100
678.877	0.716	716.3	congruent	Block1	congruent/STIM_004.jpg	99
683.188	0.65	650.1	congruent	Block1	congruent/STIM_004.jpg	99
687.683	0.819	819.4	congruent	Block1	congruent/STIM_004.jpg	99
692.496	0.471	471.0	congruent	Block1	congruent/STIM_004.jpg	100
695.697	0.869	869.4	congruent	Block1	congruent/STIM_004.jpg	99
700.213	0.786	786.3	congruent	Block1	congruent/STIM_005.jpg	100
704.701	0.575	575.0	congruent	Block1	congruent/STIM_005.jpg	100
708.527	0.531	531.2	congruent	Block1	congruent/STIM_005.jpg	99
711.138	0.78	780.0	congruent	Block1	congruent/STIM_005.jpg	99
715.84	0.68	680.0	congruent	Block1	congruent/STIM_005.jpg	99
720.441	0.423	423.2	congruent	Block1	congruent/STIM_006.jpg	99
724.096	0.829	828.8	congruent	Block1	congruent/STIM_006.jpg	100
727.319	0.538	537.8	congruent	Block1	congruent/STIM_006.jpg	99
731.643	0.706	706.4	congruent	Block1	congruent/STIM_006.jpg	100
736.198	0.67	670.4	congruent	Block1	congruent/STIM_006.jpg	100
739.875	0.653	653.3	congruent	Block1	congruent/STIM_007.jpg	100
743.915	0.628	628.5	congruent	Block1	congruent/STIM_007.jpg	99
748.001	0.408	408.4	congruent	Block1	congruent/STIM_007.jpg	100
752.157	0.665	665.4	congruent	Block1	congruent/STIM_007.jpg	100
756.568	0.589	588.8	congruent	Block1	congruent/STIM_007.jpg	99
759.929	0.721	720.6	congruent	Block1	congruent/STIM_008.jpg	99
764.458	0.58	580.3	congruent	Block1	congruent/STIM_008.jpg	99
768.721	0.81	809.5	congruent	Block1	congruent/STIM_008.jpg	99
772.5	0.74	739.6	congruent	Block1	congruent/STIM_008.jpg	100
775.371	0.631	631.3	congruent	Block1	congruent/STIM_008.jpg	99
779.214	0.645	645.4	congruent	Block1	congruent/STIM_009.jpg	100
782.737	0.666	666.4	congruent	Block1	congruent/STIM_009.jpg	100
785.779	0.638	637.6	congruent	Block1	congruent/STIM_009.jpg	100
789.405	0.553	553.1	congruent	Block1	congruent/STIM_009.jpg	99
792.096	0.606	606.5	congruent	Block1	congruent/STIM_009.jpg	99
796.165	0.682	682.1	congruent	Block1	congruent/STIM_010.jpg	99
799.833	0.658	658.5	congruent	Block1	congruent/STIM_010.jpg	100
804.156	0.92	919.5	congruent	Block1	congruent/STIM_010.jpg	100
808.916	0.727	726.7	congruent	Block1	congruent/STIM_010.jpg	99
811.744	0.65	650.2	congruent	Block1	congruent/STIM_010.jpg	100
815.73	0.536	536.2	congruent	Block1	congruent/STIM_011.jpg	100
819.826	0.654	654.0	congruent	Block1	congruent/STIM_011.jpg	100
823.594	0.409	409.3	congruent	Block1	congruent/STIM_011.jpg	99
826.178	0.602	602.1	congruent	Block1	congruent/STIM_011.jpg	100
828.856	0.891	890.8	congruent	Block1	congruent/STIM_011.jpg	100
832.444	0.816	815.5	congruent	Block1	congruent/STIM_012.jpg	99
836.14	0.757	757.3	congruent	Block1	congruent/STIM_012.jpg	100
840.15	0.703	703.3	congruent	Block1	congruent/STIM_012.jpg	99
843.908	0.546	546.3	congruent	Block1	congruent/STIM_012.jpg	100
847.673	0.515	515.1	congruent	Block1	congruent/STIM_012.jpg	99
852.069	0.724	723.6	congruent	Block1	congruent/STIM_013.jpg	100
855.809	0.572	571.6	congruent	Block1	congruent/STIM_013.jpg	100
858.867	0.863	862.6	congruent	Block1	congruent/STIM_013.jpg	100
861.802	0.781	780.8	congruent	Block1	congruent/STIM_013.jpg	99
865.413	0.433	433.1	congruent	Block1	congruent/STIM_013.jpg	100
869.21	0.58	580.0	congruent	Block1	congruent/STIM_014.jpg	100
872.233	0.598	597.5	congruent	Block1	congruent/STIM_014.jpg	99
876.091	0.598	597.7	congruent	Block1	congruent/STIM_014.jpg	99
878.816	0.844	844.3	congruent	Block1	congruent/STIM_014.jpg	100
881.944	0.602	602.1	congruent	Block1	congruent/STIM_014.jpg	99
885.91	0.529	529.4	congruent	Block1	congruent/STIM_015.jpg	100
888.791	0.638	637.9	congruent	Block1	congruent/STIM_015.jpg	99
892.512	0.594	594.1	congruent	Block1	congruent/STIM_015.jpg	99
895.215	0.698	698.3	congruent	Block1	congruent/STIM_015.jpg	100
899.094	0.655	654.9	congruent	Block1	congruent/STIM_015.jpg	99
902.212	0.643	642.6	congruent	Block1	congruent/STIM_016.jpg	99
905.166	0.652	652.0	congruent	Block1	congruent/STIM_016.jpg	99
908.528	0.562	561.7	congruent	Block1	congruent/STIM_016.jpg	100
913.048	0.836	835.9	congruent	Block1	congruent/STIM_016.jpg	100
917.058	0.882	881.8	congruent	Block1	congruent/STIM_016.jpg	99
921.083	0.671	671.1	congruent	Block1	congruent/STIM_017.jpg	100
925.503	0.616	615.8	congruent	Block1	congruent/STIM_017.jpg	99
928.753	0.733	733.4	congruent	Block1	congruent/STIM_017.jpg	100
931.985	0.738	738.1	congruent	Block1	congruent/STIM_017.jpg	99
935.689	0.855	854.8	congruent	Block1	congruent/STIM_017.jpg	100
940.184	0.677	677.2	congruent	Block1	congruent/STIM_018.jpg	99
944.295	0.573	572.7	congruent	Block1	congruent/STIM_018.jpg	100
948.847	0.731	730.8	congruent	Block1	congruent/STIM_018.jpg	99
953.101	0.515	515.1	congruent	Block1	congruent/STIM_018.jpg	99
957.125	0.769	768.8	congruent	Block1	congruent/STIM_018.jpg	99
961.276	0.69	689.8	congruent	Block1	congruent/STIM_019.jpg	99
965.014	0.844	844.0	congruent	Block1	congruent/STIM_019.jpg	99
968.993	0.486	486.5	congruent	Block1	congruent/STIM_019.jpg	99
972.213	0.878	877.9	congruent	Block1	congruent/STIM_019.jpg	100
976.977	0.807	807.3	congruent	Block1	congruent/STIM_019.jpg	100
981.803	0.808	808.1	congruent	Block1	congruent/STIM_020.jpg	99
986.429	0.643	642.6	congruent	Block1	congruent/STIM_020.jpg	100
989.796	0.745	745.3	congruent	Block1	congruent/STIM_020.jpg	99
993.635	0.565	565.1	congruent	Block1	congruent/STIM_020.jpg	100
998.118	0.649	649.2	congruent	Block1	congruent/STIM_020.jpg	100
1002.175	0.831	831.2	congruent	Block1	congruent/STIM_021.jpg	100
1006.6	0.603	603.2	congruent	Block1	congruent/STIM_021.jpg	100
1010.3	0.623	623.3	congruent	Block1	congruent/STIM_021.jpg	99
1014.173	0.542	542.4	congruent	Block1	congruent/STIM_021.jpg	100
1018.334	0.521	521.4	congruent	Block1	congruent/STIM_021.jpg	100
1022.487	0.586	586.5	congruent	Block1	congruent/STIM_022.jpg	100
1026.38	0.788	787.7	congruent	Block1	congruent/STIM_022.jpg	100
1030.596	0.874	873.9	congruent	Block1	congruent/STIM_022.jpg	100
1035.419	0.713	712.6	congruent	Block1	congruent/STIM_022.jpg	100
1038.537	0.749	748.6	congruent	Block1	congruent/STIM_022.jpg	99
1042.215	0.749	749.3	congruent	Block1	congruent/STIM_023.jpg	99
1046.272	0.793	792.9	congruent	Block1	congruent/STIM_023.jpg	100
1049.305	0.561	560.6	congruent	Block1	congruent/STIM_023.jpg	99
1053.459	0.535	534.7	congruent	Block1	congruent/STIM_023.jpg	100
1057.653	0.627	627.2	congruent	Block1	congruent/STIM_023.jpg	99
1062.041	0.791	791.4	congruent	Block1	congruent/STIM_024.jpg	99
1065.554	0.711	711.4	congruent	Block1	congruent/STIM_024.jpg	99
1069.025	0.703	703.4	congruent	Block1	congruent/STIM_024.jpg	100
1071.885	0.884	883.8	congruent	Block1	congruent/STIM_024.jpg	100
1076.03	0.793	792.6	congruent	Block1	congruent/STIM_024.jpg	100
1079.881	0.676	676.1	congruent	Block1	congruent/STIM_025.jpg	99
1083.821	0.727	726.8	congruent	Block1	congruent/STIM_025.jpg	99
1087.71	0.581	580.9	congruent	Block1	congruent/STIM_025.jpg	99
1091.649	0.88	880.2	congruent	Block1	congruent/STIM_025.jpg	100
1096.269	0.559	558.8	congruent	Block1	congruent/STIM_025.jpg	99
1100.543	0.68	680.5	congruent	Block1	congruent/STIM_026.jpg	100
1104.793	0.538	538.5	congruent	Block1	congruent/STIM_026.jpg	100
1109.015	0.662	661.6	congruent	Block1	congruent/STIM_026.jpg	99
1113.271	0.559	558.8	congruent	Block1	congruent/STIM_026.jpg	99
1116.112	0.836	835.9	congruent	Block1	congruent/STIM_026.jpg	99
1119.194	0.818	817.5	congruent	Block1	congruent/STIM_027.jpg	99
1122.381	0.741	740.7	congruent	Block1	congruent/STIM_027.jpg	100
1127.164	0.455	454.8	congruent	Block1	congruent/STIM_027.jpg	99
1130.688	0.693	693.2	congruent	Block1	congruent/STIM_027.jpg	99
1133.658	0.535	535.3	congruent	Block1	congruent/STIM_027.jpg	99
1137.638	0.442	442.0	congruent	Block1	congruent/STIM_028.jpg	99
1140.624	0.828	828.5	congruent	Block1	congruent/STIM_028.jpg	99
1143.535	0.686	685.7	congruent	Block1	congruent/STIM_028.jpg	100
1147.195	0.474	474.2	congruent	Block1	congruent/STIM_028.jpg	100
1151.698	0.811	811.3	congruent	Block1	congruent/STIM_028.jpg	99
1156.302	0.804	803.9	congruent	Block1	congruent/STIM_029.jpg	99
1160.499	0.586	586.2	congruent	Block1	congruent/STIM_029.jpg	100
1164.0	0.966	965.6	congruent	Block1	congruent/STIM_029.jpg	100
1168.544	0.549	548.7	congruent	Block1	congruent/STIM_029.jpg	99
1172.46	0.694	693.9	congruent	Block1	congruent/STIM_029.jpg	100
1175.916	1.266	1266.2	incongruent	Block2	incongruent/STIM_000.jpg	99
1179.467	1.104	1103.8	incongruent	Block2	incongruent/STIM_000.jpg	99
1182.7	0.996	996.3	incongruent	Block2	incongruent/STIM_000.jpg	99
1186.097	0.518	517.7	incongruent	Block2	incongruent/STIM_000.jpg	99
1190.166	0.903	902.6	incongruent	Block2	incongruent/STIM_000.jpg	100
1194.993	0.696	696.5	incongruent	Block2	incongruent/STIM_001.jpg	99
1199.504	1.15	1149.8	incongruent	Block2	incongruent/STIM_001.jpg	100
1204.328	0.892	892.3	incongruent	Block2	incongruent/STIM_001.jpg	99
1208.302	0.591	591.2	incongruent	Block2	incongruent/STIM_001.jpg	99
1211.989	0.64	640.2	incongruent	Block2	incongruent/STIM_001.jpg	100
1215.935	0.853	852.9	incongruent	Block2	incongruent/STIM_002.jpg	100
1220.456	0.732	732.1	incongruent	Block2	incongruent/STIM_002.jpg	100
1223.624	1.018	1017.9	incongruent	Block2	incongruent/STIM_002.jpg	99
1227.011	0.87	870.5	incongruent	Block2	incongruent/STIM_002.jpg	99
1230.254	1.047	1046.7	incongruent	Block2	incongruent/STIM_002.jpg	99
1233.842	1.058	1057.7	incongruent	Block2	incongruent/STIM_003.jpg	100
1237.357	0.561	560.9	incongruent	Block2	incongruent/STIM_003.jpg	99
1240.747	0.934	933.7	incongruent	Block2	incongruent/STIM_003.jpg	100
1245.293	0.797	796.9	incongruent	Block2	incongruent/STIM_003.jpg	99
1249.258	0.596	595.5	incongruent	Block2	incongruent/STIM_003.jpg	99
1253.2	0.777	777.2	incongruent	Block2	incongruent/STIM_004.jpg	100
1256.733	0.662	661.7	incongruent	Block2	incongruent/STIM_004.jpg	99
1261.31	0.814	814.4	incongruent	Block2	incongruent/STIM_004.jpg	100
1265.575	0.879	879.4	incongruent	Block2	incongruent/STIM_004.jpg	100
1270.343	0.848	848.3	incongruent	Block2	incongruent/STIM_004.jpg	99
1273.52	0.637	637.2	incongruent	Block2	incongruent/STIM_005.jpg	99
1276.654	1.108	1108.5	incongruent	Block2	incongruent/STIM_005.jpg	99
1280.811	0.872	872.3	incongruent	Block2	incongruent/STIM_005.jpg	99
1285.363	1.056	1056.3	incongruent	Block2	incongruent/STIM_005.jpg	99
1288.629	0.647	647.1	incongruent	Block2	incongruent/STIM_005.jpg	100
1292.611	0.853	853.0	incongruent	Block2	incongruent/STIM_006.jpg	100
1297.158	0.51	510.2	incongruent	Block2	incongruent/STIM_006.jpg	100
1300.495	0.754	754.3	incongruent	Block2	incongruent/STIM_006.jpg	100
1304.873	0.566	566.2	incongruent	Block2	incongruent/STIM_006.jpg	99
1309.028	0.723	723.4	incongruent	Block2	incongruent/STIM_006.jpg	99
1312.336	0.632	631.5	incongruent	Block2	incongruent/STIM_007.jpg	100
1315.334	0.911	911.0	incongruent	Block2	incongruent/STIM_007.jpg	99
1320.016	0.697	697.1	incongruent	Block2	incongruent/STIM_007.jpg	100
1324.163	0.934	934.0	incongruent	Block2	incongruent/STIM_007.jpg	100
1327.86	0.74	739.6	incongruent	Block2	incongruent/STIM_007.jpg	99
1331.326	1.255	1254.8	incongruent	Block2	incongruent/STIM_008.jpg	99
1335.543	0.634	633.6	incongruent	Block2	incongruent/STIM_008.jpg	99
1338.657	0.914	914.5	incongruent	Block2	incongruent/STIM_008.jpg	99
1342.378	0.808	808.1	incongruent	Block2	incongruent/STIM_008.jpg	100
1347.144	0.56	560.0	incongruent	Block2	incongruent/STIM_008.jpg	99
1349.972	0.848	848.0	incongruent	Block2	incongruent/STIM_009.jpg	99
1353.638	1.167	1166.6	incongruent	Block2	incongruent/STIM_009.jpg	100
1357.954	0.547	547.2	incongruent	Block2	incongruent/STIM_009.jpg	100
1361.628	0.921	921.3	incongruent	Block2	incongruent/STIM_009.jpg	100
1365.114	0.928	928.4	incongruent	Block2	incongruent/STIM_009.jpg	100
1368.81	0.771	770.9	incongruent	Block2	incongruent/STIM_010.jpg	99
1371.618	0.715	715.2	incongruent	Block2	incongruent/STIM_010.jpg	99
1376.001	0.677	676.6	incongruent	Block2	incongruent/STIM_010.jpg	99
1378.833	0.84	840.0	incongruent	Block2	incongruent/STIM_010.jpg	99
1382.705	0.812	812.3	incongruent	Block2	incongruent/STIM_010.jpg	100
1387.48	0.862	862.2	incongruent	Block2	incongruent/STIM_011.jpg	99
1391.521	1.022	1022.3	incongruent	Block2	incongruent/STIM_011.jpg	100
1395.325	0.534	534.5	incongruent	Block2	incongruent/STIM_011.jpg	99
1399.734	0.655	654.9	incongruent	Block2	incongruent/STIM_011.jpg	99
1403.139	0.47	470.2	incongruent	Block2	incongruent/STIM_011.jpg	99
1406.877	1.127	1127.1	incongruent	Block2	incongruent/STIM_012.jpg	100
1410.293	0.745	745.0	incongruent	Block2	incongruent/STIM_012.jpg	99
1414.547	0.621	621.1	incongruent	Block2	incongruent/STIM_012.jpg	99
1418.162	1.012	1012.5	incongruent	Block2	incongruent/STIM_012.jpg	100
1421.615	0.871	871.0	incongruent	Block2	incongruent/STIM_012.jpg	100
1425.222	1.095	1095.4	incongruent	Block2	incongruent/STIM_013.jpg	100
1428.646	0.647	647.2	incongruent	Block2	incongruent/STIM_013.jpg	100
1433.107	0.783	783.2	incongruent	Block2	incongruent/STIM_013.jpg	100
1436.758	0.707	707.2	incongruent	Block2	incongruent/STIM_013.jpg	99
1441.112	0.98	979.8	incongruent	Block2	incongruent/STIM_013.jpg	99
1445.75	0.68	680.1	incongruent	Block2	incongruent/STIM_014.jpg	99
1449.265	0.53	529.8	incongruent	Block2	incongruent/STIM_014.jpg	99
1452.521	0.818	817.6	incongruent	Block2	incongruent/STIM_014.jpg	100
1455.973	0.689	689.4	incongruent	Block2	incongruent/STIM_014.jpg	100
1459.819	0.598	597.7	incongruent	Block2	incongruent/STIM_014.jpg	99
1463.48	0.733	733.1	incongruent	Block2	incongruent/STIM_015.jpg	99
1467.728	0.846	846.5	incongruent	Block2	incongruent/STIM_015.jpg	100
1471.532	0.791	791.4	incongruent	Block2	incongruent/STIM_015.jpg	99
1474.588	1.051	1051.1	incongruent	Block2	incongruent/STIM_015.jpg	99
1479.61	0.766	765.7	incongruent	Block2	incongruent/STIM_015.jpg	99
1484.296	0.852	852.1	incongruent	Block2	incongruent/STIM_016.jpg	100
1488.632	0.819	818.8	incongruent	Block2	incongruent/STIM_016.jpg	99
1492.338	1.029	1028.9	incongruent	Block2	incongruent/STIM_016.jpg	100
1495.987	0.747	747.2	incongruent	Block2	incongruent/STIM_016.jpg	99
1499.792	0.635	635.4	incongruent	Block2	incongruent/STIM_016.jpg	99
1502.79	0.953	953.1	incongruent	Block2	incongruent/STIM_017.jpg	100
1506.26	0.552	552.5	incongruent	Block2	incongruent/STIM_017.jpg	100
1509.146	0.672	671.6	incongruent	Block2	incongruent/STIM_017.jpg	100
1513.272	0.83	829.9	incongruent	Block2	incongruent/STIM_017.jpg	100
1516.931	0.644	644.1	incongruent	Block2	incongruent/STIM_017.jpg	100
1520.337	0.872	872.0	incongruent	Block2	incongruent/STIM_018.jpg	100
1524.006	0.748	748.2	incongruent	Block2	incongruent/STIM_018.jpg	99
1527.647	0.59	589.6	incongruent	Block2	incongruent/STIM_018.jpg	100
1530.356	0.627	626.8	incongruent	Block2	incongruent/STIM_018.jpg	100
1534.607	0.732	731.8	incongruent	Block2	incongruent/STIM_018.jpg	100
1538.639	0.872	872.5	incongruent	Block2	incongruent/STIM_019.jpg	99
1542.714	1.039	1039.4	incongruent	Block2	incongruent/STIM_019.jpg	100
1546.519	1.078	1078.0	incongruent	Block2	incongruent/STIM_019.jpg	99
1550.877	0.718	718.3	incongruent	Block2	incongruent/STIM_019.jpg	100
1553.87	0.998	997.6	incongruent	Block2	incongruent/STIM_019.jpg	99
1557.573	1.223	1223.1	incongruent	Block2	incongruent/STIM_020.jpg	99
1562.765	1.004	1004.2	incongruent	Block2	incongruent/STIM_020.jpg	99
1566.959	1.006	1005.6	incongruent	Block2	incongruent/STIM_020.jpg	99
1571.262	0.556	556.0	incongruent	Block2	incongruent/STIM_020.jpg	99
1575.204	0.639	638.9	incongruent	Block2	incongruent/STIM_020.jpg	100
1578.443	0.681	681.1	incongruent	Block2	incongruent/STIM_021.jpg	99
1581.273	0.639	639.3	incongruent	Block2	incongruent/STIM_021.jpg	100
1585.689	0.841	841.4	incongruent	Block2	incongruent/STIM_021.jpg	100
1589.559	0.998	998.5	incongruent	Block2	incongruent/STIM_021.jpg	100
1594.128	0.816	815.8	incongruent	Block2	incongruent/STIM_021.jpg	99
1597.092	1.015	1015.1	incongruent	Block2	incongruent/STIM_022.jpg	100
1601.047	0.636	636.1	incongruent	Block2	incongruent/STIM_022.jpg	100
1603.943	0.828	828.4	incongruent	Block2	incongruent/STIM_022.jpg	100
1606.987	0.613	613.2	incongruent	Block2	incongruent/STIM_022.jpg	99
1611.558	0.497	496.8	incongruent	Block2	incongruent/STIM_022.jpg	100
1614.398	0.803	803.1	incongruent	Block2	incongruent/STIM_023.jpg	99
1617.772	0.755	755.0	incongruent	Block2	incongruent/STIM_023.jpg	100
1621.981	0.575	575.0	incongruent	Block2	incongruent/STIM_023.jpg	99
1626.513	0.715	715.3	incongruent	Block2	incongruent/STIM_023.jpg	100
1630.304	0.844	844.5	incongruent	Block2	incongruent/STIM_023.jpg	100
1633.557	1.067	1066.9	incongruent	Block2	incongruent/STIM_024.jpg	99
1637.529	0.857	857.1	incongruent	Block2	incongruent/STIM_024.jpg	99
1641.541	0.74	739.8	incongruent	Block2	incongruent/STIM_024.jpg	99
1644.685	0.862	862.2	incongruent	Block2	incongruent/STIM_024.jpg	100
1648.018	0.736	735.9	incongruent	Block2	incongruent/STIM_024.jpg	99
1652.506	1.164	1163.5	incongruent	Block2	incongruent/STIM_025.jpg	100
1656.304	0.873	872.7	incongruent	Block2	incongruent/STIM_025.jpg	99
1660.283	0.944	944.4	incongruent	Block2	incongruent/STIM_025.jpg	100
1664.645	0.585	584.7	incongruent	Block2	incongruent/STIM_025.jpg	99
1667.74	1.004	1003.5	incongruent	Block2	incongruent/STIM_025.jpg	100
1671.335	0.726	725.6	incongruent	Block2	incongruent/STIM_026.jpg	99
1674.804	1.102	1102.1	incongruent	Block2	incongruent/STIM_026.jpg	99
1678.277	0.714	714.5	incongruent	Block2	incongruent/STIM_026.jpg	99
1682.65	0.675	675.0	incongruent	Block2	incongruent/STIM_026.jpg	99
1685.967	0.676	675.5	incongruent	Block2	incongruent/STIM_026.jpg	99
1690.698	0.441	440.7	incongruent	Block2	incongruent/STIM_027.jpg	99
1695.208	0.836	836.1	incongruent	Block2	incongruent/STIM_027.jpg	100
1699.177	0.896	896.5	incongruent	Block2	incongruent/STIM_027.jpg	99
1703.219	0.617	616.8	incongruent	Block2	incongruent/STIM_027.jpg	100
1706.482	0.947	946.9	incongruent	Block2	incongruent/STIM_027.jpg	99
1711.415	0.618	618.0	incongruent	Block2	incongruent/STIM_028.jpg	99
1714.463	0.928	927.7	incongruent	Block2	incongruent/STIM_028.jpg	99
1718.753	0.707	707.0	incongruent	Block2	incongruent/STIM_028.jpg	99
1722.777	0.645	645.4	incongruent	Block2	incongruent/STIM_028.jpg	100
1726.038	0.791	791.3	incongruent	Block2	incongruent/STIM_028.jpg	99
1729.481	0.992	992.2	incongruent	Block2	incongruent/STIM_029.jpg	100
1734.099	0.751	751.3	incongruent	Block2	incongruent/STIM_029.jpg	100
1738.526	1.04	1040.3	incongruent	Block2	incongruent/STIM_029.jpg	100
1742.539	0.763	763.4	incongruent	Block2	incongruent/STIM_029.jpg	99
1747.095	1.048	1047.8	incongruent	Block2	incongruent/STIM_029.jpg	99
1751.173	0.524	523.8	congruent	Block2	congruent/STIM_000.jpg	100
1754.672	0.506	506.3	congruent	Block2	congruent/STIM_000.jpg	100
1758.703	0.77	770.5	congruent	Block2	congruent/STIM_000.jpg	100
1762.701	0.795	794.9	congruent	Block2	congruent/STIM_000.jpg	100
1767.38	0.689	688.6	congruent	Block2	congruent/STIM_000.jpg	100
1770.475	0.856	856.2	congruent	Block2	congruent/STIM_001.jpg	99
1773.798	0.689	689.1	congruent	Block2	congruent/STIM_001.jpg	100
1778.274	0.656	656.3	congruent	Block2	congruent/STIM_001.jpg	99
1782.565	0.636	635.7	congruent	Block2	congruent/STIM_001.jpg	99
1785.748	0.844	843.7	congruent	Block2	congruent/STIM_001.jpg	99
1790.62	0.664	664.1	congruent	Block2	congruent/STIM_002.jpg	99
1793.545	0.684	683.8	congruent	Block2	congruent/STIM_002.jpg	99
1796.875	0.765	764.9	congruent	Block2	congruent/STIM_002.jpg	99
1800.39	0.808	808.1	congruent	Block2	congruent/STIM_002.jpg	99
1805.088	0.731	731.1	congruent	Block2	congruent/STIM_002.jpg	100
1808.018	0.64	640.2	congruent	Block2	congruent/STIM_003.jpg	99
1811.247	0.558	557.9	congruent	Block2	congruent/STIM_003.jpg	99
1813.88	0.711	710.8	congruent	Block2	congruent/STIM_003.jpg	100
1818.246	0.692	692.5	congruent	Block2	congruent/STIM_003.jpg	99
1822.687	0.731	731.0	congruent	Block2	congruent/STIM_003.jpg	100
1827.216	0.693	693.4	congruent	Block2	congruent/STIM_004.jpg	99
1831.804	0.903	903.4	congruent	Block2	congruent/STIM_004.jpg	100
1836.661	0.606	605.8	congruent	Block2	congruent/STIM_004.jpg	99
1839.581	0.682	682.4	congruent	Block2	congruent/STIM_004.jpg	100
1842.393	0.725	725.2	congruent	Block2	congruent/STIM_004.jpg	99
1846.653	0.578	577.5	congruent	Block2	congruent/STIM_005.jpg	100
1849.444	0.792	792.2	congruent	Block2	congruent/STIM_005.jpg	99
1853.265	0.535	535.0	congruent	Block2	congruent/STIM_005.jpg	100
1855.783	0.52	519.6	congruent	Block2	congruent/STIM_005.jpg	99
1859.252	0.704	704.3	congruent	Block2	congruent/STIM_005.jpg	100
1862.161	0.471	471.2	congruent	Block2	congruent/STIM_006.jpg	100
1866.536	0.556	555.6	congruent	Block2	congruent/STIM_006.jpg	99
1870.541	0.596	596.3	congruent	Block2	congruent/STIM_006.jpg	100
1873.335	0.718	717.7	congruent	Block2	congruent/STIM_006.jpg	99
1876.483	0.579	578.7	congruent	Block2	congruent/STIM_006.jpg	100
1879.184	0.84	839.6	congruent	Block2	congruent/STIM_007.jpg	100
1883.099	0.616	616.4	congruent	Block2	congruent/STIM_007.jpg	99
1886.755	0.612	612.0	congruent	Block2	congruent/STIM_007.jpg	99
1890.13	0.885	885.3	congruent	Block2	congruent/STIM_007.jpg	100
1893.021	0.482	481.8	congruent	Block2	congruent/STIM_007.jpg	100
1896.95	0.682	681.9	congruent	Block2	congruent/STIM_008.jpg	99
1899.988	0.856	855.9	congruent	Block2	congruent/STIM_008.jpg	100
1903.148	0.646	646.5	congruent	Block2	congruent/STIM_008.jpg	100
1906.577	0.586	585.7	congruent	Block2	congruent/STIM_008.jpg	99
1910.664	0.639	639.0	congruent	Block2	congruent/STIM_008.jpg	99
1914.557	0.845	844.6	congruent	Block2	congruent/STIM_009.jpg	99
1919.326	0.596	596.0	congruent	Block2	congruent/STIM_009.jpg	99
1923.052	0.68	680.3	congruent	Block2	congruent/STIM_009.jpg	99
1927.48	0.869	869.3	congruent	Block2	congruent/STIM_009.jpg	100
1930.889	0.687	687.2	congruent	Block2	congruent/STIM_009.jpg	99
1935.351	0.709	709.3	congruent	Block2	congruent/STIM_010.jpg	100
1938.848	0.459	458.8	congruent	Block2	congruent/STIM_010.jpg	100
1943.007	0.587	586.8	congruent	Block2	congruent/STIM_010.jpg	99
1947.342	0.606	606.2	congruent	Block2	congruent/STIM_010.jpg	100
1951.778	0.778	777.9	congruent	Block2	congruent/STIM_010.jpg	99
1956.19	0.657	657.2	congruent	Block2	congruent/STIM_011.jpg	100
1960.868	0.794	794.4	congruent	Block2	congruent/STIM_011.jpg	100
1965.438	0.658	658.5	congruent	Block2	congruent/STIM_011.jpg	100
1969.972	0.774	773.5	congruent	Block2	congruent/STIM_011.jpg	100
1973.37	0.626	626.5	congruent	Block2	congruent/STIM_011.jpg	100
1976.622	0.536	535.8	congruent	Block2	congruent/STIM_012.jpg	99
1979.675	0.73	729.5	congruent	Block2	congruent/STIM_012.jpg	100
1984.163	0.678	677.9	congruent	Block2	congruent/STIM_012.jpg	100
1987.747	0.778	778.5	congruent	Block2	congruent/STIM_012.jpg	100
1990.891	0.612	612.0	congruent	Block2	congruent/STIM_012.jpg	99
1994.455	0.613	612.7	congruent	Block2	congruent/STIM_013.jpg	100
1998.546	0.634	634.3	congruent	Block2	congruent/STIM_013.jpg	100
2002.943	0.705	705.2	congruent	Block2	congruent/STIM_013.jpg	99
2005.932	0.792	791.7	congruent	Block2	congruent/STIM_013.jpg	99
2009.912	0.633	632.6	congruent	Block2	congruent/STIM_013.jpg	99
2013.061	0.882	881.6	congruent	Block2	congruent/STIM_014.jpg	100
2017.812	0.704	703.8	congruent	Block2	congruent/STIM_014.jpg	100
2021.139	0.837	836.7	congruent	Block2	congruent/STIM_014.jpg	100
2024.116	0.87	870.3	congruent	Block2	congruent/STIM_014.jpg	99
2028.523	0.661	661.2	congruent	Block2	congruent/STIM_014.jpg	100
2031.54	0.846	846.4	congruent	Block2	congruent/STIM_015.jpg	100
2034.909	0.687	686.7	congruent	Block2	congruent/STIM_015.jpg	99
2039.366	0.823	823.3	congruent	Block2	congruent/STIM_015.jpg	100
2044.129	0.886	885.7	congruent	Block2	congruent/STIM_015.jpg	99
2047.831	0.636	636.3	congruent	Block2	congruent/STIM_015.jpg	99
2051.814	0.725	725.1	congruent	Block2	congruent/STIM_016.jpg	100
2055.302	0.56	559.8	congruent	Block2	congruent/STIM_016.jpg	99
2058.145	0.748	748.4	congruent	Block2	congruent/STIM_016.jpg	99
2061.028	0.818	817.7	congruent	Block2	congruent/STIM_016.jpg	99
2065.461	0.56	560.1	congruent	Block2	congruent/STIM_016.jpg	99
2069.803	0.718	717.7	congruent	Block2	congruent/STIM_017.jpg	99
2074.43	0.813	812.8	congruent	Block2	congruent/STIM_017.jpg	100
2079.034	0.698	697.9	congruent	Block2	congruent/STIM_017.jpg	100
2083.523	0.788	787.6	congruent	Block2	congruent/STIM_017.jpg	100
2086.768	0.865	865.2	congruent	Block2	congruent/STIM_017.jpg	100
2090.816	0.692	692.4	congruent	Block2	congruent/STIM_018.jpg	100
2094.693	0.604	604.4	congruent	Block2	congruent/STIM_018.jpg	100
2098.614	0.763	763.0	congruent	Block2	congruent/STIM_018.jpg	99
2102.719	0.771	770.8	congruent	Block2	congruent/STIM_018.jpg	100
2106.162	0.721	721.3	congruent	Block2	congruent/STIM_018.jpg	99
2109.398	0.775	774.6	congruent	Block2	congruent/STIM_019.jpg	99
2113.59	0.615	614.9	congruent	Block2	congruent/STIM_019.jpg	100
2117.427	0.739	738.8	congruent	Block2	congruent/STIM_019.jpg	99
2120.902	0.882	882.5	congruent	Block2	congruent/STIM_019.jpg	99
2125.405	0.806	806.1	congruent	Block2	congruent/STIM_019.jpg	99
2129.332	0.626	626.0	congruent	Block2	congruent/STIM_020.jpg	99
2133.172	0.458	457.8	congruent	Block2	congruent/STIM_020.jpg	100
2137.008	0.737	736.8	congruent	Block2	congruent/STIM_020.jpg	100
2140.008	0.408	408.3	congruent	Block2	congruent/STIM_020.jpg	100
2143.948	0.648	648.3	congruent	Block2	congruent/STIM_020.jpg	99
2148.481	0.92	920.0	congruent	Block2	congruent/STIM_021.jpg	100
2153.298	0.548	547.5	congruent	Block2	congruent/STIM_021.jpg	100
2157.26	0.704	703.9	congruent	Block2	congruent/STIM_021.jpg	100
2161.606	0.742	741.9	congruent	Block2	congruent/STIM_021.jpg	99
2164.718	0.592	592.1	congruent	Block2	congruent/STIM_021.jpg	100
2168.042	0.822	822.0	congruent	Block2	congruent/STIM_022.jpg	100
2172.692	0.612	612.4	congruent	Block2	congruent/STIM_022.jpg	99
2176.962	0.741	740.9	congruent	Block2	congruent/STIM_022.jpg	99
2180.327	0.611	610.8	congruent	Block2	congruent/STIM_022.jpg	100
2183.31	0.704	704.5	congruent	Block2	congruent/STIM_022.jpg	99
2186.416	0.532	532.3	congruent	Block2	congruent/STIM_023.jpg	99
2190.279	0.736	736.0	congruent	Block2	congruent/STIM_023.jpg	100
2193.231	0.545	544.9	congruent	Block2	congruent/STIM_023.jpg	99
2196.564	0.847	846.9	congruent	Block2	congruent/STIM_023.jpg	100
2200.418	0.833	833.0	congruent	Block2	congruent/STIM_023.jpg	99
2204.931	0.483	482.7	congruent	Block2	congruent/STIM_024.jpg	100
2208.6	0.588	588.3	congruent	Block2	congruent/STIM_024.jpg	100
2211.321	0.437	437.2	congruent	Block2	congruent/STIM_024.jpg	100
2215.848	0.52	520.5	congruent	Block2	congruent/STIM_024.jpg	100
2220.358	0.735	735.2	congruent	Block2	congruent/STIM_024.jpg	100
2224.195	0.863	862.7	congruent	Block2	congruent/STIM_025.jpg	99
2228.586	0.592	591.6	congruent	Block2	congruent/STIM_025.jpg	99
2232.929	0.775	775.4	congruent	Block2	congruent/STIM_025.jpg	100
2235.823	0.553	552.8	congruent	Block2	congruent/STIM_025.jpg	99
2239.145	0.793	793.0	congruent	Block2	congruent/STIM_025.jpg	99
2242.311	0.768	767.9	congruent	Block2	congruent/STIM_026.jpg	100
2246.698	0.431	430.8	congruent	Block2	congruent/STIM_026.jpg	100
2249.792	0.612	611.7	congruent	Block2	congruent/STIM_026.jpg	99
2254.017	0.678	678.2	congruent	Block2	congruent/STIM_026.jpg	99
2258.126	0.575	575.0	congruent	Block2	congruent/STIM_026.jpg	99
2260.807	0.731	730.7	congruent	Block2	congruent/STIM_027.jpg	99
2265.202	0.659	658.8	congruent	Block2	congruent/STIM_027.jpg	100
2269.082	0.599	599.2	congruent	Block2	congruent/STIM_027.jpg	100
2272.153	0.77	770.0	congruent	Block2	congruent/STIM_027.jpg	99
2275.071	0.61	610.1	congruent	Block2	congruent/STIM_027.jpg	99
2277.995	0.492	491.6	congruent	Block2	congruent/STIM_028.jpg	100
2281.931	0.532	531.9	congruent	Block2	congruent/STIM_028.jpg	100
2286.258	0.702	702.2	congruent	Block2	congruent/STIM_028.jpg	100
2289.207	0.513	512.7	congruent	Block2	congruent/STIM_028.jpg	100
2292.288	0.784	784.1	congruent	Block2	congruent/STIM_028.jpg	99
2295.765	0.719	718.8	congruent	Block2	congruent/STIM_029.jpg	100
2298.739	0.518	518.2	congruent	Block2	congruent/STIM_029.jpg	99
2301.466	0.705	705.0	congruent	Block2	congruent/STIM_029.jpg	99
2304.441	0.627	626.9	congruent	Block2	congruent/STIM_029.jpg	100
2307.306	0.55	549.6	congruent	Block2	congruent/STIM_029.jpg	100
2310.781	0.885	885.3	incongruent	Block3	incongruent/STIM_000.jpg	99
2315.704	0.667	667.3	incongruent	Block3	incongruent/STIM_000.jpg	99
2320.353	0.716	715.7	incongruent	Block3	incongruent/STIM_000.jpg	100
2324.288	0.763	763.3	incongruent	Block3	incongruent/STIM_000.jpg	99
2327.825	0.869	869.3	incongruent	Block3	incongruent/STIM_000.jpg	99
2331.291	0.888	888.2	incongruent	Block3	incongruent/STIM_001.jpg	99
2335.311	0.69	689.8	incongruent	Block3	incongruent/STIM_001.jpg	100
2338.619	0.892	892.4	incongruent	Block3	incongruent/STIM_001.jpg	99
2342.466	0.692	691.7	incongruent	Block3	incongruent/STIM_001.jpg	100
2346.826	0.525	525.4	incongruent	Block3	incongruent/STIM_001.jpg	100
2349.997	0.467	466.9	incongruent	Block3	incongruent/STIM_002.jpg	100
2354.09	0.887	886.7	incongruent	Block3	incongruent/STIM_002.jpg	100
2357.941	0.955	955.3	incongruent	Block3	incongruent/STIM_002.jpg	99
2362.913	0.482	481.5	incongruent	Block3	incongruent/STIM_002.jpg	100
2367.176	0.807	806.6	incongruent	Block3	incongruent/STIM_002.jpg	100
2370.403	0.54	540.4	incongruent	Block3	incongruent/STIM_003.jpg	99
2374.189	0.811	811.1	incongruent	Block3	incongruent/STIM_003.jpg	100
2378.735	0.919	918.6	incongruent	Block3	incongruent/STIM_003.jpg	100
2383.166	1.057	1056.7	incongruent	Block3	incongruent/STIM_003.jpg	99
2386.426	0.537	536.8	incongruent	Block3	incongruent/STIM_003.jpg	100
2390.632	0.776	775.9	incongruent	Block3	incongruent/STIM_004.jpg	99
2395.191	0.943	942.7	incongruent	Block3	incongruent/STIM_004.jpg	99
2399.01	0.64	639.7	incongruent	Block3	incongruent/STIM_004.jpg	99
2402.521	0.836	835.6	incongruent	Block3	incongruent/STIM_004.jpg	100
2406.065	0.743	742.9	incongruent	Block3	incongruent/STIM_004.jpg	99
2408.881	0.578	578.5	incongruent	Block3	incongruent/STIM_005.jpg	99
2411.865	0.433	432.6	incongruent	Block3	incongruent/STIM_005.jpg	99
2415.21	0.494	493.6	incongruent	Block3	incongruent/STIM_005.jpg	100
2417.988	0.644	644.4	incongruent	Block3	incongruent/STIM_005.jpg	100
2421.751	0.802	802.2	incongruent	Block3	incongruent/STIM_005.jpg	99
2425.559	1.067	1067.2	incongruent	Block3	incongruent/STIM_006.jpg	100
2429.657	0.643	643.4	incongruent	Block3	incongruent/STIM_006.jpg	99
2432.993	0.6	599.9	incongruent	Block3	incongruent/STIM_006.jpg	100
2436.769	0.838	837.6	incongruent	Block3	incongruent/STIM_006.jpg	100
2440.871	0.995	995.3	incongruent	Block3	incongruent/STIM_006.jpg	100
2444.789	0.446	445.8	incongruent	Block3	incongruent/STIM_007.jpg	99
2447.69	0.684	684.3	incongruent	Block3	incongruent/STIM_007.jpg	99
2451.045	0.557	556.6	incongruent	Block3	incongruent/STIM_007.jpg	100
2454.256	0.868	868.2	incongruent	Block3	incongruent/STIM_007.jpg	99
2457.629	0.46	460.4	incongruent	Block3	incongruent/STIM_007.jpg	100
2461.04	0.51	510.3	incongruent	Block3	incongruent/STIM_008.jpg	99
2465.387	0.896	896.1	incongruent	Block3	incongruent/STIM_008.jpg	100
2469.359	0.642	642.3	incongruent	Block3	incongruent/STIM_008.jpg	99
2472.839	0.852	851.9	incongruent	Block3	incongruent/STIM_008.jpg	100
2476.324	1.063	1063.0	incongruent	Block3	incongruent/STIM_008.jpg	99
2480.007	0.451	451.3	incongruent	Block3	incongruent/STIM_009.jpg	100
2484.501	0.569	569.0	incongruent	Block3	incongruent/STIM_009.jpg	99
2488.231	0.524	523.8	incongruent	Block3	incongruent/STIM_009.jpg	99
2491.445	0.947	947.3	incongruent	Block3	incongruent/STIM_009.jpg	100
2495.537	0.798	798.5	incongruent	Block3	incongruent/STIM_009.jpg	100
2499.047	0.651	650.7	incongruent	Block3	incongruent/STIM_010.jpg	100
2502.532	0.876	875.9	incongruent	Block3	incongruent/STIM_010.jpg	99
2506.187	0.61	610.3	incongruent	Block3	incongruent/STIM_010.jpg	99
2510.485	0.7	699.9	incongruent	Block3	incongruent/STIM_010.jpg	100
2514.442	0.604	603.8	incongruent	Block3	incongruent/STIM_010.jpg	100
2518.906	0.716	715.8	incongruent	Block3	incongruent/STIM_011.jpg	100
2522.189	0.73	729.7	incongruent	Block3	incongruent/STIM_011.jpg	100
2526.534	0.485	484.7	incongruent	Block3	incongruent/STIM_011.jpg	100
2529.8	0.65	649.6	incongruent	Block3	incongruent/STIM_011.jpg	100
2532.962	0.982	982.3	incongruent	Block3	incongruent/STIM_011.jpg	99
2536.164	0.83	829.6	incongruent	Block3	incongruent/STIM_012.jpg	100
2540.601	0.573	573.3	incongruent	Block3	incongruent/STIM_012.jpg	99
2543.49	0.469	468.7	incongruent	Block3	incongruent/STIM_012.jpg	99
2547.661	0.668	667.6	incongruent	Block3	incongruent/STIM_012.jpg	99
2551.733	0.558	558.4	incongruent	Block3	incongruent/STIM_012.jpg	99
2554.702	0.926	926.2	incongruent	Block3	incongruent/STIM_013.jpg	99
2557.703	0.856	855.5	incongruent	Block3	incongruent/STIM_013.jpg	100
2562.506	0.701	700.8	incongruent	Block3	incongruent/STIM_013.jpg	99
2565.736	0.731	731.3	incongruent	Block3	incongruent/STIM_013.jpg	99
2569.202	0.946	945.8	incongruent	Block3	incongruent/STIM_013.jpg	100
2572.782	0.703	702.7	incongruent	Block3	incongruent/STIM_014.jpg	100
2576.942	0.782	782.4	incongruent	Block3	incongruent/STIM_014.jpg	100
2581.685	0.817	817.4	incongruent	Block3	incongruent/STIM_014.jpg	100
2585.627	0.869	869.4	incongruent	Block3	incongruent/STIM_014.jpg	99
2590.02	0.741	741.3	incongruent	Block3	incongruent/STIM_014.jpg	99
2593.731	0.526	526.1	incongruent	Block3	incongruent/STIM_015.jpg	99
2596.44	0.648	647.5	incongruent	Block3	incongruent/STIM_015.jpg	99
2600.82	0.51	510.4	incongruent	Block3	incongruent/STIM_015.jpg	99
2603.802	0.815	814.6	incongruent	Block3	incongruent/STIM_015.jpg	100
2606.778	0.666	665.5	incongruent	Block3	incongruent/STIM_015.jpg	100
2610.606	0.845	844.6	incongruent	Block3	incongruent/STIM_016.jpg	99
2614.617	0.984	984.3	incongruent	Block3	incongruent/STIM_016.jpg	100
2618.515	0.547	546.9	incongruent	Block3	incongruent/STIM_016.jpg	99
2621.216	0.588	588.1	incongruent	Block3	incongruent/STIM_016.jpg	99
2625.656	0.53	530.1	incongruent	Block3	incongruent/STIM_016.jpg	99
2629.897	0.695	695.4	incongruent	Block3	incongruent/STIM_017.jpg	99
2633.643	0.779	779.0	incongruent	Block3	incongruent/STIM_017.jpg	100
2637.52	0.722	722.0	incongruent	Block3	incongruent/STIM_017.jpg	99
2642.04	0.784	784.4	incongruent	Block3	incongruent/STIM_017.jpg	100
2645.612	0.542	542.2	incongruent	Block3	incongruent/STIM_017.jpg	100
2649.216	0.532	532.0	incongruent	Block3	incongruent/STIM_018.jpg	99
2653.175	0.717	716.6	incongruent	Block3	incongruent/STIM_018.jpg	99
2656.382	0.901	901.2	incongruent	Block3	incongruent/STIM_018.jpg	99
2660.621	0.881	881.3	incongruent	Block3	incongruent/STIM_018.jpg	100
2664.809	0.854	853.7	incongruent	Block3	incongruent/STIM_018.jpg	99
2667.816	0.867	866.9	incongruent	Block3	incongruent/STIM_019.jpg	99
2672.699	0.637	636.7	incongruent	Block3	incongruent/STIM_019.jpg	100
2675.887	0.926	926.3	incongruent	Block3	incongruent/STIM_019.jpg	100
2679.26	0.879	878.6	incongruent	Block3	incongruent/STIM_019.jpg	99
2683.835	0.666	666.3	incongruent	Block3	incongruent/STIM_019.jpg	99
2687.004	0.785	784.9	incongruent	Block3	incongruent/STIM_020.jpg	99
2691.025	0.672	671.5	incongruent	Block3	incongruent/STIM_020.jpg	100
2694.525	0.55	549.8	incongruent	Block3	incongruent/STIM_020.jpg	100
2697.936	0.548	547.5	incongruent	Block3	incongruent/STIM_020.jpg	100
2701.735	0.877	876.8	incongruent	Block3	incongruent/STIM_020.jpg	99
2706.622	0.565	565.3	incongruent	Block3	incongruent/STIM_021.jpg	100
2710.176	0.743	742.7	incongruent	Block3	incongruent/STIM_021.jpg	100
2713.455	0.897	897.2	incongruent	Block3	incongruent/STIM_021.jpg	99
2716.542	0.76	759.5	incongruent	Block3	incongruent/STIM_021.jpg	100
2721.067	0.628	627.9	incongruent	Block3	incongruent/STIM_021.jpg	100
2724.89	0.684	684.1	incongruent	Block3	incongruent/STIM_022.jpg	99
2728.006	0.908	908.5	incongruent	Block3	incongruent/STIM_022.jpg	100
2732.394	0.966	966.1	incongruent	Block3	incongruent/STIM_022.jpg	99
2735.726	0.648	647.5	incongruent	Block3	incongruent/STIM_022.jpg	100
2739.969	0.528	528.4	incongruent	Block3	incongruent/STIM_022.jpg	99
2743.006	0.747	746.8	incongruent	Block3	incongruent/STIM_023.jpg	100
2747.525	0.495	494.9	incongruent	Block3	incongruent/STIM_023.jpg	99
2750.399	0.64	640.2	incongruent	Block3	incongruent/STIM_023.jpg	100
2754.136	0.511	511.4	incongruent	Block3	incongruent/STIM_023.jpg	99
2757.195	0.895	895.4	incongruent	Block3	incongruent/STIM_023.jpg	100
2761.89	0.955	955.1	incongruent	Block3	incongruent/STIM_024.jpg	100
2765.049	0.601	600.6	incongruent	Block3	incongruent/STIM_024.jpg	99
2768.644	0.776	775.6	incongruent	Block3	incongruent/STIM_024.jpg	100
2773.1	0.557	556.6	incongruent	Block3	incongruent/STIM_024.jpg	99
2777.176	0.724	724.5	incongruent	Block3	incongruent/STIM_024.jpg	99
2780.99	0.677	676.8	incongruent	Block3	incongruent/STIM_025.jpg	100
2784.721	0.551	551.4	incongruent	Block3	incongruent/STIM_025.jpg	99
2787.3	0.789	788.8	incongruent	Block3	incongruent/STIM_025.jpg	99
2792.051	0.92	919.7	incongruent	Block3	incongruent/STIM_025.jpg	100
2796.777	0.68	680.1	incongruent	Block3	incongruent/STIM_025.jpg	100
2799.765	0.909	908.9	incongruent	Block3	incongruent/STIM_026.jpg	100
2804.491	0.696	695.5	incongruent	Block3	incongruent/STIM_026.jpg	100
2808.938	0.763	762.6	incongruent	Block3	incongruent/STIM_026.jpg	100
2813.112	0.492	492.5	incongruent	Block3	incongruent/STIM_026.jpg	100
2817.462	0.516	515.9	incongruent	Block3	incongruent/STIM_026.jpg	100
2821.272	0.427	426.9	incongruent	Block3	incongruent/STIM_027.jpg	100
2825.198	0.527	526.8	incongruent	Block3	incongruent/STIM_027.jpg	99
2828.551	0.602	601.9	incongruent	Block3	incongruent/STIM_027.jpg	99
2832.903	0.597	597.2	incongruent	Block3	incongruent/STIM_027.jpg	99
2836.209	0.545	545.0	incongruent	Block3	incongruent/STIM_027.jpg	100
2838.793	0.733	732.9	incongruent	Block3	incongruent/STIM_028.jpg	99
2842.589	0.892	892.2	incongruent	Block3	incongruent/STIM_028.jpg	100
2846.718	0.732	732.5	incongruent	Block3	incongruent/STIM_028.jpg	100
2850.238	0.546	545.7	incongruent	Block3	incongruent/STIM_028.jpg	100
2853.448	0.636	636.4	incongruent	Block3	incongruent/STIM_028.jpg	100
2857.184	0.909	908.7	incongruent	Block3	incongruent/STIM_029.jpg	99
2861.337	0.7	699.7	incongruent	Block3	incongruent/STIM_029.jpg	99
2864.184	0.725	725.3	incongruent	Block3	incongruent/STIM_029.jpg	100
2868.624	0.795	795.0	incongruent	Block3	incongruent/STIM_029.jpg	100
2871.54	0.978	978.2	incongruent	Block3	incongruent/STIM_029.jpg	100
2876.367	0.781	781.0	congruent	Block3	congruent/STIM_000.jpg	99
2879.544	0.692	691.5	congruent	Block3	congruent/STIM_000.jpg	100
2883.117	0.686	686.4	congruent	Block3	congruent/STIM_000.jpg	99
2887.21	0.782	781.5	congruent	Block3	congruent/STIM_000.jpg	100
2891.734	0.559	559.1	congruent	Block3	congruent/STIM_000.jpg	100
2895.69	0.724	724.3	congruent	Block3	congruent/STIM_001.jpg	100
2899.948	0.545	544.6	congruent	Block3	congruent/STIM_001.jpg	99
2902.616	0.457	456.8	congruent	Block3	congruent/STIM_001.jpg	100
2905.941	0.749	749.4	congruent	Block3	congruent/STIM_001.jpg	99
2908.897	0.636	635.5	congruent	Block3	congruent/STIM_001.jpg	100
2912.27	0.576	575.8	congruent	Block3	congruent/STIM_002.jpg	99
2916.643	0.646	645.7	congruent	Block3	congruent/STIM_002.jpg	99
2921.286	0.598	598.3	congruent	Block3	congruent/STIM_002.jpg	99
2925.073	0.591	590.8	congruent	Block3	congruent/STIM_002.jpg	100
2928.166	0.52	520.5	congruent	Block3	congruent/STIM_002.jpg	100
2931.998	0.779	778.7	congruent	Block3	congruent/STIM_003.jpg	100
2936.792	0.744	744.4	congruent	Block3	congruent/STIM_003.jpg	99
2940.526	0.691	690.8	congruent	Block3	congruent/STIM_003.jpg	100
2943.749	0.616	615.6	congruent	Block3	congruent/STIM_003.jpg	99
2946.612	0.635	635.0	congruent	Block3	congruent/STIM_003.jpg	99
2950.269	0.527	527.0	congruent	Block3	congruent/STIM_004.jpg	99
2953.07	0.818	818.2	congruent	Block3	congruent/STIM_004.jpg	99
2956.028	0.695	695.3	congruent	Block3	congruent/STIM_004.jpg	100
2959.437	0.834	833.7	congruent	Block3	congruent/STIM_004.jpg	99
2964.303	0.593	592.7	congruent	Block3	congruent/STIM_004.jpg	99
2967.716	0.592	592.5	congruent	Block3	congruent/STIM_005.jpg	99
2971.115	0.646	645.8	congruent	Block3	congruent/STIM_005.jpg	99
2974.872	0.826	825.8	congruent	Block3	congruent/STIM_005.jpg	100
2978.442	0.818	817.9	congruent	Block3	congruent/STIM_005.jpg	99
2982.516	0.681	681.3	congruent	Block3	congruent/STIM_005.jpg	99
2985.853	0.825	824.6	congruent	Block3	congruent/STIM_006.jpg	100
2990.682	0.767	766.8	congruent	Block3	congruent/STIM_006.jpg	100
2993.942	0.521	520.8	congruent	Block3	congruent/STIM_006.jpg	99
2997.893	0.703	703.2	congruent	Block3	congruent/STIM_006.jpg	100
3000.778	0.825	825.4	congruent	Block3	congruent/STIM_006.jpg	99
3004.751	0.541	541.2	congruent	Block3	congruent/STIM_007.jpg	99
3007.825	0.773	773.3	congruent	Block3	congruent/STIM_007.jpg	99
3012.542	0.895	895.4	congruent	Block3	congruent/STIM_007.jpg	99
3016.715	0.575	574.8	congruent	Block3	congruent/STIM_007.jpg	99
3020.826	0.531	530.7	congruent	Block3	congruent/STIM_007.jpg	100
3025.377	0.685	685.1	congruent	Block3	congruent/STIM_008.jpg	99
3028.427	0.716	716.1	congruent	Block3	congruent/STIM_008.jpg	99
3032.182	0.736	735.6	congruent	Block3	congruent/STIM_008.jpg	99
3036.062	0.85	849.6	congruent	Block3	congruent/STIM_008.jpg	100
3039.487	0.612	611.8	congruent	Block3	congruent/STIM_008.jpg	100
3043.037	0.807	806.6	congruent	Block3	congruent/STIM_009.jpg	99
3046.93	0.677	676.7	congruent	Block3	congruent/STIM_009.jpg	100
3051.511	0.611	611.0	congruent	Block3	congruent/STIM_009.jpg	100
3054.347	0.828	827.7	congruent	Block3	congruent/STIM_009.jpg	99
3057.423	0.893	893.2	congruent	Block3	congruent/STIM_009.jpg	99
3060.878	0.742	742.2	congruent	Block3	congruent/STIM_010.jpg	100
3064.312	0.501	501.5	congruent	Block3	congruent/STIM_010.jpg	99
3068.116	0.791	791.2	congruent	Block3	congruent/STIM_010.jpg	99
3072.157	0.7	700.4	congruent	Block3	congruent/STIM_010.jpg	100
3075.062	0.769	768.9	congruent	Block3	congruent/STIM_010.jpg	100
3078.778	0.72	719.7	congruent	Block3	congruent/STIM_011.jpg	99
3081.575	0.666	665.5	congruent	Block3	congruent/STIM_011.jpg	99
3086.147	0.689	689.0	congruent	Block3	congruent/STIM_011.jpg	99
3089.52	0.714	714.3	congruent	Block3	congruent/STIM_011.jpg	99
3093.337	0.743	742.8	congruent	Block3	congruent/STIM_011.jpg	100
3098.064	0.547	546.6	congruent	Block3	congruent/STIM_012.jpg	100
3101.433	0.676	676.4	congruent	Block3	congruent/STIM_012.jpg	100
3104.861	0.583	582.8	congruent	Block3	congruent/STIM_012.jpg	99
3107.893	0.624	623.6	congruent	Block3	congruent/STIM_012.jpg	100
3111.842	0.69	689.6	congruent	Block3	congruent/STIM_012.jpg	99
3115.298	0.525	525.0	congruent	Block3	congruent/STIM_013.jpg	100
3119.767	0.538	538.3	congruent	Block3	congruent/STIM_013.jpg	100
3123.128	0.812	811.5	congruent	Block3	congruent/STIM_013.jpg	100
3126.058	0.541	541.4	congruent	Block3	congruent/STIM_013.jpg	99
3130.043	0.642	642.0	congruent	Block3	congruent/STIM_013.jpg	99
3132.763	0.846	846.0	congruent	Block3	congruent/STIM_014.jpg	99
3137.017	0.527	527.3	congruent	Block3	congruent/STIM_014.jpg	99
3139.758	0.642	641.8	congruent	Block3	congruent/STIM_014.jpg	100
3143.229	0.485	485.3	congruent	Block3	congruent/STIM_014.jpg	99
3146.947	0.806	806.4	congruent	Block3	congruent/STIM_014.jpg	100
3150.237	0.762	762.5	congruent	Block3	congruent/STIM_015.jpg	100
3154.783	0.791	791.4	congruent	Block3	congruent/STIM_015.jpg	100
3158.344	0.494	494.3	congruent	Block3	congruent/STIM_015.jpg	100
3161.296	0.566	565.5	congruent	Block3	congruent/STIM_015.jpg	100
3165.815	0.6	600.3	congruent	Block3	congruent/STIM_015.jpg	99
3169.587	0.705	705.2	congruent	Block3	congruent/STIM_016.jpg	100
3173.86	0.627	626.7	congruent	Block3	congruent/STIM_016.jpg	99
3178.282	0.559	559.4	congruent	Block3	congruent/STIM_016.jpg	99
3182.565	0.73	729.7	congruent	Block3	congruent/STIM_016.jpg	99
3186.451	0.512	511.9	congruent	Block3	congruent/STIM_016.jpg	99
3190.128	0.575	574.8	congruent	Block3	congruent/STIM_017.jpg	100
3193.33	0.818	817.6	congruent	Block3	congruent/STIM_017.jpg	100
3197.503	0.618	618.3	congruent	Block3	congruent/STIM_017.jpg	100
3200.753	0.832	831.8	congruent	Block3	congruent/STIM_017.jpg	99
3204.106	0.426	426.3	congruent	Block3	congruent/STIM_017.jpg	100
3208.584	0.852	852.3	congruent	Block3	congruent/STIM_018.jpg	100
3211.973	0.534	533.9	congruent	Block3	congruent/STIM_018.jpg	99
3215.063	0.866	866.5	congruent	Block3	congruent/STIM_018.jpg	100
3218.903	0.489	489.3	congruent	Block3	congruent/STIM_018.jpg	99
3221.559	0.864	863.9	congruent	Block3	congruent/STIM_018.jpg	99
3225.047	0.704	704.4	congruent	Block3	congruent/STIM_019.jpg	99
3228.952	0.482	481.7	congruent	Block3	congruent/STIM_019.jpg	100
3232.395	0.654	653.6	congruent	Block3	congruent/STIM_019.jpg	99
3236.393	0.737	737.1	congruent	Block3	congruent/STIM_019.jpg	99
3241.132	0.646	645.5	congruent	Block3	congruent/STIM_019.jpg	100
3244.091	0.498	498.0	congruent	Block3	congruent/STIM_020.jpg	100
3248.436	0.463	463.2	congruent	Block3	congruent/STIM_020.jpg	100
3251.243	0.784	784.5	congruent	Block3	congruent/STIM_020.jpg	99
3254.338	0.595	595.1	congruent	Block3	congruent/STIM_020.jpg	100
3258.457	0.664	664.2	congruent	Block3	congruent/STIM_020.jpg	100
3261.715	0.516	516.1	congruent	Block3	congruent/STIM_021.jpg	99
3264.598	0.444	444.5	congruent	Block3	congruent/STIM_021.jpg	99
3267.863	0.609	609.0	congruent	Block3	congruent/STIM_021.jpg	100
3271.856	0.778	778.2	congruent	Block3	congruent/STIM_021.jpg	99
3274.769	0.501	500.7	congruent	Block3	congruent/STIM_021.jpg	100
3277.915	0.559	558.9	congruent	Block3	congruent/STIM_022.jpg	100
3282.166	0.881	880.7	congruent	Block3	congruent/STIM_022.jpg	100
3285.703	0.867	866.6	congruent	Block3	congruent/STIM_022.jpg	99
3289.522	0.733	733.2	congruent	Block3	congruent/STIM_022.jpg	100
3293.263	0.738	737.7	congruent	Block3	congruent/STIM_022.jpg	100
3297.733	0.723	723.1	congruent	Block3	congruent/STIM_023.jpg	100
3301.078	0.736	735.6	congruent	Block3	congruent/STIM_023.jpg	99
3304.625	0.511	511.3	congruent	Block3	congruent/STIM_023.jpg	99
3308.594	0.554	553.5	congruent	Block3	congruent/STIM_023.jpg	99
3311.379	0.849	849.0	congruent	Block3	congruent/STIM_023.jpg	100
3314.343	0.839	839.4	congruent	Block3	congruent/STIM_024.jpg	99
3317.484	0.756	755.7	congruent	Block3	congruent/STIM_024.jpg	99
3321.059	0.76	759.7	congruent	Block3	congruent/STIM_024.jpg	99
3325.682	0.626	626.1	congruent	Block3	congruent/STIM_024.jpg	100
3328.706	0.513	512.8	congruent	Block3	congruent/STIM_024.jpg	99
3332.209	0.803	802.7	congruent	Block3	congruent/STIM_025.jpg	99
3336.384	0.816	815.5	congruent	Block3	congruent/STIM_025.jpg	100
3339.313	0.564	563.8	congruent	Block3	congruent/STIM_025.jpg	100
3342.268	0.676	676.2	congruent	Block3	congruent/STIM_025.jpg	100
3346.084	0.655	655.4	congruent	Block3	congruent/STIM_025.jpg	100
3349.751	0.83	830.3	congruent	Block3	congruent/STIM_026.jpg	99
3354.332	0.716	716.5	congruent	Block3	congruent/STIM_026.jpg	100
3357.849	0.623	623.4	congruent	Block3	congruent/STIM_026.jpg	99
3361.727	0.506	506.0	congruent	Block3	congruent/STIM_026.jpg	99
3365.061	0.828	827.8	congruent	Block3	congruent/STIM_026.jpg	100
3369.631	0.685	685.1	congruent	Block3	congruent/STIM_027.jpg	99
3373.524	0.547	547.1	congruent	Block3	congruent/STIM_027.jpg	99
3376.375	0.794	793.7	congruent	Block3	congruent/STIM_027.jpg	100
3379.906	0.482	481.5	congruent	Block3	congruent/STIM_027.jpg	100
3382.84	0.745	745.1	congruent	Block3	congruent/STIM_027.jpg	100
3386.298	0.617	617.1	congruent	Block3	congruent/STIM_028.jpg	100
3390.784	0.5	499.6	congruent	Block3	congruent/STIM_028.jpg	100
3395.104	0.63	630.1	congruent	Block3	congruent/STIM_028.jpg	100
3399.346	0.876	876.5	congruent	Block3	congruent/STIM_028.jpg	100
3403.773	0.902	902.3	congruent	Block3	congruent/STIM_028.jpg	99
3408.406	0.835	835.4	congruent	Block3	congruent/STIM_029.jpg	99
3413.027	0.688	687.7	congruent	Block3	congruent/STIM_029.jpg	99
3416.311	0.567	566.8	congruent	Block3	congruent/STIM_029.jpg	99
3420.077	0.75	749.5	congruent	Block3	congruent/STIM_029.jpg	100
3423.744	0.635	634.7	congruent	Block3	congruent/STIM_029.jpg	100
