onset	duration	accuracy_binary	trial_type	learning_stage	stimulus
0.0	1.665	1	study	Phase1	study/STIM_000.jpg
5.114	0.936	1	study	Phase1	study/STIM_000.jpg
9.07	1.434	0	study	Phase1	study/STIM_000.jpg
13.558	0.992	1	study	Phase1	study/STIM_001.jpg
18.232	1.39	0	study	Phase1	study/STIM_001.jpg
21.783	1.353	1	study	Phase1	study/STIM_001.jpg
26.077	1.192	0	study	Phase1	study/STIM_002.jpg
29.645	1.508	1	study	Phase1	study/STIM_002.jpg
33.514	1.592	1	study	Phase1	study/STIM_002.jpg
38.377	1.05	1	study	Phase1	study/STIM_003.jpg
41.786	0.86	0	study	Phase1	study/STIM_003.jpg
45.82	1.206	0	study	Phase1	study/STIM_003.jpg
49.517	1.76	1	study	Phase1	study/STIM_004.jpg
54.946	1.101	1	study	Phase1	study/STIM_004.jpg
59.51	1.018	1	study	Phase1	study/STIM_004.jpg
64.396	0.997	1	study	Phase1	study/STIM_005.jpg
69.343	1.514	1	study	Phase1	study/STIM_005.jpg
73.023	1.067	1	study	Phase1	study/STIM_005.jpg
76.928	1.767	1	study	Phase1	study/STIM_006.jpg
81.099	1.205	1	study	Phase1	study/STIM_006.jpg
85.513	1.103	0	study	Phase1	study/STIM_006.jpg
90.084	0.891	1	study	Phase1	study/STIM_007.jpg
93.611	1.65	1	study	Phase1	study/STIM_007.jpg
97.971	1.334	1	study	Phase1	study/STIM_007.jpg
101.976	1.471	1	study	Phase1	study/STIM_008.jpg
106.094	0.755	0	study	Phase1	study/STIM_008.jpg
110.07	1.112	1	study	Phase1	study/STIM_008.jpg
113.358	0.842	1	study	Phase1	study/STIM_009.jpg
116.406	0.828	0	study	Phase1	study/STIM_009.jpg
120.642	1.541	1	study	Phase1	study/STIM_009.jpg
124.741	0.987	1	study	Phase1	study/STIM_010.jpg
128.057	1.278	1	study	Phase1	study/STIM_010.jpg
133.075	1.164	1	study	Phase1	study/STIM_010.jpg
136.554	1.198	1	study	Phase1	study/STIM_011.jpg
140.963	1.268	1	study	Phase1	study/STIM_011.jpg
145.273	1.126	1	study	Phase1	study/STIM_011.jpg
148.779	0.788	1	study	Phase1	study/STIM_012.jpg
152.847	1.269	1	study	Phase1	study/STIM_012.jpg
157.683	0.914	1	study	Phase1	study/STIM_012.jpg
161.826	1.12	1	study	Phase1	study/STIM_013.jpg
166.091	1.63	1	study	Phase1	study/STIM_013.jpg
171.655	1.119	1	study	Phase1	study/STIM_013.jpg
176.399	0.936	0	study	Phase1	study/STIM_014.jpg
179.608	1.066	1	study	Phase1	study/STIM_014.jpg
182.777	1.522	0	study	Phase1	study/STIM_014.jpg
186.53	0.937	1	study	Phase1	study/STIM_015.jpg
190.699	0.904	1	study	Phase1	study/STIM_015.jpg
193.884	1.16	1	study	Phase1	study/STIM_015.jpg
198.806	0.808	1	study	Phase1	study/STIM_016.jpg
201.969	0.806	1	study	Phase1	study/STIM_016.jpg
205.248	1.218	1	study	Phase1	study/STIM_016.jpg
209.304	1.542	1	study	Phase1	study/STIM_017.jpg
213.4	0.762	1	study	Phase1	study/STIM_017.jpg
217.822	1.066	1	study	Phase1	study/STIM_017.jpg
222.002	0.981	1	study	Phase1	study/STIM_018.jpg
226.116	1.076	0	study	Phase1	study/STIM_018.jpg
229.414	0.875	1	study	Phase1	study/STIM_018.jpg
233.76	1.407	0	study	Phase1	study/STIM_019.jpg
238.072	1.41	1	study	Phase1	study/STIM_019.jpg
243.052	0.921	1	study	Phase1	study/STIM_019.jpg
246.522	1.129	1	study	Phase1	study/STIM_020.jpg
250.105	1.519	1	study	Phase1	study/STIM_020.jpg
253.985	1.065	1	study	Phase1	study/STIM_020.jpg
257.757	1.009	1	study	Phase1	study/STIM_021.jpg
261.953	1.39	1	study	Phase1	study/STIM_021.jpg
267.251	1.352	1	study	Phase1	study/STIM_021.jpg
271.578	0.801	1	study	Phase1	study/STIM_022.jpg
276.029	1.248	1	study	Phase1	study/STIM_022.jpg
281.249	1.032	1	study	Phase1	study/STIM_022.jpg
285.308	1.242	1	study	Phase1	study/STIM_023.jpg
290.069	1.516	1	study	Phase1	study/STIM_023.jpg
295.138	1.222	1	study	Phase1	study/STIM_023.jpg
300.228	1.472	1	study	Phase1	study/STIM_024.jpg
304.288	1.603	1	study	Phase1	study/STIM_024.jpg
307.938	0.774	1	study	Phase1	study/STIM_024.jpg
311.14	0.97	1	study	Phase1	study/STIM_025.jpg
315.917	1.521	1	study	Phase1	study/STIM_025.jpg
320.422	1.084	1	study	Phase1	study/STIM_025.jpg
324.048	1.385	0	study	Phase1	study/STIM_026.jpg
328.774	1.227	1	study	Phase1	study/STIM_026.jpg
333.968	1.484	1	study	Phase1	study/STIM_026.jpg
338.342	0.997	1	study	Phase1	study/STIM_027.jpg
341.76	0.766	1	study	Phase1	study/STIM_027.jpg
345.327	1.483	1	study	Phase1	study/STIM_027.jpg
350.13	1.561	1	study	Phase1	study/STIM_028.jpg
355.635	0.954	1	study	Phase1	study/STIM_028.jpg
360.427	0.742	1	study	Phase1	study/STIM_028.jpg
364.68	1.724	1	study	Phase1	study/STIM_029.jpg
369.558	1.469	1	study	Phase1	study/STIM_029.jpg
374.758	1.065	1	study	Phase1	study/STIM_029.jpg
377.926	0.743	1	test	Phase1	test/STIM_000.jpg
381.26	1.249	1	test	Phase1	test/STIM_000.jpg
386.261	0.911	1	test	Phase1	test/STIM_000.jpg
390.797	0.857	1	test	Phase1	test/STIM_001.jpg
394.726	1.008	1	test	Phase1	test/STIM_001.jpg
399.112	0.895	0	test	Phase1	test/STIM_001.jpg
403.863	1.159	1	test	Phase1	test/STIM_002.jpg
408.068	0.779	1	test	Phase1	test/STIM_002.jpg
411.865	0.604	1	test	Phase1	test/STIM_002.jpg
415.031	0.769	1	test	Phase1	test/STIM_003.jpg
419.47	0.988	1	test	Phase1	test/STIM_003.jpg
423.827	0.828	1	test	Phase1	test/STIM_003.jpg
427.167	0.633	1	test	Phase1	test/STIM_004.jpg
430.253	1.106	0	test	Phase1	test/STIM_004.jpg
433.879	1.008	1	test	Phase1	test/STIM_004.jpg
438.428	0.901	1	test	Phase1	test/STIM_005.jpg
441.621	0.853	1	test	Phase1	test/STIM_005.jpg
444.611	1.247	0	test	Phase1	test/STIM_005.jpg
448.531	0.759	1	test	Phase1	test/STIM_006.jpg
451.389	0.661	1	test	Phase1	test/STIM_006.jpg
455.394	0.999	1	test	Phase1	test/STIM_006.jpg
459.879	0.763	0	test	Phase1	test/STIM_007.jpg
462.908	0.994	1	test	Phase1	test/STIM_007.jpg
467.646	0.972	1	test	Phase1	test/STIM_007.jpg
472.619	0.946	1	test	Phase1	test/STIM_008.jpg
476.582	0.623	1	test	Phase1	test/STIM_008.jpg
479.439	1.074	1	test	Phase1	test/STIM_008.jpg
484.335	0.728	1	test	Phase1	test/STIM_009.jpg
487.952	0.932	1	test	Phase1	test/STIM_009.jpg
492.425	0.816	1	test	Phase1	test/STIM_009.jpg
496.408	0.97	1	test	Phase1	test/STIM_010.jpg
500.339	1.205	0	test	Phase1	test/STIM_010.jpg
505.3	0.799	1	test	Phase1	test/STIM_010.jpg
509.243	1.192	1	test	Phase1	test/STIM_011.jpg
513.859	1.174	1	test	Phase1	test/STIM_011.jpg
518.186	1.055	1	test	Phase1	test/STIM_011.jpg
521.691	0.774	1	test	Phase1	test/STIM_012.jpg
524.813	0.796	1	test	Phase1	test/STIM_012.jpg
529.133	1.094	1	test	Phase1	test/STIM_012.jpg
533.651	0.979	1	test	Phase1	test/STIM_013.jpg
537.8	0.901	1	test	Phase1	test/STIM_013.jpg
541.405	1.206	1	test	Phase1	test/STIM_013.jpg
546.459	1.083	1	test	Phase1	test/STIM_014.jpg
549.84	0.664	1	test	Phase1	test/STIM_014.jpg
553.143	1.008	1	test	Phase1	test/STIM_014.jpg
557.949	1.059	1	test	Phase1	test/STIM_015.jpg
561.516	1.235	1	test	Phase1	test/STIM_015.jpg
565.839	0.662	1	test	Phase1	test/STIM_015.jpg
569.21	1.21	0	test	Phase1	test/STIM_016.jpg
572.538	0.889	1	test	Phase1	test/STIM_016.jpg
575.566	1.081	0	test	Phase1	test/STIM_016.jpg
579.943	0.983	1	test	Phase1	test/STIM_017.jpg
583.714	0.635	1	test	Phase1	test/STIM_017.jpg
586.725	0.656	1	test	Phase1	test/STIM_017.jpg
589.399	1.111	1	test	Phase1	test/STIM_018.jpg
593.781	1.163	1	test	Phase1	test/STIM_018.jpg
598.079	1.132	1	test	Phase1	test/STIM_018.jpg
602.212	0.966	1	test	Phase1	test/STIM_019.jpg
606.534	1.13	1	test	Phase1	test/STIM_019.jpg
611.449	1.078	1	test	Phase1	test/STIM_019.jpg
616.047	1.098	1	test	Phase1	test/STIM_020.jpg
620.475	0.714	1	test	Phase1	test/STIM_020.jpg
623.833	1.15	0	test	Phase1	test/STIM_020.jpg
627.303	0.663	0	test	Phase1	test/STIM_021.jpg
631.598	0.782	0	test	Phase1	test/STIM_021.jpg
634.677	0.871	1	test	Phase1	test/STIM_021.jpg
637.568	1.012	1	test	Phase1	test/STIM_022.jpg
641.431	0.644	1	test	Phase1	test/STIM_022.jpg
645.646	0.636	1	test	Phase1	test/STIM_022.jpg
648.916	1.204	1	test	Phase1	test/STIM_023.jpg
654.029	1.16	1	test	Phase1	test/STIM_023.jpg
658.17	1.036	1	test	Phase1	test/STIM_023.jpg
662.583	0.883	1	test	Phase1	test/STIM_024.jpg
666.022	0.655	1	test	Phase1	test/STIM_024.jpg
669.992	1.044	1	test	Phase1	test/STIM_024.jpg
673.896	0.856	1	test	Phase1	test/STIM_025.jpg
677.54	0.644	1	test	Phase1	test/STIM_025.jpg
681.942	0.655	1	test	Phase1	test/STIM_025.jpg
685.141	1.103	1	test	Phase1	test/STIM_026.jpg
689.537	0.757	1	test	Phase1	test/STIM_026.jpg
692.433	1.158	1	test	Phase1	test/STIM_026.jpg
696.198	1.166	1	test	Phase1	test/STIM_027.jpg
699.659	1.081	1	test	Phase1	test/STIM_027.jpg
703.693	0.886	1	test	Phase1	test/STIM_027.jpg
707.289	0.64	0	test	Phase1	test/STIM_028.jpg
711.861	1.05	1	test	Phase1	test/STIM_028.jpg
715.256	1.02	1	test	Phase1	test/STIM_028.jpg
719.531	1.204	1	test	Phase1	test/STIM_029.jpg
724.322	0.806	1	test	Phase1	test/STIM_029.jpg
727.555	1.126	1	test	Phase1	test/STIM_029.jpg
731.384	0.786	1	study	Phase2	study/STIM_000.jpg
734.953	0.778	1	study	Phase2	study/STIM_000.jpg
739.584	0.686	1	study	Phase2	study/STIM_000.jpg
743.546	1.01	1	study	Phase2	study/STIM_001.jpg
748.178	1.415	1	study	Phase2	study/STIM_001.jpg
752.375	0.89	1	study	Phase2	study/STIM_001.jpg
756.228	0.947	1	study	Phase2	study/STIM_002.jpg
761.082	0.854	1	study	Phase2	study/STIM_002.jpg
764.925	1.13	1	study	Phase2	study/STIM_002.jpg
768.395	1.398	1	study	Phase2	study/STIM_003.jpg
772.868	1.283	1	study	Phase2	study/STIM_003.jpg
776.992	0.85	1	study	Phase2	study/STIM_003.jpg
780.766	0.74	1	study	Phase2	study/STIM_004.jpg
785.136	1.185	1	study	Phase2	study/STIM_004.jpg
788.635	0.77	1	study	Phase2	study/STIM_004.jpg
793.36	0.81	1	study	Phase2	study/STIM_005.jpg
797.45	1.116	1	study	Phase2	study/STIM_005.jpg
801.553	0.652	1	study	Phase2	study/STIM_005.jpg
804.778	0.732	0	study	Phase2	study/STIM_006.jpg
808.097	0.969	1	study	Phase2	study/STIM_006.jpg
812.156	0.938	1	study	Phase2	study/STIM_006.jpg
817.028	1.428	1	study	Phase2	study/STIM_007.jpg
821.127	1.071	0	study	Phase2	study/STIM_007.jpg
825.022	0.643	1	study	Phase2	study/STIM_007.jpg
829.598	1.178	0	study	Phase2	study/STIM_008.jpg
834.415	0.698	1	study	Phase2	study/STIM_008.jpg
838.367	0.636	1	study	Phase2	study/STIM_008.jpg
841.109	0.722	1	study	Phase2	study/STIM_009.jpg
844.354	1.26	1	study	Phase2	study/STIM_009.jpg
848.915	0.682	1	study	Phase2	study/STIM_009.jpg
852.617	0.689	1	study	Phase2	study/STIM_010.jpg
855.687	0.783	1	study	Phase2	study/STIM_010.jpg
858.936	0.748	1	study	Phase2	study/STIM_010.jpg
862.168	0.761	1	study	Phase2	study/STIM_011.jpg
865.046	1.341	1	study	Phase2	study/STIM_011.jpg
868.436	0.756	1	study	Phase2	study/STIM_011.jpg
872.197	0.968	0	study	Phase2	study/STIM_012.jpg
876.016	0.796	1	study	Phase2	study/STIM_012.jpg
879.842	1.144	1	study	Phase2	study/STIM_012.jpg
883.009	1.476	1	study	Phase2	study/STIM_013.jpg
886.67	0.711	1	study	Phase2	study/STIM_013.jpg
890.783	0.882	1	study	Phase2	study/STIM_013.jpg
894.339	0.707	1	study	Phase2	study/STIM_014.jpg
898.776	1.404	1	study	Phase2	study/STIM_014.jpg
902.328	1.264	1	study	Phase2	study/STIM_014.jpg
906.071	1.338	1	study	Phase2	study/STIM_015.jpg
910.404	0.795	1	study	Phase2	study/STIM_015.jpg
914.001	0.791	1	study	Phase2	study/STIM_015.jpg
918.517	0.863	1	study	Phase2	study/STIM_016.jpg
922.284	1.284	1	study	Phase2	study/STIM_016.jpg
927.151	1.101	1	study	Phase2	study/STIM_016.jpg
930.536	1.365	1	study	Phase2	study/STIM_017.jpg
935.326	1.242	1	study	Phase2	study/STIM_017.jpg
939.464	0.989	1	study	Phase2	study/STIM_017.jpg
942.987	1.318	1	study	Phase2	study/STIM_018.jpg
947.991	1.177	0	study	Phase2	study/STIM_018.jpg
951.842	0.979	1	study	Phase2	study/STIM_018.jpg
955.531	1.309	1	study	Phase2	study/STIM_019.jpg
959.539	1.221	1	study	Phase2	study/STIM_019.jpg
963.197	1.2	1	study	Phase2	study/STIM_019.jpg
968.012	1.062	1	study	Phase2	study/STIM_020.jpg
972.792	1.092	1	study	Phase2	study/STIM_020.jpg
976.41	1.309	1	study	Phase2	study/STIM_020.jpg
980.51	0.868	1	study	Phase2	study/STIM_021.jpg
983.473	1.002	1	study	Phase2	study/STIM_021.jpg
986.81	1.116	1	study	Phase2	study/STIM_021.jpg
990.432	1.084	1	study	Phase2	study/STIM_022.jpg
994.316	1.354	1	study	Phase2	study/STIM_022.jpg
999.659	0.808	0	study	Phase2	study/STIM_022.jpg
1003.63	1.356	1	study	Phase2	study/STIM_023.jpg
1007.38	1.21	1	study	Phase2	study/STIM_023.jpg
1012.15	0.783	1	study	Phase2	study/STIM_023.jpg
1016.722	0.84	1	study	Phase2	study/STIM_024.jpg
1020.107	1.149	1	study	Phase2	study/STIM_024.jpg
1023.505	1.08	1	study	Phase2	study/STIM_024.jpg
1027.406	0.699	1	study	Phase2	study/STIM_025.jpg
1030.414	0.912	1	study	Phase2	study/STIM_025.jpg
1035.221	0.967	1	study	Phase2	study/STIM_025.jpg
1040.097	0.69	1	study	Phase2	study/STIM_026.jpg
1043.323	1.225	1	study	Phase2	study/STIM_026.jpg
1047.427	1.158	1	study	Phase2	study/STIM_026.jpg
1050.97	0.916	1	study	Phase2	study/STIM_027.jpg
1055.615	1.374	0	study	Phase2	study/STIM_027.jpg
1059.782	0.906	0	study	Phase2	study/STIM_027.jpg
1063.489	1.066	0	study	Phase2	study/STIM_028.jpg
1066.689	1.198	1	study	Phase2	study/STIM_028.jpg
1071.528	1.052	1	study	Phase2	study/STIM_028.jpg
1074.601	0.936	1	study	Phase2	study/STIM_029.jpg
1078.252	1.258	1	study	Phase2	study/STIM_029.jpg
1082.586	1.043	1	study	Phase2	study/STIM_029.jpg
1086.879	0.852	1	test	Phase2	test/STIM_000.jpg
1090.777	0.954	1	test	Phase2	test/STIM_000.jpg
1093.75	0.835	1	test	Phase2	test/STIM_000.jpg
1096.799	0.726	1	test	Phase2	test/STIM_001.jpg
1100.098	0.946	1	test	Phase2	test/STIM_001.jpg
1104.181	0.622	1	test	Phase2	test/STIM_001.jpg
1108.275	1.262	0	test	Phase2	test/STIM_002.jpg
1112.666	1.143	1	test	Phase2	test/STIM_002.jpg
1117.408	0.776	1	test	Phase2	test/STIM_002.jpg
1122.088	0.806	1	test	Phase2	test/STIM_003.jpg
1125.788	0.644	1	test	Phase2	test/STIM_003.jpg
1128.87	0.774	1	test	Phase2	test/STIM_003.jpg
1132.655	0.689	1	test	Phase2	test/STIM_004.jpg
1136.385	0.798	1	test	Phase2	test/STIM_004.jpg
1140.226	1.168	1	test	Phase2	test/STIM_004.jpg
1145.374	0.636	1	test	Phase2	test/STIM_005.jpg
1149.024	0.751	1	test	Phase2	test/STIM_005.jpg
1151.964	0.885	1	test	Phase2	test/STIM_005.jpg
1156.229	1.075	1	test	Phase2	test/STIM_006.jpg
1160.14	1.123	1	test	Phase2	test/STIM_006.jpg
1164.907	0.649	1	test	Phase2	test/STIM_006.jpg
1167.868	1.134	1	test	Phase2	test/STIM_007.jpg
1171.037	1.23	1	test	Phase2	test/STIM_007.jpg
1176.258	0.902	1	test	Phase2	test/STIM_007.jpg
1180.664	0.783	1	test	Phase2	test/STIM_008.jpg
1184.783	0.941	1	test	Phase2	test/STIM_008.jpg
1187.83	0.965	1	test	Phase2	test/STIM_008.jpg
1192.046	1.113	1	test	Phase2	test/STIM_009.jpg
1196.142	0.879	1	test	Phase2	test/STIM_009.jpg
1200.236	0.673	1	test	Phase2	test/STIM_009.jpg
1204.745	0.988	1	test	Phase2	test/STIM_010.jpg
1207.79	0.728	1	test	Phase2	test/STIM_010.jpg
1210.744	0.619	1	test	Phase2	test/STIM_010.jpg
1213.442	0.716	1	test	Phase2	test/STIM_011.jpg
1217.239	1.056	1	test	Phase2	test/STIM_011.jpg
1221.25	0.604	1	test	Phase2	test/STIM_011.jpg
1224.223	0.704	1	test	Phase2	test/STIM_012.jpg
1228.55	1.244	1	test	Phase2	test/STIM_012.jpg
1231.96	1.022	1	test	Phase2	test/STIM_012.jpg
1235.222	0.792	1	test	Phase2	test/STIM_013.jpg
1238.649	0.947	1	test	Phase2	test/STIM_013.jpg
1242.501	1.094	1	test	Phase2	test/STIM_013.jpg
1246.036	1.142	1	test	Phase2	test/STIM_014.jpg
1250.047	0.836	1	test	Phase2	test/STIM_014.jpg
1254.101	0.719	1	test	Phase2	test/STIM_014.jpg
1257.796	1.198	1	test	Phase2	test/STIM_015.jpg
1261.781	0.699	1	test	Phase2	test/STIM_015.jpg
1265.033	0.884	1	test	Phase2	test/STIM_015.jpg
1268.832	0.933	0	test	Phase2	test/STIM_016.jpg
1271.789	0.766	1	test	Phase2	test/STIM_016.jpg
1275.989	1.163	1	test	Phase2	test/STIM_016.jpg
1281.121	0.643	1	test	Phase2	test/STIM_017.jpg
1285.574	0.81	1	test	Phase2	test/STIM_017.jpg
1289.521	1.263	1	test	Phase2	test/STIM_017.jpg
1293.64	0.703	1	test	Phase2	test/STIM_018.jpg
1298.077	0.87	1	test	Phase2	test/STIM_018.jpg
1302.467	0.892	1	test	Phase2	test/STIM_018.jpg
1307.25	1.058	1	test	Phase2	test/STIM_019.jpg
1310.331	0.596	0	test	Phase2	test/STIM_019.jpg
1314.825	1.006	1	test	Phase2	test/STIM_019.jpg
1318.102	0.612	1	test	Phase2	test/STIM_020.jpg
1321.075	1.182	1	test	Phase2	test/STIM_020.jpg
1325.818	0.945	0	test	Phase2	test/STIM_020.jpg
1330.143	0.821	1	test	Phase2	test/STIM_021.jpg
1333.779	0.864	1	test	Phase2	test/STIM_021.jpg
1337.93	1.275	1	test	Phase2	test/STIM_021.jpg
1341.796	0.66	1	test	Phase2	test/STIM_022.jpg
1345.19	0.918	1	test	Phase2	test/STIM_022.jpg
1349.84	1.271	1	test	Phase2	test/STIM_022.jpg
1354.224	1.003	1	test	Phase2	test/STIM_023.jpg
1357.425	0.669	1	test	Phase2	test/STIM_023.jpg
1361.457	1.057	1	test	Phase2	test/STIM_023.jpg
1364.7	0.876	1	test	Phase2	test/STIM_024.jpg
1368.912	0.738	1	test	Phase2	test/STIM_024.jpg
1372.439	0.892	1	test	Phase2	test/STIM_024.jpg
1376.043	0.766	1	test	Phase2	test/STIM_025.jpg
1380.193	0.868	1	test	Phase2	test/STIM_025.jpg
1383.771	0.969	1	test	Phase2	test/STIM_025.jpg
1388.534	0.971	1	test	Phase2	test/STIM_026.jpg
1392.665	0.701	1	test	Phase2	test/STIM_026.jpg
1396.474	0.638	1	test	Phase2	test/STIM_026.jpg
1400.724	1.27	0	test	Phase2	test/STIM_027.jpg
1405.964	0.605	1	test	Phase2	test/STIM_027.jpg
1408.909	0.759	0	test	Phase2	test/STIM_027.jpg
1412.186	0.714	1	test	Phase2	test/STIM_028.jpg
1415.079	0.691	1	test	Phase2	test/STIM_028.jpg
1418.233	1.189	1	test	Phase2	test/STIM_028.jpg
1421.991	0.677	1	test	Phase2	test/STIM_029.jpg
1425.0	1.088	1	test	Phase2	test/STIM_029.jpg
1429.593	1.177	1	test	Phase2	test/STIM_029.jpg
1433.383	1.054	1	study	Phase3	study/STIM_000.jpg
1436.972	1.184	1	study	Phase3	study/STIM_000.jpg
1441.299	0.768	1	study	Phase3	study/STIM_000.jpg
1445.245	0.556	1	study	Phase3	study/STIM_001.jpg
1447.909	0.98	1	study	Phase3	study/STIM_001.jpg
1452.088	0.654	1	study	Phase3	study/STIM_001.jpg
1455.822	0.933	1	study	Phase3	study/STIM_002.jpg
1459.82	1.196	1	study	Phase3	study/STIM_002.jpg
1464.007	1.078	1	study	Phase3	study/STIM_002.jpg
1467.488	0.853	1	study	Phase3	study/STIM_003.jpg
1470.942	0.84	1	study	Phase3	study/STIM_003.jpg
1474.882	0.803	1	study	Phase3	study/STIM_003.jpg
1477.702	1.157	1	study	Phase3	study/STIM_004.jpg
1481.595	0.564	1	study	Phase3	study/STIM_004.jpg
1485.158	0.567	1	study	Phase3	study/STIM_004.jpg
1489.493	0.809	0	study	Phase3	study/STIM_005.jpg
1493.544	0.875	1	study	Phase3	study/STIM_005.jpg
1496.515	1.178	1	study	Phase3	study/STIM_005.jpg
1501.441	0.562	1	study	Phase3	study/STIM_006.jpg
1504.425	0.959	1	study	Phase3	study/STIM_006.jpg
1509.263	1.066	1	study	Phase3	study/STIM_006.jpg
1513.515	0.985	1	study	Phase3	study/STIM_007.jpg
1518.337	0.997	1	study	Phase3	study/STIM_007.jpg
1523.114	1.145	1	study	Phase3	study/STIM_007.jpg
1528.129	0.801	1	study	Phase3	study/STIM_008.jpg
1531.114	1.154	1	study	Phase3	study/STIM_008.jpg
1536.099	1.088	1	study	Phase3	study/STIM_008.jpg
1541.102	1.16	1	study	Phase3	study/STIM_009.jpg
1544.423	0.977	1	study	Phase3	study/STIM_009.jpg
1549.143	1.203	1	study	Phase3	study/STIM_009.jpg
1552.838	0.981	1	study	Phase3	study/STIM_010.jpg
1556.86	0.804	1	study	Phase3	study/STIM_010.jpg
1561.011	1.063	1	study	Phase3	study/STIM_010.jpg
1564.744	0.867	1	study	Phase3	study/STIM_011.jpg
1569.311	0.851	1	study	Phase3	study/STIM_011.jpg
1572.799	1.027	1	study	Phase3	study/STIM_011.jpg
1577.105	0.803	1	study	Phase3	study/STIM_012.jpg
1581.13	1.004	1	study	Phase3	study/STIM_012.jpg
1584.824	1.144	0	study	Phase3	study/STIM_012.jpg
1588.355	1.193	1	study	Phase3	study/STIM_013.jpg
1592.562	0.689	1	study	Phase3	study/STIM_013.jpg
1597.104	0.595	1	study	Phase3	study/STIM_013.jpg
1601.464	1.206	1	study	Phase3	study/STIM_014.jpg
1606.273	0.744	1	study	Phase3	study/STIM_014.jpg
1610.597	0.926	1	study	Phase3	study/STIM_014.jpg
1614.72	0.632	1	study	Phase3	study/STIM_015.jpg
1618.479	1.233	1	study	Phase3	study/STIM_015.jpg
1622.34	1.154	1	study	Phase3	study/STIM_015.jpg
1626.281	0.996	1	study	Phase3	study/STIM_016.jpg
1630.753	0.998	1	study	Phase3	study/STIM_016.jpg
1634.609	0.588	1	study	Phase3	study/STIM_016.jpg
1637.356	0.87	0	study	Phase3	study/STIM_017.jpg
1640.833	0.706	1	study	Phase3	study/STIM_017.jpg
1645.463	1.22	1	study	Phase3	study/STIM_017.jpg
1649.752	0.584	1	study	Phase3	study/STIM_018.jpg
1652.687	0.649	1	study	Phase3	study/STIM_018.jpg
1656.042	0.617	1	study	Phase3	study/STIM_018.jpg
1660.655	1.056	1	study	Phase3	study/STIM_019.jpg
1664.336	0.845	1	study	Phase3	study/STIM_019.jpg
1668.765	1.202	1	study	Phase3	study/STIM_019.jpg
1672.37	0.941	1	study	Phase3	study/STIM_020.jpg
1676.233	0.987	1	study	Phase3	study/STIM_020.jpg
1680.86	0.967	1	study	Phase3	study/STIM_020.jpg
1684.929	1.029	1	study	Phase3	study/STIM_021.jpg
1688.658	0.723	1	study	Phase3	study/STIM_021.jpg
1691.479	0.589	1	study	Phase3	study/STIM_021.jpg
1695.155	0.777	1	study	Phase3	study/STIM_022.jpg
1698.284	0.802	1	study	Phase3	study/STIM_022.jpg
1701.504	0.75	1	study	Phase3	study/STIM_022.jpg
1705.307	1.149	1	study	Phase3	study/STIM_023.jpg
1709.701	1.076	1	study	Phase3	study/STIM_023.jpg
1714.044	1.145	1	study	Phase3	study/STIM_023.jpg
1717.918	1.118	1	study	Phase3	study/STIM_024.jpg
1722.167	0.852	1	study	Phase3	study/STIM_024.jpg
1726.37	0.949	1	study	Phase3	study/STIM_024.jpg
1729.685	1.125	1	study	Phase3	study/STIM_025.jpg
1734.153	0.739	1	study	Phase3	study/STIM_025.jpg
1738.46	0.724	1	study	Phase3	study/STIM_025.jpg
1741.292	0.998	1	study	Phase3	study/STIM_026.jpg
1746.11	1.164	1	study	Phase3	study/STIM_026.jpg
1749.938	0.808	1	study	Phase3	study/STIM_026.jpg
1753.02	1.202	1	study	Phase3	study/STIM_027.jpg
1756.533	1.202	1	study	Phase3	study/STIM_027.jpg
1761.594	0.747	1	study	Phase3	study/STIM_027.jpg
1765.293	0.705	1	study	Phase3	study/STIM_028.jpg
1768.029	1.154	1	study	Phase3	study/STIM_028.jpg
1772.205	1.19	1	study	Phase3	study/STIM_028.jpg
1776.967	0.967	1	study	Phase3	study/STIM_029.jpg
1780.843	0.61	1	study	Phase3	study/STIM_029.jpg
1785.151	0.832	0	study	Phase3	study/STIM_029.jpg
1789.323	1.06	1	test	Phase3	test/STIM_000.jpg
1793.223	0.984	1	test	Phase3	test/STIM_000.jpg
1797.246	0.84	0	test	Phase3	test/STIM_000.jpg
1800.146	0.906	0	test	Phase3	test/STIM_001.jpg
1804.944	1.031	1	test	Phase3	test/STIM_001.jpg
1808.806	0.817	1	test	Phase3	test/STIM_001.jpg
1811.757	1.026	1	test	Phase3	test/STIM_002.jpg
1816.516	1.088	0	test	Phase3	test/STIM_002.jpg
1821.589	1.252	1	test	Phase3	test/STIM_002.jpg
1825.311	0.663	1	test	Phase3	test/STIM_003.jpg
1828.602	0.613	1	test	Phase3	test/STIM_003.jpg
1832.722	1.203	1	test	Phase3	test/STIM_003.jpg
1836.533	1.126	1	test	Phase3	test/STIM_004.jpg
1839.85	1.201	1	test	Phase3	test/STIM_004.jpg
1843.145	0.596	1	test	Phase3	test/STIM_004.jpg
1847.396	0.921	1	test	Phase3	test/STIM_005.jpg
1850.831	0.939	1	test	Phase3	test/STIM_005.jpg
1855.02	0.852	1	test	Phase3	test/STIM_005.jpg
1859.396	0.603	1	test	Phase3	test/STIM_006.jpg
1862.956	1.043	0	test	Phase3	test/STIM_006.jpg
1867.65	0.624	0	test	Phase3	test/STIM_006.jpg
1871.486	1.088	1	test	Phase3	test/STIM_007.jpg
1874.904	1.257	0	test	Phase3	test/STIM_007.jpg
1878.682	0.696	1	test	Phase3	test/STIM_007.jpg
1883.01	0.594	1	test	Phase3	test/STIM_008.jpg
1885.798	0.621	1	test	Phase3	test/STIM_008.jpg
1890.08	0.862	1	test	Phase3	test/STIM_008.jpg
1894.693	1.138	1	test	Phase3	test/STIM_009.jpg
1898.923	1.008	1	test	Phase3	test/STIM_009.jpg
1903.005	0.961	1	test	Phase3	test/STIM_009.jpg
1906.42	0.76	1	test	Phase3	test/STIM_010.jpg
1910.351	1.068	1	test	Phase3	test/STIM_010.jpg
1914.792	1.022	1	test	Phase3	test/STIM_010.jpg
1918.291	1.197	1	test	Phase3	test/STIM_011.jpg
1922.916	1.227	1	test	Phase3	test/STIM_011.jpg
1926.865	0.889	1	test	Phase3	test/STIM_011.jpg
1931.45	0.647	1	test	Phase3	test/STIM_012.jpg
1934.49	1.246	1	test	Phase3	test/STIM_012.jpg
1939.19	0.664	1	test	Phase3	test/STIM_012.jpg
1943.486	0.981	1	test	Phase3	test/STIM_013.jpg
1947.615	0.917	1	test	Phase3	test/STIM_013.jpg
1951.733	0.71	1	test	Phase3	test/STIM_013.jpg
1955.692	1.19	1	test	Phase3	test/STIM_014.jpg
1959.926	1.113	1	test	Phase3	test/STIM_014.jpg
1964.202	0.971	0	test	Phase3	test/STIM_014.jpg
1968.801	0.924	1	test	Phase3	test/STIM_015.jpg
1973.358	1.066	1	test	Phase3	test/STIM_015.jpg
1977.517	1.156	1	test	Phase3	test/STIM_015.jpg
1980.838	1.061	1	test	Phase3	test/STIM_016.jpg
1985.186	0.643	1	test	Phase3	test/STIM_016.jpg
1988.871	0.596	1	test	Phase3	test/STIM_016.jpg
1993.057	1.185	1	test	Phase3	test/STIM_017.jpg
1996.515	1.214	1	test	Phase3	test/STIM_017.jpg
1999.875	0.644	1	test	Phase3	test/STIM_017.jpg
2003.598	0.995	1	test	Phase3	test/STIM_018.jpg
2006.71	0.989	1	test	Phase3	test/STIM_018.jpg
2010.399	0.991	1	test	Phase3	test/STIM_018.jpg
2014.492	1.082	0	test	Phase3	test/STIM_019.jpg
2018.831	0.94	1	test	Phase3	test/STIM_019.jpg
2023.2	0.804	0	test	Phase3	test/STIM_019.jpg
2026.583	0.966	1	test	Phase3	test/STIM_020.jpg
2029.905	1.234	0	test	Phase3	test/STIM_020.jpg
2033.697	0.718	1	test	Phase3	test/STIM_020.jpg
2038.392	1.054	1	test	Phase3	test/STIM_021.jpg
2042.267	0.875	1	test	Phase3	test/STIM_021.jpg
2045.559	0.815	1	test	Phase3	test/STIM_021.jpg
2048.953	1.047	1	test	Phase3	test/STIM_022.jpg
2053.768	0.623	1	test	Phase3	test/STIM_022.jpg
2058.124	1.018	1	test	Phase3	test/STIM_022.jpg
2061.806	0.844	1	test	Phase3	test/STIM_023.jpg
2066.164	0.854	1	test	Phase3	test/STIM_023.jpg
2069.245	1.183	1	test	Phase3	test/STIM_023.jpg
2073.663	1.124	1	test	Phase3	test/STIM_024.jpg
2078.33	0.879	1	test	Phase3	test/STIM_024.jpg
2082.652	0.76	1	test	Phase3	test/STIM_024.jpg
2086.102	0.698	1	test	Phase3	test/STIM_025.jpg
2089.345	0.851	1	test	Phase3	test/STIM_025.jpg
2092.661	0.86	1	test	Phase3	test/STIM_025.jpg
2095.677	0.794	1	test	Phase3	test/STIM_026.jpg
2100.233	0.785	1	test	Phase3	test/STIM_026.jpg
2104.628	0.846	1	test	Phase3	test/STIM_026.jpg
2108.399	0.982	1	test	Phase3	test/STIM_027.jpg
2111.636	0.834	1	test	Phase3	test/STIM_027.jpg
2115.85	1.232	1	test	Phase3	test/STIM_027.jpg
2119.287	0.938	1	test	Phase3	test/STIM_028.jpg
2122.313	1.224	1	test	Phase3	test/STIM_028.jpg
2127.259	0.783	0	test	Phase3	test/STIM_028.jpg
2131.24	0.784	1	test	Phase3	test/STIM_029.jpg
2135.32	1.106	1	test	Phase3	test/STIM_029.jpg
2139.085	0.943	1	test	Phase3	test/STIM_029.jpg
