onset	duration	accuracy_binary	trial_type	learning_stage	stimulus
0.0	1.541	1	study	Phase1	study/STIM_000.jpg
4.11	1.415	0	study	Phase1	study/STIM_000.jpg
9.234	0.836	0	study	Phase1	study/STIM_000.jpg
13.742	0.927	1	study	Phase1	study/STIM_001.jpg
16.772	1.484	0	study	Phase1	study/STIM_001.jpg
22.176	1.428	0	study	Phase1	study/STIM_001.jpg
27.438	1.146	0	study	Phase1	study/STIM_002.jpg
31.67	0.939	1	study	Phase1	study/STIM_002.jpg
36.01	1.702	1	study	Phase1	study/STIM_002.jpg
40.671	1.796	1	study	Phase1	study/STIM_003.jpg
46.421	1.114	0	study	Phase1	study/STIM_003.jpg
49.907	0.936	0	study	Phase1	study/STIM_003.jpg
52.998	1.143	0	study	Phase1	study/STIM_004.jpg
57.114	1.135	1	study	Phase1	study/STIM_004.jpg
60.427	1.328	0	study	Phase1	study/STIM_004.jpg
63.953	1.243	1	study	Phase1	study/STIM_005.jpg
68.773	1.872	1	study	Phase1	study/STIM_005.jpg
73.27	1.785	1	study	Phase1	study/STIM_005.jpg
77.073	1.815	1	study	Phase1	study/STIM_006.jpg
82.324	0.867	1	study	Phase1	study/STIM_006.jpg
86.158	0.875	1	study	Phase1	study/STIM_006.jpg
90.533	1.264	1	study	Phase1	study/STIM_007.jpg
95.228	1.655	1	study	Phase1	study/STIM_007.jpg
100.68	1.756	1	study	Phase1	study/STIM_007.jpg
106.259	1.694	1	study	Phase1	study/STIM_008.jpg
110.803	1.555	0	study	Phase1	study/STIM_008.jpg
115.86	1.393	1	study	Phase1	study/STIM_008.jpg
120.638	1.515	1	study	Phase1	study/STIM_009.jpg
125.869	1.703	0	study	Phase1	study/STIM_009.jpg
131.525	1.461	1	study	Phase1	study/STIM_009.jpg
135.071	2.003	1	study	Phase1	study/STIM_010.jpg
139.529	1.374	1	study	Phase1	study/STIM_010.jpg
144.806	1.303	1	study	Phase1	study/STIM_010.jpg
149.698	1.334	1	study	Phase1	study/STIM_011.jpg
154.569	1.82	1	study	Phase1	study/STIM_011.jpg
160.108	1.248	1	study	Phase1	study/STIM_011.jpg
163.435	1.126	1	study	Phase1	study/STIM_012.jpg
166.702	1.052	1	study	Phase1	study/STIM_012.jpg
171.128	1.582	1	study	Phase1	study/STIM_012.jpg
174.797	1.421	1	study	Phase1	study/STIM_013.jpg
179.771	1.425	1	study	Phase1	study/STIM_013.jpg
183.318	1.173	1	study	Phase1	study/STIM_013.jpg
186.743	1.549	0	study	Phase1	study/STIM_014.jpg
191.717	0.891	1	study	Phase1	study/STIM_014.jpg
194.739	1.266	0	study	Phase1	study/STIM_014.jpg
198.271	1.704	1	study	Phase1	study/STIM_015.jpg
203.454	1.281	1	study	Phase1	study/STIM_015.jpg
207.415	1.054	1	study	Phase1	study/STIM_015.jpg
212.423	1.559	1	study	Phase1	study/STIM_016.jpg
216.459	1.406	1	study	Phase1	study/STIM_016.jpg
220.019	1.5	1	study	Phase1	study/STIM_016.jpg
225.207	1.492	1	study	Phase1	study/STIM_017.jpg
230.205	1.38	0	study	Phase1	study/STIM_017.jpg
234.67	0.922	1	study	Phase1	study/STIM_017.jpg
238.052	1.865	1	study	Phase1	study/STIM_018.jpg
242.361	1.175	0	study	Phase1	study/STIM_018.jpg
246.587	0.915	0	study	Phase1	study/STIM_018.jpg
250.259	1.275	0	study	Phase1	study/STIM_019.jpg
254.679	1.05	1	study	Phase1	study/STIM_019.jpg
257.933	1.512	1	study	Phase1	study/STIM_019.jpg
263.011	1.781	0	study	Phase1	study/STIM_020.jpg
268.77	0.943	1	study	Phase1	study/STIM_020.jpg
271.907	1.076	1	study	Phase1	study/STIM_020.jpg
275.089	1.338	1	study	Phase1	study/STIM_021.jpg
279.721	1.615	1	study	Phase1	study/STIM_021.jpg
283.413	1.589	1	study	Phase1	study/STIM_021.jpg
288.071	1.994	1	study	Phase1	study/STIM_022.jpg
292.458	1.576	1	study	Phase1	study/STIM_022.jpg
297.038	1.504	1	study	Phase1	study/STIM_022.jpg
301.356	0.934	1	study	Phase1	study/STIM_023.jpg
305.25	1.273	1	study	Phase1	study/STIM_023.jpg
308.74	0.857	1	study	Phase1	study/STIM_023.jpg
312.954	1.562	0	study	Phase1	study/STIM_024.jpg
316.829	1.401	1	study	Phase1	study/STIM_024.jpg
321.598	1.249	1	study	Phase1	study/STIM_024.jpg
326.588	1.486	1	study	Phase1	study/STIM_025.jpg
330.951	1.104	1	study	Phase1	study/STIM_025.jpg
334.89	1.426	1	study	Phase1	study/STIM_025.jpg
338.801	1.106	0	study	Phase1	study/STIM_026.jpg
343.777	1.026	1	study	Phase1	study/STIM_026.jpg
347.774	1.367	1	study	Phase1	study/STIM_026.jpg
351.367	1.017	0	study	Phase1	study/STIM_027.jpg
355.21	1.249	1	study	Phase1	study/STIM_027.jpg
360.162	1.65	1	study	Phase1	study/STIM_027.jpg
365.323	0.941	1	study	Phase1	study/STIM_028.jpg
369.728	1.484	1	study	Phase1	study/STIM_028.jpg
374.647	1.725	1	study	Phase1	study/STIM_028.jpg
378.923	0.989	1	study	Phase1	study/STIM_029.jpg
383.332	1.151	0	study	Phase1	study/STIM_029.jpg
388.48	1.229	1	study	Phase1	study/STIM_029.jpg
392.038	1.348	1	test	Phase1	test/STIM_000.jpg
396.613	1.101	1	test	Phase1	test/STIM_000.jpg
400.171	0.998	1	test	Phase1	test/STIM_000.jpg
404.006	0.973	1	test	Phase1	test/STIM_001.jpg
407.696	1.327	1	test	Phase1	test/STIM_001.jpg
411.317	1.427	0	test	Phase1	test/STIM_001.jpg
415.937	0.681	1	test	Phase1	test/STIM_002.jpg
418.729	0.817	1	test	Phase1	test/STIM_002.jpg
422.303	1.296	1	test	Phase1	test/STIM_002.jpg
425.812	1.298	1	test	Phase1	test/STIM_003.jpg
429.176	0.848	1	test	Phase1	test/STIM_003.jpg
433.49	0.82	1	test	Phase1	test/STIM_003.jpg
436.9	1.295	1	test	Phase1	test/STIM_004.jpg
441.341	0.744	0	test	Phase1	test/STIM_004.jpg
446.082	1.408	1	test	Phase1	test/STIM_004.jpg
450.889	1.006	1	test	Phase1	test/STIM_005.jpg
455.685	0.785	1	test	Phase1	test/STIM_005.jpg
460.309	1.376	0	test	Phase1	test/STIM_005.jpg
464.76	1.281	1	test	Phase1	test/STIM_006.jpg
468.684	0.875	1	test	Phase1	test/STIM_006.jpg
472.471	1.083	1	test	Phase1	test/STIM_006.jpg
476.735	1.191	0	test	Phase1	test/STIM_007.jpg
481.107	1.265	0	test	Phase1	test/STIM_007.jpg
484.614	0.813	1	test	Phase1	test/STIM_007.jpg
488.539	1.029	0	test	Phase1	test/STIM_008.jpg
491.816	0.677	1	test	Phase1	test/STIM_008.jpg
494.991	0.913	1	test	Phase1	test/STIM_008.jpg
499.039	1.134	1	test	Phase1	test/STIM_009.jpg
502.969	1.44	1	test	Phase1	test/STIM_009.jpg
507.947	0.838	1	test	Phase1	test/STIM_009.jpg
510.986	1.166	1	test	Phase1	test/STIM_010.jpg
514.231	1.381	1	test	Phase1	test/STIM_010.jpg
519.426	0.823	1	test	Phase1	test/STIM_010.jpg
524.161	0.756	0	test	Phase1	test/STIM_011.jpg
527.887	0.791	1	test	Phase1	test/STIM_011.jpg
530.947	1.137	1	test	Phase1	test/STIM_011.jpg
534.92	0.838	0	test	Phase1	test/STIM_012.jpg
539.735	1.326	1	test	Phase1	test/STIM_012.jpg
544.573	1.33	1	test	Phase1	test/STIM_012.jpg
549.037	1.374	1	test	Phase1	test/STIM_013.jpg
552.683	1.283	1	test	Phase1	test/STIM_013.jpg
557.662	1.29	1	test	Phase1	test/STIM_013.jpg
560.999	1.434	1	test	Phase1	test/STIM_014.jpg
566.034	1.116	1	test	Phase1	test/STIM_014.jpg
569.742	0.727	0	test	Phase1	test/STIM_014.jpg
572.756	1.117	1	test	Phase1	test/STIM_015.jpg
576.757	0.795	1	test	Phase1	test/STIM_015.jpg
581.309	1.031	1	test	Phase1	test/STIM_015.jpg
585.6	1.157	0	test	Phase1	test/STIM_016.jpg
589.23	1.06	1	test	Phase1	test/STIM_016.jpg
592.93	1.022	0	test	Phase1	test/STIM_016.jpg
596.646	1.279	1	test	Phase1	test/STIM_017.jpg
601.671	1.416	1	test	Phase1	test/STIM_017.jpg
605.594	1.043	1	test	Phase1	test/STIM_017.jpg
610.341	1.11	1	test	Phase1	test/STIM_018.jpg
614.546	0.707	1	test	Phase1	test/STIM_018.jpg
618.385	1.183	1	test	Phase1	test/STIM_018.jpg
622.685	1.088	0	test	Phase1	test/STIM_019.jpg
627.467	1.272	1	test	Phase1	test/STIM_019.jpg
632.526	0.953	1	test	Phase1	test/STIM_019.jpg
636.778	1.018	1	test	Phase1	test/STIM_020.jpg
640.02	1.171	1	test	Phase1	test/STIM_020.jpg
643.467	0.815	0	test	Phase1	test/STIM_020.jpg
646.559	1.438	0	test	Phase1	test/STIM_021.jpg
650.782	1.137	0	test	Phase1	test/STIM_021.jpg
655.608	0.885	1	test	Phase1	test/STIM_021.jpg
660.009	0.93	1	test	Phase1	test/STIM_022.jpg
664.627	1.28	1	test	Phase1	test/STIM_022.jpg
669.645	0.977	1	test	Phase1	test/STIM_022.jpg
673.847	0.728	1	test	Phase1	test/STIM_023.jpg
677.73	1.357	1	test	Phase1	test/STIM_023.jpg
681.571	1.046	1	test	Phase1	test/STIM_023.jpg
685.74	0.78	1	test	Phase1	test/STIM_024.jpg
688.648	1.252	0	test	Phase1	test/STIM_024.jpg
691.991	1.084	1	test	Phase1	test/STIM_024.jpg
695.953	1.066	1	test	Phase1	test/STIM_025.jpg
699.987	1.393	1	test	Phase1	test/STIM_025.jpg
703.523	1.42	1	test	Phase1	test/STIM_025.jpg
708.512	1.085	1	test	Phase1	test/STIM_026.jpg
712.624	0.718	1	test	Phase1	test/STIM_026.jpg
716.584	1.165	1	test	Phase1	test/STIM_026.jpg
720.961	0.897	1	test	Phase1	test/STIM_027.jpg
725.435	1.369	1	test	Phase1	test/STIM_027.jpg
729.769	1.347	1	test	Phase1	test/STIM_027.jpg
733.913	1.07	0	test	Phase1	test/STIM_028.jpg
738.361	0.82	1	test	Phase1	test/STIM_028.jpg
742.01	1.173	1	test	Phase1	test/STIM_028.jpg
745.864	0.887	1	test	Phase1	test/STIM_029.jpg
750.134	0.857	1	test	Phase1	test/STIM_029.jpg
754.587	0.703	1	test	Phase1	test/STIM_029.jpg
758.664	0.925	1	study	Phase2	study/STIM_000.jpg
763.489	1.271	1	study	Phase2	study/STIM_000.jpg
768.067	1.061	1	study	Phase2	study/STIM_000.jpg
771.429	1.416	1	study	Phase2	study/STIM_001.jpg
775.446	1.168	1	study	Phase2	study/STIM_001.jpg
779.128	1.0	1	study	Phase2	study/STIM_001.jpg
782.193	1.247	1	study	Phase2	study/STIM_002.jpg
785.697	1.353	1	study	Phase2	study/STIM_002.jpg
790.828	1.457	1	study	Phase2	study/STIM_002.jpg
794.53	0.975	0	study	Phase2	study/STIM_003.jpg
798.211	0.828	1	study	Phase2	study/STIM_003.jpg
802.473	0.806	1	study	Phase2	study/STIM_003.jpg
805.325	1.175	1	study	Phase2	study/STIM_004.jpg
810.497	1.544	1	study	Phase2	study/STIM_004.jpg
815.876	1.024	1	study	Phase2	study/STIM_004.jpg
819.967	1.453	0	study	Phase2	study/STIM_005.jpg
823.559	1.091	1	study	Phase2	study/STIM_005.jpg
827.76	1.338	0	study	Phase2	study/STIM_005.jpg
833.074	1.705	0	study	Phase2	study/STIM_006.jpg
837.467	1.246	1	study	Phase2	study/STIM_006.jpg
841.688	0.946	1	study	Phase2	study/STIM_006.jpg
845.362	1.171	1	study	Phase2	study/STIM_007.jpg
850.471	1.292	0	study	Phase2	study/STIM_007.jpg
854.401	1.025	1	study	Phase2	study/STIM_007.jpg
858.32	1.389	1	study	Phase2	study/STIM_008.jpg
861.917	1.403	1	study	Phase2	study/STIM_008.jpg
866.96	1.475	0	study	Phase2	study/STIM_008.jpg
871.293	1.012	1	study	Phase2	study/STIM_009.jpg
874.964	1.496	1	study	Phase2	study/STIM_009.jpg
878.866	1.185	1	study	Phase2	study/STIM_009.jpg
883.446	0.806	1	study	Phase2	study/STIM_010.jpg
886.621	1.602	1	study	Phase2	study/STIM_010.jpg
890.325	1.233	1	study	Phase2	study/STIM_010.jpg
894.207	1.422	1	study	Phase2	study/STIM_011.jpg
897.885	1.546	1	study	Phase2	study/STIM_011.jpg
903.065	1.12	0	study	Phase2	study/STIM_011.jpg
906.938	1.601	0	study	Phase2	study/STIM_012.jpg
910.953	0.944	0	study	Phase2	study/STIM_012.jpg
914.094	1.385	1	study	Phase2	study/STIM_012.jpg
919.138	1.1	1	study	Phase2	study/STIM_013.jpg
923.164	1.356	1	study	Phase2	study/STIM_013.jpg
927.801	1.322	1	study	Phase2	study/STIM_013.jpg
932.133	1.261	0	study	Phase2	study/STIM_014.jpg
936.506	1.136	1	study	Phase2	study/STIM_014.jpg
939.878	1.038	1	study	Phase2	study/STIM_014.jpg
943.736	1.226	1	study	Phase2	study/STIM_015.jpg
948.705	1.549	1	study	Phase2	study/STIM_015.jpg
953.492	0.86	1	study	Phase2	study/STIM_015.jpg
957.711	1.313	1	study	Phase2	study/STIM_016.jpg
962.652	1.328	1	study	Phase2	study/STIM_016.jpg
967.845	1.27	1	study	Phase2	study/STIM_016.jpg
971.541	1.02	1	study	Phase2	study/STIM_017.jpg
976.04	0.753	1	study	Phase2	study/STIM_017.jpg
980.309	1.092	1	study	Phase2	study/STIM_017.jpg
983.626	1.038	0	study	Phase2	study/STIM_018.jpg
988.302	1.173	0	study	Phase2	study/STIM_018.jpg
991.511	1.112	1	study	Phase2	study/STIM_018.jpg
996.156	0.966	1	study	Phase2	study/STIM_019.jpg
1000.26	1.014	1	study	Phase2	study/STIM_019.jpg
1003.523	1.086	1	study	Phase2	study/STIM_019.jpg
1007.428	1.587	1	study	Phase2	study/STIM_020.jpg
1012.816	1.347	0	study	Phase2	study/STIM_020.jpg
1016.297	1.344	1	study	Phase2	study/STIM_020.jpg
1020.02	1.586	1	study	Phase2	study/STIM_021.jpg
1025.223	1.367	0	study	Phase2	study/STIM_021.jpg
1028.802	1.236	1	study	Phase2	study/STIM_021.jpg
1032.076	1.467	1	study	Phase2	study/STIM_022.jpg
1036.861	1.136	1	study	Phase2	study/STIM_022.jpg
1041.269	1.334	0	study	Phase2	study/STIM_022.jpg
1046.385	0.934	1	study	Phase2	study/STIM_023.jpg
1050.374	0.998	1	study	Phase2	study/STIM_023.jpg
1054.809	1.272	1	study	Phase2	study/STIM_023.jpg
1059.806	1.7	1	study	Phase2	study/STIM_024.jpg
1064.306	0.932	1	study	Phase2	study/STIM_024.jpg
1067.54	1.282	1	study	Phase2	study/STIM_024.jpg
1071.407	1.611	1	study	Phase2	study/STIM_025.jpg
1075.156	0.772	1	study	Phase2	study/STIM_025.jpg
1078.351	1.418	1	study	Phase2	study/STIM_025.jpg
1082.171	0.998	1	study	Phase2	study/STIM_026.jpg
1086.913	1.001	1	study	Phase2	study/STIM_026.jpg
1091.694	1.319	1	study	Phase2	study/STIM_026.jpg
1095.57	1.42	1	study	Phase2	study/STIM_027.jpg
1100.222	0.989	0	study	Phase2	study/STIM_027.jpg
1103.495	1.231	0	study	Phase2	study/STIM_027.jpg
1108.44	1.416	0	study	Phase2	study/STIM_028.jpg
1113.424	0.972	1	study	Phase2	study/STIM_028.jpg
1117.845	1.002	1	study	Phase2	study/STIM_028.jpg
1121.559	0.842	1	study	Phase2	study/STIM_029.jpg
1124.6	1.021	1	study	Phase2	study/STIM_029.jpg
1128.5	1.326	0	study	Phase2	study/STIM_029.jpg
1132.952	0.706	1	test	Phase2	test/STIM_000.jpg
1137.501	1.058	1	test	Phase2	test/STIM_000.jpg
1141.745	0.939	1	test	Phase2	test/STIM_000.jpg
1146.201	1.009	1	test	Phase2	test/STIM_001.jpg
1151.162	0.837	1	test	Phase2	test/STIM_001.jpg
1155.073	1.353	1	test	Phase2	test/STIM_001.jpg
1159.64	1.204	0	test	Phase2	test/STIM_002.jpg
1164.765	0.717	1	test	Phase2	test/STIM_002.jpg
1168.313	0.793	1	test	Phase2	test/STIM_002.jpg
1171.125	1.032	1	test	Phase2	test/STIM_003.jpg
1174.562	1.021	1	test	Phase2	test/STIM_003.jpg
1178.893	0.797	1	test	Phase2	test/STIM_003.jpg
1183.554	1.016	1	test	Phase2	test/STIM_004.jpg
1188.453	0.778	1	test	Phase2	test/STIM_004.jpg
1191.83	1.351	1	test	Phase2	test/STIM_004.jpg
1197.162	1.275	1	test	Phase2	test/STIM_005.jpg
1201.958	1.396	1	test	Phase2	test/STIM_005.jpg
1207.181	0.954	1	test	Phase2	test/STIM_005.jpg
1210.36	1.366	1	test	Phase2	test/STIM_006.jpg
1215.517	1.018	1	test	Phase2	test/STIM_006.jpg
1219.349	0.761	1	test	Phase2	test/STIM_006.jpg
1224.107	1.163	1	test	Phase2	test/STIM_007.jpg
1228.518	1.008	1	test	Phase2	test/STIM_007.jpg
1231.929	0.687	1	test	Phase2	test/STIM_007.jpg
1236.095	0.824	1	test	Phase2	test/STIM_008.jpg
1240.322	1.102	1	test	Phase2	test/STIM_008.jpg
1244.151	1.018	1	test	Phase2	test/STIM_008.jpg
1248.262	1.074	0	test	Phase2	test/STIM_009.jpg
1252.84	0.798	1	test	Phase2	test/STIM_009.jpg
1257.151	1.219	1	test	Phase2	test/STIM_009.jpg
1261.948	1.232	0	test	Phase2	test/STIM_010.jpg
1266.97	0.783	0	test	Phase2	test/STIM_010.jpg
1271.149	1.356	1	test	Phase2	test/STIM_010.jpg
1275.628	0.681	0	test	Phase2	test/STIM_011.jpg
1278.972	1.333	1	test	Phase2	test/STIM_011.jpg
1282.428	1.019	1	test	Phase2	test/STIM_011.jpg
1285.771	0.878	1	test	Phase2	test/STIM_012.jpg
1289.676	0.741	0	test	Phase2	test/STIM_012.jpg
1292.5	0.977	1	test	Phase2	test/STIM_012.jpg
1297.143	0.96	1	test	Phase2	test/STIM_013.jpg
1301.608	1.051	0	test	Phase2	test/STIM_013.jpg
1305.02	0.891	1	test	Phase2	test/STIM_013.jpg
1309.536	1.106	0	test	Phase2	test/STIM_014.jpg
1312.833	1.062	1	test	Phase2	test/STIM_014.jpg
1317.533	1.297	1	test	Phase2	test/STIM_014.jpg
1321.725	1.351	1	test	Phase2	test/STIM_015.jpg
1325.412	0.984	1	test	Phase2	test/STIM_015.jpg
1329.18	1.188	1	test	Phase2	test/STIM_015.jpg
1332.819	0.92	0	test	Phase2	test/STIM_016.jpg
1335.907	1.212	1	test	Phase2	test/STIM_016.jpg
1340.82	0.987	1	test	Phase2	test/STIM_016.jpg
1345.143	1.106	1	test	Phase2	test/STIM_017.jpg
1349.903	1.028	1	test	Phase2	test/STIM_017.jpg
1354.523	0.777	1	test	Phase2	test/STIM_017.jpg
1358.184	1.243	1	test	Phase2	test/STIM_018.jpg
1361.802	1.266	1	test	Phase2	test/STIM_018.jpg
1366.433	0.874	1	test	Phase2	test/STIM_018.jpg
1370.222	1.312	1	test	Phase2	test/STIM_019.jpg
1373.663	1.247	0	test	Phase2	test/STIM_019.jpg
1378.158	0.949	1	test	Phase2	test/STIM_019.jpg
1381.851	0.736	1	test	Phase2	test/STIM_020.jpg
1385.943	1.198	1	test	Phase2	test/STIM_020.jpg
1390.468	0.854	0	test	Phase2	test/STIM_020.jpg
1393.989	0.796	1	test	Phase2	test/STIM_021.jpg
1396.993	1.269	0	test	Phase2	test/STIM_021.jpg
1401.632	0.759	1	test	Phase2	test/STIM_021.jpg
1404.767	1.352	1	test	Phase2	test/STIM_022.jpg
1408.149	1.165	1	test	Phase2	test/STIM_022.jpg
1413.033	1.012	1	test	Phase2	test/STIM_022.jpg
1416.953	1.346	1	test	Phase2	test/STIM_023.jpg
1421.638	1.237	1	test	Phase2	test/STIM_023.jpg
1426.55	1.399	1	test	Phase2	test/STIM_023.jpg
1430.379	0.832	1	test	Phase2	test/STIM_024.jpg
1434.871	1.182	1	test	Phase2	test/STIM_024.jpg
1438.689	1.248	1	test	Phase2	test/STIM_024.jpg
1443.185	1.098	1	test	Phase2	test/STIM_025.jpg
1448.152	0.873	1	test	Phase2	test/STIM_025.jpg
1452.107	0.744	1	test	Phase2	test/STIM_025.jpg
1456.434	1.324	1	test	Phase2	test/STIM_026.jpg
1461.18	1.383	1	test	Phase2	test/STIM_026.jpg
1464.73	0.77	1	test	Phase2	test/STIM_026.jpg
1468.626	0.81	0	test	Phase2	test/STIM_027.jpg
1472.327	1.312	1	test	Phase2	test/STIM_027.jpg
1477.341	1.275	0	test	Phase2	test/STIM_027.jpg
1482.056	1.079	1	test	Phase2	test/STIM_028.jpg
1486.104	1.051	1	test	Phase2	test/STIM_028.jpg
1490.965	0.966	1	test	Phase2	test/STIM_028.jpg
1494.345	0.961	1	test	Phase2	test/STIM_029.jpg
1497.726	0.834	1	test	Phase2	test/STIM_029.jpg
1501.709	1.08	1	test	Phase2	test/STIM_029.jpg
1506.173	1.339	0	study	Phase3	study/STIM_000.jpg
1510.858	1.087	0	study	Phase3	study/STIM_000.jpg
1515.18	0.792	1	study	Phase3	study/STIM_000.jpg
1518.017	1.072	1	study	Phase3	study/STIM_001.jpg
1522.851	1.019	1	study	Phase3	study/STIM_001.jpg
1527.718	0.889	1	study	Phase3	study/STIM_001.jpg
1532.06	0.712	1	study	Phase3	study/STIM_002.jpg
1536.406	0.994	1	study	Phase3	study/STIM_002.jpg
1541.183	1.336	1	study	Phase3	study/STIM_002.jpg
1545.266	1.329	1	study	Phase3	study/STIM_003.jpg
1550.038	0.707	1	study	Phase3	study/STIM_003.jpg
1553.908	0.758	1	study	Phase3	study/STIM_003.jpg
1557.291	1.114	1	study	Phase3	study/STIM_004.jpg
1560.573	1.039	1	study	Phase3	study/STIM_004.jpg
1563.755	0.783	1	study	Phase3	study/STIM_004.jpg
1566.74	0.696	0	study	Phase3	study/STIM_005.jpg
1569.651	0.922	0	study	Phase3	study/STIM_005.jpg
1574.452	1.004	1	study	Phase3	study/STIM_005.jpg
1578.994	1.239	1	study	Phase3	study/STIM_006.jpg
1583.645	0.67	1	study	Phase3	study/STIM_006.jpg
1587.083	1.214	1	study	Phase3	study/STIM_006.jpg
1591.747	0.769	1	study	Phase3	study/STIM_007.jpg
1595.38	1.396	1	study	Phase3	study/STIM_007.jpg
1600.409	0.703	1	study	Phase3	study/STIM_007.jpg
1603.769	1.177	1	study	Phase3	study/STIM_008.jpg
1608.201	1.234	1	study	Phase3	study/STIM_008.jpg
1612.703	1.128	1	study	Phase3	study/STIM_008.jpg
1617.02	0.801	1	study	Phase3	study/STIM_009.jpg
1621.773	1.168	1	study	Phase3	study/STIM_009.jpg
1626.015	0.712	1	study	Phase3	study/STIM_009.jpg
1630.679	1.057	1	study	Phase3	study/STIM_010.jpg
1635.644	1.322	1	study	Phase3	study/STIM_010.jpg
1639.504	0.719	1	study	Phase3	study/STIM_010.jpg
1644.063	1.015	1	study	Phase3	study/STIM_011.jpg
1648.29	0.915	1	study	Phase3	study/STIM_011.jpg
1653.044	0.815	1	study	Phase3	study/STIM_011.jpg
1656.718	1.276	1	study	Phase3	study/STIM_012.jpg
1660.24	0.98	1	study	Phase3	study/STIM_012.jpg
1664.647	1.054	0	study	Phase3	study/STIM_012.jpg
1668.361	0.717	1	study	Phase3	study/STIM_013.jpg
1672.504	1.105	1	study	Phase3	study/STIM_013.jpg
1677.282	1.007	1	study	Phase3	study/STIM_013.jpg
1681.852	1.292	1	study	Phase3	study/STIM_014.jpg
1686.502	1.215	1	study	Phase3	study/STIM_014.jpg
1690.055	0.863	1	study	Phase3	study/STIM_014.jpg
1693.296	1.238	1	study	Phase3	study/STIM_015.jpg
1697.881	1.322	1	study	Phase3	study/STIM_015.jpg
1702.895	0.893	1	study	Phase3	study/STIM_015.jpg
1707.384	1.398	1	study	Phase3	study/STIM_016.jpg
1711.578	0.714	1	study	Phase3	study/STIM_016.jpg
1715.434	1.3	1	study	Phase3	study/STIM_016.jpg
1718.792	0.668	0	study	Phase3	study/STIM_017.jpg
1721.69	1.212	1	study	Phase3	study/STIM_017.jpg
1726.028	1.255	1	study	Phase3	study/STIM_017.jpg
1730.109	1.199	1	study	Phase3	study/STIM_018.jpg
1733.889	1.116	1	study	Phase3	study/STIM_018.jpg
1738.302	1.327	1	study	Phase3	study/STIM_018.jpg
1743.488	1.222	1	study	Phase3	study/STIM_019.jpg
1746.903	0.802	1	study	Phase3	study/STIM_019.jpg
1749.772	0.707	1	study	Phase3	study/STIM_019.jpg
1752.66	0.76	1	study	Phase3	study/STIM_020.jpg
1756.253	1.271	1	study	Phase3	study/STIM_020.jpg
1761.334	1.212	1	study	Phase3	study/STIM_020.jpg
1765.951	1.218	1	study	Phase3	study/STIM_021.jpg
1770.783	0.683	1	study	Phase3	study/STIM_021.jpg
1774.426	1.259	1	study	Phase3	study/STIM_021.jpg
1778.11	1.065	1	study	Phase3	study/STIM_022.jpg
1781.342	1.21	1	study	Phase3	study/STIM_022.jpg
1784.763	0.937	1	study	Phase3	study/STIM_022.jpg
1789.354	1.125	1	study	Phase3	study/STIM_023.jpg
1793.05	0.857	1	study	Phase3	study/STIM_023.jpg
1796.135	0.742	1	study	Phase3	study/STIM_023.jpg
1800.799	0.722	1	study	Phase3	study/STIM_024.jpg
1803.999	0.647	1	study	Phase3	study/STIM_024.jpg
1807.663	0.646	1	study	Phase3	study/STIM_024.jpg
1811.381	1.205	1	study	Phase3	study/STIM_025.jpg
1814.955	0.992	1	study	Phase3	study/STIM_025.jpg
1818.541	1.132	1	study	Phase3	study/STIM_025.jpg
1822.467	1.056	1	study	Phase3	study/STIM_026.jpg
1826.789	1.322	1	study	Phase3	study/STIM_026.jpg
1831.986	1.226	1	study	Phase3	study/STIM_026.jpg
1835.283	1.046	1	study	Phase3	study/STIM_027.jpg
1839.155	0.929	1	study	Phase3	study/STIM_027.jpg
1843.897	0.832	1	study	Phase3	study/STIM_027.jpg
1848.035	0.773	1	study	Phase3	study/STIM_028.jpg
1852.14	0.903	1	study	Phase3	study/STIM_028.jpg
1855.602	1.234	1	study	Phase3	study/STIM_028.jpg
1859.69	0.832	1	study	Phase3	study/STIM_029.jpg
1864.028	1.287	1	study	Phase3	study/STIM_029.jpg
1868.906	0.971	0	study	Phase3	study/STIM_029.jpg
1871.939	1.363	1	test	Phase3	test/STIM_000.jpg
1877.034	1.276	0	test	Phase3	test/STIM_000.jpg
1880.856	1.299	0	test	Phase3	test/STIM_000.jpg
1884.377	0.684	0	test	Phase3	test/STIM_001.jpg
1887.259	1.301	1	test	Phase3	test/STIM_001.jpg
1891.065	1.144	1	test	Phase3	test/STIM_001.jpg
1895.661	1.065	1	test	Phase3	test/STIM_002.jpg
1899.365	1.26	0	test	Phase3	test/STIM_002.jpg
1904.549	1.375	1	test	Phase3	test/STIM_002.jpg
1908.081	0.95	1	test	Phase3	test/STIM_003.jpg
1911.306	1.456	1	test	Phase3	test/STIM_003.jpg
1915.392	1.362	1	test	Phase3	test/STIM_003.jpg
1919.693	1.437	1	test	Phase3	test/STIM_004.jpg
1924.536	0.735	1	test	Phase3	test/STIM_004.jpg
1927.949	1.22	1	test	Phase3	test/STIM_004.jpg
1931.768	1.1	1	test	Phase3	test/STIM_005.jpg
1936.497	1.261	1	test	Phase3	test/STIM_005.jpg
1940.492	1.39	1	test	Phase3	test/STIM_005.jpg
1944.451	1.305	1	test	Phase3	test/STIM_006.jpg
1948.009	0.762	0	test	Phase3	test/STIM_006.jpg
1951.347	1.192	0	test	Phase3	test/STIM_006.jpg
1955.652	0.853	0	test	Phase3	test/STIM_007.jpg
1960.052	1.307	0	test	Phase3	test/STIM_007.jpg
1963.382	0.895	1	test	Phase3	test/STIM_007.jpg
1967.659	1.264	1	test	Phase3	test/STIM_008.jpg
1972.501	1.007	1	test	Phase3	test/STIM_008.jpg
1975.637	1.007	1	test	Phase3	test/STIM_008.jpg
1979.867	0.968	1	test	Phase3	test/STIM_009.jpg
1983.31	0.777	1	test	Phase3	test/STIM_009.jpg
1987.333	1.126	0	test	Phase3	test/STIM_009.jpg
1991.194	1.275	1	test	Phase3	test/STIM_010.jpg
1995.349	0.993	1	test	Phase3	test/STIM_010.jpg
1999.683	1.11	1	test	Phase3	test/STIM_010.jpg
2003.961	0.898	1	test	Phase3	test/STIM_011.jpg
2008.829	1.239	1	test	Phase3	test/STIM_011.jpg
2012.754	0.906	1	test	Phase3	test/STIM_011.jpg
2016.883	1.307	1	test	Phase3	test/STIM_012.jpg
2022.006	0.718	1	test	Phase3	test/STIM_012.jpg
2024.752	0.816	1	test	Phase3	test/STIM_012.jpg
2027.726	0.786	1	test	Phase3	test/STIM_013.jpg
2031.932	0.991	1	test	Phase3	test/STIM_013.jpg
2036.493	1.058	1	test	Phase3	test/STIM_013.jpg
2040.273	1.068	1	test	Phase3	test/STIM_014.jpg
2044.978	1.277	1	test	Phase3	test/STIM_014.jpg
2049.713	1.266	0	test	Phase3	test/STIM_014.jpg
2054.716	1.109	1	test	Phase3	test/STIM_015.jpg
2059.227	0.802	1	test	Phase3	test/STIM_015.jpg
2063.902	0.904	1	test	Phase3	test/STIM_015.jpg
2066.871	1.272	1	test	Phase3	test/STIM_016.jpg
2071.491	0.784	1	test	Phase3	test/STIM_016.jpg
2074.787	1.209	1	test	Phase3	test/STIM_016.jpg
2079.304	0.711	1	test	Phase3	test/STIM_017.jpg
2083.606	1.044	0	test	Phase3	test/STIM_017.jpg
2087.335	1.4	1	test	Phase3	test/STIM_017.jpg
2092.132	1.398	1	test	Phase3	test/STIM_018.jpg
2096.79	1.21	1	test	Phase3	test/STIM_018.jpg
2100.854	0.986	1	test	Phase3	test/STIM_018.jpg
2104.037	1.073	0	test	Phase3	test/STIM_019.jpg
2107.256	1.429	1	test	Phase3	test/STIM_019.jpg
2111.335	1.291	0	test	Phase3	test/STIM_019.jpg
2115.556	0.847	1	test	Phase3	test/STIM_020.jpg
2118.685	1.297	0	test	Phase3	test/STIM_020.jpg
2123.369	1.094	1	test	Phase3	test/STIM_020.jpg
2126.711	0.934	1	test	Phase3	test/STIM_021.jpg
2131.267	0.694	1	test	Phase3	test/STIM_021.jpg
2135.474	0.935	1	test	Phase3	test/STIM_021.jpg
2139.534	1.183	1	test	Phase3	test/STIM_022.jpg
2144.58	0.688	1	test	Phase3	test/STIM_022.jpg
2147.72	1.451	1	test	Phase3	test/STIM_022.jpg
2152.921	0.797	0	test	Phase3	test/STIM_023.jpg
2157.275	1.336	1	test	Phase3	test/STIM_023.jpg
2161.093	1.362	1	test	Phase3	test/STIM_023.jpg
2165.139	1.035	1	test	Phase3	test/STIM_024.jpg
2169.334	1.111	1	test	Phase3	test/STIM_024.jpg
2173.688	0.984	1	test	Phase3	test/STIM_024.jpg
2177.342	1.09	0	test	Phase3	test/STIM_025.jpg
2181.077	1.086	1	test	Phase3	test/STIM_025.jpg
2184.361	1.297	1	test	Phase3	test/STIM_025.jpg
2188.22	1.272	1	test	Phase3	test/STIM_026.jpg
2192.539	1.297	1	test	Phase3	test/STIM_026.jpg
2195.889	1.095	1	test	Phase3	test/STIM_026.jpg
2199.201	0.695	1	test	Phase3	test/STIM_027.jpg
2202.431	0.958	1	test	Phase3	test/STIM_027.jpg
2205.582	1.154	1	test	Phase3	test/STIM_027.jpg
2209.32	1.027	1	test	Phase3	test/STIM_028.jpg
2213.737	1.348	1	test	Phase3	test/STIM_028.jpg
2217.094	0.75	0	test	Phase3	test/STIM_028.jpg
2221.548	0.858	1	test	Phase3	test/STIM_029.jpg
2224.626	0.729	1	test	Phase3	test/STIM_029.jpg
2227.679	1.036	1	test	Phase3	test/STIM_029.jpg
