onset	duration	response_time_ms	trial_type	learning_stage	stimulus	response_port
0.0	0.86	860.4	study	Phase1	study/STIM_000.jpg	100
3.936	1.536	1535.6	study	Phase1	study/STIM_000.jpg	100
9.263	1.087	1087.2	study	Phase1	study/STIM_000.jpg	99
13.495	1.742	1742.1	study	Phase1	study/STIM_001.jpg	100
18.044	1.359	1358.6	study	Phase1	study/STIM_001.jpg	99
23.368	1.42	1419.5	study	Phase1	study/STIM_001.jpg	100
28.537	1.31	1310.0	study	Phase1	study/STIM_002.jpg	99
32.395	1.562	1561.8	study	Phase1	study/STIM_002.jpg	100
37.29	0.793	793.0	study	Phase1	study/STIM_002.jpg	99
41.179	1.668	1668.4	study	Phase1	study/STIM_003.jpg	99
45.477	1.673	1673.0	study	Phase1	study/STIM_003.jpg	100
51.069	1.646	1645.9	study	Phase1	study/STIM_003.jpg	100
54.933	1.06	1060.4	study	Phase1	study/STIM_004.jpg	100
59.274	1.135	1134.7	study	Phase1	study/STIM_004.jpg	100
63.333	1.252	1252.3	study	Phase1	study/STIM_004.jpg	99
67.406	1.471	1470.7	study	Phase1	study/STIM_005.jpg	100
71.844	1.101	1100.7	study	Phase1	study/STIM_005.jpg	100
74.994	1.459	1458.6	study	Phase1	study/STIM_005.jpg	100
78.758	0.992	992.5	study	Phase1	study/STIM_006.jpg	100
82.233	0.96	960.5	study	Phase1	study/STIM_006.jpg	99
86.425	1.368	1367.7	study	Phase1	study/STIM_006.jpg	100
90.851	1.376	1376.5	study	Phase1	study/STIM_007.jpg	100
95.574	1.472	1472.0	study	Phase1	study/STIM_007.jpg	100
99.238	1.206	1206.5	study	Phase1	study/STIM_007.jpg	99
103.923	1.623	1623.3	study	Phase1	study/STIM_008.jpg	100
107.741	1.591	1591.2	study	Phase1	study/STIM_008.jpg	99
112.04	1.115	1115.1	study	Phase1	study/STIM_008.jpg	100
117.114	1.583	1583.0	study	Phase1	study/STIM_009.jpg	100
121.069	1.272	1271.7	study	Phase1	study/STIM_009.jpg	99
124.398	0.841	840.9	study	Phase1	study/STIM_009.jpg	100
128.985	1.615	1614.8	study	Phase1	study/STIM_010.jpg	99
134.129	1.287	1286.7	study	Phase1	study/STIM_010.jpg	100
137.955	0.848	847.8	study	Phase1	study/STIM_010.jpg	99
141.658	1.133	1133.1	study	Phase1	study/STIM_011.jpg	99
146.528	1.198	1197.8	study	Phase1	study/STIM_011.jpg	100
149.884	0.937	936.9	study	Phase1	study/STIM_011.jpg	99
154.402	1.694	1694.3	study	Phase1	study/STIM_012.jpg	99
159.117	1.702	1702.4	study	Phase1	study/STIM_012.jpg	100
163.733	0.863	862.6	study	Phase1	study/STIM_012.jpg	100
168.363	1.722	1721.6	study	Phase1	study/STIM_013.jpg	100
173.68	0.784	784.5	study	Phase1	study/STIM_013.jpg	99
177.277	1.609	1609.1	study	Phase1	study/STIM_013.jpg	99
182.453	0.932	931.6	study	Phase1	study/STIM_014.jpg	100
186.274	1.261	1260.7	study	Phase1	study/STIM_014.jpg	99
189.944	0.904	903.7	study	Phase1	study/STIM_014.jpg	99
194.496	1.503	1503.0	study	Phase1	study/STIM_015.jpg	99
199.402	0.884	884.2	study	Phase1	study/STIM_015.jpg	99
203.943	0.766	766.4	study	Phase1	study/STIM_015.jpg	99
207.795	1.206	1206.5	study	Phase1	study/STIM_016.jpg	100
211.304	1.597	1597.2	study	Phase1	study/STIM_016.jpg	99
216.792	0.919	919.0	study	Phase1	study/STIM_016.jpg	100
220.803	1.204	1203.9	study	Phase1	study/STIM_017.jpg	99
224.046	1.526	1526.1	study	Phase1	study/STIM_017.jpg	100
229.206	1.561	1560.8	study	Phase1	study/STIM_017.jpg	100
234.078	1.41	1409.8	study	Phase1	study/STIM_018.jpg	100
237.503	1.717	1716.8	study	Phase1	study/STIM_018.jpg	100
242.007	1.384	1384.3	study	Phase1	study/STIM_018.jpg	100
245.589	1.738	1738.3	study	Phase1	study/STIM_019.jpg	100
249.555	1.629	1629.3	study	Phase1	study/STIM_019.jpg	100
254.459	1.527	1527.4	study	Phase1	study/STIM_019.jpg	100
257.963	1.486	1486.0	study	Phase1	study/STIM_020.jpg	99
262.469	1.077	1077.2	study	Phase1	study/STIM_020.jpg	100
265.553	1.216	1216.1	study	Phase1	study/STIM_020.jpg	100
268.835	1.089	1089.1	study	Phase1	study/STIM_021.jpg	99
272.414	1.239	1238.9	study	Phase1	study/STIM_021.jpg	100
276.197	1.239	1239.4	study	Phase1	study/STIM_021.jpg	100
279.774	1.735	1734.7	study	Phase1	study/STIM_022.jpg	100
285.025	1.363	1362.6	study	Phase1	study/STIM_022.jpg	100
289.503	1.131	1131.2	study	Phase1	study/STIM_022.jpg	100
293.738	1.515	1515.1	study	Phase1	study/STIM_023.jpg	100
298.311	1.569	1568.7	study	Phase1	study/STIM_023.jpg	100
302.349	1.604	1604.2	study	Phase1	study/STIM_023.jpg	99
307.18	1.448	1447.8	study	Phase1	study/STIM_024.jpg	99
311.547	1.536	1536.3	study	Phase1	study/STIM_024.jpg	99
315.874	0.936	935.7	study	Phase1	study/STIM_024.jpg	99
320.235	1.534	1533.9	study	Phase1	study/STIM_025.jpg	99
325.638	1.413	1412.9	study	Phase1	study/STIM_025.jpg	100
330.143	1.334	1334.2	study	Phase1	study/STIM_025.jpg	99
335.047	1.253	1253.2	study	Phase1	study/STIM_026.jpg	99
339.776	1.635	1635.2	study	Phase1	study/STIM_026.jpg	99
345.218	1.253	1253.2	study	Phase1	study/STIM_026.jpg	100
349.293	1.252	1252.4	study	Phase1	study/STIM_027.jpg	100
353.89	1.599	1599.3	study	Phase1	study/STIM_027.jpg	100
358.986	0.873	872.6	study	Phase1	study/STIM_027.jpg	99
363.316	1.23	1230.1	study	Phase1	study/STIM_028.jpg	99
368.145	0.998	997.6	study	Phase1	study/STIM_028.jpg	99
371.627	0.973	973.2	study	Phase1	study/STIM_028.jpg	99
375.275	1.504	1503.5	study	Phase1	study/STIM_029.jpg	99
379.824	1.53	1529.8	study	Phase1	study/STIM_029.jpg	99
384.62	1.089	1089.4	study	Phase1	study/STIM_029.jpg	99
387.995	1.021	1020.8	test	Phase1	test/STIM_000.jpg	99
391.251	0.802	802.4	test	Phase1	test/STIM_000.jpg	100
395.086	0.657	656.8	test	Phase1	test/STIM_000.jpg	100
398.295	1.191	1191.1	test	Phase1	test/STIM_001.jpg	99
402.42	0.781	781.3	test	Phase1	test/STIM_001.jpg	100
407.087	1.156	1156.2	test	Phase1	test/STIM_001.jpg	99
411.792	1.135	1134.8	test	Phase1	test/STIM_002.jpg	99
415.062	0.754	753.6	test	Phase1	test/STIM_002.jpg	100
418.11	1.183	1183.4	test	Phase1	test/STIM_002.jpg	99
422.711	1.26	1260.5	test	Phase1	test/STIM_003.jpg	100
427.015	0.619	618.6	test	Phase1	test/STIM_003.jpg	99
431.186	0.685	684.8	test	Phase1	test/STIM_003.jpg	99
435.794	0.826	825.9	test	Phase1	test/STIM_004.jpg	100
440.094	0.752	752.2	test	Phase1	test/STIM_004.jpg	99
443.498	0.883	882.6	test	Phase1	test/STIM_004.jpg	99
446.686	1.311	1310.7	test	Phase1	test/STIM_005.jpg	100
451.861	0.829	829.3	test	Phase1	test/STIM_005.jpg	99
456.666	0.785	785.1	test	Phase1	test/STIM_005.jpg	99
459.478	0.769	769.2	test	Phase1	test/STIM_006.jpg	100
463.737	1.112	1111.9	test	Phase1	test/STIM_006.jpg	100
466.825	0.763	762.7	test	Phase1	test/STIM_006.jpg	99
469.596	1.033	1033.2	test	Phase1	test/STIM_007.jpg	100
473.768	1.183	1182.6	test	Phase1	test/STIM_007.jpg	99
477.786	1.048	1048.1	test	Phase1	test/STIM_007.jpg	99
481.889	0.892	892.2	test	Phase1	test/STIM_008.jpg	99
485.435	1.04	1040.0	test	Phase1	test/STIM_008.jpg	99
489.136	0.877	877.2	test	Phase1	test/STIM_008.jpg	99
492.807	1.124	1123.6	test	Phase1	test/STIM_009.jpg	99
496.925	0.738	738.1	test	Phase1	test/STIM_009.jpg	100
500.612	1.123	1122.7	test	Phase1	test/STIM_009.jpg	99
504.746	0.903	902.7	test	Phase1	test/STIM_010.jpg	99
509.339	0.646	646.0	test	Phase1	test/STIM_010.jpg	99
512.698	0.854	853.8	test	Phase1	test/STIM_010.jpg	99
517.343	1.245	1244.6	test	Phase1	test/STIM_011.jpg	100
522.099	0.691	691.0	test	Phase1	test/STIM_011.jpg	100
526.594	1.009	1009.2	test	Phase1	test/STIM_011.jpg	99
529.752	0.72	719.5	test	Phase1	test/STIM_012.jpg	100
533.734	0.799	799.4	test	Phase1	test/STIM_012.jpg	100
537.711	1.182	1182.2	test	Phase1	test/STIM_012.jpg	99
540.942	1.083	1083.3	test	Phase1	test/STIM_013.jpg	100
544.671	0.616	616.0	test	Phase1	test/STIM_013.jpg	99
548.822	0.772	772.4	test	Phase1	test/STIM_013.jpg	99
552.971	1.038	1037.8	test	Phase1	test/STIM_014.jpg	100
556.799	1.24	1239.5	test	Phase1	test/STIM_014.jpg	99
560.317	1.178	1177.9	test	Phase1	test/STIM_014.jpg	99
565.367	0.668	668.0	test	Phase1	test/STIM_015.jpg	100
568.261	0.816	816.4	test	Phase1	test/STIM_015.jpg	100
571.338	0.685	684.9	test	Phase1	test/STIM_015.jpg	100
575.447	0.701	701.1	test	Phase1	test/STIM_016.jpg	100
579.8	0.678	677.5	test	Phase1	test/STIM_016.jpg	99
584.147	0.86	860.2	test	Phase1	test/STIM_016.jpg	99
587.771	1.262	1262.5	test	Phase1	test/STIM_017.jpg	100
592.43	0.616	615.7	test	Phase1	test/STIM_017.jpg	100
595.219	0.641	641.0	test	Phase1	test/STIM_017.jpg	100
598.867	0.946	945.5	test	Phase1	test/STIM_018.jpg	100
602.859	0.805	805.0	test	Phase1	test/STIM_018.jpg	100
606.062	0.94	939.6	test	Phase1	test/STIM_018.jpg	99
610.002	1.226	1226.0	test	Phase1	test/STIM_019.jpg	100
613.602	0.983	982.6	test	Phase1	test/STIM_019.jpg	99
617.544	0.686	685.6	test	Phase1	test/STIM_019.jpg	99
620.906	0.627	627.2	test	Phase1	test/STIM_020.jpg	100
624.886	0.667	667.3	test	Phase1	test/STIM_020.jpg	99
628.496	0.976	975.8	test	Phase1	test/STIM_020.jpg	99
632.713	0.683	682.6	test	Phase1	test/STIM_021.jpg	100
636.394	1.154	1153.8	test	Phase1	test/STIM_021.jpg	99
641.162	1.17	1169.8	test	Phase1	test/STIM_021.jpg	99
646.056	1.306	1305.5	test	Phase1	test/STIM_022.jpg	100
650.973	0.82	820.2	test	Phase1	test/STIM_022.jpg	100
655.109	1.182	1182.4	test	Phase1	test/STIM_022.jpg	99
660.131	0.923	923.2	test	Phase1	test/STIM_023.jpg	99
664.577	1.284	1283.6	test	Phase1	test/STIM_023.jpg	99
668.555	0.63	629.7	test	Phase1	test/STIM_023.jpg	100
672.937	1.22	1220.5	test	Phase1	test/STIM_024.jpg	100
676.433	1.078	1077.7	test	Phase1	test/STIM_024.jpg	100
680.746	0.723	723.2	test	Phase1	test/STIM_024.jpg	100
683.524	1.311	1311.0	test	Phase1	test/STIM_025.jpg	99
688.791	1.045	1045.1	test	Phase1	test/STIM_025.jpg	99
692.58	0.696	696.1	test	Phase1	test/STIM_025.jpg	100
696.242	0.876	876.5	test	Phase1	test/STIM_026.jpg	99
699.101	0.958	958.4	test	Phase1	test/STIM_026.jpg	99
702.044	1.137	1137.2	test	Phase1	test/STIM_026.jpg	99
706.845	1.164	1163.7	test	Phase1	test/STIM_027.jpg	99
711.128	1.158	1158.5	test	Phase1	test/STIM_027.jpg	100
715.348	0.651	651.4	test	Phase1	test/STIM_027.jpg	99
719.747	0.898	898.3	test	Phase1	test/STIM_028.jpg	100
724.578	0.942	942.3	test	Phase1	test/STIM_028.jpg	100
729.49	1.104	1103.6	test	Phase1	test/STIM_028.jpg	99
733.886	1.182	1182.5	test	Phase1	test/STIM_029.jpg	99
737.439	0.641	641.3	test	Phase1	test/STIM_029.jpg	100
741.582	0.905	904.7	test	Phase1	test/STIM_029.jpg	100
745.076	1.553	1553.2	study	Phase2	study/STIM_000.jpg	99
749.742	1.149	1149.2	study	Phase2	study/STIM_000.jpg	99
752.885	0.816	816.3	study	Phase2	study/STIM_000.jpg	99
756.735	0.755	755.0	study	Phase2	study/STIM_001.jpg	99
759.74	1.128	1128.0	study	Phase2	study/STIM_001.jpg	99
763.839	0.651	650.6	study	Phase2	study/STIM_001.jpg	99
767.032	0.95	949.6	study	Phase2	study/STIM_002.jpg	100
770.496	1.133	1133.0	study	Phase2	study/STIM_002.jpg	100
774.484	0.702	701.9	study	Phase2	study/STIM_002.jpg	100
778.214	1.533	1533.3	study	Phase2	study/STIM_003.jpg	100
783.445	0.756	755.9	study	Phase2	study/STIM_003.jpg	99
787.876	1.221	1221.0	study	Phase2	study/STIM_003.jpg	99
793.055	1.498	1497.6	study	Phase2	study/STIM_004.jpg	99
796.988	0.967	967.2	study	Phase2	study/STIM_004.jpg	100
801.23	1.159	1158.6	study	Phase2	study/STIM_004.jpg	100
804.936	1.511	1511.0	study	Phase2	study/STIM_005.jpg	99
809.805	0.695	694.8	study	Phase2	study/STIM_005.jpg	99
814.381	1.221	1221.3	study	Phase2	study/STIM_005.jpg	100
819.367	0.876	875.7	study	Phase2	study/STIM_006.jpg	100
823.107	1.348	1347.6	study	Phase2	study/STIM_006.jpg	99
827.722	0.663	663.3	study	Phase2	study/STIM_006.jpg	99
830.603	1.298	1298.4	study	Phase2	study/STIM_007.jpg	99
834.898	0.921	920.8	study	Phase2	study/STIM_007.jpg	99
839.224	0.956	955.8	study	Phase2	study/STIM_007.jpg	99
843.054	0.972	971.7	study	Phase2	study/STIM_008.jpg	100
846.331	1.414	1414.5	study	Phase2	study/STIM_008.jpg	100
850.643	1.173	1173.1	study	Phase2	study/STIM_008.jpg	99
854.177	0.828	828.0	study	Phase2	study/STIM_009.jpg	100
858.159	1.242	1242.1	study	Phase2	study/STIM_009.jpg	99
861.543	1.132	1132.4	study	Phase2	study/STIM_009.jpg	100
865.977	1.442	1442.2	study	Phase2	study/STIM_010.jpg	100
871.02	0.713	713.2	study	Phase2	study/STIM_010.jpg	99
875.597	0.965	964.9	study	Phase2	study/STIM_010.jpg	99
879.266	1.438	1438.1	study	Phase2	study/STIM_011.jpg	99
883.723	1.359	1359.1	study	Phase2	study/STIM_011.jpg	99
888.074	1.095	1095.0	study	Phase2	study/STIM_011.jpg	99
893.008	0.724	724.2	study	Phase2	study/STIM_012.jpg	99
896.505	1.292	1292.2	study	Phase2	study/STIM_012.jpg	100
901.481	0.834	833.5	study	Phase2	study/STIM_012.jpg	99
904.789	0.848	848.0	study	Phase2	study/STIM_013.jpg	100
908.102	1.162	1161.9	study	Phase2	study/STIM_013.jpg	99
912.245	0.917	917.1	study	Phase2	study/STIM_013.jpg	99
915.29	1.331	1330.9	study	Phase2	study/STIM_014.jpg	100
920.469	1.435	1435.3	study	Phase2	study/STIM_014.jpg	99
924.572	0.922	922.3	study	Phase2	study/STIM_014.jpg	100
928.839	1.163	1162.8	study	Phase2	study/STIM_015.jpg	99
933.02	0.756	755.7	study	Phase2	study/STIM_015.jpg	99
936.787	1.088	1087.9	study	Phase2	study/STIM_015.jpg	99
941.335	1.114	1114.2	study	Phase2	study/STIM_016.jpg	99
945.76	0.749	748.7	study	Phase2	study/STIM_016.jpg	99
949.98	0.977	977.4	study	Phase2	study/STIM_016.jpg	99
953.959	1.477	1477.1	study	Phase2	study/STIM_017.jpg	99
958.093	1.337	1337.0	study	Phase2	study/STIM_017.jpg	100
961.615	0.956	956.0	study	Phase2	study/STIM_017.jpg	100
965.197	1.426	1426.0	study	Phase2	study/STIM_018.jpg	100
969.403	1.057	1056.7	study	Phase2	study/STIM_018.jpg	100
974.208	0.855	855.4	study	Phase2	study/STIM_018.jpg	100
978.71	1.376	1376.1	study	Phase2	study/STIM_019.jpg	100
982.781	1.117	1117.3	study	Phase2	study/STIM_019.jpg	99
986.742	0.62	620.5	study	Phase2	study/STIM_019.jpg	100
991.089	0.706	706.2	study	Phase2	study/STIM_020.jpg	100
995.635	1.304	1304.0	study	Phase2	study/STIM_020.jpg	100
999.521	1.176	1175.6	study	Phase2	study/STIM_020.jpg	100
1004.262	0.842	841.9	study	Phase2	study/STIM_021.jpg	100
1008.596	0.994	994.5	study	Phase2	study/STIM_021.jpg	100
1011.958	1.116	1116.3	study	Phase2	study/STIM_021.jpg	100
1016.571	1.17	1169.5	study	Phase2	study/STIM_022.jpg	99
1019.853	1.202	1201.5	study	Phase2	study/STIM_022.jpg	100
1023.269	0.735	735.2	study	Phase2	study/STIM_022.jpg	99
1027.355	1.122	1121.5	study	Phase2	study/STIM_023.jpg	99
1031.375	0.994	993.8	study	Phase2	study/STIM_023.jpg	99
1034.665	0.833	833.0	study	Phase2	study/STIM_023.jpg	100
1039.151	1.568	1568.3	study	Phase2	study/STIM_024.jpg	100
1042.777	1.043	1043.2	study	Phase2	study/STIM_024.jpg	100
1046.346	0.677	676.9	study	Phase2	study/STIM_024.jpg	100
1049.87	0.851	850.8	study	Phase2	study/STIM_025.jpg	99
1054.234	1.334	1334.3	study	Phase2	study/STIM_025.jpg	99
1057.552	1.325	1325.3	study	Phase2	study/STIM_025.jpg	99
1061.932	1.485	1484.7	study	Phase2	study/STIM_026.jpg	100
1066.415	1.221	1221.3	study	Phase2	study/STIM_026.jpg	99
1071.305	1.032	1031.8	study	Phase2	study/STIM_026.jpg	99
1075.97	1.313	1313.2	study	Phase2	study/STIM_027.jpg	100
1080.246	1.223	1222.7	study	Phase2	study/STIM_027.jpg	100
1083.962	1.192	1191.5	study	Phase2	study/STIM_027.jpg	99
1087.596	1.089	1089.0	study	Phase2	study/STIM_028.jpg	99
1091.014	0.732	731.6	study	Phase2	study/STIM_028.jpg	99
1094.18	1.098	1097.5	study	Phase2	study/STIM_028.jpg	100
1098.26	1.163	1163.3	study	Phase2	study/STIM_029.jpg	99
1102.988	0.801	801.0	study	Phase2	study/STIM_029.jpg	99
1105.997	1.15	1150.4	study	Phase2	study/STIM_029.jpg	100
1110.708	1.137	1136.9	test	Phase2	test/STIM_000.jpg	100
1114.021	1.047	1047.4	test	Phase2	test/STIM_000.jpg	100
1117.784	0.758	758.2	test	Phase2	test/STIM_000.jpg	99
1121.005	0.734	734.3	test	Phase2	test/STIM_001.jpg	99
1124.702	1.102	1101.6	test	Phase2	test/STIM_001.jpg	100
1129.226	1.083	1083.0	test	Phase2	test/STIM_001.jpg	100
1134.091	0.78	780.0	test	Phase2	test/STIM_002.jpg	100
1136.927	1.327	1326.7	test	Phase2	test/STIM_002.jpg	99
1140.96	1.057	1056.6	test	Phase2	test/STIM_002.jpg	99
1145.679	0.958	958.4	test	Phase2	test/STIM_003.jpg	100
1149.574	0.7	700.0	test	Phase2	test/STIM_003.jpg	99
1152.59	0.88	880.0	test	Phase2	test/STIM_003.jpg	100
1156.205	1.306	1306.3	test	Phase2	test/STIM_004.jpg	99
1160.606	1.073	1073.1	test	Phase2	test/STIM_004.jpg	100
1164.074	0.815	814.7	test	Phase2	test/STIM_004.jpg	100
1167.759	0.676	676.3	test	Phase2	test/STIM_005.jpg	99
1172.121	0.896	895.6	test	Phase2	test/STIM_005.jpg	100
1176.048	0.841	840.7	test	Phase2	test/STIM_005.jpg	99
1180.391	0.788	788.1	test	Phase2	test/STIM_006.jpg	99
1183.335	1.103	1103.2	test	Phase2	test/STIM_006.jpg	99
1187.598	0.865	865.1	test	Phase2	test/STIM_006.jpg	99
1192.257	0.616	615.6	test	Phase2	test/STIM_007.jpg	100
1196.645	0.79	790.5	test	Phase2	test/STIM_007.jpg	99
1200.195	1.298	1297.6	test	Phase2	test/STIM_007.jpg	100
1205.355	0.809	809.0	test	Phase2	test/STIM_008.jpg	99
1208.694	0.985	985.4	test	Phase2	test/STIM_008.jpg	100
1211.832	0.828	827.5	test	Phase2	test/STIM_008.jpg	100
1214.756	0.785	785.1	test	Phase2	test/STIM_009.jpg	100
1218.111	0.635	635.1	test	Phase2	test/STIM_009.jpg	100
1221.2	0.887	886.8	test	Phase2	test/STIM_009.jpg	100
1224.767	0.984	983.6	test	Phase2	test/STIM_010.jpg	99
1228.642	0.687	686.8	test	Phase2	test/STIM_010.jpg	99
1233.223	0.755	755.4	test	Phase2	test/STIM_010.jpg	100
1236.463	0.65	650.4	test	Phase2	test/STIM_011.jpg	99
1239.859	1.171	1170.9	test	Phase2	test/STIM_011.jpg	99
1243.226	1.007	1006.7	test	Phase2	test/STIM_011.jpg	99
1246.305	0.917	917.2	test	Phase2	test/STIM_012.jpg	100
1251.165	1.116	1116.1	test	Phase2	test/STIM_012.jpg	100
1254.815	1.036	1036.0	test	Phase2	test/STIM_012.jpg	99
1258.281	0.781	780.6	test	Phase2	test/STIM_013.jpg	100
1262.194	1.287	1287.4	test	Phase2	test/STIM_013.jpg	99
1266.305	0.871	871.2	test	Phase2	test/STIM_013.jpg	99
1269.867	0.927	927.4	test	Phase2	test/STIM_014.jpg	100
1272.827	1.004	1004.0	test	Phase2	test/STIM_014.jpg	100
1276.066	1.046	1046.1	test	Phase2	test/STIM_014.jpg	100
1280.11	0.794	793.5	test	Phase2	test/STIM_015.jpg	99
1283.439	0.723	722.8	test	Phase2	test/STIM_015.jpg	99
1286.482	1.29	1290.0	test	Phase2	test/STIM_015.jpg	99
1291.023	1.163	1163.1	test	Phase2	test/STIM_016.jpg	99
1295.171	0.865	865.4	test	Phase2	test/STIM_016.jpg	100
1299.813	1.045	1045.0	test	Phase2	test/STIM_016.jpg	100
1304.322	0.684	683.5	test	Phase2	test/STIM_017.jpg	100
1307.112	0.957	956.8	test	Phase2	test/STIM_017.jpg	99
1311.051	0.93	930.2	test	Phase2	test/STIM_017.jpg	99
1314.141	1.065	1064.6	test	Phase2	test/STIM_018.jpg	100
1317.941	1.143	1143.1	test	Phase2	test/STIM_018.jpg	100
1322.802	1.104	1103.7	test	Phase2	test/STIM_018.jpg	100
1326.309	0.645	644.7	test	Phase2	test/STIM_019.jpg	99
1329.345	0.653	653.1	test	Phase2	test/STIM_019.jpg	100
1333.688	0.803	803.4	test	Phase2	test/STIM_019.jpg	100
1337.111	0.929	929.2	test	Phase2	test/STIM_020.jpg	99
1341.003	0.703	703.2	test	Phase2	test/STIM_020.jpg	99
1345.316	0.666	665.9	test	Phase2	test/STIM_020.jpg	100
1349.441	0.934	934.0	test	Phase2	test/STIM_021.jpg	100
1352.84	0.812	811.9	test	Phase2	test/STIM_021.jpg	100
1356.708	0.856	855.9	test	Phase2	test/STIM_021.jpg	99
1359.752	1.33	1329.5	test	Phase2	test/STIM_022.jpg	99
1364.696	0.932	931.9	test	Phase2	test/STIM_022.jpg	100
1368.003	1.01	1010.4	test	Phase2	test/STIM_022.jpg	100
1371.918	0.816	816.3	test	Phase2	test/STIM_023.jpg	99
1375.128	0.803	802.7	test	Phase2	test/STIM_023.jpg	100
1379.572	0.621	620.9	test	Phase2	test/STIM_023.jpg	99
1383.266	0.683	683.0	test	Phase2	test/STIM_024.jpg	99
1386.076	0.937	937.4	test	Phase2	test/STIM_024.jpg	100
1390.342	0.7	700.2	test	Phase2	test/STIM_024.jpg	100
1393.054	0.783	783.3	test	Phase2	test/STIM_025.jpg	99
1396.01	1.306	1305.5	test	Phase2	test/STIM_025.jpg	100
1400.856	1.078	1077.7	test	Phase2	test/STIM_025.jpg	100
1405.628	0.956	955.8	test	Phase2	test/STIM_026.jpg	99
1410.156	1.114	1114.4	test	Phase2	test/STIM_026.jpg	99
1413.902	1.092	1092.2	test	Phase2	test/STIM_026.jpg	100
1418.197	0.832	832.1	test	Phase2	test/STIM_027.jpg	99
1421.718	0.874	874.0	test	Phase2	test/STIM_027.jpg	99
1425.752	0.926	926.4	test	Phase2	test/STIM_027.jpg	100
1430.383	0.674	674.1	test	Phase2	test/STIM_028.jpg	100
1434.465	0.93	929.7	test	Phase2	test/STIM_028.jpg	100
1438.25	1.242	1241.5	test	Phase2	test/STIM_028.jpg	99
1442.19	1.148	1148.1	test	Phase2	test/STIM_029.jpg	99
1447.138	1.173	1173.4	test	Phase2	test/STIM_029.jpg	99
1450.982	0.965	964.7	test	Phase2	test/STIM_029.jpg	99
1454.624	1.094	1094.3	study	Phase3	study/STIM_000.jpg	100
1457.708	0.967	966.8	study	Phase3	study/STIM_000.jpg	99
1461.377	1.285	1284.9	study	Phase3	study/STIM_000.jpg	100
1466.416	0.586	585.6	study	Phase3	study/STIM_001.jpg	100
1469.901	0.966	966.5	study	Phase3	study/STIM_001.jpg	99
1473.455	1.193	1192.6	study	Phase3	study/STIM_001.jpg	100
1477.213	0.608	608.1	study	Phase3	study/STIM_002.jpg	99
1481.674	0.917	916.8	study	Phase3	study/STIM_002.jpg	99
1485.009	1.117	1117.2	study	Phase3	study/STIM_002.jpg	100
1489.154	0.803	803.0	study	Phase3	study/STIM_003.jpg	100
1493.375	0.984	983.8	study	Phase3	study/STIM_003.jpg	100
1497.976	0.7	700.3	study	Phase3	study/STIM_003.jpg	99
1502.547	0.844	844.2	study	Phase3	study/STIM_004.jpg	99
1506.215	0.979	978.9	study	Phase3	study/STIM_004.jpg	100
1509.899	0.812	812.2	study	Phase3	study/STIM_004.jpg	100
1513.927	1.187	1186.6	study	Phase3	study/STIM_005.jpg	99
1517.407	1.149	1148.6	study	Phase3	study/STIM_005.jpg	99
1521.406	0.936	936.5	study	Phase3	study/STIM_005.jpg	100
1524.62	0.957	957.1	study	Phase3	study/STIM_006.jpg	100
1529.2	0.922	922.5	study	Phase3	study/STIM_006.jpg	99
1533.573	0.741	741.1	study	Phase3	study/STIM_006.jpg	99
1537.522	0.671	670.7	study	Phase3	study/STIM_007.jpg	99
1541.913	0.699	699.3	study	Phase3	study/STIM_007.jpg	99
1545.589	1.213	1213.4	study	Phase3	study/STIM_007.jpg	100
1549.922	0.7	699.5	study	Phase3	study/STIM_008.jpg	99
1553.953	1.261	1261.4	study	Phase3	study/STIM_008.jpg	100
1557.844	0.921	921.0	study	Phase3	study/STIM_008.jpg	99
1561.682	0.853	853.2	study	Phase3	study/STIM_009.jpg	99
1564.706	0.868	867.7	study	Phase3	study/STIM_009.jpg	100
1568.135	0.576	576.4	study	Phase3	study/STIM_009.jpg	99
1571.267	0.711	711.2	study	Phase3	study/STIM_010.jpg	100
1574.987	1.187	1187.0	study	Phase3	study/STIM_010.jpg	99
1579.519	1.227	1226.6	study	Phase3	study/STIM_010.jpg	100
1584.416	0.986	985.8	study	Phase3	study/STIM_011.jpg	100
1587.511	0.693	693.4	study	Phase3	study/STIM_011.jpg	99
1592.011	0.982	982.5	study	Phase3	study/STIM_011.jpg	100
1596.034	0.581	580.6	study	Phase3	study/STIM_012.jpg	100
1599.126	0.751	751.0	study	Phase3	study/STIM_012.jpg	100
1602.479	1.051	1050.6	study	Phase3	study/STIM_012.jpg	99
1606.693	0.792	792.0	study	Phase3	study/STIM_013.jpg	99
1611.431	1.025	1024.9	study	Phase3	study/STIM_013.jpg	99
1614.779	0.631	630.8	study	Phase3	study/STIM_013.jpg	99
1618.367	0.779	779.0	study	Phase3	study/STIM_014.jpg	100
1622.362	0.816	816.1	study	Phase3	study/STIM_014.jpg	100
1625.598	1.227	1227.3	study	Phase3	study/STIM_014.jpg	99
1629.82	0.736	736.2	study	Phase3	study/STIM_015.jpg	99
1634.52	1.113	1112.7	study	Phase3	study/STIM_015.jpg	100
1638.267	1.003	1002.6	study	Phase3	study/STIM_015.jpg	100
1641.275	1.147	1146.6	study	Phase3	study/STIM_016.jpg	99
1645.472	0.948	947.8	study	Phase3	study/STIM_016.jpg	99
1648.43	1.026	1025.5	study	Phase3	study/STIM_016.jpg	99
1651.45	0.807	807.2	study	Phase3	study/STIM_017.jpg	100
1656.185	0.97	970.2	study	Phase3	study/STIM_017.jpg	99
1660.009	0.597	596.7	study	Phase3	study/STIM_017.jpg	99
1663.46	0.937	937.3	study	Phase3	study/STIM_018.jpg	100
1667.251	0.854	854.4	study	Phase3	study/STIM_018.jpg	99
1671.52	0.812	811.9	study	Phase3	study/STIM_018.jpg	99
1674.465	1.237	1236.8	study	Phase3	study/STIM_019.jpg	100
1679.157	1.077	1076.9	study	Phase3	study/STIM_019.jpg	99
1682.466	1.253	1252.6	study	Phase3	study/STIM_019.jpg	100
1687.456	1.233	1232.6	study	Phase3	study/STIM_020.jpg	100
1691.405	1.0	1000.2	study	Phase3	study/STIM_020.jpg	100
1696.333	0.826	825.8	study	Phase3	study/STIM_020.jpg	100
1700.188	0.696	696.5	study	Phase3	study/STIM_021.jpg	100
1703.281	1.008	1008.3	study	Phase3	study/STIM_021.jpg	100
1707.959	1.183	1183.0	study	Phase3	study/STIM_021.jpg	99
1713.019	0.678	678.4	study	Phase3	study/STIM_022.jpg	100
1717.077	0.866	865.5	study	Phase3	study/STIM_022.jpg	99
1721.914	0.759	759.3	study	Phase3	study/STIM_022.jpg	99
1725.972	1.254	1253.8	study	Phase3	study/STIM_023.jpg	99
1729.732	1.124	1123.8	study	Phase3	study/STIM_023.jpg	100
1734.26	0.683	683.0	study	Phase3	study/STIM_023.jpg	100
1737.376	1.123	1123.0	study	Phase3	study/STIM_024.jpg	99
1741.697	0.686	686.2	study	Phase3	study/STIM_024.jpg	99
1745.238	0.699	699.3	study	Phase3	study/STIM_024.jpg	100
1748.088	1.004	1004.0	study	Phase3	study/STIM_025.jpg	100
1752.254	1.189	1188.9	study	Phase3	study/STIM_025.jpg	100
1755.748	1.055	1055.0	study	Phase3	study/STIM_025.jpg	99
1758.869	0.707	707.1	study	Phase3	study/STIM_026.jpg	99
1762.799	0.687	687.1	study	Phase3	study/STIM_026.jpg	99
1765.685	0.618	618.1	study	Phase3	study/STIM_026.jpg	99
1769.08	0.934	934.1	study	Phase3	study/STIM_027.jpg	100
1772.312	1.004	1003.8	study	Phase3	study/STIM_027.jpg	99
1776.515	0.797	796.6	study	Phase3	study/STIM_027.jpg	99
1781.114	1.017	1016.7	study	Phase3	study/STIM_028.jpg	100
1785.956	1.088	1087.6	study	Phase3	study/STIM_028.jpg	99
1790.724	1.071	1071.3	study	Phase3	study/STIM_028.jpg	99
1794.249	0.593	592.8	study	Phase3	study/STIM_029.jpg	100
1798.466	0.95	949.5	study	Phase3	study/STIM_029.jpg	100
1802.273	1.008	1008.0	study	Phase3	study/STIM_029.jpg	99
1805.425	1.015	1015.4	test	Phase3	test/STIM_000.jpg	99
1808.439	1.146	1146.4	test	Phase3	test/STIM_000.jpg	100
1811.64	1.044	1043.6	test	Phase3	test/STIM_000.jpg	99
1815.311	0.738	738.0	test	Phase3	test/STIM_001.jpg	99
1818.06	1.312	1312.3	test	Phase3	test/STIM_001.jpg	100
1823.256	0.978	978.3	test	Phase3	test/STIM_001.jpg	100
1827.97	0.912	912.2	test	Phase3	test/STIM_002.jpg	99
1831.401	0.826	825.6	test	Phase3	test/STIM_002.jpg	100
1836.15	0.748	748.5	test	Phase3	test/STIM_002.jpg	100
1840.819	0.773	772.8	test	Phase3	test/STIM_003.jpg	99
1845.556	1.085	1085.0	test	Phase3	test/STIM_003.jpg	100
1849.099	0.958	958.2	test	Phase3	test/STIM_003.jpg	100
1852.052	0.665	665.2	test	Phase3	test/STIM_004.jpg	100
1855.226	1.291	1291.0	test	Phase3	test/STIM_004.jpg	100
1860.441	1.193	1192.8	test	Phase3	test/STIM_004.jpg	99
1865.094	0.949	948.6	test	Phase3	test/STIM_005.jpg	99
1869.079	1.106	1106.1	test	Phase3	test/STIM_005.jpg	100
1873.726	0.74	739.7	test	Phase3	test/STIM_005.jpg	100
1877.8	1.222	1222.1	test	Phase3	test/STIM_006.jpg	99
1881.664	0.917	917.4	test	Phase3	test/STIM_006.jpg	100
1885.8	0.884	883.6	test	Phase3	test/STIM_006.jpg	99
1889.363	1.101	1101.0	test	Phase3	test/STIM_007.jpg	99
1893.425	0.63	630.2	test	Phase3	test/STIM_007.jpg	100
1897.453	0.91	909.7	test	Phase3	test/STIM_007.jpg	100
1902.136	1.035	1035.3	test	Phase3	test/STIM_008.jpg	100
1905.239	0.684	683.7	test	Phase3	test/STIM_008.jpg	99
1908.47	1.119	1119.4	test	Phase3	test/STIM_008.jpg	100
1912.083	0.62	620.2	test	Phase3	test/STIM_009.jpg	99
1916.671	0.886	886.2	test	Phase3	test/STIM_009.jpg	100
1919.862	0.802	802.5	test	Phase3	test/STIM_009.jpg	100
1924.09	1.125	1124.6	test	Phase3	test/STIM_010.jpg	99
1927.978	0.981	981.4	test	Phase3	test/STIM_010.jpg	100
1932.165	1.083	1082.7	test	Phase3	test/STIM_010.jpg	100
1935.641	0.96	960.5	test	Phase3	test/STIM_011.jpg	100
1939.769	0.973	972.6	test	Phase3	test/STIM_011.jpg	99
1944.077	0.629	629.0	test	Phase3	test/STIM_011.jpg	100
1948.26	1.165	1165.4	test	Phase3	test/STIM_012.jpg	99
1952.571	0.959	959.0	test	Phase3	test/STIM_012.jpg	99
1957.196	1.045	1045.4	test	Phase3	test/STIM_012.jpg	99
1960.843	0.85	849.7	test	Phase3	test/STIM_013.jpg	99
1964.211	0.968	967.5	test	Phase3	test/STIM_013.jpg	99
1968.25	1.131	1131.4	test	Phase3	test/STIM_013.jpg	100
1972.379	0.951	950.6	test	Phase3	test/STIM_014.jpg	100
1975.985	1.055	1055.2	test	Phase3	test/STIM_014.jpg	100
1980.213	0.861	861.0	test	Phase3	test/STIM_014.jpg	100
1983.442	0.719	718.9	test	Phase3	test/STIM_015.jpg	99
1987.383	1.245	1245.4	test	Phase3	test/STIM_015.jpg	100
1992.055	1.005	1005.1	test	Phase3	test/STIM_015.jpg	100
1995.29	0.758	757.8	test	Phase3	test/STIM_016.jpg	99
1998.67	1.038	1037.6	test	Phase3	test/STIM_016.jpg	100
2002.117	1.16	1159.9	test	Phase3	test/STIM_016.jpg	99
2005.786	1.015	1015.0	test	Phase3	test/STIM_017.jpg	100
2010.242	1.303	1302.9	test	Phase3	test/STIM_017.jpg	100
2013.584	0.852	851.9	test	Phase3	test/STIM_017.jpg	100
2017.89	0.983	983.4	test	Phase3	test/STIM_018.jpg	99
2021.609	0.768	767.8	test	Phase3	test/STIM_018.jpg	99
2024.744	0.662	661.9	test	Phase3	test/STIM_018.jpg	99
2027.877	0.685	684.7	test	Phase3	test/STIM_019.jpg	100
2031.046	0.905	904.8	test	Phase3	test/STIM_019.jpg	99
2034.303	0.836	836.4	test	Phase3	test/STIM_019.jpg	99
2037.969	0.686	685.9	test	Phase3	test/STIM_020.jpg	100
2041.579	0.801	800.8	test	Phase3	test/STIM_020.jpg	100
2045.125	0.844	843.5	test	Phase3	test/STIM_020.jpg	99
2048.169	1.267	1267.2	test	Phase3	test/STIM_021.jpg	99
2051.685	0.782	781.7	test	Phase3	test/STIM_021.jpg	99
2055.822	1.329	1329.2	test	Phase3	test/STIM_021.jpg	99
2060.775	0.939	939.2	test	Phase3	test/STIM_022.jpg	99
2063.813	1.205	1204.9	test	Phase3	test/STIM_022.jpg	99
2068.246	0.773	773.2	test	Phase3	test/STIM_022.jpg	99
2071.459	1.121	1120.6	test	Phase3	test/STIM_023.jpg	99
2074.938	0.704	704.1	test	Phase3	test/STIM_023.jpg	100
2078.635	1.119	1119.0	test	Phase3	test/STIM_023.jpg	100
2083.698	1.146	1146.5	test	Phase3	test/STIM_024.jpg	100
2087.403	1.191	1191.3	test	Phase3	test/STIM_024.jpg	100
2091.628	0.938	938.4	test	Phase3	test/STIM_024.jpg	99
2095.036	1.12	1120.2	test	Phase3	test/STIM_025.jpg	99
2099.339	0.778	777.7	test	Phase3	test/STIM_025.jpg	99
2102.94	0.94	939.6	test	Phase3	test/STIM_025.jpg	99
2106.156	0.862	861.7	test	Phase3	test/STIM_026.jpg	99
2110.057	0.753	753.1	test	Phase3	test/STIM_026.jpg	99
2112.904	1.022	1022.1	test	Phase3	test/STIM_026.jpg	99
2117.695	0.792	791.5	test	Phase3	test/STIM_027.jpg	99
2121.887	1.028	1027.8	test	Phase3	test/STIM_027.jpg	100
2125.804	1.128	1128.0	test	Phase3	test/STIM_027.jpg	99
2130.844	1.056	1056.5	test	Phase3	test/STIM_028.jpg	99
2134.476	0.92	920.0	test	Phase3	test/STIM_028.jpg	99
2139.275	1.265	1265.0	test	Phase3	test/STIM_028.jpg	100
2143.0	0.997	996.8	test	Phase3	test/STIM_029.jpg	100
2147.141	0.806	805.8	test	Phase3	test/STIM_029.jpg	100
2150.085	0.732	732.3	test	Phase3	test/STIM_029.jpg	99
