onset	duration	accuracy	trial_type	learning_stage	stimulus
0.0	0.86	correct	study	Phase1	study/STIM_000.jpg
3.936	1.536	correct	study	Phase1	study/STIM_000.jpg
9.263	1.087	correct	study	Phase1	study/STIM_000.jpg
13.495	1.742	correct	study	Phase1	study/STIM_001.jpg
18.044	1.359	correct	study	Phase1	study/STIM_001.jpg
23.368	1.42	incorrect	study	Phase1	study/STIM_001.jpg
28.537	1.31	correct	study	Phase1	study/STIM_002.jpg
32.395	1.562	correct	study	Phase1	study/STIM_002.jpg
37.29	0.793	correct	study	Phase1	study/STIM_002.jpg
41.179	1.668	correct	study	Phase1	study/STIM_003.jpg
45.477	1.673	correct	study	Phase1	study/STIM_003.jpg
51.069	1.646	incorrect	study	Phase1	study/STIM_003.jpg
54.933	1.06	correct	study	Phase1	study/STIM_004.jpg
59.274	1.135	correct	study	Phase1	study/STIM_004.jpg
63.333	1.252	correct	study	Phase1	study/STIM_004.jpg
67.406	1.471	correct	study	Phase1	study/STIM_005.jpg
71.844	1.101	correct	study	Phase1	study/STIM_005.jpg
74.994	1.459	incorrect	study	Phase1	study/STIM_005.jpg
78.758	0.992	correct	study	Phase1	study/STIM_006.jpg
82.233	0.96	correct	study	Phase1	study/STIM_006.jpg
86.425	1.368	correct	study	Phase1	study/STIM_006.jpg
90.851	1.376	correct	study	Phase1	study/STIM_007.jpg
95.574	1.472	incorrect	study	Phase1	study/STIM_007.jpg
99.238	1.206	correct	study	Phase1	study/STIM_007.jpg
103.923	1.623	correct	study	Phase1	study/STIM_008.jpg
107.741	1.591	correct	study	Phase1	study/STIM_008.jpg
112.04	1.115	correct	study	Phase1	study/STIM_008.jpg
117.114	1.583	correct	study	Phase1	study/STIM_009.jpg
121.069	1.272	incorrect	study	Phase1	study/STIM_009.jpg
124.398	0.841	correct	study	Phase1	study/STIM_009.jpg
128.985	1.615	correct	study	Phase1	study/STIM_010.jpg
134.129	1.287	correct	study	Phase1	study/STIM_010.jpg
137.955	0.848	correct	study	Phase1	study/STIM_010.jpg
141.658	1.133	correct	study	Phase1	study/STIM_011.jpg
146.528	1.198	incorrect	study	Phase1	study/STIM_011.jpg
149.884	0.937	correct	study	Phase1	study/STIM_011.jpg
154.402	1.694	correct	study	Phase1	study/STIM_012.jpg
159.117	1.702	correct	study	Phase1	study/STIM_012.jpg
163.733	0.863	correct	study	Phase1	study/STIM_012.jpg
168.363	1.722	correct	study	Phase1	study/STIM_013.jpg
173.68	0.784	correct	study	Phase1	study/STIM_013.jpg
177.277	1.609	correct	study	Phase1	study/STIM_013.jpg
182.453	0.932	incorrect	study	Phase1	study/STIM_014.jpg
186.274	1.261	incorrect	study	Phase1	study/STIM_014.jpg
189.944	0.904	correct	study	Phase1	study/STIM_014.jpg
194.496	1.503	correct	study	Phase1	study/STIM_015.jpg
199.402	0.884	correct	study	Phase1	study/STIM_015.jpg
203.943	0.766	correct	study	Phase1	study/STIM_015.jpg
207.795	1.206	correct	study	Phase1	study/STIM_016.jpg
211.304	1.597	incorrect	study	Phase1	study/STIM_016.jpg
216.792	0.919	correct	study	Phase1	study/STIM_016.jpg
220.803	1.204	correct	study	Phase1	study/STIM_017.jpg
224.046	1.526	correct	study	Phase1	study/STIM_017.jpg
229.206	1.561	correct	study	Phase1	study/STIM_017.jpg
234.078	1.41	correct	study	Phase1	study/STIM_018.jpg
237.503	1.717	correct	study	Phase1	study/STIM_018.jpg
242.007	1.384	correct	study	Phase1	study/STIM_018.jpg
245.589	1.738	correct	study	Phase1	study/STIM_019.jpg
249.555	1.629	incorrect	study	Phase1	study/STIM_019.jpg
254.459	1.527	correct	study	Phase1	study/STIM_019.jpg
257.963	1.486	incorrect	study	Phase1	study/STIM_020.jpg
262.469	1.077	correct	study	Phase1	study/STIM_020.jpg
265.553	1.216	correct	study	Phase1	study/STIM_020.jpg
268.835	1.089	correct	study	Phase1	study/STIM_021.jpg
272.414	1.239	correct	study	Phase1	study/STIM_021.jpg
276.197	1.239	correct	study	Phase1	study/STIM_021.jpg
279.774	1.735	correct	study	Phase1	study/STIM_022.jpg
285.025	1.363	correct	study	Phase1	study/STIM_022.jpg
289.503	1.131	correct	study	Phase1	study/STIM_022.jpg
293.738	1.515	correct	study	Phase1	study/STIM_023.jpg
298.311	1.569	correct	study	Phase1	study/STIM_023.jpg
302.349	1.604	correct	study	Phase1	study/STIM_023.jpg
307.18	1.448	incorrect	study	Phase1	study/STIM_024.jpg
311.547	1.536	correct	study	Phase1	study/STIM_024.jpg
315.874	0.936	correct	study	Phase1	study/STIM_024.jpg
320.235	1.534	correct	study	Phase1	study/STIM_025.jpg
325.638	1.413	correct	study	Phase1	study/STIM_025.jpg
330.143	1.334	correct	study	Phase1	study/STIM_025.jpg
335.047	1.253	incorrect	study	Phase1	study/STIM_026.jpg
339.776	1.635	incorrect	study	Phase1	study/STIM_026.jpg
345.218	1.253	correct	study	Phase1	study/STIM_026.jpg
349.293	1.252	correct	study	Phase1	study/STIM_027.jpg
353.89	1.599	correct	study	Phase1	study/STIM_027.jpg
358.986	0.873	correct	study	Phase1	study/STIM_027.jpg
363.316	1.23	incorrect	study	Phase1	study/STIM_028.jpg
368.145	0.998	correct	study	Phase1	study/STIM_028.jpg
371.627	0.973	correct	study	Phase1	study/STIM_028.jpg
375.275	1.504	correct	study	Phase1	study/STIM_029.jpg
379.824	1.53	correct	study	Phase1	study/STIM_029.jpg
384.62	1.089	correct	study	Phase1	study/STIM_029.jpg
387.995	1.021	correct	test	Phase1	test/STIM_000.jpg
391.251	0.802	correct	test	Phase1	test/STIM_000.jpg
395.086	0.657	incorrect	test	Phase1	test/STIM_000.jpg
398.295	1.191	correct	test	Phase1	test/STIM_001.jpg
402.42	0.781	correct	test	Phase1	test/STIM_001.jpg
407.087	1.156	correct	test	Phase1	test/STIM_001.jpg
411.792	1.135	correct	test	Phase1	test/STIM_002.jpg
415.062	0.754	correct	test	Phase1	test/STIM_002.jpg
418.11	1.183	incorrect	test	Phase1	test/STIM_002.jpg
422.711	1.26	incorrect	test	Phase1	test/STIM_003.jpg
427.015	0.619	correct	test	Phase1	test/STIM_003.jpg
431.186	0.685	correct	test	Phase1	test/STIM_003.jpg
435.794	0.826	correct	test	Phase1	test/STIM_004.jpg
440.094	0.752	correct	test	Phase1	test/STIM_004.jpg
443.498	0.883	correct	test	Phase1	test/STIM_004.jpg
446.686	1.311	correct	test	Phase1	test/STIM_005.jpg
451.861	0.829	correct	test	Phase1	test/STIM_005.jpg
456.666	0.785	correct	test	Phase1	test/STIM_005.jpg
459.478	0.769	correct	test	Phase1	test/STIM_006.jpg
463.737	1.112	correct	test	Phase1	test/STIM_006.jpg
466.825	0.763	correct	test	Phase1	test/STIM_006.jpg
469.596	1.033	correct	test	Phase1	test/STIM_007.jpg
473.768	1.183	correct	test	Phase1	test/STIM_007.jpg
477.786	1.048	correct	test	Phase1	test/STIM_007.jpg
481.889	0.892	correct	test	Phase1	test/STIM_008.jpg
485.435	1.04	correct	test	Phase1	test/STIM_008.jpg
489.136	0.877	correct	test	Phase1	test/STIM_008.jpg
492.807	1.124	correct	test	Phase1	test/STIM_009.jpg
496.925	0.738	incorrect	test	Phase1	test/STIM_009.jpg
500.612	1.123	correct	test	Phase1	test/STIM_009.jpg
504.746	0.903	correct	test	Phase1	test/STIM_010.jpg
509.339	0.646	incorrect	test	Phase1	test/STIM_010.jpg
512.698	0.854	correct	test	Phase1	test/STIM_010.jpg
517.343	1.245	correct	test	Phase1	test/STIM_011.jpg
522.099	0.691	correct	test	Phase1	test/STIM_011.jpg
526.594	1.009	correct	test	Phase1	test/STIM_011.jpg
529.752	0.72	correct	test	Phase1	test/STIM_012.jpg
533.734	0.799	correct	test	Phase1	test/STIM_012.jpg
537.711	1.182	correct	test	Phase1	test/STIM_012.jpg
540.942	1.083	correct	test	Phase1	test/STIM_013.jpg
544.671	0.616	incorrect	test	Phase1	test/STIM_013.jpg
548.822	0.772	correct	test	Phase1	test/STIM_013.jpg
552.971	1.038	correct	test	Phase1	test/STIM_014.jpg
556.799	1.24	correct	test	Phase1	test/STIM_014.jpg
560.317	1.178	correct	test	Phase1	test/STIM_014.jpg
565.367	0.668	correct	test	Phase1	test/STIM_015.jpg
568.261	0.816	correct	test	Phase1	test/STIM_015.jpg
571.338	0.685	correct	test	Phase1	test/STIM_015.jpg
575.447	0.701	incorrect	test	Phase1	test/STIM_016.jpg
579.8	0.678	correct	test	Phase1	test/STIM_016.jpg
584.147	0.86	correct	test	Phase1	test/STIM_016.jpg
587.771	1.262	correct	test	Phase1	test/STIM_017.jpg
592.43	0.616	correct	test	Phase1	test/STIM_017.jpg
595.219	0.641	correct	test	Phase1	test/STIM_017.jpg
598.867	0.946	correct	test	Phase1	test/STIM_018.jpg
602.859	0.805	correct	test	Phase1	test/STIM_018.jpg
606.062	0.94	correct	test	Phase1	test/STIM_018.jpg
610.002	1.226	correct	test	Phase1	test/STIM_019.jpg
613.602	0.983	incorrect	test	Phase1	test/STIM_019.jpg
617.544	0.686	correct	test	Phase1	test/STIM_019.jpg
620.906	0.627	correct	test	Phase1	test/STIM_020.jpg
624.886	0.667	correct	test	Phase1	test/STIM_020.jpg
628.496	0.976	correct	test	Phase1	test/STIM_020.jpg
632.713	0.683	correct	test	Phase1	test/STIM_021.jpg
636.394	1.154	incorrect	test	Phase1	test/STIM_021.jpg
641.162	1.17	correct	test	Phase1	test/STIM_021.jpg
646.056	1.306	incorrect	test	Phase1	test/STIM_022.jpg
650.973	0.82	correct	test	Phase1	test/STIM_022.jpg
655.109	1.182	correct	test	Phase1	test/STIM_022.jpg
660.131	0.923	correct	test	Phase1	test/STIM_023.jpg
664.577	1.284	correct	test	Phase1	test/STIM_023.jpg
668.555	0.63	correct	test	Phase1	test/STIM_023.jpg
672.937	1.22	correct	test	Phase1	test/STIM_024.jpg
676.433	1.078	correct	test	Phase1	test/STIM_024.jpg
680.746	0.723	correct	test	Phase1	test/STIM_024.jpg
683.524	1.311	correct	test	Phase1	test/STIM_025.jpg
688.791	1.045	correct	test	Phase1	test/STIM_025.jpg
692.58	0.696	correct	test	Phase1	test/STIM_025.jpg
696.242	0.876	correct	test	Phase1	test/STIM_026.jpg
699.101	0.958	correct	test	Phase1	test/STIM_026.jpg
702.044	1.137	correct	test	Phase1	test/STIM_026.jpg
706.845	1.164	incorrect	test	Phase1	test/STIM_027.jpg
711.128	1.158	correct	test	Phase1	test/STIM_027.jpg
715.348	0.651	correct	test	Phase1	test/STIM_027.jpg
719.747	0.898	correct	test	Phase1	test/STIM_028.jpg
724.578	0.942	correct	test	Phase1	test/STIM_028.jpg
729.49	1.104	correct	test	Phase1	test/STIM_028.jpg
733.886	1.182	correct	test	Phase1	test/STIM_029.jpg
737.439	0.641	correct	test	Phase1	test/STIM_029.jpg
741.582	0.905	correct	test	Phase1	test/STIM_029.jpg
745.076	1.553	incorrect	study	Phase2	study/STIM_000.jpg
749.742	1.149	correct	study	Phase2	study/STIM_000.jpg
752.885	0.816	correct	study	Phase2	study/STIM_000.jpg
756.735	0.755	correct	study	Phase2	study/STIM_001.jpg
759.74	1.128	correct	study	Phase2	study/STIM_001.jpg
763.839	0.651	correct	study	Phase2	study/STIM_001.jpg
767.032	0.95	correct	study	Phase2	study/STIM_002.jpg
770.496	1.133	correct	study	Phase2	study/STIM_002.jpg
774.484	0.702	correct	study	Phase2	study/STIM_002.jpg
778.214	1.533	correct	study	Phase2	study/STIM_003.jpg
783.445	0.756	incorrect	study	Phase2	study/STIM_003.jpg
787.876	1.221	incorrect	study	Phase2	study/STIM_003.jpg
793.055	1.498	correct	study	Phase2	study/STIM_004.jpg
796.988	0.967	correct	study	Phase2	study/STIM_004.jpg
801.23	1.159	correct	study	Phase2	study/STIM_004.jpg
804.936	1.511	correct	study	Phase2	study/STIM_005.jpg
809.805	0.695	correct	study	Phase2	study/STIM_005.jpg
814.381	1.221	incorrect	study	Phase2	study/STIM_005.jpg
819.367	0.876	correct	study	Phase2	study/STIM_006.jpg
823.107	1.348	correct	study	Phase2	study/STIM_006.jpg
827.722	0.663	correct	study	Phase2	study/STIM_006.jpg
830.603	1.298	correct	study	Phase2	study/STIM_007.jpg
834.898	0.921	incorrect	study	Phase2	study/STIM_007.jpg
839.224	0.956	correct	study	Phase2	study/STIM_007.jpg
843.054	0.972	correct	study	Phase2	study/STIM_008.jpg
846.331	1.414	correct	study	Phase2	study/STIM_008.jpg
850.643	1.173	correct	study	Phase2	study/STIM_008.jpg
854.177	0.828	correct	study	Phase2	study/STIM_009.jpg
858.159	1.242	correct	study	Phase2	study/STIM_009.jpg
861.543	1.132	correct	study	Phase2	study/STIM_009.jpg
865.977	1.442	correct	study	Phase2	study/STIM_010.jpg
871.02	0.713	correct	study	Phase2	study/STIM_010.jpg
875.597	0.965	incorrect	study	Phase2	study/STIM_010.jpg
879.266	1.438	correct	study	Phase2	study/STIM_011.jpg
883.723	1.359	correct	study	Phase2	study/STIM_011.jpg
888.074	1.095	correct	study	Phase2	study/STIM_011.jpg
893.008	0.724	correct	study	Phase2	study/STIM_012.jpg
896.505	1.292	correct	study	Phase2	study/STIM_012.jpg
901.481	0.834	correct	study	Phase2	study/STIM_012.jpg
904.789	0.848	correct	study	Phase2	study/STIM_013.jpg
908.102	1.162	correct	study	Phase2	study/STIM_013.jpg
912.245	0.917	correct	study	Phase2	study/STIM_013.jpg
915.29	1.331	correct	study	Phase2	study/STIM_014.jpg
920.469	1.435	correct	study	Phase2	study/STIM_014.jpg
924.572	0.922	correct	study	Phase2	study/STIM_014.jpg
928.839	1.163	correct	study	Phase2	study/STIM_015.jpg
933.02	0.756	correct	study	Phase2	study/STIM_015.jpg
936.787	1.088	correct	study	Phase2	study/STIM_015.jpg
941.335	1.114	correct	study	Phase2	study/STIM_016.jpg
945.76	0.749	incorrect	study	Phase2	study/STIM_016.jpg
949.98	0.977	correct	study	Phase2	study/STIM_016.jpg
953.959	1.477	correct	study	Phase2	study/STIM_017.jpg
958.093	1.337	correct	study	Phase2	study/STIM_017.jpg
961.615	0.956	correct	study	Phase2	study/STIM_017.jpg
965.197	1.426	correct	study	Phase2	study/STIM_018.jpg
969.403	1.057	incorrect	study	Phase2	study/STIM_018.jpg
974.208	0.855	correct	study	Phase2	study/STIM_018.jpg
978.71	1.376	correct	study	Phase2	study/STIM_019.jpg
982.781	1.117	correct	study	Phase2	study/STIM_019.jpg
986.742	0.62	incorrect	study	Phase2	study/STIM_019.jpg
991.089	0.706	correct	study	Phase2	study/STIM_020.jpg
995.635	1.304	correct	study	Phase2	study/STIM_020.jpg
999.521	1.176	correct	study	Phase2	study/STIM_020.jpg
1004.262	0.842	correct	study	Phase2	study/STIM_021.jpg
1008.596	0.994	correct	study	Phase2	study/STIM_021.jpg
1011.958	1.116	correct	study	Phase2	study/STIM_021.jpg
1016.571	1.17	correct	study	Phase2	study/STIM_022.jpg
1019.853	1.202	correct	study	Phase2	study/STIM_022.jpg
1023.269	0.735	correct	study	Phase2	study/STIM_022.jpg
1027.355	1.122	correct	study	Phase2	study/STIM_023.jpg
1031.375	0.994	correct	study	Phase2	study/STIM_023.jpg
1034.665	0.833	correct	study	Phase2	study/STIM_023.jpg
1039.151	1.568	correct	study	Phase2	study/STIM_024.jpg
1042.777	1.043	correct	study	Phase2	study/STIM_024.jpg
1046.346	0.677	correct	study	Phase2	study/STIM_024.jpg
1049.87	0.851	correct	study	Phase2	study/STIM_025.jpg
1054.234	1.334	correct	study	Phase2	study/STIM_025.jpg
1057.552	1.325	correct	study	Phase2	study/STIM_025.jpg
1061.932	1.485	correct	study	Phase2	study/STIM_026.jpg
1066.415	1.221	correct	study	Phase2	study/STIM_026.jpg
1071.305	1.032	correct	study	Phase2	study/STIM_026.jpg
1075.97	1.313	correct	study	Phase2	study/STIM_027.jpg
1080.246	1.223	correct	study	Phase2	study/STIM_027.jpg
1083.962	1.192	correct	study	Phase2	study/STIM_027.jpg
1087.596	1.089	correct	study	Phase2	study/STIM_028.jpg
1091.014	0.732	correct	study	Phase2	study/STIM_028.jpg
1094.18	1.098	correct	study	Phase2	study/STIM_028.jpg
1098.26	1.163	correct	study	Phase2	study/STIM_029.jpg
1102.988	0.801	correct	study	Phase2	study/STIM_029.jpg
1105.997	1.15	correct	study	Phase2	study/STIM_029.jpg
1110.708	1.137	correct	test	Phase2	test/STIM_000.jpg
1114.021	1.047	correct	test	Phase2	test/STIM_000.jpg
1117.784	0.758	correct	test	Phase2	test/STIM_000.jpg
1121.005	0.734	correct	test	Phase2	test/STIM_001.jpg
1124.702	1.102	incorrect	test	Phase2	test/STIM_001.jpg
1129.226	1.083	incorrect	test	Phase2	test/STIM_001.jpg
1134.091	0.78	correct	test	Phase2	test/STIM_002.jpg
1136.927	1.327	correct	test	Phase2	test/STIM_002.jpg
1140.96	1.057	correct	test	Phase2	test/STIM_002.jpg
1145.679	0.958	correct	test	Phase2	test/STIM_003.jpg
1149.574	0.7	correct	test	Phase2	test/STIM_003.jpg
1152.59	0.88	incorrect	test	Phase2	test/STIM_003.jpg
1156.205	1.306	correct	test	Phase2	test/STIM_004.jpg
1160.606	1.073	correct	test	Phase2	test/STIM_004.jpg
1164.074	0.815	correct	test	Phase2	test/STIM_004.jpg
1167.759	0.676	correct	test	Phase2	test/STIM_005.jpg
1172.121	0.896	correct	test	Phase2	test/STIM_005.jpg
1176.048	0.841	correct	test	Phase2	test/STIM_005.jpg
1180.391	0.788	correct	test	Phase2	test/STIM_006.jpg
1183.335	1.103	correct	test	Phase2	test/STIM_006.jpg
1187.598	0.865	correct	test	Phase2	test/STIM_006.jpg
1192.257	0.616	incorrect	test	Phase2	test/STIM_007.jpg
1196.645	0.79	correct	test	Phase2	test/STIM_007.jpg
1200.195	1.298	correct	test	Phase2	test/STIM_007.jpg
1205.355	0.809	correct	test	Phase2	test/STIM_008.jpg
1208.694	0.985	correct	test	Phase2	test/STIM_008.jpg
1211.832	0.828	incorrect	test	Phase2	test/STIM_008.jpg
1214.756	0.785	correct	test	Phase2	test/STIM_009.jpg
1218.111	0.635	incorrect	test	Phase2	test/STIM_009.jpg
1221.2	0.887	correct	test	Phase2	test/STIM_009.jpg
1224.767	0.984	correct	test	Phase2	test/STIM_010.jpg
1228.642	0.687	correct	test	Phase2	test/STIM_010.jpg
1233.223	0.755	correct	test	Phase2	test/STIM_010.jpg
1236.463	0.65	correct	test	Phase2	test/STIM_011.jpg
1239.859	1.171	correct	test	Phase2	test/STIM_011.jpg
1243.226	1.007	correct	test	Phase2	test/STIM_011.jpg
1246.305	0.917	correct	test	Phase2	test/STIM_012.jpg
1251.165	1.116	correct	test	Phase2	test/STIM_012.jpg
1254.815	1.036	correct	test	Phase2	test/STIM_012.jpg
1258.281	0.781	correct	test	Phase2	test/STIM_013.jpg
1262.194	1.287	correct	test	Phase2	test/STIM_013.jpg
1266.305	0.871	correct	test	Phase2	test/STIM_013.jpg
1269.867	0.927	correct	test	Phase2	test/STIM_014.jpg
1272.827	1.004	correct	test	Phase2	test/STIM_014.jpg
1276.066	1.046	correct	test	Phase2	test/STIM_014.jpg
1280.11	0.794	correct	test	Phase2	test/STIM_015.jpg
1283.439	0.723	correct	test	Phase2	test/STIM_015.jpg
1286.482	1.29	correct	test	Phase2	test/STIM_015.jpg
1291.023	1.163	correct	test	Phase2	test/STIM_016.jpg
1295.171	0.865	correct	test	Phase2	test/STIM_016.jpg
1299.813	1.045	correct	test	Phase2	test/STIM_016.jpg
1304.322	0.684	correct	test	Phase2	test/STIM_017.jpg
1307.112	0.957	incorrect	test	Phase2	test/STIM_017.jpg
1311.051	0.93	correct	test	Phase2	test/STIM_017.jpg
1314.141	1.065	correct	test	Phase2	test/STIM_018.jpg
1317.941	1.143	correct	test	Phase2	test/STIM_018.jpg
1322.802	1.104	correct	test	Phase2	test/STIM_018.jpg
1326.309	0.645	correct	test	Phase2	test/STIM_019.jpg
1329.345	0.653	incorrect	test	Phase2	test/STIM_019.jpg
1333.688	0.803	correct	test	Phase2	test/STIM_019.jpg
1337.111	0.929	correct	test	Phase2	test/STIM_020.jpg
1341.003	0.703	correct	test	Phase2	test/STIM_020.jpg
1345.316	0.666	correct	test	Phase2	test/STIM_020.jpg
1349.441	0.934	correct	test	Phase2	test/STIM_021.jpg
1352.84	0.812	incorrect	test	Phase2	test/STIM_021.jpg
1356.708	0.856	correct	test	Phase2	test/STIM_021.jpg
1359.752	1.33	correct	test	Phase2	test/STIM_022.jpg
1364.696	0.932	correct	test	Phase2	test/STIM_022.jpg
1368.003	1.01	correct	test	Phase2	test/STIM_022.jpg
1371.918	0.816	correct	test	Phase2	test/STIM_023.jpg
1375.128	0.803	correct	test	Phase2	test/STIM_023.jpg
1379.572	0.621	correct	test	Phase2	test/STIM_023.jpg
1383.266	0.683	correct	test	Phase2	test/STIM_024.jpg
1386.076	0.937	correct	test	Phase2	test/STIM_024.jpg
1390.342	0.7	incorrect	test	Phase2	test/STIM_024.jpg
1393.054	0.783	correct	test	Phase2	test/STIM_025.jpg
1396.01	1.306	correct	test	Phase2	test/STIM_025.jpg
1400.856	1.078	correct	test	Phase2	test/STIM_025.jpg
1405.628	0.956	correct	test	Phase2	test/STIM_026.jpg
1410.156	1.114	correct	test	Phase2	test/STIM_026.jpg
1413.902	1.092	correct	test	Phase2	test/STIM_026.jpg
1418.197	0.832	correct	test	Phase2	test/STIM_027.jpg
1421.718	0.874	correct	test	Phase2	test/STIM_027.jpg
1425.752	0.926	correct	test	Phase2	test/STIM_027.jpg
1430.383	0.674	incorrect	test	Phase2	test/STIM_028.jpg
1434.465	0.93	correct	test	Phase2	test/STIM_028.jpg
1438.25	1.242	incorrect	test	Phase2	test/STIM_028.jpg
1442.19	1.148	incorrect	test	Phase2	test/STIM_029.jpg
1447.138	1.173	correct	test	Phase2	test/STIM_029.jpg
1450.982	0.965	incorrect	test	Phase2	test/STIM_029.jpg
1454.624	1.094	correct	study	Phase3	study/STIM_000.jpg
1457.708	0.967	correct	study	Phase3	study/STIM_000.jpg
1461.377	1.285	correct	study	Phase3	study/STIM_000.jpg
1466.416	0.586	correct	study	Phase3	study/STIM_001.jpg
1469.901	0.966	correct	study	Phase3	study/STIM_001.jpg
1473.455	1.193	correct	study	Phase3	study/STIM_001.jpg
1477.213	0.608	correct	study	Phase3	study/STIM_002.jpg
1481.674	0.917	correct	study	Phase3	study/STIM_002.jpg
1485.009	1.117	correct	study	Phase3	study/STIM_002.jpg
1489.154	0.803	correct	study	Phase3	study/STIM_003.jpg
1493.375	0.984	correct	study	Phase3	study/STIM_003.jpg
1497.976	0.7	correct	study	Phase3	study/STIM_003.jpg
1502.547	0.844	correct	study	Phase3	study/STIM_004.jpg
1506.215	0.979	correct	study	Phase3	study/STIM_004.jpg
1509.899	0.812	correct	study	Phase3	study/STIM_004.jpg
1513.927	1.187	correct	study	Phase3	study/STIM_005.jpg
1517.407	1.149	correct	study	Phase3	study/STIM_005.jpg
1521.406	0.936	correct	study	Phase3	study/STIM_005.jpg
1524.62	0.957	correct	study	Phase3	study/STIM_006.jpg
1529.2	0.922	correct	study	Phase3	study/STIM_006.jpg
1533.573	0.741	correct	study	Phase3	study/STIM_006.jpg
1537.522	0.671	correct	study	Phase3	study/STIM_007.jpg
1541.913	0.699	correct	study	Phase3	study/STIM_007.jpg
1545.589	1.213	correct	study	Phase3	study/STIM_007.jpg
1549.922	0.7	correct	study	Phase3	study/STIM_008.jpg
1553.953	1.261	correct	study	Phase3	study/STIM_008.jpg
1557.844	0.921	correct	study	Phase3	study/STIM_008.jpg
1561.682	0.853	correct	study	Phase3	study/STIM_009.jpg
1564.706	0.868	correct	study	Phase3	study/STIM_009.jpg
1568.135	0.576	correct	study	Phase3	study/STIM_009.jpg
1571.267	0.711	correct	study	Phase3	study/STIM_010.jpg
1574.987	1.187	correct	study	Phase3	study/STIM_010.jpg
1579.519	1.227	correct	study	Phase3	study/STIM_010.jpg
1584.416	0.986	correct	study	Phase3	study/STIM_011.jpg
1587.511	0.693	correct	study	Phase3	study/STIM_011.jpg
1592.011	0.982	correct	study	Phase3	study/STIM_011.jpg
1596.034	0.581	correct	study	Phase3	study/STIM_012.jpg
1599.126	0.751	correct	study	Phase3	study/STIM_012.jpg
1602.479	1.051	correct	study	Phase3	study/STIM_012.jpg
1606.693	0.792	correct	study	Phase3	study/STIM_013.jpg
1611.431	1.025	correct	study	Phase3	study/STIM_013.jpg
1614.779	0.631	correct	study	Phase3	study/STIM_013.jpg
1618.367	0.779	correct	study	Phase3	study/STIM_014.jpg
1622.362	0.816	correct	study	Phase3	study/STIM_014.jpg
1625.598	1.227	correct	study	Phase3	study/STIM_014.jpg
1629.82	0.736	correct	study	Phase3	study/STIM_015.jpg
1634.52	1.113	correct	study	Phase3	study/STIM_015.jpg
1638.267	1.003	correct	study	Phase3	study/STIM_015.jpg
1641.275	1.147	correct	study	Phase3	study/STIM_016.jpg
1645.472	0.948	correct	study	Phase3	study/STIM_016.jpg
1648.43	1.026	correct	study	Phase3	study/STIM_016.jpg
1651.45	0.807	correct	study	Phase3	study/STIM_017.jpg
1656.185	0.97	correct	study	Phase3	study/STIM_017.jpg
1660.009	0.597	correct	study	Phase3	study/STIM_017.jpg
1663.46	0.937	correct	study	Phase3	study/STIM_018.jpg
1667.251	0.854	correct	study	Phase3	study/STIM_018.jpg
1671.52	0.812	correct	study	Phase3	study/STIM_018.jpg
1674.465	1.237	correct	study	Phase3	study/STIM_019.jpg
1679.157	1.077	correct	study	Phase3	study/STIM_019.jpg
1682.466	1.253	correct	study	Phase3	study/STIM_019.jpg
1687.456	1.233	correct	study	Phase3	study/STIM_020.jpg
1691.405	1.0	correct	study	Phase3	study/STIM_020.jpg
1696.333	0.826	correct	study	Phase3	study/STIM_020.jpg
1700.188	0.696	correct	study	Phase3	study/STIM_021.jpg
1703.281	1.008	correct	study	Phase3	study/STIM_021.jpg
1707.959	1.183	correct	study	Phase3	study/STIM_021.jpg
1713.019	0.678	incorrect	study	Phase3	study/STIM_022.jpg
1717.077	0.866	correct	study	Phase3	study/STIM_022.jpg
1721.914	0.759	correct	study	Phase3	study/STIM_022.jpg
1725.972	1.254	correct	study	Phase3	study/STIM_023.jpg
1729.732	1.124	correct	study	Phase3	study/STIM_023.jpg
1734.26	0.683	correct	study	Phase3	study/STIM_023.jpg
1737.376	1.123	correct	study	Phase3	study/STIM_024.jpg
1741.697	0.686	correct	study	Phase3	study/STIM_024.jpg
1745.238	0.699	correct	study	Phase3	study/STIM_024.jpg
1748.088	1.004	correct	study	Phase3	study/STIM_025.jpg
1752.254	1.189	correct	study	Phase3	study/STIM_025.jpg
1755.748	1.055	correct	study	Phase3	study/STIM_025.jpg
1758.869	0.707	correct	study	Phase3	study/STIM_026.jpg
1762.799	0.687	correct	study	Phase3	study/STIM_026.jpg
1765.685	0.618	correct	study	Phase3	study/STIM_026.jpg
1769.08	0.934	correct	study	Phase3	study/STIM_027.jpg
1772.312	1.004	correct	study	Phase3	study/STIM_027.jpg
1776.515	0.797	correct	study	Phase3	study/STIM_027.jpg
1781.114	1.017	correct	study	Phase3	study/STIM_028.jpg
1785.956	1.088	correct	study	Phase3	study/STIM_028.jpg
1790.724	1.071	correct	study	Phase3	study/STIM_028.jpg
1794.249	0.593	correct	study	Phase3	study/STIM_029.jpg
1798.466	0.95	correct	study	Phase3	study/STIM_029.jpg
1802.273	1.008	correct	study	Phase3	study/STIM_029.jpg
1805.425	1.015	incorrect	test	Phase3	test/STIM_000.jpg
1808.439	1.146	correct	test	Phase3	test/STIM_000.jpg
1811.64	1.044	correct	test	Phase3	test/STIM_000.jpg
1815.311	0.738	correct	test	Phase3	test/STIM_001.jpg
1818.06	1.312	correct	test	Phase3	test/STIM_001.jpg
1823.256	0.978	correct	test	Phase3	test/STIM_001.jpg
1827.97	0.912	correct	test	Phase3	test/STIM_002.jpg
1831.401	0.826	correct	test	Phase3	test/STIM_002.jpg
1836.15	0.748	correct	test	Phase3	test/STIM_002.jpg
1840.819	0.773	correct	test	Phase3	test/STIM_003.jpg
1845.556	1.085	incorrect	test	Phase3	test/STIM_003.jpg
1849.099	0.958	correct	test	Phase3	test/STIM_003.jpg
1852.052	0.665	correct	test	Phase3	test/STIM_004.jpg
1855.226	1.291	correct	test	Phase3	test/STIM_004.jpg
1860.441	1.193	correct	test	Phase3	test/STIM_004.jpg
1865.094	0.949	correct	test	Phase3	test/STIM_005.jpg
1869.079	1.106	correct	test	Phase3	test/STIM_005.jpg
1873.726	0.74	correct	test	Phase3	test/STIM_005.jpg
1877.8	1.222	correct	test	Phase3	test/STIM_006.jpg
1881.664	0.917	correct	test	Phase3	test/STIM_006.jpg
1885.8	0.884	correct	test	Phase3	test/STIM_006.jpg
1889.363	1.101	correct	test	Phase3	test/STIM_007.jpg
1893.425	0.63	correct	test	Phase3	test/STIM_007.jpg
1897.453	0.91	correct	test	Phase3	test/STIM_007.jpg
1902.136	1.035	incorrect	test	Phase3	test/STIM_008.jpg
1905.239	0.684	correct	test	Phase3	test/STIM_008.jpg
1908.47	1.119	correct	test	Phase3	test/STIM_008.jpg
1912.083	0.62	correct	test	Phase3	test/STIM_009.jpg
1916.671	0.886	correct	test	Phase3	test/STIM_009.jpg
1919.862	0.802	correct	test	Phase3	test/STIM_009.jpg
1924.09	1.125	correct	test	Phase3	test/STIM_010.jpg
1927.978	0.981	correct	test	Phase3	test/STIM_010.jpg
1932.165	1.083	correct	test	Phase3	test/STIM_010.jpg
1935.641	0.96	correct	test	Phase3	test/STIM_011.jpg
1939.769	0.973	correct	test	Phase3	test/STIM_011.jpg
1944.077	0.629	incorrect	test	Phase3	test/STIM_011.jpg
1948.26	1.165	correct	test	Phase3	test/STIM_012.jpg
1952.571	0.959	correct	test	Phase3	test/STIM_012.jpg
1957.196	1.045	correct	test	Phase3	test/STIM_012.jpg
1960.843	0.85	correct	test	Phase3	test/STIM_013.jpg
1964.211	0.968	correct	test	Phase3	test/STIM_013.jpg
1968.25	1.131	correct	test	Phase3	test/STIM_013.jpg
1972.379	0.951	correct	test	Phase3	test/STIM_014.jpg
1975.985	1.055	correct	test	Phase3	test/STIM_014.jpg
1980.213	0.861	correct	test	Phase3	test/STIM_014.jpg
1983.442	0.719	correct	test	Phase3	test/STIM_015.jpg
1987.383	1.245	correct	test	Phase3	test/STIM_015.jpg
1992.055	1.005	correct	test	Phase3	test/STIM_015.jpg
1995.29	0.758	correct	test	Phase3	test/STIM_016.jpg
1998.67	1.038	correct	test	Phase3	test/STIM_016.jpg
2002.117	1.16	correct	test	Phase3	test/STIM_016.jpg
2005.786	1.015	correct	test	Phase3	test/STIM_017.jpg
2010.242	1.303	correct	test	Phase3	test/STIM_017.jpg
2013.584	0.852	correct	test	Phase3	test/STIM_017.jpg
2017.89	0.983	incorrect	test	Phase3	test/STIM_018.jpg
2021.609	0.768	incorrect	test	Phase3	test/STIM_018.jpg
2024.744	0.662	correct	test	Phase3	test/STIM_018.jpg
2027.877	0.685	correct	test	Phase3	test/STIM_019.jpg
2031.046	0.905	correct	test	Phase3	test/STIM_019.jpg
2034.303	0.836	correct	test	Phase3	test/STIM_019.jpg
2037.969	0.686	incorrect	test	Phase3	test/STIM_020.jpg
2041.579	0.801	correct	test	Phase3	test/STIM_020.jpg
2045.125	0.844	correct	test	Phase3	test/STIM_020.jpg
2048.169	1.267	correct	test	Phase3	test/STIM_021.jpg
2051.685	0.782	incorrect	test	Phase3	test/STIM_021.jpg
2055.822	1.329	correct	test	Phase3	test/STIM_021.jpg
2060.775	0.939	correct	test	Phase3	test/STIM_022.jpg
2063.813	1.205	correct	test	Phase3	test/STIM_022.jpg
2068.246	0.773	correct	test	Phase3	test/STIM_022.jpg
2071.459	1.121	correct	test	Phase3	test/STIM_023.jpg
2074.938	0.704	correct	test	Phase3	test/STIM_023.jpg
2078.635	1.119	correct	test	Phase3	test/STIM_023.jpg
2083.698	1.146	correct	test	Phase3	test/STIM_024.jpg
2087.403	1.191	correct	test	Phase3	test/STIM_024.jpg
2091.628	0.938	correct	test	Phase3	test/STIM_024.jpg
2095.036	1.12	correct	test	Phase3	test/STIM_025.jpg
2099.339	0.778	correct	test	Phase3	test/STIM_025.jpg
2102.94	0.94	correct	test	Phase3	test/STIM_025.jpg
2106.156	0.862	correct	test	Phase3	test/STIM_026.jpg
2110.057	0.753	correct	test	Phase3	test/STIM_026.jpg
2112.904	1.022	correct	test	Phase3	test/STIM_026.jpg
2117.695	0.792	correct	test	Phase3	test/STIM_027.jpg
2121.887	1.028	correct	test	Phase3	test/STIM_027.jpg
2125.804	1.128	correct	test	Phase3	test/STIM_027.jpg
2130.844	1.056	correct	test	Phase3	test/STIM_028.jpg
2134.476	0.92	correct	test	Phase3	test/STIM_028.jpg
2139.275	1.265	correct	test	Phase3	test/STIM_028.jpg
2143.0	0.997	incorrect	test	Phase3	test/STIM_029.jpg
2147.141	0.806	correct	test	Phase3	test/STIM_029.jpg
2150.085	0.732	correct	test	Phase3	test/STIM_029.jpg
