onset	duration	response_time_ms	trial_type	learning_stage	stimulus	response_port
0.0	4.126	4125.6	navigation	Trial1	navigation/STIM_000.jpg	99
7.165	4.718	4717.7	navigation	Trial1	navigation/STIM_000.jpg	99
15.021	2.645	2645.2	navigation	Trial1	navigation/STIM_000.jpg	100
20.923	3.0	2999.5	navigation	Trial1	navigation/STIM_000.jpg	100
27.908	3.84	3839.8	navigation	Trial1	navigation/STIM_000.jpg	100
34.362	1.952	1951.5	navigation	Trial1	navigation/STIM_000.jpg	99
39.179	2.61	2610.2	navigation	Trial1	navigation/STIM_001.jpg	99
44.559	2.021	2020.7	navigation	Trial1	navigation/STIM_001.jpg	99
49.9	2.843	2843.4	navigation	Trial1	navigation/STIM_001.jpg	99
55.542	4.278	4277.9	navigation	Trial1	navigation/STIM_001.jpg	99
62.642	2.532	2531.9	navigation	Trial1	navigation/STIM_001.jpg	99
67.485	2.765	2764.9	navigation	Trial1	navigation/STIM_001.jpg	99
74.094	2.546	2545.6	navigation	Trial1	navigation/STIM_002.jpg	100
80.313	2.262	2262.5	navigation	Trial1	navigation/STIM_002.jpg	100
86.289	3.871	3871.0	navigation	Trial1	navigation/STIM_002.jpg	100
93.911	2.099	2098.6	navigation	Trial1	navigation/STIM_002.jpg	100
99.95	3.014	3013.6	navigation	Trial1	navigation/STIM_002.jpg	99
105.614	2.504	2503.9	navigation	Trial1	navigation/STIM_002.jpg	99
111.394	4.734	4733.5	navigation	Trial1	navigation/STIM_003.jpg	100
118.797	2.807	2807.0	navigation	Trial1	navigation/STIM_003.jpg	99
125.296	4.382	4381.6	navigation	Trial1	navigation/STIM_003.jpg	99
133.568	3.372	3372.1	navigation	Trial1	navigation/STIM_003.jpg	99
140.73	2.348	2348.0	navigation	Trial1	navigation/STIM_003.jpg	100
146.271	1.634	1633.8	navigation	Trial1	navigation/STIM_003.jpg	99
150.124	3.609	3609.1	navigation	Trial1	navigation/STIM_004.jpg	100
155.998	2.773	2773.0	navigation	Trial1	navigation/STIM_004.jpg	99
162.009	2.63	2629.5	navigation	Trial1	navigation/STIM_004.jpg	99
167.593	2.1	2100.5	navigation	Trial1	navigation/STIM_004.jpg	99
172.654	2.446	2445.8	navigation	Trial1	navigation/STIM_004.jpg	100
178.126	2.044	2043.6	navigation	Trial1	navigation/STIM_004.jpg	100
183.838	4.835	4834.8	navigation	Trial1	navigation/STIM_005.jpg	100
191.384	4.072	4072.3	navigation	Trial1	navigation/STIM_005.jpg	99
198.509	3.33	3330.3	navigation	Trial1	navigation/STIM_005.jpg	100
204.361	2.945	2945.2	navigation	Trial1	navigation/STIM_005.jpg	100
209.629	3.455	3454.9	navigation	Trial1	navigation/STIM_005.jpg	100
216.717	1.957	1956.9	navigation	Trial1	navigation/STIM_005.jpg	100
221.185	4.278	4277.6	navigation	Trial1	navigation/STIM_006.jpg	100
228.831	4.201	4201.0	navigation	Trial1	navigation/STIM_006.jpg	99
235.251	4.001	4001.1	navigation	Trial1	navigation/STIM_006.jpg	100
242.468	3.255	3255.1	navigation	Trial1	navigation/STIM_006.jpg	100
248.793	3.478	3477.7	navigation	Trial1	navigation/STIM_006.jpg	99
255.944	2.985	2985.4	navigation	Trial1	navigation/STIM_006.jpg	100
262.287	3.163	3162.6	navigation	Trial1	navigation/STIM_007.jpg	99
268.16	4.35	4349.7	navigation	Trial1	navigation/STIM_007.jpg	99
275.504	2.239	2238.6	navigation	Trial1	navigation/STIM_007.jpg	99
280.091	3.03	3030.1	navigation	Trial1	navigation/STIM_007.jpg	99
286.368	1.688	1688.1	navigation	Trial1	navigation/STIM_007.jpg	99
290.645	2.32	2320.0	navigation	Trial1	navigation/STIM_007.jpg	100
295.326	2.055	2054.7	navigation	Trial1	navigation/STIM_008.jpg	99
299.503	3.79	3789.6	navigation	Trial1	navigation/STIM_008.jpg	100
305.872	3.368	3367.5	navigation	Trial1	navigation/STIM_008.jpg	100
311.605	1.97	1969.9	navigation	Trial1	navigation/STIM_008.jpg	99
315.943	3.005	3004.6	navigation	Trial1	navigation/STIM_008.jpg	100
321.903	1.532	1531.6	navigation	Trial1	navigation/STIM_008.jpg	99
326.44	4.307	4307.0	navigation	Trial1	navigation/STIM_009.jpg	100
333.949	1.944	1943.8	navigation	Trial1	navigation/STIM_009.jpg	100
338.461	4.275	4275.1	navigation	Trial1	navigation/STIM_009.jpg	100
345.573	3.189	3189.4	navigation	Trial1	navigation/STIM_009.jpg	99
351.837	2.653	2653.1	navigation	Trial1	navigation/STIM_009.jpg	100
357.834	2.826	2825.8	navigation	Trial1	navigation/STIM_009.jpg	100
364.42	3.216	3216.4	navigation	Trial1	navigation/STIM_010.jpg	99
370.356	4.593	4592.9	navigation	Trial1	navigation/STIM_010.jpg	99
378.32	2.22	2220.2	navigation	Trial1	navigation/STIM_010.jpg	99
384.216	4.213	4212.8	navigation	Trial1	navigation/STIM_010.jpg	99
392.415	3.598	3598.0	navigation	Trial1	navigation/STIM_010.jpg	99
399.235	3.151	3150.6	navigation	Trial1	navigation/STIM_010.jpg	100
404.952	4.872	4871.7	navigation	Trial1	navigation/STIM_011.jpg	99
413.359	4.015	4015.0	navigation	Trial1	navigation/STIM_011.jpg	99
419.494	2.817	2816.9	navigation	Trial1	navigation/STIM_011.jpg	100
424.71	2.889	2889.4	navigation	Trial1	navigation/STIM_011.jpg	100
430.645	3.569	3569.3	navigation	Trial1	navigation/STIM_011.jpg	100
437.413	1.886	1885.8	navigation	Trial1	navigation/STIM_011.jpg	100
442.666	1.355	1355.3	pointing	Trial1	pointing/STIM_000.jpg	100
447.516	1.458	1457.8	pointing	Trial1	pointing/STIM_000.jpg	99
452.437	1.112	1111.6	pointing	Trial1	pointing/STIM_000.jpg	99
456.385	1.124	1124.0	pointing	Trial1	pointing/STIM_000.jpg	99
460.085	0.86	860.5	pointing	Trial1	pointing/STIM_000.jpg	99
464.034	1.208	1207.6	pointing	Trial1	pointing/STIM_000.jpg	99
467.296	1.207	1207.0	pointing	Trial1	pointing/STIM_001.jpg	100
471.464	1.37	1370.5	pointing	Trial1	pointing/STIM_001.jpg	99
475.535	0.961	961.4	pointing	Trial1	pointing/STIM_001.jpg	100
479.8	1.279	1278.7	pointing	Trial1	pointing/STIM_001.jpg	99
484.901	1.329	1329.1	pointing	Trial1	pointing/STIM_001.jpg	99
490.064	1.428	1428.3	pointing	Trial1	pointing/STIM_001.jpg	99
495.266	1.173	1173.1	pointing	Trial1	pointing/STIM_002.jpg	99
499.919	1.304	1303.7	pointing	Trial1	pointing/STIM_002.jpg	99
504.463	0.824	824.2	pointing	Trial1	pointing/STIM_002.jpg	99
507.983	1.266	1266.1	pointing	Trial1	pointing/STIM_002.jpg	99
511.6	1.34	1339.7	pointing	Trial1	pointing/STIM_002.jpg	99
516.839	0.916	916.0	pointing	Trial1	pointing/STIM_002.jpg	99
521.192	1.016	1015.7	pointing	Trial1	pointing/STIM_003.jpg	99
525.62	1.015	1014.7	pointing	Trial1	pointing/STIM_003.jpg	100
529.996	0.905	905.0	pointing	Trial1	pointing/STIM_003.jpg	99
534.146	1.34	1339.6	pointing	Trial1	pointing/STIM_003.jpg	99
537.963	1.238	1238.5	pointing	Trial1	pointing/STIM_003.jpg	99
542.327	1.023	1022.7	pointing	Trial1	pointing/STIM_003.jpg	99
546.316	1.31	1309.5	pointing	Trial1	pointing/STIM_004.jpg	100
551.533	1.366	1366.3	pointing	Trial1	pointing/STIM_004.jpg	100
556.762	1.45	1449.9	pointing	Trial1	pointing/STIM_004.jpg	100
560.967	1.143	1143.2	pointing	Trial1	pointing/STIM_004.jpg	100
565.636	1.124	1123.7	pointing	Trial1	pointing/STIM_004.jpg	99
570.746	0.881	880.9	pointing	Trial1	pointing/STIM_004.jpg	99
574.972	0.862	861.8	pointing	Trial1	pointing/STIM_005.jpg	100
578.085	1.048	1047.5	pointing	Trial1	pointing/STIM_005.jpg	99
582.294	1.093	1093.3	pointing	Trial1	pointing/STIM_005.jpg	100
586.132	1.426	1426.5	pointing	Trial1	pointing/STIM_005.jpg	99
591.256	1.347	1346.8	pointing	Trial1	pointing/STIM_005.jpg	99
595.973	1.398	1397.5	pointing	Trial1	pointing/STIM_005.jpg	100
600.916	0.91	909.5	pointing	Trial1	pointing/STIM_006.jpg	99
604.505	1.299	1299.2	pointing	Trial1	pointing/STIM_006.jpg	100
608.523	1.359	1359.1	pointing	Trial1	pointing/STIM_006.jpg	99
611.907	1.042	1042.1	pointing	Trial1	pointing/STIM_006.jpg	99
615.398	1.408	1407.8	pointing	Trial1	pointing/STIM_006.jpg	100
620.14	0.994	993.5	pointing	Trial1	pointing/STIM_006.jpg	99
623.696	1.12	1119.7	pointing	Trial1	pointing/STIM_007.jpg	99
626.981	1.048	1048.1	pointing	Trial1	pointing/STIM_007.jpg	99
630.535	0.856	855.7	pointing	Trial1	pointing/STIM_007.jpg	99
633.69	1.501	1500.7	pointing	Trial1	pointing/STIM_007.jpg	100
638.383	1.132	1131.8	pointing	Trial1	pointing/STIM_007.jpg	100
643.403	1.144	1143.9	pointing	Trial1	pointing/STIM_007.jpg	100
646.639	1.006	1005.8	pointing	Trial1	pointing/STIM_008.jpg	100
651.4	1.51	1509.9	pointing	Trial1	pointing/STIM_008.jpg	99
656.59	1.306	1305.8	pointing	Trial1	pointing/STIM_008.jpg	99
660.015	1.16	1160.4	pointing	Trial1	pointing/STIM_008.jpg	100
664.843	1.188	1187.9	pointing	Trial1	pointing/STIM_008.jpg	100
669.268	1.474	1473.9	pointing	Trial1	pointing/STIM_008.jpg	99
673.681	0.834	834.3	pointing	Trial1	pointing/STIM_009.jpg	99
678.464	1.031	1031.0	pointing	Trial1	pointing/STIM_009.jpg	99
682.041	1.262	1261.9	pointing	Trial1	pointing/STIM_009.jpg	99
687.121	1.515	1515.3	pointing	Trial1	pointing/STIM_009.jpg	100
691.593	1.226	1226.1	pointing	Trial1	pointing/STIM_009.jpg	100
696.052	1.185	1185.3	pointing	Trial1	pointing/STIM_009.jpg	99
701.135	1.222	1221.9	pointing	Trial1	pointing/STIM_010.jpg	99
705.257	0.999	998.6	pointing	Trial1	pointing/STIM_010.jpg	99
708.794	0.941	941.2	pointing	Trial1	pointing/STIM_010.jpg	99
712.729	0.912	912.4	pointing	Trial1	pointing/STIM_010.jpg	99
716.814	0.958	958.1	pointing	Trial1	pointing/STIM_010.jpg	99
720.518	0.966	965.5	pointing	Trial1	pointing/STIM_010.jpg	100
725.245	1.511	1511.2	pointing	Trial1	pointing/STIM_011.jpg	99
730.755	1.411	1410.9	pointing	Trial1	pointing/STIM_011.jpg	99
734.529	0.924	924.2	pointing	Trial1	pointing/STIM_011.jpg	99
738.571	0.821	820.6	pointing	Trial1	pointing/STIM_011.jpg	100
743.315	1.346	1345.9	pointing	Trial1	pointing/STIM_011.jpg	99
746.807	1.138	1138.4	pointing	Trial1	pointing/STIM_011.jpg	100
751.6	3.48	3480.3	navigation	Trial2	navigation/STIM_000.jpg	99
757.306	1.821	1821.1	navigation	Trial2	navigation/STIM_000.jpg	100
762.499	3.52	3520.0	navigation	Trial2	navigation/STIM_000.jpg	100
768.629	3.419	3419.0	navigation	Trial2	navigation/STIM_000.jpg	100
775.688	2.338	2338.1	navigation	Trial2	navigation/STIM_000.jpg	100
780.135	1.809	1809.4	navigation	Trial2	navigation/STIM_000.jpg	100
785.516	1.805	1805.0	navigation	Trial2	navigation/STIM_001.jpg	99
791.254	1.866	1865.7	navigation	Trial2	navigation/STIM_001.jpg	100
795.573	3.52	3520.1	navigation	Trial2	navigation/STIM_001.jpg	99
802.072	1.8	1800.4	navigation	Trial2	navigation/STIM_001.jpg	99
806.039	2.232	2231.9	navigation	Trial2	navigation/STIM_001.jpg	100
810.316	2.693	2693.2	navigation	Trial2	navigation/STIM_001.jpg	100
815.729	2.686	2686.1	navigation	Trial2	navigation/STIM_002.jpg	100
821.678	1.921	1921.4	navigation	Trial2	navigation/STIM_002.jpg	100
826.444	3.691	3690.6	navigation	Trial2	navigation/STIM_002.jpg	100
833.228	3.13	3129.6	navigation	Trial2	navigation/STIM_002.jpg	99
838.807	1.589	1588.7	navigation	Trial2	navigation/STIM_002.jpg	100
844.205	3.03	3030.4	navigation	Trial2	navigation/STIM_002.jpg	100
849.845	3.908	3907.7	navigation	Trial2	navigation/STIM_003.jpg	100
856.95	3.207	3207.3	navigation	Trial2	navigation/STIM_003.jpg	100
863.601	2.909	2908.9	navigation	Trial2	navigation/STIM_003.jpg	100
869.575	1.641	1641.1	navigation	Trial2	navigation/STIM_003.jpg	99
874.613	2.636	2636.3	navigation	Trial2	navigation/STIM_003.jpg	100
881.134	2.961	2961.4	navigation	Trial2	navigation/STIM_003.jpg	99
887.171	3.754	3754.5	navigation	Trial2	navigation/STIM_004.jpg	99
894.78	3.126	3126.2	navigation	Trial2	navigation/STIM_004.jpg	99
899.997	1.784	1783.8	navigation	Trial2	navigation/STIM_004.jpg	99
904.347	1.5	1500.5	navigation	Trial2	navigation/STIM_004.jpg	100
909.716	2.961	2960.7	navigation	Trial2	navigation/STIM_004.jpg	100
916.299	2.191	2191.4	navigation	Trial2	navigation/STIM_004.jpg	99
921.427	3.329	3329.2	navigation	Trial2	navigation/STIM_005.jpg	100
927.876	2.446	2445.5	navigation	Trial2	navigation/STIM_005.jpg	99
934.033	3.384	3383.5	navigation	Trial2	navigation/STIM_005.jpg	100
940.585	3.377	3377.1	navigation	Trial2	navigation/STIM_005.jpg	99
947.893	2.53	2530.0	navigation	Trial2	navigation/STIM_005.jpg	99
952.44	3.441	3440.6	navigation	Trial2	navigation/STIM_005.jpg	100
957.896	4.007	4007.3	navigation	Trial2	navigation/STIM_006.jpg	99
965.415	4.055	4054.7	navigation	Trial2	navigation/STIM_006.jpg	99
972.612	3.435	3435.1	navigation	Trial2	navigation/STIM_006.jpg	100
979.435	1.512	1512.0	navigation	Trial2	navigation/STIM_006.jpg	100
984.183	1.795	1794.8	navigation	Trial2	navigation/STIM_006.jpg	100
988.965	2.126	2126.5	navigation	Trial2	navigation/STIM_006.jpg	99
993.51	3.172	3172.0	navigation	Trial2	navigation/STIM_007.jpg	100
999.85	1.842	1841.9	navigation	Trial2	navigation/STIM_007.jpg	99
1004.131	2.176	2176.3	navigation	Trial2	navigation/STIM_007.jpg	100
1009.179	2.216	2216.4	navigation	Trial2	navigation/STIM_007.jpg	99
1015.03	3.075	3075.3	navigation	Trial2	navigation/STIM_007.jpg	99
1020.45	2.426	2425.6	navigation	Trial2	navigation/STIM_007.jpg	99
1025.432	3.961	3960.9	navigation	Trial2	navigation/STIM_008.jpg	99
1031.759	1.816	1815.6	navigation	Trial2	navigation/STIM_008.jpg	100
1035.635	1.962	1961.9	navigation	Trial2	navigation/STIM_008.jpg	100
1040.611	1.572	1571.6	navigation	Trial2	navigation/STIM_008.jpg	99
1046.092	3.534	3533.6	navigation	Trial2	navigation/STIM_008.jpg	100
1051.652	3.05	3050.5	navigation	Trial2	navigation/STIM_008.jpg	99
1058.663	3.053	3053.1	navigation	Trial2	navigation/STIM_009.jpg	99
1064.007	1.89	1890.2	navigation	Trial2	navigation/STIM_009.jpg	100
1068.638	2.577	2576.8	navigation	Trial2	navigation/STIM_009.jpg	99
1073.339	1.926	1926.5	navigation	Trial2	navigation/STIM_009.jpg	100
1078.09	2.918	2918.0	navigation	Trial2	navigation/STIM_009.jpg	100
1084.855	2.16	2160.2	navigation	Trial2	navigation/STIM_009.jpg	100
1089.091	1.795	1794.7	navigation	Trial2	navigation/STIM_010.jpg	99
1093.347	3.573	3572.8	navigation	Trial2	navigation/STIM_010.jpg	99
1100.526	2.579	2578.6	navigation	Trial2	navigation/STIM_010.jpg	99
1105.278	2.279	2279.1	navigation	Trial2	navigation/STIM_010.jpg	99
1110.118	2.747	2746.7	navigation	Trial2	navigation/STIM_010.jpg	99
1116.211	2.615	2614.9	navigation	Trial2	navigation/STIM_010.jpg	100
1122.505	4.174	4173.6	navigation	Trial2	navigation/STIM_011.jpg	99
1130.09	1.734	1734.1	navigation	Trial2	navigation/STIM_011.jpg	100
1134.557	2.432	2431.7	navigation	Trial2	navigation/STIM_011.jpg	100
1140.922	1.929	1928.9	navigation	Trial2	navigation/STIM_011.jpg	100
1145.865	3.288	3287.5	navigation	Trial2	navigation/STIM_011.jpg	99
1152.188	2.78	2780.4	navigation	Trial2	navigation/STIM_011.jpg	99
1158.43	1.349	1348.6	pointing	Trial2	pointing/STIM_000.jpg	100
1163.583	0.846	845.8	pointing	Trial2	pointing/STIM_000.jpg	100
1168.381	1.02	1020.2	pointing	Trial2	pointing/STIM_000.jpg	99
1172.543	1.114	1114.1	pointing	Trial2	pointing/STIM_000.jpg	100
1175.846	1.44	1439.6	pointing	Trial2	pointing/STIM_000.jpg	100
1180.458	0.858	857.7	pointing	Trial2	pointing/STIM_000.jpg	99
1183.618	1.286	1286.1	pointing	Trial2	pointing/STIM_001.jpg	100
1188.775	0.892	891.8	pointing	Trial2	pointing/STIM_001.jpg	99
1193.037	1.24	1239.7	pointing	Trial2	pointing/STIM_001.jpg	100
1198.272	1.182	1181.6	pointing	Trial2	pointing/STIM_001.jpg	99
1203.361	1.454	1454.1	pointing	Trial2	pointing/STIM_001.jpg	100
1207.723	1.403	1402.7	pointing	Trial2	pointing/STIM_001.jpg	99
1211.684	0.938	938.3	pointing	Trial2	pointing/STIM_002.jpg	99
1214.82	1.005	1005.3	pointing	Trial2	pointing/STIM_002.jpg	100
1218.463	1.148	1148.2	pointing	Trial2	pointing/STIM_002.jpg	99
1222.265	1.524	1523.9	pointing	Trial2	pointing/STIM_002.jpg	100
1226.183	0.846	845.6	pointing	Trial2	pointing/STIM_002.jpg	100
1230.582	1.387	1387.3	pointing	Trial2	pointing/STIM_002.jpg	100
1234.634	1.075	1074.9	pointing	Trial2	pointing/STIM_003.jpg	99
1238.991	0.848	847.8	pointing	Trial2	pointing/STIM_003.jpg	100
1243.025	1.088	1087.8	pointing	Trial2	pointing/STIM_003.jpg	100
1246.209	1.44	1440.1	pointing	Trial2	pointing/STIM_003.jpg	99
1250.409	1.348	1348.3	pointing	Trial2	pointing/STIM_003.jpg	100
1254.772	1.281	1280.7	pointing	Trial2	pointing/STIM_003.jpg	99
1259.803	1.209	1209.0	pointing	Trial2	pointing/STIM_004.jpg	100
1264.738	1.394	1393.7	pointing	Trial2	pointing/STIM_004.jpg	100
1268.486	1.105	1104.6	pointing	Trial2	pointing/STIM_004.jpg	99
1272.251	0.842	842.4	pointing	Trial2	pointing/STIM_004.jpg	99
1275.359	1.094	1094.3	pointing	Trial2	pointing/STIM_004.jpg	100
1280.21	1.025	1025.3	pointing	Trial2	pointing/STIM_004.jpg	100
1283.76	1.06	1059.5	pointing	Trial2	pointing/STIM_005.jpg	100
1287.565	1.466	1465.5	pointing	Trial2	pointing/STIM_005.jpg	99
1291.397	1.24	1240.1	pointing	Trial2	pointing/STIM_005.jpg	100
1295.557	0.924	923.8	pointing	Trial2	pointing/STIM_005.jpg	100
1299.393	1.43	1429.8	pointing	Trial2	pointing/STIM_005.jpg	99
1303.239	0.984	984.4	pointing	Trial2	pointing/STIM_005.jpg	99
1307.943	1.078	1078.3	pointing	Trial2	pointing/STIM_006.jpg	100
1311.736	0.922	922.1	pointing	Trial2	pointing/STIM_006.jpg	100
1316.602	1.354	1354.1	pointing	Trial2	pointing/STIM_006.jpg	100
1320.431	1.174	1173.6	pointing	Trial2	pointing/STIM_006.jpg	100
1324.685	0.942	942.5	pointing	Trial2	pointing/STIM_006.jpg	99
1328.49	0.89	889.6	pointing	Trial2	pointing/STIM_006.jpg	100
1332.574	0.892	891.5	pointing	Trial2	pointing/STIM_007.jpg	100
1336.881	0.909	908.7	pointing	Trial2	pointing/STIM_007.jpg	100
1341.718	1.151	1150.6	pointing	Trial2	pointing/STIM_007.jpg	100
1346.651	1.496	1496.1	pointing	Trial2	pointing/STIM_007.jpg	99
1351.979	1.411	1411.0	pointing	Trial2	pointing/STIM_007.jpg	100
1356.168	0.973	972.9	pointing	Trial2	pointing/STIM_007.jpg	100
1359.551	1.484	1484.2	pointing	Trial2	pointing/STIM_008.jpg	100
1364.425	1.253	1252.9	pointing	Trial2	pointing/STIM_008.jpg	99
1367.878	1.287	1287.0	pointing	Trial2	pointing/STIM_008.jpg	100
1371.819	1.077	1076.7	pointing	Trial2	pointing/STIM_008.jpg	99
1376.381	1.388	1388.1	pointing	Trial2	pointing/STIM_008.jpg	100
1381.497	0.978	977.5	pointing	Trial2	pointing/STIM_008.jpg	99
1384.649	0.898	897.8	pointing	Trial2	pointing/STIM_009.jpg	99
1388.177	1.362	1362.5	pointing	Trial2	pointing/STIM_009.jpg	99
1391.87	1.422	1421.8	pointing	Trial2	pointing/STIM_009.jpg	100
1395.885	1.398	1398.1	pointing	Trial2	pointing/STIM_009.jpg	100
1400.695	1.12	1119.6	pointing	Trial2	pointing/STIM_009.jpg	100
1404.585	1.158	1158.2	pointing	Trial2	pointing/STIM_009.jpg	99
1409.09	1.513	1513.2	pointing	Trial2	pointing/STIM_010.jpg	99
1413.768	1.337	1336.9	pointing	Trial2	pointing/STIM_010.jpg	100
1418.738	1.431	1431.2	pointing	Trial2	pointing/STIM_010.jpg	100
1423.838	1.328	1328.3	pointing	Trial2	pointing/STIM_010.jpg	99
1427.75	1.006	1005.9	pointing	Trial2	pointing/STIM_010.jpg	99
1431.376	0.959	958.6	pointing	Trial2	pointing/STIM_010.jpg	100
1435.599	1.48	1480.5	pointing	Trial2	pointing/STIM_011.jpg	99
1439.913	1.056	1055.9	pointing	Trial2	pointing/STIM_011.jpg	99
1444.541	1.386	1386.0	pointing	Trial2	pointing/STIM_011.jpg	100
1448.677	0.977	976.8	pointing	Trial2	pointing/STIM_011.jpg	100
1451.872	0.963	962.9	pointing	Trial2	pointing/STIM_011.jpg	99
1455.973	1.209	1209.3	pointing	Trial2	pointing/STIM_011.jpg	100
1459.477	2.238	2238.0	navigation	Trial3	navigation/STIM_000.jpg	100
1464.47	2.448	2447.6	navigation	Trial3	navigation/STIM_000.jpg	99
1469.924	2.617	2617.2	navigation	Trial3	navigation/STIM_000.jpg	100
1476.398	1.877	1877.4	navigation	Trial3	navigation/STIM_000.jpg	100
1481.089	2.771	2771.3	navigation	Trial3	navigation/STIM_000.jpg	99
1486.0	1.798	1798.3	navigation	Trial3	navigation/STIM_000.jpg	99
1490.544	1.485	1484.7	navigation	Trial3	navigation/STIM_001.jpg	99
1494.911	2.733	2732.7	navigation	Trial3	navigation/STIM_001.jpg	99
1499.922	2.647	2647.2	navigation	Trial3	navigation/STIM_001.jpg	99
1505.779	2.406	2405.9	navigation	Trial3	navigation/STIM_001.jpg	100
1511.781	2.508	2508.1	navigation	Trial3	navigation/STIM_001.jpg	99
1517.714	1.922	1921.8	navigation	Trial3	navigation/STIM_001.jpg	100
1522.654	3.01	3010.3	navigation	Trial3	navigation/STIM_002.jpg	99
1527.994	3.044	3043.9	navigation	Trial3	navigation/STIM_002.jpg	99
1533.374	2.734	2734.3	navigation	Trial3	navigation/STIM_002.jpg	99
1539.965	2.998	2997.8	navigation	Trial3	navigation/STIM_002.jpg	100
1546.382	3.05	3050.4	navigation	Trial3	navigation/STIM_002.jpg	100
1553.256	2.789	2788.7	navigation	Trial3	navigation/STIM_002.jpg	99
1558.398	2.074	2074.2	navigation	Trial3	navigation/STIM_003.jpg	99
1563.451	3.518	3518.5	navigation	Trial3	navigation/STIM_003.jpg	99
1569.23	2.592	2591.7	navigation	Trial3	navigation/STIM_003.jpg	100
1573.839	2.726	2726.5	navigation	Trial3	navigation/STIM_003.jpg	100
1578.905	3.015	3015.4	navigation	Trial3	navigation/STIM_003.jpg	100
1585.405	1.981	1981.2	navigation	Trial3	navigation/STIM_003.jpg	99
1589.699	3.384	3383.5	navigation	Trial3	navigation/STIM_004.jpg	99
1595.99	2.22	2219.7	navigation	Trial3	navigation/STIM_004.jpg	100
1601.771	2.877	2876.9	navigation	Trial3	navigation/STIM_004.jpg	100
1607.397	1.67	1670.3	navigation	Trial3	navigation/STIM_004.jpg	99
1611.671	3.057	3057.3	navigation	Trial3	navigation/STIM_004.jpg	99
1618.122	2.581	2581.0	navigation	Trial3	navigation/STIM_004.jpg	100
1623.705	2.307	2307.0	navigation	Trial3	navigation/STIM_005.jpg	99
1628.954	1.432	1431.8	navigation	Trial3	navigation/STIM_005.jpg	100
1632.986	2.396	2395.5	navigation	Trial3	navigation/STIM_005.jpg	100
1638.703	2.686	2686.5	navigation	Trial3	navigation/STIM_005.jpg	99
1644.149	3.259	3258.9	navigation	Trial3	navigation/STIM_005.jpg	100
1649.848	1.708	1707.9	navigation	Trial3	navigation/STIM_005.jpg	100
1655.49	2.358	2358.1	navigation	Trial3	navigation/STIM_006.jpg	100
1661.237	2.137	2136.9	navigation	Trial3	navigation/STIM_006.jpg	99
1665.692	3.013	3013.4	navigation	Trial3	navigation/STIM_006.jpg	100
1671.827	2.253	2253.4	navigation	Trial3	navigation/STIM_006.jpg	100
1676.213	2.104	2104.4	navigation	Trial3	navigation/STIM_006.jpg	100
1681.368	2.13	2130.4	navigation	Trial3	navigation/STIM_006.jpg	99
1687.346	2.618	2618.5	navigation	Trial3	navigation/STIM_007.jpg	100
1692.496	3.077	3076.6	navigation	Trial3	navigation/STIM_007.jpg	100
1698.382	1.814	1813.8	navigation	Trial3	navigation/STIM_007.jpg	100
1703.038	2.63	2629.5	navigation	Trial3	navigation/STIM_007.jpg	100
1707.938	2.045	2045.4	navigation	Trial3	navigation/STIM_007.jpg	99
1713.644	2.225	2225.3	navigation	Trial3	navigation/STIM_007.jpg	100
1718.595	2.043	2042.6	navigation	Trial3	navigation/STIM_008.jpg	100
1724.062	3.466	3465.8	navigation	Trial3	navigation/STIM_008.jpg	100
1729.853	1.554	1553.9	navigation	Trial3	navigation/STIM_008.jpg	99
1733.897	2.529	2529.0	navigation	Trial3	navigation/STIM_008.jpg	99
1739.679	1.446	1446.2	navigation	Trial3	navigation/STIM_008.jpg	100
1743.257	2.677	2677.2	navigation	Trial3	navigation/STIM_008.jpg	100
1748.573	2.634	2634.2	navigation	Trial3	navigation/STIM_009.jpg	99
1755.199	1.785	1784.8	navigation	Trial3	navigation/STIM_009.jpg	100
1759.033	1.681	1680.8	navigation	Trial3	navigation/STIM_009.jpg	99
1763.032	1.877	1877.4	navigation	Trial3	navigation/STIM_009.jpg	100
1768.347	2.831	2830.7	navigation	Trial3	navigation/STIM_009.jpg	99
1773.594	3.291	3291.2	navigation	Trial3	navigation/STIM_009.jpg	100
1780.792	3.039	3038.7	navigation	Trial3	navigation/STIM_010.jpg	100
1787.726	1.979	1978.6	navigation	Trial3	navigation/STIM_010.jpg	100
1792.789	2.448	2447.9	navigation	Trial3	navigation/STIM_010.jpg	99
1798.413	2.196	2195.6	navigation	Trial3	navigation/STIM_010.jpg	100
1804.122	3.144	3144.5	navigation	Trial3	navigation/STIM_010.jpg	99
1810.711	2.312	2312.0	navigation	Trial3	navigation/STIM_010.jpg	99
1816.335	2.464	2464.0	navigation	Trial3	navigation/STIM_011.jpg	99
1821.912	2.026	2025.6	navigation	Trial3	navigation/STIM_011.jpg	99
1826.848	1.574	1574.0	navigation	Trial3	navigation/STIM_011.jpg	100
1831.901	2.16	2159.5	navigation	Trial3	navigation/STIM_011.jpg	100
1837.663	1.651	1650.6	navigation	Trial3	navigation/STIM_011.jpg	100
1841.938	1.46	1460.4	navigation	Trial3	navigation/STIM_011.jpg	100
1846.909	1.176	1175.5	pointing	Trial3	pointing/STIM_000.jpg	100
1850.712	0.938	938.0	pointing	Trial3	pointing/STIM_000.jpg	100
1855.299	0.895	894.6	pointing	Trial3	pointing/STIM_000.jpg	100
1858.694	1.205	1205.4	pointing	Trial3	pointing/STIM_000.jpg	100
1862.711	0.846	845.7	pointing	Trial3	pointing/STIM_000.jpg	99
1866.401	1.17	1170.2	pointing	Trial3	pointing/STIM_000.jpg	100
1871.386	1.116	1115.9	pointing	Trial3	pointing/STIM_001.jpg	99
1874.58	1.342	1342.4	pointing	Trial3	pointing/STIM_001.jpg	100
1878.383	1.5	1499.7	pointing	Trial3	pointing/STIM_001.jpg	100
1883.5	1.09	1090.0	pointing	Trial3	pointing/STIM_001.jpg	99
1888.504	0.851	851.3	pointing	Trial3	pointing/STIM_001.jpg	99
1892.023	1.173	1173.2	pointing	Trial3	pointing/STIM_001.jpg	100
1896.193	1.056	1055.7	pointing	Trial3	pointing/STIM_002.jpg	100
1900.241	0.96	959.7	pointing	Trial3	pointing/STIM_002.jpg	100
1903.58	1.459	1459.3	pointing	Trial3	pointing/STIM_002.jpg	99
1909.029	1.44	1440.2	pointing	Trial3	pointing/STIM_002.jpg	100
1912.649	1.091	1091.1	pointing	Trial3	pointing/STIM_002.jpg	100
1916.109	1.512	1512.1	pointing	Trial3	pointing/STIM_002.jpg	99
1921.587	1.262	1262.5	pointing	Trial3	pointing/STIM_003.jpg	99
1926.041	1.088	1088.1	pointing	Trial3	pointing/STIM_003.jpg	100
1930.621	1.351	1351.1	pointing	Trial3	pointing/STIM_003.jpg	99
1934.421	1.465	1465.2	pointing	Trial3	pointing/STIM_003.jpg	100
1938.742	1.484	1484.5	pointing	Trial3	pointing/STIM_003.jpg	100
1943.987	1.054	1053.8	pointing	Trial3	pointing/STIM_003.jpg	99
1947.659	1.043	1042.9	pointing	Trial3	pointing/STIM_004.jpg	99
1951.895	1.165	1164.6	pointing	Trial3	pointing/STIM_004.jpg	100
1955.5	1.51	1509.6	pointing	Trial3	pointing/STIM_004.jpg	100
1960.091	1.164	1163.9	pointing	Trial3	pointing/STIM_004.jpg	99
1963.632	0.978	978.1	pointing	Trial3	pointing/STIM_004.jpg	99
1968.111	1.451	1451.1	pointing	Trial3	pointing/STIM_004.jpg	100
1973.036	1.163	1163.0	pointing	Trial3	pointing/STIM_005.jpg	99
1976.761	1.124	1124.1	pointing	Trial3	pointing/STIM_005.jpg	99
1980.378	1.405	1404.9	pointing	Trial3	pointing/STIM_005.jpg	99
1984.415	1.316	1315.9	pointing	Trial3	pointing/STIM_005.jpg	100
1989.101	1.385	1385.3	pointing	Trial3	pointing/STIM_005.jpg	99
1994.429	0.86	860.1	pointing	Trial3	pointing/STIM_005.jpg	100
1999.196	0.856	856.4	pointing	Trial3	pointing/STIM_006.jpg	99
2002.892	1.416	1415.6	pointing	Trial3	pointing/STIM_006.jpg	99
2006.833	1.258	1258.4	pointing	Trial3	pointing/STIM_006.jpg	100
2012.023	0.827	826.6	pointing	Trial3	pointing/STIM_006.jpg	99
2016.539	1.213	1213.3	pointing	Trial3	pointing/STIM_006.jpg	99
2020.881	0.943	943.1	pointing	Trial3	pointing/STIM_006.jpg	100
2025.253	1.193	1192.9	pointing	Trial3	pointing/STIM_007.jpg	99
2029.513	1.214	1214.4	pointing	Trial3	pointing/STIM_007.jpg	100
2033.798	1.079	1079.2	pointing	Trial3	pointing/STIM_007.jpg	100
2038.075	1.412	1412.1	pointing	Trial3	pointing/STIM_007.jpg	99
2042.558	1.154	1153.5	pointing	Trial3	pointing/STIM_007.jpg	100
2047.594	0.98	979.6	pointing	Trial3	pointing/STIM_007.jpg	100
2052.36	0.858	857.7	pointing	Trial3	pointing/STIM_008.jpg	100
2055.419	0.934	933.5	pointing	Trial3	pointing/STIM_008.jpg	99
2059.643	0.954	954.5	pointing	Trial3	pointing/STIM_008.jpg	99
2064.565	1.197	1196.8	pointing	Trial3	pointing/STIM_008.jpg	99
2068.988	1.152	1152.5	pointing	Trial3	pointing/STIM_008.jpg	100
2072.854	1.021	1020.9	pointing	Trial3	pointing/STIM_008.jpg	99
2076.883	0.86	860.4	pointing	Trial3	pointing/STIM_009.jpg	100
2081.216	1.174	1174.0	pointing	Trial3	pointing/STIM_009.jpg	99
2085.166	0.908	907.5	pointing	Trial3	pointing/STIM_009.jpg	100
2089.615	1.335	1335.3	pointing	Trial3	pointing/STIM_009.jpg	99
2094.941	1.09	1089.9	pointing	Trial3	pointing/STIM_009.jpg	100
2099.156	1.366	1366.1	pointing	Trial3	pointing/STIM_009.jpg	100
2102.951	1.334	1333.8	pointing	Trial3	pointing/STIM_010.jpg	99
2106.357	1.468	1468.2	pointing	Trial3	pointing/STIM_010.jpg	100
2111.679	1.275	1275.4	pointing	Trial3	pointing/STIM_010.jpg	99
2115.314	1.243	1242.9	pointing	Trial3	pointing/STIM_010.jpg	99
2119.894	1.128	1127.6	pointing	Trial3	pointing/STIM_010.jpg	99
2124.783	0.845	845.1	pointing	Trial3	pointing/STIM_010.jpg	100
2128.379	0.849	848.8	pointing	Trial3	pointing/STIM_011.jpg	100
2131.713	1.426	1426.5	pointing	Trial3	pointing/STIM_011.jpg	99
2136.099	0.985	985.0	pointing	Trial3	pointing/STIM_011.jpg	99
2139.571	1.034	1034.3	pointing	Trial3	pointing/STIM_011.jpg	100
2144.238	0.957	956.6	pointing	Trial3	pointing/STIM_011.jpg	100
2148.811	1.378	1377.5	pointing	Trial3	pointing/STIM_011.jpg	99
