onset	duration	response_time_ms	trial_type	learning_stage	stimulus	response_port
0.0	1.112	1112.0	incongruent	Block1	incongruent/STIM_000.jpg	100
3.13	0.8	799.8	incongruent	Block1	incongruent/STIM_000.jpg	100
6.453	0.845	844.9	incongruent	Block1	incongruent/STIM_000.jpg	100
9.346	1.092	1091.5	incongruent	Block1	incongruent/STIM_000.jpg	100
13.889	0.888	888.3	incongruent	Block1	incongruent/STIM_000.jpg	100
17.429	1.664	1664.5	incongruent	Block1	incongruent/STIM_001.jpg	99
21.998	1.065	1065.2	incongruent	Block1	incongruent/STIM_001.jpg	99
27.022	1.348	1348.3	incongruent	Block1	incongruent/STIM_001.jpg	99
31.007	1.319	1318.6	incongruent	Block1	incongruent/STIM_001.jpg	99
34.689	1.214	1214.2	incongruent	Block1	incongruent/STIM_001.jpg	100
39.837	0.87	869.5	incongruent	Block1	incongruent/STIM_002.jpg	99
44.372	1.491	1490.8	incongruent	Block1	incongruent/STIM_002.jpg	99
49.482	1.0	999.5	incongruent	Block1	incongruent/STIM_002.jpg	99
52.543	1.323	1322.6	incongruent	Block1	incongruent/STIM_002.jpg	99
57.67	0.998	997.5	incongruent	Block1	incongruent/STIM_002.jpg	99
61.039	1.496	1496.5	incongruent	Block1	incongruent/STIM_003.jpg	99
64.79	0.934	933.5	incongruent	Block1	incongruent/STIM_003.jpg	100
68.04	0.863	862.6	incongruent	Block1	incongruent/STIM_003.jpg	99
71.256	0.866	865.9	incongruent	Block1	incongruent/STIM_003.jpg	99
75.89	0.81	810.2	incongruent	Block1	incongruent/STIM_003.jpg	99
79.912	1.298	1298.0	incongruent	Block1	incongruent/STIM_004.jpg	100
84.573	1.555	1554.6	incongruent	Block1	incongruent/STIM_004.jpg	99
88.457	0.962	962.1	incongruent	Block1	incongruent/STIM_004.jpg	99
93.216	1.459	1459.1	incongruent	Block1	incongruent/STIM_004.jpg	100
97.557	0.859	858.7	incongruent	Block1	incongruent/STIM_004.jpg	100
101.907	1.26	1260.3	incongruent	Block1	incongruent/STIM_005.jpg	99
106.25	1.253	1253.4	incongruent	Block1	incongruent/STIM_005.jpg	100
109.874	1.018	1018.0	incongruent	Block1	incongruent/STIM_005.jpg	100
113.597	1.268	1267.8	incongruent	Block1	incongruent/STIM_005.jpg	100
116.966	1.0	999.8	incongruent	Block1	incongruent/STIM_005.jpg	100
121.465	1.6	1600.4	incongruent	Block1	incongruent/STIM_006.jpg	100
125.941	1.41	1410.1	incongruent	Block1	incongruent/STIM_006.jpg	100
130.78	1.03	1030.3	incongruent	Block1	incongruent/STIM_006.jpg	99
134.608	0.866	866.2	incongruent	Block1	incongruent/STIM_006.jpg	100
137.545	1.157	1156.7	incongruent	Block1	incongruent/STIM_006.jpg	99
142.538	1.346	1346.1	incongruent	Block1	incongruent/STIM_007.jpg	100
147.822	1.168	1168.3	incongruent	Block1	incongruent/STIM_007.jpg	99
151.422	1.347	1347.0	incongruent	Block1	incongruent/STIM_007.jpg	99
156.299	1.122	1121.8	incongruent	Block1	incongruent/STIM_007.jpg	99
161.15	1.247	1246.8	incongruent	Block1	incongruent/STIM_007.jpg	100
164.809	1.73	1730.2	incongruent	Block1	incongruent/STIM_008.jpg	100
170.018	1.426	1426.1	incongruent	Block1	incongruent/STIM_008.jpg	99
175.153	0.815	815.3	incongruent	Block1	incongruent/STIM_008.jpg	100
178.275	1.152	1151.5	incongruent	Block1	incongruent/STIM_008.jpg	99
183.182	1.294	1294.3	incongruent	Block1	incongruent/STIM_008.jpg	100
187.035	1.002	1002.3	incongruent	Block1	incongruent/STIM_009.jpg	100
190.136	0.812	812.5	incongruent	Block1	incongruent/STIM_009.jpg	100
193.16	1.538	1537.8	incongruent	Block1	incongruent/STIM_009.jpg	100
198.463	1.023	1023.3	incongruent	Block1	incongruent/STIM_009.jpg	99
202.586	1.016	1015.9	incongruent	Block1	incongruent/STIM_009.jpg	100
206.446	0.973	972.8	incongruent	Block1	incongruent/STIM_010.jpg	100
209.474	0.785	785.3	incongruent	Block1	incongruent/STIM_010.jpg	100
212.79	0.903	902.9	incongruent	Block1	incongruent/STIM_010.jpg	100
217.348	1.3	1299.7	incongruent	Block1	incongruent/STIM_010.jpg	100
222.239	0.794	793.8	incongruent	Block1	incongruent/STIM_010.jpg	99
226.351	1.205	1204.7	incongruent	Block1	incongruent/STIM_011.jpg	99
229.901	1.597	1597.3	incongruent	Block1	incongruent/STIM_011.jpg	99
235.079	1.384	1383.7	incongruent	Block1	incongruent/STIM_011.jpg	100
240.067	1.192	1192.5	incongruent	Block1	incongruent/STIM_011.jpg	100
243.523	1.353	1353.1	incongruent	Block1	incongruent/STIM_011.jpg	100
247.063	1.177	1177.1	incongruent	Block1	incongruent/STIM_012.jpg	100
251.144	1.181	1180.8	incongruent	Block1	incongruent/STIM_012.jpg	100
256.034	1.265	1264.6	incongruent	Block1	incongruent/STIM_012.jpg	99
259.624	0.728	728.2	incongruent	Block1	incongruent/STIM_012.jpg	100
263.629	1.198	1198.0	incongruent	Block1	incongruent/STIM_012.jpg	100
268.337	1.599	1599.2	incongruent	Block1	incongruent/STIM_013.jpg	100
272.742	1.058	1057.5	incongruent	Block1	incongruent/STIM_013.jpg	100
275.867	1.188	1187.8	incongruent	Block1	incongruent/STIM_013.jpg	100
280.713	0.91	909.5	incongruent	Block1	incongruent/STIM_013.jpg	100
284.868	0.892	892.2	incongruent	Block1	incongruent/STIM_013.jpg	99
288.455	1.343	1343.1	incongruent	Block1	incongruent/STIM_014.jpg	99
292.331	1.196	1196.0	incongruent	Block1	incongruent/STIM_014.jpg	100
296.96	0.921	920.9	incongruent	Block1	incongruent/STIM_014.jpg	99
301.046	0.76	760.5	incongruent	Block1	incongruent/STIM_014.jpg	99
305.477	0.876	876.0	incongruent	Block1	incongruent/STIM_014.jpg	99
309.405	0.949	948.9	incongruent	Block1	incongruent/STIM_015.jpg	100
313.22	1.3	1299.5	incongruent	Block1	incongruent/STIM_015.jpg	99
317.944	1.201	1200.6	incongruent	Block1	incongruent/STIM_015.jpg	100
321.618	1.474	1474.4	incongruent	Block1	incongruent/STIM_015.jpg	99
326.423	0.846	845.9	incongruent	Block1	incongruent/STIM_015.jpg	99
330.163	1.013	1012.6	incongruent	Block1	incongruent/STIM_016.jpg	99
334.21	0.946	945.6	incongruent	Block1	incongruent/STIM_016.jpg	99
337.24	1.482	1481.5	incongruent	Block1	incongruent/STIM_016.jpg	100
340.895	0.785	784.8	incongruent	Block1	incongruent/STIM_016.jpg	100
345.068	0.864	864.3	incongruent	Block1	incongruent/STIM_016.jpg	99
348.605	1.314	1314.4	incongruent	Block1	incongruent/STIM_017.jpg	100
351.994	0.911	910.8	incongruent	Block1	incongruent/STIM_017.jpg	99
356.135	0.788	788.3	incongruent	Block1	incongruent/STIM_017.jpg	99
359.656	1.371	1371.1	incongruent	Block1	incongruent/STIM_017.jpg	100
364.707	1.368	1368.2	incongruent	Block1	incongruent/STIM_017.jpg	99
368.332	1.701	1701.1	incongruent	Block1	incongruent/STIM_018.jpg	99
372.596	1.469	1469.0	incongruent	Block1	incongruent/STIM_018.jpg	100
377.276	1.028	1028.2	incongruent	Block1	incongruent/STIM_018.jpg	100
381.774	1.448	1447.6	incongruent	Block1	incongruent/STIM_018.jpg	99
385.479	0.791	791.2	incongruent	Block1	incongruent/STIM_018.jpg	100
389.022	0.818	817.9	incongruent	Block1	incongruent/STIM_019.jpg	99
392.654	1.511	1511.3	incongruent	Block1	incongruent/STIM_019.jpg	99
397.527	0.906	905.9	incongruent	Block1	incongruent/STIM_019.jpg	99
402.079	0.75	750.0	incongruent	Block1	incongruent/STIM_019.jpg	100
406.465	0.674	673.7	incongruent	Block1	incongruent/STIM_019.jpg	100
410.52	0.929	928.6	incongruent	Block1	incongruent/STIM_020.jpg	99
413.507	0.899	899.0	incongruent	Block1	incongruent/STIM_020.jpg	100
417.626	1.524	1523.9	incongruent	Block1	incongruent/STIM_020.jpg	100
421.594	0.775	774.6	incongruent	Block1	incongruent/STIM_020.jpg	99
425.109	0.99	990.5	incongruent	Block1	incongruent/STIM_020.jpg	99
428.411	1.354	1353.9	incongruent	Block1	incongruent/STIM_021.jpg	100
432.559	1.039	1039.1	incongruent	Block1	incongruent/STIM_021.jpg	100
436.739	1.478	1478.4	incongruent	Block1	incongruent/STIM_021.jpg	99
441.54	1.154	1154.2	incongruent	Block1	incongruent/STIM_021.jpg	99
445.46	0.95	950.5	incongruent	Block1	incongruent/STIM_021.jpg	100
448.796	1.054	1054.0	incongruent	Block1	incongruent/STIM_022.jpg	100
452.227	0.776	775.5	incongruent	Block1	incongruent/STIM_022.jpg	99
455.284	0.791	790.8	incongruent	Block1	incongruent/STIM_022.jpg	100
458.314	1.384	1383.9	incongruent	Block1	incongruent/STIM_022.jpg	99
461.941	0.759	759.2	incongruent	Block1	incongruent/STIM_022.jpg	100
466.479	1.152	1151.5	incongruent	Block1	incongruent/STIM_023.jpg	100
469.645	0.984	983.5	incongruent	Block1	incongruent/STIM_023.jpg	100
473.606	1.399	1398.7	incongruent	Block1	incongruent/STIM_023.jpg	100
477.72	1.034	1034.1	incongruent	Block1	incongruent/STIM_023.jpg	99
482.125	1.057	1056.9	incongruent	Block1	incongruent/STIM_023.jpg	99
486.578	1.634	1633.6	incongruent	Block1	incongruent/STIM_024.jpg	100
491.447	1.503	1503.2	incongruent	Block1	incongruent/STIM_024.jpg	100
495.364	1.524	1523.9	incongruent	Block1	incongruent/STIM_024.jpg	100
500.827	0.762	762.0	incongruent	Block1	incongruent/STIM_024.jpg	99
504.231	0.93	929.6	incongruent	Block1	incongruent/STIM_024.jpg	99
508.102	1.382	1381.6	incongruent	Block1	incongruent/STIM_025.jpg	99
512.244	1.407	1406.8	incongruent	Block1	incongruent/STIM_025.jpg	99
516.133	1.059	1059.1	incongruent	Block1	incongruent/STIM_025.jpg	100
519.39	0.988	988.1	incongruent	Block1	incongruent/STIM_025.jpg	99
523.208	1.256	1256.2	incongruent	Block1	incongruent/STIM_025.jpg	100
527.48	1.414	1413.9	incongruent	Block1	incongruent/STIM_026.jpg	99
531.068	1.069	1069.0	incongruent	Block1	incongruent/STIM_026.jpg	100
534.496	1.211	1210.6	incongruent	Block1	incongruent/STIM_026.jpg	100
537.985	0.853	853.3	incongruent	Block1	incongruent/STIM_026.jpg	99
541.638	0.703	702.7	incongruent	Block1	incongruent/STIM_026.jpg	99
545.152	1.253	1252.6	incongruent	Block1	incongruent/STIM_027.jpg	100
549.529	0.859	859.2	incongruent	Block1	incongruent/STIM_027.jpg	99
552.83	1.555	1555.2	incongruent	Block1	incongruent/STIM_027.jpg	99
556.582	1.233	1232.8	incongruent	Block1	incongruent/STIM_027.jpg	100
561.144	1.108	1108.5	incongruent	Block1	incongruent/STIM_027.jpg	100
565.756	1.196	1195.9	incongruent	Block1	incongruent/STIM_028.jpg	99
570.631	1.459	1459.0	incongruent	Block1	incongruent/STIM_028.jpg	100
574.138	1.4	1399.8	incongruent	Block1	incongruent/STIM_028.jpg	100
578.506	0.98	980.1	incongruent	Block1	incongruent/STIM_028.jpg	99
582.629	1.298	1297.7	incongruent	Block1	incongruent/STIM_028.jpg	100
585.955	1.692	1692.1	incongruent	Block1	incongruent/STIM_029.jpg	99
591.517	1.218	1218.5	incongruent	Block1	incongruent/STIM_029.jpg	100
596.441	1.184	1183.7	incongruent	Block1	incongruent/STIM_029.jpg	99
599.716	0.981	980.6	incongruent	Block1	incongruent/STIM_029.jpg	99
604.257	0.98	980.4	incongruent	Block1	incongruent/STIM_029.jpg	99
607.379	0.604	603.9	congruent	Block1	congruent/STIM_000.jpg	100
611.585	0.871	871.1	congruent	Block1	congruent/STIM_000.jpg	99
615.552	0.597	597.4	congruent	Block1	congruent/STIM_000.jpg	99
619.804	0.783	782.6	congruent	Block1	congruent/STIM_000.jpg	100
623.519	0.983	982.7	congruent	Block1	congruent/STIM_000.jpg	100
627.414	0.637	636.7	congruent	Block1	congruent/STIM_001.jpg	100
631.825	0.953	953.3	congruent	Block1	congruent/STIM_001.jpg	99
634.822	0.998	998.4	congruent	Block1	congruent/STIM_001.jpg	99
639.407	0.7	700.5	congruent	Block1	congruent/STIM_001.jpg	99
643.116	0.653	652.7	congruent	Block1	congruent/STIM_001.jpg	100
646.683	0.884	883.6	congruent	Block1	congruent/STIM_002.jpg	99
650.141	0.842	842.1	congruent	Block1	congruent/STIM_002.jpg	100
653.497	1.04	1039.8	congruent	Block1	congruent/STIM_002.jpg	99
657.7	0.66	660.1	congruent	Block1	congruent/STIM_002.jpg	99
661.552	0.752	752.1	congruent	Block1	congruent/STIM_002.jpg	100
664.797	0.76	760.3	congruent	Block1	congruent/STIM_003.jpg	99
669.407	0.681	681.0	congruent	Block1	congruent/STIM_003.jpg	99
672.807	0.605	604.6	congruent	Block1	congruent/STIM_003.jpg	100
676.306	0.944	943.7	congruent	Block1	congruent/STIM_003.jpg	100
679.412	0.593	593.1	congruent	Block1	congruent/STIM_003.jpg	100
683.978	0.945	944.6	congruent	Block1	congruent/STIM_004.jpg	99
687.347	0.709	709.2	congruent	Block1	congruent/STIM_004.jpg	100
690.92	0.775	775.1	congruent	Block1	congruent/STIM_004.jpg	100
693.85	0.725	725.0	congruent	Block1	congruent/STIM_004.jpg	99
696.908	1.001	1000.6	congruent	Block1	congruent/STIM_004.jpg	100
700.565	0.678	678.0	congruent	Block1	congruent/STIM_005.jpg	99
703.976	0.614	613.8	congruent	Block1	congruent/STIM_005.jpg	99
706.81	0.905	904.7	congruent	Block1	congruent/STIM_005.jpg	99
710.428	0.942	942.2	congruent	Block1	congruent/STIM_005.jpg	100
715.25	0.879	878.8	congruent	Block1	congruent/STIM_005.jpg	99
718.234	0.742	741.8	congruent	Block1	congruent/STIM_006.jpg	99
722.384	1.036	1036.5	congruent	Block1	congruent/STIM_006.jpg	100
726.276	0.623	622.9	congruent	Block1	congruent/STIM_006.jpg	100
730.311	0.738	738.3	congruent	Block1	congruent/STIM_006.jpg	100
734.57	0.63	630.3	congruent	Block1	congruent/STIM_006.jpg	100
738.364	0.895	894.8	congruent	Block1	congruent/STIM_007.jpg	99
741.827	0.616	616.1	congruent	Block1	congruent/STIM_007.jpg	100
744.731	0.786	786.1	congruent	Block1	congruent/STIM_007.jpg	99
749.29	0.97	969.5	congruent	Block1	congruent/STIM_007.jpg	99
752.301	0.7	699.9	congruent	Block1	congruent/STIM_007.jpg	100
755.146	0.872	871.6	congruent	Block1	congruent/STIM_008.jpg	100
758.018	0.941	941.3	congruent	Block1	congruent/STIM_008.jpg	100
762.338	0.649	649.4	congruent	Block1	congruent/STIM_008.jpg	100
766.842	0.707	707.4	congruent	Block1	congruent/STIM_008.jpg	100
770.168	0.915	915.3	congruent	Block1	congruent/STIM_008.jpg	100
774.834	0.688	688.4	congruent	Block1	congruent/STIM_009.jpg	100
778.653	0.699	699.4	congruent	Block1	congruent/STIM_009.jpg	99
782.408	0.807	806.8	congruent	Block1	congruent/STIM_009.jpg	99
786.125	0.877	876.9	congruent	Block1	congruent/STIM_009.jpg	100
789.257	0.684	683.9	congruent	Block1	congruent/STIM_009.jpg	99
793.509	0.95	950.2	congruent	Block1	congruent/STIM_010.jpg	99
798.243	0.73	729.6	congruent	Block1	congruent/STIM_010.jpg	100
802.856	0.656	656.3	congruent	Block1	congruent/STIM_010.jpg	100
805.849	0.628	627.6	congruent	Block1	congruent/STIM_010.jpg	99
810.298	0.928	928.1	congruent	Block1	congruent/STIM_010.jpg	99
813.279	0.659	659.1	congruent	Block1	congruent/STIM_011.jpg	99
816.458	0.928	927.6	congruent	Block1	congruent/STIM_011.jpg	99
820.479	1.026	1026.0	congruent	Block1	congruent/STIM_011.jpg	100
824.607	0.987	987.0	congruent	Block1	congruent/STIM_011.jpg	100
827.81	0.923	923.3	congruent	Block1	congruent/STIM_011.jpg	100
832.731	0.88	879.6	congruent	Block1	congruent/STIM_012.jpg	99
836.974	0.684	683.5	congruent	Block1	congruent/STIM_012.jpg	100
840.011	0.774	774.5	congruent	Block1	congruent/STIM_012.jpg	99
843.587	0.94	939.7	congruent	Block1	congruent/STIM_012.jpg	100
846.854	0.582	582.5	congruent	Block1	congruent/STIM_012.jpg	99
850.769	0.67	670.5	congruent	Block1	congruent/STIM_013.jpg	100
854.206	0.607	607.0	congruent	Block1	congruent/STIM_013.jpg	99
858.271	0.901	901.1	congruent	Block1	congruent/STIM_013.jpg	99
863.16	0.726	726.1	congruent	Block1	congruent/STIM_013.jpg	99
866.934	0.977	976.6	congruent	Block1	congruent/STIM_013.jpg	99
871.102	0.987	986.7	congruent	Block1	congruent/STIM_014.jpg	99
874.968	0.834	834.2	congruent	Block1	congruent/STIM_014.jpg	100
878.757	0.659	659.3	congruent	Block1	congruent/STIM_014.jpg	99
882.167	0.663	663.1	congruent	Block1	congruent/STIM_014.jpg	100
885.349	0.792	791.8	congruent	Block1	congruent/STIM_014.jpg	100
888.781	1.04	1040.3	congruent	Block1	congruent/STIM_015.jpg	100
892.389	0.599	598.9	congruent	Block1	congruent/STIM_015.jpg	100
896.013	0.902	902.4	congruent	Block1	congruent/STIM_015.jpg	100
898.937	0.695	695.2	congruent	Block1	congruent/STIM_015.jpg	100
903.109	0.844	844.0	congruent	Block1	congruent/STIM_015.jpg	100
907.525	0.827	827.0	congruent	Block1	congruent/STIM_016.jpg	100
912.265	0.98	979.5	congruent	Block1	congruent/STIM_016.jpg	99
915.736	0.675	675.2	congruent	Block1	congruent/STIM_016.jpg	100
920.159	0.945	944.7	congruent	Block1	congruent/STIM_016.jpg	100
924.848	0.807	807.1	congruent	Block1	congruent/STIM_016.jpg	99
928.208	0.678	678.1	congruent	Block1	congruent/STIM_017.jpg	100
932.177	1.019	1018.9	congruent	Block1	congruent/STIM_017.jpg	99
935.338	0.833	833.2	congruent	Block1	congruent/STIM_017.jpg	100
938.65	0.934	933.7	congruent	Block1	congruent/STIM_017.jpg	99
942.451	0.885	885.0	congruent	Block1	congruent/STIM_017.jpg	99
946.845	0.737	737.3	congruent	Block1	congruent/STIM_018.jpg	100
949.953	0.86	859.6	congruent	Block1	congruent/STIM_018.jpg	99
954.719	0.655	655.1	congruent	Block1	congruent/STIM_018.jpg	99
959.307	0.974	974.0	congruent	Block1	congruent/STIM_018.jpg	99
963.433	0.674	674.3	congruent	Block1	congruent/STIM_018.jpg	99
966.34	0.892	891.7	congruent	Block1	congruent/STIM_019.jpg	99
970.277	0.726	726.3	congruent	Block1	congruent/STIM_019.jpg	99
973.919	0.939	938.6	congruent	Block1	congruent/STIM_019.jpg	99
978.728	0.619	619.1	congruent	Block1	congruent/STIM_019.jpg	100
983.343	0.706	706.4	congruent	Block1	congruent/STIM_019.jpg	99
986.06	1.035	1035.3	congruent	Block1	congruent/STIM_020.jpg	99
991.072	0.702	702.2	congruent	Block1	congruent/STIM_020.jpg	100
994.839	0.718	718.1	congruent	Block1	congruent/STIM_020.jpg	100
998.164	0.759	758.9	congruent	Block1	congruent/STIM_020.jpg	100
1001.166	0.69	689.5	congruent	Block1	congruent/STIM_020.jpg	100
1005.559	0.796	795.5	congruent	Block1	congruent/STIM_021.jpg	99
1008.943	0.604	603.7	congruent	Block1	congruent/STIM_021.jpg	100
1012.268	0.675	675.4	congruent	Block1	congruent/STIM_021.jpg	100
1015.858	0.83	830.4	congruent	Block1	congruent/STIM_021.jpg	100
1019.162	0.94	940.4	congruent	Block1	congruent/STIM_021.jpg	99
1023.81	1.004	1004.0	congruent	Block1	congruent/STIM_022.jpg	100
1027.401	1.022	1021.5	congruent	Block1	congruent/STIM_022.jpg	100
1030.679	0.864	863.7	congruent	Block1	congruent/STIM_022.jpg	99
1033.619	0.93	930.4	congruent	Block1	congruent/STIM_022.jpg	99
1038.491	0.773	773.0	congruent	Block1	congruent/STIM_022.jpg	99
1042.889	0.635	634.9	congruent	Block1	congruent/STIM_023.jpg	100
1046.24	0.976	976.1	congruent	Block1	congruent/STIM_023.jpg	100
1050.939	0.82	819.5	congruent	Block1	congruent/STIM_023.jpg	99
1055.46	0.733	733.1	congruent	Block1	congruent/STIM_023.jpg	99
1059.41	0.747	746.6	congruent	Block1	congruent/STIM_023.jpg	100
1062.924	0.868	867.9	congruent	Block1	congruent/STIM_024.jpg	99
1066.053	0.702	701.6	congruent	Block1	congruent/STIM_024.jpg	99
1069.15	0.741	741.3	congruent	Block1	congruent/STIM_024.jpg	100
1073.772	0.844	844.4	congruent	Block1	congruent/STIM_024.jpg	100
1077.865	0.836	835.9	congruent	Block1	congruent/STIM_024.jpg	100
1081.458	0.842	841.6	congruent	Block1	congruent/STIM_025.jpg	100
1086.027	0.765	764.7	congruent	Block1	congruent/STIM_025.jpg	100
1090.463	0.607	606.6	congruent	Block1	congruent/STIM_025.jpg	100
1094.667	0.584	584.2	congruent	Block1	congruent/STIM_025.jpg	99
1097.691	0.677	677.2	congruent	Block1	congruent/STIM_025.jpg	100
1102.188	0.936	936.3	congruent	Block1	congruent/STIM_026.jpg	99
1105.347	0.658	657.9	congruent	Block1	congruent/STIM_026.jpg	99
1108.275	0.927	927.0	congruent	Block1	congruent/STIM_026.jpg	99
1111.226	0.647	647.3	congruent	Block1	congruent/STIM_026.jpg	99
1115.071	0.93	929.5	congruent	Block1	congruent/STIM_026.jpg	99
1118.799	0.944	943.7	congruent	Block1	congruent/STIM_027.jpg	100
1122.223	0.649	649.0	congruent	Block1	congruent/STIM_027.jpg	100
1126.811	0.917	917.3	congruent	Block1	congruent/STIM_027.jpg	99
1131.162	0.804	804.0	congruent	Block1	congruent/STIM_027.jpg	100
1134.655	0.792	791.6	congruent	Block1	congruent/STIM_027.jpg	99
1139.165	0.643	643.2	congruent	Block1	congruent/STIM_028.jpg	99
1143.789	0.748	748.4	congruent	Block1	congruent/STIM_028.jpg	100
1148.154	0.932	932.2	congruent	Block1	congruent/STIM_028.jpg	99
1151.486	0.859	859.1	congruent	Block1	congruent/STIM_028.jpg	99
1155.18	0.686	686.0	congruent	Block1	congruent/STIM_028.jpg	100
1159.731	1.012	1011.5	congruent	Block1	congruent/STIM_029.jpg	100
1162.876	0.674	673.9	congruent	Block1	congruent/STIM_029.jpg	100
1166.058	0.617	617.1	congruent	Block1	congruent/STIM_029.jpg	99
1169.213	0.819	819.3	congruent	Block1	congruent/STIM_029.jpg	100
1173.788	0.725	724.6	congruent	Block1	congruent/STIM_029.jpg	99
1177.495	1.392	1392.2	incongruent	Block2	incongruent/STIM_000.jpg	100
1181.621	1.026	1025.5	incongruent	Block2	incongruent/STIM_000.jpg	100
1184.843	1.221	1220.9	incongruent	Block2	incongruent/STIM_000.jpg	99
1188.89	1.009	1008.8	incongruent	Block2	incongruent/STIM_000.jpg	99
1192.905	1.022	1022.1	incongruent	Block2	incongruent/STIM_000.jpg	100
1197.113	1.41	1409.7	incongruent	Block2	incongruent/STIM_001.jpg	100
1200.627	1.211	1211.4	incongruent	Block2	incongruent/STIM_001.jpg	100
1205.233	0.71	710.0	incongruent	Block2	incongruent/STIM_001.jpg	100
1209.212	1.012	1011.7	incongruent	Block2	incongruent/STIM_001.jpg	99
1214.212	1.004	1004.1	incongruent	Block2	incongruent/STIM_001.jpg	99
1217.349	1.002	1001.5	incongruent	Block2	incongruent/STIM_002.jpg	99
1221.271	1.074	1073.6	incongruent	Block2	incongruent/STIM_002.jpg	100
1225.324	1.279	1278.7	incongruent	Block2	incongruent/STIM_002.jpg	99
1229.63	0.994	993.6	incongruent	Block2	incongruent/STIM_002.jpg	100
1234.191	0.737	737.4	incongruent	Block2	incongruent/STIM_002.jpg	100
1237.035	1.051	1051.3	incongruent	Block2	incongruent/STIM_003.jpg	100
1240.555	1.3	1300.4	incongruent	Block2	incongruent/STIM_003.jpg	99
1245.512	1.113	1112.8	incongruent	Block2	incongruent/STIM_003.jpg	99
1249.524	1.175	1175.4	incongruent	Block2	incongruent/STIM_003.jpg	99
1252.986	1.029	1028.7	incongruent	Block2	incongruent/STIM_003.jpg	100
1256.289	0.729	728.9	incongruent	Block2	incongruent/STIM_004.jpg	100
1260.218	0.983	983.2	incongruent	Block2	incongruent/STIM_004.jpg	100
1264.364	0.667	667.1	incongruent	Block2	incongruent/STIM_004.jpg	99
1267.776	0.865	865.2	incongruent	Block2	incongruent/STIM_004.jpg	100
1270.704	0.847	846.7	incongruent	Block2	incongruent/STIM_004.jpg	100
1274.766	0.794	793.5	incongruent	Block2	incongruent/STIM_005.jpg	99
1278.558	1.338	1337.7	incongruent	Block2	incongruent/STIM_005.jpg	100
1283.593	0.656	655.6	incongruent	Block2	incongruent/STIM_005.jpg	100
1288.147	0.844	843.7	incongruent	Block2	incongruent/STIM_005.jpg	100
1291.189	1.184	1184.2	incongruent	Block2	incongruent/STIM_005.jpg	99
1294.965	0.692	691.8	incongruent	Block2	incongruent/STIM_006.jpg	100
1298.816	0.87	870.0	incongruent	Block2	incongruent/STIM_006.jpg	100
1302.857	1.235	1235.1	incongruent	Block2	incongruent/STIM_006.jpg	100
1306.394	1.159	1158.6	incongruent	Block2	incongruent/STIM_006.jpg	99
1310.461	1.04	1040.5	incongruent	Block2	incongruent/STIM_006.jpg	100
1314.076	1.362	1361.9	incongruent	Block2	incongruent/STIM_007.jpg	99
1317.795	1.285	1284.9	incongruent	Block2	incongruent/STIM_007.jpg	100
1321.691	1.188	1187.6	incongruent	Block2	incongruent/STIM_007.jpg	100
1324.881	0.645	644.7	incongruent	Block2	incongruent/STIM_007.jpg	100
1329.215	1.153	1153.2	incongruent	Block2	incongruent/STIM_007.jpg	99
1333.343	0.756	756.4	incongruent	Block2	incongruent/STIM_008.jpg	100
1336.478	0.714	714.4	incongruent	Block2	incongruent/STIM_008.jpg	100
1340.395	1.026	1026.0	incongruent	Block2	incongruent/STIM_008.jpg	100
1344.037	0.868	867.6	incongruent	Block2	incongruent/STIM_008.jpg	100
1347.981	0.812	811.8	incongruent	Block2	incongruent/STIM_008.jpg	100
1352.77	1.138	1138.0	incongruent	Block2	incongruent/STIM_009.jpg	100
1357.216	1.339	1339.2	incongruent	Block2	incongruent/STIM_009.jpg	100
1362.218	1.22	1219.7	incongruent	Block2	incongruent/STIM_009.jpg	100
1365.894	1.06	1059.5	incongruent	Block2	incongruent/STIM_009.jpg	99
1370.013	0.616	615.7	incongruent	Block2	incongruent/STIM_009.jpg	100
1372.877	0.788	787.5	incongruent	Block2	incongruent/STIM_010.jpg	99
1377.214	0.833	833.1	incongruent	Block2	incongruent/STIM_010.jpg	99
1381.034	0.761	760.6	incongruent	Block2	incongruent/STIM_010.jpg	100
1385.719	0.976	976.1	incongruent	Block2	incongruent/STIM_010.jpg	100
1389.203	0.626	626.4	incongruent	Block2	incongruent/STIM_010.jpg	100
1392.107	0.703	703.4	incongruent	Block2	incongruent/STIM_011.jpg	100
1395.767	0.94	940.0	incongruent	Block2	incongruent/STIM_011.jpg	99
1399.271	1.012	1012.5	incongruent	Block2	incongruent/STIM_011.jpg	99
1402.811	1.038	1037.6	incongruent	Block2	incongruent/STIM_011.jpg	99
1407.309	1.079	1078.6	incongruent	Block2	incongruent/STIM_011.jpg	99
1410.838	1.072	1072.4	incongruent	Block2	incongruent/STIM_012.jpg	99
1414.555	1.262	1261.8	incongruent	Block2	incongruent/STIM_012.jpg	99
1418.646	0.956	955.6	incongruent	Block2	incongruent/STIM_012.jpg	99
1422.642	0.674	673.8	incongruent	Block2	incongruent/STIM_012.jpg	100
1427.068	1.166	1166.2	incongruent	Block2	incongruent/STIM_012.jpg	99
1430.523	0.717	717.3	incongruent	Block2	incongruent/STIM_013.jpg	99
1434.922	1.355	1354.7	incongruent	Block2	incongruent/STIM_013.jpg	99
1439.81	1.089	1089.4	incongruent	Block2	incongruent/STIM_013.jpg	100
1443.117	0.73	729.8	incongruent	Block2	incongruent/STIM_013.jpg	100
1446.979	0.722	722.0	incongruent	Block2	incongruent/STIM_013.jpg	99
1451.095	1.252	1252.3	incongruent	Block2	incongruent/STIM_014.jpg	99
1455.248	0.887	887.0	incongruent	Block2	incongruent/STIM_014.jpg	100
1459.508	1.141	1141.3	incongruent	Block2	incongruent/STIM_014.jpg	99
1463.719	0.802	802.4	incongruent	Block2	incongruent/STIM_014.jpg	99
1467.755	1.196	1195.6	incongruent	Block2	incongruent/STIM_014.jpg	100
1471.187	1.131	1130.7	incongruent	Block2	incongruent/STIM_015.jpg	100
1475.386	1.309	1308.8	incongruent	Block2	incongruent/STIM_015.jpg	100
1480.418	0.65	649.5	incongruent	Block2	incongruent/STIM_015.jpg	99
1483.217	0.739	738.7	incongruent	Block2	incongruent/STIM_015.jpg	99
1486.821	0.879	879.2	incongruent	Block2	incongruent/STIM_015.jpg	100
1490.011	1.149	1149.4	incongruent	Block2	incongruent/STIM_016.jpg	100
1493.822	1.176	1175.8	incongruent	Block2	incongruent/STIM_016.jpg	100
1498.01	1.086	1086.5	incongruent	Block2	incongruent/STIM_016.jpg	100
1502.439	0.65	650.1	incongruent	Block2	incongruent/STIM_016.jpg	100
1506.19	1.091	1091.2	incongruent	Block2	incongruent/STIM_016.jpg	99
1510.496	1.44	1440.1	incongruent	Block2	incongruent/STIM_017.jpg	100
1515.162	1.078	1078.4	incongruent	Block2	incongruent/STIM_017.jpg	100
1519.396	0.802	801.5	incongruent	Block2	incongruent/STIM_017.jpg	100
1524.171	0.573	573.3	incongruent	Block2	incongruent/STIM_017.jpg	99
1527.443	1.154	1153.8	incongruent	Block2	incongruent/STIM_017.jpg	99
1531.877	0.978	978.2	incongruent	Block2	incongruent/STIM_018.jpg	99
1536.689	1.094	1094.3	incongruent	Block2	incongruent/STIM_018.jpg	100
1540.296	0.635	635.4	incongruent	Block2	incongruent/STIM_018.jpg	99
1543.946	0.684	683.7	incongruent	Block2	incongruent/STIM_018.jpg	99
1547.207	0.691	690.7	incongruent	Block2	incongruent/STIM_018.jpg	99
1551.343	1.456	1455.5	incongruent	Block2	incongruent/STIM_019.jpg	99
1555.616	0.812	812.4	incongruent	Block2	incongruent/STIM_019.jpg	100
1559.676	0.664	664.0	incongruent	Block2	incongruent/STIM_019.jpg	100
1562.942	0.812	812.1	incongruent	Block2	incongruent/STIM_019.jpg	100
1566.932	0.719	719.2	incongruent	Block2	incongruent/STIM_019.jpg	99
1571.365	1.33	1330.1	incongruent	Block2	incongruent/STIM_020.jpg	99
1575.01	0.764	763.6	incongruent	Block2	incongruent/STIM_020.jpg	100
1578.911	0.687	686.9	incongruent	Block2	incongruent/STIM_020.jpg	100
1583.212	1.173	1173.0	incongruent	Block2	incongruent/STIM_020.jpg	100
1587.046	0.629	629.0	incongruent	Block2	incongruent/STIM_020.jpg	99
1590.49	0.956	956.4	incongruent	Block2	incongruent/STIM_021.jpg	99
1594.105	1.314	1313.7	incongruent	Block2	incongruent/STIM_021.jpg	99
1599.375	1.018	1018.5	incongruent	Block2	incongruent/STIM_021.jpg	100
1603.111	0.779	778.7	incongruent	Block2	incongruent/STIM_021.jpg	100
1606.718	0.816	815.6	incongruent	Block2	incongruent/STIM_021.jpg	100
1611.397	1.112	1111.7	incongruent	Block2	incongruent/STIM_022.jpg	100
1615.471	1.252	1252.1	incongruent	Block2	incongruent/STIM_022.jpg	99
1619.068	0.855	855.1	incongruent	Block2	incongruent/STIM_022.jpg	100
1622.455	1.123	1123.0	incongruent	Block2	incongruent/STIM_022.jpg	100
1626.372	1.093	1092.9	incongruent	Block2	incongruent/STIM_022.jpg	100
1630.546	1.468	1468.5	incongruent	Block2	incongruent/STIM_023.jpg	99
1635.261	0.715	715.1	incongruent	Block2	incongruent/STIM_023.jpg	100
1638.321	0.748	748.0	incongruent	Block2	incongruent/STIM_023.jpg	100
1642.827	0.899	898.9	incongruent	Block2	incongruent/STIM_023.jpg	100
1646.677	0.861	861.0	incongruent	Block2	incongruent/STIM_023.jpg	99
1650.233	0.995	995.3	incongruent	Block2	incongruent/STIM_024.jpg	100
1654.079	1.309	1308.7	incongruent	Block2	incongruent/STIM_024.jpg	99
1658.037	0.941	941.1	incongruent	Block2	incongruent/STIM_024.jpg	100
1661.455	1.074	1073.8	incongruent	Block2	incongruent/STIM_024.jpg	99
1664.653	0.799	798.9	incongruent	Block2	incongruent/STIM_024.jpg	99
1668.041	0.922	921.9	incongruent	Block2	incongruent/STIM_025.jpg	99
1672.73	0.705	704.8	incongruent	Block2	incongruent/STIM_025.jpg	99
1676.78	0.723	723.1	incongruent	Block2	incongruent/STIM_025.jpg	100
1679.964	0.647	647.1	incongruent	Block2	incongruent/STIM_025.jpg	100
1683.974	0.945	945.4	incongruent	Block2	incongruent/STIM_025.jpg	99
1687.612	0.725	725.3	incongruent	Block2	incongruent/STIM_026.jpg	100
1692.17	0.706	705.6	incongruent	Block2	incongruent/STIM_026.jpg	99
1696.428	1.086	1085.7	incongruent	Block2	incongruent/STIM_026.jpg	100
1701.24	0.703	702.9	incongruent	Block2	incongruent/STIM_026.jpg	100
1705.849	1.07	1069.9	incongruent	Block2	incongruent/STIM_026.jpg	100
1710.114	1.363	1363.3	incongruent	Block2	incongruent/STIM_027.jpg	99
1715.398	0.775	774.8	incongruent	Block2	incongruent/STIM_027.jpg	99
1719.491	0.84	839.9	incongruent	Block2	incongruent/STIM_027.jpg	100
1722.509	0.688	688.1	incongruent	Block2	incongruent/STIM_027.jpg	100
1726.116	0.975	974.7	incongruent	Block2	incongruent/STIM_027.jpg	99
1730.04	0.7	700.4	incongruent	Block2	incongruent/STIM_028.jpg	100
1734.684	0.762	761.6	incongruent	Block2	incongruent/STIM_028.jpg	100
1738.337	1.069	1068.8	incongruent	Block2	incongruent/STIM_028.jpg	99
1743.155	1.157	1157.2	incongruent	Block2	incongruent/STIM_028.jpg	99
1748.276	1.122	1122.1	incongruent	Block2	incongruent/STIM_028.jpg	99
1753.149	1.142	1141.7	incongruent	Block2	incongruent/STIM_029.jpg	99
1756.573	0.772	771.5	incongruent	Block2	incongruent/STIM_029.jpg	100
1760.012	0.646	646.0	incongruent	Block2	incongruent/STIM_029.jpg	99
1763.341	0.846	846.5	incongruent	Block2	incongruent/STIM_029.jpg	99
1767.819	0.866	865.8	incongruent	Block2	incongruent/STIM_029.jpg	100
1770.955	0.741	740.8	congruent	Block2	congruent/STIM_000.jpg	100
1774.49	0.945	945.1	congruent	Block2	congruent/STIM_000.jpg	100
1778.999	0.905	904.6	congruent	Block2	congruent/STIM_000.jpg	99
1782.824	0.874	874.2	congruent	Block2	congruent/STIM_000.jpg	100
1787.087	0.709	708.7	congruent	Block2	congruent/STIM_000.jpg	99
1790.652	0.699	699.0	congruent	Block2	congruent/STIM_001.jpg	100
1795.259	0.818	817.8	congruent	Block2	congruent/STIM_001.jpg	100
1798.634	0.85	850.3	congruent	Block2	congruent/STIM_001.jpg	99
1801.544	0.949	948.7	congruent	Block2	congruent/STIM_001.jpg	100
1805.752	1.008	1007.8	congruent	Block2	congruent/STIM_001.jpg	100
1810.123	0.904	903.6	congruent	Block2	congruent/STIM_002.jpg	99
1814.182	0.655	654.6	congruent	Block2	congruent/STIM_002.jpg	99
1817.032	0.808	808.0	congruent	Block2	congruent/STIM_002.jpg	100
1819.882	0.682	681.8	congruent	Block2	congruent/STIM_002.jpg	100
1823.344	1.002	1001.7	congruent	Block2	congruent/STIM_002.jpg	100
1826.548	0.833	832.9	congruent	Block2	congruent/STIM_003.jpg	100
1829.448	0.67	669.8	congruent	Block2	congruent/STIM_003.jpg	99
1833.424	0.853	852.7	congruent	Block2	congruent/STIM_003.jpg	99
1837.586	0.89	889.7	congruent	Block2	congruent/STIM_003.jpg	99
1840.867	0.711	711.3	congruent	Block2	congruent/STIM_003.jpg	100
1844.937	0.891	890.7	congruent	Block2	congruent/STIM_004.jpg	99
1849.457	0.596	595.7	congruent	Block2	congruent/STIM_004.jpg	99
1853.848	0.646	646.4	congruent	Block2	congruent/STIM_004.jpg	100
1858.119	0.946	946.5	congruent	Block2	congruent/STIM_004.jpg	100
1862.572	1.032	1032.1	congruent	Block2	congruent/STIM_004.jpg	100
1865.627	0.693	692.7	congruent	Block2	congruent/STIM_005.jpg	99
1869.691	0.871	871.1	congruent	Block2	congruent/STIM_005.jpg	100
1873.276	0.819	818.7	congruent	Block2	congruent/STIM_005.jpg	99
1878.042	0.605	604.8	congruent	Block2	congruent/STIM_005.jpg	100
1881.156	0.88	880.2	congruent	Block2	congruent/STIM_005.jpg	99
1884.394	0.762	762.2	congruent	Block2	congruent/STIM_006.jpg	99
1887.899	0.582	582.4	congruent	Block2	congruent/STIM_006.jpg	100
1892.174	1.041	1040.7	congruent	Block2	congruent/STIM_006.jpg	100
1896.775	0.586	585.9	congruent	Block2	congruent/STIM_006.jpg	99
1899.494	0.742	742.5	congruent	Block2	congruent/STIM_006.jpg	99
1903.504	1.04	1040.4	congruent	Block2	congruent/STIM_007.jpg	100
1907.746	0.937	937.0	congruent	Block2	congruent/STIM_007.jpg	99
1911.04	0.631	630.7	congruent	Block2	congruent/STIM_007.jpg	99
1914.648	0.997	997.0	congruent	Block2	congruent/STIM_007.jpg	100
1919.133	0.869	869.3	congruent	Block2	congruent/STIM_007.jpg	99
1922.862	0.799	799.4	congruent	Block2	congruent/STIM_008.jpg	100
1927.268	1.013	1012.9	congruent	Block2	congruent/STIM_008.jpg	99
1932.14	0.898	897.7	congruent	Block2	congruent/STIM_008.jpg	99
1936.972	0.858	858.2	congruent	Block2	congruent/STIM_008.jpg	100
1940.648	0.69	689.5	congruent	Block2	congruent/STIM_008.jpg	100
1943.348	0.868	868.4	congruent	Block2	congruent/STIM_009.jpg	100
1947.852	0.584	584.4	congruent	Block2	congruent/STIM_009.jpg	100
1950.673	0.977	977.3	congruent	Block2	congruent/STIM_009.jpg	100
1955.007	0.764	764.0	congruent	Block2	congruent/STIM_009.jpg	100
1959.689	0.962	961.5	congruent	Block2	congruent/STIM_009.jpg	100
1962.907	0.953	953.3	congruent	Block2	congruent/STIM_010.jpg	100
1967.654	0.922	922.0	congruent	Block2	congruent/STIM_010.jpg	100
1972.484	0.728	728.0	congruent	Block2	congruent/STIM_010.jpg	100
1976.744	0.814	813.9	congruent	Block2	congruent/STIM_010.jpg	100
1980.906	0.697	697.1	congruent	Block2	congruent/STIM_010.jpg	99
1985.252	0.709	708.8	congruent	Block2	congruent/STIM_011.jpg	99
1989.473	0.978	977.7	congruent	Block2	congruent/STIM_011.jpg	100
1993.926	0.582	582.5	congruent	Block2	congruent/STIM_011.jpg	99
1997.964	0.89	889.8	congruent	Block2	congruent/STIM_011.jpg	99
2001.539	0.773	772.9	congruent	Block2	congruent/STIM_011.jpg	99
2005.449	0.998	998.1	congruent	Block2	congruent/STIM_012.jpg	100
2008.955	1.028	1027.9	congruent	Block2	congruent/STIM_012.jpg	99
2013.524	0.63	630.0	congruent	Block2	congruent/STIM_012.jpg	99
2016.56	0.912	911.5	congruent	Block2	congruent/STIM_012.jpg	99
2020.714	0.714	713.6	congruent	Block2	congruent/STIM_012.jpg	100
2023.523	0.903	903.1	congruent	Block2	congruent/STIM_013.jpg	99
2028.424	0.966	966.4	congruent	Block2	congruent/STIM_013.jpg	99
2033.263	0.893	893.4	congruent	Block2	congruent/STIM_013.jpg	99
2036.684	0.716	716.5	congruent	Block2	congruent/STIM_013.jpg	100
2041.195	1.005	1004.9	congruent	Block2	congruent/STIM_013.jpg	100
2044.932	0.884	884.0	congruent	Block2	congruent/STIM_014.jpg	99
2048.532	0.815	815.1	congruent	Block2	congruent/STIM_014.jpg	99
2051.569	1.024	1023.8	congruent	Block2	congruent/STIM_014.jpg	99
2056.439	0.858	858.1	congruent	Block2	congruent/STIM_014.jpg	99
2059.826	0.978	978.4	congruent	Block2	congruent/STIM_014.jpg	100
2064.373	0.874	873.7	congruent	Block2	congruent/STIM_015.jpg	100
2067.553	0.599	598.9	congruent	Block2	congruent/STIM_015.jpg	99
2070.78	0.811	811.0	congruent	Block2	congruent/STIM_015.jpg	100
2074.215	0.735	735.1	congruent	Block2	congruent/STIM_015.jpg	99
2078.857	0.721	721.0	congruent	Block2	congruent/STIM_015.jpg	99
2082.653	0.701	701.3	congruent	Block2	congruent/STIM_016.jpg	100
2085.88	0.612	612.5	congruent	Block2	congruent/STIM_016.jpg	99
2089.106	0.857	856.7	congruent	Block2	congruent/STIM_016.jpg	100
2093.527	0.707	706.9	congruent	Block2	congruent/STIM_016.jpg	99
2096.504	0.687	686.7	congruent	Block2	congruent/STIM_016.jpg	100
2100.868	0.787	787.2	congruent	Block2	congruent/STIM_017.jpg	99
2104.067	0.876	876.1	congruent	Block2	congruent/STIM_017.jpg	99
2107.235	0.871	871.3	congruent	Block2	congruent/STIM_017.jpg	100
2111.933	1.027	1026.7	congruent	Block2	congruent/STIM_017.jpg	99
2115.132	0.781	780.9	congruent	Block2	congruent/STIM_017.jpg	100
2119.413	0.815	814.6	congruent	Block2	congruent/STIM_018.jpg	100
2123.523	0.662	661.7	congruent	Block2	congruent/STIM_018.jpg	100
2128.147	0.854	853.5	congruent	Block2	congruent/STIM_018.jpg	100
2131.1	0.798	798.2	congruent	Block2	congruent/STIM_018.jpg	100
2134.599	0.735	735.2	congruent	Block2	congruent/STIM_018.jpg	99
2137.649	0.773	772.8	congruent	Block2	congruent/STIM_019.jpg	99
2141.158	0.6	600.5	congruent	Block2	congruent/STIM_019.jpg	99
2145.631	0.802	802.4	congruent	Block2	congruent/STIM_019.jpg	99
2150.272	0.609	608.9	congruent	Block2	congruent/STIM_019.jpg	100
2153.14	0.794	793.5	congruent	Block2	congruent/STIM_019.jpg	100
2156.479	0.726	725.5	congruent	Block2	congruent/STIM_020.jpg	100
2160.374	0.781	781.0	congruent	Block2	congruent/STIM_020.jpg	100
2165.106	0.934	933.7	congruent	Block2	congruent/STIM_020.jpg	100
2169.587	0.767	766.7	congruent	Block2	congruent/STIM_020.jpg	99
2174.03	0.837	836.7	congruent	Block2	congruent/STIM_020.jpg	99
2178.514	0.788	788.2	congruent	Block2	congruent/STIM_021.jpg	99
2182.856	0.722	721.7	congruent	Block2	congruent/STIM_021.jpg	99
2186.416	0.892	891.9	congruent	Block2	congruent/STIM_021.jpg	100
2189.866	0.782	781.7	congruent	Block2	congruent/STIM_021.jpg	99
2194.018	0.7	700.0	congruent	Block2	congruent/STIM_021.jpg	99
2196.794	0.592	592.3	congruent	Block2	congruent/STIM_022.jpg	99
2201.244	0.711	710.9	congruent	Block2	congruent/STIM_022.jpg	100
2204.582	0.783	783.3	congruent	Block2	congruent/STIM_022.jpg	100
2208.627	0.743	743.1	congruent	Block2	congruent/STIM_022.jpg	99
2211.984	0.673	673.4	congruent	Block2	congruent/STIM_022.jpg	99
2215.936	1.014	1013.6	congruent	Block2	congruent/STIM_023.jpg	99
2219.592	0.92	920.5	congruent	Block2	congruent/STIM_023.jpg	100
2222.71	0.894	894.5	congruent	Block2	congruent/STIM_023.jpg	100
2227.535	0.703	703.1	congruent	Block2	congruent/STIM_023.jpg	99
2232.2	1.004	1003.9	congruent	Block2	congruent/STIM_023.jpg	100
2236.191	1.02	1019.6	congruent	Block2	congruent/STIM_024.jpg	99
2240.457	0.889	889.1	congruent	Block2	congruent/STIM_024.jpg	99
2244.684	0.71	710.2	congruent	Block2	congruent/STIM_024.jpg	99
2249.211	0.783	782.8	congruent	Block2	congruent/STIM_024.jpg	99
2253.901	0.824	823.8	congruent	Block2	congruent/STIM_024.jpg	99
2258.13	0.67	670.3	congruent	Block2	congruent/STIM_025.jpg	99
2261.802	0.708	707.5	congruent	Block2	congruent/STIM_025.jpg	99
2265.846	0.985	985.3	congruent	Block2	congruent/STIM_025.jpg	100
2269.694	0.839	839.2	congruent	Block2	congruent/STIM_025.jpg	100
2274.027	0.867	867.4	congruent	Block2	congruent/STIM_025.jpg	99
2278.885	1.039	1039.2	congruent	Block2	congruent/STIM_026.jpg	100
2282.134	0.998	998.1	congruent	Block2	congruent/STIM_026.jpg	99
2286.384	0.788	788.1	congruent	Block2	congruent/STIM_026.jpg	99
2289.199	0.802	802.5	congruent	Block2	congruent/STIM_026.jpg	100
2293.185	0.596	596.4	congruent	Block2	congruent/STIM_026.jpg	99
2296.871	0.816	816.5	congruent	Block2	congruent/STIM_027.jpg	100
2301.099	0.743	742.9	congruent	Block2	congruent/STIM_027.jpg	99
2305.257	0.628	628.1	congruent	Block2	congruent/STIM_027.jpg	99
2308.913	0.753	752.6	congruent	Block2	congruent/STIM_027.jpg	100
2312.45	0.747	747.4	congruent	Block2	congruent/STIM_027.jpg	99
2315.858	0.903	902.7	congruent	Block2	congruent/STIM_028.jpg	100
2320.752	0.972	972.5	congruent	Block2	congruent/STIM_028.jpg	100
2324.836	1.034	1034.4	congruent	Block2	congruent/STIM_028.jpg	100
2329.869	0.639	639.1	congruent	Block2	congruent/STIM_028.jpg	99
2333.394	0.653	653.1	congruent	Block2	congruent/STIM_028.jpg	99
2336.381	0.983	982.6	congruent	Block2	congruent/STIM_029.jpg	99
2339.395	0.694	694.5	congruent	Block2	congruent/STIM_029.jpg	100
2343.401	0.765	764.7	congruent	Block2	congruent/STIM_029.jpg	100
2346.706	0.846	845.7	congruent	Block2	congruent/STIM_029.jpg	99
2350.234	0.968	968.0	congruent	Block2	congruent/STIM_029.jpg	100
2354.158	1.06	1060.1	incongruent	Block3	incongruent/STIM_000.jpg	100
2358.46	1.078	1078.2	incongruent	Block3	incongruent/STIM_000.jpg	99
2363.365	1.198	1197.8	incongruent	Block3	incongruent/STIM_000.jpg	99
2367.243	0.719	719.0	incongruent	Block3	incongruent/STIM_000.jpg	99
2370.595	0.91	909.8	incongruent	Block3	incongruent/STIM_000.jpg	99
2374.018	0.874	874.3	incongruent	Block3	incongruent/STIM_001.jpg	99
2377.656	0.568	567.6	incongruent	Block3	incongruent/STIM_001.jpg	100
2381.009	0.668	667.9	incongruent	Block3	incongruent/STIM_001.jpg	99
2384.714	0.665	665.2	incongruent	Block3	incongruent/STIM_001.jpg	99
2388.258	0.796	796.5	incongruent	Block3	incongruent/STIM_001.jpg	100
2391.215	1.126	1125.7	incongruent	Block3	incongruent/STIM_002.jpg	100
2396.092	0.798	798.3	incongruent	Block3	incongruent/STIM_002.jpg	100
2400.385	1.154	1153.6	incongruent	Block3	incongruent/STIM_002.jpg	99
2403.547	0.955	954.7	incongruent	Block3	incongruent/STIM_002.jpg	99
2406.84	0.825	824.8	incongruent	Block3	incongruent/STIM_002.jpg	100
2410.988	0.908	908.1	incongruent	Block3	incongruent/STIM_003.jpg	99
2414.368	1.068	1068.2	incongruent	Block3	incongruent/STIM_003.jpg	99
2417.785	1.065	1065.2	incongruent	Block3	incongruent/STIM_003.jpg	99
2421.634	0.754	753.8	incongruent	Block3	incongruent/STIM_003.jpg	100
2425.949	1.026	1026.0	incongruent	Block3	incongruent/STIM_003.jpg	99
2429.425	0.716	715.9	incongruent	Block3	incongruent/STIM_004.jpg	99
2432.246	1.028	1027.5	incongruent	Block3	incongruent/STIM_004.jpg	100
2436.186	0.637	637.0	incongruent	Block3	incongruent/STIM_004.jpg	99
2439.871	0.821	821.2	incongruent	Block3	incongruent/STIM_004.jpg	99
2443.052	1.044	1043.7	incongruent	Block3	incongruent/STIM_004.jpg	100
2447.098	0.945	944.7	incongruent	Block3	incongruent/STIM_005.jpg	100
2451.699	1.02	1020.0	incongruent	Block3	incongruent/STIM_005.jpg	99
2456.408	1.108	1107.5	incongruent	Block3	incongruent/STIM_005.jpg	99
2460.493	1.04	1039.9	incongruent	Block3	incongruent/STIM_005.jpg	100
2464.536	0.774	774.3	incongruent	Block3	incongruent/STIM_005.jpg	99
2469.232	1.084	1083.6	incongruent	Block3	incongruent/STIM_006.jpg	99
2473.095	0.962	961.5	incongruent	Block3	incongruent/STIM_006.jpg	99
2476.088	1.027	1027.2	incongruent	Block3	incongruent/STIM_006.jpg	100
2479.154	0.672	671.6	incongruent	Block3	incongruent/STIM_006.jpg	100
2481.964	0.579	579.3	incongruent	Block3	incongruent/STIM_006.jpg	100
2484.638	0.908	908.1	incongruent	Block3	incongruent/STIM_007.jpg	100
2488.62	0.692	691.6	incongruent	Block3	incongruent/STIM_007.jpg	99
2491.989	1.075	1074.9	incongruent	Block3	incongruent/STIM_007.jpg	100
2495.628	1.106	1105.8	incongruent	Block3	incongruent/STIM_007.jpg	100
2498.827	0.853	853.4	incongruent	Block3	incongruent/STIM_007.jpg	100
2502.509	0.838	838.1	incongruent	Block3	incongruent/STIM_008.jpg	100
2505.913	0.912	912.2	incongruent	Block3	incongruent/STIM_008.jpg	100
2509.159	0.978	978.4	incongruent	Block3	incongruent/STIM_008.jpg	99
2512.712	0.694	693.7	incongruent	Block3	incongruent/STIM_008.jpg	99
2515.493	1.005	1004.8	incongruent	Block3	incongruent/STIM_008.jpg	100
2520.2	0.709	708.7	incongruent	Block3	incongruent/STIM_009.jpg	99
2524.848	1.081	1081.2	incongruent	Block3	incongruent/STIM_009.jpg	100
2528.298	0.971	971.0	incongruent	Block3	incongruent/STIM_009.jpg	99
2532.873	0.942	942.0	incongruent	Block3	incongruent/STIM_009.jpg	99
2536.22	1.145	1145.2	incongruent	Block3	incongruent/STIM_009.jpg	100
2540.155	1.138	1137.8	incongruent	Block3	incongruent/STIM_010.jpg	100
2544.731	0.843	842.7	incongruent	Block3	incongruent/STIM_010.jpg	100
2548.08	0.916	916.0	incongruent	Block3	incongruent/STIM_010.jpg	99
2551.238	0.604	603.5	incongruent	Block3	incongruent/STIM_010.jpg	100
2554.644	0.986	986.3	incongruent	Block3	incongruent/STIM_010.jpg	100
2558.034	0.768	767.6	incongruent	Block3	incongruent/STIM_011.jpg	99
2561.684	1.14	1140.0	incongruent	Block3	incongruent/STIM_011.jpg	100
2565.175	0.883	882.9	incongruent	Block3	incongruent/STIM_011.jpg	99
2568.9	1.071	1070.6	incongruent	Block3	incongruent/STIM_011.jpg	100
2573.723	0.694	693.9	incongruent	Block3	incongruent/STIM_011.jpg	100
2578.13	1.03	1030.1	incongruent	Block3	incongruent/STIM_012.jpg	99
2582.505	0.743	743.0	incongruent	Block3	incongruent/STIM_012.jpg	99
2586.17	1.19	1189.9	incongruent	Block3	incongruent/STIM_012.jpg	100
2591.151	0.812	811.5	incongruent	Block3	incongruent/STIM_012.jpg	99
2595.108	0.772	771.9	incongruent	Block3	incongruent/STIM_012.jpg	99
2599.358	1.034	1034.1	incongruent	Block3	incongruent/STIM_013.jpg	99
2603.987	0.676	676.0	incongruent	Block3	incongruent/STIM_013.jpg	100
2608.018	0.966	966.5	incongruent	Block3	incongruent/STIM_013.jpg	99
2611.729	1.173	1173.4	incongruent	Block3	incongruent/STIM_013.jpg	100
2615.323	0.867	866.7	incongruent	Block3	incongruent/STIM_013.jpg	99
2619.726	1.165	1164.8	incongruent	Block3	incongruent/STIM_014.jpg	100
2623.189	0.633	633.0	incongruent	Block3	incongruent/STIM_014.jpg	100
2625.976	0.83	829.9	incongruent	Block3	incongruent/STIM_014.jpg	100
2630.264	0.761	761.4	incongruent	Block3	incongruent/STIM_014.jpg	99
2633.417	1.026	1026.0	incongruent	Block3	incongruent/STIM_014.jpg	100
2637.853	0.894	894.1	incongruent	Block3	incongruent/STIM_015.jpg	99
2642.349	1.052	1052.3	incongruent	Block3	incongruent/STIM_015.jpg	99
2646.669	0.885	884.8	incongruent	Block3	incongruent/STIM_015.jpg	100
2651.156	0.722	721.9	incongruent	Block3	incongruent/STIM_015.jpg	100
2655.762	0.751	750.8	incongruent	Block3	incongruent/STIM_015.jpg	100
2660.138	0.973	972.7	incongruent	Block3	incongruent/STIM_016.jpg	99
2663.116	0.688	688.0	incongruent	Block3	incongruent/STIM_016.jpg	99
2666.53	1.057	1057.4	incongruent	Block3	incongruent/STIM_016.jpg	99
2670.812	1.024	1023.6	incongruent	Block3	incongruent/STIM_016.jpg	99
2675.447	1.154	1154.3	incongruent	Block3	incongruent/STIM_016.jpg	99
2679.378	0.637	637.2	incongruent	Block3	incongruent/STIM_017.jpg	100
2682.478	0.595	594.6	incongruent	Block3	incongruent/STIM_017.jpg	100
2686.471	0.982	982.2	incongruent	Block3	incongruent/STIM_017.jpg	99
2690.967	1.151	1151.3	incongruent	Block3	incongruent/STIM_017.jpg	100
2694.213	0.722	722.1	incongruent	Block3	incongruent/STIM_017.jpg	99
2698.355	1.192	1191.8	incongruent	Block3	incongruent/STIM_018.jpg	100
2701.888	1.144	1144.3	incongruent	Block3	incongruent/STIM_018.jpg	100
2706.059	0.91	910.5	incongruent	Block3	incongruent/STIM_018.jpg	100
2710.501	1.194	1194.2	incongruent	Block3	incongruent/STIM_018.jpg	100
2714.702	0.949	949.1	incongruent	Block3	incongruent/STIM_018.jpg	100
2718.863	0.985	984.6	incongruent	Block3	incongruent/STIM_019.jpg	99
2722.228	1.044	1044.1	incongruent	Block3	incongruent/STIM_019.jpg	99
2726.671	0.64	640.2	incongruent	Block3	incongruent/STIM_019.jpg	100
2729.583	0.645	645.3	incongruent	Block3	incongruent/STIM_019.jpg	100
2732.415	0.721	720.6	incongruent	Block3	incongruent/STIM_019.jpg	100
2735.637	0.764	763.8	incongruent	Block3	incongruent/STIM_020.jpg	100
2738.426	0.832	832.1	incongruent	Block3	incongruent/STIM_020.jpg	99
2741.523	1.179	1179.4	incongruent	Block3	incongruent/STIM_020.jpg	100
2745.003	1.03	1029.8	incongruent	Block3	incongruent/STIM_020.jpg	99
2749.033	0.965	964.6	incongruent	Block3	incongruent/STIM_020.jpg	100
2752.138	0.689	688.6	incongruent	Block3	incongruent/STIM_021.jpg	100
2755.864	1.132	1132.1	incongruent	Block3	incongruent/STIM_021.jpg	100
2760.607	1.005	1004.7	incongruent	Block3	incongruent/STIM_021.jpg	100
2764.025	1.176	1176.4	incongruent	Block3	incongruent/STIM_021.jpg	100
2767.818	0.912	912.1	incongruent	Block3	incongruent/STIM_021.jpg	99
2772.527	1.059	1058.6	incongruent	Block3	incongruent/STIM_022.jpg	100
2775.835	1.156	1155.7	incongruent	Block3	incongruent/STIM_022.jpg	100
2780.305	0.634	633.7	incongruent	Block3	incongruent/STIM_022.jpg	99
2784.688	0.761	761.3	incongruent	Block3	incongruent/STIM_022.jpg	100
2787.86	1.0	1000.0	incongruent	Block3	incongruent/STIM_022.jpg	99
2791.466	0.757	757.3	incongruent	Block3	incongruent/STIM_023.jpg	99
2794.302	0.873	872.8	incongruent	Block3	incongruent/STIM_023.jpg	99
2799.09	0.6	599.6	incongruent	Block3	incongruent/STIM_023.jpg	100
2802.872	1.19	1189.5	incongruent	Block3	incongruent/STIM_023.jpg	100
2807.66	1.101	1101.4	incongruent	Block3	incongruent/STIM_023.jpg	100
2811.956	0.739	739.0	incongruent	Block3	incongruent/STIM_024.jpg	100
2815.168	0.986	986.2	incongruent	Block3	incongruent/STIM_024.jpg	100
2818.683	0.695	694.7	incongruent	Block3	incongruent/STIM_024.jpg	99
2823.218	1.048	1048.5	incongruent	Block3	incongruent/STIM_024.jpg	99
2828.22	0.594	593.6	incongruent	Block3	incongruent/STIM_024.jpg	99
2831.973	0.592	592.5	incongruent	Block3	incongruent/STIM_025.jpg	99
2834.882	0.972	971.7	incongruent	Block3	incongruent/STIM_025.jpg	100
2838.398	0.784	783.9	incongruent	Block3	incongruent/STIM_025.jpg	100
2841.889	0.651	650.8	incongruent	Block3	incongruent/STIM_025.jpg	100
2844.972	0.879	878.8	incongruent	Block3	incongruent/STIM_025.jpg	99
2848.83	1.115	1114.9	incongruent	Block3	incongruent/STIM_026.jpg	100
2852.967	1.014	1014.5	incongruent	Block3	incongruent/STIM_026.jpg	100
2856.755	0.981	981.1	incongruent	Block3	incongruent/STIM_026.jpg	99
2860.29	0.919	919.0	incongruent	Block3	incongruent/STIM_026.jpg	99
2864.208	0.945	944.7	incongruent	Block3	incongruent/STIM_026.jpg	100
2868.596	0.876	875.7	incongruent	Block3	incongruent/STIM_027.jpg	100
2873.104	0.735	734.7	incongruent	Block3	incongruent/STIM_027.jpg	100
2877.515	0.92	920.5	incongruent	Block3	incongruent/STIM_027.jpg	100
2881.129	0.594	594.0	incongruent	Block3	incongruent/STIM_027.jpg	99
2885.364	0.784	783.5	incongruent	Block3	incongruent/STIM_027.jpg	99
2889.467	0.581	581.0	incongruent	Block3	incongruent/STIM_028.jpg	99
2893.964	1.132	1131.6	incongruent	Block3	incongruent/STIM_028.jpg	99
2898.152	1.106	1106.4	incongruent	Block3	incongruent/STIM_028.jpg	99
2902.541	0.802	802.3	incongruent	Block3	incongruent/STIM_028.jpg	100
2905.821	0.733	732.8	incongruent	Block3	incongruent/STIM_028.jpg	100
2908.82	0.607	607.4	incongruent	Block3	incongruent/STIM_029.jpg	100
2913.294	0.708	708.0	incongruent	Block3	incongruent/STIM_029.jpg	100
2917.189	0.632	631.9	incongruent	Block3	incongruent/STIM_029.jpg	100
2920.813	0.708	707.9	incongruent	Block3	incongruent/STIM_029.jpg	100
2923.899	0.728	727.5	incongruent	Block3	incongruent/STIM_029.jpg	100
2928.414	0.713	712.7	congruent	Block3	congruent/STIM_000.jpg	99
2931.565	0.914	914.3	congruent	Block3	congruent/STIM_000.jpg	100
2935.864	0.584	584.0	congruent	Block3	congruent/STIM_000.jpg	100
2939.466	1.016	1015.5	congruent	Block3	congruent/STIM_000.jpg	99
2943.878	1.019	1019.1	congruent	Block3	congruent/STIM_000.jpg	100
2948.109	0.62	619.6	congruent	Block3	congruent/STIM_001.jpg	100
2951.968	0.991	991.4	congruent	Block3	congruent/STIM_001.jpg	99
2955.051	0.952	952.0	congruent	Block3	congruent/STIM_001.jpg	99
2958.073	0.763	762.7	congruent	Block3	congruent/STIM_001.jpg	100
2960.883	0.821	820.8	congruent	Block3	congruent/STIM_001.jpg	100
2964.615	0.65	649.8	congruent	Block3	congruent/STIM_002.jpg	99
2968.6	0.968	968.1	congruent	Block3	congruent/STIM_002.jpg	99
2972.364	0.923	922.8	congruent	Block3	congruent/STIM_002.jpg	99
2977.131	0.853	853.1	congruent	Block3	congruent/STIM_002.jpg	100
2981.264	0.732	732.5	congruent	Block3	congruent/STIM_002.jpg	99
2984.798	1.02	1020.4	congruent	Block3	congruent/STIM_003.jpg	99
2987.972	0.664	663.8	congruent	Block3	congruent/STIM_003.jpg	100
2990.765	0.776	775.5	congruent	Block3	congruent/STIM_003.jpg	99
2995.343	0.823	823.2	congruent	Block3	congruent/STIM_003.jpg	100
2998.519	0.696	696.5	congruent	Block3	congruent/STIM_003.jpg	100
3002.08	0.914	914.5	congruent	Block3	congruent/STIM_004.jpg	99
3005.388	0.782	782.0	congruent	Block3	congruent/STIM_004.jpg	99
3010.021	1.001	1000.7	congruent	Block3	congruent/STIM_004.jpg	99
3013.079	1.002	1001.5	congruent	Block3	congruent/STIM_004.jpg	99
3017.048	0.741	741.4	congruent	Block3	congruent/STIM_004.jpg	100
3021.641	0.716	715.9	congruent	Block3	congruent/STIM_005.jpg	100
3025.748	0.942	941.8	congruent	Block3	congruent/STIM_005.jpg	100
3029.546	0.645	644.9	congruent	Block3	congruent/STIM_005.jpg	100
3033.316	1.037	1036.7	congruent	Block3	congruent/STIM_005.jpg	100
3037.78	0.797	796.7	congruent	Block3	congruent/STIM_005.jpg	100
3042.333	0.777	777.4	congruent	Block3	congruent/STIM_006.jpg	99
3045.85	0.68	680.4	congruent	Block3	congruent/STIM_006.jpg	99
3049.873	0.819	819.4	congruent	Block3	congruent/STIM_006.jpg	99
3054.305	0.956	956.2	congruent	Block3	congruent/STIM_006.jpg	100
3058.614	1.027	1026.8	congruent	Block3	congruent/STIM_006.jpg	99
3063.061	0.937	937.0	congruent	Block3	congruent/STIM_007.jpg	100
3066.867	0.985	984.8	congruent	Block3	congruent/STIM_007.jpg	100
3071.281	0.833	832.7	congruent	Block3	congruent/STIM_007.jpg	99
3075.624	0.88	880.3	congruent	Block3	congruent/STIM_007.jpg	100
3079.383	0.681	680.9	congruent	Block3	congruent/STIM_007.jpg	99
3083.067	0.751	751.1	congruent	Block3	congruent/STIM_008.jpg	100
3087.05	0.979	978.8	congruent	Block3	congruent/STIM_008.jpg	99
3090.819	0.886	886.0	congruent	Block3	congruent/STIM_008.jpg	100
3094.192	0.866	866.1	congruent	Block3	congruent/STIM_008.jpg	100
3098.326	1.033	1032.9	congruent	Block3	congruent/STIM_008.jpg	100
3102.88	0.925	925.3	congruent	Block3	congruent/STIM_009.jpg	100
3107.369	1.033	1033.0	congruent	Block3	congruent/STIM_009.jpg	100
3110.873	0.589	588.9	congruent	Block3	congruent/STIM_009.jpg	100
3114.847	0.941	941.0	congruent	Block3	congruent/STIM_009.jpg	99
3119.132	0.826	825.7	congruent	Block3	congruent/STIM_009.jpg	99
3123.541	0.625	625.0	congruent	Block3	congruent/STIM_010.jpg	99
3127.828	1.028	1028.5	congruent	Block3	congruent/STIM_010.jpg	100
3132.654	0.967	966.9	congruent	Block3	congruent/STIM_010.jpg	100
3135.951	0.715	714.7	congruent	Block3	congruent/STIM_010.jpg	99
3138.765	0.636	636.3	congruent	Block3	congruent/STIM_010.jpg	99
3142.687	0.978	978.1	congruent	Block3	congruent/STIM_011.jpg	99
3147.31	0.954	953.6	congruent	Block3	congruent/STIM_011.jpg	100
3151.899	0.809	808.6	congruent	Block3	congruent/STIM_011.jpg	100
3156.002	0.76	760.5	congruent	Block3	congruent/STIM_011.jpg	100
3159.645	0.79	790.1	congruent	Block3	congruent/STIM_011.jpg	99
3164.415	0.831	831.1	congruent	Block3	congruent/STIM_012.jpg	100
3169.123	0.62	620.0	congruent	Block3	congruent/STIM_012.jpg	99
3173.599	0.751	750.6	congruent	Block3	congruent/STIM_012.jpg	100
3177.507	1.025	1025.1	congruent	Block3	congruent/STIM_012.jpg	100
3182.189	0.857	857.3	congruent	Block3	congruent/STIM_012.jpg	99
3186.936	0.963	963.3	congruent	Block3	congruent/STIM_013.jpg	99
3190.277	0.76	759.8	congruent	Block3	congruent/STIM_013.jpg	100
3194.775	0.802	801.7	congruent	Block3	congruent/STIM_013.jpg	99
3199.221	0.663	663.2	congruent	Block3	congruent/STIM_013.jpg	100
3203.075	0.78	779.6	congruent	Block3	congruent/STIM_013.jpg	100
3206.554	0.837	836.6	congruent	Block3	congruent/STIM_014.jpg	100
3211.203	0.704	704.2	congruent	Block3	congruent/STIM_014.jpg	99
3215.472	0.759	759.0	congruent	Block3	congruent/STIM_014.jpg	100
3219.175	0.788	787.7	congruent	Block3	congruent/STIM_014.jpg	99
3222.483	0.966	966.4	congruent	Block3	congruent/STIM_014.jpg	99
3226.694	0.896	895.9	congruent	Block3	congruent/STIM_015.jpg	100
3229.659	1.039	1039.2	congruent	Block3	congruent/STIM_015.jpg	100
3232.708	1.041	1041.4	congruent	Block3	congruent/STIM_015.jpg	99
3236.243	0.701	701.2	congruent	Block3	congruent/STIM_015.jpg	100
3239.769	0.71	710.0	congruent	Block3	congruent/STIM_015.jpg	100
3243.87	1.007	1006.8	congruent	Block3	congruent/STIM_016.jpg	100
3248.252	0.606	605.7	congruent	Block3	congruent/STIM_016.jpg	100
3251.712	0.844	843.5	congruent	Block3	congruent/STIM_016.jpg	100
3255.889	0.682	681.6	congruent	Block3	congruent/STIM_016.jpg	99
3259.426	0.696	695.7	congruent	Block3	congruent/STIM_016.jpg	99
3262.918	0.996	995.7	congruent	Block3	congruent/STIM_017.jpg	99
3266.706	0.674	673.9	congruent	Block3	congruent/STIM_017.jpg	99
3270.485	0.637	637.2	congruent	Block3	congruent/STIM_017.jpg	99
3273.734	0.767	767.2	congruent	Block3	congruent/STIM_017.jpg	99
3277.869	0.623	623.1	congruent	Block3	congruent/STIM_017.jpg	100
3280.968	1.023	1023.0	congruent	Block3	congruent/STIM_018.jpg	100
3285.201	0.636	636.0	congruent	Block3	congruent/STIM_018.jpg	100
3289.727	0.863	863.3	congruent	Block3	congruent/STIM_018.jpg	99
3294.484	0.706	706.5	congruent	Block3	congruent/STIM_018.jpg	99
3297.591	0.78	780.4	congruent	Block3	congruent/STIM_018.jpg	100
3300.965	0.858	857.7	congruent	Block3	congruent/STIM_019.jpg	99
3304.09	0.67	669.6	congruent	Block3	congruent/STIM_019.jpg	99
3307.369	0.922	921.5	congruent	Block3	congruent/STIM_019.jpg	100
3310.924	0.984	983.9	congruent	Block3	congruent/STIM_019.jpg	99
3314.044	0.775	774.6	congruent	Block3	congruent/STIM_019.jpg	99
3318.524	0.957	957.2	congruent	Block3	congruent/STIM_020.jpg	99
3322.616	0.931	930.8	congruent	Block3	congruent/STIM_020.jpg	99
3326.614	0.784	783.5	congruent	Block3	congruent/STIM_020.jpg	100
3330.504	0.855	854.7	congruent	Block3	congruent/STIM_020.jpg	100
3333.612	0.823	823.1	congruent	Block3	congruent/STIM_020.jpg	100
3337.472	0.824	824.5	congruent	Block3	congruent/STIM_021.jpg	99
3342.19	0.639	639.0	congruent	Block3	congruent/STIM_021.jpg	99
3345.763	0.681	680.8	congruent	Block3	congruent/STIM_021.jpg	99
3349.784	0.619	618.7	congruent	Block3	congruent/STIM_021.jpg	99
3353.98	0.892	892.4	congruent	Block3	congruent/STIM_021.jpg	99
3357.159	0.967	966.7	congruent	Block3	congruent/STIM_022.jpg	100
3360.514	0.803	803.1	congruent	Block3	congruent/STIM_022.jpg	99
3363.928	0.776	775.9	congruent	Block3	congruent/STIM_022.jpg	100
3367.273	0.608	608.3	congruent	Block3	congruent/STIM_022.jpg	100
3370.437	0.912	912.5	congruent	Block3	congruent/STIM_022.jpg	100
3373.928	0.62	620.3	congruent	Block3	congruent/STIM_023.jpg	100
3378.095	0.75	749.8	congruent	Block3	congruent/STIM_023.jpg	99
3381.881	0.986	985.6	congruent	Block3	congruent/STIM_023.jpg	100
3384.92	0.809	809.1	congruent	Block3	congruent/STIM_023.jpg	100
3389.28	1.023	1022.8	congruent	Block3	congruent/STIM_023.jpg	100
3394.061	1.04	1039.7	congruent	Block3	congruent/STIM_024.jpg	100
3397.257	0.726	725.5	congruent	Block3	congruent/STIM_024.jpg	100
3400.683	0.813	812.9	congruent	Block3	congruent/STIM_024.jpg	100
3403.547	0.851	851.4	congruent	Block3	congruent/STIM_024.jpg	100
3408.198	0.826	825.9	congruent	Block3	congruent/STIM_024.jpg	99
3412.684	0.818	818.4	congruent	Block3	congruent/STIM_025.jpg	99
3415.791	0.801	800.9	congruent	Block3	congruent/STIM_025.jpg	99
3419.916	0.76	760.5	congruent	Block3	congruent/STIM_025.jpg	100
3424.16	0.903	903.1	congruent	Block3	congruent/STIM_025.jpg	100
3428.275	0.918	917.9	congruent	Block3	congruent/STIM_025.jpg	100
3431.889	1.01	1010.0	congruent	Block3	congruent/STIM_026.jpg	99
3436.858	0.678	678.0	congruent	Block3	congruent/STIM_026.jpg	100
3441.367	0.793	793.0	congruent	Block3	congruent/STIM_026.jpg	100
3444.38	0.619	619.1	congruent	Block3	congruent/STIM_026.jpg	99
3447.686	0.591	591.3	congruent	Block3	congruent/STIM_026.jpg	99
3451.21	0.677	676.9	congruent	Block3	congruent/STIM_027.jpg	99
3454.501	0.873	873.3	congruent	Block3	congruent/STIM_027.jpg	100
3458.351	0.683	682.6	congruent	Block3	congruent/STIM_027.jpg	99
3461.825	1.003	1002.9	congruent	Block3	congruent/STIM_027.jpg	99
3464.886	0.664	663.5	congruent	Block3	congruent/STIM_027.jpg	99
3467.804	0.604	604.3	congruent	Block3	congruent/STIM_028.jpg	99
3471.229	0.604	604.4	congruent	Block3	congruent/STIM_028.jpg	99
3475.602	0.877	876.9	congruent	Block3	congruent/STIM_028.jpg	100
3479.611	0.671	671.1	congruent	Block3	congruent/STIM_028.jpg	99
3484.001	0.63	630.2	congruent	Block3	congruent/STIM_028.jpg	99
3488.176	0.847	847.4	congruent	Block3	congruent/STIM_029.jpg	100
3491.15	1.019	1018.7	congruent	Block3	congruent/STIM_029.jpg	99
3494.86	0.682	681.9	congruent	Block3	congruent/STIM_029.jpg	100
3498.852	0.973	972.7	congruent	Block3	congruent/STIM_029.jpg	100
3503.481	1.014	1014.2	congruent	Block3	congruent/STIM_029.jpg	99
