onset	duration	response_time_ms	trial_type	learning_stage	stimulus	response_port
0.0	0.835	834.7	incongruent	Block1	incongruent/STIM_000.jpg	100
3.467	1.012	1011.8	incongruent	Block1	incongruent/STIM_000.jpg	100
6.899	0.904	904.0	incongruent	Block1	incongruent/STIM_000.jpg	100
11.075	0.887	886.8	incongruent	Block1	incongruent/STIM_000.jpg	100
15.106	0.903	903.3	incongruent	Block1	incongruent/STIM_000.jpg	100
19.748	1.748	1748.4	incongruent	Block1	incongruent/STIM_001.jpg	99
24.867	1.384	1383.5	incongruent	Block1	incongruent/STIM_001.jpg	99
29.009	1.237	1236.7	incongruent	Block1	incongruent/STIM_001.jpg	99
33.041	0.857	856.8	incongruent	Block1	incongruent/STIM_001.jpg	99
35.87	1.067	1067.3	incongruent	Block1	incongruent/STIM_001.jpg	100
39.523	1.388	1387.7	incongruent	Block1	incongruent/STIM_002.jpg	99
44.324	0.94	939.7	incongruent	Block1	incongruent/STIM_002.jpg	99
48.536	1.202	1201.6	incongruent	Block1	incongruent/STIM_002.jpg	99
52.732	1.145	1144.7	incongruent	Block1	incongruent/STIM_002.jpg	99
57.566	0.786	785.7	incongruent	Block1	incongruent/STIM_002.jpg	99
61.85	1.457	1456.9	incongruent	Block1	incongruent/STIM_003.jpg	99
66.442	1.263	1262.7	incongruent	Block1	incongruent/STIM_003.jpg	100
70.362	1.127	1126.9	incongruent	Block1	incongruent/STIM_003.jpg	99
74.968	0.892	891.9	incongruent	Block1	incongruent/STIM_003.jpg	99
77.927	0.87	870.4	incongruent	Block1	incongruent/STIM_003.jpg	99
81.895	1.329	1329.3	incongruent	Block1	incongruent/STIM_004.jpg	100
86.823	0.792	792.5	incongruent	Block1	incongruent/STIM_004.jpg	99
90.961	0.66	660.5	incongruent	Block1	incongruent/STIM_004.jpg	99
95.06	0.692	692.5	incongruent	Block1	incongruent/STIM_004.jpg	100
98.589	0.955	954.8	incongruent	Block1	incongruent/STIM_004.jpg	100
102.24	1.649	1649.3	incongruent	Block1	incongruent/STIM_005.jpg	99
107.377	1.262	1262.5	incongruent	Block1	incongruent/STIM_005.jpg	100
111.51	0.882	882.4	incongruent	Block1	incongruent/STIM_005.jpg	100
115.684	0.847	847.4	incongruent	Block1	incongruent/STIM_005.jpg	100
119.383	0.935	935.1	incongruent	Block1	incongruent/STIM_005.jpg	100
123.014	0.764	764.4	incongruent	Block1	incongruent/STIM_006.jpg	100
126.516	1.149	1149.4	incongruent	Block1	incongruent/STIM_006.jpg	100
130.988	0.981	981.0	incongruent	Block1	incongruent/STIM_006.jpg	99
135.624	1.198	1198.1	incongruent	Block1	incongruent/STIM_006.jpg	100
139.093	1.008	1008.5	incongruent	Block1	incongruent/STIM_006.jpg	99
143.212	1.538	1538.0	incongruent	Block1	incongruent/STIM_007.jpg	100
147.739	0.754	754.0	incongruent	Block1	incongruent/STIM_007.jpg	99
150.659	1.449	1448.7	incongruent	Block1	incongruent/STIM_007.jpg	99
155.915	1.019	1018.6	incongruent	Block1	incongruent/STIM_007.jpg	99
159.23	1.13	1129.5	incongruent	Block1	incongruent/STIM_007.jpg	100
162.645	0.969	968.6	incongruent	Block1	incongruent/STIM_008.jpg	100
166.416	1.332	1332.5	incongruent	Block1	incongruent/STIM_008.jpg	99
169.895	1.048	1047.7	incongruent	Block1	incongruent/STIM_008.jpg	100
173.156	0.728	727.9	incongruent	Block1	incongruent/STIM_008.jpg	99
177.597	1.286	1286.1	incongruent	Block1	incongruent/STIM_008.jpg	100
180.918	0.888	888.4	incongruent	Block1	incongruent/STIM_009.jpg	100
185.644	1.222	1221.5	incongruent	Block1	incongruent/STIM_009.jpg	100
190.336	1.354	1353.9	incongruent	Block1	incongruent/STIM_009.jpg	100
195.177	1.179	1179.1	incongruent	Block1	incongruent/STIM_009.jpg	99
199.104	1.132	1132.1	incongruent	Block1	incongruent/STIM_009.jpg	100
203.191	1.014	1014.0	incongruent	Block1	incongruent/STIM_010.jpg	100
207.454	1.485	1485.1	incongruent	Block1	incongruent/STIM_010.jpg	100
211.607	0.932	932.2	incongruent	Block1	incongruent/STIM_010.jpg	100
215.465	0.81	809.9	incongruent	Block1	incongruent/STIM_010.jpg	100
219.506	1.078	1078.1	incongruent	Block1	incongruent/STIM_010.jpg	99
223.502	1.221	1220.6	incongruent	Block1	incongruent/STIM_011.jpg	99
227.925	0.738	738.3	incongruent	Block1	incongruent/STIM_011.jpg	99
231.136	1.334	1333.5	incongruent	Block1	incongruent/STIM_011.jpg	100
236.196	0.758	758.0	incongruent	Block1	incongruent/STIM_011.jpg	100
240.858	0.861	861.4	incongruent	Block1	incongruent/STIM_011.jpg	100
244.2	0.866	865.7	incongruent	Block1	incongruent/STIM_012.jpg	100
248.85	1.429	1429.2	incongruent	Block1	incongruent/STIM_012.jpg	100
252.572	1.147	1147.1	incongruent	Block1	incongruent/STIM_012.jpg	99
256.864	0.809	809.2	incongruent	Block1	incongruent/STIM_012.jpg	100
261.193	0.787	787.1	incongruent	Block1	incongruent/STIM_012.jpg	100
264.426	0.854	854.1	incongruent	Block1	incongruent/STIM_013.jpg	100
268.968	1.199	1198.6	incongruent	Block1	incongruent/STIM_013.jpg	100
272.075	0.716	716.5	incongruent	Block1	incongruent/STIM_013.jpg	100
275.045	1.075	1075.2	incongruent	Block1	incongruent/STIM_013.jpg	100
278.728	1.197	1197.4	incongruent	Block1	incongruent/STIM_013.jpg	99
281.888	1.377	1376.8	incongruent	Block1	incongruent/STIM_014.jpg	99
285.168	1.315	1315.3	incongruent	Block1	incongruent/STIM_014.jpg	100
289.47	1.262	1261.8	incongruent	Block1	incongruent/STIM_014.jpg	99
294.238	1.268	1268.1	incongruent	Block1	incongruent/STIM_014.jpg	99
298.672	0.939	938.9	incongruent	Block1	incongruent/STIM_014.jpg	99
301.699	1.154	1153.6	incongruent	Block1	incongruent/STIM_015.jpg	100
305.895	1.506	1506.4	incongruent	Block1	incongruent/STIM_015.jpg	99
309.614	1.297	1296.6	incongruent	Block1	incongruent/STIM_015.jpg	100
313.208	1.131	1130.7	incongruent	Block1	incongruent/STIM_015.jpg	99
316.391	0.766	766.4	incongruent	Block1	incongruent/STIM_015.jpg	99
321.012	0.866	866.2	incongruent	Block1	incongruent/STIM_016.jpg	99
325.258	0.654	653.8	incongruent	Block1	incongruent/STIM_016.jpg	99
329.713	1.215	1214.9	incongruent	Block1	incongruent/STIM_016.jpg	100
334.48	1.308	1308.5	incongruent	Block1	incongruent/STIM_016.jpg	100
337.857	1.346	1345.7	incongruent	Block1	incongruent/STIM_016.jpg	99
341.487	1.235	1235.3	incongruent	Block1	incongruent/STIM_017.jpg	100
344.976	1.283	1283.4	incongruent	Block1	incongruent/STIM_017.jpg	99
350.075	0.882	882.0	incongruent	Block1	incongruent/STIM_017.jpg	99
353.662	1.025	1024.9	incongruent	Block1	incongruent/STIM_017.jpg	100
358.121	0.818	817.5	incongruent	Block1	incongruent/STIM_017.jpg	99
362.348	1.56	1559.6	incongruent	Block1	incongruent/STIM_018.jpg	99
365.841	1.434	1433.5	incongruent	Block1	incongruent/STIM_018.jpg	100
369.38	1.003	1003.2	incongruent	Block1	incongruent/STIM_018.jpg	100
372.531	1.124	1123.7	incongruent	Block1	incongruent/STIM_018.jpg	99
376.825	1.284	1283.9	incongruent	Block1	incongruent/STIM_018.jpg	100
381.656	0.882	882.5	incongruent	Block1	incongruent/STIM_019.jpg	99
385.998	1.39	1389.6	incongruent	Block1	incongruent/STIM_019.jpg	99
389.535	1.072	1071.8	incongruent	Block1	incongruent/STIM_019.jpg	99
393.396	0.972	972.3	incongruent	Block1	incongruent/STIM_019.jpg	100
397.534	1.112	1112.3	incongruent	Block1	incongruent/STIM_019.jpg	100
400.582	1.072	1072.4	incongruent	Block1	incongruent/STIM_020.jpg	99
403.732	1.452	1451.5	incongruent	Block1	incongruent/STIM_020.jpg	100
409.003	1.25	1249.7	incongruent	Block1	incongruent/STIM_020.jpg	100
413.72	0.754	753.9	incongruent	Block1	incongruent/STIM_020.jpg	99
417.763	0.826	825.7	incongruent	Block1	incongruent/STIM_020.jpg	99
422.07	1.2	1200.0	incongruent	Block1	incongruent/STIM_021.jpg	100
427.02	0.862	861.8	incongruent	Block1	incongruent/STIM_021.jpg	100
431.09	1.497	1496.7	incongruent	Block1	incongruent/STIM_021.jpg	99
434.773	1.135	1134.6	incongruent	Block1	incongruent/STIM_021.jpg	99
438.156	0.649	649.3	incongruent	Block1	incongruent/STIM_021.jpg	100
442.594	1.167	1167.3	incongruent	Block1	incongruent/STIM_022.jpg	100
447.27	1.198	1198.1	incongruent	Block1	incongruent/STIM_022.jpg	99
452.063	1.469	1469.2	incongruent	Block1	incongruent/STIM_022.jpg	100
455.785	1.019	1018.7	incongruent	Block1	incongruent/STIM_022.jpg	99
459.673	1.252	1252.3	incongruent	Block1	incongruent/STIM_022.jpg	100
463.801	1.118	1118.3	incongruent	Block1	incongruent/STIM_023.jpg	100
467.365	0.905	904.9	incongruent	Block1	incongruent/STIM_023.jpg	100
471.478	1.195	1195.2	incongruent	Block1	incongruent/STIM_023.jpg	100
475.031	1.305	1304.9	incongruent	Block1	incongruent/STIM_023.jpg	99
478.856	0.975	974.6	incongruent	Block1	incongruent/STIM_023.jpg	99
483.438	1.07	1070.3	incongruent	Block1	incongruent/STIM_024.jpg	100
487.837	1.032	1032.4	incongruent	Block1	incongruent/STIM_024.jpg	100
492.278	0.817	817.4	incongruent	Block1	incongruent/STIM_024.jpg	100
495.445	1.26	1259.8	incongruent	Block1	incongruent/STIM_024.jpg	99
499.144	0.887	887.2	incongruent	Block1	incongruent/STIM_024.jpg	99
502.234	1.396	1396.0	incongruent	Block1	incongruent/STIM_025.jpg	99
506.269	1.354	1353.8	incongruent	Block1	incongruent/STIM_025.jpg	99
511.161	1.161	1160.9	incongruent	Block1	incongruent/STIM_025.jpg	100
514.93	1.137	1137.0	incongruent	Block1	incongruent/STIM_025.jpg	99
518.52	1.1	1100.4	incongruent	Block1	incongruent/STIM_025.jpg	100
522.267	1.075	1075.1	incongruent	Block1	incongruent/STIM_026.jpg	99
526.011	1.182	1182.4	incongruent	Block1	incongruent/STIM_026.jpg	100
529.273	1.328	1328.2	incongruent	Block1	incongruent/STIM_026.jpg	100
532.85	1.364	1363.7	incongruent	Block1	incongruent/STIM_026.jpg	99
537.459	1.317	1316.9	incongruent	Block1	incongruent/STIM_026.jpg	99
541.131	1.05	1050.0	incongruent	Block1	incongruent/STIM_027.jpg	100
544.767	1.294	1293.5	incongruent	Block1	incongruent/STIM_027.jpg	99
549.62	1.142	1142.3	incongruent	Block1	incongruent/STIM_027.jpg	99
554.242	1.164	1163.6	incongruent	Block1	incongruent/STIM_027.jpg	100
557.667	0.778	777.8	incongruent	Block1	incongruent/STIM_027.jpg	100
560.77	0.963	963.2	incongruent	Block1	incongruent/STIM_028.jpg	99
565.035	1.249	1248.8	incongruent	Block1	incongruent/STIM_028.jpg	100
568.458	1.036	1036.5	incongruent	Block1	incongruent/STIM_028.jpg	100
572.782	0.863	863.2	incongruent	Block1	incongruent/STIM_028.jpg	99
576.098	0.615	615.4	incongruent	Block1	incongruent/STIM_028.jpg	100
579.851	0.865	865.0	incongruent	Block1	incongruent/STIM_029.jpg	99
582.804	0.977	977.1	incongruent	Block1	incongruent/STIM_029.jpg	100
586.117	0.885	885.3	incongruent	Block1	incongruent/STIM_029.jpg	99
589.976	0.993	993.4	incongruent	Block1	incongruent/STIM_029.jpg	99
593.961	1.091	1091.3	incongruent	Block1	incongruent/STIM_029.jpg	99
597.0	0.579	579.1	congruent	Block1	congruent/STIM_000.jpg	100
600.973	0.626	626.2	congruent	Block1	congruent/STIM_000.jpg	99
605.163	0.872	872.4	congruent	Block1	congruent/STIM_000.jpg	99
609.132	0.928	928.3	congruent	Block1	congruent/STIM_000.jpg	100
612.418	0.698	698.3	congruent	Block1	congruent/STIM_000.jpg	100
616.492	0.75	750.3	congruent	Block1	congruent/STIM_001.jpg	100
620.038	0.687	687.0	congruent	Block1	congruent/STIM_001.jpg	99
622.691	0.711	711.1	congruent	Block1	congruent/STIM_001.jpg	99
626.497	0.878	878.1	congruent	Block1	congruent/STIM_001.jpg	99
630.79	0.983	982.6	congruent	Block1	congruent/STIM_001.jpg	100
634.883	0.658	658.1	congruent	Block1	congruent/STIM_002.jpg	99
638.837	0.65	650.1	congruent	Block1	congruent/STIM_002.jpg	100
642.689	0.933	933.1	congruent	Block1	congruent/STIM_002.jpg	99
645.804	0.989	989.2	congruent	Block1	congruent/STIM_002.jpg	99
648.711	0.923	923.4	congruent	Block1	congruent/STIM_002.jpg	100
653.451	0.714	714.4	congruent	Block1	congruent/STIM_003.jpg	99
656.638	0.729	729.0	congruent	Block1	congruent/STIM_003.jpg	99
659.476	0.911	911.3	congruent	Block1	congruent/STIM_003.jpg	100
664.15	0.781	781.4	congruent	Block1	congruent/STIM_003.jpg	100
668.805	0.952	951.5	congruent	Block1	congruent/STIM_003.jpg	100
671.859	0.877	876.7	congruent	Block1	congruent/STIM_004.jpg	99
676.526	0.686	686.4	congruent	Block1	congruent/STIM_004.jpg	100
679.9	0.716	716.1	congruent	Block1	congruent/STIM_004.jpg	100
682.913	0.785	785.0	congruent	Block1	congruent/STIM_004.jpg	99
686.142	0.947	947.4	congruent	Block1	congruent/STIM_004.jpg	100
689.264	0.727	727.1	congruent	Block1	congruent/STIM_005.jpg	99
692.777	0.914	913.6	congruent	Block1	congruent/STIM_005.jpg	99
696.378	0.691	691.3	congruent	Block1	congruent/STIM_005.jpg	99
700.448	0.789	788.9	congruent	Block1	congruent/STIM_005.jpg	100
704.621	0.731	731.4	congruent	Block1	congruent/STIM_005.jpg	99
708.002	0.62	620.3	congruent	Block1	congruent/STIM_006.jpg	99
712.306	0.598	598.1	congruent	Block1	congruent/STIM_006.jpg	100
715.585	0.888	888.0	congruent	Block1	congruent/STIM_006.jpg	100
719.043	0.59	590.5	congruent	Block1	congruent/STIM_006.jpg	100
722.58	0.545	544.6	congruent	Block1	congruent/STIM_006.jpg	100
725.512	0.89	890.2	congruent	Block1	congruent/STIM_007.jpg	99
729.2	0.66	660.3	congruent	Block1	congruent/STIM_007.jpg	100
732.789	0.862	861.8	congruent	Block1	congruent/STIM_007.jpg	99
736.566	0.706	705.5	congruent	Block1	congruent/STIM_007.jpg	99
740.361	0.933	933.2	congruent	Block1	congruent/STIM_007.jpg	100
744.189	0.871	871.0	congruent	Block1	congruent/STIM_008.jpg	100
748.725	1.041	1040.6	congruent	Block1	congruent/STIM_008.jpg	100
751.733	0.928	928.5	congruent	Block1	congruent/STIM_008.jpg	100
756.481	0.814	813.6	congruent	Block1	congruent/STIM_008.jpg	100
759.976	0.665	664.7	congruent	Block1	congruent/STIM_008.jpg	100
764.447	0.808	807.7	congruent	Block1	congruent/STIM_009.jpg	100
768.538	0.702	702.5	congruent	Block1	congruent/STIM_009.jpg	99
771.873	0.792	791.8	congruent	Block1	congruent/STIM_009.jpg	99
775.913	0.664	664.4	congruent	Block1	congruent/STIM_009.jpg	100
778.594	0.873	872.6	congruent	Block1	congruent/STIM_009.jpg	99
781.961	0.694	693.9	congruent	Block1	congruent/STIM_010.jpg	99
784.656	0.729	729.2	congruent	Block1	congruent/STIM_010.jpg	100
788.79	0.687	686.6	congruent	Block1	congruent/STIM_010.jpg	100
792.185	0.628	627.8	congruent	Block1	congruent/STIM_010.jpg	99
796.561	0.896	895.7	congruent	Block1	congruent/STIM_010.jpg	99
800.003	0.606	605.6	congruent	Block1	congruent/STIM_011.jpg	99
803.341	0.653	653.4	congruent	Block1	congruent/STIM_011.jpg	99
807.587	0.883	882.6	congruent	Block1	congruent/STIM_011.jpg	100
810.706	0.758	757.8	congruent	Block1	congruent/STIM_011.jpg	100
814.32	0.974	974.0	congruent	Block1	congruent/STIM_011.jpg	100
818.728	0.966	966.1	congruent	Block1	congruent/STIM_012.jpg	99
823.013	0.988	988.5	congruent	Block1	congruent/STIM_012.jpg	100
827.72	0.649	649.2	congruent	Block1	congruent/STIM_012.jpg	99
831.863	0.871	871.0	congruent	Block1	congruent/STIM_012.jpg	100
835.365	0.804	804.1	congruent	Block1	congruent/STIM_012.jpg	99
839.361	0.885	884.7	congruent	Block1	congruent/STIM_013.jpg	100
842.358	0.687	686.6	congruent	Block1	congruent/STIM_013.jpg	99
846.875	0.772	772.5	congruent	Block1	congruent/STIM_013.jpg	99
850.257	0.557	557.0	congruent	Block1	congruent/STIM_013.jpg	99
854.469	0.863	863.2	congruent	Block1	congruent/STIM_013.jpg	99
857.599	0.731	731.3	congruent	Block1	congruent/STIM_014.jpg	99
862.182	0.496	496.2	congruent	Block1	congruent/STIM_014.jpg	100
865.576	0.802	802.1	congruent	Block1	congruent/STIM_014.jpg	99
868.453	0.863	862.7	congruent	Block1	congruent/STIM_014.jpg	100
873.0	0.973	973.4	congruent	Block1	congruent/STIM_014.jpg	100
876.416	1.003	1003.1	congruent	Block1	congruent/STIM_015.jpg	100
879.339	0.662	661.5	congruent	Block1	congruent/STIM_015.jpg	100
882.039	0.816	815.9	congruent	Block1	congruent/STIM_015.jpg	100
886.647	0.716	715.5	congruent	Block1	congruent/STIM_015.jpg	100
890.515	0.85	849.6	congruent	Block1	congruent/STIM_015.jpg	100
894.874	0.886	886.0	congruent	Block1	congruent/STIM_016.jpg	100
897.876	0.641	640.6	congruent	Block1	congruent/STIM_016.jpg	99
901.927	0.837	836.9	congruent	Block1	congruent/STIM_016.jpg	100
905.514	0.57	569.5	congruent	Block1	congruent/STIM_016.jpg	100
908.939	0.59	589.8	congruent	Block1	congruent/STIM_016.jpg	99
911.905	0.95	949.8	congruent	Block1	congruent/STIM_017.jpg	100
915.24	0.639	638.9	congruent	Block1	congruent/STIM_017.jpg	99
918.497	0.924	924.0	congruent	Block1	congruent/STIM_017.jpg	100
921.871	0.752	752.0	congruent	Block1	congruent/STIM_017.jpg	99
925.402	0.876	876.2	congruent	Block1	congruent/STIM_017.jpg	99
929.605	0.597	597.2	congruent	Block1	congruent/STIM_018.jpg	100
933.313	0.567	566.9	congruent	Block1	congruent/STIM_018.jpg	99
936.342	0.653	653.4	congruent	Block1	congruent/STIM_018.jpg	99
939.622	0.589	589.1	congruent	Block1	congruent/STIM_018.jpg	99
942.169	0.68	680.0	congruent	Block1	congruent/STIM_018.jpg	99
946.034	0.795	794.8	congruent	Block1	congruent/STIM_019.jpg	99
949.208	0.609	608.7	congruent	Block1	congruent/STIM_019.jpg	99
952.103	0.573	573.0	congruent	Block1	congruent/STIM_019.jpg	99
955.948	0.595	595.0	congruent	Block1	congruent/STIM_019.jpg	100
959.632	0.864	864.0	congruent	Block1	congruent/STIM_019.jpg	99
962.561	0.615	614.8	congruent	Block1	congruent/STIM_020.jpg	99
966.192	0.852	852.3	congruent	Block1	congruent/STIM_020.jpg	100
970.623	0.662	661.7	congruent	Block1	congruent/STIM_020.jpg	100
975.013	0.882	881.7	congruent	Block1	congruent/STIM_020.jpg	100
978.851	0.993	993.3	congruent	Block1	congruent/STIM_020.jpg	100
983.346	0.893	893.1	congruent	Block1	congruent/STIM_021.jpg	99
986.507	0.462	462.5	congruent	Block1	congruent/STIM_021.jpg	100
990.286	0.692	692.1	congruent	Block1	congruent/STIM_021.jpg	100
993.518	0.911	910.7	congruent	Block1	congruent/STIM_021.jpg	100
997.832	0.632	631.8	congruent	Block1	congruent/STIM_021.jpg	99
1002.323	0.676	675.8	congruent	Block1	congruent/STIM_022.jpg	100
1005.473	0.95	949.8	congruent	Block1	congruent/STIM_022.jpg	100
1009.049	0.817	816.6	congruent	Block1	congruent/STIM_022.jpg	99
1013.618	0.747	747.0	congruent	Block1	congruent/STIM_022.jpg	99
1017.867	1.073	1073.0	congruent	Block1	congruent/STIM_022.jpg	99
1021.661	1.031	1030.6	congruent	Block1	congruent/STIM_023.jpg	100
1025.585	0.69	689.8	congruent	Block1	congruent/STIM_023.jpg	100
1028.59	0.614	613.6	congruent	Block1	congruent/STIM_023.jpg	99
1031.597	0.795	795.3	congruent	Block1	congruent/STIM_023.jpg	99
1035.366	0.808	807.8	congruent	Block1	congruent/STIM_023.jpg	100
1038.266	0.815	814.9	congruent	Block1	congruent/STIM_024.jpg	99
1042.359	0.862	862.1	congruent	Block1	congruent/STIM_024.jpg	99
1046.131	0.61	609.7	congruent	Block1	congruent/STIM_024.jpg	100
1049.513	0.77	769.7	congruent	Block1	congruent/STIM_024.jpg	100
1052.921	0.82	819.7	congruent	Block1	congruent/STIM_024.jpg	100
1056.905	1.01	1009.7	congruent	Block1	congruent/STIM_025.jpg	100
1060.944	0.967	967.2	congruent	Block1	congruent/STIM_025.jpg	100
1064.743	0.656	656.5	congruent	Block1	congruent/STIM_025.jpg	100
1067.349	0.894	894.4	congruent	Block1	congruent/STIM_025.jpg	99
1070.136	0.802	802.2	congruent	Block1	congruent/STIM_025.jpg	100
1074.206	0.771	770.7	congruent	Block1	congruent/STIM_026.jpg	99
1077.573	0.797	797.0	congruent	Block1	congruent/STIM_026.jpg	99
1081.28	0.858	857.5	congruent	Block1	congruent/STIM_026.jpg	99
1085.326	0.715	715.0	congruent	Block1	congruent/STIM_026.jpg	99
1088.603	0.954	953.9	congruent	Block1	congruent/STIM_026.jpg	99
1092.321	0.631	631.2	congruent	Block1	congruent/STIM_027.jpg	100
1095.012	0.618	618.1	congruent	Block1	congruent/STIM_027.jpg	100
1097.964	0.671	671.2	congruent	Block1	congruent/STIM_027.jpg	99
1101.245	0.708	708.0	congruent	Block1	congruent/STIM_027.jpg	100
1105.709	1.019	1018.6	congruent	Block1	congruent/STIM_027.jpg	99
1109.106	0.806	806.5	congruent	Block1	congruent/STIM_028.jpg	99
1113.138	0.764	764.4	congruent	Block1	congruent/STIM_028.jpg	100
1116.582	0.747	747.1	congruent	Block1	congruent/STIM_028.jpg	99
1120.275	0.958	957.9	congruent	Block1	congruent/STIM_028.jpg	99
1124.664	0.603	603.1	congruent	Block1	congruent/STIM_028.jpg	100
1128.092	0.696	695.9	congruent	Block1	congruent/STIM_029.jpg	100
1131.925	0.491	490.8	congruent	Block1	congruent/STIM_029.jpg	100
1136.163	0.869	868.6	congruent	Block1	congruent/STIM_029.jpg	99
1140.264	0.64	640.5	congruent	Block1	congruent/STIM_029.jpg	100
1144.111	0.596	596.1	congruent	Block1	congruent/STIM_029.jpg	99
1147.735	0.829	828.9	incongruent	Block2	incongruent/STIM_000.jpg	100
1151.527	0.747	747.2	incongruent	Block2	incongruent/STIM_000.jpg	100
1154.732	0.739	739.3	incongruent	Block2	incongruent/STIM_000.jpg	99
1157.568	1.144	1143.5	incongruent	Block2	incongruent/STIM_000.jpg	99
1162.109	0.915	915.1	incongruent	Block2	incongruent/STIM_000.jpg	100
1165.529	0.707	707.4	incongruent	Block2	incongruent/STIM_001.jpg	100
1168.411	0.619	619.2	incongruent	Block2	incongruent/STIM_001.jpg	100
1172.886	0.948	947.8	incongruent	Block2	incongruent/STIM_001.jpg	100
1177.07	0.671	671.1	incongruent	Block2	incongruent/STIM_001.jpg	99
1181.178	0.638	638.3	incongruent	Block2	incongruent/STIM_001.jpg	99
1184.636	0.91	909.6	incongruent	Block2	incongruent/STIM_002.jpg	99
1188.916	0.727	726.8	incongruent	Block2	incongruent/STIM_002.jpg	100
1192.146	0.659	659.1	incongruent	Block2	incongruent/STIM_002.jpg	99
1194.735	0.796	795.5	incongruent	Block2	incongruent/STIM_002.jpg	100
1198.433	0.782	781.7	incongruent	Block2	incongruent/STIM_002.jpg	100
1202.517	0.762	761.8	incongruent	Block2	incongruent/STIM_003.jpg	100
1206.835	1.111	1111.3	incongruent	Block2	incongruent/STIM_003.jpg	99
1211.335	0.616	615.8	incongruent	Block2	incongruent/STIM_003.jpg	99
1215.325	0.613	613.4	incongruent	Block2	incongruent/STIM_003.jpg	99
1219.119	1.049	1048.8	incongruent	Block2	incongruent/STIM_003.jpg	100
1223.363	0.723	723.3	incongruent	Block2	incongruent/STIM_004.jpg	100
1226.996	0.905	904.7	incongruent	Block2	incongruent/STIM_004.jpg	100
1230.043	0.806	806.3	incongruent	Block2	incongruent/STIM_004.jpg	99
1233.812	0.543	543.2	incongruent	Block2	incongruent/STIM_004.jpg	100
1237.512	1.055	1055.4	incongruent	Block2	incongruent/STIM_004.jpg	100
1240.837	0.749	749.3	incongruent	Block2	incongruent/STIM_005.jpg	99
1244.45	0.596	596.3	incongruent	Block2	incongruent/STIM_005.jpg	100
1247.2	1.178	1178.3	incongruent	Block2	incongruent/STIM_005.jpg	100
1250.365	0.899	899.3	incongruent	Block2	incongruent/STIM_005.jpg	100
1254.936	0.759	759.3	incongruent	Block2	incongruent/STIM_005.jpg	99
1258.444	0.794	793.5	incongruent	Block2	incongruent/STIM_006.jpg	100
1261.157	0.926	926.3	incongruent	Block2	incongruent/STIM_006.jpg	100
1265.126	0.961	961.4	incongruent	Block2	incongruent/STIM_006.jpg	100
1268.882	0.652	651.7	incongruent	Block2	incongruent/STIM_006.jpg	99
1271.578	1.011	1011.1	incongruent	Block2	incongruent/STIM_006.jpg	100
1275.831	1.448	1447.5	incongruent	Block2	incongruent/STIM_007.jpg	99
1279.819	1.053	1052.8	incongruent	Block2	incongruent/STIM_007.jpg	100
1284.191	0.707	707.2	incongruent	Block2	incongruent/STIM_007.jpg	100
1287.509	0.787	786.9	incongruent	Block2	incongruent/STIM_007.jpg	100
1290.854	1.11	1110.5	incongruent	Block2	incongruent/STIM_007.jpg	99
1295.114	1.124	1124.2	incongruent	Block2	incongruent/STIM_008.jpg	100
1298.866	1.162	1162.5	incongruent	Block2	incongruent/STIM_008.jpg	100
1303.233	1.005	1004.8	incongruent	Block2	incongruent/STIM_008.jpg	100
1306.174	0.83	829.6	incongruent	Block2	incongruent/STIM_008.jpg	100
1309.046	0.714	714.0	incongruent	Block2	incongruent/STIM_008.jpg	100
1312.806	0.926	925.5	incongruent	Block2	incongruent/STIM_009.jpg	100
1317.631	1.109	1108.7	incongruent	Block2	incongruent/STIM_009.jpg	100
1320.869	1.026	1025.8	incongruent	Block2	incongruent/STIM_009.jpg	100
1325.337	1.162	1162.0	incongruent	Block2	incongruent/STIM_009.jpg	99
1330.148	1.032	1032.3	incongruent	Block2	incongruent/STIM_009.jpg	100
1333.745	0.998	998.4	incongruent	Block2	incongruent/STIM_010.jpg	99
1337.026	0.74	739.9	incongruent	Block2	incongruent/STIM_010.jpg	99
1340.946	0.833	832.8	incongruent	Block2	incongruent/STIM_010.jpg	100
1344.783	1.014	1014.4	incongruent	Block2	incongruent/STIM_010.jpg	100
1348.818	1.139	1139.3	incongruent	Block2	incongruent/STIM_010.jpg	100
1352.049	0.74	740.3	incongruent	Block2	incongruent/STIM_011.jpg	100
1355.651	0.876	876.2	incongruent	Block2	incongruent/STIM_011.jpg	99
1359.274	0.7	700.0	incongruent	Block2	incongruent/STIM_011.jpg	99
1362.461	0.77	770.1	incongruent	Block2	incongruent/STIM_011.jpg	99
1365.688	1.154	1153.8	incongruent	Block2	incongruent/STIM_011.jpg	99
1369.121	0.714	713.5	incongruent	Block2	incongruent/STIM_012.jpg	99
1372.226	1.006	1006.5	incongruent	Block2	incongruent/STIM_012.jpg	99
1376.7	1.22	1220.0	incongruent	Block2	incongruent/STIM_012.jpg	99
1381.76	0.776	776.3	incongruent	Block2	incongruent/STIM_012.jpg	100
1385.514	1.091	1091.4	incongruent	Block2	incongruent/STIM_012.jpg	99
1388.95	0.789	789.4	incongruent	Block2	incongruent/STIM_013.jpg	99
1392.128	0.78	780.2	incongruent	Block2	incongruent/STIM_013.jpg	99
1396.192	0.787	786.9	incongruent	Block2	incongruent/STIM_013.jpg	100
1399.371	0.712	712.3	incongruent	Block2	incongruent/STIM_013.jpg	100
1403.076	0.711	711.1	incongruent	Block2	incongruent/STIM_013.jpg	99
1406.507	0.876	875.7	incongruent	Block2	incongruent/STIM_014.jpg	99
1410.498	0.824	823.9	incongruent	Block2	incongruent/STIM_014.jpg	100
1413.305	1.052	1052.0	incongruent	Block2	incongruent/STIM_014.jpg	99
1417.108	0.94	940.4	incongruent	Block2	incongruent/STIM_014.jpg	99
1420.165	0.616	615.9	incongruent	Block2	incongruent/STIM_014.jpg	100
1424.577	1.18	1180.1	incongruent	Block2	incongruent/STIM_015.jpg	100
1429.162	1.306	1305.7	incongruent	Block2	incongruent/STIM_015.jpg	100
1432.936	1.14	1140.1	incongruent	Block2	incongruent/STIM_015.jpg	99
1437.51	0.612	612.3	incongruent	Block2	incongruent/STIM_015.jpg	99
1440.896	0.904	904.0	incongruent	Block2	incongruent/STIM_015.jpg	100
1444.688	1.181	1181.1	incongruent	Block2	incongruent/STIM_016.jpg	100
1448.039	1.143	1143.0	incongruent	Block2	incongruent/STIM_016.jpg	100
1451.515	0.903	902.6	incongruent	Block2	incongruent/STIM_016.jpg	100
1454.423	0.891	890.8	incongruent	Block2	incongruent/STIM_016.jpg	100
1458.01	1.063	1062.7	incongruent	Block2	incongruent/STIM_016.jpg	99
1460.949	0.936	936.0	incongruent	Block2	incongruent/STIM_017.jpg	100
1464.37	1.143	1143.2	incongruent	Block2	incongruent/STIM_017.jpg	100
1467.539	1.081	1080.8	incongruent	Block2	incongruent/STIM_017.jpg	100
1471.154	1.003	1003.4	incongruent	Block2	incongruent/STIM_017.jpg	99
1474.138	1.048	1048.0	incongruent	Block2	incongruent/STIM_017.jpg	99
1477.274	1.051	1051.4	incongruent	Block2	incongruent/STIM_018.jpg	99
1480.22	0.714	713.9	incongruent	Block2	incongruent/STIM_018.jpg	100
1482.879	0.916	915.8	incongruent	Block2	incongruent/STIM_018.jpg	99
1486.17	0.545	545.3	incongruent	Block2	incongruent/STIM_018.jpg	99
1489.945	1.063	1063.3	incongruent	Block2	incongruent/STIM_018.jpg	99
1493.304	0.88	880.4	incongruent	Block2	incongruent/STIM_019.jpg	99
1496.356	0.681	681.1	incongruent	Block2	incongruent/STIM_019.jpg	100
1500.823	1.011	1011.1	incongruent	Block2	incongruent/STIM_019.jpg	100
1505.33	1.045	1045.3	incongruent	Block2	incongruent/STIM_019.jpg	100
1508.438	1.113	1113.4	incongruent	Block2	incongruent/STIM_019.jpg	99
1513.17	0.596	596.5	incongruent	Block2	incongruent/STIM_020.jpg	99
1516.388	1.177	1176.9	incongruent	Block2	incongruent/STIM_020.jpg	100
1521.351	1.179	1179.3	incongruent	Block2	incongruent/STIM_020.jpg	100
1525.84	0.624	623.9	incongruent	Block2	incongruent/STIM_020.jpg	100
1528.721	0.605	605.0	incongruent	Block2	incongruent/STIM_020.jpg	99
1531.483	1.054	1054.0	incongruent	Block2	incongruent/STIM_021.jpg	99
1535.487	0.807	806.8	incongruent	Block2	incongruent/STIM_021.jpg	99
1538.67	1.013	1012.6	incongruent	Block2	incongruent/STIM_021.jpg	100
1543.085	1.137	1136.8	incongruent	Block2	incongruent/STIM_021.jpg	100
1547.14	0.826	825.9	incongruent	Block2	incongruent/STIM_021.jpg	100
1549.889	1.397	1396.9	incongruent	Block2	incongruent/STIM_022.jpg	100
1553.902	1.233	1233.2	incongruent	Block2	incongruent/STIM_022.jpg	99
1557.271	0.783	783.4	incongruent	Block2	incongruent/STIM_022.jpg	100
1561.261	0.936	936.2	incongruent	Block2	incongruent/STIM_022.jpg	100
1565.164	0.711	710.9	incongruent	Block2	incongruent/STIM_022.jpg	100
1568.746	1.049	1049.2	incongruent	Block2	incongruent/STIM_023.jpg	99
1571.988	1.32	1319.7	incongruent	Block2	incongruent/STIM_023.jpg	100
1577.025	0.846	845.5	incongruent	Block2	incongruent/STIM_023.jpg	100
1581.033	0.919	918.9	incongruent	Block2	incongruent/STIM_023.jpg	100
1584.927	0.715	715.2	incongruent	Block2	incongruent/STIM_023.jpg	99
1588.471	0.946	946.0	incongruent	Block2	incongruent/STIM_024.jpg	100
1591.972	1.265	1265.1	incongruent	Block2	incongruent/STIM_024.jpg	99
1596.94	1.184	1184.3	incongruent	Block2	incongruent/STIM_024.jpg	100
1600.732	0.831	831.2	incongruent	Block2	incongruent/STIM_024.jpg	99
1604.039	1.009	1008.8	incongruent	Block2	incongruent/STIM_024.jpg	99
1608.501	0.962	962.0	incongruent	Block2	incongruent/STIM_025.jpg	99
1612.88	1.096	1095.7	incongruent	Block2	incongruent/STIM_025.jpg	99
1617.501	1.156	1156.5	incongruent	Block2	incongruent/STIM_025.jpg	100
1620.756	0.756	755.6	incongruent	Block2	incongruent/STIM_025.jpg	100
1625.287	0.862	862.2	incongruent	Block2	incongruent/STIM_025.jpg	99
1628.53	0.93	930.0	incongruent	Block2	incongruent/STIM_026.jpg	100
1631.89	0.773	773.2	incongruent	Block2	incongruent/STIM_026.jpg	99
1635.682	1.136	1136.3	incongruent	Block2	incongruent/STIM_026.jpg	100
1638.861	0.567	567.0	incongruent	Block2	incongruent/STIM_026.jpg	100
1641.441	0.877	877.0	incongruent	Block2	incongruent/STIM_026.jpg	100
1646.15	0.728	728.3	incongruent	Block2	incongruent/STIM_027.jpg	99
1649.118	0.801	800.7	incongruent	Block2	incongruent/STIM_027.jpg	99
1653.231	1.221	1221.0	incongruent	Block2	incongruent/STIM_027.jpg	100
1657.449	1.234	1234.4	incongruent	Block2	incongruent/STIM_027.jpg	100
1661.772	0.698	697.6	incongruent	Block2	incongruent/STIM_027.jpg	99
1666.389	1.064	1064.1	incongruent	Block2	incongruent/STIM_028.jpg	100
1670.083	1.278	1277.6	incongruent	Block2	incongruent/STIM_028.jpg	100
1675.226	0.54	539.8	incongruent	Block2	incongruent/STIM_028.jpg	99
1678.614	0.804	804.3	incongruent	Block2	incongruent/STIM_028.jpg	99
1681.765	0.665	665.1	incongruent	Block2	incongruent/STIM_028.jpg	99
1684.684	1.234	1234.3	incongruent	Block2	incongruent/STIM_029.jpg	99
1688.318	1.284	1283.6	incongruent	Block2	incongruent/STIM_029.jpg	100
1691.434	0.905	904.6	incongruent	Block2	incongruent/STIM_029.jpg	99
1694.238	0.651	650.7	incongruent	Block2	incongruent/STIM_029.jpg	99
1698.217	0.807	807.1	incongruent	Block2	incongruent/STIM_029.jpg	100
1702.204	0.799	799.1	congruent	Block2	congruent/STIM_000.jpg	100
1705.998	0.619	619.4	congruent	Block2	congruent/STIM_000.jpg	100
1710.287	0.751	750.7	congruent	Block2	congruent/STIM_000.jpg	99
1714.453	0.653	653.3	congruent	Block2	congruent/STIM_000.jpg	100
1717.606	0.842	842.5	congruent	Block2	congruent/STIM_000.jpg	99
1722.112	0.758	758.4	congruent	Block2	congruent/STIM_001.jpg	100
1726.062	0.662	661.6	congruent	Block2	congruent/STIM_001.jpg	100
1729.182	0.641	640.9	congruent	Block2	congruent/STIM_001.jpg	99
1733.732	0.788	787.5	congruent	Block2	congruent/STIM_001.jpg	100
1737.348	0.542	542.2	congruent	Block2	congruent/STIM_001.jpg	100
1740.637	0.919	919.4	congruent	Block2	congruent/STIM_002.jpg	99
1744.719	0.713	713.0	congruent	Block2	congruent/STIM_002.jpg	99
1747.38	0.966	966.1	congruent	Block2	congruent/STIM_002.jpg	100
1750.335	0.588	588.2	congruent	Block2	congruent/STIM_002.jpg	100
1753.274	0.628	627.6	congruent	Block2	congruent/STIM_002.jpg	100
1756.084	0.926	926.3	congruent	Block2	congruent/STIM_003.jpg	100
1760.187	0.772	771.6	congruent	Block2	congruent/STIM_003.jpg	99
1763.687	0.909	909.4	congruent	Block2	congruent/STIM_003.jpg	99
1768.156	0.736	735.6	congruent	Block2	congruent/STIM_003.jpg	99
1771.327	0.896	896.5	congruent	Block2	congruent/STIM_003.jpg	100
1775.008	0.84	839.5	congruent	Block2	congruent/STIM_004.jpg	99
1777.991	0.811	811.3	congruent	Block2	congruent/STIM_004.jpg	99
1782.596	0.841	840.9	congruent	Block2	congruent/STIM_004.jpg	100
1785.817	0.904	903.9	congruent	Block2	congruent/STIM_004.jpg	100
1790.059	0.612	611.7	congruent	Block2	congruent/STIM_004.jpg	100
1792.98	0.931	930.7	congruent	Block2	congruent/STIM_005.jpg	99
1796.5	0.924	924.2	congruent	Block2	congruent/STIM_005.jpg	100
1799.975	0.692	692.3	congruent	Block2	congruent/STIM_005.jpg	99
1803.321	0.716	715.6	congruent	Block2	congruent/STIM_005.jpg	100
1807.654	0.705	705.4	congruent	Block2	congruent/STIM_005.jpg	99
1811.028	0.523	523.1	congruent	Block2	congruent/STIM_006.jpg	99
1814.858	1.013	1012.9	congruent	Block2	congruent/STIM_006.jpg	100
1818.416	0.629	629.1	congruent	Block2	congruent/STIM_006.jpg	100
1821.32	0.837	836.9	congruent	Block2	congruent/STIM_006.jpg	99
1825.076	0.985	984.8	congruent	Block2	congruent/STIM_006.jpg	99
1828.435	0.963	962.8	congruent	Block2	congruent/STIM_007.jpg	100
1831.439	0.66	659.8	congruent	Block2	congruent/STIM_007.jpg	99
1835.955	0.762	761.8	congruent	Block2	congruent/STIM_007.jpg	99
1838.652	0.659	658.7	congruent	Block2	congruent/STIM_007.jpg	100
1842.76	0.802	801.6	congruent	Block2	congruent/STIM_007.jpg	99
1847.125	0.783	782.6	congruent	Block2	congruent/STIM_008.jpg	100
1850.681	0.896	895.9	congruent	Block2	congruent/STIM_008.jpg	99
1854.006	0.905	904.7	congruent	Block2	congruent/STIM_008.jpg	99
1857.236	0.667	667.0	congruent	Block2	congruent/STIM_008.jpg	100
1861.075	0.788	787.9	congruent	Block2	congruent/STIM_008.jpg	100
1865.571	0.723	723.2	congruent	Block2	congruent/STIM_009.jpg	100
1870.062	0.904	904.4	congruent	Block2	congruent/STIM_009.jpg	100
1874.288	0.627	627.0	congruent	Block2	congruent/STIM_009.jpg	100
1878.405	0.712	712.1	congruent	Block2	congruent/STIM_009.jpg	100
1882.899	0.691	690.9	congruent	Block2	congruent/STIM_009.jpg	100
1887.039	0.544	543.9	congruent	Block2	congruent/STIM_010.jpg	100
1891.253	0.79	789.6	congruent	Block2	congruent/STIM_010.jpg	100
1894.441	0.628	627.6	congruent	Block2	congruent/STIM_010.jpg	100
1898.178	0.773	773.0	congruent	Block2	congruent/STIM_010.jpg	100
1901.192	0.618	617.5	congruent	Block2	congruent/STIM_010.jpg	99
1905.123	0.898	897.8	congruent	Block2	congruent/STIM_011.jpg	99
1909.347	0.762	761.8	congruent	Block2	congruent/STIM_011.jpg	100
1912.511	0.599	599.2	congruent	Block2	congruent/STIM_011.jpg	99
1916.164	0.823	823.4	congruent	Block2	congruent/STIM_011.jpg	99
1920.296	0.665	665.2	congruent	Block2	congruent/STIM_011.jpg	99
1923.01	0.711	711.3	congruent	Block2	congruent/STIM_012.jpg	100
1926.338	0.74	739.7	congruent	Block2	congruent/STIM_012.jpg	99
1930.259	0.506	505.9	congruent	Block2	congruent/STIM_012.jpg	99
1933.068	1.019	1019.4	congruent	Block2	congruent/STIM_012.jpg	99
1936.661	0.728	728.5	congruent	Block2	congruent/STIM_012.jpg	100
1939.829	0.614	613.5	congruent	Block2	congruent/STIM_013.jpg	99
1943.059	0.824	823.6	congruent	Block2	congruent/STIM_013.jpg	99
1946.763	0.951	950.7	congruent	Block2	congruent/STIM_013.jpg	99
1949.692	0.993	993.2	congruent	Block2	congruent/STIM_013.jpg	100
1954.096	0.962	962.0	congruent	Block2	congruent/STIM_013.jpg	100
1958.213	0.915	915.2	congruent	Block2	congruent/STIM_014.jpg	99
1962.547	0.618	617.7	congruent	Block2	congruent/STIM_014.jpg	99
1965.354	0.925	925.3	congruent	Block2	congruent/STIM_014.jpg	99
1969.7	0.806	806.4	congruent	Block2	congruent/STIM_014.jpg	99
1973.39	0.772	771.7	congruent	Block2	congruent/STIM_014.jpg	100
1977.654	0.698	698.4	congruent	Block2	congruent/STIM_015.jpg	100
1980.853	0.852	852.1	congruent	Block2	congruent/STIM_015.jpg	99
1984.952	0.796	795.6	congruent	Block2	congruent/STIM_015.jpg	100
1989.58	0.608	607.5	congruent	Block2	congruent/STIM_015.jpg	99
1993.788	0.977	977.2	congruent	Block2	congruent/STIM_015.jpg	99
1997.643	0.606	605.8	congruent	Block2	congruent/STIM_016.jpg	100
2000.954	0.964	964.0	congruent	Block2	congruent/STIM_016.jpg	99
2004.673	0.833	833.0	congruent	Block2	congruent/STIM_016.jpg	100
2008.935	1.035	1035.4	congruent	Block2	congruent/STIM_016.jpg	99
2012.942	0.834	834.0	congruent	Block2	congruent/STIM_016.jpg	100
2016.088	0.761	760.6	congruent	Block2	congruent/STIM_017.jpg	99
2020.116	0.816	816.5	congruent	Block2	congruent/STIM_017.jpg	99
2023.409	0.658	657.7	congruent	Block2	congruent/STIM_017.jpg	100
2026.052	0.982	982.2	congruent	Block2	congruent/STIM_017.jpg	99
2029.78	0.921	920.8	congruent	Block2	congruent/STIM_017.jpg	100
2034.5	0.794	794.2	congruent	Block2	congruent/STIM_018.jpg	100
2037.871	0.683	683.3	congruent	Block2	congruent/STIM_018.jpg	100
2040.473	0.675	674.9	congruent	Block2	congruent/STIM_018.jpg	100
2043.969	0.771	771.2	congruent	Block2	congruent/STIM_018.jpg	100
2047.808	0.863	863.1	congruent	Block2	congruent/STIM_018.jpg	99
2050.849	0.946	946.2	congruent	Block2	congruent/STIM_019.jpg	99
2054.072	0.796	795.8	congruent	Block2	congruent/STIM_019.jpg	99
2058.235	0.936	936.2	congruent	Block2	congruent/STIM_019.jpg	99
2062.886	0.881	880.9	congruent	Block2	congruent/STIM_019.jpg	100
2066.089	0.932	931.6	congruent	Block2	congruent/STIM_019.jpg	100
2069.329	0.961	960.9	congruent	Block2	congruent/STIM_020.jpg	100
2072.333	0.872	872.1	congruent	Block2	congruent/STIM_020.jpg	100
2076.917	0.48	479.5	congruent	Block2	congruent/STIM_020.jpg	100
2080.84	0.732	731.8	congruent	Block2	congruent/STIM_020.jpg	99
2084.561	0.72	720.0	congruent	Block2	congruent/STIM_020.jpg	99
2088.943	0.847	847.2	congruent	Block2	congruent/STIM_021.jpg	99
2093.34	1.05	1049.7	congruent	Block2	congruent/STIM_021.jpg	99
2097.747	0.763	763.4	congruent	Block2	congruent/STIM_021.jpg	100
2101.981	0.581	581.1	congruent	Block2	congruent/STIM_021.jpg	99
2104.684	0.673	672.6	congruent	Block2	congruent/STIM_021.jpg	99
2109.122	0.768	768.1	congruent	Block2	congruent/STIM_022.jpg	99
2113.312	0.959	958.8	congruent	Block2	congruent/STIM_022.jpg	100
2116.992	0.626	626.0	congruent	Block2	congruent/STIM_022.jpg	100
2120.025	0.539	539.0	congruent	Block2	congruent/STIM_022.jpg	99
2123.96	0.788	787.7	congruent	Block2	congruent/STIM_022.jpg	99
2128.305	0.94	940.5	congruent	Block2	congruent/STIM_023.jpg	99
2132.127	0.75	750.4	congruent	Block2	congruent/STIM_023.jpg	100
2135.025	0.55	549.9	congruent	Block2	congruent/STIM_023.jpg	100
2138.095	0.895	895.3	congruent	Block2	congruent/STIM_023.jpg	99
2141.144	0.922	921.8	congruent	Block2	congruent/STIM_023.jpg	100
2144.9	0.775	775.1	congruent	Block2	congruent/STIM_024.jpg	99
2148.522	0.93	929.5	congruent	Block2	congruent/STIM_024.jpg	99
2152.532	0.672	672.0	congruent	Block2	congruent/STIM_024.jpg	99
2155.586	0.688	687.8	congruent	Block2	congruent/STIM_024.jpg	99
2159.363	0.76	760.1	congruent	Block2	congruent/STIM_024.jpg	99
2163.714	0.645	644.7	congruent	Block2	congruent/STIM_025.jpg	99
2167.028	0.698	698.4	congruent	Block2	congruent/STIM_025.jpg	99
2171.063	0.641	640.9	congruent	Block2	congruent/STIM_025.jpg	100
2175.378	0.694	694.3	congruent	Block2	congruent/STIM_025.jpg	100
2179.227	0.924	923.8	congruent	Block2	congruent/STIM_025.jpg	99
2182.124	0.947	947.4	congruent	Block2	congruent/STIM_026.jpg	100
2185.985	0.843	843.2	congruent	Block2	congruent/STIM_026.jpg	99
2189.553	0.774	774.1	congruent	Block2	congruent/STIM_026.jpg	99
2193.681	0.553	552.7	congruent	Block2	congruent/STIM_026.jpg	100
2197.177	1.008	1007.5	congruent	Block2	congruent/STIM_026.jpg	99
2200.668	0.668	668.5	congruent	Block2	congruent/STIM_027.jpg	100
2204.243	0.826	825.8	congruent	Block2	congruent/STIM_027.jpg	99
2207.665	0.652	651.5	congruent	Block2	congruent/STIM_027.jpg	99
2211.373	0.673	672.7	congruent	Block2	congruent/STIM_027.jpg	100
2214.753	0.805	804.8	congruent	Block2	congruent/STIM_027.jpg	99
2218.205	0.653	653.2	congruent	Block2	congruent/STIM_028.jpg	100
2222.306	0.698	697.9	congruent	Block2	congruent/STIM_028.jpg	100
2225.537	0.631	630.8	congruent	Block2	congruent/STIM_028.jpg	100
2228.297	0.816	815.6	congruent	Block2	congruent/STIM_028.jpg	99
2232.028	0.785	785.0	congruent	Block2	congruent/STIM_028.jpg	99
2235.659	0.645	645.3	congruent	Block2	congruent/STIM_029.jpg	99
2238.814	0.855	855.0	congruent	Block2	congruent/STIM_029.jpg	100
2242.074	0.565	565.4	congruent	Block2	congruent/STIM_029.jpg	100
2245.015	0.876	875.7	congruent	Block2	congruent/STIM_029.jpg	99
2247.982	0.578	578.1	congruent	Block2	congruent/STIM_029.jpg	100
2251.079	0.545	544.8	incongruent	Block3	incongruent/STIM_000.jpg	100
2255.5	0.729	729.1	incongruent	Block3	incongruent/STIM_000.jpg	99
2259.805	0.903	902.8	incongruent	Block3	incongruent/STIM_000.jpg	99
2263.386	0.937	937.2	incongruent	Block3	incongruent/STIM_000.jpg	99
2268.087	0.795	794.9	incongruent	Block3	incongruent/STIM_000.jpg	99
2272.308	1.075	1074.6	incongruent	Block3	incongruent/STIM_001.jpg	99
2277.091	1.11	1110.1	incongruent	Block3	incongruent/STIM_001.jpg	100
2281.968	1.062	1062.3	incongruent	Block3	incongruent/STIM_001.jpg	99
2285.049	0.614	614.5	incongruent	Block3	incongruent/STIM_001.jpg	99
2288.853	0.546	546.4	incongruent	Block3	incongruent/STIM_001.jpg	100
2291.586	0.959	958.6	incongruent	Block3	incongruent/STIM_002.jpg	100
2296.224	0.578	577.7	incongruent	Block3	incongruent/STIM_002.jpg	100
2298.916	0.901	901.2	incongruent	Block3	incongruent/STIM_002.jpg	99
2302.732	1.156	1155.9	incongruent	Block3	incongruent/STIM_002.jpg	99
2307.436	0.532	531.7	incongruent	Block3	incongruent/STIM_002.jpg	100
2310.733	1.039	1038.9	incongruent	Block3	incongruent/STIM_003.jpg	99
2314.941	0.527	526.9	incongruent	Block3	incongruent/STIM_003.jpg	99
2319.316	0.656	656.3	incongruent	Block3	incongruent/STIM_003.jpg	99
2323.243	0.546	545.9	incongruent	Block3	incongruent/STIM_003.jpg	100
2325.88	1.248	1247.5	incongruent	Block3	incongruent/STIM_003.jpg	99
2330.385	0.774	774.2	incongruent	Block3	incongruent/STIM_004.jpg	99
2334.258	1.087	1086.6	incongruent	Block3	incongruent/STIM_004.jpg	100
2338.727	1.214	1213.5	incongruent	Block3	incongruent/STIM_004.jpg	99
2342.579	0.559	558.9	incongruent	Block3	incongruent/STIM_004.jpg	99
2345.242	1.123	1122.9	incongruent	Block3	incongruent/STIM_004.jpg	100
2349.119	0.937	937.0	incongruent	Block3	incongruent/STIM_005.jpg	100
2352.307	0.763	763.4	incongruent	Block3	incongruent/STIM_005.jpg	99
2356.596	0.628	628.2	incongruent	Block3	incongruent/STIM_005.jpg	99
2360.387	1.123	1122.7	incongruent	Block3	incongruent/STIM_005.jpg	100
2364.993	1.084	1084.3	incongruent	Block3	incongruent/STIM_005.jpg	99
2368.25	0.903	903.4	incongruent	Block3	incongruent/STIM_006.jpg	99
2372.251	0.976	976.4	incongruent	Block3	incongruent/STIM_006.jpg	99
2376.811	1.126	1125.9	incongruent	Block3	incongruent/STIM_006.jpg	100
2381.203	1.109	1109.1	incongruent	Block3	incongruent/STIM_006.jpg	100
2384.934	1.024	1023.5	incongruent	Block3	incongruent/STIM_006.jpg	100
2389.755	0.651	650.6	incongruent	Block3	incongruent/STIM_007.jpg	100
2392.459	0.835	834.9	incongruent	Block3	incongruent/STIM_007.jpg	99
2396.058	0.944	944.0	incongruent	Block3	incongruent/STIM_007.jpg	100
2399.864	1.116	1115.9	incongruent	Block3	incongruent/STIM_007.jpg	100
2404.379	1.095	1094.7	incongruent	Block3	incongruent/STIM_007.jpg	100
2409.315	0.612	612.4	incongruent	Block3	incongruent/STIM_008.jpg	100
2412.937	1.058	1058.5	incongruent	Block3	incongruent/STIM_008.jpg	100
2416.994	0.644	644.0	incongruent	Block3	incongruent/STIM_008.jpg	99
2419.734	0.71	710.3	incongruent	Block3	incongruent/STIM_008.jpg	99
2422.663	1.096	1096.3	incongruent	Block3	incongruent/STIM_008.jpg	100
2425.739	1.073	1072.9	incongruent	Block3	incongruent/STIM_009.jpg	99
2429.777	0.856	855.8	incongruent	Block3	incongruent/STIM_009.jpg	100
2433.577	0.912	911.6	incongruent	Block3	incongruent/STIM_009.jpg	99
2436.595	0.948	947.5	incongruent	Block3	incongruent/STIM_009.jpg	99
2439.973	0.822	822.4	incongruent	Block3	incongruent/STIM_009.jpg	100
2444.563	0.594	593.5	incongruent	Block3	incongruent/STIM_010.jpg	100
2448.853	0.668	667.8	incongruent	Block3	incongruent/STIM_010.jpg	100
2453.098	0.864	863.8	incongruent	Block3	incongruent/STIM_010.jpg	99
2456.734	0.491	491.3	incongruent	Block3	incongruent/STIM_010.jpg	100
2459.435	0.889	888.6	incongruent	Block3	incongruent/STIM_010.jpg	100
2462.554	0.661	661.4	incongruent	Block3	incongruent/STIM_011.jpg	99
2466.133	0.832	831.6	incongruent	Block3	incongruent/STIM_011.jpg	100
2469.62	0.634	633.5	incongruent	Block3	incongruent/STIM_011.jpg	99
2473.812	1.02	1020.0	incongruent	Block3	incongruent/STIM_011.jpg	100
2476.862	1.026	1025.9	incongruent	Block3	incongruent/STIM_011.jpg	100
2481.31	0.787	787.3	incongruent	Block3	incongruent/STIM_012.jpg	99
2484.452	0.647	646.6	incongruent	Block3	incongruent/STIM_012.jpg	99
2487.128	0.575	575.3	incongruent	Block3	incongruent/STIM_012.jpg	100
2491.001	0.785	784.8	incongruent	Block3	incongruent/STIM_012.jpg	99
2494.395	1.058	1058.3	incongruent	Block3	incongruent/STIM_012.jpg	99
2498.401	1.002	1002.2	incongruent	Block3	incongruent/STIM_013.jpg	99
2501.757	0.618	618.0	incongruent	Block3	incongruent/STIM_013.jpg	100
2504.917	0.751	751.3	incongruent	Block3	incongruent/STIM_013.jpg	99
2507.816	0.792	791.9	incongruent	Block3	incongruent/STIM_013.jpg	100
2512.023	0.64	639.8	incongruent	Block3	incongruent/STIM_013.jpg	99
2515.959	1.01	1009.5	incongruent	Block3	incongruent/STIM_014.jpg	100
2519.375	0.72	720.3	incongruent	Block3	incongruent/STIM_014.jpg	100
2523.5	0.737	737.4	incongruent	Block3	incongruent/STIM_014.jpg	100
2527.084	1.134	1134.3	incongruent	Block3	incongruent/STIM_014.jpg	99
2531.188	0.542	541.7	incongruent	Block3	incongruent/STIM_014.jpg	100
2534.553	0.859	858.9	incongruent	Block3	incongruent/STIM_015.jpg	99
2537.631	1.036	1035.7	incongruent	Block3	incongruent/STIM_015.jpg	99
2540.682	1.256	1255.6	incongruent	Block3	incongruent/STIM_015.jpg	100
2544.115	0.881	880.8	incongruent	Block3	incongruent/STIM_015.jpg	100
2547.309	0.626	626.5	incongruent	Block3	incongruent/STIM_015.jpg	100
2549.892	0.925	925.4	incongruent	Block3	incongruent/STIM_016.jpg	99
2553.024	0.739	738.8	incongruent	Block3	incongruent/STIM_016.jpg	99
2555.809	0.831	830.6	incongruent	Block3	incongruent/STIM_016.jpg	99
2560.321	0.769	768.8	incongruent	Block3	incongruent/STIM_016.jpg	99
2564.005	0.967	967.1	incongruent	Block3	incongruent/STIM_016.jpg	99
2567.667	0.872	872.0	incongruent	Block3	incongruent/STIM_017.jpg	100
2571.056	0.677	676.7	incongruent	Block3	incongruent/STIM_017.jpg	100
2574.554	1.057	1056.8	incongruent	Block3	incongruent/STIM_017.jpg	99
2579.282	0.704	703.5	incongruent	Block3	incongruent/STIM_017.jpg	100
2583.564	0.833	833.1	incongruent	Block3	incongruent/STIM_017.jpg	99
2586.799	1.064	1064.5	incongruent	Block3	incongruent/STIM_018.jpg	100
2589.94	0.922	922.5	incongruent	Block3	incongruent/STIM_018.jpg	100
2594.303	0.678	677.6	incongruent	Block3	incongruent/STIM_018.jpg	100
2598.537	0.828	827.8	incongruent	Block3	incongruent/STIM_018.jpg	100
2601.95	1.14	1140.1	incongruent	Block3	incongruent/STIM_018.jpg	100
2605.858	0.498	497.6	incongruent	Block3	incongruent/STIM_019.jpg	99
2608.511	0.884	883.7	incongruent	Block3	incongruent/STIM_019.jpg	99
2612.881	0.501	501.1	incongruent	Block3	incongruent/STIM_019.jpg	100
2616.355	0.921	920.9	incongruent	Block3	incongruent/STIM_019.jpg	100
2620.851	0.96	960.2	incongruent	Block3	incongruent/STIM_019.jpg	100
2625.689	1.059	1058.8	incongruent	Block3	incongruent/STIM_020.jpg	100
2628.865	1.098	1097.8	incongruent	Block3	incongruent/STIM_020.jpg	99
2633.079	0.684	684.5	incongruent	Block3	incongruent/STIM_020.jpg	100
2636.256	0.806	805.6	incongruent	Block3	incongruent/STIM_020.jpg	99
2639.866	0.79	790.1	incongruent	Block3	incongruent/STIM_020.jpg	100
2643.294	1.036	1036.2	incongruent	Block3	incongruent/STIM_021.jpg	100
2646.902	1.11	1110.5	incongruent	Block3	incongruent/STIM_021.jpg	100
2651.486	1.09	1089.9	incongruent	Block3	incongruent/STIM_021.jpg	100
2655.332	0.788	788.0	incongruent	Block3	incongruent/STIM_021.jpg	100
2659.08	1.022	1021.9	incongruent	Block3	incongruent/STIM_021.jpg	99
2663.435	0.833	833.0	incongruent	Block3	incongruent/STIM_022.jpg	100
2667.126	0.972	971.8	incongruent	Block3	incongruent/STIM_022.jpg	100
2671.937	0.662	661.7	incongruent	Block3	incongruent/STIM_022.jpg	99
2675.12	1.063	1062.9	incongruent	Block3	incongruent/STIM_022.jpg	100
2678.621	0.784	784.4	incongruent	Block3	incongruent/STIM_022.jpg	99
2683.168	0.953	953.4	incongruent	Block3	incongruent/STIM_023.jpg	99
2687.863	1.077	1076.6	incongruent	Block3	incongruent/STIM_023.jpg	99
2692.508	0.487	486.9	incongruent	Block3	incongruent/STIM_023.jpg	100
2696.194	0.808	807.5	incongruent	Block3	incongruent/STIM_023.jpg	100
2700.295	0.798	798.2	incongruent	Block3	incongruent/STIM_023.jpg	100
2703.381	0.69	689.9	incongruent	Block3	incongruent/STIM_024.jpg	100
2706.672	0.82	819.9	incongruent	Block3	incongruent/STIM_024.jpg	100
2710.762	0.76	760.3	incongruent	Block3	incongruent/STIM_024.jpg	99
2714.889	0.784	783.7	incongruent	Block3	incongruent/STIM_024.jpg	99
2718.072	0.814	814.2	incongruent	Block3	incongruent/STIM_024.jpg	99
2721.389	0.99	990.2	incongruent	Block3	incongruent/STIM_025.jpg	99
2724.697	0.885	884.8	incongruent	Block3	incongruent/STIM_025.jpg	100
2729.477	0.827	827.3	incongruent	Block3	incongruent/STIM_025.jpg	100
2733.207	1.024	1024.4	incongruent	Block3	incongruent/STIM_025.jpg	100
2738.013	0.551	550.6	incongruent	Block3	incongruent/STIM_025.jpg	99
2741.434	0.697	696.6	incongruent	Block3	incongruent/STIM_026.jpg	100
2745.671	0.769	769.0	incongruent	Block3	incongruent/STIM_026.jpg	100
2749.024	1.146	1146.5	incongruent	Block3	incongruent/STIM_026.jpg	99
2753.993	0.885	884.7	incongruent	Block3	incongruent/STIM_026.jpg	99
2757.21	0.691	691.0	incongruent	Block3	incongruent/STIM_026.jpg	100
2760.551	0.735	734.6	incongruent	Block3	incongruent/STIM_027.jpg	100
2763.975	0.576	576.0	incongruent	Block3	incongruent/STIM_027.jpg	100
2766.937	1.076	1076.1	incongruent	Block3	incongruent/STIM_027.jpg	100
2770.496	0.607	606.7	incongruent	Block3	incongruent/STIM_027.jpg	99
2773.1	1.113	1113.3	incongruent	Block3	incongruent/STIM_027.jpg	99
2778.033	0.963	963.3	incongruent	Block3	incongruent/STIM_028.jpg	99
2781.939	0.8	800.3	incongruent	Block3	incongruent/STIM_028.jpg	99
2786.203	0.733	732.9	incongruent	Block3	incongruent/STIM_028.jpg	99
2790.449	0.977	976.9	incongruent	Block3	incongruent/STIM_028.jpg	100
2794.772	0.502	501.8	incongruent	Block3	incongruent/STIM_028.jpg	100
2797.858	0.887	886.7	incongruent	Block3	incongruent/STIM_029.jpg	100
2800.924	0.731	731.1	incongruent	Block3	incongruent/STIM_029.jpg	100
2803.782	0.618	617.6	incongruent	Block3	incongruent/STIM_029.jpg	100
2807.809	0.986	986.3	incongruent	Block3	incongruent/STIM_029.jpg	100
2812.658	0.643	643.4	incongruent	Block3	incongruent/STIM_029.jpg	100
2815.595	0.608	607.5	congruent	Block3	congruent/STIM_000.jpg	99
2819.009	0.776	775.5	congruent	Block3	congruent/STIM_000.jpg	100
2822.579	0.859	859.2	congruent	Block3	congruent/STIM_000.jpg	100
2827.095	0.839	839.4	congruent	Block3	congruent/STIM_000.jpg	99
2831.149	0.878	878.4	congruent	Block3	congruent/STIM_000.jpg	100
2835.971	0.516	515.5	congruent	Block3	congruent/STIM_001.jpg	100
2838.82	0.912	911.5	congruent	Block3	congruent/STIM_001.jpg	99
2842.823	0.542	542.3	congruent	Block3	congruent/STIM_001.jpg	99
2846.447	0.785	784.7	congruent	Block3	congruent/STIM_001.jpg	100
2850.412	0.592	591.7	congruent	Block3	congruent/STIM_001.jpg	100
2854.465	0.812	812.1	congruent	Block3	congruent/STIM_002.jpg	99
2859.041	0.848	847.5	congruent	Block3	congruent/STIM_002.jpg	99
2863.315	0.919	919.1	congruent	Block3	congruent/STIM_002.jpg	99
2866.432	0.804	804.2	congruent	Block3	congruent/STIM_002.jpg	100
2870.461	0.62	620.2	congruent	Block3	congruent/STIM_002.jpg	99
2874.829	0.764	764.1	congruent	Block3	congruent/STIM_003.jpg	99
2879.499	0.95	949.5	congruent	Block3	congruent/STIM_003.jpg	100
2883.46	0.578	577.9	congruent	Block3	congruent/STIM_003.jpg	99
2887.656	0.917	917.0	congruent	Block3	congruent/STIM_003.jpg	100
2892.393	0.847	847.0	congruent	Block3	congruent/STIM_003.jpg	100
2896.365	0.903	903.0	congruent	Block3	congruent/STIM_004.jpg	99
2899.856	0.656	655.9	congruent	Block3	congruent/STIM_004.jpg	99
2903.33	0.868	867.9	congruent	Block3	congruent/STIM_004.jpg	99
2907.298	0.985	985.1	congruent	Block3	congruent/STIM_004.jpg	99
2911.813	0.957	956.8	congruent	Block3	congruent/STIM_004.jpg	100
2915.569	0.886	886.0	congruent	Block3	congruent/STIM_005.jpg	100
2920.194	0.747	747.0	congruent	Block3	congruent/STIM_005.jpg	100
2924.491	0.595	595.4	congruent	Block3	congruent/STIM_005.jpg	100
2927.299	0.816	816.5	congruent	Block3	congruent/STIM_005.jpg	100
2930.825	0.687	687.4	congruent	Block3	congruent/STIM_005.jpg	100
2934.847	0.672	671.8	congruent	Block3	congruent/STIM_006.jpg	99
2939.077	0.802	802.0	congruent	Block3	congruent/STIM_006.jpg	99
2941.839	0.623	622.9	congruent	Block3	congruent/STIM_006.jpg	99
2946.277	0.94	939.8	congruent	Block3	congruent/STIM_006.jpg	100
2950.895	0.835	835.2	congruent	Block3	congruent/STIM_006.jpg	99
2954.171	0.56	559.7	congruent	Block3	congruent/STIM_007.jpg	100
2957.226	0.622	621.8	congruent	Block3	congruent/STIM_007.jpg	100
2960.681	0.784	784.0	congruent	Block3	congruent/STIM_007.jpg	99
2964.981	0.76	760.5	congruent	Block3	congruent/STIM_007.jpg	100
2967.713	0.605	604.9	congruent	Block3	congruent/STIM_007.jpg	99
2970.927	0.884	884.4	congruent	Block3	congruent/STIM_008.jpg	100
2975.199	0.724	723.7	congruent	Block3	congruent/STIM_008.jpg	99
2978.66	0.928	927.7	congruent	Block3	congruent/STIM_008.jpg	100
2981.537	0.886	885.5	congruent	Block3	congruent/STIM_008.jpg	100
2986.196	0.494	493.8	congruent	Block3	congruent/STIM_008.jpg	100
2990.264	0.56	559.8	congruent	Block3	congruent/STIM_009.jpg	100
2993.674	0.819	819.4	congruent	Block3	congruent/STIM_009.jpg	100
2998.076	0.768	767.8	congruent	Block3	congruent/STIM_009.jpg	100
3001.703	0.752	752.1	congruent	Block3	congruent/STIM_009.jpg	99
3005.618	0.57	569.6	congruent	Block3	congruent/STIM_009.jpg	99
3008.801	0.956	956.3	congruent	Block3	congruent/STIM_010.jpg	99
3012.402	0.837	836.9	congruent	Block3	congruent/STIM_010.jpg	100
3015.711	0.852	851.5	congruent	Block3	congruent/STIM_010.jpg	100
3019.372	0.795	794.6	congruent	Block3	congruent/STIM_010.jpg	99
3023.802	0.741	741.3	congruent	Block3	congruent/STIM_010.jpg	99
3028.151	0.613	613.0	congruent	Block3	congruent/STIM_011.jpg	99
3030.967	0.642	641.8	congruent	Block3	congruent/STIM_011.jpg	100
3034.777	0.663	663.3	congruent	Block3	congruent/STIM_011.jpg	100
3038.107	0.79	789.5	congruent	Block3	congruent/STIM_011.jpg	100
3040.859	0.898	898.5	congruent	Block3	congruent/STIM_011.jpg	99
3043.816	0.673	673.0	congruent	Block3	congruent/STIM_012.jpg	100
3047.683	0.878	877.7	congruent	Block3	congruent/STIM_012.jpg	99
3050.47	0.618	617.7	congruent	Block3	congruent/STIM_012.jpg	100
3053.092	0.93	930.3	congruent	Block3	congruent/STIM_012.jpg	100
3056.382	0.729	729.3	congruent	Block3	congruent/STIM_012.jpg	99
3059.444	0.754	754.0	congruent	Block3	congruent/STIM_013.jpg	99
3063.723	0.955	955.1	congruent	Block3	congruent/STIM_013.jpg	100
3067.059	0.747	746.7	congruent	Block3	congruent/STIM_013.jpg	99
3071.348	0.909	909.2	congruent	Block3	congruent/STIM_013.jpg	100
3075.286	0.643	642.8	congruent	Block3	congruent/STIM_013.jpg	100
3079.116	0.614	614.2	congruent	Block3	congruent/STIM_014.jpg	100
3082.87	0.69	689.5	congruent	Block3	congruent/STIM_014.jpg	99
3086.088	0.643	643.3	congruent	Block3	congruent/STIM_014.jpg	100
3088.946	0.592	592.3	congruent	Block3	congruent/STIM_014.jpg	99
3092.842	0.751	751.0	congruent	Block3	congruent/STIM_014.jpg	99
3096.191	0.75	750.5	congruent	Block3	congruent/STIM_015.jpg	100
3099.713	0.781	780.8	congruent	Block3	congruent/STIM_015.jpg	100
3104.234	0.589	589.4	congruent	Block3	congruent/STIM_015.jpg	99
3106.921	0.78	780.4	congruent	Block3	congruent/STIM_015.jpg	100
3110.868	0.61	610.0	congruent	Block3	congruent/STIM_015.jpg	100
3115.106	0.707	706.7	congruent	Block3	congruent/STIM_016.jpg	100
3119.483	0.658	658.4	congruent	Block3	congruent/STIM_016.jpg	100
3122.269	0.754	754.0	congruent	Block3	congruent/STIM_016.jpg	100
3126.149	0.752	752.4	congruent	Block3	congruent/STIM_016.jpg	99
3129.005	0.728	728.1	congruent	Block3	congruent/STIM_016.jpg	99
3133.114	0.788	788.2	congruent	Block3	congruent/STIM_017.jpg	99
3136.0	0.883	883.4	congruent	Block3	congruent/STIM_017.jpg	99
3140.143	0.835	834.6	congruent	Block3	congruent/STIM_017.jpg	99
3143.075	0.786	785.6	congruent	Block3	congruent/STIM_017.jpg	99
3146.353	0.644	644.0	congruent	Block3	congruent/STIM_017.jpg	100
3150.343	0.79	790.1	congruent	Block3	congruent/STIM_018.jpg	100
3154.454	0.664	664.4	congruent	Block3	congruent/STIM_018.jpg	100
3157.398	0.69	689.7	congruent	Block3	congruent/STIM_018.jpg	99
3160.128	0.95	950.0	congruent	Block3	congruent/STIM_018.jpg	99
3164.755	0.966	965.9	congruent	Block3	congruent/STIM_018.jpg	100
3167.892	0.875	875.1	congruent	Block3	congruent/STIM_019.jpg	99
3171.051	0.96	959.9	congruent	Block3	congruent/STIM_019.jpg	99
3175.735	0.631	630.7	congruent	Block3	congruent/STIM_019.jpg	100
3180.007	0.617	616.8	congruent	Block3	congruent/STIM_019.jpg	99
3184.276	0.916	915.8	congruent	Block3	congruent/STIM_019.jpg	99
3187.626	0.933	933.4	congruent	Block3	congruent/STIM_020.jpg	99
3191.019	0.891	891.3	congruent	Block3	congruent/STIM_020.jpg	99
3194.392	0.619	619.4	congruent	Block3	congruent/STIM_020.jpg	100
3198.813	0.566	565.8	congruent	Block3	congruent/STIM_020.jpg	100
3202.625	0.748	747.5	congruent	Block3	congruent/STIM_020.jpg	100
3206.567	1.029	1029.0	congruent	Block3	congruent/STIM_021.jpg	99
3210.324	0.617	616.7	congruent	Block3	congruent/STIM_021.jpg	99
3214.365	0.765	764.6	congruent	Block3	congruent/STIM_021.jpg	99
3218.147	0.642	642.5	congruent	Block3	congruent/STIM_021.jpg	99
3221.146	0.5	500.0	congruent	Block3	congruent/STIM_021.jpg	99
3224.429	0.688	687.7	congruent	Block3	congruent/STIM_022.jpg	100
3228.646	0.776	776.2	congruent	Block3	congruent/STIM_022.jpg	99
3232.622	0.776	776.5	congruent	Block3	congruent/STIM_022.jpg	100
3235.686	0.639	638.8	congruent	Block3	congruent/STIM_022.jpg	100
3238.824	1.136	1136.1	congruent	Block3	congruent/STIM_022.jpg	100
3241.828	0.741	741.4	congruent	Block3	congruent/STIM_023.jpg	100
3244.679	0.844	844.2	congruent	Block3	congruent/STIM_023.jpg	99
3248.404	0.843	843.0	congruent	Block3	congruent/STIM_023.jpg	100
3252.141	0.79	789.9	congruent	Block3	congruent/STIM_023.jpg	100
3255.598	0.892	891.7	congruent	Block3	congruent/STIM_023.jpg	100
3259.714	0.717	717.2	congruent	Block3	congruent/STIM_024.jpg	100
3264.137	0.823	823.0	congruent	Block3	congruent/STIM_024.jpg	100
3267.909	1.027	1027.0	congruent	Block3	congruent/STIM_024.jpg	100
3272.395	0.72	719.7	congruent	Block3	congruent/STIM_024.jpg	100
3275.998	0.999	999.2	congruent	Block3	congruent/STIM_024.jpg	99
3279.29	0.632	632.4	congruent	Block3	congruent/STIM_025.jpg	99
3282.731	0.851	851.0	congruent	Block3	congruent/STIM_025.jpg	99
3285.68	0.858	858.2	congruent	Block3	congruent/STIM_025.jpg	100
3288.666	0.624	624.5	congruent	Block3	congruent/STIM_025.jpg	100
3292.833	0.825	824.7	congruent	Block3	congruent/STIM_025.jpg	100
3295.7	0.681	680.8	congruent	Block3	congruent/STIM_026.jpg	99
3299.021	0.708	707.8	congruent	Block3	congruent/STIM_026.jpg	100
3302.866	0.501	501.3	congruent	Block3	congruent/STIM_026.jpg	100
3306.035	0.601	600.6	congruent	Block3	congruent/STIM_026.jpg	99
3308.628	0.788	788.4	congruent	Block3	congruent/STIM_026.jpg	99
3311.718	0.886	885.5	congruent	Block3	congruent/STIM_027.jpg	99
3316.339	0.81	810.2	congruent	Block3	congruent/STIM_027.jpg	100
3320.519	0.664	664.0	congruent	Block3	congruent/STIM_027.jpg	99
3323.272	0.705	704.7	congruent	Block3	congruent/STIM_027.jpg	99
3326.268	0.576	576.5	congruent	Block3	congruent/STIM_027.jpg	99
3330.548	0.645	645.4	congruent	Block3	congruent/STIM_028.jpg	99
3334.764	0.671	670.8	congruent	Block3	congruent/STIM_028.jpg	99
3337.576	0.863	862.6	congruent	Block3	congruent/STIM_028.jpg	100
3341.259	0.738	737.8	congruent	Block3	congruent/STIM_028.jpg	99
3344.445	0.673	672.6	congruent	Block3	congruent/STIM_028.jpg	99
3347.757	0.975	975.3	congruent	Block3	congruent/STIM_029.jpg	100
3350.655	0.712	712.2	congruent	Block3	congruent/STIM_029.jpg	99
3354.392	0.768	768.4	congruent	Block3	congruent/STIM_029.jpg	100
3358.369	0.913	913.3	congruent	Block3	congruent/STIM_029.jpg	100
3362.142	0.926	925.7	congruent	Block3	congruent/STIM_029.jpg	99
