onset	duration	accuracy_binary	trial_type	learning_stage	stimulus
0.0	1.112	1	incongruent	Block1	incongruent/STIM_000.jpg
3.13	0.8	1	incongruent	Block1	incongruent/STIM_000.jpg
6.453	0.845	1	incongruent	Block1	incongruent/STIM_000.jpg
9.346	1.092	1	incongruent	Block1	incongruent/STIM_000.jpg
13.889	0.888	1	incongruent	Block1	incongruent/STIM_000.jpg
17.429	1.664	1	incongruent	Block1	incongruent/STIM_001.jpg
21.998	1.065	1	incongruent	Block1	incongruent/STIM_001.jpg
27.022	1.348	1	incongruent	Block1	incongruent/STIM_001.jpg
31.007	1.319	1	incongruent	Block1	incongruent/STIM_001.jpg
34.689	1.214	1	incongruent	Block1	incongruent/STIM_001.jpg
39.837	0.87	1	incongruent	Block1	incongruent/STIM_002.jpg
44.372	1.491	1	incongruent	Block1	incongruent/STIM_002.jpg
49.482	1.0	1	incongruent	Block1	incongruent/STIM_002.jpg
52.543	1.323	1	incongruent	Block1	incongruent/STIM_002.jpg
57.67	0.998	1	incongruent	Block1	incongruent/STIM_002.jpg
61.039	1.496	1	incongruent	Block1	incongruent/STIM_003.jpg
64.79	0.934	1	incongruent	Block1	incongruent/STIM_003.jpg
68.04	0.863	1	incongruent	Block1	incongruent/STIM_003.jpg
71.256	0.866	1	incongruent	Block1	incongruent/STIM_003.jpg
75.89	0.81	1	incongruent	Block1	incongruent/STIM_003.jpg
79.912	1.298	1	incongruent	Block1	incongruent/STIM_004.jpg
84.573	1.555	1	incongruent	Block1	incongruent/STIM_004.jpg
88.457	0.962	1	incongruent	Block1	incongruent/STIM_004.jpg
93.216	1.459	1	incongruent	Block1	incongruent/STIM_004.jpg
97.557	0.859	1	incongruent	Block1	incongruent/STIM_004.jpg
101.907	1.26	1	incongruent	Block1	incongruent/STIM_005.jpg
106.25	1.253	1	incongruent	Block1	incongruent/STIM_005.jpg
109.874	1.018	1	incongruent	Block1	incongruent/STIM_005.jpg
113.597	1.268	1	incongruent	Block1	incongruent/STIM_005.jpg
116.966	1.0	1	incongruent	Block1	incongruent/STIM_005.jpg
121.465	1.6	1	incongruent	Block1	incongruent/STIM_006.jpg
125.941	1.41	1	incongruent	Block1	incongruent/STIM_006.jpg
130.78	1.03	1	incongruent	Block1	incongruent/STIM_006.jpg
134.608	0.866	0	incongruent	Block1	incongruent/STIM_006.jpg
137.545	1.157	1	incongruent	Block1	incongruent/STIM_006.jpg
142.538	1.346	1	incongruent	Block1	incongruent/STIM_007.jpg
147.822	1.168	1	incongruent	Block1	incongruent/STIM_007.jpg
151.422	1.347	1	incongruent	Block1	incongruent/STIM_007.jpg
156.299	1.122	1	incongruent	Block1	incongruent/STIM_007.jpg
161.15	1.247	1	incongruent	Block1	incongruent/STIM_007.jpg
164.809	1.73	1	incongruent	Block1	incongruent/STIM_008.jpg
170.018	1.426	1	incongruent	Block1	incongruent/STIM_008.jpg
175.153	0.815	1	incongruent	Block1	incongruent/STIM_008.jpg
178.275	1.152	1	incongruent	Block1	incongruent/STIM_008.jpg
183.182	1.294	1	incongruent	Block1	incongruent/STIM_008.jpg
187.035	1.002	1	incongruent	Block1	incongruent/STIM_009.jpg
190.136	0.812	1	incongruent	Block1	incongruent/STIM_009.jpg
193.16	1.538	1	incongruent	Block1	incongruent/STIM_009.jpg
198.463	1.023	1	incongruent	Block1	incongruent/STIM_009.jpg
202.586	1.016	1	incongruent	Block1	incongruent/STIM_009.jpg
206.446	0.973	1	incongruent	Block1	incongruent/STIM_010.jpg
209.474	0.785	1	incongruent	Block1	incongruent/STIM_010.jpg
212.79	0.903	1	incongruent	Block1	incongruent/STIM_010.jpg
217.348	1.3	1	incongruent	Block1	incongruent/STIM_010.jpg
222.239	0.794	1	incongruent	Block1	incongruent/STIM_010.jpg
226.351	1.205	1	incongruent	Block1	incongruent/STIM_011.jpg
229.901	1.597	1	incongruent	Block1	incongruent/STIM_011.jpg
235.079	1.384	1	incongruent	Block1	incongruent/STIM_011.jpg
240.067	1.192	1	incongruent	Block1	incongruent/STIM_011.jpg
243.523	1.353	1	incongruent	Block1	incongruent/STIM_011.jpg
247.063	1.177	1	incongruent	Block1	incongruent/STIM_012.jpg
251.144	1.181	1	incongruent	Block1	incongruent/STIM_012.jpg
256.034	1.265	1	incongruent	Block1	incongruent/STIM_012.jpg
259.624	0.728	1	incongruent	Block1	incongruent/STIM_012.jpg
263.629	1.198	1	incongruent	Block1	incongruent/STIM_012.jpg
268.337	1.599	1	incongruent	Block1	incongruent/STIM_013.jpg
272.742	1.058	1	incongruent	Block1	incongruent/STIM_013.jpg
275.867	1.188	1	incongruent	Block1	incongruent/STIM_013.jpg
280.713	0.91	1	incongruent	Block1	incongruent/STIM_013.jpg
284.868	0.892	1	incongruent	Block1	incongruent/STIM_013.jpg
288.455	1.343	1	incongruent	Block1	incongruent/STIM_014.jpg
292.331	1.196	1	incongruent	Block1	incongruent/STIM_014.jpg
296.96	0.921	1	incongruent	Block1	incongruent/STIM_014.jpg
301.046	0.76	1	incongruent	Block1	incongruent/STIM_014.jpg
305.477	0.876	1	incongruent	Block1	incongruent/STIM_014.jpg
309.405	0.949	1	incongruent	Block1	incongruent/STIM_015.jpg
313.22	1.3	1	incongruent	Block1	incongruent/STIM_015.jpg
317.944	1.201	1	incongruent	Block1	incongruent/STIM_015.jpg
321.618	1.474	1	incongruent	Block1	incongruent/STIM_015.jpg
326.423	0.846	1	incongruent	Block1	incongruent/STIM_015.jpg
330.163	1.013	1	incongruent	Block1	incongruent/STIM_016.jpg
334.21	0.946	1	incongruent	Block1	incongruent/STIM_016.jpg
337.24	1.482	1	incongruent	Block1	incongruent/STIM_016.jpg
340.895	0.785	1	incongruent	Block1	incongruent/STIM_016.jpg
345.068	0.864	1	incongruent	Block1	incongruent/STIM_016.jpg
348.605	1.314	1	incongruent	Block1	incongruent/STIM_017.jpg
351.994	0.911	1	incongruent	Block1	incongruent/STIM_017.jpg
356.135	0.788	1	incongruent	Block1	incongruent/STIM_017.jpg
359.656	1.371	1	incongruent	Block1	incongruent/STIM_017.jpg
364.707	1.368	1	incongruent	Block1	incongruent/STIM_017.jpg
368.332	1.701	1	incongruent	Block1	incongruent/STIM_018.jpg
372.596	1.469	1	incongruent	Block1	incongruent/STIM_018.jpg
377.276	1.028	1	incongruent	Block1	incongruent/STIM_018.jpg
381.774	1.448	1	incongruent	Block1	incongruent/STIM_018.jpg
385.479	0.791	1	incongruent	Block1	incongruent/STIM_018.jpg
389.022	0.818	1	incongruent	Block1	incongruent/STIM_019.jpg
392.654	1.511	1	incongruent	Block1	incongruent/STIM_019.jpg
397.527	0.906	1	incongruent	Block1	incongruent/STIM_019.jpg
402.079	0.75	1	incongruent	Block1	incongruent/STIM_019.jpg
406.465	0.674	0	incongruent	Block1	incongruent/STIM_019.jpg
410.52	0.929	1	incongruent	Block1	incongruent/STIM_020.jpg
413.507	0.899	1	incongruent	Block1	incongruent/STIM_020.jpg
417.626	1.524	1	incongruent	Block1	incongruent/STIM_020.jpg
421.594	0.775	1	incongruent	Block1	incongruent/STIM_020.jpg
425.109	0.99	1	incongruent	Block1	incongruent/STIM_020.jpg
428.411	1.354	1	incongruent	Block1	incongruent/STIM_021.jpg
432.559	1.039	1	incongruent	Block1	incongruent/STIM_021.jpg
436.739	1.478	1	incongruent	Block1	incongruent/STIM_021.jpg
441.54	1.154	1	incongruent	Block1	incongruent/STIM_021.jpg
445.46	0.95	1	incongruent	Block1	incongruent/STIM_021.jpg
448.796	1.054	1	incongruent	Block1	incongruent/STIM_022.jpg
452.227	0.776	1	incongruent	Block1	incongruent/STIM_022.jpg
455.284	0.791	1	incongruent	Block1	incongruent/STIM_022.jpg
458.314	1.384	1	incongruent	Block1	incongruent/STIM_022.jpg
461.941	0.759	1	incongruent	Block1	incongruent/STIM_022.jpg
466.479	1.152	1	incongruent	Block1	incongruent/STIM_023.jpg
469.645	0.984	0	incongruent	Block1	incongruent/STIM_023.jpg
473.606	1.399	1	incongruent	Block1	incongruent/STIM_023.jpg
477.72	1.034	0	incongruent	Block1	incongruent/STIM_023.jpg
482.125	1.057	1	incongruent	Block1	incongruent/STIM_023.jpg
486.578	1.634	1	incongruent	Block1	incongruent/STIM_024.jpg
491.447	1.503	1	incongruent	Block1	incongruent/STIM_024.jpg
495.364	1.524	1	incongruent	Block1	incongruent/STIM_024.jpg
500.827	0.762	1	incongruent	Block1	incongruent/STIM_024.jpg
504.231	0.93	1	incongruent	Block1	incongruent/STIM_024.jpg
508.102	1.382	1	incongruent	Block1	incongruent/STIM_025.jpg
512.244	1.407	1	incongruent	Block1	incongruent/STIM_025.jpg
516.133	1.059	1	incongruent	Block1	incongruent/STIM_025.jpg
519.39	0.988	1	incongruent	Block1	incongruent/STIM_025.jpg
523.208	1.256	1	incongruent	Block1	incongruent/STIM_025.jpg
527.48	1.414	1	incongruent	Block1	incongruent/STIM_026.jpg
531.068	1.069	1	incongruent	Block1	incongruent/STIM_026.jpg
534.496	1.211	1	incongruent	Block1	incongruent/STIM_026.jpg
537.985	0.853	1	incongruent	Block1	incongruent/STIM_026.jpg
541.638	0.703	1	incongruent	Block1	incongruent/STIM_026.jpg
545.152	1.253	1	incongruent	Block1	incongruent/STIM_027.jpg
549.529	0.859	1	incongruent	Block1	incongruent/STIM_027.jpg
552.83	1.555	1	incongruent	Block1	incongruent/STIM_027.jpg
556.582	1.233	1	incongruent	Block1	incongruent/STIM_027.jpg
561.144	1.108	1	incongruent	Block1	incongruent/STIM_027.jpg
565.756	1.196	1	incongruent	Block1	incongruent/STIM_028.jpg
570.631	1.459	1	incongruent	Block1	incongruent/STIM_028.jpg
574.138	1.4	1	incongruent	Block1	incongruent/STIM_028.jpg
578.506	0.98	1	incongruent	Block1	incongruent/STIM_028.jpg
582.629	1.298	1	incongruent	Block1	incongruent/STIM_028.jpg
585.955	1.692	1	incongruent	Block1	incongruent/STIM_029.jpg
591.517	1.218	1	incongruent	Block1	incongruent/STIM_029.jpg
596.441	1.184	1	incongruent	Block1	incongruent/STIM_029.jpg
599.716	0.981	1	incongruent	Block1	incongruent/STIM_029.jpg
604.257	0.98	1	incongruent	Block1	incongruent/STIM_029.jpg
607.379	0.604	1	congruent	Block1	congruent/STIM_000.jpg
611.585	0.871	1	congruent	Block1	congruent/STIM_000.jpg
615.552	0.597	1	congruent	Block1	congruent/STIM_000.jpg
619.804	0.783	1	congruent	Block1	congruent/STIM_000.jpg
623.519	0.983	1	congruent	Block1	congruent/STIM_000.jpg
627.414	0.637	1	congruent	Block1	congruent/STIM_001.jpg
631.825	0.953	1	congruent	Block1	congruent/STIM_001.jpg
634.822	0.998	1	congruent	Block1	congruent/STIM_001.jpg
639.407	0.7	1	congruent	Block1	congruent/STIM_001.jpg
643.116	0.653	1	congruent	Block1	congruent/STIM_001.jpg
646.683	0.884	1	congruent	Block1	congruent/STIM_002.jpg
650.141	0.842	1	congruent	Block1	congruent/STIM_002.jpg
653.497	1.04	1	congruent	Block1	congruent/STIM_002.jpg
657.7	0.66	1	congruent	Block1	congruent/STIM_002.jpg
661.552	0.752	1	congruent	Block1	congruent/STIM_002.jpg
664.797	0.76	1	congruent	Block1	congruent/STIM_003.jpg
669.407	0.681	1	congruent	Block1	congruent/STIM_003.jpg
672.807	0.605	1	congruent	Block1	congruent/STIM_003.jpg
676.306	0.944	1	congruent	Block1	congruent/STIM_003.jpg
679.412	0.593	1	congruent	Block1	congruent/STIM_003.jpg
683.978	0.945	1	congruent	Block1	congruent/STIM_004.jpg
687.347	0.709	1	congruent	Block1	congruent/STIM_004.jpg
690.92	0.775	1	congruent	Block1	congruent/STIM_004.jpg
693.85	0.725	1	congruent	Block1	congruent/STIM_004.jpg
696.908	1.001	1	congruent	Block1	congruent/STIM_004.jpg
700.565	0.678	1	congruent	Block1	congruent/STIM_005.jpg
703.976	0.614	1	congruent	Block1	congruent/STIM_005.jpg
706.81	0.905	1	congruent	Block1	congruent/STIM_005.jpg
710.428	0.942	1	congruent	Block1	congruent/STIM_005.jpg
715.25	0.879	1	congruent	Block1	congruent/STIM_005.jpg
718.234	0.742	1	congruent	Block1	congruent/STIM_006.jpg
722.384	1.036	1	congruent	Block1	congruent/STIM_006.jpg
726.276	0.623	1	congruent	Block1	congruent/STIM_006.jpg
730.311	0.738	1	congruent	Block1	congruent/STIM_006.jpg
734.57	0.63	1	congruent	Block1	congruent/STIM_006.jpg
738.364	0.895	1	congruent	Block1	congruent/STIM_007.jpg
741.827	0.616	1	congruent	Block1	congruent/STIM_007.jpg
744.731	0.786	1	congruent	Block1	congruent/STIM_007.jpg
749.29	0.97	1	congruent	Block1	congruent/STIM_007.jpg
752.301	0.7	1	congruent	Block1	congruent/STIM_007.jpg
755.146	0.872	1	congruent	Block1	congruent/STIM_008.jpg
758.018	0.941	1	congruent	Block1	congruent/STIM_008.jpg
762.338	0.649	1	congruent	Block1	congruent/STIM_008.jpg
766.842	0.707	1	congruent	Block1	congruent/STIM_008.jpg
770.168	0.915	1	congruent	Block1	congruent/STIM_008.jpg
774.834	0.688	1	congruent	Block1	congruent/STIM_009.jpg
778.653	0.699	1	congruent	Block1	congruent/STIM_009.jpg
782.408	0.807	1	congruent	Block1	congruent/STIM_009.jpg
786.125	0.877	1	congruent	Block1	congruent/STIM_009.jpg
789.257	0.684	1	congruent	Block1	congruent/STIM_009.jpg
793.509	0.95	1	congruent	Block1	congruent/STIM_010.jpg
798.243	0.73	1	congruent	Block1	congruent/STIM_010.jpg
802.856	0.656	1	congruent	Block1	congruent/STIM_010.jpg
805.849	0.628	1	congruent	Block1	congruent/STIM_010.jpg
810.298	0.928	1	congruent	Block1	congruent/STIM_010.jpg
813.279	0.659	1	congruent	Block1	congruent/STIM_011.jpg
816.458	0.928	1	congruent	Block1	congruent/STIM_011.jpg
820.479	1.026	1	congruent	Block1	congruent/STIM_011.jpg
824.607	0.987	1	congruent	Block1	congruent/STIM_011.jpg
827.81	0.923	1	congruent	Block1	congruent/STIM_011.jpg
832.731	0.88	1	congruent	Block1	congruent/STIM_012.jpg
836.974	0.684	1	congruent	Block1	congruent/STIM_012.jpg
840.011	0.774	1	congruent	Block1	congruent/STIM_012.jpg
843.587	0.94	1	congruent	Block1	congruent/STIM_012.jpg
846.854	0.582	1	congruent	Block1	congruent/STIM_012.jpg
850.769	0.67	1	congruent	Block1	congruent/STIM_013.jpg
854.206	0.607	1	congruent	Block1	congruent/STIM_013.jpg
858.271	0.901	1	congruent	Block1	congruent/STIM_013.jpg
863.16	0.726	1	congruent	Block1	congruent/STIM_013.jpg
866.934	0.977	1	congruent	Block1	congruent/STIM_013.jpg
871.102	0.987	1	congruent	Block1	congruent/STIM_014.jpg
874.968	0.834	1	congruent	Block1	congruent/STIM_014.jpg
878.757	0.659	1	congruent	Block1	congruent/STIM_014.jpg
882.167	0.663	1	congruent	Block1	congruent/STIM_014.jpg
885.349	0.792	1	congruent	Block1	congruent/STIM_014.jpg
888.781	1.04	1	congruent	Block1	congruent/STIM_015.jpg
892.389	0.599	1	congruent	Block1	congruent/STIM_015.jpg
896.013	0.902	1	congruent	Block1	congruent/STIM_015.jpg
898.937	0.695	1	congruent	Block1	congruent/STIM_015.jpg
903.109	0.844	1	congruent	Block1	congruent/STIM_015.jpg
907.525	0.827	1	congruent	Block1	congruent/STIM_016.jpg
912.265	0.98	1	congruent	Block1	congruent/STIM_016.jpg
915.736	0.675	1	congruent	Block1	congruent/STIM_016.jpg
920.159	0.945	1	congruent	Block1	congruent/STIM_016.jpg
924.848	0.807	1	congruent	Block1	congruent/STIM_016.jpg
928.208	0.678	1	congruent	Block1	congruent/STIM_017.jpg
932.177	1.019	1	congruent	Block1	congruent/STIM_017.jpg
935.338	0.833	1	congruent	Block1	congruent/STIM_017.jpg
938.65	0.934	1	congruent	Block1	congruent/STIM_017.jpg
942.451	0.885	1	congruent	Block1	congruent/STIM_017.jpg
946.845	0.737	1	congruent	Block1	congruent/STIM_018.jpg
949.953	0.86	1	congruent	Block1	congruent/STIM_018.jpg
954.719	0.655	1	congruent	Block1	congruent/STIM_018.jpg
959.307	0.974	1	congruent	Block1	congruent/STIM_018.jpg
963.433	0.674	1	congruent	Block1	congruent/STIM_018.jpg
966.34	0.892	1	congruent	Block1	congruent/STIM_019.jpg
970.277	0.726	1	congruent	Block1	congruent/STIM_019.jpg
973.919	0.939	1	congruent	Block1	congruent/STIM_019.jpg
978.728	0.619	1	congruent	Block1	congruent/STIM_019.jpg
983.343	0.706	1	congruent	Block1	congruent/STIM_019.jpg
986.06	1.035	1	congruent	Block1	congruent/STIM_020.jpg
991.072	0.702	1	congruent	Block1	congruent/STIM_020.jpg
994.839	0.718	1	congruent	Block1	congruent/STIM_020.jpg
998.164	0.759	0	congruent	Block1	congruent/STIM_020.jpg
1001.166	0.69	1	congruent	Block1	congruent/STIM_020.jpg
1005.559	0.796	1	congruent	Block1	congruent/STIM_021.jpg
1008.943	0.604	1	congruent	Block1	congruent/STIM_021.jpg
1012.268	0.675	1	congruent	Block1	congruent/STIM_021.jpg
1015.858	0.83	1	congruent	Block1	congruent/STIM_021.jpg
1019.162	0.94	1	congruent	Block1	congruent/STIM_021.jpg
1023.81	1.004	1	congruent	Block1	congruent/STIM_022.jpg
1027.401	1.022	1	congruent	Block1	congruent/STIM_022.jpg
1030.679	0.864	1	congruent	Block1	congruent/STIM_022.jpg
1033.619	0.93	1	congruent	Block1	congruent/STIM_022.jpg
1038.491	0.773	1	congruent	Block1	congruent/STIM_022.jpg
1042.889	0.635	1	congruent	Block1	congruent/STIM_023.jpg
1046.24	0.976	0	congruent	Block1	congruent/STIM_023.jpg
1050.939	0.82	1	congruent	Block1	congruent/STIM_023.jpg
1055.46	0.733	1	congruent	Block1	congruent/STIM_023.jpg
1059.41	0.747	1	congruent	Block1	congruent/STIM_023.jpg
1062.924	0.868	1	congruent	Block1	congruent/STIM_024.jpg
1066.053	0.702	1	congruent	Block1	congruent/STIM_024.jpg
1069.15	0.741	1	congruent	Block1	congruent/STIM_024.jpg
1073.772	0.844	1	congruent	Block1	congruent/STIM_024.jpg
1077.865	0.836	1	congruent	Block1	congruent/STIM_024.jpg
1081.458	0.842	1	congruent	Block1	congruent/STIM_025.jpg
1086.027	0.765	1	congruent	Block1	congruent/STIM_025.jpg
1090.463	0.607	1	congruent	Block1	congruent/STIM_025.jpg
1094.667	0.584	1	congruent	Block1	congruent/STIM_025.jpg
1097.691	0.677	1	congruent	Block1	congruent/STIM_025.jpg
1102.188	0.936	1	congruent	Block1	congruent/STIM_026.jpg
1105.347	0.658	1	congruent	Block1	congruent/STIM_026.jpg
1108.275	0.927	1	congruent	Block1	congruent/STIM_026.jpg
1111.226	0.647	1	congruent	Block1	congruent/STIM_026.jpg
1115.071	0.93	1	congruent	Block1	congruent/STIM_026.jpg
1118.799	0.944	1	congruent	Block1	congruent/STIM_027.jpg
1122.223	0.649	1	congruent	Block1	congruent/STIM_027.jpg
1126.811	0.917	1	congruent	Block1	congruent/STIM_027.jpg
1131.162	0.804	1	congruent	Block1	congruent/STIM_027.jpg
1134.655	0.792	1	congruent	Block1	congruent/STIM_027.jpg
1139.165	0.643	1	congruent	Block1	congruent/STIM_028.jpg
1143.789	0.748	1	congruent	Block1	congruent/STIM_028.jpg
1148.154	0.932	1	congruent	Block1	congruent/STIM_028.jpg
1151.486	0.859	1	congruent	Block1	congruent/STIM_028.jpg
1155.18	0.686	1	congruent	Block1	congruent/STIM_028.jpg
1159.731	1.012	1	congruent	Block1	congruent/STIM_029.jpg
1162.876	0.674	1	congruent	Block1	congruent/STIM_029.jpg
1166.058	0.617	1	congruent	Block1	congruent/STIM_029.jpg
1169.213	0.819	1	congruent	Block1	congruent/STIM_029.jpg
1173.788	0.725	1	congruent	Block1	congruent/STIM_029.jpg
1177.495	1.392	1	incongruent	Block2	incongruent/STIM_000.jpg
1181.621	1.026	1	incongruent	Block2	incongruent/STIM_000.jpg
1184.843	1.221	1	incongruent	Block2	incongruent/STIM_000.jpg
1188.89	1.009	1	incongruent	Block2	incongruent/STIM_000.jpg
1192.905	1.022	1	incongruent	Block2	incongruent/STIM_000.jpg
1197.113	1.41	1	incongruent	Block2	incongruent/STIM_001.jpg
1200.627	1.211	1	incongruent	Block2	incongruent/STIM_001.jpg
1205.233	0.71	1	incongruent	Block2	incongruent/STIM_001.jpg
1209.212	1.012	1	incongruent	Block2	incongruent/STIM_001.jpg
1214.212	1.004	1	incongruent	Block2	incongruent/STIM_001.jpg
1217.349	1.002	1	incongruent	Block2	incongruent/STIM_002.jpg
1221.271	1.074	1	incongruent	Block2	incongruent/STIM_002.jpg
1225.324	1.279	1	incongruent	Block2	incongruent/STIM_002.jpg
1229.63	0.994	1	incongruent	Block2	incongruent/STIM_002.jpg
1234.191	0.737	1	incongruent	Block2	incongruent/STIM_002.jpg
1237.035	1.051	1	incongruent	Block2	incongruent/STIM_003.jpg
1240.555	1.3	1	incongruent	Block2	incongruent/STIM_003.jpg
1245.512	1.113	1	incongruent	Block2	incongruent/STIM_003.jpg
1249.524	1.175	1	incongruent	Block2	incongruent/STIM_003.jpg
1252.986	1.029	1	incongruent	Block2	incongruent/STIM_003.jpg
1256.289	0.729	1	incongruent	Block2	incongruent/STIM_004.jpg
1260.218	0.983	1	incongruent	Block2	incongruent/STIM_004.jpg
1264.364	0.667	1	incongruent	Block2	incongruent/STIM_004.jpg
1267.776	0.865	1	incongruent	Block2	incongruent/STIM_004.jpg
1270.704	0.847	1	incongruent	Block2	incongruent/STIM_004.jpg
1274.766	0.794	1	incongruent	Block2	incongruent/STIM_005.jpg
1278.558	1.338	1	incongruent	Block2	incongruent/STIM_005.jpg
1283.593	0.656	1	incongruent	Block2	incongruent/STIM_005.jpg
1288.147	0.844	1	incongruent	Block2	incongruent/STIM_005.jpg
1291.189	1.184	1	incongruent	Block2	incongruent/STIM_005.jpg
1294.965	0.692	1	incongruent	Block2	incongruent/STIM_006.jpg
1298.816	0.87	1	incongruent	Block2	incongruent/STIM_006.jpg
1302.857	1.235	1	incongruent	Block2	incongruent/STIM_006.jpg
1306.394	1.159	1	incongruent	Block2	incongruent/STIM_006.jpg
1310.461	1.04	1	incongruent	Block2	incongruent/STIM_006.jpg
1314.076	1.362	1	incongruent	Block2	incongruent/STIM_007.jpg
1317.795	1.285	1	incongruent	Block2	incongruent/STIM_007.jpg
1321.691	1.188	1	incongruent	Block2	incongruent/STIM_007.jpg
1324.881	0.645	1	incongruent	Block2	incongruent/STIM_007.jpg
1329.215	1.153	1	incongruent	Block2	incongruent/STIM_007.jpg
1333.343	0.756	1	incongruent	Block2	incongruent/STIM_008.jpg
1336.478	0.714	1	incongruent	Block2	incongruent/STIM_008.jpg
1340.395	1.026	1	incongruent	Block2	incongruent/STIM_008.jpg
1344.037	0.868	1	incongruent	Block2	incongruent/STIM_008.jpg
1347.981	0.812	1	incongruent	Block2	incongruent/STIM_008.jpg
1352.77	1.138	0	incongruent	Block2	incongruent/STIM_009.jpg
1357.216	1.339	1	incongruent	Block2	incongruent/STIM_009.jpg
1362.218	1.22	1	incongruent	Block2	incongruent/STIM_009.jpg
1365.894	1.06	1	incongruent	Block2	incongruent/STIM_009.jpg
1370.013	0.616	1	incongruent	Block2	incongruent/STIM_009.jpg
1372.877	0.788	1	incongruent	Block2	incongruent/STIM_010.jpg
1377.214	0.833	1	incongruent	Block2	incongruent/STIM_010.jpg
1381.034	0.761	1	incongruent	Block2	incongruent/STIM_010.jpg
1385.719	0.976	1	incongruent	Block2	incongruent/STIM_010.jpg
1389.203	0.626	1	incongruent	Block2	incongruent/STIM_010.jpg
1392.107	0.703	1	incongruent	Block2	incongruent/STIM_011.jpg
1395.767	0.94	1	incongruent	Block2	incongruent/STIM_011.jpg
1399.271	1.012	1	incongruent	Block2	incongruent/STIM_011.jpg
1402.811	1.038	1	incongruent	Block2	incongruent/STIM_011.jpg
1407.309	1.079	1	incongruent	Block2	incongruent/STIM_011.jpg
1410.838	1.072	1	incongruent	Block2	incongruent/STIM_012.jpg
1414.555	1.262	1	incongruent	Block2	incongruent/STIM_012.jpg
1418.646	0.956	1	incongruent	Block2	incongruent/STIM_012.jpg
1422.642	0.674	1	incongruent	Block2	incongruent/STIM_012.jpg
1427.068	1.166	1	incongruent	Block2	incongruent/STIM_012.jpg
1430.523	0.717	1	incongruent	Block2	incongruent/STIM_013.jpg
1434.922	1.355	1	incongruent	Block2	incongruent/STIM_013.jpg
1439.81	1.089	1	incongruent	Block2	incongruent/STIM_013.jpg
1443.117	0.73	1	incongruent	Block2	incongruent/STIM_013.jpg
1446.979	0.722	1	incongruent	Block2	incongruent/STIM_013.jpg
1451.095	1.252	1	incongruent	Block2	incongruent/STIM_014.jpg
1455.248	0.887	1	incongruent	Block2	incongruent/STIM_014.jpg
1459.508	1.141	1	incongruent	Block2	incongruent/STIM_014.jpg
1463.719	0.802	1	incongruent	Block2	incongruent/STIM_014.jpg
1467.755	1.196	1	incongruent	Block2	incongruent/STIM_014.jpg
1471.187	1.131	1	incongruent	Block2	incongruent/STIM_015.jpg
1475.386	1.309	1	incongruent	Block2	incongruent/STIM_015.jpg
1480.418	0.65	1	incongruent	Block2	incongruent/STIM_015.jpg
1483.217	0.739	1	incongruent	Block2	incongruent/STIM_015.jpg
1486.821	0.879	1	incongruent	Block2	incongruent/STIM_015.jpg
1490.011	1.149	1	incongruent	Block2	incongruent/STIM_016.jpg
1493.822	1.176	0	incongruent	Block2	incongruent/STIM_016.jpg
1498.01	1.086	1	incongruent	Block2	incongruent/STIM_016.jpg
1502.439	0.65	1	incongruent	Block2	incongruent/STIM_016.jpg
1506.19	1.091	1	incongruent	Block2	incongruent/STIM_016.jpg
1510.496	1.44	1	incongruent	Block2	incongruent/STIM_017.jpg
1515.162	1.078	1	incongruent	Block2	incongruent/STIM_017.jpg
1519.396	0.802	1	incongruent	Block2	incongruent/STIM_017.jpg
1524.171	0.573	1	incongruent	Block2	incongruent/STIM_017.jpg
1527.443	1.154	1	incongruent	Block2	incongruent/STIM_017.jpg
1531.877	0.978	1	incongruent	Block2	incongruent/STIM_018.jpg
1536.689	1.094	1	incongruent	Block2	incongruent/STIM_018.jpg
1540.296	0.635	1	incongruent	Block2	incongruent/STIM_018.jpg
1543.946	0.684	1	incongruent	Block2	incongruent/STIM_018.jpg
1547.207	0.691	1	incongruent	Block2	incongruent/STIM_018.jpg
1551.343	1.456	1	incongruent	Block2	incongruent/STIM_019.jpg
1555.616	0.812	1	incongruent	Block2	incongruent/STIM_019.jpg
1559.676	0.664	1	incongruent	Block2	incongruent/STIM_019.jpg
1562.942	0.812	1	incongruent	Block2	incongruent/STIM_019.jpg
1566.932	0.719	1	incongruent	Block2	incongruent/STIM_019.jpg
1571.365	1.33	1	incongruent	Block2	incongruent/STIM_020.jpg
1575.01	0.764	1	incongruent	Block2	incongruent/STIM_020.jpg
1578.911	0.687	1	incongruent	Block2	incongruent/STIM_020.jpg
1583.212	1.173	1	incongruent	Block2	incongruent/STIM_020.jpg
1587.046	0.629	1	incongruent	Block2	incongruent/STIM_020.jpg
1590.49	0.956	1	incongruent	Block2	incongruent/STIM_021.jpg
1594.105	1.314	1	incongruent	Block2	incongruent/STIM_021.jpg
1599.375	1.018	1	incongruent	Block2	incongruent/STIM_021.jpg
1603.111	0.779	1	incongruent	Block2	incongruent/STIM_021.jpg
1606.718	0.816	1	incongruent	Block2	incongruent/STIM_021.jpg
1611.397	1.112	1	incongruent	Block2	incongruent/STIM_022.jpg
1615.471	1.252	1	incongruent	Block2	incongruent/STIM_022.jpg
1619.068	0.855	1	incongruent	Block2	incongruent/STIM_022.jpg
1622.455	1.123	1	incongruent	Block2	incongruent/STIM_022.jpg
1626.372	1.093	1	incongruent	Block2	incongruent/STIM_022.jpg
1630.546	1.468	1	incongruent	Block2	incongruent/STIM_023.jpg
1635.261	0.715	1	incongruent	Block2	incongruent/STIM_023.jpg
1638.321	0.748	1	incongruent	Block2	incongruent/STIM_023.jpg
1642.827	0.899	1	incongruent	Block2	incongruent/STIM_023.jpg
1646.677	0.861	1	incongruent	Block2	incongruent/STIM_023.jpg
1650.233	0.995	1	incongruent	Block2	incongruent/STIM_024.jpg
1654.079	1.309	1	incongruent	Block2	incongruent/STIM_024.jpg
1658.037	0.941	1	incongruent	Block2	incongruent/STIM_024.jpg
1661.455	1.074	1	incongruent	Block2	incongruent/STIM_024.jpg
1664.653	0.799	1	incongruent	Block2	incongruent/STIM_024.jpg
1668.041	0.922	1	incongruent	Block2	incongruent/STIM_025.jpg
1672.73	0.705	1	incongruent	Block2	incongruent/STIM_025.jpg
1676.78	0.723	1	incongruent	Block2	incongruent/STIM_025.jpg
1679.964	0.647	1	incongruent	Block2	incongruent/STIM_025.jpg
1683.974	0.945	1	incongruent	Block2	incongruent/STIM_025.jpg
1687.612	0.725	1	incongruent	Block2	incongruent/STIM_026.jpg
1692.17	0.706	1	incongruent	Block2	incongruent/STIM_026.jpg
1696.428	1.086	1	incongruent	Block2	incongruent/STIM_026.jpg
1701.24	0.703	1	incongruent	Block2	incongruent/STIM_026.jpg
1705.849	1.07	1	incongruent	Block2	incongruent/STIM_026.jpg
1710.114	1.363	1	incongruent	Block2	incongruent/STIM_027.jpg
1715.398	0.775	1	incongruent	Block2	incongruent/STIM_027.jpg
1719.491	0.84	1	incongruent	Block2	incongruent/STIM_027.jpg
1722.509	0.688	1	incongruent	Block2	incongruent/STIM_027.jpg
1726.116	0.975	1	incongruent	Block2	incongruent/STIM_027.jpg
1730.04	0.7	0	incongruent	Block2	incongruent/STIM_028.jpg
1734.684	0.762	1	incongruent	Block2	incongruent/STIM_028.jpg
1738.337	1.069	1	incongruent	Block2	incongruent/STIM_028.jpg
1743.155	1.157	1	incongruent	Block2	incongruent/STIM_028.jpg
1748.276	1.122	1	incongruent	Block2	incongruent/STIM_028.jpg
1753.149	1.142	1	incongruent	Block2	incongruent/STIM_029.jpg
1756.573	0.772	1	incongruent	Block2	incongruent/STIM_029.jpg
1760.012	0.646	1	incongruent	Block2	incongruent/STIM_029.jpg
1763.341	0.846	1	incongruent	Block2	incongruent/STIM_029.jpg
1767.819	0.866	1	incongruent	Block2	incongruent/STIM_029.jpg
1770.955	0.741	1	congruent	Block2	congruent/STIM_000.jpg
1774.49	0.945	1	congruent	Block2	congruent/STIM_000.jpg
1778.999	0.905	1	congruent	Block2	congruent/STIM_000.jpg
1782.824	0.874	1	congruent	Block2	congruent/STIM_000.jpg
1787.087	0.709	1	congruent	Block2	congruent/STIM_000.jpg
1790.652	0.699	1	congruent	Block2	congruent/STIM_001.jpg
1795.259	0.818	1	congruent	Block2	congruent/STIM_001.jpg
1798.634	0.85	1	congruent	Block2	congruent/STIM_001.jpg
1801.544	0.949	1	congruent	Block2	congruent/STIM_001.jpg
1805.752	1.008	1	congruent	Block2	congruent/STIM_001.jpg
1810.123	0.904	1	congruent	Block2	congruent/STIM_002.jpg
1814.182	0.655	1	congruent	Block2	congruent/STIM_002.jpg
1817.032	0.808	1	congruent	Block2	congruent/STIM_002.jpg
1819.882	0.682	1	congruent	Block2	congruent/STIM_002.jpg
1823.344	1.002	1	congruent	Block2	congruent/STIM_002.jpg
1826.548	0.833	1	congruent	Block2	congruent/STIM_003.jpg
1829.448	0.67	1	congruent	Block2	congruent/STIM_003.jpg
1833.424	0.853	1	congruent	Block2	congruent/STIM_003.jpg
1837.586	0.89	1	congruent	Block2	congruent/STIM_003.jpg
1840.867	0.711	0	congruent	Block2	congruent/STIM_003.jpg
1844.937	0.891	1	congruent	Block2	congruent/STIM_004.jpg
1849.457	0.596	1	congruent	Block2	congruent/STIM_004.jpg
1853.848	0.646	1	congruent	Block2	congruent/STIM_004.jpg
1858.119	0.946	1	congruent	Block2	congruent/STIM_004.jpg
1862.572	1.032	1	congruent	Block2	congruent/STIM_004.jpg
1865.627	0.693	1	congruent	Block2	congruent/STIM_005.jpg
1869.691	0.871	1	congruent	Block2	congruent/STIM_005.jpg
1873.276	0.819	1	congruent	Block2	congruent/STIM_005.jpg
1878.042	0.605	1	congruent	Block2	congruent/STIM_005.jpg
1881.156	0.88	1	congruent	Block2	congruent/STIM_005.jpg
1884.394	0.762	1	congruent	Block2	congruent/STIM_006.jpg
1887.899	0.582	1	congruent	Block2	congruent/STIM_006.jpg
1892.174	1.041	1	congruent	Block2	congruent/STIM_006.jpg
1896.775	0.586	1	congruent	Block2	congruent/STIM_006.jpg
1899.494	0.742	1	congruent	Block2	congruent/STIM_006.jpg
1903.504	1.04	1	congruent	Block2	congruent/STIM_007.jpg
1907.746	0.937	1	congruent	Block2	congruent/STIM_007.jpg
1911.04	0.631	1	congruent	Block2	congruent/STIM_007.jpg
1914.648	0.997	1	congruent	Block2	congruent/STIM_007.jpg
1919.133	0.869	1	congruent	Block2	congruent/STIM_007.jpg
1922.862	0.799	1	congruent	Block2	congruent/STIM_008.jpg
1927.268	1.013	1	congruent	Block2	congruent/STIM_008.jpg
1932.14	0.898	1	congruent	Block2	congruent/STIM_008.jpg
1936.972	0.858	1	congruent	Block2	congruent/STIM_008.jpg
1940.648	0.69	1	congruent	Block2	congruent/STIM_008.jpg
1943.348	0.868	1	congruent	Block2	congruent/STIM_009.jpg
1947.852	0.584	1	congruent	Block2	congruent/STIM_009.jpg
1950.673	0.977	1	congruent	Block2	congruent/STIM_009.jpg
1955.007	0.764	1	congruent	Block2	congruent/STIM_009.jpg
1959.689	0.962	1	congruent	Block2	congruent/STIM_009.jpg
1962.907	0.953	1	congruent	Block2	congruent/STIM_010.jpg
1967.654	0.922	1	congruent	Block2	congruent/STIM_010.jpg
1972.484	0.728	1	congruent	Block2	congruent/STIM_010.jpg
1976.744	0.814	1	congruent	Block2	congruent/STIM_010.jpg
1980.906	0.697	1	congruent	Block2	congruent/STIM_010.jpg
1985.252	0.709	1	congruent	Block2	congruent/STIM_011.jpg
1989.473	0.978	1	congruent	Block2	congruent/STIM_011.jpg
1993.926	0.582	1	congruent	Block2	congruent/STIM_011.jpg
1997.964	0.89	1	congruent	Block2	congruent/STIM_011.jpg
2001.539	0.773	1	congruent	Block2	congruent/STIM_011.jpg
2005.449	0.998	1	congruent	Block2	congruent/STIM_012.jpg
2008.955	1.028	1	congruent	Block2	congruent/STIM_012.jpg
2013.524	0.63	1	congruent	Block2	congruent/STIM_012.jpg
2016.56	0.912	1	congruent	Block2	congruent/STIM_012.jpg
2020.714	0.714	1	congruent	Block2	congruent/STIM_012.jpg
2023.523	0.903	1	congruent	Block2	congruent/STIM_013.jpg
2028.424	0.966	0	congruent	Block2	congruent/STIM_013.jpg
2033.263	0.893	1	congruent	Block2	congruent/STIM_013.jpg
2036.684	0.716	1	congruent	Block2	congruent/STIM_013.jpg
2041.195	1.005	1	congruent	Block2	congruent/STIM_013.jpg
2044.932	0.884	1	congruent	Block2	congruent/STIM_014.jpg
2048.532	0.815	1	congruent	Block2	congruent/STIM_014.jpg
2051.569	1.024	1	congruent	Block2	congruent/STIM_014.jpg
2056.439	0.858	1	congruent	Block2	congruent/STIM_014.jpg
2059.826	0.978	1	congruent	Block2	congruent/STIM_014.jpg
2064.373	0.874	1	congruent	Block2	congruent/STIM_015.jpg
2067.553	0.599	1	congruent	Block2	congruent/STIM_015.jpg
2070.78	0.811	1	congruent	Block2	congruent/STIM_015.jpg
2074.215	0.735	1	congruent	Block2	congruent/STIM_015.jpg
2078.857	0.721	1	congruent	Block2	congruent/STIM_015.jpg
2082.653	0.701	1	congruent	Block2	congruent/STIM_016.jpg
2085.88	0.612	1	congruent	Block2	congruent/STIM_016.jpg
2089.106	0.857	1	congruent	Block2	congruent/STIM_016.jpg
2093.527	0.707	1	congruent	Block2	congruent/STIM_016.jpg
2096.504	0.687	1	congruent	Block2	congruent/STIM_016.jpg
2100.868	0.787	1	congruent	Block2	congruent/STIM_017.jpg
2104.067	0.876	1	congruent	Block2	congruent/STIM_017.jpg
2107.235	0.871	1	congruent	Block2	congruent/STIM_017.jpg
2111.933	1.027	1	congruent	Block2	congruent/STIM_017.jpg
2115.132	0.781	1	congruent	Block2	congruent/STIM_017.jpg
2119.413	0.815	1	congruent	Block2	congruent/STIM_018.jpg
2123.523	0.662	1	congruent	Block2	congruent/STIM_018.jpg
2128.147	0.854	1	congruent	Block2	congruent/STIM_018.jpg
2131.1	0.798	1	congruent	Block2	congruent/STIM_018.jpg
2134.599	0.735	1	congruent	Block2	congruent/STIM_018.jpg
2137.649	0.773	1	congruent	Block2	congruent/STIM_019.jpg
2141.158	0.6	1	congruent	Block2	congruent/STIM_019.jpg
2145.631	0.802	1	congruent	Block2	congruent/STIM_019.jpg
2150.272	0.609	1	congruent	Block2	congruent/STIM_019.jpg
2153.14	0.794	1	congruent	Block2	congruent/STIM_019.jpg
2156.479	0.726	0	congruent	Block2	congruent/STIM_020.jpg
2160.374	0.781	1	congruent	Block2	congruent/STIM_020.jpg
2165.106	0.934	1	congruent	Block2	congruent/STIM_020.jpg
2169.587	0.767	1	congruent	Block2	congruent/STIM_020.jpg
2174.03	0.837	1	congruent	Block2	congruent/STIM_020.jpg
2178.514	0.788	1	congruent	Block2	congruent/STIM_021.jpg
2182.856	0.722	1	congruent	Block2	congruent/STIM_021.jpg
2186.416	0.892	1	congruent	Block2	congruent/STIM_021.jpg
2189.866	0.782	1	congruent	Block2	congruent/STIM_021.jpg
2194.018	0.7	1	congruent	Block2	congruent/STIM_021.jpg
2196.794	0.592	1	congruent	Block2	congruent/STIM_022.jpg
2201.244	0.711	1	congruent	Block2	congruent/STIM_022.jpg
2204.582	0.783	0	congruent	Block2	congruent/STIM_022.jpg
2208.627	0.743	1	congruent	Block2	congruent/STIM_022.jpg
2211.984	0.673	1	congruent	Block2	congruent/STIM_022.jpg
2215.936	1.014	1	congruent	Block2	congruent/STIM_023.jpg
2219.592	0.92	1	congruent	Block2	congruent/STIM_023.jpg
2222.71	0.894	1	congruent	Block2	congruent/STIM_023.jpg
2227.535	0.703	1	congruent	Block2	congruent/STIM_023.jpg
2232.2	1.004	1	congruent	Block2	congruent/STIM_023.jpg
2236.191	1.02	1	congruent	Block2	congruent/STIM_024.jpg
2240.457	0.889	1	congruent	Block2	congruent/STIM_024.jpg
2244.684	0.71	1	congruent	Block2	congruent/STIM_024.jpg
2249.211	0.783	1	congruent	Block2	congruent/STIM_024.jpg
2253.901	0.824	1	congruent	Block2	congruent/STIM_024.jpg
2258.13	0.67	1	congruent	Block2	congruent/STIM_025.jpg
2261.802	0.708	1	congruent	Block2	congruent/STIM_025.jpg
2265.846	0.985	1	congruent	Block2	congruent/STIM_025.jpg
2269.694	0.839	1	congruent	Block2	congruent/STIM_025.jpg
2274.027	0.867	1	congruent	Block2	congruent/STIM_025.jpg
2278.885	1.039	1	congruent	Block2	congruent/STIM_026.jpg
2282.134	0.998	1	congruent	Block2	congruent/STIM_026.jpg
2286.384	0.788	1	congruent	Block2	congruent/STIM_026.jpg
2289.199	0.802	1	congruent	Block2	congruent/STIM_026.jpg
2293.185	0.596	1	congruent	Block2	congruent/STIM_026.jpg
2296.871	0.816	1	congruent	Block2	congruent/STIM_027.jpg
2301.099	0.743	1	congruent	Block2	congruent/STIM_027.jpg
2305.257	0.628	1	congruent	Block2	congruent/STIM_027.jpg
2308.913	0.753	1	congruent	Block2	congruent/STIM_027.jpg
2312.45	0.747	1	congruent	Block2	congruent/STIM_027.jpg
2315.858	0.903	1	congruent	Block2	congruent/STIM_028.jpg
2320.752	0.972	1	congruent	Block2	congruent/STIM_028.jpg
2324.836	1.034	1	congruent	Block2	congruent/STIM_028.jpg
2329.869	0.639	1	congruent	Block2	congruent/STIM_028.jpg
2333.394	0.653	1	congruent	Block2	congruent/STIM_028.jpg
2336.381	0.983	1	congruent	Block2	congruent/STIM_029.jpg
2339.395	0.694	1	congruent	Block2	congruent/STIM_029.jpg
2343.401	0.765	1	congruent	Block2	congruent/STIM_029.jpg
2346.706	0.846	1	congruent	Block2	congruent/STIM_029.jpg
2350.234	0.968	1	congruent	Block2	congruent/STIM_029.jpg
2354.158	1.06	1	incongruent	Block3	incongruent/STIM_000.jpg
2358.46	1.078	1	incongruent	Block3	incongruent/STIM_000.jpg
2363.365	1.198	1	incongruent	Block3	incongruent/STIM_000.jpg
2367.243	0.719	1	incongruent	Block3	incongruent/STIM_000.jpg
2370.595	0.91	1	incongruent	Block3	incongruent/STIM_000.jpg
2374.018	0.874	1	incongruent	Block3	incongruent/STIM_001.jpg
2377.656	0.568	0	incongruent	Block3	incongruent/STIM_001.jpg
2381.009	0.668	1	incongruent	Block3	incongruent/STIM_001.jpg
2384.714	0.665	1	incongruent	Block3	incongruent/STIM_001.jpg
2388.258	0.796	1	incongruent	Block3	incongruent/STIM_001.jpg
2391.215	1.126	1	incongruent	Block3	incongruent/STIM_002.jpg
2396.092	0.798	1	incongruent	Block3	incongruent/STIM_002.jpg
2400.385	1.154	1	incongruent	Block3	incongruent/STIM_002.jpg
2403.547	0.955	1	incongruent	Block3	incongruent/STIM_002.jpg
2406.84	0.825	1	incongruent	Block3	incongruent/STIM_002.jpg
2410.988	0.908	1	incongruent	Block3	incongruent/STIM_003.jpg
2414.368	1.068	1	incongruent	Block3	incongruent/STIM_003.jpg
2417.785	1.065	1	incongruent	Block3	incongruent/STIM_003.jpg
2421.634	0.754	1	incongruent	Block3	incongruent/STIM_003.jpg
2425.949	1.026	1	incongruent	Block3	incongruent/STIM_003.jpg
2429.425	0.716	1	incongruent	Block3	incongruent/STIM_004.jpg
2432.246	1.028	1	incongruent	Block3	incongruent/STIM_004.jpg
2436.186	0.637	1	incongruent	Block3	incongruent/STIM_004.jpg
2439.871	0.821	1	incongruent	Block3	incongruent/STIM_004.jpg
2443.052	1.044	1	incongruent	Block3	incongruent/STIM_004.jpg
2447.098	0.945	1	incongruent	Block3	incongruent/STIM_005.jpg
2451.699	1.02	1	incongruent	Block3	incongruent/STIM_005.jpg
2456.408	1.108	1	incongruent	Block3	incongruent/STIM_005.jpg
2460.493	1.04	1	incongruent	Block3	incongruent/STIM_005.jpg
2464.536	0.774	1	incongruent	Block3	incongruent/STIM_005.jpg
2469.232	1.084	1	incongruent	Block3	incongruent/STIM_006.jpg
2473.095	0.962	1	incongruent	Block3	incongruent/STIM_006.jpg
2476.088	1.027	1	incongruent	Block3	incongruent/STIM_006.jpg
2479.154	0.672	1	incongruent	Block3	incongruent/STIM_006.jpg
2481.964	0.579	1	incongruent	Block3	incongruent/STIM_006.jpg
2484.638	0.908	1	incongruent	Block3	incongruent/STIM_007.jpg
2488.62	0.692	1	incongruent	Block3	incongruent/STIM_007.jpg
2491.989	1.075	1	incongruent	Block3	incongruent/STIM_007.jpg
2495.628	1.106	1	incongruent	Block3	incongruent/STIM_007.jpg
2498.827	0.853	1	incongruent	Block3	incongruent/STIM_007.jpg
2502.509	0.838	1	incongruent	Block3	incongruent/STIM_008.jpg
2505.913	0.912	1	incongruent	Block3	incongruent/STIM_008.jpg
2509.159	0.978	1	incongruent	Block3	incongruent/STIM_008.jpg
2512.712	0.694	1	incongruent	Block3	incongruent/STIM_008.jpg
2515.493	1.005	1	incongruent	Block3	incongruent/STIM_008.jpg
2520.2	0.709	1	incongruent	Block3	incongruent/STIM_009.jpg
2524.848	1.081	1	incongruent	Block3	incongruent/STIM_009.jpg
2528.298	0.971	1	incongruent	Block3	incongruent/STIM_009.jpg
2532.873	0.942	1	incongruent	Block3	incongruent/STIM_009.jpg
2536.22	1.145	1	incongruent	Block3	incongruent/STIM_009.jpg
2540.155	1.138	1	incongruent	Block3	incongruent/STIM_010.jpg
2544.731	0.843	1	incongruent	Block3	incongruent/STIM_010.jpg
2548.08	0.916	1	incongruent	Block3	incongruent/STIM_010.jpg
2551.238	0.604	1	incongruent	Block3	incongruent/STIM_010.jpg
2554.644	0.986	1	incongruent	Block3	incongruent/STIM_010.jpg
2558.034	0.768	1	incongruent	Block3	incongruent/STIM_011.jpg
2561.684	1.14	1	incongruent	Block3	incongruent/STIM_011.jpg
2565.175	0.883	1	incongruent	Block3	incongruent/STIM_011.jpg
2568.9	1.071	1	incongruent	Block3	incongruent/STIM_011.jpg
2573.723	0.694	1	incongruent	Block3	incongruent/STIM_011.jpg
2578.13	1.03	1	incongruent	Block3	incongruent/STIM_012.jpg
2582.505	0.743	1	incongruent	Block3	incongruent/STIM_012.jpg
2586.17	1.19	0	incongruent	Block3	incongruent/STIM_012.jpg
2591.151	0.812	1	incongruent	Block3	incongruent/STIM_012.jpg
2595.108	0.772	1	incongruent	Block3	incongruent/STIM_012.jpg
2599.358	1.034	1	incongruent	Block3	incongruent/STIM_013.jpg
2603.987	0.676	1	incongruent	Block3	incongruent/STIM_013.jpg
2608.018	0.966	1	incongruent	Block3	incongruent/STIM_013.jpg
2611.729	1.173	1	incongruent	Block3	incongruent/STIM_013.jpg
2615.323	0.867	1	incongruent	Block3	incongruent/STIM_013.jpg
2619.726	1.165	1	incongruent	Block3	incongruent/STIM_014.jpg
2623.189	0.633	1	incongruent	Block3	incongruent/STIM_014.jpg
2625.976	0.83	1	incongruent	Block3	incongruent/STIM_014.jpg
2630.264	0.761	1	incongruent	Block3	incongruent/STIM_014.jpg
2633.417	1.026	1	incongruent	Block3	incongruent/STIM_014.jpg
2637.853	0.894	1	incongruent	Block3	incongruent/STIM_015.jpg
2642.349	1.052	1	incongruent	Block3	incongruent/STIM_015.jpg
2646.669	0.885	1	incongruent	Block3	incongruent/STIM_015.jpg
2651.156	0.722	1	incongruent	Block3	incongruent/STIM_015.jpg
2655.762	0.751	1	incongruent	Block3	incongruent/STIM_015.jpg
2660.138	0.973	1	incongruent	Block3	incongruent/STIM_016.jpg
2663.116	0.688	1	incongruent	Block3	incongruent/STIM_016.jpg
2666.53	1.057	0	incongruent	Block3	incongruent/STIM_016.jpg
2670.812	1.024	1	incongruent	Block3	incongruent/STIM_016.jpg
2675.447	1.154	1	incongruent	Block3	incongruent/STIM_016.jpg
2679.378	0.637	1	incongruent	Block3	incongruent/STIM_017.jpg
2682.478	0.595	1	incongruent	Block3	incongruent/STIM_017.jpg
2686.471	0.982	1	incongruent	Block3	incongruent/STIM_017.jpg
2690.967	1.151	1	incongruent	Block3	incongruent/STIM_017.jpg
2694.213	0.722	1	incongruent	Block3	incongruent/STIM_017.jpg
2698.355	1.192	1	incongruent	Block3	incongruent/STIM_018.jpg
2701.888	1.144	1	incongruent	Block3	incongruent/STIM_018.jpg
2706.059	0.91	1	incongruent	Block3	incongruent/STIM_018.jpg
2710.501	1.194	1	incongruent	Block3	incongruent/STIM_018.jpg
2714.702	0.949	1	incongruent	Block3	incongruent/STIM_018.jpg
2718.863	0.985	1	incongruent	Block3	incongruent/STIM_019.jpg
2722.228	1.044	1	incongruent	Block3	incongruent/STIM_019.jpg
2726.671	0.64	1	incongruent	Block3	incongruent/STIM_019.jpg
2729.583	0.645	1	incongruent	Block3	incongruent/STIM_019.jpg
2732.415	0.721	1	incongruent	Block3	incongruent/STIM_019.jpg
2735.637	0.764	1	incongruent	Block3	incongruent/STIM_020.jpg
2738.426	0.832	1	incongruent	Block3	incongruent/STIM_020.jpg
2741.523	1.179	1	incongruent	Block3	incongruent/STIM_020.jpg
2745.003	1.03	1	incongruent	Block3	incongruent/STIM_020.jpg
2749.033	0.965	1	incongruent	Block3	incongruent/STIM_020.jpg
2752.138	0.689	1	incongruent	Block3	incongruent/STIM_021.jpg
2755.864	1.132	1	incongruent	Block3	incongruent/STIM_021.jpg
2760.607	1.005	1	incongruent	Block3	incongruent/STIM_021.jpg
2764.025	1.176	0	incongruent	Block3	incongruent/STIM_021.jpg
2767.818	0.912	1	incongruent	Block3	incongruent/STIM_021.jpg
2772.527	1.059	1	incongruent	Block3	incongruent/STIM_022.jpg
2775.835	1.156	1	incongruent	Block3	incongruent/STIM_022.jpg
2780.305	0.634	1	incongruent	Block3	incongruent/STIM_022.jpg
2784.688	0.761	1	incongruent	Block3	incongruent/STIM_022.jpg
2787.86	1.0	1	incongruent	Block3	incongruent/STIM_022.jpg
2791.466	0.757	1	incongruent	Block3	incongruent/STIM_023.jpg
2794.302	0.873	1	incongruent	Block3	incongruent/STIM_023.jpg
2799.09	0.6	1	incongruent	Block3	incongruent/STIM_023.jpg
2802.872	1.19	1	incongruent	Block3	incongruent/STIM_023.jpg
2807.66	1.101	1	incongruent	Block3	incongruent/STIM_023.jpg
2811.956	0.739	1	incongruent	Block3	incongruent/STIM_024.jpg
2815.168	0.986	1	incongruent	Block3	incongruent/STIM_024.jpg
2818.683	0.695	1	incongruent	Block3	incongruent/STIM_024.jpg
2823.218	1.048	1	incongruent	Block3	incongruent/STIM_024.jpg
2828.22	0.594	1	incongruent	Block3	incongruent/STIM_024.jpg
2831.973	0.592	1	incongruent	Block3	incongruent/STIM_025.jpg
2834.882	0.972	1	incongruent	Block3	incongruent/STIM_025.jpg
2838.398	0.784	1	incongruent	Block3	incongruent/STIM_025.jpg
2841.889	0.651	1	incongruent	Block3	incongruent/STIM_025.jpg
2844.972	0.879	1	incongruent	Block3	incongruent/STIM_025.jpg
2848.83	1.115	1	incongruent	Block3	incongruent/STIM_026.jpg
2852.967	1.014	1	incongruent	Block3	incongruent/STIM_026.jpg
2856.755	0.981	1	incongruent	Block3	incongruent/STIM_026.jpg
2860.29	0.919	1	incongruent	Block3	incongruent/STIM_026.jpg
2864.208	0.945	1	incongruent	Block3	incongruent/STIM_026.jpg
2868.596	0.876	1	incongruent	Block3	incongruent/STIM_027.jpg
2873.104	0.735	1	incongruent	Block3	incongruent/STIM_027.jpg
2877.515	0.92	1	incongruent	Block3	incongruent/STIM_027.jpg
2881.129	0.594	1	incongruent	Block3	incongruent/STIM_027.jpg
2885.364	0.784	1	incongruent	Block3	incongruent/STIM_027.jpg
2889.467	0.581	1	incongruent	Block3	incongruent/STIM_028.jpg
2893.964	1.132	1	incongruent	Block3	incongruent/STIM_028.jpg
2898.152	1.106	1	incongruent	Block3	incongruent/STIM_028.jpg
2902.541	0.802	1	incongruent	Block3	incongruent/STIM_028.jpg
2905.821	0.733	1	incongruent	Block3	incongruent/STIM_028.jpg
2908.82	0.607	1	incongruent	Block3	incongruent/STIM_029.jpg
2913.294	0.708	1	incongruent	Block3	incongruent/STIM_029.jpg
2917.189	0.632	1	incongruent	Block3	incongruent/STIM_029.jpg
2920.813	0.708	1	incongruent	Block3	incongruent/STIM_029.jpg
2923.899	0.728	1	incongruent	Block3	incongruent/STIM_029.jpg
2928.414	0.713	1	congruent	Block3	congruent/STIM_000.jpg
2931.565	0.914	1	congruent	Block3	congruent/STIM_000.jpg
2935.864	0.584	1	congruent	Block3	congruent/STIM_000.jpg
2939.466	1.016	1	congruent	Block3	congruent/STIM_000.jpg
2943.878	1.019	1	congruent	Block3	congruent/STIM_000.jpg
2948.109	0.62	1	congruent	Block3	congruent/STIM_001.jpg
2951.968	0.991	1	congruent	Block3	congruent/STIM_001.jpg
2955.051	0.952	1	congruent	Block3	congruent/STIM_001.jpg
2958.073	0.763	1	congruent	Block3	congruent/STIM_001.jpg
2960.883	0.821	1	congruent	Block3	congruent/STIM_001.jpg
2964.615	0.65	1	congruent	Block3	congruent/STIM_002.jpg
2968.6	0.968	1	congruent	Block3	congruent/STIM_002.jpg
2972.364	0.923	1	congruent	Block3	congruent/STIM_002.jpg
2977.131	0.853	1	congruent	Block3	congruent/STIM_002.jpg
2981.264	0.732	1	congruent	Block3	congruent/STIM_002.jpg
2984.798	1.02	1	congruent	Block3	congruent/STIM_003.jpg
2987.972	0.664	1	congruent	Block3	congruent/STIM_003.jpg
2990.765	0.776	1	congruent	Block3	congruent/STIM_003.jpg
2995.343	0.823	0	congruent	Block3	congruent/STIM_003.jpg
2998.519	0.696	1	congruent	Block3	congruent/STIM_003.jpg
3002.08	0.914	1	congruent	Block3	congruent/STIM_004.jpg
3005.388	0.782	1	congruent	Block3	congruent/STIM_004.jpg
3010.021	1.001	1	congruent	Block3	congruent/STIM_004.jpg
3013.079	1.002	1	congruent	Block3	congruent/STIM_004.jpg
3017.048	0.741	0	congruent	Block3	congruent/STIM_004.jpg
3021.641	0.716	1	congruent	Block3	congruent/STIM_005.jpg
3025.748	0.942	1	congruent	Block3	congruent/STIM_005.jpg
3029.546	0.645	1	congruent	Block3	congruent/STIM_005.jpg
3033.316	1.037	1	congruent	Block3	congruent/STIM_005.jpg
3037.78	0.797	1	congruent	Block3	congruent/STIM_005.jpg
3042.333	0.777	1	congruent	Block3	congruent/STIM_006.jpg
3045.85	0.68	1	congruent	Block3	congruent/STIM_006.jpg
3049.873	0.819	1	congruent	Block3	congruent/STIM_006.jpg
3054.305	0.956	1	congruent	Block3	congruent/STIM_006.jpg
3058.614	1.027	1	congruent	Block3	congruent/STIM_006.jpg
3063.061	0.937	1	congruent	Block3	congruent/STIM_007.jpg
3066.867	0.985	1	congruent	Block3	congruent/STIM_007.jpg
3071.281	0.833	1	congruent	Block3	congruent/STIM_007.jpg
3075.624	0.88	1	congruent	Block3	congruent/STIM_007.jpg
3079.383	0.681	1	congruent	Block3	congruent/STIM_007.jpg
3083.067	0.751	1	congruent	Block3	congruent/STIM_008.jpg
3087.05	0.979	1	congruent	Block3	congruent/STIM_008.jpg
3090.819	0.886	1	congruent	Block3	congruent/STIM_008.jpg
3094.192	0.866	1	congruent	Block3	congruent/STIM_008.jpg
3098.326	1.033	1	congruent	Block3	congruent/STIM_008.jpg
3102.88	0.925	1	congruent	Block3	congruent/STIM_009.jpg
3107.369	1.033	1	congruent	Block3	congruent/STIM_009.jpg
3110.873	0.589	1	congruent	Block3	congruent/STIM_009.jpg
3114.847	0.941	1	congruent	Block3	congruent/STIM_009.jpg
3119.132	0.826	1	congruent	Block3	congruent/STIM_009.jpg
3123.541	0.625	1	congruent	Block3	congruent/STIM_010.jpg
3127.828	1.028	1	congruent	Block3	congruent/STIM_010.jpg
3132.654	0.967	1	congruent	Block3	congruent/STIM_010.jpg
3135.951	0.715	1	congruent	Block3	congruent/STIM_010.jpg
3138.765	0.636	1	congruent	Block3	congruent/STIM_010.jpg
3142.687	0.978	1	congruent	Block3	congruent/STIM_011.jpg
3147.31	0.954	1	congruent	Block3	congruent/STIM_011.jpg
3151.899	0.809	1	congruent	Block3	congruent/STIM_011.jpg
3156.002	0.76	1	congruent	Block3	congruent/STIM_011.jpg
3159.645	0.79	1	congruent	Block3	congruent/STIM_011.jpg
3164.415	0.831	1	congruent	Block3	congruent/STIM_012.jpg
3169.123	0.62	1	congruent	Block3	congruent/STIM_012.jpg
3173.599	0.751	1	congruent	Block3	congruent/STIM_012.jpg
3177.507	1.025	1	congruent	Block3	congruent/STIM_012.jpg
3182.189	0.857	1	congruent	Block3	congruent/STIM_012.jpg
3186.936	0.963	1	congruent	Block3	congruent/STIM_013.jpg
3190.277	0.76	1	congruent	Block3	congruent/STIM_013.jpg
3194.775	0.802	1	congruent	Block3	congruent/STIM_013.jpg
3199.221	0.663	1	congruent	Block3	congruent/STIM_013.jpg
3203.075	0.78	1	congruent	Block3	congruent/STIM_013.jpg
3206.554	0.837	1	congruent	Block3	congruent/STIM_014.jpg
3211.203	0.704	1	congruent	Block3	congruent/STIM_014.jpg
3215.472	0.759	1	congruent	Block3	congruent/STIM_014.jpg
3219.175	0.788	1	congruent	Block3	congruent/STIM_014.jpg
3222.483	0.966	1	congruent	Block3	congruent/STIM_014.jpg
3226.694	0.896	1	congruent	Block3	congruent/STIM_015.jpg
3229.659	1.039	1	congruent	Block3	congruent/STIM_015.jpg
3232.708	1.041	1	congruent	Block3	congruent/STIM_015.jpg
3236.243	0.701	1	congruent	Block3	congruent/STIM_015.jpg
3239.769	0.71	1	congruent	Block3	congruent/STIM_015.jpg
3243.87	1.007	1	congruent	Block3	congruent/STIM_016.jpg
3248.252	0.606	1	congruent	Block3	congruent/STIM_016.jpg
3251.712	0.844	1	congruent	Block3	congruent/STIM_016.jpg
3255.889	0.682	1	congruent	Block3	congruent/STIM_016.jpg
3259.426	0.696	1	congruent	Block3	congruent/STIM_016.jpg
3262.918	0.996	1	congruent	Block3	congruent/STIM_017.jpg
3266.706	0.674	1	congruent	Block3	congruent/STIM_017.jpg
3270.485	0.637	1	congruent	Block3	congruent/STIM_017.jpg
3273.734	0.767	1	congruent	Block3	congruent/STIM_017.jpg
3277.869	0.623	1	congruent	Block3	congruent/STIM_017.jpg
3280.968	1.023	1	congruent	Block3	congruent/STIM_018.jpg
3285.201	0.636	1	congruent	Block3	congruent/STIM_018.jpg
3289.727	0.863	1	congruent	Block3	congruent/STIM_018.jpg
3294.484	0.706	1	congruent	Block3	congruent/STIM_018.jpg
3297.591	0.78	1	congruent	Block3	congruent/STIM_018.jpg
3300.965	0.858	1	congruent	Block3	congruent/STIM_019.jpg
3304.09	0.67	1	congruent	Block3	congruent/STIM_019.jpg
3307.369	0.922	1	congruent	Block3	congruent/STIM_019.jpg
3310.924	0.984	1	congruent	Block3	congruent/STIM_019.jpg
3314.044	0.775	1	congruent	Block3	congruent/STIM_019.jpg
3318.524	0.957	1	congruent	Block3	congruent/STIM_020.jpg
3322.616	0.931	1	congruent	Block3	congruent/STIM_020.jpg
3326.614	0.784	1	congruent	Block3	congruent/STIM_020.jpg
3330.504	0.855	1	congruent	Block3	congruent/STIM_020.jpg
3333.612	0.823	0	congruent	Block3	congruent/STIM_020.jpg
3337.472	0.824	1	congruent	Block3	congruent/STIM_021.jpg
3342.19	0.639	1	congruent	Block3	congruent/STIM_021.jpg
3345.763	0.681	1	congruent	Block3	congruent/STIM_021.jpg
3349.784	0.619	1	congruent	Block3	congruent/STIM_021.jpg
3353.98	0.892	1	congruent	Block3	congruent/STIM_021.jpg
3357.159	0.967	1	congruent	Block3	congruent/STIM_022.jpg
3360.514	0.803	1	congruent	Block3	congruent/STIM_022.jpg
3363.928	0.776	1	congruent	Block3	congruent/STIM_022.jpg
3367.273	0.608	1	congruent	Block3	congruent/STIM_022.jpg
3370.437	0.912	1	congruent	Block3	congruent/STIM_022.jpg
3373.928	0.62	1	congruent	Block3	congruent/STIM_023.jpg
3378.095	0.75	1	congruent	Block3	congruent/STIM_023.jpg
3381.881	0.986	1	congruent	Block3	congruent/STIM_023.jpg
3384.92	0.809	1	congruent	Block3	congruent/STIM_023.jpg
3389.28	1.023	1	congruent	Block3	congruent/STIM_023.jpg
3394.061	1.04	1	congruent	Block3	congruent/STIM_024.jpg
3397.257	0.726	1	congruent	Block3	congruent/STIM_024.jpg
3400.683	0.813	1	congruent	Block3	congruent/STIM_024.jpg
3403.547	0.851	1	congruent	Block3	congruent/STIM_024.jpg
3408.198	0.826	1	congruent	Block3	congruent/STIM_024.jpg
3412.684	0.818	1	congruent	Block3	congruent/STIM_025.jpg
3415.791	0.801	1	congruent	Block3	congruent/STIM_025.jpg
3419.916	0.76	1	congruent	Block3	congruent/STIM_025.jpg
3424.16	0.903	1	congruent	Block3	congruent/STIM_025.jpg
3428.275	0.918	1	congruent	Block3	congruent/STIM_025.jpg
3431.889	1.01	1	congruent	Block3	congruent/STIM_026.jpg
3436.858	0.678	1	congruent	Block3	congruent/STIM_026.jpg
3441.367	0.793	1	congruent	Block3	congruent/STIM_026.jpg
3444.38	0.619	1	congruent	Block3	congruent/STIM_026.jpg
3447.686	0.591	1	congruent	Block3	congruent/STIM_026.jpg
3451.21	0.677	1	congruent	Block3	congruent/STIM_027.jpg
3454.501	0.873	1	congruent	Block3	congruent/STIM_027.jpg
3458.351	0.683	1	congruent	Block3	congruent/STIM_027.jpg
3461.825	1.003	1	congruent	Block3	congruent/STIM_027.jpg
3464.886	0.664	1	congruent	Block3	congruent/STIM_027.jpg
3467.804	0.604	0	congruent	Block3	congruent/STIM_028.jpg
3471.229	0.604	1	congruent	Block3	congruent/STIM_028.jpg
3475.602	0.877	1	congruent	Block3	congruent/STIM_028.jpg
3479.611	0.671	1	congruent	Block3	congruent/STIM_028.jpg
3484.001	0.63	1	congruent	Block3	congruent/STIM_028.jpg
3488.176	0.847	1	congruent	Block3	congruent/STIM_029.jpg
3491.15	1.019	1	congruent	Block3	congruent/STIM_029.jpg
3494.86	0.682	1	congruent	Block3	congruent/STIM_029.jpg
3498.852	0.973	1	congruent	Block3	congruent/STIM_029.jpg
3503.481	1.014	1	congruent	Block3	congruent/STIM_029.jpg
