onset	duration	accuracy_binary	trial_type	learning_stage	stimulus
0.0	0.835	1	incongruent	Block1	incongruent/STIM_000.jpg
3.467	1.012	1	incongruent	Block1	incongruent/STIM_000.jpg
6.899	0.904	1	incongruent	Block1	incongruent/STIM_000.jpg
11.075	0.887	1	incongruent	Block1	incongruent/STIM_000.jpg
15.106	0.903	1	incongruent	Block1	incongruent/STIM_000.jpg
19.748	1.748	1	incongruent	Block1	incongruent/STIM_001.jpg
24.867	1.384	1	incongruent	Block1	incongruent/STIM_001.jpg
29.009	1.237	1	incongruent	Block1	incongruent/STIM_001.jpg
33.041	0.857	1	incongruent	Block1	incongruent/STIM_001.jpg
35.87	1.067	1	incongruent	Block1	incongruent/STIM_001.jpg
39.523	1.388	0	incongruent	Block1	incongruent/STIM_002.jpg
44.324	0.94	1	incongruent	Block1	incongruent/STIM_002.jpg
48.536	1.202	1	incongruent	Block1	incongruent/STIM_002.jpg
52.732	1.145	1	incongruent	Block1	incongruent/STIM_002.jpg
57.566	0.786	1	incongruent	Block1	incongruent/STIM_002.jpg
61.85	1.457	1	incongruent	Block1	incongruent/STIM_003.jpg
66.442	1.263	1	incongruent	Block1	incongruent/STIM_003.jpg
70.362	1.127	1	incongruent	Block1	incongruent/STIM_003.jpg
74.968	0.892	1	incongruent	Block1	incongruent/STIM_003.jpg
77.927	0.87	1	incongruent	Block1	incongruent/STIM_003.jpg
81.895	1.329	1	incongruent	Block1	incongruent/STIM_004.jpg
86.823	0.792	0	incongruent	Block1	incongruent/STIM_004.jpg
90.961	0.66	1	incongruent	Block1	incongruent/STIM_004.jpg
95.06	0.692	1	incongruent	Block1	incongruent/STIM_004.jpg
98.589	0.955	0	incongruent	Block1	incongruent/STIM_004.jpg
102.24	1.649	1	incongruent	Block1	incongruent/STIM_005.jpg
107.377	1.262	1	incongruent	Block1	incongruent/STIM_005.jpg
111.51	0.882	1	incongruent	Block1	incongruent/STIM_005.jpg
115.684	0.847	1	incongruent	Block1	incongruent/STIM_005.jpg
119.383	0.935	1	incongruent	Block1	incongruent/STIM_005.jpg
123.014	0.764	1	incongruent	Block1	incongruent/STIM_006.jpg
126.516	1.149	1	incongruent	Block1	incongruent/STIM_006.jpg
130.988	0.981	1	incongruent	Block1	incongruent/STIM_006.jpg
135.624	1.198	0	incongruent	Block1	incongruent/STIM_006.jpg
139.093	1.008	1	incongruent	Block1	incongruent/STIM_006.jpg
143.212	1.538	0	incongruent	Block1	incongruent/STIM_007.jpg
147.739	0.754	1	incongruent	Block1	incongruent/STIM_007.jpg
150.659	1.449	1	incongruent	Block1	incongruent/STIM_007.jpg
155.915	1.019	1	incongruent	Block1	incongruent/STIM_007.jpg
159.23	1.13	1	incongruent	Block1	incongruent/STIM_007.jpg
162.645	0.969	1	incongruent	Block1	incongruent/STIM_008.jpg
166.416	1.332	1	incongruent	Block1	incongruent/STIM_008.jpg
169.895	1.048	1	incongruent	Block1	incongruent/STIM_008.jpg
173.156	0.728	1	incongruent	Block1	incongruent/STIM_008.jpg
177.597	1.286	1	incongruent	Block1	incongruent/STIM_008.jpg
180.918	0.888	1	incongruent	Block1	incongruent/STIM_009.jpg
185.644	1.222	1	incongruent	Block1	incongruent/STIM_009.jpg
190.336	1.354	1	incongruent	Block1	incongruent/STIM_009.jpg
195.177	1.179	1	incongruent	Block1	incongruent/STIM_009.jpg
199.104	1.132	1	incongruent	Block1	incongruent/STIM_009.jpg
203.191	1.014	1	incongruent	Block1	incongruent/STIM_010.jpg
207.454	1.485	1	incongruent	Block1	incongruent/STIM_010.jpg
211.607	0.932	1	incongruent	Block1	incongruent/STIM_010.jpg
215.465	0.81	1	incongruent	Block1	incongruent/STIM_010.jpg
219.506	1.078	1	incongruent	Block1	incongruent/STIM_010.jpg
223.502	1.221	1	incongruent	Block1	incongruent/STIM_011.jpg
227.925	0.738	1	incongruent	Block1	incongruent/STIM_011.jpg
231.136	1.334	1	incongruent	Block1	incongruent/STIM_011.jpg
236.196	0.758	1	incongruent	Block1	incongruent/STIM_011.jpg
240.858	0.861	1	incongruent	Block1	incongruent/STIM_011.jpg
244.2	0.866	1	incongruent	Block1	incongruent/STIM_012.jpg
248.85	1.429	1	incongruent	Block1	incongruent/STIM_012.jpg
252.572	1.147	1	incongruent	Block1	incongruent/STIM_012.jpg
256.864	0.809	1	incongruent	Block1	incongruent/STIM_012.jpg
261.193	0.787	1	incongruent	Block1	incongruent/STIM_012.jpg
264.426	0.854	0	incongruent	Block1	incongruent/STIM_013.jpg
268.968	1.199	1	incongruent	Block1	incongruent/STIM_013.jpg
272.075	0.716	1	incongruent	Block1	incongruent/STIM_013.jpg
275.045	1.075	1	incongruent	Block1	incongruent/STIM_013.jpg
278.728	1.197	0	incongruent	Block1	incongruent/STIM_013.jpg
281.888	1.377	1	incongruent	Block1	incongruent/STIM_014.jpg
285.168	1.315	1	incongruent	Block1	incongruent/STIM_014.jpg
289.47	1.262	1	incongruent	Block1	incongruent/STIM_014.jpg
294.238	1.268	1	incongruent	Block1	incongruent/STIM_014.jpg
298.672	0.939	1	incongruent	Block1	incongruent/STIM_014.jpg
301.699	1.154	1	incongruent	Block1	incongruent/STIM_015.jpg
305.895	1.506	1	incongruent	Block1	incongruent/STIM_015.jpg
309.614	1.297	1	incongruent	Block1	incongruent/STIM_015.jpg
313.208	1.131	1	incongruent	Block1	incongruent/STIM_015.jpg
316.391	0.766	1	incongruent	Block1	incongruent/STIM_015.jpg
321.012	0.866	1	incongruent	Block1	incongruent/STIM_016.jpg
325.258	0.654	1	incongruent	Block1	incongruent/STIM_016.jpg
329.713	1.215	1	incongruent	Block1	incongruent/STIM_016.jpg
334.48	1.308	1	incongruent	Block1	incongruent/STIM_016.jpg
337.857	1.346	1	incongruent	Block1	incongruent/STIM_016.jpg
341.487	1.235	1	incongruent	Block1	incongruent/STIM_017.jpg
344.976	1.283	1	incongruent	Block1	incongruent/STIM_017.jpg
350.075	0.882	1	incongruent	Block1	incongruent/STIM_017.jpg
353.662	1.025	1	incongruent	Block1	incongruent/STIM_017.jpg
358.121	0.818	1	incongruent	Block1	incongruent/STIM_017.jpg
362.348	1.56	1	incongruent	Block1	incongruent/STIM_018.jpg
365.841	1.434	1	incongruent	Block1	incongruent/STIM_018.jpg
369.38	1.003	1	incongruent	Block1	incongruent/STIM_018.jpg
372.531	1.124	1	incongruent	Block1	incongruent/STIM_018.jpg
376.825	1.284	1	incongruent	Block1	incongruent/STIM_018.jpg
381.656	0.882	1	incongruent	Block1	incongruent/STIM_019.jpg
385.998	1.39	1	incongruent	Block1	incongruent/STIM_019.jpg
389.535	1.072	1	incongruent	Block1	incongruent/STIM_019.jpg
393.396	0.972	1	incongruent	Block1	incongruent/STIM_019.jpg
397.534	1.112	0	incongruent	Block1	incongruent/STIM_019.jpg
400.582	1.072	0	incongruent	Block1	incongruent/STIM_020.jpg
403.732	1.452	1	incongruent	Block1	incongruent/STIM_020.jpg
409.003	1.25	1	incongruent	Block1	incongruent/STIM_020.jpg
413.72	0.754	1	incongruent	Block1	incongruent/STIM_020.jpg
417.763	0.826	1	incongruent	Block1	incongruent/STIM_020.jpg
422.07	1.2	1	incongruent	Block1	incongruent/STIM_021.jpg
427.02	0.862	1	incongruent	Block1	incongruent/STIM_021.jpg
431.09	1.497	1	incongruent	Block1	incongruent/STIM_021.jpg
434.773	1.135	1	incongruent	Block1	incongruent/STIM_021.jpg
438.156	0.649	1	incongruent	Block1	incongruent/STIM_021.jpg
442.594	1.167	1	incongruent	Block1	incongruent/STIM_022.jpg
447.27	1.198	0	incongruent	Block1	incongruent/STIM_022.jpg
452.063	1.469	1	incongruent	Block1	incongruent/STIM_022.jpg
455.785	1.019	1	incongruent	Block1	incongruent/STIM_022.jpg
459.673	1.252	1	incongruent	Block1	incongruent/STIM_022.jpg
463.801	1.118	1	incongruent	Block1	incongruent/STIM_023.jpg
467.365	0.905	0	incongruent	Block1	incongruent/STIM_023.jpg
471.478	1.195	0	incongruent	Block1	incongruent/STIM_023.jpg
475.031	1.305	0	incongruent	Block1	incongruent/STIM_023.jpg
478.856	0.975	1	incongruent	Block1	incongruent/STIM_023.jpg
483.438	1.07	1	incongruent	Block1	incongruent/STIM_024.jpg
487.837	1.032	1	incongruent	Block1	incongruent/STIM_024.jpg
492.278	0.817	0	incongruent	Block1	incongruent/STIM_024.jpg
495.445	1.26	1	incongruent	Block1	incongruent/STIM_024.jpg
499.144	0.887	1	incongruent	Block1	incongruent/STIM_024.jpg
502.234	1.396	1	incongruent	Block1	incongruent/STIM_025.jpg
506.269	1.354	0	incongruent	Block1	incongruent/STIM_025.jpg
511.161	1.161	1	incongruent	Block1	incongruent/STIM_025.jpg
514.93	1.137	1	incongruent	Block1	incongruent/STIM_025.jpg
518.52	1.1	1	incongruent	Block1	incongruent/STIM_025.jpg
522.267	1.075	1	incongruent	Block1	incongruent/STIM_026.jpg
526.011	1.182	1	incongruent	Block1	incongruent/STIM_026.jpg
529.273	1.328	1	incongruent	Block1	incongruent/STIM_026.jpg
532.85	1.364	1	incongruent	Block1	incongruent/STIM_026.jpg
537.459	1.317	1	incongruent	Block1	incongruent/STIM_026.jpg
541.131	1.05	1	incongruent	Block1	incongruent/STIM_027.jpg
544.767	1.294	1	incongruent	Block1	incongruent/STIM_027.jpg
549.62	1.142	0	incongruent	Block1	incongruent/STIM_027.jpg
554.242	1.164	1	incongruent	Block1	incongruent/STIM_027.jpg
557.667	0.778	1	incongruent	Block1	incongruent/STIM_027.jpg
560.77	0.963	1	incongruent	Block1	incongruent/STIM_028.jpg
565.035	1.249	1	incongruent	Block1	incongruent/STIM_028.jpg
568.458	1.036	1	incongruent	Block1	incongruent/STIM_028.jpg
572.782	0.863	1	incongruent	Block1	incongruent/STIM_028.jpg
576.098	0.615	1	incongruent	Block1	incongruent/STIM_028.jpg
579.851	0.865	1	incongruent	Block1	incongruent/STIM_029.jpg
582.804	0.977	1	incongruent	Block1	incongruent/STIM_029.jpg
586.117	0.885	1	incongruent	Block1	incongruent/STIM_029.jpg
589.976	0.993	1	incongruent	Block1	incongruent/STIM_029.jpg
593.961	1.091	1	incongruent	Block1	incongruent/STIM_029.jpg
597.0	0.579	1	congruent	Block1	congruent/STIM_000.jpg
600.973	0.626	1	congruent	Block1	congruent/STIM_000.jpg
605.163	0.872	1	congruent	Block1	congruent/STIM_000.jpg
609.132	0.928	1	congruent	Block1	congruent/STIM_000.jpg
612.418	0.698	1	congruent	Block1	congruent/STIM_000.jpg
616.492	0.75	1	congruent	Block1	congruent/STIM_001.jpg
620.038	0.687	1	congruent	Block1	congruent/STIM_001.jpg
622.691	0.711	1	congruent	Block1	congruent/STIM_001.jpg
626.497	0.878	1	congruent	Block1	congruent/STIM_001.jpg
630.79	0.983	1	congruent	Block1	congruent/STIM_001.jpg
634.883	0.658	1	congruent	Block1	congruent/STIM_002.jpg
638.837	0.65	1	congruent	Block1	congruent/STIM_002.jpg
642.689	0.933	1	congruent	Block1	congruent/STIM_002.jpg
645.804	0.989	1	congruent	Block1	congruent/STIM_002.jpg
648.711	0.923	1	congruent	Block1	congruent/STIM_002.jpg
653.451	0.714	1	congruent	Block1	congruent/STIM_003.jpg
656.638	0.729	1	congruent	Block1	congruent/STIM_003.jpg
659.476	0.911	1	congruent	Block1	congruent/STIM_003.jpg
664.15	0.781	1	congruent	Block1	congruent/STIM_003.jpg
668.805	0.952	0	congruent	Block1	congruent/STIM_003.jpg
671.859	0.877	1	congruent	Block1	congruent/STIM_004.jpg
676.526	0.686	1	congruent	Block1	congruent/STIM_004.jpg
679.9	0.716	1	congruent	Block1	congruent/STIM_004.jpg
682.913	0.785	1	congruent	Block1	congruent/STIM_004.jpg
686.142	0.947	1	congruent	Block1	congruent/STIM_004.jpg
689.264	0.727	1	congruent	Block1	congruent/STIM_005.jpg
692.777	0.914	1	congruent	Block1	congruent/STIM_005.jpg
696.378	0.691	1	congruent	Block1	congruent/STIM_005.jpg
700.448	0.789	1	congruent	Block1	congruent/STIM_005.jpg
704.621	0.731	1	congruent	Block1	congruent/STIM_005.jpg
708.002	0.62	1	congruent	Block1	congruent/STIM_006.jpg
712.306	0.598	1	congruent	Block1	congruent/STIM_006.jpg
715.585	0.888	1	congruent	Block1	congruent/STIM_006.jpg
719.043	0.59	1	congruent	Block1	congruent/STIM_006.jpg
722.58	0.545	1	congruent	Block1	congruent/STIM_006.jpg
725.512	0.89	1	congruent	Block1	congruent/STIM_007.jpg
729.2	0.66	0	congruent	Block1	congruent/STIM_007.jpg
732.789	0.862	1	congruent	Block1	congruent/STIM_007.jpg
736.566	0.706	1	congruent	Block1	congruent/STIM_007.jpg
740.361	0.933	1	congruent	Block1	congruent/STIM_007.jpg
744.189	0.871	1	congruent	Block1	congruent/STIM_008.jpg
748.725	1.041	1	congruent	Block1	congruent/STIM_008.jpg
751.733	0.928	1	congruent	Block1	congruent/STIM_008.jpg
756.481	0.814	1	congruent	Block1	congruent/STIM_008.jpg
759.976	0.665	1	congruent	Block1	congruent/STIM_008.jpg
764.447	0.808	1	congruent	Block1	congruent/STIM_009.jpg
768.538	0.702	1	congruent	Block1	congruent/STIM_009.jpg
771.873	0.792	1	congruent	Block1	congruent/STIM_009.jpg
775.913	0.664	1	congruent	Block1	congruent/STIM_009.jpg
778.594	0.873	1	congruent	Block1	congruent/STIM_009.jpg
781.961	0.694	1	congruent	Block1	congruent/STIM_010.jpg
784.656	0.729	1	congruent	Block1	congruent/STIM_010.jpg
788.79	0.687	1	congruent	Block1	congruent/STIM_010.jpg
792.185	0.628	1	congruent	Block1	congruent/STIM_010.jpg
796.561	0.896	1	congruent	Block1	congruent/STIM_010.jpg
800.003	0.606	1	congruent	Block1	congruent/STIM_011.jpg
803.341	0.653	1	congruent	Block1	congruent/STIM_011.jpg
807.587	0.883	1	congruent	Block1	congruent/STIM_011.jpg
810.706	0.758	1	congruent	Block1	congruent/STIM_011.jpg
814.32	0.974	1	congruent	Block1	congruent/STIM_011.jpg
818.728	0.966	1	congruent	Block1	congruent/STIM_012.jpg
823.013	0.988	1	congruent	Block1	congruent/STIM_012.jpg
827.72	0.649	1	congruent	Block1	congruent/STIM_012.jpg
831.863	0.871	1	congruent	Block1	congruent/STIM_012.jpg
835.365	0.804	1	congruent	Block1	congruent/STIM_012.jpg
839.361	0.885	1	congruent	Block1	congruent/STIM_013.jpg
842.358	0.687	1	congruent	Block1	congruent/STIM_013.jpg
846.875	0.772	0	congruent	Block1	congruent/STIM_013.jpg
850.257	0.557	1	congruent	Block1	congruent/STIM_013.jpg
854.469	0.863	1	congruent	Block1	congruent/STIM_013.jpg
857.599	0.731	1	congruent	Block1	congruent/STIM_014.jpg
862.182	0.496	1	congruent	Block1	congruent/STIM_014.jpg
865.576	0.802	1	congruent	Block1	congruent/STIM_014.jpg
868.453	0.863	1	congruent	Block1	congruent/STIM_014.jpg
873.0	0.973	1	congruent	Block1	congruent/STIM_014.jpg
876.416	1.003	1	congruent	Block1	congruent/STIM_015.jpg
879.339	0.662	1	congruent	Block1	congruent/STIM_015.jpg
882.039	0.816	1	congruent	Block1	congruent/STIM_015.jpg
886.647	0.716	1	congruent	Block1	congruent/STIM_015.jpg
890.515	0.85	1	congruent	Block1	congruent/STIM_015.jpg
894.874	0.886	1	congruent	Block1	congruent/STIM_016.jpg
897.876	0.641	1	congruent	Block1	congruent/STIM_016.jpg
901.927	0.837	1	congruent	Block1	congruent/STIM_016.jpg
905.514	0.57	1	congruent	Block1	congruent/STIM_016.jpg
908.939	0.59	1	congruent	Block1	congruent/STIM_016.jpg
911.905	0.95	1	congruent	Block1	congruent/STIM_017.jpg
915.24	0.639	1	congruent	Block1	congruent/STIM_017.jpg
918.497	0.924	1	congruent	Block1	congruent/STIM_017.jpg
921.871	0.752	1	congruent	Block1	congruent/STIM_017.jpg
925.402	0.876	1	congruent	Block1	congruent/STIM_017.jpg
929.605	0.597	1	congruent	Block1	congruent/STIM_018.jpg
933.313	0.567	1	congruent	Block1	congruent/STIM_018.jpg
936.342	0.653	1	congruent	Block1	congruent/STIM_018.jpg
939.622	0.589	1	congruent	Block1	congruent/STIM_018.jpg
942.169	0.68	1	congruent	Block1	congruent/STIM_018.jpg
946.034	0.795	1	congruent	Block1	congruent/STIM_019.jpg
949.208	0.609	1	congruent	Block1	congruent/STIM_019.jpg
952.103	0.573	1	congruent	Block1	congruent/STIM_019.jpg
955.948	0.595	1	congruent	Block1	congruent/STIM_019.jpg
959.632	0.864	1	congruent	Block1	congruent/STIM_019.jpg
962.561	0.615	1	congruent	Block1	congruent/STIM_020.jpg
966.192	0.852	1	congruent	Block1	congruent/STIM_020.jpg
970.623	0.662	1	congruent	Block1	congruent/STIM_020.jpg
975.013	0.882	0	congruent	Block1	congruent/STIM_020.jpg
978.851	0.993	1	congruent	Block1	congruent/STIM_020.jpg
983.346	0.893	1	congruent	Block1	congruent/STIM_021.jpg
986.507	0.462	1	congruent	Block1	congruent/STIM_021.jpg
990.286	0.692	1	congruent	Block1	congruent/STIM_021.jpg
993.518	0.911	1	congruent	Block1	congruent/STIM_021.jpg
997.832	0.632	1	congruent	Block1	congruent/STIM_021.jpg
1002.323	0.676	1	congruent	Block1	congruent/STIM_022.jpg
1005.473	0.95	1	congruent	Block1	congruent/STIM_022.jpg
1009.049	0.817	1	congruent	Block1	congruent/STIM_022.jpg
1013.618	0.747	0	congruent	Block1	congruent/STIM_022.jpg
1017.867	1.073	1	congruent	Block1	congruent/STIM_022.jpg
1021.661	1.031	1	congruent	Block1	congruent/STIM_023.jpg
1025.585	0.69	0	congruent	Block1	congruent/STIM_023.jpg
1028.59	0.614	1	congruent	Block1	congruent/STIM_023.jpg
1031.597	0.795	1	congruent	Block1	congruent/STIM_023.jpg
1035.366	0.808	1	congruent	Block1	congruent/STIM_023.jpg
1038.266	0.815	1	congruent	Block1	congruent/STIM_024.jpg
1042.359	0.862	1	congruent	Block1	congruent/STIM_024.jpg
1046.131	0.61	1	congruent	Block1	congruent/STIM_024.jpg
1049.513	0.77	0	congruent	Block1	congruent/STIM_024.jpg
1052.921	0.82	1	congruent	Block1	congruent/STIM_024.jpg
1056.905	1.01	1	congruent	Block1	congruent/STIM_025.jpg
1060.944	0.967	1	congruent	Block1	congruent/STIM_025.jpg
1064.743	0.656	1	congruent	Block1	congruent/STIM_025.jpg
1067.349	0.894	1	congruent	Block1	congruent/STIM_025.jpg
1070.136	0.802	1	congruent	Block1	congruent/STIM_025.jpg
1074.206	0.771	1	congruent	Block1	congruent/STIM_026.jpg
1077.573	0.797	1	congruent	Block1	congruent/STIM_026.jpg
1081.28	0.858	1	congruent	Block1	congruent/STIM_026.jpg
1085.326	0.715	1	congruent	Block1	congruent/STIM_026.jpg
1088.603	0.954	1	congruent	Block1	congruent/STIM_026.jpg
1092.321	0.631	1	congruent	Block1	congruent/STIM_027.jpg
1095.012	0.618	1	congruent	Block1	congruent/STIM_027.jpg
1097.964	0.671	1	congruent	Block1	congruent/STIM_027.jpg
1101.245	0.708	1	congruent	Block1	congruent/STIM_027.jpg
1105.709	1.019	1	congruent	Block1	congruent/STIM_027.jpg
1109.106	0.806	1	congruent	Block1	congruent/STIM_028.jpg
1113.138	0.764	0	congruent	Block1	congruent/STIM_028.jpg
1116.582	0.747	1	congruent	Block1	congruent/STIM_028.jpg
1120.275	0.958	1	congruent	Block1	congruent/STIM_028.jpg
1124.664	0.603	1	congruent	Block1	congruent/STIM_028.jpg
1128.092	0.696	1	congruent	Block1	congruent/STIM_029.jpg
1131.925	0.491	1	congruent	Block1	congruent/STIM_029.jpg
1136.163	0.869	1	congruent	Block1	congruent/STIM_029.jpg
1140.264	0.64	1	congruent	Block1	congruent/STIM_029.jpg
1144.111	0.596	1	congruent	Block1	congruent/STIM_029.jpg
1147.735	0.829	1	incongruent	Block2	incongruent/STIM_000.jpg
1151.527	0.747	1	incongruent	Block2	incongruent/STIM_000.jpg
1154.732	0.739	1	incongruent	Block2	incongruent/STIM_000.jpg
1157.568	1.144	1	incongruent	Block2	incongruent/STIM_000.jpg
1162.109	0.915	1	incongruent	Block2	incongruent/STIM_000.jpg
1165.529	0.707	1	incongruent	Block2	incongruent/STIM_001.jpg
1168.411	0.619	1	incongruent	Block2	incongruent/STIM_001.jpg
1172.886	0.948	1	incongruent	Block2	incongruent/STIM_001.jpg
1177.07	0.671	1	incongruent	Block2	incongruent/STIM_001.jpg
1181.178	0.638	1	incongruent	Block2	incongruent/STIM_001.jpg
1184.636	0.91	1	incongruent	Block2	incongruent/STIM_002.jpg
1188.916	0.727	1	incongruent	Block2	incongruent/STIM_002.jpg
1192.146	0.659	1	incongruent	Block2	incongruent/STIM_002.jpg
1194.735	0.796	1	incongruent	Block2	incongruent/STIM_002.jpg
1198.433	0.782	1	incongruent	Block2	incongruent/STIM_002.jpg
1202.517	0.762	1	incongruent	Block2	incongruent/STIM_003.jpg
1206.835	1.111	1	incongruent	Block2	incongruent/STIM_003.jpg
1211.335	0.616	1	incongruent	Block2	incongruent/STIM_003.jpg
1215.325	0.613	1	incongruent	Block2	incongruent/STIM_003.jpg
1219.119	1.049	1	incongruent	Block2	incongruent/STIM_003.jpg
1223.363	0.723	1	incongruent	Block2	incongruent/STIM_004.jpg
1226.996	0.905	0	incongruent	Block2	incongruent/STIM_004.jpg
1230.043	0.806	1	incongruent	Block2	incongruent/STIM_004.jpg
1233.812	0.543	1	incongruent	Block2	incongruent/STIM_004.jpg
1237.512	1.055	1	incongruent	Block2	incongruent/STIM_004.jpg
1240.837	0.749	1	incongruent	Block2	incongruent/STIM_005.jpg
1244.45	0.596	1	incongruent	Block2	incongruent/STIM_005.jpg
1247.2	1.178	1	incongruent	Block2	incongruent/STIM_005.jpg
1250.365	0.899	1	incongruent	Block2	incongruent/STIM_005.jpg
1254.936	0.759	1	incongruent	Block2	incongruent/STIM_005.jpg
1258.444	0.794	1	incongruent	Block2	incongruent/STIM_006.jpg
1261.157	0.926	1	incongruent	Block2	incongruent/STIM_006.jpg
1265.126	0.961	1	incongruent	Block2	incongruent/STIM_006.jpg
1268.882	0.652	1	incongruent	Block2	incongruent/STIM_006.jpg
1271.578	1.011	1	incongruent	Block2	incongruent/STIM_006.jpg
1275.831	1.448	1	incongruent	Block2	incongruent/STIM_007.jpg
1279.819	1.053	1	incongruent	Block2	incongruent/STIM_007.jpg
1284.191	0.707	1	incongruent	Block2	incongruent/STIM_007.jpg
1287.509	0.787	1	incongruent	Block2	incongruent/STIM_007.jpg
1290.854	1.11	1	incongruent	Block2	incongruent/STIM_007.jpg
1295.114	1.124	1	incongruent	Block2	incongruent/STIM_008.jpg
1298.866	1.162	1	incongruent	Block2	incongruent/STIM_008.jpg
1303.233	1.005	1	incongruent	Block2	incongruent/STIM_008.jpg
1306.174	0.83	1	incongruent	Block2	incongruent/STIM_008.jpg
1309.046	0.714	1	incongruent	Block2	incongruent/STIM_008.jpg
1312.806	0.926	0	incongruent	Block2	incongruent/STIM_009.jpg
1317.631	1.109	1	incongruent	Block2	incongruent/STIM_009.jpg
1320.869	1.026	1	incongruent	Block2	incongruent/STIM_009.jpg
1325.337	1.162	1	incongruent	Block2	incongruent/STIM_009.jpg
1330.148	1.032	1	incongruent	Block2	incongruent/STIM_009.jpg
1333.745	0.998	0	incongruent	Block2	incongruent/STIM_010.jpg
1337.026	0.74	1	incongruent	Block2	incongruent/STIM_010.jpg
1340.946	0.833	1	incongruent	Block2	incongruent/STIM_010.jpg
1344.783	1.014	1	incongruent	Block2	incongruent/STIM_010.jpg
1348.818	1.139	1	incongruent	Block2	incongruent/STIM_010.jpg
1352.049	0.74	1	incongruent	Block2	incongruent/STIM_011.jpg
1355.651	0.876	1	incongruent	Block2	incongruent/STIM_011.jpg
1359.274	0.7	1	incongruent	Block2	incongruent/STIM_011.jpg
1362.461	0.77	1	incongruent	Block2	incongruent/STIM_011.jpg
1365.688	1.154	1	incongruent	Block2	incongruent/STIM_011.jpg
1369.121	0.714	1	incongruent	Block2	incongruent/STIM_012.jpg
1372.226	1.006	1	incongruent	Block2	incongruent/STIM_012.jpg
1376.7	1.22	0	incongruent	Block2	incongruent/STIM_012.jpg
1381.76	0.776	1	incongruent	Block2	incongruent/STIM_012.jpg
1385.514	1.091	1	incongruent	Block2	incongruent/STIM_012.jpg
1388.95	0.789	1	incongruent	Block2	incongruent/STIM_013.jpg
1392.128	0.78	1	incongruent	Block2	incongruent/STIM_013.jpg
1396.192	0.787	1	incongruent	Block2	incongruent/STIM_013.jpg
1399.371	0.712	1	incongruent	Block2	incongruent/STIM_013.jpg
1403.076	0.711	1	incongruent	Block2	incongruent/STIM_013.jpg
1406.507	0.876	1	incongruent	Block2	incongruent/STIM_014.jpg
1410.498	0.824	1	incongruent	Block2	incongruent/STIM_014.jpg
1413.305	1.052	1	incongruent	Block2	incongruent/STIM_014.jpg
1417.108	0.94	1	incongruent	Block2	incongruent/STIM_014.jpg
1420.165	0.616	1	incongruent	Block2	incongruent/STIM_014.jpg
1424.577	1.18	1	incongruent	Block2	incongruent/STIM_015.jpg
1429.162	1.306	1	incongruent	Block2	incongruent/STIM_015.jpg
1432.936	1.14	1	incongruent	Block2	incongruent/STIM_015.jpg
1437.51	0.612	1	incongruent	Block2	incongruent/STIM_015.jpg
1440.896	0.904	1	incongruent	Block2	incongruent/STIM_015.jpg
1444.688	1.181	1	incongruent	Block2	incongruent/STIM_016.jpg
1448.039	1.143	0	incongruent	Block2	incongruent/STIM_016.jpg
1451.515	0.903	1	incongruent	Block2	incongruent/STIM_016.jpg
1454.423	0.891	1	incongruent	Block2	incongruent/STIM_016.jpg
1458.01	1.063	1	incongruent	Block2	incongruent/STIM_016.jpg
1460.949	0.936	1	incongruent	Block2	incongruent/STIM_017.jpg
1464.37	1.143	1	incongruent	Block2	incongruent/STIM_017.jpg
1467.539	1.081	1	incongruent	Block2	incongruent/STIM_017.jpg
1471.154	1.003	1	incongruent	Block2	incongruent/STIM_017.jpg
1474.138	1.048	1	incongruent	Block2	incongruent/STIM_017.jpg
1477.274	1.051	1	incongruent	Block2	incongruent/STIM_018.jpg
1480.22	0.714	1	incongruent	Block2	incongruent/STIM_018.jpg
1482.879	0.916	0	incongruent	Block2	incongruent/STIM_018.jpg
1486.17	0.545	1	incongruent	Block2	incongruent/STIM_018.jpg
1489.945	1.063	1	incongruent	Block2	incongruent/STIM_018.jpg
1493.304	0.88	1	incongruent	Block2	incongruent/STIM_019.jpg
1496.356	0.681	1	incongruent	Block2	incongruent/STIM_019.jpg
1500.823	1.011	1	incongruent	Block2	incongruent/STIM_019.jpg
1505.33	1.045	1	incongruent	Block2	incongruent/STIM_019.jpg
1508.438	1.113	1	incongruent	Block2	incongruent/STIM_019.jpg
1513.17	0.596	1	incongruent	Block2	incongruent/STIM_020.jpg
1516.388	1.177	1	incongruent	Block2	incongruent/STIM_020.jpg
1521.351	1.179	1	incongruent	Block2	incongruent/STIM_020.jpg
1525.84	0.624	1	incongruent	Block2	incongruent/STIM_020.jpg
1528.721	0.605	1	incongruent	Block2	incongruent/STIM_020.jpg
1531.483	1.054	1	incongruent	Block2	incongruent/STIM_021.jpg
1535.487	0.807	1	incongruent	Block2	incongruent/STIM_021.jpg
1538.67	1.013	1	incongruent	Block2	incongruent/STIM_021.jpg
1543.085	1.137	1	incongruent	Block2	incongruent/STIM_021.jpg
1547.14	0.826	1	incongruent	Block2	incongruent/STIM_021.jpg
1549.889	1.397	1	incongruent	Block2	incongruent/STIM_022.jpg
1553.902	1.233	1	incongruent	Block2	incongruent/STIM_022.jpg
1557.271	0.783	1	incongruent	Block2	incongruent/STIM_022.jpg
1561.261	0.936	1	incongruent	Block2	incongruent/STIM_022.jpg
1565.164	0.711	1	incongruent	Block2	incongruent/STIM_022.jpg
1568.746	1.049	1	incongruent	Block2	incongruent/STIM_023.jpg
1571.988	1.32	1	incongruent	Block2	incongruent/STIM_023.jpg
1577.025	0.846	0	incongruent	Block2	incongruent/STIM_023.jpg
1581.033	0.919	1	incongruent	Block2	incongruent/STIM_023.jpg
1584.927	0.715	1	incongruent	Block2	incongruent/STIM_023.jpg
1588.471	0.946	1	incongruent	Block2	incongruent/STIM_024.jpg
1591.972	1.265	1	incongruent	Block2	incongruent/STIM_024.jpg
1596.94	1.184	1	incongruent	Block2	incongruent/STIM_024.jpg
1600.732	0.831	1	incongruent	Block2	incongruent/STIM_024.jpg
1604.039	1.009	1	incongruent	Block2	incongruent/STIM_024.jpg
1608.501	0.962	1	incongruent	Block2	incongruent/STIM_025.jpg
1612.88	1.096	1	incongruent	Block2	incongruent/STIM_025.jpg
1617.501	1.156	1	incongruent	Block2	incongruent/STIM_025.jpg
1620.756	0.756	1	incongruent	Block2	incongruent/STIM_025.jpg
1625.287	0.862	1	incongruent	Block2	incongruent/STIM_025.jpg
1628.53	0.93	1	incongruent	Block2	incongruent/STIM_026.jpg
1631.89	0.773	1	incongruent	Block2	incongruent/STIM_026.jpg
1635.682	1.136	1	incongruent	Block2	incongruent/STIM_026.jpg
1638.861	0.567	1	incongruent	Block2	incongruent/STIM_026.jpg
1641.441	0.877	1	incongruent	Block2	incongruent/STIM_026.jpg
1646.15	0.728	1	incongruent	Block2	incongruent/STIM_027.jpg
1649.118	0.801	1	incongruent	Block2	incongruent/STIM_027.jpg
1653.231	1.221	1	incongruent	Block2	incongruent/STIM_027.jpg
1657.449	1.234	1	incongruent	Block2	incongruent/STIM_027.jpg
1661.772	0.698	1	incongruent	Block2	incongruent/STIM_027.jpg
1666.389	1.064	0	incongruent	Block2	incongruent/STIM_028.jpg
1670.083	1.278	1	incongruent	Block2	incongruent/STIM_028.jpg
1675.226	0.54	1	incongruent	Block2	incongruent/STIM_028.jpg
1678.614	0.804	1	incongruent	Block2	incongruent/STIM_028.jpg
1681.765	0.665	1	incongruent	Block2	incongruent/STIM_028.jpg
1684.684	1.234	1	incongruent	Block2	incongruent/STIM_029.jpg
1688.318	1.284	1	incongruent	Block2	incongruent/STIM_029.jpg
1691.434	0.905	1	incongruent	Block2	incongruent/STIM_029.jpg
1694.238	0.651	1	incongruent	Block2	incongruent/STIM_029.jpg
1698.217	0.807	1	incongruent	Block2	incongruent/STIM_029.jpg
1702.204	0.799	1	congruent	Block2	congruent/STIM_000.jpg
1705.998	0.619	1	congruent	Block2	congruent/STIM_000.jpg
1710.287	0.751	1	congruent	Block2	congruent/STIM_000.jpg
1714.453	0.653	1	congruent	Block2	congruent/STIM_000.jpg
1717.606	0.842	1	congruent	Block2	congruent/STIM_000.jpg
1722.112	0.758	1	congruent	Block2	congruent/STIM_001.jpg
1726.062	0.662	1	congruent	Block2	congruent/STIM_001.jpg
1729.182	0.641	1	congruent	Block2	congruent/STIM_001.jpg
1733.732	0.788	1	congruent	Block2	congruent/STIM_001.jpg
1737.348	0.542	1	congruent	Block2	congruent/STIM_001.jpg
1740.637	0.919	1	congruent	Block2	congruent/STIM_002.jpg
1744.719	0.713	1	congruent	Block2	congruent/STIM_002.jpg
1747.38	0.966	1	congruent	Block2	congruent/STIM_002.jpg
1750.335	0.588	1	congruent	Block2	congruent/STIM_002.jpg
1753.274	0.628	1	congruent	Block2	congruent/STIM_002.jpg
1756.084	0.926	1	congruent	Block2	congruent/STIM_003.jpg
1760.187	0.772	1	congruent	Block2	congruent/STIM_003.jpg
1763.687	0.909	1	congruent	Block2	congruent/STIM_003.jpg
1768.156	0.736	1	congruent	Block2	congruent/STIM_003.jpg
1771.327	0.896	0	congruent	Block2	congruent/STIM_003.jpg
1775.008	0.84	1	congruent	Block2	congruent/STIM_004.jpg
1777.991	0.811	1	congruent	Block2	congruent/STIM_004.jpg
1782.596	0.841	1	congruent	Block2	congruent/STIM_004.jpg
1785.817	0.904	1	congruent	Block2	congruent/STIM_004.jpg
1790.059	0.612	1	congruent	Block2	congruent/STIM_004.jpg
1792.98	0.931	1	congruent	Block2	congruent/STIM_005.jpg
1796.5	0.924	1	congruent	Block2	congruent/STIM_005.jpg
1799.975	0.692	0	congruent	Block2	congruent/STIM_005.jpg
1803.321	0.716	1	congruent	Block2	congruent/STIM_005.jpg
1807.654	0.705	1	congruent	Block2	congruent/STIM_005.jpg
1811.028	0.523	1	congruent	Block2	congruent/STIM_006.jpg
1814.858	1.013	1	congruent	Block2	congruent/STIM_006.jpg
1818.416	0.629	1	congruent	Block2	congruent/STIM_006.jpg
1821.32	0.837	1	congruent	Block2	congruent/STIM_006.jpg
1825.076	0.985	1	congruent	Block2	congruent/STIM_006.jpg
1828.435	0.963	1	congruent	Block2	congruent/STIM_007.jpg
1831.439	0.66	1	congruent	Block2	congruent/STIM_007.jpg
1835.955	0.762	1	congruent	Block2	congruent/STIM_007.jpg
1838.652	0.659	1	congruent	Block2	congruent/STIM_007.jpg
1842.76	0.802	1	congruent	Block2	congruent/STIM_007.jpg
1847.125	0.783	1	congruent	Block2	congruent/STIM_008.jpg
1850.681	0.896	1	congruent	Block2	congruent/STIM_008.jpg
1854.006	0.905	1	congruent	Block2	congruent/STIM_008.jpg
1857.236	0.667	1	congruent	Block2	congruent/STIM_008.jpg
1861.075	0.788	1	congruent	Block2	congruent/STIM_008.jpg
1865.571	0.723	1	congruent	Block2	congruent/STIM_009.jpg
1870.062	0.904	1	congruent	Block2	congruent/STIM_009.jpg
1874.288	0.627	1	congruent	Block2	congruent/STIM_009.jpg
1878.405	0.712	1	congruent	Block2	congruent/STIM_009.jpg
1882.899	0.691	1	congruent	Block2	congruent/STIM_009.jpg
1887.039	0.544	1	congruent	Block2	congruent/STIM_010.jpg
1891.253	0.79	1	congruent	Block2	congruent/STIM_010.jpg
1894.441	0.628	1	congruent	Block2	congruent/STIM_010.jpg
1898.178	0.773	1	congruent	Block2	congruent/STIM_010.jpg
1901.192	0.618	1	congruent	Block2	congruent/STIM_010.jpg
1905.123	0.898	1	congruent	Block2	congruent/STIM_011.jpg
1909.347	0.762	1	congruent	Block2	congruent/STIM_011.jpg
1912.511	0.599	1	congruent	Block2	congruent/STIM_011.jpg
1916.164	0.823	0	congruent	Block2	congruent/STIM_011.jpg
1920.296	0.665	1	congruent	Block2	congruent/STIM_011.jpg
1923.01	0.711	0	congruent	Block2	congruent/STIM_012.jpg
1926.338	0.74	1	congruent	Block2	congruent/STIM_012.jpg
1930.259	0.506	1	congruent	Block2	congruent/STIM_012.jpg
1933.068	1.019	1	congruent	Block2	congruent/STIM_012.jpg
1936.661	0.728	1	congruent	Block2	congruent/STIM_012.jpg
1939.829	0.614	1	congruent	Block2	congruent/STIM_013.jpg
1943.059	0.824	0	congruent	Block2	congruent/STIM_013.jpg
1946.763	0.951	1	congruent	Block2	congruent/STIM_013.jpg
1949.692	0.993	1	congruent	Block2	congruent/STIM_013.jpg
1954.096	0.962	1	congruent	Block2	congruent/STIM_013.jpg
1958.213	0.915	1	congruent	Block2	congruent/STIM_014.jpg
1962.547	0.618	1	congruent	Block2	congruent/STIM_014.jpg
1965.354	0.925	1	congruent	Block2	congruent/STIM_014.jpg
1969.7	0.806	1	congruent	Block2	congruent/STIM_014.jpg
1973.39	0.772	1	congruent	Block2	congruent/STIM_014.jpg
1977.654	0.698	1	congruent	Block2	congruent/STIM_015.jpg
1980.853	0.852	1	congruent	Block2	congruent/STIM_015.jpg
1984.952	0.796	1	congruent	Block2	congruent/STIM_015.jpg
1989.58	0.608	1	congruent	Block2	congruent/STIM_015.jpg
1993.788	0.977	1	congruent	Block2	congruent/STIM_015.jpg
1997.643	0.606	1	congruent	Block2	congruent/STIM_016.jpg
2000.954	0.964	1	congruent	Block2	congruent/STIM_016.jpg
2004.673	0.833	1	congruent	Block2	congruent/STIM_016.jpg
2008.935	1.035	1	congruent	Block2	congruent/STIM_016.jpg
2012.942	0.834	1	congruent	Block2	congruent/STIM_016.jpg
2016.088	0.761	1	congruent	Block2	congruent/STIM_017.jpg
2020.116	0.816	1	congruent	Block2	congruent/STIM_017.jpg
2023.409	0.658	0	congruent	Block2	congruent/STIM_017.jpg
2026.052	0.982	1	congruent	Block2	congruent/STIM_017.jpg
2029.78	0.921	1	congruent	Block2	congruent/STIM_017.jpg
2034.5	0.794	1	congruent	Block2	congruent/STIM_018.jpg
2037.871	0.683	1	congruent	Block2	congruent/STIM_018.jpg
2040.473	0.675	1	congruent	Block2	congruent/STIM_018.jpg
2043.969	0.771	1	congruent	Block2	congruent/STIM_018.jpg
2047.808	0.863	1	congruent	Block2	congruent/STIM_018.jpg
2050.849	0.946	1	congruent	Block2	congruent/STIM_019.jpg
2054.072	0.796	1	congruent	Block2	congruent/STIM_019.jpg
2058.235	0.936	1	congruent	Block2	congruent/STIM_019.jpg
2062.886	0.881	1	congruent	Block2	congruent/STIM_019.jpg
2066.089	0.932	1	congruent	Block2	congruent/STIM_019.jpg
2069.329	0.961	0	congruent	Block2	congruent/STIM_020.jpg
2072.333	0.872	1	congruent	Block2	congruent/STIM_020.jpg
2076.917	0.48	1	congruent	Block2	congruent/STIM_020.jpg
2080.84	0.732	1	congruent	Block2	congruent/STIM_020.jpg
2084.561	0.72	1	congruent	Block2	congruent/STIM_020.jpg
2088.943	0.847	1	congruent	Block2	congruent/STIM_021.jpg
2093.34	1.05	1	congruent	Block2	congruent/STIM_021.jpg
2097.747	0.763	1	congruent	Block2	congruent/STIM_021.jpg
2101.981	0.581	1	congruent	Block2	congruent/STIM_021.jpg
2104.684	0.673	1	congruent	Block2	congruent/STIM_021.jpg
2109.122	0.768	1	congruent	Block2	congruent/STIM_022.jpg
2113.312	0.959	1	congruent	Block2	congruent/STIM_022.jpg
2116.992	0.626	0	congruent	Block2	congruent/STIM_022.jpg
2120.025	0.539	1	congruent	Block2	congruent/STIM_022.jpg
2123.96	0.788	0	congruent	Block2	congruent/STIM_022.jpg
2128.305	0.94	1	congruent	Block2	congruent/STIM_023.jpg
2132.127	0.75	1	congruent	Block2	congruent/STIM_023.jpg
2135.025	0.55	1	congruent	Block2	congruent/STIM_023.jpg
2138.095	0.895	1	congruent	Block2	congruent/STIM_023.jpg
2141.144	0.922	1	congruent	Block2	congruent/STIM_023.jpg
2144.9	0.775	1	congruent	Block2	congruent/STIM_024.jpg
2148.522	0.93	1	congruent	Block2	congruent/STIM_024.jpg
2152.532	0.672	1	congruent	Block2	congruent/STIM_024.jpg
2155.586	0.688	1	congruent	Block2	congruent/STIM_024.jpg
2159.363	0.76	1	congruent	Block2	congruent/STIM_024.jpg
2163.714	0.645	1	congruent	Block2	congruent/STIM_025.jpg
2167.028	0.698	1	congruent	Block2	congruent/STIM_025.jpg
2171.063	0.641	1	congruent	Block2	congruent/STIM_025.jpg
2175.378	0.694	1	congruent	Block2	congruent/STIM_025.jpg
2179.227	0.924	1	congruent	Block2	congruent/STIM_025.jpg
2182.124	0.947	1	congruent	Block2	congruent/STIM_026.jpg
2185.985	0.843	1	congruent	Block2	congruent/STIM_026.jpg
2189.553	0.774	1	congruent	Block2	congruent/STIM_026.jpg
2193.681	0.553	1	congruent	Block2	congruent/STIM_026.jpg
2197.177	1.008	1	congruent	Block2	congruent/STIM_026.jpg
2200.668	0.668	1	congruent	Block2	congruent/STIM_027.jpg
2204.243	0.826	1	congruent	Block2	congruent/STIM_027.jpg
2207.665	0.652	1	congruent	Block2	congruent/STIM_027.jpg
2211.373	0.673	1	congruent	Block2	congruent/STIM_027.jpg
2214.753	0.805	1	congruent	Block2	congruent/STIM_027.jpg
2218.205	0.653	1	congruent	Block2	congruent/STIM_028.jpg
2222.306	0.698	1	congruent	Block2	congruent/STIM_028.jpg
2225.537	0.631	0	congruent	Block2	congruent/STIM_028.jpg
2228.297	0.816	1	congruent	Block2	congruent/STIM_028.jpg
2232.028	0.785	1	congruent	Block2	congruent/STIM_028.jpg
2235.659	0.645	1	congruent	Block2	congruent/STIM_029.jpg
2238.814	0.855	1	congruent	Block2	congruent/STIM_029.jpg
2242.074	0.565	1	congruent	Block2	congruent/STIM_029.jpg
2245.015	0.876	1	congruent	Block2	congruent/STIM_029.jpg
2247.982	0.578	1	congruent	Block2	congruent/STIM_029.jpg
2251.079	0.545	1	incongruent	Block3	incongruent/STIM_000.jpg
2255.5	0.729	1	incongruent	Block3	incongruent/STIM_000.jpg
2259.805	0.903	1	incongruent	Block3	incongruent/STIM_000.jpg
2263.386	0.937	1	incongruent	Block3	incongruent/STIM_000.jpg
2268.087	0.795	1	incongruent	Block3	incongruent/STIM_000.jpg
2272.308	1.075	1	incongruent	Block3	incongruent/STIM_001.jpg
2277.091	1.11	0	incongruent	Block3	incongruent/STIM_001.jpg
2281.968	1.062	1	incongruent	Block3	incongruent/STIM_001.jpg
2285.049	0.614	1	incongruent	Block3	incongruent/STIM_001.jpg
2288.853	0.546	1	incongruent	Block3	incongruent/STIM_001.jpg
2291.586	0.959	1	incongruent	Block3	incongruent/STIM_002.jpg
2296.224	0.578	1	incongruent	Block3	incongruent/STIM_002.jpg
2298.916	0.901	1	incongruent	Block3	incongruent/STIM_002.jpg
2302.732	1.156	1	incongruent	Block3	incongruent/STIM_002.jpg
2307.436	0.532	1	incongruent	Block3	incongruent/STIM_002.jpg
2310.733	1.039	1	incongruent	Block3	incongruent/STIM_003.jpg
2314.941	0.527	1	incongruent	Block3	incongruent/STIM_003.jpg
2319.316	0.656	1	incongruent	Block3	incongruent/STIM_003.jpg
2323.243	0.546	1	incongruent	Block3	incongruent/STIM_003.jpg
2325.88	1.248	1	incongruent	Block3	incongruent/STIM_003.jpg
2330.385	0.774	1	incongruent	Block3	incongruent/STIM_004.jpg
2334.258	1.087	1	incongruent	Block3	incongruent/STIM_004.jpg
2338.727	1.214	1	incongruent	Block3	incongruent/STIM_004.jpg
2342.579	0.559	1	incongruent	Block3	incongruent/STIM_004.jpg
2345.242	1.123	1	incongruent	Block3	incongruent/STIM_004.jpg
2349.119	0.937	1	incongruent	Block3	incongruent/STIM_005.jpg
2352.307	0.763	1	incongruent	Block3	incongruent/STIM_005.jpg
2356.596	0.628	1	incongruent	Block3	incongruent/STIM_005.jpg
2360.387	1.123	1	incongruent	Block3	incongruent/STIM_005.jpg
2364.993	1.084	1	incongruent	Block3	incongruent/STIM_005.jpg
2368.25	0.903	1	incongruent	Block3	incongruent/STIM_006.jpg
2372.251	0.976	1	incongruent	Block3	incongruent/STIM_006.jpg
2376.811	1.126	1	incongruent	Block3	incongruent/STIM_006.jpg
2381.203	1.109	1	incongruent	Block3	incongruent/STIM_006.jpg
2384.934	1.024	1	incongruent	Block3	incongruent/STIM_006.jpg
2389.755	0.651	1	incongruent	Block3	incongruent/STIM_007.jpg
2392.459	0.835	1	incongruent	Block3	incongruent/STIM_007.jpg
2396.058	0.944	1	incongruent	Block3	incongruent/STIM_007.jpg
2399.864	1.116	1	incongruent	Block3	incongruent/STIM_007.jpg
2404.379	1.095	1	incongruent	Block3	incongruent/STIM_007.jpg
2409.315	0.612	1	incongruent	Block3	incongruent/STIM_008.jpg
2412.937	1.058	1	incongruent	Block3	incongruent/STIM_008.jpg
2416.994	0.644	1	incongruent	Block3	incongruent/STIM_008.jpg
2419.734	0.71	1	incongruent	Block3	incongruent/STIM_008.jpg
2422.663	1.096	1	incongruent	Block3	incongruent/STIM_008.jpg
2425.739	1.073	1	incongruent	Block3	incongruent/STIM_009.jpg
2429.777	0.856	1	incongruent	Block3	incongruent/STIM_009.jpg
2433.577	0.912	1	incongruent	Block3	incongruent/STIM_009.jpg
2436.595	0.948	1	incongruent	Block3	incongruent/STIM_009.jpg
2439.973	0.822	1	incongruent	Block3	incongruent/STIM_009.jpg
2444.563	0.594	1	incongruent	Block3	incongruent/STIM_010.jpg
2448.853	0.668	1	incongruent	Block3	incongruent/STIM_010.jpg
2453.098	0.864	1	incongruent	Block3	incongruent/STIM_010.jpg
2456.734	0.491	1	incongruent	Block3	incongruent/STIM_010.jpg
2459.435	0.889	1	incongruent	Block3	incongruent/STIM_010.jpg
2462.554	0.661	1	incongruent	Block3	incongruent/STIM_011.jpg
2466.133	0.832	1	incongruent	Block3	incongruent/STIM_011.jpg
2469.62	0.634	1	incongruent	Block3	incongruent/STIM_011.jpg
2473.812	1.02	1	incongruent	Block3	incongruent/STIM_011.jpg
2476.862	1.026	1	incongruent	Block3	incongruent/STIM_011.jpg
2481.31	0.787	1	incongruent	Block3	incongruent/STIM_012.jpg
2484.452	0.647	1	incongruent	Block3	incongruent/STIM_012.jpg
2487.128	0.575	0	incongruent	Block3	incongruent/STIM_012.jpg
2491.001	0.785	1	incongruent	Block3	incongruent/STIM_012.jpg
2494.395	1.058	1	incongruent	Block3	incongruent/STIM_012.jpg
2498.401	1.002	1	incongruent	Block3	incongruent/STIM_013.jpg
2501.757	0.618	1	incongruent	Block3	incongruent/STIM_013.jpg
2504.917	0.751	1	incongruent	Block3	incongruent/STIM_013.jpg
2507.816	0.792	1	incongruent	Block3	incongruent/STIM_013.jpg
2512.023	0.64	1	incongruent	Block3	incongruent/STIM_013.jpg
2515.959	1.01	1	incongruent	Block3	incongruent/STIM_014.jpg
2519.375	0.72	1	incongruent	Block3	incongruent/STIM_014.jpg
2523.5	0.737	1	incongruent	Block3	incongruent/STIM_014.jpg
2527.084	1.134	1	incongruent	Block3	incongruent/STIM_014.jpg
2531.188	0.542	1	incongruent	Block3	incongruent/STIM_014.jpg
2534.553	0.859	1	incongruent	Block3	incongruent/STIM_015.jpg
2537.631	1.036	1	incongruent	Block3	incongruent/STIM_015.jpg
2540.682	1.256	1	incongruent	Block3	incongruent/STIM_015.jpg
2544.115	0.881	1	incongruent	Block3	incongruent/STIM_015.jpg
2547.309	0.626	1	incongruent	Block3	incongruent/STIM_015.jpg
2549.892	0.925	1	incongruent	Block3	incongruent/STIM_016.jpg
2553.024	0.739	1	incongruent	Block3	incongruent/STIM_016.jpg
2555.809	0.831	0	incongruent	Block3	incongruent/STIM_016.jpg
2560.321	0.769	1	incongruent	Block3	incongruent/STIM_016.jpg
2564.005	0.967	1	incongruent	Block3	incongruent/STIM_016.jpg
2567.667	0.872	1	incongruent	Block3	incongruent/STIM_017.jpg
2571.056	0.677	1	incongruent	Block3	incongruent/STIM_017.jpg
2574.554	1.057	1	incongruent	Block3	incongruent/STIM_017.jpg
2579.282	0.704	1	incongruent	Block3	incongruent/STIM_017.jpg
2583.564	0.833	1	incongruent	Block3	incongruent/STIM_017.jpg
2586.799	1.064	1	incongruent	Block3	incongruent/STIM_018.jpg
2589.94	0.922	1	incongruent	Block3	incongruent/STIM_018.jpg
2594.303	0.678	1	incongruent	Block3	incongruent/STIM_018.jpg
2598.537	0.828	1	incongruent	Block3	incongruent/STIM_018.jpg
2601.95	1.14	1	incongruent	Block3	incongruent/STIM_018.jpg
2605.858	0.498	1	incongruent	Block3	incongruent/STIM_019.jpg
2608.511	0.884	1	incongruent	Block3	incongruent/STIM_019.jpg
2612.881	0.501	1	incongruent	Block3	incongruent/STIM_019.jpg
2616.355	0.921	1	incongruent	Block3	incongruent/STIM_019.jpg
2620.851	0.96	1	incongruent	Block3	incongruent/STIM_019.jpg
2625.689	1.059	1	incongruent	Block3	incongruent/STIM_020.jpg
2628.865	1.098	1	incongruent	Block3	incongruent/STIM_020.jpg
2633.079	0.684	1	incongruent	Block3	incongruent/STIM_020.jpg
2636.256	0.806	1	incongruent	Block3	incongruent/STIM_020.jpg
2639.866	0.79	1	incongruent	Block3	incongruent/STIM_020.jpg
2643.294	1.036	1	incongruent	Block3	incongruent/STIM_021.jpg
2646.902	1.11	1	incongruent	Block3	incongruent/STIM_021.jpg
2651.486	1.09	1	incongruent	Block3	incongruent/STIM_021.jpg
2655.332	0.788	0	incongruent	Block3	incongruent/STIM_021.jpg
2659.08	1.022	1	incongruent	Block3	incongruent/STIM_021.jpg
2663.435	0.833	1	incongruent	Block3	incongruent/STIM_022.jpg
2667.126	0.972	1	incongruent	Block3	incongruent/STIM_022.jpg
2671.937	0.662	1	incongruent	Block3	incongruent/STIM_022.jpg
2675.12	1.063	1	incongruent	Block3	incongruent/STIM_022.jpg
2678.621	0.784	1	incongruent	Block3	incongruent/STIM_022.jpg
2683.168	0.953	1	incongruent	Block3	incongruent/STIM_023.jpg
2687.863	1.077	1	incongruent	Block3	incongruent/STIM_023.jpg
2692.508	0.487	1	incongruent	Block3	incongruent/STIM_023.jpg
2696.194	0.808	1	incongruent	Block3	incongruent/STIM_023.jpg
2700.295	0.798	1	incongruent	Block3	incongruent/STIM_023.jpg
2703.381	0.69	1	incongruent	Block3	incongruent/STIM_024.jpg
2706.672	0.82	1	incongruent	Block3	incongruent/STIM_024.jpg
2710.762	0.76	1	incongruent	Block3	incongruent/STIM_024.jpg
2714.889	0.784	1	incongruent	Block3	incongruent/STIM_024.jpg
2718.072	0.814	1	incongruent	Block3	incongruent/STIM_024.jpg
2721.389	0.99	0	incongruent	Block3	incongruent/STIM_025.jpg
2724.697	0.885	1	incongruent	Block3	incongruent/STIM_025.jpg
2729.477	0.827	1	incongruent	Block3	incongruent/STIM_025.jpg
2733.207	1.024	1	incongruent	Block3	incongruent/STIM_025.jpg
2738.013	0.551	1	incongruent	Block3	incongruent/STIM_025.jpg
2741.434	0.697	1	incongruent	Block3	incongruent/STIM_026.jpg
2745.671	0.769	1	incongruent	Block3	incongruent/STIM_026.jpg
2749.024	1.146	1	incongruent	Block3	incongruent/STIM_026.jpg
2753.993	0.885	1	incongruent	Block3	incongruent/STIM_026.jpg
2757.21	0.691	1	incongruent	Block3	incongruent/STIM_026.jpg
2760.551	0.735	1	incongruent	Block3	incongruent/STIM_027.jpg
2763.975	0.576	1	incongruent	Block3	incongruent/STIM_027.jpg
2766.937	1.076	1	incongruent	Block3	incongruent/STIM_027.jpg
2770.496	0.607	1	incongruent	Block3	incongruent/STIM_027.jpg
2773.1	1.113	1	incongruent	Block3	incongruent/STIM_027.jpg
2778.033	0.963	1	incongruent	Block3	incongruent/STIM_028.jpg
2781.939	0.8	1	incongruent	Block3	incongruent/STIM_028.jpg
2786.203	0.733	1	incongruent	Block3	incongruent/STIM_028.jpg
2790.449	0.977	1	incongruent	Block3	incongruent/STIM_028.jpg
2794.772	0.502	1	incongruent	Block3	incongruent/STIM_028.jpg
2797.858	0.887	1	incongruent	Block3	incongruent/STIM_029.jpg
2800.924	0.731	1	incongruent	Block3	incongruent/STIM_029.jpg
2803.782	0.618	1	incongruent	Block3	incongruent/STIM_029.jpg
2807.809	0.986	1	incongruent	Block3	incongruent/STIM_029.jpg
2812.658	0.643	1	incongruent	Block3	incongruent/STIM_029.jpg
2815.595	0.608	1	congruent	Block3	congruent/STIM_000.jpg
2819.009	0.776	1	congruent	Block3	congruent/STIM_000.jpg
2822.579	0.859	1	congruent	Block3	congruent/STIM_000.jpg
2827.095	0.839	1	congruent	Block3	congruent/STIM_000.jpg
2831.149	0.878	1	congruent	Block3	congruent/STIM_000.jpg
2835.971	0.516	1	congruent	Block3	congruent/STIM_001.jpg
2838.82	0.912	1	congruent	Block3	congruent/STIM_001.jpg
2842.823	0.542	1	congruent	Block3	congruent/STIM_001.jpg
2846.447	0.785	1	congruent	Block3	congruent/STIM_001.jpg
2850.412	0.592	1	congruent	Block3	congruent/STIM_001.jpg
2854.465	0.812	1	congruent	Block3	congruent/STIM_002.jpg
2859.041	0.848	0	congruent	Block3	congruent/STIM_002.jpg
2863.315	0.919	1	congruent	Block3	congruent/STIM_002.jpg
2866.432	0.804	1	congruent	Block3	congruent/STIM_002.jpg
2870.461	0.62	1	congruent	Block3	congruent/STIM_002.jpg
2874.829	0.764	1	congruent	Block3	congruent/STIM_003.jpg
2879.499	0.95	1	congruent	Block3	congruent/STIM_003.jpg
2883.46	0.578	1	congruent	Block3	congruent/STIM_003.jpg
2887.656	0.917	0	congruent	Block3	congruent/STIM_003.jpg
2892.393	0.847	1	congruent	Block3	congruent/STIM_003.jpg
2896.365	0.903	1	congruent	Block3	congruent/STIM_004.jpg
2899.856	0.656	1	congruent	Block3	congruent/STIM_004.jpg
2903.33	0.868	1	congruent	Block3	congruent/STIM_004.jpg
2907.298	0.985	1	congruent	Block3	congruent/STIM_004.jpg
2911.813	0.957	1	congruent	Block3	congruent/STIM_004.jpg
2915.569	0.886	1	congruent	Block3	congruent/STIM_005.jpg
2920.194	0.747	1	congruent	Block3	congruent/STIM_005.jpg
2924.491	0.595	1	congruent	Block3	congruent/STIM_005.jpg
2927.299	0.816	1	congruent	Block3	congruent/STIM_005.jpg
2930.825	0.687	1	congruent	Block3	congruent/STIM_005.jpg
2934.847	0.672	1	congruent	Block3	congruent/STIM_006.jpg
2939.077	0.802	1	congruent	Block3	congruent/STIM_006.jpg
2941.839	0.623	1	congruent	Block3	congruent/STIM_006.jpg
2946.277	0.94	1	congruent	Block3	congruent/STIM_006.jpg
2950.895	0.835	1	congruent	Block3	congruent/STIM_006.jpg
2954.171	0.56	1	congruent	Block3	congruent/STIM_007.jpg
2957.226	0.622	1	congruent	Block3	congruent/STIM_007.jpg
2960.681	0.784	1	congruent	Block3	congruent/STIM_007.jpg
2964.981	0.76	1	congruent	Block3	congruent/STIM_007.jpg
2967.713	0.605	1	congruent	Block3	congruent/STIM_007.jpg
2970.927	0.884	1	congruent	Block3	congruent/STIM_008.jpg
2975.199	0.724	1	congruent	Block3	congruent/STIM_008.jpg
2978.66	0.928	1	congruent	Block3	congruent/STIM_008.jpg
2981.537	0.886	1	congruent	Block3	congruent/STIM_008.jpg
2986.196	0.494	1	congruent	Block3	congruent/STIM_008.jpg
2990.264	0.56	1	congruent	Block3	congruent/STIM_009.jpg
2993.674	0.819	1	congruent	Block3	congruent/STIM_009.jpg
2998.076	0.768	1	congruent	Block3	congruent/STIM_009.jpg
3001.703	0.752	1	congruent	Block3	congruent/STIM_009.jpg
3005.618	0.57	1	congruent	Block3	congruent/STIM_009.jpg
3008.801	0.956	1	congruent	Block3	congruent/STIM_010.jpg
3012.402	0.837	1	congruent	Block3	congruent/STIM_010.jpg
3015.711	0.852	1	congruent	Block3	congruent/STIM_010.jpg
3019.372	0.795	0	congruent	Block3	congruent/STIM_010.jpg
3023.802	0.741	1	congruent	Block3	congruent/STIM_010.jpg
3028.151	0.613	1	congruent	Block3	congruent/STIM_011.jpg
3030.967	0.642	1	congruent	Block3	congruent/STIM_011.jpg
3034.777	0.663	1	congruent	Block3	congruent/STIM_011.jpg
3038.107	0.79	1	congruent	Block3	congruent/STIM_011.jpg
3040.859	0.898	1	congruent	Block3	congruent/STIM_011.jpg
3043.816	0.673	1	congruent	Block3	congruent/STIM_012.jpg
3047.683	0.878	0	congruent	Block3	congruent/STIM_012.jpg
3050.47	0.618	1	congruent	Block3	congruent/STIM_012.jpg
3053.092	0.93	1	congruent	Block3	congruent/STIM_012.jpg
3056.382	0.729	1	congruent	Block3	congruent/STIM_012.jpg
3059.444	0.754	1	congruent	Block3	congruent/STIM_013.jpg
3063.723	0.955	1	congruent	Block3	congruent/STIM_013.jpg
3067.059	0.747	1	congruent	Block3	congruent/STIM_013.jpg
3071.348	0.909	1	congruent	Block3	congruent/STIM_013.jpg
3075.286	0.643	1	congruent	Block3	congruent/STIM_013.jpg
3079.116	0.614	1	congruent	Block3	congruent/STIM_014.jpg
3082.87	0.69	1	congruent	Block3	congruent/STIM_014.jpg
3086.088	0.643	1	congruent	Block3	congruent/STIM_014.jpg
3088.946	0.592	1	congruent	Block3	congruent/STIM_014.jpg
3092.842	0.751	1	congruent	Block3	congruent/STIM_014.jpg
3096.191	0.75	1	congruent	Block3	congruent/STIM_015.jpg
3099.713	0.781	1	congruent	Block3	congruent/STIM_015.jpg
3104.234	0.589	1	congruent	Block3	congruent/STIM_015.jpg
3106.921	0.78	1	congruent	Block3	congruent/STIM_015.jpg
3110.868	0.61	1	congruent	Block3	congruent/STIM_015.jpg
3115.106	0.707	1	congruent	Block3	congruent/STIM_016.jpg
3119.483	0.658	1	congruent	Block3	congruent/STIM_016.jpg
3122.269	0.754	1	congruent	Block3	congruent/STIM_016.jpg
3126.149	0.752	1	congruent	Block3	congruent/STIM_016.jpg
3129.005	0.728	1	congruent	Block3	congruent/STIM_016.jpg
3133.114	0.788	1	congruent	Block3	congruent/STIM_017.jpg
3136.0	0.883	1	congruent	Block3	congruent/STIM_017.jpg
3140.143	0.835	1	congruent	Block3	congruent/STIM_017.jpg
3143.075	0.786	1	congruent	Block3	congruent/STIM_017.jpg
3146.353	0.644	1	congruent	Block3	congruent/STIM_017.jpg
3150.343	0.79	1	congruent	Block3	congruent/STIM_018.jpg
3154.454	0.664	1	congruent	Block3	congruent/STIM_018.jpg
3157.398	0.69	1	congruent	Block3	congruent/STIM_018.jpg
3160.128	0.95	1	congruent	Block3	congruent/STIM_018.jpg
3164.755	0.966	1	congruent	Block3	congruent/STIM_018.jpg
3167.892	0.875	1	congruent	Block3	congruent/STIM_019.jpg
3171.051	0.96	1	congruent	Block3	congruent/STIM_019.jpg
3175.735	0.631	1	congruent	Block3	congruent/STIM_019.jpg
3180.007	0.617	1	congruent	Block3	congruent/STIM_019.jpg
3184.276	0.916	1	congruent	Block3	congruent/STIM_019.jpg
3187.626	0.933	1	congruent	Block3	congruent/STIM_020.jpg
3191.019	0.891	1	congruent	Block3	congruent/STIM_020.jpg
3194.392	0.619	1	congruent	Block3	congruent/STIM_020.jpg
3198.813	0.566	1	congruent	Block3	congruent/STIM_020.jpg
3202.625	0.748	0	congruent	Block3	congruent/STIM_020.jpg
3206.567	1.029	1	congruent	Block3	congruent/STIM_021.jpg
3210.324	0.617	1	congruent	Block3	congruent/STIM_021.jpg
3214.365	0.765	1	congruent	Block3	congruent/STIM_021.jpg
3218.147	0.642	1	congruent	Block3	congruent/STIM_021.jpg
3221.146	0.5	1	congruent	Block3	congruent/STIM_021.jpg
3224.429	0.688	1	congruent	Block3	congruent/STIM_022.jpg
3228.646	0.776	1	congruent	Block3	congruent/STIM_022.jpg
3232.622	0.776	1	congruent	Block3	congruent/STIM_022.jpg
3235.686	0.639	1	congruent	Block3	congruent/STIM_022.jpg
3238.824	1.136	1	congruent	Block3	congruent/STIM_022.jpg
3241.828	0.741	1	congruent	Block3	congruent/STIM_023.jpg
3244.679	0.844	1	congruent	Block3	congruent/STIM_023.jpg
3248.404	0.843	1	congruent	Block3	congruent/STIM_023.jpg
3252.141	0.79	1	congruent	Block3	congruent/STIM_023.jpg
3255.598	0.892	1	congruent	Block3	congruent/STIM_023.jpg
3259.714	0.717	1	congruent	Block3	congruent/STIM_024.jpg
3264.137	0.823	1	congruent	Block3	congruent/STIM_024.jpg
3267.909	1.027	1	congruent	Block3	congruent/STIM_024.jpg
3272.395	0.72	1	congruent	Block3	congruent/STIM_024.jpg
3275.998	0.999	1	congruent	Block3	congruent/STIM_024.jpg
3279.29	0.632	1	congruent	Block3	congruent/STIM_025.jpg
3282.731	0.851	1	congruent	Block3	congruent/STIM_025.jpg
3285.68	0.858	1	congruent	Block3	congruent/STIM_025.jpg
3288.666	0.624	1	congruent	Block3	congruent/STIM_025.jpg
3292.833	0.825	1	congruent	Block3	congruent/STIM_025.jpg
3295.7	0.681	1	congruent	Block3	congruent/STIM_026.jpg
3299.021	0.708	1	congruent	Block3	congruent/STIM_026.jpg
3302.866	0.501	0	congruent	Block3	congruent/STIM_026.jpg
3306.035	0.601	1	congruent	Block3	congruent/STIM_026.jpg
3308.628	0.788	1	congruent	Block3	congruent/STIM_026.jpg
3311.718	0.886	1	congruent	Block3	congruent/STIM_027.jpg
3316.339	0.81	1	congruent	Block3	congruent/STIM_027.jpg
3320.519	0.664	1	congruent	Block3	congruent/STIM_027.jpg
3323.272	0.705	1	congruent	Block3	congruent/STIM_027.jpg
3326.268	0.576	1	congruent	Block3	congruent/STIM_027.jpg
3330.548	0.645	0	congruent	Block3	congruent/STIM_028.jpg
3334.764	0.671	1	congruent	Block3	congruent/STIM_028.jpg
3337.576	0.863	1	congruent	Block3	congruent/STIM_028.jpg
3341.259	0.738	1	congruent	Block3	congruent/STIM_028.jpg
3344.445	0.673	1	congruent	Block3	congruent/STIM_028.jpg
3347.757	0.975	1	congruent	Block3	congruent/STIM_029.jpg
3350.655	0.712	1	congruent	Block3	congruent/STIM_029.jpg
3354.392	0.768	1	congruent	Block3	congruent/STIM_029.jpg
3358.369	0.913	1	congruent	Block3	congruent/STIM_029.jpg
3362.142	0.926	1	congruent	Block3	congruent/STIM_029.jpg
