onset	duration	accuracy	trial_type	learning_stage	stimulus
0.0	1.553	correct	study	Phase1	study/STIM_000.jpg
5.091	0.916	correct	study	Phase1	study/STIM_000.jpg
9.347	1.355	correct	study	Phase1	study/STIM_000.jpg
12.739	1.593	correct	study	Phase1	study/STIM_001.jpg
16.988	1.15	correct	study	Phase1	study/STIM_001.jpg
21.854	1.221	correct	study	Phase1	study/STIM_001.jpg
25.825	0.959	correct	study	Phase1	study/STIM_002.jpg
28.83	1.21	correct	study	Phase1	study/STIM_002.jpg
33.387	1.482	correct	study	Phase1	study/STIM_002.jpg
37.217	1.156	correct	study	Phase1	study/STIM_003.jpg
40.581	1.006	correct	study	Phase1	study/STIM_003.jpg
45.076	0.947	correct	study	Phase1	study/STIM_003.jpg
48.67	1.651	correct	study	Phase1	study/STIM_004.jpg
52.517	1.591	correct	study	Phase1	study/STIM_004.jpg
56.505	1.051	correct	study	Phase1	study/STIM_004.jpg
60.249	1.048	correct	study	Phase1	study/STIM_005.jpg
63.329	1.597	correct	study	Phase1	study/STIM_005.jpg
66.911	1.41	correct	study	Phase1	study/STIM_005.jpg
71.847	1.306	correct	study	Phase1	study/STIM_006.jpg
76.615	1.488	correct	study	Phase1	study/STIM_006.jpg
81.846	0.831	correct	study	Phase1	study/STIM_006.jpg
86.381	1.55	correct	study	Phase1	study/STIM_007.jpg
91.313	1.043	correct	study	Phase1	study/STIM_007.jpg
94.397	1.168	correct	study	Phase1	study/STIM_007.jpg
98.241	1.195	correct	study	Phase1	study/STIM_008.jpg
103.116	0.825	correct	study	Phase1	study/STIM_008.jpg
106.237	1.356	correct	study	Phase1	study/STIM_008.jpg
110.913	1.22	incorrect	study	Phase1	study/STIM_009.jpg
115.872	0.852	correct	study	Phase1	study/STIM_009.jpg
118.692	1.187	correct	study	Phase1	study/STIM_009.jpg
122.491	1.022	correct	study	Phase1	study/STIM_010.jpg
126.768	1.587	correct	study	Phase1	study/STIM_010.jpg
131.451	0.938	correct	study	Phase1	study/STIM_010.jpg
134.675	1.132	correct	study	Phase1	study/STIM_011.jpg
138.763	1.333	correct	study	Phase1	study/STIM_011.jpg
142.449	1.356	correct	study	Phase1	study/STIM_011.jpg
146.867	1.122	incorrect	study	Phase1	study/STIM_012.jpg
150.0	1.086	correct	study	Phase1	study/STIM_012.jpg
153.146	1.004	correct	study	Phase1	study/STIM_012.jpg
157.628	1.422	correct	study	Phase1	study/STIM_013.jpg
161.659	0.927	correct	study	Phase1	study/STIM_013.jpg
165.731	1.581	correct	study	Phase1	study/STIM_013.jpg
170.319	1.094	correct	study	Phase1	study/STIM_014.jpg
173.496	1.111	correct	study	Phase1	study/STIM_014.jpg
177.661	1.158	correct	study	Phase1	study/STIM_014.jpg
181.383	1.262	correct	study	Phase1	study/STIM_015.jpg
186.501	1.252	correct	study	Phase1	study/STIM_015.jpg
191.37	1.088	correct	study	Phase1	study/STIM_015.jpg
194.937	1.542	correct	study	Phase1	study/STIM_016.jpg
200.098	1.604	correct	study	Phase1	study/STIM_016.jpg
205.031	1.53	correct	study	Phase1	study/STIM_016.jpg
208.816	0.828	correct	study	Phase1	study/STIM_017.jpg
212.324	1.279	correct	study	Phase1	study/STIM_017.jpg
217.33	1.031	incorrect	study	Phase1	study/STIM_017.jpg
221.244	1.438	correct	study	Phase1	study/STIM_018.jpg
225.086	0.989	correct	study	Phase1	study/STIM_018.jpg
229.548	1.16	correct	study	Phase1	study/STIM_018.jpg
234.156	0.995	correct	study	Phase1	study/STIM_019.jpg
238.736	0.941	correct	study	Phase1	study/STIM_019.jpg
241.942	0.946	correct	study	Phase1	study/STIM_019.jpg
245.725	1.679	correct	study	Phase1	study/STIM_020.jpg
250.518	1.406	correct	study	Phase1	study/STIM_020.jpg
254.553	1.354	correct	study	Phase1	study/STIM_020.jpg
257.913	1.771	correct	study	Phase1	study/STIM_021.jpg
262.096	1.479	correct	study	Phase1	study/STIM_021.jpg
266.123	0.782	correct	study	Phase1	study/STIM_021.jpg
269.566	0.898	correct	study	Phase1	study/STIM_022.jpg
274.009	1.055	correct	study	Phase1	study/STIM_022.jpg
277.465	1.674	incorrect	study	Phase1	study/STIM_022.jpg
282.229	1.718	correct	study	Phase1	study/STIM_023.jpg
287.896	1.738	correct	study	Phase1	study/STIM_023.jpg
291.985	1.415	correct	study	Phase1	study/STIM_023.jpg
297.248	1.018	correct	study	Phase1	study/STIM_024.jpg
300.906	1.068	incorrect	study	Phase1	study/STIM_024.jpg
305.42	1.226	incorrect	study	Phase1	study/STIM_024.jpg
310.549	1.286	correct	study	Phase1	study/STIM_025.jpg
314.478	1.192	correct	study	Phase1	study/STIM_025.jpg
319.487	1.275	correct	study	Phase1	study/STIM_025.jpg
322.874	1.057	incorrect	study	Phase1	study/STIM_026.jpg
325.925	1.043	correct	study	Phase1	study/STIM_026.jpg
328.955	1.04	correct	study	Phase1	study/STIM_026.jpg
333.06	1.779	correct	study	Phase1	study/STIM_027.jpg
337.615	1.685	correct	study	Phase1	study/STIM_027.jpg
341.659	0.83	correct	study	Phase1	study/STIM_027.jpg
345.616	1.784	correct	study	Phase1	study/STIM_028.jpg
350.456	1.822	correct	study	Phase1	study/STIM_028.jpg
354.38	1.566	correct	study	Phase1	study/STIM_028.jpg
359.4	1.806	incorrect	study	Phase1	study/STIM_029.jpg
364.349	1.298	correct	study	Phase1	study/STIM_029.jpg
368.252	1.362	correct	study	Phase1	study/STIM_029.jpg
372.902	0.792	correct	test	Phase1	test/STIM_000.jpg
377.224	0.938	correct	test	Phase1	test/STIM_000.jpg
381.699	1.133	correct	test	Phase1	test/STIM_000.jpg
386.553	0.734	correct	test	Phase1	test/STIM_001.jpg
389.505	0.608	correct	test	Phase1	test/STIM_001.jpg
392.605	1.212	correct	test	Phase1	test/STIM_001.jpg
397.434	1.292	correct	test	Phase1	test/STIM_002.jpg
402.148	0.748	correct	test	Phase1	test/STIM_002.jpg
406.525	0.941	correct	test	Phase1	test/STIM_002.jpg
410.39	1.069	correct	test	Phase1	test/STIM_003.jpg
413.554	1.019	correct	test	Phase1	test/STIM_003.jpg
417.518	0.682	correct	test	Phase1	test/STIM_003.jpg
420.837	0.764	correct	test	Phase1	test/STIM_004.jpg
424.589	1.318	correct	test	Phase1	test/STIM_004.jpg
429.228	0.66	correct	test	Phase1	test/STIM_004.jpg
432.227	1.398	correct	test	Phase1	test/STIM_005.jpg
436.036	0.992	incorrect	test	Phase1	test/STIM_005.jpg
439.418	0.993	incorrect	test	Phase1	test/STIM_005.jpg
442.554	0.952	correct	test	Phase1	test/STIM_006.jpg
446.524	1.032	correct	test	Phase1	test/STIM_006.jpg
450.151	1.348	correct	test	Phase1	test/STIM_006.jpg
454.753	1.24	correct	test	Phase1	test/STIM_007.jpg
458.345	0.848	correct	test	Phase1	test/STIM_007.jpg
461.32	1.18	correct	test	Phase1	test/STIM_007.jpg
465.948	0.741	correct	test	Phase1	test/STIM_008.jpg
469.978	1.183	correct	test	Phase1	test/STIM_008.jpg
473.206	0.896	correct	test	Phase1	test/STIM_008.jpg
477.183	1.264	correct	test	Phase1	test/STIM_009.jpg
482.115	0.641	correct	test	Phase1	test/STIM_009.jpg
484.777	0.86	correct	test	Phase1	test/STIM_009.jpg
487.8	1.093	correct	test	Phase1	test/STIM_010.jpg
492.702	0.727	correct	test	Phase1	test/STIM_010.jpg
495.446	0.907	incorrect	test	Phase1	test/STIM_010.jpg
500.09	1.114	correct	test	Phase1	test/STIM_011.jpg
504.177	0.7	correct	test	Phase1	test/STIM_011.jpg
508.841	1.204	incorrect	test	Phase1	test/STIM_011.jpg
513.672	0.823	correct	test	Phase1	test/STIM_012.jpg
516.35	0.884	correct	test	Phase1	test/STIM_012.jpg
520.108	1.129	correct	test	Phase1	test/STIM_012.jpg
524.68	1.401	correct	test	Phase1	test/STIM_013.jpg
527.962	1.217	correct	test	Phase1	test/STIM_013.jpg
531.532	0.873	correct	test	Phase1	test/STIM_013.jpg
535.386	0.978	correct	test	Phase1	test/STIM_014.jpg
539.64	0.872	correct	test	Phase1	test/STIM_014.jpg
542.843	0.886	correct	test	Phase1	test/STIM_014.jpg
547.201	1.119	correct	test	Phase1	test/STIM_015.jpg
551.444	1.067	correct	test	Phase1	test/STIM_015.jpg
555.544	1.016	correct	test	Phase1	test/STIM_015.jpg
559.919	0.744	correct	test	Phase1	test/STIM_016.jpg
562.867	0.696	correct	test	Phase1	test/STIM_016.jpg
567.428	0.619	correct	test	Phase1	test/STIM_016.jpg
570.443	0.947	correct	test	Phase1	test/STIM_017.jpg
575.284	1.077	incorrect	test	Phase1	test/STIM_017.jpg
579.534	0.852	correct	test	Phase1	test/STIM_017.jpg
584.094	1.101	correct	test	Phase1	test/STIM_018.jpg
587.671	0.602	correct	test	Phase1	test/STIM_018.jpg
591.195	0.858	correct	test	Phase1	test/STIM_018.jpg
595.66	0.775	incorrect	test	Phase1	test/STIM_019.jpg
600.143	1.321	correct	test	Phase1	test/STIM_019.jpg
603.84	0.934	correct	test	Phase1	test/STIM_019.jpg
607.054	1.078	correct	test	Phase1	test/STIM_020.jpg
611.81	0.671	correct	test	Phase1	test/STIM_020.jpg
615.958	1.186	correct	test	Phase1	test/STIM_020.jpg
620.548	1.355	correct	test	Phase1	test/STIM_021.jpg
624.804	0.568	correct	test	Phase1	test/STIM_021.jpg
627.894	0.691	correct	test	Phase1	test/STIM_021.jpg
630.919	0.671	correct	test	Phase1	test/STIM_022.jpg
633.555	1.207	correct	test	Phase1	test/STIM_022.jpg
638.495	1.371	correct	test	Phase1	test/STIM_022.jpg
643.064	0.619	correct	test	Phase1	test/STIM_023.jpg
647.424	1.372	correct	test	Phase1	test/STIM_023.jpg
651.34	1.264	incorrect	test	Phase1	test/STIM_023.jpg
655.691	0.775	correct	test	Phase1	test/STIM_024.jpg
658.642	0.842	correct	test	Phase1	test/STIM_024.jpg
662.928	1.048	incorrect	test	Phase1	test/STIM_024.jpg
665.963	1.211	correct	test	Phase1	test/STIM_025.jpg
670.713	0.973	correct	test	Phase1	test/STIM_025.jpg
674.455	1.055	correct	test	Phase1	test/STIM_025.jpg
678.318	1.198	correct	test	Phase1	test/STIM_026.jpg
682.094	0.811	incorrect	test	Phase1	test/STIM_026.jpg
686.041	0.874	correct	test	Phase1	test/STIM_026.jpg
690.109	1.134	correct	test	Phase1	test/STIM_027.jpg
694.193	1.338	correct	test	Phase1	test/STIM_027.jpg
699.034	1.094	correct	test	Phase1	test/STIM_027.jpg
704.045	0.921	correct	test	Phase1	test/STIM_028.jpg
707.721	0.643	correct	test	Phase1	test/STIM_028.jpg
711.538	1.017	correct	test	Phase1	test/STIM_028.jpg
715.522	0.735	correct	test	Phase1	test/STIM_029.jpg
719.576	0.921	correct	test	Phase1	test/STIM_029.jpg
722.922	0.879	correct	test	Phase1	test/STIM_029.jpg
726.421	1.526	correct	study	Phase2	study/STIM_000.jpg
730.587	1.168	correct	study	Phase2	study/STIM_000.jpg
734.18	0.678	correct	study	Phase2	study/STIM_000.jpg
738.142	1.601	correct	study	Phase2	study/STIM_001.jpg
743.062	0.871	correct	study	Phase2	study/STIM_001.jpg
746.904	0.947	correct	study	Phase2	study/STIM_001.jpg
750.269	0.831	correct	study	Phase2	study/STIM_002.jpg
753.964	0.723	correct	study	Phase2	study/STIM_002.jpg
756.884	1.161	correct	study	Phase2	study/STIM_002.jpg
761.452	0.776	correct	study	Phase2	study/STIM_003.jpg
765.931	1.339	incorrect	study	Phase2	study/STIM_003.jpg
770.788	1.051	correct	study	Phase2	study/STIM_003.jpg
774.959	1.236	correct	study	Phase2	study/STIM_004.jpg
778.684	1.198	correct	study	Phase2	study/STIM_004.jpg
781.902	0.589	correct	study	Phase2	study/STIM_004.jpg
785.811	1.219	correct	study	Phase2	study/STIM_005.jpg
789.036	1.123	correct	study	Phase2	study/STIM_005.jpg
792.847	1.146	correct	study	Phase2	study/STIM_005.jpg
797.484	1.244	correct	study	Phase2	study/STIM_006.jpg
801.388	1.446	incorrect	study	Phase2	study/STIM_006.jpg
805.299	0.612	correct	study	Phase2	study/STIM_006.jpg
808.773	0.8	incorrect	study	Phase2	study/STIM_007.jpg
813.451	1.39	correct	study	Phase2	study/STIM_007.jpg
817.99	1.0	correct	study	Phase2	study/STIM_007.jpg
822.777	0.784	correct	study	Phase2	study/STIM_008.jpg
826.253	1.014	correct	study	Phase2	study/STIM_008.jpg
830.329	0.709	correct	study	Phase2	study/STIM_008.jpg
833.519	0.876	correct	study	Phase2	study/STIM_009.jpg
837.881	1.072	correct	study	Phase2	study/STIM_009.jpg
842.318	1.183	correct	study	Phase2	study/STIM_009.jpg
846.203	1.138	correct	study	Phase2	study/STIM_010.jpg
850.192	1.344	correct	study	Phase2	study/STIM_010.jpg
853.853	0.787	correct	study	Phase2	study/STIM_010.jpg
857.157	0.739	correct	study	Phase2	study/STIM_011.jpg
860.307	1.498	correct	study	Phase2	study/STIM_011.jpg
865.216	0.773	correct	study	Phase2	study/STIM_011.jpg
869.009	0.928	correct	study	Phase2	study/STIM_012.jpg
872.478	0.827	correct	study	Phase2	study/STIM_012.jpg
876.823	0.734	correct	study	Phase2	study/STIM_012.jpg
880.807	1.597	correct	study	Phase2	study/STIM_013.jpg
884.554	1.148	correct	study	Phase2	study/STIM_013.jpg
889.219	1.153	correct	study	Phase2	study/STIM_013.jpg
893.369	0.743	correct	study	Phase2	study/STIM_014.jpg
897.577	1.492	correct	study	Phase2	study/STIM_014.jpg
901.026	1.088	correct	study	Phase2	study/STIM_014.jpg
905.616	0.895	correct	study	Phase2	study/STIM_015.jpg
909.486	1.024	correct	study	Phase2	study/STIM_015.jpg
913.338	1.308	correct	study	Phase2	study/STIM_015.jpg
918.084	1.018	correct	study	Phase2	study/STIM_016.jpg
921.596	1.15	correct	study	Phase2	study/STIM_016.jpg
925.624	0.902	correct	study	Phase2	study/STIM_016.jpg
930.396	0.884	correct	study	Phase2	study/STIM_017.jpg
935.181	0.603	correct	study	Phase2	study/STIM_017.jpg
938.342	0.652	incorrect	study	Phase2	study/STIM_017.jpg
942.843	0.656	correct	study	Phase2	study/STIM_018.jpg
946.536	1.48	correct	study	Phase2	study/STIM_018.jpg
951.238	1.172	correct	study	Phase2	study/STIM_018.jpg
956.232	1.45	correct	study	Phase2	study/STIM_019.jpg
960.554	1.059	correct	study	Phase2	study/STIM_019.jpg
964.415	0.961	correct	study	Phase2	study/STIM_019.jpg
969.262	0.743	correct	study	Phase2	study/STIM_020.jpg
972.978	1.202	correct	study	Phase2	study/STIM_020.jpg
976.838	0.96	correct	study	Phase2	study/STIM_020.jpg
980.51	1.465	correct	study	Phase2	study/STIM_021.jpg
984.195	0.734	correct	study	Phase2	study/STIM_021.jpg
987.119	1.117	correct	study	Phase2	study/STIM_021.jpg
991.228	0.72	correct	study	Phase2	study/STIM_022.jpg
995.268	1.013	correct	study	Phase2	study/STIM_022.jpg
1000.044	0.977	correct	study	Phase2	study/STIM_022.jpg
1004.604	1.534	correct	study	Phase2	study/STIM_023.jpg
1008.315	1.524	correct	study	Phase2	study/STIM_023.jpg
1013.201	1.375	correct	study	Phase2	study/STIM_023.jpg
1018.299	0.958	correct	study	Phase2	study/STIM_024.jpg
1021.804	1.507	incorrect	study	Phase2	study/STIM_024.jpg
1026.626	1.039	incorrect	study	Phase2	study/STIM_024.jpg
1030.072	1.309	incorrect	study	Phase2	study/STIM_025.jpg
1034.457	0.92	correct	study	Phase2	study/STIM_025.jpg
1037.357	0.868	correct	study	Phase2	study/STIM_025.jpg
1040.935	0.965	correct	study	Phase2	study/STIM_026.jpg
1045.558	1.326	incorrect	study	Phase2	study/STIM_026.jpg
1048.945	1.16	correct	study	Phase2	study/STIM_026.jpg
1053.639	0.864	correct	study	Phase2	study/STIM_027.jpg
1057.232	1.479	correct	study	Phase2	study/STIM_027.jpg
1061.69	0.85	correct	study	Phase2	study/STIM_027.jpg
1066.207	1.187	correct	study	Phase2	study/STIM_028.jpg
1071.111	1.101	correct	study	Phase2	study/STIM_028.jpg
1075.325	1.124	correct	study	Phase2	study/STIM_028.jpg
1080.084	1.058	correct	study	Phase2	study/STIM_029.jpg
1084.707	0.912	correct	study	Phase2	study/STIM_029.jpg
1088.916	1.328	correct	study	Phase2	study/STIM_029.jpg
1094.091	1.358	correct	test	Phase2	test/STIM_000.jpg
1098.059	1.234	correct	test	Phase2	test/STIM_000.jpg
1102.435	1.099	correct	test	Phase2	test/STIM_000.jpg
1107.268	1.076	incorrect	test	Phase2	test/STIM_001.jpg
1112.216	0.98	incorrect	test	Phase2	test/STIM_001.jpg
1116.187	1.34	correct	test	Phase2	test/STIM_001.jpg
1120.934	1.259	correct	test	Phase2	test/STIM_002.jpg
1125.754	1.29	correct	test	Phase2	test/STIM_002.jpg
1129.24	1.328	correct	test	Phase2	test/STIM_002.jpg
1134.31	1.326	correct	test	Phase2	test/STIM_003.jpg
1138.823	1.021	correct	test	Phase2	test/STIM_003.jpg
1143.296	0.951	correct	test	Phase2	test/STIM_003.jpg
1147.255	1.063	correct	test	Phase2	test/STIM_004.jpg
1150.757	0.813	correct	test	Phase2	test/STIM_004.jpg
1155.414	0.756	correct	test	Phase2	test/STIM_004.jpg
1159.302	1.024	correct	test	Phase2	test/STIM_005.jpg
1163.917	1.155	correct	test	Phase2	test/STIM_005.jpg
1167.644	1.335	correct	test	Phase2	test/STIM_005.jpg
1172.296	0.671	incorrect	test	Phase2	test/STIM_006.jpg
1176.072	0.756	correct	test	Phase2	test/STIM_006.jpg
1180.005	0.928	correct	test	Phase2	test/STIM_006.jpg
1184.515	0.911	correct	test	Phase2	test/STIM_007.jpg
1187.549	1.324	correct	test	Phase2	test/STIM_007.jpg
1190.901	1.061	correct	test	Phase2	test/STIM_007.jpg
1195.766	0.887	correct	test	Phase2	test/STIM_008.jpg
1199.622	1.01	correct	test	Phase2	test/STIM_008.jpg
1203.929	1.22	correct	test	Phase2	test/STIM_008.jpg
1209.006	0.909	correct	test	Phase2	test/STIM_009.jpg
1212.581	1.157	correct	test	Phase2	test/STIM_009.jpg
1217.643	1.267	correct	test	Phase2	test/STIM_009.jpg
1222.423	1.33	correct	test	Phase2	test/STIM_010.jpg
1226.573	0.874	correct	test	Phase2	test/STIM_010.jpg
1229.39	1.007	correct	test	Phase2	test/STIM_010.jpg
1233.407	1.357	correct	test	Phase2	test/STIM_011.jpg
1237.012	0.954	incorrect	test	Phase2	test/STIM_011.jpg
1240.592	1.307	correct	test	Phase2	test/STIM_011.jpg
1244.895	1.303	correct	test	Phase2	test/STIM_012.jpg
1248.356	1.159	correct	test	Phase2	test/STIM_012.jpg
1252.045	0.741	correct	test	Phase2	test/STIM_012.jpg
1255.391	0.712	correct	test	Phase2	test/STIM_013.jpg
1259.706	0.745	correct	test	Phase2	test/STIM_013.jpg
1264.175	0.676	correct	test	Phase2	test/STIM_013.jpg
1268.037	0.874	correct	test	Phase2	test/STIM_014.jpg
1270.881	0.84	correct	test	Phase2	test/STIM_014.jpg
1274.87	0.761	correct	test	Phase2	test/STIM_014.jpg
1278.767	0.884	correct	test	Phase2	test/STIM_015.jpg
1281.65	0.614	correct	test	Phase2	test/STIM_015.jpg
1284.904	1.253	correct	test	Phase2	test/STIM_015.jpg
1288.968	1.064	correct	test	Phase2	test/STIM_016.jpg
1292.474	0.786	correct	test	Phase2	test/STIM_016.jpg
1295.813	1.063	correct	test	Phase2	test/STIM_016.jpg
1299.711	1.106	correct	test	Phase2	test/STIM_017.jpg
1304.225	1.171	correct	test	Phase2	test/STIM_017.jpg
1308.677	1.206	correct	test	Phase2	test/STIM_017.jpg
1312.714	1.174	correct	test	Phase2	test/STIM_018.jpg
1315.991	1.286	correct	test	Phase2	test/STIM_018.jpg
1320.712	1.249	correct	test	Phase2	test/STIM_018.jpg
1323.951	1.046	correct	test	Phase2	test/STIM_019.jpg
1327.63	0.742	correct	test	Phase2	test/STIM_019.jpg
1331.252	0.712	correct	test	Phase2	test/STIM_019.jpg
1335.401	1.194	correct	test	Phase2	test/STIM_020.jpg
1339.357	1.353	correct	test	Phase2	test/STIM_020.jpg
1343.217	0.733	correct	test	Phase2	test/STIM_020.jpg
1346.732	1.04	correct	test	Phase2	test/STIM_021.jpg
1351.235	0.927	correct	test	Phase2	test/STIM_021.jpg
1355.909	0.852	correct	test	Phase2	test/STIM_021.jpg
1358.961	1.321	correct	test	Phase2	test/STIM_022.jpg
1362.694	0.644	correct	test	Phase2	test/STIM_022.jpg
1367.027	0.977	correct	test	Phase2	test/STIM_022.jpg
1371.112	1.134	correct	test	Phase2	test/STIM_023.jpg
1374.746	0.909	correct	test	Phase2	test/STIM_023.jpg
1379.396	1.408	correct	test	Phase2	test/STIM_023.jpg
1382.935	1.274	correct	test	Phase2	test/STIM_024.jpg
1388.093	0.97	correct	test	Phase2	test/STIM_024.jpg
1392.083	0.85	correct	test	Phase2	test/STIM_024.jpg
1396.699	1.245	correct	test	Phase2	test/STIM_025.jpg
1401.415	1.127	correct	test	Phase2	test/STIM_025.jpg
1404.961	1.342	correct	test	Phase2	test/STIM_025.jpg
1409.258	1.146	correct	test	Phase2	test/STIM_026.jpg
1413.233	0.751	correct	test	Phase2	test/STIM_026.jpg
1417.291	1.305	correct	test	Phase2	test/STIM_026.jpg
1420.944	1.149	correct	test	Phase2	test/STIM_027.jpg
1425.495	1.332	correct	test	Phase2	test/STIM_027.jpg
1430.207	0.785	correct	test	Phase2	test/STIM_027.jpg
1433.684	1.01	correct	test	Phase2	test/STIM_028.jpg
1438.391	0.672	correct	test	Phase2	test/STIM_028.jpg
1441.8	0.8	correct	test	Phase2	test/STIM_028.jpg
1446.409	1.361	correct	test	Phase2	test/STIM_029.jpg
1451.359	1.041	correct	test	Phase2	test/STIM_029.jpg
1455.376	0.991	correct	test	Phase2	test/STIM_029.jpg
1458.804	0.868	correct	study	Phase3	study/STIM_000.jpg
1463.541	0.953	correct	study	Phase3	study/STIM_000.jpg
1467.913	0.732	correct	study	Phase3	study/STIM_000.jpg
1472.448	1.0	correct	study	Phase3	study/STIM_001.jpg
1475.77	0.628	correct	study	Phase3	study/STIM_001.jpg
1480.077	1.39	correct	study	Phase3	study/STIM_001.jpg
1485.205	1.178	correct	study	Phase3	study/STIM_002.jpg
1489.482	0.824	correct	study	Phase3	study/STIM_002.jpg
1493.174	0.969	correct	study	Phase3	study/STIM_002.jpg
1497.241	0.936	correct	study	Phase3	study/STIM_003.jpg
1501.894	0.902	correct	study	Phase3	study/STIM_003.jpg
1505.044	0.584	correct	study	Phase3	study/STIM_003.jpg
1509.015	0.683	correct	study	Phase3	study/STIM_004.jpg
1512.075	0.735	correct	study	Phase3	study/STIM_004.jpg
1514.806	1.161	correct	study	Phase3	study/STIM_004.jpg
1519.135	0.646	correct	study	Phase3	study/STIM_005.jpg
1522.778	1.319	correct	study	Phase3	study/STIM_005.jpg
1527.469	0.914	correct	study	Phase3	study/STIM_005.jpg
1531.249	0.726	correct	study	Phase3	study/STIM_006.jpg
1534.345	1.083	correct	study	Phase3	study/STIM_006.jpg
1539.323	0.645	correct	study	Phase3	study/STIM_006.jpg
1543.637	1.34	correct	study	Phase3	study/STIM_007.jpg
1548.33	0.884	correct	study	Phase3	study/STIM_007.jpg
1552.035	0.665	correct	study	Phase3	study/STIM_007.jpg
1554.904	0.952	correct	study	Phase3	study/STIM_008.jpg
1558.952	1.16	correct	study	Phase3	study/STIM_008.jpg
1563.086	0.876	correct	study	Phase3	study/STIM_008.jpg
1567.371	1.188	correct	study	Phase3	study/STIM_009.jpg
1571.182	0.714	correct	study	Phase3	study/STIM_009.jpg
1574.364	1.178	correct	study	Phase3	study/STIM_009.jpg
1578.417	1.226	correct	study	Phase3	study/STIM_010.jpg
1582.388	0.844	correct	study	Phase3	study/STIM_010.jpg
1585.562	1.048	correct	study	Phase3	study/STIM_010.jpg
1590.271	1.097	correct	study	Phase3	study/STIM_011.jpg
1594.089	0.663	correct	study	Phase3	study/STIM_011.jpg
1597.769	0.812	correct	study	Phase3	study/STIM_011.jpg
1600.817	1.076	correct	study	Phase3	study/STIM_012.jpg
1604.974	0.939	correct	study	Phase3	study/STIM_012.jpg
1609.604	1.28	correct	study	Phase3	study/STIM_012.jpg
1612.803	0.836	correct	study	Phase3	study/STIM_013.jpg
1616.777	1.029	correct	study	Phase3	study/STIM_013.jpg
1621.086	0.788	correct	study	Phase3	study/STIM_013.jpg
1624.452	1.145	correct	study	Phase3	study/STIM_014.jpg
1628.324	1.084	correct	study	Phase3	study/STIM_014.jpg
1632.968	1.12	correct	study	Phase3	study/STIM_014.jpg
1636.677	1.01	correct	study	Phase3	study/STIM_015.jpg
1640.52	1.123	correct	study	Phase3	study/STIM_015.jpg
1643.973	0.706	incorrect	study	Phase3	study/STIM_015.jpg
1647.285	1.126	correct	study	Phase3	study/STIM_016.jpg
1650.774	1.317	correct	study	Phase3	study/STIM_016.jpg
1655.839	1.106	correct	study	Phase3	study/STIM_016.jpg
1659.064	0.802	correct	study	Phase3	study/STIM_017.jpg
1663.21	0.771	correct	study	Phase3	study/STIM_017.jpg
1666.689	1.125	correct	study	Phase3	study/STIM_017.jpg
1670.17	0.854	correct	study	Phase3	study/STIM_018.jpg
1673.666	1.134	correct	study	Phase3	study/STIM_018.jpg
1677.463	1.181	correct	study	Phase3	study/STIM_018.jpg
1682.493	1.235	correct	study	Phase3	study/STIM_019.jpg
1686.326	0.869	correct	study	Phase3	study/STIM_019.jpg
1690.339	1.067	correct	study	Phase3	study/STIM_019.jpg
1693.586	1.242	correct	study	Phase3	study/STIM_020.jpg
1697.884	1.255	correct	study	Phase3	study/STIM_020.jpg
1701.47	0.904	correct	study	Phase3	study/STIM_020.jpg
1704.441	1.358	correct	study	Phase3	study/STIM_021.jpg
1709.064	0.902	correct	study	Phase3	study/STIM_021.jpg
1713.828	1.25	correct	study	Phase3	study/STIM_021.jpg
1717.442	0.599	correct	study	Phase3	study/STIM_022.jpg
1720.598	0.926	correct	study	Phase3	study/STIM_022.jpg
1724.663	1.191	correct	study	Phase3	study/STIM_022.jpg
1728.796	1.264	correct	study	Phase3	study/STIM_023.jpg
1733.692	0.805	correct	study	Phase3	study/STIM_023.jpg
1738.167	1.027	correct	study	Phase3	study/STIM_023.jpg
1743.014	0.577	correct	study	Phase3	study/STIM_024.jpg
1746.361	1.041	correct	study	Phase3	study/STIM_024.jpg
1749.92	0.967	correct	study	Phase3	study/STIM_024.jpg
1753.139	1.215	correct	study	Phase3	study/STIM_025.jpg
1758.168	0.794	correct	study	Phase3	study/STIM_025.jpg
1761.979	0.723	correct	study	Phase3	study/STIM_025.jpg
1764.676	1.067	correct	study	Phase3	study/STIM_026.jpg
1768.501	0.601	correct	study	Phase3	study/STIM_026.jpg
1772.277	0.884	correct	study	Phase3	study/STIM_026.jpg
1775.642	0.904	correct	study	Phase3	study/STIM_027.jpg
1778.717	1.217	correct	study	Phase3	study/STIM_027.jpg
1782.091	0.89	correct	study	Phase3	study/STIM_027.jpg
1785.95	1.083	correct	study	Phase3	study/STIM_028.jpg
1789.565	1.158	correct	study	Phase3	study/STIM_028.jpg
1794.409	0.606	correct	study	Phase3	study/STIM_028.jpg
1797.755	1.184	correct	study	Phase3	study/STIM_029.jpg
1800.876	0.74	incorrect	study	Phase3	study/STIM_029.jpg
1804.212	0.877	correct	study	Phase3	study/STIM_029.jpg
1808.712	1.196	correct	test	Phase3	test/STIM_000.jpg
1812.595	1.016	correct	test	Phase3	test/STIM_000.jpg
1817.211	0.767	correct	test	Phase3	test/STIM_000.jpg
1821.275	0.738	correct	test	Phase3	test/STIM_001.jpg
1825.734	0.725	correct	test	Phase3	test/STIM_001.jpg
1829.378	1.074	correct	test	Phase3	test/STIM_001.jpg
1833.839	0.979	correct	test	Phase3	test/STIM_002.jpg
1836.906	1.28	correct	test	Phase3	test/STIM_002.jpg
1841.7	0.924	correct	test	Phase3	test/STIM_002.jpg
1846.34	1.349	correct	test	Phase3	test/STIM_003.jpg
1849.962	1.273	correct	test	Phase3	test/STIM_003.jpg
1853.489	1.255	correct	test	Phase3	test/STIM_003.jpg
1856.774	0.702	correct	test	Phase3	test/STIM_004.jpg
1860.711	0.833	incorrect	test	Phase3	test/STIM_004.jpg
1864.208	1.045	correct	test	Phase3	test/STIM_004.jpg
1869.142	0.778	correct	test	Phase3	test/STIM_005.jpg
1872.241	1.226	correct	test	Phase3	test/STIM_005.jpg
1875.543	1.26	correct	test	Phase3	test/STIM_005.jpg
1879.562	1.14	correct	test	Phase3	test/STIM_006.jpg
1884.36	0.925	incorrect	test	Phase3	test/STIM_006.jpg
1888.151	0.902	correct	test	Phase3	test/STIM_006.jpg
1891.331	0.703	correct	test	Phase3	test/STIM_007.jpg
1895.35	0.814	correct	test	Phase3	test/STIM_007.jpg
1899.98	0.827	incorrect	test	Phase3	test/STIM_007.jpg
1904.233	0.841	correct	test	Phase3	test/STIM_008.jpg
1908.62	0.995	correct	test	Phase3	test/STIM_008.jpg
1912.925	1.093	correct	test	Phase3	test/STIM_008.jpg
1916.654	0.858	correct	test	Phase3	test/STIM_009.jpg
1919.539	0.711	correct	test	Phase3	test/STIM_009.jpg
1923.526	1.09	incorrect	test	Phase3	test/STIM_009.jpg
1928.287	1.007	correct	test	Phase3	test/STIM_010.jpg
1931.942	1.243	correct	test	Phase3	test/STIM_010.jpg
1935.705	1.073	correct	test	Phase3	test/STIM_010.jpg
1938.976	1.17	incorrect	test	Phase3	test/STIM_011.jpg
1942.094	1.288	correct	test	Phase3	test/STIM_011.jpg
1947.112	1.098	correct	test	Phase3	test/STIM_011.jpg
1951.211	1.1	correct	test	Phase3	test/STIM_012.jpg
1954.791	1.289	correct	test	Phase3	test/STIM_012.jpg
1959.344	1.271	correct	test	Phase3	test/STIM_012.jpg
1964.502	1.176	correct	test	Phase3	test/STIM_013.jpg
1969.408	1.036	correct	test	Phase3	test/STIM_013.jpg
1973.48	0.772	correct	test	Phase3	test/STIM_013.jpg
1977.847	0.558	correct	test	Phase3	test/STIM_014.jpg
1980.463	0.992	correct	test	Phase3	test/STIM_014.jpg
1984.951	1.382	correct	test	Phase3	test/STIM_014.jpg
1988.722	1.361	correct	test	Phase3	test/STIM_015.jpg
1993.118	1.169	correct	test	Phase3	test/STIM_015.jpg
1997.63	0.919	correct	test	Phase3	test/STIM_015.jpg
2000.568	0.973	correct	test	Phase3	test/STIM_016.jpg
2003.772	0.748	correct	test	Phase3	test/STIM_016.jpg
2007.698	1.181	correct	test	Phase3	test/STIM_016.jpg
2011.552	1.133	correct	test	Phase3	test/STIM_017.jpg
2014.906	1.162	correct	test	Phase3	test/STIM_017.jpg
2018.186	1.266	correct	test	Phase3	test/STIM_017.jpg
2021.456	0.626	correct	test	Phase3	test/STIM_018.jpg
2024.789	0.998	correct	test	Phase3	test/STIM_018.jpg
2028.281	1.26	incorrect	test	Phase3	test/STIM_018.jpg
2031.61	0.834	correct	test	Phase3	test/STIM_019.jpg
2035.236	0.783	incorrect	test	Phase3	test/STIM_019.jpg
2039.667	1.35	correct	test	Phase3	test/STIM_019.jpg
2043.727	1.072	correct	test	Phase3	test/STIM_020.jpg
2047.544	1.31	correct	test	Phase3	test/STIM_020.jpg
2051.678	1.033	correct	test	Phase3	test/STIM_020.jpg
2056.32	0.592	correct	test	Phase3	test/STIM_021.jpg
2059.889	0.886	correct	test	Phase3	test/STIM_021.jpg
2064.362	1.136	correct	test	Phase3	test/STIM_021.jpg
2068.019	1.337	correct	test	Phase3	test/STIM_022.jpg
2071.955	1.19	correct	test	Phase3	test/STIM_022.jpg
2076.648	1.059	correct	test	Phase3	test/STIM_022.jpg
2080.932	1.18	correct	test	Phase3	test/STIM_023.jpg
2084.042	0.94	correct	test	Phase3	test/STIM_023.jpg
2088.699	1.294	correct	test	Phase3	test/STIM_023.jpg
2093.456	1.004	correct	test	Phase3	test/STIM_024.jpg
2096.773	0.935	correct	test	Phase3	test/STIM_024.jpg
2099.669	1.16	correct	test	Phase3	test/STIM_024.jpg
2103.573	1.036	correct	test	Phase3	test/STIM_025.jpg
2108.038	0.838	correct	test	Phase3	test/STIM_025.jpg
2112.198	1.054	correct	test	Phase3	test/STIM_025.jpg
2115.812	1.302	correct	test	Phase3	test/STIM_026.jpg
2121.014	1.156	correct	test	Phase3	test/STIM_026.jpg
2124.583	1.21	correct	test	Phase3	test/STIM_026.jpg
2129.065	1.052	correct	test	Phase3	test/STIM_027.jpg
2133.718	1.29	correct	test	Phase3	test/STIM_027.jpg
2138.135	0.909	correct	test	Phase3	test/STIM_027.jpg
2142.656	0.856	correct	test	Phase3	test/STIM_028.jpg
2145.833	1.142	correct	test	Phase3	test/STIM_028.jpg
2149.401	0.913	correct	test	Phase3	test/STIM_028.jpg
2153.752	0.909	correct	test	Phase3	test/STIM_029.jpg
2156.706	0.773	correct	test	Phase3	test/STIM_029.jpg
2159.624	1.276	correct	test	Phase3	test/STIM_029.jpg
