onset	duration	response_time_ms	trial_type	learning_stage	stimulus	response_port
0.0	1.497	1497.1	study	Phase1	study/STIM_000.jpg	100
5.379	1.154	1153.7	study	Phase1	study/STIM_000.jpg	99
10.103	1.378	1377.8	study	Phase1	study/STIM_000.jpg	99
13.84	1.197	1196.8	study	Phase1	study/STIM_001.jpg	100
18.543	1.445	1445.0	study	Phase1	study/STIM_001.jpg	100
22.924	1.229	1229.1	study	Phase1	study/STIM_001.jpg	99
26.251	1.56	1560.0	study	Phase1	study/STIM_002.jpg	100
30.206	1.002	1002.0	study	Phase1	study/STIM_002.jpg	100
34.27	0.724	723.6	study	Phase1	study/STIM_002.jpg	99
38.619	0.88	880.4	study	Phase1	study/STIM_003.jpg	99
42.406	1.181	1181.3	study	Phase1	study/STIM_003.jpg	100
46.482	1.351	1350.8	study	Phase1	study/STIM_003.jpg	99
50.059	0.903	902.8	study	Phase1	study/STIM_004.jpg	100
53.756	1.384	1384.3	study	Phase1	study/STIM_004.jpg	99
57.916	0.825	824.8	study	Phase1	study/STIM_004.jpg	99
61.892	1.155	1155.0	study	Phase1	study/STIM_005.jpg	99
65.388	1.312	1312.0	study	Phase1	study/STIM_005.jpg	99
69.216	1.097	1097.3	study	Phase1	study/STIM_005.jpg	99
72.98	1.317	1317.0	study	Phase1	study/STIM_006.jpg	99
77.509	0.798	797.9	study	Phase1	study/STIM_006.jpg	99
81.738	1.349	1349.4	study	Phase1	study/STIM_006.jpg	100
86.267	1.18	1180.0	study	Phase1	study/STIM_007.jpg	99
91.361	1.165	1165.1	study	Phase1	study/STIM_007.jpg	99
95.693	1.137	1137.2	study	Phase1	study/STIM_007.jpg	100
99.248	0.759	758.8	study	Phase1	study/STIM_008.jpg	100
103.027	1.058	1058.3	study	Phase1	study/STIM_008.jpg	100
108.046	0.977	977.3	study	Phase1	study/STIM_008.jpg	99
111.291	0.8	800.5	study	Phase1	study/STIM_009.jpg	99
115.232	1.4	1399.7	study	Phase1	study/STIM_009.jpg	99
119.776	0.895	895.2	study	Phase1	study/STIM_009.jpg	99
122.694	0.878	878.3	study	Phase1	study/STIM_010.jpg	99
125.806	1.602	1601.7	study	Phase1	study/STIM_010.jpg	100
129.669	0.849	848.9	study	Phase1	study/STIM_010.jpg	100
132.645	1.569	1569.4	study	Phase1	study/STIM_011.jpg	99
136.708	1.121	1121.2	study	Phase1	study/STIM_011.jpg	99
141.111	1.031	1031.4	study	Phase1	study/STIM_011.jpg	100
144.556	1.373	1372.7	study	Phase1	study/STIM_012.jpg	100
148.288	1.336	1335.5	study	Phase1	study/STIM_012.jpg	99
153.341	0.78	779.5	study	Phase1	study/STIM_012.jpg	100
157.468	0.864	863.8	study	Phase1	study/STIM_013.jpg	100
161.214	1.565	1565.0	study	Phase1	study/STIM_013.jpg	100
166.065	1.004	1004.3	study	Phase1	study/STIM_013.jpg	100
169.729	1.664	1663.6	study	Phase1	study/STIM_014.jpg	99
173.934	1.438	1438.2	study	Phase1	study/STIM_014.jpg	100
177.877	1.051	1050.8	study	Phase1	study/STIM_014.jpg	99
181.518	0.77	769.7	study	Phase1	study/STIM_015.jpg	99
184.851	1.115	1115.3	study	Phase1	study/STIM_015.jpg	99
189.713	1.279	1278.7	study	Phase1	study/STIM_015.jpg	100
194.292	1.372	1372.3	study	Phase1	study/STIM_016.jpg	100
197.671	0.94	939.9	study	Phase1	study/STIM_016.jpg	100
202.475	1.292	1292.0	study	Phase1	study/STIM_016.jpg	99
205.95	1.24	1240.4	study	Phase1	study/STIM_017.jpg	99
209.552	1.444	1444.2	study	Phase1	study/STIM_017.jpg	100
213.934	1.477	1477.2	study	Phase1	study/STIM_017.jpg	99
219.367	1.694	1693.9	study	Phase1	study/STIM_018.jpg	100
223.401	1.001	1001.0	study	Phase1	study/STIM_018.jpg	100
227.021	0.918	918.2	study	Phase1	study/STIM_018.jpg	99
230.246	1.448	1447.6	study	Phase1	study/STIM_019.jpg	100
234.886	1.539	1539.0	study	Phase1	study/STIM_019.jpg	99
238.796	1.233	1233.4	study	Phase1	study/STIM_019.jpg	99
243.405	1.057	1056.7	study	Phase1	study/STIM_020.jpg	99
248.374	1.546	1545.6	study	Phase1	study/STIM_020.jpg	100
253.612	1.064	1064.0	study	Phase1	study/STIM_020.jpg	99
256.989	1.158	1157.8	study	Phase1	study/STIM_021.jpg	100
260.192	1.116	1115.8	study	Phase1	study/STIM_021.jpg	99
264.668	1.219	1219.4	study	Phase1	study/STIM_021.jpg	99
267.924	1.281	1281.1	study	Phase1	study/STIM_022.jpg	99
272.287	1.008	1008.0	study	Phase1	study/STIM_022.jpg	100
277.071	1.08	1079.7	study	Phase1	study/STIM_022.jpg	99
281.322	1.392	1391.7	study	Phase1	study/STIM_023.jpg	99
286.032	1.074	1074.5	study	Phase1	study/STIM_023.jpg	99
290.713	0.997	997.2	study	Phase1	study/STIM_023.jpg	100
293.901	1.619	1618.7	study	Phase1	study/STIM_024.jpg	100
298.816	1.088	1088.1	study	Phase1	study/STIM_024.jpg	99
303.263	0.737	736.7	study	Phase1	study/STIM_024.jpg	100
307.544	1.537	1537.1	study	Phase1	study/STIM_025.jpg	100
312.876	1.306	1306.0	study	Phase1	study/STIM_025.jpg	100
317.153	1.14	1140.3	study	Phase1	study/STIM_025.jpg	99
322.093	1.178	1178.3	study	Phase1	study/STIM_026.jpg	99
326.057	1.065	1065.3	study	Phase1	study/STIM_026.jpg	100
329.66	1.411	1411.3	study	Phase1	study/STIM_026.jpg	100
334.426	0.918	918.4	study	Phase1	study/STIM_027.jpg	100
337.468	0.96	959.6	study	Phase1	study/STIM_027.jpg	99
342.198	0.868	867.9	study	Phase1	study/STIM_027.jpg	99
346.006	1.58	1580.0	study	Phase1	study/STIM_028.jpg	100
350.612	1.319	1319.1	study	Phase1	study/STIM_028.jpg	99
353.95	1.022	1022.0	study	Phase1	study/STIM_028.jpg	100
358.453	1.268	1267.7	study	Phase1	study/STIM_029.jpg	99
362.416	1.184	1184.3	study	Phase1	study/STIM_029.jpg	100
366.437	1.286	1286.5	study	Phase1	study/STIM_029.jpg	100
370.033	0.865	864.8	test	Phase1	test/STIM_000.jpg	99
374.273	0.732	731.6	test	Phase1	test/STIM_000.jpg	99
378.76	0.843	842.8	test	Phase1	test/STIM_000.jpg	100
383.589	0.636	636.5	test	Phase1	test/STIM_001.jpg	99
388.126	1.2	1199.7	test	Phase1	test/STIM_001.jpg	99
391.356	0.673	672.9	test	Phase1	test/STIM_001.jpg	99
394.389	0.898	898.5	test	Phase1	test/STIM_002.jpg	100
397.328	0.966	965.9	test	Phase1	test/STIM_002.jpg	100
402.019	0.754	753.8	test	Phase1	test/STIM_002.jpg	99
406.121	0.713	712.8	test	Phase1	test/STIM_003.jpg	100
409.652	0.758	757.6	test	Phase1	test/STIM_003.jpg	99
414.01	0.868	868.5	test	Phase1	test/STIM_003.jpg	100
418.087	1.113	1113.1	test	Phase1	test/STIM_004.jpg	100
421.751	0.742	741.6	test	Phase1	test/STIM_004.jpg	99
425.391	0.857	857.3	test	Phase1	test/STIM_004.jpg	100
429.686	0.708	707.7	test	Phase1	test/STIM_005.jpg	100
433.219	0.717	717.0	test	Phase1	test/STIM_005.jpg	100
436.679	0.863	863.1	test	Phase1	test/STIM_005.jpg	99
439.949	0.669	669.4	test	Phase1	test/STIM_006.jpg	100
443.486	0.839	838.8	test	Phase1	test/STIM_006.jpg	99
447.321	0.933	932.7	test	Phase1	test/STIM_006.jpg	99
451.667	0.684	683.7	test	Phase1	test/STIM_007.jpg	99
455.972	1.192	1192.4	test	Phase1	test/STIM_007.jpg	99
460.16	0.708	708.0	test	Phase1	test/STIM_007.jpg	100
463.519	0.661	661.4	test	Phase1	test/STIM_008.jpg	99
467.248	0.662	661.5	test	Phase1	test/STIM_008.jpg	99
471.526	0.683	682.9	test	Phase1	test/STIM_008.jpg	99
474.882	0.953	953.4	test	Phase1	test/STIM_009.jpg	100
478.01	0.714	713.8	test	Phase1	test/STIM_009.jpg	100
481.58	1.002	1001.5	test	Phase1	test/STIM_009.jpg	100
484.605	0.909	909.4	test	Phase1	test/STIM_010.jpg	100
489.44	0.956	956.0	test	Phase1	test/STIM_010.jpg	99
493.543	1.18	1179.6	test	Phase1	test/STIM_010.jpg	100
497.369	0.723	723.2	test	Phase1	test/STIM_011.jpg	100
501.101	1.058	1058.1	test	Phase1	test/STIM_011.jpg	100
504.294	1.045	1044.6	test	Phase1	test/STIM_011.jpg	99
507.918	1.005	1005.3	test	Phase1	test/STIM_012.jpg	100
512.702	1.125	1125.0	test	Phase1	test/STIM_012.jpg	99
517.21	1.15	1150.2	test	Phase1	test/STIM_012.jpg	99
520.986	1.064	1064.5	test	Phase1	test/STIM_013.jpg	100
524.828	1.139	1138.6	test	Phase1	test/STIM_013.jpg	99
528.774	0.708	708.4	test	Phase1	test/STIM_013.jpg	99
532.051	0.683	682.8	test	Phase1	test/STIM_014.jpg	99
535.238	0.867	866.6	test	Phase1	test/STIM_014.jpg	100
540.068	0.825	824.9	test	Phase1	test/STIM_014.jpg	100
543.073	0.957	956.8	test	Phase1	test/STIM_015.jpg	99
546.867	0.852	851.8	test	Phase1	test/STIM_015.jpg	99
550.752	0.9	900.0	test	Phase1	test/STIM_015.jpg	100
553.86	0.648	648.1	test	Phase1	test/STIM_016.jpg	100
557.727	0.696	696.3	test	Phase1	test/STIM_016.jpg	99
560.771	1.199	1199.4	test	Phase1	test/STIM_016.jpg	99
564.431	0.783	782.9	test	Phase1	test/STIM_017.jpg	100
568.198	0.579	579.4	test	Phase1	test/STIM_017.jpg	99
571.823	1.16	1160.3	test	Phase1	test/STIM_017.jpg	100
576.592	1.09	1089.8	test	Phase1	test/STIM_018.jpg	100
580.479	0.679	678.9	test	Phase1	test/STIM_018.jpg	100
583.684	0.934	934.0	test	Phase1	test/STIM_018.jpg	100
588.514	0.65	650.0	test	Phase1	test/STIM_019.jpg	99
591.625	1.077	1077.2	test	Phase1	test/STIM_019.jpg	100
594.988	1.133	1133.4	test	Phase1	test/STIM_019.jpg	99
599.439	0.941	940.8	test	Phase1	test/STIM_020.jpg	99
603.372	1.05	1050.3	test	Phase1	test/STIM_020.jpg	99
607.759	1.158	1158.4	test	Phase1	test/STIM_020.jpg	100
611.198	1.04	1040.0	test	Phase1	test/STIM_021.jpg	99
615.045	0.657	657.0	test	Phase1	test/STIM_021.jpg	99
617.955	0.881	881.4	test	Phase1	test/STIM_021.jpg	99
621.353	0.884	884.2	test	Phase1	test/STIM_022.jpg	99
625.611	1.122	1122.4	test	Phase1	test/STIM_022.jpg	100
630.269	0.593	593.2	test	Phase1	test/STIM_022.jpg	99
633.268	0.832	832.1	test	Phase1	test/STIM_023.jpg	100
636.793	0.999	999.0	test	Phase1	test/STIM_023.jpg	99
640.964	0.802	802.5	test	Phase1	test/STIM_023.jpg	100
644.451	0.622	621.9	test	Phase1	test/STIM_024.jpg	100
647.328	0.614	614.3	test	Phase1	test/STIM_024.jpg	99
650.546	0.996	996.2	test	Phase1	test/STIM_024.jpg	100
654.325	0.74	739.7	test	Phase1	test/STIM_025.jpg	100
657.886	1.042	1042.5	test	Phase1	test/STIM_025.jpg	100
662.815	0.594	594.1	test	Phase1	test/STIM_025.jpg	100
666.578	1.174	1174.5	test	Phase1	test/STIM_026.jpg	100
670.9	1.131	1130.6	test	Phase1	test/STIM_026.jpg	99
675.783	0.579	579.0	test	Phase1	test/STIM_026.jpg	100
680.228	1.001	1000.7	test	Phase1	test/STIM_027.jpg	100
683.318	1.174	1174.5	test	Phase1	test/STIM_027.jpg	100
686.551	1.022	1022.3	test	Phase1	test/STIM_027.jpg	100
689.822	0.708	708.0	test	Phase1	test/STIM_028.jpg	100
693.679	0.978	977.5	test	Phase1	test/STIM_028.jpg	99
698.29	1.135	1135.4	test	Phase1	test/STIM_028.jpg	100
701.451	1.026	1025.9	test	Phase1	test/STIM_029.jpg	100
705.608	0.995	995.4	test	Phase1	test/STIM_029.jpg	100
710.438	0.655	655.0	test	Phase1	test/STIM_029.jpg	100
713.101	1.384	1384.0	study	Phase2	study/STIM_000.jpg	100
716.675	0.856	855.7	study	Phase2	study/STIM_000.jpg	100
719.959	0.981	980.7	study	Phase2	study/STIM_000.jpg	99
723.009	0.898	898.5	study	Phase2	study/STIM_001.jpg	100
727.286	1.152	1151.7	study	Phase2	study/STIM_001.jpg	100
731.06	0.637	637.0	study	Phase2	study/STIM_001.jpg	100
735.361	1.429	1428.7	study	Phase2	study/STIM_002.jpg	100
738.809	0.71	710.0	study	Phase2	study/STIM_002.jpg	100
742.676	0.62	619.6	study	Phase2	study/STIM_002.jpg	99
746.026	1.374	1374.3	study	Phase2	study/STIM_003.jpg	100
750.911	1.062	1062.4	study	Phase2	study/STIM_003.jpg	100
755.249	1.012	1011.6	study	Phase2	study/STIM_003.jpg	100
760.234	1.23	1229.6	study	Phase2	study/STIM_004.jpg	100
765.208	0.767	767.1	study	Phase2	study/STIM_004.jpg	99
768.941	0.93	930.4	study	Phase2	study/STIM_004.jpg	100
772.759	1.1	1100.0	study	Phase2	study/STIM_005.jpg	99
775.936	1.069	1068.8	study	Phase2	study/STIM_005.jpg	100
779.319	0.987	987.3	study	Phase2	study/STIM_005.jpg	100
782.635	0.741	741.0	study	Phase2	study/STIM_006.jpg	100
786.163	0.776	776.0	study	Phase2	study/STIM_006.jpg	99
790.275	0.998	998.0	study	Phase2	study/STIM_006.jpg	99
793.449	1.359	1359.0	study	Phase2	study/STIM_007.jpg	99
797.434	0.953	953.4	study	Phase2	study/STIM_007.jpg	99
802.115	1.224	1224.4	study	Phase2	study/STIM_007.jpg	99
807.067	1.269	1269.1	study	Phase2	study/STIM_008.jpg	99
810.828	1.04	1040.0	study	Phase2	study/STIM_008.jpg	100
815.516	0.57	570.2	study	Phase2	study/STIM_008.jpg	100
818.765	0.901	900.9	study	Phase2	study/STIM_009.jpg	100
823.368	1.064	1064.3	study	Phase2	study/STIM_009.jpg	99
826.962	0.934	934.3	study	Phase2	study/STIM_009.jpg	99
829.919	1.089	1088.8	study	Phase2	study/STIM_010.jpg	99
834.192	1.16	1160.3	study	Phase2	study/STIM_010.jpg	100
837.486	0.649	648.9	study	Phase2	study/STIM_010.jpg	100
840.685	0.706	705.9	study	Phase2	study/STIM_011.jpg	100
844.499	0.852	852.5	study	Phase2	study/STIM_011.jpg	100
848.639	0.802	802.1	study	Phase2	study/STIM_011.jpg	99
852.739	1.154	1153.5	study	Phase2	study/STIM_012.jpg	100
855.915	1.13	1130.2	study	Phase2	study/STIM_012.jpg	100
860.93	1.146	1145.6	study	Phase2	study/STIM_012.jpg	99
864.58	0.805	805.4	study	Phase2	study/STIM_013.jpg	99
868.339	0.828	827.8	study	Phase2	study/STIM_013.jpg	99
871.498	1.259	1258.7	study	Phase2	study/STIM_013.jpg	99
876.62	1.375	1375.1	study	Phase2	study/STIM_014.jpg	99
881.445	0.934	933.5	study	Phase2	study/STIM_014.jpg	99
885.06	0.78	779.7	study	Phase2	study/STIM_014.jpg	100
888.836	1.107	1107.0	study	Phase2	study/STIM_015.jpg	100
892.677	0.668	667.6	study	Phase2	study/STIM_015.jpg	100
895.851	0.619	619.0	study	Phase2	study/STIM_015.jpg	100
900.096	0.673	673.2	study	Phase2	study/STIM_016.jpg	100
903.314	1.262	1262.4	study	Phase2	study/STIM_016.jpg	99
907.188	0.933	933.0	study	Phase2	study/STIM_016.jpg	99
911.249	0.734	733.9	study	Phase2	study/STIM_017.jpg	100
914.834	0.867	867.2	study	Phase2	study/STIM_017.jpg	99
918.429	1.156	1156.4	study	Phase2	study/STIM_017.jpg	100
923.025	0.728	728.2	study	Phase2	study/STIM_018.jpg	99
927.225	0.764	764.1	study	Phase2	study/STIM_018.jpg	100
930.621	1.258	1257.5	study	Phase2	study/STIM_018.jpg	99
934.791	0.666	666.1	study	Phase2	study/STIM_019.jpg	99
938.6	1.324	1324.1	study	Phase2	study/STIM_019.jpg	99
943.562	0.954	953.8	study	Phase2	study/STIM_019.jpg	100
947.146	1.104	1103.8	study	Phase2	study/STIM_020.jpg	100
951.968	0.777	776.7	study	Phase2	study/STIM_020.jpg	99
955.147	1.22	1219.6	study	Phase2	study/STIM_020.jpg	99
959.916	0.957	957.1	study	Phase2	study/STIM_021.jpg	99
963.802	0.796	795.6	study	Phase2	study/STIM_021.jpg	100
966.659	0.66	659.8	study	Phase2	study/STIM_021.jpg	99
970.822	0.981	981.3	study	Phase2	study/STIM_022.jpg	100
974.543	1.164	1163.7	study	Phase2	study/STIM_022.jpg	100
979.233	1.078	1078.1	study	Phase2	study/STIM_022.jpg	99
982.987	1.019	1019.0	study	Phase2	study/STIM_023.jpg	99
987.516	0.853	852.9	study	Phase2	study/STIM_023.jpg	99
991.167	1.26	1260.3	study	Phase2	study/STIM_023.jpg	99
995.652	0.989	989.4	study	Phase2	study/STIM_024.jpg	99
999.617	1.134	1134.5	study	Phase2	study/STIM_024.jpg	99
1004.496	0.771	771.0	study	Phase2	study/STIM_024.jpg	99
1009.14	0.946	945.5	study	Phase2	study/STIM_025.jpg	100
1013.669	0.849	849.1	study	Phase2	study/STIM_025.jpg	99
1016.789	0.773	772.7	study	Phase2	study/STIM_025.jpg	99
1021.184	0.821	820.6	study	Phase2	study/STIM_026.jpg	100
1025.892	1.003	1002.8	study	Phase2	study/STIM_026.jpg	100
1029.817	0.797	797.2	study	Phase2	study/STIM_026.jpg	99
1033.819	1.433	1433.2	study	Phase2	study/STIM_027.jpg	100
1038.977	1.276	1275.7	study	Phase2	study/STIM_027.jpg	99
1043.567	1.2	1200.2	study	Phase2	study/STIM_027.jpg	100
1048.691	0.976	975.6	study	Phase2	study/STIM_028.jpg	100
1053.086	1.322	1322.1	study	Phase2	study/STIM_028.jpg	99
1057.901	0.935	935.2	study	Phase2	study/STIM_028.jpg	100
1062.389	1.085	1085.1	study	Phase2	study/STIM_029.jpg	100
1066.12	0.968	967.7	study	Phase2	study/STIM_029.jpg	100
1069.898	0.707	706.9	study	Phase2	study/STIM_029.jpg	100
1073.627	1.051	1051.4	test	Phase2	test/STIM_000.jpg	100
1077.389	0.836	835.5	test	Phase2	test/STIM_000.jpg	100
1081.313	0.926	925.6	test	Phase2	test/STIM_000.jpg	99
1084.508	0.894	894.3	test	Phase2	test/STIM_001.jpg	100
1087.655	1.183	1182.8	test	Phase2	test/STIM_001.jpg	100
1092.156	0.832	832.0	test	Phase2	test/STIM_001.jpg	100
1096.264	1.075	1074.7	test	Phase2	test/STIM_002.jpg	100
1101.259	1.109	1108.6	test	Phase2	test/STIM_002.jpg	99
1104.712	0.746	745.5	test	Phase2	test/STIM_002.jpg	100
1107.999	1.132	1131.7	test	Phase2	test/STIM_003.jpg	99
1111.283	0.748	747.5	test	Phase2	test/STIM_003.jpg	99
1114.495	1.094	1093.8	test	Phase2	test/STIM_003.jpg	99
1117.6	0.85	850.2	test	Phase2	test/STIM_004.jpg	100
1120.678	1.013	1013.3	test	Phase2	test/STIM_004.jpg	100
1125.133	1.048	1047.8	test	Phase2	test/STIM_004.jpg	100
1130.089	1.104	1104.5	test	Phase2	test/STIM_005.jpg	100
1133.224	1.184	1183.6	test	Phase2	test/STIM_005.jpg	100
1138.082	0.628	628.1	test	Phase2	test/STIM_005.jpg	100
1142.63	1.015	1014.9	test	Phase2	test/STIM_006.jpg	100
1147.536	0.859	859.2	test	Phase2	test/STIM_006.jpg	100
1151.348	1.183	1182.9	test	Phase2	test/STIM_006.jpg	100
1155.533	1.02	1020.4	test	Phase2	test/STIM_007.jpg	99
1159.72	1.167	1167.1	test	Phase2	test/STIM_007.jpg	99
1163.016	0.832	832.3	test	Phase2	test/STIM_007.jpg	99
1166.507	0.921	921.2	test	Phase2	test/STIM_008.jpg	100
1171.121	0.651	650.7	test	Phase2	test/STIM_008.jpg	99
1174.95	0.918	918.1	test	Phase2	test/STIM_008.jpg	100
1179.667	1.179	1179.3	test	Phase2	test/STIM_009.jpg	99
1184.627	0.82	820.2	test	Phase2	test/STIM_009.jpg	100
1188.399	0.647	647.4	test	Phase2	test/STIM_009.jpg	99
1191.955	1.052	1051.8	test	Phase2	test/STIM_010.jpg	100
1195.044	0.633	632.9	test	Phase2	test/STIM_010.jpg	100
1199.057	0.788	787.6	test	Phase2	test/STIM_010.jpg	99
1203.242	1.032	1031.6	test	Phase2	test/STIM_011.jpg	99
1208.104	0.89	889.7	test	Phase2	test/STIM_011.jpg	99
1211.392	0.77	769.8	test	Phase2	test/STIM_011.jpg	100
1215.429	0.731	730.7	test	Phase2	test/STIM_012.jpg	100
1219.701	0.783	782.7	test	Phase2	test/STIM_012.jpg	99
1222.822	1.078	1078.5	test	Phase2	test/STIM_012.jpg	100
1226.808	0.901	901.4	test	Phase2	test/STIM_013.jpg	99
1230.976	1.102	1102.2	test	Phase2	test/STIM_013.jpg	99
1234.671	0.752	751.6	test	Phase2	test/STIM_013.jpg	100
1238.001	0.771	771.1	test	Phase2	test/STIM_014.jpg	99
1242.1	0.818	818.3	test	Phase2	test/STIM_014.jpg	100
1245.59	0.758	758.3	test	Phase2	test/STIM_014.jpg	100
1248.396	0.619	619.2	test	Phase2	test/STIM_015.jpg	99
1252.901	1.043	1043.2	test	Phase2	test/STIM_015.jpg	100
1257.637	1.05	1050.4	test	Phase2	test/STIM_015.jpg	100
1262.328	0.834	833.5	test	Phase2	test/STIM_016.jpg	100
1266.185	0.929	929.1	test	Phase2	test/STIM_016.jpg	100
1270.245	1.193	1193.4	test	Phase2	test/STIM_016.jpg	99
1275.189	1.096	1096.1	test	Phase2	test/STIM_017.jpg	99
1278.482	0.742	741.6	test	Phase2	test/STIM_017.jpg	100
1282.917	0.9	900.3	test	Phase2	test/STIM_017.jpg	99
1286.095	0.733	733.2	test	Phase2	test/STIM_018.jpg	100
1289.158	0.799	798.6	test	Phase2	test/STIM_018.jpg	100
1292.656	1.034	1034.5	test	Phase2	test/STIM_018.jpg	100
1296.801	0.632	632.5	test	Phase2	test/STIM_019.jpg	99
1300.174	0.995	995.0	test	Phase2	test/STIM_019.jpg	99
1303.588	1.151	1151.1	test	Phase2	test/STIM_019.jpg	100
1307.597	0.687	686.9	test	Phase2	test/STIM_020.jpg	99
1311.794	0.704	703.9	test	Phase2	test/STIM_020.jpg	99
1316.117	1.026	1026.2	test	Phase2	test/STIM_020.jpg	99
1320.026	1.04	1039.9	test	Phase2	test/STIM_021.jpg	99
1323.488	0.984	984.5	test	Phase2	test/STIM_021.jpg	100
1327.094	0.871	871.1	test	Phase2	test/STIM_021.jpg	100
1331.048	1.124	1123.8	test	Phase2	test/STIM_022.jpg	100
1334.288	1.226	1226.2	test	Phase2	test/STIM_022.jpg	100
1339.242	0.997	996.8	test	Phase2	test/STIM_022.jpg	100
1342.464	0.796	796.2	test	Phase2	test/STIM_023.jpg	99
1345.663	0.618	618.1	test	Phase2	test/STIM_023.jpg	99
1349.952	0.674	673.9	test	Phase2	test/STIM_023.jpg	99
1354.0	0.91	910.1	test	Phase2	test/STIM_024.jpg	100
1357.749	0.695	694.6	test	Phase2	test/STIM_024.jpg	100
1361.454	0.918	917.6	test	Phase2	test/STIM_024.jpg	100
1365.954	0.951	950.6	test	Phase2	test/STIM_025.jpg	99
1369.288	0.6	599.5	test	Phase2	test/STIM_025.jpg	99
1372.039	0.73	729.5	test	Phase2	test/STIM_025.jpg	99
1375.587	1.146	1145.5	test	Phase2	test/STIM_026.jpg	100
1378.756	0.765	765.1	test	Phase2	test/STIM_026.jpg	99
1382.273	0.92	919.9	test	Phase2	test/STIM_026.jpg	99
1387.018	0.742	742.2	test	Phase2	test/STIM_027.jpg	100
1390.859	1.194	1193.7	test	Phase2	test/STIM_027.jpg	100
1394.523	1.047	1046.9	test	Phase2	test/STIM_027.jpg	100
1397.586	0.573	572.6	test	Phase2	test/STIM_028.jpg	100
1401.135	0.581	581.4	test	Phase2	test/STIM_028.jpg	100
1404.305	0.936	936.4	test	Phase2	test/STIM_028.jpg	100
1407.575	0.836	835.5	test	Phase2	test/STIM_029.jpg	100
1411.481	0.698	697.8	test	Phase2	test/STIM_029.jpg	100
1414.493	1.01	1009.8	test	Phase2	test/STIM_029.jpg	99
1417.724	0.838	837.8	study	Phase3	study/STIM_000.jpg	99
1421.758	0.703	703.4	study	Phase3	study/STIM_000.jpg	99
1425.496	1.14	1139.5	study	Phase3	study/STIM_000.jpg	100
1429.802	0.794	794.1	study	Phase3	study/STIM_001.jpg	100
1434.15	0.717	717.3	study	Phase3	study/STIM_001.jpg	99
1437.732	1.076	1076.3	study	Phase3	study/STIM_001.jpg	100
1441.186	0.992	992.0	study	Phase3	study/STIM_002.jpg	99
1444.773	0.724	724.5	study	Phase3	study/STIM_002.jpg	100
1447.958	0.529	529.3	study	Phase3	study/STIM_002.jpg	100
1450.829	0.598	597.7	study	Phase3	study/STIM_003.jpg	99
1454.187	0.843	843.2	study	Phase3	study/STIM_003.jpg	100
1458.971	1.002	1001.9	study	Phase3	study/STIM_003.jpg	100
1462.61	0.825	825.1	study	Phase3	study/STIM_004.jpg	100
1465.728	0.654	653.5	study	Phase3	study/STIM_004.jpg	99
1468.894	0.78	779.9	study	Phase3	study/STIM_004.jpg	99
1473.001	0.754	754.5	study	Phase3	study/STIM_005.jpg	99
1475.794	1.015	1014.8	study	Phase3	study/STIM_005.jpg	100
1480.436	1.16	1159.5	study	Phase3	study/STIM_005.jpg	100
1485.414	0.867	867.1	study	Phase3	study/STIM_006.jpg	99
1489.211	0.985	984.6	study	Phase3	study/STIM_006.jpg	100
1492.609	1.136	1135.5	study	Phase3	study/STIM_006.jpg	100
1497.703	1.11	1110.4	study	Phase3	study/STIM_007.jpg	100
1501.025	0.603	602.9	study	Phase3	study/STIM_007.jpg	99
1504.856	1.06	1060.2	study	Phase3	study/STIM_007.jpg	99
1509.164	0.532	532.4	study	Phase3	study/STIM_008.jpg	100
1511.896	0.769	768.8	study	Phase3	study/STIM_008.jpg	99
1514.751	0.759	759.0	study	Phase3	study/STIM_008.jpg	99
1518.804	0.836	835.5	study	Phase3	study/STIM_009.jpg	100
1522.495	1.16	1160.5	study	Phase3	study/STIM_009.jpg	100
1526.689	1.015	1015.1	study	Phase3	study/STIM_009.jpg	99
1531.562	0.778	778.5	study	Phase3	study/STIM_010.jpg	99
1534.518	0.931	931.1	study	Phase3	study/STIM_010.jpg	99
1537.769	0.888	888.5	study	Phase3	study/STIM_010.jpg	100
1540.81	0.99	990.1	study	Phase3	study/STIM_011.jpg	99
1544.178	0.839	838.9	study	Phase3	study/STIM_011.jpg	99
1548.076	0.79	790.0	study	Phase3	study/STIM_011.jpg	100
1552.086	1.149	1149.3	study	Phase3	study/STIM_012.jpg	100
1555.385	0.833	833.1	study	Phase3	study/STIM_012.jpg	99
1558.407	1.182	1182.2	study	Phase3	study/STIM_012.jpg	99
1561.746	1.146	1145.5	study	Phase3	study/STIM_013.jpg	99
1566.581	0.805	805.2	study	Phase3	study/STIM_013.jpg	100
1570.654	1.04	1040.5	study	Phase3	study/STIM_013.jpg	100
1574.881	0.652	652.1	study	Phase3	study/STIM_014.jpg	99
1578.229	0.839	838.7	study	Phase3	study/STIM_014.jpg	100
1581.283	0.625	624.9	study	Phase3	study/STIM_014.jpg	99
1584.848	1.159	1159.4	study	Phase3	study/STIM_015.jpg	100
1589.9	1.013	1013.3	study	Phase3	study/STIM_015.jpg	99
1594.204	1.075	1075.0	study	Phase3	study/STIM_015.jpg	99
1598.288	0.989	989.3	study	Phase3	study/STIM_016.jpg	100
1602.943	0.576	576.4	study	Phase3	study/STIM_016.jpg	99
1606.588	0.779	779.2	study	Phase3	study/STIM_016.jpg	99
1610.609	1.118	1117.5	study	Phase3	study/STIM_017.jpg	99
1615.376	0.794	794.4	study	Phase3	study/STIM_017.jpg	99
1618.293	0.563	562.6	study	Phase3	study/STIM_017.jpg	100
1621.53	1.003	1003.1	study	Phase3	study/STIM_018.jpg	100
1624.635	0.675	674.8	study	Phase3	study/STIM_018.jpg	99
1628.405	0.624	624.2	study	Phase3	study/STIM_018.jpg	99
1632.917	1.06	1060.1	study	Phase3	study/STIM_019.jpg	100
1636.79	0.764	763.7	study	Phase3	study/STIM_019.jpg	100
1640.574	0.613	613.2	study	Phase3	study/STIM_019.jpg	100
1643.981	0.702	702.4	study	Phase3	study/STIM_020.jpg	99
1647.679	0.755	755.4	study	Phase3	study/STIM_020.jpg	99
1651.232	0.541	541.3	study	Phase3	study/STIM_020.jpg	100
1654.115	0.558	557.7	study	Phase3	study/STIM_021.jpg	100
1658.22	1.066	1066.5	study	Phase3	study/STIM_021.jpg	100
1661.698	1.016	1015.9	study	Phase3	study/STIM_021.jpg	100
1665.206	1.126	1125.7	study	Phase3	study/STIM_022.jpg	100
1670.297	1.097	1097.2	study	Phase3	study/STIM_022.jpg	100
1675.272	1.006	1006.0	study	Phase3	study/STIM_022.jpg	99
1679.162	0.576	575.9	study	Phase3	study/STIM_023.jpg	100
1683.221	0.784	784.1	study	Phase3	study/STIM_023.jpg	100
1687.196	1.105	1105.1	study	Phase3	study/STIM_023.jpg	100
1691.072	0.633	633.2	study	Phase3	study/STIM_024.jpg	99
1693.917	0.968	968.0	study	Phase3	study/STIM_024.jpg	99
1697.282	1.148	1147.5	study	Phase3	study/STIM_024.jpg	99
1701.305	0.543	543.0	study	Phase3	study/STIM_025.jpg	99
1704.851	0.741	741.2	study	Phase3	study/STIM_025.jpg	100
1708.345	0.973	972.9	study	Phase3	study/STIM_025.jpg	99
1712.379	0.918	918.5	study	Phase3	study/STIM_026.jpg	99
1715.872	0.636	635.7	study	Phase3	study/STIM_026.jpg	100
1718.958	0.872	872.0	study	Phase3	study/STIM_026.jpg	100
1723.719	0.658	657.9	study	Phase3	study/STIM_027.jpg	99
1728.012	0.899	898.9	study	Phase3	study/STIM_027.jpg	100
1731.436	0.555	554.6	study	Phase3	study/STIM_027.jpg	99
1735.48	0.56	560.1	study	Phase3	study/STIM_028.jpg	100
1739.452	1.046	1045.9	study	Phase3	study/STIM_028.jpg	100
1743.894	0.785	785.1	study	Phase3	study/STIM_028.jpg	99
1747.476	0.912	911.9	study	Phase3	study/STIM_029.jpg	99
1750.525	0.864	864.0	study	Phase3	study/STIM_029.jpg	99
1754.406	0.544	544.5	study	Phase3	study/STIM_029.jpg	100
1758.59	0.932	932.5	test	Phase3	test/STIM_000.jpg	99
1762.093	0.763	763.4	test	Phase3	test/STIM_000.jpg	100
1766.528	1.206	1205.6	test	Phase3	test/STIM_000.jpg	99
1770.52	1.126	1125.9	test	Phase3	test/STIM_001.jpg	100
1774.75	0.719	719.1	test	Phase3	test/STIM_001.jpg	99
1778.533	1.101	1101.1	test	Phase3	test/STIM_001.jpg	100
1782.064	1.039	1039.4	test	Phase3	test/STIM_002.jpg	100
1785.796	0.68	680.5	test	Phase3	test/STIM_002.jpg	100
1789.378	0.799	799.3	test	Phase3	test/STIM_002.jpg	99
1792.554	1.134	1134.5	test	Phase3	test/STIM_003.jpg	100
1796.141	0.884	884.1	test	Phase3	test/STIM_003.jpg	100
1799.455	0.746	746.1	test	Phase3	test/STIM_003.jpg	100
1803.638	1.075	1075.3	test	Phase3	test/STIM_004.jpg	99
1808.142	1.053	1052.8	test	Phase3	test/STIM_004.jpg	100
1813.127	1.109	1109.0	test	Phase3	test/STIM_004.jpg	99
1816.608	0.65	649.5	test	Phase3	test/STIM_005.jpg	100
1820.754	0.877	876.8	test	Phase3	test/STIM_005.jpg	99
1825.124	0.966	966.0	test	Phase3	test/STIM_005.jpg	100
1828.126	0.772	772.5	test	Phase3	test/STIM_006.jpg	100
1830.917	0.588	588.2	test	Phase3	test/STIM_006.jpg	100
1834.874	0.742	741.8	test	Phase3	test/STIM_006.jpg	100
1839.2	0.769	769.2	test	Phase3	test/STIM_007.jpg	100
1843.835	0.794	794.5	test	Phase3	test/STIM_007.jpg	100
1847.613	1.074	1074.3	test	Phase3	test/STIM_007.jpg	100
1851.227	0.727	726.8	test	Phase3	test/STIM_008.jpg	100
1854.348	0.947	946.8	test	Phase3	test/STIM_008.jpg	100
1857.589	1.208	1208.0	test	Phase3	test/STIM_008.jpg	99
1862.566	0.708	708.2	test	Phase3	test/STIM_009.jpg	99
1866.796	1.218	1218.1	test	Phase3	test/STIM_009.jpg	100
1871.546	0.79	790.3	test	Phase3	test/STIM_009.jpg	99
1875.179	1.091	1091.0	test	Phase3	test/STIM_010.jpg	100
1879.345	1.224	1224.1	test	Phase3	test/STIM_010.jpg	100
1883.8	0.808	807.8	test	Phase3	test/STIM_010.jpg	99
1887.999	1.186	1186.2	test	Phase3	test/STIM_011.jpg	99
1892.722	0.625	625.4	test	Phase3	test/STIM_011.jpg	100
1896.352	0.58	579.7	test	Phase3	test/STIM_011.jpg	100
1899.966	0.576	576.3	test	Phase3	test/STIM_012.jpg	100
1903.571	0.945	945.2	test	Phase3	test/STIM_012.jpg	100
1907.807	0.84	840.5	test	Phase3	test/STIM_012.jpg	100
1912.217	0.699	698.6	test	Phase3	test/STIM_013.jpg	99
1916.267	0.936	936.4	test	Phase3	test/STIM_013.jpg	99
1920.681	0.98	979.6	test	Phase3	test/STIM_013.jpg	100
1924.728	0.641	641.2	test	Phase3	test/STIM_014.jpg	100
1927.873	1.08	1080.1	test	Phase3	test/STIM_014.jpg	100
1932.347	0.96	960.3	test	Phase3	test/STIM_014.jpg	100
1936.036	0.8	799.7	test	Phase3	test/STIM_015.jpg	100
1940.338	1.015	1014.8	test	Phase3	test/STIM_015.jpg	100
1944.341	1.09	1089.6	test	Phase3	test/STIM_015.jpg	100
1948.504	1.076	1076.0	test	Phase3	test/STIM_016.jpg	99
1952.399	1.158	1158.2	test	Phase3	test/STIM_016.jpg	100
1957.548	0.645	645.0	test	Phase3	test/STIM_016.jpg	99
1961.973	0.728	728.3	test	Phase3	test/STIM_017.jpg	99
1966.323	1.134	1134.1	test	Phase3	test/STIM_017.jpg	100
1970.045	1.036	1035.8	test	Phase3	test/STIM_017.jpg	100
1973.895	1.127	1126.8	test	Phase3	test/STIM_018.jpg	100
1978.204	0.899	899.4	test	Phase3	test/STIM_018.jpg	100
1983.049	0.603	603.3	test	Phase3	test/STIM_018.jpg	100
1987.378	0.885	884.6	test	Phase3	test/STIM_019.jpg	99
1991.384	0.786	785.9	test	Phase3	test/STIM_019.jpg	99
1995.868	0.911	911.1	test	Phase3	test/STIM_019.jpg	99
2000.391	1.024	1024.4	test	Phase3	test/STIM_020.jpg	100
2004.271	0.697	696.9	test	Phase3	test/STIM_020.jpg	99
2007.317	0.756	755.5	test	Phase3	test/STIM_020.jpg	100
2010.599	0.705	705.1	test	Phase3	test/STIM_021.jpg	99
2013.482	0.605	604.9	test	Phase3	test/STIM_021.jpg	99
2017.528	0.933	933.1	test	Phase3	test/STIM_021.jpg	99
2021.593	0.808	807.9	test	Phase3	test/STIM_022.jpg	99
2024.511	1.011	1011.4	test	Phase3	test/STIM_022.jpg	100
2029.13	0.688	688.1	test	Phase3	test/STIM_022.jpg	100
2033.252	0.622	622.1	test	Phase3	test/STIM_023.jpg	99
2037.312	1.049	1048.6	test	Phase3	test/STIM_023.jpg	99
2041.796	1.016	1015.7	test	Phase3	test/STIM_023.jpg	99
2044.895	0.582	581.7	test	Phase3	test/STIM_024.jpg	100
2047.774	0.935	935.4	test	Phase3	test/STIM_024.jpg	100
2051.493	1.125	1124.8	test	Phase3	test/STIM_024.jpg	100
2054.955	0.586	586.5	test	Phase3	test/STIM_025.jpg	99
2059.358	0.63	630.5	test	Phase3	test/STIM_025.jpg	99
2062.891	1.187	1186.6	test	Phase3	test/STIM_025.jpg	100
2066.502	0.586	586.0	test	Phase3	test/STIM_026.jpg	99
2069.643	1.141	1141.3	test	Phase3	test/STIM_026.jpg	99
2074.013	0.918	918.0	test	Phase3	test/STIM_026.jpg	100
2077.821	1.227	1227.0	test	Phase3	test/STIM_027.jpg	99
2082.835	1.11	1110.5	test	Phase3	test/STIM_027.jpg	100
2086.4	0.568	568.5	test	Phase3	test/STIM_027.jpg	100
2089.186	0.879	878.9	test	Phase3	test/STIM_028.jpg	100
2093.814	1.062	1061.6	test	Phase3	test/STIM_028.jpg	99
2096.983	0.574	574.5	test	Phase3	test/STIM_028.jpg	100
2100.136	0.734	734.0	test	Phase3	test/STIM_029.jpg	99
2103.41	0.904	904.4	test	Phase3	test/STIM_029.jpg	100
2107.339	1.011	1011.0	test	Phase3	test/STIM_029.jpg	100
