onset	duration	response_time_ms	trial_type	learning_stage	stimulus	response_port
24.105	1.513	1513.2	learning	LS1	learning/PICTURE_202.jpg	99
28.692	1.242	1242.0	learning	LS1	learning/PICTURE_453.jpg	99
33.262	1.418	1418.4	learning	LS1	learning/PICTURE_358.jpg	99
37.831	1.452	1451.6	learning	LS1	learning/PICTURE_453.jpg	99
42.401	1.468	1468.5	learning	LS1	learning/PICTURE_202.jpg	100
46.971	1.086	1086.1	learning	LS1	learning/PICTURE_148.jpg	100
51.541	1.215	1215.0	learning	LS1	learning/PICTURE_165.jpg	100
56.111	2.111	2110.9	learning	LS1	learning/PICTURE_358.jpg	99
60.681	1.473	1472.6	learning	LS1	learning/PICTURE_165.jpg	100
65.25	1.905	1904.9	learning	LS1	learning/PICTURE_148.jpg	100
74.34	1.605	1605.3	learning	LS2	learning/PICTURE_202.jpg	99
78.91	1.494	1494.3	learning	LS2	learning/PICTURE_148.jpg	100
83.479	1.958	1958.5	learning	LS2	learning/PICTURE_453.jpg	99
88.049	1.208	1208.5	learning	LS2	learning/PICTURE_358.jpg	100
92.619	1.241	1241.1	learning	LS2	learning/PICTURE_148.jpg	99
97.189	1.657	1657.3	learning	LS2	learning/PICTURE_165.jpg	99
101.759	1.434	1434.4	learning	LS2	learning/PICTURE_202.jpg	100
106.328	1.515	1515.4	learning	LS2	learning/PICTURE_165.jpg	100
110.898	1.356	1356.2	learning	LS2	learning/PICTURE_453.jpg	99
115.468	1.101	1101.4	learning	LS2	learning/PICTURE_358.jpg	99
124.558	1.329	1329.2	learning	LS3	learning/PICTURE_202.jpg	100
129.127	1.442	1442.1	learning	LS3	learning/PICTURE_453.jpg	100
133.697	1.267	1267.0	learning	LS3	learning/PICTURE_202.jpg	99
138.267	1.444	1443.5	learning	LS3	learning/PICTURE_358.jpg	100
142.837	1.444	1444.3	learning	LS3	learning/PICTURE_165.jpg	100
147.406	1.317	1317.4	learning	LS3	learning/PICTURE_358.jpg	99
151.976	1.334	1334.0	learning	LS3	learning/PICTURE_148.jpg	99
156.546	1.095	1095.2	learning	LS3	learning/PICTURE_165.jpg	99
161.116	1.048	1047.8	learning	LS3	learning/PICTURE_453.jpg	99
165.686	1.033	1032.9	learning	LS3	learning/PICTURE_148.jpg	100
174.775	1.277	1276.7	learning	LS4	learning/PICTURE_148.jpg	100
179.345	1.022	1022.0	learning	LS4	learning/PICTURE_358.jpg	100
183.915	1.198	1198.1	learning	LS4	learning/PICTURE_202.jpg	99
188.484	1.183	1183.4	learning	LS4	learning/PICTURE_453.jpg	99
193.054	1.152	1151.9	learning	LS4	learning/PICTURE_165.jpg	100
197.624	1.105	1104.8	learning	LS4	learning/PICTURE_202.jpg	100
202.194	1.201	1201.3	learning	LS4	learning/PICTURE_165.jpg	99
206.764	1.042	1042.4	learning	LS4	learning/PICTURE_358.jpg	99
211.333	1.171	1171.3	learning	LS4	learning/PICTURE_453.jpg	100
215.903	1.076	1076.3	learning	LS4	learning/PICTURE_148.jpg	99
243.038	1.19	1190.0	learning	LS1	learning/PICTURE_224.jpg	99
247.608	0.808	807.7	learning	LS1	learning/PICTURE_414.jpg	99
252.178	1.352	1352.0	learning	LS1	learning/PICTURE_224.jpg	100
256.764	1.224	1224.3	learning	LS1	learning/PICTURE_566.jpg	99
261.334	0.921	921.2	learning	LS1	learning/PICTURE_203.jpg	100
265.904	0.97	970.4	learning	LS1	learning/PICTURE_42.jpg	100
270.474	1.355	1354.9	learning	LS1	learning/PICTURE_203.jpg	100
275.044	1.068	1068.1	learning	LS1	learning/PICTURE_414.jpg	99
279.613	1.196	1196.5	learning	LS1	learning/PICTURE_42.jpg	100
284.183	1.069	1069.5	learning	LS1	learning/PICTURE_566.jpg	100
293.273	1.297	1297.2	learning	LS2	learning/PICTURE_203.jpg	99
297.843	0.994	994.3	learning	LS2	learning/PICTURE_566.jpg	100
302.412	1.091	1091.1	learning	LS2	learning/PICTURE_42.jpg	99
306.982	1.188	1187.5	learning	LS2	learning/PICTURE_224.jpg	99
311.552	0.853	853.0	learning	LS2	learning/PICTURE_414.jpg	99
316.122	1.109	1109.4	learning	LS2	learning/PICTURE_203.jpg	100
320.692	1.078	1078.3	learning	LS2	learning/PICTURE_42.jpg	100
325.261	0.968	967.8	learning	LS2	learning/PICTURE_566.jpg	99
329.831	1.129	1128.7	learning	LS2	learning/PICTURE_224.jpg	99
334.401	1.001	1001.4	learning	LS2	learning/PICTURE_414.jpg	100
343.49	1.133	1132.8	learning	LS3	learning/PICTURE_224.jpg	100
348.06	0.91	909.9	learning	LS3	learning/PICTURE_566.jpg	100
352.63	0.815	815.3	learning	LS3	learning/PICTURE_203.jpg	99
357.2	1.072	1071.7	learning	LS3	learning/PICTURE_42.jpg	100
361.77	0.801	800.8	learning	LS3	learning/PICTURE_566.jpg	99
366.339	0.77	769.8	learning	LS3	learning/PICTURE_42.jpg	99
370.909	1.042	1042.4	learning	LS3	learning/PICTURE_414.jpg	99
375.479	0.82	819.6	learning	LS3	learning/PICTURE_224.jpg	99
380.049	0.932	932.2	learning	LS3	learning/PICTURE_414.jpg	100
384.619	1.093	1092.7	learning	LS3	learning/PICTURE_203.jpg	100
393.708	1.033	1032.7	learning	LS4	learning/PICTURE_414.jpg	99
398.278	0.97	969.6	learning	LS4	learning/PICTURE_566.jpg	99
402.848	0.763	762.8	learning	LS4	learning/PICTURE_203.jpg	99
407.418	0.908	907.7	learning	LS4	learning/PICTURE_414.jpg	100
411.987	0.749	748.6	learning	LS4	learning/PICTURE_224.jpg	99
416.557	1.613	1612.5	learning	LS4	learning/PICTURE_42.jpg	100
421.127	1.07	1069.6	learning	LS4	learning/PICTURE_566.jpg	100
425.697	1.007	1006.7	learning	LS4	learning/PICTURE_224.jpg	100
430.267	1.024	1023.8	learning	LS4	learning/PICTURE_203.jpg	100
434.836	0.817	817.2	learning	LS4	learning/PICTURE_42.jpg	99
461.988	1.089	1088.9	learning	LS1	learning/PICTURE_659.jpg	99
466.575	0.673	673.4	learning	LS1	learning/PICTURE_26.jpg	99
471.144	0.738	738.2	learning	LS1	learning/PICTURE_212.jpg	100
475.714	1.202	1202.5	learning	LS1	learning/PICTURE_659.jpg	100
480.301	0.963	962.8	learning	LS1	learning/PICTURE_38.jpg	100
484.887	1.379	1378.7	learning	LS1	learning/PICTURE_654.jpg	99
489.457	1.667	1667.3	learning	LS1	learning/PICTURE_212.jpg	99
494.027	1.364	1364.2	learning	LS1	learning/PICTURE_654.jpg	99
498.596	2.1	2100.4	learning	LS1	learning/PICTURE_26.jpg	100
503.166	1.51	1509.9	learning	LS1	learning/PICTURE_38.jpg	100
512.256	1.642	1641.6	learning	LS2	learning/PICTURE_659.jpg	99
516.826	1.594	1594.4	learning	LS2	learning/PICTURE_212.jpg	99
521.395	1.228	1227.8	learning	LS2	learning/PICTURE_654.jpg	99
525.965	0.925	924.9	learning	LS2	learning/PICTURE_26.jpg	99
530.535	0.942	942.0	learning	LS2	learning/PICTURE_212.jpg	100
535.105	1.167	1166.6	learning	LS2	learning/PICTURE_38.jpg	99
539.675	1.263	1263.4	learning	LS2	learning/PICTURE_659.jpg	99
544.244	1.04	1040.1	learning	LS2	learning/PICTURE_26.jpg	100
548.814	0.929	929.2	learning	LS2	learning/PICTURE_654.jpg	100
553.384	1.106	1106.0	learning	LS2	learning/PICTURE_38.jpg	99
562.473	1.078	1077.7	learning	LS3	learning/PICTURE_654.jpg	100
567.043	0.887	887.0	learning	LS3	learning/PICTURE_212.jpg	100
571.613	1.032	1031.8	learning	LS3	learning/PICTURE_26.jpg	100
576.183	1.049	1048.7	learning	LS3	learning/PICTURE_654.jpg	99
580.753	0.826	826.0	learning	LS3	learning/PICTURE_659.jpg	100
585.322	1.003	1002.9	learning	LS3	learning/PICTURE_38.jpg	99
589.892	0.972	971.9	learning	LS3	learning/PICTURE_212.jpg	99
594.462	0.989	988.8	learning	LS3	learning/PICTURE_26.jpg	99
599.032	0.909	909.5	learning	LS3	learning/PICTURE_38.jpg	100
603.602	0.974	974.2	learning	LS3	learning/PICTURE_659.jpg	99
612.691	0.977	977.3	learning	LS4	learning/PICTURE_38.jpg	99
617.261	1.074	1074.1	learning	LS4	learning/PICTURE_212.jpg	100
621.831	1.027	1026.9	learning	LS4	learning/PICTURE_654.jpg	99
626.4	0.836	835.7	learning	LS4	learning/PICTURE_26.jpg	99
630.97	0.948	948.4	learning	LS4	learning/PICTURE_659.jpg	100
635.54	1.157	1156.7	learning	LS4	learning/PICTURE_38.jpg	100
640.11	0.79	790.0	learning	LS4	learning/PICTURE_26.jpg	100
644.68	0.743	743.0	learning	LS4	learning/PICTURE_659.jpg	99
649.25	1.063	1063.3	learning	LS4	learning/PICTURE_654.jpg	100
653.819	0.856	856.4	learning	LS4	learning/PICTURE_212.jpg	99
680.955	1.337	1336.9	control	LS1	control/PICTURE_135.jpg	99
685.524	1.322	1321.8	control	LS1	control/PICTURE_540.jpg	100
690.111	1.21	1210.2	control	LS1	control/PICTURE_263.jpg	99
694.697	1.162	1162.0	control	LS1	control/PICTURE_491.jpg	99
699.284	1.514	1514.0	control	LS1	control/PICTURE_116.jpg	100
703.854	1.147	1147.0	control	LS1	control/PICTURE_135.jpg	100
708.423	0.86	859.9	control	LS1	control/PICTURE_540.jpg	99
712.993	1.181	1180.6	control	LS1	control/PICTURE_263.jpg	100
717.563	0.894	894.0	control	LS1	control/PICTURE_116.jpg	99
722.133	0.959	959.1	control	LS1	control/PICTURE_491.jpg	100
731.222	0.851	850.9	control	LS2	control/PICTURE_263.jpg	99
735.792	0.804	803.9	control	LS2	control/PICTURE_135.jpg	99
740.362	0.981	980.5	control	LS2	control/PICTURE_116.jpg	99
744.932	0.981	981.3	control	LS2	control/PICTURE_540.jpg	100
749.501	1.094	1093.8	control	LS2	control/PICTURE_491.jpg	100
754.071	1.031	1031.1	control	LS2	control/PICTURE_116.jpg	100
758.641	0.808	808.0	control	LS2	control/PICTURE_540.jpg	99
763.211	0.825	824.6	control	LS2	control/PICTURE_491.jpg	99
767.78	0.938	937.7	control	LS2	control/PICTURE_263.jpg	100
772.35	0.938	938.2	control	LS2	control/PICTURE_135.jpg	100
781.44	1.437	1437.0	control	LS3	control/PICTURE_151.jpg	99
786.01	1.054	1054.3	control	LS3	control/PICTURE_119.jpg	100
790.579	0.976	975.5	control	LS3	control/PICTURE_151.jpg	100
795.166	0.943	943.4	control	LS3	control/PICTURE_234.jpg	100
799.752	0.943	943.4	control	LS3	control/PICTURE_111.jpg	99
804.322	0.849	848.6	control	LS3	control/PICTURE_119.jpg	99
808.892	0.929	928.9	control	LS3	control/PICTURE_111.jpg	100
813.478	0.834	833.7	control	LS3	control/PICTURE_621.jpg	100
818.048	1.426	1426.0	control	LS3	control/PICTURE_234.jpg	99
822.618	1.523	1522.6	control	LS3	control/PICTURE_621.jpg	100
831.707	1.079	1079.0	control	LS4	control/PICTURE_111.jpg	100
836.277	1.32	1319.9	control	LS4	control/PICTURE_234.jpg	100
840.847	1.161	1160.7	control	LS4	control/PICTURE_119.jpg	100
845.417	1.354	1353.7	control	LS4	control/PICTURE_151.jpg	100
849.987	1.035	1035.1	control	LS4	control/PICTURE_621.jpg	99
854.557	0.892	892.2	control	LS4	control/PICTURE_151.jpg	99
859.126	0.877	876.9	control	LS4	control/PICTURE_621.jpg	100
863.696	0.862	861.6	control	LS4	control/PICTURE_111.jpg	99
868.266	0.894	894.4	control	LS4	control/PICTURE_119.jpg	99
872.836	1.311	1310.7	control	LS4	control/PICTURE_234.jpg	99
899.988	n/a	n/a	learning	LS1	learning/PICTURE_74.jpg	n/a
904.574	1.024	1024.0	learning	LS1	learning/PICTURE_71.jpg	100
909.144	0.897	897.0	learning	LS1	learning/PICTURE_68.jpg	99
913.714	0.914	913.7	learning	LS1	learning/PICTURE_67.jpg	99
918.283	0.914	914.4	learning	LS1	learning/PICTURE_74.jpg	100
922.853	1.49	1490.5	learning	LS1	learning/PICTURE_72.jpg	100
927.423	1.236	1235.7	learning	LS1	learning/PICTURE_71.jpg	99
931.993	1.22	1220.5	learning	LS1	learning/PICTURE_68.jpg	100
936.563	1.109	1109.3	learning	LS1	learning/PICTURE_67.jpg	99
941.132	0.95	950.1	learning	LS1	learning/PICTURE_72.jpg	100
950.222	1.146	1146.3	learning	LS2	learning/PICTURE_72.jpg	99
954.792	1.275	1274.8	learning	LS2	learning/PICTURE_74.jpg	99
959.361	1.484	1483.5	learning	LS2	learning/PICTURE_72.jpg	100
963.931	0.973	972.8	learning	LS2	learning/PICTURE_71.jpg	100
968.501	1.581	1581.0	learning	LS2	learning/PICTURE_74.jpg	99
973.071	1.406	1406.0	learning	LS2	learning/PICTURE_68.jpg	99
977.641	0.863	863.3	learning	LS2	learning/PICTURE_67.jpg	100
982.21	1.391	1391.3	learning	LS2	learning/PICTURE_71.jpg	99
986.78	0.897	897.2	learning	LS2	learning/PICTURE_67.jpg	99
991.35	0.898	897.8	learning	LS2	learning/PICTURE_68.jpg	100
1000.44	0.982	981.6	learning	LS3	learning/PICTURE_68.jpg	100
1005.009	0.871	870.8	learning	LS3	learning/PICTURE_71.jpg	99
1009.579	1.063	1063.2	learning	LS3	learning/PICTURE_67.jpg	100
1014.149	1.208	1207.8	learning	LS3	learning/PICTURE_68.jpg	99
1018.719	1.001	1000.7	learning	LS3	learning/PICTURE_74.jpg	100
1023.288	0.986	985.6	learning	LS3	learning/PICTURE_72.jpg	99
1027.858	1.034	1034.5	learning	LS3	learning/PICTURE_74.jpg	99
1032.428	0.924	923.6	learning	LS3	learning/PICTURE_71.jpg	100
1036.998	0.908	908.4	learning	LS3	learning/PICTURE_67.jpg	99
1041.568	1.005	1005.4	learning	LS3	learning/PICTURE_72.jpg	100
1050.657	0.866	865.9	learning	LS4	learning/PICTURE_67.jpg	99
1055.227	0.851	850.8	learning	LS4	learning/PICTURE_68.jpg	99
1059.797	0.771	771.5	learning	LS4	learning/PICTURE_74.jpg	99
1064.367	0.82	820.2	learning	LS4	learning/PICTURE_72.jpg	100
1068.936	0.933	933.1	learning	LS4	learning/PICTURE_74.jpg	100
1073.506	0.87	870.0	learning	LS4	learning/PICTURE_67.jpg	100
1078.076	0.903	902.9	learning	LS4	learning/PICTURE_71.jpg	100
1082.646	0.968	967.5	learning	LS4	learning/PICTURE_72.jpg	99
1087.216	0.857	857.1	learning	LS4	learning/PICTURE_68.jpg	100
1091.785	1.034	1033.6	learning	LS4	learning/PICTURE_71.jpg	99
1118.937	1.019	1018.6	control	LS1	control/PICTURE_338.jpg	99
1123.507	0.94	939.5	control	LS1	control/PICTURE_391.jpg	99
1128.077	1.052	1052.1	control	LS1	control/PICTURE_338.jpg	100
1132.647	1.101	1100.8	control	LS1	control/PICTURE_368.jpg	100
1137.216	1.181	1181.1	control	LS1	control/PICTURE_398.jpg	100
1141.786	1.07	1070.1	control	LS1	control/PICTURE_255.jpg	99
1146.356	1.263	1262.8	control	LS1	control/PICTURE_368.jpg	99
1150.926	0.848	847.7	control	LS1	control/PICTURE_391.jpg	100
1155.496	0.945	944.5	control	LS1	control/PICTURE_398.jpg	99
1160.065	1.025	1025.4	control	LS1	control/PICTURE_255.jpg	100
1169.155	0.838	837.6	control	LS2	control/PICTURE_255.jpg	99
1173.725	1.03	1029.8	control	LS2	control/PICTURE_368.jpg	100
1178.294	1.03	1030.5	control	LS2	control/PICTURE_391.jpg	100
1182.864	0.919	919.1	control	LS2	control/PICTURE_338.jpg	99
1187.434	0.92	920.2	control	LS2	control/PICTURE_368.jpg	99
1192.004	0.921	920.9	control	LS2	control/PICTURE_338.jpg	100
1196.574	0.938	938.0	control	LS2	control/PICTURE_255.jpg	100
1201.143	1.067	1066.9	control	LS2	control/PICTURE_398.jpg	99
1205.713	0.956	956.2	control	LS2	control/PICTURE_391.jpg	99
1210.283	0.861	861.2	control	LS2	control/PICTURE_398.jpg	100
1219.372	0.961	960.7	control	LS3	control/PICTURE_343.jpg	99
1223.942	1.105	1105.2	control	LS3	control/PICTURE_185.jpg	100
1228.529	0.834	833.7	control	LS3	control/PICTURE_551.jpg	100
1233.115	0.994	993.6	control	LS3	control/PICTURE_19.jpg	100
1237.702	0.834	834.0	control	LS3	control/PICTURE_708.jpg	99
1242.272	1.011	1010.8	control	LS3	control/PICTURE_19.jpg	99
1246.841	0.868	867.5	control	LS3	control/PICTURE_551.jpg	99
1251.411	0.964	964.1	control	LS3	control/PICTURE_343.jpg	100
1255.981	0.917	917.0	control	LS3	control/PICTURE_708.jpg	100
1260.551	1.141	1141.5	control	LS3	control/PICTURE_185.jpg	99
1269.64	1.353	1353.1	control	LS4	control/PICTURE_185.jpg	100
1274.21	0.923	922.6	control	LS4	control/PICTURE_19.jpg	100
1278.78	0.988	987.5	control	LS4	control/PICTURE_551.jpg	99
1283.35	0.717	716.7	control	LS4	control/PICTURE_19.jpg	99
1287.919	0.846	845.5	control	LS4	control/PICTURE_551.jpg	100
1292.489	1.102	1101.9	control	LS4	control/PICTURE_343.jpg	99
1297.059	1.055	1055.1	control	LS4	control/PICTURE_708.jpg	100
1301.629	1.36	1359.8	control	LS4	control/PICTURE_343.jpg	99
1306.199	0.993	992.8	control	LS4	control/PICTURE_708.jpg	100
1310.768	0.866	866.0	control	LS4	control/PICTURE_185.jpg	100
1337.92	1.248	1248.3	learning	LS1	learning/PICTURE_640.jpg	99
1342.49	0.946	945.6	learning	LS1	learning/PICTURE_379.jpg	99
1347.076	0.897	897.5	learning	LS1	learning/PICTURE_592.jpg	100
1351.663	0.962	961.5	learning	LS1	learning/PICTURE_692.jpg	100
1356.233	2.257	2256.7	learning	LS1	learning/PICTURE_592.jpg	100
1360.803	1.538	1538.4	learning	LS1	learning/PICTURE_692.jpg	100
1365.389	1.267	1266.7	learning	LS1	learning/PICTURE_465.jpg	99
1369.959	1.635	1635.1	learning	LS1	learning/PICTURE_640.jpg	100
1374.529	1.141	1140.6	learning	LS1	learning/PICTURE_379.jpg	99
1379.098	1.397	1397.2	learning	LS1	learning/PICTURE_465.jpg	99
1388.188	1.321	1321.2	learning	LS2	learning/PICTURE_692.jpg	100
1392.758	1.05	1050.5	learning	LS2	learning/PICTURE_640.jpg	99
1397.328	1.307	1307.3	learning	LS2	learning/PICTURE_465.jpg	99
1401.897	1.372	1372.3	learning	LS2	learning/PICTURE_379.jpg	99
1406.467	1.278	1277.6	learning	LS2	learning/PICTURE_592.jpg	99
1411.037	1.167	1166.7	learning	LS2	learning/PICTURE_640.jpg	100
1415.607	1.966	1966.5	learning	LS2	learning/PICTURE_692.jpg	99
1420.177	1.12	1120.2	learning	LS2	learning/PICTURE_592.jpg	99
1424.746	0.977	977.3	learning	LS2	learning/PICTURE_465.jpg	99
1429.316	1.569	1569.5	learning	LS2	learning/PICTURE_379.jpg	100
1438.406	1.094	1094.2	learning	LS3	learning/PICTURE_692.jpg	99
1442.975	1.047	1047.1	learning	LS3	learning/PICTURE_465.jpg	99
1447.545	0.968	968.0	learning	LS3	learning/PICTURE_640.jpg	99
1452.115	1.016	1016.3	learning	LS3	learning/PICTURE_592.jpg	100
1456.685	1.768	1768.2	learning	LS3	learning/PICTURE_379.jpg	99
1461.255	0.906	906.1	learning	LS3	learning/PICTURE_640.jpg	100
1465.824	1.339	1338.5	learning	LS3	learning/PICTURE_379.jpg	100
1470.394	1.068	1067.6	learning	LS3	learning/PICTURE_465.jpg	100
1474.964	0.925	925.1	learning	LS3	learning/PICTURE_692.jpg	100
1479.534	1.07	1069.8	learning	LS3	learning/PICTURE_592.jpg	99
1488.623	1.585	1585.0	learning	LS4	learning/PICTURE_379.jpg	100
1493.193	0.995	994.8	learning	LS4	learning/PICTURE_592.jpg	99
1497.763	1.139	1139.4	learning	LS4	learning/PICTURE_379.jpg	99
1502.333	1.22	1220.3	learning	LS4	learning/PICTURE_465.jpg	100
1506.902	0.87	869.7	learning	LS4	learning/PICTURE_592.jpg	100
1511.472	0.95	950.4	learning	LS4	learning/PICTURE_692.jpg	100
1516.042	1.734	1734.2	learning	LS4	learning/PICTURE_640.jpg	100
1520.612	0.92	920.0	learning	LS4	learning/PICTURE_465.jpg	99
1525.182	1.001	1001.2	learning	LS4	learning/PICTURE_692.jpg	99
1529.751	0.97	970.1	learning	LS4	learning/PICTURE_640.jpg	99
1538.841	1.309	1309.3	learning	LS1	learning/PICTURE_97.jpg	100
1543.411	1.166	1166.4	learning	LS1	learning/PICTURE_267.jpg	99
1547.98	1.023	1023.4	learning	LS1	learning/PICTURE_32.jpg	100
1552.567	1.503	1503.0	learning	LS1	learning/PICTURE_100.jpg	99
1557.137	1.36	1360.0	learning	LS1	learning/PICTURE_267.jpg	100
1561.723	1.009	1008.6	learning	LS1	learning/PICTURE_77.jpg	100
1566.293	1.233	1233.0	learning	LS1	learning/PICTURE_97.jpg	99
1570.863	0.85	850.0	learning	LS1	learning/PICTURE_77.jpg	100
1575.433	1.362	1362.1	learning	LS1	learning/PICTURE_100.jpg	100
1580.002	1.842	1842.2	learning	LS1	learning/PICTURE_32.jpg	100
1589.092	1.143	1143.0	learning	LS2	learning/PICTURE_267.jpg	99
1593.662	1.288	1287.5	learning	LS2	learning/PICTURE_97.jpg	99
1598.232	1.001	1000.6	learning	LS2	learning/PICTURE_267.jpg	100
1602.801	1.577	1576.8	learning	LS2	learning/PICTURE_77.jpg	99
1607.371	1.722	1721.8	learning	LS2	learning/PICTURE_100.jpg	100
1611.941	1.115	1115.4	learning	LS2	learning/PICTURE_32.jpg	99
1616.511	1.228	1228.3	learning	LS2	learning/PICTURE_77.jpg	99
1621.081	0.862	861.5	learning	LS2	learning/PICTURE_97.jpg	100
1625.65	1.166	1166.0	learning	LS2	learning/PICTURE_100.jpg	100
1630.22	1.007	1007.3	learning	LS2	learning/PICTURE_32.jpg	100
1639.31	0.995	994.7	learning	LS3	learning/PICTURE_32.jpg	100
1643.879	1.091	1091.5	learning	LS3	learning/PICTURE_97.jpg	99
1648.449	0.949	948.5	learning	LS3	learning/PICTURE_77.jpg	100
1653.019	1.189	1189.2	learning	LS3	learning/PICTURE_100.jpg	99
1657.589	0.982	982.1	learning	LS3	learning/PICTURE_97.jpg	100
1662.159	1.382	1382.3	learning	LS3	learning/PICTURE_267.jpg	100
1666.728	1.351	1351.2	learning	LS3	learning/PICTURE_100.jpg	100
1671.298	0.921	920.7	learning	LS3	learning/PICTURE_267.jpg	99
1675.868	1.225	1224.9	learning	LS3	learning/PICTURE_32.jpg	99
1680.438	1.002	1002.0	learning	LS3	learning/PICTURE_77.jpg	99
1689.527	0.829	829.3	learning	LS4	learning/PICTURE_32.jpg	100
1694.097	1.022	1021.8	learning	LS4	learning/PICTURE_100.jpg	99
1698.667	0.879	878.9	learning	LS4	learning/PICTURE_77.jpg	99
1703.237	1.311	1311.2	learning	LS4	learning/PICTURE_97.jpg	99
1707.806	1.136	1136.4	learning	LS4	learning/PICTURE_267.jpg	100
1712.376	0.962	961.5	learning	LS4	learning/PICTURE_97.jpg	100
1716.946	1.713	1713.3	learning	LS4	learning/PICTURE_267.jpg	100
1721.516	0.883	883.5	learning	LS4	learning/PICTURE_100.jpg	100
1726.086	1.156	1155.9	learning	LS4	learning/PICTURE_32.jpg	99
1730.655	1.716	1715.9	learning	LS4	learning/PICTURE_77.jpg	100
