onset	duration	response_time_ms	trial_type	learning_stage	stimulus	response_port
0.0	3.207	3207.4	navigation	Trial1	navigation/STIM_000.jpg	99
5.689	3.858	3858.1	navigation	Trial1	navigation/STIM_000.jpg	99
13.038	3.919	3919.4	navigation	Trial1	navigation/STIM_000.jpg	99
19.737	3.58	3579.7	navigation	Trial1	navigation/STIM_000.jpg	100
25.349	1.623	1623.3	navigation	Trial1	navigation/STIM_000.jpg	100
29.883	1.548	1548.4	navigation	Trial1	navigation/STIM_000.jpg	100
33.823	2.734	2734.4	navigation	Trial1	navigation/STIM_001.jpg	100
39.052	3.027	3026.7	navigation	Trial1	navigation/STIM_001.jpg	100
44.607	2.807	2806.7	navigation	Trial1	navigation/STIM_001.jpg	100
49.665	2.491	2490.8	navigation	Trial1	navigation/STIM_001.jpg	100
55.096	3.09	3090.3	navigation	Trial1	navigation/STIM_001.jpg	100
61.605	2.017	2016.5	navigation	Trial1	navigation/STIM_001.jpg	99
66.542	2.341	2340.7	navigation	Trial1	navigation/STIM_002.jpg	99
72.795	3.096	3096.2	navigation	Trial1	navigation/STIM_002.jpg	100
79.316	2.835	2834.6	navigation	Trial1	navigation/STIM_002.jpg	99
84.358	2.811	2811.4	navigation	Trial1	navigation/STIM_002.jpg	100
90.449	2.643	2643.2	navigation	Trial1	navigation/STIM_002.jpg	100
95.799	3.318	3318.4	navigation	Trial1	navigation/STIM_002.jpg	100
101.463	2.565	2564.6	navigation	Trial1	navigation/STIM_003.jpg	99
106.891	1.882	1881.7	navigation	Trial1	navigation/STIM_003.jpg	99
111.881	2.512	2512.5	navigation	Trial1	navigation/STIM_003.jpg	100
117.685	2.248	2247.5	navigation	Trial1	navigation/STIM_003.jpg	99
122.612	1.745	1745.1	navigation	Trial1	navigation/STIM_003.jpg	99
128.156	3.016	3016.3	navigation	Trial1	navigation/STIM_003.jpg	99
135.01	4.298	4297.6	navigation	Trial1	navigation/STIM_004.jpg	100
141.443	3.824	3824.4	navigation	Trial1	navigation/STIM_004.jpg	100
148.581	3.153	3152.9	navigation	Trial1	navigation/STIM_004.jpg	99
153.817	2.253	2252.7	navigation	Trial1	navigation/STIM_004.jpg	100
159.132	3.042	3041.5	navigation	Trial1	navigation/STIM_004.jpg	100
165.725	2.483	2482.9	navigation	Trial1	navigation/STIM_004.jpg	99
170.344	1.921	1921.1	navigation	Trial1	navigation/STIM_005.jpg	99
174.74	1.887	1886.7	navigation	Trial1	navigation/STIM_005.jpg	99
178.971	2.532	2531.8	navigation	Trial1	navigation/STIM_005.jpg	100
183.912	1.702	1701.9	navigation	Trial1	navigation/STIM_005.jpg	100
188.117	3.366	3366.2	navigation	Trial1	navigation/STIM_005.jpg	99
194.663	2.906	2905.5	navigation	Trial1	navigation/STIM_005.jpg	99
200.409	2.391	2390.6	navigation	Trial1	navigation/STIM_006.jpg	100
205.121	1.98	1980.5	navigation	Trial1	navigation/STIM_006.jpg	100
209.71	3.044	3044.5	navigation	Trial1	navigation/STIM_006.jpg	100
216.321	3.361	3360.8	navigation	Trial1	navigation/STIM_006.jpg	100
222.235	2.615	2615.4	navigation	Trial1	navigation/STIM_006.jpg	100
228.673	1.996	1996.3	navigation	Trial1	navigation/STIM_006.jpg	99
233.999	3.481	3481.4	navigation	Trial1	navigation/STIM_007.jpg	100
241.283	3.818	3818.3	navigation	Trial1	navigation/STIM_007.jpg	100
249.042	3.887	3886.9	navigation	Trial1	navigation/STIM_007.jpg	100
256.144	1.748	1747.7	navigation	Trial1	navigation/STIM_007.jpg	99
260.421	3.503	3503.4	navigation	Trial1	navigation/STIM_007.jpg	99
267.551	3.271	3270.9	navigation	Trial1	navigation/STIM_007.jpg	100
274.087	4.292	4292.2	navigation	Trial1	navigation/STIM_008.jpg	99
281.034	2.317	2316.6	navigation	Trial1	navigation/STIM_008.jpg	100
286.747	3.377	3376.7	navigation	Trial1	navigation/STIM_008.jpg	99
293.827	1.55	1549.7	navigation	Trial1	navigation/STIM_008.jpg	99
299.34	3.246	3245.8	navigation	Trial1	navigation/STIM_008.jpg	100
305.751	1.973	1972.6	navigation	Trial1	navigation/STIM_008.jpg	99
311.688	1.992	1992.0	navigation	Trial1	navigation/STIM_009.jpg	99
316.454	3.391	3391.2	navigation	Trial1	navigation/STIM_009.jpg	100
322.92	2.72	2719.7	navigation	Trial1	navigation/STIM_009.jpg	100
329.138	2.148	2148.5	navigation	Trial1	navigation/STIM_009.jpg	100
334.642	3.343	3342.9	navigation	Trial1	navigation/STIM_009.jpg	99
340.275	1.555	1555.3	navigation	Trial1	navigation/STIM_009.jpg	100
345.575	3.436	3435.9	navigation	Trial1	navigation/STIM_010.jpg	99
351.995	2.362	2362.5	navigation	Trial1	navigation/STIM_010.jpg	99
357.347	2.652	2652.2	navigation	Trial1	navigation/STIM_010.jpg	99
362.999	3.642	3641.9	navigation	Trial1	navigation/STIM_010.jpg	99
369.027	3.162	3162.0	navigation	Trial1	navigation/STIM_010.jpg	100
374.544	1.936	1936.0	navigation	Trial1	navigation/STIM_010.jpg	99
379.231	3.489	3488.8	navigation	Trial1	navigation/STIM_011.jpg	100
386.183	3.017	3017.1	navigation	Trial1	navigation/STIM_011.jpg	100
391.482	3.654	3654.2	navigation	Trial1	navigation/STIM_011.jpg	99
398.231	2.258	2258.1	navigation	Trial1	navigation/STIM_011.jpg	100
402.588	2.993	2992.6	navigation	Trial1	navigation/STIM_011.jpg	100
408.82	2.321	2320.7	navigation	Trial1	navigation/STIM_011.jpg	99
413.27	1.131	1130.9	pointing	Trial1	pointing/STIM_000.jpg	100
416.613	0.845	844.6	pointing	Trial1	pointing/STIM_000.jpg	100
421.243	0.859	859.1	pointing	Trial1	pointing/STIM_000.jpg	99
424.7	1.039	1039.4	pointing	Trial1	pointing/STIM_000.jpg	99
429.457	1.284	1284.1	pointing	Trial1	pointing/STIM_000.jpg	99
433.719	1.244	1243.9	pointing	Trial1	pointing/STIM_000.jpg	100
438.67	1.31	1310.1	pointing	Trial1	pointing/STIM_001.jpg	99
443.72	1.172	1172.1	pointing	Trial1	pointing/STIM_001.jpg	99
447.615	0.761	761.2	pointing	Trial1	pointing/STIM_001.jpg	99
450.419	1.082	1081.5	pointing	Trial1	pointing/STIM_001.jpg	100
454.089	0.854	853.6	pointing	Trial1	pointing/STIM_001.jpg	100
457.947	1.192	1192.2	pointing	Trial1	pointing/STIM_001.jpg	100
461.142	0.839	839.1	pointing	Trial1	pointing/STIM_002.jpg	100
465.853	1.117	1116.8	pointing	Trial1	pointing/STIM_002.jpg	100
469.877	1.091	1091.4	pointing	Trial1	pointing/STIM_002.jpg	99
473.445	0.891	890.7	pointing	Trial1	pointing/STIM_002.jpg	99
477.311	0.957	957.2	pointing	Trial1	pointing/STIM_002.jpg	100
481.297	0.883	883.2	pointing	Trial1	pointing/STIM_002.jpg	100
485.242	1.03	1030.0	pointing	Trial1	pointing/STIM_003.jpg	100
488.99	1.211	1210.9	pointing	Trial1	pointing/STIM_003.jpg	100
492.839	1.269	1269.2	pointing	Trial1	pointing/STIM_003.jpg	100
496.177	1.192	1192.0	pointing	Trial1	pointing/STIM_003.jpg	100
500.247	1.292	1292.3	pointing	Trial1	pointing/STIM_003.jpg	100
504.823	1.212	1212.5	pointing	Trial1	pointing/STIM_003.jpg	99
508.454	0.796	795.9	pointing	Trial1	pointing/STIM_004.jpg	100
512.896	0.729	729.3	pointing	Trial1	pointing/STIM_004.jpg	99
516.177	1.296	1296.1	pointing	Trial1	pointing/STIM_004.jpg	99
521.218	1.179	1179.2	pointing	Trial1	pointing/STIM_004.jpg	99
526.386	0.974	974.3	pointing	Trial1	pointing/STIM_004.jpg	100
530.116	1.15	1150.2	pointing	Trial1	pointing/STIM_004.jpg	99
533.331	1.041	1040.7	pointing	Trial1	pointing/STIM_005.jpg	99
537.808	1.238	1238.4	pointing	Trial1	pointing/STIM_005.jpg	100
541.241	1.134	1134.2	pointing	Trial1	pointing/STIM_005.jpg	100
546.319	0.882	882.4	pointing	Trial1	pointing/STIM_005.jpg	99
550.039	0.924	923.7	pointing	Trial1	pointing/STIM_005.jpg	99
554.098	0.97	969.9	pointing	Trial1	pointing/STIM_005.jpg	99
559.021	1.046	1045.5	pointing	Trial1	pointing/STIM_006.jpg	99
562.458	1.121	1120.9	pointing	Trial1	pointing/STIM_006.jpg	99
566.115	0.997	997.4	pointing	Trial1	pointing/STIM_006.jpg	99
569.408	1.219	1218.9	pointing	Trial1	pointing/STIM_006.jpg	100
574.106	1.11	1110.1	pointing	Trial1	pointing/STIM_006.jpg	99
577.826	1.006	1005.5	pointing	Trial1	pointing/STIM_006.jpg	99
582.491	1.121	1121.3	pointing	Trial1	pointing/STIM_007.jpg	99
587.497	1.147	1146.6	pointing	Trial1	pointing/STIM_007.jpg	100
591.397	1.028	1027.7	pointing	Trial1	pointing/STIM_007.jpg	100
595.635	0.723	723.2	pointing	Trial1	pointing/STIM_007.jpg	99
599.627	0.941	940.8	pointing	Trial1	pointing/STIM_007.jpg	100
602.784	0.905	905.1	pointing	Trial1	pointing/STIM_007.jpg	99
606.09	1.322	1322.0	pointing	Trial1	pointing/STIM_008.jpg	100
609.661	0.9	899.9	pointing	Trial1	pointing/STIM_008.jpg	99
614.332	0.741	740.8	pointing	Trial1	pointing/STIM_008.jpg	99
617.102	0.749	749.1	pointing	Trial1	pointing/STIM_008.jpg	100
621.376	0.775	775.2	pointing	Trial1	pointing/STIM_008.jpg	100
625.085	0.898	897.6	pointing	Trial1	pointing/STIM_008.jpg	100
629.109	0.907	907.1	pointing	Trial1	pointing/STIM_009.jpg	100
632.224	0.86	860.5	pointing	Trial1	pointing/STIM_009.jpg	100
635.222	1.025	1025.1	pointing	Trial1	pointing/STIM_009.jpg	99
639.591	0.744	744.1	pointing	Trial1	pointing/STIM_009.jpg	100
643.091	1.29	1289.6	pointing	Trial1	pointing/STIM_009.jpg	99
648.014	0.773	772.7	pointing	Trial1	pointing/STIM_009.jpg	100
652.676	1.018	1018.3	pointing	Trial1	pointing/STIM_010.jpg	100
656.513	1.003	1002.9	pointing	Trial1	pointing/STIM_010.jpg	99
659.785	0.734	734.2	pointing	Trial1	pointing/STIM_010.jpg	99
663.337	0.762	761.9	pointing	Trial1	pointing/STIM_010.jpg	100
666.575	1.206	1205.6	pointing	Trial1	pointing/STIM_010.jpg	99
671.177	1.05	1050.3	pointing	Trial1	pointing/STIM_010.jpg	99
674.796	0.852	851.6	pointing	Trial1	pointing/STIM_011.jpg	100
678.773	1.01	1010.4	pointing	Trial1	pointing/STIM_011.jpg	99
681.797	0.782	782.2	pointing	Trial1	pointing/STIM_011.jpg	99
685.782	1.236	1236.3	pointing	Trial1	pointing/STIM_011.jpg	100
689.348	1.048	1048.0	pointing	Trial1	pointing/STIM_011.jpg	99
694.08	1.009	1009.3	pointing	Trial1	pointing/STIM_011.jpg	100
697.411	1.571	1570.6	navigation	Trial2	navigation/STIM_000.jpg	100
702.921	1.841	1840.9	navigation	Trial2	navigation/STIM_000.jpg	99
708.524	2.023	2022.6	navigation	Trial2	navigation/STIM_000.jpg	99
714.0	3.114	3114.5	navigation	Trial2	navigation/STIM_000.jpg	99
719.708	1.82	1819.5	navigation	Trial2	navigation/STIM_000.jpg	100
725.087	1.531	1530.7	navigation	Trial2	navigation/STIM_000.jpg	100
729.914	2.845	2844.6	navigation	Trial2	navigation/STIM_001.jpg	99
736.083	2.216	2215.8	navigation	Trial2	navigation/STIM_001.jpg	100
741.399	2.986	2986.4	navigation	Trial2	navigation/STIM_001.jpg	100
747.374	1.978	1977.8	navigation	Trial2	navigation/STIM_001.jpg	100
752.236	1.333	1333.1	navigation	Trial2	navigation/STIM_001.jpg	100
756.024	2.93	2930.2	navigation	Trial2	navigation/STIM_001.jpg	99
760.964	3.128	3128.3	navigation	Trial2	navigation/STIM_002.jpg	99
767.555	3.394	3393.9	navigation	Trial2	navigation/STIM_002.jpg	99
773.626	1.673	1672.6	navigation	Trial2	navigation/STIM_002.jpg	100
779.034	2.714	2714.2	navigation	Trial2	navigation/STIM_002.jpg	100
785.306	2.337	2337.1	navigation	Trial2	navigation/STIM_002.jpg	99
791.164	1.378	1378.1	navigation	Trial2	navigation/STIM_002.jpg	99
795.785	2.849	2848.6	navigation	Trial2	navigation/STIM_003.jpg	99
801.506	2.854	2854.1	navigation	Trial2	navigation/STIM_003.jpg	99
806.59	2.904	2903.9	navigation	Trial2	navigation/STIM_003.jpg	99
812.662	2.701	2700.7	navigation	Trial2	navigation/STIM_003.jpg	99
819.093	2.092	2091.8	navigation	Trial2	navigation/STIM_003.jpg	100
823.798	1.696	1695.7	navigation	Trial2	navigation/STIM_003.jpg	99
828.984	2.196	2196.1	navigation	Trial2	navigation/STIM_004.jpg	100
833.487	2.169	2169.3	navigation	Trial2	navigation/STIM_004.jpg	100
839.208	2.288	2288.3	navigation	Trial2	navigation/STIM_004.jpg	100
843.728	2.236	2235.6	navigation	Trial2	navigation/STIM_004.jpg	100
849.304	2.538	2537.5	navigation	Trial2	navigation/STIM_004.jpg	99
854.684	2.188	2187.8	navigation	Trial2	navigation/STIM_004.jpg	99
860.584	3.758	3757.8	navigation	Trial2	navigation/STIM_005.jpg	100
867.304	3.527	3527.0	navigation	Trial2	navigation/STIM_005.jpg	100
874.71	2.251	2251.1	navigation	Trial2	navigation/STIM_005.jpg	99
879.846	1.342	1342.0	navigation	Trial2	navigation/STIM_005.jpg	99
883.997	2.889	2889.1	navigation	Trial2	navigation/STIM_005.jpg	100
889.078	2.346	2346.5	navigation	Trial2	navigation/STIM_005.jpg	100
893.78	3.458	3458.5	navigation	Trial2	navigation/STIM_006.jpg	99
901.057	1.564	1563.9	navigation	Trial2	navigation/STIM_006.jpg	99
906.549	2.0	2000.4	navigation	Trial2	navigation/STIM_006.jpg	99
911.003	1.627	1627.1	navigation	Trial2	navigation/STIM_006.jpg	99
914.849	1.985	1984.7	navigation	Trial2	navigation/STIM_006.jpg	99
919.304	2.157	2157.1	navigation	Trial2	navigation/STIM_006.jpg	100
924.083	2.54	2540.2	navigation	Trial2	navigation/STIM_007.jpg	100
929.084	2.316	2315.5	navigation	Trial2	navigation/STIM_007.jpg	99
933.742	1.849	1848.9	navigation	Trial2	navigation/STIM_007.jpg	99
937.964	1.94	1939.6	navigation	Trial2	navigation/STIM_007.jpg	100
942.187	2.861	2861.0	navigation	Trial2	navigation/STIM_007.jpg	99
948.997	2.975	2974.9	navigation	Trial2	navigation/STIM_007.jpg	100
955.808	2.394	2393.6	navigation	Trial2	navigation/STIM_008.jpg	99
960.739	3.081	3081.0	navigation	Trial2	navigation/STIM_008.jpg	99
966.836	2.608	2608.1	navigation	Trial2	navigation/STIM_008.jpg	99
972.657	2.161	2161.3	navigation	Trial2	navigation/STIM_008.jpg	100
978.78	2.629	2628.6	navigation	Trial2	navigation/STIM_008.jpg	100
984.428	1.275	1275.1	navigation	Trial2	navigation/STIM_008.jpg	99
989.387	2.267	2266.9	navigation	Trial2	navigation/STIM_009.jpg	99
995.638	2.86	2859.8	navigation	Trial2	navigation/STIM_009.jpg	100
1002.086	1.515	1514.7	navigation	Trial2	navigation/STIM_009.jpg	99
1005.762	2.494	2494.5	navigation	Trial2	navigation/STIM_009.jpg	99
1011.985	2.018	2018.3	navigation	Trial2	navigation/STIM_009.jpg	99
1016.263	3.062	3062.0	navigation	Trial2	navigation/STIM_009.jpg	99
1021.651	3.708	3708.0	navigation	Trial2	navigation/STIM_010.jpg	100
1029.153	3.424	3423.6	navigation	Trial2	navigation/STIM_010.jpg	100
1036.2	1.358	1357.7	navigation	Trial2	navigation/STIM_010.jpg	99
1039.668	1.536	1535.9	navigation	Trial2	navigation/STIM_010.jpg	100
1044.65	1.479	1479.0	navigation	Trial2	navigation/STIM_010.jpg	100
1048.304	1.556	1555.5	navigation	Trial2	navigation/STIM_010.jpg	100
1053.832	2.534	2534.1	navigation	Trial2	navigation/STIM_011.jpg	99
1059.571	3.31	3310.4	navigation	Trial2	navigation/STIM_011.jpg	100
1065.395	3.174	3174.4	navigation	Trial2	navigation/STIM_011.jpg	99
1070.689	1.709	1708.6	navigation	Trial2	navigation/STIM_011.jpg	99
1076.27	1.346	1346.1	navigation	Trial2	navigation/STIM_011.jpg	99
1080.56	1.736	1736.4	navigation	Trial2	navigation/STIM_011.jpg	100
1084.722	1.212	1211.8	pointing	Trial2	pointing/STIM_000.jpg	99
1089.423	0.753	753.2	pointing	Trial2	pointing/STIM_000.jpg	99
1093.702	1.122	1122.2	pointing	Trial2	pointing/STIM_000.jpg	100
1097.664	1.104	1103.5	pointing	Trial2	pointing/STIM_000.jpg	100
1101.942	1.134	1134.2	pointing	Trial2	pointing/STIM_000.jpg	100
1105.352	0.896	895.8	pointing	Trial2	pointing/STIM_000.jpg	99
1109.541	0.745	745.0	pointing	Trial2	pointing/STIM_001.jpg	99
1112.774	1.336	1336.4	pointing	Trial2	pointing/STIM_001.jpg	99
1116.77	1.28	1280.5	pointing	Trial2	pointing/STIM_001.jpg	99
1121.053	1.245	1245.4	pointing	Trial2	pointing/STIM_001.jpg	99
1124.696	1.293	1292.8	pointing	Trial2	pointing/STIM_001.jpg	100
1128.487	1.01	1010.3	pointing	Trial2	pointing/STIM_001.jpg	99
1132.479	1.018	1018.0	pointing	Trial2	pointing/STIM_002.jpg	99
1136.945	1.076	1076.0	pointing	Trial2	pointing/STIM_002.jpg	100
1141.254	1.19	1190.0	pointing	Trial2	pointing/STIM_002.jpg	99
1146.387	1.322	1321.9	pointing	Trial2	pointing/STIM_002.jpg	99
1150.442	0.89	889.6	pointing	Trial2	pointing/STIM_002.jpg	99
1154.622	1.229	1229.2	pointing	Trial2	pointing/STIM_002.jpg	100
1159.473	0.788	787.9	pointing	Trial2	pointing/STIM_003.jpg	100
1162.969	1.182	1181.6	pointing	Trial2	pointing/STIM_003.jpg	99
1166.879	1.281	1280.9	pointing	Trial2	pointing/STIM_003.jpg	99
1171.919	0.856	855.8	pointing	Trial2	pointing/STIM_003.jpg	100
1175.636	0.889	889.2	pointing	Trial2	pointing/STIM_003.jpg	99
1179.902	0.948	947.8	pointing	Trial2	pointing/STIM_003.jpg	100
1184.006	1.242	1242.3	pointing	Trial2	pointing/STIM_004.jpg	99
1188.902	0.774	774.5	pointing	Trial2	pointing/STIM_004.jpg	100
1192.728	0.981	981.4	pointing	Trial2	pointing/STIM_004.jpg	99
1196.306	1.322	1321.6	pointing	Trial2	pointing/STIM_004.jpg	99
1200.951	1.29	1290.3	pointing	Trial2	pointing/STIM_004.jpg	99
1205.061	1.31	1309.9	pointing	Trial2	pointing/STIM_004.jpg	100
1209.323	0.844	843.9	pointing	Trial2	pointing/STIM_005.jpg	100
1212.753	0.807	806.7	pointing	Trial2	pointing/STIM_005.jpg	100
1215.862	0.796	796.2	pointing	Trial2	pointing/STIM_005.jpg	100
1219.185	0.864	864.0	pointing	Trial2	pointing/STIM_005.jpg	99
1222.938	0.755	754.8	pointing	Trial2	pointing/STIM_005.jpg	99
1227.215	0.814	813.5	pointing	Trial2	pointing/STIM_005.jpg	99
1231.661	1.223	1223.3	pointing	Trial2	pointing/STIM_006.jpg	99
1235.474	0.885	884.6	pointing	Trial2	pointing/STIM_006.jpg	100
1239.122	1.18	1180.2	pointing	Trial2	pointing/STIM_006.jpg	100
1243.078	0.726	725.5	pointing	Trial2	pointing/STIM_006.jpg	100
1246.276	0.733	732.7	pointing	Trial2	pointing/STIM_006.jpg	100
1249.201	1.02	1020.2	pointing	Trial2	pointing/STIM_006.jpg	100
1252.908	0.827	827.2	pointing	Trial2	pointing/STIM_007.jpg	100
1255.919	0.715	715.2	pointing	Trial2	pointing/STIM_007.jpg	99
1259.392	1.001	1001.3	pointing	Trial2	pointing/STIM_007.jpg	99
1263.534	0.864	863.5	pointing	Trial2	pointing/STIM_007.jpg	99
1268.256	1.07	1069.8	pointing	Trial2	pointing/STIM_007.jpg	99
1272.842	0.892	892.1	pointing	Trial2	pointing/STIM_007.jpg	100
1276.666	1.233	1233.2	pointing	Trial2	pointing/STIM_008.jpg	100
1279.965	0.791	790.7	pointing	Trial2	pointing/STIM_008.jpg	99
1283.064	1.106	1105.9	pointing	Trial2	pointing/STIM_008.jpg	100
1286.73	1.092	1092.0	pointing	Trial2	pointing/STIM_008.jpg	99
1289.99	0.872	871.7	pointing	Trial2	pointing/STIM_008.jpg	100
1294.309	0.718	718.5	pointing	Trial2	pointing/STIM_008.jpg	99
1298.053	0.74	740.1	pointing	Trial2	pointing/STIM_009.jpg	100
1301.015	0.736	736.0	pointing	Trial2	pointing/STIM_009.jpg	99
1304.165	1.192	1191.8	pointing	Trial2	pointing/STIM_009.jpg	100
1308.051	1.288	1287.8	pointing	Trial2	pointing/STIM_009.jpg	99
1311.791	1.132	1132.2	pointing	Trial2	pointing/STIM_009.jpg	100
1315.504	1.301	1301.0	pointing	Trial2	pointing/STIM_009.jpg	100
1319.212	0.895	895.4	pointing	Trial2	pointing/STIM_010.jpg	99
1323.981	0.743	743.3	pointing	Trial2	pointing/STIM_010.jpg	100
1328.661	1.21	1209.5	pointing	Trial2	pointing/STIM_010.jpg	99
1332.695	1.196	1196.5	pointing	Trial2	pointing/STIM_010.jpg	99
1337.511	1.002	1001.8	pointing	Trial2	pointing/STIM_010.jpg	100
1341.115	1.089	1089.0	pointing	Trial2	pointing/STIM_010.jpg	100
1344.478	1.09	1090.5	pointing	Trial2	pointing/STIM_011.jpg	99
1348.012	0.865	864.8	pointing	Trial2	pointing/STIM_011.jpg	99
1351.568	0.78	780.5	pointing	Trial2	pointing/STIM_011.jpg	99
1355.783	0.898	898.3	pointing	Trial2	pointing/STIM_011.jpg	99
1359.465	0.745	744.7	pointing	Trial2	pointing/STIM_011.jpg	100
1363.103	0.78	780.4	pointing	Trial2	pointing/STIM_011.jpg	99
1366.226	1.676	1676.2	navigation	Trial3	navigation/STIM_000.jpg	100
1370.211	2.806	2806.3	navigation	Trial3	navigation/STIM_000.jpg	99
1376.508	2.378	2378.2	navigation	Trial3	navigation/STIM_000.jpg	99
1381.221	1.761	1760.6	navigation	Trial3	navigation/STIM_000.jpg	99
1385.52	2.924	2924.5	navigation	Trial3	navigation/STIM_000.jpg	99
1391.239	2.697	2697.3	navigation	Trial3	navigation/STIM_000.jpg	100
1396.122	2.64	2639.8	navigation	Trial3	navigation/STIM_001.jpg	100
1401.142	1.739	1739.0	navigation	Trial3	navigation/STIM_001.jpg	99
1404.928	2.591	2590.8	navigation	Trial3	navigation/STIM_001.jpg	99
1409.636	2.479	2478.8	navigation	Trial3	navigation/STIM_001.jpg	100
1414.658	3.015	3014.9	navigation	Trial3	navigation/STIM_001.jpg	100
1420.957	2.754	2754.0	navigation	Trial3	navigation/STIM_001.jpg	100
1425.806	2.095	2095.2	navigation	Trial3	navigation/STIM_002.jpg	99
1431.431	2.818	2817.9	navigation	Trial3	navigation/STIM_002.jpg	99
1437.073	1.999	1998.9	navigation	Trial3	navigation/STIM_002.jpg	99
1442.789	1.777	1776.6	navigation	Trial3	navigation/STIM_002.jpg	99
1448.123	1.59	1590.5	navigation	Trial3	navigation/STIM_002.jpg	99
1453.356	2.872	2871.8	navigation	Trial3	navigation/STIM_002.jpg	100
1459.542	1.958	1957.5	navigation	Trial3	navigation/STIM_003.jpg	99
1464.101	1.321	1320.6	navigation	Trial3	navigation/STIM_003.jpg	100
1469.01	1.483	1483.2	navigation	Trial3	navigation/STIM_003.jpg	99
1472.905	2.702	2702.0	navigation	Trial3	navigation/STIM_003.jpg	99
1477.835	2.644	2643.8	navigation	Trial3	navigation/STIM_003.jpg	100
1483.718	2.111	2111.3	navigation	Trial3	navigation/STIM_003.jpg	99
1489.775	1.888	1888.2	navigation	Trial3	navigation/STIM_004.jpg	100
1495.498	2.702	2701.7	navigation	Trial3	navigation/STIM_004.jpg	100
1501.361	1.308	1308.0	navigation	Trial3	navigation/STIM_004.jpg	100
1506.553	2.201	2201.2	navigation	Trial3	navigation/STIM_004.jpg	99
1511.32	2.338	2338.5	navigation	Trial3	navigation/STIM_004.jpg	100
1516.324	1.964	1963.7	navigation	Trial3	navigation/STIM_004.jpg	100
1522.088	2.004	2003.8	navigation	Trial3	navigation/STIM_005.jpg	100
1527.938	1.278	1278.2	navigation	Trial3	navigation/STIM_005.jpg	99
1531.675	2.556	2556.3	navigation	Trial3	navigation/STIM_005.jpg	100
1537.569	2.898	2897.7	navigation	Trial3	navigation/STIM_005.jpg	100
1542.99	2.668	2668.5	navigation	Trial3	navigation/STIM_005.jpg	100
1549.552	2.143	2143.1	navigation	Trial3	navigation/STIM_005.jpg	99
1554.151	2.016	2015.7	navigation	Trial3	navigation/STIM_006.jpg	99
1558.273	1.931	1931.1	navigation	Trial3	navigation/STIM_006.jpg	99
1563.383	2.747	2747.0	navigation	Trial3	navigation/STIM_006.jpg	99
1568.568	2.437	2437.3	navigation	Trial3	navigation/STIM_006.jpg	99
1573.453	1.557	1557.4	navigation	Trial3	navigation/STIM_006.jpg	99
1578.821	2.273	2272.8	navigation	Trial3	navigation/STIM_006.jpg	100
1584.489	1.834	1833.6	navigation	Trial3	navigation/STIM_007.jpg	99
1588.763	1.397	1397.3	navigation	Trial3	navigation/STIM_007.jpg	99
1593.66	2.824	2824.1	navigation	Trial3	navigation/STIM_007.jpg	100
1599.807	1.485	1485.3	navigation	Trial3	navigation/STIM_007.jpg	100
1605.195	1.579	1578.8	navigation	Trial3	navigation/STIM_007.jpg	99
1609.28	2.495	2495.3	navigation	Trial3	navigation/STIM_007.jpg	100
1615.219	2.615	2615.2	navigation	Trial3	navigation/STIM_008.jpg	100
1620.628	2.928	2927.5	navigation	Trial3	navigation/STIM_008.jpg	100
1627.122	1.299	1298.7	navigation	Trial3	navigation/STIM_008.jpg	99
1630.45	2.19	2189.7	navigation	Trial3	navigation/STIM_008.jpg	100
1635.048	1.527	1526.9	navigation	Trial3	navigation/STIM_008.jpg	100
1640.203	2.353	2353.4	navigation	Trial3	navigation/STIM_008.jpg	99
1646.425	1.756	1755.9	navigation	Trial3	navigation/STIM_009.jpg	99
1650.305	2.646	2646.2	navigation	Trial3	navigation/STIM_009.jpg	100
1655.699	1.631	1631.4	navigation	Trial3	navigation/STIM_009.jpg	99
1659.985	2.145	2144.6	navigation	Trial3	navigation/STIM_009.jpg	100
1665.089	2.726	2725.9	navigation	Trial3	navigation/STIM_009.jpg	99
1671.515	1.845	1844.6	navigation	Trial3	navigation/STIM_009.jpg	100
1676.727	2.975	2974.8	navigation	Trial3	navigation/STIM_010.jpg	99
1683.545	2.972	2971.8	navigation	Trial3	navigation/STIM_010.jpg	100
1688.82	2.802	2801.6	navigation	Trial3	navigation/STIM_010.jpg	99
1694.453	3.043	3043.3	navigation	Trial3	navigation/STIM_010.jpg	100
1699.777	2.426	2425.9	navigation	Trial3	navigation/STIM_010.jpg	100
1705.908	3.072	3071.6	navigation	Trial3	navigation/STIM_010.jpg	100
1712.284	3.0	2999.9	navigation	Trial3	navigation/STIM_011.jpg	99
1717.327	2.063	2062.9	navigation	Trial3	navigation/STIM_011.jpg	99
1721.628	1.498	1498.0	navigation	Trial3	navigation/STIM_011.jpg	100
1726.906	1.534	1533.8	navigation	Trial3	navigation/STIM_011.jpg	100
1730.942	1.684	1683.7	navigation	Trial3	navigation/STIM_011.jpg	99
1736.286	2.441	2441.1	navigation	Trial3	navigation/STIM_011.jpg	99
1741.83	1.139	1139.0	pointing	Trial3	pointing/STIM_000.jpg	99
1745.545	0.837	837.2	pointing	Trial3	pointing/STIM_000.jpg	100
1750.361	1.014	1014.4	pointing	Trial3	pointing/STIM_000.jpg	100
1753.802	1.325	1324.8	pointing	Trial3	pointing/STIM_000.jpg	100
1757.941	1.128	1127.7	pointing	Trial3	pointing/STIM_000.jpg	99
1761.277	0.835	834.9	pointing	Trial3	pointing/STIM_000.jpg	100
1765.542	0.724	723.8	pointing	Trial3	pointing/STIM_001.jpg	99
1768.882	1.203	1202.6	pointing	Trial3	pointing/STIM_001.jpg	100
1773.209	0.796	796.1	pointing	Trial3	pointing/STIM_001.jpg	99
1776.264	1.193	1193.1	pointing	Trial3	pointing/STIM_001.jpg	100
1781.429	1.021	1020.8	pointing	Trial3	pointing/STIM_001.jpg	99
1786.172	0.843	843.1	pointing	Trial3	pointing/STIM_001.jpg	99
1789.424	0.885	884.7	pointing	Trial3	pointing/STIM_002.jpg	99
1793.267	1.23	1230.1	pointing	Trial3	pointing/STIM_002.jpg	99
1798.269	0.79	790.0	pointing	Trial3	pointing/STIM_002.jpg	100
1801.092	1.103	1103.3	pointing	Trial3	pointing/STIM_002.jpg	99
1804.591	0.714	713.7	pointing	Trial3	pointing/STIM_002.jpg	100
1808.04	0.99	989.9	pointing	Trial3	pointing/STIM_002.jpg	99
1812.99	1.27	1270.4	pointing	Trial3	pointing/STIM_003.jpg	99
1818.144	1.224	1224.2	pointing	Trial3	pointing/STIM_003.jpg	100
1822.496	0.797	796.9	pointing	Trial3	pointing/STIM_003.jpg	100
1826.116	1.287	1287.4	pointing	Trial3	pointing/STIM_003.jpg	100
1829.614	0.994	993.6	pointing	Trial3	pointing/STIM_003.jpg	100
1833.053	1.082	1081.8	pointing	Trial3	pointing/STIM_003.jpg	100
1837.898	0.94	940.0	pointing	Trial3	pointing/STIM_004.jpg	100
1841.056	1.208	1207.5	pointing	Trial3	pointing/STIM_004.jpg	100
1845.752	0.81	809.6	pointing	Trial3	pointing/STIM_004.jpg	100
1849.527	0.91	910.2	pointing	Trial3	pointing/STIM_004.jpg	99
1854.283	1.337	1336.7	pointing	Trial3	pointing/STIM_004.jpg	99
1859.224	0.922	922.0	pointing	Trial3	pointing/STIM_004.jpg	100
1862.413	1.279	1278.9	pointing	Trial3	pointing/STIM_005.jpg	100
1867.556	0.966	966.0	pointing	Trial3	pointing/STIM_005.jpg	100
1870.709	1.225	1224.7	pointing	Trial3	pointing/STIM_005.jpg	100
1875.195	1.199	1198.6	pointing	Trial3	pointing/STIM_005.jpg	100
1879.964	0.764	763.8	pointing	Trial3	pointing/STIM_005.jpg	100
1884.442	0.897	896.8	pointing	Trial3	pointing/STIM_005.jpg	99
1889.016	0.794	794.1	pointing	Trial3	pointing/STIM_006.jpg	99
1892.7	0.733	732.6	pointing	Trial3	pointing/STIM_006.jpg	100
1896.17	1.046	1046.5	pointing	Trial3	pointing/STIM_006.jpg	100
1900.037	0.878	877.9	pointing	Trial3	pointing/STIM_006.jpg	100
1903.55	1.252	1251.8	pointing	Trial3	pointing/STIM_006.jpg	99
1906.841	0.768	768.2	pointing	Trial3	pointing/STIM_006.jpg	100
1910.43	0.885	885.4	pointing	Trial3	pointing/STIM_007.jpg	100
1915.256	0.938	938.4	pointing	Trial3	pointing/STIM_007.jpg	99
1919.08	0.953	952.6	pointing	Trial3	pointing/STIM_007.jpg	99
1922.544	1.218	1218.0	pointing	Trial3	pointing/STIM_007.jpg	99
1926.351	0.786	785.7	pointing	Trial3	pointing/STIM_007.jpg	99
1929.664	1.212	1211.5	pointing	Trial3	pointing/STIM_007.jpg	99
1934.406	1.244	1244.2	pointing	Trial3	pointing/STIM_008.jpg	100
1937.937	0.984	984.2	pointing	Trial3	pointing/STIM_008.jpg	100
1941.888	1.1	1100.3	pointing	Trial3	pointing/STIM_008.jpg	100
1945.602	1.334	1334.3	pointing	Trial3	pointing/STIM_008.jpg	100
1949.317	0.882	881.9	pointing	Trial3	pointing/STIM_008.jpg	100
1952.266	1.325	1325.0	pointing	Trial3	pointing/STIM_008.jpg	99
1955.896	1.194	1193.5	pointing	Trial3	pointing/STIM_009.jpg	100
1960.257	1.107	1107.4	pointing	Trial3	pointing/STIM_009.jpg	100
1964.715	1.023	1022.8	pointing	Trial3	pointing/STIM_009.jpg	99
1969.644	1.317	1317.2	pointing	Trial3	pointing/STIM_009.jpg	99
1974.203	1.049	1048.6	pointing	Trial3	pointing/STIM_009.jpg	99
1977.579	0.793	793.3	pointing	Trial3	pointing/STIM_009.jpg	99
1981.675	1.284	1284.3	pointing	Trial3	pointing/STIM_010.jpg	99
1984.973	0.987	986.6	pointing	Trial3	pointing/STIM_010.jpg	99
1988.466	1.19	1189.9	pointing	Trial3	pointing/STIM_010.jpg	100
1993.01	1.257	1257.4	pointing	Trial3	pointing/STIM_010.jpg	99
1997.404	1.027	1026.8	pointing	Trial3	pointing/STIM_010.jpg	99
2001.962	0.818	818.2	pointing	Trial3	pointing/STIM_010.jpg	99
2005.205	0.987	987.2	pointing	Trial3	pointing/STIM_011.jpg	99
2009.814	0.72	720.1	pointing	Trial3	pointing/STIM_011.jpg	99
2014.505	1.321	1320.6	pointing	Trial3	pointing/STIM_011.jpg	100
2018.994	0.96	960.4	pointing	Trial3	pointing/STIM_011.jpg	100
2023.056	1.175	1175.4	pointing	Trial3	pointing/STIM_011.jpg	100
2026.783	0.756	756.3	pointing	Trial3	pointing/STIM_011.jpg	99
