onset	duration	response_time_ms	trial_type	learning_stage	stimulus	response_port
0.0	1.383	1382.7	study	Phase1	study/STIM_000.jpg	100
4.556	1.356	1355.9	study	Phase1	study/STIM_000.jpg	100
8.379	1.319	1319.1	study	Phase1	study/STIM_000.jpg	99
11.806	1.229	1228.9	study	Phase1	study/STIM_001.jpg	100
16.966	1.094	1093.9	study	Phase1	study/STIM_001.jpg	100
21.258	1.467	1466.8	study	Phase1	study/STIM_001.jpg	100
26.336	1.238	1238.3	study	Phase1	study/STIM_002.jpg	99
29.813	1.123	1122.7	study	Phase1	study/STIM_002.jpg	99
33.261	1.344	1344.4	study	Phase1	study/STIM_002.jpg	100
38.441	1.66	1659.5	study	Phase1	study/STIM_003.jpg	100
43.961	1.343	1343.0	study	Phase1	study/STIM_003.jpg	100
49.175	1.247	1246.9	study	Phase1	study/STIM_003.jpg	99
52.955	1.499	1499.4	study	Phase1	study/STIM_004.jpg	99
58.056	1.516	1515.9	study	Phase1	study/STIM_004.jpg	100
62.678	0.704	704.3	study	Phase1	study/STIM_004.jpg	99
65.759	1.567	1566.9	study	Phase1	study/STIM_005.jpg	100
69.819	1.065	1065.4	study	Phase1	study/STIM_005.jpg	100
74.732	1.471	1471.3	study	Phase1	study/STIM_005.jpg	99
78.867	1.463	1463.0	study	Phase1	study/STIM_006.jpg	100
82.967	1.543	1542.9	study	Phase1	study/STIM_006.jpg	100
87.013	0.866	866.1	study	Phase1	study/STIM_006.jpg	100
91.178	1.637	1636.9	study	Phase1	study/STIM_007.jpg	99
95.194	0.908	907.5	study	Phase1	study/STIM_007.jpg	99
99.133	1.065	1064.9	study	Phase1	study/STIM_007.jpg	100
103.56	1.506	1505.7	study	Phase1	study/STIM_008.jpg	99
108.103	1.267	1267.2	study	Phase1	study/STIM_008.jpg	99
112.895	1.233	1232.7	study	Phase1	study/STIM_008.jpg	99
116.606	1.58	1579.6	study	Phase1	study/STIM_009.jpg	99
121.184	1.345	1345.2	study	Phase1	study/STIM_009.jpg	100
126.372	0.775	775.1	study	Phase1	study/STIM_009.jpg	99
130.847	1.353	1353.4	study	Phase1	study/STIM_010.jpg	99
134.318	1.374	1374.2	study	Phase1	study/STIM_010.jpg	99
139.624	1.395	1394.9	study	Phase1	study/STIM_010.jpg	100
143.782	1.319	1318.8	study	Phase1	study/STIM_011.jpg	100
147.578	0.842	842.0	study	Phase1	study/STIM_011.jpg	99
151.837	0.83	830.5	study	Phase1	study/STIM_011.jpg	100
155.243	1.563	1562.7	study	Phase1	study/STIM_012.jpg	99
160.196	1.033	1033.3	study	Phase1	study/STIM_012.jpg	99
164.48	1.072	1072.0	study	Phase1	study/STIM_012.jpg	100
167.679	1.655	1654.6	study	Phase1	study/STIM_013.jpg	99
172.425	1.085	1085.3	study	Phase1	study/STIM_013.jpg	99
176.325	1.043	1043.0	study	Phase1	study/STIM_013.jpg	99
180.017	0.998	998.2	study	Phase1	study/STIM_014.jpg	100
183.181	0.827	826.7	study	Phase1	study/STIM_014.jpg	99
187.948	1.443	1443.2	study	Phase1	study/STIM_014.jpg	99
192.748	1.287	1287.2	study	Phase1	study/STIM_015.jpg	99
197.274	0.902	902.4	study	Phase1	study/STIM_015.jpg	100
200.661	1.353	1352.7	study	Phase1	study/STIM_015.jpg	99
205.542	1.284	1283.8	study	Phase1	study/STIM_016.jpg	100
209.097	1.226	1225.6	study	Phase1	study/STIM_016.jpg	99
213.914	1.332	1331.8	study	Phase1	study/STIM_016.jpg	100
217.294	0.897	896.9	study	Phase1	study/STIM_017.jpg	100
221.215	1.44	1440.5	study	Phase1	study/STIM_017.jpg	100
225.681	1.388	1388.5	study	Phase1	study/STIM_017.jpg	99
229.984	1.224	1223.7	study	Phase1	study/STIM_018.jpg	99
233.857	1.098	1097.9	study	Phase1	study/STIM_018.jpg	99
237.799	1.237	1237.4	study	Phase1	study/STIM_018.jpg	99
242.862	1.506	1505.7	study	Phase1	study/STIM_019.jpg	100
246.615	1.179	1179.1	study	Phase1	study/STIM_019.jpg	99
249.844	1.393	1392.7	study	Phase1	study/STIM_019.jpg	100
254.547	1.349	1348.9	study	Phase1	study/STIM_020.jpg	99
258.762	1.591	1590.6	study	Phase1	study/STIM_020.jpg	99
264.228	1.516	1516.3	study	Phase1	study/STIM_020.jpg	99
268.709	0.959	959.0	study	Phase1	study/STIM_021.jpg	99
273.065	0.747	746.9	study	Phase1	study/STIM_021.jpg	99
276.118	1.071	1070.9	study	Phase1	study/STIM_021.jpg	100
280.253	0.79	790.5	study	Phase1	study/STIM_022.jpg	100
283.35	1.001	1000.7	study	Phase1	study/STIM_022.jpg	100
287.366	1.043	1043.4	study	Phase1	study/STIM_022.jpg	99
291.584	0.892	892.1	study	Phase1	study/STIM_023.jpg	100
296.063	1.042	1042.2	study	Phase1	study/STIM_023.jpg	100
299.836	1.462	1461.9	study	Phase1	study/STIM_023.jpg	99
305.293	0.985	985.0	study	Phase1	study/STIM_024.jpg	99
308.85	0.938	938.0	study	Phase1	study/STIM_024.jpg	99
311.861	1.131	1131.4	study	Phase1	study/STIM_024.jpg	99
315.393	0.783	783.0	study	Phase1	study/STIM_025.jpg	100
318.448	1.238	1237.9	study	Phase1	study/STIM_025.jpg	99
322.25	0.712	712.4	study	Phase1	study/STIM_025.jpg	99
325.741	1.185	1184.8	study	Phase1	study/STIM_026.jpg	99
329.672	0.763	762.7	study	Phase1	study/STIM_026.jpg	100
333.409	1.478	1478.4	study	Phase1	study/STIM_026.jpg	100
337.628	1.196	1196.4	study	Phase1	study/STIM_027.jpg	99
341.084	1.373	1372.9	study	Phase1	study/STIM_027.jpg	100
345.515	1.474	1474.1	study	Phase1	study/STIM_027.jpg	100
349.565	0.787	787.4	study	Phase1	study/STIM_028.jpg	100
353.498	1.298	1297.9	study	Phase1	study/STIM_028.jpg	99
357.954	0.82	819.7	study	Phase1	study/STIM_028.jpg	99
360.889	1.341	1341.2	study	Phase1	study/STIM_029.jpg	99
364.829	1.41	1410.1	study	Phase1	study/STIM_029.jpg	99
369.549	1.443	1442.8	study	Phase1	study/STIM_029.jpg	100
374.666	0.569	569.4	test	Phase1	test/STIM_000.jpg	99
377.735	0.569	569.2	test	Phase1	test/STIM_000.jpg	100
381.203	0.636	636.3	test	Phase1	test/STIM_000.jpg	100
385.468	0.975	975.0	test	Phase1	test/STIM_001.jpg	100
389.498	0.996	996.4	test	Phase1	test/STIM_001.jpg	100
392.834	0.822	822.3	test	Phase1	test/STIM_001.jpg	100
397.062	0.693	693.4	test	Phase1	test/STIM_002.jpg	99
399.945	1.062	1062.0	test	Phase1	test/STIM_002.jpg	99
404.548	0.646	646.1	test	Phase1	test/STIM_002.jpg	100
407.819	0.674	674.2	test	Phase1	test/STIM_003.jpg	99
411.859	0.954	954.2	test	Phase1	test/STIM_003.jpg	99
415.539	0.757	757.3	test	Phase1	test/STIM_003.jpg	99
418.898	0.941	941.2	test	Phase1	test/STIM_004.jpg	100
422.148	0.871	870.7	test	Phase1	test/STIM_004.jpg	99
425.384	0.794	794.3	test	Phase1	test/STIM_004.jpg	99
428.688	0.651	650.8	test	Phase1	test/STIM_005.jpg	99
432.471	0.786	786.0	test	Phase1	test/STIM_005.jpg	99
436.971	1.206	1206.4	test	Phase1	test/STIM_005.jpg	100
441.513	1.206	1205.8	test	Phase1	test/STIM_006.jpg	99
446.3	1.119	1119.0	test	Phase1	test/STIM_006.jpg	100
451.185	1.139	1138.6	test	Phase1	test/STIM_006.jpg	99
455.018	0.889	889.2	test	Phase1	test/STIM_007.jpg	100
459.844	0.782	782.0	test	Phase1	test/STIM_007.jpg	100
464.298	0.676	676.0	test	Phase1	test/STIM_007.jpg	99
467.313	0.636	635.9	test	Phase1	test/STIM_008.jpg	100
470.756	0.799	798.8	test	Phase1	test/STIM_008.jpg	99
474.407	0.607	607.1	test	Phase1	test/STIM_008.jpg	100
477.85	0.625	624.9	test	Phase1	test/STIM_009.jpg	99
482.183	0.734	733.6	test	Phase1	test/STIM_009.jpg	100
485.799	0.948	948.0	test	Phase1	test/STIM_009.jpg	99
488.785	0.858	858.1	test	Phase1	test/STIM_010.jpg	100
492.029	1.166	1166.3	test	Phase1	test/STIM_010.jpg	99
496.696	0.945	945.3	test	Phase1	test/STIM_010.jpg	99
500.549	0.651	650.6	test	Phase1	test/STIM_011.jpg	100
504.226	0.788	788.3	test	Phase1	test/STIM_011.jpg	99
507.919	0.969	968.9	test	Phase1	test/STIM_011.jpg	100
512.043	0.729	728.8	test	Phase1	test/STIM_012.jpg	99
515.126	0.729	728.9	test	Phase1	test/STIM_012.jpg	99
519.084	0.664	663.5	test	Phase1	test/STIM_012.jpg	100
523.324	1.032	1032.0	test	Phase1	test/STIM_013.jpg	99
527.487	0.733	732.6	test	Phase1	test/STIM_013.jpg	99
531.17	0.878	877.7	test	Phase1	test/STIM_013.jpg	100
535.552	1.132	1132.3	test	Phase1	test/STIM_014.jpg	100
539.103	0.655	655.3	test	Phase1	test/STIM_014.jpg	100
542.413	1.084	1084.3	test	Phase1	test/STIM_014.jpg	100
547.101	0.813	812.8	test	Phase1	test/STIM_015.jpg	99
550.186	1.06	1060.5	test	Phase1	test/STIM_015.jpg	99
554.178	1.06	1060.2	test	Phase1	test/STIM_015.jpg	100
559.037	0.888	887.8	test	Phase1	test/STIM_016.jpg	99
563.163	1.03	1030.4	test	Phase1	test/STIM_016.jpg	99
566.873	0.713	713.3	test	Phase1	test/STIM_016.jpg	99
570.625	0.661	661.3	test	Phase1	test/STIM_017.jpg	100
574.248	0.942	941.5	test	Phase1	test/STIM_017.jpg	99
577.452	1.063	1063.4	test	Phase1	test/STIM_017.jpg	100
580.991	1.044	1043.5	test	Phase1	test/STIM_018.jpg	100
585.286	1.025	1025.0	test	Phase1	test/STIM_018.jpg	99
588.842	0.948	947.8	test	Phase1	test/STIM_018.jpg	100
593.748	0.6	599.5	test	Phase1	test/STIM_019.jpg	100
598.333	0.645	644.6	test	Phase1	test/STIM_019.jpg	99
602.355	1.092	1092.1	test	Phase1	test/STIM_019.jpg	99
606.179	0.707	706.8	test	Phase1	test/STIM_020.jpg	99
610.829	0.988	988.5	test	Phase1	test/STIM_020.jpg	100
614.722	0.7	700.3	test	Phase1	test/STIM_020.jpg	100
618.278	0.658	657.5	test	Phase1	test/STIM_021.jpg	99
622.311	1.144	1144.2	test	Phase1	test/STIM_021.jpg	99
626.532	0.69	690.2	test	Phase1	test/STIM_021.jpg	99
630.395	1.192	1192.3	test	Phase1	test/STIM_022.jpg	99
634.778	0.755	754.8	test	Phase1	test/STIM_022.jpg	100
638.866	0.754	754.4	test	Phase1	test/STIM_022.jpg	100
642.992	0.892	891.9	test	Phase1	test/STIM_023.jpg	99
647.319	1.048	1047.5	test	Phase1	test/STIM_023.jpg	99
650.483	0.699	699.0	test	Phase1	test/STIM_023.jpg	99
653.77	0.663	663.1	test	Phase1	test/STIM_024.jpg	99
656.51	1.094	1094.4	test	Phase1	test/STIM_024.jpg	100
660.737	0.982	981.8	test	Phase1	test/STIM_024.jpg	99
664.852	0.92	920.5	test	Phase1	test/STIM_025.jpg	99
669.257	0.588	587.5	test	Phase1	test/STIM_025.jpg	99
673.146	1.089	1089.4	test	Phase1	test/STIM_025.jpg	99
678.075	0.805	804.9	test	Phase1	test/STIM_026.jpg	99
681.341	0.879	879.4	test	Phase1	test/STIM_026.jpg	99
685.32	0.984	984.5	test	Phase1	test/STIM_026.jpg	100
690.191	0.71	709.5	test	Phase1	test/STIM_027.jpg	99
694.815	0.588	588.5	test	Phase1	test/STIM_027.jpg	100
699.089	0.839	839.2	test	Phase1	test/STIM_027.jpg	100
703.839	1.013	1013.0	test	Phase1	test/STIM_028.jpg	100
708.41	1.085	1084.6	test	Phase1	test/STIM_028.jpg	99
711.969	0.566	566.5	test	Phase1	test/STIM_028.jpg	100
714.626	0.564	564.5	test	Phase1	test/STIM_029.jpg	100
718.352	1.017	1017.4	test	Phase1	test/STIM_029.jpg	100
722.19	1.144	1144.5	test	Phase1	test/STIM_029.jpg	100
725.969	0.706	705.8	study	Phase2	study/STIM_000.jpg	100
730.633	1.017	1017.4	study	Phase2	study/STIM_000.jpg	100
733.809	1.222	1222.0	study	Phase2	study/STIM_000.jpg	99
737.822	0.718	718.2	study	Phase2	study/STIM_001.jpg	99
742.295	1.322	1321.8	study	Phase2	study/STIM_001.jpg	99
746.246	0.914	914.0	study	Phase2	study/STIM_001.jpg	100
750.333	0.807	807.4	study	Phase2	study/STIM_002.jpg	100
754.987	1.161	1161.1	study	Phase2	study/STIM_002.jpg	100
759.382	0.698	698.1	study	Phase2	study/STIM_002.jpg	100
762.423	1.217	1216.7	study	Phase2	study/STIM_003.jpg	100
766.221	1.163	1163.2	study	Phase2	study/STIM_003.jpg	100
770.112	0.618	618.0	study	Phase2	study/STIM_003.jpg	99
773.271	0.855	854.6	study	Phase2	study/STIM_004.jpg	100
776.329	1.065	1064.7	study	Phase2	study/STIM_004.jpg	100
780.664	0.898	897.7	study	Phase2	study/STIM_004.jpg	99
785.284	0.68	680.2	study	Phase2	study/STIM_005.jpg	99
788.553	0.748	748.0	study	Phase2	study/STIM_005.jpg	99
793.037	1.17	1169.6	study	Phase2	study/STIM_005.jpg	99
797.992	1.233	1233.2	study	Phase2	study/STIM_006.jpg	100
802.741	0.612	612.3	study	Phase2	study/STIM_006.jpg	100
805.874	0.946	946.4	study	Phase2	study/STIM_006.jpg	99
808.917	0.892	891.6	study	Phase2	study/STIM_007.jpg	100
813.389	0.902	901.7	study	Phase2	study/STIM_007.jpg	100
816.387	0.995	995.2	study	Phase2	study/STIM_007.jpg	100
821.023	1.289	1289.0	study	Phase2	study/STIM_008.jpg	100
825.273	0.869	869.2	study	Phase2	study/STIM_008.jpg	100
829.746	0.73	730.1	study	Phase2	study/STIM_008.jpg	99
834.193	1.326	1326.0	study	Phase2	study/STIM_009.jpg	99
838.12	0.851	851.3	study	Phase2	study/STIM_009.jpg	100
841.469	0.861	860.9	study	Phase2	study/STIM_009.jpg	99
845.802	1.089	1089.1	study	Phase2	study/STIM_010.jpg	99
849.525	1.145	1145.3	study	Phase2	study/STIM_010.jpg	100
854.627	0.566	566.5	study	Phase2	study/STIM_010.jpg	100
857.659	0.75	750.0	study	Phase2	study/STIM_011.jpg	99
861.192	0.987	987.2	study	Phase2	study/STIM_011.jpg	100
865.724	1.013	1013.3	study	Phase2	study/STIM_011.jpg	100
870.159	1.244	1244.2	study	Phase2	study/STIM_012.jpg	99
873.675	0.798	798.1	study	Phase2	study/STIM_012.jpg	99
876.8	0.618	618.5	study	Phase2	study/STIM_012.jpg	99
880.835	0.755	755.1	study	Phase2	study/STIM_013.jpg	100
884.5	1.33	1329.9	study	Phase2	study/STIM_013.jpg	99
889.454	0.706	705.7	study	Phase2	study/STIM_013.jpg	99
893.03	0.877	877.3	study	Phase2	study/STIM_014.jpg	99
897.503	1.193	1193.0	study	Phase2	study/STIM_014.jpg	99
901.047	0.667	667.3	study	Phase2	study/STIM_014.jpg	99
905.572	0.809	808.7	study	Phase2	study/STIM_015.jpg	99
908.901	1.228	1227.5	study	Phase2	study/STIM_015.jpg	100
913.831	0.885	885.0	study	Phase2	study/STIM_015.jpg	99
917.182	0.733	733.4	study	Phase2	study/STIM_016.jpg	99
920.484	1.151	1150.6	study	Phase2	study/STIM_016.jpg	100
924.449	1.26	1259.7	study	Phase2	study/STIM_016.jpg	99
928.172	1.225	1224.6	study	Phase2	study/STIM_017.jpg	99
933.091	0.62	619.6	study	Phase2	study/STIM_017.jpg	100
936.464	0.654	654.1	study	Phase2	study/STIM_017.jpg	99
941.048	1.109	1108.9	study	Phase2	study/STIM_018.jpg	100
944.353	1.202	1202.2	study	Phase2	study/STIM_018.jpg	100
948.776	0.569	569.0	study	Phase2	study/STIM_018.jpg	99
952.728	0.876	875.9	study	Phase2	study/STIM_019.jpg	100
956.356	1.202	1202.2	study	Phase2	study/STIM_019.jpg	100
960.082	1.096	1096.5	study	Phase2	study/STIM_019.jpg	100
963.53	1.365	1365.2	study	Phase2	study/STIM_020.jpg	100
968.148	0.716	715.6	study	Phase2	study/STIM_020.jpg	100
972.356	1.094	1094.4	study	Phase2	study/STIM_020.jpg	99
976.344	1.326	1326.4	study	Phase2	study/STIM_021.jpg	100
981.27	0.81	809.8	study	Phase2	study/STIM_021.jpg	100
984.485	0.649	649.2	study	Phase2	study/STIM_021.jpg	99
987.777	1.163	1163.1	study	Phase2	study/STIM_022.jpg	100
991.546	1.056	1055.9	study	Phase2	study/STIM_022.jpg	100
995.396	0.656	656.2	study	Phase2	study/STIM_022.jpg	99
999.534	0.692	691.7	study	Phase2	study/STIM_023.jpg	99
1003.645	1.191	1190.6	study	Phase2	study/STIM_023.jpg	100
1007.276	1.222	1222.0	study	Phase2	study/STIM_023.jpg	99
1012.441	0.913	912.9	study	Phase2	study/STIM_024.jpg	100
1016.009	0.703	702.8	study	Phase2	study/STIM_024.jpg	100
1020.243	1.175	1174.6	study	Phase2	study/STIM_024.jpg	100
1023.52	0.924	923.8	study	Phase2	study/STIM_025.jpg	99
1027.531	1.118	1117.5	study	Phase2	study/STIM_025.jpg	99
1032.334	1.085	1084.6	study	Phase2	study/STIM_025.jpg	99
1035.545	0.933	932.8	study	Phase2	study/STIM_026.jpg	100
1040.202	1.039	1038.8	study	Phase2	study/STIM_026.jpg	100
1043.723	0.615	615.4	study	Phase2	study/STIM_026.jpg	100
1048.139	0.738	738.2	study	Phase2	study/STIM_027.jpg	99
1051.0	0.65	650.0	study	Phase2	study/STIM_027.jpg	99
1053.829	1.189	1188.6	study	Phase2	study/STIM_027.jpg	100
1058.493	1.312	1312.2	study	Phase2	study/STIM_028.jpg	100
1061.987	0.681	680.6	study	Phase2	study/STIM_028.jpg	99
1065.91	0.612	612.5	study	Phase2	study/STIM_028.jpg	100
1068.648	1.024	1023.8	study	Phase2	study/STIM_029.jpg	99
1072.695	0.871	870.7	study	Phase2	study/STIM_029.jpg	100
1076.265	1.19	1190.1	study	Phase2	study/STIM_029.jpg	100
1080.187	1.085	1084.6	test	Phase2	test/STIM_000.jpg	99
1084.46	0.584	583.5	test	Phase2	test/STIM_000.jpg	99
1087.753	0.687	686.6	test	Phase2	test/STIM_000.jpg	99
1091.97	1.018	1018.5	test	Phase2	test/STIM_001.jpg	99
1095.432	0.88	879.5	test	Phase2	test/STIM_001.jpg	99
1099.269	0.899	898.8	test	Phase2	test/STIM_001.jpg	100
1103.798	0.871	871.0	test	Phase2	test/STIM_002.jpg	99
1108.067	0.921	921.3	test	Phase2	test/STIM_002.jpg	99
1111.919	1.163	1163.1	test	Phase2	test/STIM_002.jpg	100
1115.995	0.605	604.7	test	Phase2	test/STIM_003.jpg	99
1120.416	0.564	563.7	test	Phase2	test/STIM_003.jpg	99
1123.704	0.706	706.1	test	Phase2	test/STIM_003.jpg	99
1126.81	1.049	1048.7	test	Phase2	test/STIM_004.jpg	99
1131.584	0.68	680.5	test	Phase2	test/STIM_004.jpg	100
1135.521	0.773	772.9	test	Phase2	test/STIM_004.jpg	99
1139.351	0.634	633.7	test	Phase2	test/STIM_005.jpg	100
1143.655	1.187	1186.9	test	Phase2	test/STIM_005.jpg	100
1147.262	0.963	962.6	test	Phase2	test/STIM_005.jpg	99
1150.45	0.61	610.0	test	Phase2	test/STIM_006.jpg	100
1154.152	0.79	789.5	test	Phase2	test/STIM_006.jpg	99
1158.5	0.88	879.6	test	Phase2	test/STIM_006.jpg	100
1161.928	0.695	695.2	test	Phase2	test/STIM_007.jpg	99
1165.483	0.847	847.3	test	Phase2	test/STIM_007.jpg	100
1169.534	0.674	673.8	test	Phase2	test/STIM_007.jpg	100
1172.24	1.096	1096.4	test	Phase2	test/STIM_008.jpg	100
1177.275	1.139	1138.6	test	Phase2	test/STIM_008.jpg	99
1180.904	0.565	565.3	test	Phase2	test/STIM_008.jpg	100
1184.49	1.049	1048.9	test	Phase2	test/STIM_009.jpg	99
1188.569	1.061	1060.6	test	Phase2	test/STIM_009.jpg	100
1192.546	1.097	1096.7	test	Phase2	test/STIM_009.jpg	100
1196.933	1.069	1069.0	test	Phase2	test/STIM_010.jpg	99
1201.437	0.649	649.3	test	Phase2	test/STIM_010.jpg	100
1204.158	1.055	1055.4	test	Phase2	test/STIM_010.jpg	99
1207.716	1.168	1168.4	test	Phase2	test/STIM_011.jpg	100
1211.45	0.922	922.3	test	Phase2	test/STIM_011.jpg	99
1214.631	0.818	818.2	test	Phase2	test/STIM_011.jpg	100
1217.668	0.756	756.0	test	Phase2	test/STIM_012.jpg	99
1220.625	0.612	611.9	test	Phase2	test/STIM_012.jpg	100
1224.59	0.852	852.5	test	Phase2	test/STIM_012.jpg	99
1228.917	0.776	775.5	test	Phase2	test/STIM_013.jpg	99
1231.779	1.134	1133.7	test	Phase2	test/STIM_013.jpg	100
1235.428	0.785	784.8	test	Phase2	test/STIM_013.jpg	100
1239.875	0.828	827.7	test	Phase2	test/STIM_014.jpg	100
1242.868	1.089	1088.9	test	Phase2	test/STIM_014.jpg	99
1246.707	0.885	884.9	test	Phase2	test/STIM_014.jpg	99
1251.486	0.885	885.4	test	Phase2	test/STIM_015.jpg	100
1254.543	0.929	929.1	test	Phase2	test/STIM_015.jpg	100
1258.105	1.106	1106.1	test	Phase2	test/STIM_015.jpg	100
1262.305	1.098	1098.0	test	Phase2	test/STIM_016.jpg	99
1266.067	0.613	613.3	test	Phase2	test/STIM_016.jpg	100
1270.651	0.952	951.9	test	Phase2	test/STIM_016.jpg	100
1274.846	0.776	775.9	test	Phase2	test/STIM_017.jpg	100
1279.037	1.011	1010.7	test	Phase2	test/STIM_017.jpg	100
1282.126	1.05	1049.8	test	Phase2	test/STIM_017.jpg	99
1286.81	0.573	573.3	test	Phase2	test/STIM_018.jpg	100
1289.834	0.901	901.3	test	Phase2	test/STIM_018.jpg	99
1294.347	1.048	1047.9	test	Phase2	test/STIM_018.jpg	100
1297.409	0.837	836.6	test	Phase2	test/STIM_019.jpg	99
1301.526	0.724	724.2	test	Phase2	test/STIM_019.jpg	100
1304.339	0.671	670.8	test	Phase2	test/STIM_019.jpg	99
1308.147	0.922	922.3	test	Phase2	test/STIM_020.jpg	100
1311.743	0.724	724.2	test	Phase2	test/STIM_020.jpg	99
1315.31	1.171	1171.2	test	Phase2	test/STIM_020.jpg	99
1319.655	1.062	1061.7	test	Phase2	test/STIM_021.jpg	99
1324.7	0.798	797.5	test	Phase2	test/STIM_021.jpg	99
1328.273	0.656	655.6	test	Phase2	test/STIM_021.jpg	99
1332.559	0.781	780.8	test	Phase2	test/STIM_022.jpg	100
1335.747	1.206	1206.1	test	Phase2	test/STIM_022.jpg	99
1340.365	0.666	666.5	test	Phase2	test/STIM_022.jpg	100
1344.098	1.117	1116.7	test	Phase2	test/STIM_023.jpg	100
1348.86	0.75	750.4	test	Phase2	test/STIM_023.jpg	100
1353.373	0.699	699.1	test	Phase2	test/STIM_023.jpg	99
1356.26	0.752	751.9	test	Phase2	test/STIM_024.jpg	99
1359.823	1.064	1064.5	test	Phase2	test/STIM_024.jpg	100
1363.358	0.906	906.2	test	Phase2	test/STIM_024.jpg	99
1367.756	0.609	609.2	test	Phase2	test/STIM_025.jpg	99
1370.773	0.997	997.4	test	Phase2	test/STIM_025.jpg	99
1375.255	1.026	1026.2	test	Phase2	test/STIM_025.jpg	99
1380.076	0.874	874.3	test	Phase2	test/STIM_026.jpg	100
1383.482	0.904	903.5	test	Phase2	test/STIM_026.jpg	99
1386.824	0.658	657.8	test	Phase2	test/STIM_026.jpg	100
1389.66	0.763	762.7	test	Phase2	test/STIM_027.jpg	100
1393.505	0.931	931.0	test	Phase2	test/STIM_027.jpg	99
1397.883	1.162	1161.6	test	Phase2	test/STIM_027.jpg	99
1401.443	0.617	616.6	test	Phase2	test/STIM_028.jpg	100
1405.79	0.822	822.3	test	Phase2	test/STIM_028.jpg	100
1410.438	0.826	825.9	test	Phase2	test/STIM_028.jpg	100
1413.778	0.725	725.0	test	Phase2	test/STIM_029.jpg	100
1416.983	1.157	1157.3	test	Phase2	test/STIM_029.jpg	99
1420.648	0.882	881.7	test	Phase2	test/STIM_029.jpg	100
1423.604	0.63	629.8	study	Phase3	study/STIM_000.jpg	99
1427.223	0.678	677.7	study	Phase3	study/STIM_000.jpg	99
1429.942	0.655	654.8	study	Phase3	study/STIM_000.jpg	100
1434.139	1.142	1142.1	study	Phase3	study/STIM_001.jpg	100
1437.869	0.89	890.5	study	Phase3	study/STIM_001.jpg	99
1440.969	0.634	633.8	study	Phase3	study/STIM_001.jpg	100
1445.537	0.964	964.3	study	Phase3	study/STIM_002.jpg	99
1450.108	1.043	1043.1	study	Phase3	study/STIM_002.jpg	99
1454.781	0.863	863.4	study	Phase3	study/STIM_002.jpg	99
1459.15	0.674	673.7	study	Phase3	study/STIM_003.jpg	100
1461.969	0.622	622.4	study	Phase3	study/STIM_003.jpg	99
1465.771	0.888	888.5	study	Phase3	study/STIM_003.jpg	99
1469.217	0.771	770.7	study	Phase3	study/STIM_004.jpg	99
1473.645	0.556	555.9	study	Phase3	study/STIM_004.jpg	100
1478.027	1.032	1031.6	study	Phase3	study/STIM_004.jpg	100
1482.359	0.61	609.5	study	Phase3	study/STIM_005.jpg	99
1485.432	0.936	936.3	study	Phase3	study/STIM_005.jpg	100
1488.759	1.1	1100.3	study	Phase3	study/STIM_005.jpg	99
1491.966	0.954	954.0	study	Phase3	study/STIM_006.jpg	99
1495.052	0.933	932.8	study	Phase3	study/STIM_006.jpg	99
1498.064	1.006	1005.5	study	Phase3	study/STIM_006.jpg	100
1502.538	0.955	954.8	study	Phase3	study/STIM_007.jpg	99
1507.007	1.06	1060.4	study	Phase3	study/STIM_007.jpg	100
1510.265	1.118	1118.3	study	Phase3	study/STIM_007.jpg	100
1513.822	1.075	1074.7	study	Phase3	study/STIM_008.jpg	100
1517.422	0.636	635.9	study	Phase3	study/STIM_008.jpg	100
1521.332	1.126	1125.5	study	Phase3	study/STIM_008.jpg	100
1524.873	0.746	745.9	study	Phase3	study/STIM_009.jpg	100
1527.957	0.993	993.1	study	Phase3	study/STIM_009.jpg	100
1532.012	0.919	919.3	study	Phase3	study/STIM_009.jpg	99
1535.51	0.638	638.3	study	Phase3	study/STIM_010.jpg	100
1538.866	0.688	687.6	study	Phase3	study/STIM_010.jpg	100
1542.642	0.576	576.5	study	Phase3	study/STIM_010.jpg	100
1546.408	0.767	767.3	study	Phase3	study/STIM_011.jpg	100
1550.372	0.861	860.6	study	Phase3	study/STIM_011.jpg	99
1555.159	1.048	1048.5	study	Phase3	study/STIM_011.jpg	100
1559.027	1.158	1157.8	study	Phase3	study/STIM_012.jpg	100
1563.857	1.143	1142.9	study	Phase3	study/STIM_012.jpg	99
1567.274	1.095	1094.9	study	Phase3	study/STIM_012.jpg	100
1572.192	1.161	1161.2	study	Phase3	study/STIM_013.jpg	100
1577.054	0.574	573.8	study	Phase3	study/STIM_013.jpg	99
1580.956	1.093	1092.7	study	Phase3	study/STIM_013.jpg	100
1585.004	0.728	728.2	study	Phase3	study/STIM_014.jpg	99
1588.559	0.911	911.3	study	Phase3	study/STIM_014.jpg	99
1591.552	0.974	974.1	study	Phase3	study/STIM_014.jpg	99
1595.885	1.072	1071.8	study	Phase3	study/STIM_015.jpg	99
1599.674	0.631	630.6	study	Phase3	study/STIM_015.jpg	99
1602.392	0.644	644.5	study	Phase3	study/STIM_015.jpg	99
1606.834	0.774	773.5	study	Phase3	study/STIM_016.jpg	99
1609.946	1.119	1119.0	study	Phase3	study/STIM_016.jpg	100
1613.591	1.078	1078.2	study	Phase3	study/STIM_016.jpg	99
1617.236	0.882	881.7	study	Phase3	study/STIM_017.jpg	100
1620.823	0.918	918.0	study	Phase3	study/STIM_017.jpg	99
1624.258	0.755	755.1	study	Phase3	study/STIM_017.jpg	99
1628.325	0.786	786.1	study	Phase3	study/STIM_018.jpg	99
1633.019	0.648	648.0	study	Phase3	study/STIM_018.jpg	100
1636.844	1.156	1155.7	study	Phase3	study/STIM_018.jpg	100
1640.513	1.043	1042.8	study	Phase3	study/STIM_019.jpg	99
1644.214	0.705	705.4	study	Phase3	study/STIM_019.jpg	99
1646.92	0.54	539.5	study	Phase3	study/STIM_019.jpg	100
1649.578	1.018	1018.5	study	Phase3	study/STIM_020.jpg	100
1654.189	0.938	937.8	study	Phase3	study/STIM_020.jpg	99
1658.047	1.085	1084.8	study	Phase3	study/STIM_020.jpg	100
1661.698	0.538	538.0	study	Phase3	study/STIM_021.jpg	100
1664.9	1.063	1062.9	study	Phase3	study/STIM_021.jpg	100
1669.032	0.707	706.6	study	Phase3	study/STIM_021.jpg	100
1673.738	1.058	1057.9	study	Phase3	study/STIM_022.jpg	100
1678.648	0.752	752.0	study	Phase3	study/STIM_022.jpg	99
1683.285	1.089	1088.8	study	Phase3	study/STIM_022.jpg	100
1686.611	0.838	837.6	study	Phase3	study/STIM_023.jpg	99
1689.902	0.607	606.9	study	Phase3	study/STIM_023.jpg	99
1694.131	0.908	908.0	study	Phase3	study/STIM_023.jpg	100
1698.548	1.018	1018.0	study	Phase3	study/STIM_024.jpg	99
1702.193	0.95	950.1	study	Phase3	study/STIM_024.jpg	100
1705.246	0.992	991.7	study	Phase3	study/STIM_024.jpg	100
1708.808	1.152	1152.4	study	Phase3	study/STIM_025.jpg	99
1712.943	1.012	1012.2	study	Phase3	study/STIM_025.jpg	99
1716.561	0.914	913.7	study	Phase3	study/STIM_025.jpg	99
1719.732	1.015	1015.3	study	Phase3	study/STIM_026.jpg	99
1722.874	0.621	620.7	study	Phase3	study/STIM_026.jpg	99
1725.635	0.664	663.7	study	Phase3	study/STIM_026.jpg	99
1728.542	0.67	670.3	study	Phase3	study/STIM_027.jpg	100
1732.461	0.899	899.4	study	Phase3	study/STIM_027.jpg	100
1736.4	0.665	665.3	study	Phase3	study/STIM_027.jpg	99
1740.6	0.933	933.3	study	Phase3	study/STIM_028.jpg	100
1744.935	0.757	757.1	study	Phase3	study/STIM_028.jpg	99
1748.392	0.853	852.6	study	Phase3	study/STIM_028.jpg	100
1753.216	1.173	1173.2	study	Phase3	study/STIM_029.jpg	99
1756.523	0.89	889.6	study	Phase3	study/STIM_029.jpg	99
1760.086	0.878	878.2	study	Phase3	study/STIM_029.jpg	99
1764.535	0.589	588.7	test	Phase3	test/STIM_000.jpg	100
1768.565	1.209	1208.9	test	Phase3	test/STIM_000.jpg	99
1773.461	0.886	886.5	test	Phase3	test/STIM_000.jpg	99
1778.125	0.985	985.3	test	Phase3	test/STIM_001.jpg	100
1782.969	1.011	1010.6	test	Phase3	test/STIM_001.jpg	99
1786.89	0.856	855.5	test	Phase3	test/STIM_001.jpg	99
1791.425	0.918	918.1	test	Phase3	test/STIM_002.jpg	99
1794.514	0.818	818.1	test	Phase3	test/STIM_002.jpg	100
1799.096	0.872	872.4	test	Phase3	test/STIM_002.jpg	99
1802.187	0.962	961.6	test	Phase3	test/STIM_003.jpg	99
1805.457	1.101	1101.1	test	Phase3	test/STIM_003.jpg	100
1810.437	0.896	896.2	test	Phase3	test/STIM_003.jpg	100
1814.034	0.911	910.9	test	Phase3	test/STIM_004.jpg	100
1817.145	0.616	616.0	test	Phase3	test/STIM_004.jpg	99
1819.946	0.69	690.2	test	Phase3	test/STIM_004.jpg	100
1824.117	0.864	864.3	test	Phase3	test/STIM_005.jpg	100
1827.428	0.607	607.2	test	Phase3	test/STIM_005.jpg	100
1831.362	1.086	1086.1	test	Phase3	test/STIM_005.jpg	100
1834.766	1.02	1020.4	test	Phase3	test/STIM_006.jpg	100
1839.707	0.831	831.0	test	Phase3	test/STIM_006.jpg	100
1842.809	1.114	1113.6	test	Phase3	test/STIM_006.jpg	99
1845.965	0.975	975.3	test	Phase3	test/STIM_007.jpg	99
1849.006	1.027	1026.7	test	Phase3	test/STIM_007.jpg	99
1852.046	0.922	922.4	test	Phase3	test/STIM_007.jpg	99
1856.57	0.779	779.4	test	Phase3	test/STIM_008.jpg	99
1860.125	1.083	1082.8	test	Phase3	test/STIM_008.jpg	100
1864.28	1.018	1017.8	test	Phase3	test/STIM_008.jpg	99
1868.581	1.19	1189.5	test	Phase3	test/STIM_009.jpg	100
1872.124	0.982	982.4	test	Phase3	test/STIM_009.jpg	100
1876.621	0.711	711.0	test	Phase3	test/STIM_009.jpg	99
1879.528	0.889	889.0	test	Phase3	test/STIM_010.jpg	99
1883.525	0.663	662.9	test	Phase3	test/STIM_010.jpg	99
1886.916	0.902	901.5	test	Phase3	test/STIM_010.jpg	100
1890.495	0.808	807.6	test	Phase3	test/STIM_011.jpg	99
1893.451	0.736	736.1	test	Phase3	test/STIM_011.jpg	100
1897.335	1.106	1106.4	test	Phase3	test/STIM_011.jpg	99
1901.881	0.817	817.3	test	Phase3	test/STIM_012.jpg	99
1906.359	0.873	873.4	test	Phase3	test/STIM_012.jpg	100
1909.238	0.818	817.8	test	Phase3	test/STIM_012.jpg	100
1912.666	0.693	693.0	test	Phase3	test/STIM_013.jpg	99
1915.481	1.074	1073.9	test	Phase3	test/STIM_013.jpg	99
1919.991	1.178	1178.3	test	Phase3	test/STIM_013.jpg	99
1924.739	1.184	1183.7	test	Phase3	test/STIM_014.jpg	100
1928.451	0.578	577.6	test	Phase3	test/STIM_014.jpg	100
1931.336	1.125	1125.4	test	Phase3	test/STIM_014.jpg	100
1935.929	0.625	625.2	test	Phase3	test/STIM_015.jpg	100
1939.178	0.883	883.4	test	Phase3	test/STIM_015.jpg	99
1942.249	0.994	994.5	test	Phase3	test/STIM_015.jpg	99
1945.345	0.972	971.8	test	Phase3	test/STIM_016.jpg	99
1949.503	0.745	744.6	test	Phase3	test/STIM_016.jpg	100
1953.945	0.764	764.5	test	Phase3	test/STIM_016.jpg	99
1958.613	1.108	1108.3	test	Phase3	test/STIM_017.jpg	100
1961.98	1.139	1139.2	test	Phase3	test/STIM_017.jpg	100
1966.024	0.83	829.9	test	Phase3	test/STIM_017.jpg	99
1970.055	0.962	962.0	test	Phase3	test/STIM_018.jpg	100
1973.743	0.586	586.2	test	Phase3	test/STIM_018.jpg	100
1977.68	1.13	1129.5	test	Phase3	test/STIM_018.jpg	100
1982.252	0.849	848.6	test	Phase3	test/STIM_019.jpg	99
1985.277	0.676	675.8	test	Phase3	test/STIM_019.jpg	99
1989.639	0.608	608.5	test	Phase3	test/STIM_019.jpg	99
1994.04	0.988	988.1	test	Phase3	test/STIM_020.jpg	99
1998.261	0.78	779.8	test	Phase3	test/STIM_020.jpg	99
2001.042	1.055	1055.2	test	Phase3	test/STIM_020.jpg	100
2005.788	1.092	1092.0	test	Phase3	test/STIM_021.jpg	99
2009.928	0.787	787.1	test	Phase3	test/STIM_021.jpg	100
2014.671	0.723	722.6	test	Phase3	test/STIM_021.jpg	99
2017.688	1.155	1155.2	test	Phase3	test/STIM_022.jpg	100
2021.294	0.764	764.4	test	Phase3	test/STIM_022.jpg	100
2026.019	1.152	1152.1	test	Phase3	test/STIM_022.jpg	99
2030.902	0.721	720.7	test	Phase3	test/STIM_023.jpg	99
2035.188	0.674	673.9	test	Phase3	test/STIM_023.jpg	99
2038.561	1.074	1073.6	test	Phase3	test/STIM_023.jpg	99
2041.904	1.089	1089.0	test	Phase3	test/STIM_024.jpg	100
2046.99	0.802	801.8	test	Phase3	test/STIM_024.jpg	99
2050.878	1.086	1086.0	test	Phase3	test/STIM_024.jpg	99
2054.342	1.11	1109.9	test	Phase3	test/STIM_025.jpg	100
2057.723	0.831	831.3	test	Phase3	test/STIM_025.jpg	100
2062.213	0.672	671.9	test	Phase3	test/STIM_025.jpg	100
2066.809	1.073	1073.0	test	Phase3	test/STIM_026.jpg	100
2071.361	0.666	666.3	test	Phase3	test/STIM_026.jpg	99
2074.805	1.104	1104.1	test	Phase3	test/STIM_026.jpg	99
2078.147	0.943	943.1	test	Phase3	test/STIM_027.jpg	99
2081.609	0.92	919.8	test	Phase3	test/STIM_027.jpg	99
2085.231	0.785	784.6	test	Phase3	test/STIM_027.jpg	99
2088.915	1.169	1169.1	test	Phase3	test/STIM_028.jpg	100
2092.85	0.583	582.9	test	Phase3	test/STIM_028.jpg	100
2096.282	0.806	806.3	test	Phase3	test/STIM_028.jpg	99
2099.156	0.948	947.8	test	Phase3	test/STIM_029.jpg	99
2102.674	0.762	762.0	test	Phase3	test/STIM_029.jpg	100
2106.985	1.17	1170.1	test	Phase3	test/STIM_029.jpg	100
