onset	duration	response_time_ms	trial_type	learning_stage	stimulus	response_port
0.0	1.939	1939.0	generate	Run1	generate/STIM_000.jpg	99
4.816	1.361	1360.6	generate	Run1	generate/STIM_000.jpg	100
8.449	1.37	1370.1	generate	Run1	generate/STIM_000.jpg	99
12.64	1.724	1723.6	generate	Run1	generate/STIM_000.jpg	100
16.625	2.01	2010.4	generate	Run1	generate/STIM_000.jpg	99
21.399	1.664	1664.2	generate	Run1	generate/STIM_001.jpg	100
26.536	2.299	2299.2	generate	Run1	generate/STIM_001.jpg	100
32.643	2.328	2328.1	generate	Run1	generate/STIM_001.jpg	100
37.495	1.399	1398.8	generate	Run1	generate/STIM_001.jpg	99
40.922	1.266	1265.9	generate	Run1	generate/STIM_001.jpg	100
45.769	1.247	1246.8	generate	Run1	generate/STIM_002.jpg	99
50.602	2.121	2120.9	generate	Run1	generate/STIM_002.jpg	100
55.616	1.845	1845.2	generate	Run1	generate/STIM_002.jpg	100
61.332	2.543	2543.1	generate	Run1	generate/STIM_002.jpg	100
67.272	1.573	1572.6	generate	Run1	generate/STIM_002.jpg	100
71.175	2.155	2155.0	generate	Run1	generate/STIM_003.jpg	99
75.66	1.518	1517.5	generate	Run1	generate/STIM_003.jpg	100
79.658	1.254	1254.1	generate	Run1	generate/STIM_003.jpg	99
83.416	1.248	1248.1	generate	Run1	generate/STIM_003.jpg	99
87.074	1.394	1393.6	generate	Run1	generate/STIM_003.jpg	99
91.572	1.398	1397.6	generate	Run1	generate/STIM_004.jpg	100
96.558	2.769	2769.3	generate	Run1	generate/STIM_004.jpg	100
103.206	2.622	2622.4	generate	Run1	generate/STIM_004.jpg	100
108.577	1.15	1149.5	generate	Run1	generate/STIM_004.jpg	99
112.625	1.458	1458.2	generate	Run1	generate/STIM_004.jpg	99
117.13	3.052	3052.1	generate	Run1	generate/STIM_005.jpg	99
122.609	2.621	2621.0	generate	Run1	generate/STIM_005.jpg	100
127.377	2.604	2604.0	generate	Run1	generate/STIM_005.jpg	100
133.665	1.226	1225.9	generate	Run1	generate/STIM_005.jpg	100
138.262	1.282	1281.9	generate	Run1	generate/STIM_005.jpg	100
142.625	1.286	1286.1	generate	Run1	generate/STIM_006.jpg	100
145.987	1.44	1440.5	generate	Run1	generate/STIM_006.jpg	100
150.536	1.954	1953.5	generate	Run1	generate/STIM_006.jpg	99
156.441	2.584	2584.1	generate	Run1	generate/STIM_006.jpg	100
161.878	1.73	1730.4	generate	Run1	generate/STIM_006.jpg	100
166.551	1.563	1563.3	generate	Run1	generate/STIM_007.jpg	100
171.665	2.709	2708.9	generate	Run1	generate/STIM_007.jpg	99
177.108	1.8	1799.5	generate	Run1	generate/STIM_007.jpg	99
182.845	1.786	1785.5	generate	Run1	generate/STIM_007.jpg	99
187.368	1.083	1082.7	generate	Run1	generate/STIM_007.jpg	100
190.993	3.005	3005.0	generate	Run1	generate/STIM_008.jpg	99
196.063	2.244	2244.2	generate	Run1	generate/STIM_008.jpg	100
201.823	2.291	2291.3	generate	Run1	generate/STIM_008.jpg	99
206.426	1.306	1305.6	generate	Run1	generate/STIM_008.jpg	100
211.532	1.068	1067.7	generate	Run1	generate/STIM_008.jpg	100
215.713	1.42	1420.2	generate	Run1	generate/STIM_009.jpg	100
220.853	1.706	1706.4	generate	Run1	generate/STIM_009.jpg	100
226.541	1.38	1380.1	generate	Run1	generate/STIM_009.jpg	100
230.885	1.095	1094.7	generate	Run1	generate/STIM_009.jpg	100
234.178	2.238	2237.8	generate	Run1	generate/STIM_009.jpg	99
240.184	1.787	1787.3	generate	Run1	generate/STIM_010.jpg	99
245.277	2.23	2230.4	generate	Run1	generate/STIM_010.jpg	100
250.562	1.528	1528.4	generate	Run1	generate/STIM_010.jpg	99
254.135	1.882	1881.5	generate	Run1	generate/STIM_010.jpg	100
259.068	1.864	1864.2	generate	Run1	generate/STIM_010.jpg	100
264.043	1.797	1796.6	generate	Run1	generate/STIM_011.jpg	99
268.194	2.456	2455.7	generate	Run1	generate/STIM_011.jpg	100
273.855	1.42	1420.2	generate	Run1	generate/STIM_011.jpg	100
278.553	1.714	1714.5	generate	Run1	generate/STIM_011.jpg	99
283.914	1.306	1305.6	generate	Run1	generate/STIM_011.jpg	99
288.212	2.125	2124.7	generate	Run1	generate/STIM_012.jpg	100
293.061	2.214	2213.8	generate	Run1	generate/STIM_012.jpg	99
298.142	2.41	2410.0	generate	Run1	generate/STIM_012.jpg	100
303.731	1.236	1235.5	generate	Run1	generate/STIM_012.jpg	99
307.319	1.959	1959.1	generate	Run1	generate/STIM_012.jpg	99
311.668	2.834	2833.7	generate	Run1	generate/STIM_013.jpg	100
317.421	2.04	2039.8	generate	Run1	generate/STIM_013.jpg	100
323.279	1.752	1752.5	generate	Run1	generate/STIM_013.jpg	99
328.439	1.804	1804.5	generate	Run1	generate/STIM_013.jpg	99
333.956	1.832	1832.0	generate	Run1	generate/STIM_013.jpg	99
339.24	1.413	1413.4	generate	Run1	generate/STIM_014.jpg	99
344.61	2.695	2695.4	generate	Run1	generate/STIM_014.jpg	100
350.92	1.852	1851.9	generate	Run1	generate/STIM_014.jpg	99
355.295	1.219	1219.1	generate	Run1	generate/STIM_014.jpg	99
359.764	1.828	1827.5	generate	Run1	generate/STIM_014.jpg	100
364.904	1.755	1754.8	generate	Run1	generate/STIM_015.jpg	99
370.089	2.576	2575.5	generate	Run1	generate/STIM_015.jpg	100
375.683	2.696	2695.5	generate	Run1	generate/STIM_015.jpg	100
381.141	2.576	2576.0	generate	Run1	generate/STIM_015.jpg	100
386.597	2.14	2139.6	generate	Run1	generate/STIM_015.jpg	100
391.834	3.039	3039.0	generate	Run1	generate/STIM_016.jpg	99
396.962	2.396	2396.3	generate	Run1	generate/STIM_016.jpg	100
401.688	1.768	1767.7	generate	Run1	generate/STIM_016.jpg	100
406.718	2.004	2003.9	generate	Run1	generate/STIM_016.jpg	99
412.008	1.746	1746.3	generate	Run1	generate/STIM_016.jpg	99
416.428	1.776	1776.1	generate	Run1	generate/STIM_017.jpg	99
421.345	1.289	1289.0	generate	Run1	generate/STIM_017.jpg	99
424.954	1.953	1953.1	generate	Run1	generate/STIM_017.jpg	99
429.411	2.309	2309.0	generate	Run1	generate/STIM_017.jpg	99
433.94	1.283	1283.2	generate	Run1	generate/STIM_017.jpg	100
437.905	2.973	2973.2	generate	Run1	generate/STIM_018.jpg	100
443.484	1.255	1255.4	generate	Run1	generate/STIM_018.jpg	100
446.756	2.315	2315.3	generate	Run1	generate/STIM_018.jpg	99
451.284	2.172	2171.9	generate	Run1	generate/STIM_018.jpg	99
457.133	2.444	2444.1	generate	Run1	generate/STIM_018.jpg	99
462.771	1.639	1639.1	generate	Run1	generate/STIM_019.jpg	99
467.189	1.38	1380.4	generate	Run1	generate/STIM_019.jpg	100
470.8	1.979	1979.4	generate	Run1	generate/STIM_019.jpg	99
475.626	1.839	1838.9	generate	Run1	generate/STIM_019.jpg	99
479.515	2.118	2118.1	generate	Run1	generate/STIM_019.jpg	100
484.622	1.895	1894.6	generate	Run1	generate/STIM_020.jpg	99
489.35	2.127	2126.9	generate	Run1	generate/STIM_020.jpg	99
494.193	2.499	2499.4	generate	Run1	generate/STIM_020.jpg	99
499.941	2.227	2226.9	generate	Run1	generate/STIM_020.jpg	99
505.729	2.33	2330.3	generate	Run1	generate/STIM_020.jpg	100
511.69	1.682	1682.5	generate	Run1	generate/STIM_021.jpg	99
517.096	2.314	2314.5	generate	Run1	generate/STIM_021.jpg	100
521.807	2.45	2450.3	generate	Run1	generate/STIM_021.jpg	99
527.509	2.595	2595.1	generate	Run1	generate/STIM_021.jpg	99
533.508	1.169	1168.9	generate	Run1	generate/STIM_021.jpg	99
537.828	2.217	2216.9	generate	Run1	generate/STIM_022.jpg	99
542.521	2.528	2528.0	generate	Run1	generate/STIM_022.jpg	100
547.996	1.38	1380.2	generate	Run1	generate/STIM_022.jpg	100
551.646	1.978	1977.8	generate	Run1	generate/STIM_022.jpg	99
556.754	2.045	2045.4	generate	Run1	generate/STIM_022.jpg	100
562.655	1.404	1403.5	generate	Run1	generate/STIM_023.jpg	100
567.502	1.552	1552.3	generate	Run1	generate/STIM_023.jpg	100
571.648	1.423	1422.6	generate	Run1	generate/STIM_023.jpg	100
575.2	2.378	2378.3	generate	Run1	generate/STIM_023.jpg	99
580.879	1.368	1368.5	generate	Run1	generate/STIM_023.jpg	100
584.65	1.67	1670.0	generate	Run1	generate/STIM_024.jpg	99
589.148	2.262	2261.7	generate	Run1	generate/STIM_024.jpg	100
594.744	2.606	2605.8	generate	Run1	generate/STIM_024.jpg	99
600.094	1.228	1227.8	generate	Run1	generate/STIM_024.jpg	99
605.13	2.057	2057.2	generate	Run1	generate/STIM_024.jpg	100
610.686	0.941	940.9	repeat	Run1	repeat/STIM_000.jpg	99
615.328	0.686	685.8	repeat	Run1	repeat/STIM_000.jpg	99
619.439	0.673	672.8	repeat	Run1	repeat/STIM_000.jpg	99
623.149	0.562	561.5	repeat	Run1	repeat/STIM_000.jpg	99
625.864	0.936	936.3	repeat	Run1	repeat/STIM_000.jpg	99
628.965	0.891	891.1	repeat	Run1	repeat/STIM_001.jpg	99
633.555	0.804	804.5	repeat	Run1	repeat/STIM_001.jpg	99
637.888	0.766	765.5	repeat	Run1	repeat/STIM_001.jpg	99
640.657	0.868	868.0	repeat	Run1	repeat/STIM_001.jpg	100
644.256	0.758	757.5	repeat	Run1	repeat/STIM_001.jpg	99
648.069	0.56	560.3	repeat	Run1	repeat/STIM_002.jpg	100
651.71	0.935	935.1	repeat	Run1	repeat/STIM_002.jpg	99
656.096	0.789	789.3	repeat	Run1	repeat/STIM_002.jpg	99
659.094	1.0	1000.0	repeat	Run1	repeat/STIM_002.jpg	100
662.887	0.539	539.3	repeat	Run1	repeat/STIM_002.jpg	100
665.967	0.864	863.9	repeat	Run1	repeat/STIM_003.jpg	100
668.93	0.602	602.5	repeat	Run1	repeat/STIM_003.jpg	100
672.407	0.839	839.4	repeat	Run1	repeat/STIM_003.jpg	99
676.13	0.927	927.4	repeat	Run1	repeat/STIM_003.jpg	99
679.765	0.916	915.7	repeat	Run1	repeat/STIM_003.jpg	99
684.585	0.9	900.0	repeat	Run1	repeat/STIM_004.jpg	100
688.996	0.547	547.3	repeat	Run1	repeat/STIM_004.jpg	99
692.515	0.721	720.6	repeat	Run1	repeat/STIM_004.jpg	99
696.645	0.847	847.0	repeat	Run1	repeat/STIM_004.jpg	100
700.188	0.769	769.3	repeat	Run1	repeat/STIM_004.jpg	99
704.161	0.663	663.3	repeat	Run1	repeat/STIM_005.jpg	100
708.214	0.911	910.8	repeat	Run1	repeat/STIM_005.jpg	99
712.636	0.586	585.5	repeat	Run1	repeat/STIM_005.jpg	100
716.601	0.846	846.0	repeat	Run1	repeat/STIM_005.jpg	99
720.845	0.834	834.1	repeat	Run1	repeat/STIM_005.jpg	99
725.589	0.663	663.0	repeat	Run1	repeat/STIM_006.jpg	100
729.189	0.745	744.8	repeat	Run1	repeat/STIM_006.jpg	99
732.84	0.658	658.3	repeat	Run1	repeat/STIM_006.jpg	99
736.077	1.016	1015.9	repeat	Run1	repeat/STIM_006.jpg	99
739.863	0.929	929.4	repeat	Run1	repeat/STIM_006.jpg	99
744.511	0.817	816.7	repeat	Run1	repeat/STIM_007.jpg	99
748.96	0.671	671.1	repeat	Run1	repeat/STIM_007.jpg	100
751.73	0.57	570.4	repeat	Run1	repeat/STIM_007.jpg	100
756.207	0.776	776.1	repeat	Run1	repeat/STIM_007.jpg	100
760.198	0.8	799.6	repeat	Run1	repeat/STIM_007.jpg	100
763.4	0.795	795.4	repeat	Run1	repeat/STIM_008.jpg	99
767.986	0.703	703.0	repeat	Run1	repeat/STIM_008.jpg	100
772.411	0.518	518.3	repeat	Run1	repeat/STIM_008.jpg	100
775.208	0.579	579.0	repeat	Run1	repeat/STIM_008.jpg	100
778.275	0.899	899.2	repeat	Run1	repeat/STIM_008.jpg	100
782.102	0.723	722.6	repeat	Run1	repeat/STIM_009.jpg	100
786.238	0.544	543.5	repeat	Run1	repeat/STIM_009.jpg	99
790.706	1.011	1011.1	repeat	Run1	repeat/STIM_009.jpg	99
793.921	0.808	807.7	repeat	Run1	repeat/STIM_009.jpg	100
796.837	0.971	971.0	repeat	Run1	repeat/STIM_009.jpg	100
800.637	0.74	739.6	repeat	Run1	repeat/STIM_010.jpg	100
805.166	0.599	599.2	repeat	Run1	repeat/STIM_010.jpg	100
808.036	0.874	874.5	repeat	Run1	repeat/STIM_010.jpg	99
811.473	0.638	638.2	repeat	Run1	repeat/STIM_010.jpg	99
815.377	0.554	554.0	repeat	Run1	repeat/STIM_010.jpg	100
819.197	0.823	823.3	repeat	Run1	repeat/STIM_011.jpg	99
822.213	0.869	869.2	repeat	Run1	repeat/STIM_011.jpg	100
826.383	0.534	533.8	repeat	Run1	repeat/STIM_011.jpg	99
829.782	0.99	989.7	repeat	Run1	repeat/STIM_011.jpg	100
833.062	0.634	633.6	repeat	Run1	repeat/STIM_011.jpg	100
835.863	0.68	680.3	repeat	Run1	repeat/STIM_012.jpg	99
840.398	0.936	936.3	repeat	Run1	repeat/STIM_012.jpg	99
843.743	0.919	918.8	repeat	Run1	repeat/STIM_012.jpg	100
847.17	1.022	1022.5	repeat	Run1	repeat/STIM_012.jpg	99
852.055	0.562	561.6	repeat	Run1	repeat/STIM_012.jpg	99
855.145	0.518	517.6	repeat	Run1	repeat/STIM_013.jpg	99
858.901	0.945	944.8	repeat	Run1	repeat/STIM_013.jpg	100
863.001	0.775	775.3	repeat	Run1	repeat/STIM_013.jpg	99
866.063	0.856	855.5	repeat	Run1	repeat/STIM_013.jpg	99
869.779	0.604	603.7	repeat	Run1	repeat/STIM_013.jpg	100
874.13	0.826	826.1	repeat	Run1	repeat/STIM_014.jpg	100
878.706	0.774	773.8	repeat	Run1	repeat/STIM_014.jpg	100
881.878	0.652	652.2	repeat	Run1	repeat/STIM_014.jpg	99
885.182	1.01	1010.1	repeat	Run1	repeat/STIM_014.jpg	100
889.263	0.88	879.8	repeat	Run1	repeat/STIM_014.jpg	100
893.907	1.176	1176.4	generate	Run2	generate/STIM_000.jpg	100
897.273	1.696	1695.8	generate	Run2	generate/STIM_000.jpg	100
901.545	1.084	1083.6	generate	Run2	generate/STIM_000.jpg	99
905.863	1.553	1553.3	generate	Run2	generate/STIM_000.jpg	100
909.558	1.621	1620.7	generate	Run2	generate/STIM_000.jpg	100
914.743	2.361	2361.4	generate	Run2	generate/STIM_001.jpg	99
919.384	2.398	2398.3	generate	Run2	generate/STIM_001.jpg	100
924.401	2.28	2280.4	generate	Run2	generate/STIM_001.jpg	100
930.602	1.54	1540.1	generate	Run2	generate/STIM_001.jpg	99
934.755	1.636	1635.9	generate	Run2	generate/STIM_001.jpg	100
939.006	2.267	2266.8	generate	Run2	generate/STIM_002.jpg	99
943.723	2.256	2255.8	generate	Run2	generate/STIM_002.jpg	100
949.171	1.197	1197.0	generate	Run2	generate/STIM_002.jpg	99
953.738	1.426	1425.8	generate	Run2	generate/STIM_002.jpg	99
958.63	1.778	1778.1	generate	Run2	generate/STIM_002.jpg	100
964.201	2.195	2194.9	generate	Run2	generate/STIM_003.jpg	100
969.904	1.63	1630.1	generate	Run2	generate/STIM_003.jpg	99
974.979	2.194	2193.7	generate	Run2	generate/STIM_003.jpg	100
980.772	0.996	996.4	generate	Run2	generate/STIM_003.jpg	99
984.172	0.942	941.8	generate	Run2	generate/STIM_003.jpg	99
987.643	2.202	2202.5	generate	Run2	generate/STIM_004.jpg	99
992.984	1.397	1397.0	generate	Run2	generate/STIM_004.jpg	99
998.109	1.347	1347.3	generate	Run2	generate/STIM_004.jpg	100
1002.467	0.91	910.3	generate	Run2	generate/STIM_004.jpg	99
1006.465	1.179	1179.1	generate	Run2	generate/STIM_004.jpg	99
1009.911	1.605	1604.7	generate	Run2	generate/STIM_005.jpg	99
1015.185	1.466	1466.2	generate	Run2	generate/STIM_005.jpg	100
1020.637	1.018	1017.9	generate	Run2	generate/STIM_005.jpg	99
1023.973	1.343	1342.7	generate	Run2	generate/STIM_005.jpg	100
1028.031	1.822	1822.2	generate	Run2	generate/STIM_005.jpg	100
1032.757	1.775	1774.6	generate	Run2	generate/STIM_006.jpg	100
1036.923	1.65	1650.1	generate	Run2	generate/STIM_006.jpg	100
1040.684	1.288	1288.4	generate	Run2	generate/STIM_006.jpg	100
1044.923	0.981	981.1	generate	Run2	generate/STIM_006.jpg	100
1049.689	1.895	1894.6	generate	Run2	generate/STIM_006.jpg	99
1054.03	2.12	2120.2	generate	Run2	generate/STIM_007.jpg	100
1058.339	1.462	1461.8	generate	Run2	generate/STIM_007.jpg	100
1062.226	1.684	1684.5	generate	Run2	generate/STIM_007.jpg	99
1067.544	1.069	1069.2	generate	Run2	generate/STIM_007.jpg	100
1071.053	0.951	951.3	generate	Run2	generate/STIM_007.jpg	99
1074.886	1.872	1872.4	generate	Run2	generate/STIM_008.jpg	99
1079.392	1.395	1395.4	generate	Run2	generate/STIM_008.jpg	99
1084.449	1.706	1705.9	generate	Run2	generate/STIM_008.jpg	100
1088.293	1.636	1636.2	generate	Run2	generate/STIM_008.jpg	100
1092.267	1.743	1743.0	generate	Run2	generate/STIM_008.jpg	99
1097.048	1.309	1308.9	generate	Run2	generate/STIM_009.jpg	100
1101.872	1.268	1268.5	generate	Run2	generate/STIM_009.jpg	99
1105.881	1.147	1147.2	generate	Run2	generate/STIM_009.jpg	99
1110.915	2.005	2005.2	generate	Run2	generate/STIM_009.jpg	99
1116.156	1.461	1460.6	generate	Run2	generate/STIM_009.jpg	99
1121.297	1.252	1251.5	generate	Run2	generate/STIM_010.jpg	100
1125.438	1.276	1275.8	generate	Run2	generate/STIM_010.jpg	100
1130.223	1.812	1812.5	generate	Run2	generate/STIM_010.jpg	100
1134.641	0.927	927.3	generate	Run2	generate/STIM_010.jpg	99
1137.988	1.819	1819.4	generate	Run2	generate/STIM_010.jpg	99
1141.837	1.552	1552.1	generate	Run2	generate/STIM_011.jpg	100
1146.811	1.144	1143.5	generate	Run2	generate/STIM_011.jpg	99
1151.492	1.398	1398.3	generate	Run2	generate/STIM_011.jpg	100
1155.002	1.951	1951.0	generate	Run2	generate/STIM_011.jpg	100
1160.593	1.125	1125.1	generate	Run2	generate/STIM_011.jpg	100
1164.174	2.104	2104.5	generate	Run2	generate/STIM_012.jpg	99
1169.778	2.22	2219.8	generate	Run2	generate/STIM_012.jpg	99
1174.024	1.132	1131.8	generate	Run2	generate/STIM_012.jpg	99
1179.02	1.306	1305.8	generate	Run2	generate/STIM_012.jpg	100
1182.691	1.347	1346.7	generate	Run2	generate/STIM_012.jpg	99
1187.361	1.664	1663.7	generate	Run2	generate/STIM_013.jpg	100
1192.177	1.307	1307.4	generate	Run2	generate/STIM_013.jpg	99
1197.186	1.702	1702.5	generate	Run2	generate/STIM_013.jpg	99
1202.746	2.112	2111.5	generate	Run2	generate/STIM_013.jpg	100
1208.2	1.224	1224.0	generate	Run2	generate/STIM_013.jpg	99
1213.074	2.118	2117.9	generate	Run2	generate/STIM_014.jpg	100
1217.631	1.014	1014.2	generate	Run2	generate/STIM_014.jpg	99
1221.135	1.46	1460.5	generate	Run2	generate/STIM_014.jpg	99
1226.551	1.356	1356.2	generate	Run2	generate/STIM_014.jpg	99
1229.924	1.747	1747.3	generate	Run2	generate/STIM_014.jpg	100
1234.903	2.31	2309.9	generate	Run2	generate/STIM_015.jpg	99
1239.872	2.171	2170.7	generate	Run2	generate/STIM_015.jpg	100
1245.031	1.583	1582.7	generate	Run2	generate/STIM_015.jpg	99
1250.283	2.027	2026.7	generate	Run2	generate/STIM_015.jpg	100
1256.028	1.412	1412.3	generate	Run2	generate/STIM_015.jpg	99
1259.82	1.641	1640.9	generate	Run2	generate/STIM_016.jpg	99
1264.225	2.309	2309.2	generate	Run2	generate/STIM_016.jpg	99
1269.448	1.833	1832.8	generate	Run2	generate/STIM_016.jpg	100
1274.78	1.769	1768.7	generate	Run2	generate/STIM_016.jpg	100
1279.586	1.676	1675.5	generate	Run2	generate/STIM_016.jpg	99
1285.144	1.153	1153.0	generate	Run2	generate/STIM_017.jpg	99
1289.079	1.996	1996.4	generate	Run2	generate/STIM_017.jpg	99
1294.742	1.824	1823.5	generate	Run2	generate/STIM_017.jpg	100
1299.529	1.526	1526.0	generate	Run2	generate/STIM_017.jpg	100
1304.178	1.912	1912.1	generate	Run2	generate/STIM_017.jpg	100
1309.338	1.456	1456.5	generate	Run2	generate/STIM_018.jpg	100
1313.141	2.417	2417.3	generate	Run2	generate/STIM_018.jpg	100
1318.04	1.996	1996.3	generate	Run2	generate/STIM_018.jpg	100
1322.367	1.646	1646.0	generate	Run2	generate/STIM_018.jpg	100
1327.613	1.958	1958.5	generate	Run2	generate/STIM_018.jpg	99
1333.365	1.384	1384.0	generate	Run2	generate/STIM_019.jpg	100
1336.797	1.924	1924.3	generate	Run2	generate/STIM_019.jpg	100
1341.367	2.0	1999.8	generate	Run2	generate/STIM_019.jpg	100
1346.389	1.892	1891.7	generate	Run2	generate/STIM_019.jpg	99
1351.365	2.156	2155.5	generate	Run2	generate/STIM_019.jpg	99
1356.402	1.697	1697.1	generate	Run2	generate/STIM_020.jpg	100
1361.028	1.44	1440.5	generate	Run2	generate/STIM_020.jpg	100
1365.452	1.992	1991.9	generate	Run2	generate/STIM_020.jpg	100
1371.4	1.723	1722.8	generate	Run2	generate/STIM_020.jpg	100
1375.729	1.62	1619.7	generate	Run2	generate/STIM_020.jpg	100
1380.141	1.102	1102.0	generate	Run2	generate/STIM_021.jpg	100
1384.921	2.398	2398.5	generate	Run2	generate/STIM_021.jpg	99
1391.262	2.214	2213.5	generate	Run2	generate/STIM_021.jpg	100
1396.255	1.243	1243.2	generate	Run2	generate/STIM_021.jpg	100
1401.135	1.982	1981.9	generate	Run2	generate/STIM_021.jpg	100
1405.422	1.423	1423.1	generate	Run2	generate/STIM_022.jpg	99
1409.261	1.173	1172.9	generate	Run2	generate/STIM_022.jpg	99
1414.254	1.71	1709.6	generate	Run2	generate/STIM_022.jpg	99
1417.97	1.551	1550.6	generate	Run2	generate/STIM_022.jpg	99
1422.262	2.161	2160.8	generate	Run2	generate/STIM_022.jpg	100
1428.245	1.051	1050.8	generate	Run2	generate/STIM_023.jpg	99
1433.009	1.658	1657.6	generate	Run2	generate/STIM_023.jpg	100
1437.755	1.63	1630.1	generate	Run2	generate/STIM_023.jpg	100
1443.112	1.484	1483.5	generate	Run2	generate/STIM_023.jpg	99
1446.876	1.17	1170.2	generate	Run2	generate/STIM_023.jpg	99
1451.521	1.649	1649.2	generate	Run2	generate/STIM_024.jpg	100
1456.984	2.054	2054.4	generate	Run2	generate/STIM_024.jpg	99
1461.883	1.143	1143.2	generate	Run2	generate/STIM_024.jpg	99
1466.264	0.983	982.7	generate	Run2	generate/STIM_024.jpg	99
1471.056	1.429	1429.0	generate	Run2	generate/STIM_024.jpg	100
1474.858	0.928	927.7	repeat	Run2	repeat/STIM_000.jpg	100
1478.666	0.533	533.3	repeat	Run2	repeat/STIM_000.jpg	99
1482.875	0.685	685.4	repeat	Run2	repeat/STIM_000.jpg	99
1486.314	0.865	864.9	repeat	Run2	repeat/STIM_000.jpg	100
1490.346	0.982	981.7	repeat	Run2	repeat/STIM_000.jpg	99
1495.094	0.926	925.9	repeat	Run2	repeat/STIM_001.jpg	99
1499.089	0.705	705.4	repeat	Run2	repeat/STIM_001.jpg	99
1501.889	0.661	661.4	repeat	Run2	repeat/STIM_001.jpg	99
1504.783	0.873	872.6	repeat	Run2	repeat/STIM_001.jpg	100
1508.022	1.019	1018.9	repeat	Run2	repeat/STIM_001.jpg	100
1512.378	1.019	1018.9	repeat	Run2	repeat/STIM_002.jpg	99
1516.963	0.862	861.8	repeat	Run2	repeat/STIM_002.jpg	99
1520.135	0.753	752.7	repeat	Run2	repeat/STIM_002.jpg	99
1524.823	0.666	666.0	repeat	Run2	repeat/STIM_002.jpg	100
1528.666	0.554	553.5	repeat	Run2	repeat/STIM_002.jpg	99
1531.86	0.777	777.0	repeat	Run2	repeat/STIM_003.jpg	100
1534.9	0.53	530.4	repeat	Run2	repeat/STIM_003.jpg	100
1537.8	0.641	641.0	repeat	Run2	repeat/STIM_003.jpg	99
1542.221	0.734	733.8	repeat	Run2	repeat/STIM_003.jpg	99
1546.345	0.996	995.9	repeat	Run2	repeat/STIM_003.jpg	100
1550.142	0.953	953.1	repeat	Run2	repeat/STIM_004.jpg	100
1554.588	0.761	761.2	repeat	Run2	repeat/STIM_004.jpg	100
1558.707	0.526	526.4	repeat	Run2	repeat/STIM_004.jpg	99
1561.386	0.898	898.4	repeat	Run2	repeat/STIM_004.jpg	99
1564.792	0.871	870.6	repeat	Run2	repeat/STIM_004.jpg	100
1569.37	0.782	782.1	repeat	Run2	repeat/STIM_005.jpg	100
1572.184	0.94	940.5	repeat	Run2	repeat/STIM_005.jpg	100
1576.196	0.855	855.2	repeat	Run2	repeat/STIM_005.jpg	100
1580.007	0.951	950.7	repeat	Run2	repeat/STIM_005.jpg	99
1584.187	0.734	733.8	repeat	Run2	repeat/STIM_005.jpg	99
1587.675	0.841	841.1	repeat	Run2	repeat/STIM_006.jpg	100
1591.668	0.656	656.1	repeat	Run2	repeat/STIM_006.jpg	99
1596.264	0.714	713.9	repeat	Run2	repeat/STIM_006.jpg	100
1599.309	0.937	936.8	repeat	Run2	repeat/STIM_006.jpg	100
1604.093	0.74	740.4	repeat	Run2	repeat/STIM_006.jpg	99
1607.806	0.88	879.6	repeat	Run2	repeat/STIM_007.jpg	99
1611.092	0.811	811.3	repeat	Run2	repeat/STIM_007.jpg	99
1615.033	0.687	687.0	repeat	Run2	repeat/STIM_007.jpg	100
1618.868	0.632	631.9	repeat	Run2	repeat/STIM_007.jpg	100
1623.345	1.025	1024.8	repeat	Run2	repeat/STIM_007.jpg	100
1626.516	0.824	824.3	repeat	Run2	repeat/STIM_008.jpg	99
1629.548	0.795	795.1	repeat	Run2	repeat/STIM_008.jpg	99
1633.523	0.559	559.2	repeat	Run2	repeat/STIM_008.jpg	100
1637.069	0.755	754.7	repeat	Run2	repeat/STIM_008.jpg	99
1639.914	0.747	746.7	repeat	Run2	repeat/STIM_008.jpg	99
1643.927	0.956	955.7	repeat	Run2	repeat/STIM_009.jpg	99
1647.333	0.782	782.5	repeat	Run2	repeat/STIM_009.jpg	99
1651.731	0.871	871.0	repeat	Run2	repeat/STIM_009.jpg	99
1654.707	0.938	937.6	repeat	Run2	repeat/STIM_009.jpg	100
1657.967	0.582	582.0	repeat	Run2	repeat/STIM_009.jpg	99
1661.346	0.876	876.5	repeat	Run2	repeat/STIM_010.jpg	99
1665.973	0.716	715.8	repeat	Run2	repeat/STIM_010.jpg	100
1668.803	0.806	805.9	repeat	Run2	repeat/STIM_010.jpg	99
1672.189	0.903	903.0	repeat	Run2	repeat/STIM_010.jpg	100
1676.574	0.799	798.9	repeat	Run2	repeat/STIM_010.jpg	100
1681.139	0.517	517.3	repeat	Run2	repeat/STIM_011.jpg	100
1684.989	0.91	909.5	repeat	Run2	repeat/STIM_011.jpg	99
1688.731	0.942	941.8	repeat	Run2	repeat/STIM_011.jpg	99
1693.227	0.613	613.2	repeat	Run2	repeat/STIM_011.jpg	100
1696.85	0.842	842.3	repeat	Run2	repeat/STIM_011.jpg	100
1701.045	0.576	575.6	repeat	Run2	repeat/STIM_012.jpg	100
1705.098	0.852	852.4	repeat	Run2	repeat/STIM_012.jpg	100
1708.314	0.847	847.1	repeat	Run2	repeat/STIM_012.jpg	100
1712.435	0.635	634.8	repeat	Run2	repeat/STIM_012.jpg	100
1716.975	0.584	583.7	repeat	Run2	repeat/STIM_012.jpg	100
1721.176	0.989	988.6	repeat	Run2	repeat/STIM_013.jpg	100
1725.57	0.959	959.2	repeat	Run2	repeat/STIM_013.jpg	99
1729.664	0.642	642.2	repeat	Run2	repeat/STIM_013.jpg	99
1732.674	0.71	709.8	repeat	Run2	repeat/STIM_013.jpg	100
1737.228	0.657	657.1	repeat	Run2	repeat/STIM_013.jpg	100
1741.437	0.693	692.9	repeat	Run2	repeat/STIM_014.jpg	99
1745.133	1.014	1013.6	repeat	Run2	repeat/STIM_014.jpg	100
1749.208	0.883	883.4	repeat	Run2	repeat/STIM_014.jpg	100
1753.657	0.859	858.6	repeat	Run2	repeat/STIM_014.jpg	99
1757.267	0.671	671.1	repeat	Run2	repeat/STIM_014.jpg	99
1760.465	1.618	1618.2	generate	Run3	generate/STIM_000.jpg	100
1765.374	1.58	1579.9	generate	Run3	generate/STIM_000.jpg	100
1770.725	0.884	883.9	generate	Run3	generate/STIM_000.jpg	100
1773.748	1.797	1796.9	generate	Run3	generate/STIM_000.jpg	99
1778.17	2.159	2158.9	generate	Run3	generate/STIM_000.jpg	100
1783.5	1.884	1883.5	generate	Run3	generate/STIM_001.jpg	99
1789.104	2.095	2095.3	generate	Run3	generate/STIM_001.jpg	100
1795.0	1.169	1168.8	generate	Run3	generate/STIM_001.jpg	99
1799.853	0.994	993.9	generate	Run3	generate/STIM_001.jpg	100
1803.742	1.13	1130.5	generate	Run3	generate/STIM_001.jpg	99
1808.166	1.597	1596.9	generate	Run3	generate/STIM_002.jpg	100
1813.241	1.276	1276.2	generate	Run3	generate/STIM_002.jpg	100
1817.055	0.987	986.9	generate	Run3	generate/STIM_002.jpg	100
1821.63	2.083	2083.4	generate	Run3	generate/STIM_002.jpg	99
1826.528	1.387	1386.7	generate	Run3	generate/STIM_002.jpg	100
1829.953	1.697	1696.7	generate	Run3	generate/STIM_003.jpg	99
1834.811	1.91	1909.6	generate	Run3	generate/STIM_003.jpg	99
1840.255	2.147	2147.4	generate	Run3	generate/STIM_003.jpg	99
1845.216	1.975	1975.4	generate	Run3	generate/STIM_003.jpg	99
1850.649	0.924	924.3	generate	Run3	generate/STIM_003.jpg	99
1854.986	1.403	1402.7	generate	Run3	generate/STIM_004.jpg	100
1859.365	2.058	2057.8	generate	Run3	generate/STIM_004.jpg	99
1864.637	1.649	1648.9	generate	Run3	generate/STIM_004.jpg	99
1868.741	1.124	1124.5	generate	Run3	generate/STIM_004.jpg	100
1872.607	1.386	1385.5	generate	Run3	generate/STIM_004.jpg	99
1877.935	1.257	1257.4	generate	Run3	generate/STIM_005.jpg	99
1882.946	1.391	1390.8	generate	Run3	generate/STIM_005.jpg	99
1888.087	0.871	871.2	generate	Run3	generate/STIM_005.jpg	100
1892.45	1.759	1759.0	generate	Run3	generate/STIM_005.jpg	100
1897.969	0.953	952.7	generate	Run3	generate/STIM_005.jpg	100
1902.161	2.042	2042.2	generate	Run3	generate/STIM_006.jpg	99
1907.546	1.076	1075.9	generate	Run3	generate/STIM_006.jpg	99
1912.345	1.414	1413.6	generate	Run3	generate/STIM_006.jpg	100
1916.645	1.589	1589.4	generate	Run3	generate/STIM_006.jpg	100
1920.624	1.811	1810.9	generate	Run3	generate/STIM_006.jpg	100
1925.61	1.621	1620.6	generate	Run3	generate/STIM_007.jpg	100
1931.158	1.278	1278.4	generate	Run3	generate/STIM_007.jpg	100
1936.172	0.904	903.7	generate	Run3	generate/STIM_007.jpg	99
1940.592	0.92	919.5	generate	Run3	generate/STIM_007.jpg	100
1944.328	1.772	1771.6	generate	Run3	generate/STIM_007.jpg	100
1948.474	1.309	1309.0	generate	Run3	generate/STIM_008.jpg	100
1952.281	1.952	1952.0	generate	Run3	generate/STIM_008.jpg	99
1957.284	1.448	1447.7	generate	Run3	generate/STIM_008.jpg	99
1961.878	1.953	1953.0	generate	Run3	generate/STIM_008.jpg	100
1966.277	1.136	1135.8	generate	Run3	generate/STIM_008.jpg	99
1971.248	1.22	1220.5	generate	Run3	generate/STIM_009.jpg	99
1974.708	1.807	1806.9	generate	Run3	generate/STIM_009.jpg	100
1979.719	1.389	1389.2	generate	Run3	generate/STIM_009.jpg	100
1983.904	1.108	1108.5	generate	Run3	generate/STIM_009.jpg	99
1987.22	1.266	1265.9	generate	Run3	generate/STIM_009.jpg	100
1991.97	1.17	1170.0	generate	Run3	generate/STIM_010.jpg	99
1996.289	2.11	2109.5	generate	Run3	generate/STIM_010.jpg	99
2000.713	1.095	1095.2	generate	Run3	generate/STIM_010.jpg	100
2003.992	1.446	1446.0	generate	Run3	generate/STIM_010.jpg	100
2008.911	2.01	2010.1	generate	Run3	generate/STIM_010.jpg	99
2014.855	1.524	1524.0	generate	Run3	generate/STIM_011.jpg	100
2019.236	1.045	1045.0	generate	Run3	generate/STIM_011.jpg	99
2023.416	1.045	1045.2	generate	Run3	generate/STIM_011.jpg	100
2027.735	0.986	986.4	generate	Run3	generate/STIM_011.jpg	99
2032.62	1.14	1140.3	generate	Run3	generate/STIM_011.jpg	99
2036.912	1.418	1417.5	generate	Run3	generate/STIM_012.jpg	99
2040.631	1.954	1954.2	generate	Run3	generate/STIM_012.jpg	99
2046.305	2.149	2148.7	generate	Run3	generate/STIM_012.jpg	100
2052.391	1.77	1770.0	generate	Run3	generate/STIM_012.jpg	99
2056.613	1.548	1548.0	generate	Run3	generate/STIM_012.jpg	99
2062.109	1.791	1791.2	generate	Run3	generate/STIM_013.jpg	99
2066.868	2.132	2132.5	generate	Run3	generate/STIM_013.jpg	99
2071.764	1.841	1841.3	generate	Run3	generate/STIM_013.jpg	99
2076.732	1.91	1910.1	generate	Run3	generate/STIM_013.jpg	100
2081.718	1.97	1970.2	generate	Run3	generate/STIM_013.jpg	99
2086.585	1.249	1248.8	generate	Run3	generate/STIM_014.jpg	100
2091.106	1.258	1257.6	generate	Run3	generate/STIM_014.jpg	99
2094.675	1.602	1602.4	generate	Run3	generate/STIM_014.jpg	100
2098.812	1.129	1128.7	generate	Run3	generate/STIM_014.jpg	99
2102.439	1.785	1785.1	generate	Run3	generate/STIM_014.jpg	99
2107.851	1.49	1490.3	generate	Run3	generate/STIM_015.jpg	100
2112.971	1.884	1884.5	generate	Run3	generate/STIM_015.jpg	99
2117.965	1.176	1176.1	generate	Run3	generate/STIM_015.jpg	99
2121.436	1.778	1778.0	generate	Run3	generate/STIM_015.jpg	99
2126.805	0.933	932.7	generate	Run3	generate/STIM_015.jpg	100
2130.712	1.563	1563.3	generate	Run3	generate/STIM_016.jpg	99
2134.838	0.927	926.7	generate	Run3	generate/STIM_016.jpg	100
2139.104	1.428	1427.5	generate	Run3	generate/STIM_016.jpg	100
2143.504	2.067	2067.1	generate	Run3	generate/STIM_016.jpg	100
2148.886	1.037	1036.8	generate	Run3	generate/STIM_016.jpg	100
2152.4	2.104	2103.7	generate	Run3	generate/STIM_017.jpg	100
2156.867	2.146	2145.9	generate	Run3	generate/STIM_017.jpg	99
2161.975	2.135	2134.6	generate	Run3	generate/STIM_017.jpg	100
2167.645	1.196	1196.4	generate	Run3	generate/STIM_017.jpg	99
2171.449	1.848	1848.3	generate	Run3	generate/STIM_017.jpg	99
2176.183	1.574	1574.5	generate	Run3	generate/STIM_018.jpg	100
2179.809	1.334	1334.0	generate	Run3	generate/STIM_018.jpg	99
2183.341	1.548	1548.0	generate	Run3	generate/STIM_018.jpg	100
2186.978	1.379	1378.8	generate	Run3	generate/STIM_018.jpg	100
2191.525	1.06	1060.2	generate	Run3	generate/STIM_018.jpg	100
2194.669	0.985	985.1	generate	Run3	generate/STIM_019.jpg	99
2198.622	1.364	1364.1	generate	Run3	generate/STIM_019.jpg	99
2202.907	1.093	1092.7	generate	Run3	generate/STIM_019.jpg	99
2206.344	1.782	1781.7	generate	Run3	generate/STIM_019.jpg	99
2211.904	1.858	1858.3	generate	Run3	generate/STIM_019.jpg	100
2216.53	1.905	1905.4	generate	Run3	generate/STIM_020.jpg	99
2222.05	1.8	1799.6	generate	Run3	generate/STIM_020.jpg	99
2226.253	1.76	1760.1	generate	Run3	generate/STIM_020.jpg	99
2231.142	1.692	1692.2	generate	Run3	generate/STIM_020.jpg	99
2235.425	1.624	1624.5	generate	Run3	generate/STIM_020.jpg	99
2239.907	1.239	1238.7	generate	Run3	generate/STIM_021.jpg	99
2244.352	0.964	964.1	generate	Run3	generate/STIM_021.jpg	100
2248.167	1.954	1953.8	generate	Run3	generate/STIM_021.jpg	99
2253.284	1.92	1919.5	generate	Run3	generate/STIM_021.jpg	100
2257.491	1.027	1026.8	generate	Run3	generate/STIM_021.jpg	99
2261.192	1.068	1068.3	generate	Run3	generate/STIM_022.jpg	99
2265.886	1.145	1145.2	generate	Run3	generate/STIM_022.jpg	100
2270.13	1.974	1973.5	generate	Run3	generate/STIM_022.jpg	100
2274.178	1.386	1385.6	generate	Run3	generate/STIM_022.jpg	99
2277.631	0.961	961.2	generate	Run3	generate/STIM_022.jpg	99
2281.713	0.967	967.3	generate	Run3	generate/STIM_023.jpg	99
2286.582	1.255	1254.7	generate	Run3	generate/STIM_023.jpg	100
2291.003	1.189	1189.0	generate	Run3	generate/STIM_023.jpg	99
2295.053	1.286	1285.9	generate	Run3	generate/STIM_023.jpg	99
2299.358	1.548	1548.2	generate	Run3	generate/STIM_023.jpg	100
2303.153	1.162	1161.8	generate	Run3	generate/STIM_024.jpg	99
2306.492	0.893	892.9	generate	Run3	generate/STIM_024.jpg	100
2310.831	0.967	967.2	generate	Run3	generate/STIM_024.jpg	99
2314.252	1.308	1308.2	generate	Run3	generate/STIM_024.jpg	99
2319.044	2.125	2125.3	generate	Run3	generate/STIM_024.jpg	100
2323.285	1.012	1012.1	repeat	Run3	repeat/STIM_000.jpg	99
2326.402	0.574	574.2	repeat	Run3	repeat/STIM_000.jpg	99
2329.368	0.904	904.3	repeat	Run3	repeat/STIM_000.jpg	99
2332.368	0.536	536.3	repeat	Run3	repeat/STIM_000.jpg	100
2336.803	0.895	894.8	repeat	Run3	repeat/STIM_000.jpg	100
2340.553	0.841	840.9	repeat	Run3	repeat/STIM_001.jpg	100
2343.409	0.578	577.8	repeat	Run3	repeat/STIM_001.jpg	99
2346.628	0.911	911.0	repeat	Run3	repeat/STIM_001.jpg	100
2351.233	0.785	784.8	repeat	Run3	repeat/STIM_001.jpg	100
2355.379	0.826	825.7	repeat	Run3	repeat/STIM_001.jpg	100
2359.08	0.744	743.9	repeat	Run3	repeat/STIM_002.jpg	100
2363.684	0.836	836.1	repeat	Run3	repeat/STIM_002.jpg	99
2367.455	0.867	866.9	repeat	Run3	repeat/STIM_002.jpg	99
2371.176	0.854	854.1	repeat	Run3	repeat/STIM_002.jpg	100
2375.296	0.547	547.4	repeat	Run3	repeat/STIM_002.jpg	100
2379.6	0.839	839.3	repeat	Run3	repeat/STIM_003.jpg	100
2383.832	1.018	1018.4	repeat	Run3	repeat/STIM_003.jpg	99
2387.827	0.562	561.7	repeat	Run3	repeat/STIM_003.jpg	99
2390.723	0.886	885.8	repeat	Run3	repeat/STIM_003.jpg	100
2395.151	0.959	958.6	repeat	Run3	repeat/STIM_003.jpg	99
2398.195	0.774	773.6	repeat	Run3	repeat/STIM_004.jpg	100
2401.154	0.783	782.6	repeat	Run3	repeat/STIM_004.jpg	100
2404.637	0.974	974.4	repeat	Run3	repeat/STIM_004.jpg	99
2408.461	0.696	695.7	repeat	Run3	repeat/STIM_004.jpg	100
2412.684	0.951	951.4	repeat	Run3	repeat/STIM_004.jpg	100
2417.281	0.881	880.7	repeat	Run3	repeat/STIM_005.jpg	100
2421.169	0.99	989.8	repeat	Run3	repeat/STIM_005.jpg	100
2425.961	0.83	830.2	repeat	Run3	repeat/STIM_005.jpg	99
2429.253	0.671	671.4	repeat	Run3	repeat/STIM_005.jpg	100
2433.252	0.886	886.5	repeat	Run3	repeat/STIM_005.jpg	100
2437.095	0.544	544.3	repeat	Run3	repeat/STIM_006.jpg	100
2440.262	0.763	763.1	repeat	Run3	repeat/STIM_006.jpg	99
2443.226	0.744	744.4	repeat	Run3	repeat/STIM_006.jpg	100
2447.486	0.577	576.8	repeat	Run3	repeat/STIM_006.jpg	100
2450.568	0.967	966.8	repeat	Run3	repeat/STIM_006.jpg	100
2453.877	0.606	605.9	repeat	Run3	repeat/STIM_007.jpg	100
2457.786	0.869	868.7	repeat	Run3	repeat/STIM_007.jpg	100
2462.366	1.015	1015.2	repeat	Run3	repeat/STIM_007.jpg	100
2467.041	0.927	927.4	repeat	Run3	repeat/STIM_007.jpg	100
2470.082	1.016	1015.6	repeat	Run3	repeat/STIM_007.jpg	99
2473.149	0.988	988.1	repeat	Run3	repeat/STIM_008.jpg	100
2477.198	0.909	908.9	repeat	Run3	repeat/STIM_008.jpg	100
2481.565	0.677	677.2	repeat	Run3	repeat/STIM_008.jpg	100
2485.619	0.838	838.4	repeat	Run3	repeat/STIM_008.jpg	100
2489.688	0.625	624.8	repeat	Run3	repeat/STIM_008.jpg	99
2494.201	0.697	697.2	repeat	Run3	repeat/STIM_009.jpg	99
2498.754	0.975	974.9	repeat	Run3	repeat/STIM_009.jpg	99
2503.538	0.949	948.6	repeat	Run3	repeat/STIM_009.jpg	99
2508.17	0.881	880.8	repeat	Run3	repeat/STIM_009.jpg	99
2512.153	0.86	860.1	repeat	Run3	repeat/STIM_009.jpg	99
2515.799	0.943	942.6	repeat	Run3	repeat/STIM_010.jpg	99
2519.548	0.933	933.4	repeat	Run3	repeat/STIM_010.jpg	99
2523.588	0.808	808.0	repeat	Run3	repeat/STIM_010.jpg	100
2528.27	0.763	762.8	repeat	Run3	repeat/STIM_010.jpg	100
2532.837	0.788	787.7	repeat	Run3	repeat/STIM_010.jpg	99
2536.787	0.841	841.3	repeat	Run3	repeat/STIM_011.jpg	99
2541.227	0.553	553.4	repeat	Run3	repeat/STIM_011.jpg	100
2544.567	0.548	548.5	repeat	Run3	repeat/STIM_011.jpg	100
2547.429	0.792	791.6	repeat	Run3	repeat/STIM_011.jpg	100
2550.368	0.784	783.8	repeat	Run3	repeat/STIM_011.jpg	100
2553.826	0.88	880.4	repeat	Run3	repeat/STIM_012.jpg	100
2558.059	0.74	739.9	repeat	Run3	repeat/STIM_012.jpg	100
2560.944	0.696	696.4	repeat	Run3	repeat/STIM_012.jpg	99
2564.047	0.728	728.5	repeat	Run3	repeat/STIM_012.jpg	99
2568.496	0.637	637.1	repeat	Run3	repeat/STIM_012.jpg	100
2571.383	0.532	532.5	repeat	Run3	repeat/STIM_013.jpg	99
2575.673	0.982	981.5	repeat	Run3	repeat/STIM_013.jpg	99
2579.555	0.656	656.2	repeat	Run3	repeat/STIM_013.jpg	99
2582.681	0.92	919.7	repeat	Run3	repeat/STIM_013.jpg	99
2587.45	0.567	567.4	repeat	Run3	repeat/STIM_013.jpg	99
2590.03	0.896	896.5	repeat	Run3	repeat/STIM_014.jpg	99
2593.583	0.562	561.7	repeat	Run3	repeat/STIM_014.jpg	100
2597.071	1.014	1013.8	repeat	Run3	repeat/STIM_014.jpg	99
2600.872	0.963	962.7	repeat	Run3	repeat/STIM_014.jpg	99
2604.481	0.659	659.0	repeat	Run3	repeat/STIM_014.jpg	100
2608.905	1.543	1542.6	generate	Run4	generate/STIM_000.jpg	100
2613.292	1.568	1567.7	generate	Run4	generate/STIM_000.jpg	99
2617.013	0.891	890.6	generate	Run4	generate/STIM_000.jpg	99
2620.631	1.975	1974.8	generate	Run4	generate/STIM_000.jpg	99
2625.689	2.098	2097.6	generate	Run4	generate/STIM_000.jpg	99
2630.383	1.46	1459.9	generate	Run4	generate/STIM_001.jpg	99
2634.361	2.09	2090.2	generate	Run4	generate/STIM_001.jpg	99
2639.491	1.822	1821.6	generate	Run4	generate/STIM_001.jpg	99
2644.905	1.269	1269.3	generate	Run4	generate/STIM_001.jpg	99
2648.259	2.101	2101.0	generate	Run4	generate/STIM_001.jpg	99
2653.462	1.355	1354.8	generate	Run4	generate/STIM_002.jpg	99
2657.826	2.162	2162.0	generate	Run4	generate/STIM_002.jpg	100
2662.713	1.246	1246.5	generate	Run4	generate/STIM_002.jpg	100
2666.52	1.256	1255.8	generate	Run4	generate/STIM_002.jpg	100
2669.872	1.915	1915.0	generate	Run4	generate/STIM_002.jpg	100
2675.461	2.038	2038.1	generate	Run4	generate/STIM_003.jpg	99
2680.009	1.746	1745.6	generate	Run4	generate/STIM_003.jpg	99
2683.958	1.428	1427.7	generate	Run4	generate/STIM_003.jpg	99
2688.607	2.105	2104.9	generate	Run4	generate/STIM_003.jpg	100
2693.395	1.391	1391.2	generate	Run4	generate/STIM_003.jpg	100
2697.862	0.931	931.4	generate	Run4	generate/STIM_004.jpg	99
2701.558	1.518	1518.1	generate	Run4	generate/STIM_004.jpg	99
2706.78	1.012	1011.8	generate	Run4	generate/STIM_004.jpg	99
2710.825	1.141	1140.6	generate	Run4	generate/STIM_004.jpg	99
2715.307	1.322	1322.4	generate	Run4	generate/STIM_004.jpg	99
2718.938	0.919	919.2	generate	Run4	generate/STIM_005.jpg	99
2723.635	1.709	1708.6	generate	Run4	generate/STIM_005.jpg	100
2727.863	1.407	1407.4	generate	Run4	generate/STIM_005.jpg	99
2732.929	1.021	1020.9	generate	Run4	generate/STIM_005.jpg	100
2737.145	1.98	1980.5	generate	Run4	generate/STIM_005.jpg	99
2741.167	1.614	1614.4	generate	Run4	generate/STIM_006.jpg	99
2745.825	0.908	908.3	generate	Run4	generate/STIM_006.jpg	100
2749.165	0.941	941.2	generate	Run4	generate/STIM_006.jpg	99
2753.909	1.36	1360.2	generate	Run4	generate/STIM_006.jpg	100
2758.983	2.088	2088.5	generate	Run4	generate/STIM_006.jpg	99
2764.032	1.704	1704.2	generate	Run4	generate/STIM_007.jpg	100
2769.514	1.346	1345.6	generate	Run4	generate/STIM_007.jpg	100
2773.693	1.189	1189.1	generate	Run4	generate/STIM_007.jpg	100
2777.81	1.478	1478.3	generate	Run4	generate/STIM_007.jpg	100
2782.254	1.042	1041.6	generate	Run4	generate/STIM_007.jpg	100
2787.204	1.238	1237.8	generate	Run4	generate/STIM_008.jpg	100
2790.689	0.877	877.3	generate	Run4	generate/STIM_008.jpg	100
2795.131	1.743	1743.3	generate	Run4	generate/STIM_008.jpg	99
2800.028	1.495	1495.0	generate	Run4	generate/STIM_008.jpg	99
2805.024	1.581	1581.1	generate	Run4	generate/STIM_008.jpg	100
2810.091	1.463	1463.3	generate	Run4	generate/STIM_009.jpg	100
2814.31	1.145	1145.2	generate	Run4	generate/STIM_009.jpg	100
2818.474	0.919	918.8	generate	Run4	generate/STIM_009.jpg	100
2823.326	0.951	950.6	generate	Run4	generate/STIM_009.jpg	99
2827.887	2.003	2003.2	generate	Run4	generate/STIM_009.jpg	99
2833.324	1.142	1142.3	generate	Run4	generate/STIM_010.jpg	100
2837.448	2.059	2058.8	generate	Run4	generate/STIM_010.jpg	99
2842.566	1.752	1752.1	generate	Run4	generate/STIM_010.jpg	100
2847.457	1.827	1827.4	generate	Run4	generate/STIM_010.jpg	100
2851.536	2.02	2020.2	generate	Run4	generate/STIM_010.jpg	99
2857.171	1.329	1329.3	generate	Run4	generate/STIM_011.jpg	99
2861.186	1.027	1026.8	generate	Run4	generate/STIM_011.jpg	100
2865.36	1.624	1624.3	generate	Run4	generate/STIM_011.jpg	99
2869.995	0.865	864.9	generate	Run4	generate/STIM_011.jpg	100
2873.75	0.9	899.7	generate	Run4	generate/STIM_011.jpg	100
2877.931	1.607	1606.7	generate	Run4	generate/STIM_012.jpg	100
2882.043	1.902	1902.1	generate	Run4	generate/STIM_012.jpg	99
2887.53	0.873	872.6	generate	Run4	generate/STIM_012.jpg	99
2890.542	1.902	1902.5	generate	Run4	generate/STIM_012.jpg	99
2894.646	2.037	2037.0	generate	Run4	generate/STIM_012.jpg	99
2898.965	1.029	1029.2	generate	Run4	generate/STIM_013.jpg	100
2903.801	1.537	1537.0	generate	Run4	generate/STIM_013.jpg	100
2908.478	1.022	1022.5	generate	Run4	generate/STIM_013.jpg	100
2913.234	1.502	1501.6	generate	Run4	generate/STIM_013.jpg	100
2918.113	1.794	1793.5	generate	Run4	generate/STIM_013.jpg	99
2922.261	0.937	936.7	generate	Run4	generate/STIM_014.jpg	99
2926.782	1.616	1616.5	generate	Run4	generate/STIM_014.jpg	99
2932.059	1.907	1907.4	generate	Run4	generate/STIM_014.jpg	100
2936.578	1.796	1795.7	generate	Run4	generate/STIM_014.jpg	100
2941.26	2.085	2084.7	generate	Run4	generate/STIM_014.jpg	99
2946.538	1.94	1939.8	generate	Run4	generate/STIM_015.jpg	99
2951.363	1.262	1262.1	generate	Run4	generate/STIM_015.jpg	100
2955.472	1.038	1037.6	generate	Run4	generate/STIM_015.jpg	99
2959.989	1.928	1927.8	generate	Run4	generate/STIM_015.jpg	99
2965.402	1.269	1269.3	generate	Run4	generate/STIM_015.jpg	100
2969.518	0.871	871.0	generate	Run4	generate/STIM_016.jpg	99
2972.751	1.447	1446.6	generate	Run4	generate/STIM_016.jpg	100
2976.662	2.14	2140.4	generate	Run4	generate/STIM_016.jpg	99
2982.582	0.91	910.5	generate	Run4	generate/STIM_016.jpg	100
2986.938	1.431	1430.9	generate	Run4	generate/STIM_016.jpg	100
2990.835	1.587	1586.6	generate	Run4	generate/STIM_017.jpg	100
2996.021	1.773	1773.4	generate	Run4	generate/STIM_017.jpg	100
3000.998	2.055	2054.9	generate	Run4	generate/STIM_017.jpg	100
3005.399	2.021	2021.0	generate	Run4	generate/STIM_017.jpg	100
3009.876	1.392	1391.6	generate	Run4	generate/STIM_017.jpg	100
3014.132	1.88	1880.0	generate	Run4	generate/STIM_018.jpg	99
3019.353	1.196	1196.4	generate	Run4	generate/STIM_018.jpg	100
3023.068	1.08	1079.7	generate	Run4	generate/STIM_018.jpg	99
3027.246	1.549	1548.9	generate	Run4	generate/STIM_018.jpg	99
3031.48	0.893	893.4	generate	Run4	generate/STIM_018.jpg	100
3035.329	0.981	980.6	generate	Run4	generate/STIM_019.jpg	99
3038.996	1.517	1517.3	generate	Run4	generate/STIM_019.jpg	99
3044.102	2.003	2003.0	generate	Run4	generate/STIM_019.jpg	100
3049.267	1.391	1391.4	generate	Run4	generate/STIM_019.jpg	99
3054.379	1.794	1793.5	generate	Run4	generate/STIM_019.jpg	99
3058.792	1.078	1077.6	generate	Run4	generate/STIM_020.jpg	99
3063.477	0.911	910.7	generate	Run4	generate/STIM_020.jpg	100
3067.571	1.692	1692.0	generate	Run4	generate/STIM_020.jpg	99
3072.826	1.481	1480.8	generate	Run4	generate/STIM_020.jpg	99
3077.611	1.185	1184.7	generate	Run4	generate/STIM_020.jpg	99
3081.65	1.41	1409.7	generate	Run4	generate/STIM_021.jpg	100
3085.462	0.892	891.9	generate	Run4	generate/STIM_021.jpg	100
3088.711	1.216	1216.0	generate	Run4	generate/STIM_021.jpg	99
3093.01	1.531	1530.7	generate	Run4	generate/STIM_021.jpg	100
3097.764	1.707	1707.2	generate	Run4	generate/STIM_021.jpg	100
3102.508	1.769	1768.8	generate	Run4	generate/STIM_022.jpg	99
3107.178	1.117	1116.9	generate	Run4	generate/STIM_022.jpg	100
3110.505	2.053	2053.2	generate	Run4	generate/STIM_022.jpg	99
3115.094	1.633	1633.4	generate	Run4	generate/STIM_022.jpg	100
3119.154	1.91	1910.4	generate	Run4	generate/STIM_022.jpg	100
3124.768	1.966	1966.2	generate	Run4	generate/STIM_023.jpg	99
3129.799	1.292	1291.9	generate	Run4	generate/STIM_023.jpg	99
3134.648	0.896	895.7	generate	Run4	generate/STIM_023.jpg	99
3138.72	1.0	1000.2	generate	Run4	generate/STIM_023.jpg	100
3142.97	1.06	1060.5	generate	Run4	generate/STIM_023.jpg	99
3146.835	1.285	1285.1	generate	Run4	generate/STIM_024.jpg	99
3151.926	0.906	905.6	generate	Run4	generate/STIM_024.jpg	100
3156.321	1.312	1311.7	generate	Run4	generate/STIM_024.jpg	99
3160.836	1.175	1174.7	generate	Run4	generate/STIM_024.jpg	100
3164.502	1.133	1133.0	generate	Run4	generate/STIM_024.jpg	99
3168.096	0.989	989.1	repeat	Run4	repeat/STIM_000.jpg	99
3171.569	0.802	802.3	repeat	Run4	repeat/STIM_000.jpg	99
3175.388	0.993	993.1	repeat	Run4	repeat/STIM_000.jpg	99
3179.478	0.757	757.0	repeat	Run4	repeat/STIM_000.jpg	100
3183.056	0.872	871.8	repeat	Run4	repeat/STIM_000.jpg	100
3186.798	0.779	778.7	repeat	Run4	repeat/STIM_001.jpg	100
3190.895	0.645	645.1	repeat	Run4	repeat/STIM_001.jpg	100
3193.691	0.963	963.3	repeat	Run4	repeat/STIM_001.jpg	99
3197.373	0.85	850.1	repeat	Run4	repeat/STIM_001.jpg	100
3200.73	0.799	799.1	repeat	Run4	repeat/STIM_001.jpg	100
3204.482	0.896	895.9	repeat	Run4	repeat/STIM_002.jpg	100
3208.021	0.93	929.7	repeat	Run4	repeat/STIM_002.jpg	99
3211.619	0.711	711.3	repeat	Run4	repeat/STIM_002.jpg	99
3215.767	0.726	726.1	repeat	Run4	repeat/STIM_002.jpg	99
3219.35	0.864	863.8	repeat	Run4	repeat/STIM_002.jpg	100
3223.921	0.805	804.6	repeat	Run4	repeat/STIM_003.jpg	99
3228.447	0.682	681.5	repeat	Run4	repeat/STIM_003.jpg	100
3231.97	1.008	1007.9	repeat	Run4	repeat/STIM_003.jpg	99
3235.218	0.604	603.6	repeat	Run4	repeat/STIM_003.jpg	99
3239.172	0.609	609.0	repeat	Run4	repeat/STIM_003.jpg	100
3243.325	1.016	1015.5	repeat	Run4	repeat/STIM_004.jpg	99
3246.406	0.928	928.5	repeat	Run4	repeat/STIM_004.jpg	99
3250.984	0.81	810.0	repeat	Run4	repeat/STIM_004.jpg	99
3253.913	0.878	878.4	repeat	Run4	repeat/STIM_004.jpg	99
3258.427	0.876	875.8	repeat	Run4	repeat/STIM_004.jpg	100
3262.257	0.755	754.8	repeat	Run4	repeat/STIM_005.jpg	99
3266.878	0.569	569.2	repeat	Run4	repeat/STIM_005.jpg	100
3270.539	0.773	772.9	repeat	Run4	repeat/STIM_005.jpg	99
3275.026	0.802	802.4	repeat	Run4	repeat/STIM_005.jpg	99
3278.701	0.605	604.6	repeat	Run4	repeat/STIM_005.jpg	99
3281.878	0.959	958.9	repeat	Run4	repeat/STIM_006.jpg	99
3285.787	0.737	737.0	repeat	Run4	repeat/STIM_006.jpg	100
3289.836	0.83	830.4	repeat	Run4	repeat/STIM_006.jpg	100
3293.205	0.586	586.5	repeat	Run4	repeat/STIM_006.jpg	99
3297.619	0.851	851.3	repeat	Run4	repeat/STIM_006.jpg	99
3301.006	0.649	649.2	repeat	Run4	repeat/STIM_007.jpg	100
3303.91	1.01	1010.3	repeat	Run4	repeat/STIM_007.jpg	99
3308.126	0.961	960.6	repeat	Run4	repeat/STIM_007.jpg	99
3312.057	0.955	955.4	repeat	Run4	repeat/STIM_007.jpg	99
3315.892	0.83	830.5	repeat	Run4	repeat/STIM_007.jpg	100
3319.103	0.744	744.0	repeat	Run4	repeat/STIM_008.jpg	99
3322.173	0.687	687.1	repeat	Run4	repeat/STIM_008.jpg	99
3325.303	0.819	819.4	repeat	Run4	repeat/STIM_008.jpg	99
3329.17	0.633	632.6	repeat	Run4	repeat/STIM_008.jpg	100
3332.814	0.586	585.7	repeat	Run4	repeat/STIM_008.jpg	99
3336.05	0.76	759.5	repeat	Run4	repeat/STIM_009.jpg	100
3340.426	1.011	1011.1	repeat	Run4	repeat/STIM_009.jpg	99
3343.66	0.795	794.7	repeat	Run4	repeat/STIM_009.jpg	100
3348.128	0.865	865.1	repeat	Run4	repeat/STIM_009.jpg	99
3352.375	0.541	540.8	repeat	Run4	repeat/STIM_009.jpg	100
3355.819	0.964	964.0	repeat	Run4	repeat/STIM_010.jpg	100
3360.574	0.629	629.4	repeat	Run4	repeat/STIM_010.jpg	100
3363.402	0.706	706.0	repeat	Run4	repeat/STIM_010.jpg	100
3366.708	0.527	527.2	repeat	Run4	repeat/STIM_010.jpg	99
3370.509	0.995	994.7	repeat	Run4	repeat/STIM_010.jpg	100
3373.594	0.795	795.1	repeat	Run4	repeat/STIM_011.jpg	100
3378.334	0.685	685.3	repeat	Run4	repeat/STIM_011.jpg	99
3381.608	0.915	915.1	repeat	Run4	repeat/STIM_011.jpg	100
3385.046	0.6	600.2	repeat	Run4	repeat/STIM_011.jpg	99
3387.772	0.636	635.9	repeat	Run4	repeat/STIM_011.jpg	100
3392.33	0.836	835.5	repeat	Run4	repeat/STIM_012.jpg	100
3396.489	0.863	863.1	repeat	Run4	repeat/STIM_012.jpg	99
3400.896	1.02	1020.0	repeat	Run4	repeat/STIM_012.jpg	100
3404.795	1.019	1019.2	repeat	Run4	repeat/STIM_012.jpg	99
3408.114	0.978	978.3	repeat	Run4	repeat/STIM_012.jpg	100
3411.875	0.597	596.9	repeat	Run4	repeat/STIM_013.jpg	99
3415.687	0.948	948.3	repeat	Run4	repeat/STIM_013.jpg	99
3419.729	0.607	607.1	repeat	Run4	repeat/STIM_013.jpg	100
3422.809	0.66	659.6	repeat	Run4	repeat/STIM_013.jpg	99
3425.493	0.943	943.1	repeat	Run4	repeat/STIM_013.jpg	100
3429.214	0.867	866.8	repeat	Run4	repeat/STIM_014.jpg	100
3433.99	0.764	763.6	repeat	Run4	repeat/STIM_014.jpg	100
3437.38	0.555	555.1	repeat	Run4	repeat/STIM_014.jpg	99
3441.416	0.892	892.5	repeat	Run4	repeat/STIM_014.jpg	99
3446.023	0.891	891.1	repeat	Run4	repeat/STIM_014.jpg	99
