onset	duration	response_time_ms	trial_type	learning_stage	stimulus	response_port
0.0	1.284	1284.1	generate	Run1	generate/STIM_000.jpg	99
5.224	1.493	1492.9	generate	Run1	generate/STIM_000.jpg	100
8.842	2.512	2511.7	generate	Run1	generate/STIM_000.jpg	99
14.168	1.871	1870.6	generate	Run1	generate/STIM_000.jpg	100
18.508	2.358	2358.5	generate	Run1	generate/STIM_000.jpg	99
23.884	2.167	2167.1	generate	Run1	generate/STIM_001.jpg	100
28.611	1.242	1242.4	generate	Run1	generate/STIM_001.jpg	100
33.068	1.628	1627.8	generate	Run1	generate/STIM_001.jpg	100
38.012	1.776	1776.0	generate	Run1	generate/STIM_001.jpg	99
42.493	1.121	1121.4	generate	Run1	generate/STIM_001.jpg	100
46.105	1.507	1507.3	generate	Run1	generate/STIM_002.jpg	99
50.038	1.785	1784.6	generate	Run1	generate/STIM_002.jpg	100
55.506	2.471	2470.9	generate	Run1	generate/STIM_002.jpg	100
60.81	1.398	1398.4	generate	Run1	generate/STIM_002.jpg	100
64.387	2.288	2288.4	generate	Run1	generate/STIM_002.jpg	100
70.27	2.454	2454.0	generate	Run1	generate/STIM_003.jpg	99
76.115	1.544	1544.0	generate	Run1	generate/STIM_003.jpg	100
81.46	2.451	2451.4	generate	Run1	generate/STIM_003.jpg	99
87.532	2.273	2272.7	generate	Run1	generate/STIM_003.jpg	99
93.431	1.503	1503.0	generate	Run1	generate/STIM_003.jpg	99
97.187	1.774	1774.4	generate	Run1	generate/STIM_004.jpg	100
102.898	2.329	2329.0	generate	Run1	generate/STIM_004.jpg	100
108.724	1.18	1179.8	generate	Run1	generate/STIM_004.jpg	100
112.267	1.916	1916.4	generate	Run1	generate/STIM_004.jpg	99
116.559	1.161	1161.2	generate	Run1	generate/STIM_004.jpg	99
120.443	1.687	1686.7	generate	Run1	generate/STIM_005.jpg	99
124.827	2.768	2767.8	generate	Run1	generate/STIM_005.jpg	100
131.242	1.149	1148.7	generate	Run1	generate/STIM_005.jpg	100
135.934	2.133	2133.3	generate	Run1	generate/STIM_005.jpg	100
141.065	2.136	2136.2	generate	Run1	generate/STIM_005.jpg	100
147.182	2.588	2587.6	generate	Run1	generate/STIM_006.jpg	100
153.161	2.401	2400.6	generate	Run1	generate/STIM_006.jpg	100
158.77	2.035	2034.7	generate	Run1	generate/STIM_006.jpg	99
163.139	1.24	1239.9	generate	Run1	generate/STIM_006.jpg	100
168.387	1.655	1655.0	generate	Run1	generate/STIM_006.jpg	100
172.168	2.94	2939.7	generate	Run1	generate/STIM_007.jpg	100
178.747	2.875	2875.1	generate	Run1	generate/STIM_007.jpg	99
184.068	1.126	1125.8	generate	Run1	generate/STIM_007.jpg	99
188.531	1.377	1377.1	generate	Run1	generate/STIM_007.jpg	99
191.978	1.198	1197.8	generate	Run1	generate/STIM_007.jpg	100
196.118	2.188	2188.0	generate	Run1	generate/STIM_008.jpg	99
201.128	1.292	1292.5	generate	Run1	generate/STIM_008.jpg	100
204.524	2.431	2430.9	generate	Run1	generate/STIM_008.jpg	99
210.63	1.94	1939.5	generate	Run1	generate/STIM_008.jpg	100
216.484	1.867	1867.3	generate	Run1	generate/STIM_008.jpg	100
221.452	1.413	1413.2	generate	Run1	generate/STIM_009.jpg	100
225.863	2.522	2522.0	generate	Run1	generate/STIM_009.jpg	100
232.304	1.397	1396.9	generate	Run1	generate/STIM_009.jpg	100
237.318	1.816	1816.4	generate	Run1	generate/STIM_009.jpg	100
242.422	1.055	1055.0	generate	Run1	generate/STIM_009.jpg	99
246.919	2.527	2526.6	generate	Run1	generate/STIM_010.jpg	99
252.692	1.669	1669.2	generate	Run1	generate/STIM_010.jpg	100
257.719	1.776	1775.7	generate	Run1	generate/STIM_010.jpg	99
261.449	2.61	2609.7	generate	Run1	generate/STIM_010.jpg	100
266.025	1.325	1324.9	generate	Run1	generate/STIM_010.jpg	100
271.147	1.624	1623.8	generate	Run1	generate/STIM_011.jpg	99
275.524	1.958	1957.8	generate	Run1	generate/STIM_011.jpg	100
280.05	2.33	2329.7	generate	Run1	generate/STIM_011.jpg	100
285.765	2.253	2253.0	generate	Run1	generate/STIM_011.jpg	99
290.089	2.054	2054.5	generate	Run1	generate/STIM_011.jpg	99
294.635	2.132	2132.5	generate	Run1	generate/STIM_012.jpg	100
300.299	2.416	2415.7	generate	Run1	generate/STIM_012.jpg	99
305.7	1.973	1973.0	generate	Run1	generate/STIM_012.jpg	100
311.287	2.435	2435.2	generate	Run1	generate/STIM_012.jpg	99
315.839	2.334	2333.5	generate	Run1	generate/STIM_012.jpg	99
321.003	2.93	2929.5	generate	Run1	generate/STIM_013.jpg	100
326.002	2.647	2647.1	generate	Run1	generate/STIM_013.jpg	100
330.967	1.48	1480.0	generate	Run1	generate/STIM_013.jpg	99
335.26	2.14	2139.6	generate	Run1	generate/STIM_013.jpg	99
341.029	1.384	1384.4	generate	Run1	generate/STIM_013.jpg	99
346.214	2.368	2368.2	generate	Run1	generate/STIM_014.jpg	99
352.066	2.498	2497.9	generate	Run1	generate/STIM_014.jpg	100
356.636	1.852	1852.0	generate	Run1	generate/STIM_014.jpg	99
362.081	1.915	1915.1	generate	Run1	generate/STIM_014.jpg	99
367.222	1.557	1557.0	generate	Run1	generate/STIM_014.jpg	100
372.527	1.714	1713.6	generate	Run1	generate/STIM_015.jpg	99
376.386	1.558	1557.9	generate	Run1	generate/STIM_015.jpg	100
380.73	1.939	1939.2	generate	Run1	generate/STIM_015.jpg	100
386.543	2.201	2201.0	generate	Run1	generate/STIM_015.jpg	100
392.252	1.123	1122.7	generate	Run1	generate/STIM_015.jpg	100
396.724	1.863	1863.4	generate	Run1	generate/STIM_016.jpg	99
401.483	1.959	1959.3	generate	Run1	generate/STIM_016.jpg	100
407.306	2.231	2231.3	generate	Run1	generate/STIM_016.jpg	100
412.57	1.247	1246.7	generate	Run1	generate/STIM_016.jpg	99
417.149	1.726	1726.0	generate	Run1	generate/STIM_016.jpg	99
420.8	2.947	2947.3	generate	Run1	generate/STIM_017.jpg	99
426.999	1.37	1369.9	generate	Run1	generate/STIM_017.jpg	99
430.979	2.524	2523.5	generate	Run1	generate/STIM_017.jpg	99
436.824	2.453	2452.8	generate	Run1	generate/STIM_017.jpg	99
442.406	2.156	2156.4	generate	Run1	generate/STIM_017.jpg	100
447.063	1.564	1564.4	generate	Run1	generate/STIM_018.jpg	100
450.846	1.644	1644.0	generate	Run1	generate/STIM_018.jpg	100
455.558	2.218	2218.4	generate	Run1	generate/STIM_018.jpg	99
461.548	1.219	1218.7	generate	Run1	generate/STIM_018.jpg	99
466.082	1.359	1358.6	generate	Run1	generate/STIM_018.jpg	99
471.435	2.665	2665.2	generate	Run1	generate/STIM_019.jpg	99
476.529	1.539	1538.8	generate	Run1	generate/STIM_019.jpg	100
481.754	2.59	2589.5	generate	Run1	generate/STIM_019.jpg	99
488.279	1.061	1061.4	generate	Run1	generate/STIM_019.jpg	99
491.631	2.218	2218.5	generate	Run1	generate/STIM_019.jpg	100
497.435	2.706	2705.6	generate	Run1	generate/STIM_020.jpg	99
502.898	2.804	2803.7	generate	Run1	generate/STIM_020.jpg	99
508.701	1.955	1954.6	generate	Run1	generate/STIM_020.jpg	99
514.484	1.411	1410.9	generate	Run1	generate/STIM_020.jpg	99
518.827	1.764	1764.2	generate	Run1	generate/STIM_020.jpg	100
523.375	1.873	1873.0	generate	Run1	generate/STIM_021.jpg	99
529.218	2.645	2645.0	generate	Run1	generate/STIM_021.jpg	100
534.514	2.045	2044.8	generate	Run1	generate/STIM_021.jpg	99
539.569	1.349	1349.4	generate	Run1	generate/STIM_021.jpg	99
544.282	1.696	1696.5	generate	Run1	generate/STIM_021.jpg	99
547.895	2.978	2978.0	generate	Run1	generate/STIM_022.jpg	99
553.33	2.277	2277.2	generate	Run1	generate/STIM_022.jpg	100
557.809	2.633	2633.3	generate	Run1	generate/STIM_022.jpg	100
562.8	1.822	1822.1	generate	Run1	generate/STIM_022.jpg	99
568.259	1.383	1382.6	generate	Run1	generate/STIM_022.jpg	100
573.165	1.373	1373.4	generate	Run1	generate/STIM_023.jpg	100
577.697	2.226	2225.7	generate	Run1	generate/STIM_023.jpg	100
583.285	1.539	1539.4	generate	Run1	generate/STIM_023.jpg	100
587.306	1.285	1285.4	generate	Run1	generate/STIM_023.jpg	99
591.769	1.584	1584.2	generate	Run1	generate/STIM_023.jpg	100
596.85	3.046	3045.5	generate	Run1	generate/STIM_024.jpg	99
603.562	1.834	1833.6	generate	Run1	generate/STIM_024.jpg	100
607.878	1.681	1680.7	generate	Run1	generate/STIM_024.jpg	99
612.756	1.27	1270.3	generate	Run1	generate/STIM_024.jpg	99
615.961	1.674	1674.3	generate	Run1	generate/STIM_024.jpg	100
620.861	0.96	959.9	repeat	Run1	repeat/STIM_000.jpg	99
625.628	0.646	646.3	repeat	Run1	repeat/STIM_000.jpg	99
629.842	0.715	715.0	repeat	Run1	repeat/STIM_000.jpg	99
633.429	0.842	841.7	repeat	Run1	repeat/STIM_000.jpg	99
638.077	0.645	644.7	repeat	Run1	repeat/STIM_000.jpg	99
640.75	0.944	944.1	repeat	Run1	repeat/STIM_001.jpg	99
644.739	0.798	798.2	repeat	Run1	repeat/STIM_001.jpg	99
649.244	0.759	759.2	repeat	Run1	repeat/STIM_001.jpg	99
652.478	0.64	640.1	repeat	Run1	repeat/STIM_001.jpg	100
656.754	0.68	680.1	repeat	Run1	repeat/STIM_001.jpg	99
660.916	0.677	677.2	repeat	Run1	repeat/STIM_002.jpg	100
664.504	0.685	685.2	repeat	Run1	repeat/STIM_002.jpg	99
667.466	0.782	781.7	repeat	Run1	repeat/STIM_002.jpg	99
671.124	0.57	570.0	repeat	Run1	repeat/STIM_002.jpg	100
674.171	0.662	661.7	repeat	Run1	repeat/STIM_002.jpg	100
677.87	0.632	632.3	repeat	Run1	repeat/STIM_003.jpg	100
680.609	0.983	982.9	repeat	Run1	repeat/STIM_003.jpg	100
685.418	0.54	540.4	repeat	Run1	repeat/STIM_003.jpg	99
689.321	0.604	603.8	repeat	Run1	repeat/STIM_003.jpg	99
693.601	0.69	690.2	repeat	Run1	repeat/STIM_003.jpg	99
696.883	1.001	1000.7	repeat	Run1	repeat/STIM_004.jpg	100
701.75	0.512	512.1	repeat	Run1	repeat/STIM_004.jpg	99
705.757	0.558	557.7	repeat	Run1	repeat/STIM_004.jpg	99
709.275	0.53	529.9	repeat	Run1	repeat/STIM_004.jpg	100
713.507	0.461	460.8	repeat	Run1	repeat/STIM_004.jpg	99
717.394	0.708	708.1	repeat	Run1	repeat/STIM_005.jpg	100
720.591	1.051	1050.9	repeat	Run1	repeat/STIM_005.jpg	99
725.337	0.926	926.2	repeat	Run1	repeat/STIM_005.jpg	100
728.948	0.929	929.1	repeat	Run1	repeat/STIM_005.jpg	99
733.482	0.477	477.1	repeat	Run1	repeat/STIM_005.jpg	99
737.785	0.745	745.3	repeat	Run1	repeat/STIM_006.jpg	100
740.528	0.919	918.6	repeat	Run1	repeat/STIM_006.jpg	99
743.474	0.636	636.2	repeat	Run1	repeat/STIM_006.jpg	99
747.125	0.549	548.7	repeat	Run1	repeat/STIM_006.jpg	99
751.422	0.918	918.1	repeat	Run1	repeat/STIM_006.jpg	99
756.052	0.518	517.7	repeat	Run1	repeat/STIM_007.jpg	99
759.311	0.664	663.9	repeat	Run1	repeat/STIM_007.jpg	100
762.932	0.893	892.9	repeat	Run1	repeat/STIM_007.jpg	100
767.031	0.882	882.4	repeat	Run1	repeat/STIM_007.jpg	100
771.442	0.804	804.4	repeat	Run1	repeat/STIM_007.jpg	100
774.752	0.665	665.3	repeat	Run1	repeat/STIM_008.jpg	99
777.762	0.542	541.5	repeat	Run1	repeat/STIM_008.jpg	100
780.34	0.893	893.2	repeat	Run1	repeat/STIM_008.jpg	100
783.913	0.886	886.1	repeat	Run1	repeat/STIM_008.jpg	100
788.742	0.643	643.0	repeat	Run1	repeat/STIM_008.jpg	100
793.358	0.523	522.7	repeat	Run1	repeat/STIM_009.jpg	100
797.64	0.746	746.1	repeat	Run1	repeat/STIM_009.jpg	99
800.629	0.74	740.3	repeat	Run1	repeat/STIM_009.jpg	99
803.439	0.988	987.7	repeat	Run1	repeat/STIM_009.jpg	100
807.647	1.121	1121.1	repeat	Run1	repeat/STIM_009.jpg	100
812.282	0.679	678.6	repeat	Run1	repeat/STIM_010.jpg	100
815.947	0.941	941.1	repeat	Run1	repeat/STIM_010.jpg	100
820.019	0.642	641.7	repeat	Run1	repeat/STIM_010.jpg	99
823.858	0.918	918.5	repeat	Run1	repeat/STIM_010.jpg	99
828.128	0.859	859.3	repeat	Run1	repeat/STIM_010.jpg	100
832.847	0.738	738.3	repeat	Run1	repeat/STIM_011.jpg	99
837.448	0.68	680.5	repeat	Run1	repeat/STIM_011.jpg	100
840.612	0.838	837.7	repeat	Run1	repeat/STIM_011.jpg	99
843.94	0.92	919.9	repeat	Run1	repeat/STIM_011.jpg	100
848.805	0.634	633.6	repeat	Run1	repeat/STIM_011.jpg	100
851.626	0.672	672.1	repeat	Run1	repeat/STIM_012.jpg	99
854.813	0.962	961.7	repeat	Run1	repeat/STIM_012.jpg	99
859.341	1.144	1144.5	repeat	Run1	repeat/STIM_012.jpg	100
862.349	0.637	637.0	repeat	Run1	repeat/STIM_012.jpg	99
865.715	1.03	1029.5	repeat	Run1	repeat/STIM_012.jpg	99
868.747	0.709	709.3	repeat	Run1	repeat/STIM_013.jpg	99
872.681	0.628	627.9	repeat	Run1	repeat/STIM_013.jpg	100
876.041	0.578	578.3	repeat	Run1	repeat/STIM_013.jpg	99
878.921	0.868	868.4	repeat	Run1	repeat/STIM_013.jpg	99
882.17	0.612	611.9	repeat	Run1	repeat/STIM_013.jpg	100
884.811	0.734	734.5	repeat	Run1	repeat/STIM_014.jpg	100
887.903	1.051	1050.9	repeat	Run1	repeat/STIM_014.jpg	100
892.709	0.501	501.0	repeat	Run1	repeat/STIM_014.jpg	99
895.79	0.596	596.3	repeat	Run1	repeat/STIM_014.jpg	100
898.768	0.522	521.9	repeat	Run1	repeat/STIM_014.jpg	100
902.146	1.452	1451.8	generate	Run2	generate/STIM_000.jpg	100
906.525	1.195	1194.6	generate	Run2	generate/STIM_000.jpg	100
911.412	2.276	2276.5	generate	Run2	generate/STIM_000.jpg	99
915.994	1.529	1529.3	generate	Run2	generate/STIM_000.jpg	100
919.559	0.99	990.1	generate	Run2	generate/STIM_000.jpg	100
923.018	1.074	1073.5	generate	Run2	generate/STIM_001.jpg	99
927.546	1.041	1041.1	generate	Run2	generate/STIM_001.jpg	100
932.029	1.95	1950.5	generate	Run2	generate/STIM_001.jpg	100
937.456	1.715	1715.4	generate	Run2	generate/STIM_001.jpg	99
941.629	1.358	1358.1	generate	Run2	generate/STIM_001.jpg	100
946.356	2.025	2024.9	generate	Run2	generate/STIM_002.jpg	99
951.615	1.17	1170.4	generate	Run2	generate/STIM_002.jpg	100
955.992	1.152	1151.5	generate	Run2	generate/STIM_002.jpg	99
960.946	1.548	1547.8	generate	Run2	generate/STIM_002.jpg	99
965.431	1.692	1691.5	generate	Run2	generate/STIM_002.jpg	100
969.384	1.673	1673.1	generate	Run2	generate/STIM_003.jpg	100
973.487	1.358	1358.0	generate	Run2	generate/STIM_003.jpg	99
978.351	2.174	2174.1	generate	Run2	generate/STIM_003.jpg	100
983.376	1.18	1180.2	generate	Run2	generate/STIM_003.jpg	99
987.511	1.701	1700.9	generate	Run2	generate/STIM_003.jpg	99
992.383	2.072	2072.2	generate	Run2	generate/STIM_004.jpg	99
996.697	2.35	2350.3	generate	Run2	generate/STIM_004.jpg	99
1002.977	1.861	1861.4	generate	Run2	generate/STIM_004.jpg	100
1008.173	1.201	1200.6	generate	Run2	generate/STIM_004.jpg	99
1011.445	1.071	1071.3	generate	Run2	generate/STIM_004.jpg	99
1015.58	1.31	1309.6	generate	Run2	generate/STIM_005.jpg	99
1019.048	0.923	922.6	generate	Run2	generate/STIM_005.jpg	100
1022.991	1.872	1871.9	generate	Run2	generate/STIM_005.jpg	99
1027.166	1.16	1159.6	generate	Run2	generate/STIM_005.jpg	100
1030.641	1.141	1140.8	generate	Run2	generate/STIM_005.jpg	100
1035.715	1.173	1173.1	generate	Run2	generate/STIM_006.jpg	100
1038.969	1.798	1798.2	generate	Run2	generate/STIM_006.jpg	100
1043.994	1.891	1890.8	generate	Run2	generate/STIM_006.jpg	100
1049.164	1.203	1202.9	generate	Run2	generate/STIM_006.jpg	100
1053.015	1.633	1632.7	generate	Run2	generate/STIM_006.jpg	99
1057.378	2.15	2149.5	generate	Run2	generate/STIM_007.jpg	100
1062.836	1.711	1711.2	generate	Run2	generate/STIM_007.jpg	100
1067.455	1.766	1765.5	generate	Run2	generate/STIM_007.jpg	99
1071.246	1.185	1184.8	generate	Run2	generate/STIM_007.jpg	100
1075.538	0.896	896.3	generate	Run2	generate/STIM_007.jpg	99
1079.874	2.166	2165.9	generate	Run2	generate/STIM_008.jpg	99
1084.435	1.083	1083.4	generate	Run2	generate/STIM_008.jpg	99
1088.48	2.34	2339.8	generate	Run2	generate/STIM_008.jpg	100
1094.457	1.792	1792.4	generate	Run2	generate/STIM_008.jpg	100
1099.378	1.277	1276.9	generate	Run2	generate/STIM_008.jpg	99
1102.883	1.661	1660.7	generate	Run2	generate/STIM_009.jpg	100
1108.274	0.942	941.8	generate	Run2	generate/STIM_009.jpg	99
1111.327	2.126	2125.5	generate	Run2	generate/STIM_009.jpg	99
1117.215	1.03	1030.1	generate	Run2	generate/STIM_009.jpg	99
1120.74	1.167	1166.9	generate	Run2	generate/STIM_009.jpg	99
1124.569	2.008	2008.0	generate	Run2	generate/STIM_010.jpg	100
1129.627	2.324	2323.8	generate	Run2	generate/STIM_010.jpg	100
1135.616	1.33	1330.4	generate	Run2	generate/STIM_010.jpg	100
1139.388	1.058	1057.6	generate	Run2	generate/STIM_010.jpg	99
1143.311	1.426	1425.6	generate	Run2	generate/STIM_010.jpg	99
1147.442	2.065	2064.6	generate	Run2	generate/STIM_011.jpg	100
1152.669	1.733	1732.8	generate	Run2	generate/STIM_011.jpg	99
1156.448	1.847	1846.8	generate	Run2	generate/STIM_011.jpg	100
1160.523	2.119	2119.2	generate	Run2	generate/STIM_011.jpg	100
1164.728	0.995	994.6	generate	Run2	generate/STIM_011.jpg	100
1168.611	1.398	1398.2	generate	Run2	generate/STIM_012.jpg	99
1172.827	1.925	1925.1	generate	Run2	generate/STIM_012.jpg	99
1178.1	2.217	2216.9	generate	Run2	generate/STIM_012.jpg	99
1182.47	1.386	1386.4	generate	Run2	generate/STIM_012.jpg	100
1186.921	1.722	1722.3	generate	Run2	generate/STIM_012.jpg	99
1191.938	1.655	1655.0	generate	Run2	generate/STIM_013.jpg	100
1196.672	1.879	1879.4	generate	Run2	generate/STIM_013.jpg	99
1202.487	1.095	1094.9	generate	Run2	generate/STIM_013.jpg	99
1205.924	2.008	2008.2	generate	Run2	generate/STIM_013.jpg	100
1210.515	2.027	2026.9	generate	Run2	generate/STIM_013.jpg	99
1215.164	1.878	1877.7	generate	Run2	generate/STIM_014.jpg	100
1219.069	1.783	1783.2	generate	Run2	generate/STIM_014.jpg	99
1224.852	2.099	2098.6	generate	Run2	generate/STIM_014.jpg	99
1229.076	1.71	1710.0	generate	Run2	generate/STIM_014.jpg	99
1234.661	1.405	1405.4	generate	Run2	generate/STIM_014.jpg	100
1238.902	1.855	1855.4	generate	Run2	generate/STIM_015.jpg	99
1243.71	2.031	2031.2	generate	Run2	generate/STIM_015.jpg	100
1248.568	2.152	2152.0	generate	Run2	generate/STIM_015.jpg	99
1253.197	0.806	806.2	generate	Run2	generate/STIM_015.jpg	100
1257.734	1.383	1382.9	generate	Run2	generate/STIM_015.jpg	99
1262.139	1.78	1779.9	generate	Run2	generate/STIM_016.jpg	99
1266.447	2.369	2369.0	generate	Run2	generate/STIM_016.jpg	99
1271.802	2.008	2008.1	generate	Run2	generate/STIM_016.jpg	100
1276.633	1.924	1924.1	generate	Run2	generate/STIM_016.jpg	100
1280.693	2.011	2010.7	generate	Run2	generate/STIM_016.jpg	99
1285.876	2.158	2157.7	generate	Run2	generate/STIM_017.jpg	99
1291.451	2.416	2415.7	generate	Run2	generate/STIM_017.jpg	99
1297.527	1.181	1180.6	generate	Run2	generate/STIM_017.jpg	100
1302.623	1.218	1217.8	generate	Run2	generate/STIM_017.jpg	100
1307.305	1.672	1671.9	generate	Run2	generate/STIM_017.jpg	100
1311.744	1.338	1338.2	generate	Run2	generate/STIM_018.jpg	100
1316.3	2.322	2322.3	generate	Run2	generate/STIM_018.jpg	100
1321.08	0.908	907.8	generate	Run2	generate/STIM_018.jpg	100
1324.335	2.093	2092.8	generate	Run2	generate/STIM_018.jpg	100
1330.305	1.183	1183.2	generate	Run2	generate/STIM_018.jpg	99
1335.027	1.019	1019.3	generate	Run2	generate/STIM_019.jpg	100
1338.949	1.208	1207.7	generate	Run2	generate/STIM_019.jpg	100
1343.728	2.182	2182.0	generate	Run2	generate/STIM_019.jpg	100
1349.686	1.872	1872.5	generate	Run2	generate/STIM_019.jpg	99
1354.563	1.423	1423.2	generate	Run2	generate/STIM_019.jpg	99
1358.327	2.414	2413.6	generate	Run2	generate/STIM_020.jpg	100
1363.621	1.428	1428.5	generate	Run2	generate/STIM_020.jpg	100
1368.92	1.394	1394.2	generate	Run2	generate/STIM_020.jpg	100
1372.421	1.739	1739.4	generate	Run2	generate/STIM_020.jpg	100
1376.986	1.185	1184.6	generate	Run2	generate/STIM_020.jpg	100
1380.206	2.077	2077.1	generate	Run2	generate/STIM_021.jpg	100
1384.875	2.088	2087.8	generate	Run2	generate/STIM_021.jpg	99
1389.947	1.107	1106.6	generate	Run2	generate/STIM_021.jpg	100
1394.691	1.236	1235.7	generate	Run2	generate/STIM_021.jpg	100
1399.675	1.351	1351.0	generate	Run2	generate/STIM_021.jpg	100
1404.422	2.185	2185.1	generate	Run2	generate/STIM_022.jpg	99
1409.547	1.725	1725.3	generate	Run2	generate/STIM_022.jpg	99
1414.32	1.46	1460.3	generate	Run2	generate/STIM_022.jpg	99
1418.626	1.657	1656.7	generate	Run2	generate/STIM_022.jpg	99
1423.162	1.605	1604.6	generate	Run2	generate/STIM_022.jpg	100
1428.579	2.456	2455.7	generate	Run2	generate/STIM_023.jpg	99
1434.919	2.171	2171.1	generate	Run2	generate/STIM_023.jpg	100
1439.119	1.605	1605.2	generate	Run2	generate/STIM_023.jpg	100
1443.535	2.126	2125.8	generate	Run2	generate/STIM_023.jpg	99
1447.724	1.017	1017.2	generate	Run2	generate/STIM_023.jpg	99
1451.374	1.711	1711.0	generate	Run2	generate/STIM_024.jpg	100
1456.324	1.363	1363.0	generate	Run2	generate/STIM_024.jpg	99
1460.724	1.938	1937.9	generate	Run2	generate/STIM_024.jpg	99
1464.598	1.418	1417.7	generate	Run2	generate/STIM_024.jpg	99
1468.671	1.032	1031.5	generate	Run2	generate/STIM_024.jpg	100
1473.355	0.763	762.7	repeat	Run2	repeat/STIM_000.jpg	100
1477.668	1.016	1016.5	repeat	Run2	repeat/STIM_000.jpg	99
1482.266	0.7	699.6	repeat	Run2	repeat/STIM_000.jpg	99
1485.137	0.992	992.0	repeat	Run2	repeat/STIM_000.jpg	100
1489.941	0.64	640.1	repeat	Run2	repeat/STIM_000.jpg	99
1493.363	0.785	785.3	repeat	Run2	repeat/STIM_001.jpg	99
1497.717	0.721	720.7	repeat	Run2	repeat/STIM_001.jpg	99
1501.579	0.888	887.6	repeat	Run2	repeat/STIM_001.jpg	99
1506.398	0.91	910.4	repeat	Run2	repeat/STIM_001.jpg	100
1509.741	0.822	821.7	repeat	Run2	repeat/STIM_001.jpg	100
1513.365	0.998	997.9	repeat	Run2	repeat/STIM_002.jpg	99
1517.001	0.891	890.8	repeat	Run2	repeat/STIM_002.jpg	99
1521.51	0.801	801.0	repeat	Run2	repeat/STIM_002.jpg	99
1524.465	0.959	958.6	repeat	Run2	repeat/STIM_002.jpg	100
1527.969	0.742	741.7	repeat	Run2	repeat/STIM_002.jpg	99
1532.289	0.867	866.9	repeat	Run2	repeat/STIM_003.jpg	100
1536.954	0.616	616.5	repeat	Run2	repeat/STIM_003.jpg	100
1540.803	0.541	540.8	repeat	Run2	repeat/STIM_003.jpg	99
1543.597	0.517	517.4	repeat	Run2	repeat/STIM_003.jpg	99
1547.288	0.459	459.3	repeat	Run2	repeat/STIM_003.jpg	100
1550.407	1.034	1034.5	repeat	Run2	repeat/STIM_004.jpg	100
1554.269	0.819	819.3	repeat	Run2	repeat/STIM_004.jpg	100
1558.017	0.507	507.4	repeat	Run2	repeat/STIM_004.jpg	99
1560.59	0.912	911.8	repeat	Run2	repeat/STIM_004.jpg	99
1564.068	0.652	652.4	repeat	Run2	repeat/STIM_004.jpg	100
1567.929	0.677	676.7	repeat	Run2	repeat/STIM_005.jpg	100
1570.995	0.603	602.7	repeat	Run2	repeat/STIM_005.jpg	100
1574.977	0.832	832.4	repeat	Run2	repeat/STIM_005.jpg	100
1578.799	0.819	818.8	repeat	Run2	repeat/STIM_005.jpg	99
1582.446	0.715	714.7	repeat	Run2	repeat/STIM_005.jpg	99
1586.899	0.563	562.9	repeat	Run2	repeat/STIM_006.jpg	100
1590.607	0.635	635.1	repeat	Run2	repeat/STIM_006.jpg	99
1593.412	0.676	676.5	repeat	Run2	repeat/STIM_006.jpg	100
1597.429	0.93	929.5	repeat	Run2	repeat/STIM_006.jpg	100
1600.402	0.67	669.6	repeat	Run2	repeat/STIM_006.jpg	99
1603.41	0.533	532.9	repeat	Run2	repeat/STIM_007.jpg	99
1606.07	0.76	760.4	repeat	Run2	repeat/STIM_007.jpg	99
1609.056	0.866	865.6	repeat	Run2	repeat/STIM_007.jpg	100
1612.138	0.905	904.6	repeat	Run2	repeat/STIM_007.jpg	100
1615.982	1.009	1009.3	repeat	Run2	repeat/STIM_007.jpg	100
1619.073	0.831	831.4	repeat	Run2	repeat/STIM_008.jpg	99
1623.057	0.496	495.9	repeat	Run2	repeat/STIM_008.jpg	99
1627.072	0.862	861.6	repeat	Run2	repeat/STIM_008.jpg	100
1630.331	0.841	840.9	repeat	Run2	repeat/STIM_008.jpg	99
1634.305	0.749	748.6	repeat	Run2	repeat/STIM_008.jpg	99
1638.727	0.562	562.4	repeat	Run2	repeat/STIM_009.jpg	99
1641.931	1.042	1041.5	repeat	Run2	repeat/STIM_009.jpg	99
1646.18	0.666	665.7	repeat	Run2	repeat/STIM_009.jpg	99
1649.765	0.47	470.3	repeat	Run2	repeat/STIM_009.jpg	100
1653.395	0.913	912.9	repeat	Run2	repeat/STIM_009.jpg	99
1658.032	0.835	834.7	repeat	Run2	repeat/STIM_010.jpg	99
1662.03	0.802	802.5	repeat	Run2	repeat/STIM_010.jpg	100
1666.351	0.917	916.8	repeat	Run2	repeat/STIM_010.jpg	99
1669.867	0.532	532.1	repeat	Run2	repeat/STIM_010.jpg	100
1674.062	0.606	605.8	repeat	Run2	repeat/STIM_010.jpg	100
1677.646	0.611	611.3	repeat	Run2	repeat/STIM_011.jpg	100
1680.458	0.607	607.4	repeat	Run2	repeat/STIM_011.jpg	99
1683.629	0.754	754.5	repeat	Run2	repeat/STIM_011.jpg	99
1686.997	0.948	948.1	repeat	Run2	repeat/STIM_011.jpg	100
1690.156	0.565	564.8	repeat	Run2	repeat/STIM_011.jpg	100
1692.859	0.668	667.5	repeat	Run2	repeat/STIM_012.jpg	100
1696.067	0.725	724.9	repeat	Run2	repeat/STIM_012.jpg	100
1700.533	0.84	840.3	repeat	Run2	repeat/STIM_012.jpg	100
1703.763	0.602	602.1	repeat	Run2	repeat/STIM_012.jpg	100
1708.208	0.61	610.3	repeat	Run2	repeat/STIM_012.jpg	100
1711.375	0.633	633.0	repeat	Run2	repeat/STIM_013.jpg	100
1715.594	0.541	540.8	repeat	Run2	repeat/STIM_013.jpg	99
1719.59	0.886	886.5	repeat	Run2	repeat/STIM_013.jpg	99
1723.948	0.696	696.0	repeat	Run2	repeat/STIM_013.jpg	100
1727.78	0.896	896.1	repeat	Run2	repeat/STIM_013.jpg	100
1732.583	0.657	657.2	repeat	Run2	repeat/STIM_014.jpg	99
1735.728	0.772	771.8	repeat	Run2	repeat/STIM_014.jpg	100
1739.696	0.705	705.2	repeat	Run2	repeat/STIM_014.jpg	100
1742.628	0.879	879.3	repeat	Run2	repeat/STIM_014.jpg	99
1746.672	0.737	736.6	repeat	Run2	repeat/STIM_014.jpg	99
1751.315	1.694	1694.1	generate	Run3	generate/STIM_000.jpg	100
1755.219	1.125	1125.0	generate	Run3	generate/STIM_000.jpg	100
1758.956	1.996	1996.4	generate	Run3	generate/STIM_000.jpg	100
1763.187	1.996	1995.9	generate	Run3	generate/STIM_000.jpg	99
1768.437	1.078	1078.1	generate	Run3	generate/STIM_000.jpg	100
1773.138	2.023	2022.7	generate	Run3	generate/STIM_001.jpg	99
1778.466	2.019	2019.1	generate	Run3	generate/STIM_001.jpg	100
1782.465	1.591	1590.8	generate	Run3	generate/STIM_001.jpg	99
1786.831	1.035	1035.4	generate	Run3	generate/STIM_001.jpg	100
1789.965	1.236	1235.8	generate	Run3	generate/STIM_001.jpg	99
1793.612	1.845	1844.8	generate	Run3	generate/STIM_002.jpg	100
1798.106	2.131	2130.8	generate	Run3	generate/STIM_002.jpg	100
1802.199	0.828	827.7	generate	Run3	generate/STIM_002.jpg	100
1806.757	2.044	2044.2	generate	Run3	generate/STIM_002.jpg	99
1812.718	2.076	2076.1	generate	Run3	generate/STIM_002.jpg	100
1818.633	2.043	2042.6	generate	Run3	generate/STIM_003.jpg	99
1822.881	0.79	790.2	generate	Run3	generate/STIM_003.jpg	99
1827.319	1.328	1328.3	generate	Run3	generate/STIM_003.jpg	99
1832.004	2.009	2009.4	generate	Run3	generate/STIM_003.jpg	99
1836.685	1.467	1467.4	generate	Run3	generate/STIM_003.jpg	99
1840.752	1.336	1336.5	generate	Run3	generate/STIM_004.jpg	100
1844.892	1.516	1515.7	generate	Run3	generate/STIM_004.jpg	99
1849.654	1.865	1864.6	generate	Run3	generate/STIM_004.jpg	99
1853.687	1.853	1852.6	generate	Run3	generate/STIM_004.jpg	100
1857.839	1.301	1300.8	generate	Run3	generate/STIM_004.jpg	99
1861.828	1.31	1309.9	generate	Run3	generate/STIM_005.jpg	99
1866.067	1.033	1033.2	generate	Run3	generate/STIM_005.jpg	99
1870.606	2.071	2070.9	generate	Run3	generate/STIM_005.jpg	100
1876.536	1.618	1618.2	generate	Run3	generate/STIM_005.jpg	100
1881.641	0.99	990.5	generate	Run3	generate/STIM_005.jpg	100
1885.434	1.683	1682.8	generate	Run3	generate/STIM_006.jpg	99
1889.816	1.119	1119.0	generate	Run3	generate/STIM_006.jpg	99
1893.964	1.48	1479.6	generate	Run3	generate/STIM_006.jpg	100
1898.603	1.59	1589.7	generate	Run3	generate/STIM_006.jpg	100
1903.184	2.101	2101.3	generate	Run3	generate/STIM_006.jpg	100
1909.025	1.916	1915.8	generate	Run3	generate/STIM_007.jpg	100
1913.653	1.113	1112.9	generate	Run3	generate/STIM_007.jpg	100
1918.742	2.065	2065.4	generate	Run3	generate/STIM_007.jpg	99
1924.7	1.479	1479.2	generate	Run3	generate/STIM_007.jpg	100
1928.82	1.018	1017.5	generate	Run3	generate/STIM_007.jpg	100
1931.945	2.068	2068.5	generate	Run3	generate/STIM_008.jpg	100
1936.721	1.824	1823.6	generate	Run3	generate/STIM_008.jpg	99
1941.993	1.314	1313.7	generate	Run3	generate/STIM_008.jpg	99
1946.919	0.893	892.7	generate	Run3	generate/STIM_008.jpg	100
1950.508	1.402	1402.5	generate	Run3	generate/STIM_008.jpg	99
1954.019	1.398	1398.2	generate	Run3	generate/STIM_009.jpg	99
1958.946	1.977	1976.7	generate	Run3	generate/STIM_009.jpg	100
1964.379	1.241	1240.7	generate	Run3	generate/STIM_009.jpg	100
1968.849	1.306	1306.0	generate	Run3	generate/STIM_009.jpg	99
1972.666	2.018	2017.9	generate	Run3	generate/STIM_009.jpg	100
1977.111	1.574	1573.9	generate	Run3	generate/STIM_010.jpg	99
1982.611	1.419	1419.4	generate	Run3	generate/STIM_010.jpg	99
1987.883	2.187	2186.7	generate	Run3	generate/STIM_010.jpg	100
1992.736	1.692	1692.1	generate	Run3	generate/STIM_010.jpg	100
1996.743	2.005	2004.8	generate	Run3	generate/STIM_010.jpg	99
2001.26	1.604	1604.3	generate	Run3	generate/STIM_011.jpg	100
2005.842	1.949	1949.0	generate	Run3	generate/STIM_011.jpg	99
2011.44	1.289	1288.6	generate	Run3	generate/STIM_011.jpg	100
2016.109	1.17	1170.3	generate	Run3	generate/STIM_011.jpg	99
2020.821	1.129	1129.0	generate	Run3	generate/STIM_011.jpg	99
2025.372	1.582	1582.3	generate	Run3	generate/STIM_012.jpg	99
2029.686	1.054	1054.0	generate	Run3	generate/STIM_012.jpg	99
2032.919	0.95	949.5	generate	Run3	generate/STIM_012.jpg	100
2035.962	1.21	1210.0	generate	Run3	generate/STIM_012.jpg	99
2040.127	1.91	1910.3	generate	Run3	generate/STIM_012.jpg	99
2045.633	0.907	906.7	generate	Run3	generate/STIM_013.jpg	99
2050.23	0.864	864.4	generate	Run3	generate/STIM_013.jpg	99
2053.742	1.685	1684.7	generate	Run3	generate/STIM_013.jpg	99
2057.841	1.464	1464.4	generate	Run3	generate/STIM_013.jpg	100
2062.478	1.227	1227.3	generate	Run3	generate/STIM_013.jpg	99
2067.399	1.992	1992.4	generate	Run3	generate/STIM_014.jpg	100
2071.531	1.826	1826.4	generate	Run3	generate/STIM_014.jpg	99
2076.152	1.31	1309.6	generate	Run3	generate/STIM_014.jpg	100
2080.939	1.306	1305.5	generate	Run3	generate/STIM_014.jpg	99
2086.197	1.641	1640.6	generate	Run3	generate/STIM_014.jpg	99
2091.759	0.805	805.4	generate	Run3	generate/STIM_015.jpg	100
2095.827	1.905	1905.1	generate	Run3	generate/STIM_015.jpg	99
2100.677	1.138	1137.6	generate	Run3	generate/STIM_015.jpg	99
2103.927	1.14	1139.6	generate	Run3	generate/STIM_015.jpg	99
2108.174	1.378	1377.7	generate	Run3	generate/STIM_015.jpg	100
2112.963	1.081	1081.2	generate	Run3	generate/STIM_016.jpg	99
2116.511	1.337	1337.4	generate	Run3	generate/STIM_016.jpg	100
2121.667	2.025	2024.9	generate	Run3	generate/STIM_016.jpg	100
2127.012	1.219	1219.1	generate	Run3	generate/STIM_016.jpg	100
2131.583	1.169	1168.6	generate	Run3	generate/STIM_016.jpg	100
2136.349	1.221	1220.7	generate	Run3	generate/STIM_017.jpg	100
2139.706	1.42	1420.3	generate	Run3	generate/STIM_017.jpg	99
2143.903	1.288	1287.8	generate	Run3	generate/STIM_017.jpg	100
2148.296	1.194	1194.2	generate	Run3	generate/STIM_017.jpg	99
2151.878	1.283	1282.9	generate	Run3	generate/STIM_017.jpg	99
2155.201	1.022	1022.2	generate	Run3	generate/STIM_018.jpg	100
2159.811	1.252	1251.9	generate	Run3	generate/STIM_018.jpg	99
2163.425	1.581	1580.9	generate	Run3	generate/STIM_018.jpg	100
2168.673	1.317	1317.1	generate	Run3	generate/STIM_018.jpg	100
2173.46	1.09	1089.8	generate	Run3	generate/STIM_018.jpg	100
2176.616	1.087	1087.1	generate	Run3	generate/STIM_019.jpg	99
2181.133	1.413	1413.1	generate	Run3	generate/STIM_019.jpg	99
2185.476	0.869	868.6	generate	Run3	generate/STIM_019.jpg	99
2189.079	1.234	1233.5	generate	Run3	generate/STIM_019.jpg	99
2192.886	1.42	1420.0	generate	Run3	generate/STIM_019.jpg	100
2197.55	1.965	1965.3	generate	Run3	generate/STIM_020.jpg	99
2201.705	1.551	1550.7	generate	Run3	generate/STIM_020.jpg	99
2205.362	1.812	1812.0	generate	Run3	generate/STIM_020.jpg	99
2210.446	1.475	1474.7	generate	Run3	generate/STIM_020.jpg	99
2214.021	0.897	897.2	generate	Run3	generate/STIM_020.jpg	99
2217.054	1.645	1645.2	generate	Run3	generate/STIM_021.jpg	99
2222.212	1.854	1853.9	generate	Run3	generate/STIM_021.jpg	100
2227.815	1.928	1927.8	generate	Run3	generate/STIM_021.jpg	99
2232.36	1.821	1821.0	generate	Run3	generate/STIM_021.jpg	100
2236.284	0.956	956.3	generate	Run3	generate/STIM_021.jpg	99
2240.794	1.312	1312.1	generate	Run3	generate/STIM_022.jpg	99
2245.912	0.884	883.7	generate	Run3	generate/STIM_022.jpg	100
2249.3	0.939	939.0	generate	Run3	generate/STIM_022.jpg	100
2254.167	1.57	1569.8	generate	Run3	generate/STIM_022.jpg	99
2258.232	1.643	1643.3	generate	Run3	generate/STIM_022.jpg	99
2262.041	1.245	1244.6	generate	Run3	generate/STIM_023.jpg	99
2266.505	1.543	1543.3	generate	Run3	generate/STIM_023.jpg	100
2271.764	1.345	1345.0	generate	Run3	generate/STIM_023.jpg	99
2276.836	0.978	977.7	generate	Run3	generate/STIM_023.jpg	99
2280.179	1.642	1642.3	generate	Run3	generate/STIM_023.jpg	100
2284.267	0.928	928.2	generate	Run3	generate/STIM_024.jpg	99
2287.883	1.144	1143.5	generate	Run3	generate/STIM_024.jpg	100
2291.906	1.521	1520.7	generate	Run3	generate/STIM_024.jpg	99
2297.256	1.108	1107.9	generate	Run3	generate/STIM_024.jpg	99
2300.714	1.53	1530.2	generate	Run3	generate/STIM_024.jpg	100
2305.689	0.655	655.4	repeat	Run3	repeat/STIM_000.jpg	99
2310.294	0.718	718.1	repeat	Run3	repeat/STIM_000.jpg	99
2314.248	1.076	1075.6	repeat	Run3	repeat/STIM_000.jpg	99
2319.118	0.635	634.9	repeat	Run3	repeat/STIM_000.jpg	100
2323.683	0.477	476.8	repeat	Run3	repeat/STIM_000.jpg	100
2327.741	0.466	466.2	repeat	Run3	repeat/STIM_001.jpg	100
2331.149	1.02	1019.6	repeat	Run3	repeat/STIM_001.jpg	99
2334.94	0.54	540.1	repeat	Run3	repeat/STIM_001.jpg	100
2337.718	0.725	725.4	repeat	Run3	repeat/STIM_001.jpg	100
2342.228	0.561	560.6	repeat	Run3	repeat/STIM_001.jpg	100
2345.129	0.807	806.9	repeat	Run3	repeat/STIM_002.jpg	100
2348.659	0.569	568.6	repeat	Run3	repeat/STIM_002.jpg	99
2353.184	0.661	660.8	repeat	Run3	repeat/STIM_002.jpg	99
2356.613	0.737	737.4	repeat	Run3	repeat/STIM_002.jpg	100
2360.265	0.871	870.6	repeat	Run3	repeat/STIM_002.jpg	100
2363.802	0.575	574.8	repeat	Run3	repeat/STIM_003.jpg	100
2366.489	0.954	954.1	repeat	Run3	repeat/STIM_003.jpg	99
2371.431	0.929	929.2	repeat	Run3	repeat/STIM_003.jpg	99
2374.563	0.975	974.8	repeat	Run3	repeat/STIM_003.jpg	100
2378.473	0.829	828.9	repeat	Run3	repeat/STIM_003.jpg	99
2382.19	0.804	803.8	repeat	Run3	repeat/STIM_004.jpg	100
2386.34	0.923	923.4	repeat	Run3	repeat/STIM_004.jpg	100
2390.31	0.804	804.3	repeat	Run3	repeat/STIM_004.jpg	99
2394.957	0.85	849.9	repeat	Run3	repeat/STIM_004.jpg	100
2399.218	0.787	786.8	repeat	Run3	repeat/STIM_004.jpg	100
2402.533	0.934	933.8	repeat	Run3	repeat/STIM_005.jpg	100
2405.961	0.861	860.7	repeat	Run3	repeat/STIM_005.jpg	100
2409.698	1.05	1049.5	repeat	Run3	repeat/STIM_005.jpg	99
2413.17	0.9	899.5	repeat	Run3	repeat/STIM_005.jpg	100
2416.315	0.86	860.0	repeat	Run3	repeat/STIM_005.jpg	100
2420.012	0.701	701.3	repeat	Run3	repeat/STIM_006.jpg	100
2423.415	0.805	804.8	repeat	Run3	repeat/STIM_006.jpg	99
2426.383	0.84	840.0	repeat	Run3	repeat/STIM_006.jpg	100
2430.82	0.709	709.4	repeat	Run3	repeat/STIM_006.jpg	100
2433.867	0.883	883.0	repeat	Run3	repeat/STIM_006.jpg	100
2438.71	0.681	680.9	repeat	Run3	repeat/STIM_007.jpg	100
2441.531	0.898	897.9	repeat	Run3	repeat/STIM_007.jpg	100
2446.135	0.895	894.8	repeat	Run3	repeat/STIM_007.jpg	100
2449.386	1.083	1083.3	repeat	Run3	repeat/STIM_007.jpg	100
2452.974	0.831	831.0	repeat	Run3	repeat/STIM_007.jpg	99
2456.141	0.939	938.9	repeat	Run3	repeat/STIM_008.jpg	100
2459.387	0.785	784.7	repeat	Run3	repeat/STIM_008.jpg	100
2464.087	0.923	922.8	repeat	Run3	repeat/STIM_008.jpg	100
2468.011	0.666	666.3	repeat	Run3	repeat/STIM_008.jpg	100
2472.123	0.957	957.0	repeat	Run3	repeat/STIM_008.jpg	99
2475.509	0.767	766.6	repeat	Run3	repeat/STIM_009.jpg	99
2478.642	0.864	864.1	repeat	Run3	repeat/STIM_009.jpg	99
2483.368	0.716	715.7	repeat	Run3	repeat/STIM_009.jpg	99
2488.006	0.85	850.5	repeat	Run3	repeat/STIM_009.jpg	99
2492.766	0.992	991.5	repeat	Run3	repeat/STIM_009.jpg	99
2497.186	0.535	534.6	repeat	Run3	repeat/STIM_010.jpg	99
2500.784	0.664	664.0	repeat	Run3	repeat/STIM_010.jpg	99
2504.803	0.941	941.3	repeat	Run3	repeat/STIM_010.jpg	100
2508.429	0.76	760.2	repeat	Run3	repeat/STIM_010.jpg	100
2512.132	0.495	495.1	repeat	Run3	repeat/STIM_010.jpg	99
2515.133	0.935	934.9	repeat	Run3	repeat/STIM_011.jpg	99
2520.05	0.691	690.8	repeat	Run3	repeat/STIM_011.jpg	100
2523.109	0.677	677.1	repeat	Run3	repeat/STIM_011.jpg	100
2526.274	0.886	885.7	repeat	Run3	repeat/STIM_011.jpg	100
2529.944	0.946	945.9	repeat	Run3	repeat/STIM_011.jpg	100
2533.847	0.95	949.9	repeat	Run3	repeat/STIM_012.jpg	100
2537.24	0.762	762.3	repeat	Run3	repeat/STIM_012.jpg	100
2541.505	0.79	790.5	repeat	Run3	repeat/STIM_012.jpg	99
2544.744	0.581	581.4	repeat	Run3	repeat/STIM_012.jpg	99
2548.433	0.822	821.6	repeat	Run3	repeat/STIM_012.jpg	100
2551.355	0.782	782.4	repeat	Run3	repeat/STIM_013.jpg	99
2554.675	0.839	838.8	repeat	Run3	repeat/STIM_013.jpg	99
2559.298	0.646	646.5	repeat	Run3	repeat/STIM_013.jpg	99
2562.135	0.742	742.2	repeat	Run3	repeat/STIM_013.jpg	99
2565.146	0.573	573.1	repeat	Run3	repeat/STIM_013.jpg	99
2567.745	0.533	532.9	repeat	Run3	repeat/STIM_014.jpg	99
2571.155	1.032	1032.4	repeat	Run3	repeat/STIM_014.jpg	100
2575.333	0.545	545.0	repeat	Run3	repeat/STIM_014.jpg	99
2579.461	0.88	880.2	repeat	Run3	repeat/STIM_014.jpg	99
2583.834	0.59	589.5	repeat	Run3	repeat/STIM_014.jpg	100
2588.382	1.42	1420.4	generate	Run4	generate/STIM_000.jpg	100
2592.149	1.835	1834.8	generate	Run4	generate/STIM_000.jpg	99
2596.073	0.98	979.7	generate	Run4	generate/STIM_000.jpg	99
2599.246	1.635	1634.7	generate	Run4	generate/STIM_000.jpg	99
2604.177	2.087	2086.9	generate	Run4	generate/STIM_000.jpg	99
2609.018	1.663	1662.6	generate	Run4	generate/STIM_001.jpg	99
2614.098	1.232	1231.9	generate	Run4	generate/STIM_001.jpg	99
2618.687	2.048	2047.7	generate	Run4	generate/STIM_001.jpg	99
2624.265	1.308	1307.6	generate	Run4	generate/STIM_001.jpg	99
2628.314	2.074	2074.0	generate	Run4	generate/STIM_001.jpg	99
2634.276	1.448	1448.5	generate	Run4	generate/STIM_002.jpg	99
2639.208	1.289	1288.9	generate	Run4	generate/STIM_002.jpg	100
2644.286	0.914	914.0	generate	Run4	generate/STIM_002.jpg	100
2647.901	2.087	2086.6	generate	Run4	generate/STIM_002.jpg	100
2653.298	1.032	1032.3	generate	Run4	generate/STIM_002.jpg	100
2656.824	1.237	1236.9	generate	Run4	generate/STIM_003.jpg	99
2661.366	1.304	1303.6	generate	Run4	generate/STIM_003.jpg	99
2664.865	1.439	1438.6	generate	Run4	generate/STIM_003.jpg	99
2669.867	1.697	1697.2	generate	Run4	generate/STIM_003.jpg	100
2675.068	1.05	1049.7	generate	Run4	generate/STIM_003.jpg	100
2679.583	2.028	2028.2	generate	Run4	generate/STIM_004.jpg	99
2683.989	0.937	936.6	generate	Run4	generate/STIM_004.jpg	99
2688.165	1.456	1456.0	generate	Run4	generate/STIM_004.jpg	99
2691.813	1.13	1129.6	generate	Run4	generate/STIM_004.jpg	99
2695.016	1.8	1799.5	generate	Run4	generate/STIM_004.jpg	99
2700.63	1.056	1055.5	generate	Run4	generate/STIM_005.jpg	99
2703.984	1.473	1473.2	generate	Run4	generate/STIM_005.jpg	100
2709.192	1.853	1852.9	generate	Run4	generate/STIM_005.jpg	99
2713.793	0.941	941.3	generate	Run4	generate/STIM_005.jpg	100
2718.004	1.961	1961.2	generate	Run4	generate/STIM_005.jpg	99
2722.604	2.152	2152.3	generate	Run4	generate/STIM_006.jpg	99
2728.28	1.664	1663.5	generate	Run4	generate/STIM_006.jpg	100
2732.757	1.812	1812.1	generate	Run4	generate/STIM_006.jpg	99
2736.469	1.527	1526.9	generate	Run4	generate/STIM_006.jpg	100
2740.941	0.892	891.9	generate	Run4	generate/STIM_006.jpg	99
2744.075	1.181	1181.4	generate	Run4	generate/STIM_007.jpg	100
2748.048	0.977	976.7	generate	Run4	generate/STIM_007.jpg	100
2752.235	1.45	1449.9	generate	Run4	generate/STIM_007.jpg	100
2756.005	1.809	1808.6	generate	Run4	generate/STIM_007.jpg	100
2760.807	1.972	1972.5	generate	Run4	generate/STIM_007.jpg	100
2765.265	0.918	918.5	generate	Run4	generate/STIM_008.jpg	100
2768.648	1.424	1423.8	generate	Run4	generate/STIM_008.jpg	100
2773.23	1.387	1386.6	generate	Run4	generate/STIM_008.jpg	99
2776.742	1.493	1492.9	generate	Run4	generate/STIM_008.jpg	99
2782.147	1.684	1683.7	generate	Run4	generate/STIM_008.jpg	100
2787.361	1.716	1715.9	generate	Run4	generate/STIM_009.jpg	100
2791.202	1.181	1181.1	generate	Run4	generate/STIM_009.jpg	100
2795.576	1.214	1213.5	generate	Run4	generate/STIM_009.jpg	100
2800.614	2.126	2125.6	generate	Run4	generate/STIM_009.jpg	99
2805.945	2.087	2087.2	generate	Run4	generate/STIM_009.jpg	99
2811.388	2.141	2140.7	generate	Run4	generate/STIM_010.jpg	100
2817.013	1.413	1413.4	generate	Run4	generate/STIM_010.jpg	99
2821.207	1.632	1632.1	generate	Run4	generate/STIM_010.jpg	100
2825.787	1.12	1119.7	generate	Run4	generate/STIM_010.jpg	100
2830.026	1.157	1156.6	generate	Run4	generate/STIM_010.jpg	99
2835.115	1.112	1112.0	generate	Run4	generate/STIM_011.jpg	99
2840.199	1.095	1094.8	generate	Run4	generate/STIM_011.jpg	100
2845.135	1.138	1138.5	generate	Run4	generate/STIM_011.jpg	99
2848.967	1.952	1951.8	generate	Run4	generate/STIM_011.jpg	100
2854.04	0.99	989.9	generate	Run4	generate/STIM_011.jpg	100
2857.946	1.275	1274.9	generate	Run4	generate/STIM_012.jpg	100
2861.512	2.026	2025.7	generate	Run4	generate/STIM_012.jpg	99
2866.558	1.485	1485.0	generate	Run4	generate/STIM_012.jpg	99
2871.723	1.609	1609.4	generate	Run4	generate/STIM_012.jpg	99
2876.065	1.947	1947.0	generate	Run4	generate/STIM_012.jpg	99
2880.278	1.268	1268.1	generate	Run4	generate/STIM_013.jpg	100
2884.511	1.293	1292.7	generate	Run4	generate/STIM_013.jpg	100
2888.06	1.395	1395.1	generate	Run4	generate/STIM_013.jpg	100
2891.737	1.783	1782.7	generate	Run4	generate/STIM_013.jpg	100
2895.813	1.606	1606.5	generate	Run4	generate/STIM_013.jpg	99
2900.344	1.752	1752.3	generate	Run4	generate/STIM_014.jpg	99
2906.03	1.645	1645.3	generate	Run4	generate/STIM_014.jpg	99
2910.487	1.106	1106.2	generate	Run4	generate/STIM_014.jpg	100
2915.346	2.022	2022.4	generate	Run4	generate/STIM_014.jpg	100
2919.468	1.586	1586.5	generate	Run4	generate/STIM_014.jpg	99
2923.369	1.993	1993.3	generate	Run4	generate/STIM_015.jpg	99
2928.777	1.45	1449.8	generate	Run4	generate/STIM_015.jpg	100
2933.473	1.969	1969.3	generate	Run4	generate/STIM_015.jpg	99
2937.585	1.002	1002.0	generate	Run4	generate/STIM_015.jpg	99
2941.751	2.001	2001.2	generate	Run4	generate/STIM_015.jpg	100
2946.682	1.721	1720.8	generate	Run4	generate/STIM_016.jpg	99
2951.618	0.851	850.7	generate	Run4	generate/STIM_016.jpg	100
2954.683	1.063	1062.9	generate	Run4	generate/STIM_016.jpg	99
2959.137	0.984	984.3	generate	Run4	generate/STIM_016.jpg	100
2962.779	1.365	1365.1	generate	Run4	generate/STIM_016.jpg	100
2968.128	1.466	1465.9	generate	Run4	generate/STIM_017.jpg	100
2973.449	1.22	1220.1	generate	Run4	generate/STIM_017.jpg	100
2978.45	0.909	909.1	generate	Run4	generate/STIM_017.jpg	100
2982.939	1.942	1941.8	generate	Run4	generate/STIM_017.jpg	100
2987.587	0.892	891.6	generate	Run4	generate/STIM_017.jpg	100
2991.658	1.704	1704.2	generate	Run4	generate/STIM_018.jpg	99
2996.81	1.359	1358.6	generate	Run4	generate/STIM_018.jpg	100
3001.734	1.062	1061.8	generate	Run4	generate/STIM_018.jpg	99
3005.964	1.043	1043.3	generate	Run4	generate/STIM_018.jpg	99
3010.966	0.852	852.2	generate	Run4	generate/STIM_018.jpg	100
3015.33	1.904	1903.8	generate	Run4	generate/STIM_019.jpg	99
3020.998	1.662	1662.0	generate	Run4	generate/STIM_019.jpg	99
3025.696	1.873	1872.8	generate	Run4	generate/STIM_019.jpg	100
3030.146	1.019	1019.1	generate	Run4	generate/STIM_019.jpg	99
3033.277	0.966	966.5	generate	Run4	generate/STIM_019.jpg	99
3036.95	2.06	2060.2	generate	Run4	generate/STIM_020.jpg	99
3040.96	1.801	1800.9	generate	Run4	generate/STIM_020.jpg	100
3044.8	2.152	2152.5	generate	Run4	generate/STIM_020.jpg	99
3050.31	1.428	1427.8	generate	Run4	generate/STIM_020.jpg	99
3054.727	1.378	1377.8	generate	Run4	generate/STIM_020.jpg	99
3058.664	1.969	1969.1	generate	Run4	generate/STIM_021.jpg	100
3064.358	0.916	915.5	generate	Run4	generate/STIM_021.jpg	100
3068.536	1.711	1710.7	generate	Run4	generate/STIM_021.jpg	99
3072.749	1.816	1816.0	generate	Run4	generate/STIM_021.jpg	100
3077.779	1.155	1155.1	generate	Run4	generate/STIM_021.jpg	100
3081.691	2.002	2002.4	generate	Run4	generate/STIM_022.jpg	99
3085.786	1.209	1209.3	generate	Run4	generate/STIM_022.jpg	100
3089.365	2.047	2046.7	generate	Run4	generate/STIM_022.jpg	99
3094.839	1.116	1115.6	generate	Run4	generate/STIM_022.jpg	100
3098.62	1.535	1535.1	generate	Run4	generate/STIM_022.jpg	100
3103.358	1.309	1308.9	generate	Run4	generate/STIM_023.jpg	99
3107.469	1.646	1645.5	generate	Run4	generate/STIM_023.jpg	99
3112.509	1.908	1907.5	generate	Run4	generate/STIM_023.jpg	99
3116.384	1.821	1820.9	generate	Run4	generate/STIM_023.jpg	100
3121.751	1.032	1031.6	generate	Run4	generate/STIM_023.jpg	99
3125.398	1.239	1239.1	generate	Run4	generate/STIM_024.jpg	99
3128.933	2.077	2076.9	generate	Run4	generate/STIM_024.jpg	100
3134.644	1.217	1217.3	generate	Run4	generate/STIM_024.jpg	99
3138.745	1.285	1284.8	generate	Run4	generate/STIM_024.jpg	100
3143.79	1.635	1635.0	generate	Run4	generate/STIM_024.jpg	99
3148.387	0.819	818.7	repeat	Run4	repeat/STIM_000.jpg	99
3152.296	0.807	806.7	repeat	Run4	repeat/STIM_000.jpg	99
3155.843	0.674	674.0	repeat	Run4	repeat/STIM_000.jpg	99
3159.563	0.692	691.7	repeat	Run4	repeat/STIM_000.jpg	100
3163.187	0.794	793.6	repeat	Run4	repeat/STIM_000.jpg	100
3166.089	0.664	663.6	repeat	Run4	repeat/STIM_001.jpg	100
3169.775	0.874	874.5	repeat	Run4	repeat/STIM_001.jpg	100
3173.365	0.839	839.4	repeat	Run4	repeat/STIM_001.jpg	99
3176.25	0.71	710.4	repeat	Run4	repeat/STIM_001.jpg	100
3179.557	0.51	509.9	repeat	Run4	repeat/STIM_001.jpg	100
3183.247	0.67	669.5	repeat	Run4	repeat/STIM_002.jpg	100
3186.686	0.627	627.0	repeat	Run4	repeat/STIM_002.jpg	99
3189.588	0.979	979.3	repeat	Run4	repeat/STIM_002.jpg	99
3194.381	0.911	911.2	repeat	Run4	repeat/STIM_002.jpg	99
3199.141	0.654	654.1	repeat	Run4	repeat/STIM_002.jpg	100
3202.901	0.592	592.1	repeat	Run4	repeat/STIM_003.jpg	99
3206.778	0.934	934.0	repeat	Run4	repeat/STIM_003.jpg	100
3211.582	0.478	477.5	repeat	Run4	repeat/STIM_003.jpg	99
3214.958	0.51	510.0	repeat	Run4	repeat/STIM_003.jpg	99
3218.005	0.575	575.2	repeat	Run4	repeat/STIM_003.jpg	100
3221.345	0.605	604.6	repeat	Run4	repeat/STIM_004.jpg	99
3225.468	0.672	672.1	repeat	Run4	repeat/STIM_004.jpg	99
3228.295	0.503	502.7	repeat	Run4	repeat/STIM_004.jpg	99
3230.995	0.669	668.6	repeat	Run4	repeat/STIM_004.jpg	99
3234.332	0.656	656.1	repeat	Run4	repeat/STIM_004.jpg	100
3237.708	0.638	637.9	repeat	Run4	repeat/STIM_005.jpg	99
3241.511	0.651	650.9	repeat	Run4	repeat/STIM_005.jpg	100
3244.94	0.9	899.8	repeat	Run4	repeat/STIM_005.jpg	99
3248.109	0.545	544.9	repeat	Run4	repeat/STIM_005.jpg	99
3252.153	1.072	1071.7	repeat	Run4	repeat/STIM_005.jpg	99
3256.506	0.616	616.0	repeat	Run4	repeat/STIM_006.jpg	99
3260.638	0.95	949.8	repeat	Run4	repeat/STIM_006.jpg	100
3265.246	0.559	558.6	repeat	Run4	repeat/STIM_006.jpg	100
3268.599	0.907	907.0	repeat	Run4	repeat/STIM_006.jpg	99
3271.972	0.681	681.4	repeat	Run4	repeat/STIM_006.jpg	99
3275.83	0.927	927.2	repeat	Run4	repeat/STIM_007.jpg	100
3279.864	0.844	844.3	repeat	Run4	repeat/STIM_007.jpg	99
3284.203	0.961	961.4	repeat	Run4	repeat/STIM_007.jpg	99
3288.96	0.676	675.6	repeat	Run4	repeat/STIM_007.jpg	99
3292.23	0.98	979.9	repeat	Run4	repeat/STIM_007.jpg	100
3296.971	0.862	861.7	repeat	Run4	repeat/STIM_008.jpg	99
3301.864	0.805	804.8	repeat	Run4	repeat/STIM_008.jpg	99
3305.093	0.96	959.7	repeat	Run4	repeat/STIM_008.jpg	99
3309.298	0.556	556.0	repeat	Run4	repeat/STIM_008.jpg	100
3313.373	0.721	720.7	repeat	Run4	repeat/STIM_008.jpg	99
3316.862	0.708	708.4	repeat	Run4	repeat/STIM_009.jpg	100
3321.181	0.651	650.6	repeat	Run4	repeat/STIM_009.jpg	99
3325.456	0.807	806.6	repeat	Run4	repeat/STIM_009.jpg	100
3330.042	0.946	945.8	repeat	Run4	repeat/STIM_009.jpg	99
3333.896	0.942	942.1	repeat	Run4	repeat/STIM_009.jpg	100
3337.788	0.687	687.0	repeat	Run4	repeat/STIM_010.jpg	100
3340.463	0.588	587.8	repeat	Run4	repeat/STIM_010.jpg	100
3344.657	0.598	597.9	repeat	Run4	repeat/STIM_010.jpg	100
3348.144	0.934	934.0	repeat	Run4	repeat/STIM_010.jpg	99
3351.21	0.97	970.2	repeat	Run4	repeat/STIM_010.jpg	100
3354.817	0.675	675.1	repeat	Run4	repeat/STIM_011.jpg	100
3357.59	0.994	993.9	repeat	Run4	repeat/STIM_011.jpg	99
3361.665	0.687	686.7	repeat	Run4	repeat/STIM_011.jpg	100
3365.169	0.977	977.3	repeat	Run4	repeat/STIM_011.jpg	99
3368.327	0.971	970.9	repeat	Run4	repeat/STIM_011.jpg	100
3371.454	0.67	669.7	repeat	Run4	repeat/STIM_012.jpg	100
3375.282	0.91	910.3	repeat	Run4	repeat/STIM_012.jpg	99
3379.942	0.965	965.1	repeat	Run4	repeat/STIM_012.jpg	100
3383.015	0.778	777.5	repeat	Run4	repeat/STIM_012.jpg	99
3386.154	0.855	854.7	repeat	Run4	repeat/STIM_012.jpg	100
3389.53	0.601	601.2	repeat	Run4	repeat/STIM_013.jpg	99
3393.885	0.969	969.4	repeat	Run4	repeat/STIM_013.jpg	99
3396.901	0.612	611.6	repeat	Run4	repeat/STIM_013.jpg	100
3400.618	0.574	574.2	repeat	Run4	repeat/STIM_013.jpg	99
3404.291	0.646	645.6	repeat	Run4	repeat/STIM_013.jpg	100
3408.63	0.971	971.1	repeat	Run4	repeat/STIM_014.jpg	100
3411.697	0.824	823.9	repeat	Run4	repeat/STIM_014.jpg	100
3415.564	0.857	856.8	repeat	Run4	repeat/STIM_014.jpg	99
3419.905	0.594	594.0	repeat	Run4	repeat/STIM_014.jpg	99
3422.72	0.527	526.9	repeat	Run4	repeat/STIM_014.jpg	99
