onset	duration	accuracy	trial_type	learning_stage	stimulus
0.0	1.284	incorrect	generate	Run1	generate/STIM_000.jpg
5.224	1.493	incorrect	generate	Run1	generate/STIM_000.jpg
8.842	2.512	correct	generate	Run1	generate/STIM_000.jpg
14.168	1.871	correct	generate	Run1	generate/STIM_000.jpg
18.508	2.358	correct	generate	Run1	generate/STIM_000.jpg
23.884	2.167	incorrect	generate	Run1	generate/STIM_001.jpg
28.611	1.242	correct	generate	Run1	generate/STIM_001.jpg
33.068	1.628	correct	generate	Run1	generate/STIM_001.jpg
38.012	1.776	correct	generate	Run1	generate/STIM_001.jpg
42.493	1.121	correct	generate	Run1	generate/STIM_001.jpg
46.105	1.507	correct	generate	Run1	generate/STIM_002.jpg
50.038	1.785	correct	generate	Run1	generate/STIM_002.jpg
55.506	2.471	incorrect	generate	Run1	generate/STIM_002.jpg
60.81	1.398	correct	generate	Run1	generate/STIM_002.jpg
64.387	2.288	correct	generate	Run1	generate/STIM_002.jpg
70.27	2.454	correct	generate	Run1	generate/STIM_003.jpg
76.115	1.544	correct	generate	Run1	generate/STIM_003.jpg
81.46	2.451	correct	generate	Run1	generate/STIM_003.jpg
87.532	2.273	correct	generate	Run1	generate/STIM_003.jpg
93.431	1.503	correct	generate	Run1	generate/STIM_003.jpg
97.187	1.774	correct	generate	Run1	generate/STIM_004.jpg
102.898	2.329	correct	generate	Run1	generate/STIM_004.jpg
108.724	1.18	correct	generate	Run1	generate/STIM_004.jpg
112.267	1.916	correct	generate	Run1	generate/STIM_004.jpg
116.559	1.161	correct	generate	Run1	generate/STIM_004.jpg
120.443	1.687	correct	generate	Run1	generate/STIM_005.jpg
124.827	2.768	incorrect	generate	Run1	generate/STIM_005.jpg
131.242	1.149	correct	generate	Run1	generate/STIM_005.jpg
135.934	2.133	correct	generate	Run1	generate/STIM_005.jpg
141.065	2.136	correct	generate	Run1	generate/STIM_005.jpg
147.182	2.588	correct	generate	Run1	generate/STIM_006.jpg
153.161	2.401	correct	generate	Run1	generate/STIM_006.jpg
158.77	2.035	correct	generate	Run1	generate/STIM_006.jpg
163.139	1.24	correct	generate	Run1	generate/STIM_006.jpg
168.387	1.655	correct	generate	Run1	generate/STIM_006.jpg
172.168	2.94	correct	generate	Run1	generate/STIM_007.jpg
178.747	2.875	correct	generate	Run1	generate/STIM_007.jpg
184.068	1.126	correct	generate	Run1	generate/STIM_007.jpg
188.531	1.377	incorrect	generate	Run1	generate/STIM_007.jpg
191.978	1.198	correct	generate	Run1	generate/STIM_007.jpg
196.118	2.188	correct	generate	Run1	generate/STIM_008.jpg
201.128	1.292	correct	generate	Run1	generate/STIM_008.jpg
204.524	2.431	correct	generate	Run1	generate/STIM_008.jpg
210.63	1.94	correct	generate	Run1	generate/STIM_008.jpg
216.484	1.867	correct	generate	Run1	generate/STIM_008.jpg
221.452	1.413	correct	generate	Run1	generate/STIM_009.jpg
225.863	2.522	incorrect	generate	Run1	generate/STIM_009.jpg
232.304	1.397	correct	generate	Run1	generate/STIM_009.jpg
237.318	1.816	incorrect	generate	Run1	generate/STIM_009.jpg
242.422	1.055	correct	generate	Run1	generate/STIM_009.jpg
246.919	2.527	correct	generate	Run1	generate/STIM_010.jpg
252.692	1.669	incorrect	generate	Run1	generate/STIM_010.jpg
257.719	1.776	correct	generate	Run1	generate/STIM_010.jpg
261.449	2.61	incorrect	generate	Run1	generate/STIM_010.jpg
266.025	1.325	correct	generate	Run1	generate/STIM_010.jpg
271.147	1.624	incorrect	generate	Run1	generate/STIM_011.jpg
275.524	1.958	correct	generate	Run1	generate/STIM_011.jpg
280.05	2.33	correct	generate	Run1	generate/STIM_011.jpg
285.765	2.253	correct	generate	Run1	generate/STIM_011.jpg
290.089	2.054	correct	generate	Run1	generate/STIM_011.jpg
294.635	2.132	correct	generate	Run1	generate/STIM_012.jpg
300.299	2.416	correct	generate	Run1	generate/STIM_012.jpg
305.7	1.973	correct	generate	Run1	generate/STIM_012.jpg
311.287	2.435	incorrect	generate	Run1	generate/STIM_012.jpg
315.839	2.334	correct	generate	Run1	generate/STIM_012.jpg
321.003	2.93	correct	generate	Run1	generate/STIM_013.jpg
326.002	2.647	correct	generate	Run1	generate/STIM_013.jpg
330.967	1.48	correct	generate	Run1	generate/STIM_013.jpg
335.26	2.14	correct	generate	Run1	generate/STIM_013.jpg
341.029	1.384	correct	generate	Run1	generate/STIM_013.jpg
346.214	2.368	correct	generate	Run1	generate/STIM_014.jpg
352.066	2.498	correct	generate	Run1	generate/STIM_014.jpg
356.636	1.852	correct	generate	Run1	generate/STIM_014.jpg
362.081	1.915	correct	generate	Run1	generate/STIM_014.jpg
367.222	1.557	correct	generate	Run1	generate/STIM_014.jpg
372.527	1.714	correct	generate	Run1	generate/STIM_015.jpg
376.386	1.558	correct	generate	Run1	generate/STIM_015.jpg
380.73	1.939	correct	generate	Run1	generate/STIM_015.jpg
386.543	2.201	correct	generate	Run1	generate/STIM_015.jpg
392.252	1.123	incorrect	generate	Run1	generate/STIM_015.jpg
396.724	1.863	correct	generate	Run1	generate/STIM_016.jpg
401.483	1.959	correct	generate	Run1	generate/STIM_016.jpg
407.306	2.231	correct	generate	Run1	generate/STIM_016.jpg
412.57	1.247	correct	generate	Run1	generate/STIM_016.jpg
417.149	1.726	correct	generate	Run1	generate/STIM_016.jpg
420.8	2.947	correct	generate	Run1	generate/STIM_017.jpg
426.999	1.37	incorrect	generate	Run1	generate/STIM_017.jpg
430.979	2.524	correct	generate	Run1	generate/STIM_017.jpg
436.824	2.453	incorrect	generate	Run1	generate/STIM_017.jpg
442.406	2.156	correct	generate	Run1	generate/STIM_017.jpg
447.063	1.564	incorrect	generate	Run1	generate/STIM_018.jpg
450.846	1.644	correct	generate	Run1	generate/STIM_018.jpg
455.558	2.218	correct	generate	Run1	generate/STIM_018.jpg
461.548	1.219	correct	generate	Run1	generate/STIM_018.jpg
466.082	1.359	incorrect	generate	Run1	generate/STIM_018.jpg
471.435	2.665	correct	generate	Run1	generate/STIM_019.jpg
476.529	1.539	correct	generate	Run1	generate/STIM_019.jpg
481.754	2.59	correct	generate	Run1	generate/STIM_019.jpg
488.279	1.061	correct	generate	Run1	generate/STIM_019.jpg
491.631	2.218	incorrect	generate	Run1	generate/STIM_019.jpg
497.435	2.706	correct	generate	Run1	generate/STIM_020.jpg
502.898	2.804	correct	generate	Run1	generate/STIM_020.jpg
508.701	1.955	correct	generate	Run1	generate/STIM_020.jpg
514.484	1.411	correct	generate	Run1	generate/STIM_020.jpg
518.827	1.764	correct	generate	Run1	generate/STIM_020.jpg
523.375	1.873	correct	generate	Run1	generate/STIM_021.jpg
529.218	2.645	incorrect	generate	Run1	generate/STIM_021.jpg
534.514	2.045	correct	generate	Run1	generate/STIM_021.jpg
539.569	1.349	correct	generate	Run1	generate/STIM_021.jpg
544.282	1.696	incorrect	generate	Run1	generate/STIM_021.jpg
547.895	2.978	correct	generate	Run1	generate/STIM_022.jpg
553.33	2.277	correct	generate	Run1	generate/STIM_022.jpg
557.809	2.633	correct	generate	Run1	generate/STIM_022.jpg
562.8	1.822	correct	generate	Run1	generate/STIM_022.jpg
568.259	1.383	correct	generate	Run1	generate/STIM_022.jpg
573.165	1.373	correct	generate	Run1	generate/STIM_023.jpg
577.697	2.226	correct	generate	Run1	generate/STIM_023.jpg
583.285	1.539	correct	generate	Run1	generate/STIM_023.jpg
587.306	1.285	correct	generate	Run1	generate/STIM_023.jpg
591.769	1.584	correct	generate	Run1	generate/STIM_023.jpg
596.85	3.046	correct	generate	Run1	generate/STIM_024.jpg
603.562	1.834	incorrect	generate	Run1	generate/STIM_024.jpg
607.878	1.681	correct	generate	Run1	generate/STIM_024.jpg
612.756	1.27	correct	generate	Run1	generate/STIM_024.jpg
615.961	1.674	correct	generate	Run1	generate/STIM_024.jpg
620.861	0.96	correct	repeat	Run1	repeat/STIM_000.jpg
625.628	0.646	correct	repeat	Run1	repeat/STIM_000.jpg
629.842	0.715	correct	repeat	Run1	repeat/STIM_000.jpg
633.429	0.842	correct	repeat	Run1	repeat/STIM_000.jpg
638.077	0.645	correct	repeat	Run1	repeat/STIM_000.jpg
640.75	0.944	correct	repeat	Run1	repeat/STIM_001.jpg
644.739	0.798	correct	repeat	Run1	repeat/STIM_001.jpg
649.244	0.759	correct	repeat	Run1	repeat/STIM_001.jpg
652.478	0.64	correct	repeat	Run1	repeat/STIM_001.jpg
656.754	0.68	correct	repeat	Run1	repeat/STIM_001.jpg
660.916	0.677	correct	repeat	Run1	repeat/STIM_002.jpg
664.504	0.685	correct	repeat	Run1	repeat/STIM_002.jpg
667.466	0.782	correct	repeat	Run1	repeat/STIM_002.jpg
671.124	0.57	correct	repeat	Run1	repeat/STIM_002.jpg
674.171	0.662	correct	repeat	Run1	repeat/STIM_002.jpg
677.87	0.632	correct	repeat	Run1	repeat/STIM_003.jpg
680.609	0.983	correct	repeat	Run1	repeat/STIM_003.jpg
685.418	0.54	correct	repeat	Run1	repeat/STIM_003.jpg
689.321	0.604	correct	repeat	Run1	repeat/STIM_003.jpg
693.601	0.69	correct	repeat	Run1	repeat/STIM_003.jpg
696.883	1.001	correct	repeat	Run1	repeat/STIM_004.jpg
701.75	0.512	correct	repeat	Run1	repeat/STIM_004.jpg
705.757	0.558	correct	repeat	Run1	repeat/STIM_004.jpg
709.275	0.53	correct	repeat	Run1	repeat/STIM_004.jpg
713.507	0.461	correct	repeat	Run1	repeat/STIM_004.jpg
717.394	0.708	correct	repeat	Run1	repeat/STIM_005.jpg
720.591	1.051	correct	repeat	Run1	repeat/STIM_005.jpg
725.337	0.926	correct	repeat	Run1	repeat/STIM_005.jpg
728.948	0.929	correct	repeat	Run1	repeat/STIM_005.jpg
733.482	0.477	correct	repeat	Run1	repeat/STIM_005.jpg
737.785	0.745	correct	repeat	Run1	repeat/STIM_006.jpg
740.528	0.919	correct	repeat	Run1	repeat/STIM_006.jpg
743.474	0.636	correct	repeat	Run1	repeat/STIM_006.jpg
747.125	0.549	correct	repeat	Run1	repeat/STIM_006.jpg
751.422	0.918	correct	repeat	Run1	repeat/STIM_006.jpg
756.052	0.518	correct	repeat	Run1	repeat/STIM_007.jpg
759.311	0.664	correct	repeat	Run1	repeat/STIM_007.jpg
762.932	0.893	correct	repeat	Run1	repeat/STIM_007.jpg
767.031	0.882	correct	repeat	Run1	repeat/STIM_007.jpg
771.442	0.804	correct	repeat	Run1	repeat/STIM_007.jpg
774.752	0.665	correct	repeat	Run1	repeat/STIM_008.jpg
777.762	0.542	correct	repeat	Run1	repeat/STIM_008.jpg
780.34	0.893	correct	repeat	Run1	repeat/STIM_008.jpg
783.913	0.886	correct	repeat	Run1	repeat/STIM_008.jpg
788.742	0.643	correct	repeat	Run1	repeat/STIM_008.jpg
793.358	0.523	correct	repeat	Run1	repeat/STIM_009.jpg
797.64	0.746	correct	repeat	Run1	repeat/STIM_009.jpg
800.629	0.74	correct	repeat	Run1	repeat/STIM_009.jpg
803.439	0.988	correct	repeat	Run1	repeat/STIM_009.jpg
807.647	1.121	correct	repeat	Run1	repeat/STIM_009.jpg
812.282	0.679	correct	repeat	Run1	repeat/STIM_010.jpg
815.947	0.941	incorrect	repeat	Run1	repeat/STIM_010.jpg
820.019	0.642	incorrect	repeat	Run1	repeat/STIM_010.jpg
823.858	0.918	correct	repeat	Run1	repeat/STIM_010.jpg
828.128	0.859	correct	repeat	Run1	repeat/STIM_010.jpg
832.847	0.738	correct	repeat	Run1	repeat/STIM_011.jpg
837.448	0.68	correct	repeat	Run1	repeat/STIM_011.jpg
840.612	0.838	correct	repeat	Run1	repeat/STIM_011.jpg
843.94	0.92	correct	repeat	Run1	repeat/STIM_011.jpg
848.805	0.634	correct	repeat	Run1	repeat/STIM_011.jpg
851.626	0.672	correct	repeat	Run1	repeat/STIM_012.jpg
854.813	0.962	correct	repeat	Run1	repeat/STIM_012.jpg
859.341	1.144	correct	repeat	Run1	repeat/STIM_012.jpg
862.349	0.637	correct	repeat	Run1	repeat/STIM_012.jpg
865.715	1.03	correct	repeat	Run1	repeat/STIM_012.jpg
868.747	0.709	correct	repeat	Run1	repeat/STIM_013.jpg
872.681	0.628	correct	repeat	Run1	repeat/STIM_013.jpg
876.041	0.578	correct	repeat	Run1	repeat/STIM_013.jpg
878.921	0.868	correct	repeat	Run1	repeat/STIM_013.jpg
882.17	0.612	correct	repeat	Run1	repeat/STIM_013.jpg
884.811	0.734	correct	repeat	Run1	repeat/STIM_014.jpg
887.903	1.051	correct	repeat	Run1	repeat/STIM_014.jpg
892.709	0.501	incorrect	repeat	Run1	repeat/STIM_014.jpg
895.79	0.596	correct	repeat	Run1	repeat/STIM_014.jpg
898.768	0.522	incorrect	repeat	Run1	repeat/STIM_014.jpg
902.146	1.452	correct	generate	Run2	generate/STIM_000.jpg
906.525	1.195	correct	generate	Run2	generate/STIM_000.jpg
911.412	2.276	correct	generate	Run2	generate/STIM_000.jpg
915.994	1.529	correct	generate	Run2	generate/STIM_000.jpg
919.559	0.99	incorrect	generate	Run2	generate/STIM_000.jpg
923.018	1.074	correct	generate	Run2	generate/STIM_001.jpg
927.546	1.041	correct	generate	Run2	generate/STIM_001.jpg
932.029	1.95	incorrect	generate	Run2	generate/STIM_001.jpg
937.456	1.715	correct	generate	Run2	generate/STIM_001.jpg
941.629	1.358	correct	generate	Run2	generate/STIM_001.jpg
946.356	2.025	correct	generate	Run2	generate/STIM_002.jpg
951.615	1.17	incorrect	generate	Run2	generate/STIM_002.jpg
955.992	1.152	correct	generate	Run2	generate/STIM_002.jpg
960.946	1.548	correct	generate	Run2	generate/STIM_002.jpg
965.431	1.692	correct	generate	Run2	generate/STIM_002.jpg
969.384	1.673	incorrect	generate	Run2	generate/STIM_003.jpg
973.487	1.358	correct	generate	Run2	generate/STIM_003.jpg
978.351	2.174	correct	generate	Run2	generate/STIM_003.jpg
983.376	1.18	correct	generate	Run2	generate/STIM_003.jpg
987.511	1.701	correct	generate	Run2	generate/STIM_003.jpg
992.383	2.072	correct	generate	Run2	generate/STIM_004.jpg
996.697	2.35	correct	generate	Run2	generate/STIM_004.jpg
1002.977	1.861	correct	generate	Run2	generate/STIM_004.jpg
1008.173	1.201	correct	generate	Run2	generate/STIM_004.jpg
1011.445	1.071	correct	generate	Run2	generate/STIM_004.jpg
1015.58	1.31	incorrect	generate	Run2	generate/STIM_005.jpg
1019.048	0.923	correct	generate	Run2	generate/STIM_005.jpg
1022.991	1.872	incorrect	generate	Run2	generate/STIM_005.jpg
1027.166	1.16	incorrect	generate	Run2	generate/STIM_005.jpg
1030.641	1.141	correct	generate	Run2	generate/STIM_005.jpg
1035.715	1.173	correct	generate	Run2	generate/STIM_006.jpg
1038.969	1.798	correct	generate	Run2	generate/STIM_006.jpg
1043.994	1.891	correct	generate	Run2	generate/STIM_006.jpg
1049.164	1.203	correct	generate	Run2	generate/STIM_006.jpg
1053.015	1.633	correct	generate	Run2	generate/STIM_006.jpg
1057.378	2.15	correct	generate	Run2	generate/STIM_007.jpg
1062.836	1.711	correct	generate	Run2	generate/STIM_007.jpg
1067.455	1.766	correct	generate	Run2	generate/STIM_007.jpg
1071.246	1.185	correct	generate	Run2	generate/STIM_007.jpg
1075.538	0.896	correct	generate	Run2	generate/STIM_007.jpg
1079.874	2.166	correct	generate	Run2	generate/STIM_008.jpg
1084.435	1.083	correct	generate	Run2	generate/STIM_008.jpg
1088.48	2.34	correct	generate	Run2	generate/STIM_008.jpg
1094.457	1.792	correct	generate	Run2	generate/STIM_008.jpg
1099.378	1.277	correct	generate	Run2	generate/STIM_008.jpg
1102.883	1.661	correct	generate	Run2	generate/STIM_009.jpg
1108.274	0.942	correct	generate	Run2	generate/STIM_009.jpg
1111.327	2.126	correct	generate	Run2	generate/STIM_009.jpg
1117.215	1.03	correct	generate	Run2	generate/STIM_009.jpg
1120.74	1.167	correct	generate	Run2	generate/STIM_009.jpg
1124.569	2.008	correct	generate	Run2	generate/STIM_010.jpg
1129.627	2.324	correct	generate	Run2	generate/STIM_010.jpg
1135.616	1.33	correct	generate	Run2	generate/STIM_010.jpg
1139.388	1.058	correct	generate	Run2	generate/STIM_010.jpg
1143.311	1.426	incorrect	generate	Run2	generate/STIM_010.jpg
1147.442	2.065	correct	generate	Run2	generate/STIM_011.jpg
1152.669	1.733	correct	generate	Run2	generate/STIM_011.jpg
1156.448	1.847	correct	generate	Run2	generate/STIM_011.jpg
1160.523	2.119	correct	generate	Run2	generate/STIM_011.jpg
1164.728	0.995	incorrect	generate	Run2	generate/STIM_011.jpg
1168.611	1.398	correct	generate	Run2	generate/STIM_012.jpg
1172.827	1.925	correct	generate	Run2	generate/STIM_012.jpg
1178.1	2.217	correct	generate	Run2	generate/STIM_012.jpg
1182.47	1.386	correct	generate	Run2	generate/STIM_012.jpg
1186.921	1.722	correct	generate	Run2	generate/STIM_012.jpg
1191.938	1.655	incorrect	generate	Run2	generate/STIM_013.jpg
1196.672	1.879	correct	generate	Run2	generate/STIM_013.jpg
1202.487	1.095	correct	generate	Run2	generate/STIM_013.jpg
1205.924	2.008	correct	generate	Run2	generate/STIM_013.jpg
1210.515	2.027	correct	generate	Run2	generate/STIM_013.jpg
1215.164	1.878	correct	generate	Run2	generate/STIM_014.jpg
1219.069	1.783	incorrect	generate	Run2	generate/STIM_014.jpg
1224.852	2.099	correct	generate	Run2	generate/STIM_014.jpg
1229.076	1.71	correct	generate	Run2	generate/STIM_014.jpg
1234.661	1.405	correct	generate	Run2	generate/STIM_014.jpg
1238.902	1.855	correct	generate	Run2	generate/STIM_015.jpg
1243.71	2.031	correct	generate	Run2	generate/STIM_015.jpg
1248.568	2.152	correct	generate	Run2	generate/STIM_015.jpg
1253.197	0.806	correct	generate	Run2	generate/STIM_015.jpg
1257.734	1.383	incorrect	generate	Run2	generate/STIM_015.jpg
1262.139	1.78	correct	generate	Run2	generate/STIM_016.jpg
1266.447	2.369	correct	generate	Run2	generate/STIM_016.jpg
1271.802	2.008	correct	generate	Run2	generate/STIM_016.jpg
1276.633	1.924	correct	generate	Run2	generate/STIM_016.jpg
1280.693	2.011	correct	generate	Run2	generate/STIM_016.jpg
1285.876	2.158	correct	generate	Run2	generate/STIM_017.jpg
1291.451	2.416	incorrect	generate	Run2	generate/STIM_017.jpg
1297.527	1.181	correct	generate	Run2	generate/STIM_017.jpg
1302.623	1.218	correct	generate	Run2	generate/STIM_017.jpg
1307.305	1.672	correct	generate	Run2	generate/STIM_017.jpg
1311.744	1.338	correct	generate	Run2	generate/STIM_018.jpg
1316.3	2.322	correct	generate	Run2	generate/STIM_018.jpg
1321.08	0.908	correct	generate	Run2	generate/STIM_018.jpg
1324.335	2.093	correct	generate	Run2	generate/STIM_018.jpg
1330.305	1.183	correct	generate	Run2	generate/STIM_018.jpg
1335.027	1.019	correct	generate	Run2	generate/STIM_019.jpg
1338.949	1.208	correct	generate	Run2	generate/STIM_019.jpg
1343.728	2.182	correct	generate	Run2	generate/STIM_019.jpg
1349.686	1.872	correct	generate	Run2	generate/STIM_019.jpg
1354.563	1.423	correct	generate	Run2	generate/STIM_019.jpg
1358.327	2.414	incorrect	generate	Run2	generate/STIM_020.jpg
1363.621	1.428	correct	generate	Run2	generate/STIM_020.jpg
1368.92	1.394	correct	generate	Run2	generate/STIM_020.jpg
1372.421	1.739	correct	generate	Run2	generate/STIM_020.jpg
1376.986	1.185	correct	generate	Run2	generate/STIM_020.jpg
1380.206	2.077	incorrect	generate	Run2	generate/STIM_021.jpg
1384.875	2.088	correct	generate	Run2	generate/STIM_021.jpg
1389.947	1.107	correct	generate	Run2	generate/STIM_021.jpg
1394.691	1.236	correct	generate	Run2	generate/STIM_021.jpg
1399.675	1.351	correct	generate	Run2	generate/STIM_021.jpg
1404.422	2.185	correct	generate	Run2	generate/STIM_022.jpg
1409.547	1.725	incorrect	generate	Run2	generate/STIM_022.jpg
1414.32	1.46	correct	generate	Run2	generate/STIM_022.jpg
1418.626	1.657	correct	generate	Run2	generate/STIM_022.jpg
1423.162	1.605	correct	generate	Run2	generate/STIM_022.jpg
1428.579	2.456	correct	generate	Run2	generate/STIM_023.jpg
1434.919	2.171	correct	generate	Run2	generate/STIM_023.jpg
1439.119	1.605	incorrect	generate	Run2	generate/STIM_023.jpg
1443.535	2.126	correct	generate	Run2	generate/STIM_023.jpg
1447.724	1.017	incorrect	generate	Run2	generate/STIM_023.jpg
1451.374	1.711	correct	generate	Run2	generate/STIM_024.jpg
1456.324	1.363	correct	generate	Run2	generate/STIM_024.jpg
1460.724	1.938	correct	generate	Run2	generate/STIM_024.jpg
1464.598	1.418	correct	generate	Run2	generate/STIM_024.jpg
1468.671	1.032	correct	generate	Run2	generate/STIM_024.jpg
1473.355	0.763	incorrect	repeat	Run2	repeat/STIM_000.jpg
1477.668	1.016	correct	repeat	Run2	repeat/STIM_000.jpg
1482.266	0.7	incorrect	repeat	Run2	repeat/STIM_000.jpg
1485.137	0.992	correct	repeat	Run2	repeat/STIM_000.jpg
1489.941	0.64	correct	repeat	Run2	repeat/STIM_000.jpg
1493.363	0.785	correct	repeat	Run2	repeat/STIM_001.jpg
1497.717	0.721	correct	repeat	Run2	repeat/STIM_001.jpg
1501.579	0.888	correct	repeat	Run2	repeat/STIM_001.jpg
1506.398	0.91	correct	repeat	Run2	repeat/STIM_001.jpg
1509.741	0.822	correct	repeat	Run2	repeat/STIM_001.jpg
1513.365	0.998	correct	repeat	Run2	repeat/STIM_002.jpg
1517.001	0.891	correct	repeat	Run2	repeat/STIM_002.jpg
1521.51	0.801	correct	repeat	Run2	repeat/STIM_002.jpg
1524.465	0.959	correct	repeat	Run2	repeat/STIM_002.jpg
1527.969	0.742	correct	repeat	Run2	repeat/STIM_002.jpg
1532.289	0.867	correct	repeat	Run2	repeat/STIM_003.jpg
1536.954	0.616	incorrect	repeat	Run2	repeat/STIM_003.jpg
1540.803	0.541	correct	repeat	Run2	repeat/STIM_003.jpg
1543.597	0.517	correct	repeat	Run2	repeat/STIM_003.jpg
1547.288	0.459	correct	repeat	Run2	repeat/STIM_003.jpg
1550.407	1.034	correct	repeat	Run2	repeat/STIM_004.jpg
1554.269	0.819	correct	repeat	Run2	repeat/STIM_004.jpg
1558.017	0.507	correct	repeat	Run2	repeat/STIM_004.jpg
1560.59	0.912	correct	repeat	Run2	repeat/STIM_004.jpg
1564.068	0.652	correct	repeat	Run2	repeat/STIM_004.jpg
1567.929	0.677	correct	repeat	Run2	repeat/STIM_005.jpg
1570.995	0.603	correct	repeat	Run2	repeat/STIM_005.jpg
1574.977	0.832	correct	repeat	Run2	repeat/STIM_005.jpg
1578.799	0.819	correct	repeat	Run2	repeat/STIM_005.jpg
1582.446	0.715	correct	repeat	Run2	repeat/STIM_005.jpg
1586.899	0.563	correct	repeat	Run2	repeat/STIM_006.jpg
1590.607	0.635	correct	repeat	Run2	repeat/STIM_006.jpg
1593.412	0.676	correct	repeat	Run2	repeat/STIM_006.jpg
1597.429	0.93	correct	repeat	Run2	repeat/STIM_006.jpg
1600.402	0.67	correct	repeat	Run2	repeat/STIM_006.jpg
1603.41	0.533	correct	repeat	Run2	repeat/STIM_007.jpg
1606.07	0.76	correct	repeat	Run2	repeat/STIM_007.jpg
1609.056	0.866	correct	repeat	Run2	repeat/STIM_007.jpg
1612.138	0.905	correct	repeat	Run2	repeat/STIM_007.jpg
1615.982	1.009	correct	repeat	Run2	repeat/STIM_007.jpg
1619.073	0.831	correct	repeat	Run2	repeat/STIM_008.jpg
1623.057	0.496	correct	repeat	Run2	repeat/STIM_008.jpg
1627.072	0.862	incorrect	repeat	Run2	repeat/STIM_008.jpg
1630.331	0.841	incorrect	repeat	Run2	repeat/STIM_008.jpg
1634.305	0.749	correct	repeat	Run2	repeat/STIM_008.jpg
1638.727	0.562	correct	repeat	Run2	repeat/STIM_009.jpg
1641.931	1.042	correct	repeat	Run2	repeat/STIM_009.jpg
1646.18	0.666	correct	repeat	Run2	repeat/STIM_009.jpg
1649.765	0.47	correct	repeat	Run2	repeat/STIM_009.jpg
1653.395	0.913	correct	repeat	Run2	repeat/STIM_009.jpg
1658.032	0.835	correct	repeat	Run2	repeat/STIM_010.jpg
1662.03	0.802	correct	repeat	Run2	repeat/STIM_010.jpg
1666.351	0.917	correct	repeat	Run2	repeat/STIM_010.jpg
1669.867	0.532	correct	repeat	Run2	repeat/STIM_010.jpg
1674.062	0.606	correct	repeat	Run2	repeat/STIM_010.jpg
1677.646	0.611	correct	repeat	Run2	repeat/STIM_011.jpg
1680.458	0.607	correct	repeat	Run2	repeat/STIM_011.jpg
1683.629	0.754	correct	repeat	Run2	repeat/STIM_011.jpg
1686.997	0.948	correct	repeat	Run2	repeat/STIM_011.jpg
1690.156	0.565	correct	repeat	Run2	repeat/STIM_011.jpg
1692.859	0.668	correct	repeat	Run2	repeat/STIM_012.jpg
1696.067	0.725	correct	repeat	Run2	repeat/STIM_012.jpg
1700.533	0.84	correct	repeat	Run2	repeat/STIM_012.jpg
1703.763	0.602	correct	repeat	Run2	repeat/STIM_012.jpg
1708.208	0.61	correct	repeat	Run2	repeat/STIM_012.jpg
1711.375	0.633	correct	repeat	Run2	repeat/STIM_013.jpg
1715.594	0.541	correct	repeat	Run2	repeat/STIM_013.jpg
1719.59	0.886	correct	repeat	Run2	repeat/STIM_013.jpg
1723.948	0.696	correct	repeat	Run2	repeat/STIM_013.jpg
1727.78	0.896	correct	repeat	Run2	repeat/STIM_013.jpg
1732.583	0.657	correct	repeat	Run2	repeat/STIM_014.jpg
1735.728	0.772	correct	repeat	Run2	repeat/STIM_014.jpg
1739.696	0.705	correct	repeat	Run2	repeat/STIM_014.jpg
1742.628	0.879	incorrect	repeat	Run2	repeat/STIM_014.jpg
1746.672	0.737	correct	repeat	Run2	repeat/STIM_014.jpg
1751.315	1.694	correct	generate	Run3	generate/STIM_000.jpg
1755.219	1.125	correct	generate	Run3	generate/STIM_000.jpg
1758.956	1.996	correct	generate	Run3	generate/STIM_000.jpg
1763.187	1.996	correct	generate	Run3	generate/STIM_000.jpg
1768.437	1.078	correct	generate	Run3	generate/STIM_000.jpg
1773.138	2.023	correct	generate	Run3	generate/STIM_001.jpg
1778.466	2.019	correct	generate	Run3	generate/STIM_001.jpg
1782.465	1.591	correct	generate	Run3	generate/STIM_001.jpg
1786.831	1.035	correct	generate	Run3	generate/STIM_001.jpg
1789.965	1.236	correct	generate	Run3	generate/STIM_001.jpg
1793.612	1.845	correct	generate	Run3	generate/STIM_002.jpg
1798.106	2.131	correct	generate	Run3	generate/STIM_002.jpg
1802.199	0.828	incorrect	generate	Run3	generate/STIM_002.jpg
1806.757	2.044	correct	generate	Run3	generate/STIM_002.jpg
1812.718	2.076	correct	generate	Run3	generate/STIM_002.jpg
1818.633	2.043	incorrect	generate	Run3	generate/STIM_003.jpg
1822.881	0.79	correct	generate	Run3	generate/STIM_003.jpg
1827.319	1.328	correct	generate	Run3	generate/STIM_003.jpg
1832.004	2.009	correct	generate	Run3	generate/STIM_003.jpg
1836.685	1.467	correct	generate	Run3	generate/STIM_003.jpg
1840.752	1.336	incorrect	generate	Run3	generate/STIM_004.jpg
1844.892	1.516	incorrect	generate	Run3	generate/STIM_004.jpg
1849.654	1.865	incorrect	generate	Run3	generate/STIM_004.jpg
1853.687	1.853	correct	generate	Run3	generate/STIM_004.jpg
1857.839	1.301	correct	generate	Run3	generate/STIM_004.jpg
1861.828	1.31	correct	generate	Run3	generate/STIM_005.jpg
1866.067	1.033	correct	generate	Run3	generate/STIM_005.jpg
1870.606	2.071	correct	generate	Run3	generate/STIM_005.jpg
1876.536	1.618	correct	generate	Run3	generate/STIM_005.jpg
1881.641	0.99	incorrect	generate	Run3	generate/STIM_005.jpg
1885.434	1.683	correct	generate	Run3	generate/STIM_006.jpg
1889.816	1.119	correct	generate	Run3	generate/STIM_006.jpg
1893.964	1.48	correct	generate	Run3	generate/STIM_006.jpg
1898.603	1.59	correct	generate	Run3	generate/STIM_006.jpg
1903.184	2.101	correct	generate	Run3	generate/STIM_006.jpg
1909.025	1.916	correct	generate	Run3	generate/STIM_007.jpg
1913.653	1.113	incorrect	generate	Run3	generate/STIM_007.jpg
1918.742	2.065	correct	generate	Run3	generate/STIM_007.jpg
1924.7	1.479	correct	generate	Run3	generate/STIM_007.jpg
1928.82	1.018	correct	generate	Run3	generate/STIM_007.jpg
1931.945	2.068	correct	generate	Run3	generate/STIM_008.jpg
1936.721	1.824	incorrect	generate	Run3	generate/STIM_008.jpg
1941.993	1.314	correct	generate	Run3	generate/STIM_008.jpg
1946.919	0.893	correct	generate	Run3	generate/STIM_008.jpg
1950.508	1.402	correct	generate	Run3	generate/STIM_008.jpg
1954.019	1.398	correct	generate	Run3	generate/STIM_009.jpg
1958.946	1.977	correct	generate	Run3	generate/STIM_009.jpg
1964.379	1.241	correct	generate	Run3	generate/STIM_009.jpg
1968.849	1.306	correct	generate	Run3	generate/STIM_009.jpg
1972.666	2.018	correct	generate	Run3	generate/STIM_009.jpg
1977.111	1.574	correct	generate	Run3	generate/STIM_010.jpg
1982.611	1.419	incorrect	generate	Run3	generate/STIM_010.jpg
1987.883	2.187	correct	generate	Run3	generate/STIM_010.jpg
1992.736	1.692	correct	generate	Run3	generate/STIM_010.jpg
1996.743	2.005	correct	generate	Run3	generate/STIM_010.jpg
2001.26	1.604	correct	generate	Run3	generate/STIM_011.jpg
2005.842	1.949	correct	generate	Run3	generate/STIM_011.jpg
2011.44	1.289	correct	generate	Run3	generate/STIM_011.jpg
2016.109	1.17	correct	generate	Run3	generate/STIM_011.jpg
2020.821	1.129	correct	generate	Run3	generate/STIM_011.jpg
2025.372	1.582	correct	generate	Run3	generate/STIM_012.jpg
2029.686	1.054	correct	generate	Run3	generate/STIM_012.jpg
2032.919	0.95	correct	generate	Run3	generate/STIM_012.jpg
2035.962	1.21	correct	generate	Run3	generate/STIM_012.jpg
2040.127	1.91	correct	generate	Run3	generate/STIM_012.jpg
2045.633	0.907	correct	generate	Run3	generate/STIM_013.jpg
2050.23	0.864	correct	generate	Run3	generate/STIM_013.jpg
2053.742	1.685	correct	generate	Run3	generate/STIM_013.jpg
2057.841	1.464	correct	generate	Run3	generate/STIM_013.jpg
2062.478	1.227	correct	generate	Run3	generate/STIM_013.jpg
2067.399	1.992	correct	generate	Run3	generate/STIM_014.jpg
2071.531	1.826	correct	generate	Run3	generate/STIM_014.jpg
2076.152	1.31	correct	generate	Run3	generate/STIM_014.jpg
2080.939	1.306	correct	generate	Run3	generate/STIM_014.jpg
2086.197	1.641	correct	generate	Run3	generate/STIM_014.jpg
2091.759	0.805	correct	generate	Run3	generate/STIM_015.jpg
2095.827	1.905	incorrect	generate	Run3	generate/STIM_015.jpg
2100.677	1.138	correct	generate	Run3	generate/STIM_015.jpg
2103.927	1.14	correct	generate	Run3	generate/STIM_015.jpg
2108.174	1.378	correct	generate	Run3	generate/STIM_015.jpg
2112.963	1.081	correct	generate	Run3	generate/STIM_016.jpg
2116.511	1.337	correct	generate	Run3	generate/STIM_016.jpg
2121.667	2.025	correct	generate	Run3	generate/STIM_016.jpg
2127.012	1.219	correct	generate	Run3	generate/STIM_016.jpg
2131.583	1.169	correct	generate	Run3	generate/STIM_016.jpg
2136.349	1.221	correct	generate	Run3	generate/STIM_017.jpg
2139.706	1.42	incorrect	generate	Run3	generate/STIM_017.jpg
2143.903	1.288	correct	generate	Run3	generate/STIM_017.jpg
2148.296	1.194	correct	generate	Run3	generate/STIM_017.jpg
2151.878	1.283	correct	generate	Run3	generate/STIM_017.jpg
2155.201	1.022	correct	generate	Run3	generate/STIM_018.jpg
2159.811	1.252	correct	generate	Run3	generate/STIM_018.jpg
2163.425	1.581	correct	generate	Run3	generate/STIM_018.jpg
2168.673	1.317	correct	generate	Run3	generate/STIM_018.jpg
2173.46	1.09	correct	generate	Run3	generate/STIM_018.jpg
2176.616	1.087	correct	generate	Run3	generate/STIM_019.jpg
2181.133	1.413	correct	generate	Run3	generate/STIM_019.jpg
2185.476	0.869	correct	generate	Run3	generate/STIM_019.jpg
2189.079	1.234	correct	generate	Run3	generate/STIM_019.jpg
2192.886	1.42	incorrect	generate	Run3	generate/STIM_019.jpg
2197.55	1.965	correct	generate	Run3	generate/STIM_020.jpg
2201.705	1.551	correct	generate	Run3	generate/STIM_020.jpg
2205.362	1.812	correct	generate	Run3	generate/STIM_020.jpg
2210.446	1.475	correct	generate	Run3	generate/STIM_020.jpg
2214.021	0.897	correct	generate	Run3	generate/STIM_020.jpg
2217.054	1.645	correct	generate	Run3	generate/STIM_021.jpg
2222.212	1.854	correct	generate	Run3	generate/STIM_021.jpg
2227.815	1.928	correct	generate	Run3	generate/STIM_021.jpg
2232.36	1.821	correct	generate	Run3	generate/STIM_021.jpg
2236.284	0.956	correct	generate	Run3	generate/STIM_021.jpg
2240.794	1.312	correct	generate	Run3	generate/STIM_022.jpg
2245.912	0.884	correct	generate	Run3	generate/STIM_022.jpg
2249.3	0.939	correct	generate	Run3	generate/STIM_022.jpg
2254.167	1.57	correct	generate	Run3	generate/STIM_022.jpg
2258.232	1.643	correct	generate	Run3	generate/STIM_022.jpg
2262.041	1.245	correct	generate	Run3	generate/STIM_023.jpg
2266.505	1.543	incorrect	generate	Run3	generate/STIM_023.jpg
2271.764	1.345	correct	generate	Run3	generate/STIM_023.jpg
2276.836	0.978	correct	generate	Run3	generate/STIM_023.jpg
2280.179	1.642	correct	generate	Run3	generate/STIM_023.jpg
2284.267	0.928	incorrect	generate	Run3	generate/STIM_024.jpg
2287.883	1.144	correct	generate	Run3	generate/STIM_024.jpg
2291.906	1.521	correct	generate	Run3	generate/STIM_024.jpg
2297.256	1.108	correct	generate	Run3	generate/STIM_024.jpg
2300.714	1.53	correct	generate	Run3	generate/STIM_024.jpg
2305.689	0.655	correct	repeat	Run3	repeat/STIM_000.jpg
2310.294	0.718	correct	repeat	Run3	repeat/STIM_000.jpg
2314.248	1.076	correct	repeat	Run3	repeat/STIM_000.jpg
2319.118	0.635	correct	repeat	Run3	repeat/STIM_000.jpg
2323.683	0.477	correct	repeat	Run3	repeat/STIM_000.jpg
2327.741	0.466	correct	repeat	Run3	repeat/STIM_001.jpg
2331.149	1.02	correct	repeat	Run3	repeat/STIM_001.jpg
2334.94	0.54	correct	repeat	Run3	repeat/STIM_001.jpg
2337.718	0.725	correct	repeat	Run3	repeat/STIM_001.jpg
2342.228	0.561	correct	repeat	Run3	repeat/STIM_001.jpg
2345.129	0.807	correct	repeat	Run3	repeat/STIM_002.jpg
2348.659	0.569	correct	repeat	Run3	repeat/STIM_002.jpg
2353.184	0.661	correct	repeat	Run3	repeat/STIM_002.jpg
2356.613	0.737	incorrect	repeat	Run3	repeat/STIM_002.jpg
2360.265	0.871	correct	repeat	Run3	repeat/STIM_002.jpg
2363.802	0.575	correct	repeat	Run3	repeat/STIM_003.jpg
2366.489	0.954	correct	repeat	Run3	repeat/STIM_003.jpg
2371.431	0.929	correct	repeat	Run3	repeat/STIM_003.jpg
2374.563	0.975	correct	repeat	Run3	repeat/STIM_003.jpg
2378.473	0.829	correct	repeat	Run3	repeat/STIM_003.jpg
2382.19	0.804	correct	repeat	Run3	repeat/STIM_004.jpg
2386.34	0.923	incorrect	repeat	Run3	repeat/STIM_004.jpg
2390.31	0.804	correct	repeat	Run3	repeat/STIM_004.jpg
2394.957	0.85	correct	repeat	Run3	repeat/STIM_004.jpg
2399.218	0.787	correct	repeat	Run3	repeat/STIM_004.jpg
2402.533	0.934	correct	repeat	Run3	repeat/STIM_005.jpg
2405.961	0.861	correct	repeat	Run3	repeat/STIM_005.jpg
2409.698	1.05	correct	repeat	Run3	repeat/STIM_005.jpg
2413.17	0.9	correct	repeat	Run3	repeat/STIM_005.jpg
2416.315	0.86	correct	repeat	Run3	repeat/STIM_005.jpg
2420.012	0.701	correct	repeat	Run3	repeat/STIM_006.jpg
2423.415	0.805	correct	repeat	Run3	repeat/STIM_006.jpg
2426.383	0.84	correct	repeat	Run3	repeat/STIM_006.jpg
2430.82	0.709	correct	repeat	Run3	repeat/STIM_006.jpg
2433.867	0.883	correct	repeat	Run3	repeat/STIM_006.jpg
2438.71	0.681	correct	repeat	Run3	repeat/STIM_007.jpg
2441.531	0.898	correct	repeat	Run3	repeat/STIM_007.jpg
2446.135	0.895	correct	repeat	Run3	repeat/STIM_007.jpg
2449.386	1.083	correct	repeat	Run3	repeat/STIM_007.jpg
2452.974	0.831	correct	repeat	Run3	repeat/STIM_007.jpg
2456.141	0.939	correct	repeat	Run3	repeat/STIM_008.jpg
2459.387	0.785	correct	repeat	Run3	repeat/STIM_008.jpg
2464.087	0.923	correct	repeat	Run3	repeat/STIM_008.jpg
2468.011	0.666	correct	repeat	Run3	repeat/STIM_008.jpg
2472.123	0.957	incorrect	repeat	Run3	repeat/STIM_008.jpg
2475.509	0.767	correct	repeat	Run3	repeat/STIM_009.jpg
2478.642	0.864	correct	repeat	Run3	repeat/STIM_009.jpg
2483.368	0.716	correct	repeat	Run3	repeat/STIM_009.jpg
2488.006	0.85	correct	repeat	Run3	repeat/STIM_009.jpg
2492.766	0.992	correct	repeat	Run3	repeat/STIM_009.jpg
2497.186	0.535	correct	repeat	Run3	repeat/STIM_010.jpg
2500.784	0.664	correct	repeat	Run3	repeat/STIM_010.jpg
2504.803	0.941	correct	repeat	Run3	repeat/STIM_010.jpg
2508.429	0.76	correct	repeat	Run3	repeat/STIM_010.jpg
2512.132	0.495	correct	repeat	Run3	repeat/STIM_010.jpg
2515.133	0.935	correct	repeat	Run3	repeat/STIM_011.jpg
2520.05	0.691	correct	repeat	Run3	repeat/STIM_011.jpg
2523.109	0.677	correct	repeat	Run3	repeat/STIM_011.jpg
2526.274	0.886	correct	repeat	Run3	repeat/STIM_011.jpg
2529.944	0.946	correct	repeat	Run3	repeat/STIM_011.jpg
2533.847	0.95	correct	repeat	Run3	repeat/STIM_012.jpg
2537.24	0.762	correct	repeat	Run3	repeat/STIM_012.jpg
2541.505	0.79	correct	repeat	Run3	repeat/STIM_012.jpg
2544.744	0.581	correct	repeat	Run3	repeat/STIM_012.jpg
2548.433	0.822	correct	repeat	Run3	repeat/STIM_012.jpg
2551.355	0.782	correct	repeat	Run3	repeat/STIM_013.jpg
2554.675	0.839	incorrect	repeat	Run3	repeat/STIM_013.jpg
2559.298	0.646	correct	repeat	Run3	repeat/STIM_013.jpg
2562.135	0.742	correct	repeat	Run3	repeat/STIM_013.jpg
2565.146	0.573	correct	repeat	Run3	repeat/STIM_013.jpg
2567.745	0.533	correct	repeat	Run3	repeat/STIM_014.jpg
2571.155	1.032	correct	repeat	Run3	repeat/STIM_014.jpg
2575.333	0.545	correct	repeat	Run3	repeat/STIM_014.jpg
2579.461	0.88	correct	repeat	Run3	repeat/STIM_014.jpg
2583.834	0.59	correct	repeat	Run3	repeat/STIM_014.jpg
2588.382	1.42	correct	generate	Run4	generate/STIM_000.jpg
2592.149	1.835	correct	generate	Run4	generate/STIM_000.jpg
2596.073	0.98	correct	generate	Run4	generate/STIM_000.jpg
2599.246	1.635	correct	generate	Run4	generate/STIM_000.jpg
2604.177	2.087	correct	generate	Run4	generate/STIM_000.jpg
2609.018	1.663	correct	generate	Run4	generate/STIM_001.jpg
2614.098	1.232	correct	generate	Run4	generate/STIM_001.jpg
2618.687	2.048	correct	generate	Run4	generate/STIM_001.jpg
2624.265	1.308	correct	generate	Run4	generate/STIM_001.jpg
2628.314	2.074	correct	generate	Run4	generate/STIM_001.jpg
2634.276	1.448	correct	generate	Run4	generate/STIM_002.jpg
2639.208	1.289	correct	generate	Run4	generate/STIM_002.jpg
2644.286	0.914	incorrect	generate	Run4	generate/STIM_002.jpg
2647.901	2.087	correct	generate	Run4	generate/STIM_002.jpg
2653.298	1.032	correct	generate	Run4	generate/STIM_002.jpg
2656.824	1.237	correct	generate	Run4	generate/STIM_003.jpg
2661.366	1.304	correct	generate	Run4	generate/STIM_003.jpg
2664.865	1.439	correct	generate	Run4	generate/STIM_003.jpg
2669.867	1.697	correct	generate	Run4	generate/STIM_003.jpg
2675.068	1.05	correct	generate	Run4	generate/STIM_003.jpg
2679.583	2.028	correct	generate	Run4	generate/STIM_004.jpg
2683.989	0.937	correct	generate	Run4	generate/STIM_004.jpg
2688.165	1.456	correct	generate	Run4	generate/STIM_004.jpg
2691.813	1.13	correct	generate	Run4	generate/STIM_004.jpg
2695.016	1.8	correct	generate	Run4	generate/STIM_004.jpg
2700.63	1.056	correct	generate	Run4	generate/STIM_005.jpg
2703.984	1.473	correct	generate	Run4	generate/STIM_005.jpg
2709.192	1.853	correct	generate	Run4	generate/STIM_005.jpg
2713.793	0.941	correct	generate	Run4	generate/STIM_005.jpg
2718.004	1.961	correct	generate	Run4	generate/STIM_005.jpg
2722.604	2.152	correct	generate	Run4	generate/STIM_006.jpg
2728.28	1.664	correct	generate	Run4	generate/STIM_006.jpg
2732.757	1.812	correct	generate	Run4	generate/STIM_006.jpg
2736.469	1.527	correct	generate	Run4	generate/STIM_006.jpg
2740.941	0.892	correct	generate	Run4	generate/STIM_006.jpg
2744.075	1.181	correct	generate	Run4	generate/STIM_007.jpg
2748.048	0.977	correct	generate	Run4	generate/STIM_007.jpg
2752.235	1.45	correct	generate	Run4	generate/STIM_007.jpg
2756.005	1.809	correct	generate	Run4	generate/STIM_007.jpg
2760.807	1.972	correct	generate	Run4	generate/STIM_007.jpg
2765.265	0.918	correct	generate	Run4	generate/STIM_008.jpg
2768.648	1.424	correct	generate	Run4	generate/STIM_008.jpg
2773.23	1.387	correct	generate	Run4	generate/STIM_008.jpg
2776.742	1.493	correct	generate	Run4	generate/STIM_008.jpg
2782.147	1.684	correct	generate	Run4	generate/STIM_008.jpg
2787.361	1.716	correct	generate	Run4	generate/STIM_009.jpg
2791.202	1.181	correct	generate	Run4	generate/STIM_009.jpg
2795.576	1.214	correct	generate	Run4	generate/STIM_009.jpg
2800.614	2.126	correct	generate	Run4	generate/STIM_009.jpg
2805.945	2.087	correct	generate	Run4	generate/STIM_009.jpg
2811.388	2.141	correct	generate	Run4	generate/STIM_010.jpg
2817.013	1.413	correct	generate	Run4	generate/STIM_010.jpg
2821.207	1.632	correct	generate	Run4	generate/STIM_010.jpg
2825.787	1.12	correct	generate	Run4	generate/STIM_010.jpg
2830.026	1.157	correct	generate	Run4	generate/STIM_010.jpg
2835.115	1.112	correct	generate	Run4	generate/STIM_011.jpg
2840.199	1.095	correct	generate	Run4	generate/STIM_011.jpg
2845.135	1.138	correct	generate	Run4	generate/STIM_011.jpg
2848.967	1.952	correct	generate	Run4	generate/STIM_011.jpg
2854.04	0.99	correct	generate	Run4	generate/STIM_011.jpg
2857.946	1.275	correct	generate	Run4	generate/STIM_012.jpg
2861.512	2.026	correct	generate	Run4	generate/STIM_012.jpg
2866.558	1.485	correct	generate	Run4	generate/STIM_012.jpg
2871.723	1.609	correct	generate	Run4	generate/STIM_012.jpg
2876.065	1.947	correct	generate	Run4	generate/STIM_012.jpg
2880.278	1.268	correct	generate	Run4	generate/STIM_013.jpg
2884.511	1.293	correct	generate	Run4	generate/STIM_013.jpg
2888.06	1.395	correct	generate	Run4	generate/STIM_013.jpg
2891.737	1.783	correct	generate	Run4	generate/STIM_013.jpg
2895.813	1.606	correct	generate	Run4	generate/STIM_013.jpg
2900.344	1.752	correct	generate	Run4	generate/STIM_014.jpg
2906.03	1.645	correct	generate	Run4	generate/STIM_014.jpg
2910.487	1.106	correct	generate	Run4	generate/STIM_014.jpg
2915.346	2.022	correct	generate	Run4	generate/STIM_014.jpg
2919.468	1.586	correct	generate	Run4	generate/STIM_014.jpg
2923.369	1.993	correct	generate	Run4	generate/STIM_015.jpg
2928.777	1.45	correct	generate	Run4	generate/STIM_015.jpg
2933.473	1.969	correct	generate	Run4	generate/STIM_015.jpg
2937.585	1.002	correct	generate	Run4	generate/STIM_015.jpg
2941.751	2.001	correct	generate	Run4	generate/STIM_015.jpg
2946.682	1.721	correct	generate	Run4	generate/STIM_016.jpg
2951.618	0.851	correct	generate	Run4	generate/STIM_016.jpg
2954.683	1.063	correct	generate	Run4	generate/STIM_016.jpg
2959.137	0.984	correct	generate	Run4	generate/STIM_016.jpg
2962.779	1.365	correct	generate	Run4	generate/STIM_016.jpg
2968.128	1.466	correct	generate	Run4	generate/STIM_017.jpg
2973.449	1.22	correct	generate	Run4	generate/STIM_017.jpg
2978.45	0.909	correct	generate	Run4	generate/STIM_017.jpg
2982.939	1.942	correct	generate	Run4	generate/STIM_017.jpg
2987.587	0.892	correct	generate	Run4	generate/STIM_017.jpg
2991.658	1.704	correct	generate	Run4	generate/STIM_018.jpg
2996.81	1.359	correct	generate	Run4	generate/STIM_018.jpg
3001.734	1.062	correct	generate	Run4	generate/STIM_018.jpg
3005.964	1.043	correct	generate	Run4	generate/STIM_018.jpg
3010.966	0.852	correct	generate	Run4	generate/STIM_018.jpg
3015.33	1.904	correct	generate	Run4	generate/STIM_019.jpg
3020.998	1.662	correct	generate	Run4	generate/STIM_019.jpg
3025.696	1.873	correct	generate	Run4	generate/STIM_019.jpg
3030.146	1.019	correct	generate	Run4	generate/STIM_019.jpg
3033.277	0.966	correct	generate	Run4	generate/STIM_019.jpg
3036.95	2.06	correct	generate	Run4	generate/STIM_020.jpg
3040.96	1.801	correct	generate	Run4	generate/STIM_020.jpg
3044.8	2.152	correct	generate	Run4	generate/STIM_020.jpg
3050.31	1.428	correct	generate	Run4	generate/STIM_020.jpg
3054.727	1.378	correct	generate	Run4	generate/STIM_020.jpg
3058.664	1.969	correct	generate	Run4	generate/STIM_021.jpg
3064.358	0.916	correct	generate	Run4	generate/STIM_021.jpg
3068.536	1.711	correct	generate	Run4	generate/STIM_021.jpg
3072.749	1.816	correct	generate	Run4	generate/STIM_021.jpg
3077.779	1.155	correct	generate	Run4	generate/STIM_021.jpg
3081.691	2.002	correct	generate	Run4	generate/STIM_022.jpg
3085.786	1.209	correct	generate	Run4	generate/STIM_022.jpg
3089.365	2.047	correct	generate	Run4	generate/STIM_022.jpg
3094.839	1.116	correct	generate	Run4	generate/STIM_022.jpg
3098.62	1.535	correct	generate	Run4	generate/STIM_022.jpg
3103.358	1.309	correct	generate	Run4	generate/STIM_023.jpg
3107.469	1.646	correct	generate	Run4	generate/STIM_023.jpg
3112.509	1.908	correct	generate	Run4	generate/STIM_023.jpg
3116.384	1.821	correct	generate	Run4	generate/STIM_023.jpg
3121.751	1.032	correct	generate	Run4	generate/STIM_023.jpg
3125.398	1.239	correct	generate	Run4	generate/STIM_024.jpg
3128.933	2.077	correct	generate	Run4	generate/STIM_024.jpg
3134.644	1.217	correct	generate	Run4	generate/STIM_024.jpg
3138.745	1.285	correct	generate	Run4	generate/STIM_024.jpg
3143.79	1.635	correct	generate	Run4	generate/STIM_024.jpg
3148.387	0.819	correct	repeat	Run4	repeat/STIM_000.jpg
3152.296	0.807	correct	repeat	Run4	repeat/STIM_000.jpg
3155.843	0.674	correct	repeat	Run4	repeat/STIM_000.jpg
3159.563	0.692	correct	repeat	Run4	repeat/STIM_000.jpg
3163.187	0.794	correct	repeat	Run4	repeat/STIM_000.jpg
3166.089	0.664	correct	repeat	Run4	repeat/STIM_001.jpg
3169.775	0.874	incorrect	repeat	Run4	repeat/STIM_001.jpg
3173.365	0.839	correct	repeat	Run4	repeat/STIM_001.jpg
3176.25	0.71	correct	repeat	Run4	repeat/STIM_001.jpg
3179.557	0.51	correct	repeat	Run4	repeat/STIM_001.jpg
3183.247	0.67	correct	repeat	Run4	repeat/STIM_002.jpg
3186.686	0.627	correct	repeat	Run4	repeat/STIM_002.jpg
3189.588	0.979	correct	repeat	Run4	repeat/STIM_002.jpg
3194.381	0.911	correct	repeat	Run4	repeat/STIM_002.jpg
3199.141	0.654	correct	repeat	Run4	repeat/STIM_002.jpg
3202.901	0.592	correct	repeat	Run4	repeat/STIM_003.jpg
3206.778	0.934	correct	repeat	Run4	repeat/STIM_003.jpg
3211.582	0.478	correct	repeat	Run4	repeat/STIM_003.jpg
3214.958	0.51	correct	repeat	Run4	repeat/STIM_003.jpg
3218.005	0.575	correct	repeat	Run4	repeat/STIM_003.jpg
3221.345	0.605	correct	repeat	Run4	repeat/STIM_004.jpg
3225.468	0.672	correct	repeat	Run4	repeat/STIM_004.jpg
3228.295	0.503	correct	repeat	Run4	repeat/STIM_004.jpg
3230.995	0.669	correct	repeat	Run4	repeat/STIM_004.jpg
3234.332	0.656	incorrect	repeat	Run4	repeat/STIM_004.jpg
3237.708	0.638	correct	repeat	Run4	repeat/STIM_005.jpg
3241.511	0.651	correct	repeat	Run4	repeat/STIM_005.jpg
3244.94	0.9	correct	repeat	Run4	repeat/STIM_005.jpg
3248.109	0.545	correct	repeat	Run4	repeat/STIM_005.jpg
3252.153	1.072	correct	repeat	Run4	repeat/STIM_005.jpg
3256.506	0.616	correct	repeat	Run4	repeat/STIM_006.jpg
3260.638	0.95	correct	repeat	Run4	repeat/STIM_006.jpg
3265.246	0.559	correct	repeat	Run4	repeat/STIM_006.jpg
3268.599	0.907	correct	repeat	Run4	repeat/STIM_006.jpg
3271.972	0.681	correct	repeat	Run4	repeat/STIM_006.jpg
3275.83	0.927	correct	repeat	Run4	repeat/STIM_007.jpg
3279.864	0.844	correct	repeat	Run4	repeat/STIM_007.jpg
3284.203	0.961	correct	repeat	Run4	repeat/STIM_007.jpg
3288.96	0.676	correct	repeat	Run4	repeat/STIM_007.jpg
3292.23	0.98	correct	repeat	Run4	repeat/STIM_007.jpg
3296.971	0.862	correct	repeat	Run4	repeat/STIM_008.jpg
3301.864	0.805	correct	repeat	Run4	repeat/STIM_008.jpg
3305.093	0.96	correct	repeat	Run4	repeat/STIM_008.jpg
3309.298	0.556	incorrect	repeat	Run4	repeat/STIM_008.jpg
3313.373	0.721	correct	repeat	Run4	repeat/STIM_008.jpg
3316.862	0.708	correct	repeat	Run4	repeat/STIM_009.jpg
3321.181	0.651	correct	repeat	Run4	repeat/STIM_009.jpg
3325.456	0.807	correct	repeat	Run4	repeat/STIM_009.jpg
3330.042	0.946	correct	repeat	Run4	repeat/STIM_009.jpg
3333.896	0.942	correct	repeat	Run4	repeat/STIM_009.jpg
3337.788	0.687	correct	repeat	Run4	repeat/STIM_010.jpg
3340.463	0.588	correct	repeat	Run4	repeat/STIM_010.jpg
3344.657	0.598	correct	repeat	Run4	repeat/STIM_010.jpg
3348.144	0.934	correct	repeat	Run4	repeat/STIM_010.jpg
3351.21	0.97	correct	repeat	Run4	repeat/STIM_010.jpg
3354.817	0.675	correct	repeat	Run4	repeat/STIM_011.jpg
3357.59	0.994	correct	repeat	Run4	repeat/STIM_011.jpg
3361.665	0.687	correct	repeat	Run4	repeat/STIM_011.jpg
3365.169	0.977	correct	repeat	Run4	repeat/STIM_011.jpg
3368.327	0.971	correct	repeat	Run4	repeat/STIM_011.jpg
3371.454	0.67	correct	repeat	Run4	repeat/STIM_012.jpg
3375.282	0.91	correct	repeat	Run4	repeat/STIM_012.jpg
3379.942	0.965	correct	repeat	Run4	repeat/STIM_012.jpg
3383.015	0.778	correct	repeat	Run4	repeat/STIM_012.jpg
3386.154	0.855	correct	repeat	Run4	repeat/STIM_012.jpg
3389.53	0.601	correct	repeat	Run4	repeat/STIM_013.jpg
3393.885	0.969	correct	repeat	Run4	repeat/STIM_013.jpg
3396.901	0.612	correct	repeat	Run4	repeat/STIM_013.jpg
3400.618	0.574	correct	repeat	Run4	repeat/STIM_013.jpg
3404.291	0.646	correct	repeat	Run4	repeat/STIM_013.jpg
3408.63	0.971	correct	repeat	Run4	repeat/STIM_014.jpg
3411.697	0.824	incorrect	repeat	Run4	repeat/STIM_014.jpg
3415.564	0.857	correct	repeat	Run4	repeat/STIM_014.jpg
3419.905	0.594	correct	repeat	Run4	repeat/STIM_014.jpg
3422.72	0.527	correct	repeat	Run4	repeat/STIM_014.jpg
