onset	duration	accuracy	trial_type	learning_stage	stimulus
0.0	1.85	correct	generate	Run1	generate/STIM_000.jpg
5.098	1.8	correct	generate	Run1	generate/STIM_000.jpg
10.873	1.2	incorrect	generate	Run1	generate/STIM_000.jpg
15.379	1.592	correct	generate	Run1	generate/STIM_000.jpg
18.996	2.101	incorrect	generate	Run1	generate/STIM_000.jpg
23.239	2.001	incorrect	generate	Run1	generate/STIM_001.jpg
27.573	1.265	incorrect	generate	Run1	generate/STIM_001.jpg
31.778	2.181	correct	generate	Run1	generate/STIM_001.jpg
36.765	2.152	correct	generate	Run1	generate/STIM_001.jpg
41.368	1.032	correct	generate	Run1	generate/STIM_001.jpg
45.462	2.016	correct	generate	Run1	generate/STIM_002.jpg
50.645	2.706	correct	generate	Run1	generate/STIM_002.jpg
55.524	2.057	correct	generate	Run1	generate/STIM_002.jpg
61.103	1.016	correct	generate	Run1	generate/STIM_002.jpg
64.892	2.165	correct	generate	Run1	generate/STIM_002.jpg
69.446	1.754	incorrect	generate	Run1	generate/STIM_003.jpg
74.394	1.133	correct	generate	Run1	generate/STIM_003.jpg
79.38	1.766	correct	generate	Run1	generate/STIM_003.jpg
83.623	2.271	correct	generate	Run1	generate/STIM_003.jpg
89.226	1.92	correct	generate	Run1	generate/STIM_003.jpg
94.181	1.892	correct	generate	Run1	generate/STIM_004.jpg
99.521	1.78	correct	generate	Run1	generate/STIM_004.jpg
104.227	1.993	correct	generate	Run1	generate/STIM_004.jpg
108.33	2.329	correct	generate	Run1	generate/STIM_004.jpg
112.861	1.3	correct	generate	Run1	generate/STIM_004.jpg
116.608	1.86	incorrect	generate	Run1	generate/STIM_005.jpg
120.987	2.247	incorrect	generate	Run1	generate/STIM_005.jpg
126.766	1.66	incorrect	generate	Run1	generate/STIM_005.jpg
130.88	1.106	correct	generate	Run1	generate/STIM_005.jpg
134.526	1.986	incorrect	generate	Run1	generate/STIM_005.jpg
139.457	2.843	incorrect	generate	Run1	generate/STIM_006.jpg
145.358	2.269	correct	generate	Run1	generate/STIM_006.jpg
150.559	1.3	incorrect	generate	Run1	generate/STIM_006.jpg
155.167	1.068	incorrect	generate	Run1	generate/STIM_006.jpg
159.055	1.54	correct	generate	Run1	generate/STIM_006.jpg
164.234	1.302	incorrect	generate	Run1	generate/STIM_007.jpg
169.432	1.272	incorrect	generate	Run1	generate/STIM_007.jpg
172.707	2.523	incorrect	generate	Run1	generate/STIM_007.jpg
177.235	1.535	correct	generate	Run1	generate/STIM_007.jpg
181.705	1.672	correct	generate	Run1	generate/STIM_007.jpg
186.1	1.81	incorrect	generate	Run1	generate/STIM_008.jpg
191.73	2.423	correct	generate	Run1	generate/STIM_008.jpg
197.422	2.281	correct	generate	Run1	generate/STIM_008.jpg
203.443	1.379	correct	generate	Run1	generate/STIM_008.jpg
207.115	1.352	correct	generate	Run1	generate/STIM_008.jpg
210.642	2.669	correct	generate	Run1	generate/STIM_009.jpg
217.177	1.434	incorrect	generate	Run1	generate/STIM_009.jpg
222.569	1.164	correct	generate	Run1	generate/STIM_009.jpg
225.809	1.778	correct	generate	Run1	generate/STIM_009.jpg
229.851	1.91	correct	generate	Run1	generate/STIM_009.jpg
233.98	1.755	correct	generate	Run1	generate/STIM_010.jpg
239.218	1.141	incorrect	generate	Run1	generate/STIM_010.jpg
242.492	1.382	correct	generate	Run1	generate/STIM_010.jpg
247.407	2.458	correct	generate	Run1	generate/STIM_010.jpg
252.424	1.399	correct	generate	Run1	generate/STIM_010.jpg
255.956	1.686	incorrect	generate	Run1	generate/STIM_011.jpg
260.251	2.28	incorrect	generate	Run1	generate/STIM_011.jpg
264.534	1.947	incorrect	generate	Run1	generate/STIM_011.jpg
269.503	1.449	correct	generate	Run1	generate/STIM_011.jpg
274.802	1.475	incorrect	generate	Run1	generate/STIM_011.jpg
280.173	1.174	correct	generate	Run1	generate/STIM_012.jpg
284.185	1.359	incorrect	generate	Run1	generate/STIM_012.jpg
288.189	2.405	correct	generate	Run1	generate/STIM_012.jpg
294.387	1.76	correct	generate	Run1	generate/STIM_012.jpg
300.041	1.246	correct	generate	Run1	generate/STIM_012.jpg
305.113	1.762	correct	generate	Run1	generate/STIM_013.jpg
309.092	2.172	correct	generate	Run1	generate/STIM_013.jpg
313.757	1.735	incorrect	generate	Run1	generate/STIM_013.jpg
318.119	2.455	correct	generate	Run1	generate/STIM_013.jpg
322.923	1.986	incorrect	generate	Run1	generate/STIM_013.jpg
328.458	1.963	correct	generate	Run1	generate/STIM_014.jpg
334.068	1.418	correct	generate	Run1	generate/STIM_014.jpg
337.981	2.479	correct	generate	Run1	generate/STIM_014.jpg
344.166	2.459	correct	generate	Run1	generate/STIM_014.jpg
350.218	2.086	correct	generate	Run1	generate/STIM_014.jpg
355.715	2.001	incorrect	generate	Run1	generate/STIM_015.jpg
360.748	2.524	correct	generate	Run1	generate/STIM_015.jpg
365.423	2.365	correct	generate	Run1	generate/STIM_015.jpg
370.605	1.436	correct	generate	Run1	generate/STIM_015.jpg
376.034	1.46	correct	generate	Run1	generate/STIM_015.jpg
381.167	1.776	correct	generate	Run1	generate/STIM_016.jpg
385.109	1.19	correct	generate	Run1	generate/STIM_016.jpg
389.062	2.264	correct	generate	Run1	generate/STIM_016.jpg
395.163	1.739	incorrect	generate	Run1	generate/STIM_016.jpg
400.067	1.685	correct	generate	Run1	generate/STIM_016.jpg
405.216	1.777	correct	generate	Run1	generate/STIM_017.jpg
409.554	1.692	incorrect	generate	Run1	generate/STIM_017.jpg
413.544	1.17	incorrect	generate	Run1	generate/STIM_017.jpg
417.397	2.23	incorrect	generate	Run1	generate/STIM_017.jpg
422.113	1.81	correct	generate	Run1	generate/STIM_017.jpg
426.561	2.33	incorrect	generate	Run1	generate/STIM_018.jpg
432.502	1.677	incorrect	generate	Run1	generate/STIM_018.jpg
437.352	1.44	correct	generate	Run1	generate/STIM_018.jpg
441.656	2.02	correct	generate	Run1	generate/STIM_018.jpg
447.302	1.128	correct	generate	Run1	generate/STIM_018.jpg
451.791	2.858	correct	generate	Run1	generate/STIM_019.jpg
457.33	2.498	correct	generate	Run1	generate/STIM_019.jpg
461.847	1.576	incorrect	generate	Run1	generate/STIM_019.jpg
465.44	1.832	incorrect	generate	Run1	generate/STIM_019.jpg
470.632	0.987	correct	generate	Run1	generate/STIM_019.jpg
474.091	1.974	incorrect	generate	Run1	generate/STIM_020.jpg
479.653	1.24	incorrect	generate	Run1	generate/STIM_020.jpg
484.817	1.676	correct	generate	Run1	generate/STIM_020.jpg
488.557	2.382	correct	generate	Run1	generate/STIM_020.jpg
493.441	1.604	correct	generate	Run1	generate/STIM_020.jpg
498.277	1.994	incorrect	generate	Run1	generate/STIM_021.jpg
502.541	1.225	incorrect	generate	Run1	generate/STIM_021.jpg
506.881	2.014	correct	generate	Run1	generate/STIM_021.jpg
511.023	1.686	correct	generate	Run1	generate/STIM_021.jpg
516.606	1.395	correct	generate	Run1	generate/STIM_021.jpg
521.923	2.601	incorrect	generate	Run1	generate/STIM_022.jpg
527.326	1.179	correct	generate	Run1	generate/STIM_022.jpg
532.346	1.896	incorrect	generate	Run1	generate/STIM_022.jpg
538.135	1.675	incorrect	generate	Run1	generate/STIM_022.jpg
542.496	1.899	correct	generate	Run1	generate/STIM_022.jpg
546.72	2.538	incorrect	generate	Run1	generate/STIM_023.jpg
551.373	2.319	correct	generate	Run1	generate/STIM_023.jpg
556.259	1.045	correct	generate	Run1	generate/STIM_023.jpg
560.705	1.326	correct	generate	Run1	generate/STIM_023.jpg
565.181	2.18	correct	generate	Run1	generate/STIM_023.jpg
571.234	1.757	correct	generate	Run1	generate/STIM_024.jpg
575.836	1.867	incorrect	generate	Run1	generate/STIM_024.jpg
580.588	1.498	incorrect	generate	Run1	generate/STIM_024.jpg
584.715	2.412	correct	generate	Run1	generate/STIM_024.jpg
590.761	1.378	incorrect	generate	Run1	generate/STIM_024.jpg
595.207	0.543	correct	repeat	Run1	repeat/STIM_000.jpg
598.183	0.604	correct	repeat	Run1	repeat/STIM_000.jpg
601.217	0.812	correct	repeat	Run1	repeat/STIM_000.jpg
605.091	0.522	correct	repeat	Run1	repeat/STIM_000.jpg
608.012	0.947	correct	repeat	Run1	repeat/STIM_000.jpg
611.928	0.892	correct	repeat	Run1	repeat/STIM_001.jpg
615.06	0.835	correct	repeat	Run1	repeat/STIM_001.jpg
619.626	0.81	correct	repeat	Run1	repeat/STIM_001.jpg
622.805	0.863	correct	repeat	Run1	repeat/STIM_001.jpg
627.598	0.742	incorrect	repeat	Run1	repeat/STIM_001.jpg
630.777	0.828	correct	repeat	Run1	repeat/STIM_002.jpg
635.059	0.702	correct	repeat	Run1	repeat/STIM_002.jpg
638.453	0.85	correct	repeat	Run1	repeat/STIM_002.jpg
642.104	0.848	correct	repeat	Run1	repeat/STIM_002.jpg
645.724	0.773	correct	repeat	Run1	repeat/STIM_002.jpg
650.056	0.706	correct	repeat	Run1	repeat/STIM_003.jpg
654.618	0.722	correct	repeat	Run1	repeat/STIM_003.jpg
657.378	0.733	correct	repeat	Run1	repeat/STIM_003.jpg
661.789	0.621	correct	repeat	Run1	repeat/STIM_003.jpg
665.759	0.922	correct	repeat	Run1	repeat/STIM_003.jpg
670.21	0.757	incorrect	repeat	Run1	repeat/STIM_004.jpg
673.676	0.826	correct	repeat	Run1	repeat/STIM_004.jpg
677.237	0.526	correct	repeat	Run1	repeat/STIM_004.jpg
681.449	0.822	correct	repeat	Run1	repeat/STIM_004.jpg
684.291	0.503	correct	repeat	Run1	repeat/STIM_004.jpg
687.971	0.765	correct	repeat	Run1	repeat/STIM_005.jpg
692.581	0.557	correct	repeat	Run1	repeat/STIM_005.jpg
697.121	0.683	correct	repeat	Run1	repeat/STIM_005.jpg
700.966	0.676	correct	repeat	Run1	repeat/STIM_005.jpg
704.957	0.546	correct	repeat	Run1	repeat/STIM_005.jpg
708.676	0.953	correct	repeat	Run1	repeat/STIM_006.jpg
713.535	0.71	correct	repeat	Run1	repeat/STIM_006.jpg
716.976	0.881	correct	repeat	Run1	repeat/STIM_006.jpg
719.974	0.599	correct	repeat	Run1	repeat/STIM_006.jpg
723.818	0.584	correct	repeat	Run1	repeat/STIM_006.jpg
727.792	0.894	incorrect	repeat	Run1	repeat/STIM_007.jpg
732.444	0.734	correct	repeat	Run1	repeat/STIM_007.jpg
735.192	0.854	correct	repeat	Run1	repeat/STIM_007.jpg
738.252	0.893	correct	repeat	Run1	repeat/STIM_007.jpg
742.762	0.58	correct	repeat	Run1	repeat/STIM_007.jpg
745.922	0.514	correct	repeat	Run1	repeat/STIM_008.jpg
748.581	0.815	correct	repeat	Run1	repeat/STIM_008.jpg
751.515	0.581	correct	repeat	Run1	repeat/STIM_008.jpg
755.124	0.597	incorrect	repeat	Run1	repeat/STIM_008.jpg
759.161	0.904	correct	repeat	Run1	repeat/STIM_008.jpg
763.079	0.537	correct	repeat	Run1	repeat/STIM_009.jpg
766.847	0.875	correct	repeat	Run1	repeat/STIM_009.jpg
771.647	0.55	correct	repeat	Run1	repeat/STIM_009.jpg
774.288	0.9	correct	repeat	Run1	repeat/STIM_009.jpg
777.897	0.69	correct	repeat	Run1	repeat/STIM_009.jpg
781.367	0.5	correct	repeat	Run1	repeat/STIM_010.jpg
784.723	0.838	correct	repeat	Run1	repeat/STIM_010.jpg
788.564	0.556	correct	repeat	Run1	repeat/STIM_010.jpg
792.87	0.689	correct	repeat	Run1	repeat/STIM_010.jpg
797.271	0.869	correct	repeat	Run1	repeat/STIM_010.jpg
800.332	0.592	incorrect	repeat	Run1	repeat/STIM_011.jpg
803.027	0.757	correct	repeat	Run1	repeat/STIM_011.jpg
805.901	0.509	correct	repeat	Run1	repeat/STIM_011.jpg
809.708	0.962	incorrect	repeat	Run1	repeat/STIM_011.jpg
814.029	0.513	correct	repeat	Run1	repeat/STIM_011.jpg
818.333	0.495	correct	repeat	Run1	repeat/STIM_012.jpg
822.2	0.665	incorrect	repeat	Run1	repeat/STIM_012.jpg
825.627	0.537	correct	repeat	Run1	repeat/STIM_012.jpg
828.2	0.858	correct	repeat	Run1	repeat/STIM_012.jpg
831.792	0.744	correct	repeat	Run1	repeat/STIM_012.jpg
835.446	0.772	correct	repeat	Run1	repeat/STIM_013.jpg
838.514	0.674	correct	repeat	Run1	repeat/STIM_013.jpg
841.254	0.848	correct	repeat	Run1	repeat/STIM_013.jpg
845.466	0.651	correct	repeat	Run1	repeat/STIM_013.jpg
849.447	0.498	correct	repeat	Run1	repeat/STIM_013.jpg
852.756	0.952	correct	repeat	Run1	repeat/STIM_014.jpg
856.466	0.738	correct	repeat	Run1	repeat/STIM_014.jpg
859.924	0.665	correct	repeat	Run1	repeat/STIM_014.jpg
864.389	0.952	correct	repeat	Run1	repeat/STIM_014.jpg
868.793	0.8	correct	repeat	Run1	repeat/STIM_014.jpg
872.471	2.025	correct	generate	Run2	generate/STIM_000.jpg
876.876	1.856	correct	generate	Run2	generate/STIM_000.jpg
882.135	1.391	correct	generate	Run2	generate/STIM_000.jpg
886.782	1.422	correct	generate	Run2	generate/STIM_000.jpg
891.246	1.458	incorrect	generate	Run2	generate/STIM_000.jpg
896.443	1.972	correct	generate	Run2	generate/STIM_001.jpg
901.446	1.392	correct	generate	Run2	generate/STIM_001.jpg
906.801	1.875	incorrect	generate	Run2	generate/STIM_001.jpg
910.708	1.562	incorrect	generate	Run2	generate/STIM_001.jpg
915.928	0.994	correct	generate	Run2	generate/STIM_001.jpg
919.682	1.985	correct	generate	Run2	generate/STIM_002.jpg
925.428	1.146	correct	generate	Run2	generate/STIM_002.jpg
929.781	1.031	incorrect	generate	Run2	generate/STIM_002.jpg
933.732	0.98	correct	generate	Run2	generate/STIM_002.jpg
937.827	1.637	correct	generate	Run2	generate/STIM_002.jpg
943.048	1.605	correct	generate	Run2	generate/STIM_003.jpg
947.687	1.511	correct	generate	Run2	generate/STIM_003.jpg
952.192	1.985	correct	generate	Run2	generate/STIM_003.jpg
957.112	1.647	correct	generate	Run2	generate/STIM_003.jpg
962.656	1.25	correct	generate	Run2	generate/STIM_003.jpg
967.466	1.904	correct	generate	Run2	generate/STIM_004.jpg
971.683	1.832	correct	generate	Run2	generate/STIM_004.jpg
977.343	1.163	correct	generate	Run2	generate/STIM_004.jpg
982.309	1.872	correct	generate	Run2	generate/STIM_004.jpg
987.541	0.862	incorrect	generate	Run2	generate/STIM_004.jpg
991.607	2.043	correct	generate	Run2	generate/STIM_005.jpg
996.181	1.493	correct	generate	Run2	generate/STIM_005.jpg
999.765	1.44	correct	generate	Run2	generate/STIM_005.jpg
1005.006	0.836	correct	generate	Run2	generate/STIM_005.jpg
1009.17	1.651	correct	generate	Run2	generate/STIM_005.jpg
1014.437	1.747	correct	generate	Run2	generate/STIM_006.jpg
1019.622	0.962	correct	generate	Run2	generate/STIM_006.jpg
1023.846	1.496	incorrect	generate	Run2	generate/STIM_006.jpg
1029.104	1.454	correct	generate	Run2	generate/STIM_006.jpg
1034.147	1.316	correct	generate	Run2	generate/STIM_006.jpg
1038.157	1.516	correct	generate	Run2	generate/STIM_007.jpg
1043.103	2.275	correct	generate	Run2	generate/STIM_007.jpg
1048.129	1.966	incorrect	generate	Run2	generate/STIM_007.jpg
1053.561	1.37	correct	generate	Run2	generate/STIM_007.jpg
1057.667	0.824	correct	generate	Run2	generate/STIM_007.jpg
1062.452	1.724	correct	generate	Run2	generate/STIM_008.jpg
1067.68	1.818	correct	generate	Run2	generate/STIM_008.jpg
1073.169	1.548	correct	generate	Run2	generate/STIM_008.jpg
1076.722	1.585	correct	generate	Run2	generate/STIM_008.jpg
1080.542	0.923	incorrect	generate	Run2	generate/STIM_008.jpg
1085.337	2.001	correct	generate	Run2	generate/STIM_009.jpg
1089.884	2.254	incorrect	generate	Run2	generate/STIM_009.jpg
1096.132	1.356	correct	generate	Run2	generate/STIM_009.jpg
1100.776	1.242	correct	generate	Run2	generate/STIM_009.jpg
1104.519	1.254	correct	generate	Run2	generate/STIM_009.jpg
1108.032	1.791	incorrect	generate	Run2	generate/STIM_010.jpg
1113.012	1.278	correct	generate	Run2	generate/STIM_010.jpg
1116.84	1.103	correct	generate	Run2	generate/STIM_010.jpg
1120.945	1.34	correct	generate	Run2	generate/STIM_010.jpg
1124.587	1.122	correct	generate	Run2	generate/STIM_010.jpg
1129.611	1.182	correct	generate	Run2	generate/STIM_011.jpg
1133.077	1.611	incorrect	generate	Run2	generate/STIM_011.jpg
1136.785	1.896	correct	generate	Run2	generate/STIM_011.jpg
1140.696	1.006	correct	generate	Run2	generate/STIM_011.jpg
1144.623	1.975	correct	generate	Run2	generate/STIM_011.jpg
1148.946	1.647	incorrect	generate	Run2	generate/STIM_012.jpg
1153.512	1.274	correct	generate	Run2	generate/STIM_012.jpg
1157.791	0.915	correct	generate	Run2	generate/STIM_012.jpg
1162.491	1.771	correct	generate	Run2	generate/STIM_012.jpg
1167.788	1.97	correct	generate	Run2	generate/STIM_012.jpg
1171.868	1.376	incorrect	generate	Run2	generate/STIM_013.jpg
1175.971	1.115	correct	generate	Run2	generate/STIM_013.jpg
1180.714	1.419	correct	generate	Run2	generate/STIM_013.jpg
1186.013	1.673	correct	generate	Run2	generate/STIM_013.jpg
1191.061	1.635	correct	generate	Run2	generate/STIM_013.jpg
1195.822	2.338	correct	generate	Run2	generate/STIM_014.jpg
1202.014	1.919	correct	generate	Run2	generate/STIM_014.jpg
1206.025	1.423	correct	generate	Run2	generate/STIM_014.jpg
1209.974	1.415	correct	generate	Run2	generate/STIM_014.jpg
1214.728	1.73	correct	generate	Run2	generate/STIM_014.jpg
1219.221	1.226	correct	generate	Run2	generate/STIM_015.jpg
1223.082	2.171	correct	generate	Run2	generate/STIM_015.jpg
1228.697	1.73	correct	generate	Run2	generate/STIM_015.jpg
1234.411	1.096	incorrect	generate	Run2	generate/STIM_015.jpg
1238.891	0.821	correct	generate	Run2	generate/STIM_015.jpg
1243.677	1.935	correct	generate	Run2	generate/STIM_016.jpg
1248.397	2.106	incorrect	generate	Run2	generate/STIM_016.jpg
1252.688	1.086	incorrect	generate	Run2	generate/STIM_016.jpg
1257.048	1.954	correct	generate	Run2	generate/STIM_016.jpg
1261.287	1.448	correct	generate	Run2	generate/STIM_016.jpg
1266.051	2.09	incorrect	generate	Run2	generate/STIM_017.jpg
1271.974	1.884	correct	generate	Run2	generate/STIM_017.jpg
1277.794	1.92	correct	generate	Run2	generate/STIM_017.jpg
1282.306	1.574	incorrect	generate	Run2	generate/STIM_017.jpg
1286.583	1.255	correct	generate	Run2	generate/STIM_017.jpg
1291.437	2.416	correct	generate	Run2	generate/STIM_018.jpg
1296.777	1.186	correct	generate	Run2	generate/STIM_018.jpg
1300.639	1.716	incorrect	generate	Run2	generate/STIM_018.jpg
1305.74	1.407	correct	generate	Run2	generate/STIM_018.jpg
1309.795	1.475	correct	generate	Run2	generate/STIM_018.jpg
1314.88	1.776	correct	generate	Run2	generate/STIM_019.jpg
1319.73	1.071	correct	generate	Run2	generate/STIM_019.jpg
1323.773	1.782	incorrect	generate	Run2	generate/STIM_019.jpg
1327.993	1.179	correct	generate	Run2	generate/STIM_019.jpg
1332.953	1.69	correct	generate	Run2	generate/STIM_019.jpg
1336.792	2.101	correct	generate	Run2	generate/STIM_020.jpg
1342.372	1.166	correct	generate	Run2	generate/STIM_020.jpg
1346.055	1.597	correct	generate	Run2	generate/STIM_020.jpg
1351.384	1.723	correct	generate	Run2	generate/STIM_020.jpg
1355.391	1.368	correct	generate	Run2	generate/STIM_020.jpg
1360.6	2.112	correct	generate	Run2	generate/STIM_021.jpg
1366.294	2.26	correct	generate	Run2	generate/STIM_021.jpg
1370.639	1.761	correct	generate	Run2	generate/STIM_021.jpg
1376.018	1.307	incorrect	generate	Run2	generate/STIM_021.jpg
1379.462	1.906	correct	generate	Run2	generate/STIM_021.jpg
1384.712	1.872	correct	generate	Run2	generate/STIM_022.jpg
1390.58	1.37	incorrect	generate	Run2	generate/STIM_022.jpg
1394.38	1.814	correct	generate	Run2	generate/STIM_022.jpg
1400.039	1.485	correct	generate	Run2	generate/STIM_022.jpg
1404.237	0.925	correct	generate	Run2	generate/STIM_022.jpg
1408.614	1.203	incorrect	generate	Run2	generate/STIM_023.jpg
1412.231	1.305	correct	generate	Run2	generate/STIM_023.jpg
1415.839	1.824	correct	generate	Run2	generate/STIM_023.jpg
1420.053	1.983	correct	generate	Run2	generate/STIM_023.jpg
1425.947	1.286	correct	generate	Run2	generate/STIM_023.jpg
1430.014	1.079	correct	generate	Run2	generate/STIM_024.jpg
1433.581	1.863	correct	generate	Run2	generate/STIM_024.jpg
1437.902	2.13	correct	generate	Run2	generate/STIM_024.jpg
1442.269	1.43	incorrect	generate	Run2	generate/STIM_024.jpg
1445.902	2.022	correct	generate	Run2	generate/STIM_024.jpg
1451.89	0.746	correct	repeat	Run2	repeat/STIM_000.jpg
1454.954	0.725	correct	repeat	Run2	repeat/STIM_000.jpg
1458.275	0.518	correct	repeat	Run2	repeat/STIM_000.jpg
1462.383	0.598	correct	repeat	Run2	repeat/STIM_000.jpg
1465.128	0.768	incorrect	repeat	Run2	repeat/STIM_000.jpg
1469.417	0.609	incorrect	repeat	Run2	repeat/STIM_001.jpg
1473.723	0.845	incorrect	repeat	Run2	repeat/STIM_001.jpg
1478.415	0.634	correct	repeat	Run2	repeat/STIM_001.jpg
1482.067	0.633	correct	repeat	Run2	repeat/STIM_001.jpg
1486.084	0.538	incorrect	repeat	Run2	repeat/STIM_001.jpg
1489.702	0.845	incorrect	repeat	Run2	repeat/STIM_002.jpg
1492.575	0.552	correct	repeat	Run2	repeat/STIM_002.jpg
1496.509	0.799	correct	repeat	Run2	repeat/STIM_002.jpg
1499.741	0.961	correct	repeat	Run2	repeat/STIM_002.jpg
1503.945	0.604	correct	repeat	Run2	repeat/STIM_002.jpg
1508.182	0.93	correct	repeat	Run2	repeat/STIM_003.jpg
1512.544	0.568	correct	repeat	Run2	repeat/STIM_003.jpg
1516.751	0.662	correct	repeat	Run2	repeat/STIM_003.jpg
1521.342	0.785	correct	repeat	Run2	repeat/STIM_003.jpg
1524.371	0.857	correct	repeat	Run2	repeat/STIM_003.jpg
1527.488	0.634	correct	repeat	Run2	repeat/STIM_004.jpg
1531.185	0.824	correct	repeat	Run2	repeat/STIM_004.jpg
1535.241	0.593	correct	repeat	Run2	repeat/STIM_004.jpg
1538.7	0.789	correct	repeat	Run2	repeat/STIM_004.jpg
1542.477	0.579	correct	repeat	Run2	repeat/STIM_004.jpg
1545.338	0.928	correct	repeat	Run2	repeat/STIM_005.jpg
1549.901	0.907	correct	repeat	Run2	repeat/STIM_005.jpg
1553.818	0.703	correct	repeat	Run2	repeat/STIM_005.jpg
1556.536	0.595	correct	repeat	Run2	repeat/STIM_005.jpg
1560.881	0.633	incorrect	repeat	Run2	repeat/STIM_005.jpg
1565.158	0.832	incorrect	repeat	Run2	repeat/STIM_006.jpg
1568.109	0.838	incorrect	repeat	Run2	repeat/STIM_006.jpg
1571.949	0.623	correct	repeat	Run2	repeat/STIM_006.jpg
1575.016	0.888	correct	repeat	Run2	repeat/STIM_006.jpg
1578.969	0.554	correct	repeat	Run2	repeat/STIM_006.jpg
1582.967	0.531	correct	repeat	Run2	repeat/STIM_007.jpg
1586.515	0.91	correct	repeat	Run2	repeat/STIM_007.jpg
1589.761	0.875	correct	repeat	Run2	repeat/STIM_007.jpg
1594.125	0.512	correct	repeat	Run2	repeat/STIM_007.jpg
1597.511	0.942	correct	repeat	Run2	repeat/STIM_007.jpg
1602.329	0.746	correct	repeat	Run2	repeat/STIM_008.jpg
1606.625	0.668	correct	repeat	Run2	repeat/STIM_008.jpg
1609.396	0.747	incorrect	repeat	Run2	repeat/STIM_008.jpg
1612.886	0.735	correct	repeat	Run2	repeat/STIM_008.jpg
1616.799	0.897	correct	repeat	Run2	repeat/STIM_008.jpg
1621.058	0.643	correct	repeat	Run2	repeat/STIM_009.jpg
1624.326	0.669	correct	repeat	Run2	repeat/STIM_009.jpg
1627.951	0.863	correct	repeat	Run2	repeat/STIM_009.jpg
1631.294	0.734	correct	repeat	Run2	repeat/STIM_009.jpg
1635.09	0.789	correct	repeat	Run2	repeat/STIM_009.jpg
1638.885	0.785	correct	repeat	Run2	repeat/STIM_010.jpg
1643.358	0.838	correct	repeat	Run2	repeat/STIM_010.jpg
1647.898	0.73	correct	repeat	Run2	repeat/STIM_010.jpg
1650.828	0.537	correct	repeat	Run2	repeat/STIM_010.jpg
1653.442	0.548	correct	repeat	Run2	repeat/STIM_010.jpg
1656.552	0.533	correct	repeat	Run2	repeat/STIM_011.jpg
1659.966	0.963	correct	repeat	Run2	repeat/STIM_011.jpg
1663.864	0.564	incorrect	repeat	Run2	repeat/STIM_011.jpg
1666.482	0.926	incorrect	repeat	Run2	repeat/STIM_011.jpg
1671.025	0.952	correct	repeat	Run2	repeat/STIM_011.jpg
1675.542	0.813	correct	repeat	Run2	repeat/STIM_012.jpg
1678.937	0.488	correct	repeat	Run2	repeat/STIM_012.jpg
1681.822	0.777	correct	repeat	Run2	repeat/STIM_012.jpg
1685.8	0.653	correct	repeat	Run2	repeat/STIM_012.jpg
1689.769	0.816	correct	repeat	Run2	repeat/STIM_012.jpg
1694.328	0.68	correct	repeat	Run2	repeat/STIM_013.jpg
1698.652	0.932	incorrect	repeat	Run2	repeat/STIM_013.jpg
1702.336	0.877	correct	repeat	Run2	repeat/STIM_013.jpg
1706.303	0.658	correct	repeat	Run2	repeat/STIM_013.jpg
1709.271	0.558	correct	repeat	Run2	repeat/STIM_013.jpg
1713.741	0.712	correct	repeat	Run2	repeat/STIM_014.jpg
1718.262	0.704	correct	repeat	Run2	repeat/STIM_014.jpg
1722.738	0.892	correct	repeat	Run2	repeat/STIM_014.jpg
1726.313	0.733	correct	repeat	Run2	repeat/STIM_014.jpg
1730.843	0.492	correct	repeat	Run2	repeat/STIM_014.jpg
1735.279	1.889	correct	generate	Run3	generate/STIM_000.jpg
1739.554	1.26	correct	generate	Run3	generate/STIM_000.jpg
1743.378	1.832	correct	generate	Run3	generate/STIM_000.jpg
1748.692	1.031	correct	generate	Run3	generate/STIM_000.jpg
1753.271	1.12	correct	generate	Run3	generate/STIM_000.jpg
1758.274	1.67	correct	generate	Run3	generate/STIM_001.jpg
1762.674	1.495	correct	generate	Run3	generate/STIM_001.jpg
1768.036	1.951	incorrect	generate	Run3	generate/STIM_001.jpg
1772.295	1.853	correct	generate	Run3	generate/STIM_001.jpg
1776.799	1.605	correct	generate	Run3	generate/STIM_001.jpg
1781.619	0.865	correct	generate	Run3	generate/STIM_002.jpg
1786.084	0.877	correct	generate	Run3	generate/STIM_002.jpg
1790.567	1.029	correct	generate	Run3	generate/STIM_002.jpg
1794.658	1.382	correct	generate	Run3	generate/STIM_002.jpg
1798.779	0.922	correct	generate	Run3	generate/STIM_002.jpg
1803.45	1.163	correct	generate	Run3	generate/STIM_003.jpg
1807.794	1.862	correct	generate	Run3	generate/STIM_003.jpg
1813.445	1.947	correct	generate	Run3	generate/STIM_003.jpg
1818.222	1.523	incorrect	generate	Run3	generate/STIM_003.jpg
1823.074	1.612	correct	generate	Run3	generate/STIM_003.jpg
1827.157	1.61	correct	generate	Run3	generate/STIM_004.jpg
1832.017	0.964	incorrect	generate	Run3	generate/STIM_004.jpg
1836.162	1.104	incorrect	generate	Run3	generate/STIM_004.jpg
1839.297	0.828	correct	generate	Run3	generate/STIM_004.jpg
1842.433	1.459	correct	generate	Run3	generate/STIM_004.jpg
1846.168	1.145	correct	generate	Run3	generate/STIM_005.jpg
1851.169	1.681	correct	generate	Run3	generate/STIM_005.jpg
1855.295	0.959	correct	generate	Run3	generate/STIM_005.jpg
1858.359	1.665	correct	generate	Run3	generate/STIM_005.jpg
1862.395	1.531	correct	generate	Run3	generate/STIM_005.jpg
1867.074	1.728	correct	generate	Run3	generate/STIM_006.jpg
1872.602	1.644	incorrect	generate	Run3	generate/STIM_006.jpg
1877.986	1.027	correct	generate	Run3	generate/STIM_006.jpg
1882.859	1.87	correct	generate	Run3	generate/STIM_006.jpg
1888.186	1.568	correct	generate	Run3	generate/STIM_006.jpg
1893.34	0.829	correct	generate	Run3	generate/STIM_007.jpg
1897.388	1.883	correct	generate	Run3	generate/STIM_007.jpg
1902.962	1.562	correct	generate	Run3	generate/STIM_007.jpg
1906.801	1.417	correct	generate	Run3	generate/STIM_007.jpg
1911.823	1.302	correct	generate	Run3	generate/STIM_007.jpg
1915.139	1.499	correct	generate	Run3	generate/STIM_008.jpg
1919.346	0.815	correct	generate	Run3	generate/STIM_008.jpg
1923.966	1.468	correct	generate	Run3	generate/STIM_008.jpg
1928.231	1.453	correct	generate	Run3	generate/STIM_008.jpg
1931.849	1.168	correct	generate	Run3	generate/STIM_008.jpg
1935.055	1.783	correct	generate	Run3	generate/STIM_009.jpg
1940.768	1.053	correct	generate	Run3	generate/STIM_009.jpg
1944.622	1.098	incorrect	generate	Run3	generate/STIM_009.jpg
1949.522	1.874	correct	generate	Run3	generate/STIM_009.jpg
1955.222	1.082	correct	generate	Run3	generate/STIM_009.jpg
1958.82	1.12	correct	generate	Run3	generate/STIM_010.jpg
1962.532	1.221	correct	generate	Run3	generate/STIM_010.jpg
1967.251	1.202	correct	generate	Run3	generate/STIM_010.jpg
1971.221	1.419	correct	generate	Run3	generate/STIM_010.jpg
1975.319	1.996	correct	generate	Run3	generate/STIM_010.jpg
1980.552	1.079	correct	generate	Run3	generate/STIM_011.jpg
1983.791	1.843	correct	generate	Run3	generate/STIM_011.jpg
1987.994	1.754	correct	generate	Run3	generate/STIM_011.jpg
1993.447	1.967	correct	generate	Run3	generate/STIM_011.jpg
1997.466	1.948	correct	generate	Run3	generate/STIM_011.jpg
2003.301	1.915	incorrect	generate	Run3	generate/STIM_012.jpg
2008.04	0.962	correct	generate	Run3	generate/STIM_012.jpg
2011.154	0.989	correct	generate	Run3	generate/STIM_012.jpg
2014.474	1.785	correct	generate	Run3	generate/STIM_012.jpg
2018.311	0.987	correct	generate	Run3	generate/STIM_012.jpg
2022.053	1.15	correct	generate	Run3	generate/STIM_013.jpg
2026.59	1.548	incorrect	generate	Run3	generate/STIM_013.jpg
2030.19	1.143	correct	generate	Run3	generate/STIM_013.jpg
2034.71	0.985	correct	generate	Run3	generate/STIM_013.jpg
2038.348	0.854	correct	generate	Run3	generate/STIM_013.jpg
2042.303	1.897	correct	generate	Run3	generate/STIM_014.jpg
2047.172	1.357	correct	generate	Run3	generate/STIM_014.jpg
2050.693	1.329	correct	generate	Run3	generate/STIM_014.jpg
2055.527	1.523	correct	generate	Run3	generate/STIM_014.jpg
2059.281	1.003	correct	generate	Run3	generate/STIM_014.jpg
2062.34	1.579	correct	generate	Run3	generate/STIM_015.jpg
2066.261	0.822	correct	generate	Run3	generate/STIM_015.jpg
2069.799	1.544	correct	generate	Run3	generate/STIM_015.jpg
2075.28	0.98	incorrect	generate	Run3	generate/STIM_015.jpg
2078.965	1.794	correct	generate	Run3	generate/STIM_015.jpg
2084.24	1.079	correct	generate	Run3	generate/STIM_016.jpg
2088.206	1.251	correct	generate	Run3	generate/STIM_016.jpg
2091.473	1.65	correct	generate	Run3	generate/STIM_016.jpg
2096.487	0.995	correct	generate	Run3	generate/STIM_016.jpg
2100.251	1.017	correct	generate	Run3	generate/STIM_016.jpg
2104.441	1.925	correct	generate	Run3	generate/STIM_017.jpg
2109.394	0.85	correct	generate	Run3	generate/STIM_017.jpg
2112.626	2.018	incorrect	generate	Run3	generate/STIM_017.jpg
2117.249	1.286	correct	generate	Run3	generate/STIM_017.jpg
2122.242	1.13	correct	generate	Run3	generate/STIM_017.jpg
2126.797	1.494	correct	generate	Run3	generate/STIM_018.jpg
2131.972	1.747	correct	generate	Run3	generate/STIM_018.jpg
2136.434	1.544	correct	generate	Run3	generate/STIM_018.jpg
2141.585	1.623	correct	generate	Run3	generate/STIM_018.jpg
2145.356	1.339	correct	generate	Run3	generate/STIM_018.jpg
2150.474	1.483	correct	generate	Run3	generate/STIM_019.jpg
2155.193	1.525	correct	generate	Run3	generate/STIM_019.jpg
2160.047	1.749	correct	generate	Run3	generate/STIM_019.jpg
2165.674	1.17	correct	generate	Run3	generate/STIM_019.jpg
2170.374	1.984	correct	generate	Run3	generate/STIM_019.jpg
2174.583	1.511	correct	generate	Run3	generate/STIM_020.jpg
2178.19	1.037	correct	generate	Run3	generate/STIM_020.jpg
2181.233	1.534	incorrect	generate	Run3	generate/STIM_020.jpg
2185.161	1.092	incorrect	generate	Run3	generate/STIM_020.jpg
2188.772	1.963	correct	generate	Run3	generate/STIM_020.jpg
2194.527	0.918	correct	generate	Run3	generate/STIM_021.jpg
2197.929	1.224	correct	generate	Run3	generate/STIM_021.jpg
2201.963	0.966	correct	generate	Run3	generate/STIM_021.jpg
2206.123	0.886	correct	generate	Run3	generate/STIM_021.jpg
2210.973	1.735	correct	generate	Run3	generate/STIM_021.jpg
2215.511	0.865	correct	generate	Run3	generate/STIM_022.jpg
2219.212	0.846	incorrect	generate	Run3	generate/STIM_022.jpg
2222.967	0.864	correct	generate	Run3	generate/STIM_022.jpg
2225.89	1.629	correct	generate	Run3	generate/STIM_022.jpg
2230.916	1.1	correct	generate	Run3	generate/STIM_022.jpg
2234.729	0.888	correct	generate	Run3	generate/STIM_023.jpg
2238.864	1.05	correct	generate	Run3	generate/STIM_023.jpg
2242.43	1.513	incorrect	generate	Run3	generate/STIM_023.jpg
2247.868	1.73	correct	generate	Run3	generate/STIM_023.jpg
2252.544	1.373	incorrect	generate	Run3	generate/STIM_023.jpg
2256.659	1.226	correct	generate	Run3	generate/STIM_024.jpg
2260.787	1.176	correct	generate	Run3	generate/STIM_024.jpg
2265.512	0.85	correct	generate	Run3	generate/STIM_024.jpg
2269.846	1.93	correct	generate	Run3	generate/STIM_024.jpg
2274.619	1.897	correct	generate	Run3	generate/STIM_024.jpg
2278.757	0.815	correct	repeat	Run3	repeat/STIM_000.jpg
2282.662	0.703	correct	repeat	Run3	repeat/STIM_000.jpg
2285.758	0.676	correct	repeat	Run3	repeat/STIM_000.jpg
2289.482	0.948	incorrect	repeat	Run3	repeat/STIM_000.jpg
2293.087	0.519	correct	repeat	Run3	repeat/STIM_000.jpg
2295.635	0.887	correct	repeat	Run3	repeat/STIM_001.jpg
2299.126	0.608	correct	repeat	Run3	repeat/STIM_001.jpg
2302.611	0.576	correct	repeat	Run3	repeat/STIM_001.jpg
2306.686	0.836	correct	repeat	Run3	repeat/STIM_001.jpg
2310.157	0.752	incorrect	repeat	Run3	repeat/STIM_001.jpg
2313.037	0.812	correct	repeat	Run3	repeat/STIM_002.jpg
2317.645	0.685	correct	repeat	Run3	repeat/STIM_002.jpg
2322.163	0.726	correct	repeat	Run3	repeat/STIM_002.jpg
2326.884	0.756	incorrect	repeat	Run3	repeat/STIM_002.jpg
2331.384	0.843	correct	repeat	Run3	repeat/STIM_002.jpg
2334.899	0.825	incorrect	repeat	Run3	repeat/STIM_003.jpg
2339.109	0.589	correct	repeat	Run3	repeat/STIM_003.jpg
2342.053	0.682	correct	repeat	Run3	repeat/STIM_003.jpg
2346.527	0.708	correct	repeat	Run3	repeat/STIM_003.jpg
2350.295	0.628	correct	repeat	Run3	repeat/STIM_003.jpg
2353.103	0.581	correct	repeat	Run3	repeat/STIM_004.jpg
2356.537	0.877	correct	repeat	Run3	repeat/STIM_004.jpg
2360.34	0.89	correct	repeat	Run3	repeat/STIM_004.jpg
2364.192	0.62	correct	repeat	Run3	repeat/STIM_004.jpg
2368.055	0.892	correct	repeat	Run3	repeat/STIM_004.jpg
2372.162	0.546	correct	repeat	Run3	repeat/STIM_005.jpg
2375.872	0.846	correct	repeat	Run3	repeat/STIM_005.jpg
2380.42	0.919	incorrect	repeat	Run3	repeat/STIM_005.jpg
2384.436	0.569	correct	repeat	Run3	repeat/STIM_005.jpg
2387.495	0.951	correct	repeat	Run3	repeat/STIM_005.jpg
2390.975	0.932	correct	repeat	Run3	repeat/STIM_006.jpg
2395.626	0.61	correct	repeat	Run3	repeat/STIM_006.jpg
2400.022	0.851	correct	repeat	Run3	repeat/STIM_006.jpg
2404.57	0.919	correct	repeat	Run3	repeat/STIM_006.jpg
2407.852	0.576	correct	repeat	Run3	repeat/STIM_006.jpg
2410.896	0.96	correct	repeat	Run3	repeat/STIM_007.jpg
2415.118	0.584	incorrect	repeat	Run3	repeat/STIM_007.jpg
2418.779	0.902	correct	repeat	Run3	repeat/STIM_007.jpg
2422.682	0.637	correct	repeat	Run3	repeat/STIM_007.jpg
2426.141	0.562	correct	repeat	Run3	repeat/STIM_007.jpg
2429.207	0.684	correct	repeat	Run3	repeat/STIM_008.jpg
2432.274	0.725	incorrect	repeat	Run3	repeat/STIM_008.jpg
2436.924	0.922	correct	repeat	Run3	repeat/STIM_008.jpg
2441.266	0.734	correct	repeat	Run3	repeat/STIM_008.jpg
2444.095	0.503	correct	repeat	Run3	repeat/STIM_008.jpg
2448.543	0.8	correct	repeat	Run3	repeat/STIM_009.jpg
2452.581	0.728	incorrect	repeat	Run3	repeat/STIM_009.jpg
2455.612	0.617	correct	repeat	Run3	repeat/STIM_009.jpg
2459.97	0.91	correct	repeat	Run3	repeat/STIM_009.jpg
2464.57	0.535	correct	repeat	Run3	repeat/STIM_009.jpg
2468.058	0.509	incorrect	repeat	Run3	repeat/STIM_010.jpg
2472.385	0.602	correct	repeat	Run3	repeat/STIM_010.jpg
2476.276	0.678	correct	repeat	Run3	repeat/STIM_010.jpg
2479.614	0.669	correct	repeat	Run3	repeat/STIM_010.jpg
2483.119	0.871	incorrect	repeat	Run3	repeat/STIM_010.jpg
2487.379	0.683	correct	repeat	Run3	repeat/STIM_011.jpg
2491.254	0.641	correct	repeat	Run3	repeat/STIM_011.jpg
2494.931	0.892	correct	repeat	Run3	repeat/STIM_011.jpg
2499.292	0.858	correct	repeat	Run3	repeat/STIM_011.jpg
2503.42	0.767	correct	repeat	Run3	repeat/STIM_011.jpg
2506.446	0.519	correct	repeat	Run3	repeat/STIM_012.jpg
2510.683	0.941	correct	repeat	Run3	repeat/STIM_012.jpg
2515.264	0.862	incorrect	repeat	Run3	repeat/STIM_012.jpg
2519.09	0.938	correct	repeat	Run3	repeat/STIM_012.jpg
2523.009	0.751	correct	repeat	Run3	repeat/STIM_012.jpg
2526.814	0.581	correct	repeat	Run3	repeat/STIM_013.jpg
2531.063	0.609	correct	repeat	Run3	repeat/STIM_013.jpg
2534.173	0.536	correct	repeat	Run3	repeat/STIM_013.jpg
2538.325	0.675	correct	repeat	Run3	repeat/STIM_013.jpg
2541.575	0.873	correct	repeat	Run3	repeat/STIM_013.jpg
2546.351	0.863	correct	repeat	Run3	repeat/STIM_014.jpg
2551.058	0.812	correct	repeat	Run3	repeat/STIM_014.jpg
2554.077	0.636	correct	repeat	Run3	repeat/STIM_014.jpg
2557.54	0.641	correct	repeat	Run3	repeat/STIM_014.jpg
2561.668	0.948	correct	repeat	Run3	repeat/STIM_014.jpg
2565.716	1.757	correct	generate	Run4	generate/STIM_000.jpg
2570.891	0.944	correct	generate	Run4	generate/STIM_000.jpg
2575.248	1.636	correct	generate	Run4	generate/STIM_000.jpg
2579.455	1.571	correct	generate	Run4	generate/STIM_000.jpg
2583.69	1.883	correct	generate	Run4	generate/STIM_000.jpg
2588.809	1.859	incorrect	generate	Run4	generate/STIM_001.jpg
2593.337	1.066	correct	generate	Run4	generate/STIM_001.jpg
2598.391	1.164	correct	generate	Run4	generate/STIM_001.jpg
2601.653	1.434	correct	generate	Run4	generate/STIM_001.jpg
2606.434	1.326	correct	generate	Run4	generate/STIM_001.jpg
2611.638	1.738	correct	generate	Run4	generate/STIM_002.jpg
2617.133	1.665	correct	generate	Run4	generate/STIM_002.jpg
2620.998	1.862	correct	generate	Run4	generate/STIM_002.jpg
2626.068	1.958	correct	generate	Run4	generate/STIM_002.jpg
2631.321	1.596	correct	generate	Run4	generate/STIM_002.jpg
2636.699	1.227	correct	generate	Run4	generate/STIM_003.jpg
2641.66	1.004	correct	generate	Run4	generate/STIM_003.jpg
2645.363	1.03	correct	generate	Run4	generate/STIM_003.jpg
2650.324	1.234	correct	generate	Run4	generate/STIM_003.jpg
2655.225	1.0	correct	generate	Run4	generate/STIM_003.jpg
2659.392	1.371	correct	generate	Run4	generate/STIM_004.jpg
2664.524	0.836	correct	generate	Run4	generate/STIM_004.jpg
2669.192	1.518	correct	generate	Run4	generate/STIM_004.jpg
2673.55	1.884	correct	generate	Run4	generate/STIM_004.jpg
2679.205	0.893	correct	generate	Run4	generate/STIM_004.jpg
2682.707	0.861	correct	generate	Run4	generate/STIM_005.jpg
2687.195	1.793	correct	generate	Run4	generate/STIM_005.jpg
2692.642	1.769	correct	generate	Run4	generate/STIM_005.jpg
2696.75	1.232	correct	generate	Run4	generate/STIM_005.jpg
2701.422	1.116	correct	generate	Run4	generate/STIM_005.jpg
2705.195	0.999	incorrect	generate	Run4	generate/STIM_006.jpg
2709.741	1.834	correct	generate	Run4	generate/STIM_006.jpg
2713.985	1.426	correct	generate	Run4	generate/STIM_006.jpg
2718.277	1.65	correct	generate	Run4	generate/STIM_006.jpg
2723.607	1.788	correct	generate	Run4	generate/STIM_006.jpg
2729.289	1.986	correct	generate	Run4	generate/STIM_007.jpg
2733.453	1.387	correct	generate	Run4	generate/STIM_007.jpg
2737.686	1.878	correct	generate	Run4	generate/STIM_007.jpg
2741.981	1.755	correct	generate	Run4	generate/STIM_007.jpg
2745.781	1.835	correct	generate	Run4	generate/STIM_007.jpg
2750.049	1.496	correct	generate	Run4	generate/STIM_008.jpg
2754.226	1.332	correct	generate	Run4	generate/STIM_008.jpg
2759.343	1.68	correct	generate	Run4	generate/STIM_008.jpg
2764.54	1.125	correct	generate	Run4	generate/STIM_008.jpg
2768.336	1.274	correct	generate	Run4	generate/STIM_008.jpg
2772.287	1.218	correct	generate	Run4	generate/STIM_009.jpg
2776.132	1.324	correct	generate	Run4	generate/STIM_009.jpg
2780.658	1.552	correct	generate	Run4	generate/STIM_009.jpg
2784.589	1.751	correct	generate	Run4	generate/STIM_009.jpg
2789.828	1.838	correct	generate	Run4	generate/STIM_009.jpg
2794.463	1.995	correct	generate	Run4	generate/STIM_010.jpg
2800.206	1.154	correct	generate	Run4	generate/STIM_010.jpg
2804.87	1.51	correct	generate	Run4	generate/STIM_010.jpg
2809.983	1.812	correct	generate	Run4	generate/STIM_010.jpg
2814.444	1.143	correct	generate	Run4	generate/STIM_010.jpg
2819.183	1.056	correct	generate	Run4	generate/STIM_011.jpg
2822.488	1.771	correct	generate	Run4	generate/STIM_011.jpg
2826.593	1.603	incorrect	generate	Run4	generate/STIM_011.jpg
2830.813	1.105	incorrect	generate	Run4	generate/STIM_011.jpg
2835.255	1.47	correct	generate	Run4	generate/STIM_011.jpg
2840.016	0.864	correct	generate	Run4	generate/STIM_012.jpg
2843.043	1.866	correct	generate	Run4	generate/STIM_012.jpg
2847.493	1.608	correct	generate	Run4	generate/STIM_012.jpg
2851.272	0.82	incorrect	generate	Run4	generate/STIM_012.jpg
2855.613	1.48	correct	generate	Run4	generate/STIM_012.jpg
2860.052	1.392	correct	generate	Run4	generate/STIM_013.jpg
2863.741	0.954	correct	generate	Run4	generate/STIM_013.jpg
2867.174	1.569	correct	generate	Run4	generate/STIM_013.jpg
2871.342	1.354	correct	generate	Run4	generate/STIM_013.jpg
2874.935	1.538	correct	generate	Run4	generate/STIM_013.jpg
2880.4	1.988	correct	generate	Run4	generate/STIM_014.jpg
2884.85	1.116	correct	generate	Run4	generate/STIM_014.jpg
2889.136	1.731	correct	generate	Run4	generate/STIM_014.jpg
2893.879	1.288	correct	generate	Run4	generate/STIM_014.jpg
2897.244	1.591	correct	generate	Run4	generate/STIM_014.jpg
2900.954	0.889	correct	generate	Run4	generate/STIM_015.jpg
2905.539	0.866	correct	generate	Run4	generate/STIM_015.jpg
2909.275	1.585	correct	generate	Run4	generate/STIM_015.jpg
2913.622	1.472	correct	generate	Run4	generate/STIM_015.jpg
2917.298	1.488	correct	generate	Run4	generate/STIM_015.jpg
2922.531	1.073	correct	generate	Run4	generate/STIM_016.jpg
2926.76	1.571	correct	generate	Run4	generate/STIM_016.jpg
2931.916	1.728	correct	generate	Run4	generate/STIM_016.jpg
2937.159	1.235	incorrect	generate	Run4	generate/STIM_016.jpg
2941.747	1.625	correct	generate	Run4	generate/STIM_016.jpg
2946.735	1.489	correct	generate	Run4	generate/STIM_017.jpg
2951.813	1.702	correct	generate	Run4	generate/STIM_017.jpg
2955.924	2.005	correct	generate	Run4	generate/STIM_017.jpg
2961.495	1.377	incorrect	generate	Run4	generate/STIM_017.jpg
2965.262	0.889	correct	generate	Run4	generate/STIM_017.jpg
2968.893	0.81	correct	generate	Run4	generate/STIM_018.jpg
2972.501	1.945	correct	generate	Run4	generate/STIM_018.jpg
2977.859	1.766	correct	generate	Run4	generate/STIM_018.jpg
2981.919	1.033	correct	generate	Run4	generate/STIM_018.jpg
2985.978	1.106	correct	generate	Run4	generate/STIM_018.jpg
2990.904	1.385	correct	generate	Run4	generate/STIM_019.jpg
2994.332	0.964	correct	generate	Run4	generate/STIM_019.jpg
2997.502	1.597	correct	generate	Run4	generate/STIM_019.jpg
3002.777	1.202	correct	generate	Run4	generate/STIM_019.jpg
3006.635	1.371	correct	generate	Run4	generate/STIM_019.jpg
3011.09	1.701	correct	generate	Run4	generate/STIM_020.jpg
3015.001	0.886	correct	generate	Run4	generate/STIM_020.jpg
3019.612	0.872	correct	generate	Run4	generate/STIM_020.jpg
3022.546	1.844	correct	generate	Run4	generate/STIM_020.jpg
3027.44	1.882	correct	generate	Run4	generate/STIM_020.jpg
3032.038	1.475	correct	generate	Run4	generate/STIM_021.jpg
3035.691	1.552	correct	generate	Run4	generate/STIM_021.jpg
3039.311	0.924	correct	generate	Run4	generate/STIM_021.jpg
3043.336	1.519	correct	generate	Run4	generate/STIM_021.jpg
3048.707	1.827	correct	generate	Run4	generate/STIM_021.jpg
3054.467	0.892	incorrect	generate	Run4	generate/STIM_022.jpg
3058.278	1.166	correct	generate	Run4	generate/STIM_022.jpg
3061.483	0.938	incorrect	generate	Run4	generate/STIM_022.jpg
3065.798	1.155	correct	generate	Run4	generate/STIM_022.jpg
3070.307	1.126	correct	generate	Run4	generate/STIM_022.jpg
3074.662	1.799	incorrect	generate	Run4	generate/STIM_023.jpg
3078.838	0.826	correct	generate	Run4	generate/STIM_023.jpg
3082.969	0.831	correct	generate	Run4	generate/STIM_023.jpg
3086.634	1.458	incorrect	generate	Run4	generate/STIM_023.jpg
3090.28	1.445	correct	generate	Run4	generate/STIM_023.jpg
3095.422	1.544	correct	generate	Run4	generate/STIM_024.jpg
3099.074	1.281	correct	generate	Run4	generate/STIM_024.jpg
3102.455	1.588	correct	generate	Run4	generate/STIM_024.jpg
3106.103	1.614	correct	generate	Run4	generate/STIM_024.jpg
3111.119	0.907	correct	generate	Run4	generate/STIM_024.jpg
3115.37	0.785	correct	repeat	Run4	repeat/STIM_000.jpg
3119.154	0.637	incorrect	repeat	Run4	repeat/STIM_000.jpg
3122.217	0.531	correct	repeat	Run4	repeat/STIM_000.jpg
3125.556	0.949	correct	repeat	Run4	repeat/STIM_000.jpg
3129.729	0.867	correct	repeat	Run4	repeat/STIM_000.jpg
3132.872	0.757	incorrect	repeat	Run4	repeat/STIM_001.jpg
3135.916	0.823	correct	repeat	Run4	repeat/STIM_001.jpg
3139.747	0.753	correct	repeat	Run4	repeat/STIM_001.jpg
3144.082	0.856	correct	repeat	Run4	repeat/STIM_001.jpg
3148.326	0.759	correct	repeat	Run4	repeat/STIM_001.jpg
3151.172	0.792	correct	repeat	Run4	repeat/STIM_002.jpg
3155.202	0.741	correct	repeat	Run4	repeat/STIM_002.jpg
3159.913	0.851	correct	repeat	Run4	repeat/STIM_002.jpg
3164.192	0.619	correct	repeat	Run4	repeat/STIM_002.jpg
3166.881	0.901	correct	repeat	Run4	repeat/STIM_002.jpg
3171.462	0.561	correct	repeat	Run4	repeat/STIM_003.jpg
3174.576	0.775	correct	repeat	Run4	repeat/STIM_003.jpg
3178.774	0.675	correct	repeat	Run4	repeat/STIM_003.jpg
3182.908	0.744	correct	repeat	Run4	repeat/STIM_003.jpg
3187.347	0.944	correct	repeat	Run4	repeat/STIM_003.jpg
3190.935	0.762	correct	repeat	Run4	repeat/STIM_004.jpg
3194.992	0.924	correct	repeat	Run4	repeat/STIM_004.jpg
3198.94	0.69	incorrect	repeat	Run4	repeat/STIM_004.jpg
3203.303	0.784	correct	repeat	Run4	repeat/STIM_004.jpg
3207.065	0.556	correct	repeat	Run4	repeat/STIM_004.jpg
3209.744	0.898	correct	repeat	Run4	repeat/STIM_005.jpg
3213.256	0.731	correct	repeat	Run4	repeat/STIM_005.jpg
3217.17	0.66	correct	repeat	Run4	repeat/STIM_005.jpg
3221.184	0.666	correct	repeat	Run4	repeat/STIM_005.jpg
3225.434	0.618	incorrect	repeat	Run4	repeat/STIM_005.jpg
3229.492	0.834	correct	repeat	Run4	repeat/STIM_006.jpg
3232.441	0.824	correct	repeat	Run4	repeat/STIM_006.jpg
3236.265	0.863	correct	repeat	Run4	repeat/STIM_006.jpg
3239.856	0.677	correct	repeat	Run4	repeat/STIM_006.jpg
3243.314	0.591	correct	repeat	Run4	repeat/STIM_006.jpg
3247.009	0.674	correct	repeat	Run4	repeat/STIM_007.jpg
3251.349	0.633	correct	repeat	Run4	repeat/STIM_007.jpg
3255.565	0.884	correct	repeat	Run4	repeat/STIM_007.jpg
3260.311	0.512	correct	repeat	Run4	repeat/STIM_007.jpg
3263.115	0.817	correct	repeat	Run4	repeat/STIM_007.jpg
3267.733	0.797	incorrect	repeat	Run4	repeat/STIM_008.jpg
3272.163	0.561	correct	repeat	Run4	repeat/STIM_008.jpg
3275.56	0.49	correct	repeat	Run4	repeat/STIM_008.jpg
3280.041	0.595	correct	repeat	Run4	repeat/STIM_008.jpg
3283.151	0.497	correct	repeat	Run4	repeat/STIM_008.jpg
3286.69	0.902	correct	repeat	Run4	repeat/STIM_009.jpg
3289.984	0.937	correct	repeat	Run4	repeat/STIM_009.jpg
3292.971	0.569	correct	repeat	Run4	repeat/STIM_009.jpg
3297.444	0.758	correct	repeat	Run4	repeat/STIM_009.jpg
3302.18	0.559	correct	repeat	Run4	repeat/STIM_009.jpg
3304.82	0.636	correct	repeat	Run4	repeat/STIM_010.jpg
3308.708	0.506	correct	repeat	Run4	repeat/STIM_010.jpg
3311.629	0.928	correct	repeat	Run4	repeat/STIM_010.jpg
3314.755	0.649	correct	repeat	Run4	repeat/STIM_010.jpg
3318.071	0.695	incorrect	repeat	Run4	repeat/STIM_010.jpg
3321.761	0.559	correct	repeat	Run4	repeat/STIM_011.jpg
3324.671	0.718	correct	repeat	Run4	repeat/STIM_011.jpg
3328.979	0.574	correct	repeat	Run4	repeat/STIM_011.jpg
3331.704	0.845	correct	repeat	Run4	repeat/STIM_011.jpg
3335.178	0.784	correct	repeat	Run4	repeat/STIM_011.jpg
3337.978	0.773	correct	repeat	Run4	repeat/STIM_012.jpg
3342.337	0.506	correct	repeat	Run4	repeat/STIM_012.jpg
3346.375	0.863	correct	repeat	Run4	repeat/STIM_012.jpg
3350.234	0.711	correct	repeat	Run4	repeat/STIM_012.jpg
3353.482	0.535	correct	repeat	Run4	repeat/STIM_012.jpg
3356.947	0.804	correct	repeat	Run4	repeat/STIM_013.jpg
3360.617	0.888	correct	repeat	Run4	repeat/STIM_013.jpg
3364.59	0.494	correct	repeat	Run4	repeat/STIM_013.jpg
3367.515	0.495	correct	repeat	Run4	repeat/STIM_013.jpg
3371.326	0.787	correct	repeat	Run4	repeat/STIM_013.jpg
3374.933	0.558	incorrect	repeat	Run4	repeat/STIM_014.jpg
3378.798	0.868	incorrect	repeat	Run4	repeat/STIM_014.jpg
3382.078	0.843	incorrect	repeat	Run4	repeat/STIM_014.jpg
3385.732	0.662	correct	repeat	Run4	repeat/STIM_014.jpg
3389.323	0.789	incorrect	repeat	Run4	repeat/STIM_014.jpg
