onset	duration	response_time_ms	trial_type	learning_stage	stimulus	response_port
0.0	1.85	1849.5	generate	Run1	generate/STIM_000.jpg	99
5.098	1.8	1800.5	generate	Run1	generate/STIM_000.jpg	99
10.873	1.2	1200.1	generate	Run1	generate/STIM_000.jpg	99
15.379	1.592	1592.5	generate	Run1	generate/STIM_000.jpg	99
18.996	2.101	2101.2	generate	Run1	generate/STIM_000.jpg	99
23.239	2.001	2000.9	generate	Run1	generate/STIM_001.jpg	100
27.573	1.265	1264.7	generate	Run1	generate/STIM_001.jpg	100
31.778	2.181	2181.1	generate	Run1	generate/STIM_001.jpg	100
36.765	2.152	2151.5	generate	Run1	generate/STIM_001.jpg	99
41.368	1.032	1031.5	generate	Run1	generate/STIM_001.jpg	100
45.462	2.016	2015.9	generate	Run1	generate/STIM_002.jpg	99
50.645	2.706	2705.7	generate	Run1	generate/STIM_002.jpg	100
55.524	2.057	2057.0	generate	Run1	generate/STIM_002.jpg	99
61.103	1.016	1016.4	generate	Run1	generate/STIM_002.jpg	100
64.892	2.165	2165.2	generate	Run1	generate/STIM_002.jpg	100
69.446	1.754	1754.1	generate	Run1	generate/STIM_003.jpg	100
74.394	1.133	1133.0	generate	Run1	generate/STIM_003.jpg	100
79.38	1.766	1766.4	generate	Run1	generate/STIM_003.jpg	99
83.623	2.271	2271.4	generate	Run1	generate/STIM_003.jpg	100
89.226	1.92	1920.3	generate	Run1	generate/STIM_003.jpg	100
94.181	1.892	1892.1	generate	Run1	generate/STIM_004.jpg	100
99.521	1.78	1779.9	generate	Run1	generate/STIM_004.jpg	99
104.227	1.993	1993.2	generate	Run1	generate/STIM_004.jpg	100
108.33	2.329	2328.7	generate	Run1	generate/STIM_004.jpg	100
112.861	1.3	1300.2	generate	Run1	generate/STIM_004.jpg	100
116.608	1.86	1860.2	generate	Run1	generate/STIM_005.jpg	99
120.987	2.247	2247.0	generate	Run1	generate/STIM_005.jpg	99
126.766	1.66	1659.9	generate	Run1	generate/STIM_005.jpg	100
130.88	1.106	1106.2	generate	Run1	generate/STIM_005.jpg	100
134.526	1.986	1986.5	generate	Run1	generate/STIM_005.jpg	100
139.457	2.843	2842.7	generate	Run1	generate/STIM_006.jpg	100
145.358	2.269	2268.8	generate	Run1	generate/STIM_006.jpg	100
150.559	1.3	1300.0	generate	Run1	generate/STIM_006.jpg	100
155.167	1.068	1068.2	generate	Run1	generate/STIM_006.jpg	99
159.055	1.54	1539.8	generate	Run1	generate/STIM_006.jpg	99
164.234	1.302	1301.7	generate	Run1	generate/STIM_007.jpg	99
169.432	1.272	1271.9	generate	Run1	generate/STIM_007.jpg	99
172.707	2.523	2523.3	generate	Run1	generate/STIM_007.jpg	100
177.235	1.535	1535.4	generate	Run1	generate/STIM_007.jpg	99
181.705	1.672	1672.4	generate	Run1	generate/STIM_007.jpg	100
186.1	1.81	1809.6	generate	Run1	generate/STIM_008.jpg	99
191.73	2.423	2423.0	generate	Run1	generate/STIM_008.jpg	100
197.422	2.281	2281.3	generate	Run1	generate/STIM_008.jpg	99
203.443	1.379	1379.2	generate	Run1	generate/STIM_008.jpg	99
207.115	1.352	1351.5	generate	Run1	generate/STIM_008.jpg	99
210.642	2.669	2668.9	generate	Run1	generate/STIM_009.jpg	100
217.177	1.434	1434.1	generate	Run1	generate/STIM_009.jpg	99
222.569	1.164	1163.6	generate	Run1	generate/STIM_009.jpg	100
225.809	1.778	1778.0	generate	Run1	generate/STIM_009.jpg	100
229.851	1.91	1909.8	generate	Run1	generate/STIM_009.jpg	99
233.98	1.755	1755.0	generate	Run1	generate/STIM_010.jpg	100
239.218	1.141	1141.4	generate	Run1	generate/STIM_010.jpg	100
242.492	1.382	1381.6	generate	Run1	generate/STIM_010.jpg	100
247.407	2.458	2457.6	generate	Run1	generate/STIM_010.jpg	100
252.424	1.399	1398.9	generate	Run1	generate/STIM_010.jpg	99
255.956	1.686	1685.9	generate	Run1	generate/STIM_011.jpg	99
260.251	2.28	2279.9	generate	Run1	generate/STIM_011.jpg	100
264.534	1.947	1947.0	generate	Run1	generate/STIM_011.jpg	99
269.503	1.449	1448.7	generate	Run1	generate/STIM_011.jpg	99
274.802	1.475	1475.4	generate	Run1	generate/STIM_011.jpg	99
280.173	1.174	1174.3	generate	Run1	generate/STIM_012.jpg	99
284.185	1.359	1359.1	generate	Run1	generate/STIM_012.jpg	100
288.189	2.405	2404.9	generate	Run1	generate/STIM_012.jpg	100
294.387	1.76	1759.6	generate	Run1	generate/STIM_012.jpg	100
300.041	1.246	1245.9	generate	Run1	generate/STIM_012.jpg	100
305.113	1.762	1762.1	generate	Run1	generate/STIM_013.jpg	99
309.092	2.172	2171.5	generate	Run1	generate/STIM_013.jpg	99
313.757	1.735	1734.9	generate	Run1	generate/STIM_013.jpg	100
318.119	2.455	2455.1	generate	Run1	generate/STIM_013.jpg	100
322.923	1.986	1985.9	generate	Run1	generate/STIM_013.jpg	99
328.458	1.963	1963.2	generate	Run1	generate/STIM_014.jpg	100
334.068	1.418	1418.0	generate	Run1	generate/STIM_014.jpg	100
337.981	2.479	2478.7	generate	Run1	generate/STIM_014.jpg	99
344.166	2.459	2458.6	generate	Run1	generate/STIM_014.jpg	100
350.218	2.086	2085.6	generate	Run1	generate/STIM_014.jpg	100
355.715	2.001	2001.4	generate	Run1	generate/STIM_015.jpg	99
360.748	2.524	2524.0	generate	Run1	generate/STIM_015.jpg	100
365.423	2.365	2365.1	generate	Run1	generate/STIM_015.jpg	100
370.605	1.436	1435.5	generate	Run1	generate/STIM_015.jpg	100
376.034	1.46	1460.2	generate	Run1	generate/STIM_015.jpg	100
381.167	1.776	1775.8	generate	Run1	generate/STIM_016.jpg	100
385.109	1.19	1189.5	generate	Run1	generate/STIM_016.jpg	99
389.062	2.264	2264.3	generate	Run1	generate/STIM_016.jpg	100
395.163	1.739	1739.2	generate	Run1	generate/STIM_016.jpg	100
400.067	1.685	1685.3	generate	Run1	generate/STIM_016.jpg	99
405.216	1.777	1777.0	generate	Run1	generate/STIM_017.jpg	99
409.554	1.692	1691.6	generate	Run1	generate/STIM_017.jpg	100
413.544	1.17	1170.3	generate	Run1	generate/STIM_017.jpg	100
417.397	2.23	2230.0	generate	Run1	generate/STIM_017.jpg	99
422.113	1.81	1809.7	generate	Run1	generate/STIM_017.jpg	100
426.561	2.33	2330.0	generate	Run1	generate/STIM_018.jpg	99
432.502	1.677	1677.2	generate	Run1	generate/STIM_018.jpg	100
437.352	1.44	1439.8	generate	Run1	generate/STIM_018.jpg	100
441.656	2.02	2019.8	generate	Run1	generate/STIM_018.jpg	99
447.302	1.128	1127.7	generate	Run1	generate/STIM_018.jpg	100
451.791	2.858	2858.5	generate	Run1	generate/STIM_019.jpg	99
457.33	2.498	2497.7	generate	Run1	generate/STIM_019.jpg	100
461.847	1.576	1576.0	generate	Run1	generate/STIM_019.jpg	100
465.44	1.832	1832.2	generate	Run1	generate/STIM_019.jpg	100
470.632	0.987	987.2	generate	Run1	generate/STIM_019.jpg	99
474.091	1.974	1973.7	generate	Run1	generate/STIM_020.jpg	99
479.653	1.24	1239.9	generate	Run1	generate/STIM_020.jpg	99
484.817	1.676	1675.9	generate	Run1	generate/STIM_020.jpg	99
488.557	2.382	2382.5	generate	Run1	generate/STIM_020.jpg	99
493.441	1.604	1604.0	generate	Run1	generate/STIM_020.jpg	100
498.277	1.994	1994.0	generate	Run1	generate/STIM_021.jpg	100
502.541	1.225	1224.8	generate	Run1	generate/STIM_021.jpg	100
506.881	2.014	2014.4	generate	Run1	generate/STIM_021.jpg	100
511.023	1.686	1685.8	generate	Run1	generate/STIM_021.jpg	100
516.606	1.395	1395.3	generate	Run1	generate/STIM_021.jpg	99
521.923	2.601	2601.3	generate	Run1	generate/STIM_022.jpg	100
527.326	1.179	1178.8	generate	Run1	generate/STIM_022.jpg	99
532.346	1.896	1895.5	generate	Run1	generate/STIM_022.jpg	100
538.135	1.675	1675.3	generate	Run1	generate/STIM_022.jpg	100
542.496	1.899	1899.1	generate	Run1	generate/STIM_022.jpg	99
546.72	2.538	2537.8	generate	Run1	generate/STIM_023.jpg	99
551.373	2.319	2319.3	generate	Run1	generate/STIM_023.jpg	100
556.259	1.045	1044.8	generate	Run1	generate/STIM_023.jpg	99
560.705	1.326	1325.6	generate	Run1	generate/STIM_023.jpg	100
565.181	2.18	2179.6	generate	Run1	generate/STIM_023.jpg	100
571.234	1.757	1756.9	generate	Run1	generate/STIM_024.jpg	99
575.836	1.867	1866.9	generate	Run1	generate/STIM_024.jpg	99
580.588	1.498	1498.0	generate	Run1	generate/STIM_024.jpg	100
584.715	2.412	2411.7	generate	Run1	generate/STIM_024.jpg	100
590.761	1.378	1377.7	generate	Run1	generate/STIM_024.jpg	100
595.207	0.543	543.4	repeat	Run1	repeat/STIM_000.jpg	99
598.183	0.604	604.3	repeat	Run1	repeat/STIM_000.jpg	99
601.217	0.812	812.3	repeat	Run1	repeat/STIM_000.jpg	100
605.091	0.522	522.3	repeat	Run1	repeat/STIM_000.jpg	99
608.012	0.947	947.0	repeat	Run1	repeat/STIM_000.jpg	99
611.928	0.892	892.5	repeat	Run1	repeat/STIM_001.jpg	100
615.06	0.835	834.9	repeat	Run1	repeat/STIM_001.jpg	100
619.626	0.81	810.1	repeat	Run1	repeat/STIM_001.jpg	100
622.805	0.863	862.7	repeat	Run1	repeat/STIM_001.jpg	99
627.598	0.742	741.9	repeat	Run1	repeat/STIM_001.jpg	100
630.777	0.828	827.7	repeat	Run1	repeat/STIM_002.jpg	99
635.059	0.702	702.5	repeat	Run1	repeat/STIM_002.jpg	100
638.453	0.85	849.9	repeat	Run1	repeat/STIM_002.jpg	99
642.104	0.848	848.3	repeat	Run1	repeat/STIM_002.jpg	100
645.724	0.773	773.4	repeat	Run1	repeat/STIM_002.jpg	100
650.056	0.706	705.5	repeat	Run1	repeat/STIM_003.jpg	100
654.618	0.722	721.6	repeat	Run1	repeat/STIM_003.jpg	100
657.378	0.733	732.6	repeat	Run1	repeat/STIM_003.jpg	99
661.789	0.621	621.2	repeat	Run1	repeat/STIM_003.jpg	100
665.759	0.922	922.4	repeat	Run1	repeat/STIM_003.jpg	99
670.21	0.757	757.4	repeat	Run1	repeat/STIM_004.jpg	99
673.676	0.826	826.2	repeat	Run1	repeat/STIM_004.jpg	99
677.237	0.526	526.4	repeat	Run1	repeat/STIM_004.jpg	99
681.449	0.822	821.9	repeat	Run1	repeat/STIM_004.jpg	100
684.291	0.503	503.3	repeat	Run1	repeat/STIM_004.jpg	100
687.971	0.765	765.2	repeat	Run1	repeat/STIM_005.jpg	100
692.581	0.557	557.2	repeat	Run1	repeat/STIM_005.jpg	100
697.121	0.683	683.3	repeat	Run1	repeat/STIM_005.jpg	100
700.966	0.676	676.1	repeat	Run1	repeat/STIM_005.jpg	100
704.957	0.546	546.0	repeat	Run1	repeat/STIM_005.jpg	100
708.676	0.953	953.2	repeat	Run1	repeat/STIM_006.jpg	99
713.535	0.71	710.2	repeat	Run1	repeat/STIM_006.jpg	99
716.976	0.881	880.8	repeat	Run1	repeat/STIM_006.jpg	99
719.974	0.599	598.6	repeat	Run1	repeat/STIM_006.jpg	100
723.818	0.584	583.8	repeat	Run1	repeat/STIM_006.jpg	99
727.792	0.894	893.8	repeat	Run1	repeat/STIM_007.jpg	100
732.444	0.734	733.8	repeat	Run1	repeat/STIM_007.jpg	99
735.192	0.854	854.3	repeat	Run1	repeat/STIM_007.jpg	99
738.252	0.893	893.1	repeat	Run1	repeat/STIM_007.jpg	100
742.762	0.58	580.0	repeat	Run1	repeat/STIM_007.jpg	100
745.922	0.514	513.6	repeat	Run1	repeat/STIM_008.jpg	100
748.581	0.815	815.3	repeat	Run1	repeat/STIM_008.jpg	99
751.515	0.581	581.2	repeat	Run1	repeat/STIM_008.jpg	99
755.124	0.597	596.8	repeat	Run1	repeat/STIM_008.jpg	100
759.161	0.904	903.5	repeat	Run1	repeat/STIM_008.jpg	99
763.079	0.537	537.3	repeat	Run1	repeat/STIM_009.jpg	99
766.847	0.875	874.9	repeat	Run1	repeat/STIM_009.jpg	99
771.647	0.55	549.9	repeat	Run1	repeat/STIM_009.jpg	99
774.288	0.9	899.8	repeat	Run1	repeat/STIM_009.jpg	99
777.897	0.69	689.5	repeat	Run1	repeat/STIM_009.jpg	100
781.367	0.5	500.1	repeat	Run1	repeat/STIM_010.jpg	99
784.723	0.838	837.7	repeat	Run1	repeat/STIM_010.jpg	99
788.564	0.556	556.3	repeat	Run1	repeat/STIM_010.jpg	100
792.87	0.689	688.9	repeat	Run1	repeat/STIM_010.jpg	99
797.271	0.869	868.7	repeat	Run1	repeat/STIM_010.jpg	99
800.332	0.592	592.1	repeat	Run1	repeat/STIM_011.jpg	100
803.027	0.757	757.4	repeat	Run1	repeat/STIM_011.jpg	99
805.901	0.509	509.4	repeat	Run1	repeat/STIM_011.jpg	99
809.708	0.962	962.0	repeat	Run1	repeat/STIM_011.jpg	100
814.029	0.513	513.3	repeat	Run1	repeat/STIM_011.jpg	99
818.333	0.495	494.6	repeat	Run1	repeat/STIM_012.jpg	99
822.2	0.665	665.0	repeat	Run1	repeat/STIM_012.jpg	99
825.627	0.537	536.9	repeat	Run1	repeat/STIM_012.jpg	99
828.2	0.858	857.8	repeat	Run1	repeat/STIM_012.jpg	99
831.792	0.744	743.5	repeat	Run1	repeat/STIM_012.jpg	100
835.446	0.772	771.7	repeat	Run1	repeat/STIM_013.jpg	100
838.514	0.674	673.5	repeat	Run1	repeat/STIM_013.jpg	99
841.254	0.848	847.9	repeat	Run1	repeat/STIM_013.jpg	100
845.466	0.651	650.6	repeat	Run1	repeat/STIM_013.jpg	100
849.447	0.498	498.4	repeat	Run1	repeat/STIM_013.jpg	99
852.756	0.952	951.5	repeat	Run1	repeat/STIM_014.jpg	99
856.466	0.738	738.4	repeat	Run1	repeat/STIM_014.jpg	99
859.924	0.665	665.1	repeat	Run1	repeat/STIM_014.jpg	100
864.389	0.952	951.6	repeat	Run1	repeat/STIM_014.jpg	99
868.793	0.8	800.2	repeat	Run1	repeat/STIM_014.jpg	100
872.471	2.025	2024.9	generate	Run2	generate/STIM_000.jpg	100
876.876	1.856	1856.0	generate	Run2	generate/STIM_000.jpg	99
882.135	1.391	1391.1	generate	Run2	generate/STIM_000.jpg	100
886.782	1.422	1422.3	generate	Run2	generate/STIM_000.jpg	100
891.246	1.458	1457.9	generate	Run2	generate/STIM_000.jpg	100
896.443	1.972	1972.0	generate	Run2	generate/STIM_001.jpg	100
901.446	1.392	1392.0	generate	Run2	generate/STIM_001.jpg	100
906.801	1.875	1874.6	generate	Run2	generate/STIM_001.jpg	100
910.708	1.562	1562.4	generate	Run2	generate/STIM_001.jpg	99
915.928	0.994	994.1	generate	Run2	generate/STIM_001.jpg	100
919.682	1.985	1985.1	generate	Run2	generate/STIM_002.jpg	100
925.428	1.146	1145.8	generate	Run2	generate/STIM_002.jpg	100
929.781	1.031	1030.7	generate	Run2	generate/STIM_002.jpg	99
933.732	0.98	980.4	generate	Run2	generate/STIM_002.jpg	100
937.827	1.637	1637.0	generate	Run2	generate/STIM_002.jpg	99
943.048	1.605	1604.7	generate	Run2	generate/STIM_003.jpg	100
947.687	1.511	1510.7	generate	Run2	generate/STIM_003.jpg	100
952.192	1.985	1985.2	generate	Run2	generate/STIM_003.jpg	99
957.112	1.647	1646.8	generate	Run2	generate/STIM_003.jpg	99
962.656	1.25	1250.4	generate	Run2	generate/STIM_003.jpg	99
967.466	1.904	1904.0	generate	Run2	generate/STIM_004.jpg	99
971.683	1.832	1831.9	generate	Run2	generate/STIM_004.jpg	99
977.343	1.163	1162.8	generate	Run2	generate/STIM_004.jpg	100
982.309	1.872	1871.5	generate	Run2	generate/STIM_004.jpg	99
987.541	0.862	862.0	generate	Run2	generate/STIM_004.jpg	99
991.607	2.043	2042.8	generate	Run2	generate/STIM_005.jpg	99
996.181	1.493	1493.1	generate	Run2	generate/STIM_005.jpg	99
999.765	1.44	1440.1	generate	Run2	generate/STIM_005.jpg	99
1005.006	0.836	835.8	generate	Run2	generate/STIM_005.jpg	100
1009.17	1.651	1651.0	generate	Run2	generate/STIM_005.jpg	99
1014.437	1.747	1747.0	generate	Run2	generate/STIM_006.jpg	100
1019.622	0.962	962.1	generate	Run2	generate/STIM_006.jpg	99
1023.846	1.496	1496.0	generate	Run2	generate/STIM_006.jpg	99
1029.104	1.454	1453.8	generate	Run2	generate/STIM_006.jpg	100
1034.147	1.316	1316.5	generate	Run2	generate/STIM_006.jpg	100
1038.157	1.516	1516.2	generate	Run2	generate/STIM_007.jpg	99
1043.103	2.275	2275.2	generate	Run2	generate/STIM_007.jpg	99
1048.129	1.966	1966.0	generate	Run2	generate/STIM_007.jpg	100
1053.561	1.37	1369.9	generate	Run2	generate/STIM_007.jpg	99
1057.667	0.824	824.0	generate	Run2	generate/STIM_007.jpg	100
1062.452	1.724	1724.4	generate	Run2	generate/STIM_008.jpg	100
1067.68	1.818	1818.4	generate	Run2	generate/STIM_008.jpg	99
1073.169	1.548	1548.3	generate	Run2	generate/STIM_008.jpg	100
1076.722	1.585	1585.3	generate	Run2	generate/STIM_008.jpg	100
1080.542	0.923	923.0	generate	Run2	generate/STIM_008.jpg	100
1085.337	2.001	2001.2	generate	Run2	generate/STIM_009.jpg	100
1089.884	2.254	2254.0	generate	Run2	generate/STIM_009.jpg	100
1096.132	1.356	1356.0	generate	Run2	generate/STIM_009.jpg	99
1100.776	1.242	1242.4	generate	Run2	generate/STIM_009.jpg	100
1104.519	1.254	1253.6	generate	Run2	generate/STIM_009.jpg	100
1108.032	1.791	1791.2	generate	Run2	generate/STIM_010.jpg	99
1113.012	1.278	1278.1	generate	Run2	generate/STIM_010.jpg	100
1116.84	1.103	1103.4	generate	Run2	generate/STIM_010.jpg	100
1120.945	1.34	1340.5	generate	Run2	generate/STIM_010.jpg	100
1124.587	1.122	1122.0	generate	Run2	generate/STIM_010.jpg	99
1129.611	1.182	1182.3	generate	Run2	generate/STIM_011.jpg	100
1133.077	1.611	1611.4	generate	Run2	generate/STIM_011.jpg	100
1136.785	1.896	1896.5	generate	Run2	generate/STIM_011.jpg	100
1140.696	1.006	1005.9	generate	Run2	generate/STIM_011.jpg	100
1144.623	1.975	1975.1	generate	Run2	generate/STIM_011.jpg	100
1148.946	1.647	1646.8	generate	Run2	generate/STIM_012.jpg	99
1153.512	1.274	1273.7	generate	Run2	generate/STIM_012.jpg	100
1157.791	0.915	914.6	generate	Run2	generate/STIM_012.jpg	99
1162.491	1.771	1771.0	generate	Run2	generate/STIM_012.jpg	100
1167.788	1.97	1970.4	generate	Run2	generate/STIM_012.jpg	100
1171.868	1.376	1375.9	generate	Run2	generate/STIM_013.jpg	100
1175.971	1.115	1114.8	generate	Run2	generate/STIM_013.jpg	99
1180.714	1.419	1418.6	generate	Run2	generate/STIM_013.jpg	99
1186.013	1.673	1673.3	generate	Run2	generate/STIM_013.jpg	100
1191.061	1.635	1634.8	generate	Run2	generate/STIM_013.jpg	100
1195.822	2.338	2338.0	generate	Run2	generate/STIM_014.jpg	99
1202.014	1.919	1919.2	generate	Run2	generate/STIM_014.jpg	99
1206.025	1.423	1423.0	generate	Run2	generate/STIM_014.jpg	99
1209.974	1.415	1415.4	generate	Run2	generate/STIM_014.jpg	99
1214.728	1.73	1729.5	generate	Run2	generate/STIM_014.jpg	99
1219.221	1.226	1225.9	generate	Run2	generate/STIM_015.jpg	100
1223.082	2.171	2170.8	generate	Run2	generate/STIM_015.jpg	99
1228.697	1.73	1729.7	generate	Run2	generate/STIM_015.jpg	99
1234.411	1.096	1096.0	generate	Run2	generate/STIM_015.jpg	99
1238.891	0.821	821.3	generate	Run2	generate/STIM_015.jpg	100
1243.677	1.935	1935.2	generate	Run2	generate/STIM_016.jpg	99
1248.397	2.106	2105.9	generate	Run2	generate/STIM_016.jpg	100
1252.688	1.086	1086.0	generate	Run2	generate/STIM_016.jpg	99
1257.048	1.954	1954.3	generate	Run2	generate/STIM_016.jpg	100
1261.287	1.448	1448.4	generate	Run2	generate/STIM_016.jpg	100
1266.051	2.09	2090.2	generate	Run2	generate/STIM_017.jpg	99
1271.974	1.884	1883.5	generate	Run2	generate/STIM_017.jpg	99
1277.794	1.92	1919.6	generate	Run2	generate/STIM_017.jpg	99
1282.306	1.574	1574.1	generate	Run2	generate/STIM_017.jpg	99
1286.583	1.255	1255.3	generate	Run2	generate/STIM_017.jpg	100
1291.437	2.416	2415.5	generate	Run2	generate/STIM_018.jpg	99
1296.777	1.186	1186.3	generate	Run2	generate/STIM_018.jpg	100
1300.639	1.716	1716.1	generate	Run2	generate/STIM_018.jpg	100
1305.74	1.407	1407.2	generate	Run2	generate/STIM_018.jpg	100
1309.795	1.475	1474.9	generate	Run2	generate/STIM_018.jpg	100
1314.88	1.776	1776.1	generate	Run2	generate/STIM_019.jpg	100
1319.73	1.071	1071.4	generate	Run2	generate/STIM_019.jpg	99
1323.773	1.782	1782.2	generate	Run2	generate/STIM_019.jpg	100
1327.993	1.179	1179.3	generate	Run2	generate/STIM_019.jpg	99
1332.953	1.69	1690.1	generate	Run2	generate/STIM_019.jpg	100
1336.792	2.101	2100.9	generate	Run2	generate/STIM_020.jpg	99
1342.372	1.166	1166.4	generate	Run2	generate/STIM_020.jpg	99
1346.055	1.597	1597.4	generate	Run2	generate/STIM_020.jpg	100
1351.384	1.723	1722.9	generate	Run2	generate/STIM_020.jpg	100
1355.391	1.368	1368.1	generate	Run2	generate/STIM_020.jpg	100
1360.6	2.112	2112.4	generate	Run2	generate/STIM_021.jpg	100
1366.294	2.26	2260.2	generate	Run2	generate/STIM_021.jpg	99
1370.639	1.761	1760.6	generate	Run2	generate/STIM_021.jpg	99
1376.018	1.307	1307.1	generate	Run2	generate/STIM_021.jpg	99
1379.462	1.906	1905.5	generate	Run2	generate/STIM_021.jpg	100
1384.712	1.872	1872.5	generate	Run2	generate/STIM_022.jpg	99
1390.58	1.37	1370.3	generate	Run2	generate/STIM_022.jpg	99
1394.38	1.814	1814.3	generate	Run2	generate/STIM_022.jpg	99
1400.039	1.485	1485.3	generate	Run2	generate/STIM_022.jpg	99
1404.237	0.925	924.6	generate	Run2	generate/STIM_022.jpg	99
1408.614	1.203	1202.7	generate	Run2	generate/STIM_023.jpg	99
1412.231	1.305	1305.4	generate	Run2	generate/STIM_023.jpg	100
1415.839	1.824	1824.3	generate	Run2	generate/STIM_023.jpg	99
1420.053	1.983	1983.0	generate	Run2	generate/STIM_023.jpg	100
1425.947	1.286	1286.1	generate	Run2	generate/STIM_023.jpg	99
1430.014	1.079	1078.8	generate	Run2	generate/STIM_024.jpg	100
1433.581	1.863	1863.4	generate	Run2	generate/STIM_024.jpg	99
1437.902	2.13	2129.5	generate	Run2	generate/STIM_024.jpg	99
1442.269	1.43	1429.7	generate	Run2	generate/STIM_024.jpg	99
1445.902	2.022	2022.4	generate	Run2	generate/STIM_024.jpg	99
1451.89	0.746	745.9	repeat	Run2	repeat/STIM_000.jpg	99
1454.954	0.725	724.8	repeat	Run2	repeat/STIM_000.jpg	100
1458.275	0.518	517.7	repeat	Run2	repeat/STIM_000.jpg	99
1462.383	0.598	597.7	repeat	Run2	repeat/STIM_000.jpg	99
1465.128	0.768	768.4	repeat	Run2	repeat/STIM_000.jpg	99
1469.417	0.609	608.7	repeat	Run2	repeat/STIM_001.jpg	99
1473.723	0.845	845.2	repeat	Run2	repeat/STIM_001.jpg	100
1478.415	0.634	634.4	repeat	Run2	repeat/STIM_001.jpg	99
1482.067	0.633	632.7	repeat	Run2	repeat/STIM_001.jpg	99
1486.084	0.538	537.5	repeat	Run2	repeat/STIM_001.jpg	99
1489.702	0.845	845.4	repeat	Run2	repeat/STIM_002.jpg	100
1492.575	0.552	552.1	repeat	Run2	repeat/STIM_002.jpg	99
1496.509	0.799	799.3	repeat	Run2	repeat/STIM_002.jpg	99
1499.741	0.961	960.6	repeat	Run2	repeat/STIM_002.jpg	99
1503.945	0.604	604.1	repeat	Run2	repeat/STIM_002.jpg	100
1508.182	0.93	929.7	repeat	Run2	repeat/STIM_003.jpg	99
1512.544	0.568	567.8	repeat	Run2	repeat/STIM_003.jpg	99
1516.751	0.662	662.0	repeat	Run2	repeat/STIM_003.jpg	99
1521.342	0.785	785.4	repeat	Run2	repeat/STIM_003.jpg	100
1524.371	0.857	856.6	repeat	Run2	repeat/STIM_003.jpg	99
1527.488	0.634	633.5	repeat	Run2	repeat/STIM_004.jpg	100
1531.185	0.824	824.0	repeat	Run2	repeat/STIM_004.jpg	100
1535.241	0.593	592.8	repeat	Run2	repeat/STIM_004.jpg	100
1538.7	0.789	788.7	repeat	Run2	repeat/STIM_004.jpg	100
1542.477	0.579	579.3	repeat	Run2	repeat/STIM_004.jpg	99
1545.338	0.928	928.2	repeat	Run2	repeat/STIM_005.jpg	99
1549.901	0.907	907.3	repeat	Run2	repeat/STIM_005.jpg	99
1553.818	0.703	702.8	repeat	Run2	repeat/STIM_005.jpg	99
1556.536	0.595	594.7	repeat	Run2	repeat/STIM_005.jpg	99
1560.881	0.633	632.9	repeat	Run2	repeat/STIM_005.jpg	100
1565.158	0.832	831.7	repeat	Run2	repeat/STIM_006.jpg	100
1568.109	0.838	838.3	repeat	Run2	repeat/STIM_006.jpg	100
1571.949	0.623	623.0	repeat	Run2	repeat/STIM_006.jpg	100
1575.016	0.888	887.8	repeat	Run2	repeat/STIM_006.jpg	100
1578.969	0.554	553.8	repeat	Run2	repeat/STIM_006.jpg	99
1582.967	0.531	530.7	repeat	Run2	repeat/STIM_007.jpg	100
1586.515	0.91	910.3	repeat	Run2	repeat/STIM_007.jpg	100
1589.761	0.875	875.1	repeat	Run2	repeat/STIM_007.jpg	99
1594.125	0.512	511.6	repeat	Run2	repeat/STIM_007.jpg	100
1597.511	0.942	941.7	repeat	Run2	repeat/STIM_007.jpg	99
1602.329	0.746	746.5	repeat	Run2	repeat/STIM_008.jpg	99
1606.625	0.668	667.5	repeat	Run2	repeat/STIM_008.jpg	100
1609.396	0.747	747.0	repeat	Run2	repeat/STIM_008.jpg	100
1612.886	0.735	734.9	repeat	Run2	repeat/STIM_008.jpg	99
1616.799	0.897	896.7	repeat	Run2	repeat/STIM_008.jpg	100
1621.058	0.643	642.7	repeat	Run2	repeat/STIM_009.jpg	99
1624.326	0.669	668.7	repeat	Run2	repeat/STIM_009.jpg	100
1627.951	0.863	862.9	repeat	Run2	repeat/STIM_009.jpg	100
1631.294	0.734	734.3	repeat	Run2	repeat/STIM_009.jpg	100
1635.09	0.789	789.1	repeat	Run2	repeat/STIM_009.jpg	100
1638.885	0.785	784.7	repeat	Run2	repeat/STIM_010.jpg	99
1643.358	0.838	838.2	repeat	Run2	repeat/STIM_010.jpg	100
1647.898	0.73	729.7	repeat	Run2	repeat/STIM_010.jpg	100
1650.828	0.537	537.0	repeat	Run2	repeat/STIM_010.jpg	100
1653.442	0.548	548.5	repeat	Run2	repeat/STIM_010.jpg	99
1656.552	0.533	533.4	repeat	Run2	repeat/STIM_011.jpg	100
1659.966	0.963	963.4	repeat	Run2	repeat/STIM_011.jpg	99
1663.864	0.564	564.0	repeat	Run2	repeat/STIM_011.jpg	100
1666.482	0.926	926.0	repeat	Run2	repeat/STIM_011.jpg	99
1671.025	0.952	952.0	repeat	Run2	repeat/STIM_011.jpg	100
1675.542	0.813	813.2	repeat	Run2	repeat/STIM_012.jpg	100
1678.937	0.488	488.5	repeat	Run2	repeat/STIM_012.jpg	100
1681.822	0.777	777.1	repeat	Run2	repeat/STIM_012.jpg	100
1685.8	0.653	652.7	repeat	Run2	repeat/STIM_012.jpg	100
1689.769	0.816	815.6	repeat	Run2	repeat/STIM_012.jpg	100
1694.328	0.68	679.9	repeat	Run2	repeat/STIM_013.jpg	100
1698.652	0.932	931.7	repeat	Run2	repeat/STIM_013.jpg	100
1702.336	0.877	877.4	repeat	Run2	repeat/STIM_013.jpg	99
1706.303	0.658	658.2	repeat	Run2	repeat/STIM_013.jpg	100
1709.271	0.558	557.5	repeat	Run2	repeat/STIM_013.jpg	99
1713.741	0.712	711.6	repeat	Run2	repeat/STIM_014.jpg	100
1718.262	0.704	704.1	repeat	Run2	repeat/STIM_014.jpg	99
1722.738	0.892	892.3	repeat	Run2	repeat/STIM_014.jpg	99
1726.313	0.733	732.9	repeat	Run2	repeat/STIM_014.jpg	99
1730.843	0.492	491.7	repeat	Run2	repeat/STIM_014.jpg	99
1735.279	1.889	1888.6	generate	Run3	generate/STIM_000.jpg	99
1739.554	1.26	1259.7	generate	Run3	generate/STIM_000.jpg	100
1743.378	1.832	1832.2	generate	Run3	generate/STIM_000.jpg	100
1748.692	1.031	1030.9	generate	Run3	generate/STIM_000.jpg	99
1753.271	1.12	1120.5	generate	Run3	generate/STIM_000.jpg	99
1758.274	1.67	1670.3	generate	Run3	generate/STIM_001.jpg	99
1762.674	1.495	1495.4	generate	Run3	generate/STIM_001.jpg	100
1768.036	1.951	1951.2	generate	Run3	generate/STIM_001.jpg	100
1772.295	1.853	1853.1	generate	Run3	generate/STIM_001.jpg	100
1776.799	1.605	1604.8	generate	Run3	generate/STIM_001.jpg	99
1781.619	0.865	865.2	generate	Run3	generate/STIM_002.jpg	99
1786.084	0.877	876.7	generate	Run3	generate/STIM_002.jpg	100
1790.567	1.029	1028.7	generate	Run3	generate/STIM_002.jpg	99
1794.658	1.382	1381.5	generate	Run3	generate/STIM_002.jpg	100
1798.779	0.922	921.5	generate	Run3	generate/STIM_002.jpg	100
1803.45	1.163	1163.4	generate	Run3	generate/STIM_003.jpg	99
1807.794	1.862	1861.8	generate	Run3	generate/STIM_003.jpg	99
1813.445	1.947	1947.4	generate	Run3	generate/STIM_003.jpg	99
1818.222	1.523	1522.8	generate	Run3	generate/STIM_003.jpg	99
1823.074	1.612	1611.8	generate	Run3	generate/STIM_003.jpg	100
1827.157	1.61	1609.7	generate	Run3	generate/STIM_004.jpg	99
1832.017	0.964	964.2	generate	Run3	generate/STIM_004.jpg	100
1836.162	1.104	1104.2	generate	Run3	generate/STIM_004.jpg	99
1839.297	0.828	827.8	generate	Run3	generate/STIM_004.jpg	100
1842.433	1.459	1459.2	generate	Run3	generate/STIM_004.jpg	100
1846.168	1.145	1144.6	generate	Run3	generate/STIM_005.jpg	99
1851.169	1.681	1680.6	generate	Run3	generate/STIM_005.jpg	99
1855.295	0.959	958.9	generate	Run3	generate/STIM_005.jpg	99
1858.359	1.665	1665.4	generate	Run3	generate/STIM_005.jpg	99
1862.395	1.531	1531.1	generate	Run3	generate/STIM_005.jpg	99
1867.074	1.728	1727.7	generate	Run3	generate/STIM_006.jpg	100
1872.602	1.644	1643.8	generate	Run3	generate/STIM_006.jpg	100
1877.986	1.027	1027.1	generate	Run3	generate/STIM_006.jpg	100
1882.859	1.87	1870.1	generate	Run3	generate/STIM_006.jpg	99
1888.186	1.568	1568.0	generate	Run3	generate/STIM_006.jpg	100
1893.34	0.829	829.1	generate	Run3	generate/STIM_007.jpg	99
1897.388	1.883	1883.3	generate	Run3	generate/STIM_007.jpg	99
1902.962	1.562	1561.9	generate	Run3	generate/STIM_007.jpg	100
1906.801	1.417	1417.3	generate	Run3	generate/STIM_007.jpg	99
1911.823	1.302	1301.5	generate	Run3	generate/STIM_007.jpg	99
1915.139	1.499	1499.0	generate	Run3	generate/STIM_008.jpg	99
1919.346	0.815	815.3	generate	Run3	generate/STIM_008.jpg	99
1923.966	1.468	1467.9	generate	Run3	generate/STIM_008.jpg	100
1928.231	1.453	1452.8	generate	Run3	generate/STIM_008.jpg	100
1931.849	1.168	1168.5	generate	Run3	generate/STIM_008.jpg	100
1935.055	1.783	1783.0	generate	Run3	generate/STIM_009.jpg	99
1940.768	1.053	1052.6	generate	Run3	generate/STIM_009.jpg	99
1944.622	1.098	1097.8	generate	Run3	generate/STIM_009.jpg	100
1949.522	1.874	1874.4	generate	Run3	generate/STIM_009.jpg	100
1955.222	1.082	1082.3	generate	Run3	generate/STIM_009.jpg	100
1958.82	1.12	1119.7	generate	Run3	generate/STIM_010.jpg	99
1962.532	1.221	1221.0	generate	Run3	generate/STIM_010.jpg	100
1967.251	1.202	1201.5	generate	Run3	generate/STIM_010.jpg	99
1971.221	1.419	1419.4	generate	Run3	generate/STIM_010.jpg	99
1975.319	1.996	1996.4	generate	Run3	generate/STIM_010.jpg	99
1980.552	1.079	1079.4	generate	Run3	generate/STIM_011.jpg	99
1983.791	1.843	1842.9	generate	Run3	generate/STIM_011.jpg	100
1987.994	1.754	1754.2	generate	Run3	generate/STIM_011.jpg	100
1993.447	1.967	1966.9	generate	Run3	generate/STIM_011.jpg	100
1997.466	1.948	1948.5	generate	Run3	generate/STIM_011.jpg	99
2003.301	1.915	1915.0	generate	Run3	generate/STIM_012.jpg	99
2008.04	0.962	962.0	generate	Run3	generate/STIM_012.jpg	99
2011.154	0.989	989.0	generate	Run3	generate/STIM_012.jpg	99
2014.474	1.785	1785.1	generate	Run3	generate/STIM_012.jpg	100
2018.311	0.987	986.7	generate	Run3	generate/STIM_012.jpg	99
2022.053	1.15	1150.1	generate	Run3	generate/STIM_013.jpg	99
2026.59	1.548	1548.5	generate	Run3	generate/STIM_013.jpg	100
2030.19	1.143	1143.1	generate	Run3	generate/STIM_013.jpg	99
2034.71	0.985	985.4	generate	Run3	generate/STIM_013.jpg	99
2038.348	0.854	854.5	generate	Run3	generate/STIM_013.jpg	100
2042.303	1.897	1896.6	generate	Run3	generate/STIM_014.jpg	100
2047.172	1.357	1356.9	generate	Run3	generate/STIM_014.jpg	99
2050.693	1.329	1329.4	generate	Run3	generate/STIM_014.jpg	100
2055.527	1.523	1523.4	generate	Run3	generate/STIM_014.jpg	100
2059.281	1.003	1002.6	generate	Run3	generate/STIM_014.jpg	100
2062.34	1.579	1578.6	generate	Run3	generate/STIM_015.jpg	100
2066.261	0.822	822.5	generate	Run3	generate/STIM_015.jpg	100
2069.799	1.544	1544.0	generate	Run3	generate/STIM_015.jpg	100
2075.28	0.98	980.0	generate	Run3	generate/STIM_015.jpg	99
2078.965	1.794	1794.4	generate	Run3	generate/STIM_015.jpg	100
2084.24	1.079	1079.3	generate	Run3	generate/STIM_016.jpg	100
2088.206	1.251	1250.6	generate	Run3	generate/STIM_016.jpg	100
2091.473	1.65	1650.2	generate	Run3	generate/STIM_016.jpg	99
2096.487	0.995	994.8	generate	Run3	generate/STIM_016.jpg	100
2100.251	1.017	1017.1	generate	Run3	generate/STIM_016.jpg	100
2104.441	1.925	1925.0	generate	Run3	generate/STIM_017.jpg	99
2109.394	0.85	850.3	generate	Run3	generate/STIM_017.jpg	99
2112.626	2.018	2018.3	generate	Run3	generate/STIM_017.jpg	100
2117.249	1.286	1285.5	generate	Run3	generate/STIM_017.jpg	100
2122.242	1.13	1129.5	generate	Run3	generate/STIM_017.jpg	100
2126.797	1.494	1493.9	generate	Run3	generate/STIM_018.jpg	100
2131.972	1.747	1747.3	generate	Run3	generate/STIM_018.jpg	100
2136.434	1.544	1544.5	generate	Run3	generate/STIM_018.jpg	100
2141.585	1.623	1623.0	generate	Run3	generate/STIM_018.jpg	99
2145.356	1.339	1338.6	generate	Run3	generate/STIM_018.jpg	99
2150.474	1.483	1482.6	generate	Run3	generate/STIM_019.jpg	100
2155.193	1.525	1525.1	generate	Run3	generate/STIM_019.jpg	100
2160.047	1.749	1749.1	generate	Run3	generate/STIM_019.jpg	100
2165.674	1.17	1169.7	generate	Run3	generate/STIM_019.jpg	100
2170.374	1.984	1984.4	generate	Run3	generate/STIM_019.jpg	99
2174.583	1.511	1511.2	generate	Run3	generate/STIM_020.jpg	99
2178.19	1.037	1037.2	generate	Run3	generate/STIM_020.jpg	100
2181.233	1.534	1534.0	generate	Run3	generate/STIM_020.jpg	100
2185.161	1.092	1091.5	generate	Run3	generate/STIM_020.jpg	100
2188.772	1.963	1962.9	generate	Run3	generate/STIM_020.jpg	99
2194.527	0.918	917.6	generate	Run3	generate/STIM_021.jpg	99
2197.929	1.224	1223.7	generate	Run3	generate/STIM_021.jpg	100
2201.963	0.966	966.0	generate	Run3	generate/STIM_021.jpg	100
2206.123	0.886	886.5	generate	Run3	generate/STIM_021.jpg	99
2210.973	1.735	1735.4	generate	Run3	generate/STIM_021.jpg	100
2215.511	0.865	864.9	generate	Run3	generate/STIM_022.jpg	100
2219.212	0.846	846.1	generate	Run3	generate/STIM_022.jpg	100
2222.967	0.864	864.4	generate	Run3	generate/STIM_022.jpg	100
2225.89	1.629	1629.3	generate	Run3	generate/STIM_022.jpg	99
2230.916	1.1	1100.3	generate	Run3	generate/STIM_022.jpg	100
2234.729	0.888	888.3	generate	Run3	generate/STIM_023.jpg	99
2238.864	1.05	1050.4	generate	Run3	generate/STIM_023.jpg	100
2242.43	1.513	1513.2	generate	Run3	generate/STIM_023.jpg	99
2247.868	1.73	1729.7	generate	Run3	generate/STIM_023.jpg	99
2252.544	1.373	1373.3	generate	Run3	generate/STIM_023.jpg	100
2256.659	1.226	1226.0	generate	Run3	generate/STIM_024.jpg	99
2260.787	1.176	1175.7	generate	Run3	generate/STIM_024.jpg	100
2265.512	0.85	849.8	generate	Run3	generate/STIM_024.jpg	100
2269.846	1.93	1930.1	generate	Run3	generate/STIM_024.jpg	100
2274.619	1.897	1897.1	generate	Run3	generate/STIM_024.jpg	99
2278.757	0.815	815.2	repeat	Run3	repeat/STIM_000.jpg	99
2282.662	0.703	703.0	repeat	Run3	repeat/STIM_000.jpg	99
2285.758	0.676	675.8	repeat	Run3	repeat/STIM_000.jpg	99
2289.482	0.948	948.2	repeat	Run3	repeat/STIM_000.jpg	100
2293.087	0.519	519.0	repeat	Run3	repeat/STIM_000.jpg	99
2295.635	0.887	886.9	repeat	Run3	repeat/STIM_001.jpg	99
2299.126	0.608	608.5	repeat	Run3	repeat/STIM_001.jpg	99
2302.611	0.576	576.5	repeat	Run3	repeat/STIM_001.jpg	100
2306.686	0.836	835.8	repeat	Run3	repeat/STIM_001.jpg	99
2310.157	0.752	752.4	repeat	Run3	repeat/STIM_001.jpg	100
2313.037	0.812	812.5	repeat	Run3	repeat/STIM_002.jpg	100
2317.645	0.685	684.7	repeat	Run3	repeat/STIM_002.jpg	100
2322.163	0.726	725.6	repeat	Run3	repeat/STIM_002.jpg	99
2326.884	0.756	755.5	repeat	Run3	repeat/STIM_002.jpg	99
2331.384	0.843	843.1	repeat	Run3	repeat/STIM_002.jpg	100
2334.899	0.825	824.7	repeat	Run3	repeat/STIM_003.jpg	100
2339.109	0.589	589.4	repeat	Run3	repeat/STIM_003.jpg	100
2342.053	0.682	682.1	repeat	Run3	repeat/STIM_003.jpg	99
2346.527	0.708	708.5	repeat	Run3	repeat/STIM_003.jpg	99
2350.295	0.628	627.5	repeat	Run3	repeat/STIM_003.jpg	100
2353.103	0.581	581.4	repeat	Run3	repeat/STIM_004.jpg	99
2356.537	0.877	877.4	repeat	Run3	repeat/STIM_004.jpg	100
2360.34	0.89	890.5	repeat	Run3	repeat/STIM_004.jpg	100
2364.192	0.62	620.4	repeat	Run3	repeat/STIM_004.jpg	99
2368.055	0.892	892.2	repeat	Run3	repeat/STIM_004.jpg	99
2372.162	0.546	546.5	repeat	Run3	repeat/STIM_005.jpg	99
2375.872	0.846	845.7	repeat	Run3	repeat/STIM_005.jpg	99
2380.42	0.919	918.7	repeat	Run3	repeat/STIM_005.jpg	99
2384.436	0.569	568.6	repeat	Run3	repeat/STIM_005.jpg	99
2387.495	0.951	950.9	repeat	Run3	repeat/STIM_005.jpg	100
2390.975	0.932	931.8	repeat	Run3	repeat/STIM_006.jpg	100
2395.626	0.61	610.2	repeat	Run3	repeat/STIM_006.jpg	99
2400.022	0.851	850.9	repeat	Run3	repeat/STIM_006.jpg	100
2404.57	0.919	919.3	repeat	Run3	repeat/STIM_006.jpg	99
2407.852	0.576	575.9	repeat	Run3	repeat/STIM_006.jpg	99
2410.896	0.96	959.9	repeat	Run3	repeat/STIM_007.jpg	99
2415.118	0.584	584.4	repeat	Run3	repeat/STIM_007.jpg	99
2418.779	0.902	901.6	repeat	Run3	repeat/STIM_007.jpg	99
2422.682	0.637	636.6	repeat	Run3	repeat/STIM_007.jpg	100
2426.141	0.562	562.4	repeat	Run3	repeat/STIM_007.jpg	100
2429.207	0.684	684.0	repeat	Run3	repeat/STIM_008.jpg	100
2432.274	0.725	724.8	repeat	Run3	repeat/STIM_008.jpg	100
2436.924	0.922	921.8	repeat	Run3	repeat/STIM_008.jpg	99
2441.266	0.734	734.1	repeat	Run3	repeat/STIM_008.jpg	100
2444.095	0.503	503.4	repeat	Run3	repeat/STIM_008.jpg	100
2448.543	0.8	800.0	repeat	Run3	repeat/STIM_009.jpg	99
2452.581	0.728	727.5	repeat	Run3	repeat/STIM_009.jpg	99
2455.612	0.617	617.3	repeat	Run3	repeat/STIM_009.jpg	100
2459.97	0.91	909.8	repeat	Run3	repeat/STIM_009.jpg	100
2464.57	0.535	535.3	repeat	Run3	repeat/STIM_009.jpg	99
2468.058	0.509	508.8	repeat	Run3	repeat/STIM_010.jpg	100
2472.385	0.602	601.5	repeat	Run3	repeat/STIM_010.jpg	100
2476.276	0.678	678.4	repeat	Run3	repeat/STIM_010.jpg	99
2479.614	0.669	668.7	repeat	Run3	repeat/STIM_010.jpg	100
2483.119	0.871	871.1	repeat	Run3	repeat/STIM_010.jpg	99
2487.379	0.683	683.0	repeat	Run3	repeat/STIM_011.jpg	99
2491.254	0.641	641.2	repeat	Run3	repeat/STIM_011.jpg	99
2494.931	0.892	892.5	repeat	Run3	repeat/STIM_011.jpg	100
2499.292	0.858	857.8	repeat	Run3	repeat/STIM_011.jpg	99
2503.42	0.767	766.8	repeat	Run3	repeat/STIM_011.jpg	99
2506.446	0.519	518.9	repeat	Run3	repeat/STIM_012.jpg	100
2510.683	0.941	941.0	repeat	Run3	repeat/STIM_012.jpg	100
2515.264	0.862	862.1	repeat	Run3	repeat/STIM_012.jpg	99
2519.09	0.938	938.4	repeat	Run3	repeat/STIM_012.jpg	100
2523.009	0.751	750.9	repeat	Run3	repeat/STIM_012.jpg	100
2526.814	0.581	581.2	repeat	Run3	repeat/STIM_013.jpg	99
2531.063	0.609	609.4	repeat	Run3	repeat/STIM_013.jpg	100
2534.173	0.536	536.1	repeat	Run3	repeat/STIM_013.jpg	100
2538.325	0.675	675.0	repeat	Run3	repeat/STIM_013.jpg	99
2541.575	0.873	873.1	repeat	Run3	repeat/STIM_013.jpg	100
2546.351	0.863	863.0	repeat	Run3	repeat/STIM_014.jpg	99
2551.058	0.812	811.9	repeat	Run3	repeat/STIM_014.jpg	99
2554.077	0.636	635.9	repeat	Run3	repeat/STIM_014.jpg	100
2557.54	0.641	641.4	repeat	Run3	repeat/STIM_014.jpg	100
2561.668	0.948	947.7	repeat	Run3	repeat/STIM_014.jpg	100
2565.716	1.757	1756.6	generate	Run4	generate/STIM_000.jpg	99
2570.891	0.944	943.9	generate	Run4	generate/STIM_000.jpg	100
2575.248	1.636	1635.8	generate	Run4	generate/STIM_000.jpg	99
2579.455	1.571	1571.0	generate	Run4	generate/STIM_000.jpg	100
2583.69	1.883	1883.4	generate	Run4	generate/STIM_000.jpg	100
2588.809	1.859	1858.9	generate	Run4	generate/STIM_001.jpg	100
2593.337	1.066	1066.4	generate	Run4	generate/STIM_001.jpg	100
2598.391	1.164	1164.4	generate	Run4	generate/STIM_001.jpg	99
2601.653	1.434	1434.5	generate	Run4	generate/STIM_001.jpg	99
2606.434	1.326	1325.5	generate	Run4	generate/STIM_001.jpg	100
2611.638	1.738	1737.6	generate	Run4	generate/STIM_002.jpg	99
2617.133	1.665	1665.0	generate	Run4	generate/STIM_002.jpg	100
2620.998	1.862	1861.9	generate	Run4	generate/STIM_002.jpg	100
2626.068	1.958	1957.7	generate	Run4	generate/STIM_002.jpg	99
2631.321	1.596	1595.7	generate	Run4	generate/STIM_002.jpg	100
2636.699	1.227	1227.4	generate	Run4	generate/STIM_003.jpg	100
2641.66	1.004	1003.8	generate	Run4	generate/STIM_003.jpg	99
2645.363	1.03	1030.5	generate	Run4	generate/STIM_003.jpg	100
2650.324	1.234	1234.1	generate	Run4	generate/STIM_003.jpg	99
2655.225	1.0	1000.5	generate	Run4	generate/STIM_003.jpg	99
2659.392	1.371	1370.8	generate	Run4	generate/STIM_004.jpg	100
2664.524	0.836	835.9	generate	Run4	generate/STIM_004.jpg	99
2669.192	1.518	1518.1	generate	Run4	generate/STIM_004.jpg	99
2673.55	1.884	1883.9	generate	Run4	generate/STIM_004.jpg	100
2679.205	0.893	892.6	generate	Run4	generate/STIM_004.jpg	100
2682.707	0.861	861.3	generate	Run4	generate/STIM_005.jpg	100
2687.195	1.793	1792.9	generate	Run4	generate/STIM_005.jpg	99
2692.642	1.769	1769.0	generate	Run4	generate/STIM_005.jpg	99
2696.75	1.232	1231.5	generate	Run4	generate/STIM_005.jpg	100
2701.422	1.116	1115.5	generate	Run4	generate/STIM_005.jpg	100
2705.195	0.999	999.1	generate	Run4	generate/STIM_006.jpg	100
2709.741	1.834	1834.0	generate	Run4	generate/STIM_006.jpg	99
2713.985	1.426	1425.5	generate	Run4	generate/STIM_006.jpg	100
2718.277	1.65	1650.3	generate	Run4	generate/STIM_006.jpg	99
2723.607	1.788	1788.1	generate	Run4	generate/STIM_006.jpg	100
2729.289	1.986	1985.5	generate	Run4	generate/STIM_007.jpg	100
2733.453	1.387	1386.8	generate	Run4	generate/STIM_007.jpg	100
2737.686	1.878	1878.2	generate	Run4	generate/STIM_007.jpg	99
2741.981	1.755	1755.2	generate	Run4	generate/STIM_007.jpg	100
2745.781	1.835	1834.7	generate	Run4	generate/STIM_007.jpg	99
2750.049	1.496	1495.5	generate	Run4	generate/STIM_008.jpg	99
2754.226	1.332	1331.8	generate	Run4	generate/STIM_008.jpg	100
2759.343	1.68	1680.5	generate	Run4	generate/STIM_008.jpg	99
2764.54	1.125	1124.7	generate	Run4	generate/STIM_008.jpg	99
2768.336	1.274	1273.9	generate	Run4	generate/STIM_008.jpg	100
2772.287	1.218	1217.7	generate	Run4	generate/STIM_009.jpg	99
2776.132	1.324	1324.4	generate	Run4	generate/STIM_009.jpg	100
2780.658	1.552	1551.6	generate	Run4	generate/STIM_009.jpg	99
2784.589	1.751	1751.2	generate	Run4	generate/STIM_009.jpg	99
2789.828	1.838	1837.8	generate	Run4	generate/STIM_009.jpg	100
2794.463	1.995	1995.0	generate	Run4	generate/STIM_010.jpg	100
2800.206	1.154	1153.6	generate	Run4	generate/STIM_010.jpg	99
2804.87	1.51	1510.2	generate	Run4	generate/STIM_010.jpg	99
2809.983	1.812	1811.7	generate	Run4	generate/STIM_010.jpg	100
2814.444	1.143	1143.2	generate	Run4	generate/STIM_010.jpg	99
2819.183	1.056	1056.3	generate	Run4	generate/STIM_011.jpg	100
2822.488	1.771	1770.7	generate	Run4	generate/STIM_011.jpg	99
2826.593	1.603	1603.0	generate	Run4	generate/STIM_011.jpg	100
2830.813	1.105	1104.6	generate	Run4	generate/STIM_011.jpg	99
2835.255	1.47	1470.4	generate	Run4	generate/STIM_011.jpg	99
2840.016	0.864	863.5	generate	Run4	generate/STIM_012.jpg	100
2843.043	1.866	1865.9	generate	Run4	generate/STIM_012.jpg	99
2847.493	1.608	1608.3	generate	Run4	generate/STIM_012.jpg	100
2851.272	0.82	819.5	generate	Run4	generate/STIM_012.jpg	100
2855.613	1.48	1480.0	generate	Run4	generate/STIM_012.jpg	100
2860.052	1.392	1392.0	generate	Run4	generate/STIM_013.jpg	100
2863.741	0.954	953.7	generate	Run4	generate/STIM_013.jpg	99
2867.174	1.569	1569.1	generate	Run4	generate/STIM_013.jpg	100
2871.342	1.354	1353.6	generate	Run4	generate/STIM_013.jpg	99
2874.935	1.538	1537.8	generate	Run4	generate/STIM_013.jpg	100
2880.4	1.988	1988.5	generate	Run4	generate/STIM_014.jpg	99
2884.85	1.116	1115.6	generate	Run4	generate/STIM_014.jpg	99
2889.136	1.731	1730.8	generate	Run4	generate/STIM_014.jpg	100
2893.879	1.288	1288.5	generate	Run4	generate/STIM_014.jpg	99
2897.244	1.591	1591.0	generate	Run4	generate/STIM_014.jpg	100
2900.954	0.889	889.2	generate	Run4	generate/STIM_015.jpg	100
2905.539	0.866	865.5	generate	Run4	generate/STIM_015.jpg	100
2909.275	1.585	1585.4	generate	Run4	generate/STIM_015.jpg	100
2913.622	1.472	1471.9	generate	Run4	generate/STIM_015.jpg	100
2917.298	1.488	1488.0	generate	Run4	generate/STIM_015.jpg	99
2922.531	1.073	1073.0	generate	Run4	generate/STIM_016.jpg	99
2926.76	1.571	1571.3	generate	Run4	generate/STIM_016.jpg	99
2931.916	1.728	1727.9	generate	Run4	generate/STIM_016.jpg	99
2937.159	1.235	1234.9	generate	Run4	generate/STIM_016.jpg	99
2941.747	1.625	1624.9	generate	Run4	generate/STIM_016.jpg	100
2946.735	1.489	1489.2	generate	Run4	generate/STIM_017.jpg	99
2951.813	1.702	1702.0	generate	Run4	generate/STIM_017.jpg	99
2955.924	2.005	2004.7	generate	Run4	generate/STIM_017.jpg	99
2961.495	1.377	1377.2	generate	Run4	generate/STIM_017.jpg	100
2965.262	0.889	889.0	generate	Run4	generate/STIM_017.jpg	99
2968.893	0.81	810.3	generate	Run4	generate/STIM_018.jpg	100
2972.501	1.945	1944.6	generate	Run4	generate/STIM_018.jpg	99
2977.859	1.766	1765.5	generate	Run4	generate/STIM_018.jpg	100
2981.919	1.033	1033.0	generate	Run4	generate/STIM_018.jpg	99
2985.978	1.106	1106.2	generate	Run4	generate/STIM_018.jpg	99
2990.904	1.385	1385.0	generate	Run4	generate/STIM_019.jpg	99
2994.332	0.964	963.8	generate	Run4	generate/STIM_019.jpg	99
2997.502	1.597	1597.1	generate	Run4	generate/STIM_019.jpg	99
3002.777	1.202	1201.5	generate	Run4	generate/STIM_019.jpg	99
3006.635	1.371	1370.7	generate	Run4	generate/STIM_019.jpg	100
3011.09	1.701	1700.6	generate	Run4	generate/STIM_020.jpg	100
3015.001	0.886	885.9	generate	Run4	generate/STIM_020.jpg	100
3019.612	0.872	871.8	generate	Run4	generate/STIM_020.jpg	99
3022.546	1.844	1844.0	generate	Run4	generate/STIM_020.jpg	100
3027.44	1.882	1882.2	generate	Run4	generate/STIM_020.jpg	99
3032.038	1.475	1475.2	generate	Run4	generate/STIM_021.jpg	100
3035.691	1.552	1552.2	generate	Run4	generate/STIM_021.jpg	99
3039.311	0.924	923.7	generate	Run4	generate/STIM_021.jpg	99
3043.336	1.519	1518.6	generate	Run4	generate/STIM_021.jpg	99
3048.707	1.827	1826.7	generate	Run4	generate/STIM_021.jpg	100
3054.467	0.892	892.3	generate	Run4	generate/STIM_022.jpg	99
3058.278	1.166	1166.4	generate	Run4	generate/STIM_022.jpg	99
3061.483	0.938	937.7	generate	Run4	generate/STIM_022.jpg	100
3065.798	1.155	1155.1	generate	Run4	generate/STIM_022.jpg	99
3070.307	1.126	1126.5	generate	Run4	generate/STIM_022.jpg	99
3074.662	1.799	1799.4	generate	Run4	generate/STIM_023.jpg	99
3078.838	0.826	826.3	generate	Run4	generate/STIM_023.jpg	100
3082.969	0.831	830.9	generate	Run4	generate/STIM_023.jpg	100
3086.634	1.458	1457.8	generate	Run4	generate/STIM_023.jpg	100
3090.28	1.445	1444.6	generate	Run4	generate/STIM_023.jpg	99
3095.422	1.544	1543.8	generate	Run4	generate/STIM_024.jpg	100
3099.074	1.281	1281.2	generate	Run4	generate/STIM_024.jpg	100
3102.455	1.588	1587.8	generate	Run4	generate/STIM_024.jpg	99
3106.103	1.614	1614.1	generate	Run4	generate/STIM_024.jpg	100
3111.119	0.907	907.1	generate	Run4	generate/STIM_024.jpg	100
3115.37	0.785	785.4	repeat	Run4	repeat/STIM_000.jpg	99
3119.154	0.637	637.0	repeat	Run4	repeat/STIM_000.jpg	100
3122.217	0.531	531.0	repeat	Run4	repeat/STIM_000.jpg	100
3125.556	0.949	948.8	repeat	Run4	repeat/STIM_000.jpg	100
3129.729	0.867	866.7	repeat	Run4	repeat/STIM_000.jpg	99
3132.872	0.757	757.3	repeat	Run4	repeat/STIM_001.jpg	100
3135.916	0.823	823.1	repeat	Run4	repeat/STIM_001.jpg	100
3139.747	0.753	753.3	repeat	Run4	repeat/STIM_001.jpg	100
3144.082	0.856	855.5	repeat	Run4	repeat/STIM_001.jpg	100
3148.326	0.759	759.3	repeat	Run4	repeat/STIM_001.jpg	100
3151.172	0.792	792.2	repeat	Run4	repeat/STIM_002.jpg	100
3155.202	0.741	741.0	repeat	Run4	repeat/STIM_002.jpg	100
3159.913	0.851	851.2	repeat	Run4	repeat/STIM_002.jpg	100
3164.192	0.619	618.7	repeat	Run4	repeat/STIM_002.jpg	100
3166.881	0.901	901.2	repeat	Run4	repeat/STIM_002.jpg	99
3171.462	0.561	561.3	repeat	Run4	repeat/STIM_003.jpg	99
3174.576	0.775	774.8	repeat	Run4	repeat/STIM_003.jpg	100
3178.774	0.675	675.1	repeat	Run4	repeat/STIM_003.jpg	100
3182.908	0.744	743.8	repeat	Run4	repeat/STIM_003.jpg	99
3187.347	0.944	944.2	repeat	Run4	repeat/STIM_003.jpg	100
3190.935	0.762	762.2	repeat	Run4	repeat/STIM_004.jpg	99
3194.992	0.924	923.8	repeat	Run4	repeat/STIM_004.jpg	99
3198.94	0.69	689.5	repeat	Run4	repeat/STIM_004.jpg	100
3203.303	0.784	784.4	repeat	Run4	repeat/STIM_004.jpg	99
3207.065	0.556	555.8	repeat	Run4	repeat/STIM_004.jpg	100
3209.744	0.898	897.5	repeat	Run4	repeat/STIM_005.jpg	100
3213.256	0.731	730.6	repeat	Run4	repeat/STIM_005.jpg	99
3217.17	0.66	660.1	repeat	Run4	repeat/STIM_005.jpg	99
3221.184	0.666	665.8	repeat	Run4	repeat/STIM_005.jpg	99
3225.434	0.618	618.2	repeat	Run4	repeat/STIM_005.jpg	100
3229.492	0.834	833.7	repeat	Run4	repeat/STIM_006.jpg	100
3232.441	0.824	824.2	repeat	Run4	repeat/STIM_006.jpg	99
3236.265	0.863	863.1	repeat	Run4	repeat/STIM_006.jpg	100
3239.856	0.677	677.1	repeat	Run4	repeat/STIM_006.jpg	100
3243.314	0.591	590.6	repeat	Run4	repeat/STIM_006.jpg	100
3247.009	0.674	673.8	repeat	Run4	repeat/STIM_007.jpg	100
3251.349	0.633	632.6	repeat	Run4	repeat/STIM_007.jpg	100
3255.565	0.884	884.1	repeat	Run4	repeat/STIM_007.jpg	99
3260.311	0.512	512.0	repeat	Run4	repeat/STIM_007.jpg	100
3263.115	0.817	816.9	repeat	Run4	repeat/STIM_007.jpg	100
3267.733	0.797	796.6	repeat	Run4	repeat/STIM_008.jpg	99
3272.163	0.561	560.7	repeat	Run4	repeat/STIM_008.jpg	100
3275.56	0.49	490.4	repeat	Run4	repeat/STIM_008.jpg	99
3280.041	0.595	595.3	repeat	Run4	repeat/STIM_008.jpg	100
3283.151	0.497	496.8	repeat	Run4	repeat/STIM_008.jpg	99
3286.69	0.902	901.6	repeat	Run4	repeat/STIM_009.jpg	99
3289.984	0.937	937.2	repeat	Run4	repeat/STIM_009.jpg	99
3292.971	0.569	568.8	repeat	Run4	repeat/STIM_009.jpg	99
3297.444	0.758	758.5	repeat	Run4	repeat/STIM_009.jpg	99
3302.18	0.559	559.4	repeat	Run4	repeat/STIM_009.jpg	100
3304.82	0.636	636.3	repeat	Run4	repeat/STIM_010.jpg	99
3308.708	0.506	506.3	repeat	Run4	repeat/STIM_010.jpg	100
3311.629	0.928	928.5	repeat	Run4	repeat/STIM_010.jpg	100
3314.755	0.649	649.2	repeat	Run4	repeat/STIM_010.jpg	100
3318.071	0.695	695.1	repeat	Run4	repeat/STIM_010.jpg	99
3321.761	0.559	559.3	repeat	Run4	repeat/STIM_011.jpg	100
3324.671	0.718	718.0	repeat	Run4	repeat/STIM_011.jpg	99
3328.979	0.574	574.2	repeat	Run4	repeat/STIM_011.jpg	100
3331.704	0.845	845.0	repeat	Run4	repeat/STIM_011.jpg	99
3335.178	0.784	783.7	repeat	Run4	repeat/STIM_011.jpg	99
3337.978	0.773	773.4	repeat	Run4	repeat/STIM_012.jpg	99
3342.337	0.506	505.7	repeat	Run4	repeat/STIM_012.jpg	99
3346.375	0.863	862.8	repeat	Run4	repeat/STIM_012.jpg	100
3350.234	0.711	710.8	repeat	Run4	repeat/STIM_012.jpg	100
3353.482	0.535	534.6	repeat	Run4	repeat/STIM_012.jpg	99
3356.947	0.804	803.9	repeat	Run4	repeat/STIM_013.jpg	99
3360.617	0.888	888.1	repeat	Run4	repeat/STIM_013.jpg	100
3364.59	0.494	493.5	repeat	Run4	repeat/STIM_013.jpg	99
3367.515	0.495	495.1	repeat	Run4	repeat/STIM_013.jpg	100
3371.326	0.787	786.7	repeat	Run4	repeat/STIM_013.jpg	100
3374.933	0.558	558.4	repeat	Run4	repeat/STIM_014.jpg	99
3378.798	0.868	867.8	repeat	Run4	repeat/STIM_014.jpg	100
3382.078	0.843	843.2	repeat	Run4	repeat/STIM_014.jpg	100
3385.732	0.662	661.9	repeat	Run4	repeat/STIM_014.jpg	100
3389.323	0.789	789.1	repeat	Run4	repeat/STIM_014.jpg	100
