onset	duration	response_time_ms	trial_type	learning_stage	stimulus	response_port
0.0	0.975	975.2	study	Phase1	study/STIM_000.jpg	99
3.222	1.632	1632.0	study	Phase1	study/STIM_000.jpg	99
8.581	1.471	1470.7	study	Phase1	study/STIM_000.jpg	99
12.938	1.787	1787.1	study	Phase1	study/STIM_001.jpg	100
16.826	1.098	1098.0	study	Phase1	study/STIM_001.jpg	99
20.035	1.113	1113.4	study	Phase1	study/STIM_001.jpg	99
23.573	1.073	1072.9	study	Phase1	study/STIM_002.jpg	99
26.799	1.337	1337.3	study	Phase1	study/STIM_002.jpg	100
31.746	1.483	1483.0	study	Phase1	study/STIM_002.jpg	99
37.141	1.765	1765.4	study	Phase1	study/STIM_003.jpg	100
42.338	1.059	1058.9	study	Phase1	study/STIM_003.jpg	100
45.583	1.394	1394.4	study	Phase1	study/STIM_003.jpg	100
50.61	1.176	1176.4	study	Phase1	study/STIM_004.jpg	99
54.602	1.44	1440.2	study	Phase1	study/STIM_004.jpg	100
58.389	1.396	1395.9	study	Phase1	study/STIM_004.jpg	99
62.956	1.335	1335.1	study	Phase1	study/STIM_005.jpg	100
67.757	0.772	772.5	study	Phase1	study/STIM_005.jpg	100
72.393	1.598	1597.6	study	Phase1	study/STIM_005.jpg	100
77.111	0.808	807.5	study	Phase1	study/STIM_006.jpg	99
80.343	0.889	889.0	study	Phase1	study/STIM_006.jpg	99
84.562	1.122	1122.2	study	Phase1	study/STIM_006.jpg	99
89.138	1.627	1627.4	study	Phase1	study/STIM_007.jpg	99
93.655	1.454	1454.2	study	Phase1	study/STIM_007.jpg	99
98.927	1.173	1172.8	study	Phase1	study/STIM_007.jpg	99
103.9	1.07	1070.4	study	Phase1	study/STIM_008.jpg	99
108.788	1.475	1475.2	study	Phase1	study/STIM_008.jpg	100
112.364	0.911	910.8	study	Phase1	study/STIM_008.jpg	99
116.845	0.871	870.7	study	Phase1	study/STIM_009.jpg	100
120.339	1.384	1384.4	study	Phase1	study/STIM_009.jpg	99
123.74	0.864	863.7	study	Phase1	study/STIM_009.jpg	99
127.199	0.925	925.0	study	Phase1	study/STIM_010.jpg	100
131.825	1.218	1218.3	study	Phase1	study/STIM_010.jpg	99
135.166	1.17	1169.6	study	Phase1	study/STIM_010.jpg	100
138.581	1.717	1717.0	study	Phase1	study/STIM_011.jpg	99
143.902	1.28	1280.5	study	Phase1	study/STIM_011.jpg	99
148.463	0.931	930.7	study	Phase1	study/STIM_011.jpg	100
152.471	1.29	1289.5	study	Phase1	study/STIM_012.jpg	100
156.821	1.29	1290.0	study	Phase1	study/STIM_012.jpg	99
161.63	0.924	923.6	study	Phase1	study/STIM_012.jpg	99
166.491	1.53	1529.5	study	Phase1	study/STIM_013.jpg	100
170.553	1.717	1716.8	study	Phase1	study/STIM_013.jpg	100
175.772	1.085	1084.8	study	Phase1	study/STIM_013.jpg	99
179.427	1.252	1251.6	study	Phase1	study/STIM_014.jpg	99
184.561	1.165	1165.2	study	Phase1	study/STIM_014.jpg	100
189.302	0.817	816.6	study	Phase1	study/STIM_014.jpg	99
192.542	1.73	1729.6	study	Phase1	study/STIM_015.jpg	100
196.473	1.622	1621.8	study	Phase1	study/STIM_015.jpg	99
201.73	0.825	825.1	study	Phase1	study/STIM_015.jpg	99
205.808	1.322	1321.8	study	Phase1	study/STIM_016.jpg	100
210.618	1.052	1051.6	study	Phase1	study/STIM_016.jpg	100
214.285	1.522	1522.2	study	Phase1	study/STIM_016.jpg	100
219.64	1.666	1665.6	study	Phase1	study/STIM_017.jpg	99
224.78	1.125	1124.9	study	Phase1	study/STIM_017.jpg	100
228.042	0.919	919.1	study	Phase1	study/STIM_017.jpg	99
231.797	0.833	833.0	study	Phase1	study/STIM_018.jpg	100
236.619	1.085	1085.3	study	Phase1	study/STIM_018.jpg	100
240.992	1.561	1561.0	study	Phase1	study/STIM_018.jpg	99
245.867	0.992	992.5	study	Phase1	study/STIM_019.jpg	99
250.506	1.58	1580.4	study	Phase1	study/STIM_019.jpg	100
254.904	0.867	866.9	study	Phase1	study/STIM_019.jpg	100
259.245	0.907	907.4	study	Phase1	study/STIM_020.jpg	100
264.056	0.783	783.0	study	Phase1	study/STIM_020.jpg	99
267.746	1.432	1431.7	study	Phase1	study/STIM_020.jpg	99
272.543	1.427	1427.0	study	Phase1	study/STIM_021.jpg	99
277.007	1.464	1464.2	study	Phase1	study/STIM_021.jpg	100
282.439	1.234	1233.9	study	Phase1	study/STIM_021.jpg	99
285.859	1.274	1273.5	study	Phase1	study/STIM_022.jpg	100
289.375	1.251	1251.4	study	Phase1	study/STIM_022.jpg	99
293.547	1.176	1176.4	study	Phase1	study/STIM_022.jpg	100
297.455	1.675	1674.7	study	Phase1	study/STIM_023.jpg	100
302.111	1.484	1484.2	study	Phase1	study/STIM_023.jpg	100
305.683	1.281	1280.6	study	Phase1	study/STIM_023.jpg	99
310.151	1.353	1352.9	study	Phase1	study/STIM_024.jpg	99
314.52	1.512	1512.1	study	Phase1	study/STIM_024.jpg	99
318.463	1.119	1119.4	study	Phase1	study/STIM_024.jpg	100
322.421	1.046	1046.4	study	Phase1	study/STIM_025.jpg	100
325.702	1.05	1050.3	study	Phase1	study/STIM_025.jpg	99
330.118	1.62	1620.1	study	Phase1	study/STIM_025.jpg	99
335.365	1.627	1627.4	study	Phase1	study/STIM_026.jpg	99
339.498	1.219	1218.6	study	Phase1	study/STIM_026.jpg	100
343.85	0.747	747.0	study	Phase1	study/STIM_026.jpg	100
348.021	1.086	1086.0	study	Phase1	study/STIM_027.jpg	100
352.772	0.809	809.1	study	Phase1	study/STIM_027.jpg	100
356.039	1.347	1347.3	study	Phase1	study/STIM_027.jpg	100
361.113	1.162	1161.6	study	Phase1	study/STIM_028.jpg	99
364.741	1.316	1316.4	study	Phase1	study/STIM_028.jpg	100
368.869	0.955	955.3	study	Phase1	study/STIM_028.jpg	100
373.634	1.144	1144.2	study	Phase1	study/STIM_029.jpg	100
377.438	1.413	1412.9	study	Phase1	study/STIM_029.jpg	100
382.048	1.586	1586.1	study	Phase1	study/STIM_029.jpg	100
387.584	1.116	1116.0	test	Phase1	test/STIM_000.jpg	99
392.359	0.613	612.9	test	Phase1	test/STIM_000.jpg	99
395.405	0.683	683.4	test	Phase1	test/STIM_000.jpg	100
398.35	0.791	790.6	test	Phase1	test/STIM_001.jpg	99
402.39	1.147	1146.9	test	Phase1	test/STIM_001.jpg	100
407.035	0.889	889.0	test	Phase1	test/STIM_001.jpg	99
410.264	0.887	887.3	test	Phase1	test/STIM_002.jpg	100
413.645	1.135	1135.2	test	Phase1	test/STIM_002.jpg	100
417.135	0.89	889.8	test	Phase1	test/STIM_002.jpg	99
420.249	0.969	969.4	test	Phase1	test/STIM_003.jpg	100
424.721	0.88	880.1	test	Phase1	test/STIM_003.jpg	99
429.315	0.752	752.2	test	Phase1	test/STIM_003.jpg	99
432.906	0.8	799.5	test	Phase1	test/STIM_004.jpg	99
435.955	1.139	1139.2	test	Phase1	test/STIM_004.jpg	100
439.587	1.26	1259.5	test	Phase1	test/STIM_004.jpg	100
443.385	0.838	838.1	test	Phase1	test/STIM_005.jpg	100
447.509	1.1	1100.1	test	Phase1	test/STIM_005.jpg	100
452.083	1.305	1305.1	test	Phase1	test/STIM_005.jpg	100
456.687	0.869	869.0	test	Phase1	test/STIM_006.jpg	99
461.464	1.15	1150.3	test	Phase1	test/STIM_006.jpg	100
464.673	1.141	1140.9	test	Phase1	test/STIM_006.jpg	100
468.952	1.045	1045.3	test	Phase1	test/STIM_007.jpg	99
472.011	0.716	715.9	test	Phase1	test/STIM_007.jpg	100
474.743	1.243	1243.0	test	Phase1	test/STIM_007.jpg	99
479.545	1.234	1234.0	test	Phase1	test/STIM_008.jpg	99
484.062	0.641	640.8	test	Phase1	test/STIM_008.jpg	99
488.502	1.187	1186.6	test	Phase1	test/STIM_008.jpg	100
493.314	0.904	904.1	test	Phase1	test/STIM_009.jpg	99
496.435	0.886	886.5	test	Phase1	test/STIM_009.jpg	100
500.66	1.069	1069.3	test	Phase1	test/STIM_009.jpg	100
503.793	0.719	719.1	test	Phase1	test/STIM_010.jpg	99
508.287	1.242	1241.7	test	Phase1	test/STIM_010.jpg	99
511.879	1.198	1198.2	test	Phase1	test/STIM_010.jpg	99
516.186	1.123	1123.2	test	Phase1	test/STIM_011.jpg	100
520.505	0.782	782.4	test	Phase1	test/STIM_011.jpg	99
524.055	1.09	1089.8	test	Phase1	test/STIM_011.jpg	100
527.748	1.248	1247.8	test	Phase1	test/STIM_012.jpg	100
532.6	1.015	1015.1	test	Phase1	test/STIM_012.jpg	99
536.818	0.71	710.2	test	Phase1	test/STIM_012.jpg	100
540.98	1.136	1136.3	test	Phase1	test/STIM_013.jpg	99
545.765	1.057	1056.6	test	Phase1	test/STIM_013.jpg	100
550.01	0.912	912.0	test	Phase1	test/STIM_013.jpg	99
554.52	0.711	710.7	test	Phase1	test/STIM_014.jpg	99
558.452	0.819	819.4	test	Phase1	test/STIM_014.jpg	100
561.505	0.623	623.1	test	Phase1	test/STIM_014.jpg	100
564.477	1.217	1217.1	test	Phase1	test/STIM_015.jpg	99
567.928	1.244	1244.3	test	Phase1	test/STIM_015.jpg	99
571.228	1.144	1143.5	test	Phase1	test/STIM_015.jpg	100
575.437	1.038	1038.0	test	Phase1	test/STIM_016.jpg	99
580.371	0.785	785.4	test	Phase1	test/STIM_016.jpg	100
584.867	0.839	839.4	test	Phase1	test/STIM_016.jpg	100
589.684	1.206	1206.4	test	Phase1	test/STIM_017.jpg	99
593.769	0.924	923.7	test	Phase1	test/STIM_017.jpg	100
598.074	0.707	707.0	test	Phase1	test/STIM_017.jpg	99
600.817	0.725	725.1	test	Phase1	test/STIM_018.jpg	99
604.047	0.863	863.2	test	Phase1	test/STIM_018.jpg	99
607.448	0.874	873.6	test	Phase1	test/STIM_018.jpg	100
611.274	1.178	1178.3	test	Phase1	test/STIM_019.jpg	100
615.016	0.961	961.2	test	Phase1	test/STIM_019.jpg	100
618.201	1.172	1172.0	test	Phase1	test/STIM_019.jpg	99
621.506	0.916	916.0	test	Phase1	test/STIM_020.jpg	100
624.914	0.868	867.8	test	Phase1	test/STIM_020.jpg	99
628.68	0.894	893.5	test	Phase1	test/STIM_020.jpg	100
633.458	0.736	736.0	test	Phase1	test/STIM_021.jpg	99
637.318	0.991	991.2	test	Phase1	test/STIM_021.jpg	99
640.845	1.053	1053.1	test	Phase1	test/STIM_021.jpg	99
644.149	1.192	1192.2	test	Phase1	test/STIM_022.jpg	100
648.136	1.261	1260.6	test	Phase1	test/STIM_022.jpg	99
652.751	0.742	742.2	test	Phase1	test/STIM_022.jpg	99
656.459	1.066	1065.6	test	Phase1	test/STIM_023.jpg	100
659.653	1.087	1087.3	test	Phase1	test/STIM_023.jpg	100
664.629	0.894	893.7	test	Phase1	test/STIM_023.jpg	99
669.374	1.11	1109.9	test	Phase1	test/STIM_024.jpg	100
673.644	0.625	625.2	test	Phase1	test/STIM_024.jpg	100
676.412	0.75	749.7	test	Phase1	test/STIM_024.jpg	99
679.759	0.667	667.2	test	Phase1	test/STIM_025.jpg	100
683.843	0.643	642.6	test	Phase1	test/STIM_025.jpg	100
687.792	0.972	971.8	test	Phase1	test/STIM_025.jpg	100
691.55	0.842	842.0	test	Phase1	test/STIM_026.jpg	99
694.551	0.823	823.1	test	Phase1	test/STIM_026.jpg	99
697.951	1.178	1178.5	test	Phase1	test/STIM_026.jpg	100
702.392	0.91	910.0	test	Phase1	test/STIM_027.jpg	99
705.802	0.968	967.9	test	Phase1	test/STIM_027.jpg	99
709.543	0.922	921.6	test	Phase1	test/STIM_027.jpg	99
713.265	1.075	1074.9	test	Phase1	test/STIM_028.jpg	100
716.391	0.962	962.3	test	Phase1	test/STIM_028.jpg	100
720.692	0.826	826.4	test	Phase1	test/STIM_028.jpg	100
724.966	1.27	1270.2	test	Phase1	test/STIM_029.jpg	99
729.459	0.99	989.6	test	Phase1	test/STIM_029.jpg	99
734.183	1.125	1124.9	test	Phase1	test/STIM_029.jpg	99
737.488	0.812	811.5	study	Phase2	study/STIM_000.jpg	100
741.38	1.27	1270.1	study	Phase2	study/STIM_000.jpg	100
745.783	0.973	972.7	study	Phase2	study/STIM_000.jpg	100
749.13	0.985	984.7	study	Phase2	study/STIM_001.jpg	100
753.019	1.356	1356.5	study	Phase2	study/STIM_001.jpg	99
757.864	0.676	675.7	study	Phase2	study/STIM_001.jpg	100
762.217	1.404	1403.7	study	Phase2	study/STIM_002.jpg	99
766.673	0.647	647.1	study	Phase2	study/STIM_002.jpg	99
771.232	1.307	1306.8	study	Phase2	study/STIM_002.jpg	100
774.963	0.805	805.0	study	Phase2	study/STIM_003.jpg	99
778.049	1.415	1414.6	study	Phase2	study/STIM_003.jpg	100
781.525	0.719	719.0	study	Phase2	study/STIM_003.jpg	100
785.651	1.318	1317.8	study	Phase2	study/STIM_004.jpg	100
790.266	0.671	671.1	study	Phase2	study/STIM_004.jpg	99
794.007	1.137	1137.4	study	Phase2	study/STIM_004.jpg	100
798.02	0.789	788.6	study	Phase2	study/STIM_005.jpg	99
801.684	1.047	1046.8	study	Phase2	study/STIM_005.jpg	100
805.902	0.833	833.1	study	Phase2	study/STIM_005.jpg	99
809.985	1.448	1448.5	study	Phase2	study/STIM_006.jpg	99
814.552	1.388	1388.1	study	Phase2	study/STIM_006.jpg	100
818.329	0.867	867.0	study	Phase2	study/STIM_006.jpg	100
822.88	0.856	856.5	study	Phase2	study/STIM_007.jpg	100
827.383	0.765	765.1	study	Phase2	study/STIM_007.jpg	100
831.614	0.731	730.8	study	Phase2	study/STIM_007.jpg	99
835.326	1.069	1069.4	study	Phase2	study/STIM_008.jpg	100
839.754	1.359	1358.6	study	Phase2	study/STIM_008.jpg	100
843.747	1.134	1133.6	study	Phase2	study/STIM_008.jpg	99
848.588	1.08	1079.8	study	Phase2	study/STIM_009.jpg	99
851.87	0.872	872.2	study	Phase2	study/STIM_009.jpg	99
855.082	0.635	635.2	study	Phase2	study/STIM_009.jpg	100
858.412	1.046	1046.1	study	Phase2	study/STIM_010.jpg	100
862.991	1.421	1420.7	study	Phase2	study/STIM_010.jpg	100
868.296	0.778	777.8	study	Phase2	study/STIM_010.jpg	99
872.437	0.73	730.5	study	Phase2	study/STIM_011.jpg	99
876.97	1.396	1395.9	study	Phase2	study/STIM_011.jpg	99
881.939	0.659	659.2	study	Phase2	study/STIM_011.jpg	100
885.123	1.141	1141.2	study	Phase2	study/STIM_012.jpg	99
889.578	1.005	1005.0	study	Phase2	study/STIM_012.jpg	100
894.011	1.17	1170.3	study	Phase2	study/STIM_012.jpg	99
898.849	1.354	1354.0	study	Phase2	study/STIM_013.jpg	99
903.45	0.661	661.4	study	Phase2	study/STIM_013.jpg	99
906.233	1.349	1348.8	study	Phase2	study/STIM_013.jpg	100
909.946	1.087	1087.2	study	Phase2	study/STIM_014.jpg	100
913.393	1.078	1078.5	study	Phase2	study/STIM_014.jpg	99
918.049	0.752	752.3	study	Phase2	study/STIM_014.jpg	99
921.861	0.81	810.0	study	Phase2	study/STIM_015.jpg	100
925.609	0.832	832.4	study	Phase2	study/STIM_015.jpg	100
930.23	1.295	1295.4	study	Phase2	study/STIM_015.jpg	99
934.244	1.482	1482.4	study	Phase2	study/STIM_016.jpg	99
939.228	0.789	788.6	study	Phase2	study/STIM_016.jpg	99
943.924	1.045	1044.7	study	Phase2	study/STIM_016.jpg	100
947.092	0.924	923.5	study	Phase2	study/STIM_017.jpg	100
951.765	1.166	1165.7	study	Phase2	study/STIM_017.jpg	100
955.658	1.219	1218.8	study	Phase2	study/STIM_017.jpg	100
959.337	1.15	1149.9	study	Phase2	study/STIM_018.jpg	100
963.253	1.438	1437.8	study	Phase2	study/STIM_018.jpg	100
968.094	1.107	1106.8	study	Phase2	study/STIM_018.jpg	100
972.893	0.79	790.4	study	Phase2	study/STIM_019.jpg	99
976.115	1.416	1415.7	study	Phase2	study/STIM_019.jpg	100
979.873	0.726	726.4	study	Phase2	study/STIM_019.jpg	99
983.094	1.251	1250.8	study	Phase2	study/STIM_020.jpg	99
987.571	0.671	670.6	study	Phase2	study/STIM_020.jpg	99
991.626	1.246	1246.4	study	Phase2	study/STIM_020.jpg	100
995.205	0.95	950.1	study	Phase2	study/STIM_021.jpg	99
999.416	0.976	975.8	study	Phase2	study/STIM_021.jpg	100
1003.194	0.742	742.3	study	Phase2	study/STIM_021.jpg	100
1006.866	1.356	1356.5	study	Phase2	study/STIM_022.jpg	100
1010.594	0.648	648.2	study	Phase2	study/STIM_022.jpg	100
1013.698	1.227	1226.6	study	Phase2	study/STIM_022.jpg	100
1017.733	0.812	811.6	study	Phase2	study/STIM_023.jpg	100
1022.181	1.017	1017.4	study	Phase2	study/STIM_023.jpg	100
1026.709	0.983	983.4	study	Phase2	study/STIM_023.jpg	99
1029.801	1.421	1421.0	study	Phase2	study/STIM_024.jpg	99
1033.56	0.672	671.5	study	Phase2	study/STIM_024.jpg	100
1036.352	1.327	1327.0	study	Phase2	study/STIM_024.jpg	100
1041.076	1.308	1307.5	study	Phase2	study/STIM_025.jpg	99
1045.996	1.409	1408.9	study	Phase2	study/STIM_025.jpg	100
1051.076	1.189	1189.0	study	Phase2	study/STIM_025.jpg	99
1055.0	1.042	1041.7	study	Phase2	study/STIM_026.jpg	100
1058.894	1.444	1443.9	study	Phase2	study/STIM_026.jpg	100
1063.669	0.847	846.8	study	Phase2	study/STIM_026.jpg	99
1066.684	1.34	1340.0	study	Phase2	study/STIM_027.jpg	100
1070.719	1.069	1068.9	study	Phase2	study/STIM_027.jpg	100
1073.876	1.309	1308.7	study	Phase2	study/STIM_027.jpg	99
1078.904	1.424	1424.3	study	Phase2	study/STIM_028.jpg	100
1083.892	1.237	1236.7	study	Phase2	study/STIM_028.jpg	100
1089.01	1.085	1085.0	study	Phase2	study/STIM_028.jpg	99
1092.341	1.168	1167.5	study	Phase2	study/STIM_029.jpg	100
1095.837	1.411	1410.6	study	Phase2	study/STIM_029.jpg	99
1100.475	0.763	763.0	study	Phase2	study/STIM_029.jpg	99
1104.13	1.137	1137.4	test	Phase2	test/STIM_000.jpg	99
1107.356	1.219	1219.3	test	Phase2	test/STIM_000.jpg	100
1111.964	0.958	957.7	test	Phase2	test/STIM_000.jpg	99
1115.126	1.244	1244.2	test	Phase2	test/STIM_001.jpg	99
1119.762	0.927	927.1	test	Phase2	test/STIM_001.jpg	99
1123.076	0.947	947.2	test	Phase2	test/STIM_001.jpg	99
1126.513	1.027	1027.0	test	Phase2	test/STIM_002.jpg	100
1130.532	1.022	1022.4	test	Phase2	test/STIM_002.jpg	100
1134.295	0.834	834.3	test	Phase2	test/STIM_002.jpg	99
1137.201	0.804	804.1	test	Phase2	test/STIM_003.jpg	99
1140.606	0.712	712.3	test	Phase2	test/STIM_003.jpg	99
1143.414	0.906	906.1	test	Phase2	test/STIM_003.jpg	99
1148.228	0.781	780.9	test	Phase2	test/STIM_004.jpg	99
1152.143	0.765	765.0	test	Phase2	test/STIM_004.jpg	99
1155.76	0.656	656.1	test	Phase2	test/STIM_004.jpg	99
1159.085	0.842	842.5	test	Phase2	test/STIM_005.jpg	100
1162.61	1.142	1142.3	test	Phase2	test/STIM_005.jpg	99
1166.811	1.148	1147.6	test	Phase2	test/STIM_005.jpg	100
1170.102	1.125	1125.3	test	Phase2	test/STIM_006.jpg	100
1173.86	1.306	1306.0	test	Phase2	test/STIM_006.jpg	99
1177.242	1.024	1024.2	test	Phase2	test/STIM_006.jpg	100
1180.341	0.613	613.1	test	Phase2	test/STIM_007.jpg	100
1183.594	1.102	1101.6	test	Phase2	test/STIM_007.jpg	100
1188.229	1.179	1179.1	test	Phase2	test/STIM_007.jpg	100
1192.244	1.303	1302.9	test	Phase2	test/STIM_008.jpg	99
1196.576	0.972	972.5	test	Phase2	test/STIM_008.jpg	99
1199.791	0.855	855.0	test	Phase2	test/STIM_008.jpg	100
1204.446	1.068	1067.8	test	Phase2	test/STIM_009.jpg	100
1208.645	1.207	1207.4	test	Phase2	test/STIM_009.jpg	100
1212.002	1.161	1160.6	test	Phase2	test/STIM_009.jpg	100
1216.097	1.308	1307.9	test	Phase2	test/STIM_010.jpg	100
1220.719	1.204	1203.5	test	Phase2	test/STIM_010.jpg	100
1225.758	1.023	1022.9	test	Phase2	test/STIM_010.jpg	100
1230.452	1.233	1233.0	test	Phase2	test/STIM_011.jpg	100
1233.735	1.027	1026.7	test	Phase2	test/STIM_011.jpg	99
1237.852	1.265	1265.1	test	Phase2	test/STIM_011.jpg	99
1242.177	0.89	890.2	test	Phase2	test/STIM_012.jpg	100
1246.332	0.793	792.9	test	Phase2	test/STIM_012.jpg	99
1250.722	0.894	893.6	test	Phase2	test/STIM_012.jpg	100
1255.346	0.993	992.7	test	Phase2	test/STIM_013.jpg	99
1259.607	1.081	1081.2	test	Phase2	test/STIM_013.jpg	99
1263.981	0.808	807.5	test	Phase2	test/STIM_013.jpg	99
1268.671	0.678	677.6	test	Phase2	test/STIM_014.jpg	100
1273.156	0.847	847.2	test	Phase2	test/STIM_014.jpg	99
1277.329	0.848	848.4	test	Phase2	test/STIM_014.jpg	100
1280.395	0.744	743.5	test	Phase2	test/STIM_015.jpg	99
1284.73	1.158	1158.4	test	Phase2	test/STIM_015.jpg	99
1288.995	1.253	1253.0	test	Phase2	test/STIM_015.jpg	100
1293.905	0.869	869.3	test	Phase2	test/STIM_016.jpg	99
1298.55	1.259	1259.2	test	Phase2	test/STIM_016.jpg	99
1303.324	0.999	999.1	test	Phase2	test/STIM_016.jpg	99
1306.804	0.704	704.2	test	Phase2	test/STIM_017.jpg	100
1311.062	0.858	858.3	test	Phase2	test/STIM_017.jpg	100
1315.798	0.914	913.7	test	Phase2	test/STIM_017.jpg	100
1320.066	0.693	692.6	test	Phase2	test/STIM_018.jpg	99
1324.073	1.063	1063.4	test	Phase2	test/STIM_018.jpg	99
1327.49	0.8	800.5	test	Phase2	test/STIM_018.jpg	99
1330.774	1.1	1100.5	test	Phase2	test/STIM_019.jpg	100
1334.658	0.61	610.0	test	Phase2	test/STIM_019.jpg	100
1337.892	0.739	739.2	test	Phase2	test/STIM_019.jpg	99
1341.719	0.62	620.0	test	Phase2	test/STIM_020.jpg	100
1346.051	0.974	973.8	test	Phase2	test/STIM_020.jpg	100
1349.031	0.605	605.2	test	Phase2	test/STIM_020.jpg	100
1352.589	1.25	1250.2	test	Phase2	test/STIM_021.jpg	100
1356.847	0.943	942.9	test	Phase2	test/STIM_021.jpg	100
1361.397	0.801	800.6	test	Phase2	test/STIM_021.jpg	99
1365.484	1.209	1209.4	test	Phase2	test/STIM_022.jpg	100
1369.23	1.226	1226.1	test	Phase2	test/STIM_022.jpg	99
1372.676	1.01	1010.1	test	Phase2	test/STIM_022.jpg	99
1376.49	1.103	1102.7	test	Phase2	test/STIM_023.jpg	100
1381.232	0.624	623.9	test	Phase2	test/STIM_023.jpg	100
1384.307	1.076	1076.3	test	Phase2	test/STIM_023.jpg	99
1389.383	1.214	1213.8	test	Phase2	test/STIM_024.jpg	99
1393.654	0.83	829.5	test	Phase2	test/STIM_024.jpg	100
1397.328	0.687	686.6	test	Phase2	test/STIM_024.jpg	99
1400.037	0.815	815.0	test	Phase2	test/STIM_025.jpg	99
1403.04	0.961	961.2	test	Phase2	test/STIM_025.jpg	99
1407.81	1.0	1000.3	test	Phase2	test/STIM_025.jpg	99
1412.692	1.134	1134.0	test	Phase2	test/STIM_026.jpg	99
1416.38	0.639	638.8	test	Phase2	test/STIM_026.jpg	99
1420.574	0.682	681.8	test	Phase2	test/STIM_026.jpg	99
1423.648	0.884	884.2	test	Phase2	test/STIM_027.jpg	100
1428.341	0.787	787.0	test	Phase2	test/STIM_027.jpg	100
1433.097	1.138	1137.9	test	Phase2	test/STIM_027.jpg	100
1436.715	0.794	793.8	test	Phase2	test/STIM_028.jpg	99
1439.826	0.66	659.6	test	Phase2	test/STIM_028.jpg	99
1443.14	0.64	639.8	test	Phase2	test/STIM_028.jpg	99
1446.115	1.15	1150.3	test	Phase2	test/STIM_029.jpg	99
1450.849	0.964	963.8	test	Phase2	test/STIM_029.jpg	99
1454.713	1.241	1241.2	test	Phase2	test/STIM_029.jpg	99
1459.488	0.68	680.1	study	Phase3	study/STIM_000.jpg	100
1462.225	0.888	887.7	study	Phase3	study/STIM_000.jpg	99
1466.36	0.876	876.0	study	Phase3	study/STIM_000.jpg	99
1470.96	0.665	665.0	study	Phase3	study/STIM_001.jpg	99
1475.23	0.726	725.8	study	Phase3	study/STIM_001.jpg	100
1479.038	0.622	622.5	study	Phase3	study/STIM_001.jpg	99
1483.186	1.169	1169.3	study	Phase3	study/STIM_002.jpg	100
1486.837	1.238	1238.3	study	Phase3	study/STIM_002.jpg	100
1490.411	0.881	881.4	study	Phase3	study/STIM_002.jpg	100
1494.534	0.852	852.4	study	Phase3	study/STIM_003.jpg	99
1498.839	0.76	759.9	study	Phase3	study/STIM_003.jpg	100
1502.799	0.957	956.9	study	Phase3	study/STIM_003.jpg	99
1507.172	0.964	964.4	study	Phase3	study/STIM_004.jpg	99
1510.241	0.799	798.6	study	Phase3	study/STIM_004.jpg	99
1514.622	0.927	927.2	study	Phase3	study/STIM_004.jpg	100
1519.051	0.945	944.6	study	Phase3	study/STIM_005.jpg	100
1522.437	0.678	677.8	study	Phase3	study/STIM_005.jpg	99
1526.56	1.101	1100.8	study	Phase3	study/STIM_005.jpg	100
1530.653	0.905	904.6	study	Phase3	study/STIM_006.jpg	99
1534.16	0.901	900.7	study	Phase3	study/STIM_006.jpg	100
1538.26	0.831	831.2	study	Phase3	study/STIM_006.jpg	100
1541.769	1.197	1196.6	study	Phase3	study/STIM_007.jpg	99
1545.896	0.915	915.1	study	Phase3	study/STIM_007.jpg	99
1549.796	1.044	1044.4	study	Phase3	study/STIM_007.jpg	99
1554.656	0.719	718.8	study	Phase3	study/STIM_008.jpg	100
1559.306	0.775	774.7	study	Phase3	study/STIM_008.jpg	100
1562.174	0.683	683.2	study	Phase3	study/STIM_008.jpg	99
1566.158	0.942	942.2	study	Phase3	study/STIM_009.jpg	100
1570.686	0.684	683.7	study	Phase3	study/STIM_009.jpg	99
1574.495	0.648	647.8	study	Phase3	study/STIM_009.jpg	99
1577.982	1.174	1174.5	study	Phase3	study/STIM_010.jpg	99
1581.522	1.074	1073.7	study	Phase3	study/STIM_010.jpg	99
1585.49	0.812	811.9	study	Phase3	study/STIM_010.jpg	99
1588.402	0.691	690.7	study	Phase3	study/STIM_011.jpg	99
1592.081	1.255	1255.3	study	Phase3	study/STIM_011.jpg	99
1596.539	0.908	908.3	study	Phase3	study/STIM_011.jpg	100
1600.2	0.691	690.7	study	Phase3	study/STIM_012.jpg	99
1603.947	1.232	1231.5	study	Phase3	study/STIM_012.jpg	100
1608.725	0.63	630.2	study	Phase3	study/STIM_012.jpg	100
1613.321	1.029	1028.9	study	Phase3	study/STIM_013.jpg	100
1618.309	0.841	841.0	study	Phase3	study/STIM_013.jpg	100
1621.949	0.865	865.4	study	Phase3	study/STIM_013.jpg	99
1625.328	1.266	1265.6	study	Phase3	study/STIM_014.jpg	99
1628.839	0.792	792.5	study	Phase3	study/STIM_014.jpg	99
1632.259	0.996	996.3	study	Phase3	study/STIM_014.jpg	100
1635.775	0.658	657.5	study	Phase3	study/STIM_015.jpg	99
1639.314	0.638	638.4	study	Phase3	study/STIM_015.jpg	100
1643.678	1.114	1113.6	study	Phase3	study/STIM_015.jpg	100
1648.492	0.636	635.5	study	Phase3	study/STIM_016.jpg	100
1651.359	0.905	905.1	study	Phase3	study/STIM_016.jpg	99
1654.794	1.151	1150.6	study	Phase3	study/STIM_016.jpg	99
1659.049	0.905	905.2	study	Phase3	study/STIM_017.jpg	100
1662.021	1.057	1056.6	study	Phase3	study/STIM_017.jpg	100
1666.719	0.753	752.8	study	Phase3	study/STIM_017.jpg	99
1670.306	0.96	959.6	study	Phase3	study/STIM_018.jpg	99
1673.509	0.578	577.7	study	Phase3	study/STIM_018.jpg	100
1677.859	0.636	635.7	study	Phase3	study/STIM_018.jpg	100
1680.535	1.19	1189.6	study	Phase3	study/STIM_019.jpg	100
1685.575	0.895	895.2	study	Phase3	study/STIM_019.jpg	99
1690.374	0.801	801.4	study	Phase3	study/STIM_019.jpg	99
1694.508	0.58	579.9	study	Phase3	study/STIM_020.jpg	100
1698.799	1.233	1232.8	study	Phase3	study/STIM_020.jpg	100
1703.977	1.026	1025.8	study	Phase3	study/STIM_020.jpg	99
1708.154	0.862	862.1	study	Phase3	study/STIM_021.jpg	100
1712.562	1.009	1008.9	study	Phase3	study/STIM_021.jpg	99
1716.11	1.203	1202.8	study	Phase3	study/STIM_021.jpg	100
1720.516	0.605	604.9	study	Phase3	study/STIM_022.jpg	100
1723.319	0.799	799.3	study	Phase3	study/STIM_022.jpg	100
1727.905	1.106	1106.4	study	Phase3	study/STIM_022.jpg	100
1732.169	0.723	722.9	study	Phase3	study/STIM_023.jpg	100
1735.586	0.721	720.8	study	Phase3	study/STIM_023.jpg	99
1738.531	1.05	1049.5	study	Phase3	study/STIM_023.jpg	100
1742.687	0.842	841.8	study	Phase3	study/STIM_024.jpg	100
1746.021	0.784	783.9	study	Phase3	study/STIM_024.jpg	99
1750.359	0.614	614.3	study	Phase3	study/STIM_024.jpg	100
1753.871	0.703	702.6	study	Phase3	study/STIM_025.jpg	100
1757.41	0.723	723.1	study	Phase3	study/STIM_025.jpg	100
1760.195	0.704	704.2	study	Phase3	study/STIM_025.jpg	99
1764.154	0.752	752.0	study	Phase3	study/STIM_026.jpg	99
1767.846	0.937	937.0	study	Phase3	study/STIM_026.jpg	99
1772.751	1.085	1085.3	study	Phase3	study/STIM_026.jpg	99
1776.31	1.111	1111.3	study	Phase3	study/STIM_027.jpg	100
1779.604	0.59	589.9	study	Phase3	study/STIM_027.jpg	100
1783.023	1.064	1063.8	study	Phase3	study/STIM_027.jpg	100
1787.627	0.789	789.1	study	Phase3	study/STIM_028.jpg	100
1792.188	0.614	613.7	study	Phase3	study/STIM_028.jpg	99
1796.233	1.125	1125.3	study	Phase3	study/STIM_028.jpg	100
1800.192	0.734	734.0	study	Phase3	study/STIM_029.jpg	99
1804.863	0.879	879.4	study	Phase3	study/STIM_029.jpg	100
1809.332	0.879	878.6	study	Phase3	study/STIM_029.jpg	100
1813.892	0.946	945.9	test	Phase3	test/STIM_000.jpg	99
1816.988	0.933	933.2	test	Phase3	test/STIM_000.jpg	99
1821.344	0.619	619.0	test	Phase3	test/STIM_000.jpg	100
1824.796	0.937	936.7	test	Phase3	test/STIM_001.jpg	100
1829.608	0.886	886.3	test	Phase3	test/STIM_001.jpg	100
1832.969	0.673	673.3	test	Phase3	test/STIM_001.jpg	100
1837.612	1.062	1061.8	test	Phase3	test/STIM_002.jpg	100
1841.558	0.805	805.4	test	Phase3	test/STIM_002.jpg	99
1844.661	0.79	790.0	test	Phase3	test/STIM_002.jpg	99
1847.741	1.164	1163.9	test	Phase3	test/STIM_003.jpg	99
1851.548	0.97	969.8	test	Phase3	test/STIM_003.jpg	100
1855.665	0.813	813.3	test	Phase3	test/STIM_003.jpg	99
1859.156	0.732	732.4	test	Phase3	test/STIM_004.jpg	99
1862.85	0.796	795.9	test	Phase3	test/STIM_004.jpg	100
1866.079	0.973	972.7	test	Phase3	test/STIM_004.jpg	99
1869.527	1.043	1043.2	test	Phase3	test/STIM_005.jpg	100
1873.053	0.938	938.4	test	Phase3	test/STIM_005.jpg	100
1877.371	0.654	654.0	test	Phase3	test/STIM_005.jpg	100
1881.471	0.732	731.8	test	Phase3	test/STIM_006.jpg	100
1885.463	0.805	805.4	test	Phase3	test/STIM_006.jpg	99
1889.315	1.135	1135.0	test	Phase3	test/STIM_006.jpg	100
1894.236	0.68	680.4	test	Phase3	test/STIM_007.jpg	100
1898.004	1.182	1181.6	test	Phase3	test/STIM_007.jpg	100
1902.15	1.186	1186.5	test	Phase3	test/STIM_007.jpg	99
1906.088	1.186	1185.5	test	Phase3	test/STIM_008.jpg	100
1910.093	1.29	1289.7	test	Phase3	test/STIM_008.jpg	99
1914.148	0.822	821.8	test	Phase3	test/STIM_008.jpg	100
1917.168	1.048	1048.4	test	Phase3	test/STIM_009.jpg	99
1920.585	0.711	711.0	test	Phase3	test/STIM_009.jpg	99
1923.614	1.176	1175.7	test	Phase3	test/STIM_009.jpg	99
1928.592	0.863	863.0	test	Phase3	test/STIM_010.jpg	99
1933.109	1.179	1178.7	test	Phase3	test/STIM_010.jpg	99
1936.718	1.268	1267.9	test	Phase3	test/STIM_010.jpg	99
1941.654	0.968	968.0	test	Phase3	test/STIM_011.jpg	99
1945.925	0.939	938.9	test	Phase3	test/STIM_011.jpg	100
1949.56	0.717	716.6	test	Phase3	test/STIM_011.jpg	100
1953.316	1.022	1022.1	test	Phase3	test/STIM_012.jpg	99
1958.168	1.129	1128.9	test	Phase3	test/STIM_012.jpg	100
1961.455	1.059	1059.0	test	Phase3	test/STIM_012.jpg	100
1965.153	1.198	1198.1	test	Phase3	test/STIM_013.jpg	99
1969.615	0.984	984.2	test	Phase3	test/STIM_013.jpg	100
1973.262	1.271	1270.9	test	Phase3	test/STIM_013.jpg	100
1978.101	1.213	1213.1	test	Phase3	test/STIM_014.jpg	99
1982.641	1.134	1134.0	test	Phase3	test/STIM_014.jpg	99
1986.913	0.719	719.3	test	Phase3	test/STIM_014.jpg	100
1991.048	1.03	1030.5	test	Phase3	test/STIM_015.jpg	99
1996.055	1.267	1267.1	test	Phase3	test/STIM_015.jpg	99
2001.072	0.794	793.7	test	Phase3	test/STIM_015.jpg	99
2005.43	0.848	848.0	test	Phase3	test/STIM_016.jpg	99
2009.179	1.142	1141.8	test	Phase3	test/STIM_016.jpg	99
2013.454	1.202	1202.0	test	Phase3	test/STIM_016.jpg	100
2017.711	0.931	930.7	test	Phase3	test/STIM_017.jpg	99
2020.755	1.278	1277.7	test	Phase3	test/STIM_017.jpg	100
2024.586	1.036	1036.4	test	Phase3	test/STIM_017.jpg	100
2029.289	1.191	1190.8	test	Phase3	test/STIM_018.jpg	99
2032.591	0.887	887.4	test	Phase3	test/STIM_018.jpg	100
2036.413	1.22	1220.2	test	Phase3	test/STIM_018.jpg	100
2040.642	1.256	1256.3	test	Phase3	test/STIM_019.jpg	100
2045.757	0.611	611.1	test	Phase3	test/STIM_019.jpg	100
2049.322	0.68	680.2	test	Phase3	test/STIM_019.jpg	100
2052.597	0.945	945.0	test	Phase3	test/STIM_020.jpg	100
2057.387	1.231	1230.6	test	Phase3	test/STIM_020.jpg	99
2061.936	0.749	749.3	test	Phase3	test/STIM_020.jpg	99
2064.979	0.925	924.7	test	Phase3	test/STIM_021.jpg	100
2069.284	1.195	1194.7	test	Phase3	test/STIM_021.jpg	100
2072.561	0.638	638.3	test	Phase3	test/STIM_021.jpg	99
2076.171	0.78	780.2	test	Phase3	test/STIM_022.jpg	100
2080.009	0.702	701.9	test	Phase3	test/STIM_022.jpg	99
2083.743	0.767	766.9	test	Phase3	test/STIM_022.jpg	99
2086.55	1.018	1018.4	test	Phase3	test/STIM_023.jpg	100
2091.325	1.031	1031.3	test	Phase3	test/STIM_023.jpg	99
2095.365	0.757	757.1	test	Phase3	test/STIM_023.jpg	100
2100.057	0.832	831.9	test	Phase3	test/STIM_024.jpg	100
2103.127	1.156	1156.1	test	Phase3	test/STIM_024.jpg	100
2106.861	0.963	963.2	test	Phase3	test/STIM_024.jpg	100
2110.06	1.024	1023.8	test	Phase3	test/STIM_025.jpg	99
2113.973	0.768	768.2	test	Phase3	test/STIM_025.jpg	100
2117.417	1.232	1231.6	test	Phase3	test/STIM_025.jpg	100
2121.008	1.012	1012.2	test	Phase3	test/STIM_026.jpg	99
2125.258	0.818	818.4	test	Phase3	test/STIM_026.jpg	99
2128.551	1.26	1260.5	test	Phase3	test/STIM_026.jpg	99
2133.324	0.742	742.2	test	Phase3	test/STIM_027.jpg	99
2137.591	0.847	846.9	test	Phase3	test/STIM_027.jpg	100
2141.832	1.036	1036.5	test	Phase3	test/STIM_027.jpg	99
2145.234	0.79	790.4	test	Phase3	test/STIM_028.jpg	99
2149.252	0.997	996.7	test	Phase3	test/STIM_028.jpg	99
2153.878	0.8	800.3	test	Phase3	test/STIM_028.jpg	100
2157.08	0.804	803.7	test	Phase3	test/STIM_029.jpg	99
2160.158	1.226	1225.5	test	Phase3	test/STIM_029.jpg	99
2164.081	0.694	694.0	test	Phase3	test/STIM_029.jpg	100
