onset	duration	accuracy_binary	trial_type	learning_stage	stimulus
0.0	0.912	1	study	Phase1	study/STIM_000.jpg
3.248	1.74	1	study	Phase1	study/STIM_000.jpg
7.921	1.077	1	study	Phase1	study/STIM_000.jpg
11.982	1.755	1	study	Phase1	study/STIM_001.jpg
16.234	1.508	0	study	Phase1	study/STIM_001.jpg
21.163	1.663	1	study	Phase1	study/STIM_001.jpg
26.111	1.174	0	study	Phase1	study/STIM_002.jpg
30.45	1.015	0	study	Phase1	study/STIM_002.jpg
35.306	0.942	1	study	Phase1	study/STIM_002.jpg
39.822	1.37	1	study	Phase1	study/STIM_003.jpg
43.664	1.006	1	study	Phase1	study/STIM_003.jpg
47.004	0.996	1	study	Phase1	study/STIM_003.jpg
51.573	1.449	0	study	Phase1	study/STIM_004.jpg
55.597	1.87	0	study	Phase1	study/STIM_004.jpg
61.04	1.565	0	study	Phase1	study/STIM_004.jpg
65.671	1.432	0	study	Phase1	study/STIM_005.jpg
70.487	1.659	1	study	Phase1	study/STIM_005.jpg
75.554	1.647	1	study	Phase1	study/STIM_005.jpg
80.25	1.287	1	study	Phase1	study/STIM_006.jpg
84.783	1.482	1	study	Phase1	study/STIM_006.jpg
88.242	0.974	1	study	Phase1	study/STIM_006.jpg
91.314	1.339	1	study	Phase1	study/STIM_007.jpg
95.082	1.695	1	study	Phase1	study/STIM_007.jpg
99.734	1.671	1	study	Phase1	study/STIM_007.jpg
103.674	1.59	1	study	Phase1	study/STIM_008.jpg
108.241	1.626	1	study	Phase1	study/STIM_008.jpg
112.335	1.504	1	study	Phase1	study/STIM_008.jpg
116.922	0.999	0	study	Phase1	study/STIM_009.jpg
121.447	1.336	1	study	Phase1	study/STIM_009.jpg
124.802	0.976	1	study	Phase1	study/STIM_009.jpg
129.724	1.847	1	study	Phase1	study/STIM_010.jpg
134.856	1.413	1	study	Phase1	study/STIM_010.jpg
139.645	0.845	0	study	Phase1	study/STIM_010.jpg
144.183	1.867	1	study	Phase1	study/STIM_011.jpg
149.735	1.549	1	study	Phase1	study/STIM_011.jpg
153.219	0.954	1	study	Phase1	study/STIM_011.jpg
158.091	1.645	1	study	Phase1	study/STIM_012.jpg
161.977	1.819	1	study	Phase1	study/STIM_012.jpg
166.616	1.616	1	study	Phase1	study/STIM_012.jpg
170.854	1.482	0	study	Phase1	study/STIM_013.jpg
176.089	0.929	1	study	Phase1	study/STIM_013.jpg
179.346	1.737	1	study	Phase1	study/STIM_013.jpg
184.068	1.092	1	study	Phase1	study/STIM_014.jpg
187.89	0.842	1	study	Phase1	study/STIM_014.jpg
192.337	0.746	1	study	Phase1	study/STIM_014.jpg
195.147	1.965	1	study	Phase1	study/STIM_015.jpg
198.937	1.768	1	study	Phase1	study/STIM_015.jpg
202.703	1.442	1	study	Phase1	study/STIM_015.jpg
207.143	1.239	1	study	Phase1	study/STIM_016.jpg
212.184	1.356	1	study	Phase1	study/STIM_016.jpg
216.868	0.859	1	study	Phase1	study/STIM_016.jpg
220.11	1.606	1	study	Phase1	study/STIM_017.jpg
225.109	1.257	1	study	Phase1	study/STIM_017.jpg
228.64	1.722	0	study	Phase1	study/STIM_017.jpg
233.351	1.195	1	study	Phase1	study/STIM_018.jpg
236.58	1.867	1	study	Phase1	study/STIM_018.jpg
240.566	1.19	1	study	Phase1	study/STIM_018.jpg
245.516	1.263	1	study	Phase1	study/STIM_019.jpg
249.87	1.349	1	study	Phase1	study/STIM_019.jpg
253.435	0.895	1	study	Phase1	study/STIM_019.jpg
256.588	2.04	0	study	Phase1	study/STIM_020.jpg
261.465	1.459	1	study	Phase1	study/STIM_020.jpg
265.774	0.837	1	study	Phase1	study/STIM_020.jpg
269.496	0.928	0	study	Phase1	study/STIM_021.jpg
272.526	1.741	1	study	Phase1	study/STIM_021.jpg
277.87	1.235	1	study	Phase1	study/STIM_021.jpg
281.286	0.867	1	study	Phase1	study/STIM_022.jpg
285.553	1.82	1	study	Phase1	study/STIM_022.jpg
289.869	1.13	1	study	Phase1	study/STIM_022.jpg
294.207	0.852	1	study	Phase1	study/STIM_023.jpg
297.051	1.235	1	study	Phase1	study/STIM_023.jpg
301.364	1.095	1	study	Phase1	study/STIM_023.jpg
306.282	1.153	1	study	Phase1	study/STIM_024.jpg
310.79	1.673	0	study	Phase1	study/STIM_024.jpg
314.487	1.704	0	study	Phase1	study/STIM_024.jpg
318.468	1.842	1	study	Phase1	study/STIM_025.jpg
323.24	1.686	1	study	Phase1	study/STIM_025.jpg
326.777	0.995	1	study	Phase1	study/STIM_025.jpg
330.785	1.67	1	study	Phase1	study/STIM_026.jpg
335.763	1.16	1	study	Phase1	study/STIM_026.jpg
340.792	0.881	1	study	Phase1	study/STIM_026.jpg
345.507	1.655	1	study	Phase1	study/STIM_027.jpg
349.03	1.504	1	study	Phase1	study/STIM_027.jpg
353.86	0.966	0	study	Phase1	study/STIM_027.jpg
357.835	1.639	1	study	Phase1	study/STIM_028.jpg
362.684	1.04	1	study	Phase1	study/STIM_028.jpg
365.852	0.859	1	study	Phase1	study/STIM_028.jpg
369.175	0.985	1	study	Phase1	study/STIM_029.jpg
372.778	1.859	1	study	Phase1	study/STIM_029.jpg
376.531	1.604	1	study	Phase1	study/STIM_029.jpg
381.24	1.125	1	test	Phase1	test/STIM_000.jpg
385.152	0.736	1	test	Phase1	test/STIM_000.jpg
388.897	0.784	1	test	Phase1	test/STIM_000.jpg
392.953	0.889	1	test	Phase1	test/STIM_001.jpg
397.46	1.066	1	test	Phase1	test/STIM_001.jpg
401.625	1.001	1	test	Phase1	test/STIM_001.jpg
405.049	1.124	1	test	Phase1	test/STIM_002.jpg
409.127	0.665	1	test	Phase1	test/STIM_002.jpg
412.91	1.398	1	test	Phase1	test/STIM_002.jpg
417.439	1.058	1	test	Phase1	test/STIM_003.jpg
420.806	1.248	1	test	Phase1	test/STIM_003.jpg
425.716	1.367	1	test	Phase1	test/STIM_003.jpg
429.154	0.956	1	test	Phase1	test/STIM_004.jpg
433.558	0.667	1	test	Phase1	test/STIM_004.jpg
437.091	0.834	1	test	Phase1	test/STIM_004.jpg
441.097	1.218	1	test	Phase1	test/STIM_005.jpg
446.154	1.139	1	test	Phase1	test/STIM_005.jpg
449.119	1.279	1	test	Phase1	test/STIM_005.jpg
453.543	0.935	1	test	Phase1	test/STIM_006.jpg
458.268	1.011	1	test	Phase1	test/STIM_006.jpg
462.58	1.03	1	test	Phase1	test/STIM_006.jpg
467.089	1.126	1	test	Phase1	test/STIM_007.jpg
471.935	0.715	1	test	Phase1	test/STIM_007.jpg
476.372	1.337	1	test	Phase1	test/STIM_007.jpg
479.865	1.342	1	test	Phase1	test/STIM_008.jpg
484.763	1.357	1	test	Phase1	test/STIM_008.jpg
489.945	1.149	1	test	Phase1	test/STIM_008.jpg
494.307	0.851	1	test	Phase1	test/STIM_009.jpg
498.153	1.407	1	test	Phase1	test/STIM_009.jpg
501.461	1.198	1	test	Phase1	test/STIM_009.jpg
506.429	1.047	1	test	Phase1	test/STIM_010.jpg
509.422	1.094	1	test	Phase1	test/STIM_010.jpg
513.676	1.013	1	test	Phase1	test/STIM_010.jpg
517.344	0.702	1	test	Phase1	test/STIM_011.jpg
521.697	1.213	1	test	Phase1	test/STIM_011.jpg
525.035	0.633	0	test	Phase1	test/STIM_011.jpg
528.713	1.026	0	test	Phase1	test/STIM_012.jpg
532.357	1.099	1	test	Phase1	test/STIM_012.jpg
536.948	1.201	1	test	Phase1	test/STIM_012.jpg
541.169	0.695	1	test	Phase1	test/STIM_013.jpg
544.582	0.914	1	test	Phase1	test/STIM_013.jpg
548.146	1.282	1	test	Phase1	test/STIM_013.jpg
551.6	1.274	1	test	Phase1	test/STIM_014.jpg
554.851	1.063	1	test	Phase1	test/STIM_014.jpg
558.585	1.012	1	test	Phase1	test/STIM_014.jpg
562.937	0.86	1	test	Phase1	test/STIM_015.jpg
566.599	1.055	1	test	Phase1	test/STIM_015.jpg
569.962	0.882	1	test	Phase1	test/STIM_015.jpg
574.413	1.46	1	test	Phase1	test/STIM_016.jpg
577.834	1.393	0	test	Phase1	test/STIM_016.jpg
581.308	1.442	1	test	Phase1	test/STIM_016.jpg
585.903	0.832	1	test	Phase1	test/STIM_017.jpg
590.556	1.404	1	test	Phase1	test/STIM_017.jpg
595.383	1.198	1	test	Phase1	test/STIM_017.jpg
599.115	0.976	1	test	Phase1	test/STIM_018.jpg
603.529	1.308	1	test	Phase1	test/STIM_018.jpg
607.841	0.77	1	test	Phase1	test/STIM_018.jpg
611.749	1.328	1	test	Phase1	test/STIM_019.jpg
616.178	1.282	1	test	Phase1	test/STIM_019.jpg
621.095	1.271	0	test	Phase1	test/STIM_019.jpg
625.431	0.693	1	test	Phase1	test/STIM_020.jpg
629.961	0.791	1	test	Phase1	test/STIM_020.jpg
632.845	1.241	1	test	Phase1	test/STIM_020.jpg
635.974	1.391	1	test	Phase1	test/STIM_021.jpg
639.943	0.728	1	test	Phase1	test/STIM_021.jpg
644.379	1.474	1	test	Phase1	test/STIM_021.jpg
648.862	0.961	0	test	Phase1	test/STIM_022.jpg
653.379	1.211	1	test	Phase1	test/STIM_022.jpg
656.698	0.785	1	test	Phase1	test/STIM_022.jpg
660.256	1.102	1	test	Phase1	test/STIM_023.jpg
664.006	0.757	1	test	Phase1	test/STIM_023.jpg
667.088	1.428	1	test	Phase1	test/STIM_023.jpg
672.048	1.381	1	test	Phase1	test/STIM_024.jpg
675.613	1.268	1	test	Phase1	test/STIM_024.jpg
678.789	1.504	1	test	Phase1	test/STIM_024.jpg
682.976	1.346	1	test	Phase1	test/STIM_025.jpg
687.358	0.944	0	test	Phase1	test/STIM_025.jpg
690.909	0.779	1	test	Phase1	test/STIM_025.jpg
694.69	1.012	1	test	Phase1	test/STIM_026.jpg
697.833	0.767	1	test	Phase1	test/STIM_026.jpg
701.096	0.758	1	test	Phase1	test/STIM_026.jpg
704.638	0.805	1	test	Phase1	test/STIM_027.jpg
708.073	0.724	1	test	Phase1	test/STIM_027.jpg
712.254	0.914	0	test	Phase1	test/STIM_027.jpg
715.488	1.442	1	test	Phase1	test/STIM_028.jpg
720.588	0.747	1	test	Phase1	test/STIM_028.jpg
724.259	1.13	1	test	Phase1	test/STIM_028.jpg
729.082	1.135	1	test	Phase1	test/STIM_029.jpg
733.206	0.729	1	test	Phase1	test/STIM_029.jpg
736.261	0.919	1	test	Phase1	test/STIM_029.jpg
739.252	1.64	1	study	Phase2	study/STIM_000.jpg
744.06	1.248	1	study	Phase2	study/STIM_000.jpg
748.075	0.98	0	study	Phase2	study/STIM_000.jpg
752.596	1.28	1	study	Phase2	study/STIM_001.jpg
757.469	1.283	1	study	Phase2	study/STIM_001.jpg
760.995	1.139	1	study	Phase2	study/STIM_001.jpg
764.819	1.18	0	study	Phase2	study/STIM_002.jpg
768.373	1.178	1	study	Phase2	study/STIM_002.jpg
772.112	0.787	0	study	Phase2	study/STIM_002.jpg
775.163	0.836	1	study	Phase2	study/STIM_003.jpg
778.711	0.764	1	study	Phase2	study/STIM_003.jpg
782.428	1.118	1	study	Phase2	study/STIM_003.jpg
787.14	1.551	1	study	Phase2	study/STIM_004.jpg
791.989	0.886	1	study	Phase2	study/STIM_004.jpg
796.518	1.439	1	study	Phase2	study/STIM_004.jpg
801.697	0.755	1	study	Phase2	study/STIM_005.jpg
805.981	1.494	1	study	Phase2	study/STIM_005.jpg
811.234	1.36	1	study	Phase2	study/STIM_005.jpg
815.125	1.085	1	study	Phase2	study/STIM_006.jpg
818.473	1.106	1	study	Phase2	study/STIM_006.jpg
822.176	1.144	1	study	Phase2	study/STIM_006.jpg
825.909	0.998	1	study	Phase2	study/STIM_007.jpg
828.947	0.836	1	study	Phase2	study/STIM_007.jpg
832.151	0.717	1	study	Phase2	study/STIM_007.jpg
835.328	0.944	1	study	Phase2	study/STIM_008.jpg
839.165	0.785	1	study	Phase2	study/STIM_008.jpg
843.345	1.03	1	study	Phase2	study/STIM_008.jpg
848.292	1.269	0	study	Phase2	study/STIM_009.jpg
852.714	1.24	1	study	Phase2	study/STIM_009.jpg
857.71	1.473	1	study	Phase2	study/STIM_009.jpg
862.03	1.002	1	study	Phase2	study/STIM_010.jpg
866.517	0.729	1	study	Phase2	study/STIM_010.jpg
869.887	1.304	1	study	Phase2	study/STIM_010.jpg
873.924	1.574	1	study	Phase2	study/STIM_011.jpg
878.833	1.321	1	study	Phase2	study/STIM_011.jpg
883.622	1.476	1	study	Phase2	study/STIM_011.jpg
887.294	1.44	1	study	Phase2	study/STIM_012.jpg
890.728	0.979	1	study	Phase2	study/STIM_012.jpg
895.001	1.414	1	study	Phase2	study/STIM_012.jpg
898.931	1.561	1	study	Phase2	study/STIM_013.jpg
903.331	1.348	1	study	Phase2	study/STIM_013.jpg
907.731	0.799	0	study	Phase2	study/STIM_013.jpg
912.057	1.119	1	study	Phase2	study/STIM_014.jpg
916.141	0.725	1	study	Phase2	study/STIM_014.jpg
919.131	1.42	1	study	Phase2	study/STIM_014.jpg
923.443	1.043	1	study	Phase2	study/STIM_015.jpg
926.6	1.112	1	study	Phase2	study/STIM_015.jpg
930.351	0.957	1	study	Phase2	study/STIM_015.jpg
934.319	1.279	1	study	Phase2	study/STIM_016.jpg
938.464	0.751	1	study	Phase2	study/STIM_016.jpg
942.753	0.751	1	study	Phase2	study/STIM_016.jpg
946.222	0.712	1	study	Phase2	study/STIM_017.jpg
949.288	0.941	1	study	Phase2	study/STIM_017.jpg
954.095	1.131	1	study	Phase2	study/STIM_017.jpg
958.26	0.87	1	study	Phase2	study/STIM_018.jpg
961.315	0.925	1	study	Phase2	study/STIM_018.jpg
964.073	0.84	1	study	Phase2	study/STIM_018.jpg
966.931	0.798	1	study	Phase2	study/STIM_019.jpg
971.488	1.134	1	study	Phase2	study/STIM_019.jpg
975.523	1.087	1	study	Phase2	study/STIM_019.jpg
979.709	1.473	1	study	Phase2	study/STIM_020.jpg
984.864	0.926	1	study	Phase2	study/STIM_020.jpg
988.94	1.237	1	study	Phase2	study/STIM_020.jpg
992.23	1.396	1	study	Phase2	study/STIM_021.jpg
995.583	0.888	1	study	Phase2	study/STIM_021.jpg
1000.373	1.006	1	study	Phase2	study/STIM_021.jpg
1005.099	0.814	1	study	Phase2	study/STIM_022.jpg
1008.757	0.874	1	study	Phase2	study/STIM_022.jpg
1011.786	1.241	1	study	Phase2	study/STIM_022.jpg
1016.495	1.393	1	study	Phase2	study/STIM_023.jpg
1019.935	1.167	1	study	Phase2	study/STIM_023.jpg
1024.825	1.092	1	study	Phase2	study/STIM_023.jpg
1028.031	1.122	0	study	Phase2	study/STIM_024.jpg
1031.39	0.943	1	study	Phase2	study/STIM_024.jpg
1035.226	0.894	1	study	Phase2	study/STIM_024.jpg
1039.809	1.037	0	study	Phase2	study/STIM_025.jpg
1043.049	0.858	1	study	Phase2	study/STIM_025.jpg
1046.451	0.999	1	study	Phase2	study/STIM_025.jpg
1050.751	0.836	0	study	Phase2	study/STIM_026.jpg
1054.878	0.84	1	study	Phase2	study/STIM_026.jpg
1058.667	1.401	1	study	Phase2	study/STIM_026.jpg
1063.497	1.19	1	study	Phase2	study/STIM_027.jpg
1066.954	0.9	1	study	Phase2	study/STIM_027.jpg
1070.08	1.069	1	study	Phase2	study/STIM_027.jpg
1074.054	1.001	1	study	Phase2	study/STIM_028.jpg
1078.555	0.826	1	study	Phase2	study/STIM_028.jpg
1081.864	1.186	1	study	Phase2	study/STIM_028.jpg
1085.628	1.291	1	study	Phase2	study/STIM_029.jpg
1090.445	1.412	1	study	Phase2	study/STIM_029.jpg
1093.955	1.361	1	study	Phase2	study/STIM_029.jpg
1099.011	0.749	1	test	Phase2	test/STIM_000.jpg
1101.652	0.685	1	test	Phase2	test/STIM_000.jpg
1105.597	0.965	1	test	Phase2	test/STIM_000.jpg
1110.136	1.284	1	test	Phase2	test/STIM_001.jpg
1113.611	0.851	1	test	Phase2	test/STIM_001.jpg
1117.816	0.785	1	test	Phase2	test/STIM_001.jpg
1122.337	0.7	0	test	Phase2	test/STIM_002.jpg
1125.376	1.24	1	test	Phase2	test/STIM_002.jpg
1129.012	1.242	1	test	Phase2	test/STIM_002.jpg
1133.222	1.139	1	test	Phase2	test/STIM_003.jpg
1137.549	1.404	1	test	Phase2	test/STIM_003.jpg
1141.222	1.395	0	test	Phase2	test/STIM_003.jpg
1146.173	1.392	1	test	Phase2	test/STIM_004.jpg
1150.261	0.75	1	test	Phase2	test/STIM_004.jpg
1153.862	0.962	1	test	Phase2	test/STIM_004.jpg
1157.626	1.14	1	test	Phase2	test/STIM_005.jpg
1162.346	1.352	1	test	Phase2	test/STIM_005.jpg
1165.707	0.847	0	test	Phase2	test/STIM_005.jpg
1169.325	1.228	1	test	Phase2	test/STIM_006.jpg
1172.965	0.707	0	test	Phase2	test/STIM_006.jpg
1177.482	1.035	1	test	Phase2	test/STIM_006.jpg
1181.145	1.232	1	test	Phase2	test/STIM_007.jpg
1184.533	1.156	1	test	Phase2	test/STIM_007.jpg
1189.31	0.772	1	test	Phase2	test/STIM_007.jpg
1193.043	0.846	0	test	Phase2	test/STIM_008.jpg
1195.832	1.431	1	test	Phase2	test/STIM_008.jpg
1200.916	1.291	1	test	Phase2	test/STIM_008.jpg
1204.535	1.002	1	test	Phase2	test/STIM_009.jpg
1209.144	1.022	1	test	Phase2	test/STIM_009.jpg
1212.904	1.37	1	test	Phase2	test/STIM_009.jpg
1216.743	1.429	1	test	Phase2	test/STIM_010.jpg
1220.955	0.943	1	test	Phase2	test/STIM_010.jpg
1225.731	1.006	1	test	Phase2	test/STIM_010.jpg
1229.282	0.845	1	test	Phase2	test/STIM_011.jpg
1232.405	1.366	1	test	Phase2	test/STIM_011.jpg
1235.743	0.832	1	test	Phase2	test/STIM_011.jpg
1240.534	0.924	1	test	Phase2	test/STIM_012.jpg
1244.171	1.18	1	test	Phase2	test/STIM_012.jpg
1247.435	1.206	1	test	Phase2	test/STIM_012.jpg
1250.82	1.202	1	test	Phase2	test/STIM_013.jpg
1254.274	1.335	1	test	Phase2	test/STIM_013.jpg
1258.466	0.801	1	test	Phase2	test/STIM_013.jpg
1261.516	0.877	1	test	Phase2	test/STIM_014.jpg
1265.554	1.179	1	test	Phase2	test/STIM_014.jpg
1269.932	0.692	1	test	Phase2	test/STIM_014.jpg
1274.113	1.221	0	test	Phase2	test/STIM_015.jpg
1279.195	1.335	1	test	Phase2	test/STIM_015.jpg
1282.512	1.063	1	test	Phase2	test/STIM_015.jpg
1286.655	1.423	1	test	Phase2	test/STIM_016.jpg
1290.59	0.978	1	test	Phase2	test/STIM_016.jpg
1293.687	1.362	1	test	Phase2	test/STIM_016.jpg
1297.739	1.247	0	test	Phase2	test/STIM_017.jpg
1302.003	1.053	1	test	Phase2	test/STIM_017.jpg
1305.288	1.172	1	test	Phase2	test/STIM_017.jpg
1308.681	0.67	1	test	Phase2	test/STIM_018.jpg
1312.076	0.728	1	test	Phase2	test/STIM_018.jpg
1315.64	1.389	1	test	Phase2	test/STIM_018.jpg
1320.797	1.337	1	test	Phase2	test/STIM_019.jpg
1325.047	1.354	0	test	Phase2	test/STIM_019.jpg
1329.569	0.976	1	test	Phase2	test/STIM_019.jpg
1333.93	1.179	1	test	Phase2	test/STIM_020.jpg
1338.715	1.093	1	test	Phase2	test/STIM_020.jpg
1341.863	1.057	1	test	Phase2	test/STIM_020.jpg
1344.781	0.856	1	test	Phase2	test/STIM_021.jpg
1349.263	0.859	1	test	Phase2	test/STIM_021.jpg
1352.856	0.987	0	test	Phase2	test/STIM_021.jpg
1356.726	0.98	1	test	Phase2	test/STIM_022.jpg
1360.164	1.248	1	test	Phase2	test/STIM_022.jpg
1364.231	0.783	1	test	Phase2	test/STIM_022.jpg
1367.416	1.255	1	test	Phase2	test/STIM_023.jpg
1371.564	1.158	1	test	Phase2	test/STIM_023.jpg
1376.066	1.147	1	test	Phase2	test/STIM_023.jpg
1380.394	0.874	1	test	Phase2	test/STIM_024.jpg
1384.524	0.922	1	test	Phase2	test/STIM_024.jpg
1389.041	1.186	1	test	Phase2	test/STIM_024.jpg
1393.158	0.724	1	test	Phase2	test/STIM_025.jpg
1396.667	0.835	1	test	Phase2	test/STIM_025.jpg
1400.803	0.997	1	test	Phase2	test/STIM_025.jpg
1404.539	1.1	1	test	Phase2	test/STIM_026.jpg
1408.552	1.316	1	test	Phase2	test/STIM_026.jpg
1412.892	0.903	0	test	Phase2	test/STIM_026.jpg
1417.319	1.289	1	test	Phase2	test/STIM_027.jpg
1421.08	0.835	1	test	Phase2	test/STIM_027.jpg
1425.041	1.314	1	test	Phase2	test/STIM_027.jpg
1429.566	1.424	1	test	Phase2	test/STIM_028.jpg
1433.438	0.989	0	test	Phase2	test/STIM_028.jpg
1436.677	0.927	1	test	Phase2	test/STIM_028.jpg
1440.27	0.866	1	test	Phase2	test/STIM_029.jpg
1444.258	1.421	1	test	Phase2	test/STIM_029.jpg
1447.65	0.952	0	test	Phase2	test/STIM_029.jpg
1452.265	0.776	0	study	Phase3	study/STIM_000.jpg
1456.532	1.184	1	study	Phase3	study/STIM_000.jpg
1460.61	0.934	1	study	Phase3	study/STIM_000.jpg
1463.737	1.257	1	study	Phase3	study/STIM_001.jpg
1467.765	1.36	1	study	Phase3	study/STIM_001.jpg
1471.013	1.382	1	study	Phase3	study/STIM_001.jpg
1475.19	1.073	1	study	Phase3	study/STIM_002.jpg
1479.566	0.803	1	study	Phase3	study/STIM_002.jpg
1483.55	1.299	1	study	Phase3	study/STIM_002.jpg
1486.801	1.215	1	study	Phase3	study/STIM_003.jpg
1491.099	1.35	1	study	Phase3	study/STIM_003.jpg
1495.702	1.034	1	study	Phase3	study/STIM_003.jpg
1500.24	0.896	1	study	Phase3	study/STIM_004.jpg
1504.204	0.995	1	study	Phase3	study/STIM_004.jpg
1507.457	0.906	1	study	Phase3	study/STIM_004.jpg
1511.633	1.164	1	study	Phase3	study/STIM_005.jpg
1516.549	0.905	1	study	Phase3	study/STIM_005.jpg
1519.666	0.665	1	study	Phase3	study/STIM_005.jpg
1523.435	1.28	1	study	Phase3	study/STIM_006.jpg
1527.481	0.614	1	study	Phase3	study/STIM_006.jpg
1531.917	0.694	1	study	Phase3	study/STIM_006.jpg
1534.681	0.684	0	study	Phase3	study/STIM_007.jpg
1537.924	0.939	1	study	Phase3	study/STIM_007.jpg
1542.714	0.663	1	study	Phase3	study/STIM_007.jpg
1546.329	0.737	1	study	Phase3	study/STIM_008.jpg
1550.128	0.867	1	study	Phase3	study/STIM_008.jpg
1554.007	1.05	1	study	Phase3	study/STIM_008.jpg
1557.109	1.203	1	study	Phase3	study/STIM_009.jpg
1560.416	0.673	1	study	Phase3	study/STIM_009.jpg
1564.305	0.961	0	study	Phase3	study/STIM_009.jpg
1567.26	0.621	1	study	Phase3	study/STIM_010.jpg
1571.414	1.08	1	study	Phase3	study/STIM_010.jpg
1575.014	0.803	1	study	Phase3	study/STIM_010.jpg
1579.128	1.146	1	study	Phase3	study/STIM_011.jpg
1583.362	1.016	1	study	Phase3	study/STIM_011.jpg
1587.524	0.983	1	study	Phase3	study/STIM_011.jpg
1592.354	1.331	1	study	Phase3	study/STIM_012.jpg
1596.646	1.163	1	study	Phase3	study/STIM_012.jpg
1600.005	1.083	1	study	Phase3	study/STIM_012.jpg
1604.613	1.232	1	study	Phase3	study/STIM_013.jpg
1609.429	1.032	1	study	Phase3	study/STIM_013.jpg
1612.519	1.318	1	study	Phase3	study/STIM_013.jpg
1616.469	1.276	1	study	Phase3	study/STIM_014.jpg
1620.225	0.834	1	study	Phase3	study/STIM_014.jpg
1624.508	1.242	1	study	Phase3	study/STIM_014.jpg
1628.448	1.029	1	study	Phase3	study/STIM_015.jpg
1632.148	0.878	1	study	Phase3	study/STIM_015.jpg
1636.31	0.996	1	study	Phase3	study/STIM_015.jpg
1639.895	1.156	1	study	Phase3	study/STIM_016.jpg
1643.493	0.657	1	study	Phase3	study/STIM_016.jpg
1647.031	0.602	1	study	Phase3	study/STIM_016.jpg
1650.251	1.006	1	study	Phase3	study/STIM_017.jpg
1653.884	0.849	1	study	Phase3	study/STIM_017.jpg
1656.941	1.173	1	study	Phase3	study/STIM_017.jpg
1660.025	1.122	1	study	Phase3	study/STIM_018.jpg
1663.489	1.069	1	study	Phase3	study/STIM_018.jpg
1666.652	1.004	1	study	Phase3	study/STIM_018.jpg
1670.877	0.763	1	study	Phase3	study/STIM_019.jpg
1675.144	0.749	1	study	Phase3	study/STIM_019.jpg
1678.827	0.898	1	study	Phase3	study/STIM_019.jpg
1682.78	1.151	1	study	Phase3	study/STIM_020.jpg
1687.391	1.109	1	study	Phase3	study/STIM_020.jpg
1690.846	1.244	1	study	Phase3	study/STIM_020.jpg
1694.678	1.357	1	study	Phase3	study/STIM_021.jpg
1699.594	1.001	1	study	Phase3	study/STIM_021.jpg
1703.961	0.816	1	study	Phase3	study/STIM_021.jpg
1708.302	1.087	1	study	Phase3	study/STIM_022.jpg
1713.13	1.068	1	study	Phase3	study/STIM_022.jpg
1717.495	0.894	1	study	Phase3	study/STIM_022.jpg
1721.595	1.172	1	study	Phase3	study/STIM_023.jpg
1725.123	1.196	1	study	Phase3	study/STIM_023.jpg
1728.282	0.833	1	study	Phase3	study/STIM_023.jpg
1731.414	0.697	1	study	Phase3	study/STIM_024.jpg
1734.778	1.103	1	study	Phase3	study/STIM_024.jpg
1738.65	1.462	1	study	Phase3	study/STIM_024.jpg
1742.081	1.167	1	study	Phase3	study/STIM_025.jpg
1746.05	1.374	0	study	Phase3	study/STIM_025.jpg
1750.225	0.77	1	study	Phase3	study/STIM_025.jpg
1753.804	1.368	1	study	Phase3	study/STIM_026.jpg
1757.497	0.921	1	study	Phase3	study/STIM_026.jpg
1760.771	0.839	1	study	Phase3	study/STIM_026.jpg
1764.689	0.748	1	study	Phase3	study/STIM_027.jpg
1768.92	1.196	1	study	Phase3	study/STIM_027.jpg
1772.467	1.323	1	study	Phase3	study/STIM_027.jpg
1775.966	1.267	1	study	Phase3	study/STIM_028.jpg
1781.121	0.868	1	study	Phase3	study/STIM_028.jpg
1784.264	0.7	1	study	Phase3	study/STIM_028.jpg
1787.802	0.651	1	study	Phase3	study/STIM_029.jpg
1791.623	0.673	1	study	Phase3	study/STIM_029.jpg
1794.823	0.656	1	study	Phase3	study/STIM_029.jpg
1797.692	1.351	1	test	Phase3	test/STIM_000.jpg
1801.083	1.082	1	test	Phase3	test/STIM_000.jpg
1804.552	0.913	1	test	Phase3	test/STIM_000.jpg
1808.658	0.889	1	test	Phase3	test/STIM_001.jpg
1812.018	1.139	1	test	Phase3	test/STIM_001.jpg
1815.418	0.949	1	test	Phase3	test/STIM_001.jpg
1818.735	0.912	1	test	Phase3	test/STIM_002.jpg
1823.016	1.306	1	test	Phase3	test/STIM_002.jpg
1827.651	1.381	1	test	Phase3	test/STIM_002.jpg
1832.116	1.527	0	test	Phase3	test/STIM_003.jpg
1836.5	1.283	1	test	Phase3	test/STIM_003.jpg
1840.462	1.219	1	test	Phase3	test/STIM_003.jpg
1844.471	0.826	1	test	Phase3	test/STIM_004.jpg
1848.983	1.053	1	test	Phase3	test/STIM_004.jpg
1853.276	0.936	1	test	Phase3	test/STIM_004.jpg
1857.97	0.743	1	test	Phase3	test/STIM_005.jpg
1861.749	0.789	1	test	Phase3	test/STIM_005.jpg
1865.509	0.75	1	test	Phase3	test/STIM_005.jpg
1869.184	0.853	1	test	Phase3	test/STIM_006.jpg
1873.952	1.253	1	test	Phase3	test/STIM_006.jpg
1877.857	0.947	1	test	Phase3	test/STIM_006.jpg
1882.441	0.977	1	test	Phase3	test/STIM_007.jpg
1886.663	0.653	1	test	Phase3	test/STIM_007.jpg
1890.276	0.92	1	test	Phase3	test/STIM_007.jpg
1894.539	1.087	1	test	Phase3	test/STIM_008.jpg
1899.084	0.722	1	test	Phase3	test/STIM_008.jpg
1902.964	0.843	1	test	Phase3	test/STIM_008.jpg
1905.87	1.124	1	test	Phase3	test/STIM_009.jpg
1909.103	0.944	1	test	Phase3	test/STIM_009.jpg
1913.152	1.137	1	test	Phase3	test/STIM_009.jpg
1916.496	1.315	1	test	Phase3	test/STIM_010.jpg
1920.138	1.063	1	test	Phase3	test/STIM_010.jpg
1924.912	1.41	1	test	Phase3	test/STIM_010.jpg
1930.062	0.704	1	test	Phase3	test/STIM_011.jpg
1933.333	0.895	1	test	Phase3	test/STIM_011.jpg
1937.374	0.873	1	test	Phase3	test/STIM_011.jpg
1940.148	0.9	1	test	Phase3	test/STIM_012.jpg
1944.691	1.176	1	test	Phase3	test/STIM_012.jpg
1949.196	1.242	1	test	Phase3	test/STIM_012.jpg
1953.689	1.127	1	test	Phase3	test/STIM_013.jpg
1957.223	1.25	1	test	Phase3	test/STIM_013.jpg
1961.225	1.026	1	test	Phase3	test/STIM_013.jpg
1964.718	1.038	1	test	Phase3	test/STIM_014.jpg
1969.425	1.112	1	test	Phase3	test/STIM_014.jpg
1973.457	0.776	1	test	Phase3	test/STIM_014.jpg
1977.964	1.135	1	test	Phase3	test/STIM_015.jpg
1981.746	1.419	1	test	Phase3	test/STIM_015.jpg
1986.583	1.113	1	test	Phase3	test/STIM_015.jpg
1989.843	1.38	1	test	Phase3	test/STIM_016.jpg
1993.63	1.237	1	test	Phase3	test/STIM_016.jpg
1997.933	1.247	1	test	Phase3	test/STIM_016.jpg
2002.048	0.66	1	test	Phase3	test/STIM_017.jpg
2005.593	1.406	1	test	Phase3	test/STIM_017.jpg
2010.069	1.32	1	test	Phase3	test/STIM_017.jpg
2013.733	1.292	1	test	Phase3	test/STIM_018.jpg
2018.758	0.863	1	test	Phase3	test/STIM_018.jpg
2023.387	0.868	1	test	Phase3	test/STIM_018.jpg
2026.659	1.286	1	test	Phase3	test/STIM_019.jpg
2030.581	0.794	1	test	Phase3	test/STIM_019.jpg
2033.398	0.733	1	test	Phase3	test/STIM_019.jpg
2037.642	1.202	1	test	Phase3	test/STIM_020.jpg
2042.555	0.72	0	test	Phase3	test/STIM_020.jpg
2046.657	0.804	1	test	Phase3	test/STIM_020.jpg
2050.326	1.273	1	test	Phase3	test/STIM_021.jpg
2054.292	1.116	1	test	Phase3	test/STIM_021.jpg
2058.209	1.29	1	test	Phase3	test/STIM_021.jpg
2062.422	0.777	1	test	Phase3	test/STIM_022.jpg
2065.244	1.211	1	test	Phase3	test/STIM_022.jpg
2069.861	0.824	1	test	Phase3	test/STIM_022.jpg
2074.105	1.395	1	test	Phase3	test/STIM_023.jpg
2078.879	1.306	1	test	Phase3	test/STIM_023.jpg
2082.045	1.426	1	test	Phase3	test/STIM_023.jpg
2087.067	1.451	1	test	Phase3	test/STIM_024.jpg
2090.528	1.24	1	test	Phase3	test/STIM_024.jpg
2095.18	1.028	1	test	Phase3	test/STIM_024.jpg
2098.948	1.259	0	test	Phase3	test/STIM_025.jpg
2102.11	0.98	1	test	Phase3	test/STIM_025.jpg
2106.897	1.353	1	test	Phase3	test/STIM_025.jpg
2110.109	1.049	1	test	Phase3	test/STIM_026.jpg
2114.282	1.393	1	test	Phase3	test/STIM_026.jpg
2118.275	1.15	0	test	Phase3	test/STIM_026.jpg
2123.218	1.133	1	test	Phase3	test/STIM_027.jpg
2127.253	0.851	1	test	Phase3	test/STIM_027.jpg
2130.665	0.953	0	test	Phase3	test/STIM_027.jpg
2135.123	0.688	1	test	Phase3	test/STIM_028.jpg
2137.981	0.815	1	test	Phase3	test/STIM_028.jpg
2142.616	0.828	1	test	Phase3	test/STIM_028.jpg
2145.746	1.019	1	test	Phase3	test/STIM_029.jpg
2149.377	1.346	1	test	Phase3	test/STIM_029.jpg
2154.483	1.116	0	test	Phase3	test/STIM_029.jpg
