onset	duration	accuracy	trial_type	learning_stage	stimulus
0.0	0.975	correct	study	Phase1	study/STIM_000.jpg
3.222	1.632	correct	study	Phase1	study/STIM_000.jpg
8.581	1.471	correct	study	Phase1	study/STIM_000.jpg
12.938	1.787	correct	study	Phase1	study/STIM_001.jpg
16.826	1.098	incorrect	study	Phase1	study/STIM_001.jpg
20.035	1.113	correct	study	Phase1	study/STIM_001.jpg
23.573	1.073	incorrect	study	Phase1	study/STIM_002.jpg
26.799	1.337	incorrect	study	Phase1	study/STIM_002.jpg
31.746	1.483	correct	study	Phase1	study/STIM_002.jpg
37.141	1.765	correct	study	Phase1	study/STIM_003.jpg
42.338	1.059	correct	study	Phase1	study/STIM_003.jpg
45.583	1.394	incorrect	study	Phase1	study/STIM_003.jpg
50.61	1.176	incorrect	study	Phase1	study/STIM_004.jpg
54.602	1.44	incorrect	study	Phase1	study/STIM_004.jpg
58.389	1.396	incorrect	study	Phase1	study/STIM_004.jpg
62.956	1.335	incorrect	study	Phase1	study/STIM_005.jpg
67.757	0.772	correct	study	Phase1	study/STIM_005.jpg
72.393	1.598	correct	study	Phase1	study/STIM_005.jpg
77.111	0.808	correct	study	Phase1	study/STIM_006.jpg
80.343	0.889	correct	study	Phase1	study/STIM_006.jpg
84.562	1.122	correct	study	Phase1	study/STIM_006.jpg
89.138	1.627	correct	study	Phase1	study/STIM_007.jpg
93.655	1.454	incorrect	study	Phase1	study/STIM_007.jpg
98.927	1.173	correct	study	Phase1	study/STIM_007.jpg
103.9	1.07	correct	study	Phase1	study/STIM_008.jpg
108.788	1.475	correct	study	Phase1	study/STIM_008.jpg
112.364	0.911	correct	study	Phase1	study/STIM_008.jpg
116.845	0.871	incorrect	study	Phase1	study/STIM_009.jpg
120.339	1.384	correct	study	Phase1	study/STIM_009.jpg
123.74	0.864	correct	study	Phase1	study/STIM_009.jpg
127.199	0.925	correct	study	Phase1	study/STIM_010.jpg
131.825	1.218	correct	study	Phase1	study/STIM_010.jpg
135.166	1.17	incorrect	study	Phase1	study/STIM_010.jpg
138.581	1.717	incorrect	study	Phase1	study/STIM_011.jpg
143.902	1.28	correct	study	Phase1	study/STIM_011.jpg
148.463	0.931	correct	study	Phase1	study/STIM_011.jpg
152.471	1.29	correct	study	Phase1	study/STIM_012.jpg
156.821	1.29	correct	study	Phase1	study/STIM_012.jpg
161.63	0.924	correct	study	Phase1	study/STIM_012.jpg
166.491	1.53	incorrect	study	Phase1	study/STIM_013.jpg
170.553	1.717	correct	study	Phase1	study/STIM_013.jpg
175.772	1.085	correct	study	Phase1	study/STIM_013.jpg
179.427	1.252	incorrect	study	Phase1	study/STIM_014.jpg
184.561	1.165	correct	study	Phase1	study/STIM_014.jpg
189.302	0.817	correct	study	Phase1	study/STIM_014.jpg
192.542	1.73	correct	study	Phase1	study/STIM_015.jpg
196.473	1.622	correct	study	Phase1	study/STIM_015.jpg
201.73	0.825	correct	study	Phase1	study/STIM_015.jpg
205.808	1.322	incorrect	study	Phase1	study/STIM_016.jpg
210.618	1.052	correct	study	Phase1	study/STIM_016.jpg
214.285	1.522	incorrect	study	Phase1	study/STIM_016.jpg
219.64	1.666	incorrect	study	Phase1	study/STIM_017.jpg
224.78	1.125	correct	study	Phase1	study/STIM_017.jpg
228.042	0.919	correct	study	Phase1	study/STIM_017.jpg
231.797	0.833	correct	study	Phase1	study/STIM_018.jpg
236.619	1.085	correct	study	Phase1	study/STIM_018.jpg
240.992	1.561	correct	study	Phase1	study/STIM_018.jpg
245.867	0.992	correct	study	Phase1	study/STIM_019.jpg
250.506	1.58	correct	study	Phase1	study/STIM_019.jpg
254.904	0.867	correct	study	Phase1	study/STIM_019.jpg
259.245	0.907	incorrect	study	Phase1	study/STIM_020.jpg
264.056	0.783	correct	study	Phase1	study/STIM_020.jpg
267.746	1.432	incorrect	study	Phase1	study/STIM_020.jpg
272.543	1.427	incorrect	study	Phase1	study/STIM_021.jpg
277.007	1.464	correct	study	Phase1	study/STIM_021.jpg
282.439	1.234	correct	study	Phase1	study/STIM_021.jpg
285.859	1.274	correct	study	Phase1	study/STIM_022.jpg
289.375	1.251	correct	study	Phase1	study/STIM_022.jpg
293.547	1.176	correct	study	Phase1	study/STIM_022.jpg
297.455	1.675	correct	study	Phase1	study/STIM_023.jpg
302.111	1.484	correct	study	Phase1	study/STIM_023.jpg
305.683	1.281	correct	study	Phase1	study/STIM_023.jpg
310.151	1.353	correct	study	Phase1	study/STIM_024.jpg
314.52	1.512	incorrect	study	Phase1	study/STIM_024.jpg
318.463	1.119	incorrect	study	Phase1	study/STIM_024.jpg
322.421	1.046	correct	study	Phase1	study/STIM_025.jpg
325.702	1.05	correct	study	Phase1	study/STIM_025.jpg
330.118	1.62	correct	study	Phase1	study/STIM_025.jpg
335.365	1.627	correct	study	Phase1	study/STIM_026.jpg
339.498	1.219	correct	study	Phase1	study/STIM_026.jpg
343.85	0.747	correct	study	Phase1	study/STIM_026.jpg
348.021	1.086	correct	study	Phase1	study/STIM_027.jpg
352.772	0.809	correct	study	Phase1	study/STIM_027.jpg
356.039	1.347	incorrect	study	Phase1	study/STIM_027.jpg
361.113	1.162	correct	study	Phase1	study/STIM_028.jpg
364.741	1.316	correct	study	Phase1	study/STIM_028.jpg
368.869	0.955	correct	study	Phase1	study/STIM_028.jpg
373.634	1.144	correct	study	Phase1	study/STIM_029.jpg
377.438	1.413	correct	study	Phase1	study/STIM_029.jpg
382.048	1.586	incorrect	study	Phase1	study/STIM_029.jpg
387.584	1.116	correct	test	Phase1	test/STIM_000.jpg
392.359	0.613	correct	test	Phase1	test/STIM_000.jpg
395.405	0.683	correct	test	Phase1	test/STIM_000.jpg
398.35	0.791	correct	test	Phase1	test/STIM_001.jpg
402.39	1.147	correct	test	Phase1	test/STIM_001.jpg
407.035	0.889	incorrect	test	Phase1	test/STIM_001.jpg
410.264	0.887	correct	test	Phase1	test/STIM_002.jpg
413.645	1.135	incorrect	test	Phase1	test/STIM_002.jpg
417.135	0.89	correct	test	Phase1	test/STIM_002.jpg
420.249	0.969	correct	test	Phase1	test/STIM_003.jpg
424.721	0.88	correct	test	Phase1	test/STIM_003.jpg
429.315	0.752	correct	test	Phase1	test/STIM_003.jpg
432.906	0.8	incorrect	test	Phase1	test/STIM_004.jpg
435.955	1.139	correct	test	Phase1	test/STIM_004.jpg
439.587	1.26	correct	test	Phase1	test/STIM_004.jpg
443.385	0.838	correct	test	Phase1	test/STIM_005.jpg
447.509	1.1	correct	test	Phase1	test/STIM_005.jpg
452.083	1.305	incorrect	test	Phase1	test/STIM_005.jpg
456.687	0.869	correct	test	Phase1	test/STIM_006.jpg
461.464	1.15	correct	test	Phase1	test/STIM_006.jpg
464.673	1.141	correct	test	Phase1	test/STIM_006.jpg
468.952	1.045	correct	test	Phase1	test/STIM_007.jpg
472.011	0.716	correct	test	Phase1	test/STIM_007.jpg
474.743	1.243	correct	test	Phase1	test/STIM_007.jpg
479.545	1.234	correct	test	Phase1	test/STIM_008.jpg
484.062	0.641	incorrect	test	Phase1	test/STIM_008.jpg
488.502	1.187	correct	test	Phase1	test/STIM_008.jpg
493.314	0.904	correct	test	Phase1	test/STIM_009.jpg
496.435	0.886	correct	test	Phase1	test/STIM_009.jpg
500.66	1.069	correct	test	Phase1	test/STIM_009.jpg
503.793	0.719	correct	test	Phase1	test/STIM_010.jpg
508.287	1.242	correct	test	Phase1	test/STIM_010.jpg
511.879	1.198	correct	test	Phase1	test/STIM_010.jpg
516.186	1.123	incorrect	test	Phase1	test/STIM_011.jpg
520.505	0.782	correct	test	Phase1	test/STIM_011.jpg
524.055	1.09	incorrect	test	Phase1	test/STIM_011.jpg
527.748	1.248	incorrect	test	Phase1	test/STIM_012.jpg
532.6	1.015	correct	test	Phase1	test/STIM_012.jpg
536.818	0.71	correct	test	Phase1	test/STIM_012.jpg
540.98	1.136	correct	test	Phase1	test/STIM_013.jpg
545.765	1.057	correct	test	Phase1	test/STIM_013.jpg
550.01	0.912	correct	test	Phase1	test/STIM_013.jpg
554.52	0.711	correct	test	Phase1	test/STIM_014.jpg
558.452	0.819	correct	test	Phase1	test/STIM_014.jpg
561.505	0.623	correct	test	Phase1	test/STIM_014.jpg
564.477	1.217	correct	test	Phase1	test/STIM_015.jpg
567.928	1.244	correct	test	Phase1	test/STIM_015.jpg
571.228	1.144	correct	test	Phase1	test/STIM_015.jpg
575.437	1.038	correct	test	Phase1	test/STIM_016.jpg
580.371	0.785	incorrect	test	Phase1	test/STIM_016.jpg
584.867	0.839	correct	test	Phase1	test/STIM_016.jpg
589.684	1.206	correct	test	Phase1	test/STIM_017.jpg
593.769	0.924	correct	test	Phase1	test/STIM_017.jpg
598.074	0.707	correct	test	Phase1	test/STIM_017.jpg
600.817	0.725	correct	test	Phase1	test/STIM_018.jpg
604.047	0.863	correct	test	Phase1	test/STIM_018.jpg
607.448	0.874	correct	test	Phase1	test/STIM_018.jpg
611.274	1.178	incorrect	test	Phase1	test/STIM_019.jpg
615.016	0.961	correct	test	Phase1	test/STIM_019.jpg
618.201	1.172	incorrect	test	Phase1	test/STIM_019.jpg
621.506	0.916	correct	test	Phase1	test/STIM_020.jpg
624.914	0.868	correct	test	Phase1	test/STIM_020.jpg
628.68	0.894	correct	test	Phase1	test/STIM_020.jpg
633.458	0.736	correct	test	Phase1	test/STIM_021.jpg
637.318	0.991	correct	test	Phase1	test/STIM_021.jpg
640.845	1.053	correct	test	Phase1	test/STIM_021.jpg
644.149	1.192	incorrect	test	Phase1	test/STIM_022.jpg
648.136	1.261	correct	test	Phase1	test/STIM_022.jpg
652.751	0.742	correct	test	Phase1	test/STIM_022.jpg
656.459	1.066	correct	test	Phase1	test/STIM_023.jpg
659.653	1.087	correct	test	Phase1	test/STIM_023.jpg
664.629	0.894	incorrect	test	Phase1	test/STIM_023.jpg
669.374	1.11	correct	test	Phase1	test/STIM_024.jpg
673.644	0.625	correct	test	Phase1	test/STIM_024.jpg
676.412	0.75	correct	test	Phase1	test/STIM_024.jpg
679.759	0.667	correct	test	Phase1	test/STIM_025.jpg
683.843	0.643	incorrect	test	Phase1	test/STIM_025.jpg
687.792	0.972	correct	test	Phase1	test/STIM_025.jpg
691.55	0.842	correct	test	Phase1	test/STIM_026.jpg
694.551	0.823	correct	test	Phase1	test/STIM_026.jpg
697.951	1.178	correct	test	Phase1	test/STIM_026.jpg
702.392	0.91	correct	test	Phase1	test/STIM_027.jpg
705.802	0.968	correct	test	Phase1	test/STIM_027.jpg
709.543	0.922	incorrect	test	Phase1	test/STIM_027.jpg
713.265	1.075	correct	test	Phase1	test/STIM_028.jpg
716.391	0.962	correct	test	Phase1	test/STIM_028.jpg
720.692	0.826	correct	test	Phase1	test/STIM_028.jpg
724.966	1.27	incorrect	test	Phase1	test/STIM_029.jpg
729.459	0.99	correct	test	Phase1	test/STIM_029.jpg
734.183	1.125	correct	test	Phase1	test/STIM_029.jpg
737.488	0.812	correct	study	Phase2	study/STIM_000.jpg
741.38	1.27	correct	study	Phase2	study/STIM_000.jpg
745.783	0.973	incorrect	study	Phase2	study/STIM_000.jpg
749.13	0.985	correct	study	Phase2	study/STIM_001.jpg
753.019	1.356	correct	study	Phase2	study/STIM_001.jpg
757.864	0.676	correct	study	Phase2	study/STIM_001.jpg
762.217	1.404	incorrect	study	Phase2	study/STIM_002.jpg
766.673	0.647	correct	study	Phase2	study/STIM_002.jpg
771.232	1.307	incorrect	study	Phase2	study/STIM_002.jpg
774.963	0.805	correct	study	Phase2	study/STIM_003.jpg
778.049	1.415	correct	study	Phase2	study/STIM_003.jpg
781.525	0.719	incorrect	study	Phase2	study/STIM_003.jpg
785.651	1.318	correct	study	Phase2	study/STIM_004.jpg
790.266	0.671	correct	study	Phase2	study/STIM_004.jpg
794.007	1.137	correct	study	Phase2	study/STIM_004.jpg
798.02	0.789	correct	study	Phase2	study/STIM_005.jpg
801.684	1.047	correct	study	Phase2	study/STIM_005.jpg
805.902	0.833	correct	study	Phase2	study/STIM_005.jpg
809.985	1.448	correct	study	Phase2	study/STIM_006.jpg
814.552	1.388	correct	study	Phase2	study/STIM_006.jpg
818.329	0.867	correct	study	Phase2	study/STIM_006.jpg
822.88	0.856	correct	study	Phase2	study/STIM_007.jpg
827.383	0.765	incorrect	study	Phase2	study/STIM_007.jpg
831.614	0.731	correct	study	Phase2	study/STIM_007.jpg
835.326	1.069	incorrect	study	Phase2	study/STIM_008.jpg
839.754	1.359	correct	study	Phase2	study/STIM_008.jpg
843.747	1.134	correct	study	Phase2	study/STIM_008.jpg
848.588	1.08	incorrect	study	Phase2	study/STIM_009.jpg
851.87	0.872	correct	study	Phase2	study/STIM_009.jpg
855.082	0.635	correct	study	Phase2	study/STIM_009.jpg
858.412	1.046	correct	study	Phase2	study/STIM_010.jpg
862.991	1.421	correct	study	Phase2	study/STIM_010.jpg
868.296	0.778	correct	study	Phase2	study/STIM_010.jpg
872.437	0.73	correct	study	Phase2	study/STIM_011.jpg
876.97	1.396	correct	study	Phase2	study/STIM_011.jpg
881.939	0.659	correct	study	Phase2	study/STIM_011.jpg
885.123	1.141	incorrect	study	Phase2	study/STIM_012.jpg
889.578	1.005	correct	study	Phase2	study/STIM_012.jpg
894.011	1.17	incorrect	study	Phase2	study/STIM_012.jpg
898.849	1.354	correct	study	Phase2	study/STIM_013.jpg
903.45	0.661	correct	study	Phase2	study/STIM_013.jpg
906.233	1.349	incorrect	study	Phase2	study/STIM_013.jpg
909.946	1.087	correct	study	Phase2	study/STIM_014.jpg
913.393	1.078	correct	study	Phase2	study/STIM_014.jpg
918.049	0.752	correct	study	Phase2	study/STIM_014.jpg
921.861	0.81	correct	study	Phase2	study/STIM_015.jpg
925.609	0.832	correct	study	Phase2	study/STIM_015.jpg
930.23	1.295	incorrect	study	Phase2	study/STIM_015.jpg
934.244	1.482	correct	study	Phase2	study/STIM_016.jpg
939.228	0.789	correct	study	Phase2	study/STIM_016.jpg
943.924	1.045	incorrect	study	Phase2	study/STIM_016.jpg
947.092	0.924	incorrect	study	Phase2	study/STIM_017.jpg
951.765	1.166	incorrect	study	Phase2	study/STIM_017.jpg
955.658	1.219	correct	study	Phase2	study/STIM_017.jpg
959.337	1.15	correct	study	Phase2	study/STIM_018.jpg
963.253	1.438	correct	study	Phase2	study/STIM_018.jpg
968.094	1.107	correct	study	Phase2	study/STIM_018.jpg
972.893	0.79	correct	study	Phase2	study/STIM_019.jpg
976.115	1.416	correct	study	Phase2	study/STIM_019.jpg
979.873	0.726	incorrect	study	Phase2	study/STIM_019.jpg
983.094	1.251	incorrect	study	Phase2	study/STIM_020.jpg
987.571	0.671	incorrect	study	Phase2	study/STIM_020.jpg
991.626	1.246	correct	study	Phase2	study/STIM_020.jpg
995.205	0.95	correct	study	Phase2	study/STIM_021.jpg
999.416	0.976	correct	study	Phase2	study/STIM_021.jpg
1003.194	0.742	correct	study	Phase2	study/STIM_021.jpg
1006.866	1.356	correct	study	Phase2	study/STIM_022.jpg
1010.594	0.648	correct	study	Phase2	study/STIM_022.jpg
1013.698	1.227	correct	study	Phase2	study/STIM_022.jpg
1017.733	0.812	correct	study	Phase2	study/STIM_023.jpg
1022.181	1.017	correct	study	Phase2	study/STIM_023.jpg
1026.709	0.983	correct	study	Phase2	study/STIM_023.jpg
1029.801	1.421	incorrect	study	Phase2	study/STIM_024.jpg
1033.56	0.672	correct	study	Phase2	study/STIM_024.jpg
1036.352	1.327	correct	study	Phase2	study/STIM_024.jpg
1041.076	1.308	incorrect	study	Phase2	study/STIM_025.jpg
1045.996	1.409	correct	study	Phase2	study/STIM_025.jpg
1051.076	1.189	correct	study	Phase2	study/STIM_025.jpg
1055.0	1.042	incorrect	study	Phase2	study/STIM_026.jpg
1058.894	1.444	correct	study	Phase2	study/STIM_026.jpg
1063.669	0.847	correct	study	Phase2	study/STIM_026.jpg
1066.684	1.34	correct	study	Phase2	study/STIM_027.jpg
1070.719	1.069	correct	study	Phase2	study/STIM_027.jpg
1073.876	1.309	correct	study	Phase2	study/STIM_027.jpg
1078.904	1.424	correct	study	Phase2	study/STIM_028.jpg
1083.892	1.237	incorrect	study	Phase2	study/STIM_028.jpg
1089.01	1.085	correct	study	Phase2	study/STIM_028.jpg
1092.341	1.168	incorrect	study	Phase2	study/STIM_029.jpg
1095.837	1.411	correct	study	Phase2	study/STIM_029.jpg
1100.475	0.763	correct	study	Phase2	study/STIM_029.jpg
1104.13	1.137	correct	test	Phase2	test/STIM_000.jpg
1107.356	1.219	correct	test	Phase2	test/STIM_000.jpg
1111.964	0.958	incorrect	test	Phase2	test/STIM_000.jpg
1115.126	1.244	correct	test	Phase2	test/STIM_001.jpg
1119.762	0.927	correct	test	Phase2	test/STIM_001.jpg
1123.076	0.947	correct	test	Phase2	test/STIM_001.jpg
1126.513	1.027	incorrect	test	Phase2	test/STIM_002.jpg
1130.532	1.022	correct	test	Phase2	test/STIM_002.jpg
1134.295	0.834	correct	test	Phase2	test/STIM_002.jpg
1137.201	0.804	correct	test	Phase2	test/STIM_003.jpg
1140.606	0.712	correct	test	Phase2	test/STIM_003.jpg
1143.414	0.906	incorrect	test	Phase2	test/STIM_003.jpg
1148.228	0.781	correct	test	Phase2	test/STIM_004.jpg
1152.143	0.765	correct	test	Phase2	test/STIM_004.jpg
1155.76	0.656	correct	test	Phase2	test/STIM_004.jpg
1159.085	0.842	correct	test	Phase2	test/STIM_005.jpg
1162.61	1.142	correct	test	Phase2	test/STIM_005.jpg
1166.811	1.148	incorrect	test	Phase2	test/STIM_005.jpg
1170.102	1.125	incorrect	test	Phase2	test/STIM_006.jpg
1173.86	1.306	incorrect	test	Phase2	test/STIM_006.jpg
1177.242	1.024	correct	test	Phase2	test/STIM_006.jpg
1180.341	0.613	correct	test	Phase2	test/STIM_007.jpg
1183.594	1.102	correct	test	Phase2	test/STIM_007.jpg
1188.229	1.179	correct	test	Phase2	test/STIM_007.jpg
1192.244	1.303	incorrect	test	Phase2	test/STIM_008.jpg
1196.576	0.972	correct	test	Phase2	test/STIM_008.jpg
1199.791	0.855	correct	test	Phase2	test/STIM_008.jpg
1204.446	1.068	correct	test	Phase2	test/STIM_009.jpg
1208.645	1.207	correct	test	Phase2	test/STIM_009.jpg
1212.002	1.161	correct	test	Phase2	test/STIM_009.jpg
1216.097	1.308	correct	test	Phase2	test/STIM_010.jpg
1220.719	1.204	incorrect	test	Phase2	test/STIM_010.jpg
1225.758	1.023	correct	test	Phase2	test/STIM_010.jpg
1230.452	1.233	correct	test	Phase2	test/STIM_011.jpg
1233.735	1.027	correct	test	Phase2	test/STIM_011.jpg
1237.852	1.265	correct	test	Phase2	test/STIM_011.jpg
1242.177	0.89	correct	test	Phase2	test/STIM_012.jpg
1246.332	0.793	incorrect	test	Phase2	test/STIM_012.jpg
1250.722	0.894	correct	test	Phase2	test/STIM_012.jpg
1255.346	0.993	correct	test	Phase2	test/STIM_013.jpg
1259.607	1.081	incorrect	test	Phase2	test/STIM_013.jpg
1263.981	0.808	correct	test	Phase2	test/STIM_013.jpg
1268.671	0.678	correct	test	Phase2	test/STIM_014.jpg
1273.156	0.847	correct	test	Phase2	test/STIM_014.jpg
1277.329	0.848	correct	test	Phase2	test/STIM_014.jpg
1280.395	0.744	incorrect	test	Phase2	test/STIM_015.jpg
1284.73	1.158	incorrect	test	Phase2	test/STIM_015.jpg
1288.995	1.253	correct	test	Phase2	test/STIM_015.jpg
1293.905	0.869	correct	test	Phase2	test/STIM_016.jpg
1298.55	1.259	incorrect	test	Phase2	test/STIM_016.jpg
1303.324	0.999	correct	test	Phase2	test/STIM_016.jpg
1306.804	0.704	incorrect	test	Phase2	test/STIM_017.jpg
1311.062	0.858	correct	test	Phase2	test/STIM_017.jpg
1315.798	0.914	correct	test	Phase2	test/STIM_017.jpg
1320.066	0.693	correct	test	Phase2	test/STIM_018.jpg
1324.073	1.063	correct	test	Phase2	test/STIM_018.jpg
1327.49	0.8	correct	test	Phase2	test/STIM_018.jpg
1330.774	1.1	correct	test	Phase2	test/STIM_019.jpg
1334.658	0.61	incorrect	test	Phase2	test/STIM_019.jpg
1337.892	0.739	incorrect	test	Phase2	test/STIM_019.jpg
1341.719	0.62	incorrect	test	Phase2	test/STIM_020.jpg
1346.051	0.974	correct	test	Phase2	test/STIM_020.jpg
1349.031	0.605	correct	test	Phase2	test/STIM_020.jpg
1352.589	1.25	incorrect	test	Phase2	test/STIM_021.jpg
1356.847	0.943	incorrect	test	Phase2	test/STIM_021.jpg
1361.397	0.801	incorrect	test	Phase2	test/STIM_021.jpg
1365.484	1.209	incorrect	test	Phase2	test/STIM_022.jpg
1369.23	1.226	correct	test	Phase2	test/STIM_022.jpg
1372.676	1.01	correct	test	Phase2	test/STIM_022.jpg
1376.49	1.103	correct	test	Phase2	test/STIM_023.jpg
1381.232	0.624	correct	test	Phase2	test/STIM_023.jpg
1384.307	1.076	correct	test	Phase2	test/STIM_023.jpg
1389.383	1.214	correct	test	Phase2	test/STIM_024.jpg
1393.654	0.83	correct	test	Phase2	test/STIM_024.jpg
1397.328	0.687	correct	test	Phase2	test/STIM_024.jpg
1400.037	0.815	correct	test	Phase2	test/STIM_025.jpg
1403.04	0.961	correct	test	Phase2	test/STIM_025.jpg
1407.81	1.0	correct	test	Phase2	test/STIM_025.jpg
1412.692	1.134	incorrect	test	Phase2	test/STIM_026.jpg
1416.38	0.639	correct	test	Phase2	test/STIM_026.jpg
1420.574	0.682	incorrect	test	Phase2	test/STIM_026.jpg
1423.648	0.884	correct	test	Phase2	test/STIM_027.jpg
1428.341	0.787	correct	test	Phase2	test/STIM_027.jpg
1433.097	1.138	incorrect	test	Phase2	test/STIM_027.jpg
1436.715	0.794	incorrect	test	Phase2	test/STIM_028.jpg
1439.826	0.66	incorrect	test	Phase2	test/STIM_028.jpg
1443.14	0.64	correct	test	Phase2	test/STIM_028.jpg
1446.115	1.15	incorrect	test	Phase2	test/STIM_029.jpg
1450.849	0.964	correct	test	Phase2	test/STIM_029.jpg
1454.713	1.241	incorrect	test	Phase2	test/STIM_029.jpg
1459.488	0.68	incorrect	study	Phase3	study/STIM_000.jpg
1462.225	0.888	correct	study	Phase3	study/STIM_000.jpg
1466.36	0.876	correct	study	Phase3	study/STIM_000.jpg
1470.96	0.665	incorrect	study	Phase3	study/STIM_001.jpg
1475.23	0.726	correct	study	Phase3	study/STIM_001.jpg
1479.038	0.622	correct	study	Phase3	study/STIM_001.jpg
1483.186	1.169	correct	study	Phase3	study/STIM_002.jpg
1486.837	1.238	correct	study	Phase3	study/STIM_002.jpg
1490.411	0.881	correct	study	Phase3	study/STIM_002.jpg
1494.534	0.852	correct	study	Phase3	study/STIM_003.jpg
1498.839	0.76	correct	study	Phase3	study/STIM_003.jpg
1502.799	0.957	incorrect	study	Phase3	study/STIM_003.jpg
1507.172	0.964	incorrect	study	Phase3	study/STIM_004.jpg
1510.241	0.799	correct	study	Phase3	study/STIM_004.jpg
1514.622	0.927	correct	study	Phase3	study/STIM_004.jpg
1519.051	0.945	correct	study	Phase3	study/STIM_005.jpg
1522.437	0.678	correct	study	Phase3	study/STIM_005.jpg
1526.56	1.101	correct	study	Phase3	study/STIM_005.jpg
1530.653	0.905	correct	study	Phase3	study/STIM_006.jpg
1534.16	0.901	correct	study	Phase3	study/STIM_006.jpg
1538.26	0.831	correct	study	Phase3	study/STIM_006.jpg
1541.769	1.197	incorrect	study	Phase3	study/STIM_007.jpg
1545.896	0.915	correct	study	Phase3	study/STIM_007.jpg
1549.796	1.044	correct	study	Phase3	study/STIM_007.jpg
1554.656	0.719	correct	study	Phase3	study/STIM_008.jpg
1559.306	0.775	correct	study	Phase3	study/STIM_008.jpg
1562.174	0.683	incorrect	study	Phase3	study/STIM_008.jpg
1566.158	0.942	correct	study	Phase3	study/STIM_009.jpg
1570.686	0.684	correct	study	Phase3	study/STIM_009.jpg
1574.495	0.648	incorrect	study	Phase3	study/STIM_009.jpg
1577.982	1.174	correct	study	Phase3	study/STIM_010.jpg
1581.522	1.074	correct	study	Phase3	study/STIM_010.jpg
1585.49	0.812	correct	study	Phase3	study/STIM_010.jpg
1588.402	0.691	correct	study	Phase3	study/STIM_011.jpg
1592.081	1.255	correct	study	Phase3	study/STIM_011.jpg
1596.539	0.908	correct	study	Phase3	study/STIM_011.jpg
1600.2	0.691	correct	study	Phase3	study/STIM_012.jpg
1603.947	1.232	correct	study	Phase3	study/STIM_012.jpg
1608.725	0.63	correct	study	Phase3	study/STIM_012.jpg
1613.321	1.029	correct	study	Phase3	study/STIM_013.jpg
1618.309	0.841	correct	study	Phase3	study/STIM_013.jpg
1621.949	0.865	correct	study	Phase3	study/STIM_013.jpg
1625.328	1.266	correct	study	Phase3	study/STIM_014.jpg
1628.839	0.792	correct	study	Phase3	study/STIM_014.jpg
1632.259	0.996	correct	study	Phase3	study/STIM_014.jpg
1635.775	0.658	correct	study	Phase3	study/STIM_015.jpg
1639.314	0.638	correct	study	Phase3	study/STIM_015.jpg
1643.678	1.114	correct	study	Phase3	study/STIM_015.jpg
1648.492	0.636	correct	study	Phase3	study/STIM_016.jpg
1651.359	0.905	correct	study	Phase3	study/STIM_016.jpg
1654.794	1.151	correct	study	Phase3	study/STIM_016.jpg
1659.049	0.905	correct	study	Phase3	study/STIM_017.jpg
1662.021	1.057	incorrect	study	Phase3	study/STIM_017.jpg
1666.719	0.753	correct	study	Phase3	study/STIM_017.jpg
1670.306	0.96	correct	study	Phase3	study/STIM_018.jpg
1673.509	0.578	correct	study	Phase3	study/STIM_018.jpg
1677.859	0.636	correct	study	Phase3	study/STIM_018.jpg
1680.535	1.19	incorrect	study	Phase3	study/STIM_019.jpg
1685.575	0.895	correct	study	Phase3	study/STIM_019.jpg
1690.374	0.801	correct	study	Phase3	study/STIM_019.jpg
1694.508	0.58	incorrect	study	Phase3	study/STIM_020.jpg
1698.799	1.233	correct	study	Phase3	study/STIM_020.jpg
1703.977	1.026	correct	study	Phase3	study/STIM_020.jpg
1708.154	0.862	correct	study	Phase3	study/STIM_021.jpg
1712.562	1.009	correct	study	Phase3	study/STIM_021.jpg
1716.11	1.203	correct	study	Phase3	study/STIM_021.jpg
1720.516	0.605	correct	study	Phase3	study/STIM_022.jpg
1723.319	0.799	correct	study	Phase3	study/STIM_022.jpg
1727.905	1.106	correct	study	Phase3	study/STIM_022.jpg
1732.169	0.723	correct	study	Phase3	study/STIM_023.jpg
1735.586	0.721	correct	study	Phase3	study/STIM_023.jpg
1738.531	1.05	correct	study	Phase3	study/STIM_023.jpg
1742.687	0.842	correct	study	Phase3	study/STIM_024.jpg
1746.021	0.784	correct	study	Phase3	study/STIM_024.jpg
1750.359	0.614	correct	study	Phase3	study/STIM_024.jpg
1753.871	0.703	correct	study	Phase3	study/STIM_025.jpg
1757.41	0.723	incorrect	study	Phase3	study/STIM_025.jpg
1760.195	0.704	correct	study	Phase3	study/STIM_025.jpg
1764.154	0.752	correct	study	Phase3	study/STIM_026.jpg
1767.846	0.937	incorrect	study	Phase3	study/STIM_026.jpg
1772.751	1.085	correct	study	Phase3	study/STIM_026.jpg
1776.31	1.111	correct	study	Phase3	study/STIM_027.jpg
1779.604	0.59	correct	study	Phase3	study/STIM_027.jpg
1783.023	1.064	correct	study	Phase3	study/STIM_027.jpg
1787.627	0.789	correct	study	Phase3	study/STIM_028.jpg
1792.188	0.614	correct	study	Phase3	study/STIM_028.jpg
1796.233	1.125	incorrect	study	Phase3	study/STIM_028.jpg
1800.192	0.734	correct	study	Phase3	study/STIM_029.jpg
1804.863	0.879	correct	study	Phase3	study/STIM_029.jpg
1809.332	0.879	correct	study	Phase3	study/STIM_029.jpg
1813.892	0.946	correct	test	Phase3	test/STIM_000.jpg
1816.988	0.933	incorrect	test	Phase3	test/STIM_000.jpg
1821.344	0.619	incorrect	test	Phase3	test/STIM_000.jpg
1824.796	0.937	correct	test	Phase3	test/STIM_001.jpg
1829.608	0.886	correct	test	Phase3	test/STIM_001.jpg
1832.969	0.673	correct	test	Phase3	test/STIM_001.jpg
1837.612	1.062	correct	test	Phase3	test/STIM_002.jpg
1841.558	0.805	correct	test	Phase3	test/STIM_002.jpg
1844.661	0.79	correct	test	Phase3	test/STIM_002.jpg
1847.741	1.164	incorrect	test	Phase3	test/STIM_003.jpg
1851.548	0.97	correct	test	Phase3	test/STIM_003.jpg
1855.665	0.813	correct	test	Phase3	test/STIM_003.jpg
1859.156	0.732	incorrect	test	Phase3	test/STIM_004.jpg
1862.85	0.796	incorrect	test	Phase3	test/STIM_004.jpg
1866.079	0.973	correct	test	Phase3	test/STIM_004.jpg
1869.527	1.043	incorrect	test	Phase3	test/STIM_005.jpg
1873.053	0.938	correct	test	Phase3	test/STIM_005.jpg
1877.371	0.654	correct	test	Phase3	test/STIM_005.jpg
1881.471	0.732	correct	test	Phase3	test/STIM_006.jpg
1885.463	0.805	correct	test	Phase3	test/STIM_006.jpg
1889.315	1.135	correct	test	Phase3	test/STIM_006.jpg
1894.236	0.68	correct	test	Phase3	test/STIM_007.jpg
1898.004	1.182	correct	test	Phase3	test/STIM_007.jpg
1902.15	1.186	correct	test	Phase3	test/STIM_007.jpg
1906.088	1.186	correct	test	Phase3	test/STIM_008.jpg
1910.093	1.29	correct	test	Phase3	test/STIM_008.jpg
1914.148	0.822	correct	test	Phase3	test/STIM_008.jpg
1917.168	1.048	correct	test	Phase3	test/STIM_009.jpg
1920.585	0.711	correct	test	Phase3	test/STIM_009.jpg
1923.614	1.176	correct	test	Phase3	test/STIM_009.jpg
1928.592	0.863	correct	test	Phase3	test/STIM_010.jpg
1933.109	1.179	correct	test	Phase3	test/STIM_010.jpg
1936.718	1.268	correct	test	Phase3	test/STIM_010.jpg
1941.654	0.968	correct	test	Phase3	test/STIM_011.jpg
1945.925	0.939	correct	test	Phase3	test/STIM_011.jpg
1949.56	0.717	correct	test	Phase3	test/STIM_011.jpg
1953.316	1.022	incorrect	test	Phase3	test/STIM_012.jpg
1958.168	1.129	correct	test	Phase3	test/STIM_012.jpg
1961.455	1.059	correct	test	Phase3	test/STIM_012.jpg
1965.153	1.198	correct	test	Phase3	test/STIM_013.jpg
1969.615	0.984	correct	test	Phase3	test/STIM_013.jpg
1973.262	1.271	correct	test	Phase3	test/STIM_013.jpg
1978.101	1.213	correct	test	Phase3	test/STIM_014.jpg
1982.641	1.134	correct	test	Phase3	test/STIM_014.jpg
1986.913	0.719	correct	test	Phase3	test/STIM_014.jpg
1991.048	1.03	incorrect	test	Phase3	test/STIM_015.jpg
1996.055	1.267	correct	test	Phase3	test/STIM_015.jpg
2001.072	0.794	correct	test	Phase3	test/STIM_015.jpg
2005.43	0.848	incorrect	test	Phase3	test/STIM_016.jpg
2009.179	1.142	correct	test	Phase3	test/STIM_016.jpg
2013.454	1.202	correct	test	Phase3	test/STIM_016.jpg
2017.711	0.931	incorrect	test	Phase3	test/STIM_017.jpg
2020.755	1.278	correct	test	Phase3	test/STIM_017.jpg
2024.586	1.036	correct	test	Phase3	test/STIM_017.jpg
2029.289	1.191	correct	test	Phase3	test/STIM_018.jpg
2032.591	0.887	correct	test	Phase3	test/STIM_018.jpg
2036.413	1.22	incorrect	test	Phase3	test/STIM_018.jpg
2040.642	1.256	incorrect	test	Phase3	test/STIM_019.jpg
2045.757	0.611	incorrect	test	Phase3	test/STIM_019.jpg
2049.322	0.68	correct	test	Phase3	test/STIM_019.jpg
2052.597	0.945	correct	test	Phase3	test/STIM_020.jpg
2057.387	1.231	incorrect	test	Phase3	test/STIM_020.jpg
2061.936	0.749	correct	test	Phase3	test/STIM_020.jpg
2064.979	0.925	correct	test	Phase3	test/STIM_021.jpg
2069.284	1.195	correct	test	Phase3	test/STIM_021.jpg
2072.561	0.638	incorrect	test	Phase3	test/STIM_021.jpg
2076.171	0.78	incorrect	test	Phase3	test/STIM_022.jpg
2080.009	0.702	correct	test	Phase3	test/STIM_022.jpg
2083.743	0.767	correct	test	Phase3	test/STIM_022.jpg
2086.55	1.018	incorrect	test	Phase3	test/STIM_023.jpg
2091.325	1.031	correct	test	Phase3	test/STIM_023.jpg
2095.365	0.757	correct	test	Phase3	test/STIM_023.jpg
2100.057	0.832	correct	test	Phase3	test/STIM_024.jpg
2103.127	1.156	correct	test	Phase3	test/STIM_024.jpg
2106.861	0.963	correct	test	Phase3	test/STIM_024.jpg
2110.06	1.024	incorrect	test	Phase3	test/STIM_025.jpg
2113.973	0.768	correct	test	Phase3	test/STIM_025.jpg
2117.417	1.232	correct	test	Phase3	test/STIM_025.jpg
2121.008	1.012	incorrect	test	Phase3	test/STIM_026.jpg
2125.258	0.818	correct	test	Phase3	test/STIM_026.jpg
2128.551	1.26	incorrect	test	Phase3	test/STIM_026.jpg
2133.324	0.742	correct	test	Phase3	test/STIM_027.jpg
2137.591	0.847	correct	test	Phase3	test/STIM_027.jpg
2141.832	1.036	incorrect	test	Phase3	test/STIM_027.jpg
2145.234	0.79	correct	test	Phase3	test/STIM_028.jpg
2149.252	0.997	correct	test	Phase3	test/STIM_028.jpg
2153.878	0.8	correct	test	Phase3	test/STIM_028.jpg
2157.08	0.804	correct	test	Phase3	test/STIM_029.jpg
2160.158	1.226	correct	test	Phase3	test/STIM_029.jpg
2164.081	0.694	incorrect	test	Phase3	test/STIM_029.jpg
