onset	duration	accuracy_binary	trial_type	learning_stage	stimulus
0.0	1.003	0	2back	Block1	2back/STIM_000.jpg
4.015	0.543	1	2back	Block1	2back/STIM_000.jpg
7.904	1.13	0	2back	Block1	2back/STIM_000.jpg
11.648	1.144	1	2back	Block1	2back/STIM_001.jpg
16.148	0.532	0	2back	Block1	2back/STIM_001.jpg
20.139	0.793	0	2back	Block1	2back/STIM_001.jpg
24.301	0.792	1	2back	Block1	2back/STIM_002.jpg
29.033	0.718	1	2back	Block1	2back/STIM_002.jpg
32.671	0.66	1	2back	Block1	2back/STIM_002.jpg
36.216	0.973	1	2back	Block1	2back/STIM_003.jpg
39.962	0.789	0	2back	Block1	2back/STIM_003.jpg
44.405	0.71	1	2back	Block1	2back/STIM_003.jpg
48.105	1.166	0	2back	Block1	2back/STIM_004.jpg
51.497	0.774	1	2back	Block1	2back/STIM_004.jpg
54.536	0.489	1	2back	Block1	2back/STIM_004.jpg
57.52	0.625	0	2back	Block1	2back/STIM_005.jpg
60.247	0.534	1	2back	Block1	2back/STIM_005.jpg
64.075	1.105	1	2back	Block1	2back/STIM_005.jpg
69.164	0.886	1	2back	Block1	2back/STIM_006.jpg
73.104	0.902	1	2back	Block1	2back/STIM_006.jpg
76.985	1.049	0	2back	Block1	2back/STIM_006.jpg
82.02	0.915	0	2back	Block1	2back/STIM_007.jpg
85.72	1.182	0	2back	Block1	2back/STIM_007.jpg
89.721	0.843	0	2back	Block1	2back/STIM_007.jpg
93.268	1.021	0	2back	Block1	2back/STIM_008.jpg
96.64	1.128	1	2back	Block1	2back/STIM_008.jpg
99.976	0.597	1	2back	Block1	2back/STIM_008.jpg
103.489	1.126	1	2back	Block1	2back/STIM_009.jpg
107.586	0.825	1	2back	Block1	2back/STIM_009.jpg
111.044	1.069	0	2back	Block1	2back/STIM_009.jpg
114.483	0.83	0	2back	Block1	2back/STIM_010.jpg
119.262	0.997	1	2back	Block1	2back/STIM_010.jpg
123.364	0.532	1	2back	Block1	2back/STIM_010.jpg
126.455	0.982	1	2back	Block1	2back/STIM_011.jpg
129.788	1.185	0	2back	Block1	2back/STIM_011.jpg
133.932	0.949	0	2back	Block1	2back/STIM_011.jpg
137.264	1.254	0	2back	Block1	2back/STIM_012.jpg
141.73	1.185	1	2back	Block1	2back/STIM_012.jpg
145.577	0.863	1	2back	Block1	2back/STIM_012.jpg
150.423	0.669	1	2back	Block1	2back/STIM_013.jpg
155.059	1.2	1	2back	Block1	2back/STIM_013.jpg
160.161	1.006	1	2back	Block1	2back/STIM_013.jpg
164.617	1.212	0	2back	Block1	2back/STIM_014.jpg
169.08	1.192	1	2back	Block1	2back/STIM_014.jpg
172.653	0.802	1	2back	Block1	2back/STIM_014.jpg
175.682	0.851	0	2back	Block1	2back/STIM_015.jpg
179.724	0.564	1	2back	Block1	2back/STIM_015.jpg
183.079	0.845	1	2back	Block1	2back/STIM_015.jpg
186.117	1.124	0	2back	Block1	2back/STIM_016.jpg
190.724	0.75	0	2back	Block1	2back/STIM_016.jpg
195.306	0.555	0	2back	Block1	2back/STIM_016.jpg
197.892	1.146	1	2back	Block1	2back/STIM_017.jpg
202.072	0.57	0	2back	Block1	2back/STIM_017.jpg
205.885	0.547	1	2back	Block1	2back/STIM_017.jpg
210.261	1.112	1	2back	Block1	2back/STIM_018.jpg
214.287	0.635	0	2back	Block1	2back/STIM_018.jpg
218.306	0.504	0	2back	Block1	2back/STIM_018.jpg
222.791	0.995	1	2back	Block1	2back/STIM_019.jpg
225.958	1.169	1	2back	Block1	2back/STIM_019.jpg
230.887	0.657	1	2back	Block1	2back/STIM_019.jpg
235.517	0.982	1	2back	Block1	2back/STIM_020.jpg
240.013	0.549	1	2back	Block1	2back/STIM_020.jpg
243.435	0.746	1	2back	Block1	2back/STIM_020.jpg
247.992	1.202	1	2back	Block1	2back/STIM_021.jpg
252.193	0.711	0	2back	Block1	2back/STIM_021.jpg
256.582	0.883	0	2back	Block1	2back/STIM_021.jpg
261.162	0.701	0	2back	Block1	2back/STIM_022.jpg
264.546	1.086	1	2back	Block1	2back/STIM_022.jpg
267.931	0.75	1	2back	Block1	2back/STIM_022.jpg
271.562	0.635	0	2back	Block1	2back/STIM_023.jpg
274.762	0.604	1	2back	Block1	2back/STIM_023.jpg
278.329	0.762	1	2back	Block1	2back/STIM_023.jpg
282.032	1.126	1	2back	Block1	2back/STIM_024.jpg
285.238	0.798	0	2back	Block1	2back/STIM_024.jpg
288.34	0.718	1	2back	Block1	2back/STIM_024.jpg
292.756	0.623	1	2back	Block1	2back/STIM_025.jpg
296.963	1.193	1	2back	Block1	2back/STIM_025.jpg
301.249	0.725	1	2back	Block1	2back/STIM_025.jpg
305.739	0.553	1	2back	Block1	2back/STIM_026.jpg
309.535	0.835	1	2back	Block1	2back/STIM_026.jpg
313.187	0.933	1	2back	Block1	2back/STIM_026.jpg
316.293	0.702	1	2back	Block1	2back/STIM_027.jpg
320.407	0.568	1	2back	Block1	2back/STIM_027.jpg
324.658	0.796	1	2back	Block1	2back/STIM_027.jpg
327.812	1.197	0	2back	Block1	2back/STIM_028.jpg
332.224	0.545	0	2back	Block1	2back/STIM_028.jpg
336.198	1.066	0	2back	Block1	2back/STIM_028.jpg
340.221	1.0	1	2back	Block1	2back/STIM_029.jpg
343.417	1.178	0	2back	Block1	2back/STIM_029.jpg
348.52	0.784	1	2back	Block1	2back/STIM_029.jpg
352.447	0.836	1	2back	Block1	2back/STIM_030.jpg
356.427	0.586	1	2back	Block1	2back/STIM_030.jpg
359.344	0.516	0	2back	Block1	2back/STIM_030.jpg
362.26	0.644	1	2back	Block1	2back/STIM_031.jpg
365.319	1.03	0	2back	Block1	2back/STIM_031.jpg
369.374	0.558	1	2back	Block1	2back/STIM_031.jpg
373.557	0.854	0	2back	Block1	2back/STIM_032.jpg
376.498	0.794	0	2back	Block1	2back/STIM_032.jpg
380.744	0.931	1	2back	Block1	2back/STIM_032.jpg
385.282	1.139	0	2back	Block1	2back/STIM_033.jpg
388.794	0.675	1	2back	Block1	2back/STIM_033.jpg
392.108	0.857	0	2back	Block1	2back/STIM_033.jpg
395.487	1.237	0	2back	Block1	2back/STIM_034.jpg
399.305	0.56	0	2back	Block1	2back/STIM_034.jpg
403.807	0.674	0	2back	Block1	2back/STIM_034.jpg
406.691	0.714	0	2back	Block1	2back/STIM_035.jpg
411.22	0.793	1	2back	Block1	2back/STIM_035.jpg
415.603	0.604	0	2back	Block1	2back/STIM_035.jpg
419.537	0.755	1	2back	Block1	2back/STIM_036.jpg
422.473	0.989	0	2back	Block1	2back/STIM_036.jpg
425.806	0.61	0	2back	Block1	2back/STIM_036.jpg
429.21	1.121	1	2back	Block1	2back/STIM_037.jpg
433.188	0.964	1	2back	Block1	2back/STIM_037.jpg
437.408	0.778	1	2back	Block1	2back/STIM_037.jpg
440.51	1.068	0	2back	Block1	2back/STIM_038.jpg
444.018	1.078	0	2back	Block1	2back/STIM_038.jpg
448.73	1.006	0	2back	Block1	2back/STIM_038.jpg
452.378	1.084	0	2back	Block1	2back/STIM_039.jpg
456.922	0.789	1	2back	Block1	2back/STIM_039.jpg
461.147	0.514	1	2back	Block1	2back/STIM_039.jpg
464.818	0.577	1	0back	Block1	0back/STIM_000.jpg
467.66	0.419	1	0back	Block1	0back/STIM_000.jpg
470.93	0.662	1	0back	Block1	0back/STIM_000.jpg
473.896	0.48	1	0back	Block1	0back/STIM_001.jpg
478.311	0.658	1	0back	Block1	0back/STIM_001.jpg
482.152	0.395	1	0back	Block1	0back/STIM_001.jpg
486.491	0.431	1	0back	Block1	0back/STIM_002.jpg
490.526	0.496	1	0back	Block1	0back/STIM_002.jpg
494.017	0.558	1	0back	Block1	0back/STIM_002.jpg
496.861	0.474	1	0back	Block1	0back/STIM_003.jpg
499.517	0.499	1	0back	Block1	0back/STIM_003.jpg
503.116	0.534	0	0back	Block1	0back/STIM_003.jpg
506.888	0.506	1	0back	Block1	0back/STIM_004.jpg
511.364	0.421	1	0back	Block1	0back/STIM_004.jpg
515.435	0.674	1	0back	Block1	0back/STIM_004.jpg
519.879	0.643	1	0back	Block1	0back/STIM_005.jpg
522.804	0.557	1	0back	Block1	0back/STIM_005.jpg
526.115	0.389	1	0back	Block1	0back/STIM_005.jpg
529.222	0.413	1	0back	Block1	0back/STIM_006.jpg
531.7	0.577	0	0back	Block1	0back/STIM_006.jpg
535.369	0.433	1	0back	Block1	0back/STIM_006.jpg
538.699	0.606	0	0back	Block1	0back/STIM_007.jpg
542.242	0.383	0	0back	Block1	0back/STIM_007.jpg
545.984	0.596	1	0back	Block1	0back/STIM_007.jpg
549.257	0.609	1	0back	Block1	0back/STIM_008.jpg
553.397	0.634	0	0back	Block1	0back/STIM_008.jpg
556.811	0.598	1	0back	Block1	0back/STIM_008.jpg
560.406	0.633	0	0back	Block1	0back/STIM_009.jpg
563.622	0.719	1	0back	Block1	0back/STIM_009.jpg
567.646	0.603	1	0back	Block1	0back/STIM_009.jpg
571.941	0.447	1	0back	Block1	0back/STIM_010.jpg
574.579	0.425	1	0back	Block1	0back/STIM_010.jpg
577.619	0.626	0	0back	Block1	0back/STIM_010.jpg
581.973	0.383	0	0back	Block1	0back/STIM_011.jpg
585.051	0.543	1	0back	Block1	0back/STIM_011.jpg
588.045	0.546	0	0back	Block1	0back/STIM_011.jpg
591.551	0.607	1	0back	Block1	0back/STIM_012.jpg
595.601	0.403	1	0back	Block1	0back/STIM_012.jpg
599.54	0.551	0	0back	Block1	0back/STIM_012.jpg
603.999	0.408	1	0back	Block1	0back/STIM_013.jpg
607.988	0.558	1	0back	Block1	0back/STIM_013.jpg
611.178	0.678	1	0back	Block1	0back/STIM_013.jpg
615.818	0.411	1	0back	Block1	0back/STIM_014.jpg
619.596	0.68	1	0back	Block1	0back/STIM_014.jpg
623.652	0.691	0	0back	Block1	0back/STIM_014.jpg
628.147	0.393	1	0back	Block1	0back/STIM_015.jpg
630.786	0.565	1	0back	Block1	0back/STIM_015.jpg
634.285	0.686	1	0back	Block1	0back/STIM_015.jpg
637.955	0.458	0	0back	Block1	0back/STIM_016.jpg
642.183	0.468	1	0back	Block1	0back/STIM_016.jpg
646.208	0.562	1	0back	Block1	0back/STIM_016.jpg
650.3	0.5	1	0back	Block1	0back/STIM_017.jpg
653.809	0.385	1	0back	Block1	0back/STIM_017.jpg
657.694	0.71	1	0back	Block1	0back/STIM_017.jpg
660.63	0.379	1	0back	Block1	0back/STIM_018.jpg
665.0	0.524	1	0back	Block1	0back/STIM_018.jpg
667.851	0.402	1	0back	Block1	0back/STIM_018.jpg
671.757	0.429	1	0back	Block1	0back/STIM_019.jpg
674.725	0.595	1	0back	Block1	0back/STIM_019.jpg
678.025	0.68	0	0back	Block1	0back/STIM_019.jpg
681.014	0.497	0	2back	Block2	2back/STIM_000.jpg
685.247	0.693	0	2back	Block2	2back/STIM_000.jpg
687.969	0.941	1	2back	Block2	2back/STIM_000.jpg
691.531	1.004	1	2back	Block2	2back/STIM_001.jpg
695.72	0.879	1	2back	Block2	2back/STIM_001.jpg
699.454	0.562	1	2back	Block2	2back/STIM_001.jpg
702.657	0.563	1	2back	Block2	2back/STIM_002.jpg
706.713	0.497	1	2back	Block2	2back/STIM_002.jpg
710.716	0.61	1	2back	Block2	2back/STIM_002.jpg
713.588	0.66	0	2back	Block2	2back/STIM_003.jpg
717.33	0.632	0	2back	Block2	2back/STIM_003.jpg
721.605	0.512	1	2back	Block2	2back/STIM_003.jpg
725.836	0.918	1	2back	Block2	2back/STIM_004.jpg
728.919	0.915	1	2back	Block2	2back/STIM_004.jpg
732.537	0.597	1	2back	Block2	2back/STIM_004.jpg
736.704	0.801	1	2back	Block2	2back/STIM_005.jpg
740.013	0.802	0	2back	Block2	2back/STIM_005.jpg
744.197	0.608	1	2back	Block2	2back/STIM_005.jpg
747.829	0.681	0	2back	Block2	2back/STIM_006.jpg
752.078	0.967	0	2back	Block2	2back/STIM_006.jpg
755.422	0.676	0	2back	Block2	2back/STIM_006.jpg
759.615	0.469	0	2back	Block2	2back/STIM_007.jpg
763.36	0.447	0	2back	Block2	2back/STIM_007.jpg
766.784	0.892	0	2back	Block2	2back/STIM_007.jpg
770.527	1.055	1	2back	Block2	2back/STIM_008.jpg
774.758	0.787	1	2back	Block2	2back/STIM_008.jpg
778.11	0.407	1	2back	Block2	2back/STIM_008.jpg
781.988	0.692	1	2back	Block2	2back/STIM_009.jpg
785.377	0.712	0	2back	Block2	2back/STIM_009.jpg
788.839	0.775	0	2back	Block2	2back/STIM_009.jpg
793.054	0.956	0	2back	Block2	2back/STIM_010.jpg
797.943	0.652	1	2back	Block2	2back/STIM_010.jpg
800.746	0.477	0	2back	Block2	2back/STIM_010.jpg
804.796	0.519	0	2back	Block2	2back/STIM_011.jpg
808.068	0.964	1	2back	Block2	2back/STIM_011.jpg
811.769	0.899	1	2back	Block2	2back/STIM_011.jpg
816.243	0.827	0	2back	Block2	2back/STIM_012.jpg
819.744	0.77	0	2back	Block2	2back/STIM_012.jpg
824.184	0.521	0	2back	Block2	2back/STIM_012.jpg
828.651	0.881	1	2back	Block2	2back/STIM_013.jpg
832.823	0.85	1	2back	Block2	2back/STIM_013.jpg
836.865	0.546	1	2back	Block2	2back/STIM_013.jpg
839.566	1.041	1	2back	Block2	2back/STIM_014.jpg
844.373	0.638	1	2back	Block2	2back/STIM_014.jpg
847.419	0.507	0	2back	Block2	2back/STIM_014.jpg
850.691	0.494	0	2back	Block2	2back/STIM_015.jpg
854.32	0.728	1	2back	Block2	2back/STIM_015.jpg
857.877	0.935	1	2back	Block2	2back/STIM_015.jpg
860.962	0.896	0	2back	Block2	2back/STIM_016.jpg
864.492	0.974	0	2back	Block2	2back/STIM_016.jpg
867.89	0.884	0	2back	Block2	2back/STIM_016.jpg
872.074	0.728	0	2back	Block2	2back/STIM_017.jpg
876.77	0.997	1	2back	Block2	2back/STIM_017.jpg
879.822	0.421	1	2back	Block2	2back/STIM_017.jpg
882.79	0.6	0	2back	Block2	2back/STIM_018.jpg
887.162	0.913	1	2back	Block2	2back/STIM_018.jpg
890.174	0.45	1	2back	Block2	2back/STIM_018.jpg
893.413	0.549	0	2back	Block2	2back/STIM_019.jpg
896.791	0.712	1	2back	Block2	2back/STIM_019.jpg
900.223	0.635	1	2back	Block2	2back/STIM_019.jpg
903.204	0.915	1	2back	Block2	2back/STIM_020.jpg
906.914	0.545	1	2back	Block2	2back/STIM_020.jpg
909.808	0.588	1	2back	Block2	2back/STIM_020.jpg
914.29	0.573	1	2back	Block2	2back/STIM_021.jpg
918.433	0.449	0	2back	Block2	2back/STIM_021.jpg
922.372	0.475	1	2back	Block2	2back/STIM_021.jpg
926.295	0.774	1	2back	Block2	2back/STIM_022.jpg
929.726	0.757	1	2back	Block2	2back/STIM_022.jpg
933.339	0.414	0	2back	Block2	2back/STIM_022.jpg
936.537	0.965	1	2back	Block2	2back/STIM_023.jpg
941.39	0.508	1	2back	Block2	2back/STIM_023.jpg
944.862	0.749	1	2back	Block2	2back/STIM_023.jpg
948.395	0.614	1	2back	Block2	2back/STIM_024.jpg
952.729	0.573	1	2back	Block2	2back/STIM_024.jpg
956.215	0.498	1	2back	Block2	2back/STIM_024.jpg
960.687	0.691	0	2back	Block2	2back/STIM_025.jpg
965.167	0.488	1	2back	Block2	2back/STIM_025.jpg
968.25	0.624	1	2back	Block2	2back/STIM_025.jpg
971.047	0.582	0	2back	Block2	2back/STIM_026.jpg
974.423	1.003	1	2back	Block2	2back/STIM_026.jpg
979.097	0.418	1	2back	Block2	2back/STIM_026.jpg
982.639	0.861	1	2back	Block2	2back/STIM_027.jpg
985.846	0.81	0	2back	Block2	2back/STIM_027.jpg
988.949	0.526	1	2back	Block2	2back/STIM_027.jpg
993.017	0.61	1	2back	Block2	2back/STIM_028.jpg
995.793	1.0	1	2back	Block2	2back/STIM_028.jpg
1000.653	0.529	0	2back	Block2	2back/STIM_028.jpg
1005.167	0.564	0	2back	Block2	2back/STIM_029.jpg
1008.666	0.448	1	2back	Block2	2back/STIM_029.jpg
1011.836	0.481	1	2back	Block2	2back/STIM_029.jpg
1015.282	0.996	0	2back	Block2	2back/STIM_030.jpg
1019.872	0.479	1	2back	Block2	2back/STIM_030.jpg
1023.715	0.781	1	2back	Block2	2back/STIM_030.jpg
1027.19	0.537	1	2back	Block2	2back/STIM_031.jpg
1030.101	0.494	1	2back	Block2	2back/STIM_031.jpg
1033.835	0.666	1	2back	Block2	2back/STIM_031.jpg
1038.179	0.735	1	2back	Block2	2back/STIM_032.jpg
1041.196	0.94	1	2back	Block2	2back/STIM_032.jpg
1044.158	0.65	0	2back	Block2	2back/STIM_032.jpg
1047.334	0.883	1	2back	Block2	2back/STIM_033.jpg
1050.302	0.579	1	2back	Block2	2back/STIM_033.jpg
1054.298	0.793	1	2back	Block2	2back/STIM_033.jpg
1057.389	0.862	0	2back	Block2	2back/STIM_034.jpg
1062.218	0.821	0	2back	Block2	2back/STIM_034.jpg
1065.661	0.67	1	2back	Block2	2back/STIM_034.jpg
1069.516	0.546	1	2back	Block2	2back/STIM_035.jpg
1073.999	0.935	1	2back	Block2	2back/STIM_035.jpg
1078.118	0.506	1	2back	Block2	2back/STIM_035.jpg
1081.736	0.551	1	2back	Block2	2back/STIM_036.jpg
1085.032	0.829	1	2back	Block2	2back/STIM_036.jpg
1089.148	0.65	1	2back	Block2	2back/STIM_036.jpg
1092.984	1.005	1	2back	Block2	2back/STIM_037.jpg
1097.837	0.977	1	2back	Block2	2back/STIM_037.jpg
1102.444	0.525	0	2back	Block2	2back/STIM_037.jpg
1106.617	0.787	1	2back	Block2	2back/STIM_038.jpg
1109.528	0.543	1	2back	Block2	2back/STIM_038.jpg
1112.994	0.783	1	2back	Block2	2back/STIM_038.jpg
1117.098	0.52	1	2back	Block2	2back/STIM_039.jpg
1119.754	0.475	0	2back	Block2	2back/STIM_039.jpg
1122.56	0.555	1	2back	Block2	2back/STIM_039.jpg
1126.193	0.565	0	0back	Block2	0back/STIM_000.jpg
1128.99	0.399	1	0back	Block2	0back/STIM_000.jpg
1132.937	0.655	1	0back	Block2	0back/STIM_000.jpg
1136.108	0.495	1	0back	Block2	0back/STIM_001.jpg
1138.83	0.713	1	0back	Block2	0back/STIM_001.jpg
1142.06	0.484	1	0back	Block2	0back/STIM_001.jpg
1146.353	0.631	1	0back	Block2	0back/STIM_002.jpg
1150.546	0.402	1	0back	Block2	0back/STIM_002.jpg
1153.131	0.419	0	0back	Block2	0back/STIM_002.jpg
1157.214	0.363	1	0back	Block2	0back/STIM_003.jpg
1161.467	0.549	1	0back	Block2	0back/STIM_003.jpg
1164.151	0.521	1	0back	Block2	0back/STIM_003.jpg
1168.575	0.596	0	0back	Block2	0back/STIM_004.jpg
1171.766	0.478	1	0back	Block2	0back/STIM_004.jpg
1175.503	0.446	1	0back	Block2	0back/STIM_004.jpg
1179.348	0.705	1	0back	Block2	0back/STIM_005.jpg
1183.195	0.668	0	0back	Block2	0back/STIM_005.jpg
1187.22	0.644	1	0back	Block2	0back/STIM_005.jpg
1190.931	0.664	1	0back	Block2	0back/STIM_006.jpg
1195.29	0.531	0	0back	Block2	0back/STIM_006.jpg
1198.25	0.707	0	0back	Block2	0back/STIM_006.jpg
1201.831	0.5	1	0back	Block2	0back/STIM_007.jpg
1205.438	0.652	1	0back	Block2	0back/STIM_007.jpg
1209.337	0.489	1	0back	Block2	0back/STIM_007.jpg
1212.162	0.544	0	0back	Block2	0back/STIM_008.jpg
1215.192	0.468	1	0back	Block2	0back/STIM_008.jpg
1218.98	0.683	1	0back	Block2	0back/STIM_008.jpg
1223.095	0.665	0	0back	Block2	0back/STIM_009.jpg
1226.297	0.614	0	0back	Block2	0back/STIM_009.jpg
1229.156	0.583	0	0back	Block2	0back/STIM_009.jpg
1233.248	0.546	1	0back	Block2	0back/STIM_010.jpg
1237.767	0.384	1	0back	Block2	0back/STIM_010.jpg
1240.758	0.621	1	0back	Block2	0back/STIM_010.jpg
1244.729	0.448	0	0back	Block2	0back/STIM_011.jpg
1247.939	0.409	1	0back	Block2	0back/STIM_011.jpg
1251.284	0.448	0	0back	Block2	0back/STIM_011.jpg
1255.122	0.43	0	0back	Block2	0back/STIM_012.jpg
1257.955	0.645	1	0back	Block2	0back/STIM_012.jpg
1261.726	0.598	1	0back	Block2	0back/STIM_012.jpg
1264.656	0.69	1	0back	Block2	0back/STIM_013.jpg
1267.498	0.594	1	0back	Block2	0back/STIM_013.jpg
1270.554	0.438	0	0back	Block2	0back/STIM_013.jpg
1274.216	0.577	0	0back	Block2	0back/STIM_014.jpg
1277.106	0.532	1	0back	Block2	0back/STIM_014.jpg
1281.188	0.366	0	0back	Block2	0back/STIM_014.jpg
1284.709	0.606	1	0back	Block2	0back/STIM_015.jpg
1287.923	0.624	1	0back	Block2	0back/STIM_015.jpg
1292.517	0.452	1	0back	Block2	0back/STIM_015.jpg
1295.388	0.512	1	0back	Block2	0back/STIM_016.jpg
1298.105	0.426	0	0back	Block2	0back/STIM_016.jpg
1302.127	0.426	1	0back	Block2	0back/STIM_016.jpg
1305.569	0.581	1	0back	Block2	0back/STIM_017.jpg
1309.68	0.614	1	0back	Block2	0back/STIM_017.jpg
1313.435	0.473	1	0back	Block2	0back/STIM_017.jpg
1316.779	0.655	1	0back	Block2	0back/STIM_018.jpg
1320.977	0.44	1	0back	Block2	0back/STIM_018.jpg
1325.048	0.442	1	0back	Block2	0back/STIM_018.jpg
1328.664	0.683	1	0back	Block2	0back/STIM_019.jpg
1332.98	0.553	0	0back	Block2	0back/STIM_019.jpg
1336.124	0.385	1	0back	Block2	0back/STIM_019.jpg
1338.911	0.861	1	2back	Block3	2back/STIM_000.jpg
1342.026	0.519	1	2back	Block3	2back/STIM_000.jpg
1345.399	0.882	1	2back	Block3	2back/STIM_000.jpg
1349.237	0.619	1	2back	Block3	2back/STIM_001.jpg
1353.852	0.457	1	2back	Block3	2back/STIM_001.jpg
1357.142	0.642	1	2back	Block3	2back/STIM_001.jpg
1361.178	0.591	1	2back	Block3	2back/STIM_002.jpg
1363.816	0.467	1	2back	Block3	2back/STIM_002.jpg
1368.085	0.873	1	2back	Block3	2back/STIM_002.jpg
1371.148	0.844	1	2back	Block3	2back/STIM_003.jpg
1374.055	0.623	1	2back	Block3	2back/STIM_003.jpg
1377.434	0.835	1	2back	Block3	2back/STIM_003.jpg
1380.331	0.518	0	2back	Block3	2back/STIM_004.jpg
1384.813	0.67	1	2back	Block3	2back/STIM_004.jpg
1388.563	0.53	1	2back	Block3	2back/STIM_004.jpg
1392.322	0.419	1	2back	Block3	2back/STIM_005.jpg
1395.597	0.46	1	2back	Block3	2back/STIM_005.jpg
1398.415	0.703	1	2back	Block3	2back/STIM_005.jpg
1402.348	0.854	0	2back	Block3	2back/STIM_006.jpg
1406.537	0.469	1	2back	Block3	2back/STIM_006.jpg
1410.674	0.753	1	2back	Block3	2back/STIM_006.jpg
1415.192	0.534	1	2back	Block3	2back/STIM_007.jpg
1419.662	0.428	1	2back	Block3	2back/STIM_007.jpg
1422.946	0.582	0	2back	Block3	2back/STIM_007.jpg
1425.795	0.756	1	2back	Block3	2back/STIM_008.jpg
1428.711	0.715	0	2back	Block3	2back/STIM_008.jpg
1432.154	0.413	1	2back	Block3	2back/STIM_008.jpg
1435.346	0.619	1	2back	Block3	2back/STIM_009.jpg
1439.432	0.595	1	2back	Block3	2back/STIM_009.jpg
1443.19	0.654	1	2back	Block3	2back/STIM_009.jpg
1447.778	0.78	1	2back	Block3	2back/STIM_010.jpg
1451.647	0.386	1	2back	Block3	2back/STIM_010.jpg
1455.727	0.528	1	2back	Block3	2back/STIM_010.jpg
1459.784	0.822	1	2back	Block3	2back/STIM_011.jpg
1463.804	0.416	0	2back	Block3	2back/STIM_011.jpg
1467.046	0.396	1	2back	Block3	2back/STIM_011.jpg
1470.079	0.496	1	2back	Block3	2back/STIM_012.jpg
1473.858	0.808	1	2back	Block3	2back/STIM_012.jpg
1478.118	0.436	1	2back	Block3	2back/STIM_012.jpg
1480.777	0.432	1	2back	Block3	2back/STIM_013.jpg
1483.448	0.647	1	2back	Block3	2back/STIM_013.jpg
1487.807	0.806	1	2back	Block3	2back/STIM_013.jpg
1492.34	0.433	0	2back	Block3	2back/STIM_014.jpg
1496.178	0.727	0	2back	Block3	2back/STIM_014.jpg
1500.291	0.384	1	2back	Block3	2back/STIM_014.jpg
1503.894	0.884	0	2back	Block3	2back/STIM_015.jpg
1507.717	0.494	0	2back	Block3	2back/STIM_015.jpg
1510.468	0.555	1	2back	Block3	2back/STIM_015.jpg
1513.664	0.633	1	2back	Block3	2back/STIM_016.jpg
1517.76	0.629	1	2back	Block3	2back/STIM_016.jpg
1521.941	0.619	1	2back	Block3	2back/STIM_016.jpg
1526.084	0.865	1	2back	Block3	2back/STIM_017.jpg
1530.011	0.555	1	2back	Block3	2back/STIM_017.jpg
1533.418	0.45	1	2back	Block3	2back/STIM_017.jpg
1537.61	0.576	0	2back	Block3	2back/STIM_018.jpg
1540.851	0.63	0	2back	Block3	2back/STIM_018.jpg
1545.062	0.51	1	2back	Block3	2back/STIM_018.jpg
1549.009	0.55	1	2back	Block3	2back/STIM_019.jpg
1552.881	0.55	0	2back	Block3	2back/STIM_019.jpg
1557.25	0.532	1	2back	Block3	2back/STIM_019.jpg
1561.231	0.515	0	2back	Block3	2back/STIM_020.jpg
1564.619	0.408	1	2back	Block3	2back/STIM_020.jpg
1568.841	0.456	1	2back	Block3	2back/STIM_020.jpg
1571.745	0.534	1	2back	Block3	2back/STIM_021.jpg
1574.544	0.437	1	2back	Block3	2back/STIM_021.jpg
1578.255	0.462	1	2back	Block3	2back/STIM_021.jpg
1582.685	0.533	0	2back	Block3	2back/STIM_022.jpg
1586.254	0.734	1	2back	Block3	2back/STIM_022.jpg
1589.758	0.763	1	2back	Block3	2back/STIM_022.jpg
1593.714	0.389	1	2back	Block3	2back/STIM_023.jpg
1597.576	0.748	1	2back	Block3	2back/STIM_023.jpg
1600.971	0.822	0	2back	Block3	2back/STIM_023.jpg
1604.125	0.56	1	2back	Block3	2back/STIM_024.jpg
1608.003	0.743	1	2back	Block3	2back/STIM_024.jpg
1611.635	0.802	0	2back	Block3	2back/STIM_024.jpg
1615.495	0.566	1	2back	Block3	2back/STIM_025.jpg
1618.344	0.55	1	2back	Block3	2back/STIM_025.jpg
1622.787	0.876	1	2back	Block3	2back/STIM_025.jpg
1627.257	0.601	1	2back	Block3	2back/STIM_026.jpg
1630.635	0.657	1	2back	Block3	2back/STIM_026.jpg
1634.33	0.855	1	2back	Block3	2back/STIM_026.jpg
1638.792	0.772	1	2back	Block3	2back/STIM_027.jpg
1642.378	0.828	1	2back	Block3	2back/STIM_027.jpg
1646.451	0.815	0	2back	Block3	2back/STIM_027.jpg
1651.169	0.859	1	2back	Block3	2back/STIM_028.jpg
1654.882	0.603	1	2back	Block3	2back/STIM_028.jpg
1657.803	0.713	1	2back	Block3	2back/STIM_028.jpg
1661.398	0.497	1	2back	Block3	2back/STIM_029.jpg
1665.039	0.762	0	2back	Block3	2back/STIM_029.jpg
1668.285	0.62	0	2back	Block3	2back/STIM_029.jpg
1671.495	0.719	1	2back	Block3	2back/STIM_030.jpg
1675.46	0.484	0	2back	Block3	2back/STIM_030.jpg
1678.696	0.666	1	2back	Block3	2back/STIM_030.jpg
1682.575	0.835	1	2back	Block3	2back/STIM_031.jpg
1686.008	0.518	1	2back	Block3	2back/STIM_031.jpg
1689.354	0.79	1	2back	Block3	2back/STIM_031.jpg
1693.094	0.545	1	2back	Block3	2back/STIM_032.jpg
1696.726	0.46	1	2back	Block3	2back/STIM_032.jpg
1699.922	0.432	1	2back	Block3	2back/STIM_032.jpg
1702.956	0.672	1	2back	Block3	2back/STIM_033.jpg
1705.706	0.657	1	2back	Block3	2back/STIM_033.jpg
1709.824	0.618	1	2back	Block3	2back/STIM_033.jpg
1713.518	0.604	1	2back	Block3	2back/STIM_034.jpg
1717.855	0.602	1	2back	Block3	2back/STIM_034.jpg
1721.211	0.566	1	2back	Block3	2back/STIM_034.jpg
1725.26	0.852	1	2back	Block3	2back/STIM_035.jpg
1728.799	0.87	1	2back	Block3	2back/STIM_035.jpg
1731.815	0.741	1	2back	Block3	2back/STIM_035.jpg
1735.161	0.487	1	2back	Block3	2back/STIM_036.jpg
1739.486	0.865	1	2back	Block3	2back/STIM_036.jpg
1742.804	0.542	1	2back	Block3	2back/STIM_036.jpg
1746.637	0.725	1	2back	Block3	2back/STIM_037.jpg
1750.653	0.633	0	2back	Block3	2back/STIM_037.jpg
1753.788	0.443	1	2back	Block3	2back/STIM_037.jpg
1757.172	0.736	1	2back	Block3	2back/STIM_038.jpg
1759.982	0.818	1	2back	Block3	2back/STIM_038.jpg
1764.142	0.653	0	2back	Block3	2back/STIM_038.jpg
1767.477	0.66	0	2back	Block3	2back/STIM_039.jpg
1770.694	0.83	0	2back	Block3	2back/STIM_039.jpg
1774.835	0.807	1	2back	Block3	2back/STIM_039.jpg
1779.407	0.54	1	0back	Block3	0back/STIM_000.jpg
1783.022	0.606	0	0back	Block3	0back/STIM_000.jpg
1786.165	0.699	1	0back	Block3	0back/STIM_000.jpg
1790.324	0.369	1	0back	Block3	0back/STIM_001.jpg
1794.455	0.493	1	0back	Block3	0back/STIM_001.jpg
1797.684	0.417	0	0back	Block3	0back/STIM_001.jpg
1800.902	0.645	0	0back	Block3	0back/STIM_002.jpg
1804.915	0.6	1	0back	Block3	0back/STIM_002.jpg
1808.962	0.379	1	0back	Block3	0back/STIM_002.jpg
1811.599	0.415	1	0back	Block3	0back/STIM_003.jpg
1814.946	0.543	1	0back	Block3	0back/STIM_003.jpg
1817.792	0.663	0	0back	Block3	0back/STIM_003.jpg
1821.526	0.399	1	0back	Block3	0back/STIM_004.jpg
1823.988	0.605	1	0back	Block3	0back/STIM_004.jpg
1826.812	0.713	1	0back	Block3	0back/STIM_004.jpg
1831.472	0.714	1	0back	Block3	0back/STIM_005.jpg
1834.419	0.48	0	0back	Block3	0back/STIM_005.jpg
1837.338	0.558	0	0back	Block3	0back/STIM_005.jpg
1841.271	0.682	0	0back	Block3	0back/STIM_006.jpg
1844.826	0.46	1	0back	Block3	0back/STIM_006.jpg
1848.63	0.7	1	0back	Block3	0back/STIM_006.jpg
1852.742	0.445	1	0back	Block3	0back/STIM_007.jpg
1856.436	0.428	0	0back	Block3	0back/STIM_007.jpg
1858.902	0.458	0	0back	Block3	0back/STIM_007.jpg
1862.167	0.471	1	0back	Block3	0back/STIM_008.jpg
1866.28	0.442	1	0back	Block3	0back/STIM_008.jpg
1869.979	0.413	1	0back	Block3	0back/STIM_008.jpg
1874.384	0.528	0	0back	Block3	0back/STIM_009.jpg
1877.8	0.476	1	0back	Block3	0back/STIM_009.jpg
1882.185	0.577	0	0back	Block3	0back/STIM_009.jpg
1885.584	0.378	1	0back	Block3	0back/STIM_010.jpg
1889.592	0.476	0	0back	Block3	0back/STIM_010.jpg
1893.812	0.569	0	0back	Block3	0back/STIM_010.jpg
1896.943	0.666	1	0back	Block3	0back/STIM_011.jpg
1900.747	0.69	0	0back	Block3	0back/STIM_011.jpg
1904.146	0.666	1	0back	Block3	0back/STIM_011.jpg
1908.368	0.598	1	0back	Block3	0back/STIM_012.jpg
1911.542	0.706	0	0back	Block3	0back/STIM_012.jpg
1916.239	0.505	1	0back	Block3	0back/STIM_012.jpg
1918.793	0.54	1	0back	Block3	0back/STIM_013.jpg
1921.345	0.68	1	0back	Block3	0back/STIM_013.jpg
1925.111	0.601	1	0back	Block3	0back/STIM_013.jpg
1929.588	0.395	1	0back	Block3	0back/STIM_014.jpg
1932.248	0.508	0	0back	Block3	0back/STIM_014.jpg
1935.742	0.66	1	0back	Block3	0back/STIM_014.jpg
1939.57	0.599	1	0back	Block3	0back/STIM_015.jpg
1942.797	0.415	1	0back	Block3	0back/STIM_015.jpg
1946.162	0.364	0	0back	Block3	0back/STIM_015.jpg
1949.62	0.469	1	0back	Block3	0back/STIM_016.jpg
1953.888	0.411	1	0back	Block3	0back/STIM_016.jpg
1956.906	0.697	1	0back	Block3	0back/STIM_016.jpg
1960.853	0.551	1	0back	Block3	0back/STIM_017.jpg
1964.334	0.55	0	0back	Block3	0back/STIM_017.jpg
1967.238	0.644	1	0back	Block3	0back/STIM_017.jpg
1970.088	0.395	1	0back	Block3	0back/STIM_018.jpg
1974.009	0.447	0	0back	Block3	0back/STIM_018.jpg
1977.309	0.606	1	0back	Block3	0back/STIM_018.jpg
1980.909	0.685	0	0back	Block3	0back/STIM_019.jpg
1984.765	0.716	1	0back	Block3	0back/STIM_019.jpg
1989.081	0.548	1	0back	Block3	0back/STIM_019.jpg
1992.396	0.508	1	2back	Block4	2back/STIM_000.jpg
1996.125	0.494	1	2back	Block4	2back/STIM_000.jpg
1999.441	0.856	1	2back	Block4	2back/STIM_000.jpg
2004.118	0.511	0	2back	Block4	2back/STIM_001.jpg
2007.647	0.673	1	2back	Block4	2back/STIM_001.jpg
2011.625	0.762	0	2back	Block4	2back/STIM_001.jpg
2015.186	0.443	1	2back	Block4	2back/STIM_002.jpg
2018.981	0.797	1	2back	Block4	2back/STIM_002.jpg
2023.06	0.549	1	2back	Block4	2back/STIM_002.jpg
2027.195	0.654	1	2back	Block4	2back/STIM_003.jpg
2029.951	0.657	0	2back	Block4	2back/STIM_003.jpg
2034.122	0.737	1	2back	Block4	2back/STIM_003.jpg
2037.798	0.591	1	2back	Block4	2back/STIM_004.jpg
2041.282	0.636	1	2back	Block4	2back/STIM_004.jpg
2044.098	0.728	0	2back	Block4	2back/STIM_004.jpg
2047.003	0.83	0	2back	Block4	2back/STIM_005.jpg
2050.556	0.77	1	2back	Block4	2back/STIM_005.jpg
2055.236	0.762	1	2back	Block4	2back/STIM_005.jpg
2058.801	0.679	1	2back	Block4	2back/STIM_006.jpg
2063.141	0.403	1	2back	Block4	2back/STIM_006.jpg
2066.031	0.873	1	2back	Block4	2back/STIM_006.jpg
2069.276	0.572	1	2back	Block4	2back/STIM_007.jpg
2072.527	0.485	0	2back	Block4	2back/STIM_007.jpg
2075.27	0.772	1	2back	Block4	2back/STIM_007.jpg
2079.909	0.836	1	2back	Block4	2back/STIM_008.jpg
2084.093	0.446	1	2back	Block4	2back/STIM_008.jpg
2087.259	0.661	0	2back	Block4	2back/STIM_008.jpg
2091.041	0.399	1	2back	Block4	2back/STIM_009.jpg
2094.225	0.435	1	2back	Block4	2back/STIM_009.jpg
2098.649	0.414	1	2back	Block4	2back/STIM_009.jpg
2102.537	0.487	1	2back	Block4	2back/STIM_010.jpg
2106.953	0.741	1	2back	Block4	2back/STIM_010.jpg
2111.629	0.776	1	2back	Block4	2back/STIM_010.jpg
2116.152	0.499	1	2back	Block4	2back/STIM_011.jpg
2120.31	0.786	1	2back	Block4	2back/STIM_011.jpg
2123.562	0.886	0	2back	Block4	2back/STIM_011.jpg
2127.767	0.637	1	2back	Block4	2back/STIM_012.jpg
2132.229	0.794	1	2back	Block4	2back/STIM_012.jpg
2135.973	0.837	1	2back	Block4	2back/STIM_012.jpg
2139.239	0.77	1	2back	Block4	2back/STIM_013.jpg
2142.919	0.496	1	2back	Block4	2back/STIM_013.jpg
2145.514	0.572	1	2back	Block4	2back/STIM_013.jpg
2148.883	0.622	1	2back	Block4	2back/STIM_014.jpg
2152.465	0.606	1	2back	Block4	2back/STIM_014.jpg
2155.571	0.846	1	2back	Block4	2back/STIM_014.jpg
2159.961	0.431	1	2back	Block4	2back/STIM_015.jpg
2162.81	0.485	1	2back	Block4	2back/STIM_015.jpg
2165.489	0.627	0	2back	Block4	2back/STIM_015.jpg
2169.493	0.491	1	2back	Block4	2back/STIM_016.jpg
2172.604	0.521	1	2back	Block4	2back/STIM_016.jpg
2175.189	0.519	1	2back	Block4	2back/STIM_016.jpg
2179.107	0.597	1	2back	Block4	2back/STIM_017.jpg
2182.308	0.831	1	2back	Block4	2back/STIM_017.jpg
2186.939	0.79	1	2back	Block4	2back/STIM_017.jpg
2190.972	0.422	1	2back	Block4	2back/STIM_018.jpg
2195.209	0.867	1	2back	Block4	2back/STIM_018.jpg
2199.489	0.874	1	2back	Block4	2back/STIM_018.jpg
2203.06	0.556	1	2back	Block4	2back/STIM_019.jpg
2206.502	0.634	1	2back	Block4	2back/STIM_019.jpg
2210.888	0.863	1	2back	Block4	2back/STIM_019.jpg
2214.498	0.568	1	2back	Block4	2back/STIM_020.jpg
2218.517	0.713	1	2back	Block4	2back/STIM_020.jpg
2221.833	0.618	0	2back	Block4	2back/STIM_020.jpg
2225.967	0.797	1	2back	Block4	2back/STIM_021.jpg
2230.402	0.602	1	2back	Block4	2back/STIM_021.jpg
2234.818	0.404	0	2back	Block4	2back/STIM_021.jpg
2238.542	0.587	1	2back	Block4	2back/STIM_022.jpg
2241.669	0.456	1	2back	Block4	2back/STIM_022.jpg
2245.901	0.78	0	2back	Block4	2back/STIM_022.jpg
2248.69	0.838	1	2back	Block4	2back/STIM_023.jpg
2253.161	0.448	1	2back	Block4	2back/STIM_023.jpg
2255.702	0.71	1	2back	Block4	2back/STIM_023.jpg
2258.726	0.616	1	2back	Block4	2back/STIM_024.jpg
2263.231	0.698	1	2back	Block4	2back/STIM_024.jpg
2267.479	0.502	1	2back	Block4	2back/STIM_024.jpg
2270.15	0.43	0	2back	Block4	2back/STIM_025.jpg
2272.651	0.516	1	2back	Block4	2back/STIM_025.jpg
2277.071	0.547	1	2back	Block4	2back/STIM_025.jpg
2279.949	0.637	1	2back	Block4	2back/STIM_026.jpg
2282.676	0.675	1	2back	Block4	2back/STIM_026.jpg
2286.529	0.416	1	2back	Block4	2back/STIM_026.jpg
2290.396	0.437	1	2back	Block4	2back/STIM_027.jpg
2293.919	0.576	1	2back	Block4	2back/STIM_027.jpg
2298.333	0.403	1	2back	Block4	2back/STIM_027.jpg
2301.32	0.736	1	2back	Block4	2back/STIM_028.jpg
2304.908	0.678	1	2back	Block4	2back/STIM_028.jpg
2309.179	0.382	1	2back	Block4	2back/STIM_028.jpg
2311.703	0.423	1	2back	Block4	2back/STIM_029.jpg
2314.721	0.721	0	2back	Block4	2back/STIM_029.jpg
2317.765	0.646	0	2back	Block4	2back/STIM_029.jpg
2321.321	0.641	1	2back	Block4	2back/STIM_030.jpg
2325.799	0.387	1	2back	Block4	2back/STIM_030.jpg
2329.295	0.526	1	2back	Block4	2back/STIM_030.jpg
2333.085	0.837	0	2back	Block4	2back/STIM_031.jpg
2337.573	0.416	1	2back	Block4	2back/STIM_031.jpg
2340.054	0.56	1	2back	Block4	2back/STIM_031.jpg
2344.179	0.758	1	2back	Block4	2back/STIM_032.jpg
2348.524	0.659	1	2back	Block4	2back/STIM_032.jpg
2352.593	0.49	1	2back	Block4	2back/STIM_032.jpg
2355.611	0.632	1	2back	Block4	2back/STIM_033.jpg
2358.432	0.762	1	2back	Block4	2back/STIM_033.jpg
2363.149	0.852	1	2back	Block4	2back/STIM_033.jpg
2366.848	0.806	1	2back	Block4	2back/STIM_034.jpg
2371.437	0.797	1	2back	Block4	2back/STIM_034.jpg
2374.659	0.48	1	2back	Block4	2back/STIM_034.jpg
2377.145	0.502	1	2back	Block4	2back/STIM_035.jpg
2380.953	0.808	1	2back	Block4	2back/STIM_035.jpg
2384.79	0.402	1	2back	Block4	2back/STIM_035.jpg
2388.856	0.476	1	2back	Block4	2back/STIM_036.jpg
2392.678	0.679	1	2back	Block4	2back/STIM_036.jpg
2397.289	0.649	1	2back	Block4	2back/STIM_036.jpg
2400.304	0.614	1	2back	Block4	2back/STIM_037.jpg
2404.363	0.637	1	2back	Block4	2back/STIM_037.jpg
2407.057	0.76	1	2back	Block4	2back/STIM_037.jpg
2410.583	0.73	1	2back	Block4	2back/STIM_038.jpg
2414.556	0.559	1	2back	Block4	2back/STIM_038.jpg
2417.338	0.613	1	2back	Block4	2back/STIM_038.jpg
2421.685	0.644	1	2back	Block4	2back/STIM_039.jpg
2425.065	0.436	1	2back	Block4	2back/STIM_039.jpg
2429.465	0.471	1	2back	Block4	2back/STIM_039.jpg
2432.773	0.52	1	0back	Block4	0back/STIM_000.jpg
2435.334	0.661	1	0back	Block4	0back/STIM_000.jpg
2439.43	0.536	1	0back	Block4	0back/STIM_000.jpg
2443.181	0.582	1	0back	Block4	0back/STIM_001.jpg
2445.98	0.517	0	0back	Block4	0back/STIM_001.jpg
2449.392	0.529	1	0back	Block4	0back/STIM_001.jpg
2453.435	0.484	0	0back	Block4	0back/STIM_002.jpg
2456.25	0.521	1	0back	Block4	0back/STIM_002.jpg
2460.279	0.677	1	0back	Block4	0back/STIM_002.jpg
2463.035	0.646	1	0back	Block4	0back/STIM_003.jpg
2467.104	0.65	1	0back	Block4	0back/STIM_003.jpg
2469.793	0.649	0	0back	Block4	0back/STIM_003.jpg
2473.34	0.484	1	0back	Block4	0back/STIM_004.jpg
2476.964	0.385	0	0back	Block4	0back/STIM_004.jpg
2481.065	0.45	1	0back	Block4	0back/STIM_004.jpg
2484.982	0.508	1	0back	Block4	0back/STIM_005.jpg
2488.177	0.407	1	0back	Block4	0back/STIM_005.jpg
2490.966	0.652	1	0back	Block4	0back/STIM_005.jpg
2493.956	0.477	1	0back	Block4	0back/STIM_006.jpg
2498.034	0.425	0	0back	Block4	0back/STIM_006.jpg
2501.61	0.596	1	0back	Block4	0back/STIM_006.jpg
2504.986	0.661	1	0back	Block4	0back/STIM_007.jpg
2507.727	0.408	1	0back	Block4	0back/STIM_007.jpg
2511.033	0.598	1	0back	Block4	0back/STIM_007.jpg
2514.399	0.497	1	0back	Block4	0back/STIM_008.jpg
2517.653	0.715	1	0back	Block4	0back/STIM_008.jpg
2522.328	0.377	1	0back	Block4	0back/STIM_008.jpg
2526.415	0.557	1	0back	Block4	0back/STIM_009.jpg
2530.38	0.639	1	0back	Block4	0back/STIM_009.jpg
2533.333	0.371	1	0back	Block4	0back/STIM_009.jpg
2536.03	0.702	1	0back	Block4	0back/STIM_010.jpg
2539.215	0.381	0	0back	Block4	0back/STIM_010.jpg
2543.344	0.393	1	0back	Block4	0back/STIM_010.jpg
2547.266	0.48	1	0back	Block4	0back/STIM_011.jpg
2551.611	0.46	1	0back	Block4	0back/STIM_011.jpg
2554.287	0.496	0	0back	Block4	0back/STIM_011.jpg
2558.149	0.544	1	0back	Block4	0back/STIM_012.jpg
2562.265	0.507	1	0back	Block4	0back/STIM_012.jpg
2565.676	0.413	0	0back	Block4	0back/STIM_012.jpg
2569.327	0.704	1	0back	Block4	0back/STIM_013.jpg
2573.815	0.697	1	0back	Block4	0back/STIM_013.jpg
2577.94	0.421	0	0back	Block4	0back/STIM_013.jpg
2581.213	0.4	1	0back	Block4	0back/STIM_014.jpg
2585.105	0.62	0	0back	Block4	0back/STIM_014.jpg
2589.262	0.385	1	0back	Block4	0back/STIM_014.jpg
2593.262	0.519	1	0back	Block4	0back/STIM_015.jpg
2597.77	0.425	1	0back	Block4	0back/STIM_015.jpg
2601.236	0.524	1	0back	Block4	0back/STIM_015.jpg
2604.665	0.421	0	0back	Block4	0back/STIM_016.jpg
2607.579	0.713	1	0back	Block4	0back/STIM_016.jpg
2610.673	0.706	0	0back	Block4	0back/STIM_016.jpg
2614.824	0.57	1	0back	Block4	0back/STIM_017.jpg
2618.625	0.431	1	0back	Block4	0back/STIM_017.jpg
2621.78	0.671	1	0back	Block4	0back/STIM_017.jpg
2624.524	0.407	0	0back	Block4	0back/STIM_018.jpg
2627.651	0.519	0	0back	Block4	0back/STIM_018.jpg
2632.086	0.428	1	0back	Block4	0back/STIM_018.jpg
2636.372	0.444	1	0back	Block4	0back/STIM_019.jpg
2640.222	0.392	1	0back	Block4	0back/STIM_019.jpg
2643.926	0.387	0	0back	Block4	0back/STIM_019.jpg
