onset	duration	response_time_ms	trial_type	learning_stage	stimulus	response_port
0.0	1.003	1003.0	2back	Block1	2back/STIM_000.jpg	100
4.015	0.543	542.9	2back	Block1	2back/STIM_000.jpg	99
7.904	1.13	1130.2	2back	Block1	2back/STIM_000.jpg	100
11.648	1.144	1143.6	2back	Block1	2back/STIM_001.jpg	100
16.148	0.532	531.5	2back	Block1	2back/STIM_001.jpg	100
20.139	0.793	792.6	2back	Block1	2back/STIM_001.jpg	99
24.301	0.792	792.4	2back	Block1	2back/STIM_002.jpg	100
29.033	0.718	717.5	2back	Block1	2back/STIM_002.jpg	100
32.671	0.66	660.1	2back	Block1	2back/STIM_002.jpg	99
36.216	0.973	973.0	2back	Block1	2back/STIM_003.jpg	99
39.962	0.789	789.4	2back	Block1	2back/STIM_003.jpg	99
44.405	0.71	709.6	2back	Block1	2back/STIM_003.jpg	100
48.105	1.166	1165.6	2back	Block1	2back/STIM_004.jpg	99
51.497	0.774	774.0	2back	Block1	2back/STIM_004.jpg	100
54.536	0.489	489.3	2back	Block1	2back/STIM_004.jpg	100
57.52	0.625	624.8	2back	Block1	2back/STIM_005.jpg	100
60.247	0.534	534.4	2back	Block1	2back/STIM_005.jpg	100
64.075	1.105	1105.1	2back	Block1	2back/STIM_005.jpg	100
69.164	0.886	885.7	2back	Block1	2back/STIM_006.jpg	99
73.104	0.902	902.3	2back	Block1	2back/STIM_006.jpg	100
76.985	1.049	1048.6	2back	Block1	2back/STIM_006.jpg	99
82.02	0.915	915.3	2back	Block1	2back/STIM_007.jpg	99
85.72	1.182	1182.4	2back	Block1	2back/STIM_007.jpg	99
89.721	0.843	842.8	2back	Block1	2back/STIM_007.jpg	99
93.268	1.021	1020.9	2back	Block1	2back/STIM_008.jpg	99
96.64	1.128	1127.7	2back	Block1	2back/STIM_008.jpg	100
99.976	0.597	597.3	2back	Block1	2back/STIM_008.jpg	100
103.489	1.126	1126.5	2back	Block1	2back/STIM_009.jpg	99
107.586	0.825	824.8	2back	Block1	2back/STIM_009.jpg	100
111.044	1.069	1069.4	2back	Block1	2back/STIM_009.jpg	100
114.483	0.83	829.5	2back	Block1	2back/STIM_010.jpg	99
119.262	0.997	996.8	2back	Block1	2back/STIM_010.jpg	99
123.364	0.532	531.7	2back	Block1	2back/STIM_010.jpg	100
126.455	0.982	981.9	2back	Block1	2back/STIM_011.jpg	99
129.788	1.185	1185.1	2back	Block1	2back/STIM_011.jpg	99
133.932	0.949	949.2	2back	Block1	2back/STIM_011.jpg	99
137.264	1.254	1254.0	2back	Block1	2back/STIM_012.jpg	99
141.73	1.185	1184.9	2back	Block1	2back/STIM_012.jpg	100
145.577	0.863	863.4	2back	Block1	2back/STIM_012.jpg	100
150.423	0.669	669.3	2back	Block1	2back/STIM_013.jpg	99
155.059	1.2	1200.2	2back	Block1	2back/STIM_013.jpg	99
160.161	1.006	1006.0	2back	Block1	2back/STIM_013.jpg	100
164.617	1.212	1212.0	2back	Block1	2back/STIM_014.jpg	99
169.08	1.192	1192.0	2back	Block1	2back/STIM_014.jpg	99
172.653	0.802	801.8	2back	Block1	2back/STIM_014.jpg	99
175.682	0.851	851.4	2back	Block1	2back/STIM_015.jpg	99
179.724	0.564	564.3	2back	Block1	2back/STIM_015.jpg	99
183.079	0.845	845.0	2back	Block1	2back/STIM_015.jpg	99
186.117	1.124	1124.1	2back	Block1	2back/STIM_016.jpg	100
190.724	0.75	749.6	2back	Block1	2back/STIM_016.jpg	99
195.306	0.555	555.3	2back	Block1	2back/STIM_016.jpg	99
197.892	1.146	1146.4	2back	Block1	2back/STIM_017.jpg	99
202.072	0.57	570.2	2back	Block1	2back/STIM_017.jpg	99
205.885	0.547	547.1	2back	Block1	2back/STIM_017.jpg	99
210.261	1.112	1111.7	2back	Block1	2back/STIM_018.jpg	99
214.287	0.635	635.0	2back	Block1	2back/STIM_018.jpg	99
218.306	0.504	504.1	2back	Block1	2back/STIM_018.jpg	99
222.791	0.995	995.3	2back	Block1	2back/STIM_019.jpg	100
225.958	1.169	1168.7	2back	Block1	2back/STIM_019.jpg	99
230.887	0.657	656.7	2back	Block1	2back/STIM_019.jpg	99
235.517	0.982	981.5	2back	Block1	2back/STIM_020.jpg	100
240.013	0.549	548.9	2back	Block1	2back/STIM_020.jpg	100
243.435	0.746	746.2	2back	Block1	2back/STIM_020.jpg	100
247.992	1.202	1201.7	2back	Block1	2back/STIM_021.jpg	99
252.193	0.711	710.6	2back	Block1	2back/STIM_021.jpg	100
256.582	0.883	883.0	2back	Block1	2back/STIM_021.jpg	100
261.162	0.701	701.3	2back	Block1	2back/STIM_022.jpg	100
264.546	1.086	1086.2	2back	Block1	2back/STIM_022.jpg	100
267.931	0.75	750.1	2back	Block1	2back/STIM_022.jpg	99
271.562	0.635	635.1	2back	Block1	2back/STIM_023.jpg	100
274.762	0.604	604.2	2back	Block1	2back/STIM_023.jpg	99
278.329	0.762	761.6	2back	Block1	2back/STIM_023.jpg	100
282.032	1.126	1125.7	2back	Block1	2back/STIM_024.jpg	100
285.238	0.798	797.5	2back	Block1	2back/STIM_024.jpg	100
288.34	0.718	718.1	2back	Block1	2back/STIM_024.jpg	99
292.756	0.623	623.2	2back	Block1	2back/STIM_025.jpg	99
296.963	1.193	1192.7	2back	Block1	2back/STIM_025.jpg	99
301.249	0.725	725.3	2back	Block1	2back/STIM_025.jpg	99
305.739	0.553	553.0	2back	Block1	2back/STIM_026.jpg	99
309.535	0.835	835.1	2back	Block1	2back/STIM_026.jpg	100
313.187	0.933	933.1	2back	Block1	2back/STIM_026.jpg	99
316.293	0.702	701.8	2back	Block1	2back/STIM_027.jpg	99
320.407	0.568	567.5	2back	Block1	2back/STIM_027.jpg	99
324.658	0.796	796.4	2back	Block1	2back/STIM_027.jpg	99
327.812	1.197	1197.4	2back	Block1	2back/STIM_028.jpg	99
332.224	0.545	544.8	2back	Block1	2back/STIM_028.jpg	100
336.198	1.066	1065.5	2back	Block1	2back/STIM_028.jpg	99
340.221	1.0	1000.0	2back	Block1	2back/STIM_029.jpg	100
343.417	1.178	1177.8	2back	Block1	2back/STIM_029.jpg	99
348.52	0.784	784.5	2back	Block1	2back/STIM_029.jpg	99
352.447	0.836	835.6	2back	Block1	2back/STIM_030.jpg	100
356.427	0.586	586.5	2back	Block1	2back/STIM_030.jpg	100
359.344	0.516	516.4	2back	Block1	2back/STIM_030.jpg	100
362.26	0.644	643.8	2back	Block1	2back/STIM_031.jpg	100
365.319	1.03	1030.0	2back	Block1	2back/STIM_031.jpg	100
369.374	0.558	558.0	2back	Block1	2back/STIM_031.jpg	100
373.557	0.854	853.8	2back	Block1	2back/STIM_032.jpg	99
376.498	0.794	793.8	2back	Block1	2back/STIM_032.jpg	100
380.744	0.931	931.2	2back	Block1	2back/STIM_032.jpg	100
385.282	1.139	1139.3	2back	Block1	2back/STIM_033.jpg	99
388.794	0.675	675.0	2back	Block1	2back/STIM_033.jpg	100
392.108	0.857	857.3	2back	Block1	2back/STIM_033.jpg	99
395.487	1.237	1237.3	2back	Block1	2back/STIM_034.jpg	99
399.305	0.56	560.5	2back	Block1	2back/STIM_034.jpg	99
403.807	0.674	673.6	2back	Block1	2back/STIM_034.jpg	100
406.691	0.714	714.4	2back	Block1	2back/STIM_035.jpg	100
411.22	0.793	793.1	2back	Block1	2back/STIM_035.jpg	99
415.603	0.604	604.3	2back	Block1	2back/STIM_035.jpg	100
419.537	0.755	755.1	2back	Block1	2back/STIM_036.jpg	100
422.473	0.989	989.1	2back	Block1	2back/STIM_036.jpg	99
425.806	0.61	609.7	2back	Block1	2back/STIM_036.jpg	100
429.21	1.121	1121.1	2back	Block1	2back/STIM_037.jpg	99
433.188	0.964	964.5	2back	Block1	2back/STIM_037.jpg	99
437.408	0.778	778.2	2back	Block1	2back/STIM_037.jpg	100
440.51	1.068	1067.7	2back	Block1	2back/STIM_038.jpg	100
444.018	1.078	1078.2	2back	Block1	2back/STIM_038.jpg	99
448.73	1.006	1005.5	2back	Block1	2back/STIM_038.jpg	100
452.378	1.084	1084.1	2back	Block1	2back/STIM_039.jpg	99
456.922	0.789	789.2	2back	Block1	2back/STIM_039.jpg	100
461.147	0.514	513.9	2back	Block1	2back/STIM_039.jpg	100
464.818	0.577	577.4	0back	Block1	0back/STIM_000.jpg	99
467.66	0.419	418.9	0back	Block1	0back/STIM_000.jpg	99
470.93	0.662	661.6	0back	Block1	0back/STIM_000.jpg	99
473.896	0.48	480.0	0back	Block1	0back/STIM_001.jpg	99
478.311	0.658	658.2	0back	Block1	0back/STIM_001.jpg	100
482.152	0.395	395.0	0back	Block1	0back/STIM_001.jpg	100
486.491	0.431	430.6	0back	Block1	0back/STIM_002.jpg	100
490.526	0.496	495.6	0back	Block1	0back/STIM_002.jpg	100
494.017	0.558	558.3	0back	Block1	0back/STIM_002.jpg	99
496.861	0.474	474.3	0back	Block1	0back/STIM_003.jpg	100
499.517	0.499	498.7	0back	Block1	0back/STIM_003.jpg	99
503.116	0.534	534.0	0back	Block1	0back/STIM_003.jpg	100
506.888	0.506	506.3	0back	Block1	0back/STIM_004.jpg	99
511.364	0.421	421.4	0back	Block1	0back/STIM_004.jpg	99
515.435	0.674	673.9	0back	Block1	0back/STIM_004.jpg	100
519.879	0.643	643.4	0back	Block1	0back/STIM_005.jpg	99
522.804	0.557	557.3	0back	Block1	0back/STIM_005.jpg	99
526.115	0.389	389.3	0back	Block1	0back/STIM_005.jpg	100
529.222	0.413	412.8	0back	Block1	0back/STIM_006.jpg	99
531.7	0.577	576.7	0back	Block1	0back/STIM_006.jpg	99
535.369	0.433	433.2	0back	Block1	0back/STIM_006.jpg	99
538.699	0.606	606.1	0back	Block1	0back/STIM_007.jpg	100
542.242	0.383	382.6	0back	Block1	0back/STIM_007.jpg	99
545.984	0.596	595.9	0back	Block1	0back/STIM_007.jpg	99
549.257	0.609	608.9	0back	Block1	0back/STIM_008.jpg	99
553.397	0.634	633.8	0back	Block1	0back/STIM_008.jpg	100
556.811	0.598	597.7	0back	Block1	0back/STIM_008.jpg	99
560.406	0.633	633.1	0back	Block1	0back/STIM_009.jpg	100
563.622	0.719	718.8	0back	Block1	0back/STIM_009.jpg	99
567.646	0.603	603.4	0back	Block1	0back/STIM_009.jpg	99
571.941	0.447	447.0	0back	Block1	0back/STIM_010.jpg	100
574.579	0.425	425.0	0back	Block1	0back/STIM_010.jpg	100
577.619	0.626	625.9	0back	Block1	0back/STIM_010.jpg	99
581.973	0.383	383.2	0back	Block1	0back/STIM_011.jpg	99
585.051	0.543	542.8	0back	Block1	0back/STIM_011.jpg	100
588.045	0.546	546.4	0back	Block1	0back/STIM_011.jpg	100
591.551	0.607	606.6	0back	Block1	0back/STIM_012.jpg	100
595.601	0.403	403.2	0back	Block1	0back/STIM_012.jpg	99
599.54	0.551	551.3	0back	Block1	0back/STIM_012.jpg	100
603.999	0.408	407.9	0back	Block1	0back/STIM_013.jpg	99
607.988	0.558	558.2	0back	Block1	0back/STIM_013.jpg	100
611.178	0.678	677.6	0back	Block1	0back/STIM_013.jpg	100
615.818	0.411	410.8	0back	Block1	0back/STIM_014.jpg	99
619.596	0.68	680.2	0back	Block1	0back/STIM_014.jpg	100
623.652	0.691	691.3	0back	Block1	0back/STIM_014.jpg	99
628.147	0.393	393.4	0back	Block1	0back/STIM_015.jpg	100
630.786	0.565	564.7	0back	Block1	0back/STIM_015.jpg	99
634.285	0.686	686.3	0back	Block1	0back/STIM_015.jpg	100
637.955	0.458	457.8	0back	Block1	0back/STIM_016.jpg	99
642.183	0.468	468.3	0back	Block1	0back/STIM_016.jpg	100
646.208	0.562	561.6	0back	Block1	0back/STIM_016.jpg	100
650.3	0.5	500.4	0back	Block1	0back/STIM_017.jpg	100
653.809	0.385	385.1	0back	Block1	0back/STIM_017.jpg	99
657.694	0.71	709.5	0back	Block1	0back/STIM_017.jpg	99
660.63	0.379	379.0	0back	Block1	0back/STIM_018.jpg	100
665.0	0.524	524.5	0back	Block1	0back/STIM_018.jpg	99
667.851	0.402	402.5	0back	Block1	0back/STIM_018.jpg	99
671.757	0.429	428.8	0back	Block1	0back/STIM_019.jpg	100
674.725	0.595	595.4	0back	Block1	0back/STIM_019.jpg	99
678.025	0.68	679.7	0back	Block1	0back/STIM_019.jpg	99
681.014	0.497	496.7	2back	Block2	2back/STIM_000.jpg	99
685.247	0.693	692.8	2back	Block2	2back/STIM_000.jpg	100
687.969	0.941	941.0	2back	Block2	2back/STIM_000.jpg	100
691.531	1.004	1004.5	2back	Block2	2back/STIM_001.jpg	99
695.72	0.879	879.0	2back	Block2	2back/STIM_001.jpg	99
699.454	0.562	562.2	2back	Block2	2back/STIM_001.jpg	99
702.657	0.563	563.4	2back	Block2	2back/STIM_002.jpg	100
706.713	0.497	497.1	2back	Block2	2back/STIM_002.jpg	100
710.716	0.61	609.7	2back	Block2	2back/STIM_002.jpg	100
713.588	0.66	660.0	2back	Block2	2back/STIM_003.jpg	99
717.33	0.632	631.5	2back	Block2	2back/STIM_003.jpg	99
721.605	0.512	512.2	2back	Block2	2back/STIM_003.jpg	99
725.836	0.918	918.0	2back	Block2	2back/STIM_004.jpg	100
728.919	0.915	915.3	2back	Block2	2back/STIM_004.jpg	99
732.537	0.597	597.4	2back	Block2	2back/STIM_004.jpg	99
736.704	0.801	800.6	2back	Block2	2back/STIM_005.jpg	100
740.013	0.802	802.1	2back	Block2	2back/STIM_005.jpg	100
744.197	0.608	607.9	2back	Block2	2back/STIM_005.jpg	100
747.829	0.681	681.4	2back	Block2	2back/STIM_006.jpg	99
752.078	0.967	967.4	2back	Block2	2back/STIM_006.jpg	99
755.422	0.676	676.5	2back	Block2	2back/STIM_006.jpg	100
759.615	0.469	468.6	2back	Block2	2back/STIM_007.jpg	100
763.36	0.447	446.7	2back	Block2	2back/STIM_007.jpg	100
766.784	0.892	891.5	2back	Block2	2back/STIM_007.jpg	100
770.527	1.055	1054.7	2back	Block2	2back/STIM_008.jpg	99
774.758	0.787	786.9	2back	Block2	2back/STIM_008.jpg	100
778.11	0.407	407.4	2back	Block2	2back/STIM_008.jpg	99
781.988	0.692	691.5	2back	Block2	2back/STIM_009.jpg	99
785.377	0.712	712.4	2back	Block2	2back/STIM_009.jpg	100
788.839	0.775	775.3	2back	Block2	2back/STIM_009.jpg	99
793.054	0.956	955.7	2back	Block2	2back/STIM_010.jpg	99
797.943	0.652	651.5	2back	Block2	2back/STIM_010.jpg	100
800.746	0.477	477.4	2back	Block2	2back/STIM_010.jpg	99
804.796	0.519	518.9	2back	Block2	2back/STIM_011.jpg	99
808.068	0.964	963.5	2back	Block2	2back/STIM_011.jpg	100
811.769	0.899	898.7	2back	Block2	2back/STIM_011.jpg	99
816.243	0.827	826.6	2back	Block2	2back/STIM_012.jpg	100
819.744	0.77	769.5	2back	Block2	2back/STIM_012.jpg	99
824.184	0.521	520.7	2back	Block2	2back/STIM_012.jpg	99
828.651	0.881	880.9	2back	Block2	2back/STIM_013.jpg	100
832.823	0.85	849.9	2back	Block2	2back/STIM_013.jpg	100
836.865	0.546	545.7	2back	Block2	2back/STIM_013.jpg	100
839.566	1.041	1040.6	2back	Block2	2back/STIM_014.jpg	99
844.373	0.638	638.0	2back	Block2	2back/STIM_014.jpg	100
847.419	0.507	507.1	2back	Block2	2back/STIM_014.jpg	99
850.691	0.494	494.4	2back	Block2	2back/STIM_015.jpg	99
854.32	0.728	728.2	2back	Block2	2back/STIM_015.jpg	100
857.877	0.935	934.7	2back	Block2	2back/STIM_015.jpg	99
860.962	0.896	895.9	2back	Block2	2back/STIM_016.jpg	99
864.492	0.974	974.5	2back	Block2	2back/STIM_016.jpg	100
867.89	0.884	884.2	2back	Block2	2back/STIM_016.jpg	99
872.074	0.728	727.5	2back	Block2	2back/STIM_017.jpg	100
876.77	0.997	997.2	2back	Block2	2back/STIM_017.jpg	99
879.822	0.421	421.0	2back	Block2	2back/STIM_017.jpg	99
882.79	0.6	600.3	2back	Block2	2back/STIM_018.jpg	99
887.162	0.913	913.4	2back	Block2	2back/STIM_018.jpg	99
890.174	0.45	450.4	2back	Block2	2back/STIM_018.jpg	100
893.413	0.549	548.6	2back	Block2	2back/STIM_019.jpg	99
896.791	0.712	712.3	2back	Block2	2back/STIM_019.jpg	99
900.223	0.635	635.1	2back	Block2	2back/STIM_019.jpg	99
903.204	0.915	915.0	2back	Block2	2back/STIM_020.jpg	99
906.914	0.545	544.9	2back	Block2	2back/STIM_020.jpg	100
909.808	0.588	588.0	2back	Block2	2back/STIM_020.jpg	100
914.29	0.573	573.2	2back	Block2	2back/STIM_021.jpg	100
918.433	0.449	449.0	2back	Block2	2back/STIM_021.jpg	99
922.372	0.475	475.0	2back	Block2	2back/STIM_021.jpg	99
926.295	0.774	774.0	2back	Block2	2back/STIM_022.jpg	100
929.726	0.757	756.6	2back	Block2	2back/STIM_022.jpg	99
933.339	0.414	414.1	2back	Block2	2back/STIM_022.jpg	100
936.537	0.965	965.2	2back	Block2	2back/STIM_023.jpg	99
941.39	0.508	508.2	2back	Block2	2back/STIM_023.jpg	99
944.862	0.749	748.6	2back	Block2	2back/STIM_023.jpg	99
948.395	0.614	613.9	2back	Block2	2back/STIM_024.jpg	99
952.729	0.573	573.2	2back	Block2	2back/STIM_024.jpg	99
956.215	0.498	497.5	2back	Block2	2back/STIM_024.jpg	100
960.687	0.691	690.7	2back	Block2	2back/STIM_025.jpg	100
965.167	0.488	487.7	2back	Block2	2back/STIM_025.jpg	100
968.25	0.624	623.9	2back	Block2	2back/STIM_025.jpg	100
971.047	0.582	582.2	2back	Block2	2back/STIM_026.jpg	99
974.423	1.003	1002.9	2back	Block2	2back/STIM_026.jpg	99
979.097	0.418	418.3	2back	Block2	2back/STIM_026.jpg	99
982.639	0.861	860.6	2back	Block2	2back/STIM_027.jpg	99
985.846	0.81	809.8	2back	Block2	2back/STIM_027.jpg	99
988.949	0.526	525.6	2back	Block2	2back/STIM_027.jpg	100
993.017	0.61	609.8	2back	Block2	2back/STIM_028.jpg	99
995.793	1.0	1000.4	2back	Block2	2back/STIM_028.jpg	100
1000.653	0.529	528.6	2back	Block2	2back/STIM_028.jpg	100
1005.167	0.564	563.8	2back	Block2	2back/STIM_029.jpg	99
1008.666	0.448	448.0	2back	Block2	2back/STIM_029.jpg	99
1011.836	0.481	480.8	2back	Block2	2back/STIM_029.jpg	100
1015.282	0.996	995.7	2back	Block2	2back/STIM_030.jpg	100
1019.872	0.479	479.4	2back	Block2	2back/STIM_030.jpg	99
1023.715	0.781	780.7	2back	Block2	2back/STIM_030.jpg	99
1027.19	0.537	537.4	2back	Block2	2back/STIM_031.jpg	99
1030.101	0.494	494.2	2back	Block2	2back/STIM_031.jpg	100
1033.835	0.666	665.7	2back	Block2	2back/STIM_031.jpg	99
1038.179	0.735	735.3	2back	Block2	2back/STIM_032.jpg	100
1041.196	0.94	939.8	2back	Block2	2back/STIM_032.jpg	100
1044.158	0.65	649.5	2back	Block2	2back/STIM_032.jpg	100
1047.334	0.883	882.8	2back	Block2	2back/STIM_033.jpg	100
1050.302	0.579	578.6	2back	Block2	2back/STIM_033.jpg	99
1054.298	0.793	793.4	2back	Block2	2back/STIM_033.jpg	100
1057.389	0.862	862.2	2back	Block2	2back/STIM_034.jpg	99
1062.218	0.821	821.0	2back	Block2	2back/STIM_034.jpg	99
1065.661	0.67	669.6	2back	Block2	2back/STIM_034.jpg	99
1069.516	0.546	545.5	2back	Block2	2back/STIM_035.jpg	100
1073.999	0.935	934.7	2back	Block2	2back/STIM_035.jpg	100
1078.118	0.506	505.9	2back	Block2	2back/STIM_035.jpg	100
1081.736	0.551	550.6	2back	Block2	2back/STIM_036.jpg	100
1085.032	0.829	829.1	2back	Block2	2back/STIM_036.jpg	100
1089.148	0.65	650.5	2back	Block2	2back/STIM_036.jpg	99
1092.984	1.005	1005.3	2back	Block2	2back/STIM_037.jpg	100
1097.837	0.977	976.7	2back	Block2	2back/STIM_037.jpg	100
1102.444	0.525	524.7	2back	Block2	2back/STIM_037.jpg	100
1106.617	0.787	786.6	2back	Block2	2back/STIM_038.jpg	100
1109.528	0.543	543.4	2back	Block2	2back/STIM_038.jpg	100
1112.994	0.783	782.6	2back	Block2	2back/STIM_038.jpg	100
1117.098	0.52	520.0	2back	Block2	2back/STIM_039.jpg	99
1119.754	0.475	475.0	2back	Block2	2back/STIM_039.jpg	100
1122.56	0.555	554.6	2back	Block2	2back/STIM_039.jpg	99
1126.193	0.565	564.7	0back	Block2	0back/STIM_000.jpg	99
1128.99	0.399	398.9	0back	Block2	0back/STIM_000.jpg	99
1132.937	0.655	654.8	0back	Block2	0back/STIM_000.jpg	99
1136.108	0.495	495.4	0back	Block2	0back/STIM_001.jpg	100
1138.83	0.713	713.1	0back	Block2	0back/STIM_001.jpg	99
1142.06	0.484	484.0	0back	Block2	0back/STIM_001.jpg	99
1146.353	0.631	631.0	0back	Block2	0back/STIM_002.jpg	99
1150.546	0.402	401.6	0back	Block2	0back/STIM_002.jpg	100
1153.131	0.419	418.6	0back	Block2	0back/STIM_002.jpg	99
1157.214	0.363	363.1	0back	Block2	0back/STIM_003.jpg	100
1161.467	0.549	548.7	0back	Block2	0back/STIM_003.jpg	100
1164.151	0.521	520.6	0back	Block2	0back/STIM_003.jpg	100
1168.575	0.596	596.5	0back	Block2	0back/STIM_004.jpg	100
1171.766	0.478	477.7	0back	Block2	0back/STIM_004.jpg	99
1175.503	0.446	446.1	0back	Block2	0back/STIM_004.jpg	100
1179.348	0.705	705.3	0back	Block2	0back/STIM_005.jpg	99
1183.195	0.668	667.6	0back	Block2	0back/STIM_005.jpg	99
1187.22	0.644	643.9	0back	Block2	0back/STIM_005.jpg	100
1190.931	0.664	664.2	0back	Block2	0back/STIM_006.jpg	100
1195.29	0.531	530.7	0back	Block2	0back/STIM_006.jpg	100
1198.25	0.707	706.6	0back	Block2	0back/STIM_006.jpg	99
1201.831	0.5	499.9	0back	Block2	0back/STIM_007.jpg	99
1205.438	0.652	652.5	0back	Block2	0back/STIM_007.jpg	99
1209.337	0.489	489.1	0back	Block2	0back/STIM_007.jpg	100
1212.162	0.544	543.7	0back	Block2	0back/STIM_008.jpg	100
1215.192	0.468	467.5	0back	Block2	0back/STIM_008.jpg	99
1218.98	0.683	683.4	0back	Block2	0back/STIM_008.jpg	100
1223.095	0.665	665.3	0back	Block2	0back/STIM_009.jpg	99
1226.297	0.614	613.6	0back	Block2	0back/STIM_009.jpg	99
1229.156	0.583	583.4	0back	Block2	0back/STIM_009.jpg	100
1233.248	0.546	545.9	0back	Block2	0back/STIM_010.jpg	100
1237.767	0.384	384.4	0back	Block2	0back/STIM_010.jpg	99
1240.758	0.621	621.2	0back	Block2	0back/STIM_010.jpg	99
1244.729	0.448	448.4	0back	Block2	0back/STIM_011.jpg	100
1247.939	0.409	408.6	0back	Block2	0back/STIM_011.jpg	99
1251.284	0.448	448.4	0back	Block2	0back/STIM_011.jpg	100
1255.122	0.43	430.0	0back	Block2	0back/STIM_012.jpg	100
1257.955	0.645	645.1	0back	Block2	0back/STIM_012.jpg	99
1261.726	0.598	597.7	0back	Block2	0back/STIM_012.jpg	99
1264.656	0.69	690.4	0back	Block2	0back/STIM_013.jpg	99
1267.498	0.594	594.0	0back	Block2	0back/STIM_013.jpg	99
1270.554	0.438	438.5	0back	Block2	0back/STIM_013.jpg	100
1274.216	0.577	576.9	0back	Block2	0back/STIM_014.jpg	100
1277.106	0.532	532.2	0back	Block2	0back/STIM_014.jpg	99
1281.188	0.366	365.9	0back	Block2	0back/STIM_014.jpg	100
1284.709	0.606	605.8	0back	Block2	0back/STIM_015.jpg	99
1287.923	0.624	623.7	0back	Block2	0back/STIM_015.jpg	100
1292.517	0.452	451.5	0back	Block2	0back/STIM_015.jpg	99
1295.388	0.512	512.4	0back	Block2	0back/STIM_016.jpg	100
1298.105	0.426	426.3	0back	Block2	0back/STIM_016.jpg	100
1302.127	0.426	425.9	0back	Block2	0back/STIM_016.jpg	100
1305.569	0.581	580.8	0back	Block2	0back/STIM_017.jpg	99
1309.68	0.614	614.0	0back	Block2	0back/STIM_017.jpg	100
1313.435	0.473	473.3	0back	Block2	0back/STIM_017.jpg	100
1316.779	0.655	655.2	0back	Block2	0back/STIM_018.jpg	100
1320.977	0.44	440.1	0back	Block2	0back/STIM_018.jpg	100
1325.048	0.442	442.3	0back	Block2	0back/STIM_018.jpg	100
1328.664	0.683	683.4	0back	Block2	0back/STIM_019.jpg	99
1332.98	0.553	553.0	0back	Block2	0back/STIM_019.jpg	99
1336.124	0.385	384.7	0back	Block2	0back/STIM_019.jpg	99
1338.911	0.861	860.9	2back	Block3	2back/STIM_000.jpg	99
1342.026	0.519	518.6	2back	Block3	2back/STIM_000.jpg	99
1345.399	0.882	881.5	2back	Block3	2back/STIM_000.jpg	100
1349.237	0.619	619.2	2back	Block3	2back/STIM_001.jpg	100
1353.852	0.457	457.4	2back	Block3	2back/STIM_001.jpg	100
1357.142	0.642	642.3	2back	Block3	2back/STIM_001.jpg	100
1361.178	0.591	590.8	2back	Block3	2back/STIM_002.jpg	100
1363.816	0.467	466.7	2back	Block3	2back/STIM_002.jpg	100
1368.085	0.873	872.9	2back	Block3	2back/STIM_002.jpg	100
1371.148	0.844	844.5	2back	Block3	2back/STIM_003.jpg	99
1374.055	0.623	623.1	2back	Block3	2back/STIM_003.jpg	99
1377.434	0.835	835.0	2back	Block3	2back/STIM_003.jpg	100
1380.331	0.518	518.5	2back	Block3	2back/STIM_004.jpg	99
1384.813	0.67	670.5	2back	Block3	2back/STIM_004.jpg	99
1388.563	0.53	530.1	2back	Block3	2back/STIM_004.jpg	100
1392.322	0.419	419.2	2back	Block3	2back/STIM_005.jpg	99
1395.597	0.46	460.0	2back	Block3	2back/STIM_005.jpg	99
1398.415	0.703	702.8	2back	Block3	2back/STIM_005.jpg	100
1402.348	0.854	853.8	2back	Block3	2back/STIM_006.jpg	99
1406.537	0.469	468.8	2back	Block3	2back/STIM_006.jpg	100
1410.674	0.753	753.1	2back	Block3	2back/STIM_006.jpg	99
1415.192	0.534	533.9	2back	Block3	2back/STIM_007.jpg	99
1419.662	0.428	427.6	2back	Block3	2back/STIM_007.jpg	100
1422.946	0.582	582.5	2back	Block3	2back/STIM_007.jpg	99
1425.795	0.756	755.9	2back	Block3	2back/STIM_008.jpg	100
1428.711	0.715	714.7	2back	Block3	2back/STIM_008.jpg	99
1432.154	0.413	413.0	2back	Block3	2back/STIM_008.jpg	100
1435.346	0.619	618.8	2back	Block3	2back/STIM_009.jpg	99
1439.432	0.595	595.4	2back	Block3	2back/STIM_009.jpg	99
1443.19	0.654	653.8	2back	Block3	2back/STIM_009.jpg	99
1447.778	0.78	779.5	2back	Block3	2back/STIM_010.jpg	99
1451.647	0.386	386.0	2back	Block3	2back/STIM_010.jpg	100
1455.727	0.528	528.5	2back	Block3	2back/STIM_010.jpg	100
1459.784	0.822	822.2	2back	Block3	2back/STIM_011.jpg	100
1463.804	0.416	415.7	2back	Block3	2back/STIM_011.jpg	100
1467.046	0.396	396.4	2back	Block3	2back/STIM_011.jpg	100
1470.079	0.496	496.0	2back	Block3	2back/STIM_012.jpg	100
1473.858	0.808	808.3	2back	Block3	2back/STIM_012.jpg	100
1478.118	0.436	436.4	2back	Block3	2back/STIM_012.jpg	100
1480.777	0.432	432.1	2back	Block3	2back/STIM_013.jpg	100
1483.448	0.647	647.2	2back	Block3	2back/STIM_013.jpg	99
1487.807	0.806	806.1	2back	Block3	2back/STIM_013.jpg	99
1492.34	0.433	432.8	2back	Block3	2back/STIM_014.jpg	99
1496.178	0.727	726.8	2back	Block3	2back/STIM_014.jpg	99
1500.291	0.384	383.7	2back	Block3	2back/STIM_014.jpg	99
1503.894	0.884	884.5	2back	Block3	2back/STIM_015.jpg	99
1507.717	0.494	493.7	2back	Block3	2back/STIM_015.jpg	99
1510.468	0.555	555.0	2back	Block3	2back/STIM_015.jpg	100
1513.664	0.633	633.3	2back	Block3	2back/STIM_016.jpg	100
1517.76	0.629	629.1	2back	Block3	2back/STIM_016.jpg	100
1521.941	0.619	619.0	2back	Block3	2back/STIM_016.jpg	100
1526.084	0.865	865.4	2back	Block3	2back/STIM_017.jpg	99
1530.011	0.555	554.9	2back	Block3	2back/STIM_017.jpg	100
1533.418	0.45	449.7	2back	Block3	2back/STIM_017.jpg	100
1537.61	0.576	576.3	2back	Block3	2back/STIM_018.jpg	99
1540.851	0.63	630.1	2back	Block3	2back/STIM_018.jpg	100
1545.062	0.51	509.8	2back	Block3	2back/STIM_018.jpg	99
1549.009	0.55	550.3	2back	Block3	2back/STIM_019.jpg	99
1552.881	0.55	550.1	2back	Block3	2back/STIM_019.jpg	100
1557.25	0.532	532.3	2back	Block3	2back/STIM_019.jpg	99
1561.231	0.515	514.9	2back	Block3	2back/STIM_020.jpg	99
1564.619	0.408	407.6	2back	Block3	2back/STIM_020.jpg	99
1568.841	0.456	455.8	2back	Block3	2back/STIM_020.jpg	100
1571.745	0.534	534.2	2back	Block3	2back/STIM_021.jpg	99
1574.544	0.437	437.2	2back	Block3	2back/STIM_021.jpg	99
1578.255	0.462	462.3	2back	Block3	2back/STIM_021.jpg	100
1582.685	0.533	533.0	2back	Block3	2back/STIM_022.jpg	99
1586.254	0.734	733.9	2back	Block3	2back/STIM_022.jpg	100
1589.758	0.763	763.3	2back	Block3	2back/STIM_022.jpg	99
1593.714	0.389	389.1	2back	Block3	2back/STIM_023.jpg	99
1597.576	0.748	747.9	2back	Block3	2back/STIM_023.jpg	100
1600.971	0.822	821.7	2back	Block3	2back/STIM_023.jpg	100
1604.125	0.56	559.7	2back	Block3	2back/STIM_024.jpg	99
1608.003	0.743	742.8	2back	Block3	2back/STIM_024.jpg	99
1611.635	0.802	802.1	2back	Block3	2back/STIM_024.jpg	99
1615.495	0.566	566.3	2back	Block3	2back/STIM_025.jpg	99
1618.344	0.55	550.4	2back	Block3	2back/STIM_025.jpg	99
1622.787	0.876	875.9	2back	Block3	2back/STIM_025.jpg	99
1627.257	0.601	600.9	2back	Block3	2back/STIM_026.jpg	100
1630.635	0.657	657.0	2back	Block3	2back/STIM_026.jpg	99
1634.33	0.855	855.0	2back	Block3	2back/STIM_026.jpg	100
1638.792	0.772	772.2	2back	Block3	2back/STIM_027.jpg	100
1642.378	0.828	828.3	2back	Block3	2back/STIM_027.jpg	99
1646.451	0.815	814.7	2back	Block3	2back/STIM_027.jpg	99
1651.169	0.859	858.8	2back	Block3	2back/STIM_028.jpg	99
1654.882	0.603	602.8	2back	Block3	2back/STIM_028.jpg	100
1657.803	0.713	713.2	2back	Block3	2back/STIM_028.jpg	99
1661.398	0.497	497.4	2back	Block3	2back/STIM_029.jpg	99
1665.039	0.762	761.8	2back	Block3	2back/STIM_029.jpg	99
1668.285	0.62	620.3	2back	Block3	2back/STIM_029.jpg	99
1671.495	0.719	718.9	2back	Block3	2back/STIM_030.jpg	99
1675.46	0.484	484.2	2back	Block3	2back/STIM_030.jpg	100
1678.696	0.666	665.6	2back	Block3	2back/STIM_030.jpg	99
1682.575	0.835	835.1	2back	Block3	2back/STIM_031.jpg	99
1686.008	0.518	518.4	2back	Block3	2back/STIM_031.jpg	99
1689.354	0.79	790.1	2back	Block3	2back/STIM_031.jpg	100
1693.094	0.545	544.7	2back	Block3	2back/STIM_032.jpg	100
1696.726	0.46	460.3	2back	Block3	2back/STIM_032.jpg	100
1699.922	0.432	431.7	2back	Block3	2back/STIM_032.jpg	100
1702.956	0.672	671.8	2back	Block3	2back/STIM_033.jpg	100
1705.706	0.657	656.7	2back	Block3	2back/STIM_033.jpg	100
1709.824	0.618	617.8	2back	Block3	2back/STIM_033.jpg	100
1713.518	0.604	604.4	2back	Block3	2back/STIM_034.jpg	99
1717.855	0.602	602.0	2back	Block3	2back/STIM_034.jpg	100
1721.211	0.566	566.0	2back	Block3	2back/STIM_034.jpg	99
1725.26	0.852	851.9	2back	Block3	2back/STIM_035.jpg	99
1728.799	0.87	869.5	2back	Block3	2back/STIM_035.jpg	100
1731.815	0.741	741.0	2back	Block3	2back/STIM_035.jpg	99
1735.161	0.487	487.3	2back	Block3	2back/STIM_036.jpg	100
1739.486	0.865	865.1	2back	Block3	2back/STIM_036.jpg	99
1742.804	0.542	542.4	2back	Block3	2back/STIM_036.jpg	99
1746.637	0.725	725.2	2back	Block3	2back/STIM_037.jpg	100
1750.653	0.633	633.1	2back	Block3	2back/STIM_037.jpg	99
1753.788	0.443	443.0	2back	Block3	2back/STIM_037.jpg	99
1757.172	0.736	736.4	2back	Block3	2back/STIM_038.jpg	100
1759.982	0.818	818.2	2back	Block3	2back/STIM_038.jpg	100
1764.142	0.653	652.8	2back	Block3	2back/STIM_038.jpg	100
1767.477	0.66	659.9	2back	Block3	2back/STIM_039.jpg	99
1770.694	0.83	829.9	2back	Block3	2back/STIM_039.jpg	100
1774.835	0.807	806.7	2back	Block3	2back/STIM_039.jpg	99
1779.407	0.54	540.4	0back	Block3	0back/STIM_000.jpg	100
1783.022	0.606	606.1	0back	Block3	0back/STIM_000.jpg	99
1786.165	0.699	698.7	0back	Block3	0back/STIM_000.jpg	99
1790.324	0.369	368.6	0back	Block3	0back/STIM_001.jpg	99
1794.455	0.493	493.3	0back	Block3	0back/STIM_001.jpg	100
1797.684	0.417	417.3	0back	Block3	0back/STIM_001.jpg	100
1800.902	0.645	644.8	0back	Block3	0back/STIM_002.jpg	99
1804.915	0.6	599.7	0back	Block3	0back/STIM_002.jpg	100
1808.962	0.379	379.4	0back	Block3	0back/STIM_002.jpg	99
1811.599	0.415	415.2	0back	Block3	0back/STIM_003.jpg	100
1814.946	0.543	543.2	0back	Block3	0back/STIM_003.jpg	100
1817.792	0.663	662.6	0back	Block3	0back/STIM_003.jpg	100
1821.526	0.399	398.8	0back	Block3	0back/STIM_004.jpg	99
1823.988	0.605	604.7	0back	Block3	0back/STIM_004.jpg	100
1826.812	0.713	712.8	0back	Block3	0back/STIM_004.jpg	99
1831.472	0.714	713.8	0back	Block3	0back/STIM_005.jpg	99
1834.419	0.48	480.1	0back	Block3	0back/STIM_005.jpg	99
1837.338	0.558	557.8	0back	Block3	0back/STIM_005.jpg	99
1841.271	0.682	681.9	0back	Block3	0back/STIM_006.jpg	99
1844.826	0.46	460.1	0back	Block3	0back/STIM_006.jpg	99
1848.63	0.7	700.1	0back	Block3	0back/STIM_006.jpg	99
1852.742	0.445	444.9	0back	Block3	0back/STIM_007.jpg	99
1856.436	0.428	428.1	0back	Block3	0back/STIM_007.jpg	100
1858.902	0.458	458.5	0back	Block3	0back/STIM_007.jpg	100
1862.167	0.471	470.9	0back	Block3	0back/STIM_008.jpg	100
1866.28	0.442	442.5	0back	Block3	0back/STIM_008.jpg	100
1869.979	0.413	413.1	0back	Block3	0back/STIM_008.jpg	99
1874.384	0.528	528.2	0back	Block3	0back/STIM_009.jpg	99
1877.8	0.476	475.8	0back	Block3	0back/STIM_009.jpg	100
1882.185	0.577	577.1	0back	Block3	0back/STIM_009.jpg	100
1885.584	0.378	378.3	0back	Block3	0back/STIM_010.jpg	100
1889.592	0.476	475.8	0back	Block3	0back/STIM_010.jpg	99
1893.812	0.569	568.9	0back	Block3	0back/STIM_010.jpg	99
1896.943	0.666	666.3	0back	Block3	0back/STIM_011.jpg	100
1900.747	0.69	690.5	0back	Block3	0back/STIM_011.jpg	100
1904.146	0.666	666.0	0back	Block3	0back/STIM_011.jpg	100
1908.368	0.598	598.3	0back	Block3	0back/STIM_012.jpg	100
1911.542	0.706	705.6	0back	Block3	0back/STIM_012.jpg	99
1916.239	0.505	504.7	0back	Block3	0back/STIM_012.jpg	100
1918.793	0.54	540.3	0back	Block3	0back/STIM_013.jpg	99
1921.345	0.68	680.1	0back	Block3	0back/STIM_013.jpg	99
1925.111	0.601	601.3	0back	Block3	0back/STIM_013.jpg	99
1929.588	0.395	395.1	0back	Block3	0back/STIM_014.jpg	99
1932.248	0.508	508.2	0back	Block3	0back/STIM_014.jpg	99
1935.742	0.66	659.5	0back	Block3	0back/STIM_014.jpg	99
1939.57	0.599	598.8	0back	Block3	0back/STIM_015.jpg	99
1942.797	0.415	415.0	0back	Block3	0back/STIM_015.jpg	100
1946.162	0.364	363.8	0back	Block3	0back/STIM_015.jpg	100
1949.62	0.469	469.4	0back	Block3	0back/STIM_016.jpg	99
1953.888	0.411	411.1	0back	Block3	0back/STIM_016.jpg	100
1956.906	0.697	697.2	0back	Block3	0back/STIM_016.jpg	99
1960.853	0.551	551.1	0back	Block3	0back/STIM_017.jpg	99
1964.334	0.55	549.9	0back	Block3	0back/STIM_017.jpg	99
1967.238	0.644	644.1	0back	Block3	0back/STIM_017.jpg	100
1970.088	0.395	395.4	0back	Block3	0back/STIM_018.jpg	100
1974.009	0.447	447.2	0back	Block3	0back/STIM_018.jpg	100
1977.309	0.606	605.7	0back	Block3	0back/STIM_018.jpg	99
1980.909	0.685	685.1	0back	Block3	0back/STIM_019.jpg	100
1984.765	0.716	715.5	0back	Block3	0back/STIM_019.jpg	100
1989.081	0.548	548.5	0back	Block3	0back/STIM_019.jpg	100
1992.396	0.508	507.7	2back	Block4	2back/STIM_000.jpg	100
1996.125	0.494	494.5	2back	Block4	2back/STIM_000.jpg	99
1999.441	0.856	856.0	2back	Block4	2back/STIM_000.jpg	100
2004.118	0.511	511.2	2back	Block4	2back/STIM_001.jpg	100
2007.647	0.673	672.8	2back	Block4	2back/STIM_001.jpg	99
2011.625	0.762	762.2	2back	Block4	2back/STIM_001.jpg	99
2015.186	0.443	443.1	2back	Block4	2back/STIM_002.jpg	100
2018.981	0.797	797.1	2back	Block4	2back/STIM_002.jpg	99
2023.06	0.549	548.9	2back	Block4	2back/STIM_002.jpg	99
2027.195	0.654	653.6	2back	Block4	2back/STIM_003.jpg	99
2029.951	0.657	657.1	2back	Block4	2back/STIM_003.jpg	100
2034.122	0.737	736.6	2back	Block4	2back/STIM_003.jpg	99
2037.798	0.591	590.6	2back	Block4	2back/STIM_004.jpg	100
2041.282	0.636	636.3	2back	Block4	2back/STIM_004.jpg	100
2044.098	0.728	727.6	2back	Block4	2back/STIM_004.jpg	100
2047.003	0.83	830.3	2back	Block4	2back/STIM_005.jpg	100
2050.556	0.77	770.2	2back	Block4	2back/STIM_005.jpg	99
2055.236	0.762	762.5	2back	Block4	2back/STIM_005.jpg	99
2058.801	0.679	679.3	2back	Block4	2back/STIM_006.jpg	100
2063.141	0.403	402.7	2back	Block4	2back/STIM_006.jpg	100
2066.031	0.873	872.8	2back	Block4	2back/STIM_006.jpg	99
2069.276	0.572	571.9	2back	Block4	2back/STIM_007.jpg	99
2072.527	0.485	485.2	2back	Block4	2back/STIM_007.jpg	99
2075.27	0.772	771.9	2back	Block4	2back/STIM_007.jpg	100
2079.909	0.836	835.8	2back	Block4	2back/STIM_008.jpg	100
2084.093	0.446	445.5	2back	Block4	2back/STIM_008.jpg	99
2087.259	0.661	660.7	2back	Block4	2back/STIM_008.jpg	99
2091.041	0.399	398.8	2back	Block4	2back/STIM_009.jpg	99
2094.225	0.435	435.3	2back	Block4	2back/STIM_009.jpg	100
2098.649	0.414	413.8	2back	Block4	2back/STIM_009.jpg	99
2102.537	0.487	486.7	2back	Block4	2back/STIM_010.jpg	100
2106.953	0.741	741.2	2back	Block4	2back/STIM_010.jpg	99
2111.629	0.776	775.6	2back	Block4	2back/STIM_010.jpg	100
2116.152	0.499	499.3	2back	Block4	2back/STIM_011.jpg	99
2120.31	0.786	786.1	2back	Block4	2back/STIM_011.jpg	99
2123.562	0.886	886.0	2back	Block4	2back/STIM_011.jpg	100
2127.767	0.637	637.4	2back	Block4	2back/STIM_012.jpg	100
2132.229	0.794	793.7	2back	Block4	2back/STIM_012.jpg	99
2135.973	0.837	836.7	2back	Block4	2back/STIM_012.jpg	99
2139.239	0.77	770.4	2back	Block4	2back/STIM_013.jpg	100
2142.919	0.496	495.6	2back	Block4	2back/STIM_013.jpg	100
2145.514	0.572	572.5	2back	Block4	2back/STIM_013.jpg	99
2148.883	0.622	622.2	2back	Block4	2back/STIM_014.jpg	99
2152.465	0.606	605.5	2back	Block4	2back/STIM_014.jpg	99
2155.571	0.846	846.3	2back	Block4	2back/STIM_014.jpg	100
2159.961	0.431	430.9	2back	Block4	2back/STIM_015.jpg	100
2162.81	0.485	484.6	2back	Block4	2back/STIM_015.jpg	100
2165.489	0.627	626.6	2back	Block4	2back/STIM_015.jpg	99
2169.493	0.491	491.0	2back	Block4	2back/STIM_016.jpg	99
2172.604	0.521	520.7	2back	Block4	2back/STIM_016.jpg	100
2175.189	0.519	518.6	2back	Block4	2back/STIM_016.jpg	100
2179.107	0.597	596.7	2back	Block4	2back/STIM_017.jpg	100
2182.308	0.831	831.4	2back	Block4	2back/STIM_017.jpg	99
2186.939	0.79	790.0	2back	Block4	2back/STIM_017.jpg	100
2190.972	0.422	422.0	2back	Block4	2back/STIM_018.jpg	100
2195.209	0.867	867.3	2back	Block4	2back/STIM_018.jpg	99
2199.489	0.874	873.7	2back	Block4	2back/STIM_018.jpg	100
2203.06	0.556	555.9	2back	Block4	2back/STIM_019.jpg	99
2206.502	0.634	633.9	2back	Block4	2back/STIM_019.jpg	100
2210.888	0.863	862.8	2back	Block4	2back/STIM_019.jpg	100
2214.498	0.568	567.5	2back	Block4	2back/STIM_020.jpg	99
2218.517	0.713	712.9	2back	Block4	2back/STIM_020.jpg	100
2221.833	0.618	618.1	2back	Block4	2back/STIM_020.jpg	100
2225.967	0.797	796.6	2back	Block4	2back/STIM_021.jpg	99
2230.402	0.602	602.0	2back	Block4	2back/STIM_021.jpg	99
2234.818	0.404	404.5	2back	Block4	2back/STIM_021.jpg	99
2238.542	0.587	587.3	2back	Block4	2back/STIM_022.jpg	99
2241.669	0.456	455.8	2back	Block4	2back/STIM_022.jpg	100
2245.901	0.78	779.6	2back	Block4	2back/STIM_022.jpg	99
2248.69	0.838	837.5	2back	Block4	2back/STIM_023.jpg	100
2253.161	0.448	448.5	2back	Block4	2back/STIM_023.jpg	100
2255.702	0.71	710.5	2back	Block4	2back/STIM_023.jpg	100
2258.726	0.616	615.6	2back	Block4	2back/STIM_024.jpg	99
2263.231	0.698	698.3	2back	Block4	2back/STIM_024.jpg	100
2267.479	0.502	502.4	2back	Block4	2back/STIM_024.jpg	99
2270.15	0.43	430.5	2back	Block4	2back/STIM_025.jpg	99
2272.651	0.516	515.8	2back	Block4	2back/STIM_025.jpg	100
2277.071	0.547	546.7	2back	Block4	2back/STIM_025.jpg	100
2279.949	0.637	637.2	2back	Block4	2back/STIM_026.jpg	99
2282.676	0.675	674.7	2back	Block4	2back/STIM_026.jpg	99
2286.529	0.416	416.0	2back	Block4	2back/STIM_026.jpg	99
2290.396	0.437	436.7	2back	Block4	2back/STIM_027.jpg	99
2293.919	0.576	575.6	2back	Block4	2back/STIM_027.jpg	99
2298.333	0.403	403.1	2back	Block4	2back/STIM_027.jpg	100
2301.32	0.736	735.5	2back	Block4	2back/STIM_028.jpg	100
2304.908	0.678	678.1	2back	Block4	2back/STIM_028.jpg	99
2309.179	0.382	382.1	2back	Block4	2back/STIM_028.jpg	100
2311.703	0.423	423.3	2back	Block4	2back/STIM_029.jpg	100
2314.721	0.721	721.2	2back	Block4	2back/STIM_029.jpg	100
2317.765	0.646	646.1	2back	Block4	2back/STIM_029.jpg	100
2321.321	0.641	641.1	2back	Block4	2back/STIM_030.jpg	100
2325.799	0.387	387.0	2back	Block4	2back/STIM_030.jpg	99
2329.295	0.526	526.1	2back	Block4	2back/STIM_030.jpg	100
2333.085	0.837	836.8	2back	Block4	2back/STIM_031.jpg	99
2337.573	0.416	416.1	2back	Block4	2back/STIM_031.jpg	99
2340.054	0.56	560.4	2back	Block4	2back/STIM_031.jpg	100
2344.179	0.758	757.8	2back	Block4	2back/STIM_032.jpg	99
2348.524	0.659	658.9	2back	Block4	2back/STIM_032.jpg	100
2352.593	0.49	489.6	2back	Block4	2back/STIM_032.jpg	99
2355.611	0.632	631.7	2back	Block4	2back/STIM_033.jpg	99
2358.432	0.762	762.3	2back	Block4	2back/STIM_033.jpg	100
2363.149	0.852	852.0	2back	Block4	2back/STIM_033.jpg	100
2366.848	0.806	806.3	2back	Block4	2back/STIM_034.jpg	100
2371.437	0.797	797.4	2back	Block4	2back/STIM_034.jpg	100
2374.659	0.48	479.6	2back	Block4	2back/STIM_034.jpg	100
2377.145	0.502	501.7	2back	Block4	2back/STIM_035.jpg	99
2380.953	0.808	808.0	2back	Block4	2back/STIM_035.jpg	100
2384.79	0.402	402.3	2back	Block4	2back/STIM_035.jpg	100
2388.856	0.476	475.9	2back	Block4	2back/STIM_036.jpg	100
2392.678	0.679	678.7	2back	Block4	2back/STIM_036.jpg	100
2397.289	0.649	649.2	2back	Block4	2back/STIM_036.jpg	99
2400.304	0.614	613.7	2back	Block4	2back/STIM_037.jpg	100
2404.363	0.637	636.9	2back	Block4	2back/STIM_037.jpg	100
2407.057	0.76	759.6	2back	Block4	2back/STIM_037.jpg	99
2410.583	0.73	730.0	2back	Block4	2back/STIM_038.jpg	99
2414.556	0.559	559.0	2back	Block4	2back/STIM_038.jpg	100
2417.338	0.613	613.2	2back	Block4	2back/STIM_038.jpg	99
2421.685	0.644	643.6	2back	Block4	2back/STIM_039.jpg	99
2425.065	0.436	435.6	2back	Block4	2back/STIM_039.jpg	99
2429.465	0.471	471.2	2back	Block4	2back/STIM_039.jpg	100
2432.773	0.52	519.9	0back	Block4	0back/STIM_000.jpg	100
2435.334	0.661	660.7	0back	Block4	0back/STIM_000.jpg	100
2439.43	0.536	536.5	0back	Block4	0back/STIM_000.jpg	99
2443.181	0.582	582.3	0back	Block4	0back/STIM_001.jpg	100
2445.98	0.517	516.6	0back	Block4	0back/STIM_001.jpg	100
2449.392	0.529	528.7	0back	Block4	0back/STIM_001.jpg	99
2453.435	0.484	484.3	0back	Block4	0back/STIM_002.jpg	99
2456.25	0.521	520.7	0back	Block4	0back/STIM_002.jpg	100
2460.279	0.677	676.8	0back	Block4	0back/STIM_002.jpg	99
2463.035	0.646	646.4	0back	Block4	0back/STIM_003.jpg	100
2467.104	0.65	650.3	0back	Block4	0back/STIM_003.jpg	100
2469.793	0.649	648.8	0back	Block4	0back/STIM_003.jpg	99
2473.34	0.484	484.0	0back	Block4	0back/STIM_004.jpg	99
2476.964	0.385	385.2	0back	Block4	0back/STIM_004.jpg	100
2481.065	0.45	449.5	0back	Block4	0back/STIM_004.jpg	100
2484.982	0.508	507.9	0back	Block4	0back/STIM_005.jpg	100
2488.177	0.407	406.9	0back	Block4	0back/STIM_005.jpg	100
2490.966	0.652	652.1	0back	Block4	0back/STIM_005.jpg	99
2493.956	0.477	477.4	0back	Block4	0back/STIM_006.jpg	100
2498.034	0.425	425.4	0back	Block4	0back/STIM_006.jpg	99
2501.61	0.596	596.1	0back	Block4	0back/STIM_006.jpg	100
2504.986	0.661	661.4	0back	Block4	0back/STIM_007.jpg	99
2507.727	0.408	408.2	0back	Block4	0back/STIM_007.jpg	99
2511.033	0.598	598.0	0back	Block4	0back/STIM_007.jpg	100
2514.399	0.497	497.4	0back	Block4	0back/STIM_008.jpg	100
2517.653	0.715	715.1	0back	Block4	0back/STIM_008.jpg	99
2522.328	0.377	376.9	0back	Block4	0back/STIM_008.jpg	99
2526.415	0.557	557.3	0back	Block4	0back/STIM_009.jpg	100
2530.38	0.639	638.9	0back	Block4	0back/STIM_009.jpg	100
2533.333	0.371	370.8	0back	Block4	0back/STIM_009.jpg	99
2536.03	0.702	702.5	0back	Block4	0back/STIM_010.jpg	99
2539.215	0.381	380.9	0back	Block4	0back/STIM_010.jpg	99
2543.344	0.393	393.0	0back	Block4	0back/STIM_010.jpg	100
2547.266	0.48	479.8	0back	Block4	0back/STIM_011.jpg	99
2551.611	0.46	460.1	0back	Block4	0back/STIM_011.jpg	99
2554.287	0.496	495.7	0back	Block4	0back/STIM_011.jpg	99
2558.149	0.544	543.9	0back	Block4	0back/STIM_012.jpg	100
2562.265	0.507	507.1	0back	Block4	0back/STIM_012.jpg	100
2565.676	0.413	412.9	0back	Block4	0back/STIM_012.jpg	100
2569.327	0.704	704.3	0back	Block4	0back/STIM_013.jpg	99
2573.815	0.697	696.9	0back	Block4	0back/STIM_013.jpg	100
2577.94	0.421	421.0	0back	Block4	0back/STIM_013.jpg	99
2581.213	0.4	400.3	0back	Block4	0back/STIM_014.jpg	99
2585.105	0.62	619.5	0back	Block4	0back/STIM_014.jpg	100
2589.262	0.385	384.7	0back	Block4	0back/STIM_014.jpg	100
2593.262	0.519	519.0	0back	Block4	0back/STIM_015.jpg	100
2597.77	0.425	425.4	0back	Block4	0back/STIM_015.jpg	100
2601.236	0.524	523.9	0back	Block4	0back/STIM_015.jpg	99
2604.665	0.421	421.4	0back	Block4	0back/STIM_016.jpg	99
2607.579	0.713	712.7	0back	Block4	0back/STIM_016.jpg	100
2610.673	0.706	706.3	0back	Block4	0back/STIM_016.jpg	99
2614.824	0.57	569.8	0back	Block4	0back/STIM_017.jpg	100
2618.625	0.431	431.4	0back	Block4	0back/STIM_017.jpg	99
2621.78	0.671	670.8	0back	Block4	0back/STIM_017.jpg	100
2624.524	0.407	407.4	0back	Block4	0back/STIM_018.jpg	100
2627.651	0.519	519.0	0back	Block4	0back/STIM_018.jpg	99
2632.086	0.428	428.0	0back	Block4	0back/STIM_018.jpg	100
2636.372	0.444	444.4	0back	Block4	0back/STIM_019.jpg	100
2640.222	0.392	392.1	0back	Block4	0back/STIM_019.jpg	100
2643.926	0.387	386.6	0back	Block4	0back/STIM_019.jpg	100
