onset	duration	response_time_ms	trial_type	learning_stage	stimulus	response_port
0.0	0.672	671.8	2back	Block1	2back/STIM_000.jpg	99
3.947	1.035	1035.4	2back	Block1	2back/STIM_000.jpg	100
8.481	0.694	694.5	2back	Block1	2back/STIM_000.jpg	100
11.965	0.796	796.3	2back	Block1	2back/STIM_001.jpg	100
15.046	0.812	811.6	2back	Block1	2back/STIM_001.jpg	99
19.372	1.264	1263.7	2back	Block1	2back/STIM_001.jpg	100
22.665	1.052	1051.5	2back	Block1	2back/STIM_002.jpg	100
26.717	1.096	1096.2	2back	Block1	2back/STIM_002.jpg	99
31.638	0.735	734.6	2back	Block1	2back/STIM_002.jpg	100
34.637	0.888	888.0	2back	Block1	2back/STIM_003.jpg	99
38.781	1.167	1167.2	2back	Block1	2back/STIM_003.jpg	100
42.173	1.28	1280.3	2back	Block1	2back/STIM_003.jpg	99
45.779	1.455	1455.3	2back	Block1	2back/STIM_004.jpg	99
49.525	1.331	1331.0	2back	Block1	2back/STIM_004.jpg	99
54.172	0.729	729.2	2back	Block1	2back/STIM_004.jpg	100
56.946	1.247	1246.7	2back	Block1	2back/STIM_005.jpg	99
61.961	1.434	1433.8	2back	Block1	2back/STIM_005.jpg	100
66.398	0.663	663.2	2back	Block1	2back/STIM_005.jpg	99
69.757	0.881	880.8	2back	Block1	2back/STIM_006.jpg	100
72.749	0.653	652.8	2back	Block1	2back/STIM_006.jpg	100
76.105	1.032	1032.0	2back	Block1	2back/STIM_006.jpg	99
79.524	0.67	670.3	2back	Block1	2back/STIM_007.jpg	100
84.141	0.933	932.8	2back	Block1	2back/STIM_007.jpg	99
87.99	1.075	1075.2	2back	Block1	2back/STIM_007.jpg	100
92.442	1.122	1121.6	2back	Block1	2back/STIM_008.jpg	99
97.147	0.977	976.7	2back	Block1	2back/STIM_008.jpg	100
102.048	0.669	668.7	2back	Block1	2back/STIM_008.jpg	99
105.669	1.246	1246.0	2back	Block1	2back/STIM_009.jpg	100
108.978	1.395	1394.9	2back	Block1	2back/STIM_009.jpg	99
113.328	1.012	1012.2	2back	Block1	2back/STIM_009.jpg	100
116.771	1.311	1310.7	2back	Block1	2back/STIM_010.jpg	99
121.083	1.263	1263.3	2back	Block1	2back/STIM_010.jpg	100
124.687	1.175	1174.9	2back	Block1	2back/STIM_010.jpg	100
128.37	0.953	952.8	2back	Block1	2back/STIM_011.jpg	99
132.947	0.637	637.3	2back	Block1	2back/STIM_011.jpg	100
135.858	0.931	931.2	2back	Block1	2back/STIM_011.jpg	99
139.775	1.329	1328.9	2back	Block1	2back/STIM_012.jpg	99
145.012	1.003	1002.8	2back	Block1	2back/STIM_012.jpg	99
148.914	0.751	750.6	2back	Block1	2back/STIM_012.jpg	99
153.121	0.748	748.3	2back	Block1	2back/STIM_013.jpg	99
156.593	0.749	748.7	2back	Block1	2back/STIM_013.jpg	100
160.11	1.247	1247.3	2back	Block1	2back/STIM_013.jpg	100
165.024	1.444	1443.7	2back	Block1	2back/STIM_014.jpg	100
169.79	1.085	1085.1	2back	Block1	2back/STIM_014.jpg	99
174.58	0.777	777.0	2back	Block1	2back/STIM_014.jpg	99
177.771	0.681	680.7	2back	Block1	2back/STIM_015.jpg	100
182.059	1.102	1101.8	2back	Block1	2back/STIM_015.jpg	99
186.434	0.616	616.0	2back	Block1	2back/STIM_015.jpg	100
190.929	1.029	1028.8	2back	Block1	2back/STIM_016.jpg	99
194.227	1.166	1166.1	2back	Block1	2back/STIM_016.jpg	99
197.491	1.239	1239.1	2back	Block1	2back/STIM_016.jpg	100
201.485	0.749	748.6	2back	Block1	2back/STIM_017.jpg	99
204.999	1.24	1240.5	2back	Block1	2back/STIM_017.jpg	99
208.166	1.237	1237.1	2back	Block1	2back/STIM_017.jpg	100
211.989	0.882	882.4	2back	Block1	2back/STIM_018.jpg	99
215.654	0.776	776.2	2back	Block1	2back/STIM_018.jpg	99
220.299	1.34	1340.1	2back	Block1	2back/STIM_018.jpg	100
224.33	0.857	856.9	2back	Block1	2back/STIM_019.jpg	100
227.895	1.261	1261.3	2back	Block1	2back/STIM_019.jpg	99
232.705	1.181	1180.9	2back	Block1	2back/STIM_019.jpg	99
236.225	1.344	1343.8	2back	Block1	2back/STIM_020.jpg	99
240.877	1.283	1282.6	2back	Block1	2back/STIM_020.jpg	100
245.375	0.939	939.0	2back	Block1	2back/STIM_020.jpg	100
249.948	1.384	1383.5	2back	Block1	2back/STIM_021.jpg	100
253.958	0.69	690.2	2back	Block1	2back/STIM_021.jpg	100
257.73	0.915	915.1	2back	Block1	2back/STIM_021.jpg	100
262.522	1.249	1249.0	2back	Block1	2back/STIM_022.jpg	99
266.722	1.118	1117.8	2back	Block1	2back/STIM_022.jpg	100
271.335	1.249	1249.4	2back	Block1	2back/STIM_022.jpg	99
274.998	0.734	734.0	2back	Block1	2back/STIM_023.jpg	100
278.365	1.323	1323.4	2back	Block1	2back/STIM_023.jpg	100
283.063	0.885	884.9	2back	Block1	2back/STIM_023.jpg	99
286.426	1.237	1236.7	2back	Block1	2back/STIM_024.jpg	100
290.177	1.181	1180.8	2back	Block1	2back/STIM_024.jpg	99
294.735	0.753	752.9	2back	Block1	2back/STIM_024.jpg	99
299.277	1.334	1334.5	2back	Block1	2back/STIM_025.jpg	99
303.65	1.172	1172.4	2back	Block1	2back/STIM_025.jpg	100
308.204	0.92	919.7	2back	Block1	2back/STIM_025.jpg	99
312.627	1.124	1123.5	2back	Block1	2back/STIM_026.jpg	100
317.025	1.191	1190.8	2back	Block1	2back/STIM_026.jpg	100
321.986	0.61	610.3	2back	Block1	2back/STIM_026.jpg	100
326.137	0.89	890.3	2back	Block1	2back/STIM_027.jpg	100
329.197	1.131	1130.7	2back	Block1	2back/STIM_027.jpg	100
333.282	0.927	927.3	2back	Block1	2back/STIM_027.jpg	100
337.306	1.061	1061.4	2back	Block1	2back/STIM_028.jpg	99
341.946	0.968	967.6	2back	Block1	2back/STIM_028.jpg	100
345.894	1.077	1077.3	2back	Block1	2back/STIM_028.jpg	100
350.617	1.125	1125.4	2back	Block1	2back/STIM_029.jpg	100
354.802	1.43	1430.5	2back	Block1	2back/STIM_029.jpg	99
359.115	1.217	1216.8	2back	Block1	2back/STIM_029.jpg	99
363.945	0.836	835.5	2back	Block1	2back/STIM_030.jpg	100
367.958	0.836	835.7	2back	Block1	2back/STIM_030.jpg	99
372.096	0.805	805.2	2back	Block1	2back/STIM_030.jpg	99
375.619	1.238	1238.0	2back	Block1	2back/STIM_031.jpg	100
378.955	0.675	674.9	2back	Block1	2back/STIM_031.jpg	100
381.705	1.327	1327.3	2back	Block1	2back/STIM_031.jpg	100
386.597	0.717	716.8	2back	Block1	2back/STIM_032.jpg	99
389.414	0.881	881.0	2back	Block1	2back/STIM_032.jpg	100
392.511	0.979	978.9	2back	Block1	2back/STIM_032.jpg	100
395.996	0.719	718.7	2back	Block1	2back/STIM_033.jpg	100
399.36	0.805	805.2	2back	Block1	2back/STIM_033.jpg	99
402.422	0.997	997.1	2back	Block1	2back/STIM_033.jpg	100
406.406	1.084	1084.0	2back	Block1	2back/STIM_034.jpg	99
410.017	0.852	852.3	2back	Block1	2back/STIM_034.jpg	99
413.986	0.722	721.7	2back	Block1	2back/STIM_034.jpg	100
418.164	0.931	931.4	2back	Block1	2back/STIM_035.jpg	99
421.988	1.194	1194.4	2back	Block1	2back/STIM_035.jpg	100
426.049	0.537	537.1	2back	Block1	2back/STIM_035.jpg	100
428.868	1.248	1247.7	2back	Block1	2back/STIM_036.jpg	100
432.325	1.269	1268.9	2back	Block1	2back/STIM_036.jpg	100
436.905	1.233	1232.9	2back	Block1	2back/STIM_036.jpg	100
441.799	0.972	972.1	2back	Block1	2back/STIM_037.jpg	100
446.739	0.774	773.6	2back	Block1	2back/STIM_037.jpg	99
450.159	1.243	1242.8	2back	Block1	2back/STIM_037.jpg	99
455.067	0.784	784.2	2back	Block1	2back/STIM_038.jpg	100
459.655	1.233	1233.0	2back	Block1	2back/STIM_038.jpg	100
463.593	1.168	1167.9	2back	Block1	2back/STIM_038.jpg	100
467.0	1.475	1474.9	2back	Block1	2back/STIM_039.jpg	100
471.159	0.976	976.5	2back	Block1	2back/STIM_039.jpg	99
474.126	1.009	1009.3	2back	Block1	2back/STIM_039.jpg	100
478.524	0.788	788.3	0back	Block1	0back/STIM_000.jpg	99
481.691	0.476	476.4	0back	Block1	0back/STIM_000.jpg	99
484.272	0.819	819.3	0back	Block1	0back/STIM_000.jpg	100
488.619	0.777	777.4	0back	Block1	0back/STIM_001.jpg	100
491.557	0.702	701.6	0back	Block1	0back/STIM_001.jpg	99
495.665	0.436	435.6	0back	Block1	0back/STIM_001.jpg	99
499.598	0.792	791.8	0back	Block1	0back/STIM_002.jpg	100
503.4	0.444	444.2	0back	Block1	0back/STIM_002.jpg	99
507.192	0.79	790.4	0back	Block1	0back/STIM_002.jpg	100
511.542	0.604	603.5	0back	Block1	0back/STIM_003.jpg	100
514.936	0.616	615.8	0back	Block1	0back/STIM_003.jpg	100
519.334	0.464	464.4	0back	Block1	0back/STIM_003.jpg	99
521.871	0.844	844.4	0back	Block1	0back/STIM_004.jpg	100
525.76	0.509	509.2	0back	Block1	0back/STIM_004.jpg	99
529.775	0.433	432.9	0back	Block1	0back/STIM_004.jpg	100
532.8	0.801	800.7	0back	Block1	0back/STIM_005.jpg	100
537.212	0.621	620.6	0back	Block1	0back/STIM_005.jpg	99
540.728	0.408	407.8	0back	Block1	0back/STIM_005.jpg	99
544.852	0.675	675.2	0back	Block1	0back/STIM_006.jpg	99
548.512	0.779	778.6	0back	Block1	0back/STIM_006.jpg	99
552.287	0.688	687.6	0back	Block1	0back/STIM_006.jpg	99
556.988	0.858	857.7	0back	Block1	0back/STIM_007.jpg	100
561.069	0.539	539.3	0back	Block1	0back/STIM_007.jpg	99
565.526	0.751	751.1	0back	Block1	0back/STIM_007.jpg	100
568.75	0.543	543.1	0back	Block1	0back/STIM_008.jpg	99
573.078	0.712	712.4	0back	Block1	0back/STIM_008.jpg	100
576.574	0.827	827.2	0back	Block1	0back/STIM_008.jpg	100
580.373	0.594	594.5	0back	Block1	0back/STIM_009.jpg	100
584.558	0.584	583.8	0back	Block1	0back/STIM_009.jpg	99
588.38	0.612	612.5	0back	Block1	0back/STIM_009.jpg	100
591.997	0.58	580.0	0back	Block1	0back/STIM_010.jpg	100
595.149	0.807	807.0	0back	Block1	0back/STIM_010.jpg	100
599.103	0.668	668.4	0back	Block1	0back/STIM_010.jpg	100
602.735	0.64	640.1	0back	Block1	0back/STIM_011.jpg	100
605.465	0.648	647.8	0back	Block1	0back/STIM_011.jpg	99
608.738	0.596	596.0	0back	Block1	0back/STIM_011.jpg	100
612.317	0.624	624.5	0back	Block1	0back/STIM_012.jpg	99
616.475	0.744	744.4	0back	Block1	0back/STIM_012.jpg	99
620.788	0.863	863.1	0back	Block1	0back/STIM_012.jpg	100
623.647	0.476	475.8	0back	Block1	0back/STIM_013.jpg	100
626.719	0.649	649.2	0back	Block1	0back/STIM_013.jpg	99
631.308	0.74	739.5	0back	Block1	0back/STIM_013.jpg	100
635.091	0.797	796.8	0back	Block1	0back/STIM_014.jpg	99
639.04	0.851	850.7	0back	Block1	0back/STIM_014.jpg	100
643.025	0.666	666.4	0back	Block1	0back/STIM_014.jpg	100
647.291	0.656	655.8	0back	Block1	0back/STIM_015.jpg	100
650.545	0.549	549.2	0back	Block1	0back/STIM_015.jpg	99
654.332	0.67	670.0	0back	Block1	0back/STIM_015.jpg	99
658.234	0.678	678.5	0back	Block1	0back/STIM_016.jpg	100
662.044	0.661	661.0	0back	Block1	0back/STIM_016.jpg	100
665.433	0.476	475.5	0back	Block1	0back/STIM_016.jpg	100
668.082	0.433	433.3	0back	Block1	0back/STIM_017.jpg	100
672.296	0.516	516.5	0back	Block1	0back/STIM_017.jpg	99
675.601	0.823	822.7	0back	Block1	0back/STIM_017.jpg	99
679.431	0.652	652.1	0back	Block1	0back/STIM_018.jpg	99
682.897	0.912	912.0	0back	Block1	0back/STIM_018.jpg	100
686.673	0.79	790.5	0back	Block1	0back/STIM_018.jpg	99
691.199	0.612	611.7	0back	Block1	0back/STIM_019.jpg	100
694.787	0.602	601.8	0back	Block1	0back/STIM_019.jpg	100
698.592	0.54	540.0	0back	Block1	0back/STIM_019.jpg	99
702.016	1.032	1032.2	2back	Block2	2back/STIM_000.jpg	99
705.657	0.833	833.0	2back	Block2	2back/STIM_000.jpg	100
708.801	1.004	1003.8	2back	Block2	2back/STIM_000.jpg	100
712.596	1.238	1238.4	2back	Block2	2back/STIM_001.jpg	99
715.74	0.962	961.8	2back	Block2	2back/STIM_001.jpg	100
720.091	0.812	812.1	2back	Block2	2back/STIM_001.jpg	100
724.337	0.966	966.1	2back	Block2	2back/STIM_002.jpg	100
728.142	1.242	1242.0	2back	Block2	2back/STIM_002.jpg	99
732.948	0.926	926.3	2back	Block2	2back/STIM_002.jpg	99
736.489	1.178	1177.7	2back	Block2	2back/STIM_003.jpg	99
740.272	0.78	780.0	2back	Block2	2back/STIM_003.jpg	100
743.062	0.646	645.8	2back	Block2	2back/STIM_003.jpg	99
745.833	0.567	567.4	2back	Block2	2back/STIM_004.jpg	99
749.652	0.976	976.3	2back	Block2	2back/STIM_004.jpg	99
753.613	1.047	1047.0	2back	Block2	2back/STIM_004.jpg	100
757.814	0.591	591.1	2back	Block2	2back/STIM_005.jpg	99
760.998	0.981	980.9	2back	Block2	2back/STIM_005.jpg	100
765.702	0.92	920.1	2back	Block2	2back/STIM_005.jpg	100
769.858	1.03	1029.9	2back	Block2	2back/STIM_006.jpg	100
774.569	1.209	1209.4	2back	Block2	2back/STIM_006.jpg	100
777.764	0.926	925.8	2back	Block2	2back/STIM_006.jpg	100
782.414	1.003	1003.4	2back	Block2	2back/STIM_007.jpg	99
785.683	0.518	518.0	2back	Block2	2back/STIM_007.jpg	99
789.839	0.869	868.6	2back	Block2	2back/STIM_007.jpg	100
793.411	0.639	639.1	2back	Block2	2back/STIM_008.jpg	99
797.075	0.902	901.7	2back	Block2	2back/STIM_008.jpg	99
800.425	1.166	1166.4	2back	Block2	2back/STIM_008.jpg	100
803.934	0.804	804.3	2back	Block2	2back/STIM_009.jpg	99
808.506	0.721	721.0	2back	Block2	2back/STIM_009.jpg	99
811.914	1.07	1069.8	2back	Block2	2back/STIM_009.jpg	99
816.87	1.162	1162.0	2back	Block2	2back/STIM_010.jpg	100
821.393	1.261	1260.9	2back	Block2	2back/STIM_010.jpg	99
825.015	0.547	547.3	2back	Block2	2back/STIM_010.jpg	99
829.248	0.648	648.1	2back	Block2	2back/STIM_011.jpg	99
833.555	0.464	464.4	2back	Block2	2back/STIM_011.jpg	100
837.932	0.577	576.6	2back	Block2	2back/STIM_011.jpg	100
842.402	0.768	768.0	2back	Block2	2back/STIM_012.jpg	100
847.018	1.103	1103.1	2back	Block2	2back/STIM_012.jpg	100
850.664	0.5	499.6	2back	Block2	2back/STIM_012.jpg	99
855.007	1.094	1094.2	2back	Block2	2back/STIM_013.jpg	100
859.372	0.519	518.7	2back	Block2	2back/STIM_013.jpg	99
863.239	0.733	733.2	2back	Block2	2back/STIM_013.jpg	100
867.881	0.722	721.7	2back	Block2	2back/STIM_014.jpg	100
872.033	0.748	748.2	2back	Block2	2back/STIM_014.jpg	99
876.72	1.041	1040.9	2back	Block2	2back/STIM_014.jpg	99
880.75	1.212	1211.6	2back	Block2	2back/STIM_015.jpg	100
884.106	1.046	1045.7	2back	Block2	2back/STIM_015.jpg	99
889.076	0.541	541.1	2back	Block2	2back/STIM_015.jpg	100
893.095	1.198	1198.1	2back	Block2	2back/STIM_016.jpg	100
898.059	0.655	654.6	2back	Block2	2back/STIM_016.jpg	99
901.773	0.694	694.4	2back	Block2	2back/STIM_016.jpg	100
905.254	0.696	696.1	2back	Block2	2back/STIM_017.jpg	100
908.694	0.98	979.5	2back	Block2	2back/STIM_017.jpg	99
911.673	0.937	937.4	2back	Block2	2back/STIM_017.jpg	100
914.774	0.979	979.0	2back	Block2	2back/STIM_018.jpg	100
919.341	0.738	737.7	2back	Block2	2back/STIM_018.jpg	99
923.157	0.763	763.1	2back	Block2	2back/STIM_018.jpg	100
926.298	1.305	1304.6	2back	Block2	2back/STIM_019.jpg	100
930.524	0.841	841.0	2back	Block2	2back/STIM_019.jpg	100
934.851	0.867	866.6	2back	Block2	2back/STIM_019.jpg	99
939.537	0.802	802.0	2back	Block2	2back/STIM_020.jpg	99
943.199	0.438	438.3	2back	Block2	2back/STIM_020.jpg	99
945.942	0.49	489.6	2back	Block2	2back/STIM_020.jpg	99
949.739	1.12	1119.8	2back	Block2	2back/STIM_021.jpg	100
952.956	1.095	1095.3	2back	Block2	2back/STIM_021.jpg	100
957.814	0.532	532.3	2back	Block2	2back/STIM_021.jpg	100
961.481	1.11	1110.0	2back	Block2	2back/STIM_022.jpg	99
964.985	0.884	884.3	2back	Block2	2back/STIM_022.jpg	100
969.605	0.952	952.5	2back	Block2	2back/STIM_022.jpg	99
974.236	0.851	850.7	2back	Block2	2back/STIM_023.jpg	100
977.384	1.157	1156.6	2back	Block2	2back/STIM_023.jpg	99
981.547	0.419	418.8	2back	Block2	2back/STIM_023.jpg	100
984.827	1.064	1063.6	2back	Block2	2back/STIM_024.jpg	99
987.994	1.071	1070.9	2back	Block2	2back/STIM_024.jpg	99
992.182	0.974	973.8	2back	Block2	2back/STIM_024.jpg	100
995.509	1.205	1204.8	2back	Block2	2back/STIM_025.jpg	100
1000.397	1.075	1074.6	2back	Block2	2back/STIM_025.jpg	100
1004.11	0.49	490.2	2back	Block2	2back/STIM_025.jpg	99
1008.162	1.002	1002.5	2back	Block2	2back/STIM_026.jpg	100
1011.402	0.614	613.6	2back	Block2	2back/STIM_026.jpg	99
1015.341	1.098	1098.3	2back	Block2	2back/STIM_026.jpg	99
1019.753	0.649	648.8	2back	Block2	2back/STIM_027.jpg	100
1023.843	0.662	661.5	2back	Block2	2back/STIM_027.jpg	100
1027.007	0.998	997.5	2back	Block2	2back/STIM_027.jpg	99
1031.798	0.702	702.1	2back	Block2	2back/STIM_028.jpg	100
1035.69	0.958	957.9	2back	Block2	2back/STIM_028.jpg	99
1040.136	0.561	560.7	2back	Block2	2back/STIM_028.jpg	99
1043.948	0.819	818.6	2back	Block2	2back/STIM_029.jpg	99
1047.737	0.853	852.9	2back	Block2	2back/STIM_029.jpg	100
1051.965	0.714	714.4	2back	Block2	2back/STIM_029.jpg	100
1056.168	0.8	800.0	2back	Block2	2back/STIM_030.jpg	100
1059.83	0.897	897.0	2back	Block2	2back/STIM_030.jpg	99
1062.899	0.726	725.6	2back	Block2	2back/STIM_030.jpg	99
1066.223	1.298	1298.0	2back	Block2	2back/STIM_031.jpg	100
1070.28	0.969	969.3	2back	Block2	2back/STIM_031.jpg	100
1074.387	0.504	504.0	2back	Block2	2back/STIM_031.jpg	100
1077.295	0.594	594.2	2back	Block2	2back/STIM_032.jpg	99
1080.543	0.655	654.8	2back	Block2	2back/STIM_032.jpg	100
1083.838	0.722	722.5	2back	Block2	2back/STIM_032.jpg	99
1087.882	1.048	1047.6	2back	Block2	2back/STIM_033.jpg	100
1092.08	1.036	1035.8	2back	Block2	2back/STIM_033.jpg	100
1096.934	0.592	591.7	2back	Block2	2back/STIM_033.jpg	99
1100.535	0.943	943.1	2back	Block2	2back/STIM_034.jpg	99
1104.21	1.118	1118.2	2back	Block2	2back/STIM_034.jpg	99
1108.346	0.709	708.6	2back	Block2	2back/STIM_034.jpg	99
1112.321	1.008	1008.4	2back	Block2	2back/STIM_035.jpg	100
1117.194	0.724	723.7	2back	Block2	2back/STIM_035.jpg	100
1120.48	0.992	992.4	2back	Block2	2back/STIM_035.jpg	100
1125.034	0.626	626.4	2back	Block2	2back/STIM_036.jpg	99
1128.801	0.697	697.0	2back	Block2	2back/STIM_036.jpg	100
1132.698	0.782	781.7	2back	Block2	2back/STIM_036.jpg	99
1136.803	0.915	915.2	2back	Block2	2back/STIM_037.jpg	99
1141.639	0.814	814.1	2back	Block2	2back/STIM_037.jpg	100
1145.211	0.859	859.4	2back	Block2	2back/STIM_037.jpg	100
1148.942	0.648	647.9	2back	Block2	2back/STIM_038.jpg	100
1152.599	0.839	838.6	2back	Block2	2back/STIM_038.jpg	100
1157.099	0.544	543.6	2back	Block2	2back/STIM_038.jpg	99
1159.837	0.882	882.0	2back	Block2	2back/STIM_039.jpg	99
1164.695	0.834	833.9	2back	Block2	2back/STIM_039.jpg	100
1168.241	0.624	624.4	2back	Block2	2back/STIM_039.jpg	100
1171.296	0.855	854.9	0back	Block2	0back/STIM_000.jpg	99
1174.536	0.681	680.9	0back	Block2	0back/STIM_000.jpg	100
1179.022	0.548	548.4	0back	Block2	0back/STIM_000.jpg	100
1182.474	0.658	657.8	0back	Block2	0back/STIM_001.jpg	100
1185.685	0.624	624.1	0back	Block2	0back/STIM_001.jpg	99
1189.22	0.688	688.5	0back	Block2	0back/STIM_001.jpg	99
1193.218	0.499	499.0	0back	Block2	0back/STIM_002.jpg	100
1196.682	0.511	511.3	0back	Block2	0back/STIM_002.jpg	100
1199.371	0.841	840.6	0back	Block2	0back/STIM_002.jpg	100
1203.314	0.708	707.7	0back	Block2	0back/STIM_003.jpg	100
1206.943	0.463	463.1	0back	Block2	0back/STIM_003.jpg	100
1209.882	0.622	622.1	0back	Block2	0back/STIM_003.jpg	99
1212.743	0.452	451.6	0back	Block2	0back/STIM_004.jpg	100
1216.229	0.68	680.2	0back	Block2	0back/STIM_004.jpg	99
1220.56	0.853	852.6	0back	Block2	0back/STIM_004.jpg	99
1225.017	0.498	498.5	0back	Block2	0back/STIM_005.jpg	99
1229.015	0.841	841.4	0back	Block2	0back/STIM_005.jpg	99
1232.835	0.612	611.9	0back	Block2	0back/STIM_005.jpg	99
1237.357	0.699	699.4	0back	Block2	0back/STIM_006.jpg	99
1241.475	0.663	663.3	0back	Block2	0back/STIM_006.jpg	100
1244.959	0.772	771.5	0back	Block2	0back/STIM_006.jpg	100
1248.427	0.482	482.2	0back	Block2	0back/STIM_007.jpg	100
1251.984	0.695	695.1	0back	Block2	0back/STIM_007.jpg	100
1256.21	0.431	431.4	0back	Block2	0back/STIM_007.jpg	99
1259.811	0.813	813.3	0back	Block2	0back/STIM_008.jpg	100
1264.268	0.915	914.6	0back	Block2	0back/STIM_008.jpg	99
1268.422	0.466	465.8	0back	Block2	0back/STIM_008.jpg	100
1271.348	0.715	715.0	0back	Block2	0back/STIM_009.jpg	100
1275.111	0.504	504.5	0back	Block2	0back/STIM_009.jpg	100
1279.473	0.491	491.4	0back	Block2	0back/STIM_009.jpg	99
1283.833	0.587	587.1	0back	Block2	0back/STIM_010.jpg	100
1288.218	0.684	684.3	0back	Block2	0back/STIM_010.jpg	100
1291.391	0.529	529.2	0back	Block2	0back/STIM_010.jpg	99
1294.102	0.47	469.8	0back	Block2	0back/STIM_011.jpg	99
1297.545	0.568	567.9	0back	Block2	0back/STIM_011.jpg	100
1302.04	0.639	639.1	0back	Block2	0back/STIM_011.jpg	100
1305.24	0.637	636.7	0back	Block2	0back/STIM_012.jpg	100
1308.026	0.384	383.9	0back	Block2	0back/STIM_012.jpg	99
1311.304	0.681	681.3	0back	Block2	0back/STIM_012.jpg	100
1314.503	0.736	736.5	0back	Block2	0back/STIM_013.jpg	100
1318.931	0.402	402.5	0back	Block2	0back/STIM_013.jpg	99
1322.365	0.597	596.9	0back	Block2	0back/STIM_013.jpg	100
1325.646	0.735	735.0	0back	Block2	0back/STIM_014.jpg	99
1328.305	0.776	776.1	0back	Block2	0back/STIM_014.jpg	99
1331.45	0.62	620.0	0back	Block2	0back/STIM_014.jpg	99
1335.681	0.792	791.7	0back	Block2	0back/STIM_015.jpg	99
1339.506	0.592	592.4	0back	Block2	0back/STIM_015.jpg	100
1342.236	0.437	437.2	0back	Block2	0back/STIM_015.jpg	99
1345.009	0.531	531.2	0back	Block2	0back/STIM_016.jpg	99
1348.724	0.706	706.3	0back	Block2	0back/STIM_016.jpg	99
1351.385	0.755	754.9	0back	Block2	0back/STIM_016.jpg	99
1354.463	0.694	694.0	0back	Block2	0back/STIM_017.jpg	100
1358.57	0.742	741.5	0back	Block2	0back/STIM_017.jpg	99
1361.706	0.601	601.4	0back	Block2	0back/STIM_017.jpg	99
1364.987	0.825	824.9	0back	Block2	0back/STIM_018.jpg	100
1369.117	0.501	501.3	0back	Block2	0back/STIM_018.jpg	100
1372.348	0.735	735.1	0back	Block2	0back/STIM_018.jpg	100
1375.834	0.852	852.5	0back	Block2	0back/STIM_019.jpg	100
1380.444	0.626	626.3	0back	Block2	0back/STIM_019.jpg	100
1383.792	0.599	598.9	0back	Block2	0back/STIM_019.jpg	99
1387.02	0.742	742.5	2back	Block3	2back/STIM_000.jpg	99
1390.985	0.735	735.4	2back	Block3	2back/STIM_000.jpg	100
1393.793	0.577	576.7	2back	Block3	2back/STIM_000.jpg	100
1397.676	0.797	797.3	2back	Block3	2back/STIM_001.jpg	100
1402.269	0.996	995.5	2back	Block3	2back/STIM_001.jpg	100
1406.194	0.784	784.0	2back	Block3	2back/STIM_001.jpg	99
1409.087	0.942	941.5	2back	Block3	2back/STIM_002.jpg	100
1413.56	1.049	1048.7	2back	Block3	2back/STIM_002.jpg	99
1418.03	0.737	736.7	2back	Block3	2back/STIM_002.jpg	100
1422.687	1.032	1032.4	2back	Block3	2back/STIM_003.jpg	100
1425.976	0.802	801.5	2back	Block3	2back/STIM_003.jpg	99
1430.292	1.024	1024.2	2back	Block3	2back/STIM_003.jpg	99
1435.205	0.731	730.8	2back	Block3	2back/STIM_004.jpg	99
1438.996	0.896	895.7	2back	Block3	2back/STIM_004.jpg	100
1443.152	0.928	928.1	2back	Block3	2back/STIM_004.jpg	100
1447.732	0.988	988.3	2back	Block3	2back/STIM_005.jpg	100
1452.362	0.8	800.3	2back	Block3	2back/STIM_005.jpg	99
1456.315	0.625	625.1	2back	Block3	2back/STIM_005.jpg	99
1459.253	0.738	738.4	2back	Block3	2back/STIM_006.jpg	100
1462.254	0.972	971.7	2back	Block3	2back/STIM_006.jpg	99
1466.575	0.623	623.4	2back	Block3	2back/STIM_006.jpg	100
1470.451	0.765	764.9	2back	Block3	2back/STIM_007.jpg	99
1474.209	0.824	824.2	2back	Block3	2back/STIM_007.jpg	100
1477.528	0.486	486.1	2back	Block3	2back/STIM_007.jpg	99
1480.897	1.016	1016.5	2back	Block3	2back/STIM_008.jpg	99
1485.775	0.933	932.7	2back	Block3	2back/STIM_008.jpg	99
1488.938	0.882	881.8	2back	Block3	2back/STIM_008.jpg	99
1492.115	0.908	907.6	2back	Block3	2back/STIM_009.jpg	100
1496.64	0.574	574.0	2back	Block3	2back/STIM_009.jpg	100
1499.552	1.002	1002.3	2back	Block3	2back/STIM_009.jpg	99
1503.747	0.587	587.2	2back	Block3	2back/STIM_010.jpg	99
1507.912	0.777	777.4	2back	Block3	2back/STIM_010.jpg	99
1512.085	0.451	450.8	2back	Block3	2back/STIM_010.jpg	99
1515.578	0.515	514.6	2back	Block3	2back/STIM_011.jpg	100
1519.188	0.845	844.6	2back	Block3	2back/STIM_011.jpg	100
1523.16	0.673	672.9	2back	Block3	2back/STIM_011.jpg	99
1527.155	0.892	892.5	2back	Block3	2back/STIM_012.jpg	100
1531.534	0.495	494.8	2back	Block3	2back/STIM_012.jpg	99
1534.846	0.703	702.9	2back	Block3	2back/STIM_012.jpg	99
1537.514	0.642	642.2	2back	Block3	2back/STIM_013.jpg	100
1542.002	0.675	674.6	2back	Block3	2back/STIM_013.jpg	100
1546.374	0.982	981.7	2back	Block3	2back/STIM_013.jpg	99
1551.009	0.609	609.3	2back	Block3	2back/STIM_014.jpg	100
1553.647	0.616	616.5	2back	Block3	2back/STIM_014.jpg	100
1556.327	0.433	432.6	2back	Block3	2back/STIM_014.jpg	100
1560.136	0.765	765.0	2back	Block3	2back/STIM_015.jpg	100
1562.809	0.821	820.6	2back	Block3	2back/STIM_015.jpg	99
1567.524	0.956	956.3	2back	Block3	2back/STIM_015.jpg	100
1571.498	0.774	773.5	2back	Block3	2back/STIM_016.jpg	99
1574.957	0.703	702.9	2back	Block3	2back/STIM_016.jpg	99
1578.046	0.581	580.9	2back	Block3	2back/STIM_016.jpg	99
1581.353	0.498	497.9	2back	Block3	2back/STIM_017.jpg	99
1585.477	0.437	436.7	2back	Block3	2back/STIM_017.jpg	99
1588.719	0.5	500.0	2back	Block3	2back/STIM_017.jpg	100
1591.761	0.8	799.9	2back	Block3	2back/STIM_018.jpg	100
1596.034	0.523	522.7	2back	Block3	2back/STIM_018.jpg	100
1599.503	0.566	566.2	2back	Block3	2back/STIM_018.jpg	100
1602.696	0.935	934.8	2back	Block3	2back/STIM_019.jpg	100
1606.578	0.758	758.0	2back	Block3	2back/STIM_019.jpg	100
1609.33	0.685	685.1	2back	Block3	2back/STIM_019.jpg	100
1612.335	1.045	1045.4	2back	Block3	2back/STIM_020.jpg	100
1616.161	0.866	865.5	2back	Block3	2back/STIM_020.jpg	100
1619.526	0.586	585.7	2back	Block3	2back/STIM_020.jpg	99
1622.558	0.92	920.4	2back	Block3	2back/STIM_021.jpg	99
1626.169	0.916	916.1	2back	Block3	2back/STIM_021.jpg	100
1629.618	0.891	891.2	2back	Block3	2back/STIM_021.jpg	100
1632.79	0.486	486.3	2back	Block3	2back/STIM_022.jpg	99
1636.507	0.832	831.7	2back	Block3	2back/STIM_022.jpg	100
1639.413	0.918	918.3	2back	Block3	2back/STIM_022.jpg	100
1643.814	0.63	629.5	2back	Block3	2back/STIM_023.jpg	100
1646.816	0.436	436.2	2back	Block3	2back/STIM_023.jpg	100
1650.723	0.422	421.7	2back	Block3	2back/STIM_023.jpg	99
1654.164	0.933	933.4	2back	Block3	2back/STIM_024.jpg	100
1657.478	0.651	650.8	2back	Block3	2back/STIM_024.jpg	100
1661.756	0.778	777.7	2back	Block3	2back/STIM_024.jpg	99
1665.876	0.465	464.7	2back	Block3	2back/STIM_025.jpg	100
1669.902	1.001	1000.9	2back	Block3	2back/STIM_025.jpg	100
1674.069	0.573	573.2	2back	Block3	2back/STIM_025.jpg	100
1676.909	1.016	1016.2	2back	Block3	2back/STIM_026.jpg	99
1680.565	0.565	564.8	2back	Block3	2back/STIM_026.jpg	99
1684.405	0.543	543.4	2back	Block3	2back/STIM_026.jpg	99
1687.868	0.684	684.5	2back	Block3	2back/STIM_027.jpg	100
1691.663	0.686	685.9	2back	Block3	2back/STIM_027.jpg	99
1695.055	1.058	1058.5	2back	Block3	2back/STIM_027.jpg	100
1698.171	0.629	628.9	2back	Block3	2back/STIM_028.jpg	99
1702.191	0.876	876.1	2back	Block3	2back/STIM_028.jpg	100
1705.602	0.89	889.6	2back	Block3	2back/STIM_028.jpg	99
1710.246	0.877	876.9	2back	Block3	2back/STIM_029.jpg	100
1714.218	0.743	742.8	2back	Block3	2back/STIM_029.jpg	100
1718.244	1.088	1087.8	2back	Block3	2back/STIM_029.jpg	100
1722.486	0.827	827.4	2back	Block3	2back/STIM_030.jpg	100
1726.787	0.522	521.5	2back	Block3	2back/STIM_030.jpg	100
1729.495	0.534	533.9	2back	Block3	2back/STIM_030.jpg	99
1732.161	0.782	782.3	2back	Block3	2back/STIM_031.jpg	99
1736.423	0.692	692.0	2back	Block3	2back/STIM_031.jpg	99
1740.335	0.64	640.2	2back	Block3	2back/STIM_031.jpg	100
1743.452	0.591	591.0	2back	Block3	2back/STIM_032.jpg	99
1747.245	0.983	982.8	2back	Block3	2back/STIM_032.jpg	100
1750.82	0.468	467.7	2back	Block3	2back/STIM_032.jpg	100
1753.547	0.81	810.4	2back	Block3	2back/STIM_033.jpg	100
1756.385	0.569	568.8	2back	Block3	2back/STIM_033.jpg	100
1759.469	0.966	965.7	2back	Block3	2back/STIM_033.jpg	99
1763.7	0.924	924.0	2back	Block3	2back/STIM_034.jpg	100
1768.005	0.987	986.8	2back	Block3	2back/STIM_034.jpg	99
1772.181	0.567	567.0	2back	Block3	2back/STIM_034.jpg	99
1776.003	0.528	527.6	2back	Block3	2back/STIM_035.jpg	100
1779.647	0.644	644.2	2back	Block3	2back/STIM_035.jpg	99
1783.792	1.016	1016.1	2back	Block3	2back/STIM_035.jpg	99
1786.763	1.113	1113.0	2back	Block3	2back/STIM_036.jpg	99
1790.334	0.9	900.0	2back	Block3	2back/STIM_036.jpg	99
1795.034	0.464	463.9	2back	Block3	2back/STIM_036.jpg	99
1798.755	1.029	1029.4	2back	Block3	2back/STIM_037.jpg	99
1803.515	0.961	961.1	2back	Block3	2back/STIM_037.jpg	100
1806.713	0.94	939.7	2back	Block3	2back/STIM_037.jpg	99
1810.743	1.081	1080.7	2back	Block3	2back/STIM_038.jpg	100
1814.477	0.537	537.0	2back	Block3	2back/STIM_038.jpg	100
1818.094	0.534	534.1	2back	Block3	2back/STIM_038.jpg	99
1820.862	0.619	619.4	2back	Block3	2back/STIM_039.jpg	99
1824.455	0.732	731.9	2back	Block3	2back/STIM_039.jpg	100
1828.299	0.537	536.6	2back	Block3	2back/STIM_039.jpg	99
1832.02	0.433	432.7	0back	Block3	0back/STIM_000.jpg	99
1835.53	0.602	601.7	0back	Block3	0back/STIM_000.jpg	100
1839.513	0.681	680.9	0back	Block3	0back/STIM_000.jpg	100
1843.608	0.569	569.1	0back	Block3	0back/STIM_001.jpg	100
1847.553	0.612	612.2	0back	Block3	0back/STIM_001.jpg	99
1850.8	0.458	458.5	0back	Block3	0back/STIM_001.jpg	100
1853.581	0.638	638.0	0back	Block3	0back/STIM_002.jpg	100
1857.816	0.406	405.7	0back	Block3	0back/STIM_002.jpg	99
1860.602	0.42	420.5	0back	Block3	0back/STIM_002.jpg	100
1864.769	0.481	481.2	0back	Block3	0back/STIM_003.jpg	99
1867.581	0.667	666.7	0back	Block3	0back/STIM_003.jpg	99
1870.815	0.816	815.7	0back	Block3	0back/STIM_003.jpg	99
1875.387	0.694	694.4	0back	Block3	0back/STIM_004.jpg	99
1878.857	0.517	517.4	0back	Block3	0back/STIM_004.jpg	99
1882.502	0.582	581.5	0back	Block3	0back/STIM_004.jpg	100
1885.628	0.421	421.4	0back	Block3	0back/STIM_005.jpg	100
1889.795	0.621	620.9	0back	Block3	0back/STIM_005.jpg	99
1893.048	0.468	467.5	0back	Block3	0back/STIM_005.jpg	100
1896.752	0.773	773.1	0back	Block3	0back/STIM_006.jpg	99
1900.503	0.85	849.8	0back	Block3	0back/STIM_006.jpg	100
1904.347	0.651	651.1	0back	Block3	0back/STIM_006.jpg	100
1907.416	0.729	729.0	0back	Block3	0back/STIM_007.jpg	99
1910.762	0.462	461.9	0back	Block3	0back/STIM_007.jpg	100
1913.802	0.824	824.0	0back	Block3	0back/STIM_007.jpg	100
1918.303	0.795	794.7	0back	Block3	0back/STIM_008.jpg	99
1922.201	0.814	813.6	0back	Block3	0back/STIM_008.jpg	100
1925.734	0.653	653.1	0back	Block3	0back/STIM_008.jpg	99
1928.807	0.759	759.1	0back	Block3	0back/STIM_009.jpg	100
1931.509	0.775	775.0	0back	Block3	0back/STIM_009.jpg	100
1935.375	0.569	569.4	0back	Block3	0back/STIM_009.jpg	100
1939.072	0.845	844.6	0back	Block3	0back/STIM_010.jpg	99
1943.386	0.551	551.0	0back	Block3	0back/STIM_010.jpg	99
1946.68	0.482	482.0	0back	Block3	0back/STIM_010.jpg	99
1949.719	0.53	529.8	0back	Block3	0back/STIM_011.jpg	100
1953.254	0.666	666.3	0back	Block3	0back/STIM_011.jpg	99
1957.362	0.706	706.5	0back	Block3	0back/STIM_011.jpg	99
1960.913	0.621	621.2	0back	Block3	0back/STIM_012.jpg	99
1964.596	0.554	554.2	0back	Block3	0back/STIM_012.jpg	99
1968.014	0.883	882.7	0back	Block3	0back/STIM_012.jpg	99
1971.702	0.556	555.8	0back	Block3	0back/STIM_013.jpg	99
1974.303	0.674	673.7	0back	Block3	0back/STIM_013.jpg	100
1978.584	0.839	838.7	0back	Block3	0back/STIM_013.jpg	100
1983.286	0.784	783.8	0back	Block3	0back/STIM_014.jpg	99
1986.946	0.755	754.6	0back	Block3	0back/STIM_014.jpg	100
1990.083	0.465	464.6	0back	Block3	0back/STIM_014.jpg	99
1994.476	0.461	460.9	0back	Block3	0back/STIM_015.jpg	99
1996.951	0.482	481.8	0back	Block3	0back/STIM_015.jpg	99
2000.37	0.734	733.9	0back	Block3	0back/STIM_015.jpg	99
2003.764	0.502	502.4	0back	Block3	0back/STIM_016.jpg	100
2008.133	0.422	421.6	0back	Block3	0back/STIM_016.jpg	100
2012.126	0.88	880.0	0back	Block3	0back/STIM_016.jpg	99
2015.289	0.652	651.9	0back	Block3	0back/STIM_017.jpg	100
2018.145	0.623	623.3	0back	Block3	0back/STIM_017.jpg	100
2022.373	0.5	499.5	0back	Block3	0back/STIM_017.jpg	100
2025.615	0.92	919.9	0back	Block3	0back/STIM_018.jpg	100
2028.985	0.499	498.9	0back	Block3	0back/STIM_018.jpg	99
2032.412	0.547	547.0	0back	Block3	0back/STIM_018.jpg	100
2035.13	0.726	726.2	0back	Block3	0back/STIM_019.jpg	100
2039.743	0.717	717.4	0back	Block3	0back/STIM_019.jpg	100
2043.035	0.724	723.5	0back	Block3	0back/STIM_019.jpg	99
2047.317	0.531	531.4	2back	Block4	2back/STIM_000.jpg	100
2051.097	0.72	719.6	2back	Block4	2back/STIM_000.jpg	100
2055.091	0.393	392.8	2back	Block4	2back/STIM_000.jpg	99
2057.914	0.718	717.9	2back	Block4	2back/STIM_001.jpg	99
2062.176	0.652	652.1	2back	Block4	2back/STIM_001.jpg	100
2065.463	0.743	742.8	2back	Block4	2back/STIM_001.jpg	99
2069.757	0.583	583.4	2back	Block4	2back/STIM_002.jpg	99
2073.849	0.614	614.4	2back	Block4	2back/STIM_002.jpg	99
2078.412	0.502	502.1	2back	Block4	2back/STIM_002.jpg	99
2081.426	0.388	388.2	2back	Block4	2back/STIM_003.jpg	99
2085.425	0.854	854.2	2back	Block4	2back/STIM_003.jpg	99
2088.716	0.937	937.1	2back	Block4	2back/STIM_003.jpg	100
2092.676	0.497	497.2	2back	Block4	2back/STIM_004.jpg	99
2096.551	0.834	834.3	2back	Block4	2back/STIM_004.jpg	100
2100.431	0.826	826.4	2back	Block4	2back/STIM_004.jpg	100
2104.476	0.525	525.0	2back	Block4	2back/STIM_005.jpg	99
2108.389	0.538	538.5	2back	Block4	2back/STIM_005.jpg	99
2111.045	0.89	890.3	2back	Block4	2back/STIM_005.jpg	99
2114.205	0.911	911.2	2back	Block4	2back/STIM_006.jpg	99
2118.986	0.854	853.8	2back	Block4	2back/STIM_006.jpg	100
2123.522	0.695	694.8	2back	Block4	2back/STIM_006.jpg	99
2127.832	0.957	956.8	2back	Block4	2back/STIM_007.jpg	100
2131.014	0.742	742.0	2back	Block4	2back/STIM_007.jpg	99
2134.577	0.988	987.8	2back	Block4	2back/STIM_007.jpg	100
2138.209	0.959	959.2	2back	Block4	2back/STIM_008.jpg	99
2141.489	0.788	788.2	2back	Block4	2back/STIM_008.jpg	100
2146.281	0.988	988.2	2back	Block4	2back/STIM_008.jpg	99
2149.393	0.957	956.7	2back	Block4	2back/STIM_009.jpg	99
2154.044	0.822	822.3	2back	Block4	2back/STIM_009.jpg	100
2157.441	0.951	951.2	2back	Block4	2back/STIM_009.jpg	100
2160.985	0.606	606.4	2back	Block4	2back/STIM_010.jpg	99
2163.587	0.766	766.2	2back	Block4	2back/STIM_010.jpg	99
2168.345	0.54	539.9	2back	Block4	2back/STIM_010.jpg	99
2172.199	0.789	789.3	2back	Block4	2back/STIM_011.jpg	99
2175.492	0.939	939.1	2back	Block4	2back/STIM_011.jpg	99
2178.778	0.69	690.4	2back	Block4	2back/STIM_011.jpg	100
2183.367	0.804	804.3	2back	Block4	2back/STIM_012.jpg	100
2186.585	0.646	645.6	2back	Block4	2back/STIM_012.jpg	100
2191.017	0.5	500.2	2back	Block4	2back/STIM_012.jpg	100
2193.935	0.772	772.4	2back	Block4	2back/STIM_013.jpg	100
2196.915	0.69	690.1	2back	Block4	2back/STIM_013.jpg	100
2201.122	0.467	467.1	2back	Block4	2back/STIM_013.jpg	100
2204.64	0.764	764.4	2back	Block4	2back/STIM_014.jpg	100
2209.085	0.896	896.1	2back	Block4	2back/STIM_014.jpg	100
2213.567	0.922	922.4	2back	Block4	2back/STIM_014.jpg	99
2217.214	0.71	709.8	2back	Block4	2back/STIM_015.jpg	99
2221.126	1.004	1004.4	2back	Block4	2back/STIM_015.jpg	99
2224.855	0.924	923.6	2back	Block4	2back/STIM_015.jpg	99
2229.362	0.733	733.0	2back	Block4	2back/STIM_016.jpg	99
2233.418	0.571	570.6	2back	Block4	2back/STIM_016.jpg	100
2236.728	0.925	924.8	2back	Block4	2back/STIM_016.jpg	100
2240.346	0.714	713.9	2back	Block4	2back/STIM_017.jpg	99
2243.256	0.919	919.4	2back	Block4	2back/STIM_017.jpg	99
2246.565	0.685	685.0	2back	Block4	2back/STIM_017.jpg	99
2250.518	0.496	496.2	2back	Block4	2back/STIM_018.jpg	100
2253.032	0.813	813.1	2back	Block4	2back/STIM_018.jpg	100
2257.035	0.641	640.6	2back	Block4	2back/STIM_018.jpg	100
2260.242	0.624	624.4	2back	Block4	2back/STIM_019.jpg	99
2263.11	1.02	1019.5	2back	Block4	2back/STIM_019.jpg	99
2266.645	0.669	669.3	2back	Block4	2back/STIM_019.jpg	99
2270.668	1.107	1106.9	2back	Block4	2back/STIM_020.jpg	99
2274.23	1.098	1098.0	2back	Block4	2back/STIM_020.jpg	100
2278.768	0.935	935.3	2back	Block4	2back/STIM_020.jpg	100
2283.224	0.579	578.7	2back	Block4	2back/STIM_021.jpg	100
2286.192	0.745	744.7	2back	Block4	2back/STIM_021.jpg	99
2289.693	0.718	717.5	2back	Block4	2back/STIM_021.jpg	100
2293.58	0.904	904.5	2back	Block4	2back/STIM_022.jpg	100
2296.568	0.928	928.5	2back	Block4	2back/STIM_022.jpg	100
2299.511	0.805	805.3	2back	Block4	2back/STIM_022.jpg	99
2302.79	0.698	698.5	2back	Block4	2back/STIM_023.jpg	100
2306.32	0.958	957.5	2back	Block4	2back/STIM_023.jpg	100
2310.546	0.97	969.6	2back	Block4	2back/STIM_023.jpg	99
2314.853	1.066	1065.7	2back	Block4	2back/STIM_024.jpg	100
2319.649	0.96	959.6	2back	Block4	2back/STIM_024.jpg	99
2323.641	0.983	983.1	2back	Block4	2back/STIM_024.jpg	99
2327.272	1.01	1009.7	2back	Block4	2back/STIM_025.jpg	100
2331.408	0.958	957.9	2back	Block4	2back/STIM_025.jpg	100
2335.408	0.627	627.4	2back	Block4	2back/STIM_025.jpg	99
2338.682	0.952	951.5	2back	Block4	2back/STIM_026.jpg	99
2342.798	0.769	769.1	2back	Block4	2back/STIM_026.jpg	100
2346.863	0.665	664.9	2back	Block4	2back/STIM_026.jpg	100
2350.072	0.715	715.2	2back	Block4	2back/STIM_027.jpg	100
2354.472	0.674	673.5	2back	Block4	2back/STIM_027.jpg	100
2358.577	0.884	884.4	2back	Block4	2back/STIM_027.jpg	100
2362.46	0.651	651.0	2back	Block4	2back/STIM_028.jpg	99
2366.901	0.772	771.9	2back	Block4	2back/STIM_028.jpg	100
2371.606	0.747	746.8	2back	Block4	2back/STIM_028.jpg	99
2375.015	1.042	1042.2	2back	Block4	2back/STIM_029.jpg	99
2378.277	0.75	749.6	2back	Block4	2back/STIM_029.jpg	100
2381.492	0.871	870.8	2back	Block4	2back/STIM_029.jpg	100
2385.418	0.672	672.3	2back	Block4	2back/STIM_030.jpg	99
2389.58	0.646	646.1	2back	Block4	2back/STIM_030.jpg	99
2394.034	0.544	544.4	2back	Block4	2back/STIM_030.jpg	99
2398.308	1.055	1055.1	2back	Block4	2back/STIM_031.jpg	100
2402.61	0.999	998.8	2back	Block4	2back/STIM_031.jpg	100
2406.047	0.459	459.1	2back	Block4	2back/STIM_031.jpg	99
2410.413	0.912	912.2	2back	Block4	2back/STIM_032.jpg	99
2413.441	0.401	400.6	2back	Block4	2back/STIM_032.jpg	99
2416.655	0.789	789.4	2back	Block4	2back/STIM_032.jpg	100
2421.328	0.614	614.1	2back	Block4	2back/STIM_033.jpg	100
2424.242	0.596	595.6	2back	Block4	2back/STIM_033.jpg	100
2426.984	0.818	818.3	2back	Block4	2back/STIM_033.jpg	99
2431.02	0.747	747.3	2back	Block4	2back/STIM_034.jpg	100
2435.379	0.771	770.8	2back	Block4	2back/STIM_034.jpg	99
2439.872	0.824	824.0	2back	Block4	2back/STIM_034.jpg	99
2444.327	0.988	987.8	2back	Block4	2back/STIM_035.jpg	100
2448.643	0.757	756.7	2back	Block4	2back/STIM_035.jpg	100
2453.244	0.436	435.6	2back	Block4	2back/STIM_035.jpg	100
2455.812	0.794	793.8	2back	Block4	2back/STIM_036.jpg	99
2459.753	0.61	610.0	2back	Block4	2back/STIM_036.jpg	100
2464.337	0.791	791.2	2back	Block4	2back/STIM_036.jpg	100
2468.879	0.601	600.8	2back	Block4	2back/STIM_037.jpg	100
2471.702	0.711	711.4	2back	Block4	2back/STIM_037.jpg	100
2475.894	1.082	1082.0	2back	Block4	2back/STIM_037.jpg	100
2479.684	0.688	687.5	2back	Block4	2back/STIM_038.jpg	100
2482.418	0.524	524.5	2back	Block4	2back/STIM_038.jpg	100
2485.889	0.711	710.8	2back	Block4	2back/STIM_038.jpg	100
2489.279	0.89	890.1	2back	Block4	2back/STIM_039.jpg	100
2493.033	0.789	789.2	2back	Block4	2back/STIM_039.jpg	99
2496.298	1.015	1014.8	2back	Block4	2back/STIM_039.jpg	100
2501.142	0.771	770.8	0back	Block4	0back/STIM_000.jpg	99
2505.504	0.871	870.9	0back	Block4	0back/STIM_000.jpg	99
2510.017	0.606	606.3	0back	Block4	0back/STIM_000.jpg	99
2512.607	0.48	480.0	0back	Block4	0back/STIM_001.jpg	100
2515.569	0.516	515.7	0back	Block4	0back/STIM_001.jpg	99
2518.773	0.711	711.3	0back	Block4	0back/STIM_001.jpg	99
2522.658	0.545	544.8	0back	Block4	0back/STIM_002.jpg	99
2526.855	0.806	806.4	0back	Block4	0back/STIM_002.jpg	100
2531.444	0.816	815.5	0back	Block4	0back/STIM_002.jpg	100
2535.594	0.818	818.5	0back	Block4	0back/STIM_003.jpg	99
2539.942	0.437	436.8	0back	Block4	0back/STIM_003.jpg	99
2543.986	0.496	495.9	0back	Block4	0back/STIM_003.jpg	99
2547.588	0.543	542.6	0back	Block4	0back/STIM_004.jpg	99
2551.86	0.752	751.5	0back	Block4	0back/STIM_004.jpg	100
2556.314	0.756	755.6	0back	Block4	0back/STIM_004.jpg	100
2559.488	0.679	678.9	0back	Block4	0back/STIM_005.jpg	99
2562.906	0.734	733.6	0back	Block4	0back/STIM_005.jpg	100
2566.306	0.888	888.0	0back	Block4	0back/STIM_005.jpg	99
2569.081	0.829	828.9	0back	Block4	0back/STIM_006.jpg	100
2572.412	0.432	431.5	0back	Block4	0back/STIM_006.jpg	99
2574.979	0.872	872.4	0back	Block4	0back/STIM_006.jpg	99
2578.435	0.794	794.2	0back	Block4	0back/STIM_007.jpg	99
2583.118	0.763	763.3	0back	Block4	0back/STIM_007.jpg	100
2586.796	0.677	677.0	0back	Block4	0back/STIM_007.jpg	99
2590.682	0.623	623.1	0back	Block4	0back/STIM_008.jpg	99
2594.344	0.822	821.9	0back	Block4	0back/STIM_008.jpg	99
2597.276	0.73	730.4	0back	Block4	0back/STIM_008.jpg	99
2600.924	0.798	797.8	0back	Block4	0back/STIM_009.jpg	99
2605.327	0.65	649.8	0back	Block4	0back/STIM_009.jpg	100
2608.861	0.54	539.5	0back	Block4	0back/STIM_009.jpg	99
2612.286	0.666	666.5	0back	Block4	0back/STIM_010.jpg	100
2616.557	0.678	677.9	0back	Block4	0back/STIM_010.jpg	99
2619.656	0.734	733.5	0back	Block4	0back/STIM_010.jpg	99
2623.902	0.73	730.4	0back	Block4	0back/STIM_011.jpg	100
2627.265	0.712	712.1	0back	Block4	0back/STIM_011.jpg	99
2631.261	0.841	840.7	0back	Block4	0back/STIM_011.jpg	100
2634.453	0.504	504.1	0back	Block4	0back/STIM_012.jpg	100
2637.498	0.786	785.6	0back	Block4	0back/STIM_012.jpg	99
2640.821	0.626	626.1	0back	Block4	0back/STIM_012.jpg	100
2643.922	0.568	567.9	0back	Block4	0back/STIM_013.jpg	100
2647.979	0.563	563.2	0back	Block4	0back/STIM_013.jpg	99
2651.594	0.646	646.1	0back	Block4	0back/STIM_013.jpg	100
2655.825	0.581	581.1	0back	Block4	0back/STIM_014.jpg	99
2658.374	0.532	531.5	0back	Block4	0back/STIM_014.jpg	99
2662.274	0.506	505.8	0back	Block4	0back/STIM_014.jpg	99
2665.299	0.763	762.6	0back	Block4	0back/STIM_015.jpg	100
2669.558	0.64	640.3	0back	Block4	0back/STIM_015.jpg	99
2673.743	0.615	615.0	0back	Block4	0back/STIM_015.jpg	100
2678.331	0.879	878.6	0back	Block4	0back/STIM_016.jpg	100
2682.798	0.6	600.2	0back	Block4	0back/STIM_016.jpg	100
2687.387	0.479	478.9	0back	Block4	0back/STIM_016.jpg	99
2691.63	0.762	762.5	0back	Block4	0back/STIM_017.jpg	99
2695.691	0.561	560.8	0back	Block4	0back/STIM_017.jpg	99
2699.14	0.848	848.5	0back	Block4	0back/STIM_017.jpg	100
2703.505	0.621	620.9	0back	Block4	0back/STIM_018.jpg	100
2707.221	0.566	565.9	0back	Block4	0back/STIM_018.jpg	100
2711.17	0.586	585.8	0back	Block4	0back/STIM_018.jpg	100
2714.467	0.86	859.7	0back	Block4	0back/STIM_019.jpg	100
2718.025	0.763	763.3	0back	Block4	0back/STIM_019.jpg	99
2721.83	0.832	832.0	0back	Block4	0back/STIM_019.jpg	100
