onset	duration	response_time_ms	trial_type	learning_stage	stimulus	response_port
0.0	1.231	1230.6	2back	Block1	2back/STIM_000.jpg	99
3.829	0.814	813.6	2back	Block1	2back/STIM_000.jpg	100
6.702	0.931	930.8	2back	Block1	2back/STIM_000.jpg	100
11.211	0.819	819.2	2back	Block1	2back/STIM_001.jpg	100
15.466	0.89	890.1	2back	Block1	2back/STIM_001.jpg	99
20.255	0.829	829.3	2back	Block1	2back/STIM_001.jpg	100
24.995	1.063	1062.9	2back	Block1	2back/STIM_002.jpg	100
29.786	0.692	692.0	2back	Block1	2back/STIM_002.jpg	99
33.735	0.962	962.4	2back	Block1	2back/STIM_002.jpg	100
38.678	1.227	1227.2	2back	Block1	2back/STIM_003.jpg	99
43.736	1.194	1193.7	2back	Block1	2back/STIM_003.jpg	100
46.949	0.631	630.9	2back	Block1	2back/STIM_003.jpg	99
49.901	0.597	597.3	2back	Block1	2back/STIM_004.jpg	99
52.762	0.808	807.7	2back	Block1	2back/STIM_004.jpg	99
56.398	0.822	822.2	2back	Block1	2back/STIM_004.jpg	100
59.723	0.572	571.8	2back	Block1	2back/STIM_005.jpg	99
64.181	0.894	894.5	2back	Block1	2back/STIM_005.jpg	100
67.934	0.65	650.4	2back	Block1	2back/STIM_005.jpg	99
70.951	0.831	830.8	2back	Block1	2back/STIM_006.jpg	100
75.527	0.665	664.9	2back	Block1	2back/STIM_006.jpg	100
79.543	0.76	760.4	2back	Block1	2back/STIM_006.jpg	99
82.61	1.192	1191.9	2back	Block1	2back/STIM_007.jpg	100
86.792	0.857	856.6	2back	Block1	2back/STIM_007.jpg	99
90.799	0.589	589.4	2back	Block1	2back/STIM_007.jpg	100
94.356	1.078	1078.5	2back	Block1	2back/STIM_008.jpg	99
98.702	0.898	897.8	2back	Block1	2back/STIM_008.jpg	100
103.34	0.54	540.5	2back	Block1	2back/STIM_008.jpg	99
106.636	1.111	1110.8	2back	Block1	2back/STIM_009.jpg	100
111.104	0.574	574.1	2back	Block1	2back/STIM_009.jpg	99
113.73	1.018	1017.8	2back	Block1	2back/STIM_009.jpg	100
117.055	0.775	774.6	2back	Block1	2back/STIM_010.jpg	99
120.012	0.907	906.9	2back	Block1	2back/STIM_010.jpg	100
123.27	0.886	885.9	2back	Block1	2back/STIM_010.jpg	100
127.969	0.917	917.4	2back	Block1	2back/STIM_011.jpg	99
131.366	0.759	759.2	2back	Block1	2back/STIM_011.jpg	100
135.763	0.815	815.1	2back	Block1	2back/STIM_011.jpg	99
140.093	1.242	1241.5	2back	Block1	2back/STIM_012.jpg	99
144.271	0.921	921.2	2back	Block1	2back/STIM_012.jpg	99
147.664	0.625	624.9	2back	Block1	2back/STIM_012.jpg	99
151.33	1.035	1034.9	2back	Block1	2back/STIM_013.jpg	99
156.056	0.724	723.6	2back	Block1	2back/STIM_013.jpg	100
160.161	0.925	925.4	2back	Block1	2back/STIM_013.jpg	100
164.662	1.187	1187.0	2back	Block1	2back/STIM_014.jpg	100
168.911	0.919	918.6	2back	Block1	2back/STIM_014.jpg	99
172.138	0.507	507.3	2back	Block1	2back/STIM_014.jpg	99
175.409	1.251	1250.7	2back	Block1	2back/STIM_015.jpg	100
179.956	1.155	1155.2	2back	Block1	2back/STIM_015.jpg	99
184.937	0.802	802.4	2back	Block1	2back/STIM_015.jpg	100
188.085	0.557	557.2	2back	Block1	2back/STIM_016.jpg	99
191.448	0.692	692.2	2back	Block1	2back/STIM_016.jpg	99
195.739	1.091	1090.7	2back	Block1	2back/STIM_016.jpg	100
200.006	0.675	675.2	2back	Block1	2back/STIM_017.jpg	99
204.394	1.084	1084.5	2back	Block1	2back/STIM_017.jpg	99
207.832	0.492	491.7	2back	Block1	2back/STIM_017.jpg	100
212.197	0.702	702.2	2back	Block1	2back/STIM_018.jpg	99
215.097	0.874	873.6	2back	Block1	2back/STIM_018.jpg	99
219.469	0.881	880.8	2back	Block1	2back/STIM_018.jpg	100
223.692	0.943	943.0	2back	Block1	2back/STIM_019.jpg	100
227.575	0.88	879.7	2back	Block1	2back/STIM_019.jpg	99
232.42	0.576	575.8	2back	Block1	2back/STIM_019.jpg	99
236.318	0.946	946.2	2back	Block1	2back/STIM_020.jpg	99
239.594	1.161	1161.0	2back	Block1	2back/STIM_020.jpg	100
243.468	0.67	670.1	2back	Block1	2back/STIM_020.jpg	100
247.731	1.077	1076.8	2back	Block1	2back/STIM_021.jpg	100
251.18	1.164	1164.5	2back	Block1	2back/STIM_021.jpg	100
256.027	0.608	607.6	2back	Block1	2back/STIM_021.jpg	100
260.57	0.792	791.8	2back	Block1	2back/STIM_022.jpg	99
264.6	0.555	555.4	2back	Block1	2back/STIM_022.jpg	100
267.307	0.521	520.7	2back	Block1	2back/STIM_022.jpg	99
270.279	1.242	1241.6	2back	Block1	2back/STIM_023.jpg	100
275.05	0.608	608.4	2back	Block1	2back/STIM_023.jpg	100
278.838	0.811	811.4	2back	Block1	2back/STIM_023.jpg	99
282.168	1.179	1179.3	2back	Block1	2back/STIM_024.jpg	100
285.467	0.553	552.7	2back	Block1	2back/STIM_024.jpg	99
289.403	0.73	730.4	2back	Block1	2back/STIM_024.jpg	99
293.383	0.736	735.6	2back	Block1	2back/STIM_025.jpg	99
297.084	1.089	1088.6	2back	Block1	2back/STIM_025.jpg	100
301.349	0.988	988.4	2back	Block1	2back/STIM_025.jpg	99
304.583	0.964	963.9	2back	Block1	2back/STIM_026.jpg	100
308.98	1.157	1157.3	2back	Block1	2back/STIM_026.jpg	100
313.268	0.903	902.8	2back	Block1	2back/STIM_026.jpg	100
316.295	0.628	627.8	2back	Block1	2back/STIM_027.jpg	100
320.457	0.732	732.0	2back	Block1	2back/STIM_027.jpg	100
324.535	0.856	856.2	2back	Block1	2back/STIM_027.jpg	100
327.987	0.634	633.9	2back	Block1	2back/STIM_028.jpg	99
331.861	0.792	792.5	2back	Block1	2back/STIM_028.jpg	100
336.005	0.492	492.2	2back	Block1	2back/STIM_028.jpg	100
339.771	0.611	610.8	2back	Block1	2back/STIM_029.jpg	100
342.567	0.993	992.9	2back	Block1	2back/STIM_029.jpg	99
345.665	0.946	946.3	2back	Block1	2back/STIM_029.jpg	99
350.256	1.247	1246.8	2back	Block1	2back/STIM_030.jpg	100
354.292	0.857	857.0	2back	Block1	2back/STIM_030.jpg	99
357.942	0.554	553.9	2back	Block1	2back/STIM_030.jpg	99
361.276	0.618	618.0	2back	Block1	2back/STIM_031.jpg	100
364.332	1.012	1012.2	2back	Block1	2back/STIM_031.jpg	100
368.478	0.689	689.3	2back	Block1	2back/STIM_031.jpg	100
372.474	0.676	676.2	2back	Block1	2back/STIM_032.jpg	99
376.601	0.798	798.5	2back	Block1	2back/STIM_032.jpg	100
379.544	1.13	1129.5	2back	Block1	2back/STIM_032.jpg	100
382.855	1.158	1157.5	2back	Block1	2back/STIM_033.jpg	100
387.962	1.177	1176.8	2back	Block1	2back/STIM_033.jpg	99
392.144	0.646	646.0	2back	Block1	2back/STIM_033.jpg	100
395.765	0.931	931.1	2back	Block1	2back/STIM_034.jpg	99
398.81	0.792	792.4	2back	Block1	2back/STIM_034.jpg	99
402.852	1.037	1036.7	2back	Block1	2back/STIM_034.jpg	100
406.992	0.905	905.0	2back	Block1	2back/STIM_035.jpg	99
411.301	0.774	774.5	2back	Block1	2back/STIM_035.jpg	100
414.987	0.55	550.3	2back	Block1	2back/STIM_035.jpg	100
418.45	1.235	1234.6	2back	Block1	2back/STIM_036.jpg	100
422.093	0.538	538.0	2back	Block1	2back/STIM_036.jpg	100
426.487	1.105	1104.8	2back	Block1	2back/STIM_036.jpg	100
431.127	0.793	792.7	2back	Block1	2back/STIM_037.jpg	100
434.851	1.167	1167.2	2back	Block1	2back/STIM_037.jpg	99
439.455	0.866	866.1	2back	Block1	2back/STIM_037.jpg	99
443.427	0.759	758.9	2back	Block1	2back/STIM_038.jpg	100
448.129	0.798	797.6	2back	Block1	2back/STIM_038.jpg	100
451.507	0.953	953.2	2back	Block1	2back/STIM_038.jpg	100
456.349	1.006	1005.8	2back	Block1	2back/STIM_039.jpg	100
461.178	0.876	876.4	2back	Block1	2back/STIM_039.jpg	99
465.322	0.849	848.9	2back	Block1	2back/STIM_039.jpg	100
469.846	0.509	509.0	0back	Block1	0back/STIM_000.jpg	99
472.534	0.706	705.7	0back	Block1	0back/STIM_000.jpg	99
476.491	0.677	677.4	0back	Block1	0back/STIM_000.jpg	100
479.307	0.493	493.1	0back	Block1	0back/STIM_001.jpg	100
483.044	0.425	425.0	0back	Block1	0back/STIM_001.jpg	99
486.183	0.561	561.1	0back	Block1	0back/STIM_001.jpg	99
490.588	0.709	709.1	0back	Block1	0back/STIM_002.jpg	100
494.745	0.501	501.0	0back	Block1	0back/STIM_002.jpg	99
499.028	0.7	699.7	0back	Block1	0back/STIM_002.jpg	100
502.713	0.389	389.1	0back	Block1	0back/STIM_003.jpg	100
506.389	0.373	372.9	0back	Block1	0back/STIM_003.jpg	100
510.589	0.579	579.2	0back	Block1	0back/STIM_003.jpg	99
513.786	0.525	525.1	0back	Block1	0back/STIM_004.jpg	100
517.169	0.592	591.7	0back	Block1	0back/STIM_004.jpg	99
520.908	0.641	640.9	0back	Block1	0back/STIM_004.jpg	100
524.623	0.585	584.7	0back	Block1	0back/STIM_005.jpg	100
528.438	0.395	394.7	0back	Block1	0back/STIM_005.jpg	99
532.607	0.693	693.2	0back	Block1	0back/STIM_005.jpg	99
536.966	0.504	503.7	0back	Block1	0back/STIM_006.jpg	99
540.522	0.452	451.7	0back	Block1	0back/STIM_006.jpg	99
543.045	0.7	700.3	0back	Block1	0back/STIM_006.jpg	99
546.556	0.502	501.8	0back	Block1	0back/STIM_007.jpg	100
549.296	0.428	427.6	0back	Block1	0back/STIM_007.jpg	99
552.435	0.568	568.5	0back	Block1	0back/STIM_007.jpg	100
556.485	0.665	665.0	0back	Block1	0back/STIM_008.jpg	99
560.434	0.581	581.1	0back	Block1	0back/STIM_008.jpg	100
564.76	0.716	715.7	0back	Block1	0back/STIM_008.jpg	100
569.386	0.474	473.9	0back	Block1	0back/STIM_009.jpg	100
572.65	0.628	628.3	0back	Block1	0back/STIM_009.jpg	99
575.494	0.597	596.7	0back	Block1	0back/STIM_009.jpg	100
579.477	0.619	618.7	0back	Block1	0back/STIM_010.jpg	100
583.415	0.513	512.8	0back	Block1	0back/STIM_010.jpg	100
587.465	0.539	539.2	0back	Block1	0back/STIM_010.jpg	100
590.018	0.516	516.3	0back	Block1	0back/STIM_011.jpg	100
592.88	0.546	546.0	0back	Block1	0back/STIM_011.jpg	99
596.908	0.521	520.8	0back	Block1	0back/STIM_011.jpg	100
599.789	0.583	582.9	0back	Block1	0back/STIM_012.jpg	99
602.893	0.505	504.9	0back	Block1	0back/STIM_012.jpg	99
606.345	0.378	378.4	0back	Block1	0back/STIM_012.jpg	100
610.222	0.572	571.7	0back	Block1	0back/STIM_013.jpg	100
614.431	0.634	634.0	0back	Block1	0back/STIM_013.jpg	99
618.068	0.449	449.3	0back	Block1	0back/STIM_013.jpg	100
621.505	0.424	423.8	0back	Block1	0back/STIM_014.jpg	99
624.437	0.634	633.8	0back	Block1	0back/STIM_014.jpg	100
628.685	0.704	704.5	0back	Block1	0back/STIM_014.jpg	100
632.151	0.671	670.7	0back	Block1	0back/STIM_015.jpg	100
634.86	0.461	461.2	0back	Block1	0back/STIM_015.jpg	99
638.117	0.643	643.1	0back	Block1	0back/STIM_015.jpg	99
642.195	0.573	573.3	0back	Block1	0back/STIM_016.jpg	100
645.596	0.41	409.8	0back	Block1	0back/STIM_016.jpg	100
648.092	0.683	682.7	0back	Block1	0back/STIM_016.jpg	100
650.82	0.715	715.1	0back	Block1	0back/STIM_017.jpg	100
654.722	0.693	693.1	0back	Block1	0back/STIM_017.jpg	99
658.835	0.701	701.3	0back	Block1	0back/STIM_017.jpg	99
663.506	0.565	565.4	0back	Block1	0back/STIM_018.jpg	99
666.703	0.627	627.2	0back	Block1	0back/STIM_018.jpg	100
670.226	0.54	540.3	0back	Block1	0back/STIM_018.jpg	99
674.087	0.46	460.5	0back	Block1	0back/STIM_019.jpg	100
678.262	0.642	641.7	0back	Block1	0back/STIM_019.jpg	100
681.59	0.565	564.9	0back	Block1	0back/STIM_019.jpg	99
684.246	0.91	910.4	2back	Block2	2back/STIM_000.jpg	99
688.686	0.572	571.8	2back	Block2	2back/STIM_000.jpg	100
691.889	0.492	491.5	2back	Block2	2back/STIM_000.jpg	100
694.551	0.722	722.3	2back	Block2	2back/STIM_001.jpg	99
698.16	0.629	628.8	2back	Block2	2back/STIM_001.jpg	100
701.5	0.788	788.1	2back	Block2	2back/STIM_001.jpg	100
704.352	0.782	782.3	2back	Block2	2back/STIM_002.jpg	100
708.714	0.918	918.2	2back	Block2	2back/STIM_002.jpg	99
713.578	0.611	610.6	2back	Block2	2back/STIM_002.jpg	99
717.387	0.908	907.6	2back	Block2	2back/STIM_003.jpg	99
720.39	0.735	734.8	2back	Block2	2back/STIM_003.jpg	100
724.486	0.596	596.0	2back	Block2	2back/STIM_003.jpg	99
728.057	0.789	788.6	2back	Block2	2back/STIM_004.jpg	99
731.98	0.46	460.4	2back	Block2	2back/STIM_004.jpg	99
735.541	0.676	676.2	2back	Block2	2back/STIM_004.jpg	100
738.71	0.814	814.0	2back	Block2	2back/STIM_005.jpg	99
741.531	0.943	943.1	2back	Block2	2back/STIM_005.jpg	100
746.108	0.676	675.8	2back	Block2	2back/STIM_005.jpg	100
748.88	0.629	628.7	2back	Block2	2back/STIM_006.jpg	100
753.395	0.464	463.8	2back	Block2	2back/STIM_006.jpg	100
757.166	0.85	850.4	2back	Block2	2back/STIM_006.jpg	100
761.075	1.018	1017.5	2back	Block2	2back/STIM_007.jpg	99
766.002	0.554	553.9	2back	Block2	2back/STIM_007.jpg	99
769.558	0.621	620.6	2back	Block2	2back/STIM_007.jpg	100
773.576	0.531	530.6	2back	Block2	2back/STIM_008.jpg	99
777.49	0.695	695.4	2back	Block2	2back/STIM_008.jpg	99
780.208	0.678	678.1	2back	Block2	2back/STIM_008.jpg	100
784.694	0.996	996.2	2back	Block2	2back/STIM_009.jpg	99
788.428	0.592	592.4	2back	Block2	2back/STIM_009.jpg	99
791.832	0.934	933.9	2back	Block2	2back/STIM_009.jpg	99
795.81	0.803	803.2	2back	Block2	2back/STIM_010.jpg	100
800.163	0.5	499.8	2back	Block2	2back/STIM_010.jpg	99
803.55	0.482	482.4	2back	Block2	2back/STIM_010.jpg	99
806.144	0.697	697.0	2back	Block2	2back/STIM_011.jpg	99
809.219	0.858	858.1	2back	Block2	2back/STIM_011.jpg	100
813.172	0.755	755.0	2back	Block2	2back/STIM_011.jpg	100
816.087	0.917	916.8	2back	Block2	2back/STIM_012.jpg	100
820.011	0.979	978.7	2back	Block2	2back/STIM_012.jpg	100
823.073	0.432	432.1	2back	Block2	2back/STIM_012.jpg	99
827.153	0.953	953.1	2back	Block2	2back/STIM_013.jpg	100
831.067	0.689	688.9	2back	Block2	2back/STIM_013.jpg	99
835.521	0.598	597.7	2back	Block2	2back/STIM_013.jpg	100
839.98	1.047	1047.1	2back	Block2	2back/STIM_014.jpg	100
843.546	0.456	455.6	2back	Block2	2back/STIM_014.jpg	99
847.917	0.67	669.9	2back	Block2	2back/STIM_014.jpg	99
851.531	0.918	918.1	2back	Block2	2back/STIM_015.jpg	100
855.107	0.809	809.1	2back	Block2	2back/STIM_015.jpg	99
858.42	0.854	853.7	2back	Block2	2back/STIM_015.jpg	100
861.634	0.921	920.7	2back	Block2	2back/STIM_016.jpg	100
864.941	0.877	877.1	2back	Block2	2back/STIM_016.jpg	99
869.1	0.695	695.0	2back	Block2	2back/STIM_016.jpg	100
872.202	0.687	687.1	2back	Block2	2back/STIM_017.jpg	100
875.445	0.779	778.7	2back	Block2	2back/STIM_017.jpg	99
879.467	0.831	831.4	2back	Block2	2back/STIM_017.jpg	100
882.569	0.988	988.0	2back	Block2	2back/STIM_018.jpg	100
887.157	0.876	876.5	2back	Block2	2back/STIM_018.jpg	99
891.065	0.842	842.2	2back	Block2	2back/STIM_018.jpg	100
895.834	0.947	946.8	2back	Block2	2back/STIM_019.jpg	100
899.112	0.822	821.7	2back	Block2	2back/STIM_019.jpg	100
903.876	0.453	452.7	2back	Block2	2back/STIM_019.jpg	99
908.1	0.992	991.6	2back	Block2	2back/STIM_020.jpg	99
912.487	0.466	465.6	2back	Block2	2back/STIM_020.jpg	99
915.924	0.597	596.8	2back	Block2	2back/STIM_020.jpg	99
919.997	0.791	791.0	2back	Block2	2back/STIM_021.jpg	100
923.407	0.654	653.7	2back	Block2	2back/STIM_021.jpg	100
927.022	0.85	850.3	2back	Block2	2back/STIM_021.jpg	100
931.291	0.687	687.0	2back	Block2	2back/STIM_022.jpg	99
935.712	0.594	594.0	2back	Block2	2back/STIM_022.jpg	100
940.273	0.524	523.5	2back	Block2	2back/STIM_022.jpg	99
943.37	1.002	1001.8	2back	Block2	2back/STIM_023.jpg	100
947.336	0.521	521.4	2back	Block2	2back/STIM_023.jpg	99
951.3	0.435	435.2	2back	Block2	2back/STIM_023.jpg	100
953.743	0.541	540.8	2back	Block2	2back/STIM_024.jpg	99
957.25	0.839	838.7	2back	Block2	2back/STIM_024.jpg	99
961.335	0.448	447.8	2back	Block2	2back/STIM_024.jpg	100
965.086	0.649	648.6	2back	Block2	2back/STIM_025.jpg	100
969.335	0.872	872.4	2back	Block2	2back/STIM_025.jpg	100
972.712	0.705	704.6	2back	Block2	2back/STIM_025.jpg	99
976.017	0.914	914.4	2back	Block2	2back/STIM_026.jpg	100
979.53	0.623	623.1	2back	Block2	2back/STIM_026.jpg	99
982.465	0.625	625.1	2back	Block2	2back/STIM_026.jpg	99
986.97	0.615	614.6	2back	Block2	2back/STIM_027.jpg	100
990.18	0.73	729.6	2back	Block2	2back/STIM_027.jpg	100
993.255	0.527	527.1	2back	Block2	2back/STIM_027.jpg	99
997.424	0.535	535.0	2back	Block2	2back/STIM_028.jpg	100
1000.483	0.783	783.4	2back	Block2	2back/STIM_028.jpg	99
1005.134	0.574	573.5	2back	Block2	2back/STIM_028.jpg	99
1008.391	0.698	698.0	2back	Block2	2back/STIM_029.jpg	99
1011.95	0.452	452.2	2back	Block2	2back/STIM_029.jpg	100
1015.313	0.888	887.6	2back	Block2	2back/STIM_029.jpg	100
1019.43	0.849	848.9	2back	Block2	2back/STIM_030.jpg	100
1023.708	0.766	765.9	2back	Block2	2back/STIM_030.jpg	99
1026.564	0.602	601.6	2back	Block2	2back/STIM_030.jpg	99
1030.036	0.919	919.4	2back	Block2	2back/STIM_031.jpg	100
1034.871	0.827	827.2	2back	Block2	2back/STIM_031.jpg	100
1038.608	0.549	548.6	2back	Block2	2back/STIM_031.jpg	100
1042.178	0.951	950.6	2back	Block2	2back/STIM_032.jpg	99
1046.173	0.984	984.2	2back	Block2	2back/STIM_032.jpg	100
1050.292	0.916	915.5	2back	Block2	2back/STIM_032.jpg	99
1053.431	0.892	891.7	2back	Block2	2back/STIM_033.jpg	100
1056.687	0.651	651.3	2back	Block2	2back/STIM_033.jpg	100
1060.921	0.41	410.5	2back	Block2	2back/STIM_033.jpg	99
1064.049	0.684	683.7	2back	Block2	2back/STIM_034.jpg	99
1067.556	0.985	985.4	2back	Block2	2back/STIM_034.jpg	99
1071.519	0.73	729.9	2back	Block2	2back/STIM_034.jpg	99
1074.802	0.508	508.3	2back	Block2	2back/STIM_035.jpg	100
1078.768	0.963	963.3	2back	Block2	2back/STIM_035.jpg	100
1082.822	0.414	413.9	2back	Block2	2back/STIM_035.jpg	100
1085.281	0.588	588.5	2back	Block2	2back/STIM_036.jpg	99
1088.3	0.434	434.0	2back	Block2	2back/STIM_036.jpg	100
1092.213	0.936	935.8	2back	Block2	2back/STIM_036.jpg	99
1096.238	0.519	519.2	2back	Block2	2back/STIM_037.jpg	99
1099.901	0.614	613.6	2back	Block2	2back/STIM_037.jpg	100
1102.726	0.606	605.9	2back	Block2	2back/STIM_037.jpg	100
1106.347	0.768	768.3	2back	Block2	2back/STIM_038.jpg	100
1109.951	0.639	639.4	2back	Block2	2back/STIM_038.jpg	100
1114.575	0.667	667.0	2back	Block2	2back/STIM_038.jpg	99
1119.21	0.852	852.1	2back	Block2	2back/STIM_039.jpg	99
1123.437	0.704	703.9	2back	Block2	2back/STIM_039.jpg	100
1126.182	0.525	524.7	2back	Block2	2back/STIM_039.jpg	100
1130.626	0.362	361.8	0back	Block2	0back/STIM_000.jpg	99
1134.796	0.677	677.3	0back	Block2	0back/STIM_000.jpg	100
1138.33	0.657	657.4	0back	Block2	0back/STIM_000.jpg	100
1141.104	0.558	558.1	0back	Block2	0back/STIM_001.jpg	100
1144.886	0.528	528.2	0back	Block2	0back/STIM_001.jpg	99
1148.221	0.586	586.5	0back	Block2	0back/STIM_001.jpg	99
1150.953	0.561	560.6	0back	Block2	0back/STIM_002.jpg	100
1155.471	0.526	526.4	0back	Block2	0back/STIM_002.jpg	100
1158.877	0.53	530.5	0back	Block2	0back/STIM_002.jpg	100
1161.791	0.372	371.7	0back	Block2	0back/STIM_003.jpg	100
1164.457	0.4	399.8	0back	Block2	0back/STIM_003.jpg	100
1168.148	0.601	601.3	0back	Block2	0back/STIM_003.jpg	99
1171.157	0.559	559.2	0back	Block2	0back/STIM_004.jpg	100
1174.592	0.685	685.2	0back	Block2	0back/STIM_004.jpg	99
1177.595	0.487	487.0	0back	Block2	0back/STIM_004.jpg	99
1181.322	0.662	662.1	0back	Block2	0back/STIM_005.jpg	99
1185.618	0.685	684.8	0back	Block2	0back/STIM_005.jpg	99
1189.55	0.476	475.5	0back	Block2	0back/STIM_005.jpg	99
1192.423	0.405	405.3	0back	Block2	0back/STIM_006.jpg	99
1194.861	0.492	491.5	0back	Block2	0back/STIM_006.jpg	100
1197.732	0.668	668.0	0back	Block2	0back/STIM_006.jpg	100
1201.294	0.6	600.3	0back	Block2	0back/STIM_007.jpg	100
1205.44	0.466	466.0	0back	Block2	0back/STIM_007.jpg	100
1209.793	0.565	565.0	0back	Block2	0back/STIM_007.jpg	99
1212.842	0.708	708.0	0back	Block2	0back/STIM_008.jpg	100
1215.592	0.659	658.8	0back	Block2	0back/STIM_008.jpg	99
1220.042	0.673	673.4	0back	Block2	0back/STIM_008.jpg	100
1224.555	0.406	406.0	0back	Block2	0back/STIM_009.jpg	100
1227.581	0.624	623.5	0back	Block2	0back/STIM_009.jpg	100
1230.737	0.493	492.7	0back	Block2	0back/STIM_009.jpg	99
1233.614	0.43	430.1	0back	Block2	0back/STIM_010.jpg	100
1237.369	0.431	430.9	0back	Block2	0back/STIM_010.jpg	100
1240.195	0.402	402.4	0back	Block2	0back/STIM_010.jpg	99
1244.17	0.548	548.1	0back	Block2	0back/STIM_011.jpg	99
1248.298	0.643	642.7	0back	Block2	0back/STIM_011.jpg	100
1251.414	0.498	497.6	0back	Block2	0back/STIM_011.jpg	100
1254.873	0.657	656.8	0back	Block2	0back/STIM_012.jpg	100
1258.498	0.658	657.6	0back	Block2	0back/STIM_012.jpg	99
1261.22	0.44	439.7	0back	Block2	0back/STIM_012.jpg	100
1264.048	0.645	644.8	0back	Block2	0back/STIM_013.jpg	100
1267.872	0.632	632.0	0back	Block2	0back/STIM_013.jpg	99
1270.92	0.597	597.2	0back	Block2	0back/STIM_013.jpg	100
1275.363	0.572	571.8	0back	Block2	0back/STIM_014.jpg	99
1278.25	0.411	410.9	0back	Block2	0back/STIM_014.jpg	99
1282.165	0.7	700.3	0back	Block2	0back/STIM_014.jpg	99
1285.814	0.549	549.0	0back	Block2	0back/STIM_015.jpg	99
1289.045	0.616	616.0	0back	Block2	0back/STIM_015.jpg	100
1293.144	0.69	690.3	0back	Block2	0back/STIM_015.jpg	99
1295.902	0.57	570.4	0back	Block2	0back/STIM_016.jpg	99
1300.198	0.559	558.9	0back	Block2	0back/STIM_016.jpg	99
1302.871	0.545	545.1	0back	Block2	0back/STIM_016.jpg	99
1306.565	0.402	402.2	0back	Block2	0back/STIM_017.jpg	100
1310.367	0.695	695.3	0back	Block2	0back/STIM_017.jpg	99
1315.006	0.491	491.1	0back	Block2	0back/STIM_017.jpg	99
1318.309	0.584	584.0	0back	Block2	0back/STIM_018.jpg	100
1322.475	0.431	430.7	0back	Block2	0back/STIM_018.jpg	100
1326.276	0.5	500.0	0back	Block2	0back/STIM_018.jpg	100
1330.501	0.669	668.9	0back	Block2	0back/STIM_019.jpg	100
1334.254	0.446	445.9	0back	Block2	0back/STIM_019.jpg	100
1338.518	0.404	404.1	0back	Block2	0back/STIM_019.jpg	99
1341.42	0.786	786.2	2back	Block3	2back/STIM_000.jpg	99
1344.644	0.476	476.5	2back	Block3	2back/STIM_000.jpg	100
1348.641	0.796	796.3	2back	Block3	2back/STIM_000.jpg	100
1352.937	0.532	532.3	2back	Block3	2back/STIM_001.jpg	100
1355.645	0.703	703.3	2back	Block3	2back/STIM_001.jpg	100
1360.246	0.511	511.0	2back	Block3	2back/STIM_001.jpg	99
1363.806	0.724	723.7	2back	Block3	2back/STIM_002.jpg	100
1367.911	0.568	568.4	2back	Block3	2back/STIM_002.jpg	99
1371.105	0.528	528.2	2back	Block3	2back/STIM_002.jpg	100
1374.432	0.532	532.3	2back	Block3	2back/STIM_003.jpg	100
1376.974	0.738	737.6	2back	Block3	2back/STIM_003.jpg	99
1381.345	0.797	797.4	2back	Block3	2back/STIM_003.jpg	99
1384.942	0.746	746.1	2back	Block3	2back/STIM_004.jpg	99
1387.982	0.845	845.4	2back	Block3	2back/STIM_004.jpg	100
1392.687	0.821	820.6	2back	Block3	2back/STIM_004.jpg	100
1396.528	0.771	771.0	2back	Block3	2back/STIM_005.jpg	100
1400.781	0.397	396.7	2back	Block3	2back/STIM_005.jpg	99
1404.177	0.436	435.8	2back	Block3	2back/STIM_005.jpg	99
1406.881	0.826	825.5	2back	Block3	2back/STIM_006.jpg	100
1409.885	0.585	585.0	2back	Block3	2back/STIM_006.jpg	99
1412.836	0.564	564.2	2back	Block3	2back/STIM_006.jpg	100
1415.55	0.493	492.7	2back	Block3	2back/STIM_007.jpg	99
1418.266	0.663	662.6	2back	Block3	2back/STIM_007.jpg	100
1422.852	0.614	614.0	2back	Block3	2back/STIM_007.jpg	99
1425.766	0.408	407.9	2back	Block3	2back/STIM_008.jpg	99
1429.249	0.399	398.8	2back	Block3	2back/STIM_008.jpg	99
1431.996	0.628	628.2	2back	Block3	2back/STIM_008.jpg	99
1436.17	0.826	825.7	2back	Block3	2back/STIM_009.jpg	100
1440.038	0.648	648.0	2back	Block3	2back/STIM_009.jpg	100
1443.634	0.406	406.4	2back	Block3	2back/STIM_009.jpg	99
1446.602	0.821	820.9	2back	Block3	2back/STIM_010.jpg	99
1450.834	0.739	738.9	2back	Block3	2back/STIM_010.jpg	99
1454.691	0.875	874.9	2back	Block3	2back/STIM_010.jpg	99
1457.621	0.669	668.9	2back	Block3	2back/STIM_011.jpg	100
1462.095	0.772	772.5	2back	Block3	2back/STIM_011.jpg	100
1465.264	0.448	448.0	2back	Block3	2back/STIM_011.jpg	99
1468.773	0.497	497.2	2back	Block3	2back/STIM_012.jpg	100
1472.161	0.753	753.0	2back	Block3	2back/STIM_012.jpg	99
1476.573	0.519	518.7	2back	Block3	2back/STIM_012.jpg	99
1479.684	0.625	624.8	2back	Block3	2back/STIM_013.jpg	100
1483.456	0.484	483.5	2back	Block3	2back/STIM_013.jpg	100
1486.912	0.732	732.3	2back	Block3	2back/STIM_013.jpg	99
1489.878	0.66	660.3	2back	Block3	2back/STIM_014.jpg	100
1493.031	0.858	858.1	2back	Block3	2back/STIM_014.jpg	100
1497.715	0.85	850.1	2back	Block3	2back/STIM_014.jpg	100
1502.519	0.744	744.3	2back	Block3	2back/STIM_015.jpg	100
1505.419	0.778	778.1	2back	Block3	2back/STIM_015.jpg	99
1508.844	0.542	541.9	2back	Block3	2back/STIM_015.jpg	100
1513.367	0.43	429.6	2back	Block3	2back/STIM_016.jpg	99
1517.473	0.386	386.2	2back	Block3	2back/STIM_016.jpg	99
1520.666	0.75	750.1	2back	Block3	2back/STIM_016.jpg	99
1523.647	0.416	416.5	2back	Block3	2back/STIM_017.jpg	99
1527.582	0.485	485.1	2back	Block3	2back/STIM_017.jpg	99
1530.756	0.88	879.5	2back	Block3	2back/STIM_017.jpg	100
1534.698	0.872	871.5	2back	Block3	2back/STIM_018.jpg	100
1537.949	0.427	426.9	2back	Block3	2back/STIM_018.jpg	100
1542.261	0.546	546.1	2back	Block3	2back/STIM_018.jpg	100
1545.688	0.78	780.2	2back	Block3	2back/STIM_019.jpg	100
1549.968	0.712	711.8	2back	Block3	2back/STIM_019.jpg	100
1553.02	0.435	434.8	2back	Block3	2back/STIM_019.jpg	100
1557.44	0.829	828.8	2back	Block3	2back/STIM_020.jpg	100
1560.642	0.806	806.3	2back	Block3	2back/STIM_020.jpg	100
1565.012	0.438	438.3	2back	Block3	2back/STIM_020.jpg	99
1568.047	0.593	593.2	2back	Block3	2back/STIM_021.jpg	99
1571.617	0.836	835.7	2back	Block3	2back/STIM_021.jpg	100
1574.675	0.409	409.1	2back	Block3	2back/STIM_021.jpg	100
1578.295	0.808	808.3	2back	Block3	2back/STIM_022.jpg	99
1581.43	0.412	411.6	2back	Block3	2back/STIM_022.jpg	100
1584.533	0.652	651.7	2back	Block3	2back/STIM_022.jpg	100
1587.58	0.641	641.3	2back	Block3	2back/STIM_023.jpg	100
1591.089	0.385	385.2	2back	Block3	2back/STIM_023.jpg	100
1593.737	0.711	711.4	2back	Block3	2back/STIM_023.jpg	99
1598.009	0.61	609.9	2back	Block3	2back/STIM_024.jpg	100
1601.749	0.736	736.2	2back	Block3	2back/STIM_024.jpg	100
1605.941	0.41	410.3	2back	Block3	2back/STIM_024.jpg	99
1608.633	0.874	873.7	2back	Block3	2back/STIM_025.jpg	100
1612.915	0.845	845.0	2back	Block3	2back/STIM_025.jpg	100
1617.679	0.642	641.8	2back	Block3	2back/STIM_025.jpg	100
1621.753	0.848	847.9	2back	Block3	2back/STIM_026.jpg	99
1624.798	0.679	678.7	2back	Block3	2back/STIM_026.jpg	99
1628.165	0.497	497.4	2back	Block3	2back/STIM_026.jpg	99
1630.695	0.708	707.7	2back	Block3	2back/STIM_027.jpg	100
1634.285	0.38	380.3	2back	Block3	2back/STIM_027.jpg	99
1638.34	0.769	768.6	2back	Block3	2back/STIM_027.jpg	100
1642.676	0.785	785.2	2back	Block3	2back/STIM_028.jpg	99
1647.112	0.473	473.1	2back	Block3	2back/STIM_028.jpg	100
1650.411	0.822	821.5	2back	Block3	2back/STIM_028.jpg	99
1653.691	0.726	725.6	2back	Block3	2back/STIM_029.jpg	100
1658.34	0.432	432.1	2back	Block3	2back/STIM_029.jpg	100
1662.077	0.754	753.7	2back	Block3	2back/STIM_029.jpg	100
1665.177	0.67	670.5	2back	Block3	2back/STIM_030.jpg	100
1668.481	0.49	490.0	2back	Block3	2back/STIM_030.jpg	100
1671.102	0.834	834.0	2back	Block3	2back/STIM_030.jpg	99
1673.954	0.6	600.0	2back	Block3	2back/STIM_031.jpg	99
1676.84	0.644	644.1	2back	Block3	2back/STIM_031.jpg	99
1680.106	0.807	806.8	2back	Block3	2back/STIM_031.jpg	100
1683.524	0.78	779.5	2back	Block3	2back/STIM_032.jpg	99
1686.363	0.792	791.8	2back	Block3	2back/STIM_032.jpg	100
1690.062	0.521	520.6	2back	Block3	2back/STIM_032.jpg	100
1693.271	0.853	853.3	2back	Block3	2back/STIM_033.jpg	100
1697.603	0.825	825.4	2back	Block3	2back/STIM_033.jpg	100
1700.505	0.798	797.6	2back	Block3	2back/STIM_033.jpg	99
1703.331	0.856	855.6	2back	Block3	2back/STIM_034.jpg	100
1708.065	0.697	696.8	2back	Block3	2back/STIM_034.jpg	99
1712.588	0.725	725.2	2back	Block3	2back/STIM_034.jpg	99
1715.899	0.694	694.0	2back	Block3	2back/STIM_035.jpg	100
1720.108	0.514	513.9	2back	Block3	2back/STIM_035.jpg	99
1724.144	0.681	680.9	2back	Block3	2back/STIM_035.jpg	99
1727.462	0.679	679.4	2back	Block3	2back/STIM_036.jpg	99
1731.16	0.727	727.4	2back	Block3	2back/STIM_036.jpg	99
1735.437	0.635	635.3	2back	Block3	2back/STIM_036.jpg	99
1738.742	0.419	418.9	2back	Block3	2back/STIM_037.jpg	99
1741.752	0.718	717.8	2back	Block3	2back/STIM_037.jpg	100
1745.959	0.791	791.0	2back	Block3	2back/STIM_037.jpg	99
1749.368	0.781	781.0	2back	Block3	2back/STIM_038.jpg	100
1752.599	0.423	423.1	2back	Block3	2back/STIM_038.jpg	100
1756.876	0.798	798.1	2back	Block3	2back/STIM_038.jpg	99
1760.296	0.458	458.5	2back	Block3	2back/STIM_039.jpg	99
1764.15	0.628	628.1	2back	Block3	2back/STIM_039.jpg	100
1767.337	0.389	389.1	2back	Block3	2back/STIM_039.jpg	99
1770.776	0.453	452.6	0back	Block3	0back/STIM_000.jpg	99
1773.627	0.432	431.6	0back	Block3	0back/STIM_000.jpg	100
1776.836	0.387	387.2	0back	Block3	0back/STIM_000.jpg	100
1780.072	0.599	599.3	0back	Block3	0back/STIM_001.jpg	100
1784.438	0.538	537.7	0back	Block3	0back/STIM_001.jpg	99
1787.479	0.553	552.8	0back	Block3	0back/STIM_001.jpg	100
1790.411	0.53	530.0	0back	Block3	0back/STIM_002.jpg	100
1794.54	0.497	496.7	0back	Block3	0back/STIM_002.jpg	99
1797.084	0.502	502.4	0back	Block3	0back/STIM_002.jpg	100
1800.983	0.488	488.1	0back	Block3	0back/STIM_003.jpg	99
1804.971	0.714	714.0	0back	Block3	0back/STIM_003.jpg	99
1808.512	0.41	410.0	0back	Block3	0back/STIM_003.jpg	99
1811.31	0.673	672.6	0back	Block3	0back/STIM_004.jpg	99
1815.055	0.373	372.7	0back	Block3	0back/STIM_004.jpg	99
1818.082	0.407	407.0	0back	Block3	0back/STIM_004.jpg	100
1822.139	0.532	532.4	0back	Block3	0back/STIM_005.jpg	100
1824.931	0.666	665.9	0back	Block3	0back/STIM_005.jpg	99
1829.198	0.466	466.5	0back	Block3	0back/STIM_005.jpg	100
1833.198	0.37	370.5	0back	Block3	0back/STIM_006.jpg	99
1836.628	0.71	710.0	0back	Block3	0back/STIM_006.jpg	100
1839.705	0.649	649.2	0back	Block3	0back/STIM_006.jpg	100
1843.183	0.622	622.0	0back	Block3	0back/STIM_007.jpg	99
1846.514	0.66	659.7	0back	Block3	0back/STIM_007.jpg	100
1850.112	0.678	677.8	0back	Block3	0back/STIM_007.jpg	100
1854.52	0.555	554.9	0back	Block3	0back/STIM_008.jpg	99
1857.327	0.56	559.5	0back	Block3	0back/STIM_008.jpg	100
1861.556	0.637	637.2	0back	Block3	0back/STIM_008.jpg	99
1865.247	0.694	693.9	0back	Block3	0back/STIM_009.jpg	100
1867.957	0.656	656.4	0back	Block3	0back/STIM_009.jpg	100
1870.647	0.621	621.2	0back	Block3	0back/STIM_009.jpg	100
1874.122	0.365	365.2	0back	Block3	0back/STIM_010.jpg	99
1876.611	0.504	504.3	0back	Block3	0back/STIM_010.jpg	99
1880.579	0.711	711.4	0back	Block3	0back/STIM_010.jpg	99
1883.827	0.478	477.8	0back	Block3	0back/STIM_011.jpg	100
1886.312	0.678	677.6	0back	Block3	0back/STIM_011.jpg	99
1889.466	0.605	604.6	0back	Block3	0back/STIM_011.jpg	99
1893.957	0.571	571.2	0back	Block3	0back/STIM_012.jpg	99
1896.864	0.364	364.1	0back	Block3	0back/STIM_012.jpg	99
1901.029	0.706	706.5	0back	Block3	0back/STIM_012.jpg	99
1905.028	0.537	537.1	0back	Block3	0back/STIM_013.jpg	99
1908.267	0.608	608.5	0back	Block3	0back/STIM_013.jpg	100
1911.561	0.454	453.6	0back	Block3	0back/STIM_013.jpg	100
1914.804	0.568	567.9	0back	Block3	0back/STIM_014.jpg	99
1918.649	0.568	568.1	0back	Block3	0back/STIM_014.jpg	100
1921.614	0.705	704.9	0back	Block3	0back/STIM_014.jpg	99
1925.154	0.558	557.7	0back	Block3	0back/STIM_015.jpg	99
1929.534	0.582	582.1	0back	Block3	0back/STIM_015.jpg	99
1933.374	0.571	570.7	0back	Block3	0back/STIM_015.jpg	99
1937.802	0.7	700.2	0back	Block3	0back/STIM_016.jpg	100
1940.568	0.618	617.9	0back	Block3	0back/STIM_016.jpg	100
1944.757	0.54	539.5	0back	Block3	0back/STIM_016.jpg	99
1949.141	0.678	678.0	0back	Block3	0back/STIM_017.jpg	100
1951.93	0.709	708.6	0back	Block3	0back/STIM_017.jpg	100
1956.508	0.42	419.9	0back	Block3	0back/STIM_017.jpg	100
1959.146	0.59	590.5	0back	Block3	0back/STIM_018.jpg	100
1963.217	0.654	654.2	0back	Block3	0back/STIM_018.jpg	99
1966.64	0.412	411.8	0back	Block3	0back/STIM_018.jpg	100
1969.138	0.464	463.6	0back	Block3	0back/STIM_019.jpg	100
1971.971	0.405	405.2	0back	Block3	0back/STIM_019.jpg	100
1975.721	0.699	698.7	0back	Block3	0back/STIM_019.jpg	99
1979.761	0.712	712.2	2back	Block4	2back/STIM_000.jpg	100
1984.347	0.856	856.1	2back	Block4	2back/STIM_000.jpg	100
1987.393	0.391	391.1	2back	Block4	2back/STIM_000.jpg	99
1990.54	0.757	756.8	2back	Block4	2back/STIM_001.jpg	99
1994.557	0.606	605.6	2back	Block4	2back/STIM_001.jpg	100
1997.351	0.471	471.3	2back	Block4	2back/STIM_001.jpg	99
2001.317	0.649	648.6	2back	Block4	2back/STIM_002.jpg	99
2004.903	0.484	483.6	2back	Block4	2back/STIM_002.jpg	99
2008.018	0.86	859.7	2back	Block4	2back/STIM_002.jpg	99
2011.427	0.385	384.8	2back	Block4	2back/STIM_003.jpg	99
2014.995	0.828	827.5	2back	Block4	2back/STIM_003.jpg	99
2018.656	0.806	806.4	2back	Block4	2back/STIM_003.jpg	100
2023.405	0.543	543.2	2back	Block4	2back/STIM_004.jpg	99
2027.319	0.565	564.9	2back	Block4	2back/STIM_004.jpg	100
2031.572	0.696	695.6	2back	Block4	2back/STIM_004.jpg	100
2035.348	0.484	484.2	2back	Block4	2back/STIM_005.jpg	99
2039.125	0.504	504.2	2back	Block4	2back/STIM_005.jpg	99
2043.541	0.681	681.2	2back	Block4	2back/STIM_005.jpg	99
2046.875	0.501	501.0	2back	Block4	2back/STIM_006.jpg	99
2050.579	0.655	654.6	2back	Block4	2back/STIM_006.jpg	100
2054.104	0.846	846.5	2back	Block4	2back/STIM_006.jpg	99
2057.222	0.582	581.6	2back	Block4	2back/STIM_007.jpg	100
2061.073	0.493	493.2	2back	Block4	2back/STIM_007.jpg	99
2063.858	0.808	807.5	2back	Block4	2back/STIM_007.jpg	100
2067.467	0.794	794.2	2back	Block4	2back/STIM_008.jpg	99
2071.216	0.632	632.1	2back	Block4	2back/STIM_008.jpg	100
2074.273	0.382	381.8	2back	Block4	2back/STIM_008.jpg	99
2077.239	0.62	619.8	2back	Block4	2back/STIM_009.jpg	99
2080.918	0.467	466.9	2back	Block4	2back/STIM_009.jpg	100
2084.228	0.88	879.8	2back	Block4	2back/STIM_009.jpg	100
2088.114	0.543	543.1	2back	Block4	2back/STIM_010.jpg	99
2090.709	0.654	653.8	2back	Block4	2back/STIM_010.jpg	99
2094.953	0.66	659.6	2back	Block4	2back/STIM_010.jpg	99
2098.119	0.794	793.9	2back	Block4	2back/STIM_011.jpg	99
2101.5	0.462	461.7	2back	Block4	2back/STIM_011.jpg	99
2105.734	0.631	631.2	2back	Block4	2back/STIM_011.jpg	100
2110.219	0.847	847.1	2back	Block4	2back/STIM_012.jpg	100
2113.169	0.401	400.9	2back	Block4	2back/STIM_012.jpg	100
2117.226	0.518	517.7	2back	Block4	2back/STIM_012.jpg	100
2120.8	0.59	590.0	2back	Block4	2back/STIM_013.jpg	100
2123.891	0.848	848.3	2back	Block4	2back/STIM_013.jpg	100
2127.714	0.624	623.6	2back	Block4	2back/STIM_013.jpg	100
2132.269	0.439	438.7	2back	Block4	2back/STIM_014.jpg	100
2135.778	0.408	407.6	2back	Block4	2back/STIM_014.jpg	100
2138.949	0.711	711.2	2back	Block4	2back/STIM_014.jpg	99
2143.591	0.741	741.2	2back	Block4	2back/STIM_015.jpg	99
2147.577	0.665	665.1	2back	Block4	2back/STIM_015.jpg	99
2151.514	0.721	720.9	2back	Block4	2back/STIM_015.jpg	99
2154.365	0.516	516.3	2back	Block4	2back/STIM_016.jpg	99
2158.783	0.856	856.5	2back	Block4	2back/STIM_016.jpg	100
2162.903	0.764	764.2	2back	Block4	2back/STIM_016.jpg	100
2166.623	0.527	527.0	2back	Block4	2back/STIM_017.jpg	99
2170.725	0.408	407.6	2back	Block4	2back/STIM_017.jpg	99
2173.964	0.738	738.5	2back	Block4	2back/STIM_017.jpg	99
2178.254	0.731	731.0	2back	Block4	2back/STIM_018.jpg	100
2182.485	0.725	724.7	2back	Block4	2back/STIM_018.jpg	100
2186.503	0.422	421.5	2back	Block4	2back/STIM_018.jpg	100
2189.921	0.862	861.6	2back	Block4	2back/STIM_019.jpg	99
2193.453	0.399	399.1	2back	Block4	2back/STIM_019.jpg	99
2196.649	0.626	626.3	2back	Block4	2back/STIM_019.jpg	99
2201.096	0.849	849.2	2back	Block4	2back/STIM_020.jpg	99
2205.301	0.504	504.2	2back	Block4	2back/STIM_020.jpg	100
2209.06	0.438	437.5	2back	Block4	2back/STIM_020.jpg	100
2213.398	0.613	613.4	2back	Block4	2back/STIM_021.jpg	100
2216.323	0.478	478.3	2back	Block4	2back/STIM_021.jpg	99
2219.779	0.819	818.9	2back	Block4	2back/STIM_021.jpg	100
2224.315	0.701	700.7	2back	Block4	2back/STIM_022.jpg	100
2227.939	0.564	563.8	2back	Block4	2back/STIM_022.jpg	100
2230.556	0.416	415.6	2back	Block4	2back/STIM_022.jpg	99
2233.967	0.545	545.4	2back	Block4	2back/STIM_023.jpg	100
2237.642	0.715	714.9	2back	Block4	2back/STIM_023.jpg	100
2242.208	0.734	733.7	2back	Block4	2back/STIM_023.jpg	99
2244.949	0.869	868.8	2back	Block4	2back/STIM_024.jpg	100
2248.232	0.48	480.2	2back	Block4	2back/STIM_024.jpg	99
2252.105	0.4	400.0	2back	Block4	2back/STIM_024.jpg	99
2256.006	0.503	502.9	2back	Block4	2back/STIM_025.jpg	100
2260.144	0.832	831.7	2back	Block4	2back/STIM_025.jpg	100
2264.956	0.816	815.8	2back	Block4	2back/STIM_025.jpg	99
2268.17	0.733	732.6	2back	Block4	2back/STIM_026.jpg	99
2272.892	0.765	765.0	2back	Block4	2back/STIM_026.jpg	100
2277.656	0.802	801.5	2back	Block4	2back/STIM_026.jpg	100
2282.157	0.387	386.9	2back	Block4	2back/STIM_027.jpg	100
2286.513	0.664	664.3	2back	Block4	2back/STIM_027.jpg	100
2290.664	0.64	639.8	2back	Block4	2back/STIM_027.jpg	100
2294.589	0.631	631.0	2back	Block4	2back/STIM_028.jpg	99
2298.148	0.453	453.1	2back	Block4	2back/STIM_028.jpg	100
2302.492	0.813	813.3	2back	Block4	2back/STIM_028.jpg	99
2306.1	0.487	486.8	2back	Block4	2back/STIM_029.jpg	99
2309.336	0.454	454.3	2back	Block4	2back/STIM_029.jpg	100
2311.985	0.718	718.2	2back	Block4	2back/STIM_029.jpg	100
2315.167	0.786	786.4	2back	Block4	2back/STIM_030.jpg	99
2318.944	0.678	678.1	2back	Block4	2back/STIM_030.jpg	99
2322.857	0.579	579.3	2back	Block4	2back/STIM_030.jpg	99
2326.216	0.407	407.3	2back	Block4	2back/STIM_031.jpg	100
2329.921	0.572	572.0	2back	Block4	2back/STIM_031.jpg	100
2333.408	0.854	854.4	2back	Block4	2back/STIM_031.jpg	99
2336.848	0.392	392.0	2back	Block4	2back/STIM_032.jpg	99
2340.012	0.549	548.8	2back	Block4	2back/STIM_032.jpg	99
2342.578	0.543	543.3	2back	Block4	2back/STIM_032.jpg	100
2346.701	0.79	789.6	2back	Block4	2back/STIM_033.jpg	100
2350.472	0.718	718.5	2back	Block4	2back/STIM_033.jpg	100
2353.403	0.553	553.4	2back	Block4	2back/STIM_033.jpg	99
2357.832	0.517	517.2	2back	Block4	2back/STIM_034.jpg	100
2361.668	0.694	694.1	2back	Block4	2back/STIM_034.jpg	99
2364.439	0.471	471.0	2back	Block4	2back/STIM_034.jpg	99
2367.525	0.7	700.5	2back	Block4	2back/STIM_035.jpg	100
2372.134	0.44	439.5	2back	Block4	2back/STIM_035.jpg	100
2375.466	0.486	485.9	2back	Block4	2back/STIM_035.jpg	100
2379.342	0.875	874.6	2back	Block4	2back/STIM_036.jpg	99
2383.056	0.392	391.7	2back	Block4	2back/STIM_036.jpg	100
2385.506	0.699	698.7	2back	Block4	2back/STIM_036.jpg	100
2389.382	0.53	529.8	2back	Block4	2back/STIM_037.jpg	100
2393.278	0.49	490.4	2back	Block4	2back/STIM_037.jpg	100
2397.375	0.447	447.2	2back	Block4	2back/STIM_037.jpg	100
2400.117	0.49	490.2	2back	Block4	2back/STIM_038.jpg	100
2404.4	0.758	758.2	2back	Block4	2back/STIM_038.jpg	100
2408.135	0.707	706.6	2back	Block4	2back/STIM_038.jpg	100
2410.958	0.789	789.3	2back	Block4	2back/STIM_039.jpg	100
2414.045	0.877	877.1	2back	Block4	2back/STIM_039.jpg	99
2417.367	0.391	391.4	2back	Block4	2back/STIM_039.jpg	100
2419.85	0.586	585.8	0back	Block4	0back/STIM_000.jpg	99
2423.893	0.46	460.2	0back	Block4	0back/STIM_000.jpg	99
2426.747	0.614	613.5	0back	Block4	0back/STIM_000.jpg	99
2429.898	0.676	676.3	0back	Block4	0back/STIM_001.jpg	100
2433.655	0.386	385.5	0back	Block4	0back/STIM_001.jpg	99
2437.11	0.367	366.9	0back	Block4	0back/STIM_001.jpg	99
2440.891	0.498	497.6	0back	Block4	0back/STIM_002.jpg	99
2444.873	0.627	626.6	0back	Block4	0back/STIM_002.jpg	100
2448.224	0.659	658.8	0back	Block4	0back/STIM_002.jpg	100
2452.671	0.649	649.0	0back	Block4	0back/STIM_003.jpg	99
2456.135	0.401	401.3	0back	Block4	0back/STIM_003.jpg	99
2458.7	0.469	468.6	0back	Block4	0back/STIM_003.jpg	99
2461.725	0.668	667.6	0back	Block4	0back/STIM_004.jpg	99
2465.994	0.593	592.9	0back	Block4	0back/STIM_004.jpg	100
2470.069	0.518	518.4	0back	Block4	0back/STIM_004.jpg	100
2473.669	0.426	426.3	0back	Block4	0back/STIM_005.jpg	99
2476.647	0.437	436.6	0back	Block4	0back/STIM_005.jpg	100
2479.374	0.656	656.5	0back	Block4	0back/STIM_005.jpg	99
2483.916	0.602	601.8	0back	Block4	0back/STIM_006.jpg	100
2487.64	0.556	556.2	0back	Block4	0back/STIM_006.jpg	99
2491.066	0.642	641.8	0back	Block4	0back/STIM_006.jpg	99
2494.484	0.467	467.2	0back	Block4	0back/STIM_007.jpg	99
2497.955	0.717	716.7	0back	Block4	0back/STIM_007.jpg	100
2501.058	0.605	604.6	0back	Block4	0back/STIM_007.jpg	99
2503.857	0.637	637.4	0back	Block4	0back/STIM_008.jpg	99
2506.568	0.712	711.9	0back	Block4	0back/STIM_008.jpg	99
2510.463	0.545	545.0	0back	Block4	0back/STIM_008.jpg	99
2514.832	0.44	440.5	0back	Block4	0back/STIM_009.jpg	99
2517.351	0.421	420.9	0back	Block4	0back/STIM_009.jpg	100
2521.715	0.675	674.9	0back	Block4	0back/STIM_009.jpg	99
2525.902	0.437	437.2	0back	Block4	0back/STIM_010.jpg	100
2529.073	0.474	474.2	0back	Block4	0back/STIM_010.jpg	99
2532.496	0.436	436.4	0back	Block4	0back/STIM_010.jpg	99
2535.176	0.559	559.3	0back	Block4	0back/STIM_011.jpg	100
2539.67	0.454	453.6	0back	Block4	0back/STIM_011.jpg	99
2543.505	0.448	447.7	0back	Block4	0back/STIM_011.jpg	100
2547.335	0.712	712.2	0back	Block4	0back/STIM_012.jpg	100
2550.955	0.69	690.4	0back	Block4	0back/STIM_012.jpg	99
2554.769	0.61	609.8	0back	Block4	0back/STIM_012.jpg	100
2558.117	0.617	616.8	0back	Block4	0back/STIM_013.jpg	100
2562.586	0.567	566.9	0back	Block4	0back/STIM_013.jpg	99
2565.596	0.692	691.8	0back	Block4	0back/STIM_013.jpg	100
2569.648	0.696	695.7	0back	Block4	0back/STIM_014.jpg	99
2572.587	0.5	499.9	0back	Block4	0back/STIM_014.jpg	99
2575.503	0.635	635.2	0back	Block4	0back/STIM_014.jpg	99
2578.392	0.515	514.9	0back	Block4	0back/STIM_015.jpg	100
2581.566	0.702	702.4	0back	Block4	0back/STIM_015.jpg	99
2586.025	0.389	388.7	0back	Block4	0back/STIM_015.jpg	100
2588.425	0.7	699.7	0back	Block4	0back/STIM_016.jpg	100
2591.313	0.566	565.9	0back	Block4	0back/STIM_016.jpg	100
2595.529	0.534	533.8	0back	Block4	0back/STIM_016.jpg	99
2598.996	0.423	423.4	0back	Block4	0back/STIM_017.jpg	99
2602.504	0.668	668.5	0back	Block4	0back/STIM_017.jpg	99
2606.295	0.487	486.6	0back	Block4	0back/STIM_017.jpg	100
2610.206	0.596	596.2	0back	Block4	0back/STIM_018.jpg	100
2613.056	0.686	686.5	0back	Block4	0back/STIM_018.jpg	100
2617.221	0.548	548.5	0back	Block4	0back/STIM_018.jpg	100
2621.651	0.668	668.5	0back	Block4	0back/STIM_019.jpg	100
2624.569	0.662	662.2	0back	Block4	0back/STIM_019.jpg	99
2628.604	0.46	460.0	0back	Block4	0back/STIM_019.jpg	100
