onset	duration	accuracy	trial_type	learning_stage	stimulus
0.0	1.26	correct	incongruent	Block1	incongruent/STIM_000.jpg
3.969	1.365	correct	incongruent	Block1	incongruent/STIM_000.jpg
7.477	0.915	correct	incongruent	Block1	incongruent/STIM_000.jpg
11.72	1.15	correct	incongruent	Block1	incongruent/STIM_000.jpg
15.837	1.088	correct	incongruent	Block1	incongruent/STIM_000.jpg
19.768	0.848	incorrect	incongruent	Block1	incongruent/STIM_001.jpg
24.105	0.976	incorrect	incongruent	Block1	incongruent/STIM_001.jpg
27.573	1.392	correct	incongruent	Block1	incongruent/STIM_001.jpg
31.317	1.094	correct	incongruent	Block1	incongruent/STIM_001.jpg
34.768	1.164	incorrect	incongruent	Block1	incongruent/STIM_001.jpg
39.662	0.84	correct	incongruent	Block1	incongruent/STIM_002.jpg
43.351	0.894	correct	incongruent	Block1	incongruent/STIM_002.jpg
46.559	0.733	incorrect	incongruent	Block1	incongruent/STIM_002.jpg
49.599	0.686	correct	incongruent	Block1	incongruent/STIM_002.jpg
54.202	1.25	correct	incongruent	Block1	incongruent/STIM_002.jpg
58.923	1.124	correct	incongruent	Block1	incongruent/STIM_003.jpg
62.162	1.304	correct	incongruent	Block1	incongruent/STIM_003.jpg
66.349	0.826	correct	incongruent	Block1	incongruent/STIM_003.jpg
71.135	0.714	correct	incongruent	Block1	incongruent/STIM_003.jpg
75.06	1.117	correct	incongruent	Block1	incongruent/STIM_003.jpg
78.373	0.809	incorrect	incongruent	Block1	incongruent/STIM_004.jpg
82.119	0.894	correct	incongruent	Block1	incongruent/STIM_004.jpg
86.002	0.802	correct	incongruent	Block1	incongruent/STIM_004.jpg
89.186	0.648	correct	incongruent	Block1	incongruent/STIM_004.jpg
92.887	0.802	correct	incongruent	Block1	incongruent/STIM_004.jpg
97.515	0.909	correct	incongruent	Block1	incongruent/STIM_005.jpg
102.352	0.723	correct	incongruent	Block1	incongruent/STIM_005.jpg
105.922	1.104	correct	incongruent	Block1	incongruent/STIM_005.jpg
110.509	1.074	correct	incongruent	Block1	incongruent/STIM_005.jpg
113.69	1.127	incorrect	incongruent	Block1	incongruent/STIM_005.jpg
117.698	1.433	correct	incongruent	Block1	incongruent/STIM_006.jpg
121.321	1.091	correct	incongruent	Block1	incongruent/STIM_006.jpg
125.648	1.005	correct	incongruent	Block1	incongruent/STIM_006.jpg
130.26	0.773	correct	incongruent	Block1	incongruent/STIM_006.jpg
134.047	0.728	correct	incongruent	Block1	incongruent/STIM_006.jpg
137.197	1.609	correct	incongruent	Block1	incongruent/STIM_007.jpg
142.149	1.145	correct	incongruent	Block1	incongruent/STIM_007.jpg
146.743	1.066	correct	incongruent	Block1	incongruent/STIM_007.jpg
149.895	1.06	correct	incongruent	Block1	incongruent/STIM_007.jpg
154.889	0.659	correct	incongruent	Block1	incongruent/STIM_007.jpg
157.8	0.792	correct	incongruent	Block1	incongruent/STIM_008.jpg
160.888	1.209	correct	incongruent	Block1	incongruent/STIM_008.jpg
164.911	1.374	correct	incongruent	Block1	incongruent/STIM_008.jpg
169.204	0.676	correct	incongruent	Block1	incongruent/STIM_008.jpg
172.252	1.228	correct	incongruent	Block1	incongruent/STIM_008.jpg
176.604	1.145	correct	incongruent	Block1	incongruent/STIM_009.jpg
181.505	0.773	incorrect	incongruent	Block1	incongruent/STIM_009.jpg
185.442	1.406	correct	incongruent	Block1	incongruent/STIM_009.jpg
188.99	1.213	correct	incongruent	Block1	incongruent/STIM_009.jpg
192.3	0.901	incorrect	incongruent	Block1	incongruent/STIM_009.jpg
197.133	0.998	correct	incongruent	Block1	incongruent/STIM_010.jpg
201.063	1.461	correct	incongruent	Block1	incongruent/STIM_010.jpg
205.488	1.4	correct	incongruent	Block1	incongruent/STIM_010.jpg
209.978	0.828	correct	incongruent	Block1	incongruent/STIM_010.jpg
213.215	0.888	correct	incongruent	Block1	incongruent/STIM_010.jpg
217.642	1.269	incorrect	incongruent	Block1	incongruent/STIM_011.jpg
222.474	0.922	incorrect	incongruent	Block1	incongruent/STIM_011.jpg
226.01	0.826	correct	incongruent	Block1	incongruent/STIM_011.jpg
229.148	0.948	correct	incongruent	Block1	incongruent/STIM_011.jpg
233.174	1.11	correct	incongruent	Block1	incongruent/STIM_011.jpg
237.733	0.832	correct	incongruent	Block1	incongruent/STIM_012.jpg
242.158	1.408	correct	incongruent	Block1	incongruent/STIM_012.jpg
246.28	1.428	correct	incongruent	Block1	incongruent/STIM_012.jpg
251.638	0.654	correct	incongruent	Block1	incongruent/STIM_012.jpg
255.222	0.94	correct	incongruent	Block1	incongruent/STIM_012.jpg
259.086	1.543	correct	incongruent	Block1	incongruent/STIM_013.jpg
263.312	0.774	correct	incongruent	Block1	incongruent/STIM_013.jpg
267.375	0.703	incorrect	incongruent	Block1	incongruent/STIM_013.jpg
270.711	1.321	correct	incongruent	Block1	incongruent/STIM_013.jpg
275.365	1.144	correct	incongruent	Block1	incongruent/STIM_013.jpg
279.072	1.077	correct	incongruent	Block1	incongruent/STIM_014.jpg
282.343	1.395	correct	incongruent	Block1	incongruent/STIM_014.jpg
287.529	1.274	correct	incongruent	Block1	incongruent/STIM_014.jpg
291.531	0.644	correct	incongruent	Block1	incongruent/STIM_014.jpg
294.814	0.842	correct	incongruent	Block1	incongruent/STIM_014.jpg
299.164	0.872	correct	incongruent	Block1	incongruent/STIM_015.jpg
303.284	1.213	correct	incongruent	Block1	incongruent/STIM_015.jpg
306.797	1.368	correct	incongruent	Block1	incongruent/STIM_015.jpg
312.138	0.667	incorrect	incongruent	Block1	incongruent/STIM_015.jpg
314.947	0.7	correct	incongruent	Block1	incongruent/STIM_015.jpg
319.065	1.008	correct	incongruent	Block1	incongruent/STIM_016.jpg
322.794	0.757	correct	incongruent	Block1	incongruent/STIM_016.jpg
325.914	1.445	correct	incongruent	Block1	incongruent/STIM_016.jpg
329.532	1.313	correct	incongruent	Block1	incongruent/STIM_016.jpg
333.688	0.936	correct	incongruent	Block1	incongruent/STIM_016.jpg
337.459	0.971	correct	incongruent	Block1	incongruent/STIM_017.jpg
341.659	1.505	incorrect	incongruent	Block1	incongruent/STIM_017.jpg
346.497	0.976	correct	incongruent	Block1	incongruent/STIM_017.jpg
351.197	1.159	correct	incongruent	Block1	incongruent/STIM_017.jpg
355.385	0.75	correct	incongruent	Block1	incongruent/STIM_017.jpg
358.497	1.279	correct	incongruent	Block1	incongruent/STIM_018.jpg
362.542	1.287	correct	incongruent	Block1	incongruent/STIM_018.jpg
366.987	0.724	correct	incongruent	Block1	incongruent/STIM_018.jpg
371.545	0.98	correct	incongruent	Block1	incongruent/STIM_018.jpg
375.292	1.087	correct	incongruent	Block1	incongruent/STIM_018.jpg
379.737	1.24	correct	incongruent	Block1	incongruent/STIM_019.jpg
384.729	0.904	incorrect	incongruent	Block1	incongruent/STIM_019.jpg
388.502	0.972	correct	incongruent	Block1	incongruent/STIM_019.jpg
392.615	1.316	correct	incongruent	Block1	incongruent/STIM_019.jpg
397.788	0.773	correct	incongruent	Block1	incongruent/STIM_019.jpg
400.993	1.459	correct	incongruent	Block1	incongruent/STIM_020.jpg
404.808	1.535	incorrect	incongruent	Block1	incongruent/STIM_020.jpg
409.144	0.686	incorrect	incongruent	Block1	incongruent/STIM_020.jpg
412.504	0.775	correct	incongruent	Block1	incongruent/STIM_020.jpg
417.165	1.284	correct	incongruent	Block1	incongruent/STIM_020.jpg
421.958	1.504	correct	incongruent	Block1	incongruent/STIM_021.jpg
427.341	0.753	incorrect	incongruent	Block1	incongruent/STIM_021.jpg
431.406	0.862	incorrect	incongruent	Block1	incongruent/STIM_021.jpg
436.03	1.057	correct	incongruent	Block1	incongruent/STIM_021.jpg
440.305	0.678	correct	incongruent	Block1	incongruent/STIM_021.jpg
444.617	1.538	correct	incongruent	Block1	incongruent/STIM_022.jpg
448.742	1.092	correct	incongruent	Block1	incongruent/STIM_022.jpg
453.001	1.183	correct	incongruent	Block1	incongruent/STIM_022.jpg
458.066	0.745	correct	incongruent	Block1	incongruent/STIM_022.jpg
461.046	0.765	correct	incongruent	Block1	incongruent/STIM_022.jpg
464.186	1.136	correct	incongruent	Block1	incongruent/STIM_023.jpg
467.43	0.818	correct	incongruent	Block1	incongruent/STIM_023.jpg
471.812	1.437	correct	incongruent	Block1	incongruent/STIM_023.jpg
476.588	0.803	correct	incongruent	Block1	incongruent/STIM_023.jpg
481.141	1.291	correct	incongruent	Block1	incongruent/STIM_023.jpg
486.383	0.93	correct	incongruent	Block1	incongruent/STIM_024.jpg
489.824	1.439	correct	incongruent	Block1	incongruent/STIM_024.jpg
495.051	0.691	correct	incongruent	Block1	incongruent/STIM_024.jpg
498.529	1.373	correct	incongruent	Block1	incongruent/STIM_024.jpg
502.17	0.726	correct	incongruent	Block1	incongruent/STIM_024.jpg
505.017	1.232	correct	incongruent	Block1	incongruent/STIM_025.jpg
509.003	1.298	correct	incongruent	Block1	incongruent/STIM_025.jpg
513.594	1.295	correct	incongruent	Block1	incongruent/STIM_025.jpg
518.552	1.122	incorrect	incongruent	Block1	incongruent/STIM_025.jpg
522.012	1.03	correct	incongruent	Block1	incongruent/STIM_025.jpg
525.225	1.62	incorrect	incongruent	Block1	incongruent/STIM_026.jpg
530.775	0.808	correct	incongruent	Block1	incongruent/STIM_026.jpg
534.676	0.885	correct	incongruent	Block1	incongruent/STIM_026.jpg
539.328	1.192	correct	incongruent	Block1	incongruent/STIM_026.jpg
544.408	1.139	correct	incongruent	Block1	incongruent/STIM_026.jpg
548.169	0.99	correct	incongruent	Block1	incongruent/STIM_027.jpg
551.168	1.091	correct	incongruent	Block1	incongruent/STIM_027.jpg
556.114	1.071	correct	incongruent	Block1	incongruent/STIM_027.jpg
560.127	1.133	correct	incongruent	Block1	incongruent/STIM_027.jpg
565.174	0.763	correct	incongruent	Block1	incongruent/STIM_027.jpg
568.051	1.1	correct	incongruent	Block1	incongruent/STIM_028.jpg
572.507	1.342	correct	incongruent	Block1	incongruent/STIM_028.jpg
576.977	1.103	correct	incongruent	Block1	incongruent/STIM_028.jpg
581.982	1.202	correct	incongruent	Block1	incongruent/STIM_028.jpg
585.674	1.035	correct	incongruent	Block1	incongruent/STIM_028.jpg
589.576	1.436	correct	incongruent	Block1	incongruent/STIM_029.jpg
593.291	0.751	correct	incongruent	Block1	incongruent/STIM_029.jpg
597.921	1.225	correct	incongruent	Block1	incongruent/STIM_029.jpg
602.529	1.349	correct	incongruent	Block1	incongruent/STIM_029.jpg
606.247	1.032	incorrect	incongruent	Block1	incongruent/STIM_029.jpg
610.879	0.767	correct	congruent	Block1	congruent/STIM_000.jpg
615.012	0.95	correct	congruent	Block1	congruent/STIM_000.jpg
619.478	0.754	correct	congruent	Block1	congruent/STIM_000.jpg
623.993	0.689	correct	congruent	Block1	congruent/STIM_000.jpg
628.643	0.89	correct	congruent	Block1	congruent/STIM_000.jpg
632.359	0.634	correct	congruent	Block1	congruent/STIM_001.jpg
636.805	0.957	correct	congruent	Block1	congruent/STIM_001.jpg
641.759	0.707	correct	congruent	Block1	congruent/STIM_001.jpg
646.129	0.774	correct	congruent	Block1	congruent/STIM_001.jpg
650.62	0.965	correct	congruent	Block1	congruent/STIM_001.jpg
655.198	0.798	correct	congruent	Block1	congruent/STIM_002.jpg
659.48	0.554	correct	congruent	Block1	congruent/STIM_002.jpg
663.849	0.712	correct	congruent	Block1	congruent/STIM_002.jpg
667.748	0.862	correct	congruent	Block1	congruent/STIM_002.jpg
671.813	0.852	correct	congruent	Block1	congruent/STIM_002.jpg
676.041	0.548	correct	congruent	Block1	congruent/STIM_003.jpg
679.046	0.544	correct	congruent	Block1	congruent/STIM_003.jpg
683.579	0.564	correct	congruent	Block1	congruent/STIM_003.jpg
687.732	0.72	correct	congruent	Block1	congruent/STIM_003.jpg
690.601	0.89	correct	congruent	Block1	congruent/STIM_003.jpg
694.036	0.912	correct	congruent	Block1	congruent/STIM_004.jpg
698.124	0.97	correct	congruent	Block1	congruent/STIM_004.jpg
701.911	0.567	correct	congruent	Block1	congruent/STIM_004.jpg
705.735	0.661	correct	congruent	Block1	congruent/STIM_004.jpg
708.767	0.937	correct	congruent	Block1	congruent/STIM_004.jpg
711.803	0.541	correct	congruent	Block1	congruent/STIM_005.jpg
714.672	0.706	correct	congruent	Block1	congruent/STIM_005.jpg
717.788	0.798	correct	congruent	Block1	congruent/STIM_005.jpg
721.417	0.928	correct	congruent	Block1	congruent/STIM_005.jpg
724.782	0.923	correct	congruent	Block1	congruent/STIM_005.jpg
728.285	0.815	correct	congruent	Block1	congruent/STIM_006.jpg
732.088	0.763	correct	congruent	Block1	congruent/STIM_006.jpg
735.668	0.622	correct	congruent	Block1	congruent/STIM_006.jpg
739.554	0.557	correct	congruent	Block1	congruent/STIM_006.jpg
743.342	0.74	correct	congruent	Block1	congruent/STIM_006.jpg
747.853	0.671	correct	congruent	Block1	congruent/STIM_007.jpg
752.028	0.897	correct	congruent	Block1	congruent/STIM_007.jpg
756.704	0.798	correct	congruent	Block1	congruent/STIM_007.jpg
760.588	0.879	correct	congruent	Block1	congruent/STIM_007.jpg
765.288	0.788	correct	congruent	Block1	congruent/STIM_007.jpg
770.059	0.719	correct	congruent	Block1	congruent/STIM_008.jpg
774.283	0.651	correct	congruent	Block1	congruent/STIM_008.jpg
778.869	0.674	correct	congruent	Block1	congruent/STIM_008.jpg
782.405	0.809	correct	congruent	Block1	congruent/STIM_008.jpg
785.845	0.578	incorrect	congruent	Block1	congruent/STIM_008.jpg
790.25	0.721	correct	congruent	Block1	congruent/STIM_009.jpg
794.612	0.649	correct	congruent	Block1	congruent/STIM_009.jpg
798.864	0.674	correct	congruent	Block1	congruent/STIM_009.jpg
803.49	0.854	correct	congruent	Block1	congruent/STIM_009.jpg
807.711	0.882	correct	congruent	Block1	congruent/STIM_009.jpg
811.015	0.946	incorrect	congruent	Block1	congruent/STIM_010.jpg
814.009	0.881	correct	congruent	Block1	congruent/STIM_010.jpg
818.715	0.909	correct	congruent	Block1	congruent/STIM_010.jpg
821.718	0.803	correct	congruent	Block1	congruent/STIM_010.jpg
826.05	0.956	correct	congruent	Block1	congruent/STIM_010.jpg
830.488	0.826	correct	congruent	Block1	congruent/STIM_011.jpg
833.905	0.745	correct	congruent	Block1	congruent/STIM_011.jpg
837.133	0.969	correct	congruent	Block1	congruent/STIM_011.jpg
841.405	0.901	correct	congruent	Block1	congruent/STIM_011.jpg
845.393	0.78	correct	congruent	Block1	congruent/STIM_011.jpg
849.817	0.668	correct	congruent	Block1	congruent/STIM_012.jpg
854.017	0.65	correct	congruent	Block1	congruent/STIM_012.jpg
857.504	0.791	correct	congruent	Block1	congruent/STIM_012.jpg
861.16	0.654	correct	congruent	Block1	congruent/STIM_012.jpg
865.719	0.717	correct	congruent	Block1	congruent/STIM_012.jpg
869.382	0.719	correct	congruent	Block1	congruent/STIM_013.jpg
872.324	0.906	correct	congruent	Block1	congruent/STIM_013.jpg
876.033	0.611	correct	congruent	Block1	congruent/STIM_013.jpg
879.617	0.543	correct	congruent	Block1	congruent/STIM_013.jpg
884.064	0.696	correct	congruent	Block1	congruent/STIM_013.jpg
888.654	0.957	correct	congruent	Block1	congruent/STIM_014.jpg
891.708	0.623	correct	congruent	Block1	congruent/STIM_014.jpg
895.553	0.877	correct	congruent	Block1	congruent/STIM_014.jpg
899.203	0.613	correct	congruent	Block1	congruent/STIM_014.jpg
903.35	0.779	incorrect	congruent	Block1	congruent/STIM_014.jpg
907.295	0.937	correct	congruent	Block1	congruent/STIM_015.jpg
911.194	0.882	correct	congruent	Block1	congruent/STIM_015.jpg
915.894	0.695	correct	congruent	Block1	congruent/STIM_015.jpg
919.172	0.676	correct	congruent	Block1	congruent/STIM_015.jpg
922.456	0.727	correct	congruent	Block1	congruent/STIM_015.jpg
926.026	0.7	correct	congruent	Block1	congruent/STIM_016.jpg
930.682	0.897	correct	congruent	Block1	congruent/STIM_016.jpg
935.366	0.764	incorrect	congruent	Block1	congruent/STIM_016.jpg
939.486	0.96	correct	congruent	Block1	congruent/STIM_016.jpg
943.362	0.76	incorrect	congruent	Block1	congruent/STIM_016.jpg
946.608	0.922	correct	congruent	Block1	congruent/STIM_017.jpg
950.588	0.934	correct	congruent	Block1	congruent/STIM_017.jpg
955.138	0.843	correct	congruent	Block1	congruent/STIM_017.jpg
958.785	0.636	correct	congruent	Block1	congruent/STIM_017.jpg
963.147	0.654	correct	congruent	Block1	congruent/STIM_017.jpg
966.897	0.722	correct	congruent	Block1	congruent/STIM_018.jpg
971.063	0.794	incorrect	congruent	Block1	congruent/STIM_018.jpg
974.567	0.918	correct	congruent	Block1	congruent/STIM_018.jpg
978.661	0.62	correct	congruent	Block1	congruent/STIM_018.jpg
982.987	0.774	correct	congruent	Block1	congruent/STIM_018.jpg
985.79	0.64	correct	congruent	Block1	congruent/STIM_019.jpg
989.784	0.921	correct	congruent	Block1	congruent/STIM_019.jpg
994.021	0.718	correct	congruent	Block1	congruent/STIM_019.jpg
998.38	0.621	correct	congruent	Block1	congruent/STIM_019.jpg
1001.156	0.701	correct	congruent	Block1	congruent/STIM_019.jpg
1005.608	0.612	correct	congruent	Block1	congruent/STIM_020.jpg
1009.997	0.644	correct	congruent	Block1	congruent/STIM_020.jpg
1013.568	0.711	correct	congruent	Block1	congruent/STIM_020.jpg
1016.953	0.625	correct	congruent	Block1	congruent/STIM_020.jpg
1021.526	0.706	correct	congruent	Block1	congruent/STIM_020.jpg
1025.239	0.688	correct	congruent	Block1	congruent/STIM_021.jpg
1029.735	0.756	correct	congruent	Block1	congruent/STIM_021.jpg
1032.747	0.676	correct	congruent	Block1	congruent/STIM_021.jpg
1035.728	0.842	correct	congruent	Block1	congruent/STIM_021.jpg
1040.24	0.656	correct	congruent	Block1	congruent/STIM_021.jpg
1043.483	0.804	correct	congruent	Block1	congruent/STIM_022.jpg
1047.926	0.82	correct	congruent	Block1	congruent/STIM_022.jpg
1051.675	0.794	correct	congruent	Block1	congruent/STIM_022.jpg
1055.698	0.745	correct	congruent	Block1	congruent/STIM_022.jpg
1060.202	0.725	correct	congruent	Block1	congruent/STIM_022.jpg
1063.928	0.559	correct	congruent	Block1	congruent/STIM_023.jpg
1066.813	0.734	correct	congruent	Block1	congruent/STIM_023.jpg
1070.365	0.789	correct	congruent	Block1	congruent/STIM_023.jpg
1073.605	0.89	correct	congruent	Block1	congruent/STIM_023.jpg
1078.458	0.594	correct	congruent	Block1	congruent/STIM_023.jpg
1082.691	0.818	correct	congruent	Block1	congruent/STIM_024.jpg
1086.453	0.872	correct	congruent	Block1	congruent/STIM_024.jpg
1090.587	0.645	correct	congruent	Block1	congruent/STIM_024.jpg
1093.414	0.842	correct	congruent	Block1	congruent/STIM_024.jpg
1098.237	0.807	correct	congruent	Block1	congruent/STIM_024.jpg
1102.118	0.816	correct	congruent	Block1	congruent/STIM_025.jpg
1105.267	0.723	correct	congruent	Block1	congruent/STIM_025.jpg
1109.43	0.556	correct	congruent	Block1	congruent/STIM_025.jpg
1113.576	0.766	correct	congruent	Block1	congruent/STIM_025.jpg
1117.134	0.574	correct	congruent	Block1	congruent/STIM_025.jpg
1120.648	0.593	correct	congruent	Block1	congruent/STIM_026.jpg
1123.717	0.574	correct	congruent	Block1	congruent/STIM_026.jpg
1128.18	0.823	correct	congruent	Block1	congruent/STIM_026.jpg
1132.486	0.662	correct	congruent	Block1	congruent/STIM_026.jpg
1135.588	0.957	incorrect	congruent	Block1	congruent/STIM_026.jpg
1139.287	0.882	correct	congruent	Block1	congruent/STIM_027.jpg
1143.313	0.567	correct	congruent	Block1	congruent/STIM_027.jpg
1147.486	0.726	incorrect	congruent	Block1	congruent/STIM_027.jpg
1151.943	0.562	correct	congruent	Block1	congruent/STIM_027.jpg
1156.069	0.733	correct	congruent	Block1	congruent/STIM_027.jpg
1158.989	0.684	correct	congruent	Block1	congruent/STIM_028.jpg
1162.814	0.68	incorrect	congruent	Block1	congruent/STIM_028.jpg
1166.075	0.682	correct	congruent	Block1	congruent/STIM_028.jpg
1169.258	0.944	correct	congruent	Block1	congruent/STIM_028.jpg
1172.232	0.912	correct	congruent	Block1	congruent/STIM_028.jpg
1175.259	0.948	incorrect	congruent	Block1	congruent/STIM_029.jpg
1179.259	0.616	correct	congruent	Block1	congruent/STIM_029.jpg
1183.186	0.569	correct	congruent	Block1	congruent/STIM_029.jpg
1186.03	0.638	correct	congruent	Block1	congruent/STIM_029.jpg
1190.52	0.844	correct	congruent	Block1	congruent/STIM_029.jpg
1193.589	0.859	incorrect	incongruent	Block2	incongruent/STIM_000.jpg
1196.891	1.169	correct	incongruent	Block2	incongruent/STIM_000.jpg
1201.05	1.072	correct	incongruent	Block2	incongruent/STIM_000.jpg
1205.238	0.774	correct	incongruent	Block2	incongruent/STIM_000.jpg
1209.895	0.738	correct	incongruent	Block2	incongruent/STIM_000.jpg
1214.081	1.088	correct	incongruent	Block2	incongruent/STIM_001.jpg
1217.618	1.085	correct	incongruent	Block2	incongruent/STIM_001.jpg
1221.065	0.928	correct	incongruent	Block2	incongruent/STIM_001.jpg
1224.215	0.621	correct	incongruent	Block2	incongruent/STIM_001.jpg
1227.262	1.118	correct	incongruent	Block2	incongruent/STIM_001.jpg
1231.952	1.062	correct	incongruent	Block2	incongruent/STIM_002.jpg
1235.091	1.131	correct	incongruent	Block2	incongruent/STIM_002.jpg
1239.696	1.031	correct	incongruent	Block2	incongruent/STIM_002.jpg
1244.387	1.034	correct	incongruent	Block2	incongruent/STIM_002.jpg
1248.417	0.731	correct	incongruent	Block2	incongruent/STIM_002.jpg
1252.904	1.094	correct	incongruent	Block2	incongruent/STIM_003.jpg
1257.377	0.616	correct	incongruent	Block2	incongruent/STIM_003.jpg
1260.407	1.213	correct	incongruent	Block2	incongruent/STIM_003.jpg
1265.39	0.663	correct	incongruent	Block2	incongruent/STIM_003.jpg
1268.091	0.655	correct	incongruent	Block2	incongruent/STIM_003.jpg
1272.0	1.254	correct	incongruent	Block2	incongruent/STIM_004.jpg
1277.086	1.148	correct	incongruent	Block2	incongruent/STIM_004.jpg
1280.362	0.775	correct	incongruent	Block2	incongruent/STIM_004.jpg
1284.511	0.567	correct	incongruent	Block2	incongruent/STIM_004.jpg
1288.752	0.749	correct	incongruent	Block2	incongruent/STIM_004.jpg
1292.153	0.992	correct	incongruent	Block2	incongruent/STIM_005.jpg
1296.706	0.954	correct	incongruent	Block2	incongruent/STIM_005.jpg
1300.706	0.721	correct	incongruent	Block2	incongruent/STIM_005.jpg
1305.299	1.062	correct	incongruent	Block2	incongruent/STIM_005.jpg
1308.436	1.02	incorrect	incongruent	Block2	incongruent/STIM_005.jpg
1311.663	1.377	incorrect	incongruent	Block2	incongruent/STIM_006.jpg
1316.276	1.201	incorrect	incongruent	Block2	incongruent/STIM_006.jpg
1319.69	1.176	correct	incongruent	Block2	incongruent/STIM_006.jpg
1324.457	0.988	correct	incongruent	Block2	incongruent/STIM_006.jpg
1327.927	1.034	correct	incongruent	Block2	incongruent/STIM_006.jpg
1331.215	1.23	correct	incongruent	Block2	incongruent/STIM_007.jpg
1334.879	0.86	correct	incongruent	Block2	incongruent/STIM_007.jpg
1338.937	0.666	correct	incongruent	Block2	incongruent/STIM_007.jpg
1342.954	0.683	correct	incongruent	Block2	incongruent/STIM_007.jpg
1346.292	0.59	correct	incongruent	Block2	incongruent/STIM_007.jpg
1350.547	0.927	correct	incongruent	Block2	incongruent/STIM_008.jpg
1353.726	0.841	correct	incongruent	Block2	incongruent/STIM_008.jpg
1357.25	1.207	correct	incongruent	Block2	incongruent/STIM_008.jpg
1361.6	1.123	correct	incongruent	Block2	incongruent/STIM_008.jpg
1364.953	0.844	correct	incongruent	Block2	incongruent/STIM_008.jpg
1368.422	0.742	correct	incongruent	Block2	incongruent/STIM_009.jpg
1371.8	0.939	correct	incongruent	Block2	incongruent/STIM_009.jpg
1376.057	0.662	correct	incongruent	Block2	incongruent/STIM_009.jpg
1380.61	0.907	incorrect	incongruent	Block2	incongruent/STIM_009.jpg
1384.456	0.986	correct	incongruent	Block2	incongruent/STIM_009.jpg
1389.046	1.376	correct	incongruent	Block2	incongruent/STIM_010.jpg
1392.795	1.149	correct	incongruent	Block2	incongruent/STIM_010.jpg
1396.515	0.712	incorrect	incongruent	Block2	incongruent/STIM_010.jpg
1400.134	1.057	correct	incongruent	Block2	incongruent/STIM_010.jpg
1404.3	1.01	correct	incongruent	Block2	incongruent/STIM_010.jpg
1407.465	1.21	correct	incongruent	Block2	incongruent/STIM_011.jpg
1411.549	1.035	correct	incongruent	Block2	incongruent/STIM_011.jpg
1416.53	1.138	correct	incongruent	Block2	incongruent/STIM_011.jpg
1420.338	0.772	correct	incongruent	Block2	incongruent/STIM_011.jpg
1423.339	0.627	correct	incongruent	Block2	incongruent/STIM_011.jpg
1426.378	0.676	correct	incongruent	Block2	incongruent/STIM_012.jpg
1430.156	1.226	correct	incongruent	Block2	incongruent/STIM_012.jpg
1434.187	0.601	correct	incongruent	Block2	incongruent/STIM_012.jpg
1438.193	0.929	correct	incongruent	Block2	incongruent/STIM_012.jpg
1441.83	0.698	correct	incongruent	Block2	incongruent/STIM_012.jpg
1445.333	1.293	correct	incongruent	Block2	incongruent/STIM_013.jpg
1449.041	0.948	correct	incongruent	Block2	incongruent/STIM_013.jpg
1453.429	1.149	correct	incongruent	Block2	incongruent/STIM_013.jpg
1457.702	0.644	correct	incongruent	Block2	incongruent/STIM_013.jpg
1461.345	0.688	correct	incongruent	Block2	incongruent/STIM_013.jpg
1465.0	0.844	correct	incongruent	Block2	incongruent/STIM_014.jpg
1468.765	0.912	correct	incongruent	Block2	incongruent/STIM_014.jpg
1472.912	0.806	correct	incongruent	Block2	incongruent/STIM_014.jpg
1477.373	0.58	correct	incongruent	Block2	incongruent/STIM_014.jpg
1481.742	0.906	correct	incongruent	Block2	incongruent/STIM_014.jpg
1486.517	0.657	correct	incongruent	Block2	incongruent/STIM_015.jpg
1490.914	0.872	correct	incongruent	Block2	incongruent/STIM_015.jpg
1495.499	0.894	correct	incongruent	Block2	incongruent/STIM_015.jpg
1499.887	0.582	correct	incongruent	Block2	incongruent/STIM_015.jpg
1502.618	0.938	correct	incongruent	Block2	incongruent/STIM_015.jpg
1507.416	0.943	correct	incongruent	Block2	incongruent/STIM_016.jpg
1510.61	1.2	correct	incongruent	Block2	incongruent/STIM_016.jpg
1513.92	0.684	correct	incongruent	Block2	incongruent/STIM_016.jpg
1517.65	0.532	correct	incongruent	Block2	incongruent/STIM_016.jpg
1521.887	0.624	correct	incongruent	Block2	incongruent/STIM_016.jpg
1525.135	1.269	correct	incongruent	Block2	incongruent/STIM_017.jpg
1529.954	1.234	correct	incongruent	Block2	incongruent/STIM_017.jpg
1534.842	0.75	correct	incongruent	Block2	incongruent/STIM_017.jpg
1538.206	0.593	correct	incongruent	Block2	incongruent/STIM_017.jpg
1542.265	0.852	correct	incongruent	Block2	incongruent/STIM_017.jpg
1545.555	0.758	correct	incongruent	Block2	incongruent/STIM_018.jpg
1548.797	0.784	correct	incongruent	Block2	incongruent/STIM_018.jpg
1551.649	0.712	correct	incongruent	Block2	incongruent/STIM_018.jpg
1556.255	0.665	correct	incongruent	Block2	incongruent/STIM_018.jpg
1558.935	1.102	correct	incongruent	Block2	incongruent/STIM_018.jpg
1562.058	1.351	correct	incongruent	Block2	incongruent/STIM_019.jpg
1565.56	0.986	correct	incongruent	Block2	incongruent/STIM_019.jpg
1570.211	0.913	correct	incongruent	Block2	incongruent/STIM_019.jpg
1573.433	0.693	correct	incongruent	Block2	incongruent/STIM_019.jpg
1577.322	0.8	correct	incongruent	Block2	incongruent/STIM_019.jpg
1581.466	1.358	correct	incongruent	Block2	incongruent/STIM_020.jpg
1585.633	0.729	correct	incongruent	Block2	incongruent/STIM_020.jpg
1589.263	0.89	correct	incongruent	Block2	incongruent/STIM_020.jpg
1592.336	0.81	correct	incongruent	Block2	incongruent/STIM_020.jpg
1597.127	0.597	correct	incongruent	Block2	incongruent/STIM_020.jpg
1600.574	0.854	correct	incongruent	Block2	incongruent/STIM_021.jpg
1605.194	0.832	correct	incongruent	Block2	incongruent/STIM_021.jpg
1609.031	0.974	correct	incongruent	Block2	incongruent/STIM_021.jpg
1613.963	0.996	correct	incongruent	Block2	incongruent/STIM_021.jpg
1617.295	0.926	correct	incongruent	Block2	incongruent/STIM_021.jpg
1622.067	1.285	incorrect	incongruent	Block2	incongruent/STIM_022.jpg
1625.433	0.944	correct	incongruent	Block2	incongruent/STIM_022.jpg
1630.04	1.017	correct	incongruent	Block2	incongruent/STIM_022.jpg
1633.638	0.539	correct	incongruent	Block2	incongruent/STIM_022.jpg
1636.665	1.108	correct	incongruent	Block2	incongruent/STIM_022.jpg
1639.97	1.16	correct	incongruent	Block2	incongruent/STIM_023.jpg
1644.649	1.222	correct	incongruent	Block2	incongruent/STIM_023.jpg
1648.411	0.763	correct	incongruent	Block2	incongruent/STIM_023.jpg
1651.296	1.059	correct	incongruent	Block2	incongruent/STIM_023.jpg
1655.682	0.673	correct	incongruent	Block2	incongruent/STIM_023.jpg
1659.56	1.358	correct	incongruent	Block2	incongruent/STIM_024.jpg
1664.301	1.008	correct	incongruent	Block2	incongruent/STIM_024.jpg
1668.472	0.838	correct	incongruent	Block2	incongruent/STIM_024.jpg
1671.617	0.609	correct	incongruent	Block2	incongruent/STIM_024.jpg
1675.776	0.721	correct	incongruent	Block2	incongruent/STIM_024.jpg
1678.896	1.363	correct	incongruent	Block2	incongruent/STIM_025.jpg
1684.081	1.15	correct	incongruent	Block2	incongruent/STIM_025.jpg
1688.484	1.156	correct	incongruent	Block2	incongruent/STIM_025.jpg
1692.079	0.661	incorrect	incongruent	Block2	incongruent/STIM_025.jpg
1695.24	0.753	correct	incongruent	Block2	incongruent/STIM_025.jpg
1699.123	0.726	correct	incongruent	Block2	incongruent/STIM_026.jpg
1702.658	1.045	incorrect	incongruent	Block2	incongruent/STIM_026.jpg
1706.268	0.603	correct	incongruent	Block2	incongruent/STIM_026.jpg
1710.684	0.903	correct	incongruent	Block2	incongruent/STIM_026.jpg
1714.65	0.793	correct	incongruent	Block2	incongruent/STIM_026.jpg
1718.403	0.911	correct	incongruent	Block2	incongruent/STIM_027.jpg
1723.211	1.183	correct	incongruent	Block2	incongruent/STIM_027.jpg
1727.329	0.922	correct	incongruent	Block2	incongruent/STIM_027.jpg
1730.652	0.907	correct	incongruent	Block2	incongruent/STIM_027.jpg
1734.218	1.018	correct	incongruent	Block2	incongruent/STIM_027.jpg
1739.125	0.897	correct	incongruent	Block2	incongruent/STIM_028.jpg
1743.057	0.618	incorrect	incongruent	Block2	incongruent/STIM_028.jpg
1746.816	0.597	incorrect	incongruent	Block2	incongruent/STIM_028.jpg
1749.996	0.684	correct	incongruent	Block2	incongruent/STIM_028.jpg
1754.584	0.914	correct	incongruent	Block2	incongruent/STIM_028.jpg
1758.232	0.664	correct	incongruent	Block2	incongruent/STIM_029.jpg
1761.921	0.91	correct	incongruent	Block2	incongruent/STIM_029.jpg
1766.797	1.108	incorrect	incongruent	Block2	incongruent/STIM_029.jpg
1770.6	0.758	correct	incongruent	Block2	incongruent/STIM_029.jpg
1774.564	0.559	correct	incongruent	Block2	incongruent/STIM_029.jpg
1778.717	0.766	correct	congruent	Block2	congruent/STIM_000.jpg
1782.452	0.898	correct	congruent	Block2	congruent/STIM_000.jpg
1786.471	0.759	correct	congruent	Block2	congruent/STIM_000.jpg
1791.125	0.869	correct	congruent	Block2	congruent/STIM_000.jpg
1794.383	0.602	correct	congruent	Block2	congruent/STIM_000.jpg
1797.093	0.922	correct	congruent	Block2	congruent/STIM_001.jpg
1801.971	0.802	correct	congruent	Block2	congruent/STIM_001.jpg
1806.007	0.774	correct	congruent	Block2	congruent/STIM_001.jpg
1809.124	0.872	correct	congruent	Block2	congruent/STIM_001.jpg
1813.065	0.804	correct	congruent	Block2	congruent/STIM_001.jpg
1815.877	0.782	correct	congruent	Block2	congruent/STIM_002.jpg
1820.034	0.705	correct	congruent	Block2	congruent/STIM_002.jpg
1822.997	0.757	correct	congruent	Block2	congruent/STIM_002.jpg
1826.614	0.818	correct	congruent	Block2	congruent/STIM_002.jpg
1829.84	0.549	correct	congruent	Block2	congruent/STIM_002.jpg
1833.712	0.913	correct	congruent	Block2	congruent/STIM_003.jpg
1838.394	0.616	correct	congruent	Block2	congruent/STIM_003.jpg
1842.768	0.85	correct	congruent	Block2	congruent/STIM_003.jpg
1846.038	0.918	correct	congruent	Block2	congruent/STIM_003.jpg
1850.454	0.77	correct	congruent	Block2	congruent/STIM_003.jpg
1854.047	0.721	correct	congruent	Block2	congruent/STIM_004.jpg
1857.937	0.973	correct	congruent	Block2	congruent/STIM_004.jpg
1861.28	0.937	correct	congruent	Block2	congruent/STIM_004.jpg
1864.543	0.759	correct	congruent	Block2	congruent/STIM_004.jpg
1868.254	0.805	correct	congruent	Block2	congruent/STIM_004.jpg
1872.478	0.851	correct	congruent	Block2	congruent/STIM_005.jpg
1875.7	0.782	correct	congruent	Block2	congruent/STIM_005.jpg
1880.407	0.662	incorrect	congruent	Block2	congruent/STIM_005.jpg
1884.32	0.765	correct	congruent	Block2	congruent/STIM_005.jpg
1887.537	0.87	correct	congruent	Block2	congruent/STIM_005.jpg
1892.045	0.816	correct	congruent	Block2	congruent/STIM_006.jpg
1895.017	0.616	correct	congruent	Block2	congruent/STIM_006.jpg
1899.573	0.723	correct	congruent	Block2	congruent/STIM_006.jpg
1903.17	0.625	correct	congruent	Block2	congruent/STIM_006.jpg
1907.506	0.558	correct	congruent	Block2	congruent/STIM_006.jpg
1910.591	0.566	correct	congruent	Block2	congruent/STIM_007.jpg
1914.407	0.834	correct	congruent	Block2	congruent/STIM_007.jpg
1918.145	0.564	correct	congruent	Block2	congruent/STIM_007.jpg
1921.92	0.78	correct	congruent	Block2	congruent/STIM_007.jpg
1925.089	0.794	correct	congruent	Block2	congruent/STIM_007.jpg
1929.075	0.633	correct	congruent	Block2	congruent/STIM_008.jpg
1931.923	0.836	correct	congruent	Block2	congruent/STIM_008.jpg
1935.952	0.691	incorrect	congruent	Block2	congruent/STIM_008.jpg
1939.251	0.629	correct	congruent	Block2	congruent/STIM_008.jpg
1943.822	0.569	correct	congruent	Block2	congruent/STIM_008.jpg
1947.804	0.935	correct	congruent	Block2	congruent/STIM_009.jpg
1952.153	0.935	correct	congruent	Block2	congruent/STIM_009.jpg
1956.71	0.89	correct	congruent	Block2	congruent/STIM_009.jpg
1960.287	0.658	correct	congruent	Block2	congruent/STIM_009.jpg
1964.883	0.735	correct	congruent	Block2	congruent/STIM_009.jpg
1968.394	0.614	correct	congruent	Block2	congruent/STIM_010.jpg
1971.551	0.881	correct	congruent	Block2	congruent/STIM_010.jpg
1974.553	0.553	correct	congruent	Block2	congruent/STIM_010.jpg
1978.317	0.718	correct	congruent	Block2	congruent/STIM_010.jpg
1982.392	0.671	correct	congruent	Block2	congruent/STIM_010.jpg
1987.062	0.831	correct	congruent	Block2	congruent/STIM_011.jpg
1990.055	0.67	correct	congruent	Block2	congruent/STIM_011.jpg
1994.572	0.822	correct	congruent	Block2	congruent/STIM_011.jpg
1998.873	0.904	correct	congruent	Block2	congruent/STIM_011.jpg
2002.695	0.782	correct	congruent	Block2	congruent/STIM_011.jpg
2007.453	0.681	incorrect	congruent	Block2	congruent/STIM_012.jpg
2011.01	0.586	correct	congruent	Block2	congruent/STIM_012.jpg
2014.279	0.961	correct	congruent	Block2	congruent/STIM_012.jpg
2018.723	0.66	correct	congruent	Block2	congruent/STIM_012.jpg
2023.369	0.928	correct	congruent	Block2	congruent/STIM_012.jpg
2026.749	0.584	correct	congruent	Block2	congruent/STIM_013.jpg
2029.897	0.955	correct	congruent	Block2	congruent/STIM_013.jpg
2033.285	0.612	correct	congruent	Block2	congruent/STIM_013.jpg
2036.456	0.612	correct	congruent	Block2	congruent/STIM_013.jpg
2041.027	0.715	correct	congruent	Block2	congruent/STIM_013.jpg
2045.669	0.902	correct	congruent	Block2	congruent/STIM_014.jpg
2048.645	0.664	correct	congruent	Block2	congruent/STIM_014.jpg
2053.259	0.559	incorrect	congruent	Block2	congruent/STIM_014.jpg
2056.459	0.863	correct	congruent	Block2	congruent/STIM_014.jpg
2061.047	0.706	correct	congruent	Block2	congruent/STIM_014.jpg
2064.812	0.649	correct	congruent	Block2	congruent/STIM_015.jpg
2068.124	0.884	correct	congruent	Block2	congruent/STIM_015.jpg
2072.318	0.721	correct	congruent	Block2	congruent/STIM_015.jpg
2076.118	0.764	correct	congruent	Block2	congruent/STIM_015.jpg
2079.852	0.785	correct	congruent	Block2	congruent/STIM_015.jpg
2083.522	0.631	correct	congruent	Block2	congruent/STIM_016.jpg
2088.094	0.588	correct	congruent	Block2	congruent/STIM_016.jpg
2090.979	0.938	correct	congruent	Block2	congruent/STIM_016.jpg
2095.348	0.701	incorrect	congruent	Block2	congruent/STIM_016.jpg
2099.615	0.862	correct	congruent	Block2	congruent/STIM_016.jpg
2103.66	0.777	correct	congruent	Block2	congruent/STIM_017.jpg
2106.607	0.777	correct	congruent	Block2	congruent/STIM_017.jpg
2109.391	0.96	correct	congruent	Block2	congruent/STIM_017.jpg
2113.492	0.918	incorrect	congruent	Block2	congruent/STIM_017.jpg
2116.94	0.824	correct	congruent	Block2	congruent/STIM_017.jpg
2120.591	0.765	correct	congruent	Block2	congruent/STIM_018.jpg
2123.729	0.902	correct	congruent	Block2	congruent/STIM_018.jpg
2126.882	0.747	correct	congruent	Block2	congruent/STIM_018.jpg
2129.984	0.909	correct	congruent	Block2	congruent/STIM_018.jpg
2133.051	0.84	correct	congruent	Block2	congruent/STIM_018.jpg
2137.524	0.629	correct	congruent	Block2	congruent/STIM_019.jpg
2141.934	0.708	correct	congruent	Block2	congruent/STIM_019.jpg
2145.807	0.904	correct	congruent	Block2	congruent/STIM_019.jpg
2149.33	0.893	correct	congruent	Block2	congruent/STIM_019.jpg
2153.26	0.732	correct	congruent	Block2	congruent/STIM_019.jpg
2157.796	0.794	correct	congruent	Block2	congruent/STIM_020.jpg
2162.347	0.7	correct	congruent	Block2	congruent/STIM_020.jpg
2165.491	0.962	correct	congruent	Block2	congruent/STIM_020.jpg
2169.822	0.552	correct	congruent	Block2	congruent/STIM_020.jpg
2173.135	0.914	correct	congruent	Block2	congruent/STIM_020.jpg
2177.973	0.848	correct	congruent	Block2	congruent/STIM_021.jpg
2182.117	0.652	correct	congruent	Block2	congruent/STIM_021.jpg
2186.752	0.838	correct	congruent	Block2	congruent/STIM_021.jpg
2191.277	0.971	incorrect	congruent	Block2	congruent/STIM_021.jpg
2194.942	0.659	correct	congruent	Block2	congruent/STIM_021.jpg
2198.095	0.737	correct	congruent	Block2	congruent/STIM_022.jpg
2201.47	0.609	correct	congruent	Block2	congruent/STIM_022.jpg
2204.614	0.937	incorrect	congruent	Block2	congruent/STIM_022.jpg
2209.541	0.799	correct	congruent	Block2	congruent/STIM_022.jpg
2213.444	0.633	correct	congruent	Block2	congruent/STIM_022.jpg
2216.667	0.776	correct	congruent	Block2	congruent/STIM_023.jpg
2220.633	0.752	correct	congruent	Block2	congruent/STIM_023.jpg
2225.235	0.917	correct	congruent	Block2	congruent/STIM_023.jpg
2229.266	0.831	correct	congruent	Block2	congruent/STIM_023.jpg
2232.194	0.801	correct	congruent	Block2	congruent/STIM_023.jpg
2236.234	0.79	correct	congruent	Block2	congruent/STIM_024.jpg
2239.916	0.832	correct	congruent	Block2	congruent/STIM_024.jpg
2243.09	0.762	correct	congruent	Block2	congruent/STIM_024.jpg
2245.973	0.946	correct	congruent	Block2	congruent/STIM_024.jpg
2249.346	0.785	correct	congruent	Block2	congruent/STIM_024.jpg
2252.721	0.652	incorrect	congruent	Block2	congruent/STIM_025.jpg
2257.356	0.973	correct	congruent	Block2	congruent/STIM_025.jpg
2261.48	0.616	correct	congruent	Block2	congruent/STIM_025.jpg
2265.349	0.692	correct	congruent	Block2	congruent/STIM_025.jpg
2269.475	0.667	correct	congruent	Block2	congruent/STIM_025.jpg
2272.142	0.907	correct	congruent	Block2	congruent/STIM_026.jpg
2276.328	0.575	correct	congruent	Block2	congruent/STIM_026.jpg
2279.514	0.605	incorrect	congruent	Block2	congruent/STIM_026.jpg
2282.488	0.541	correct	congruent	Block2	congruent/STIM_026.jpg
2286.286	0.584	correct	congruent	Block2	congruent/STIM_026.jpg
2290.849	0.895	correct	congruent	Block2	congruent/STIM_027.jpg
2294.044	0.649	correct	congruent	Block2	congruent/STIM_027.jpg
2297.293	0.885	correct	congruent	Block2	congruent/STIM_027.jpg
2300.754	0.797	correct	congruent	Block2	congruent/STIM_027.jpg
2304.391	0.97	correct	congruent	Block2	congruent/STIM_027.jpg
2308.193	0.928	incorrect	congruent	Block2	congruent/STIM_028.jpg
2312.505	0.731	correct	congruent	Block2	congruent/STIM_028.jpg
2316.415	0.798	correct	congruent	Block2	congruent/STIM_028.jpg
2319.631	0.718	correct	congruent	Block2	congruent/STIM_028.jpg
2323.013	0.644	incorrect	congruent	Block2	congruent/STIM_028.jpg
2326.733	0.621	correct	congruent	Block2	congruent/STIM_029.jpg
2329.856	0.712	correct	congruent	Block2	congruent/STIM_029.jpg
2333.248	0.844	correct	congruent	Block2	congruent/STIM_029.jpg
2336.879	0.803	correct	congruent	Block2	congruent/STIM_029.jpg
2341.161	0.849	correct	congruent	Block2	congruent/STIM_029.jpg
2345.849	1.045	incorrect	incongruent	Block3	incongruent/STIM_000.jpg
2349.954	0.943	correct	incongruent	Block3	incongruent/STIM_000.jpg
2353.215	0.628	correct	incongruent	Block3	incongruent/STIM_000.jpg
2355.884	1.056	correct	incongruent	Block3	incongruent/STIM_000.jpg
2358.95	0.792	correct	incongruent	Block3	incongruent/STIM_000.jpg
2361.871	1.119	correct	incongruent	Block3	incongruent/STIM_001.jpg
2366.932	0.936	correct	incongruent	Block3	incongruent/STIM_001.jpg
2370.555	0.664	correct	incongruent	Block3	incongruent/STIM_001.jpg
2373.848	0.965	correct	incongruent	Block3	incongruent/STIM_001.jpg
2378.193	0.97	correct	incongruent	Block3	incongruent/STIM_001.jpg
2382.725	0.979	correct	incongruent	Block3	incongruent/STIM_002.jpg
2387.439	0.792	correct	incongruent	Block3	incongruent/STIM_002.jpg
2390.561	0.957	correct	incongruent	Block3	incongruent/STIM_002.jpg
2394.636	1.041	correct	incongruent	Block3	incongruent/STIM_002.jpg
2399.556	0.56	correct	incongruent	Block3	incongruent/STIM_002.jpg
2402.794	1.126	correct	incongruent	Block3	incongruent/STIM_003.jpg
2407.003	0.674	correct	incongruent	Block3	incongruent/STIM_003.jpg
2410.952	1.004	correct	incongruent	Block3	incongruent/STIM_003.jpg
2414.983	0.876	correct	incongruent	Block3	incongruent/STIM_003.jpg
2419.418	0.639	correct	incongruent	Block3	incongruent/STIM_003.jpg
2423.561	0.803	correct	incongruent	Block3	incongruent/STIM_004.jpg
2428.246	0.838	correct	incongruent	Block3	incongruent/STIM_004.jpg
2431.281	1.065	correct	incongruent	Block3	incongruent/STIM_004.jpg
2436.283	0.78	correct	incongruent	Block3	incongruent/STIM_004.jpg
2439.909	0.674	correct	incongruent	Block3	incongruent/STIM_004.jpg
2444.436	0.712	correct	incongruent	Block3	incongruent/STIM_005.jpg
2449.127	0.879	correct	incongruent	Block3	incongruent/STIM_005.jpg
2453.876	0.925	correct	incongruent	Block3	incongruent/STIM_005.jpg
2456.809	0.538	correct	incongruent	Block3	incongruent/STIM_005.jpg
2460.826	0.771	incorrect	incongruent	Block3	incongruent/STIM_005.jpg
2465.146	1.099	correct	incongruent	Block3	incongruent/STIM_006.jpg
2468.546	1.019	correct	incongruent	Block3	incongruent/STIM_006.jpg
2473.562	1.042	correct	incongruent	Block3	incongruent/STIM_006.jpg
2477.635	0.694	correct	incongruent	Block3	incongruent/STIM_006.jpg
2481.112	0.985	correct	incongruent	Block3	incongruent/STIM_006.jpg
2485.528	1.012	correct	incongruent	Block3	incongruent/STIM_007.jpg
2490.233	1.08	correct	incongruent	Block3	incongruent/STIM_007.jpg
2494.773	0.565	correct	incongruent	Block3	incongruent/STIM_007.jpg
2499.334	0.593	correct	incongruent	Block3	incongruent/STIM_007.jpg
2503.496	0.78	correct	incongruent	Block3	incongruent/STIM_007.jpg
2508.215	1.079	correct	incongruent	Block3	incongruent/STIM_008.jpg
2512.177	0.98	correct	incongruent	Block3	incongruent/STIM_008.jpg
2516.863	1.0	correct	incongruent	Block3	incongruent/STIM_008.jpg
2520.188	1.098	correct	incongruent	Block3	incongruent/STIM_008.jpg
2524.045	0.779	correct	incongruent	Block3	incongruent/STIM_008.jpg
2527.072	0.965	correct	incongruent	Block3	incongruent/STIM_009.jpg
2531.747	0.852	correct	incongruent	Block3	incongruent/STIM_009.jpg
2535.069	0.794	correct	incongruent	Block3	incongruent/STIM_009.jpg
2539.458	1.07	correct	incongruent	Block3	incongruent/STIM_009.jpg
2543.0	0.658	correct	incongruent	Block3	incongruent/STIM_009.jpg
2546.703	0.988	correct	incongruent	Block3	incongruent/STIM_010.jpg
2551.424	0.837	correct	incongruent	Block3	incongruent/STIM_010.jpg
2556.046	0.64	correct	incongruent	Block3	incongruent/STIM_010.jpg
2560.581	0.565	correct	incongruent	Block3	incongruent/STIM_010.jpg
2563.926	0.913	correct	incongruent	Block3	incongruent/STIM_010.jpg
2567.52	0.966	correct	incongruent	Block3	incongruent/STIM_011.jpg
2570.794	0.883	correct	incongruent	Block3	incongruent/STIM_011.jpg
2575.221	0.61	correct	incongruent	Block3	incongruent/STIM_011.jpg
2579.344	0.686	correct	incongruent	Block3	incongruent/STIM_011.jpg
2582.611	0.964	correct	incongruent	Block3	incongruent/STIM_011.jpg
2587.51	1.115	correct	incongruent	Block3	incongruent/STIM_012.jpg
2592.467	0.833	correct	incongruent	Block3	incongruent/STIM_012.jpg
2595.575	1.095	correct	incongruent	Block3	incongruent/STIM_012.jpg
2599.12	0.843	correct	incongruent	Block3	incongruent/STIM_012.jpg
2602.051	0.737	correct	incongruent	Block3	incongruent/STIM_012.jpg
2606.127	1.11	correct	incongruent	Block3	incongruent/STIM_013.jpg
2610.758	0.709	correct	incongruent	Block3	incongruent/STIM_013.jpg
2614.088	0.676	correct	incongruent	Block3	incongruent/STIM_013.jpg
2617.046	0.971	correct	incongruent	Block3	incongruent/STIM_013.jpg
2621.58	0.968	correct	incongruent	Block3	incongruent/STIM_013.jpg
2624.996	0.988	correct	incongruent	Block3	incongruent/STIM_014.jpg
2629.483	0.68	incorrect	incongruent	Block3	incongruent/STIM_014.jpg
2632.618	0.883	correct	incongruent	Block3	incongruent/STIM_014.jpg
2636.007	0.833	correct	incongruent	Block3	incongruent/STIM_014.jpg
2640.248	0.611	correct	incongruent	Block3	incongruent/STIM_014.jpg
2643.772	0.797	correct	incongruent	Block3	incongruent/STIM_015.jpg
2648.024	0.956	correct	incongruent	Block3	incongruent/STIM_015.jpg
2652.09	0.66	correct	incongruent	Block3	incongruent/STIM_015.jpg
2656.197	0.929	correct	incongruent	Block3	incongruent/STIM_015.jpg
2660.344	0.615	correct	incongruent	Block3	incongruent/STIM_015.jpg
2663.121	0.605	correct	incongruent	Block3	incongruent/STIM_016.jpg
2666.436	1.094	correct	incongruent	Block3	incongruent/STIM_016.jpg
2669.813	0.892	correct	incongruent	Block3	incongruent/STIM_016.jpg
2673.479	0.933	correct	incongruent	Block3	incongruent/STIM_016.jpg
2677.288	0.994	correct	incongruent	Block3	incongruent/STIM_016.jpg
2680.486	0.758	correct	incongruent	Block3	incongruent/STIM_017.jpg
2683.512	1.085	incorrect	incongruent	Block3	incongruent/STIM_017.jpg
2686.851	0.874	correct	incongruent	Block3	incongruent/STIM_017.jpg
2691.282	0.922	correct	incongruent	Block3	incongruent/STIM_017.jpg
2695.191	1.094	correct	incongruent	Block3	incongruent/STIM_017.jpg
2698.751	0.892	correct	incongruent	Block3	incongruent/STIM_018.jpg
2702.518	0.783	correct	incongruent	Block3	incongruent/STIM_018.jpg
2707.16	0.89	correct	incongruent	Block3	incongruent/STIM_018.jpg
2710.062	0.87	correct	incongruent	Block3	incongruent/STIM_018.jpg
2713.995	1.003	correct	incongruent	Block3	incongruent/STIM_018.jpg
2717.272	1.072	correct	incongruent	Block3	incongruent/STIM_019.jpg
2721.039	1.015	correct	incongruent	Block3	incongruent/STIM_019.jpg
2725.089	1.064	correct	incongruent	Block3	incongruent/STIM_019.jpg
2728.895	0.669	correct	incongruent	Block3	incongruent/STIM_019.jpg
2732.098	1.028	correct	incongruent	Block3	incongruent/STIM_019.jpg
2737.095	0.748	correct	incongruent	Block3	incongruent/STIM_020.jpg
2741.041	0.748	correct	incongruent	Block3	incongruent/STIM_020.jpg
2745.255	0.913	correct	incongruent	Block3	incongruent/STIM_020.jpg
2749.837	0.715	correct	incongruent	Block3	incongruent/STIM_020.jpg
2752.735	0.871	correct	incongruent	Block3	incongruent/STIM_020.jpg
2757.033	1.052	correct	incongruent	Block3	incongruent/STIM_021.jpg
2760.136	0.636	correct	incongruent	Block3	incongruent/STIM_021.jpg
2763.407	1.054	correct	incongruent	Block3	incongruent/STIM_021.jpg
2766.971	1.041	correct	incongruent	Block3	incongruent/STIM_021.jpg
2770.637	1.088	correct	incongruent	Block3	incongruent/STIM_021.jpg
2773.979	1.008	correct	incongruent	Block3	incongruent/STIM_022.jpg
2777.945	0.564	correct	incongruent	Block3	incongruent/STIM_022.jpg
2781.053	0.71	incorrect	incongruent	Block3	incongruent/STIM_022.jpg
2785.275	1.094	correct	incongruent	Block3	incongruent/STIM_022.jpg
2789.123	0.786	correct	incongruent	Block3	incongruent/STIM_022.jpg
2793.699	0.932	correct	incongruent	Block3	incongruent/STIM_023.jpg
2797.791	0.663	correct	incongruent	Block3	incongruent/STIM_023.jpg
2800.86	0.847	correct	incongruent	Block3	incongruent/STIM_023.jpg
2805.503	0.777	correct	incongruent	Block3	incongruent/STIM_023.jpg
2809.223	0.741	correct	incongruent	Block3	incongruent/STIM_023.jpg
2812.685	0.722	correct	incongruent	Block3	incongruent/STIM_024.jpg
2817.349	0.97	correct	incongruent	Block3	incongruent/STIM_024.jpg
2822.065	0.742	correct	incongruent	Block3	incongruent/STIM_024.jpg
2826.473	0.994	correct	incongruent	Block3	incongruent/STIM_024.jpg
2830.74	0.913	correct	incongruent	Block3	incongruent/STIM_024.jpg
2834.476	0.887	incorrect	incongruent	Block3	incongruent/STIM_025.jpg
2837.538	0.892	correct	incongruent	Block3	incongruent/STIM_025.jpg
2840.684	0.775	correct	incongruent	Block3	incongruent/STIM_025.jpg
2845.037	1.063	correct	incongruent	Block3	incongruent/STIM_025.jpg
2849.75	0.899	correct	incongruent	Block3	incongruent/STIM_025.jpg
2854.06	0.722	incorrect	incongruent	Block3	incongruent/STIM_026.jpg
2856.992	0.818	correct	incongruent	Block3	incongruent/STIM_026.jpg
2860.04	0.664	correct	incongruent	Block3	incongruent/STIM_026.jpg
2863.909	0.977	correct	incongruent	Block3	incongruent/STIM_026.jpg
2868.802	0.92	correct	incongruent	Block3	incongruent/STIM_026.jpg
2873.086	0.554	correct	incongruent	Block3	incongruent/STIM_027.jpg
2875.723	1.043	correct	incongruent	Block3	incongruent/STIM_027.jpg
2879.686	0.99	correct	incongruent	Block3	incongruent/STIM_027.jpg
2883.156	0.756	correct	incongruent	Block3	incongruent/STIM_027.jpg
2886.649	0.864	correct	incongruent	Block3	incongruent/STIM_027.jpg
2889.809	0.644	correct	incongruent	Block3	incongruent/STIM_028.jpg
2893.967	0.932	correct	incongruent	Block3	incongruent/STIM_028.jpg
2898.899	0.784	correct	incongruent	Block3	incongruent/STIM_028.jpg
2902.047	0.839	correct	incongruent	Block3	incongruent/STIM_028.jpg
2905.889	0.622	correct	incongruent	Block3	incongruent/STIM_028.jpg
2909.773	0.858	correct	incongruent	Block3	incongruent/STIM_029.jpg
2913.123	0.869	correct	incongruent	Block3	incongruent/STIM_029.jpg
2917.02	0.795	correct	incongruent	Block3	incongruent/STIM_029.jpg
2919.826	0.737	correct	incongruent	Block3	incongruent/STIM_029.jpg
2923.268	1.108	correct	incongruent	Block3	incongruent/STIM_029.jpg
2926.441	0.9	correct	congruent	Block3	congruent/STIM_000.jpg
2930.34	0.868	correct	congruent	Block3	congruent/STIM_000.jpg
2933.257	0.558	correct	congruent	Block3	congruent/STIM_000.jpg
2936.385	0.574	correct	congruent	Block3	congruent/STIM_000.jpg
2939.535	0.643	correct	congruent	Block3	congruent/STIM_000.jpg
2943.06	0.565	correct	congruent	Block3	congruent/STIM_001.jpg
2947.355	0.594	correct	congruent	Block3	congruent/STIM_001.jpg
2950.805	0.552	correct	congruent	Block3	congruent/STIM_001.jpg
2954.456	0.729	correct	congruent	Block3	congruent/STIM_001.jpg
2958.702	0.81	correct	congruent	Block3	congruent/STIM_001.jpg
2961.969	0.928	correct	congruent	Block3	congruent/STIM_002.jpg
2966.481	0.828	correct	congruent	Block3	congruent/STIM_002.jpg
2969.998	0.553	correct	congruent	Block3	congruent/STIM_002.jpg
2973.88	0.686	correct	congruent	Block3	congruent/STIM_002.jpg
2976.975	0.802	correct	congruent	Block3	congruent/STIM_002.jpg
2979.921	0.933	correct	congruent	Block3	congruent/STIM_003.jpg
2982.934	0.78	correct	congruent	Block3	congruent/STIM_003.jpg
2987.069	0.664	correct	congruent	Block3	congruent/STIM_003.jpg
2990.925	0.856	incorrect	congruent	Block3	congruent/STIM_003.jpg
2993.867	0.618	incorrect	congruent	Block3	congruent/STIM_003.jpg
2998.322	0.598	correct	congruent	Block3	congruent/STIM_004.jpg
3002.635	0.868	correct	congruent	Block3	congruent/STIM_004.jpg
3006.047	0.937	correct	congruent	Block3	congruent/STIM_004.jpg
3009.374	0.798	correct	congruent	Block3	congruent/STIM_004.jpg
3013.642	0.838	incorrect	congruent	Block3	congruent/STIM_004.jpg
3017.115	0.726	correct	congruent	Block3	congruent/STIM_005.jpg
3021.578	0.574	correct	congruent	Block3	congruent/STIM_005.jpg
3025.121	0.642	correct	congruent	Block3	congruent/STIM_005.jpg
3028.59	0.711	correct	congruent	Block3	congruent/STIM_005.jpg
3031.642	0.623	correct	congruent	Block3	congruent/STIM_005.jpg
3035.983	0.661	correct	congruent	Block3	congruent/STIM_006.jpg
3040.241	0.553	correct	congruent	Block3	congruent/STIM_006.jpg
3042.937	0.779	correct	congruent	Block3	congruent/STIM_006.jpg
3047.01	0.663	correct	congruent	Block3	congruent/STIM_006.jpg
3050.37	0.897	correct	congruent	Block3	congruent/STIM_006.jpg
3055.082	0.581	correct	congruent	Block3	congruent/STIM_007.jpg
3059.359	0.627	correct	congruent	Block3	congruent/STIM_007.jpg
3063.446	0.689	correct	congruent	Block3	congruent/STIM_007.jpg
3067.923	0.82	correct	congruent	Block3	congruent/STIM_007.jpg
3072.196	0.814	correct	congruent	Block3	congruent/STIM_007.jpg
3075.354	0.97	correct	congruent	Block3	congruent/STIM_008.jpg
3078.474	0.827	correct	congruent	Block3	congruent/STIM_008.jpg
3081.406	0.871	correct	congruent	Block3	congruent/STIM_008.jpg
3084.361	0.624	incorrect	congruent	Block3	congruent/STIM_008.jpg
3087.102	0.599	correct	congruent	Block3	congruent/STIM_008.jpg
3089.894	0.727	correct	congruent	Block3	congruent/STIM_009.jpg
3093.284	0.853	correct	congruent	Block3	congruent/STIM_009.jpg
3097.356	0.714	correct	congruent	Block3	congruent/STIM_009.jpg
3101.685	0.554	correct	congruent	Block3	congruent/STIM_009.jpg
3105.751	0.856	correct	congruent	Block3	congruent/STIM_009.jpg
3110.248	0.626	correct	congruent	Block3	congruent/STIM_010.jpg
3112.933	0.547	correct	congruent	Block3	congruent/STIM_010.jpg
3116.382	0.913	correct	congruent	Block3	congruent/STIM_010.jpg
3120.755	0.813	correct	congruent	Block3	congruent/STIM_010.jpg
3123.906	0.929	correct	congruent	Block3	congruent/STIM_010.jpg
3127.024	0.822	correct	congruent	Block3	congruent/STIM_011.jpg
3130.768	0.865	incorrect	congruent	Block3	congruent/STIM_011.jpg
3133.899	0.752	correct	congruent	Block3	congruent/STIM_011.jpg
3138.118	0.614	correct	congruent	Block3	congruent/STIM_011.jpg
3142.126	0.779	correct	congruent	Block3	congruent/STIM_011.jpg
3146.829	0.682	correct	congruent	Block3	congruent/STIM_012.jpg
3149.575	0.855	correct	congruent	Block3	congruent/STIM_012.jpg
3154.298	0.973	correct	congruent	Block3	congruent/STIM_012.jpg
3158.84	0.624	correct	congruent	Block3	congruent/STIM_012.jpg
3161.478	0.681	correct	congruent	Block3	congruent/STIM_012.jpg
3165.123	0.973	correct	congruent	Block3	congruent/STIM_013.jpg
3168.303	0.599	correct	congruent	Block3	congruent/STIM_013.jpg
3172.5	0.61	incorrect	congruent	Block3	congruent/STIM_013.jpg
3176.845	0.571	incorrect	congruent	Block3	congruent/STIM_013.jpg
3180.204	0.929	correct	congruent	Block3	congruent/STIM_013.jpg
3183.445	0.612	correct	congruent	Block3	congruent/STIM_014.jpg
3187.743	0.6	correct	congruent	Block3	congruent/STIM_014.jpg
3191.334	0.916	correct	congruent	Block3	congruent/STIM_014.jpg
3195.537	0.893	correct	congruent	Block3	congruent/STIM_014.jpg
3199.774	0.912	correct	congruent	Block3	congruent/STIM_014.jpg
3204.08	0.579	correct	congruent	Block3	congruent/STIM_015.jpg
3207.308	0.678	correct	congruent	Block3	congruent/STIM_015.jpg
3211.116	0.892	correct	congruent	Block3	congruent/STIM_015.jpg
3215.044	0.847	correct	congruent	Block3	congruent/STIM_015.jpg
3219.209	0.695	correct	congruent	Block3	congruent/STIM_015.jpg
3222.628	0.774	incorrect	congruent	Block3	congruent/STIM_016.jpg
3226.11	0.657	correct	congruent	Block3	congruent/STIM_016.jpg
3230.417	0.893	correct	congruent	Block3	congruent/STIM_016.jpg
3233.425	0.732	correct	congruent	Block3	congruent/STIM_016.jpg
3237.857	0.875	correct	congruent	Block3	congruent/STIM_016.jpg
3242.238	0.821	correct	congruent	Block3	congruent/STIM_017.jpg
3245.807	0.715	correct	congruent	Block3	congruent/STIM_017.jpg
3250.008	0.774	correct	congruent	Block3	congruent/STIM_017.jpg
3254.337	0.748	correct	congruent	Block3	congruent/STIM_017.jpg
3257.597	0.941	correct	congruent	Block3	congruent/STIM_017.jpg
3262.239	0.793	correct	congruent	Block3	congruent/STIM_018.jpg
3266.095	0.593	correct	congruent	Block3	congruent/STIM_018.jpg
3270.26	0.666	incorrect	congruent	Block3	congruent/STIM_018.jpg
3274.299	0.933	correct	congruent	Block3	congruent/STIM_018.jpg
3278.868	0.743	correct	congruent	Block3	congruent/STIM_018.jpg
3283.608	0.873	incorrect	congruent	Block3	congruent/STIM_019.jpg
3287.998	0.665	correct	congruent	Block3	congruent/STIM_019.jpg
3290.963	0.74	correct	congruent	Block3	congruent/STIM_019.jpg
3294.586	0.891	correct	congruent	Block3	congruent/STIM_019.jpg
3297.853	0.602	correct	congruent	Block3	congruent/STIM_019.jpg
3302.295	0.8	correct	congruent	Block3	congruent/STIM_020.jpg
3305.461	0.922	correct	congruent	Block3	congruent/STIM_020.jpg
3309.192	0.851	incorrect	congruent	Block3	congruent/STIM_020.jpg
3313.298	0.794	correct	congruent	Block3	congruent/STIM_020.jpg
3317.243	0.722	correct	congruent	Block3	congruent/STIM_020.jpg
3321.391	0.622	correct	congruent	Block3	congruent/STIM_021.jpg
3325.946	0.828	correct	congruent	Block3	congruent/STIM_021.jpg
3329.097	0.653	correct	congruent	Block3	congruent/STIM_021.jpg
3333.129	0.844	incorrect	congruent	Block3	congruent/STIM_021.jpg
3337.081	0.556	correct	congruent	Block3	congruent/STIM_021.jpg
3339.694	0.544	correct	congruent	Block3	congruent/STIM_022.jpg
3343.917	0.631	incorrect	congruent	Block3	congruent/STIM_022.jpg
3346.977	0.634	correct	congruent	Block3	congruent/STIM_022.jpg
3351.576	0.837	correct	congruent	Block3	congruent/STIM_022.jpg
3354.6	0.846	incorrect	congruent	Block3	congruent/STIM_022.jpg
3358.368	0.929	correct	congruent	Block3	congruent/STIM_023.jpg
3362.368	0.773	correct	congruent	Block3	congruent/STIM_023.jpg
3366.646	0.648	correct	congruent	Block3	congruent/STIM_023.jpg
3370.917	0.653	correct	congruent	Block3	congruent/STIM_023.jpg
3374.364	0.577	correct	congruent	Block3	congruent/STIM_023.jpg
3378.845	0.665	correct	congruent	Block3	congruent/STIM_024.jpg
3381.805	0.618	correct	congruent	Block3	congruent/STIM_024.jpg
3384.862	0.59	correct	congruent	Block3	congruent/STIM_024.jpg
3389.342	0.706	correct	congruent	Block3	congruent/STIM_024.jpg
3392.537	0.718	correct	congruent	Block3	congruent/STIM_024.jpg
3395.965	0.846	correct	congruent	Block3	congruent/STIM_025.jpg
3398.918	0.773	correct	congruent	Block3	congruent/STIM_025.jpg
3403.545	0.854	correct	congruent	Block3	congruent/STIM_025.jpg
3408.244	0.766	correct	congruent	Block3	congruent/STIM_025.jpg
3411.472	0.968	correct	congruent	Block3	congruent/STIM_025.jpg
3414.908	0.727	correct	congruent	Block3	congruent/STIM_026.jpg
3418.821	0.863	correct	congruent	Block3	congruent/STIM_026.jpg
3423.597	0.861	correct	congruent	Block3	congruent/STIM_026.jpg
3427.834	0.779	correct	congruent	Block3	congruent/STIM_026.jpg
3431.797	0.787	correct	congruent	Block3	congruent/STIM_026.jpg
3436.384	0.868	correct	congruent	Block3	congruent/STIM_027.jpg
3439.512	0.628	incorrect	congruent	Block3	congruent/STIM_027.jpg
3443.903	0.845	correct	congruent	Block3	congruent/STIM_027.jpg
3446.955	0.758	correct	congruent	Block3	congruent/STIM_027.jpg
3450.863	0.813	correct	congruent	Block3	congruent/STIM_027.jpg
3453.9	0.8	correct	congruent	Block3	congruent/STIM_028.jpg
3458.449	0.864	correct	congruent	Block3	congruent/STIM_028.jpg
3463.142	0.78	correct	congruent	Block3	congruent/STIM_028.jpg
3466.842	0.708	correct	congruent	Block3	congruent/STIM_028.jpg
3471.052	0.897	correct	congruent	Block3	congruent/STIM_028.jpg
3474.228	0.781	correct	congruent	Block3	congruent/STIM_029.jpg
3478.087	0.667	correct	congruent	Block3	congruent/STIM_029.jpg
3482.703	0.889	correct	congruent	Block3	congruent/STIM_029.jpg
3486.35	0.79	correct	congruent	Block3	congruent/STIM_029.jpg
3489.309	0.548	correct	congruent	Block3	congruent/STIM_029.jpg
