onset	duration	accuracy_binary	trial_type	learning_stage	stimulus
0.0	0.869	1	incongruent	Block1	incongruent/STIM_000.jpg
4.032	1.421	1	incongruent	Block1	incongruent/STIM_000.jpg
8.46	1.146	1	incongruent	Block1	incongruent/STIM_000.jpg
11.889	0.819	1	incongruent	Block1	incongruent/STIM_000.jpg
15.487	0.672	0	incongruent	Block1	incongruent/STIM_000.jpg
18.82	1.638	1	incongruent	Block1	incongruent/STIM_001.jpg
24.433	1.283	1	incongruent	Block1	incongruent/STIM_001.jpg
28.817	1.066	1	incongruent	Block1	incongruent/STIM_001.jpg
33.205	0.692	0	incongruent	Block1	incongruent/STIM_001.jpg
37.233	1.248	0	incongruent	Block1	incongruent/STIM_001.jpg
42.375	1.512	0	incongruent	Block1	incongruent/STIM_002.jpg
47.298	1.586	1	incongruent	Block1	incongruent/STIM_002.jpg
51.435	0.988	1	incongruent	Block1	incongruent/STIM_002.jpg
55.695	1.251	1	incongruent	Block1	incongruent/STIM_002.jpg
59.864	1.212	1	incongruent	Block1	incongruent/STIM_002.jpg
64.017	0.892	1	incongruent	Block1	incongruent/STIM_003.jpg
68.816	0.995	1	incongruent	Block1	incongruent/STIM_003.jpg
73.7	1.116	0	incongruent	Block1	incongruent/STIM_003.jpg
77.088	1.27	1	incongruent	Block1	incongruent/STIM_003.jpg
82.11	1.042	1	incongruent	Block1	incongruent/STIM_003.jpg
86.348	1.449	0	incongruent	Block1	incongruent/STIM_004.jpg
90.879	1.44	0	incongruent	Block1	incongruent/STIM_004.jpg
95.326	0.761	1	incongruent	Block1	incongruent/STIM_004.jpg
98.883	0.75	1	incongruent	Block1	incongruent/STIM_004.jpg
102.765	1.222	1	incongruent	Block1	incongruent/STIM_004.jpg
107.527	1.037	1	incongruent	Block1	incongruent/STIM_005.jpg
111.971	1.037	1	incongruent	Block1	incongruent/STIM_005.jpg
116.653	1.479	1	incongruent	Block1	incongruent/STIM_005.jpg
120.562	0.955	1	incongruent	Block1	incongruent/STIM_005.jpg
123.973	1.195	1	incongruent	Block1	incongruent/STIM_005.jpg
127.334	0.973	0	incongruent	Block1	incongruent/STIM_006.jpg
131.232	1.433	0	incongruent	Block1	incongruent/STIM_006.jpg
135.548	0.939	1	incongruent	Block1	incongruent/STIM_006.jpg
139.453	0.712	1	incongruent	Block1	incongruent/STIM_006.jpg
142.187	1.267	1	incongruent	Block1	incongruent/STIM_006.jpg
145.754	0.903	1	incongruent	Block1	incongruent/STIM_007.jpg
150.074	0.882	0	incongruent	Block1	incongruent/STIM_007.jpg
154.866	1.386	0	incongruent	Block1	incongruent/STIM_007.jpg
158.844	1.292	1	incongruent	Block1	incongruent/STIM_007.jpg
162.812	0.763	0	incongruent	Block1	incongruent/STIM_007.jpg
165.641	1.169	1	incongruent	Block1	incongruent/STIM_008.jpg
169.571	1.099	1	incongruent	Block1	incongruent/STIM_008.jpg
173.94	1.147	1	incongruent	Block1	incongruent/STIM_008.jpg
178.491	1.406	0	incongruent	Block1	incongruent/STIM_008.jpg
183.381	1.207	1	incongruent	Block1	incongruent/STIM_008.jpg
186.93	1.005	0	incongruent	Block1	incongruent/STIM_009.jpg
190.573	0.833	0	incongruent	Block1	incongruent/STIM_009.jpg
194.048	0.869	1	incongruent	Block1	incongruent/STIM_009.jpg
198.914	1.295	1	incongruent	Block1	incongruent/STIM_009.jpg
202.797	0.787	1	incongruent	Block1	incongruent/STIM_009.jpg
206.157	1.67	0	incongruent	Block1	incongruent/STIM_010.jpg
210.365	1.447	0	incongruent	Block1	incongruent/STIM_010.jpg
215.274	1.05	0	incongruent	Block1	incongruent/STIM_010.jpg
219.15	1.398	1	incongruent	Block1	incongruent/STIM_010.jpg
223.343	0.815	1	incongruent	Block1	incongruent/STIM_010.jpg
227.631	1.297	1	incongruent	Block1	incongruent/STIM_011.jpg
232.176	1.596	0	incongruent	Block1	incongruent/STIM_011.jpg
236.11	1.126	0	incongruent	Block1	incongruent/STIM_011.jpg
240.222	1.302	0	incongruent	Block1	incongruent/STIM_011.jpg
244.127	1.384	1	incongruent	Block1	incongruent/STIM_011.jpg
247.555	0.83	0	incongruent	Block1	incongruent/STIM_012.jpg
251.599	1.516	1	incongruent	Block1	incongruent/STIM_012.jpg
255.793	1.422	1	incongruent	Block1	incongruent/STIM_012.jpg
259.226	1.387	0	incongruent	Block1	incongruent/STIM_012.jpg
264.077	1.106	1	incongruent	Block1	incongruent/STIM_012.jpg
268.975	1.633	1	incongruent	Block1	incongruent/STIM_013.jpg
272.759	1.36	1	incongruent	Block1	incongruent/STIM_013.jpg
276.883	1.289	1	incongruent	Block1	incongruent/STIM_013.jpg
281.574	1.025	0	incongruent	Block1	incongruent/STIM_013.jpg
286.032	1.126	1	incongruent	Block1	incongruent/STIM_013.jpg
289.809	1.731	1	incongruent	Block1	incongruent/STIM_014.jpg
294.224	1.532	1	incongruent	Block1	incongruent/STIM_014.jpg
298.949	0.831	1	incongruent	Block1	incongruent/STIM_014.jpg
302.936	1.119	1	incongruent	Block1	incongruent/STIM_014.jpg
306.715	0.906	1	incongruent	Block1	incongruent/STIM_014.jpg
311.255	1.368	0	incongruent	Block1	incongruent/STIM_015.jpg
315.356	1.55	0	incongruent	Block1	incongruent/STIM_015.jpg
319.77	1.421	1	incongruent	Block1	incongruent/STIM_015.jpg
323.281	1.085	1	incongruent	Block1	incongruent/STIM_015.jpg
326.954	1.196	0	incongruent	Block1	incongruent/STIM_015.jpg
331.451	1.0	1	incongruent	Block1	incongruent/STIM_016.jpg
336.231	0.829	1	incongruent	Block1	incongruent/STIM_016.jpg
340.842	1.372	0	incongruent	Block1	incongruent/STIM_016.jpg
344.414	1.041	1	incongruent	Block1	incongruent/STIM_016.jpg
348.349	0.69	1	incongruent	Block1	incongruent/STIM_016.jpg
353.023	1.04	1	incongruent	Block1	incongruent/STIM_017.jpg
356.588	1.31	1	incongruent	Block1	incongruent/STIM_017.jpg
360.011	1.102	1	incongruent	Block1	incongruent/STIM_017.jpg
363.702	0.854	1	incongruent	Block1	incongruent/STIM_017.jpg
366.848	1.066	1	incongruent	Block1	incongruent/STIM_017.jpg
370.168	1.008	1	incongruent	Block1	incongruent/STIM_018.jpg
374.144	1.073	0	incongruent	Block1	incongruent/STIM_018.jpg
377.427	1.285	0	incongruent	Block1	incongruent/STIM_018.jpg
381.821	0.7	1	incongruent	Block1	incongruent/STIM_018.jpg
385.816	1.383	1	incongruent	Block1	incongruent/STIM_018.jpg
389.752	1.182	0	incongruent	Block1	incongruent/STIM_019.jpg
393.071	0.895	1	incongruent	Block1	incongruent/STIM_019.jpg
397.094	0.988	1	incongruent	Block1	incongruent/STIM_019.jpg
401.934	1.315	0	incongruent	Block1	incongruent/STIM_019.jpg
407.101	0.723	0	incongruent	Block1	incongruent/STIM_019.jpg
411.292	1.657	1	incongruent	Block1	incongruent/STIM_020.jpg
416.588	1.033	1	incongruent	Block1	incongruent/STIM_020.jpg
419.801	0.915	0	incongruent	Block1	incongruent/STIM_020.jpg
424.451	1.252	1	incongruent	Block1	incongruent/STIM_020.jpg
428.013	1.332	1	incongruent	Block1	incongruent/STIM_020.jpg
432.038	1.544	0	incongruent	Block1	incongruent/STIM_021.jpg
437.008	1.638	1	incongruent	Block1	incongruent/STIM_021.jpg
442.195	1.52	1	incongruent	Block1	incongruent/STIM_021.jpg
447.667	0.982	1	incongruent	Block1	incongruent/STIM_021.jpg
450.683	0.91	1	incongruent	Block1	incongruent/STIM_021.jpg
454.012	1.326	1	incongruent	Block1	incongruent/STIM_022.jpg
457.948	1.447	1	incongruent	Block1	incongruent/STIM_022.jpg
461.472	0.878	1	incongruent	Block1	incongruent/STIM_022.jpg
466.259	1.098	0	incongruent	Block1	incongruent/STIM_022.jpg
470.737	1.088	1	incongruent	Block1	incongruent/STIM_022.jpg
475.349	1.532	0	incongruent	Block1	incongruent/STIM_023.jpg
478.908	1.541	1	incongruent	Block1	incongruent/STIM_023.jpg
482.999	0.812	1	incongruent	Block1	incongruent/STIM_023.jpg
487.273	0.938	1	incongruent	Block1	incongruent/STIM_023.jpg
491.65	0.964	1	incongruent	Block1	incongruent/STIM_023.jpg
495.605	1.526	1	incongruent	Block1	incongruent/STIM_024.jpg
500.704	1.435	1	incongruent	Block1	incongruent/STIM_024.jpg
504.371	0.738	1	incongruent	Block1	incongruent/STIM_024.jpg
507.867	0.808	1	incongruent	Block1	incongruent/STIM_024.jpg
511.179	1.211	0	incongruent	Block1	incongruent/STIM_024.jpg
516.11	1.506	1	incongruent	Block1	incongruent/STIM_025.jpg
520.601	1.286	0	incongruent	Block1	incongruent/STIM_025.jpg
525.117	1.404	1	incongruent	Block1	incongruent/STIM_025.jpg
528.811	1.171	1	incongruent	Block1	incongruent/STIM_025.jpg
533.534	1.111	1	incongruent	Block1	incongruent/STIM_025.jpg
537.338	0.993	1	incongruent	Block1	incongruent/STIM_026.jpg
540.881	1.55	1	incongruent	Block1	incongruent/STIM_026.jpg
545.719	1.475	0	incongruent	Block1	incongruent/STIM_026.jpg
550.091	0.926	1	incongruent	Block1	incongruent/STIM_026.jpg
553.373	0.87	0	incongruent	Block1	incongruent/STIM_026.jpg
556.74	0.985	1	incongruent	Block1	incongruent/STIM_027.jpg
561.334	1.188	0	incongruent	Block1	incongruent/STIM_027.jpg
565.521	1.032	1	incongruent	Block1	incongruent/STIM_027.jpg
570.162	0.949	1	incongruent	Block1	incongruent/STIM_027.jpg
574.093	0.826	0	incongruent	Block1	incongruent/STIM_027.jpg
577.594	1.138	1	incongruent	Block1	incongruent/STIM_028.jpg
581.077	1.64	1	incongruent	Block1	incongruent/STIM_028.jpg
585.824	0.993	1	incongruent	Block1	incongruent/STIM_028.jpg
590.166	1.006	1	incongruent	Block1	incongruent/STIM_028.jpg
594.812	0.889	0	incongruent	Block1	incongruent/STIM_028.jpg
598.674	1.642	1	incongruent	Block1	incongruent/STIM_029.jpg
603.338	0.904	0	incongruent	Block1	incongruent/STIM_029.jpg
607.498	1.55	1	incongruent	Block1	incongruent/STIM_029.jpg
612.49	0.956	1	incongruent	Block1	incongruent/STIM_029.jpg
615.949	0.909	1	incongruent	Block1	incongruent/STIM_029.jpg
620.61	0.758	1	congruent	Block1	congruent/STIM_000.jpg
624.107	0.789	0	congruent	Block1	congruent/STIM_000.jpg
627.793	0.957	1	congruent	Block1	congruent/STIM_000.jpg
632.571	0.581	0	congruent	Block1	congruent/STIM_000.jpg
636.656	0.756	1	congruent	Block1	congruent/STIM_000.jpg
640.362	0.596	0	congruent	Block1	congruent/STIM_001.jpg
644.139	0.844	0	congruent	Block1	congruent/STIM_001.jpg
648.592	0.95	1	congruent	Block1	congruent/STIM_001.jpg
651.819	0.971	0	congruent	Block1	congruent/STIM_001.jpg
656.55	0.878	1	congruent	Block1	congruent/STIM_001.jpg
660.049	0.718	1	congruent	Block1	congruent/STIM_002.jpg
663.931	0.786	1	congruent	Block1	congruent/STIM_002.jpg
668.65	0.626	0	congruent	Block1	congruent/STIM_002.jpg
672.099	0.589	1	congruent	Block1	congruent/STIM_002.jpg
676.242	0.9	1	congruent	Block1	congruent/STIM_002.jpg
679.741	0.627	0	congruent	Block1	congruent/STIM_003.jpg
683.699	1.012	1	congruent	Block1	congruent/STIM_003.jpg
688.267	0.871	0	congruent	Block1	congruent/STIM_003.jpg
692.864	0.941	0	congruent	Block1	congruent/STIM_003.jpg
696.812	0.618	0	congruent	Block1	congruent/STIM_003.jpg
700.287	0.929	1	congruent	Block1	congruent/STIM_004.jpg
704.92	0.997	1	congruent	Block1	congruent/STIM_004.jpg
708.862	0.931	1	congruent	Block1	congruent/STIM_004.jpg
712.156	0.84	0	congruent	Block1	congruent/STIM_004.jpg
715.066	0.71	0	congruent	Block1	congruent/STIM_004.jpg
718.323	0.766	1	congruent	Block1	congruent/STIM_005.jpg
722.365	1.039	1	congruent	Block1	congruent/STIM_005.jpg
726.67	0.799	0	congruent	Block1	congruent/STIM_005.jpg
729.875	1.001	1	congruent	Block1	congruent/STIM_005.jpg
734.197	0.99	0	congruent	Block1	congruent/STIM_005.jpg
739.168	0.84	0	congruent	Block1	congruent/STIM_006.jpg
742.864	0.79	1	congruent	Block1	congruent/STIM_006.jpg
747.138	0.749	0	congruent	Block1	congruent/STIM_006.jpg
749.929	0.965	0	congruent	Block1	congruent/STIM_006.jpg
753.645	0.751	0	congruent	Block1	congruent/STIM_006.jpg
757.342	0.777	1	congruent	Block1	congruent/STIM_007.jpg
760.753	0.609	1	congruent	Block1	congruent/STIM_007.jpg
764.405	0.982	1	congruent	Block1	congruent/STIM_007.jpg
768.062	0.775	0	congruent	Block1	congruent/STIM_007.jpg
772.001	0.668	1	congruent	Block1	congruent/STIM_007.jpg
775.53	0.744	0	congruent	Block1	congruent/STIM_008.jpg
779.198	0.683	0	congruent	Block1	congruent/STIM_008.jpg
783.309	0.942	1	congruent	Block1	congruent/STIM_008.jpg
787.807	0.692	0	congruent	Block1	congruent/STIM_008.jpg
791.303	0.823	0	congruent	Block1	congruent/STIM_008.jpg
795.235	0.756	1	congruent	Block1	congruent/STIM_009.jpg
798.643	0.598	1	congruent	Block1	congruent/STIM_009.jpg
801.275	0.682	1	congruent	Block1	congruent/STIM_009.jpg
804.459	0.936	1	congruent	Block1	congruent/STIM_009.jpg
808.1	1.009	1	congruent	Block1	congruent/STIM_009.jpg
812.538	0.6	1	congruent	Block1	congruent/STIM_010.jpg
816.721	0.787	1	congruent	Block1	congruent/STIM_010.jpg
820.388	0.775	1	congruent	Block1	congruent/STIM_010.jpg
823.19	0.586	1	congruent	Block1	congruent/STIM_010.jpg
827.743	0.632	0	congruent	Block1	congruent/STIM_010.jpg
831.625	0.717	1	congruent	Block1	congruent/STIM_011.jpg
835.897	0.881	0	congruent	Block1	congruent/STIM_011.jpg
839.447	0.731	1	congruent	Block1	congruent/STIM_011.jpg
843.959	0.948	1	congruent	Block1	congruent/STIM_011.jpg
847.032	0.794	1	congruent	Block1	congruent/STIM_011.jpg
850.446	0.793	0	congruent	Block1	congruent/STIM_012.jpg
853.584	1.033	1	congruent	Block1	congruent/STIM_012.jpg
857.661	0.747	1	congruent	Block1	congruent/STIM_012.jpg
861.517	0.927	1	congruent	Block1	congruent/STIM_012.jpg
865.672	0.892	1	congruent	Block1	congruent/STIM_012.jpg
868.981	0.717	0	congruent	Block1	congruent/STIM_013.jpg
872.154	0.91	0	congruent	Block1	congruent/STIM_013.jpg
876.105	0.693	1	congruent	Block1	congruent/STIM_013.jpg
880.693	0.667	0	congruent	Block1	congruent/STIM_013.jpg
885.005	0.824	1	congruent	Block1	congruent/STIM_013.jpg
889.268	0.861	1	congruent	Block1	congruent/STIM_014.jpg
893.912	0.747	0	congruent	Block1	congruent/STIM_014.jpg
897.124	0.885	1	congruent	Block1	congruent/STIM_014.jpg
901.393	0.91	1	congruent	Block1	congruent/STIM_014.jpg
904.422	0.699	0	congruent	Block1	congruent/STIM_014.jpg
907.267	0.774	0	congruent	Block1	congruent/STIM_015.jpg
910.262	0.886	1	congruent	Block1	congruent/STIM_015.jpg
913.217	0.652	1	congruent	Block1	congruent/STIM_015.jpg
916.846	0.587	1	congruent	Block1	congruent/STIM_015.jpg
921.269	0.833	0	congruent	Block1	congruent/STIM_015.jpg
924.604	0.884	1	congruent	Block1	congruent/STIM_016.jpg
927.742	0.702	1	congruent	Block1	congruent/STIM_016.jpg
932.178	0.85	0	congruent	Block1	congruent/STIM_016.jpg
936.082	0.795	0	congruent	Block1	congruent/STIM_016.jpg
938.999	0.855	0	congruent	Block1	congruent/STIM_016.jpg
943.767	0.79	1	congruent	Block1	congruent/STIM_017.jpg
947.107	0.779	1	congruent	Block1	congruent/STIM_017.jpg
950.518	0.661	0	congruent	Block1	congruent/STIM_017.jpg
953.779	1.021	0	congruent	Block1	congruent/STIM_017.jpg
958.761	0.681	1	congruent	Block1	congruent/STIM_017.jpg
961.687	0.596	1	congruent	Block1	congruent/STIM_018.jpg
965.469	0.702	0	congruent	Block1	congruent/STIM_018.jpg
968.771	0.885	0	congruent	Block1	congruent/STIM_018.jpg
972.48	0.834	1	congruent	Block1	congruent/STIM_018.jpg
976.145	0.909	1	congruent	Block1	congruent/STIM_018.jpg
979.817	1.04	1	congruent	Block1	congruent/STIM_019.jpg
984.309	0.916	1	congruent	Block1	congruent/STIM_019.jpg
989.183	0.966	1	congruent	Block1	congruent/STIM_019.jpg
993.381	1.022	1	congruent	Block1	congruent/STIM_019.jpg
997.602	0.745	1	congruent	Block1	congruent/STIM_019.jpg
1002.136	1.025	1	congruent	Block1	congruent/STIM_020.jpg
1006.446	0.927	1	congruent	Block1	congruent/STIM_020.jpg
1010.084	0.974	0	congruent	Block1	congruent/STIM_020.jpg
1013.993	0.864	0	congruent	Block1	congruent/STIM_020.jpg
1017.777	0.732	1	congruent	Block1	congruent/STIM_020.jpg
1022.017	1.037	1	congruent	Block1	congruent/STIM_021.jpg
1026.144	0.827	0	congruent	Block1	congruent/STIM_021.jpg
1030.931	0.744	0	congruent	Block1	congruent/STIM_021.jpg
1034.8	0.604	0	congruent	Block1	congruent/STIM_021.jpg
1038.741	0.655	1	congruent	Block1	congruent/STIM_021.jpg
1042.501	0.678	0	congruent	Block1	congruent/STIM_022.jpg
1046.725	1.012	1	congruent	Block1	congruent/STIM_022.jpg
1050.339	0.977	1	congruent	Block1	congruent/STIM_022.jpg
1054.638	0.908	0	congruent	Block1	congruent/STIM_022.jpg
1057.755	0.688	1	congruent	Block1	congruent/STIM_022.jpg
1061.787	0.652	1	congruent	Block1	congruent/STIM_023.jpg
1064.693	0.991	1	congruent	Block1	congruent/STIM_023.jpg
1069.005	0.678	1	congruent	Block1	congruent/STIM_023.jpg
1071.699	0.809	1	congruent	Block1	congruent/STIM_023.jpg
1075.545	0.61	1	congruent	Block1	congruent/STIM_023.jpg
1079.383	1.041	1	congruent	Block1	congruent/STIM_024.jpg
1083.153	0.743	1	congruent	Block1	congruent/STIM_024.jpg
1086.027	0.637	1	congruent	Block1	congruent/STIM_024.jpg
1090.276	0.668	1	congruent	Block1	congruent/STIM_024.jpg
1093.502	0.63	1	congruent	Block1	congruent/STIM_024.jpg
1096.264	0.974	0	congruent	Block1	congruent/STIM_025.jpg
1100.58	0.928	1	congruent	Block1	congruent/STIM_025.jpg
1104.097	0.777	1	congruent	Block1	congruent/STIM_025.jpg
1108.31	0.662	1	congruent	Block1	congruent/STIM_025.jpg
1112.062	0.747	0	congruent	Block1	congruent/STIM_025.jpg
1115.686	0.999	1	congruent	Block1	congruent/STIM_026.jpg
1119.229	0.967	1	congruent	Block1	congruent/STIM_026.jpg
1122.237	0.638	1	congruent	Block1	congruent/STIM_026.jpg
1126.691	0.927	0	congruent	Block1	congruent/STIM_026.jpg
1131.368	0.703	1	congruent	Block1	congruent/STIM_026.jpg
1135.247	0.646	0	congruent	Block1	congruent/STIM_027.jpg
1138.431	1.024	1	congruent	Block1	congruent/STIM_027.jpg
1142.869	0.778	1	congruent	Block1	congruent/STIM_027.jpg
1147.25	0.685	1	congruent	Block1	congruent/STIM_027.jpg
1150.535	0.645	1	congruent	Block1	congruent/STIM_027.jpg
1153.515	0.588	1	congruent	Block1	congruent/STIM_028.jpg
1156.37	0.888	0	congruent	Block1	congruent/STIM_028.jpg
1159.818	0.946	0	congruent	Block1	congruent/STIM_028.jpg
1164.381	0.962	1	congruent	Block1	congruent/STIM_028.jpg
1169.01	0.633	1	congruent	Block1	congruent/STIM_028.jpg
1173.096	0.934	1	congruent	Block1	congruent/STIM_029.jpg
1177.784	0.817	1	congruent	Block1	congruent/STIM_029.jpg
1181.565	0.853	1	congruent	Block1	congruent/STIM_029.jpg
1184.917	0.734	0	congruent	Block1	congruent/STIM_029.jpg
1189.479	0.934	1	congruent	Block1	congruent/STIM_029.jpg
1193.754	1.229	1	incongruent	Block2	incongruent/STIM_000.jpg
1197.936	1.227	0	incongruent	Block2	incongruent/STIM_000.jpg
1201.586	0.85	1	incongruent	Block2	incongruent/STIM_000.jpg
1204.548	0.912	1	incongruent	Block2	incongruent/STIM_000.jpg
1208.899	0.658	0	incongruent	Block2	incongruent/STIM_000.jpg
1212.757	0.976	1	incongruent	Block2	incongruent/STIM_001.jpg
1217.119	0.796	0	incongruent	Block2	incongruent/STIM_001.jpg
1221.874	0.67	0	incongruent	Block2	incongruent/STIM_001.jpg
1225.579	0.606	1	incongruent	Block2	incongruent/STIM_001.jpg
1229.572	0.669	1	incongruent	Block2	incongruent/STIM_001.jpg
1232.394	1.232	0	incongruent	Block2	incongruent/STIM_002.jpg
1236.563	1.007	0	incongruent	Block2	incongruent/STIM_002.jpg
1239.921	0.748	0	incongruent	Block2	incongruent/STIM_002.jpg
1243.822	0.848	1	incongruent	Block2	incongruent/STIM_002.jpg
1247.188	0.979	1	incongruent	Block2	incongruent/STIM_002.jpg
1250.421	1.471	1	incongruent	Block2	incongruent/STIM_003.jpg
1255.604	0.965	1	incongruent	Block2	incongruent/STIM_003.jpg
1259.295	0.921	0	incongruent	Block2	incongruent/STIM_003.jpg
1264.029	0.968	1	incongruent	Block2	incongruent/STIM_003.jpg
1268.685	0.63	0	incongruent	Block2	incongruent/STIM_003.jpg
1272.142	0.714	1	incongruent	Block2	incongruent/STIM_004.jpg
1276.135	0.807	1	incongruent	Block2	incongruent/STIM_004.jpg
1279.69	0.805	0	incongruent	Block2	incongruent/STIM_004.jpg
1283.082	1.198	0	incongruent	Block2	incongruent/STIM_004.jpg
1287.937	0.798	1	incongruent	Block2	incongruent/STIM_004.jpg
1292.563	1.422	1	incongruent	Block2	incongruent/STIM_005.jpg
1296.439	1.358	0	incongruent	Block2	incongruent/STIM_005.jpg
1300.96	0.943	0	incongruent	Block2	incongruent/STIM_005.jpg
1305.238	0.638	0	incongruent	Block2	incongruent/STIM_005.jpg
1308.054	1.17	1	incongruent	Block2	incongruent/STIM_005.jpg
1311.975	1.326	1	incongruent	Block2	incongruent/STIM_006.jpg
1316.73	0.951	1	incongruent	Block2	incongruent/STIM_006.jpg
1320.215	0.651	0	incongruent	Block2	incongruent/STIM_006.jpg
1323.714	1.078	1	incongruent	Block2	incongruent/STIM_006.jpg
1328.136	0.643	1	incongruent	Block2	incongruent/STIM_006.jpg
1331.809	0.701	1	incongruent	Block2	incongruent/STIM_007.jpg
1335.895	1.111	0	incongruent	Block2	incongruent/STIM_007.jpg
1339.346	0.905	1	incongruent	Block2	incongruent/STIM_007.jpg
1343.878	0.87	1	incongruent	Block2	incongruent/STIM_007.jpg
1347.647	0.81	1	incongruent	Block2	incongruent/STIM_007.jpg
1350.959	0.906	1	incongruent	Block2	incongruent/STIM_008.jpg
1354.935	1.097	0	incongruent	Block2	incongruent/STIM_008.jpg
1359.654	0.703	1	incongruent	Block2	incongruent/STIM_008.jpg
1363.551	0.702	0	incongruent	Block2	incongruent/STIM_008.jpg
1366.75	0.644	0	incongruent	Block2	incongruent/STIM_008.jpg
1369.946	1.198	0	incongruent	Block2	incongruent/STIM_009.jpg
1375.032	0.748	1	incongruent	Block2	incongruent/STIM_009.jpg
1379.292	0.627	1	incongruent	Block2	incongruent/STIM_009.jpg
1383.6	0.574	1	incongruent	Block2	incongruent/STIM_009.jpg
1387.355	0.628	0	incongruent	Block2	incongruent/STIM_009.jpg
1391.598	1.202	1	incongruent	Block2	incongruent/STIM_010.jpg
1395.216	0.734	1	incongruent	Block2	incongruent/STIM_010.jpg
1399.507	1.12	1	incongruent	Block2	incongruent/STIM_010.jpg
1403.081	1.143	1	incongruent	Block2	incongruent/STIM_010.jpg
1408.211	0.638	1	incongruent	Block2	incongruent/STIM_010.jpg
1411.123	0.853	1	incongruent	Block2	incongruent/STIM_011.jpg
1414.149	1.297	1	incongruent	Block2	incongruent/STIM_011.jpg
1419.208	0.845	0	incongruent	Block2	incongruent/STIM_011.jpg
1422.285	1.173	1	incongruent	Block2	incongruent/STIM_011.jpg
1426.67	1.184	0	incongruent	Block2	incongruent/STIM_011.jpg
1431.628	1.036	1	incongruent	Block2	incongruent/STIM_012.jpg
1436.379	0.688	1	incongruent	Block2	incongruent/STIM_012.jpg
1439.863	1.293	0	incongruent	Block2	incongruent/STIM_012.jpg
1444.186	0.912	1	incongruent	Block2	incongruent/STIM_012.jpg
1448.137	0.745	1	incongruent	Block2	incongruent/STIM_012.jpg
1452.746	1.211	1	incongruent	Block2	incongruent/STIM_013.jpg
1457.247	1.187	1	incongruent	Block2	incongruent/STIM_013.jpg
1461.279	0.911	1	incongruent	Block2	incongruent/STIM_013.jpg
1465.371	0.757	1	incongruent	Block2	incongruent/STIM_013.jpg
1469.135	1.21	1	incongruent	Block2	incongruent/STIM_013.jpg
1472.921	0.937	0	incongruent	Block2	incongruent/STIM_014.jpg
1477.117	0.783	1	incongruent	Block2	incongruent/STIM_014.jpg
1481.081	1.208	1	incongruent	Block2	incongruent/STIM_014.jpg
1484.604	1.02	1	incongruent	Block2	incongruent/STIM_014.jpg
1489.475	0.625	0	incongruent	Block2	incongruent/STIM_014.jpg
1492.544	0.945	0	incongruent	Block2	incongruent/STIM_015.jpg
1496.517	0.668	1	incongruent	Block2	incongruent/STIM_015.jpg
1500.662	1.158	1	incongruent	Block2	incongruent/STIM_015.jpg
1504.902	1.046	1	incongruent	Block2	incongruent/STIM_015.jpg
1509.309	0.66	1	incongruent	Block2	incongruent/STIM_015.jpg
1512.444	1.015	1	incongruent	Block2	incongruent/STIM_016.jpg
1516.805	1.372	1	incongruent	Block2	incongruent/STIM_016.jpg
1521.435	0.677	0	incongruent	Block2	incongruent/STIM_016.jpg
1524.358	0.854	0	incongruent	Block2	incongruent/STIM_016.jpg
1528.062	1.162	1	incongruent	Block2	incongruent/STIM_016.jpg
1533.172	0.882	1	incongruent	Block2	incongruent/STIM_017.jpg
1536.43	0.98	1	incongruent	Block2	incongruent/STIM_017.jpg
1539.467	1.061	0	incongruent	Block2	incongruent/STIM_017.jpg
1543.427	0.601	1	incongruent	Block2	incongruent/STIM_017.jpg
1547.961	1.096	1	incongruent	Block2	incongruent/STIM_017.jpg
1551.746	0.705	1	incongruent	Block2	incongruent/STIM_018.jpg
1555.668	0.76	1	incongruent	Block2	incongruent/STIM_018.jpg
1559.757	1.159	1	incongruent	Block2	incongruent/STIM_018.jpg
1563.217	0.576	0	incongruent	Block2	incongruent/STIM_018.jpg
1567.466	0.832	1	incongruent	Block2	incongruent/STIM_018.jpg
1570.419	0.852	1	incongruent	Block2	incongruent/STIM_019.jpg
1575.168	1.064	1	incongruent	Block2	incongruent/STIM_019.jpg
1579.665	0.64	0	incongruent	Block2	incongruent/STIM_019.jpg
1582.924	0.63	0	incongruent	Block2	incongruent/STIM_019.jpg
1587.297	0.717	1	incongruent	Block2	incongruent/STIM_019.jpg
1591.031	0.768	1	incongruent	Block2	incongruent/STIM_020.jpg
1595.523	1.034	1	incongruent	Block2	incongruent/STIM_020.jpg
1600.426	0.782	1	incongruent	Block2	incongruent/STIM_020.jpg
1605.159	0.715	1	incongruent	Block2	incongruent/STIM_020.jpg
1608.822	1.001	1	incongruent	Block2	incongruent/STIM_020.jpg
1612.928	0.762	1	incongruent	Block2	incongruent/STIM_021.jpg
1616.847	1.161	1	incongruent	Block2	incongruent/STIM_021.jpg
1621.238	0.716	1	incongruent	Block2	incongruent/STIM_021.jpg
1624.085	1.15	1	incongruent	Block2	incongruent/STIM_021.jpg
1627.235	0.589	1	incongruent	Block2	incongruent/STIM_021.jpg
1631.396	1.244	1	incongruent	Block2	incongruent/STIM_022.jpg
1635.52	0.952	1	incongruent	Block2	incongruent/STIM_022.jpg
1638.894	0.719	1	incongruent	Block2	incongruent/STIM_022.jpg
1643.12	0.656	0	incongruent	Block2	incongruent/STIM_022.jpg
1647.754	0.966	1	incongruent	Block2	incongruent/STIM_022.jpg
1651.961	1.255	1	incongruent	Block2	incongruent/STIM_023.jpg
1656.369	1.065	0	incongruent	Block2	incongruent/STIM_023.jpg
1659.658	1.254	1	incongruent	Block2	incongruent/STIM_023.jpg
1664.227	1.168	0	incongruent	Block2	incongruent/STIM_023.jpg
1668.464	0.636	1	incongruent	Block2	incongruent/STIM_023.jpg
1671.779	1.415	1	incongruent	Block2	incongruent/STIM_024.jpg
1675.62	0.911	0	incongruent	Block2	incongruent/STIM_024.jpg
1679.085	0.808	0	incongruent	Block2	incongruent/STIM_024.jpg
1682.123	1.015	1	incongruent	Block2	incongruent/STIM_024.jpg
1686.713	1.101	1	incongruent	Block2	incongruent/STIM_024.jpg
1690.967	0.931	0	incongruent	Block2	incongruent/STIM_025.jpg
1694.892	1.35	0	incongruent	Block2	incongruent/STIM_025.jpg
1699.8	0.974	1	incongruent	Block2	incongruent/STIM_025.jpg
1703.674	1.138	1	incongruent	Block2	incongruent/STIM_025.jpg
1708.153	0.675	1	incongruent	Block2	incongruent/STIM_025.jpg
1711.982	1.33	1	incongruent	Block2	incongruent/STIM_026.jpg
1716.933	0.76	1	incongruent	Block2	incongruent/STIM_026.jpg
1720.823	1.238	1	incongruent	Block2	incongruent/STIM_026.jpg
1724.212	0.747	1	incongruent	Block2	incongruent/STIM_026.jpg
1727.446	0.753	1	incongruent	Block2	incongruent/STIM_026.jpg
1730.51	0.898	0	incongruent	Block2	incongruent/STIM_027.jpg
1734.998	0.758	1	incongruent	Block2	incongruent/STIM_027.jpg
1738.247	0.862	0	incongruent	Block2	incongruent/STIM_027.jpg
1741.638	0.9	1	incongruent	Block2	incongruent/STIM_027.jpg
1746.083	0.66	1	incongruent	Block2	incongruent/STIM_027.jpg
1749.987	1.09	1	incongruent	Block2	incongruent/STIM_028.jpg
1754.797	1.146	1	incongruent	Block2	incongruent/STIM_028.jpg
1758.787	1.112	1	incongruent	Block2	incongruent/STIM_028.jpg
1762.908	0.615	1	incongruent	Block2	incongruent/STIM_028.jpg
1766.661	0.991	1	incongruent	Block2	incongruent/STIM_028.jpg
1771.448	1.077	0	incongruent	Block2	incongruent/STIM_029.jpg
1776.216	1.17	1	incongruent	Block2	incongruent/STIM_029.jpg
1781.248	1.193	1	incongruent	Block2	incongruent/STIM_029.jpg
1785.348	0.625	1	incongruent	Block2	incongruent/STIM_029.jpg
1788.752	0.899	1	incongruent	Block2	incongruent/STIM_029.jpg
1793.08	0.737	1	congruent	Block2	congruent/STIM_000.jpg
1797.755	0.967	0	congruent	Block2	congruent/STIM_000.jpg
1801.774	0.747	1	congruent	Block2	congruent/STIM_000.jpg
1806.38	0.648	0	congruent	Block2	congruent/STIM_000.jpg
1809.598	1.022	1	congruent	Block2	congruent/STIM_000.jpg
1814.306	0.884	0	congruent	Block2	congruent/STIM_001.jpg
1818.109	0.835	1	congruent	Block2	congruent/STIM_001.jpg
1822.041	1.021	1	congruent	Block2	congruent/STIM_001.jpg
1825.299	1.024	0	congruent	Block2	congruent/STIM_001.jpg
1829.652	0.612	1	congruent	Block2	congruent/STIM_001.jpg
1833.281	0.841	1	congruent	Block2	congruent/STIM_002.jpg
1837.535	1.018	1	congruent	Block2	congruent/STIM_002.jpg
1841.862	0.828	0	congruent	Block2	congruent/STIM_002.jpg
1845.136	0.582	1	congruent	Block2	congruent/STIM_002.jpg
1847.935	0.92	1	congruent	Block2	congruent/STIM_002.jpg
1852.718	1.0	1	congruent	Block2	congruent/STIM_003.jpg
1857.282	0.782	1	congruent	Block2	congruent/STIM_003.jpg
1860.136	0.739	1	congruent	Block2	congruent/STIM_003.jpg
1864.319	0.908	0	congruent	Block2	congruent/STIM_003.jpg
1867.627	0.962	1	congruent	Block2	congruent/STIM_003.jpg
1872.122	0.953	0	congruent	Block2	congruent/STIM_004.jpg
1876.318	0.711	0	congruent	Block2	congruent/STIM_004.jpg
1880.995	0.957	0	congruent	Block2	congruent/STIM_004.jpg
1884.388	0.767	0	congruent	Block2	congruent/STIM_004.jpg
1887.171	0.652	0	congruent	Block2	congruent/STIM_004.jpg
1891.653	0.781	1	congruent	Block2	congruent/STIM_005.jpg
1894.677	0.653	1	congruent	Block2	congruent/STIM_005.jpg
1898.346	0.693	1	congruent	Block2	congruent/STIM_005.jpg
1902.136	0.597	1	congruent	Block2	congruent/STIM_005.jpg
1905.946	0.668	1	congruent	Block2	congruent/STIM_005.jpg
1910.191	0.782	1	congruent	Block2	congruent/STIM_006.jpg
1912.999	0.884	1	congruent	Block2	congruent/STIM_006.jpg
1916.046	1.042	1	congruent	Block2	congruent/STIM_006.jpg
1919.347	0.889	0	congruent	Block2	congruent/STIM_006.jpg
1923.485	0.798	1	congruent	Block2	congruent/STIM_006.jpg
1926.845	0.642	0	congruent	Block2	congruent/STIM_007.jpg
1930.004	0.971	1	congruent	Block2	congruent/STIM_007.jpg
1934.427	0.906	1	congruent	Block2	congruent/STIM_007.jpg
1937.347	1.033	1	congruent	Block2	congruent/STIM_007.jpg
1942.102	0.62	1	congruent	Block2	congruent/STIM_007.jpg
1946.499	0.907	1	congruent	Block2	congruent/STIM_008.jpg
1951.104	0.623	1	congruent	Block2	congruent/STIM_008.jpg
1954.786	0.581	1	congruent	Block2	congruent/STIM_008.jpg
1958.321	0.794	0	congruent	Block2	congruent/STIM_008.jpg
1962.601	0.892	0	congruent	Block2	congruent/STIM_008.jpg
1967.239	0.688	1	congruent	Block2	congruent/STIM_009.jpg
1970.306	0.859	0	congruent	Block2	congruent/STIM_009.jpg
1974.642	0.645	1	congruent	Block2	congruent/STIM_009.jpg
1977.487	0.833	1	congruent	Block2	congruent/STIM_009.jpg
1982.193	1.016	1	congruent	Block2	congruent/STIM_009.jpg
1986.499	0.679	1	congruent	Block2	congruent/STIM_010.jpg
1989.537	0.737	1	congruent	Block2	congruent/STIM_010.jpg
1993.093	0.933	1	congruent	Block2	congruent/STIM_010.jpg
1996.963	0.931	1	congruent	Block2	congruent/STIM_010.jpg
2001.786	0.918	1	congruent	Block2	congruent/STIM_010.jpg
2005.679	0.93	0	congruent	Block2	congruent/STIM_011.jpg
2010.122	0.602	0	congruent	Block2	congruent/STIM_011.jpg
2012.795	1.003	0	congruent	Block2	congruent/STIM_011.jpg
2016.641	0.694	1	congruent	Block2	congruent/STIM_011.jpg
2019.457	0.857	1	congruent	Block2	congruent/STIM_011.jpg
2023.203	0.98	0	congruent	Block2	congruent/STIM_012.jpg
2028.01	0.951	0	congruent	Block2	congruent/STIM_012.jpg
2031.293	0.698	1	congruent	Block2	congruent/STIM_012.jpg
2035.213	0.629	1	congruent	Block2	congruent/STIM_012.jpg
2039.83	0.956	1	congruent	Block2	congruent/STIM_012.jpg
2044.675	0.856	1	congruent	Block2	congruent/STIM_013.jpg
2048.008	0.653	1	congruent	Block2	congruent/STIM_013.jpg
2052.027	0.606	0	congruent	Block2	congruent/STIM_013.jpg
2055.615	0.887	1	congruent	Block2	congruent/STIM_013.jpg
2059.441	0.792	1	congruent	Block2	congruent/STIM_013.jpg
2063.47	0.931	1	congruent	Block2	congruent/STIM_014.jpg
2068.134	0.838	0	congruent	Block2	congruent/STIM_014.jpg
2072.926	0.872	1	congruent	Block2	congruent/STIM_014.jpg
2076.924	1.019	1	congruent	Block2	congruent/STIM_014.jpg
2081.387	0.817	0	congruent	Block2	congruent/STIM_014.jpg
2085.005	0.852	1	congruent	Block2	congruent/STIM_015.jpg
2088.867	1.038	0	congruent	Block2	congruent/STIM_015.jpg
2092.773	0.657	1	congruent	Block2	congruent/STIM_015.jpg
2097.138	0.643	1	congruent	Block2	congruent/STIM_015.jpg
2101.694	0.653	1	congruent	Block2	congruent/STIM_015.jpg
2105.829	0.849	1	congruent	Block2	congruent/STIM_016.jpg
2109.286	1.038	0	congruent	Block2	congruent/STIM_016.jpg
2112.868	0.897	1	congruent	Block2	congruent/STIM_016.jpg
2115.784	0.979	0	congruent	Block2	congruent/STIM_016.jpg
2120.467	0.699	1	congruent	Block2	congruent/STIM_016.jpg
2124.048	1.028	1	congruent	Block2	congruent/STIM_017.jpg
2127.373	0.68	1	congruent	Block2	congruent/STIM_017.jpg
2130.425	0.639	1	congruent	Block2	congruent/STIM_017.jpg
2133.162	0.923	0	congruent	Block2	congruent/STIM_017.jpg
2136.111	0.692	1	congruent	Block2	congruent/STIM_017.jpg
2139.781	0.853	1	congruent	Block2	congruent/STIM_018.jpg
2144.458	0.87	0	congruent	Block2	congruent/STIM_018.jpg
2148.201	0.95	1	congruent	Block2	congruent/STIM_018.jpg
2152.324	0.937	1	congruent	Block2	congruent/STIM_018.jpg
2156.561	0.824	1	congruent	Block2	congruent/STIM_018.jpg
2159.779	0.64	0	congruent	Block2	congruent/STIM_019.jpg
2162.959	0.825	1	congruent	Block2	congruent/STIM_019.jpg
2167.375	0.773	1	congruent	Block2	congruent/STIM_019.jpg
2170.683	0.704	1	congruent	Block2	congruent/STIM_019.jpg
2173.456	0.658	1	congruent	Block2	congruent/STIM_019.jpg
2177.14	1.004	1	congruent	Block2	congruent/STIM_020.jpg
2180.157	0.825	0	congruent	Block2	congruent/STIM_020.jpg
2184.089	1.036	1	congruent	Block2	congruent/STIM_020.jpg
2187.454	0.726	1	congruent	Block2	congruent/STIM_020.jpg
2192.129	0.798	0	congruent	Block2	congruent/STIM_020.jpg
2196.58	1.003	1	congruent	Block2	congruent/STIM_021.jpg
2200.484	0.641	0	congruent	Block2	congruent/STIM_021.jpg
2204.615	0.924	1	congruent	Block2	congruent/STIM_021.jpg
2209.143	0.926	1	congruent	Block2	congruent/STIM_021.jpg
2213.961	0.678	1	congruent	Block2	congruent/STIM_021.jpg
2218.267	0.644	1	congruent	Block2	congruent/STIM_022.jpg
2221.87	0.796	1	congruent	Block2	congruent/STIM_022.jpg
2226.518	0.637	1	congruent	Block2	congruent/STIM_022.jpg
2230.828	0.794	0	congruent	Block2	congruent/STIM_022.jpg
2235.585	0.881	1	congruent	Block2	congruent/STIM_022.jpg
2239.651	1.039	1	congruent	Block2	congruent/STIM_023.jpg
2243.731	0.778	1	congruent	Block2	congruent/STIM_023.jpg
2247.014	0.95	1	congruent	Block2	congruent/STIM_023.jpg
2249.986	0.633	0	congruent	Block2	congruent/STIM_023.jpg
2253.768	0.833	1	congruent	Block2	congruent/STIM_023.jpg
2257.056	0.933	0	congruent	Block2	congruent/STIM_024.jpg
2261.727	0.677	1	congruent	Block2	congruent/STIM_024.jpg
2266.13	0.693	1	congruent	Block2	congruent/STIM_024.jpg
2269.149	0.73	1	congruent	Block2	congruent/STIM_024.jpg
2272.451	0.883	1	congruent	Block2	congruent/STIM_024.jpg
2275.736	1.005	1	congruent	Block2	congruent/STIM_025.jpg
2280.352	0.762	1	congruent	Block2	congruent/STIM_025.jpg
2285.037	0.768	1	congruent	Block2	congruent/STIM_025.jpg
2289.186	0.909	1	congruent	Block2	congruent/STIM_025.jpg
2292.673	0.922	1	congruent	Block2	congruent/STIM_025.jpg
2296.125	0.614	1	congruent	Block2	congruent/STIM_026.jpg
2299.83	0.846	1	congruent	Block2	congruent/STIM_026.jpg
2304.355	0.873	1	congruent	Block2	congruent/STIM_026.jpg
2307.45	0.634	1	congruent	Block2	congruent/STIM_026.jpg
2311.742	0.659	1	congruent	Block2	congruent/STIM_026.jpg
2315.235	1.001	0	congruent	Block2	congruent/STIM_027.jpg
2320.215	0.92	1	congruent	Block2	congruent/STIM_027.jpg
2324.753	0.581	1	congruent	Block2	congruent/STIM_027.jpg
2328.822	0.933	1	congruent	Block2	congruent/STIM_027.jpg
2332.064	0.847	0	congruent	Block2	congruent/STIM_027.jpg
2335.325	0.903	0	congruent	Block2	congruent/STIM_028.jpg
2338.701	0.788	0	congruent	Block2	congruent/STIM_028.jpg
2342.857	0.842	0	congruent	Block2	congruent/STIM_028.jpg
2347.591	0.886	1	congruent	Block2	congruent/STIM_028.jpg
2351.707	0.689	0	congruent	Block2	congruent/STIM_028.jpg
2356.237	0.784	1	congruent	Block2	congruent/STIM_029.jpg
2360.004	0.731	1	congruent	Block2	congruent/STIM_029.jpg
2362.737	0.856	0	congruent	Block2	congruent/STIM_029.jpg
2366.742	0.662	1	congruent	Block2	congruent/STIM_029.jpg
2370.186	0.745	0	congruent	Block2	congruent/STIM_029.jpg
2373.767	0.78	1	incongruent	Block3	incongruent/STIM_000.jpg
2378.464	1.133	1	incongruent	Block3	incongruent/STIM_000.jpg
2382.892	0.74	1	incongruent	Block3	incongruent/STIM_000.jpg
2385.703	1.059	1	incongruent	Block3	incongruent/STIM_000.jpg
2389.139	0.757	1	incongruent	Block3	incongruent/STIM_000.jpg
2393.31	0.665	1	incongruent	Block3	incongruent/STIM_001.jpg
2397.458	1.208	1	incongruent	Block3	incongruent/STIM_001.jpg
2401.994	0.628	1	incongruent	Block3	incongruent/STIM_001.jpg
2405.016	0.616	1	incongruent	Block3	incongruent/STIM_001.jpg
2408.476	1.133	1	incongruent	Block3	incongruent/STIM_001.jpg
2413.186	1.162	1	incongruent	Block3	incongruent/STIM_002.jpg
2416.809	1.187	0	incongruent	Block3	incongruent/STIM_002.jpg
2420.322	0.964	1	incongruent	Block3	incongruent/STIM_002.jpg
2424.138	0.811	1	incongruent	Block3	incongruent/STIM_002.jpg
2428.363	0.772	1	incongruent	Block3	incongruent/STIM_002.jpg
2432.336	0.826	1	incongruent	Block3	incongruent/STIM_003.jpg
2435.223	1.062	0	incongruent	Block3	incongruent/STIM_003.jpg
2440.04	0.976	1	incongruent	Block3	incongruent/STIM_003.jpg
2444.282	0.896	0	incongruent	Block3	incongruent/STIM_003.jpg
2447.379	0.662	1	incongruent	Block3	incongruent/STIM_003.jpg
2450.41	0.87	1	incongruent	Block3	incongruent/STIM_004.jpg
2454.345	0.863	0	incongruent	Block3	incongruent/STIM_004.jpg
2457.828	1.011	1	incongruent	Block3	incongruent/STIM_004.jpg
2462.018	0.94	1	incongruent	Block3	incongruent/STIM_004.jpg
2465.31	0.814	1	incongruent	Block3	incongruent/STIM_004.jpg
2469.604	1.126	0	incongruent	Block3	incongruent/STIM_005.jpg
2472.78	1.022	1	incongruent	Block3	incongruent/STIM_005.jpg
2477.584	0.845	1	incongruent	Block3	incongruent/STIM_005.jpg
2481.566	0.608	1	incongruent	Block3	incongruent/STIM_005.jpg
2484.853	0.981	1	incongruent	Block3	incongruent/STIM_005.jpg
2488.264	1.091	0	incongruent	Block3	incongruent/STIM_006.jpg
2491.883	0.864	1	incongruent	Block3	incongruent/STIM_006.jpg
2495.15	0.573	1	incongruent	Block3	incongruent/STIM_006.jpg
2498.63	0.673	1	incongruent	Block3	incongruent/STIM_006.jpg
2501.59	0.992	0	incongruent	Block3	incongruent/STIM_006.jpg
2505.9	0.685	1	incongruent	Block3	incongruent/STIM_007.jpg
2509.56	1.016	0	incongruent	Block3	incongruent/STIM_007.jpg
2514.141	0.845	0	incongruent	Block3	incongruent/STIM_007.jpg
2518.211	0.592	1	incongruent	Block3	incongruent/STIM_007.jpg
2522.586	0.733	0	incongruent	Block3	incongruent/STIM_007.jpg
2526.561	0.89	1	incongruent	Block3	incongruent/STIM_008.jpg
2531.11	1.03	1	incongruent	Block3	incongruent/STIM_008.jpg
2534.143	0.656	1	incongruent	Block3	incongruent/STIM_008.jpg
2537.125	0.671	1	incongruent	Block3	incongruent/STIM_008.jpg
2541.208	0.677	1	incongruent	Block3	incongruent/STIM_008.jpg
2544.361	0.583	0	incongruent	Block3	incongruent/STIM_009.jpg
2548.631	1.032	1	incongruent	Block3	incongruent/STIM_009.jpg
2552.681	0.904	0	incongruent	Block3	incongruent/STIM_009.jpg
2556.644	1.189	0	incongruent	Block3	incongruent/STIM_009.jpg
2560.828	0.915	0	incongruent	Block3	incongruent/STIM_009.jpg
2564.694	1.191	1	incongruent	Block3	incongruent/STIM_010.jpg
2569.543	0.735	1	incongruent	Block3	incongruent/STIM_010.jpg
2573.849	0.701	1	incongruent	Block3	incongruent/STIM_010.jpg
2577.334	0.956	0	incongruent	Block3	incongruent/STIM_010.jpg
2581.772	1.194	0	incongruent	Block3	incongruent/STIM_010.jpg
2586.084	1.059	0	incongruent	Block3	incongruent/STIM_011.jpg
2589.527	1.046	1	incongruent	Block3	incongruent/STIM_011.jpg
2594.182	0.679	1	incongruent	Block3	incongruent/STIM_011.jpg
2598.227	0.638	1	incongruent	Block3	incongruent/STIM_011.jpg
2601.532	0.616	1	incongruent	Block3	incongruent/STIM_011.jpg
2606.013	0.871	1	incongruent	Block3	incongruent/STIM_012.jpg
2609.424	0.848	0	incongruent	Block3	incongruent/STIM_012.jpg
2612.69	0.854	0	incongruent	Block3	incongruent/STIM_012.jpg
2616.966	0.865	1	incongruent	Block3	incongruent/STIM_012.jpg
2621.296	0.586	1	incongruent	Block3	incongruent/STIM_012.jpg
2625.149	0.788	1	incongruent	Block3	incongruent/STIM_013.jpg
2628.058	0.652	1	incongruent	Block3	incongruent/STIM_013.jpg
2631.885	0.919	1	incongruent	Block3	incongruent/STIM_013.jpg
2635.989	0.681	1	incongruent	Block3	incongruent/STIM_013.jpg
2640.516	0.621	1	incongruent	Block3	incongruent/STIM_013.jpg
2644.82	0.729	1	incongruent	Block3	incongruent/STIM_014.jpg
2648.077	0.786	0	incongruent	Block3	incongruent/STIM_014.jpg
2652.013	0.803	1	incongruent	Block3	incongruent/STIM_014.jpg
2656.313	0.79	1	incongruent	Block3	incongruent/STIM_014.jpg
2660.455	1.013	0	incongruent	Block3	incongruent/STIM_014.jpg
2663.856	1.164	1	incongruent	Block3	incongruent/STIM_015.jpg
2667.731	0.999	1	incongruent	Block3	incongruent/STIM_015.jpg
2672.055	0.668	1	incongruent	Block3	incongruent/STIM_015.jpg
2675.966	0.602	0	incongruent	Block3	incongruent/STIM_015.jpg
2679.999	0.711	1	incongruent	Block3	incongruent/STIM_015.jpg
2684.16	1.025	0	incongruent	Block3	incongruent/STIM_016.jpg
2687.749	1.098	1	incongruent	Block3	incongruent/STIM_016.jpg
2691.291	0.575	1	incongruent	Block3	incongruent/STIM_016.jpg
2694.816	0.643	1	incongruent	Block3	incongruent/STIM_016.jpg
2698.429	1.174	1	incongruent	Block3	incongruent/STIM_016.jpg
2702.798	0.662	1	incongruent	Block3	incongruent/STIM_017.jpg
2705.77	1.041	1	incongruent	Block3	incongruent/STIM_017.jpg
2710.602	0.963	1	incongruent	Block3	incongruent/STIM_017.jpg
2715.176	0.6	1	incongruent	Block3	incongruent/STIM_017.jpg
2717.976	1.119	1	incongruent	Block3	incongruent/STIM_017.jpg
2721.93	0.792	1	incongruent	Block3	incongruent/STIM_018.jpg
2725.04	0.768	1	incongruent	Block3	incongruent/STIM_018.jpg
2728.136	0.866	1	incongruent	Block3	incongruent/STIM_018.jpg
2731.962	1.054	0	incongruent	Block3	incongruent/STIM_018.jpg
2736.677	0.852	1	incongruent	Block3	incongruent/STIM_018.jpg
2740.883	0.8	0	incongruent	Block3	incongruent/STIM_019.jpg
2745.502	0.672	1	incongruent	Block3	incongruent/STIM_019.jpg
2748.824	0.931	1	incongruent	Block3	incongruent/STIM_019.jpg
2751.938	0.72	0	incongruent	Block3	incongruent/STIM_019.jpg
2755.056	1.134	0	incongruent	Block3	incongruent/STIM_019.jpg
2758.671	1.168	0	incongruent	Block3	incongruent/STIM_020.jpg
2761.993	0.985	1	incongruent	Block3	incongruent/STIM_020.jpg
2765.085	0.83	1	incongruent	Block3	incongruent/STIM_020.jpg
2768.814	0.855	1	incongruent	Block3	incongruent/STIM_020.jpg
2772.09	0.732	1	incongruent	Block3	incongruent/STIM_020.jpg
2775.161	0.689	1	incongruent	Block3	incongruent/STIM_021.jpg
2777.995	0.638	1	incongruent	Block3	incongruent/STIM_021.jpg
2780.83	0.797	1	incongruent	Block3	incongruent/STIM_021.jpg
2784.384	0.805	1	incongruent	Block3	incongruent/STIM_021.jpg
2787.233	0.876	1	incongruent	Block3	incongruent/STIM_021.jpg
2790.277	1.069	1	incongruent	Block3	incongruent/STIM_022.jpg
2793.641	1.01	1	incongruent	Block3	incongruent/STIM_022.jpg
2797.014	0.97	1	incongruent	Block3	incongruent/STIM_022.jpg
2800.46	0.613	1	incongruent	Block3	incongruent/STIM_022.jpg
2804.42	0.884	1	incongruent	Block3	incongruent/STIM_022.jpg
2807.984	1.159	0	incongruent	Block3	incongruent/STIM_023.jpg
2813.053	1.023	1	incongruent	Block3	incongruent/STIM_023.jpg
2817.98	0.903	1	incongruent	Block3	incongruent/STIM_023.jpg
2822.408	0.876	1	incongruent	Block3	incongruent/STIM_023.jpg
2826.139	0.659	1	incongruent	Block3	incongruent/STIM_023.jpg
2830.288	1.099	1	incongruent	Block3	incongruent/STIM_024.jpg
2834.635	1.075	1	incongruent	Block3	incongruent/STIM_024.jpg
2839.691	0.889	0	incongruent	Block3	incongruent/STIM_024.jpg
2843.463	0.969	1	incongruent	Block3	incongruent/STIM_024.jpg
2846.713	0.6	1	incongruent	Block3	incongruent/STIM_024.jpg
2850.048	0.878	1	incongruent	Block3	incongruent/STIM_025.jpg
2853.952	0.679	1	incongruent	Block3	incongruent/STIM_025.jpg
2856.937	0.697	1	incongruent	Block3	incongruent/STIM_025.jpg
2860.084	1.112	1	incongruent	Block3	incongruent/STIM_025.jpg
2864.002	0.663	1	incongruent	Block3	incongruent/STIM_025.jpg
2867.79	0.697	1	incongruent	Block3	incongruent/STIM_026.jpg
2870.578	0.707	1	incongruent	Block3	incongruent/STIM_026.jpg
2874.262	0.587	1	incongruent	Block3	incongruent/STIM_026.jpg
2877.153	0.615	1	incongruent	Block3	incongruent/STIM_026.jpg
2880.505	0.891	1	incongruent	Block3	incongruent/STIM_026.jpg
2884.342	0.75	1	incongruent	Block3	incongruent/STIM_027.jpg
2888.985	0.606	1	incongruent	Block3	incongruent/STIM_027.jpg
2891.594	0.788	1	incongruent	Block3	incongruent/STIM_027.jpg
2896.151	0.915	1	incongruent	Block3	incongruent/STIM_027.jpg
2899.702	0.604	1	incongruent	Block3	incongruent/STIM_027.jpg
2904.263	0.845	1	incongruent	Block3	incongruent/STIM_028.jpg
2908.164	0.612	0	incongruent	Block3	incongruent/STIM_028.jpg
2912.721	1.213	1	incongruent	Block3	incongruent/STIM_028.jpg
2916.262	0.735	1	incongruent	Block3	incongruent/STIM_028.jpg
2919.92	0.631	1	incongruent	Block3	incongruent/STIM_028.jpg
2923.558	0.574	1	incongruent	Block3	incongruent/STIM_029.jpg
2927.043	1.175	1	incongruent	Block3	incongruent/STIM_029.jpg
2931.789	0.979	0	incongruent	Block3	incongruent/STIM_029.jpg
2936.018	0.9	1	incongruent	Block3	incongruent/STIM_029.jpg
2940.739	1.147	1	incongruent	Block3	incongruent/STIM_029.jpg
2945.372	0.613	1	congruent	Block3	congruent/STIM_000.jpg
2948.387	1.039	0	congruent	Block3	congruent/STIM_000.jpg
2952.468	0.743	1	congruent	Block3	congruent/STIM_000.jpg
2956.856	1.0	1	congruent	Block3	congruent/STIM_000.jpg
2959.968	0.67	1	congruent	Block3	congruent/STIM_000.jpg
2962.792	0.934	0	congruent	Block3	congruent/STIM_001.jpg
2966.714	1.031	1	congruent	Block3	congruent/STIM_001.jpg
2970.339	0.918	1	congruent	Block3	congruent/STIM_001.jpg
2974.253	0.901	1	congruent	Block3	congruent/STIM_001.jpg
2978.886	0.841	1	congruent	Block3	congruent/STIM_001.jpg
2982.381	0.941	1	congruent	Block3	congruent/STIM_002.jpg
2985.722	0.923	0	congruent	Block3	congruent/STIM_002.jpg
2988.783	0.834	0	congruent	Block3	congruent/STIM_002.jpg
2992.318	1.029	1	congruent	Block3	congruent/STIM_002.jpg
2995.732	0.697	0	congruent	Block3	congruent/STIM_002.jpg
2999.315	0.839	0	congruent	Block3	congruent/STIM_003.jpg
3003.912	0.72	0	congruent	Block3	congruent/STIM_003.jpg
3008.15	0.889	1	congruent	Block3	congruent/STIM_003.jpg
3012.887	0.781	1	congruent	Block3	congruent/STIM_003.jpg
3017.623	1.035	1	congruent	Block3	congruent/STIM_003.jpg
3021.28	0.972	0	congruent	Block3	congruent/STIM_004.jpg
3024.461	1.028	0	congruent	Block3	congruent/STIM_004.jpg
3028.223	1.032	1	congruent	Block3	congruent/STIM_004.jpg
3032.883	0.848	1	congruent	Block3	congruent/STIM_004.jpg
3036.245	0.907	1	congruent	Block3	congruent/STIM_004.jpg
3040.922	0.901	1	congruent	Block3	congruent/STIM_005.jpg
3045.793	0.674	0	congruent	Block3	congruent/STIM_005.jpg
3050.294	0.615	1	congruent	Block3	congruent/STIM_005.jpg
3053.87	0.66	1	congruent	Block3	congruent/STIM_005.jpg
3057.919	0.748	1	congruent	Block3	congruent/STIM_005.jpg
3061.574	1.018	1	congruent	Block3	congruent/STIM_006.jpg
3066.019	0.655	1	congruent	Block3	congruent/STIM_006.jpg
3069.177	0.681	0	congruent	Block3	congruent/STIM_006.jpg
3071.91	0.617	1	congruent	Block3	congruent/STIM_006.jpg
3074.7	0.729	1	congruent	Block3	congruent/STIM_006.jpg
3078.372	0.669	0	congruent	Block3	congruent/STIM_007.jpg
3082.083	0.581	0	congruent	Block3	congruent/STIM_007.jpg
3086.17	0.694	1	congruent	Block3	congruent/STIM_007.jpg
3089.981	0.892	0	congruent	Block3	congruent/STIM_007.jpg
3093.09	0.824	1	congruent	Block3	congruent/STIM_007.jpg
3096.48	1.005	0	congruent	Block3	congruent/STIM_008.jpg
3100.335	0.808	1	congruent	Block3	congruent/STIM_008.jpg
3104.071	0.615	1	congruent	Block3	congruent/STIM_008.jpg
3106.955	0.704	1	congruent	Block3	congruent/STIM_008.jpg
3111.597	1.026	0	congruent	Block3	congruent/STIM_008.jpg
3115.897	0.807	1	congruent	Block3	congruent/STIM_009.jpg
3120.187	0.639	1	congruent	Block3	congruent/STIM_009.jpg
3123.134	0.72	1	congruent	Block3	congruent/STIM_009.jpg
3127.543	0.804	1	congruent	Block3	congruent/STIM_009.jpg
3131.275	0.92	1	congruent	Block3	congruent/STIM_009.jpg
3134.398	0.952	0	congruent	Block3	congruent/STIM_010.jpg
3137.451	0.901	1	congruent	Block3	congruent/STIM_010.jpg
3140.362	0.734	1	congruent	Block3	congruent/STIM_010.jpg
3143.631	0.976	0	congruent	Block3	congruent/STIM_010.jpg
3147.824	0.939	1	congruent	Block3	congruent/STIM_010.jpg
3152.244	0.982	0	congruent	Block3	congruent/STIM_011.jpg
3156.921	0.888	1	congruent	Block3	congruent/STIM_011.jpg
3161.622	0.91	0	congruent	Block3	congruent/STIM_011.jpg
3166.516	0.917	0	congruent	Block3	congruent/STIM_011.jpg
3170.93	1.0	1	congruent	Block3	congruent/STIM_011.jpg
3174.296	0.65	0	congruent	Block3	congruent/STIM_012.jpg
3177.249	0.628	1	congruent	Block3	congruent/STIM_012.jpg
3181.14	0.987	0	congruent	Block3	congruent/STIM_012.jpg
3185.689	0.836	0	congruent	Block3	congruent/STIM_012.jpg
3189.168	0.622	1	congruent	Block3	congruent/STIM_012.jpg
3193.343	0.823	1	congruent	Block3	congruent/STIM_013.jpg
3198.14	1.014	1	congruent	Block3	congruent/STIM_013.jpg
3202.622	1.005	1	congruent	Block3	congruent/STIM_013.jpg
3206.229	0.984	0	congruent	Block3	congruent/STIM_013.jpg
3210.738	0.964	0	congruent	Block3	congruent/STIM_013.jpg
3215.369	0.997	1	congruent	Block3	congruent/STIM_014.jpg
3219.363	0.753	1	congruent	Block3	congruent/STIM_014.jpg
3223.028	0.846	1	congruent	Block3	congruent/STIM_014.jpg
3227.104	0.615	1	congruent	Block3	congruent/STIM_014.jpg
3231.673	0.972	0	congruent	Block3	congruent/STIM_014.jpg
3235.433	0.968	1	congruent	Block3	congruent/STIM_015.jpg
3238.402	0.94	1	congruent	Block3	congruent/STIM_015.jpg
3243.059	0.87	1	congruent	Block3	congruent/STIM_015.jpg
3246.208	0.893	1	congruent	Block3	congruent/STIM_015.jpg
3250.313	0.747	1	congruent	Block3	congruent/STIM_015.jpg
3254.106	0.983	0	congruent	Block3	congruent/STIM_016.jpg
3257.416	0.609	1	congruent	Block3	congruent/STIM_016.jpg
3260.727	0.792	1	congruent	Block3	congruent/STIM_016.jpg
3264.668	0.631	1	congruent	Block3	congruent/STIM_016.jpg
3268.248	0.929	1	congruent	Block3	congruent/STIM_016.jpg
3271.33	0.875	1	congruent	Block3	congruent/STIM_017.jpg
3274.912	0.821	1	congruent	Block3	congruent/STIM_017.jpg
3278.312	0.805	1	congruent	Block3	congruent/STIM_017.jpg
3281.774	0.74	1	congruent	Block3	congruent/STIM_017.jpg
3284.875	0.683	0	congruent	Block3	congruent/STIM_017.jpg
3288.571	0.739	1	congruent	Block3	congruent/STIM_018.jpg
3293.178	0.584	1	congruent	Block3	congruent/STIM_018.jpg
3296.995	0.994	0	congruent	Block3	congruent/STIM_018.jpg
3300.05	0.598	1	congruent	Block3	congruent/STIM_018.jpg
3303.974	0.662	1	congruent	Block3	congruent/STIM_018.jpg
3308.045	0.599	1	congruent	Block3	congruent/STIM_019.jpg
3311.379	0.909	1	congruent	Block3	congruent/STIM_019.jpg
3315.192	0.588	0	congruent	Block3	congruent/STIM_019.jpg
3319.107	0.598	1	congruent	Block3	congruent/STIM_019.jpg
3322.738	0.916	1	congruent	Block3	congruent/STIM_019.jpg
3326.206	0.841	0	congruent	Block3	congruent/STIM_020.jpg
3329.166	0.815	1	congruent	Block3	congruent/STIM_020.jpg
3333.522	0.984	1	congruent	Block3	congruent/STIM_020.jpg
3337.106	0.868	1	congruent	Block3	congruent/STIM_020.jpg
3341.155	0.64	0	congruent	Block3	congruent/STIM_020.jpg
3344.1	0.799	1	congruent	Block3	congruent/STIM_021.jpg
3348.606	0.818	0	congruent	Block3	congruent/STIM_021.jpg
3352.01	0.604	1	congruent	Block3	congruent/STIM_021.jpg
3356.578	0.791	1	congruent	Block3	congruent/STIM_021.jpg
3360.191	1.021	1	congruent	Block3	congruent/STIM_021.jpg
3364.82	0.734	1	congruent	Block3	congruent/STIM_022.jpg
3369.292	0.633	1	congruent	Block3	congruent/STIM_022.jpg
3373.415	0.7	1	congruent	Block3	congruent/STIM_022.jpg
3377.236	1.005	1	congruent	Block3	congruent/STIM_022.jpg
3380.644	0.885	1	congruent	Block3	congruent/STIM_022.jpg
3384.891	0.661	1	congruent	Block3	congruent/STIM_023.jpg
3387.757	0.749	0	congruent	Block3	congruent/STIM_023.jpg
3390.901	0.95	1	congruent	Block3	congruent/STIM_023.jpg
3394.266	0.809	1	congruent	Block3	congruent/STIM_023.jpg
3398.072	0.797	1	congruent	Block3	congruent/STIM_023.jpg
3400.897	0.674	1	congruent	Block3	congruent/STIM_024.jpg
3405.078	0.802	1	congruent	Block3	congruent/STIM_024.jpg
3409.597	0.613	1	congruent	Block3	congruent/STIM_024.jpg
3414.172	0.949	1	congruent	Block3	congruent/STIM_024.jpg
3417.799	0.995	0	congruent	Block3	congruent/STIM_024.jpg
3421.284	0.835	0	congruent	Block3	congruent/STIM_025.jpg
3425.514	0.847	1	congruent	Block3	congruent/STIM_025.jpg
3428.584	0.606	1	congruent	Block3	congruent/STIM_025.jpg
3431.438	0.799	0	congruent	Block3	congruent/STIM_025.jpg
3435.992	0.783	0	congruent	Block3	congruent/STIM_025.jpg
3440.546	0.759	1	congruent	Block3	congruent/STIM_026.jpg
3443.323	1.009	1	congruent	Block3	congruent/STIM_026.jpg
3448.059	1.036	1	congruent	Block3	congruent/STIM_026.jpg
3451.743	0.871	1	congruent	Block3	congruent/STIM_026.jpg
3454.916	0.742	0	congruent	Block3	congruent/STIM_026.jpg
3457.919	0.939	0	congruent	Block3	congruent/STIM_027.jpg
3461.624	0.727	1	congruent	Block3	congruent/STIM_027.jpg
3464.615	0.654	0	congruent	Block3	congruent/STIM_027.jpg
3468.969	0.939	1	congruent	Block3	congruent/STIM_027.jpg
3473.868	0.779	0	congruent	Block3	congruent/STIM_027.jpg
3478.575	0.758	1	congruent	Block3	congruent/STIM_028.jpg
3481.353	1.0	1	congruent	Block3	congruent/STIM_028.jpg
3484.463	0.773	1	congruent	Block3	congruent/STIM_028.jpg
3488.526	0.906	1	congruent	Block3	congruent/STIM_028.jpg
3492.183	0.655	1	congruent	Block3	congruent/STIM_028.jpg
3495.888	1.009	1	congruent	Block3	congruent/STIM_029.jpg
3500.411	0.996	1	congruent	Block3	congruent/STIM_029.jpg
3504.441	0.967	0	congruent	Block3	congruent/STIM_029.jpg
3508.505	0.72	1	congruent	Block3	congruent/STIM_029.jpg
3512.703	0.87	0	congruent	Block3	congruent/STIM_029.jpg
