onset	duration	response_time_ms	trial_type	learning_stage	stimulus	response_port
0.0	0.869	869.2	incongruent	Block1	incongruent/STIM_000.jpg	99
4.032	1.421	1420.8	incongruent	Block1	incongruent/STIM_000.jpg	99
8.46	1.146	1146.0	incongruent	Block1	incongruent/STIM_000.jpg	100
11.889	0.819	818.6	incongruent	Block1	incongruent/STIM_000.jpg	100
15.487	0.672	672.5	incongruent	Block1	incongruent/STIM_000.jpg	100
18.82	1.638	1637.6	incongruent	Block1	incongruent/STIM_001.jpg	99
24.433	1.283	1283.3	incongruent	Block1	incongruent/STIM_001.jpg	99
28.817	1.066	1066.2	incongruent	Block1	incongruent/STIM_001.jpg	100
33.205	0.692	692.2	incongruent	Block1	incongruent/STIM_001.jpg	99
37.233	1.248	1247.8	incongruent	Block1	incongruent/STIM_001.jpg	99
42.375	1.512	1512.5	incongruent	Block1	incongruent/STIM_002.jpg	100
47.298	1.586	1585.6	incongruent	Block1	incongruent/STIM_002.jpg	99
51.435	0.988	988.4	incongruent	Block1	incongruent/STIM_002.jpg	100
55.695	1.251	1251.1	incongruent	Block1	incongruent/STIM_002.jpg	99
59.864	1.212	1211.9	incongruent	Block1	incongruent/STIM_002.jpg	99
64.017	0.892	892.0	incongruent	Block1	incongruent/STIM_003.jpg	100
68.816	0.995	995.2	incongruent	Block1	incongruent/STIM_003.jpg	100
73.7	1.116	1115.7	incongruent	Block1	incongruent/STIM_003.jpg	100
77.088	1.27	1270.3	incongruent	Block1	incongruent/STIM_003.jpg	99
82.11	1.042	1041.6	incongruent	Block1	incongruent/STIM_003.jpg	99
86.348	1.449	1448.8	incongruent	Block1	incongruent/STIM_004.jpg	100
90.879	1.44	1439.8	incongruent	Block1	incongruent/STIM_004.jpg	99
95.326	0.761	761.2	incongruent	Block1	incongruent/STIM_004.jpg	99
98.883	0.75	750.4	incongruent	Block1	incongruent/STIM_004.jpg	100
102.765	1.222	1222.4	incongruent	Block1	incongruent/STIM_004.jpg	99
107.527	1.037	1036.8	incongruent	Block1	incongruent/STIM_005.jpg	99
111.971	1.037	1037.3	incongruent	Block1	incongruent/STIM_005.jpg	99
116.653	1.479	1479.4	incongruent	Block1	incongruent/STIM_005.jpg	100
120.562	0.955	955.2	incongruent	Block1	incongruent/STIM_005.jpg	100
123.973	1.195	1195.4	incongruent	Block1	incongruent/STIM_005.jpg	99
127.334	0.973	973.3	incongruent	Block1	incongruent/STIM_006.jpg	100
131.232	1.433	1432.8	incongruent	Block1	incongruent/STIM_006.jpg	100
135.548	0.939	938.7	incongruent	Block1	incongruent/STIM_006.jpg	99
139.453	0.712	712.5	incongruent	Block1	incongruent/STIM_006.jpg	100
142.187	1.267	1267.3	incongruent	Block1	incongruent/STIM_006.jpg	99
145.754	0.903	902.9	incongruent	Block1	incongruent/STIM_007.jpg	99
150.074	0.882	882.3	incongruent	Block1	incongruent/STIM_007.jpg	99
154.866	1.386	1386.1	incongruent	Block1	incongruent/STIM_007.jpg	99
158.844	1.292	1292.3	incongruent	Block1	incongruent/STIM_007.jpg	100
162.812	0.763	763.0	incongruent	Block1	incongruent/STIM_007.jpg	99
165.641	1.169	1169.3	incongruent	Block1	incongruent/STIM_008.jpg	100
169.571	1.099	1099.4	incongruent	Block1	incongruent/STIM_008.jpg	99
173.94	1.147	1146.9	incongruent	Block1	incongruent/STIM_008.jpg	100
178.491	1.406	1406.3	incongruent	Block1	incongruent/STIM_008.jpg	99
183.381	1.207	1207.0	incongruent	Block1	incongruent/STIM_008.jpg	100
186.93	1.005	1004.8	incongruent	Block1	incongruent/STIM_009.jpg	99
190.573	0.833	832.7	incongruent	Block1	incongruent/STIM_009.jpg	99
194.048	0.869	868.8	incongruent	Block1	incongruent/STIM_009.jpg	99
198.914	1.295	1295.3	incongruent	Block1	incongruent/STIM_009.jpg	100
202.797	0.787	786.9	incongruent	Block1	incongruent/STIM_009.jpg	100
206.157	1.67	1670.0	incongruent	Block1	incongruent/STIM_010.jpg	100
210.365	1.447	1446.6	incongruent	Block1	incongruent/STIM_010.jpg	100
215.274	1.05	1050.4	incongruent	Block1	incongruent/STIM_010.jpg	100
219.15	1.398	1397.7	incongruent	Block1	incongruent/STIM_010.jpg	99
223.343	0.815	815.3	incongruent	Block1	incongruent/STIM_010.jpg	99
227.631	1.297	1297.0	incongruent	Block1	incongruent/STIM_011.jpg	99
232.176	1.596	1595.8	incongruent	Block1	incongruent/STIM_011.jpg	99
236.11	1.126	1126.4	incongruent	Block1	incongruent/STIM_011.jpg	99
240.222	1.302	1302.1	incongruent	Block1	incongruent/STIM_011.jpg	99
244.127	1.384	1383.9	incongruent	Block1	incongruent/STIM_011.jpg	100
247.555	0.83	830.1	incongruent	Block1	incongruent/STIM_012.jpg	100
251.599	1.516	1515.6	incongruent	Block1	incongruent/STIM_012.jpg	99
255.793	1.422	1422.3	incongruent	Block1	incongruent/STIM_012.jpg	100
259.226	1.387	1386.9	incongruent	Block1	incongruent/STIM_012.jpg	100
264.077	1.106	1106.1	incongruent	Block1	incongruent/STIM_012.jpg	100
268.975	1.633	1633.2	incongruent	Block1	incongruent/STIM_013.jpg	100
272.759	1.36	1360.2	incongruent	Block1	incongruent/STIM_013.jpg	99
276.883	1.289	1288.8	incongruent	Block1	incongruent/STIM_013.jpg	100
281.574	1.025	1025.3	incongruent	Block1	incongruent/STIM_013.jpg	100
286.032	1.126	1125.6	incongruent	Block1	incongruent/STIM_013.jpg	99
289.809	1.731	1730.7	incongruent	Block1	incongruent/STIM_014.jpg	99
294.224	1.532	1532.4	incongruent	Block1	incongruent/STIM_014.jpg	100
298.949	0.831	830.8	incongruent	Block1	incongruent/STIM_014.jpg	100
302.936	1.119	1119.3	incongruent	Block1	incongruent/STIM_014.jpg	100
306.715	0.906	906.0	incongruent	Block1	incongruent/STIM_014.jpg	100
311.255	1.368	1368.1	incongruent	Block1	incongruent/STIM_015.jpg	100
315.356	1.55	1549.5	incongruent	Block1	incongruent/STIM_015.jpg	99
319.77	1.421	1421.3	incongruent	Block1	incongruent/STIM_015.jpg	99
323.281	1.085	1085.0	incongruent	Block1	incongruent/STIM_015.jpg	100
326.954	1.196	1195.8	incongruent	Block1	incongruent/STIM_015.jpg	100
331.451	1.0	1000.1	incongruent	Block1	incongruent/STIM_016.jpg	99
336.231	0.829	829.1	incongruent	Block1	incongruent/STIM_016.jpg	99
340.842	1.372	1371.9	incongruent	Block1	incongruent/STIM_016.jpg	99
344.414	1.041	1041.1	incongruent	Block1	incongruent/STIM_016.jpg	100
348.349	0.69	689.7	incongruent	Block1	incongruent/STIM_016.jpg	100
353.023	1.04	1040.4	incongruent	Block1	incongruent/STIM_017.jpg	100
356.588	1.31	1310.4	incongruent	Block1	incongruent/STIM_017.jpg	99
360.011	1.102	1102.1	incongruent	Block1	incongruent/STIM_017.jpg	99
363.702	0.854	853.7	incongruent	Block1	incongruent/STIM_017.jpg	99
366.848	1.066	1066.2	incongruent	Block1	incongruent/STIM_017.jpg	99
370.168	1.008	1008.2	incongruent	Block1	incongruent/STIM_018.jpg	100
374.144	1.073	1073.0	incongruent	Block1	incongruent/STIM_018.jpg	99
377.427	1.285	1285.4	incongruent	Block1	incongruent/STIM_018.jpg	100
381.821	0.7	700.4	incongruent	Block1	incongruent/STIM_018.jpg	100
385.816	1.383	1383.2	incongruent	Block1	incongruent/STIM_018.jpg	100
389.752	1.182	1182.5	incongruent	Block1	incongruent/STIM_019.jpg	100
393.071	0.895	894.9	incongruent	Block1	incongruent/STIM_019.jpg	100
397.094	0.988	987.6	incongruent	Block1	incongruent/STIM_019.jpg	100
401.934	1.315	1314.6	incongruent	Block1	incongruent/STIM_019.jpg	100
407.101	0.723	722.7	incongruent	Block1	incongruent/STIM_019.jpg	99
411.292	1.657	1657.4	incongruent	Block1	incongruent/STIM_020.jpg	99
416.588	1.033	1033.1	incongruent	Block1	incongruent/STIM_020.jpg	99
419.801	0.915	915.4	incongruent	Block1	incongruent/STIM_020.jpg	99
424.451	1.252	1252.5	incongruent	Block1	incongruent/STIM_020.jpg	99
428.013	1.332	1331.5	incongruent	Block1	incongruent/STIM_020.jpg	100
432.038	1.544	1543.9	incongruent	Block1	incongruent/STIM_021.jpg	100
437.008	1.638	1638.5	incongruent	Block1	incongruent/STIM_021.jpg	99
442.195	1.52	1519.9	incongruent	Block1	incongruent/STIM_021.jpg	100
447.667	0.982	981.6	incongruent	Block1	incongruent/STIM_021.jpg	100
450.683	0.91	910.1	incongruent	Block1	incongruent/STIM_021.jpg	100
454.012	1.326	1326.0	incongruent	Block1	incongruent/STIM_022.jpg	100
457.948	1.447	1446.8	incongruent	Block1	incongruent/STIM_022.jpg	100
461.472	0.878	878.0	incongruent	Block1	incongruent/STIM_022.jpg	99
466.259	1.098	1098.3	incongruent	Block1	incongruent/STIM_022.jpg	100
470.737	1.088	1088.0	incongruent	Block1	incongruent/STIM_022.jpg	100
475.349	1.532	1531.8	incongruent	Block1	incongruent/STIM_023.jpg	99
478.908	1.541	1541.2	incongruent	Block1	incongruent/STIM_023.jpg	99
482.999	0.812	811.5	incongruent	Block1	incongruent/STIM_023.jpg	100
487.273	0.938	937.5	incongruent	Block1	incongruent/STIM_023.jpg	99
491.65	0.964	964.0	incongruent	Block1	incongruent/STIM_023.jpg	100
495.605	1.526	1526.1	incongruent	Block1	incongruent/STIM_024.jpg	100
500.704	1.435	1435.0	incongruent	Block1	incongruent/STIM_024.jpg	100
504.371	0.738	737.6	incongruent	Block1	incongruent/STIM_024.jpg	99
507.867	0.808	807.5	incongruent	Block1	incongruent/STIM_024.jpg	99
511.179	1.211	1211.1	incongruent	Block1	incongruent/STIM_024.jpg	99
516.11	1.506	1506.2	incongruent	Block1	incongruent/STIM_025.jpg	100
520.601	1.286	1286.5	incongruent	Block1	incongruent/STIM_025.jpg	100
525.117	1.404	1403.6	incongruent	Block1	incongruent/STIM_025.jpg	99
528.811	1.171	1171.0	incongruent	Block1	incongruent/STIM_025.jpg	100
533.534	1.111	1111.1	incongruent	Block1	incongruent/STIM_025.jpg	99
537.338	0.993	992.6	incongruent	Block1	incongruent/STIM_026.jpg	100
540.881	1.55	1549.6	incongruent	Block1	incongruent/STIM_026.jpg	100
545.719	1.475	1474.6	incongruent	Block1	incongruent/STIM_026.jpg	99
550.091	0.926	926.1	incongruent	Block1	incongruent/STIM_026.jpg	99
553.373	0.87	870.2	incongruent	Block1	incongruent/STIM_026.jpg	99
556.74	0.985	984.7	incongruent	Block1	incongruent/STIM_027.jpg	99
561.334	1.188	1188.0	incongruent	Block1	incongruent/STIM_027.jpg	99
565.521	1.032	1031.7	incongruent	Block1	incongruent/STIM_027.jpg	100
570.162	0.949	949.3	incongruent	Block1	incongruent/STIM_027.jpg	100
574.093	0.826	825.7	incongruent	Block1	incongruent/STIM_027.jpg	99
577.594	1.138	1138.5	incongruent	Block1	incongruent/STIM_028.jpg	99
581.077	1.64	1640.1	incongruent	Block1	incongruent/STIM_028.jpg	99
585.824	0.993	993.3	incongruent	Block1	incongruent/STIM_028.jpg	100
590.166	1.006	1006.3	incongruent	Block1	incongruent/STIM_028.jpg	100
594.812	0.889	889.2	incongruent	Block1	incongruent/STIM_028.jpg	99
598.674	1.642	1641.8	incongruent	Block1	incongruent/STIM_029.jpg	100
603.338	0.904	903.5	incongruent	Block1	incongruent/STIM_029.jpg	100
607.498	1.55	1549.8	incongruent	Block1	incongruent/STIM_029.jpg	100
612.49	0.956	956.4	incongruent	Block1	incongruent/STIM_029.jpg	100
615.949	0.909	909.0	incongruent	Block1	incongruent/STIM_029.jpg	100
620.61	0.758	757.6	congruent	Block1	congruent/STIM_000.jpg	100
624.107	0.789	788.9	congruent	Block1	congruent/STIM_000.jpg	99
627.793	0.957	957.2	congruent	Block1	congruent/STIM_000.jpg	99
632.571	0.581	580.6	congruent	Block1	congruent/STIM_000.jpg	100
636.656	0.756	756.3	congruent	Block1	congruent/STIM_000.jpg	100
640.362	0.596	595.9	congruent	Block1	congruent/STIM_001.jpg	99
644.139	0.844	843.7	congruent	Block1	congruent/STIM_001.jpg	100
648.592	0.95	950.0	congruent	Block1	congruent/STIM_001.jpg	99
651.819	0.971	971.0	congruent	Block1	congruent/STIM_001.jpg	100
656.55	0.878	878.1	congruent	Block1	congruent/STIM_001.jpg	99
660.049	0.718	718.2	congruent	Block1	congruent/STIM_002.jpg	99
663.931	0.786	785.8	congruent	Block1	congruent/STIM_002.jpg	100
668.65	0.626	625.8	congruent	Block1	congruent/STIM_002.jpg	100
672.099	0.589	588.7	congruent	Block1	congruent/STIM_002.jpg	99
676.242	0.9	899.7	congruent	Block1	congruent/STIM_002.jpg	100
679.741	0.627	627.4	congruent	Block1	congruent/STIM_003.jpg	99
683.699	1.012	1012.5	congruent	Block1	congruent/STIM_003.jpg	99
688.267	0.871	871.3	congruent	Block1	congruent/STIM_003.jpg	100
692.864	0.941	940.8	congruent	Block1	congruent/STIM_003.jpg	99
696.812	0.618	618.0	congruent	Block1	congruent/STIM_003.jpg	100
700.287	0.929	929.2	congruent	Block1	congruent/STIM_004.jpg	100
704.92	0.997	996.7	congruent	Block1	congruent/STIM_004.jpg	99
708.862	0.931	930.7	congruent	Block1	congruent/STIM_004.jpg	99
712.156	0.84	840.5	congruent	Block1	congruent/STIM_004.jpg	100
715.066	0.71	710.2	congruent	Block1	congruent/STIM_004.jpg	100
718.323	0.766	766.0	congruent	Block1	congruent/STIM_005.jpg	100
722.365	1.039	1038.6	congruent	Block1	congruent/STIM_005.jpg	100
726.67	0.799	799.4	congruent	Block1	congruent/STIM_005.jpg	100
729.875	1.001	1001.2	congruent	Block1	congruent/STIM_005.jpg	99
734.197	0.99	989.6	congruent	Block1	congruent/STIM_005.jpg	99
739.168	0.84	839.8	congruent	Block1	congruent/STIM_006.jpg	99
742.864	0.79	789.8	congruent	Block1	congruent/STIM_006.jpg	100
747.138	0.749	749.1	congruent	Block1	congruent/STIM_006.jpg	100
749.929	0.965	964.9	congruent	Block1	congruent/STIM_006.jpg	99
753.645	0.751	751.4	congruent	Block1	congruent/STIM_006.jpg	100
757.342	0.777	776.8	congruent	Block1	congruent/STIM_007.jpg	100
760.753	0.609	609.1	congruent	Block1	congruent/STIM_007.jpg	99
764.405	0.982	982.1	congruent	Block1	congruent/STIM_007.jpg	100
768.062	0.775	774.9	congruent	Block1	congruent/STIM_007.jpg	100
772.001	0.668	668.1	congruent	Block1	congruent/STIM_007.jpg	100
775.53	0.744	744.0	congruent	Block1	congruent/STIM_008.jpg	100
779.198	0.683	683.1	congruent	Block1	congruent/STIM_008.jpg	99
783.309	0.942	942.2	congruent	Block1	congruent/STIM_008.jpg	99
787.807	0.692	691.5	congruent	Block1	congruent/STIM_008.jpg	100
791.303	0.823	823.0	congruent	Block1	congruent/STIM_008.jpg	99
795.235	0.756	755.9	congruent	Block1	congruent/STIM_009.jpg	100
798.643	0.598	598.1	congruent	Block1	congruent/STIM_009.jpg	100
801.275	0.682	681.5	congruent	Block1	congruent/STIM_009.jpg	100
804.459	0.936	935.6	congruent	Block1	congruent/STIM_009.jpg	100
808.1	1.009	1009.0	congruent	Block1	congruent/STIM_009.jpg	99
812.538	0.6	600.3	congruent	Block1	congruent/STIM_010.jpg	100
816.721	0.787	787.4	congruent	Block1	congruent/STIM_010.jpg	100
820.388	0.775	775.4	congruent	Block1	congruent/STIM_010.jpg	100
823.19	0.586	586.5	congruent	Block1	congruent/STIM_010.jpg	100
827.743	0.632	632.0	congruent	Block1	congruent/STIM_010.jpg	99
831.625	0.717	716.8	congruent	Block1	congruent/STIM_011.jpg	100
835.897	0.881	881.3	congruent	Block1	congruent/STIM_011.jpg	99
839.447	0.731	731.1	congruent	Block1	congruent/STIM_011.jpg	99
843.959	0.948	948.2	congruent	Block1	congruent/STIM_011.jpg	99
847.032	0.794	794.1	congruent	Block1	congruent/STIM_011.jpg	99
850.446	0.793	793.1	congruent	Block1	congruent/STIM_012.jpg	99
853.584	1.033	1032.8	congruent	Block1	congruent/STIM_012.jpg	100
857.661	0.747	746.8	congruent	Block1	congruent/STIM_012.jpg	99
861.517	0.927	926.6	congruent	Block1	congruent/STIM_012.jpg	99
865.672	0.892	891.8	congruent	Block1	congruent/STIM_012.jpg	99
868.981	0.717	716.8	congruent	Block1	congruent/STIM_013.jpg	99
872.154	0.91	909.9	congruent	Block1	congruent/STIM_013.jpg	99
876.105	0.693	693.0	congruent	Block1	congruent/STIM_013.jpg	99
880.693	0.667	667.3	congruent	Block1	congruent/STIM_013.jpg	99
885.005	0.824	824.4	congruent	Block1	congruent/STIM_013.jpg	100
889.268	0.861	861.1	congruent	Block1	congruent/STIM_014.jpg	99
893.912	0.747	746.8	congruent	Block1	congruent/STIM_014.jpg	100
897.124	0.885	885.2	congruent	Block1	congruent/STIM_014.jpg	99
901.393	0.91	909.5	congruent	Block1	congruent/STIM_014.jpg	100
904.422	0.699	698.8	congruent	Block1	congruent/STIM_014.jpg	100
907.267	0.774	774.3	congruent	Block1	congruent/STIM_015.jpg	100
910.262	0.886	886.3	congruent	Block1	congruent/STIM_015.jpg	100
913.217	0.652	652.4	congruent	Block1	congruent/STIM_015.jpg	100
916.846	0.587	586.6	congruent	Block1	congruent/STIM_015.jpg	100
921.269	0.833	833.3	congruent	Block1	congruent/STIM_015.jpg	99
924.604	0.884	883.6	congruent	Block1	congruent/STIM_016.jpg	100
927.742	0.702	701.5	congruent	Block1	congruent/STIM_016.jpg	100
932.178	0.85	849.6	congruent	Block1	congruent/STIM_016.jpg	99
936.082	0.795	794.7	congruent	Block1	congruent/STIM_016.jpg	99
938.999	0.855	855.1	congruent	Block1	congruent/STIM_016.jpg	100
943.767	0.79	790.4	congruent	Block1	congruent/STIM_017.jpg	100
947.107	0.779	779.0	congruent	Block1	congruent/STIM_017.jpg	100
950.518	0.661	660.8	congruent	Block1	congruent/STIM_017.jpg	100
953.779	1.021	1020.7	congruent	Block1	congruent/STIM_017.jpg	99
958.761	0.681	681.3	congruent	Block1	congruent/STIM_017.jpg	100
961.687	0.596	596.0	congruent	Block1	congruent/STIM_018.jpg	99
965.469	0.702	701.8	congruent	Block1	congruent/STIM_018.jpg	99
968.771	0.885	884.7	congruent	Block1	congruent/STIM_018.jpg	99
972.48	0.834	833.6	congruent	Block1	congruent/STIM_018.jpg	100
976.145	0.909	909.3	congruent	Block1	congruent/STIM_018.jpg	99
979.817	1.04	1040.4	congruent	Block1	congruent/STIM_019.jpg	99
984.309	0.916	915.6	congruent	Block1	congruent/STIM_019.jpg	99
989.183	0.966	966.0	congruent	Block1	congruent/STIM_019.jpg	100
993.381	1.022	1022.1	congruent	Block1	congruent/STIM_019.jpg	99
997.602	0.745	745.3	congruent	Block1	congruent/STIM_019.jpg	99
1002.136	1.025	1025.1	congruent	Block1	congruent/STIM_020.jpg	99
1006.446	0.927	927.2	congruent	Block1	congruent/STIM_020.jpg	100
1010.084	0.974	973.7	congruent	Block1	congruent/STIM_020.jpg	100
1013.993	0.864	863.8	congruent	Block1	congruent/STIM_020.jpg	99
1017.777	0.732	732.3	congruent	Block1	congruent/STIM_020.jpg	100
1022.017	1.037	1036.8	congruent	Block1	congruent/STIM_021.jpg	100
1026.144	0.827	827.4	congruent	Block1	congruent/STIM_021.jpg	99
1030.931	0.744	744.3	congruent	Block1	congruent/STIM_021.jpg	100
1034.8	0.604	604.3	congruent	Block1	congruent/STIM_021.jpg	99
1038.741	0.655	654.8	congruent	Block1	congruent/STIM_021.jpg	99
1042.501	0.678	677.8	congruent	Block1	congruent/STIM_022.jpg	99
1046.725	1.012	1012.3	congruent	Block1	congruent/STIM_022.jpg	99
1050.339	0.977	977.0	congruent	Block1	congruent/STIM_022.jpg	100
1054.638	0.908	908.0	congruent	Block1	congruent/STIM_022.jpg	99
1057.755	0.688	687.9	congruent	Block1	congruent/STIM_022.jpg	100
1061.787	0.652	651.7	congruent	Block1	congruent/STIM_023.jpg	100
1064.693	0.991	991.0	congruent	Block1	congruent/STIM_023.jpg	100
1069.005	0.678	678.3	congruent	Block1	congruent/STIM_023.jpg	100
1071.699	0.809	809.3	congruent	Block1	congruent/STIM_023.jpg	100
1075.545	0.61	610.2	congruent	Block1	congruent/STIM_023.jpg	99
1079.383	1.041	1040.6	congruent	Block1	congruent/STIM_024.jpg	99
1083.153	0.743	742.7	congruent	Block1	congruent/STIM_024.jpg	99
1086.027	0.637	636.6	congruent	Block1	congruent/STIM_024.jpg	100
1090.276	0.668	668.4	congruent	Block1	congruent/STIM_024.jpg	100
1093.502	0.63	629.7	congruent	Block1	congruent/STIM_024.jpg	99
1096.264	0.974	974.4	congruent	Block1	congruent/STIM_025.jpg	100
1100.58	0.928	927.5	congruent	Block1	congruent/STIM_025.jpg	99
1104.097	0.777	776.8	congruent	Block1	congruent/STIM_025.jpg	99
1108.31	0.662	662.0	congruent	Block1	congruent/STIM_025.jpg	100
1112.062	0.747	746.7	congruent	Block1	congruent/STIM_025.jpg	100
1115.686	0.999	998.9	congruent	Block1	congruent/STIM_026.jpg	99
1119.229	0.967	966.6	congruent	Block1	congruent/STIM_026.jpg	99
1122.237	0.638	637.9	congruent	Block1	congruent/STIM_026.jpg	99
1126.691	0.927	927.1	congruent	Block1	congruent/STIM_026.jpg	99
1131.368	0.703	703.3	congruent	Block1	congruent/STIM_026.jpg	99
1135.247	0.646	646.5	congruent	Block1	congruent/STIM_027.jpg	100
1138.431	1.024	1024.2	congruent	Block1	congruent/STIM_027.jpg	100
1142.869	0.778	778.0	congruent	Block1	congruent/STIM_027.jpg	100
1147.25	0.685	685.4	congruent	Block1	congruent/STIM_027.jpg	100
1150.535	0.645	645.4	congruent	Block1	congruent/STIM_027.jpg	100
1153.515	0.588	588.3	congruent	Block1	congruent/STIM_028.jpg	100
1156.37	0.888	888.1	congruent	Block1	congruent/STIM_028.jpg	99
1159.818	0.946	945.9	congruent	Block1	congruent/STIM_028.jpg	99
1164.381	0.962	962.4	congruent	Block1	congruent/STIM_028.jpg	99
1169.01	0.633	633.1	congruent	Block1	congruent/STIM_028.jpg	99
1173.096	0.934	933.9	congruent	Block1	congruent/STIM_029.jpg	99
1177.784	0.817	816.6	congruent	Block1	congruent/STIM_029.jpg	100
1181.565	0.853	853.4	congruent	Block1	congruent/STIM_029.jpg	100
1184.917	0.734	734.4	congruent	Block1	congruent/STIM_029.jpg	99
1189.479	0.934	934.5	congruent	Block1	congruent/STIM_029.jpg	100
1193.754	1.229	1228.7	incongruent	Block2	incongruent/STIM_000.jpg	99
1197.936	1.227	1227.0	incongruent	Block2	incongruent/STIM_000.jpg	100
1201.586	0.85	850.1	incongruent	Block2	incongruent/STIM_000.jpg	100
1204.548	0.912	911.8	incongruent	Block2	incongruent/STIM_000.jpg	100
1208.899	0.658	658.0	incongruent	Block2	incongruent/STIM_000.jpg	99
1212.757	0.976	976.2	incongruent	Block2	incongruent/STIM_001.jpg	100
1217.119	0.796	795.9	incongruent	Block2	incongruent/STIM_001.jpg	100
1221.874	0.67	669.9	incongruent	Block2	incongruent/STIM_001.jpg	99
1225.579	0.606	606.3	incongruent	Block2	incongruent/STIM_001.jpg	100
1229.572	0.669	669.1	incongruent	Block2	incongruent/STIM_001.jpg	99
1232.394	1.232	1231.5	incongruent	Block2	incongruent/STIM_002.jpg	100
1236.563	1.007	1007.3	incongruent	Block2	incongruent/STIM_002.jpg	100
1239.921	0.748	748.4	incongruent	Block2	incongruent/STIM_002.jpg	100
1243.822	0.848	848.4	incongruent	Block2	incongruent/STIM_002.jpg	100
1247.188	0.979	979.2	incongruent	Block2	incongruent/STIM_002.jpg	100
1250.421	1.471	1470.8	incongruent	Block2	incongruent/STIM_003.jpg	100
1255.604	0.965	964.9	incongruent	Block2	incongruent/STIM_003.jpg	100
1259.295	0.921	921.1	incongruent	Block2	incongruent/STIM_003.jpg	99
1264.029	0.968	967.6	incongruent	Block2	incongruent/STIM_003.jpg	100
1268.685	0.63	629.7	incongruent	Block2	incongruent/STIM_003.jpg	99
1272.142	0.714	714.2	incongruent	Block2	incongruent/STIM_004.jpg	99
1276.135	0.807	806.9	incongruent	Block2	incongruent/STIM_004.jpg	100
1279.69	0.805	804.7	incongruent	Block2	incongruent/STIM_004.jpg	99
1283.082	1.198	1197.9	incongruent	Block2	incongruent/STIM_004.jpg	99
1287.937	0.798	798.5	incongruent	Block2	incongruent/STIM_004.jpg	100
1292.563	1.422	1421.9	incongruent	Block2	incongruent/STIM_005.jpg	100
1296.439	1.358	1357.5	incongruent	Block2	incongruent/STIM_005.jpg	99
1300.96	0.943	943.0	incongruent	Block2	incongruent/STIM_005.jpg	100
1305.238	0.638	637.7	incongruent	Block2	incongruent/STIM_005.jpg	99
1308.054	1.17	1169.5	incongruent	Block2	incongruent/STIM_005.jpg	99
1311.975	1.326	1325.7	incongruent	Block2	incongruent/STIM_006.jpg	100
1316.73	0.951	950.8	incongruent	Block2	incongruent/STIM_006.jpg	99
1320.215	0.651	651.3	incongruent	Block2	incongruent/STIM_006.jpg	99
1323.714	1.078	1078.2	incongruent	Block2	incongruent/STIM_006.jpg	100
1328.136	0.643	642.9	incongruent	Block2	incongruent/STIM_006.jpg	99
1331.809	0.701	701.0	incongruent	Block2	incongruent/STIM_007.jpg	99
1335.895	1.111	1110.7	incongruent	Block2	incongruent/STIM_007.jpg	99
1339.346	0.905	904.6	incongruent	Block2	incongruent/STIM_007.jpg	99
1343.878	0.87	869.5	incongruent	Block2	incongruent/STIM_007.jpg	100
1347.647	0.81	809.7	incongruent	Block2	incongruent/STIM_007.jpg	100
1350.959	0.906	906.1	incongruent	Block2	incongruent/STIM_008.jpg	100
1354.935	1.097	1097.4	incongruent	Block2	incongruent/STIM_008.jpg	99
1359.654	0.703	703.1	incongruent	Block2	incongruent/STIM_008.jpg	100
1363.551	0.702	701.5	incongruent	Block2	incongruent/STIM_008.jpg	99
1366.75	0.644	643.8	incongruent	Block2	incongruent/STIM_008.jpg	100
1369.946	1.198	1197.8	incongruent	Block2	incongruent/STIM_009.jpg	100
1375.032	0.748	748.0	incongruent	Block2	incongruent/STIM_009.jpg	99
1379.292	0.627	627.1	incongruent	Block2	incongruent/STIM_009.jpg	100
1383.6	0.574	573.6	incongruent	Block2	incongruent/STIM_009.jpg	100
1387.355	0.628	628.2	incongruent	Block2	incongruent/STIM_009.jpg	100
1391.598	1.202	1202.3	incongruent	Block2	incongruent/STIM_010.jpg	100
1395.216	0.734	734.4	incongruent	Block2	incongruent/STIM_010.jpg	99
1399.507	1.12	1120.3	incongruent	Block2	incongruent/STIM_010.jpg	99
1403.081	1.143	1143.0	incongruent	Block2	incongruent/STIM_010.jpg	99
1408.211	0.638	638.2	incongruent	Block2	incongruent/STIM_010.jpg	100
1411.123	0.853	852.7	incongruent	Block2	incongruent/STIM_011.jpg	100
1414.149	1.297	1296.8	incongruent	Block2	incongruent/STIM_011.jpg	100
1419.208	0.845	844.8	incongruent	Block2	incongruent/STIM_011.jpg	100
1422.285	1.173	1173.3	incongruent	Block2	incongruent/STIM_011.jpg	99
1426.67	1.184	1184.3	incongruent	Block2	incongruent/STIM_011.jpg	99
1431.628	1.036	1035.5	incongruent	Block2	incongruent/STIM_012.jpg	99
1436.379	0.688	687.7	incongruent	Block2	incongruent/STIM_012.jpg	100
1439.863	1.293	1293.2	incongruent	Block2	incongruent/STIM_012.jpg	100
1444.186	0.912	911.6	incongruent	Block2	incongruent/STIM_012.jpg	99
1448.137	0.745	744.7	incongruent	Block2	incongruent/STIM_012.jpg	100
1452.746	1.211	1211.2	incongruent	Block2	incongruent/STIM_013.jpg	100
1457.247	1.187	1187.4	incongruent	Block2	incongruent/STIM_013.jpg	100
1461.279	0.911	911.0	incongruent	Block2	incongruent/STIM_013.jpg	99
1465.371	0.757	756.9	incongruent	Block2	incongruent/STIM_013.jpg	100
1469.135	1.21	1210.2	incongruent	Block2	incongruent/STIM_013.jpg	100
1472.921	0.937	937.1	incongruent	Block2	incongruent/STIM_014.jpg	100
1477.117	0.783	782.6	incongruent	Block2	incongruent/STIM_014.jpg	100
1481.081	1.208	1207.5	incongruent	Block2	incongruent/STIM_014.jpg	100
1484.604	1.02	1019.9	incongruent	Block2	incongruent/STIM_014.jpg	99
1489.475	0.625	625.4	incongruent	Block2	incongruent/STIM_014.jpg	99
1492.544	0.945	944.7	incongruent	Block2	incongruent/STIM_015.jpg	100
1496.517	0.668	667.9	incongruent	Block2	incongruent/STIM_015.jpg	100
1500.662	1.158	1157.8	incongruent	Block2	incongruent/STIM_015.jpg	99
1504.902	1.046	1046.0	incongruent	Block2	incongruent/STIM_015.jpg	99
1509.309	0.66	660.2	incongruent	Block2	incongruent/STIM_015.jpg	100
1512.444	1.015	1015.4	incongruent	Block2	incongruent/STIM_016.jpg	100
1516.805	1.372	1372.4	incongruent	Block2	incongruent/STIM_016.jpg	99
1521.435	0.677	676.8	incongruent	Block2	incongruent/STIM_016.jpg	99
1524.358	0.854	854.2	incongruent	Block2	incongruent/STIM_016.jpg	99
1528.062	1.162	1162.2	incongruent	Block2	incongruent/STIM_016.jpg	99
1533.172	0.882	881.9	incongruent	Block2	incongruent/STIM_017.jpg	100
1536.43	0.98	980.5	incongruent	Block2	incongruent/STIM_017.jpg	100
1539.467	1.061	1061.3	incongruent	Block2	incongruent/STIM_017.jpg	99
1543.427	0.601	601.3	incongruent	Block2	incongruent/STIM_017.jpg	100
1547.961	1.096	1096.4	incongruent	Block2	incongruent/STIM_017.jpg	100
1551.746	0.705	704.6	incongruent	Block2	incongruent/STIM_018.jpg	100
1555.668	0.76	760.1	incongruent	Block2	incongruent/STIM_018.jpg	100
1559.757	1.159	1159.1	incongruent	Block2	incongruent/STIM_018.jpg	99
1563.217	0.576	575.7	incongruent	Block2	incongruent/STIM_018.jpg	99
1567.466	0.832	832.3	incongruent	Block2	incongruent/STIM_018.jpg	99
1570.419	0.852	852.3	incongruent	Block2	incongruent/STIM_019.jpg	100
1575.168	1.064	1064.3	incongruent	Block2	incongruent/STIM_019.jpg	99
1579.665	0.64	639.8	incongruent	Block2	incongruent/STIM_019.jpg	99
1582.924	0.63	629.8	incongruent	Block2	incongruent/STIM_019.jpg	99
1587.297	0.717	717.1	incongruent	Block2	incongruent/STIM_019.jpg	100
1591.031	0.768	768.5	incongruent	Block2	incongruent/STIM_020.jpg	100
1595.523	1.034	1033.6	incongruent	Block2	incongruent/STIM_020.jpg	99
1600.426	0.782	781.9	incongruent	Block2	incongruent/STIM_020.jpg	99
1605.159	0.715	715.2	incongruent	Block2	incongruent/STIM_020.jpg	99
1608.822	1.001	1001.4	incongruent	Block2	incongruent/STIM_020.jpg	100
1612.928	0.762	761.9	incongruent	Block2	incongruent/STIM_021.jpg	100
1616.847	1.161	1161.4	incongruent	Block2	incongruent/STIM_021.jpg	100
1621.238	0.716	715.8	incongruent	Block2	incongruent/STIM_021.jpg	99
1624.085	1.15	1149.7	incongruent	Block2	incongruent/STIM_021.jpg	100
1627.235	0.589	589.1	incongruent	Block2	incongruent/STIM_021.jpg	100
1631.396	1.244	1243.9	incongruent	Block2	incongruent/STIM_022.jpg	100
1635.52	0.952	952.4	incongruent	Block2	incongruent/STIM_022.jpg	99
1638.894	0.719	719.1	incongruent	Block2	incongruent/STIM_022.jpg	100
1643.12	0.656	656.2	incongruent	Block2	incongruent/STIM_022.jpg	100
1647.754	0.966	965.9	incongruent	Block2	incongruent/STIM_022.jpg	99
1651.961	1.255	1255.0	incongruent	Block2	incongruent/STIM_023.jpg	100
1656.369	1.065	1065.4	incongruent	Block2	incongruent/STIM_023.jpg	100
1659.658	1.254	1254.1	incongruent	Block2	incongruent/STIM_023.jpg	100
1664.227	1.168	1168.0	incongruent	Block2	incongruent/STIM_023.jpg	100
1668.464	0.636	636.2	incongruent	Block2	incongruent/STIM_023.jpg	100
1671.779	1.415	1414.7	incongruent	Block2	incongruent/STIM_024.jpg	100
1675.62	0.911	910.6	incongruent	Block2	incongruent/STIM_024.jpg	99
1679.085	0.808	807.8	incongruent	Block2	incongruent/STIM_024.jpg	100
1682.123	1.015	1014.6	incongruent	Block2	incongruent/STIM_024.jpg	99
1686.713	1.101	1101.4	incongruent	Block2	incongruent/STIM_024.jpg	100
1690.967	0.931	931.2	incongruent	Block2	incongruent/STIM_025.jpg	100
1694.892	1.35	1349.8	incongruent	Block2	incongruent/STIM_025.jpg	100
1699.8	0.974	973.7	incongruent	Block2	incongruent/STIM_025.jpg	99
1703.674	1.138	1137.5	incongruent	Block2	incongruent/STIM_025.jpg	99
1708.153	0.675	674.6	incongruent	Block2	incongruent/STIM_025.jpg	99
1711.982	1.33	1330.0	incongruent	Block2	incongruent/STIM_026.jpg	100
1716.933	0.76	760.5	incongruent	Block2	incongruent/STIM_026.jpg	99
1720.823	1.238	1238.2	incongruent	Block2	incongruent/STIM_026.jpg	99
1724.212	0.747	747.4	incongruent	Block2	incongruent/STIM_026.jpg	99
1727.446	0.753	753.4	incongruent	Block2	incongruent/STIM_026.jpg	100
1730.51	0.898	898.4	incongruent	Block2	incongruent/STIM_027.jpg	99
1734.998	0.758	757.9	incongruent	Block2	incongruent/STIM_027.jpg	100
1738.247	0.862	861.9	incongruent	Block2	incongruent/STIM_027.jpg	100
1741.638	0.9	900.4	incongruent	Block2	incongruent/STIM_027.jpg	100
1746.083	0.66	660.5	incongruent	Block2	incongruent/STIM_027.jpg	100
1749.987	1.09	1090.1	incongruent	Block2	incongruent/STIM_028.jpg	100
1754.797	1.146	1145.8	incongruent	Block2	incongruent/STIM_028.jpg	99
1758.787	1.112	1112.2	incongruent	Block2	incongruent/STIM_028.jpg	100
1762.908	0.615	614.7	incongruent	Block2	incongruent/STIM_028.jpg	99
1766.661	0.991	990.9	incongruent	Block2	incongruent/STIM_028.jpg	100
1771.448	1.077	1077.2	incongruent	Block2	incongruent/STIM_029.jpg	99
1776.216	1.17	1169.6	incongruent	Block2	incongruent/STIM_029.jpg	99
1781.248	1.193	1193.3	incongruent	Block2	incongruent/STIM_029.jpg	100
1785.348	0.625	624.8	incongruent	Block2	incongruent/STIM_029.jpg	100
1788.752	0.899	898.7	incongruent	Block2	incongruent/STIM_029.jpg	99
1793.08	0.737	736.9	congruent	Block2	congruent/STIM_000.jpg	99
1797.755	0.967	967.1	congruent	Block2	congruent/STIM_000.jpg	100
1801.774	0.747	747.1	congruent	Block2	congruent/STIM_000.jpg	100
1806.38	0.648	648.1	congruent	Block2	congruent/STIM_000.jpg	100
1809.598	1.022	1022.1	congruent	Block2	congruent/STIM_000.jpg	99
1814.306	0.884	884.1	congruent	Block2	congruent/STIM_001.jpg	100
1818.109	0.835	834.6	congruent	Block2	congruent/STIM_001.jpg	99
1822.041	1.021	1021.4	congruent	Block2	congruent/STIM_001.jpg	99
1825.299	1.024	1024.0	congruent	Block2	congruent/STIM_001.jpg	99
1829.652	0.612	612.5	congruent	Block2	congruent/STIM_001.jpg	99
1833.281	0.841	841.1	congruent	Block2	congruent/STIM_002.jpg	99
1837.535	1.018	1017.8	congruent	Block2	congruent/STIM_002.jpg	99
1841.862	0.828	827.6	congruent	Block2	congruent/STIM_002.jpg	100
1845.136	0.582	582.3	congruent	Block2	congruent/STIM_002.jpg	99
1847.935	0.92	919.7	congruent	Block2	congruent/STIM_002.jpg	100
1852.718	1.0	999.7	congruent	Block2	congruent/STIM_003.jpg	99
1857.282	0.782	781.9	congruent	Block2	congruent/STIM_003.jpg	100
1860.136	0.739	738.9	congruent	Block2	congruent/STIM_003.jpg	100
1864.319	0.908	908.2	congruent	Block2	congruent/STIM_003.jpg	100
1867.627	0.962	962.4	congruent	Block2	congruent/STIM_003.jpg	99
1872.122	0.953	953.1	congruent	Block2	congruent/STIM_004.jpg	100
1876.318	0.711	711.0	congruent	Block2	congruent/STIM_004.jpg	99
1880.995	0.957	957.4	congruent	Block2	congruent/STIM_004.jpg	100
1884.388	0.767	766.7	congruent	Block2	congruent/STIM_004.jpg	100
1887.171	0.652	652.3	congruent	Block2	congruent/STIM_004.jpg	100
1891.653	0.781	780.8	congruent	Block2	congruent/STIM_005.jpg	99
1894.677	0.653	653.2	congruent	Block2	congruent/STIM_005.jpg	100
1898.346	0.693	692.6	congruent	Block2	congruent/STIM_005.jpg	100
1902.136	0.597	596.9	congruent	Block2	congruent/STIM_005.jpg	99
1905.946	0.668	667.9	congruent	Block2	congruent/STIM_005.jpg	99
1910.191	0.782	781.5	congruent	Block2	congruent/STIM_006.jpg	99
1912.999	0.884	883.5	congruent	Block2	congruent/STIM_006.jpg	100
1916.046	1.042	1042.4	congruent	Block2	congruent/STIM_006.jpg	99
1919.347	0.889	888.8	congruent	Block2	congruent/STIM_006.jpg	99
1923.485	0.798	797.5	congruent	Block2	congruent/STIM_006.jpg	99
1926.845	0.642	642.1	congruent	Block2	congruent/STIM_007.jpg	99
1930.004	0.971	971.0	congruent	Block2	congruent/STIM_007.jpg	99
1934.427	0.906	906.1	congruent	Block2	congruent/STIM_007.jpg	100
1937.347	1.033	1033.0	congruent	Block2	congruent/STIM_007.jpg	99
1942.102	0.62	620.4	congruent	Block2	congruent/STIM_007.jpg	100
1946.499	0.907	906.7	congruent	Block2	congruent/STIM_008.jpg	100
1951.104	0.623	622.7	congruent	Block2	congruent/STIM_008.jpg	99
1954.786	0.581	580.6	congruent	Block2	congruent/STIM_008.jpg	100
1958.321	0.794	794.3	congruent	Block2	congruent/STIM_008.jpg	100
1962.601	0.892	892.5	congruent	Block2	congruent/STIM_008.jpg	99
1967.239	0.688	687.8	congruent	Block2	congruent/STIM_009.jpg	99
1970.306	0.859	859.4	congruent	Block2	congruent/STIM_009.jpg	100
1974.642	0.645	645.3	congruent	Block2	congruent/STIM_009.jpg	100
1977.487	0.833	832.8	congruent	Block2	congruent/STIM_009.jpg	99
1982.193	1.016	1016.4	congruent	Block2	congruent/STIM_009.jpg	99
1986.499	0.679	678.8	congruent	Block2	congruent/STIM_010.jpg	100
1989.537	0.737	736.7	congruent	Block2	congruent/STIM_010.jpg	99
1993.093	0.933	933.1	congruent	Block2	congruent/STIM_010.jpg	100
1996.963	0.931	931.0	congruent	Block2	congruent/STIM_010.jpg	100
2001.786	0.918	918.0	congruent	Block2	congruent/STIM_010.jpg	99
2005.679	0.93	930.1	congruent	Block2	congruent/STIM_011.jpg	99
2010.122	0.602	602.3	congruent	Block2	congruent/STIM_011.jpg	99
2012.795	1.003	1003.4	congruent	Block2	congruent/STIM_011.jpg	100
2016.641	0.694	693.5	congruent	Block2	congruent/STIM_011.jpg	100
2019.457	0.857	857.3	congruent	Block2	congruent/STIM_011.jpg	99
2023.203	0.98	980.0	congruent	Block2	congruent/STIM_012.jpg	100
2028.01	0.951	951.3	congruent	Block2	congruent/STIM_012.jpg	99
2031.293	0.698	697.8	congruent	Block2	congruent/STIM_012.jpg	100
2035.213	0.629	629.0	congruent	Block2	congruent/STIM_012.jpg	99
2039.83	0.956	956.1	congruent	Block2	congruent/STIM_012.jpg	99
2044.675	0.856	856.2	congruent	Block2	congruent/STIM_013.jpg	99
2048.008	0.653	653.0	congruent	Block2	congruent/STIM_013.jpg	100
2052.027	0.606	606.0	congruent	Block2	congruent/STIM_013.jpg	100
2055.615	0.887	887.4	congruent	Block2	congruent/STIM_013.jpg	100
2059.441	0.792	792.1	congruent	Block2	congruent/STIM_013.jpg	99
2063.47	0.931	931.0	congruent	Block2	congruent/STIM_014.jpg	99
2068.134	0.838	837.5	congruent	Block2	congruent/STIM_014.jpg	99
2072.926	0.872	872.5	congruent	Block2	congruent/STIM_014.jpg	100
2076.924	1.019	1018.8	congruent	Block2	congruent/STIM_014.jpg	100
2081.387	0.817	816.8	congruent	Block2	congruent/STIM_014.jpg	99
2085.005	0.852	851.6	congruent	Block2	congruent/STIM_015.jpg	100
2088.867	1.038	1038.4	congruent	Block2	congruent/STIM_015.jpg	100
2092.773	0.657	657.0	congruent	Block2	congruent/STIM_015.jpg	99
2097.138	0.643	642.8	congruent	Block2	congruent/STIM_015.jpg	99
2101.694	0.653	652.7	congruent	Block2	congruent/STIM_015.jpg	100
2105.829	0.849	849.0	congruent	Block2	congruent/STIM_016.jpg	100
2109.286	1.038	1038.4	congruent	Block2	congruent/STIM_016.jpg	99
2112.868	0.897	897.0	congruent	Block2	congruent/STIM_016.jpg	100
2115.784	0.979	979.3	congruent	Block2	congruent/STIM_016.jpg	99
2120.467	0.699	699.1	congruent	Block2	congruent/STIM_016.jpg	99
2124.048	1.028	1027.5	congruent	Block2	congruent/STIM_017.jpg	99
2127.373	0.68	680.0	congruent	Block2	congruent/STIM_017.jpg	100
2130.425	0.639	638.7	congruent	Block2	congruent/STIM_017.jpg	99
2133.162	0.923	922.9	congruent	Block2	congruent/STIM_017.jpg	100
2136.111	0.692	692.3	congruent	Block2	congruent/STIM_017.jpg	100
2139.781	0.853	852.8	congruent	Block2	congruent/STIM_018.jpg	99
2144.458	0.87	869.8	congruent	Block2	congruent/STIM_018.jpg	100
2148.201	0.95	950.3	congruent	Block2	congruent/STIM_018.jpg	99
2152.324	0.937	936.7	congruent	Block2	congruent/STIM_018.jpg	100
2156.561	0.824	823.8	congruent	Block2	congruent/STIM_018.jpg	99
2159.779	0.64	639.6	congruent	Block2	congruent/STIM_019.jpg	99
2162.959	0.825	824.8	congruent	Block2	congruent/STIM_019.jpg	99
2167.375	0.773	773.2	congruent	Block2	congruent/STIM_019.jpg	99
2170.683	0.704	704.5	congruent	Block2	congruent/STIM_019.jpg	100
2173.456	0.658	657.6	congruent	Block2	congruent/STIM_019.jpg	99
2177.14	1.004	1003.7	congruent	Block2	congruent/STIM_020.jpg	99
2180.157	0.825	824.6	congruent	Block2	congruent/STIM_020.jpg	100
2184.089	1.036	1035.7	congruent	Block2	congruent/STIM_020.jpg	100
2187.454	0.726	725.7	congruent	Block2	congruent/STIM_020.jpg	99
2192.129	0.798	798.1	congruent	Block2	congruent/STIM_020.jpg	100
2196.58	1.003	1003.0	congruent	Block2	congruent/STIM_021.jpg	99
2200.484	0.641	641.2	congruent	Block2	congruent/STIM_021.jpg	100
2204.615	0.924	924.0	congruent	Block2	congruent/STIM_021.jpg	100
2209.143	0.926	925.7	congruent	Block2	congruent/STIM_021.jpg	100
2213.961	0.678	678.5	congruent	Block2	congruent/STIM_021.jpg	100
2218.267	0.644	644.1	congruent	Block2	congruent/STIM_022.jpg	99
2221.87	0.796	795.8	congruent	Block2	congruent/STIM_022.jpg	100
2226.518	0.637	637.1	congruent	Block2	congruent/STIM_022.jpg	100
2230.828	0.794	793.8	congruent	Block2	congruent/STIM_022.jpg	100
2235.585	0.881	881.2	congruent	Block2	congruent/STIM_022.jpg	100
2239.651	1.039	1038.8	congruent	Block2	congruent/STIM_023.jpg	100
2243.731	0.778	777.6	congruent	Block2	congruent/STIM_023.jpg	99
2247.014	0.95	950.0	congruent	Block2	congruent/STIM_023.jpg	99
2249.986	0.633	633.1	congruent	Block2	congruent/STIM_023.jpg	99
2253.768	0.833	833.3	congruent	Block2	congruent/STIM_023.jpg	100
2257.056	0.933	933.1	congruent	Block2	congruent/STIM_024.jpg	100
2261.727	0.677	676.7	congruent	Block2	congruent/STIM_024.jpg	100
2266.13	0.693	693.1	congruent	Block2	congruent/STIM_024.jpg	100
2269.149	0.73	729.8	congruent	Block2	congruent/STIM_024.jpg	100
2272.451	0.883	882.7	congruent	Block2	congruent/STIM_024.jpg	99
2275.736	1.005	1004.9	congruent	Block2	congruent/STIM_025.jpg	99
2280.352	0.762	762.3	congruent	Block2	congruent/STIM_025.jpg	100
2285.037	0.768	768.5	congruent	Block2	congruent/STIM_025.jpg	100
2289.186	0.909	909.3	congruent	Block2	congruent/STIM_025.jpg	100
2292.673	0.922	921.6	congruent	Block2	congruent/STIM_025.jpg	99
2296.125	0.614	613.6	congruent	Block2	congruent/STIM_026.jpg	100
2299.83	0.846	845.7	congruent	Block2	congruent/STIM_026.jpg	99
2304.355	0.873	873.3	congruent	Block2	congruent/STIM_026.jpg	100
2307.45	0.634	633.6	congruent	Block2	congruent/STIM_026.jpg	100
2311.742	0.659	659.3	congruent	Block2	congruent/STIM_026.jpg	100
2315.235	1.001	1000.9	congruent	Block2	congruent/STIM_027.jpg	100
2320.215	0.92	919.6	congruent	Block2	congruent/STIM_027.jpg	99
2324.753	0.581	580.9	congruent	Block2	congruent/STIM_027.jpg	99
2328.822	0.933	932.7	congruent	Block2	congruent/STIM_027.jpg	99
2332.064	0.847	846.8	congruent	Block2	congruent/STIM_027.jpg	99
2335.325	0.903	903.2	congruent	Block2	congruent/STIM_028.jpg	100
2338.701	0.788	788.2	congruent	Block2	congruent/STIM_028.jpg	99
2342.857	0.842	841.8	congruent	Block2	congruent/STIM_028.jpg	100
2347.591	0.886	885.7	congruent	Block2	congruent/STIM_028.jpg	99
2351.707	0.689	689.0	congruent	Block2	congruent/STIM_028.jpg	99
2356.237	0.784	784.3	congruent	Block2	congruent/STIM_029.jpg	99
2360.004	0.731	731.3	congruent	Block2	congruent/STIM_029.jpg	99
2362.737	0.856	855.5	congruent	Block2	congruent/STIM_029.jpg	100
2366.742	0.662	661.8	congruent	Block2	congruent/STIM_029.jpg	100
2370.186	0.745	744.8	congruent	Block2	congruent/STIM_029.jpg	100
2373.767	0.78	779.5	incongruent	Block3	incongruent/STIM_000.jpg	99
2378.464	1.133	1133.1	incongruent	Block3	incongruent/STIM_000.jpg	99
2382.892	0.74	740.5	incongruent	Block3	incongruent/STIM_000.jpg	99
2385.703	1.059	1059.3	incongruent	Block3	incongruent/STIM_000.jpg	99
2389.139	0.757	756.7	incongruent	Block3	incongruent/STIM_000.jpg	99
2393.31	0.665	665.4	incongruent	Block3	incongruent/STIM_001.jpg	99
2397.458	1.208	1207.8	incongruent	Block3	incongruent/STIM_001.jpg	99
2401.994	0.628	627.7	incongruent	Block3	incongruent/STIM_001.jpg	99
2405.016	0.616	615.8	incongruent	Block3	incongruent/STIM_001.jpg	99
2408.476	1.133	1133.1	incongruent	Block3	incongruent/STIM_001.jpg	99
2413.186	1.162	1161.8	incongruent	Block3	incongruent/STIM_002.jpg	100
2416.809	1.187	1186.7	incongruent	Block3	incongruent/STIM_002.jpg	99
2420.322	0.964	964.3	incongruent	Block3	incongruent/STIM_002.jpg	99
2424.138	0.811	811.1	incongruent	Block3	incongruent/STIM_002.jpg	99
2428.363	0.772	771.6	incongruent	Block3	incongruent/STIM_002.jpg	99
2432.336	0.826	826.4	incongruent	Block3	incongruent/STIM_003.jpg	100
2435.223	1.062	1061.7	incongruent	Block3	incongruent/STIM_003.jpg	100
2440.04	0.976	976.5	incongruent	Block3	incongruent/STIM_003.jpg	99
2444.282	0.896	896.2	incongruent	Block3	incongruent/STIM_003.jpg	99
2447.379	0.662	662.2	incongruent	Block3	incongruent/STIM_003.jpg	100
2450.41	0.87	870.5	incongruent	Block3	incongruent/STIM_004.jpg	100
2454.345	0.863	863.3	incongruent	Block3	incongruent/STIM_004.jpg	99
2457.828	1.011	1011.1	incongruent	Block3	incongruent/STIM_004.jpg	100
2462.018	0.94	940.4	incongruent	Block3	incongruent/STIM_004.jpg	99
2465.31	0.814	814.2	incongruent	Block3	incongruent/STIM_004.jpg	99
2469.604	1.126	1126.5	incongruent	Block3	incongruent/STIM_005.jpg	100
2472.78	1.022	1021.9	incongruent	Block3	incongruent/STIM_005.jpg	100
2477.584	0.845	845.3	incongruent	Block3	incongruent/STIM_005.jpg	99
2481.566	0.608	608.4	incongruent	Block3	incongruent/STIM_005.jpg	100
2484.853	0.981	981.0	incongruent	Block3	incongruent/STIM_005.jpg	100
2488.264	1.091	1091.4	incongruent	Block3	incongruent/STIM_006.jpg	99
2491.883	0.864	864.5	incongruent	Block3	incongruent/STIM_006.jpg	99
2495.15	0.573	572.8	incongruent	Block3	incongruent/STIM_006.jpg	99
2498.63	0.673	673.3	incongruent	Block3	incongruent/STIM_006.jpg	99
2501.59	0.992	992.2	incongruent	Block3	incongruent/STIM_006.jpg	100
2505.9	0.685	685.0	incongruent	Block3	incongruent/STIM_007.jpg	99
2509.56	1.016	1015.8	incongruent	Block3	incongruent/STIM_007.jpg	99
2514.141	0.845	844.9	incongruent	Block3	incongruent/STIM_007.jpg	100
2518.211	0.592	591.9	incongruent	Block3	incongruent/STIM_007.jpg	99
2522.586	0.733	733.0	incongruent	Block3	incongruent/STIM_007.jpg	100
2526.561	0.89	890.5	incongruent	Block3	incongruent/STIM_008.jpg	99
2531.11	1.03	1029.6	incongruent	Block3	incongruent/STIM_008.jpg	100
2534.143	0.656	656.5	incongruent	Block3	incongruent/STIM_008.jpg	100
2537.125	0.671	670.8	incongruent	Block3	incongruent/STIM_008.jpg	100
2541.208	0.677	676.6	incongruent	Block3	incongruent/STIM_008.jpg	99
2544.361	0.583	583.1	incongruent	Block3	incongruent/STIM_009.jpg	100
2548.631	1.032	1031.5	incongruent	Block3	incongruent/STIM_009.jpg	100
2552.681	0.904	904.3	incongruent	Block3	incongruent/STIM_009.jpg	99
2556.644	1.189	1188.9	incongruent	Block3	incongruent/STIM_009.jpg	99
2560.828	0.915	915.4	incongruent	Block3	incongruent/STIM_009.jpg	99
2564.694	1.191	1191.0	incongruent	Block3	incongruent/STIM_010.jpg	99
2569.543	0.735	734.6	incongruent	Block3	incongruent/STIM_010.jpg	100
2573.849	0.701	700.9	incongruent	Block3	incongruent/STIM_010.jpg	100
2577.334	0.956	956.0	incongruent	Block3	incongruent/STIM_010.jpg	99
2581.772	1.194	1194.5	incongruent	Block3	incongruent/STIM_010.jpg	100
2586.084	1.059	1058.8	incongruent	Block3	incongruent/STIM_011.jpg	99
2589.527	1.046	1046.3	incongruent	Block3	incongruent/STIM_011.jpg	99
2594.182	0.679	678.7	incongruent	Block3	incongruent/STIM_011.jpg	99
2598.227	0.638	637.8	incongruent	Block3	incongruent/STIM_011.jpg	100
2601.532	0.616	616.4	incongruent	Block3	incongruent/STIM_011.jpg	100
2606.013	0.871	870.8	incongruent	Block3	incongruent/STIM_012.jpg	99
2609.424	0.848	848.3	incongruent	Block3	incongruent/STIM_012.jpg	99
2612.69	0.854	854.0	incongruent	Block3	incongruent/STIM_012.jpg	100
2616.966	0.865	865.0	incongruent	Block3	incongruent/STIM_012.jpg	100
2621.296	0.586	586.0	incongruent	Block3	incongruent/STIM_012.jpg	100
2625.149	0.788	788.1	incongruent	Block3	incongruent/STIM_013.jpg	100
2628.058	0.652	651.8	incongruent	Block3	incongruent/STIM_013.jpg	100
2631.885	0.919	918.9	incongruent	Block3	incongruent/STIM_013.jpg	100
2635.989	0.681	681.4	incongruent	Block3	incongruent/STIM_013.jpg	100
2640.516	0.621	621.3	incongruent	Block3	incongruent/STIM_013.jpg	99
2644.82	0.729	729.4	incongruent	Block3	incongruent/STIM_014.jpg	100
2648.077	0.786	786.2	incongruent	Block3	incongruent/STIM_014.jpg	100
2652.013	0.803	803.4	incongruent	Block3	incongruent/STIM_014.jpg	100
2656.313	0.79	789.7	incongruent	Block3	incongruent/STIM_014.jpg	99
2660.455	1.013	1012.6	incongruent	Block3	incongruent/STIM_014.jpg	99
2663.856	1.164	1163.6	incongruent	Block3	incongruent/STIM_015.jpg	99
2667.731	0.999	999.0	incongruent	Block3	incongruent/STIM_015.jpg	100
2672.055	0.668	668.3	incongruent	Block3	incongruent/STIM_015.jpg	99
2675.966	0.602	602.2	incongruent	Block3	incongruent/STIM_015.jpg	99
2679.999	0.711	711.4	incongruent	Block3	incongruent/STIM_015.jpg	99
2684.16	1.025	1024.6	incongruent	Block3	incongruent/STIM_016.jpg	99
2687.749	1.098	1097.7	incongruent	Block3	incongruent/STIM_016.jpg	99
2691.291	0.575	574.9	incongruent	Block3	incongruent/STIM_016.jpg	99
2694.816	0.643	643.2	incongruent	Block3	incongruent/STIM_016.jpg	100
2698.429	1.174	1173.5	incongruent	Block3	incongruent/STIM_016.jpg	99
2702.798	0.662	661.5	incongruent	Block3	incongruent/STIM_017.jpg	99
2705.77	1.041	1040.9	incongruent	Block3	incongruent/STIM_017.jpg	100
2710.602	0.963	963.1	incongruent	Block3	incongruent/STIM_017.jpg	99
2715.176	0.6	600.5	incongruent	Block3	incongruent/STIM_017.jpg	99
2717.976	1.119	1118.8	incongruent	Block3	incongruent/STIM_017.jpg	99
2721.93	0.792	791.5	incongruent	Block3	incongruent/STIM_018.jpg	100
2725.04	0.768	768.1	incongruent	Block3	incongruent/STIM_018.jpg	99
2728.136	0.866	865.5	incongruent	Block3	incongruent/STIM_018.jpg	100
2731.962	1.054	1054.1	incongruent	Block3	incongruent/STIM_018.jpg	100
2736.677	0.852	851.8	incongruent	Block3	incongruent/STIM_018.jpg	99
2740.883	0.8	800.1	incongruent	Block3	incongruent/STIM_019.jpg	100
2745.502	0.672	671.8	incongruent	Block3	incongruent/STIM_019.jpg	100
2748.824	0.931	930.9	incongruent	Block3	incongruent/STIM_019.jpg	100
2751.938	0.72	720.2	incongruent	Block3	incongruent/STIM_019.jpg	99
2755.056	1.134	1134.1	incongruent	Block3	incongruent/STIM_019.jpg	100
2758.671	1.168	1167.8	incongruent	Block3	incongruent/STIM_020.jpg	99
2761.993	0.985	984.6	incongruent	Block3	incongruent/STIM_020.jpg	100
2765.085	0.83	830.5	incongruent	Block3	incongruent/STIM_020.jpg	99
2768.814	0.855	854.6	incongruent	Block3	incongruent/STIM_020.jpg	100
2772.09	0.732	732.0	incongruent	Block3	incongruent/STIM_020.jpg	100
2775.161	0.689	688.9	incongruent	Block3	incongruent/STIM_021.jpg	100
2777.995	0.638	637.6	incongruent	Block3	incongruent/STIM_021.jpg	100
2780.83	0.797	796.7	incongruent	Block3	incongruent/STIM_021.jpg	100
2784.384	0.805	804.9	incongruent	Block3	incongruent/STIM_021.jpg	100
2787.233	0.876	875.9	incongruent	Block3	incongruent/STIM_021.jpg	100
2790.277	1.069	1068.8	incongruent	Block3	incongruent/STIM_022.jpg	100
2793.641	1.01	1010.1	incongruent	Block3	incongruent/STIM_022.jpg	100
2797.014	0.97	970.3	incongruent	Block3	incongruent/STIM_022.jpg	99
2800.46	0.613	612.9	incongruent	Block3	incongruent/STIM_022.jpg	100
2804.42	0.884	884.5	incongruent	Block3	incongruent/STIM_022.jpg	99
2807.984	1.159	1159.4	incongruent	Block3	incongruent/STIM_023.jpg	99
2813.053	1.023	1023.0	incongruent	Block3	incongruent/STIM_023.jpg	99
2817.98	0.903	903.2	incongruent	Block3	incongruent/STIM_023.jpg	99
2822.408	0.876	875.8	incongruent	Block3	incongruent/STIM_023.jpg	100
2826.139	0.659	658.7	incongruent	Block3	incongruent/STIM_023.jpg	99
2830.288	1.099	1099.3	incongruent	Block3	incongruent/STIM_024.jpg	100
2834.635	1.075	1074.7	incongruent	Block3	incongruent/STIM_024.jpg	100
2839.691	0.889	888.9	incongruent	Block3	incongruent/STIM_024.jpg	99
2843.463	0.969	968.8	incongruent	Block3	incongruent/STIM_024.jpg	99
2846.713	0.6	600.5	incongruent	Block3	incongruent/STIM_024.jpg	100
2850.048	0.878	878.4	incongruent	Block3	incongruent/STIM_025.jpg	100
2853.952	0.679	679.3	incongruent	Block3	incongruent/STIM_025.jpg	99
2856.937	0.697	696.9	incongruent	Block3	incongruent/STIM_025.jpg	99
2860.084	1.112	1112.1	incongruent	Block3	incongruent/STIM_025.jpg	100
2864.002	0.663	663.1	incongruent	Block3	incongruent/STIM_025.jpg	99
2867.79	0.697	697.1	incongruent	Block3	incongruent/STIM_026.jpg	100
2870.578	0.707	707.1	incongruent	Block3	incongruent/STIM_026.jpg	99
2874.262	0.587	587.4	incongruent	Block3	incongruent/STIM_026.jpg	99
2877.153	0.615	615.0	incongruent	Block3	incongruent/STIM_026.jpg	100
2880.505	0.891	890.8	incongruent	Block3	incongruent/STIM_026.jpg	100
2884.342	0.75	750.2	incongruent	Block3	incongruent/STIM_027.jpg	99
2888.985	0.606	606.0	incongruent	Block3	incongruent/STIM_027.jpg	100
2891.594	0.788	788.2	incongruent	Block3	incongruent/STIM_027.jpg	99
2896.151	0.915	915.4	incongruent	Block3	incongruent/STIM_027.jpg	99
2899.702	0.604	603.6	incongruent	Block3	incongruent/STIM_027.jpg	99
2904.263	0.845	845.1	incongruent	Block3	incongruent/STIM_028.jpg	100
2908.164	0.612	611.8	incongruent	Block3	incongruent/STIM_028.jpg	100
2912.721	1.213	1212.9	incongruent	Block3	incongruent/STIM_028.jpg	100
2916.262	0.735	734.8	incongruent	Block3	incongruent/STIM_028.jpg	99
2919.92	0.631	630.8	incongruent	Block3	incongruent/STIM_028.jpg	99
2923.558	0.574	574.3	incongruent	Block3	incongruent/STIM_029.jpg	100
2927.043	1.175	1175.3	incongruent	Block3	incongruent/STIM_029.jpg	99
2931.789	0.979	978.6	incongruent	Block3	incongruent/STIM_029.jpg	99
2936.018	0.9	899.8	incongruent	Block3	incongruent/STIM_029.jpg	99
2940.739	1.147	1146.8	incongruent	Block3	incongruent/STIM_029.jpg	100
2945.372	0.613	613.2	congruent	Block3	congruent/STIM_000.jpg	100
2948.387	1.039	1039.2	congruent	Block3	congruent/STIM_000.jpg	99
2952.468	0.743	743.2	congruent	Block3	congruent/STIM_000.jpg	99
2956.856	1.0	999.6	congruent	Block3	congruent/STIM_000.jpg	99
2959.968	0.67	670.2	congruent	Block3	congruent/STIM_000.jpg	100
2962.792	0.934	933.9	congruent	Block3	congruent/STIM_001.jpg	99
2966.714	1.031	1031.1	congruent	Block3	congruent/STIM_001.jpg	100
2970.339	0.918	918.3	congruent	Block3	congruent/STIM_001.jpg	100
2974.253	0.901	900.6	congruent	Block3	congruent/STIM_001.jpg	100
2978.886	0.841	841.2	congruent	Block3	congruent/STIM_001.jpg	99
2982.381	0.941	941.2	congruent	Block3	congruent/STIM_002.jpg	99
2985.722	0.923	923.4	congruent	Block3	congruent/STIM_002.jpg	99
2988.783	0.834	834.4	congruent	Block3	congruent/STIM_002.jpg	99
2992.318	1.029	1028.9	congruent	Block3	congruent/STIM_002.jpg	100
2995.732	0.697	697.3	congruent	Block3	congruent/STIM_002.jpg	99
2999.315	0.839	839.4	congruent	Block3	congruent/STIM_003.jpg	100
3003.912	0.72	719.6	congruent	Block3	congruent/STIM_003.jpg	99
3008.15	0.889	889.1	congruent	Block3	congruent/STIM_003.jpg	100
3012.887	0.781	780.8	congruent	Block3	congruent/STIM_003.jpg	99
3017.623	1.035	1035.2	congruent	Block3	congruent/STIM_003.jpg	100
3021.28	0.972	971.9	congruent	Block3	congruent/STIM_004.jpg	99
3024.461	1.028	1028.0	congruent	Block3	congruent/STIM_004.jpg	100
3028.223	1.032	1031.7	congruent	Block3	congruent/STIM_004.jpg	99
3032.883	0.848	848.0	congruent	Block3	congruent/STIM_004.jpg	100
3036.245	0.907	907.1	congruent	Block3	congruent/STIM_004.jpg	99
3040.922	0.901	900.8	congruent	Block3	congruent/STIM_005.jpg	100
3045.793	0.674	674.1	congruent	Block3	congruent/STIM_005.jpg	99
3050.294	0.615	615.4	congruent	Block3	congruent/STIM_005.jpg	99
3053.87	0.66	659.6	congruent	Block3	congruent/STIM_005.jpg	100
3057.919	0.748	747.9	congruent	Block3	congruent/STIM_005.jpg	99
3061.574	1.018	1017.9	congruent	Block3	congruent/STIM_006.jpg	99
3066.019	0.655	655.0	congruent	Block3	congruent/STIM_006.jpg	99
3069.177	0.681	680.9	congruent	Block3	congruent/STIM_006.jpg	100
3071.91	0.617	617.2	congruent	Block3	congruent/STIM_006.jpg	100
3074.7	0.729	729.4	congruent	Block3	congruent/STIM_006.jpg	100
3078.372	0.669	668.6	congruent	Block3	congruent/STIM_007.jpg	99
3082.083	0.581	581.2	congruent	Block3	congruent/STIM_007.jpg	100
3086.17	0.694	694.4	congruent	Block3	congruent/STIM_007.jpg	100
3089.981	0.892	891.5	congruent	Block3	congruent/STIM_007.jpg	100
3093.09	0.824	823.8	congruent	Block3	congruent/STIM_007.jpg	100
3096.48	1.005	1004.6	congruent	Block3	congruent/STIM_008.jpg	99
3100.335	0.808	807.6	congruent	Block3	congruent/STIM_008.jpg	99
3104.071	0.615	614.6	congruent	Block3	congruent/STIM_008.jpg	100
3106.955	0.704	703.6	congruent	Block3	congruent/STIM_008.jpg	99
3111.597	1.026	1026.1	congruent	Block3	congruent/STIM_008.jpg	100
3115.897	0.807	806.6	congruent	Block3	congruent/STIM_009.jpg	99
3120.187	0.639	639.1	congruent	Block3	congruent/STIM_009.jpg	100
3123.134	0.72	720.2	congruent	Block3	congruent/STIM_009.jpg	100
3127.543	0.804	803.6	congruent	Block3	congruent/STIM_009.jpg	100
3131.275	0.92	919.9	congruent	Block3	congruent/STIM_009.jpg	100
3134.398	0.952	952.0	congruent	Block3	congruent/STIM_010.jpg	99
3137.451	0.901	901.4	congruent	Block3	congruent/STIM_010.jpg	100
3140.362	0.734	734.0	congruent	Block3	congruent/STIM_010.jpg	99
3143.631	0.976	975.5	congruent	Block3	congruent/STIM_010.jpg	100
3147.824	0.939	939.0	congruent	Block3	congruent/STIM_010.jpg	99
3152.244	0.982	982.1	congruent	Block3	congruent/STIM_011.jpg	99
3156.921	0.888	888.5	congruent	Block3	congruent/STIM_011.jpg	99
3161.622	0.91	910.2	congruent	Block3	congruent/STIM_011.jpg	99
3166.516	0.917	917.4	congruent	Block3	congruent/STIM_011.jpg	100
3170.93	1.0	999.6	congruent	Block3	congruent/STIM_011.jpg	99
3174.296	0.65	650.5	congruent	Block3	congruent/STIM_012.jpg	100
3177.249	0.628	628.5	congruent	Block3	congruent/STIM_012.jpg	99
3181.14	0.987	987.2	congruent	Block3	congruent/STIM_012.jpg	100
3185.689	0.836	835.5	congruent	Block3	congruent/STIM_012.jpg	100
3189.168	0.622	622.3	congruent	Block3	congruent/STIM_012.jpg	100
3193.343	0.823	823.4	congruent	Block3	congruent/STIM_013.jpg	100
3198.14	1.014	1014.2	congruent	Block3	congruent/STIM_013.jpg	100
3202.622	1.005	1004.7	congruent	Block3	congruent/STIM_013.jpg	100
3206.229	0.984	983.9	congruent	Block3	congruent/STIM_013.jpg	100
3210.738	0.964	964.3	congruent	Block3	congruent/STIM_013.jpg	99
3215.369	0.997	996.7	congruent	Block3	congruent/STIM_014.jpg	99
3219.363	0.753	753.2	congruent	Block3	congruent/STIM_014.jpg	100
3223.028	0.846	845.7	congruent	Block3	congruent/STIM_014.jpg	99
3227.104	0.615	615.2	congruent	Block3	congruent/STIM_014.jpg	100
3231.673	0.972	972.2	congruent	Block3	congruent/STIM_014.jpg	99
3235.433	0.968	968.1	congruent	Block3	congruent/STIM_015.jpg	100
3238.402	0.94	939.7	congruent	Block3	congruent/STIM_015.jpg	100
3243.059	0.87	869.5	congruent	Block3	congruent/STIM_015.jpg	100
3246.208	0.893	892.6	congruent	Block3	congruent/STIM_015.jpg	100
3250.313	0.747	747.4	congruent	Block3	congruent/STIM_015.jpg	99
3254.106	0.983	982.7	congruent	Block3	congruent/STIM_016.jpg	100
3257.416	0.609	609.0	congruent	Block3	congruent/STIM_016.jpg	99
3260.727	0.792	791.7	congruent	Block3	congruent/STIM_016.jpg	100
3264.668	0.631	630.6	congruent	Block3	congruent/STIM_016.jpg	100
3268.248	0.929	928.7	congruent	Block3	congruent/STIM_016.jpg	99
3271.33	0.875	875.3	congruent	Block3	congruent/STIM_017.jpg	99
3274.912	0.821	821.3	congruent	Block3	congruent/STIM_017.jpg	99
3278.312	0.805	805.4	congruent	Block3	congruent/STIM_017.jpg	100
3281.774	0.74	740.1	congruent	Block3	congruent/STIM_017.jpg	100
3284.875	0.683	683.2	congruent	Block3	congruent/STIM_017.jpg	99
3288.571	0.739	739.3	congruent	Block3	congruent/STIM_018.jpg	100
3293.178	0.584	584.0	congruent	Block3	congruent/STIM_018.jpg	99
3296.995	0.994	994.0	congruent	Block3	congruent/STIM_018.jpg	100
3300.05	0.598	598.3	congruent	Block3	congruent/STIM_018.jpg	99
3303.974	0.662	661.9	congruent	Block3	congruent/STIM_018.jpg	100
3308.045	0.599	598.7	congruent	Block3	congruent/STIM_019.jpg	100
3311.379	0.909	908.8	congruent	Block3	congruent/STIM_019.jpg	100
3315.192	0.588	588.5	congruent	Block3	congruent/STIM_019.jpg	100
3319.107	0.598	597.9	congruent	Block3	congruent/STIM_019.jpg	100
3322.738	0.916	916.2	congruent	Block3	congruent/STIM_019.jpg	100
3326.206	0.841	841.3	congruent	Block3	congruent/STIM_020.jpg	100
3329.166	0.815	815.4	congruent	Block3	congruent/STIM_020.jpg	100
3333.522	0.984	984.4	congruent	Block3	congruent/STIM_020.jpg	100
3337.106	0.868	868.1	congruent	Block3	congruent/STIM_020.jpg	99
3341.155	0.64	640.2	congruent	Block3	congruent/STIM_020.jpg	99
3344.1	0.799	798.8	congruent	Block3	congruent/STIM_021.jpg	100
3348.606	0.818	818.5	congruent	Block3	congruent/STIM_021.jpg	99
3352.01	0.604	604.1	congruent	Block3	congruent/STIM_021.jpg	99
3356.578	0.791	791.2	congruent	Block3	congruent/STIM_021.jpg	99
3360.191	1.021	1021.2	congruent	Block3	congruent/STIM_021.jpg	99
3364.82	0.734	734.2	congruent	Block3	congruent/STIM_022.jpg	99
3369.292	0.633	632.8	congruent	Block3	congruent/STIM_022.jpg	99
3373.415	0.7	700.4	congruent	Block3	congruent/STIM_022.jpg	99
3377.236	1.005	1005.3	congruent	Block3	congruent/STIM_022.jpg	99
3380.644	0.885	885.3	congruent	Block3	congruent/STIM_022.jpg	99
3384.891	0.661	660.6	congruent	Block3	congruent/STIM_023.jpg	99
3387.757	0.749	748.7	congruent	Block3	congruent/STIM_023.jpg	99
3390.901	0.95	950.2	congruent	Block3	congruent/STIM_023.jpg	99
3394.266	0.809	808.9	congruent	Block3	congruent/STIM_023.jpg	100
3398.072	0.797	797.0	congruent	Block3	congruent/STIM_023.jpg	100
3400.897	0.674	674.1	congruent	Block3	congruent/STIM_024.jpg	100
3405.078	0.802	802.5	congruent	Block3	congruent/STIM_024.jpg	99
3409.597	0.613	613.2	congruent	Block3	congruent/STIM_024.jpg	99
3414.172	0.949	949.2	congruent	Block3	congruent/STIM_024.jpg	99
3417.799	0.995	995.0	congruent	Block3	congruent/STIM_024.jpg	100
3421.284	0.835	834.8	congruent	Block3	congruent/STIM_025.jpg	100
3425.514	0.847	847.1	congruent	Block3	congruent/STIM_025.jpg	99
3428.584	0.606	606.0	congruent	Block3	congruent/STIM_025.jpg	99
3431.438	0.799	799.2	congruent	Block3	congruent/STIM_025.jpg	100
3435.992	0.783	783.2	congruent	Block3	congruent/STIM_025.jpg	99
3440.546	0.759	759.4	congruent	Block3	congruent/STIM_026.jpg	100
3443.323	1.009	1009.1	congruent	Block3	congruent/STIM_026.jpg	100
3448.059	1.036	1036.5	congruent	Block3	congruent/STIM_026.jpg	99
3451.743	0.871	871.2	congruent	Block3	congruent/STIM_026.jpg	100
3454.916	0.742	741.8	congruent	Block3	congruent/STIM_026.jpg	100
3457.919	0.939	939.3	congruent	Block3	congruent/STIM_027.jpg	100
3461.624	0.727	726.6	congruent	Block3	congruent/STIM_027.jpg	99
3464.615	0.654	653.6	congruent	Block3	congruent/STIM_027.jpg	99
3468.969	0.939	939.1	congruent	Block3	congruent/STIM_027.jpg	99
3473.868	0.779	778.9	congruent	Block3	congruent/STIM_027.jpg	99
3478.575	0.758	758.3	congruent	Block3	congruent/STIM_028.jpg	99
3481.353	1.0	999.6	congruent	Block3	congruent/STIM_028.jpg	99
3484.463	0.773	773.1	congruent	Block3	congruent/STIM_028.jpg	100
3488.526	0.906	905.6	congruent	Block3	congruent/STIM_028.jpg	100
3492.183	0.655	654.8	congruent	Block3	congruent/STIM_028.jpg	100
3495.888	1.009	1009.3	congruent	Block3	congruent/STIM_029.jpg	100
3500.411	0.996	996.0	congruent	Block3	congruent/STIM_029.jpg	99
3504.441	0.967	966.8	congruent	Block3	congruent/STIM_029.jpg	100
3508.505	0.72	720.1	congruent	Block3	congruent/STIM_029.jpg	99
3512.703	0.87	869.9	congruent	Block3	congruent/STIM_029.jpg	99
