onset	duration	accuracy	trial_type	learning_stage	stimulus
0.0	1.573	correct	incongruent	Block1	incongruent/STIM_000.jpg
3.99	1.02	correct	incongruent	Block1	incongruent/STIM_000.jpg
6.979	1.241	correct	incongruent	Block1	incongruent/STIM_000.jpg
10.314	1.113	correct	incongruent	Block1	incongruent/STIM_000.jpg
14.362	0.92	correct	incongruent	Block1	incongruent/STIM_000.jpg
18.494	0.966	correct	incongruent	Block1	incongruent/STIM_001.jpg
21.603	1.314	correct	incongruent	Block1	incongruent/STIM_001.jpg
24.789	1.109	correct	incongruent	Block1	incongruent/STIM_001.jpg
28.186	0.926	correct	incongruent	Block1	incongruent/STIM_001.jpg
32.437	1.29	correct	incongruent	Block1	incongruent/STIM_001.jpg
36.612	1.008	correct	incongruent	Block1	incongruent/STIM_002.jpg
40.703	0.803	correct	incongruent	Block1	incongruent/STIM_002.jpg
44.583	1.097	correct	incongruent	Block1	incongruent/STIM_002.jpg
48.215	0.776	correct	incongruent	Block1	incongruent/STIM_002.jpg
52.754	1.01	correct	incongruent	Block1	incongruent/STIM_002.jpg
57.487	0.833	correct	incongruent	Block1	incongruent/STIM_003.jpg
61.991	1.02	correct	incongruent	Block1	incongruent/STIM_003.jpg
66.434	1.281	incorrect	incongruent	Block1	incongruent/STIM_003.jpg
69.715	0.863	correct	incongruent	Block1	incongruent/STIM_003.jpg
74.38	0.921	correct	incongruent	Block1	incongruent/STIM_003.jpg
78.3	1.69	incorrect	incongruent	Block1	incongruent/STIM_004.jpg
83.208	1.318	incorrect	incongruent	Block1	incongruent/STIM_004.jpg
86.484	1.194	correct	incongruent	Block1	incongruent/STIM_004.jpg
90.361	1.238	correct	incongruent	Block1	incongruent/STIM_004.jpg
94.314	1.26	correct	incongruent	Block1	incongruent/STIM_004.jpg
98.396	1.342	correct	incongruent	Block1	incongruent/STIM_005.jpg
102.281	1.561	correct	incongruent	Block1	incongruent/STIM_005.jpg
106.469	0.739	correct	incongruent	Block1	incongruent/STIM_005.jpg
110.163	1.127	correct	incongruent	Block1	incongruent/STIM_005.jpg
114.419	1.153	correct	incongruent	Block1	incongruent/STIM_005.jpg
118.907	1.434	incorrect	incongruent	Block1	incongruent/STIM_006.jpg
123.06	0.77	incorrect	incongruent	Block1	incongruent/STIM_006.jpg
126.766	1.4	correct	incongruent	Block1	incongruent/STIM_006.jpg
130.323	1.197	correct	incongruent	Block1	incongruent/STIM_006.jpg
135.06	0.745	correct	incongruent	Block1	incongruent/STIM_006.jpg
138.711	1.704	correct	incongruent	Block1	incongruent/STIM_007.jpg
142.909	1.287	correct	incongruent	Block1	incongruent/STIM_007.jpg
147.809	1.184	correct	incongruent	Block1	incongruent/STIM_007.jpg
152.416	1.058	correct	incongruent	Block1	incongruent/STIM_007.jpg
156.814	0.683	incorrect	incongruent	Block1	incongruent/STIM_007.jpg
159.793	0.841	correct	incongruent	Block1	incongruent/STIM_008.jpg
163.334	1.294	correct	incongruent	Block1	incongruent/STIM_008.jpg
167.231	1.368	correct	incongruent	Block1	incongruent/STIM_008.jpg
171.832	1.076	correct	incongruent	Block1	incongruent/STIM_008.jpg
176.537	1.22	correct	incongruent	Block1	incongruent/STIM_008.jpg
179.899	0.975	incorrect	incongruent	Block1	incongruent/STIM_009.jpg
184.214	1.122	incorrect	incongruent	Block1	incongruent/STIM_009.jpg
188.119	1.511	correct	incongruent	Block1	incongruent/STIM_009.jpg
192.785	1.07	correct	incongruent	Block1	incongruent/STIM_009.jpg
197.158	1.058	correct	incongruent	Block1	incongruent/STIM_009.jpg
201.881	1.268	correct	incongruent	Block1	incongruent/STIM_010.jpg
205.999	0.846	correct	incongruent	Block1	incongruent/STIM_010.jpg
210.29	1.407	correct	incongruent	Block1	incongruent/STIM_010.jpg
213.614	1.12	correct	incongruent	Block1	incongruent/STIM_010.jpg
216.915	1.335	correct	incongruent	Block1	incongruent/STIM_010.jpg
221.402	0.817	correct	incongruent	Block1	incongruent/STIM_011.jpg
224.125	1.498	correct	incongruent	Block1	incongruent/STIM_011.jpg
227.643	0.793	correct	incongruent	Block1	incongruent/STIM_011.jpg
231.673	1.314	incorrect	incongruent	Block1	incongruent/STIM_011.jpg
236.08	0.818	correct	incongruent	Block1	incongruent/STIM_011.jpg
239.746	1.3	correct	incongruent	Block1	incongruent/STIM_012.jpg
244.005	1.225	correct	incongruent	Block1	incongruent/STIM_012.jpg
248.198	0.988	correct	incongruent	Block1	incongruent/STIM_012.jpg
251.561	1.01	correct	incongruent	Block1	incongruent/STIM_012.jpg
255.558	0.919	correct	incongruent	Block1	incongruent/STIM_012.jpg
260.181	1.32	correct	incongruent	Block1	incongruent/STIM_013.jpg
263.597	1.382	correct	incongruent	Block1	incongruent/STIM_013.jpg
267.279	1.315	correct	incongruent	Block1	incongruent/STIM_013.jpg
271.081	0.762	incorrect	incongruent	Block1	incongruent/STIM_013.jpg
275.103	1.218	correct	incongruent	Block1	incongruent/STIM_013.jpg
278.542	1.122	correct	incongruent	Block1	incongruent/STIM_014.jpg
282.009	1.25	correct	incongruent	Block1	incongruent/STIM_014.jpg
285.716	1.466	correct	incongruent	Block1	incongruent/STIM_014.jpg
290.619	0.807	correct	incongruent	Block1	incongruent/STIM_014.jpg
294.023	1.11	correct	incongruent	Block1	incongruent/STIM_014.jpg
297.103	0.971	correct	incongruent	Block1	incongruent/STIM_015.jpg
300.394	0.842	incorrect	incongruent	Block1	incongruent/STIM_015.jpg
305.005	1.265	correct	incongruent	Block1	incongruent/STIM_015.jpg
309.241	1.391	correct	incongruent	Block1	incongruent/STIM_015.jpg
312.821	0.865	correct	incongruent	Block1	incongruent/STIM_015.jpg
317.167	1.086	correct	incongruent	Block1	incongruent/STIM_016.jpg
320.918	0.783	correct	incongruent	Block1	incongruent/STIM_016.jpg
323.962	0.819	correct	incongruent	Block1	incongruent/STIM_016.jpg
327.242	1.075	correct	incongruent	Block1	incongruent/STIM_016.jpg
331.523	1.257	correct	incongruent	Block1	incongruent/STIM_016.jpg
334.869	0.955	correct	incongruent	Block1	incongruent/STIM_017.jpg
339.004	0.775	correct	incongruent	Block1	incongruent/STIM_017.jpg
343.024	1.526	correct	incongruent	Block1	incongruent/STIM_017.jpg
347.904	0.837	correct	incongruent	Block1	incongruent/STIM_017.jpg
351.561	0.975	correct	incongruent	Block1	incongruent/STIM_017.jpg
354.551	1.223	correct	incongruent	Block1	incongruent/STIM_018.jpg
359.257	1.292	incorrect	incongruent	Block1	incongruent/STIM_018.jpg
362.755	1.118	correct	incongruent	Block1	incongruent/STIM_018.jpg
367.03	1.4	correct	incongruent	Block1	incongruent/STIM_018.jpg
371.432	0.733	correct	incongruent	Block1	incongruent/STIM_018.jpg
374.696	1.492	correct	incongruent	Block1	incongruent/STIM_019.jpg
378.837	0.902	correct	incongruent	Block1	incongruent/STIM_019.jpg
382.498	1.429	correct	incongruent	Block1	incongruent/STIM_019.jpg
387.363	0.881	correct	incongruent	Block1	incongruent/STIM_019.jpg
390.711	0.828	correct	incongruent	Block1	incongruent/STIM_019.jpg
393.785	1.112	correct	incongruent	Block1	incongruent/STIM_020.jpg
398.438	1.444	correct	incongruent	Block1	incongruent/STIM_020.jpg
403.435	0.97	correct	incongruent	Block1	incongruent/STIM_020.jpg
407.603	0.847	correct	incongruent	Block1	incongruent/STIM_020.jpg
411.393	1.275	correct	incongruent	Block1	incongruent/STIM_020.jpg
414.944	1.14	correct	incongruent	Block1	incongruent/STIM_021.jpg
418.305	1.297	correct	incongruent	Block1	incongruent/STIM_021.jpg
421.742	1.454	correct	incongruent	Block1	incongruent/STIM_021.jpg
426.277	1.149	correct	incongruent	Block1	incongruent/STIM_021.jpg
430.939	1.312	correct	incongruent	Block1	incongruent/STIM_021.jpg
434.996	1.237	correct	incongruent	Block1	incongruent/STIM_022.jpg
439.043	1.55	correct	incongruent	Block1	incongruent/STIM_022.jpg
442.936	1.327	correct	incongruent	Block1	incongruent/STIM_022.jpg
446.929	1.119	incorrect	incongruent	Block1	incongruent/STIM_022.jpg
450.33	1.337	correct	incongruent	Block1	incongruent/STIM_022.jpg
453.922	1.298	correct	incongruent	Block1	incongruent/STIM_023.jpg
458.668	1.211	correct	incongruent	Block1	incongruent/STIM_023.jpg
462.472	1.121	correct	incongruent	Block1	incongruent/STIM_023.jpg
466.963	1.066	correct	incongruent	Block1	incongruent/STIM_023.jpg
470.44	1.228	correct	incongruent	Block1	incongruent/STIM_023.jpg
474.918	1.114	correct	incongruent	Block1	incongruent/STIM_024.jpg
478.854	1.361	correct	incongruent	Block1	incongruent/STIM_024.jpg
482.191	1.025	correct	incongruent	Block1	incongruent/STIM_024.jpg
485.61	0.728	correct	incongruent	Block1	incongruent/STIM_024.jpg
488.463	0.723	correct	incongruent	Block1	incongruent/STIM_024.jpg
492.956	1.618	correct	incongruent	Block1	incongruent/STIM_025.jpg
496.476	1.348	correct	incongruent	Block1	incongruent/STIM_025.jpg
500.467	1.405	correct	incongruent	Block1	incongruent/STIM_025.jpg
504.084	1.313	correct	incongruent	Block1	incongruent/STIM_025.jpg
507.656	0.945	correct	incongruent	Block1	incongruent/STIM_025.jpg
510.807	0.847	correct	incongruent	Block1	incongruent/STIM_026.jpg
513.942	1.627	correct	incongruent	Block1	incongruent/STIM_026.jpg
517.474	1.419	incorrect	incongruent	Block1	incongruent/STIM_026.jpg
521.368	1.43	correct	incongruent	Block1	incongruent/STIM_026.jpg
524.666	0.759	correct	incongruent	Block1	incongruent/STIM_026.jpg
527.698	1.388	correct	incongruent	Block1	incongruent/STIM_027.jpg
532.419	1.44	incorrect	incongruent	Block1	incongruent/STIM_027.jpg
536.549	1.191	correct	incongruent	Block1	incongruent/STIM_027.jpg
540.246	1.113	correct	incongruent	Block1	incongruent/STIM_027.jpg
544.221	0.801	correct	incongruent	Block1	incongruent/STIM_027.jpg
548.317	1.138	correct	incongruent	Block1	incongruent/STIM_028.jpg
552.782	0.905	correct	incongruent	Block1	incongruent/STIM_028.jpg
556.653	1.127	correct	incongruent	Block1	incongruent/STIM_028.jpg
560.485	0.689	correct	incongruent	Block1	incongruent/STIM_028.jpg
563.845	0.845	correct	incongruent	Block1	incongruent/STIM_028.jpg
567.388	1.415	correct	incongruent	Block1	incongruent/STIM_029.jpg
571.403	1.377	correct	incongruent	Block1	incongruent/STIM_029.jpg
576.002	1.274	correct	incongruent	Block1	incongruent/STIM_029.jpg
579.758	1.392	correct	incongruent	Block1	incongruent/STIM_029.jpg
584.468	0.675	correct	incongruent	Block1	incongruent/STIM_029.jpg
588.638	0.581	correct	congruent	Block1	congruent/STIM_000.jpg
592.729	0.631	correct	congruent	Block1	congruent/STIM_000.jpg
597.02	0.858	correct	congruent	Block1	congruent/STIM_000.jpg
600.197	0.703	correct	congruent	Block1	congruent/STIM_000.jpg
603.864	0.636	correct	congruent	Block1	congruent/STIM_000.jpg
607.301	1.006	correct	congruent	Block1	congruent/STIM_001.jpg
611.117	0.777	correct	congruent	Block1	congruent/STIM_001.jpg
615.532	1.022	correct	congruent	Block1	congruent/STIM_001.jpg
618.821	0.801	correct	congruent	Block1	congruent/STIM_001.jpg
623.376	0.62	correct	congruent	Block1	congruent/STIM_001.jpg
626.867	0.909	correct	congruent	Block1	congruent/STIM_002.jpg
630.512	0.684	correct	congruent	Block1	congruent/STIM_002.jpg
635.066	0.669	correct	congruent	Block1	congruent/STIM_002.jpg
638.628	0.791	correct	congruent	Block1	congruent/STIM_002.jpg
642.141	0.588	correct	congruent	Block1	congruent/STIM_002.jpg
646.024	0.945	correct	congruent	Block1	congruent/STIM_003.jpg
650.613	0.884	correct	congruent	Block1	congruent/STIM_003.jpg
655.361	0.654	correct	congruent	Block1	congruent/STIM_003.jpg
658.307	0.845	correct	congruent	Block1	congruent/STIM_003.jpg
661.312	0.816	incorrect	congruent	Block1	congruent/STIM_003.jpg
664.276	1.005	correct	congruent	Block1	congruent/STIM_004.jpg
669.02	0.706	correct	congruent	Block1	congruent/STIM_004.jpg
672.042	1.004	correct	congruent	Block1	congruent/STIM_004.jpg
676.492	0.91	correct	congruent	Block1	congruent/STIM_004.jpg
681.274	0.6	correct	congruent	Block1	congruent/STIM_004.jpg
684.167	0.598	correct	congruent	Block1	congruent/STIM_005.jpg
688.014	0.972	correct	congruent	Block1	congruent/STIM_005.jpg
691.452	0.728	correct	congruent	Block1	congruent/STIM_005.jpg
694.507	0.577	correct	congruent	Block1	congruent/STIM_005.jpg
698.125	0.858	correct	congruent	Block1	congruent/STIM_005.jpg
701.715	0.584	correct	congruent	Block1	congruent/STIM_006.jpg
704.924	0.908	correct	congruent	Block1	congruent/STIM_006.jpg
708.219	0.856	correct	congruent	Block1	congruent/STIM_006.jpg
712.762	0.657	correct	congruent	Block1	congruent/STIM_006.jpg
715.611	1.024	correct	congruent	Block1	congruent/STIM_006.jpg
719.583	0.67	correct	congruent	Block1	congruent/STIM_007.jpg
723.531	0.962	correct	congruent	Block1	congruent/STIM_007.jpg
726.563	0.916	correct	congruent	Block1	congruent/STIM_007.jpg
730.366	1.005	correct	congruent	Block1	congruent/STIM_007.jpg
733.508	0.752	correct	congruent	Block1	congruent/STIM_007.jpg
738.074	0.895	incorrect	congruent	Block1	congruent/STIM_008.jpg
742.375	0.814	correct	congruent	Block1	congruent/STIM_008.jpg
745.905	0.59	correct	congruent	Block1	congruent/STIM_008.jpg
749.884	0.891	correct	congruent	Block1	congruent/STIM_008.jpg
752.838	0.729	correct	congruent	Block1	congruent/STIM_008.jpg
757.077	0.58	correct	congruent	Block1	congruent/STIM_009.jpg
761.057	0.576	correct	congruent	Block1	congruent/STIM_009.jpg
764.762	0.899	correct	congruent	Block1	congruent/STIM_009.jpg
769.491	1.013	correct	congruent	Block1	congruent/STIM_009.jpg
773.039	0.927	correct	congruent	Block1	congruent/STIM_009.jpg
777.531	0.775	correct	congruent	Block1	congruent/STIM_010.jpg
780.677	0.854	correct	congruent	Block1	congruent/STIM_010.jpg
783.616	0.763	correct	congruent	Block1	congruent/STIM_010.jpg
787.556	0.7	correct	congruent	Block1	congruent/STIM_010.jpg
791.273	0.701	correct	congruent	Block1	congruent/STIM_010.jpg
794.632	0.868	correct	congruent	Block1	congruent/STIM_011.jpg
798.839	0.95	incorrect	congruent	Block1	congruent/STIM_011.jpg
802.533	0.703	correct	congruent	Block1	congruent/STIM_011.jpg
805.885	0.726	correct	congruent	Block1	congruent/STIM_011.jpg
810.175	0.735	correct	congruent	Block1	congruent/STIM_011.jpg
812.859	0.678	correct	congruent	Block1	congruent/STIM_012.jpg
816.838	0.845	correct	congruent	Block1	congruent/STIM_012.jpg
820.022	0.983	correct	congruent	Block1	congruent/STIM_012.jpg
823.074	0.6	correct	congruent	Block1	congruent/STIM_012.jpg
827.09	0.86	correct	congruent	Block1	congruent/STIM_012.jpg
830.147	1.02	correct	congruent	Block1	congruent/STIM_013.jpg
833.453	1.008	correct	congruent	Block1	congruent/STIM_013.jpg
838.001	0.897	correct	congruent	Block1	congruent/STIM_013.jpg
841.453	0.664	correct	congruent	Block1	congruent/STIM_013.jpg
844.326	0.755	correct	congruent	Block1	congruent/STIM_013.jpg
847.159	0.901	correct	congruent	Block1	congruent/STIM_014.jpg
850.649	0.675	correct	congruent	Block1	congruent/STIM_014.jpg
853.482	0.911	correct	congruent	Block1	congruent/STIM_014.jpg
856.377	0.687	correct	congruent	Block1	congruent/STIM_014.jpg
859.004	0.889	correct	congruent	Block1	congruent/STIM_014.jpg
863.19	0.682	incorrect	congruent	Block1	congruent/STIM_015.jpg
866.397	0.582	correct	congruent	Block1	congruent/STIM_015.jpg
869.047	0.991	correct	congruent	Block1	congruent/STIM_015.jpg
872.894	0.871	correct	congruent	Block1	congruent/STIM_015.jpg
876.983	0.833	correct	congruent	Block1	congruent/STIM_015.jpg
881.607	1.01	correct	congruent	Block1	congruent/STIM_016.jpg
884.791	0.873	correct	congruent	Block1	congruent/STIM_016.jpg
888.696	0.595	correct	congruent	Block1	congruent/STIM_016.jpg
891.831	0.881	correct	congruent	Block1	congruent/STIM_016.jpg
895.196	0.92	correct	congruent	Block1	congruent/STIM_016.jpg
898.648	0.623	correct	congruent	Block1	congruent/STIM_017.jpg
903.018	0.664	correct	congruent	Block1	congruent/STIM_017.jpg
906.269	0.839	correct	congruent	Block1	congruent/STIM_017.jpg
910.813	0.796	correct	congruent	Block1	congruent/STIM_017.jpg
914.544	0.742	correct	congruent	Block1	congruent/STIM_017.jpg
919.095	0.738	correct	congruent	Block1	congruent/STIM_018.jpg
923.724	0.788	correct	congruent	Block1	congruent/STIM_018.jpg
926.716	0.869	correct	congruent	Block1	congruent/STIM_018.jpg
931.036	0.757	correct	congruent	Block1	congruent/STIM_018.jpg
935.03	0.587	correct	congruent	Block1	congruent/STIM_018.jpg
937.918	0.586	correct	congruent	Block1	congruent/STIM_019.jpg
941.485	1.027	correct	congruent	Block1	congruent/STIM_019.jpg
944.746	0.899	correct	congruent	Block1	congruent/STIM_019.jpg
947.914	0.601	correct	congruent	Block1	congruent/STIM_019.jpg
950.671	0.574	correct	congruent	Block1	congruent/STIM_019.jpg
954.505	0.724	correct	congruent	Block1	congruent/STIM_020.jpg
959.088	0.886	correct	congruent	Block1	congruent/STIM_020.jpg
962.225	0.813	correct	congruent	Block1	congruent/STIM_020.jpg
965.067	0.998	correct	congruent	Block1	congruent/STIM_020.jpg
968.03	0.707	correct	congruent	Block1	congruent/STIM_020.jpg
971.824	0.784	correct	congruent	Block1	congruent/STIM_021.jpg
975.394	0.772	correct	congruent	Block1	congruent/STIM_021.jpg
978.347	0.577	correct	congruent	Block1	congruent/STIM_021.jpg
982.133	0.628	correct	congruent	Block1	congruent/STIM_021.jpg
984.719	0.763	correct	congruent	Block1	congruent/STIM_021.jpg
989.153	0.925	correct	congruent	Block1	congruent/STIM_022.jpg
993.313	0.712	correct	congruent	Block1	congruent/STIM_022.jpg
997.211	0.994	correct	congruent	Block1	congruent/STIM_022.jpg
1000.964	0.949	correct	congruent	Block1	congruent/STIM_022.jpg
1004.829	0.882	correct	congruent	Block1	congruent/STIM_022.jpg
1009.463	0.731	correct	congruent	Block1	congruent/STIM_023.jpg
1012.785	0.72	correct	congruent	Block1	congruent/STIM_023.jpg
1017.303	1.02	correct	congruent	Block1	congruent/STIM_023.jpg
1021.842	0.893	correct	congruent	Block1	congruent/STIM_023.jpg
1025.867	0.655	correct	congruent	Block1	congruent/STIM_023.jpg
1029.428	0.744	correct	congruent	Block1	congruent/STIM_024.jpg
1032.765	0.583	correct	congruent	Block1	congruent/STIM_024.jpg
1035.532	0.998	correct	congruent	Block1	congruent/STIM_024.jpg
1039.524	0.594	correct	congruent	Block1	congruent/STIM_024.jpg
1042.424	0.684	correct	congruent	Block1	congruent/STIM_024.jpg
1045.908	0.716	correct	congruent	Block1	congruent/STIM_025.jpg
1049.544	0.603	correct	congruent	Block1	congruent/STIM_025.jpg
1053.94	0.768	correct	congruent	Block1	congruent/STIM_025.jpg
1056.907	0.943	correct	congruent	Block1	congruent/STIM_025.jpg
1059.793	0.914	correct	congruent	Block1	congruent/STIM_025.jpg
1064.499	0.819	correct	congruent	Block1	congruent/STIM_026.jpg
1068.103	0.994	correct	congruent	Block1	congruent/STIM_026.jpg
1071.543	0.923	correct	congruent	Block1	congruent/STIM_026.jpg
1074.361	0.825	correct	congruent	Block1	congruent/STIM_026.jpg
1077.607	0.713	correct	congruent	Block1	congruent/STIM_026.jpg
1080.325	0.628	correct	congruent	Block1	congruent/STIM_027.jpg
1084.236	0.671	correct	congruent	Block1	congruent/STIM_027.jpg
1088.428	0.977	correct	congruent	Block1	congruent/STIM_027.jpg
1092.388	0.776	correct	congruent	Block1	congruent/STIM_027.jpg
1095.952	0.694	correct	congruent	Block1	congruent/STIM_027.jpg
1099.142	0.962	correct	congruent	Block1	congruent/STIM_028.jpg
1102.283	0.669	correct	congruent	Block1	congruent/STIM_028.jpg
1105.558	0.935	correct	congruent	Block1	congruent/STIM_028.jpg
1110.019	0.905	correct	congruent	Block1	congruent/STIM_028.jpg
1113.512	0.986	correct	congruent	Block1	congruent/STIM_028.jpg
1117.632	0.945	correct	congruent	Block1	congruent/STIM_029.jpg
1120.839	0.576	correct	congruent	Block1	congruent/STIM_029.jpg
1125.198	0.589	correct	congruent	Block1	congruent/STIM_029.jpg
1128.099	0.83	correct	congruent	Block1	congruent/STIM_029.jpg
1132.078	0.799	correct	congruent	Block1	congruent/STIM_029.jpg
1136.49	1.3	correct	incongruent	Block2	incongruent/STIM_000.jpg
1141.192	1.033	incorrect	incongruent	Block2	incongruent/STIM_000.jpg
1145.857	0.984	correct	incongruent	Block2	incongruent/STIM_000.jpg
1149.428	0.76	correct	incongruent	Block2	incongruent/STIM_000.jpg
1153.25	0.788	correct	incongruent	Block2	incongruent/STIM_000.jpg
1156.758	1.139	correct	incongruent	Block2	incongruent/STIM_001.jpg
1161.614	1.247	correct	incongruent	Block2	incongruent/STIM_001.jpg
1166.692	1.125	correct	incongruent	Block2	incongruent/STIM_001.jpg
1170.403	0.614	correct	incongruent	Block2	incongruent/STIM_001.jpg
1174.131	1.024	correct	incongruent	Block2	incongruent/STIM_001.jpg
1178.52	1.394	correct	incongruent	Block2	incongruent/STIM_002.jpg
1183.138	1.192	correct	incongruent	Block2	incongruent/STIM_002.jpg
1187.466	1.025	incorrect	incongruent	Block2	incongruent/STIM_002.jpg
1190.577	0.776	correct	incongruent	Block2	incongruent/STIM_002.jpg
1194.621	1.108	correct	incongruent	Block2	incongruent/STIM_002.jpg
1198.539	1.057	correct	incongruent	Block2	incongruent/STIM_003.jpg
1202.585	0.813	correct	incongruent	Block2	incongruent/STIM_003.jpg
1205.663	1.242	correct	incongruent	Block2	incongruent/STIM_003.jpg
1210.356	1.152	correct	incongruent	Block2	incongruent/STIM_003.jpg
1215.209	1.178	incorrect	incongruent	Block2	incongruent/STIM_003.jpg
1218.508	1.244	correct	incongruent	Block2	incongruent/STIM_004.jpg
1222.975	1.235	correct	incongruent	Block2	incongruent/STIM_004.jpg
1226.496	1.09	incorrect	incongruent	Block2	incongruent/STIM_004.jpg
1231.339	0.808	correct	incongruent	Block2	incongruent/STIM_004.jpg
1235.644	0.79	correct	incongruent	Block2	incongruent/STIM_004.jpg
1239.18	1.005	correct	incongruent	Block2	incongruent/STIM_005.jpg
1242.539	0.676	correct	incongruent	Block2	incongruent/STIM_005.jpg
1245.809	1.04	correct	incongruent	Block2	incongruent/STIM_005.jpg
1249.38	0.801	correct	incongruent	Block2	incongruent/STIM_005.jpg
1253.893	1.101	correct	incongruent	Block2	incongruent/STIM_005.jpg
1257.556	1.35	correct	incongruent	Block2	incongruent/STIM_006.jpg
1261.24	1.054	correct	incongruent	Block2	incongruent/STIM_006.jpg
1265.004	1.238	correct	incongruent	Block2	incongruent/STIM_006.jpg
1268.89	0.594	correct	incongruent	Block2	incongruent/STIM_006.jpg
1273.361	0.879	correct	incongruent	Block2	incongruent/STIM_006.jpg
1276.656	1.068	correct	incongruent	Block2	incongruent/STIM_007.jpg
1280.523	1.358	incorrect	incongruent	Block2	incongruent/STIM_007.jpg
1285.602	0.682	correct	incongruent	Block2	incongruent/STIM_007.jpg
1289.072	1.093	correct	incongruent	Block2	incongruent/STIM_007.jpg
1293.727	0.63	correct	incongruent	Block2	incongruent/STIM_007.jpg
1296.293	1.222	correct	incongruent	Block2	incongruent/STIM_008.jpg
1299.637	1.165	correct	incongruent	Block2	incongruent/STIM_008.jpg
1304.5	1.18	correct	incongruent	Block2	incongruent/STIM_008.jpg
1309.235	0.995	incorrect	incongruent	Block2	incongruent/STIM_008.jpg
1313.018	0.587	incorrect	incongruent	Block2	incongruent/STIM_008.jpg
1317.348	1.41	incorrect	incongruent	Block2	incongruent/STIM_009.jpg
1322.475	0.882	correct	incongruent	Block2	incongruent/STIM_009.jpg
1325.497	0.824	correct	incongruent	Block2	incongruent/STIM_009.jpg
1329.572	0.811	correct	incongruent	Block2	incongruent/STIM_009.jpg
1333.803	0.966	correct	incongruent	Block2	incongruent/STIM_009.jpg
1338.295	0.994	correct	incongruent	Block2	incongruent/STIM_010.jpg
1342.703	0.794	correct	incongruent	Block2	incongruent/STIM_010.jpg
1347.216	1.105	correct	incongruent	Block2	incongruent/STIM_010.jpg
1351.398	0.696	correct	incongruent	Block2	incongruent/STIM_010.jpg
1354.476	0.934	correct	incongruent	Block2	incongruent/STIM_010.jpg
1357.902	0.972	correct	incongruent	Block2	incongruent/STIM_011.jpg
1360.767	1.239	correct	incongruent	Block2	incongruent/STIM_011.jpg
1365.136	0.786	correct	incongruent	Block2	incongruent/STIM_011.jpg
1368.981	1.022	correct	incongruent	Block2	incongruent/STIM_011.jpg
1372.822	0.647	correct	incongruent	Block2	incongruent/STIM_011.jpg
1376.223	1.431	correct	incongruent	Block2	incongruent/STIM_012.jpg
1379.72	0.764	correct	incongruent	Block2	incongruent/STIM_012.jpg
1382.759	0.888	correct	incongruent	Block2	incongruent/STIM_012.jpg
1385.7	0.974	correct	incongruent	Block2	incongruent/STIM_012.jpg
1389.75	0.932	correct	incongruent	Block2	incongruent/STIM_012.jpg
1393.044	1.409	correct	incongruent	Block2	incongruent/STIM_013.jpg
1397.35	0.656	correct	incongruent	Block2	incongruent/STIM_013.jpg
1400.19	1.023	correct	incongruent	Block2	incongruent/STIM_013.jpg
1403.265	1.037	correct	incongruent	Block2	incongruent/STIM_013.jpg
1406.957	0.637	correct	incongruent	Block2	incongruent/STIM_013.jpg
1411.494	0.886	incorrect	incongruent	Block2	incongruent/STIM_014.jpg
1416.005	1.177	correct	incongruent	Block2	incongruent/STIM_014.jpg
1420.793	1.134	correct	incongruent	Block2	incongruent/STIM_014.jpg
1425.533	0.587	correct	incongruent	Block2	incongruent/STIM_014.jpg
1429.586	0.797	incorrect	incongruent	Block2	incongruent/STIM_014.jpg
1432.989	0.771	correct	incongruent	Block2	incongruent/STIM_015.jpg
1435.685	1.254	correct	incongruent	Block2	incongruent/STIM_015.jpg
1439.85	0.654	correct	incongruent	Block2	incongruent/STIM_015.jpg
1442.527	1.145	correct	incongruent	Block2	incongruent/STIM_015.jpg
1445.611	0.723	correct	incongruent	Block2	incongruent/STIM_015.jpg
1448.255	1.021	correct	incongruent	Block2	incongruent/STIM_016.jpg
1452.749	1.268	correct	incongruent	Block2	incongruent/STIM_016.jpg
1456.208	1.014	correct	incongruent	Block2	incongruent/STIM_016.jpg
1460.009	0.587	correct	incongruent	Block2	incongruent/STIM_016.jpg
1462.934	0.768	correct	incongruent	Block2	incongruent/STIM_016.jpg
1466.489	1.29	correct	incongruent	Block2	incongruent/STIM_017.jpg
1471.617	0.992	correct	incongruent	Block2	incongruent/STIM_017.jpg
1475.033	1.235	correct	incongruent	Block2	incongruent/STIM_017.jpg
1478.748	0.82	correct	incongruent	Block2	incongruent/STIM_017.jpg
1481.976	1.127	correct	incongruent	Block2	incongruent/STIM_017.jpg
1486.262	0.907	correct	incongruent	Block2	incongruent/STIM_018.jpg
1490.54	1.366	correct	incongruent	Block2	incongruent/STIM_018.jpg
1493.955	1.077	correct	incongruent	Block2	incongruent/STIM_018.jpg
1497.725	0.76	correct	incongruent	Block2	incongruent/STIM_018.jpg
1501.649	0.697	correct	incongruent	Block2	incongruent/STIM_018.jpg
1506.018	1.32	correct	incongruent	Block2	incongruent/STIM_019.jpg
1510.35	1.299	correct	incongruent	Block2	incongruent/STIM_019.jpg
1515.31	1.16	incorrect	incongruent	Block2	incongruent/STIM_019.jpg
1519.891	0.937	correct	incongruent	Block2	incongruent/STIM_019.jpg
1523.312	0.607	correct	incongruent	Block2	incongruent/STIM_019.jpg
1526.786	0.944	correct	incongruent	Block2	incongruent/STIM_020.jpg
1531.284	1.063	correct	incongruent	Block2	incongruent/STIM_020.jpg
1535.797	1.04	correct	incongruent	Block2	incongruent/STIM_020.jpg
1539.874	0.773	correct	incongruent	Block2	incongruent/STIM_020.jpg
1543.159	0.902	correct	incongruent	Block2	incongruent/STIM_020.jpg
1547.272	0.811	correct	incongruent	Block2	incongruent/STIM_021.jpg
1551.834	1.104	correct	incongruent	Block2	incongruent/STIM_021.jpg
1555.553	1.173	correct	incongruent	Block2	incongruent/STIM_021.jpg
1559.302	1.011	correct	incongruent	Block2	incongruent/STIM_021.jpg
1562.487	0.675	correct	incongruent	Block2	incongruent/STIM_021.jpg
1566.548	0.938	correct	incongruent	Block2	incongruent/STIM_022.jpg
1571.353	0.748	correct	incongruent	Block2	incongruent/STIM_022.jpg
1575.407	0.701	correct	incongruent	Block2	incongruent/STIM_022.jpg
1578.595	1.043	incorrect	incongruent	Block2	incongruent/STIM_022.jpg
1582.629	0.902	correct	incongruent	Block2	incongruent/STIM_022.jpg
1586.636	1.407	correct	incongruent	Block2	incongruent/STIM_023.jpg
1591.035	0.981	correct	incongruent	Block2	incongruent/STIM_023.jpg
1595.647	0.682	correct	incongruent	Block2	incongruent/STIM_023.jpg
1598.833	0.588	correct	incongruent	Block2	incongruent/STIM_023.jpg
1602.262	0.986	correct	incongruent	Block2	incongruent/STIM_023.jpg
1606.501	0.898	correct	incongruent	Block2	incongruent/STIM_024.jpg
1610.333	1.28	correct	incongruent	Block2	incongruent/STIM_024.jpg
1613.826	1.228	incorrect	incongruent	Block2	incongruent/STIM_024.jpg
1618.2	0.606	correct	incongruent	Block2	incongruent/STIM_024.jpg
1621.219	0.84	correct	incongruent	Block2	incongruent/STIM_024.jpg
1625.166	1.412	correct	incongruent	Block2	incongruent/STIM_025.jpg
1628.848	0.72	correct	incongruent	Block2	incongruent/STIM_025.jpg
1631.479	0.891	correct	incongruent	Block2	incongruent/STIM_025.jpg
1635.63	0.696	correct	incongruent	Block2	incongruent/STIM_025.jpg
1638.56	0.731	correct	incongruent	Block2	incongruent/STIM_025.jpg
1642.757	0.746	correct	incongruent	Block2	incongruent/STIM_026.jpg
1645.501	1.141	correct	incongruent	Block2	incongruent/STIM_026.jpg
1649.152	1.117	correct	incongruent	Block2	incongruent/STIM_026.jpg
1652.275	0.585	correct	incongruent	Block2	incongruent/STIM_026.jpg
1656.482	0.739	correct	incongruent	Block2	incongruent/STIM_026.jpg
1660.253	1.411	incorrect	incongruent	Block2	incongruent/STIM_027.jpg
1664.209	0.98	correct	incongruent	Block2	incongruent/STIM_027.jpg
1667.365	1.083	correct	incongruent	Block2	incongruent/STIM_027.jpg
1671.812	0.948	correct	incongruent	Block2	incongruent/STIM_027.jpg
1676.377	0.967	correct	incongruent	Block2	incongruent/STIM_027.jpg
1681.161	1.399	correct	incongruent	Block2	incongruent/STIM_028.jpg
1686.018	0.677	correct	incongruent	Block2	incongruent/STIM_028.jpg
1689.219	1.111	correct	incongruent	Block2	incongruent/STIM_028.jpg
1692.823	0.622	correct	incongruent	Block2	incongruent/STIM_028.jpg
1696.29	1.039	correct	incongruent	Block2	incongruent/STIM_028.jpg
1700.433	1.192	incorrect	incongruent	Block2	incongruent/STIM_029.jpg
1704.593	1.028	correct	incongruent	Block2	incongruent/STIM_029.jpg
1708.663	1.182	correct	incongruent	Block2	incongruent/STIM_029.jpg
1712.934	0.957	correct	incongruent	Block2	incongruent/STIM_029.jpg
1716.165	0.84	correct	incongruent	Block2	incongruent/STIM_029.jpg
1720.831	0.891	correct	congruent	Block2	congruent/STIM_000.jpg
1724.443	0.866	incorrect	congruent	Block2	congruent/STIM_000.jpg
1728.708	0.977	correct	congruent	Block2	congruent/STIM_000.jpg
1732.099	1.003	correct	congruent	Block2	congruent/STIM_000.jpg
1735.216	0.76	correct	congruent	Block2	congruent/STIM_000.jpg
1738.424	0.701	incorrect	congruent	Block2	congruent/STIM_001.jpg
1742.455	0.728	correct	congruent	Block2	congruent/STIM_001.jpg
1745.305	0.854	correct	congruent	Block2	congruent/STIM_001.jpg
1749.842	0.754	correct	congruent	Block2	congruent/STIM_001.jpg
1754.423	0.907	correct	congruent	Block2	congruent/STIM_001.jpg
1758.865	0.631	correct	congruent	Block2	congruent/STIM_002.jpg
1763.271	0.63	correct	congruent	Block2	congruent/STIM_002.jpg
1765.903	0.776	correct	congruent	Block2	congruent/STIM_002.jpg
1769.386	0.984	correct	congruent	Block2	congruent/STIM_002.jpg
1773.363	0.708	correct	congruent	Block2	congruent/STIM_002.jpg
1777.241	0.742	correct	congruent	Block2	congruent/STIM_003.jpg
1780.732	0.982	correct	congruent	Block2	congruent/STIM_003.jpg
1785.384	0.932	correct	congruent	Block2	congruent/STIM_003.jpg
1789.483	0.855	correct	congruent	Block2	congruent/STIM_003.jpg
1792.382	0.72	correct	congruent	Block2	congruent/STIM_003.jpg
1796.217	0.61	correct	congruent	Block2	congruent/STIM_004.jpg
1800.126	1.007	correct	congruent	Block2	congruent/STIM_004.jpg
1804.484	0.711	correct	congruent	Block2	congruent/STIM_004.jpg
1808.037	0.755	correct	congruent	Block2	congruent/STIM_004.jpg
1811.194	0.856	correct	congruent	Block2	congruent/STIM_004.jpg
1815.809	0.647	correct	congruent	Block2	congruent/STIM_005.jpg
1819.495	0.647	correct	congruent	Block2	congruent/STIM_005.jpg
1823.984	0.814	correct	congruent	Block2	congruent/STIM_005.jpg
1827.569	0.877	correct	congruent	Block2	congruent/STIM_005.jpg
1831.972	0.582	correct	congruent	Block2	congruent/STIM_005.jpg
1835.841	0.732	correct	congruent	Block2	congruent/STIM_006.jpg
1839.259	0.589	correct	congruent	Block2	congruent/STIM_006.jpg
1842.008	0.803	correct	congruent	Block2	congruent/STIM_006.jpg
1846.336	0.673	incorrect	congruent	Block2	congruent/STIM_006.jpg
1849.985	0.595	correct	congruent	Block2	congruent/STIM_006.jpg
1852.522	0.616	correct	congruent	Block2	congruent/STIM_007.jpg
1856.257	0.614	correct	congruent	Block2	congruent/STIM_007.jpg
1859.246	0.844	correct	congruent	Block2	congruent/STIM_007.jpg
1862.265	0.806	correct	congruent	Block2	congruent/STIM_007.jpg
1865.802	0.952	correct	congruent	Block2	congruent/STIM_007.jpg
1869.666	0.751	correct	congruent	Block2	congruent/STIM_008.jpg
1872.368	0.917	correct	congruent	Block2	congruent/STIM_008.jpg
1875.366	1.024	correct	congruent	Block2	congruent/STIM_008.jpg
1878.524	0.935	correct	congruent	Block2	congruent/STIM_008.jpg
1883.181	0.784	correct	congruent	Block2	congruent/STIM_008.jpg
1887.056	0.903	correct	congruent	Block2	congruent/STIM_009.jpg
1891.113	0.807	correct	congruent	Block2	congruent/STIM_009.jpg
1895.75	0.761	correct	congruent	Block2	congruent/STIM_009.jpg
1899.827	0.701	correct	congruent	Block2	congruent/STIM_009.jpg
1903.679	0.761	correct	congruent	Block2	congruent/STIM_009.jpg
1906.813	0.77	correct	congruent	Block2	congruent/STIM_010.jpg
1911.284	0.962	correct	congruent	Block2	congruent/STIM_010.jpg
1915.737	0.77	correct	congruent	Block2	congruent/STIM_010.jpg
1918.999	0.992	correct	congruent	Block2	congruent/STIM_010.jpg
1923.238	0.679	correct	congruent	Block2	congruent/STIM_010.jpg
1925.98	0.937	correct	congruent	Block2	congruent/STIM_011.jpg
1929.282	0.697	incorrect	congruent	Block2	congruent/STIM_011.jpg
1932.42	0.668	correct	congruent	Block2	congruent/STIM_011.jpg
1936.844	0.636	correct	congruent	Block2	congruent/STIM_011.jpg
1939.611	0.963	correct	congruent	Block2	congruent/STIM_011.jpg
1942.758	0.746	correct	congruent	Block2	congruent/STIM_012.jpg
1947.304	0.755	correct	congruent	Block2	congruent/STIM_012.jpg
1951.112	1.01	correct	congruent	Block2	congruent/STIM_012.jpg
1955.675	1.022	correct	congruent	Block2	congruent/STIM_012.jpg
1959.325	0.92	correct	congruent	Block2	congruent/STIM_012.jpg
1963.371	0.82	correct	congruent	Block2	congruent/STIM_013.jpg
1967.886	0.872	correct	congruent	Block2	congruent/STIM_013.jpg
1970.959	0.648	incorrect	congruent	Block2	congruent/STIM_013.jpg
1974.437	0.888	correct	congruent	Block2	congruent/STIM_013.jpg
1979.064	0.67	correct	congruent	Block2	congruent/STIM_013.jpg
1982.912	0.813	correct	congruent	Block2	congruent/STIM_014.jpg
1987.328	0.815	incorrect	congruent	Block2	congruent/STIM_014.jpg
1991.568	0.943	correct	congruent	Block2	congruent/STIM_014.jpg
1995.36	0.762	correct	congruent	Block2	congruent/STIM_014.jpg
1998.385	0.742	correct	congruent	Block2	congruent/STIM_014.jpg
2002.135	0.587	correct	congruent	Block2	congruent/STIM_015.jpg
2005.572	0.68	correct	congruent	Block2	congruent/STIM_015.jpg
2010.024	0.918	correct	congruent	Block2	congruent/STIM_015.jpg
2013.13	0.658	correct	congruent	Block2	congruent/STIM_015.jpg
2016.149	0.942	correct	congruent	Block2	congruent/STIM_015.jpg
2019.738	0.697	correct	congruent	Block2	congruent/STIM_016.jpg
2022.687	1.011	correct	congruent	Block2	congruent/STIM_016.jpg
2027.066	0.784	correct	congruent	Block2	congruent/STIM_016.jpg
2030.89	0.798	correct	congruent	Block2	congruent/STIM_016.jpg
2034.68	0.914	correct	congruent	Block2	congruent/STIM_016.jpg
2038.764	0.885	correct	congruent	Block2	congruent/STIM_017.jpg
2042.423	0.746	correct	congruent	Block2	congruent/STIM_017.jpg
2045.986	0.814	correct	congruent	Block2	congruent/STIM_017.jpg
2049.268	0.82	correct	congruent	Block2	congruent/STIM_017.jpg
2053.267	0.706	correct	congruent	Block2	congruent/STIM_017.jpg
2057.578	0.687	correct	congruent	Block2	congruent/STIM_018.jpg
2060.255	0.804	correct	congruent	Block2	congruent/STIM_018.jpg
2064.207	0.768	correct	congruent	Block2	congruent/STIM_018.jpg
2068.585	0.701	correct	congruent	Block2	congruent/STIM_018.jpg
2072.969	0.905	correct	congruent	Block2	congruent/STIM_018.jpg
2076.914	0.973	correct	congruent	Block2	congruent/STIM_019.jpg
2080.938	0.584	correct	congruent	Block2	congruent/STIM_019.jpg
2084.288	0.793	correct	congruent	Block2	congruent/STIM_019.jpg
2087.421	0.595	correct	congruent	Block2	congruent/STIM_019.jpg
2091.0	0.742	correct	congruent	Block2	congruent/STIM_019.jpg
2094.493	0.964	correct	congruent	Block2	congruent/STIM_020.jpg
2099.224	0.996	correct	congruent	Block2	congruent/STIM_020.jpg
2102.74	0.997	correct	congruent	Block2	congruent/STIM_020.jpg
2105.906	0.635	correct	congruent	Block2	congruent/STIM_020.jpg
2109.694	0.697	correct	congruent	Block2	congruent/STIM_020.jpg
2113.06	0.816	correct	congruent	Block2	congruent/STIM_021.jpg
2116.283	0.781	correct	congruent	Block2	congruent/STIM_021.jpg
2120.267	1.024	correct	congruent	Block2	congruent/STIM_021.jpg
2124.692	0.644	correct	congruent	Block2	congruent/STIM_021.jpg
2127.576	0.893	correct	congruent	Block2	congruent/STIM_021.jpg
2131.293	0.614	correct	congruent	Block2	congruent/STIM_022.jpg
2135.231	0.86	correct	congruent	Block2	congruent/STIM_022.jpg
2138.74	0.878	correct	congruent	Block2	congruent/STIM_022.jpg
2142.388	0.694	correct	congruent	Block2	congruent/STIM_022.jpg
2146.081	0.654	correct	congruent	Block2	congruent/STIM_022.jpg
2150.186	0.912	correct	congruent	Block2	congruent/STIM_023.jpg
2153.89	0.714	correct	congruent	Block2	congruent/STIM_023.jpg
2156.618	0.931	correct	congruent	Block2	congruent/STIM_023.jpg
2160.688	0.972	incorrect	congruent	Block2	congruent/STIM_023.jpg
2164.927	0.658	correct	congruent	Block2	congruent/STIM_023.jpg
2167.993	0.678	correct	congruent	Block2	congruent/STIM_024.jpg
2171.898	0.753	correct	congruent	Block2	congruent/STIM_024.jpg
2175.661	0.67	correct	congruent	Block2	congruent/STIM_024.jpg
2179.738	0.67	correct	congruent	Block2	congruent/STIM_024.jpg
2182.45	0.608	correct	congruent	Block2	congruent/STIM_024.jpg
2185.361	0.751	correct	congruent	Block2	congruent/STIM_025.jpg
2188.814	0.678	correct	congruent	Block2	congruent/STIM_025.jpg
2192.387	0.725	correct	congruent	Block2	congruent/STIM_025.jpg
2196.832	0.853	correct	congruent	Block2	congruent/STIM_025.jpg
2199.941	0.89	correct	congruent	Block2	congruent/STIM_025.jpg
2202.945	0.799	correct	congruent	Block2	congruent/STIM_026.jpg
2206.37	0.735	correct	congruent	Block2	congruent/STIM_026.jpg
2210.434	0.724	correct	congruent	Block2	congruent/STIM_026.jpg
2213.193	0.739	correct	congruent	Block2	congruent/STIM_026.jpg
2217.014	0.813	correct	congruent	Block2	congruent/STIM_026.jpg
2220.144	0.73	correct	congruent	Block2	congruent/STIM_027.jpg
2222.94	0.958	correct	congruent	Block2	congruent/STIM_027.jpg
2227.102	0.636	correct	congruent	Block2	congruent/STIM_027.jpg
2231.203	0.94	correct	congruent	Block2	congruent/STIM_027.jpg
2235.681	0.69	correct	congruent	Block2	congruent/STIM_027.jpg
2239.654	0.864	correct	congruent	Block2	congruent/STIM_028.jpg
2242.806	1.006	correct	congruent	Block2	congruent/STIM_028.jpg
2247.347	0.916	correct	congruent	Block2	congruent/STIM_028.jpg
2251.624	0.789	correct	congruent	Block2	congruent/STIM_028.jpg
2255.212	0.666	correct	congruent	Block2	congruent/STIM_028.jpg
2258.436	0.965	correct	congruent	Block2	congruent/STIM_029.jpg
2261.851	0.623	correct	congruent	Block2	congruent/STIM_029.jpg
2264.89	0.813	incorrect	congruent	Block2	congruent/STIM_029.jpg
2269.419	0.926	correct	congruent	Block2	congruent/STIM_029.jpg
2272.292	0.698	correct	congruent	Block2	congruent/STIM_029.jpg
2275.864	0.954	correct	incongruent	Block3	incongruent/STIM_000.jpg
2279.325	0.69	correct	incongruent	Block3	incongruent/STIM_000.jpg
2283.278	1.017	correct	incongruent	Block3	incongruent/STIM_000.jpg
2287.987	1.092	correct	incongruent	Block3	incongruent/STIM_000.jpg
2292.619	0.686	correct	incongruent	Block3	incongruent/STIM_000.jpg
2296.319	0.868	correct	incongruent	Block3	incongruent/STIM_001.jpg
2300.139	0.799	correct	incongruent	Block3	incongruent/STIM_001.jpg
2304.08	0.883	correct	incongruent	Block3	incongruent/STIM_001.jpg
2308.297	1.141	correct	incongruent	Block3	incongruent/STIM_001.jpg
2312.392	0.727	correct	incongruent	Block3	incongruent/STIM_001.jpg
2316.47	1.069	correct	incongruent	Block3	incongruent/STIM_002.jpg
2320.719	1.139	correct	incongruent	Block3	incongruent/STIM_002.jpg
2324.543	1.124	correct	incongruent	Block3	incongruent/STIM_002.jpg
2328.968	0.674	correct	incongruent	Block3	incongruent/STIM_002.jpg
2332.832	1.112	correct	incongruent	Block3	incongruent/STIM_002.jpg
2336.263	1.108	correct	incongruent	Block3	incongruent/STIM_003.jpg
2340.817	0.906	correct	incongruent	Block3	incongruent/STIM_003.jpg
2345.425	0.768	correct	incongruent	Block3	incongruent/STIM_003.jpg
2349.173	1.168	incorrect	incongruent	Block3	incongruent/STIM_003.jpg
2353.089	1.085	correct	incongruent	Block3	incongruent/STIM_003.jpg
2357.127	0.996	correct	incongruent	Block3	incongruent/STIM_004.jpg
2361.652	0.617	correct	incongruent	Block3	incongruent/STIM_004.jpg
2365.295	0.693	correct	incongruent	Block3	incongruent/STIM_004.jpg
2368.681	0.666	correct	incongruent	Block3	incongruent/STIM_004.jpg
2372.57	1.115	correct	incongruent	Block3	incongruent/STIM_004.jpg
2377.213	1.129	correct	incongruent	Block3	incongruent/STIM_005.jpg
2380.44	0.908	correct	incongruent	Block3	incongruent/STIM_005.jpg
2383.947	1.011	correct	incongruent	Block3	incongruent/STIM_005.jpg
2387.05	1.014	correct	incongruent	Block3	incongruent/STIM_005.jpg
2390.604	1.057	correct	incongruent	Block3	incongruent/STIM_005.jpg
2393.599	1.065	correct	incongruent	Block3	incongruent/STIM_006.jpg
2397.071	1.14	correct	incongruent	Block3	incongruent/STIM_006.jpg
2401.195	0.806	correct	incongruent	Block3	incongruent/STIM_006.jpg
2404.271	0.786	correct	incongruent	Block3	incongruent/STIM_006.jpg
2408.802	0.775	correct	incongruent	Block3	incongruent/STIM_006.jpg
2412.525	0.892	correct	incongruent	Block3	incongruent/STIM_007.jpg
2417.037	0.834	correct	incongruent	Block3	incongruent/STIM_007.jpg
2421.559	0.761	incorrect	incongruent	Block3	incongruent/STIM_007.jpg
2425.034	0.974	correct	incongruent	Block3	incongruent/STIM_007.jpg
2429.877	1.018	incorrect	incongruent	Block3	incongruent/STIM_007.jpg
2432.788	0.946	correct	incongruent	Block3	incongruent/STIM_008.jpg
2435.87	1.148	correct	incongruent	Block3	incongruent/STIM_008.jpg
2439.808	0.764	correct	incongruent	Block3	incongruent/STIM_008.jpg
2443.244	0.878	correct	incongruent	Block3	incongruent/STIM_008.jpg
2447.965	0.788	correct	incongruent	Block3	incongruent/STIM_008.jpg
2450.698	0.992	correct	incongruent	Block3	incongruent/STIM_009.jpg
2453.876	1.108	correct	incongruent	Block3	incongruent/STIM_009.jpg
2458.023	0.894	correct	incongruent	Block3	incongruent/STIM_009.jpg
2461.922	1.178	correct	incongruent	Block3	incongruent/STIM_009.jpg
2466.859	0.693	correct	incongruent	Block3	incongruent/STIM_009.jpg
2471.115	0.91	correct	incongruent	Block3	incongruent/STIM_010.jpg
2474.656	1.131	correct	incongruent	Block3	incongruent/STIM_010.jpg
2478.703	1.189	correct	incongruent	Block3	incongruent/STIM_010.jpg
2482.44	1.192	correct	incongruent	Block3	incongruent/STIM_010.jpg
2486.102	1.13	incorrect	incongruent	Block3	incongruent/STIM_010.jpg
2490.855	1.197	correct	incongruent	Block3	incongruent/STIM_011.jpg
2495.482	1.128	correct	incongruent	Block3	incongruent/STIM_011.jpg
2499.45	1.046	correct	incongruent	Block3	incongruent/STIM_011.jpg
2503.251	0.84	correct	incongruent	Block3	incongruent/STIM_011.jpg
2507.643	1.172	correct	incongruent	Block3	incongruent/STIM_011.jpg
2510.868	0.619	correct	incongruent	Block3	incongruent/STIM_012.jpg
2515.337	0.866	correct	incongruent	Block3	incongruent/STIM_012.jpg
2519.69	1.078	correct	incongruent	Block3	incongruent/STIM_012.jpg
2523.683	0.907	correct	incongruent	Block3	incongruent/STIM_012.jpg
2526.898	1.027	correct	incongruent	Block3	incongruent/STIM_012.jpg
2529.973	0.858	correct	incongruent	Block3	incongruent/STIM_013.jpg
2532.814	0.589	correct	incongruent	Block3	incongruent/STIM_013.jpg
2537.218	0.941	correct	incongruent	Block3	incongruent/STIM_013.jpg
2541.051	0.753	correct	incongruent	Block3	incongruent/STIM_013.jpg
2545.08	1.069	correct	incongruent	Block3	incongruent/STIM_013.jpg
2548.416	0.642	correct	incongruent	Block3	incongruent/STIM_014.jpg
2552.66	0.962	correct	incongruent	Block3	incongruent/STIM_014.jpg
2556.426	0.95	correct	incongruent	Block3	incongruent/STIM_014.jpg
2559.814	0.909	correct	incongruent	Block3	incongruent/STIM_014.jpg
2563.677	0.842	correct	incongruent	Block3	incongruent/STIM_014.jpg
2567.638	0.597	correct	incongruent	Block3	incongruent/STIM_015.jpg
2570.342	0.644	correct	incongruent	Block3	incongruent/STIM_015.jpg
2574.767	1.0	correct	incongruent	Block3	incongruent/STIM_015.jpg
2579.419	0.703	correct	incongruent	Block3	incongruent/STIM_015.jpg
2583.869	1.005	correct	incongruent	Block3	incongruent/STIM_015.jpg
2588.127	0.895	incorrect	incongruent	Block3	incongruent/STIM_016.jpg
2592.609	0.837	correct	incongruent	Block3	incongruent/STIM_016.jpg
2595.953	1.162	correct	incongruent	Block3	incongruent/STIM_016.jpg
2599.639	0.743	correct	incongruent	Block3	incongruent/STIM_016.jpg
2603.035	1.099	correct	incongruent	Block3	incongruent/STIM_016.jpg
2606.583	1.194	correct	incongruent	Block3	incongruent/STIM_017.jpg
2611.322	1.056	correct	incongruent	Block3	incongruent/STIM_017.jpg
2614.779	0.865	correct	incongruent	Block3	incongruent/STIM_017.jpg
2618.913	1.051	correct	incongruent	Block3	incongruent/STIM_017.jpg
2623.717	1.161	correct	incongruent	Block3	incongruent/STIM_017.jpg
2628.224	0.573	correct	incongruent	Block3	incongruent/STIM_018.jpg
2631.198	0.697	correct	incongruent	Block3	incongruent/STIM_018.jpg
2634.385	0.588	correct	incongruent	Block3	incongruent/STIM_018.jpg
2637.582	0.706	incorrect	incongruent	Block3	incongruent/STIM_018.jpg
2640.598	0.679	correct	incongruent	Block3	incongruent/STIM_018.jpg
2643.255	0.898	correct	incongruent	Block3	incongruent/STIM_019.jpg
2646.871	0.946	correct	incongruent	Block3	incongruent/STIM_019.jpg
2650.707	1.058	correct	incongruent	Block3	incongruent/STIM_019.jpg
2655.332	1.073	correct	incongruent	Block3	incongruent/STIM_019.jpg
2659.601	0.603	correct	incongruent	Block3	incongruent/STIM_019.jpg
2662.405	1.178	correct	incongruent	Block3	incongruent/STIM_020.jpg
2666.999	0.691	correct	incongruent	Block3	incongruent/STIM_020.jpg
2670.951	1.106	correct	incongruent	Block3	incongruent/STIM_020.jpg
2673.929	0.763	correct	incongruent	Block3	incongruent/STIM_020.jpg
2677.321	0.612	correct	incongruent	Block3	incongruent/STIM_020.jpg
2680.57	1.019	correct	incongruent	Block3	incongruent/STIM_021.jpg
2685.445	0.704	correct	incongruent	Block3	incongruent/STIM_021.jpg
2689.417	0.683	correct	incongruent	Block3	incongruent/STIM_021.jpg
2693.321	0.966	correct	incongruent	Block3	incongruent/STIM_021.jpg
2698.117	0.996	correct	incongruent	Block3	incongruent/STIM_021.jpg
2702.818	0.644	correct	incongruent	Block3	incongruent/STIM_022.jpg
2706.932	0.881	correct	incongruent	Block3	incongruent/STIM_022.jpg
2710.197	1.091	correct	incongruent	Block3	incongruent/STIM_022.jpg
2714.252	0.8	correct	incongruent	Block3	incongruent/STIM_022.jpg
2718.132	0.696	correct	incongruent	Block3	incongruent/STIM_022.jpg
2721.382	0.85	correct	incongruent	Block3	incongruent/STIM_023.jpg
2726.028	1.099	correct	incongruent	Block3	incongruent/STIM_023.jpg
2729.902	1.06	correct	incongruent	Block3	incongruent/STIM_023.jpg
2733.938	1.015	correct	incongruent	Block3	incongruent/STIM_023.jpg
2737.859	1.091	correct	incongruent	Block3	incongruent/STIM_023.jpg
2742.344	0.821	correct	incongruent	Block3	incongruent/STIM_024.jpg
2745.398	1.059	correct	incongruent	Block3	incongruent/STIM_024.jpg
2748.838	1.02	correct	incongruent	Block3	incongruent/STIM_024.jpg
2753.542	0.609	correct	incongruent	Block3	incongruent/STIM_024.jpg
2756.66	1.062	correct	incongruent	Block3	incongruent/STIM_024.jpg
2760.044	1.088	correct	incongruent	Block3	incongruent/STIM_025.jpg
2764.208	0.998	correct	incongruent	Block3	incongruent/STIM_025.jpg
2768.506	0.935	correct	incongruent	Block3	incongruent/STIM_025.jpg
2772.575	0.695	correct	incongruent	Block3	incongruent/STIM_025.jpg
2776.499	1.058	correct	incongruent	Block3	incongruent/STIM_025.jpg
2781.326	1.084	correct	incongruent	Block3	incongruent/STIM_026.jpg
2786.054	0.923	correct	incongruent	Block3	incongruent/STIM_026.jpg
2790.621	1.149	correct	incongruent	Block3	incongruent/STIM_026.jpg
2794.685	1.066	correct	incongruent	Block3	incongruent/STIM_026.jpg
2799.167	0.879	correct	incongruent	Block3	incongruent/STIM_026.jpg
2802.017	0.999	correct	incongruent	Block3	incongruent/STIM_027.jpg
2805.493	0.95	correct	incongruent	Block3	incongruent/STIM_027.jpg
2808.884	1.189	correct	incongruent	Block3	incongruent/STIM_027.jpg
2812.657	0.817	correct	incongruent	Block3	incongruent/STIM_027.jpg
2816.388	0.974	correct	incongruent	Block3	incongruent/STIM_027.jpg
2819.691	1.171	correct	incongruent	Block3	incongruent/STIM_028.jpg
2822.905	0.854	incorrect	incongruent	Block3	incongruent/STIM_028.jpg
2826.281	0.578	correct	incongruent	Block3	incongruent/STIM_028.jpg
2830.39	1.12	correct	incongruent	Block3	incongruent/STIM_028.jpg
2834.438	1.025	correct	incongruent	Block3	incongruent/STIM_028.jpg
2837.42	0.859	correct	incongruent	Block3	incongruent/STIM_029.jpg
2841.355	0.995	correct	incongruent	Block3	incongruent/STIM_029.jpg
2844.402	0.927	correct	incongruent	Block3	incongruent/STIM_029.jpg
2848.675	0.715	correct	incongruent	Block3	incongruent/STIM_029.jpg
2853.166	1.048	correct	incongruent	Block3	incongruent/STIM_029.jpg
2856.599	0.995	correct	congruent	Block3	congruent/STIM_000.jpg
2861.244	0.836	correct	congruent	Block3	congruent/STIM_000.jpg
2864.08	0.685	correct	congruent	Block3	congruent/STIM_000.jpg
2867.704	0.66	correct	congruent	Block3	congruent/STIM_000.jpg
2870.952	1.018	correct	congruent	Block3	congruent/STIM_000.jpg
2874.781	0.856	correct	congruent	Block3	congruent/STIM_001.jpg
2878.388	0.882	correct	congruent	Block3	congruent/STIM_001.jpg
2881.748	1.014	correct	congruent	Block3	congruent/STIM_001.jpg
2885.722	0.728	correct	congruent	Block3	congruent/STIM_001.jpg
2888.532	0.688	correct	congruent	Block3	congruent/STIM_001.jpg
2892.516	0.738	correct	congruent	Block3	congruent/STIM_002.jpg
2896.372	0.834	correct	congruent	Block3	congruent/STIM_002.jpg
2900.709	0.895	correct	congruent	Block3	congruent/STIM_002.jpg
2903.823	0.831	correct	congruent	Block3	congruent/STIM_002.jpg
2907.939	0.653	correct	congruent	Block3	congruent/STIM_002.jpg
2911.392	0.734	incorrect	congruent	Block3	congruent/STIM_003.jpg
2914.725	0.773	incorrect	congruent	Block3	congruent/STIM_003.jpg
2918.263	0.606	correct	congruent	Block3	congruent/STIM_003.jpg
2920.882	0.736	correct	congruent	Block3	congruent/STIM_003.jpg
2925.288	0.758	correct	congruent	Block3	congruent/STIM_003.jpg
2929.819	0.716	correct	congruent	Block3	congruent/STIM_004.jpg
2933.513	0.997	correct	congruent	Block3	congruent/STIM_004.jpg
2936.979	0.659	correct	congruent	Block3	congruent/STIM_004.jpg
2941.513	0.581	correct	congruent	Block3	congruent/STIM_004.jpg
2945.162	0.579	correct	congruent	Block3	congruent/STIM_004.jpg
2949.071	0.701	correct	congruent	Block3	congruent/STIM_005.jpg
2952.239	1.02	correct	congruent	Block3	congruent/STIM_005.jpg
2955.306	0.953	correct	congruent	Block3	congruent/STIM_005.jpg
2959.953	0.749	correct	congruent	Block3	congruent/STIM_005.jpg
2963.675	0.88	correct	congruent	Block3	congruent/STIM_005.jpg
2967.988	0.587	correct	congruent	Block3	congruent/STIM_006.jpg
2971.375	0.653	correct	congruent	Block3	congruent/STIM_006.jpg
2974.667	1.025	correct	congruent	Block3	congruent/STIM_006.jpg
2978.799	0.589	correct	congruent	Block3	congruent/STIM_006.jpg
2981.695	0.978	correct	congruent	Block3	congruent/STIM_006.jpg
2984.624	0.94	correct	congruent	Block3	congruent/STIM_007.jpg
2987.473	0.858	correct	congruent	Block3	congruent/STIM_007.jpg
2990.471	0.913	correct	congruent	Block3	congruent/STIM_007.jpg
2993.756	0.849	correct	congruent	Block3	congruent/STIM_007.jpg
2997.721	0.587	correct	congruent	Block3	congruent/STIM_007.jpg
3002.096	0.996	correct	congruent	Block3	congruent/STIM_008.jpg
3006.046	0.742	correct	congruent	Block3	congruent/STIM_008.jpg
3010.614	0.796	correct	congruent	Block3	congruent/STIM_008.jpg
3013.997	0.799	correct	congruent	Block3	congruent/STIM_008.jpg
3017.17	0.638	correct	congruent	Block3	congruent/STIM_008.jpg
3021.69	0.942	correct	congruent	Block3	congruent/STIM_009.jpg
3025.314	1.003	correct	congruent	Block3	congruent/STIM_009.jpg
3029.859	0.831	correct	congruent	Block3	congruent/STIM_009.jpg
3032.868	0.79	correct	congruent	Block3	congruent/STIM_009.jpg
3035.927	0.823	correct	congruent	Block3	congruent/STIM_009.jpg
3039.725	0.727	correct	congruent	Block3	congruent/STIM_010.jpg
3042.474	0.992	correct	congruent	Block3	congruent/STIM_010.jpg
3046.815	0.737	correct	congruent	Block3	congruent/STIM_010.jpg
3049.557	0.709	correct	congruent	Block3	congruent/STIM_010.jpg
3052.62	0.873	correct	congruent	Block3	congruent/STIM_010.jpg
3055.798	0.791	correct	congruent	Block3	congruent/STIM_011.jpg
3059.343	0.87	correct	congruent	Block3	congruent/STIM_011.jpg
3063.213	0.738	correct	congruent	Block3	congruent/STIM_011.jpg
3065.878	0.755	correct	congruent	Block3	congruent/STIM_011.jpg
3070.309	0.989	correct	congruent	Block3	congruent/STIM_011.jpg
3074.969	0.722	correct	congruent	Block3	congruent/STIM_012.jpg
3078.448	0.785	correct	congruent	Block3	congruent/STIM_012.jpg
3083.076	0.968	correct	congruent	Block3	congruent/STIM_012.jpg
3086.296	0.76	correct	congruent	Block3	congruent/STIM_012.jpg
3089.754	0.757	correct	congruent	Block3	congruent/STIM_012.jpg
3094.341	0.983	correct	congruent	Block3	congruent/STIM_013.jpg
3098.329	0.916	correct	congruent	Block3	congruent/STIM_013.jpg
3101.432	0.71	correct	congruent	Block3	congruent/STIM_013.jpg
3105.339	0.652	correct	congruent	Block3	congruent/STIM_013.jpg
3108.963	0.656	correct	congruent	Block3	congruent/STIM_013.jpg
3112.678	0.838	correct	congruent	Block3	congruent/STIM_014.jpg
3116.876	0.821	correct	congruent	Block3	congruent/STIM_014.jpg
3120.806	0.678	correct	congruent	Block3	congruent/STIM_014.jpg
3124.7	0.8	correct	congruent	Block3	congruent/STIM_014.jpg
3128.165	0.906	incorrect	congruent	Block3	congruent/STIM_014.jpg
3132.017	0.807	correct	congruent	Block3	congruent/STIM_015.jpg
3136.258	0.772	correct	congruent	Block3	congruent/STIM_015.jpg
3140.862	0.839	correct	congruent	Block3	congruent/STIM_015.jpg
3143.871	0.754	correct	congruent	Block3	congruent/STIM_015.jpg
3147.314	0.812	correct	congruent	Block3	congruent/STIM_015.jpg
3150.131	1.02	correct	congruent	Block3	congruent/STIM_016.jpg
3154.542	0.648	correct	congruent	Block3	congruent/STIM_016.jpg
3157.441	1.012	correct	congruent	Block3	congruent/STIM_016.jpg
3161.497	0.898	correct	congruent	Block3	congruent/STIM_016.jpg
3165.932	0.921	correct	congruent	Block3	congruent/STIM_016.jpg
3168.996	0.651	correct	congruent	Block3	congruent/STIM_017.jpg
3171.588	0.806	correct	congruent	Block3	congruent/STIM_017.jpg
3175.129	0.613	correct	congruent	Block3	congruent/STIM_017.jpg
3179.475	0.831	correct	congruent	Block3	congruent/STIM_017.jpg
3182.318	0.585	incorrect	congruent	Block3	congruent/STIM_017.jpg
3184.994	0.65	correct	congruent	Block3	congruent/STIM_018.jpg
3188.979	0.813	correct	congruent	Block3	congruent/STIM_018.jpg
3193.381	0.965	correct	congruent	Block3	congruent/STIM_018.jpg
3197.406	0.788	correct	congruent	Block3	congruent/STIM_018.jpg
3200.414	0.754	correct	congruent	Block3	congruent/STIM_018.jpg
3203.632	0.732	correct	congruent	Block3	congruent/STIM_019.jpg
3206.531	0.767	correct	congruent	Block3	congruent/STIM_019.jpg
3211.069	0.733	correct	congruent	Block3	congruent/STIM_019.jpg
3215.529	0.682	correct	congruent	Block3	congruent/STIM_019.jpg
3218.615	0.632	correct	congruent	Block3	congruent/STIM_019.jpg
3221.825	0.905	correct	congruent	Block3	congruent/STIM_020.jpg
3226.497	0.918	correct	congruent	Block3	congruent/STIM_020.jpg
3230.127	0.766	correct	congruent	Block3	congruent/STIM_020.jpg
3234.774	0.734	correct	congruent	Block3	congruent/STIM_020.jpg
3238.306	0.59	correct	congruent	Block3	congruent/STIM_020.jpg
3241.068	0.934	correct	congruent	Block3	congruent/STIM_021.jpg
3244.316	0.756	incorrect	congruent	Block3	congruent/STIM_021.jpg
3248.641	0.594	correct	congruent	Block3	congruent/STIM_021.jpg
3251.589	0.8	correct	congruent	Block3	congruent/STIM_021.jpg
3254.624	0.757	correct	congruent	Block3	congruent/STIM_021.jpg
3257.318	0.987	correct	congruent	Block3	congruent/STIM_022.jpg
3260.287	1.028	correct	congruent	Block3	congruent/STIM_022.jpg
3265.063	0.957	correct	congruent	Block3	congruent/STIM_022.jpg
3269.673	0.884	correct	congruent	Block3	congruent/STIM_022.jpg
3273.798	0.789	correct	congruent	Block3	congruent/STIM_022.jpg
3278.268	0.885	correct	congruent	Block3	congruent/STIM_023.jpg
3282.471	0.636	incorrect	congruent	Block3	congruent/STIM_023.jpg
3285.253	0.705	correct	congruent	Block3	congruent/STIM_023.jpg
3289.751	0.688	correct	congruent	Block3	congruent/STIM_023.jpg
3293.26	1.017	correct	congruent	Block3	congruent/STIM_023.jpg
3298.095	0.683	correct	congruent	Block3	congruent/STIM_024.jpg
3301.9	0.777	correct	congruent	Block3	congruent/STIM_024.jpg
3304.756	0.75	correct	congruent	Block3	congruent/STIM_024.jpg
3307.898	1.011	correct	congruent	Block3	congruent/STIM_024.jpg
3311.8	0.794	correct	congruent	Block3	congruent/STIM_024.jpg
3315.472	0.933	correct	congruent	Block3	congruent/STIM_025.jpg
3319.738	0.598	correct	congruent	Block3	congruent/STIM_025.jpg
3323.223	0.874	correct	congruent	Block3	congruent/STIM_025.jpg
3326.864	0.75	correct	congruent	Block3	congruent/STIM_025.jpg
3329.97	0.864	incorrect	congruent	Block3	congruent/STIM_025.jpg
3333.926	0.847	correct	congruent	Block3	congruent/STIM_026.jpg
3337.308	0.914	correct	congruent	Block3	congruent/STIM_026.jpg
3342.034	0.577	correct	congruent	Block3	congruent/STIM_026.jpg
3346.52	0.783	correct	congruent	Block3	congruent/STIM_026.jpg
3349.544	0.846	correct	congruent	Block3	congruent/STIM_026.jpg
3352.872	0.702	incorrect	congruent	Block3	congruent/STIM_027.jpg
3356.05	0.7	correct	congruent	Block3	congruent/STIM_027.jpg
3359.8	0.759	correct	congruent	Block3	congruent/STIM_027.jpg
3363.15	0.609	correct	congruent	Block3	congruent/STIM_027.jpg
3366.409	0.856	correct	congruent	Block3	congruent/STIM_027.jpg
3369.406	0.88	correct	congruent	Block3	congruent/STIM_028.jpg
3374.058	0.712	correct	congruent	Block3	congruent/STIM_028.jpg
3377.911	0.979	correct	congruent	Block3	congruent/STIM_028.jpg
3381.638	0.899	correct	congruent	Block3	congruent/STIM_028.jpg
3385.408	0.572	correct	congruent	Block3	congruent/STIM_028.jpg
3388.344	0.853	correct	congruent	Block3	congruent/STIM_029.jpg
3392.889	0.771	correct	congruent	Block3	congruent/STIM_029.jpg
3397.019	0.88	correct	congruent	Block3	congruent/STIM_029.jpg
3400.487	0.843	correct	congruent	Block3	congruent/STIM_029.jpg
3403.882	0.58	correct	congruent	Block3	congruent/STIM_029.jpg
