onset	duration	response_time_ms	trial_type	learning_stage	stimulus	response_port
0.0	1.573	1573.2	incongruent	Block1	incongruent/STIM_000.jpg	99
3.99	1.02	1020.1	incongruent	Block1	incongruent/STIM_000.jpg	99
6.979	1.241	1241.1	incongruent	Block1	incongruent/STIM_000.jpg	100
10.314	1.113	1112.8	incongruent	Block1	incongruent/STIM_000.jpg	100
14.362	0.92	920.5	incongruent	Block1	incongruent/STIM_000.jpg	100
18.494	0.966	965.8	incongruent	Block1	incongruent/STIM_001.jpg	99
21.603	1.314	1313.6	incongruent	Block1	incongruent/STIM_001.jpg	99
24.789	1.109	1109.4	incongruent	Block1	incongruent/STIM_001.jpg	100
28.186	0.926	926.0	incongruent	Block1	incongruent/STIM_001.jpg	99
32.437	1.29	1289.8	incongruent	Block1	incongruent/STIM_001.jpg	99
36.612	1.008	1007.8	incongruent	Block1	incongruent/STIM_002.jpg	100
40.703	0.803	803.4	incongruent	Block1	incongruent/STIM_002.jpg	99
44.583	1.097	1097.4	incongruent	Block1	incongruent/STIM_002.jpg	100
48.215	0.776	776.4	incongruent	Block1	incongruent/STIM_002.jpg	99
52.754	1.01	1009.7	incongruent	Block1	incongruent/STIM_002.jpg	99
57.487	0.833	832.6	incongruent	Block1	incongruent/STIM_003.jpg	100
61.991	1.02	1020.5	incongruent	Block1	incongruent/STIM_003.jpg	100
66.434	1.281	1281.4	incongruent	Block1	incongruent/STIM_003.jpg	100
69.715	0.863	862.9	incongruent	Block1	incongruent/STIM_003.jpg	99
74.38	0.921	921.1	incongruent	Block1	incongruent/STIM_003.jpg	99
78.3	1.69	1690.0	incongruent	Block1	incongruent/STIM_004.jpg	100
83.208	1.318	1317.8	incongruent	Block1	incongruent/STIM_004.jpg	99
86.484	1.194	1194.5	incongruent	Block1	incongruent/STIM_004.jpg	99
90.361	1.238	1237.9	incongruent	Block1	incongruent/STIM_004.jpg	100
94.314	1.26	1259.5	incongruent	Block1	incongruent/STIM_004.jpg	99
98.396	1.342	1341.5	incongruent	Block1	incongruent/STIM_005.jpg	99
102.281	1.561	1560.6	incongruent	Block1	incongruent/STIM_005.jpg	99
106.469	0.739	738.9	incongruent	Block1	incongruent/STIM_005.jpg	100
110.163	1.127	1126.8	incongruent	Block1	incongruent/STIM_005.jpg	100
114.419	1.153	1152.9	incongruent	Block1	incongruent/STIM_005.jpg	99
118.907	1.434	1434.3	incongruent	Block1	incongruent/STIM_006.jpg	100
123.06	0.77	770.1	incongruent	Block1	incongruent/STIM_006.jpg	100
126.766	1.4	1400.3	incongruent	Block1	incongruent/STIM_006.jpg	99
130.323	1.197	1196.9	incongruent	Block1	incongruent/STIM_006.jpg	100
135.06	0.745	744.7	incongruent	Block1	incongruent/STIM_006.jpg	99
138.711	1.704	1703.5	incongruent	Block1	incongruent/STIM_007.jpg	99
142.909	1.287	1286.8	incongruent	Block1	incongruent/STIM_007.jpg	99
147.809	1.184	1183.7	incongruent	Block1	incongruent/STIM_007.jpg	99
152.416	1.058	1057.5	incongruent	Block1	incongruent/STIM_007.jpg	100
156.814	0.683	682.7	incongruent	Block1	incongruent/STIM_007.jpg	99
159.793	0.841	841.4	incongruent	Block1	incongruent/STIM_008.jpg	100
163.334	1.294	1294.2	incongruent	Block1	incongruent/STIM_008.jpg	99
167.231	1.368	1367.8	incongruent	Block1	incongruent/STIM_008.jpg	100
171.832	1.076	1075.7	incongruent	Block1	incongruent/STIM_008.jpg	99
176.537	1.22	1219.9	incongruent	Block1	incongruent/STIM_008.jpg	100
179.899	0.975	975.0	incongruent	Block1	incongruent/STIM_009.jpg	99
184.214	1.122	1122.0	incongruent	Block1	incongruent/STIM_009.jpg	99
188.119	1.511	1511.4	incongruent	Block1	incongruent/STIM_009.jpg	99
192.785	1.07	1069.6	incongruent	Block1	incongruent/STIM_009.jpg	100
197.158	1.058	1058.2	incongruent	Block1	incongruent/STIM_009.jpg	100
201.881	1.268	1268.3	incongruent	Block1	incongruent/STIM_010.jpg	100
205.999	0.846	845.6	incongruent	Block1	incongruent/STIM_010.jpg	100
210.29	1.407	1407.4	incongruent	Block1	incongruent/STIM_010.jpg	100
213.614	1.12	1120.1	incongruent	Block1	incongruent/STIM_010.jpg	99
216.915	1.335	1334.7	incongruent	Block1	incongruent/STIM_010.jpg	99
221.402	0.817	817.0	incongruent	Block1	incongruent/STIM_011.jpg	99
224.125	1.498	1498.3	incongruent	Block1	incongruent/STIM_011.jpg	99
227.643	0.793	793.1	incongruent	Block1	incongruent/STIM_011.jpg	99
231.673	1.314	1313.9	incongruent	Block1	incongruent/STIM_011.jpg	99
236.08	0.818	818.3	incongruent	Block1	incongruent/STIM_011.jpg	100
239.746	1.3	1300.4	incongruent	Block1	incongruent/STIM_012.jpg	100
244.005	1.225	1224.6	incongruent	Block1	incongruent/STIM_012.jpg	99
248.198	0.988	988.4	incongruent	Block1	incongruent/STIM_012.jpg	100
251.561	1.01	1010.1	incongruent	Block1	incongruent/STIM_012.jpg	100
255.558	0.919	918.7	incongruent	Block1	incongruent/STIM_012.jpg	100
260.181	1.32	1319.9	incongruent	Block1	incongruent/STIM_013.jpg	100
263.597	1.382	1382.0	incongruent	Block1	incongruent/STIM_013.jpg	99
267.279	1.315	1315.1	incongruent	Block1	incongruent/STIM_013.jpg	100
271.081	0.762	761.6	incongruent	Block1	incongruent/STIM_013.jpg	100
275.103	1.218	1218.1	incongruent	Block1	incongruent/STIM_013.jpg	99
278.542	1.122	1122.4	incongruent	Block1	incongruent/STIM_014.jpg	99
282.009	1.25	1249.8	incongruent	Block1	incongruent/STIM_014.jpg	100
285.716	1.466	1466.0	incongruent	Block1	incongruent/STIM_014.jpg	100
290.619	0.807	806.6	incongruent	Block1	incongruent/STIM_014.jpg	100
294.023	1.11	1109.8	incongruent	Block1	incongruent/STIM_014.jpg	100
297.103	0.971	971.4	incongruent	Block1	incongruent/STIM_015.jpg	100
300.394	0.842	842.5	incongruent	Block1	incongruent/STIM_015.jpg	99
305.005	1.265	1264.7	incongruent	Block1	incongruent/STIM_015.jpg	99
309.241	1.391	1391.2	incongruent	Block1	incongruent/STIM_015.jpg	100
312.821	0.865	864.6	incongruent	Block1	incongruent/STIM_015.jpg	100
317.167	1.086	1086.4	incongruent	Block1	incongruent/STIM_016.jpg	99
320.918	0.783	783.0	incongruent	Block1	incongruent/STIM_016.jpg	99
323.962	0.819	818.6	incongruent	Block1	incongruent/STIM_016.jpg	99
327.242	1.075	1074.6	incongruent	Block1	incongruent/STIM_016.jpg	100
331.523	1.257	1256.7	incongruent	Block1	incongruent/STIM_016.jpg	100
334.869	0.955	955.0	incongruent	Block1	incongruent/STIM_017.jpg	100
339.004	0.775	775.1	incongruent	Block1	incongruent/STIM_017.jpg	99
343.024	1.526	1525.6	incongruent	Block1	incongruent/STIM_017.jpg	99
347.904	0.837	836.7	incongruent	Block1	incongruent/STIM_017.jpg	99
351.561	0.975	974.7	incongruent	Block1	incongruent/STIM_017.jpg	99
354.551	1.223	1223.1	incongruent	Block1	incongruent/STIM_018.jpg	100
359.257	1.292	1291.5	incongruent	Block1	incongruent/STIM_018.jpg	99
362.755	1.118	1118.3	incongruent	Block1	incongruent/STIM_018.jpg	100
367.03	1.4	1400.1	incongruent	Block1	incongruent/STIM_018.jpg	100
371.432	0.733	733.1	incongruent	Block1	incongruent/STIM_018.jpg	100
374.696	1.492	1491.6	incongruent	Block1	incongruent/STIM_019.jpg	100
378.837	0.902	902.1	incongruent	Block1	incongruent/STIM_019.jpg	100
382.498	1.429	1428.9	incongruent	Block1	incongruent/STIM_019.jpg	100
387.363	0.881	881.2	incongruent	Block1	incongruent/STIM_019.jpg	100
390.711	0.828	827.9	incongruent	Block1	incongruent/STIM_019.jpg	99
393.785	1.112	1111.6	incongruent	Block1	incongruent/STIM_020.jpg	99
398.438	1.444	1444.0	incongruent	Block1	incongruent/STIM_020.jpg	99
403.435	0.97	970.5	incongruent	Block1	incongruent/STIM_020.jpg	99
407.603	0.847	847.2	incongruent	Block1	incongruent/STIM_020.jpg	99
411.393	1.275	1274.9	incongruent	Block1	incongruent/STIM_020.jpg	100
414.944	1.14	1139.5	incongruent	Block1	incongruent/STIM_021.jpg	100
418.305	1.297	1297.2	incongruent	Block1	incongruent/STIM_021.jpg	99
421.742	1.454	1454.2	incongruent	Block1	incongruent/STIM_021.jpg	100
426.277	1.149	1149.0	incongruent	Block1	incongruent/STIM_021.jpg	100
430.939	1.312	1311.7	incongruent	Block1	incongruent/STIM_021.jpg	100
434.996	1.237	1236.9	incongruent	Block1	incongruent/STIM_022.jpg	100
439.043	1.55	1550.0	incongruent	Block1	incongruent/STIM_022.jpg	100
442.936	1.327	1327.0	incongruent	Block1	incongruent/STIM_022.jpg	99
446.929	1.119	1119.3	incongruent	Block1	incongruent/STIM_022.jpg	100
450.33	1.337	1336.7	incongruent	Block1	incongruent/STIM_022.jpg	100
453.922	1.298	1298.2	incongruent	Block1	incongruent/STIM_023.jpg	99
458.668	1.211	1210.9	incongruent	Block1	incongruent/STIM_023.jpg	99
462.472	1.121	1121.1	incongruent	Block1	incongruent/STIM_023.jpg	100
466.963	1.066	1066.1	incongruent	Block1	incongruent/STIM_023.jpg	99
470.44	1.228	1228.2	incongruent	Block1	incongruent/STIM_023.jpg	100
474.918	1.114	1114.5	incongruent	Block1	incongruent/STIM_024.jpg	100
478.854	1.361	1361.0	incongruent	Block1	incongruent/STIM_024.jpg	100
482.191	1.025	1025.4	incongruent	Block1	incongruent/STIM_024.jpg	99
485.61	0.728	728.5	incongruent	Block1	incongruent/STIM_024.jpg	99
488.463	0.723	722.9	incongruent	Block1	incongruent/STIM_024.jpg	99
492.956	1.618	1617.5	incongruent	Block1	incongruent/STIM_025.jpg	100
496.476	1.348	1347.8	incongruent	Block1	incongruent/STIM_025.jpg	100
500.467	1.405	1405.3	incongruent	Block1	incongruent/STIM_025.jpg	99
504.084	1.313	1312.6	incongruent	Block1	incongruent/STIM_025.jpg	100
507.656	0.945	945.0	incongruent	Block1	incongruent/STIM_025.jpg	99
510.807	0.847	846.8	incongruent	Block1	incongruent/STIM_026.jpg	100
513.942	1.627	1626.8	incongruent	Block1	incongruent/STIM_026.jpg	100
517.474	1.419	1419.3	incongruent	Block1	incongruent/STIM_026.jpg	99
521.368	1.43	1430.0	incongruent	Block1	incongruent/STIM_026.jpg	99
524.666	0.759	758.8	incongruent	Block1	incongruent/STIM_026.jpg	99
527.698	1.388	1387.8	incongruent	Block1	incongruent/STIM_027.jpg	99
532.419	1.44	1439.7	incongruent	Block1	incongruent/STIM_027.jpg	99
536.549	1.191	1191.3	incongruent	Block1	incongruent/STIM_027.jpg	100
540.246	1.113	1113.1	incongruent	Block1	incongruent/STIM_027.jpg	100
544.221	0.801	800.6	incongruent	Block1	incongruent/STIM_027.jpg	99
548.317	1.138	1137.7	incongruent	Block1	incongruent/STIM_028.jpg	99
552.782	0.905	904.6	incongruent	Block1	incongruent/STIM_028.jpg	99
556.653	1.127	1126.9	incongruent	Block1	incongruent/STIM_028.jpg	100
560.485	0.689	688.9	incongruent	Block1	incongruent/STIM_028.jpg	100
563.845	0.845	844.7	incongruent	Block1	incongruent/STIM_028.jpg	99
567.388	1.415	1415.0	incongruent	Block1	incongruent/STIM_029.jpg	100
571.403	1.377	1377.0	incongruent	Block1	incongruent/STIM_029.jpg	100
576.002	1.274	1273.9	incongruent	Block1	incongruent/STIM_029.jpg	100
579.758	1.392	1391.6	incongruent	Block1	incongruent/STIM_029.jpg	100
584.468	0.675	674.9	incongruent	Block1	incongruent/STIM_029.jpg	100
588.638	0.581	580.8	congruent	Block1	congruent/STIM_000.jpg	100
592.729	0.631	630.6	congruent	Block1	congruent/STIM_000.jpg	99
597.02	0.858	858.0	congruent	Block1	congruent/STIM_000.jpg	99
600.197	0.703	703.2	congruent	Block1	congruent/STIM_000.jpg	100
603.864	0.636	635.9	congruent	Block1	congruent/STIM_000.jpg	100
607.301	1.006	1005.8	congruent	Block1	congruent/STIM_001.jpg	99
611.117	0.777	777.1	congruent	Block1	congruent/STIM_001.jpg	100
615.532	1.022	1022.2	congruent	Block1	congruent/STIM_001.jpg	99
618.821	0.801	800.6	congruent	Block1	congruent/STIM_001.jpg	100
623.376	0.62	620.5	congruent	Block1	congruent/STIM_001.jpg	99
626.867	0.909	909.3	congruent	Block1	congruent/STIM_002.jpg	99
630.512	0.684	684.5	congruent	Block1	congruent/STIM_002.jpg	100
635.066	0.669	669.3	congruent	Block1	congruent/STIM_002.jpg	100
638.628	0.791	791.0	congruent	Block1	congruent/STIM_002.jpg	99
642.141	0.588	588.1	congruent	Block1	congruent/STIM_002.jpg	100
646.024	0.945	944.6	congruent	Block1	congruent/STIM_003.jpg	99
650.613	0.884	884.4	congruent	Block1	congruent/STIM_003.jpg	99
655.361	0.654	653.9	congruent	Block1	congruent/STIM_003.jpg	100
658.307	0.845	844.8	congruent	Block1	congruent/STIM_003.jpg	99
661.312	0.816	815.7	congruent	Block1	congruent/STIM_003.jpg	100
664.276	1.005	1005.2	congruent	Block1	congruent/STIM_004.jpg	100
669.02	0.706	706.5	congruent	Block1	congruent/STIM_004.jpg	99
672.042	1.004	1003.8	congruent	Block1	congruent/STIM_004.jpg	99
676.492	0.91	910.0	congruent	Block1	congruent/STIM_004.jpg	100
681.274	0.6	599.5	congruent	Block1	congruent/STIM_004.jpg	100
684.167	0.598	598.4	congruent	Block1	congruent/STIM_005.jpg	100
688.014	0.972	971.9	congruent	Block1	congruent/STIM_005.jpg	100
691.452	0.728	728.4	congruent	Block1	congruent/STIM_005.jpg	100
694.507	0.577	577.2	congruent	Block1	congruent/STIM_005.jpg	99
698.125	0.858	858.3	congruent	Block1	congruent/STIM_005.jpg	99
701.715	0.584	583.5	congruent	Block1	congruent/STIM_006.jpg	99
704.924	0.908	908.2	congruent	Block1	congruent/STIM_006.jpg	100
708.219	0.856	855.9	congruent	Block1	congruent/STIM_006.jpg	100
712.762	0.657	656.7	congruent	Block1	congruent/STIM_006.jpg	99
715.611	1.024	1024.4	congruent	Block1	congruent/STIM_006.jpg	100
719.583	0.67	669.8	congruent	Block1	congruent/STIM_007.jpg	100
723.531	0.962	962.4	congruent	Block1	congruent/STIM_007.jpg	99
726.563	0.916	915.8	congruent	Block1	congruent/STIM_007.jpg	100
730.366	1.005	1005.3	congruent	Block1	congruent/STIM_007.jpg	100
733.508	0.752	752.4	congruent	Block1	congruent/STIM_007.jpg	100
738.074	0.895	894.9	congruent	Block1	congruent/STIM_008.jpg	100
742.375	0.814	813.7	congruent	Block1	congruent/STIM_008.jpg	99
745.905	0.59	590.0	congruent	Block1	congruent/STIM_008.jpg	99
749.884	0.891	891.4	congruent	Block1	congruent/STIM_008.jpg	100
752.838	0.729	729.1	congruent	Block1	congruent/STIM_008.jpg	99
757.077	0.58	580.2	congruent	Block1	congruent/STIM_009.jpg	100
761.057	0.576	575.6	congruent	Block1	congruent/STIM_009.jpg	100
764.762	0.899	899.0	congruent	Block1	congruent/STIM_009.jpg	100
769.491	1.013	1013.3	congruent	Block1	congruent/STIM_009.jpg	100
773.039	0.927	926.8	congruent	Block1	congruent/STIM_009.jpg	99
777.531	0.775	775.2	congruent	Block1	congruent/STIM_010.jpg	100
780.677	0.854	854.3	congruent	Block1	congruent/STIM_010.jpg	100
783.616	0.763	763.1	congruent	Block1	congruent/STIM_010.jpg	100
787.556	0.7	700.4	congruent	Block1	congruent/STIM_010.jpg	100
791.273	0.701	701.0	congruent	Block1	congruent/STIM_010.jpg	99
794.632	0.868	867.6	congruent	Block1	congruent/STIM_011.jpg	100
798.839	0.95	950.4	congruent	Block1	congruent/STIM_011.jpg	99
802.533	0.703	703.1	congruent	Block1	congruent/STIM_011.jpg	99
805.885	0.726	725.8	congruent	Block1	congruent/STIM_011.jpg	99
810.175	0.735	734.8	congruent	Block1	congruent/STIM_011.jpg	99
812.859	0.678	678.1	congruent	Block1	congruent/STIM_012.jpg	99
816.838	0.845	844.6	congruent	Block1	congruent/STIM_012.jpg	100
820.022	0.983	982.9	congruent	Block1	congruent/STIM_012.jpg	99
823.074	0.6	599.5	congruent	Block1	congruent/STIM_012.jpg	99
827.09	0.86	860.1	congruent	Block1	congruent/STIM_012.jpg	99
830.147	1.02	1019.9	congruent	Block1	congruent/STIM_013.jpg	99
833.453	1.008	1008.3	congruent	Block1	congruent/STIM_013.jpg	99
838.001	0.897	897.4	congruent	Block1	congruent/STIM_013.jpg	99
841.453	0.664	663.6	congruent	Block1	congruent/STIM_013.jpg	99
844.326	0.755	755.4	congruent	Block1	congruent/STIM_013.jpg	100
847.159	0.901	901.1	congruent	Block1	congruent/STIM_014.jpg	99
850.649	0.675	674.9	congruent	Block1	congruent/STIM_014.jpg	100
853.482	0.911	911.0	congruent	Block1	congruent/STIM_014.jpg	99
856.377	0.687	686.9	congruent	Block1	congruent/STIM_014.jpg	100
859.004	0.889	888.6	congruent	Block1	congruent/STIM_014.jpg	100
863.19	0.682	681.7	congruent	Block1	congruent/STIM_015.jpg	100
866.397	0.582	582.0	congruent	Block1	congruent/STIM_015.jpg	100
869.047	0.991	990.9	congruent	Block1	congruent/STIM_015.jpg	100
872.894	0.871	870.9	congruent	Block1	congruent/STIM_015.jpg	100
876.983	0.833	832.6	congruent	Block1	congruent/STIM_015.jpg	99
881.607	1.01	1009.6	congruent	Block1	congruent/STIM_016.jpg	100
884.791	0.873	872.6	congruent	Block1	congruent/STIM_016.jpg	100
888.696	0.595	595.2	congruent	Block1	congruent/STIM_016.jpg	99
891.831	0.881	881.1	congruent	Block1	congruent/STIM_016.jpg	99
895.196	0.92	919.6	congruent	Block1	congruent/STIM_016.jpg	100
898.648	0.623	622.9	congruent	Block1	congruent/STIM_017.jpg	100
903.018	0.664	664.5	congruent	Block1	congruent/STIM_017.jpg	100
906.269	0.839	839.4	congruent	Block1	congruent/STIM_017.jpg	100
910.813	0.796	796.1	congruent	Block1	congruent/STIM_017.jpg	99
914.544	0.742	742.0	congruent	Block1	congruent/STIM_017.jpg	100
919.095	0.738	737.9	congruent	Block1	congruent/STIM_018.jpg	99
923.724	0.788	787.8	congruent	Block1	congruent/STIM_018.jpg	99
926.716	0.869	869.2	congruent	Block1	congruent/STIM_018.jpg	99
931.036	0.757	757.2	congruent	Block1	congruent/STIM_018.jpg	100
935.03	0.587	587.1	congruent	Block1	congruent/STIM_018.jpg	99
937.918	0.586	585.6	congruent	Block1	congruent/STIM_019.jpg	99
941.485	1.027	1026.9	congruent	Block1	congruent/STIM_019.jpg	99
944.746	0.899	899.0	congruent	Block1	congruent/STIM_019.jpg	100
947.914	0.601	601.2	congruent	Block1	congruent/STIM_019.jpg	99
950.671	0.574	573.5	congruent	Block1	congruent/STIM_019.jpg	99
954.505	0.724	723.6	congruent	Block1	congruent/STIM_020.jpg	99
959.088	0.886	886.1	congruent	Block1	congruent/STIM_020.jpg	100
962.225	0.813	813.3	congruent	Block1	congruent/STIM_020.jpg	100
965.067	0.998	998.0	congruent	Block1	congruent/STIM_020.jpg	99
968.03	0.707	706.6	congruent	Block1	congruent/STIM_020.jpg	100
971.824	0.784	783.7	congruent	Block1	congruent/STIM_021.jpg	100
975.394	0.772	771.9	congruent	Block1	congruent/STIM_021.jpg	99
978.347	0.577	576.7	congruent	Block1	congruent/STIM_021.jpg	100
982.133	0.628	628.0	congruent	Block1	congruent/STIM_021.jpg	99
984.719	0.763	762.6	congruent	Block1	congruent/STIM_021.jpg	99
989.153	0.925	924.7	congruent	Block1	congruent/STIM_022.jpg	99
993.313	0.712	711.5	congruent	Block1	congruent/STIM_022.jpg	99
997.211	0.994	994.4	congruent	Block1	congruent/STIM_022.jpg	100
1000.964	0.949	948.9	congruent	Block1	congruent/STIM_022.jpg	99
1004.829	0.882	882.3	congruent	Block1	congruent/STIM_022.jpg	100
1009.463	0.731	731.0	congruent	Block1	congruent/STIM_023.jpg	100
1012.785	0.72	720.5	congruent	Block1	congruent/STIM_023.jpg	100
1017.303	1.02	1019.5	congruent	Block1	congruent/STIM_023.jpg	100
1021.842	0.893	892.9	congruent	Block1	congruent/STIM_023.jpg	100
1025.867	0.655	655.1	congruent	Block1	congruent/STIM_023.jpg	99
1029.428	0.744	743.9	congruent	Block1	congruent/STIM_024.jpg	99
1032.765	0.583	583.1	congruent	Block1	congruent/STIM_024.jpg	99
1035.532	0.998	997.6	congruent	Block1	congruent/STIM_024.jpg	100
1039.524	0.594	593.6	congruent	Block1	congruent/STIM_024.jpg	100
1042.424	0.684	684.2	congruent	Block1	congruent/STIM_024.jpg	99
1045.908	0.716	716.4	congruent	Block1	congruent/STIM_025.jpg	100
1049.544	0.603	603.3	congruent	Block1	congruent/STIM_025.jpg	99
1053.94	0.768	767.6	congruent	Block1	congruent/STIM_025.jpg	99
1056.907	0.943	943.4	congruent	Block1	congruent/STIM_025.jpg	100
1059.793	0.914	913.5	congruent	Block1	congruent/STIM_025.jpg	100
1064.499	0.819	818.6	congruent	Block1	congruent/STIM_026.jpg	99
1068.103	0.994	994.0	congruent	Block1	congruent/STIM_026.jpg	99
1071.543	0.923	922.9	congruent	Block1	congruent/STIM_026.jpg	99
1074.361	0.825	824.8	congruent	Block1	congruent/STIM_026.jpg	99
1077.607	0.713	712.9	congruent	Block1	congruent/STIM_026.jpg	99
1080.325	0.628	628.3	congruent	Block1	congruent/STIM_027.jpg	100
1084.236	0.671	670.8	congruent	Block1	congruent/STIM_027.jpg	100
1088.428	0.977	977.4	congruent	Block1	congruent/STIM_027.jpg	100
1092.388	0.776	775.8	congruent	Block1	congruent/STIM_027.jpg	100
1095.952	0.694	694.4	congruent	Block1	congruent/STIM_027.jpg	100
1099.142	0.962	962.4	congruent	Block1	congruent/STIM_028.jpg	100
1102.283	0.669	669.3	congruent	Block1	congruent/STIM_028.jpg	99
1105.558	0.935	934.9	congruent	Block1	congruent/STIM_028.jpg	99
1110.019	0.905	905.2	congruent	Block1	congruent/STIM_028.jpg	99
1113.512	0.986	985.7	congruent	Block1	congruent/STIM_028.jpg	99
1117.632	0.945	945.0	congruent	Block1	congruent/STIM_029.jpg	99
1120.839	0.576	575.6	congruent	Block1	congruent/STIM_029.jpg	100
1125.198	0.589	588.9	congruent	Block1	congruent/STIM_029.jpg	100
1128.099	0.83	829.7	congruent	Block1	congruent/STIM_029.jpg	99
1132.078	0.799	799.4	congruent	Block1	congruent/STIM_029.jpg	100
1136.49	1.3	1299.6	incongruent	Block2	incongruent/STIM_000.jpg	99
1141.192	1.033	1032.7	incongruent	Block2	incongruent/STIM_000.jpg	100
1145.857	0.984	984.1	incongruent	Block2	incongruent/STIM_000.jpg	100
1149.428	0.76	760.3	incongruent	Block2	incongruent/STIM_000.jpg	100
1153.25	0.788	788.4	incongruent	Block2	incongruent/STIM_000.jpg	99
1156.758	1.139	1138.8	incongruent	Block2	incongruent/STIM_001.jpg	100
1161.614	1.247	1247.3	incongruent	Block2	incongruent/STIM_001.jpg	100
1166.692	1.125	1125.3	incongruent	Block2	incongruent/STIM_001.jpg	99
1170.403	0.614	613.8	incongruent	Block2	incongruent/STIM_001.jpg	100
1174.131	1.024	1024.1	incongruent	Block2	incongruent/STIM_001.jpg	99
1178.52	1.394	1394.3	incongruent	Block2	incongruent/STIM_002.jpg	100
1183.138	1.192	1191.8	incongruent	Block2	incongruent/STIM_002.jpg	100
1187.466	1.025	1024.7	incongruent	Block2	incongruent/STIM_002.jpg	100
1190.577	0.776	776.0	incongruent	Block2	incongruent/STIM_002.jpg	100
1194.621	1.108	1108.2	incongruent	Block2	incongruent/STIM_002.jpg	100
1198.539	1.057	1057.1	incongruent	Block2	incongruent/STIM_003.jpg	100
1202.585	0.813	813.4	incongruent	Block2	incongruent/STIM_003.jpg	100
1205.663	1.242	1241.5	incongruent	Block2	incongruent/STIM_003.jpg	99
1210.356	1.152	1151.5	incongruent	Block2	incongruent/STIM_003.jpg	100
1215.209	1.178	1177.9	incongruent	Block2	incongruent/STIM_003.jpg	99
1218.508	1.244	1244.2	incongruent	Block2	incongruent/STIM_004.jpg	99
1222.975	1.235	1235.2	incongruent	Block2	incongruent/STIM_004.jpg	100
1226.496	1.09	1090.5	incongruent	Block2	incongruent/STIM_004.jpg	99
1231.339	0.808	807.6	incongruent	Block2	incongruent/STIM_004.jpg	99
1235.644	0.79	790.0	incongruent	Block2	incongruent/STIM_004.jpg	100
1239.18	1.005	1005.0	incongruent	Block2	incongruent/STIM_005.jpg	100
1242.539	0.676	675.8	incongruent	Block2	incongruent/STIM_005.jpg	99
1245.809	1.04	1040.0	incongruent	Block2	incongruent/STIM_005.jpg	100
1249.38	0.801	800.8	incongruent	Block2	incongruent/STIM_005.jpg	99
1253.893	1.101	1100.8	incongruent	Block2	incongruent/STIM_005.jpg	99
1257.556	1.35	1350.2	incongruent	Block2	incongruent/STIM_006.jpg	100
1261.24	1.054	1053.5	incongruent	Block2	incongruent/STIM_006.jpg	99
1265.004	1.238	1238.5	incongruent	Block2	incongruent/STIM_006.jpg	99
1268.89	0.594	594.5	incongruent	Block2	incongruent/STIM_006.jpg	100
1273.361	0.879	879.0	incongruent	Block2	incongruent/STIM_006.jpg	99
1276.656	1.068	1067.7	incongruent	Block2	incongruent/STIM_007.jpg	99
1280.523	1.358	1357.6	incongruent	Block2	incongruent/STIM_007.jpg	99
1285.602	0.682	681.5	incongruent	Block2	incongruent/STIM_007.jpg	99
1289.072	1.093	1092.6	incongruent	Block2	incongruent/STIM_007.jpg	100
1293.727	0.63	629.9	incongruent	Block2	incongruent/STIM_007.jpg	100
1296.293	1.222	1221.9	incongruent	Block2	incongruent/STIM_008.jpg	100
1299.637	1.165	1165.0	incongruent	Block2	incongruent/STIM_008.jpg	99
1304.5	1.18	1180.2	incongruent	Block2	incongruent/STIM_008.jpg	100
1309.235	0.995	995.2	incongruent	Block2	incongruent/STIM_008.jpg	99
1313.018	0.587	587.4	incongruent	Block2	incongruent/STIM_008.jpg	100
1317.348	1.41	1410.1	incongruent	Block2	incongruent/STIM_009.jpg	100
1322.475	0.882	881.8	incongruent	Block2	incongruent/STIM_009.jpg	99
1325.497	0.824	823.5	incongruent	Block2	incongruent/STIM_009.jpg	100
1329.572	0.811	810.9	incongruent	Block2	incongruent/STIM_009.jpg	100
1333.803	0.966	965.7	incongruent	Block2	incongruent/STIM_009.jpg	100
1338.295	0.994	993.9	incongruent	Block2	incongruent/STIM_010.jpg	100
1342.703	0.794	793.6	incongruent	Block2	incongruent/STIM_010.jpg	99
1347.216	1.105	1105.4	incongruent	Block2	incongruent/STIM_010.jpg	99
1351.398	0.696	696.3	incongruent	Block2	incongruent/STIM_010.jpg	99
1354.476	0.934	934.1	incongruent	Block2	incongruent/STIM_010.jpg	100
1357.902	0.972	971.8	incongruent	Block2	incongruent/STIM_011.jpg	100
1360.767	1.239	1239.3	incongruent	Block2	incongruent/STIM_011.jpg	100
1365.136	0.786	785.5	incongruent	Block2	incongruent/STIM_011.jpg	100
1368.981	1.022	1022.1	incongruent	Block2	incongruent/STIM_011.jpg	99
1372.822	0.647	647.0	incongruent	Block2	incongruent/STIM_011.jpg	99
1376.223	1.431	1430.9	incongruent	Block2	incongruent/STIM_012.jpg	99
1379.72	0.764	764.2	incongruent	Block2	incongruent/STIM_012.jpg	100
1382.759	0.888	888.5	incongruent	Block2	incongruent/STIM_012.jpg	100
1385.7	0.974	974.5	incongruent	Block2	incongruent/STIM_012.jpg	99
1389.75	0.932	932.4	incongruent	Block2	incongruent/STIM_012.jpg	100
1393.044	1.409	1409.0	incongruent	Block2	incongruent/STIM_013.jpg	100
1397.35	0.656	656.1	incongruent	Block2	incongruent/STIM_013.jpg	100
1400.19	1.023	1022.6	incongruent	Block2	incongruent/STIM_013.jpg	99
1403.265	1.037	1037.2	incongruent	Block2	incongruent/STIM_013.jpg	100
1406.957	0.637	637.4	incongruent	Block2	incongruent/STIM_013.jpg	100
1411.494	0.886	886.5	incongruent	Block2	incongruent/STIM_014.jpg	100
1416.005	1.177	1177.0	incongruent	Block2	incongruent/STIM_014.jpg	100
1420.793	1.134	1133.9	incongruent	Block2	incongruent/STIM_014.jpg	100
1425.533	0.587	587.2	incongruent	Block2	incongruent/STIM_014.jpg	99
1429.586	0.797	797.0	incongruent	Block2	incongruent/STIM_014.jpg	99
1432.989	0.771	771.2	incongruent	Block2	incongruent/STIM_015.jpg	100
1435.685	1.254	1253.7	incongruent	Block2	incongruent/STIM_015.jpg	100
1439.85	0.654	654.1	incongruent	Block2	incongruent/STIM_015.jpg	99
1442.527	1.145	1145.4	incongruent	Block2	incongruent/STIM_015.jpg	99
1445.611	0.723	722.9	incongruent	Block2	incongruent/STIM_015.jpg	100
1448.255	1.021	1020.7	incongruent	Block2	incongruent/STIM_016.jpg	100
1452.749	1.268	1267.5	incongruent	Block2	incongruent/STIM_016.jpg	99
1456.208	1.014	1014.4	incongruent	Block2	incongruent/STIM_016.jpg	99
1460.009	0.587	587.4	incongruent	Block2	incongruent/STIM_016.jpg	99
1462.934	0.768	768.2	incongruent	Block2	incongruent/STIM_016.jpg	99
1466.489	1.29	1290.5	incongruent	Block2	incongruent/STIM_017.jpg	100
1471.617	0.992	991.5	incongruent	Block2	incongruent/STIM_017.jpg	100
1475.033	1.235	1235.0	incongruent	Block2	incongruent/STIM_017.jpg	99
1478.748	0.82	820.0	incongruent	Block2	incongruent/STIM_017.jpg	100
1481.976	1.127	1126.6	incongruent	Block2	incongruent/STIM_017.jpg	100
1486.262	0.907	907.0	incongruent	Block2	incongruent/STIM_018.jpg	100
1490.54	1.366	1366.1	incongruent	Block2	incongruent/STIM_018.jpg	100
1493.955	1.077	1076.7	incongruent	Block2	incongruent/STIM_018.jpg	99
1497.725	0.76	760.0	incongruent	Block2	incongruent/STIM_018.jpg	99
1501.649	0.697	696.7	incongruent	Block2	incongruent/STIM_018.jpg	99
1506.018	1.32	1320.3	incongruent	Block2	incongruent/STIM_019.jpg	100
1510.35	1.299	1298.9	incongruent	Block2	incongruent/STIM_019.jpg	99
1515.31	1.16	1159.6	incongruent	Block2	incongruent/STIM_019.jpg	99
1519.891	0.937	937.4	incongruent	Block2	incongruent/STIM_019.jpg	99
1523.312	0.607	606.7	incongruent	Block2	incongruent/STIM_019.jpg	100
1526.786	0.944	944.2	incongruent	Block2	incongruent/STIM_020.jpg	100
1531.284	1.063	1062.9	incongruent	Block2	incongruent/STIM_020.jpg	99
1535.797	1.04	1040.4	incongruent	Block2	incongruent/STIM_020.jpg	99
1539.874	0.773	772.8	incongruent	Block2	incongruent/STIM_020.jpg	99
1543.159	0.902	901.5	incongruent	Block2	incongruent/STIM_020.jpg	100
1547.272	0.811	811.1	incongruent	Block2	incongruent/STIM_021.jpg	100
1551.834	1.104	1104.2	incongruent	Block2	incongruent/STIM_021.jpg	100
1555.553	1.173	1172.6	incongruent	Block2	incongruent/STIM_021.jpg	99
1559.302	1.011	1010.6	incongruent	Block2	incongruent/STIM_021.jpg	100
1562.487	0.675	675.4	incongruent	Block2	incongruent/STIM_021.jpg	100
1566.548	0.938	937.7	incongruent	Block2	incongruent/STIM_022.jpg	100
1571.353	0.748	747.9	incongruent	Block2	incongruent/STIM_022.jpg	99
1575.407	0.701	701.4	incongruent	Block2	incongruent/STIM_022.jpg	100
1578.595	1.043	1042.8	incongruent	Block2	incongruent/STIM_022.jpg	100
1582.629	0.902	902.1	incongruent	Block2	incongruent/STIM_022.jpg	99
1586.636	1.407	1406.8	incongruent	Block2	incongruent/STIM_023.jpg	100
1591.035	0.981	981.2	incongruent	Block2	incongruent/STIM_023.jpg	100
1595.647	0.682	681.5	incongruent	Block2	incongruent/STIM_023.jpg	100
1598.833	0.588	588.0	incongruent	Block2	incongruent/STIM_023.jpg	100
1602.262	0.986	985.5	incongruent	Block2	incongruent/STIM_023.jpg	100
1606.501	0.898	897.9	incongruent	Block2	incongruent/STIM_024.jpg	100
1610.333	1.28	1279.5	incongruent	Block2	incongruent/STIM_024.jpg	99
1613.826	1.228	1228.1	incongruent	Block2	incongruent/STIM_024.jpg	100
1618.2	0.606	606.5	incongruent	Block2	incongruent/STIM_024.jpg	99
1621.219	0.84	840.4	incongruent	Block2	incongruent/STIM_024.jpg	100
1625.166	1.412	1412.4	incongruent	Block2	incongruent/STIM_025.jpg	100
1628.848	0.72	720.2	incongruent	Block2	incongruent/STIM_025.jpg	100
1631.479	0.891	891.0	incongruent	Block2	incongruent/STIM_025.jpg	99
1635.63	0.696	696.1	incongruent	Block2	incongruent/STIM_025.jpg	99
1638.56	0.731	731.3	incongruent	Block2	incongruent/STIM_025.jpg	99
1642.757	0.746	746.0	incongruent	Block2	incongruent/STIM_026.jpg	100
1645.501	1.141	1140.8	incongruent	Block2	incongruent/STIM_026.jpg	99
1649.152	1.117	1117.0	incongruent	Block2	incongruent/STIM_026.jpg	99
1652.275	0.585	585.1	incongruent	Block2	incongruent/STIM_026.jpg	99
1656.482	0.739	738.7	incongruent	Block2	incongruent/STIM_026.jpg	100
1660.253	1.411	1411.3	incongruent	Block2	incongruent/STIM_027.jpg	99
1664.209	0.98	980.3	incongruent	Block2	incongruent/STIM_027.jpg	100
1667.365	1.083	1082.6	incongruent	Block2	incongruent/STIM_027.jpg	100
1671.812	0.948	947.6	incongruent	Block2	incongruent/STIM_027.jpg	100
1676.377	0.967	967.4	incongruent	Block2	incongruent/STIM_027.jpg	100
1681.161	1.399	1399.2	incongruent	Block2	incongruent/STIM_028.jpg	100
1686.018	0.677	677.3	incongruent	Block2	incongruent/STIM_028.jpg	99
1689.219	1.111	1110.6	incongruent	Block2	incongruent/STIM_028.jpg	100
1692.823	0.622	622.3	incongruent	Block2	incongruent/STIM_028.jpg	99
1696.29	1.039	1039.2	incongruent	Block2	incongruent/STIM_028.jpg	100
1700.433	1.192	1192.1	incongruent	Block2	incongruent/STIM_029.jpg	99
1704.593	1.028	1027.8	incongruent	Block2	incongruent/STIM_029.jpg	99
1708.663	1.182	1181.9	incongruent	Block2	incongruent/STIM_029.jpg	100
1712.934	0.957	956.7	incongruent	Block2	incongruent/STIM_029.jpg	100
1716.165	0.84	840.1	incongruent	Block2	incongruent/STIM_029.jpg	99
1720.831	0.891	890.7	congruent	Block2	congruent/STIM_000.jpg	99
1724.443	0.866	866.1	congruent	Block2	congruent/STIM_000.jpg	100
1728.708	0.977	977.0	congruent	Block2	congruent/STIM_000.jpg	100
1732.099	1.003	1003.4	congruent	Block2	congruent/STIM_000.jpg	100
1735.216	0.76	760.2	congruent	Block2	congruent/STIM_000.jpg	99
1738.424	0.701	701.1	congruent	Block2	congruent/STIM_001.jpg	100
1742.455	0.728	727.8	congruent	Block2	congruent/STIM_001.jpg	99
1745.305	0.854	854.3	congruent	Block2	congruent/STIM_001.jpg	99
1749.842	0.754	754.1	congruent	Block2	congruent/STIM_001.jpg	99
1754.423	0.907	907.2	congruent	Block2	congruent/STIM_001.jpg	99
1758.865	0.631	631.4	congruent	Block2	congruent/STIM_002.jpg	99
1763.271	0.63	630.1	congruent	Block2	congruent/STIM_002.jpg	99
1765.903	0.776	775.8	congruent	Block2	congruent/STIM_002.jpg	100
1769.386	0.984	984.1	congruent	Block2	congruent/STIM_002.jpg	99
1773.363	0.708	708.3	congruent	Block2	congruent/STIM_002.jpg	100
1777.241	0.742	742.5	congruent	Block2	congruent/STIM_003.jpg	99
1780.732	0.982	982.0	congruent	Block2	congruent/STIM_003.jpg	100
1785.384	0.932	931.9	congruent	Block2	congruent/STIM_003.jpg	100
1789.483	0.855	854.9	congruent	Block2	congruent/STIM_003.jpg	100
1792.382	0.72	719.5	congruent	Block2	congruent/STIM_003.jpg	99
1796.217	0.61	609.7	congruent	Block2	congruent/STIM_004.jpg	100
1800.126	1.007	1007.4	congruent	Block2	congruent/STIM_004.jpg	99
1804.484	0.711	711.1	congruent	Block2	congruent/STIM_004.jpg	100
1808.037	0.755	755.0	congruent	Block2	congruent/STIM_004.jpg	100
1811.194	0.856	856.3	congruent	Block2	congruent/STIM_004.jpg	100
1815.809	0.647	646.9	congruent	Block2	congruent/STIM_005.jpg	99
1819.495	0.647	647.2	congruent	Block2	congruent/STIM_005.jpg	100
1823.984	0.814	814.1	congruent	Block2	congruent/STIM_005.jpg	100
1827.569	0.877	877.4	congruent	Block2	congruent/STIM_005.jpg	99
1831.972	0.582	581.9	congruent	Block2	congruent/STIM_005.jpg	99
1835.841	0.732	732.1	congruent	Block2	congruent/STIM_006.jpg	99
1839.259	0.589	588.9	congruent	Block2	congruent/STIM_006.jpg	100
1842.008	0.803	803.1	congruent	Block2	congruent/STIM_006.jpg	99
1846.336	0.673	672.8	congruent	Block2	congruent/STIM_006.jpg	99
1849.985	0.595	594.8	congruent	Block2	congruent/STIM_006.jpg	99
1852.522	0.616	615.9	congruent	Block2	congruent/STIM_007.jpg	99
1856.257	0.614	614.1	congruent	Block2	congruent/STIM_007.jpg	99
1859.246	0.844	844.2	congruent	Block2	congruent/STIM_007.jpg	100
1862.265	0.806	805.6	congruent	Block2	congruent/STIM_007.jpg	99
1865.802	0.952	952.1	congruent	Block2	congruent/STIM_007.jpg	100
1869.666	0.751	751.4	congruent	Block2	congruent/STIM_008.jpg	100
1872.368	0.917	916.8	congruent	Block2	congruent/STIM_008.jpg	99
1875.366	1.024	1024.3	congruent	Block2	congruent/STIM_008.jpg	100
1878.524	0.935	935.2	congruent	Block2	congruent/STIM_008.jpg	100
1883.181	0.784	783.6	congruent	Block2	congruent/STIM_008.jpg	99
1887.056	0.903	902.9	congruent	Block2	congruent/STIM_009.jpg	99
1891.113	0.807	807.1	congruent	Block2	congruent/STIM_009.jpg	100
1895.75	0.761	761.2	congruent	Block2	congruent/STIM_009.jpg	100
1899.827	0.701	701.2	congruent	Block2	congruent/STIM_009.jpg	99
1903.679	0.761	760.7	congruent	Block2	congruent/STIM_009.jpg	99
1906.813	0.77	770.1	congruent	Block2	congruent/STIM_010.jpg	100
1911.284	0.962	961.8	congruent	Block2	congruent/STIM_010.jpg	99
1915.737	0.77	770.0	congruent	Block2	congruent/STIM_010.jpg	100
1918.999	0.992	992.0	congruent	Block2	congruent/STIM_010.jpg	100
1923.238	0.679	678.9	congruent	Block2	congruent/STIM_010.jpg	99
1925.98	0.937	936.7	congruent	Block2	congruent/STIM_011.jpg	99
1929.282	0.697	696.9	congruent	Block2	congruent/STIM_011.jpg	99
1932.42	0.668	667.8	congruent	Block2	congruent/STIM_011.jpg	100
1936.844	0.636	636.0	congruent	Block2	congruent/STIM_011.jpg	100
1939.611	0.963	963.3	congruent	Block2	congruent/STIM_011.jpg	99
1942.758	0.746	746.3	congruent	Block2	congruent/STIM_012.jpg	100
1947.304	0.755	755.3	congruent	Block2	congruent/STIM_012.jpg	99
1951.112	1.01	1009.7	congruent	Block2	congruent/STIM_012.jpg	100
1955.675	1.022	1021.8	congruent	Block2	congruent/STIM_012.jpg	99
1959.325	0.92	920.5	congruent	Block2	congruent/STIM_012.jpg	99
1963.371	0.82	819.5	congruent	Block2	congruent/STIM_013.jpg	99
1967.886	0.872	871.7	congruent	Block2	congruent/STIM_013.jpg	100
1970.959	0.648	648.5	congruent	Block2	congruent/STIM_013.jpg	100
1974.437	0.888	887.8	congruent	Block2	congruent/STIM_013.jpg	100
1979.064	0.67	670.5	congruent	Block2	congruent/STIM_013.jpg	99
1982.912	0.813	812.9	congruent	Block2	congruent/STIM_014.jpg	99
1987.328	0.815	815.0	congruent	Block2	congruent/STIM_014.jpg	99
1991.568	0.943	943.2	congruent	Block2	congruent/STIM_014.jpg	100
1995.36	0.762	762.2	congruent	Block2	congruent/STIM_014.jpg	100
1998.385	0.742	741.9	congruent	Block2	congruent/STIM_014.jpg	99
2002.135	0.587	587.2	congruent	Block2	congruent/STIM_015.jpg	100
2005.572	0.68	680.1	congruent	Block2	congruent/STIM_015.jpg	100
2010.024	0.918	918.5	congruent	Block2	congruent/STIM_015.jpg	99
2013.13	0.658	658.3	congruent	Block2	congruent/STIM_015.jpg	99
2016.149	0.942	942.2	congruent	Block2	congruent/STIM_015.jpg	100
2019.738	0.697	697.0	congruent	Block2	congruent/STIM_016.jpg	100
2022.687	1.011	1010.6	congruent	Block2	congruent/STIM_016.jpg	99
2027.066	0.784	783.7	congruent	Block2	congruent/STIM_016.jpg	100
2030.89	0.798	798.5	congruent	Block2	congruent/STIM_016.jpg	99
2034.68	0.914	914.0	congruent	Block2	congruent/STIM_016.jpg	99
2038.764	0.885	885.0	congruent	Block2	congruent/STIM_017.jpg	99
2042.423	0.746	746.2	congruent	Block2	congruent/STIM_017.jpg	100
2045.986	0.814	813.7	congruent	Block2	congruent/STIM_017.jpg	99
2049.268	0.82	819.8	congruent	Block2	congruent/STIM_017.jpg	100
2053.267	0.706	706.4	congruent	Block2	congruent/STIM_017.jpg	100
2057.578	0.687	687.0	congruent	Block2	congruent/STIM_018.jpg	99
2060.255	0.804	804.1	congruent	Block2	congruent/STIM_018.jpg	100
2064.207	0.768	767.5	congruent	Block2	congruent/STIM_018.jpg	99
2068.585	0.701	701.0	congruent	Block2	congruent/STIM_018.jpg	100
2072.969	0.905	905.4	congruent	Block2	congruent/STIM_018.jpg	99
2076.914	0.973	973.4	congruent	Block2	congruent/STIM_019.jpg	99
2080.938	0.584	583.9	congruent	Block2	congruent/STIM_019.jpg	99
2084.288	0.793	792.9	congruent	Block2	congruent/STIM_019.jpg	99
2087.421	0.595	595.3	congruent	Block2	congruent/STIM_019.jpg	100
2091.0	0.742	742.0	congruent	Block2	congruent/STIM_019.jpg	99
2094.493	0.964	964.3	congruent	Block2	congruent/STIM_020.jpg	99
2099.224	0.996	996.5	congruent	Block2	congruent/STIM_020.jpg	100
2102.74	0.997	996.7	congruent	Block2	congruent/STIM_020.jpg	100
2105.906	0.635	634.9	congruent	Block2	congruent/STIM_020.jpg	99
2109.694	0.697	697.4	congruent	Block2	congruent/STIM_020.jpg	100
2113.06	0.816	815.9	congruent	Block2	congruent/STIM_021.jpg	99
2116.283	0.781	780.6	congruent	Block2	congruent/STIM_021.jpg	100
2120.267	1.024	1023.6	congruent	Block2	congruent/STIM_021.jpg	100
2124.692	0.644	643.8	congruent	Block2	congruent/STIM_021.jpg	100
2127.576	0.893	893.4	congruent	Block2	congruent/STIM_021.jpg	100
2131.293	0.614	614.0	congruent	Block2	congruent/STIM_022.jpg	99
2135.231	0.86	859.5	congruent	Block2	congruent/STIM_022.jpg	100
2138.74	0.878	878.4	congruent	Block2	congruent/STIM_022.jpg	100
2142.388	0.694	694.2	congruent	Block2	congruent/STIM_022.jpg	100
2146.081	0.654	654.4	congruent	Block2	congruent/STIM_022.jpg	100
2150.186	0.912	911.6	congruent	Block2	congruent/STIM_023.jpg	100
2153.89	0.714	714.1	congruent	Block2	congruent/STIM_023.jpg	99
2156.618	0.931	930.7	congruent	Block2	congruent/STIM_023.jpg	99
2160.688	0.972	972.4	congruent	Block2	congruent/STIM_023.jpg	99
2164.927	0.658	658.1	congruent	Block2	congruent/STIM_023.jpg	100
2167.993	0.678	678.1	congruent	Block2	congruent/STIM_024.jpg	100
2171.898	0.753	753.1	congruent	Block2	congruent/STIM_024.jpg	100
2175.661	0.67	669.7	congruent	Block2	congruent/STIM_024.jpg	100
2179.738	0.67	669.5	congruent	Block2	congruent/STIM_024.jpg	100
2182.45	0.608	608.4	congruent	Block2	congruent/STIM_024.jpg	99
2185.361	0.751	751.1	congruent	Block2	congruent/STIM_025.jpg	99
2188.814	0.678	677.8	congruent	Block2	congruent/STIM_025.jpg	100
2192.387	0.725	725.0	congruent	Block2	congruent/STIM_025.jpg	100
2196.832	0.853	852.9	congruent	Block2	congruent/STIM_025.jpg	100
2199.941	0.89	890.3	congruent	Block2	congruent/STIM_025.jpg	99
2202.945	0.799	799.3	congruent	Block2	congruent/STIM_026.jpg	100
2206.37	0.735	734.9	congruent	Block2	congruent/STIM_026.jpg	99
2210.434	0.724	723.6	congruent	Block2	congruent/STIM_026.jpg	100
2213.193	0.739	739.2	congruent	Block2	congruent/STIM_026.jpg	100
2217.014	0.813	812.6	congruent	Block2	congruent/STIM_026.jpg	100
2220.144	0.73	730.0	congruent	Block2	congruent/STIM_027.jpg	100
2222.94	0.958	958.1	congruent	Block2	congruent/STIM_027.jpg	99
2227.102	0.636	635.6	congruent	Block2	congruent/STIM_027.jpg	99
2231.203	0.94	940.1	congruent	Block2	congruent/STIM_027.jpg	99
2235.681	0.69	689.6	congruent	Block2	congruent/STIM_027.jpg	99
2239.654	0.864	864.0	congruent	Block2	congruent/STIM_028.jpg	100
2242.806	1.006	1005.7	congruent	Block2	congruent/STIM_028.jpg	99
2247.347	0.916	915.7	congruent	Block2	congruent/STIM_028.jpg	100
2251.624	0.789	789.3	congruent	Block2	congruent/STIM_028.jpg	99
2255.212	0.666	666.5	congruent	Block2	congruent/STIM_028.jpg	99
2258.436	0.965	964.9	congruent	Block2	congruent/STIM_029.jpg	99
2261.851	0.623	622.7	congruent	Block2	congruent/STIM_029.jpg	99
2264.89	0.813	813.3	congruent	Block2	congruent/STIM_029.jpg	100
2269.419	0.926	925.6	congruent	Block2	congruent/STIM_029.jpg	100
2272.292	0.698	697.5	congruent	Block2	congruent/STIM_029.jpg	100
2275.864	0.954	954.3	incongruent	Block3	incongruent/STIM_000.jpg	99
2279.325	0.69	689.6	incongruent	Block3	incongruent/STIM_000.jpg	99
2283.278	1.017	1017.1	incongruent	Block3	incongruent/STIM_000.jpg	99
2287.987	1.092	1091.9	incongruent	Block3	incongruent/STIM_000.jpg	99
2292.619	0.686	685.7	incongruent	Block3	incongruent/STIM_000.jpg	99
2296.319	0.868	868.3	incongruent	Block3	incongruent/STIM_001.jpg	99
2300.139	0.799	798.8	incongruent	Block3	incongruent/STIM_001.jpg	99
2304.08	0.883	883.4	incongruent	Block3	incongruent/STIM_001.jpg	99
2308.297	1.141	1140.9	incongruent	Block3	incongruent/STIM_001.jpg	99
2312.392	0.727	726.7	incongruent	Block3	incongruent/STIM_001.jpg	99
2316.47	1.069	1068.9	incongruent	Block3	incongruent/STIM_002.jpg	100
2320.719	1.139	1138.8	incongruent	Block3	incongruent/STIM_002.jpg	99
2324.543	1.124	1123.7	incongruent	Block3	incongruent/STIM_002.jpg	99
2328.968	0.674	674.2	incongruent	Block3	incongruent/STIM_002.jpg	99
2332.832	1.112	1111.5	incongruent	Block3	incongruent/STIM_002.jpg	99
2336.263	1.108	1108.2	incongruent	Block3	incongruent/STIM_003.jpg	100
2340.817	0.906	905.6	incongruent	Block3	incongruent/STIM_003.jpg	100
2345.425	0.768	767.8	incongruent	Block3	incongruent/STIM_003.jpg	99
2349.173	1.168	1167.6	incongruent	Block3	incongruent/STIM_003.jpg	99
2353.089	1.085	1085.3	incongruent	Block3	incongruent/STIM_003.jpg	100
2357.127	0.996	995.6	incongruent	Block3	incongruent/STIM_004.jpg	100
2361.652	0.617	617.3	incongruent	Block3	incongruent/STIM_004.jpg	99
2365.295	0.693	692.7	incongruent	Block3	incongruent/STIM_004.jpg	100
2368.681	0.666	666.0	incongruent	Block3	incongruent/STIM_004.jpg	99
2372.57	1.115	1115.1	incongruent	Block3	incongruent/STIM_004.jpg	99
2377.213	1.129	1128.8	incongruent	Block3	incongruent/STIM_005.jpg	100
2380.44	0.908	908.0	incongruent	Block3	incongruent/STIM_005.jpg	100
2383.947	1.011	1011.2	incongruent	Block3	incongruent/STIM_005.jpg	99
2387.05	1.014	1014.4	incongruent	Block3	incongruent/STIM_005.jpg	100
2390.604	1.057	1056.8	incongruent	Block3	incongruent/STIM_005.jpg	100
2393.599	1.065	1065.1	incongruent	Block3	incongruent/STIM_006.jpg	99
2397.071	1.14	1139.7	incongruent	Block3	incongruent/STIM_006.jpg	99
2401.195	0.806	805.5	incongruent	Block3	incongruent/STIM_006.jpg	99
2404.271	0.786	785.9	incongruent	Block3	incongruent/STIM_006.jpg	99
2408.802	0.775	775.0	incongruent	Block3	incongruent/STIM_006.jpg	100
2412.525	0.892	891.6	incongruent	Block3	incongruent/STIM_007.jpg	99
2417.037	0.834	834.0	incongruent	Block3	incongruent/STIM_007.jpg	99
2421.559	0.761	761.4	incongruent	Block3	incongruent/STIM_007.jpg	100
2425.034	0.974	973.9	incongruent	Block3	incongruent/STIM_007.jpg	99
2429.877	1.018	1017.9	incongruent	Block3	incongruent/STIM_007.jpg	100
2432.788	0.946	946.4	incongruent	Block3	incongruent/STIM_008.jpg	99
2435.87	1.148	1148.3	incongruent	Block3	incongruent/STIM_008.jpg	100
2439.808	0.764	764.4	incongruent	Block3	incongruent/STIM_008.jpg	100
2443.244	0.878	878.5	incongruent	Block3	incongruent/STIM_008.jpg	100
2447.965	0.788	787.5	incongruent	Block3	incongruent/STIM_008.jpg	99
2450.698	0.992	991.7	incongruent	Block3	incongruent/STIM_009.jpg	100
2453.876	1.108	1107.5	incongruent	Block3	incongruent/STIM_009.jpg	100
2458.023	0.894	894.2	incongruent	Block3	incongruent/STIM_009.jpg	99
2461.922	1.178	1177.5	incongruent	Block3	incongruent/STIM_009.jpg	99
2466.859	0.693	692.9	incongruent	Block3	incongruent/STIM_009.jpg	99
2471.115	0.91	910.4	incongruent	Block3	incongruent/STIM_010.jpg	99
2474.656	1.131	1130.9	incongruent	Block3	incongruent/STIM_010.jpg	100
2478.703	1.189	1188.6	incongruent	Block3	incongruent/STIM_010.jpg	100
2482.44	1.192	1192.1	incongruent	Block3	incongruent/STIM_010.jpg	99
2486.102	1.13	1130.5	incongruent	Block3	incongruent/STIM_010.jpg	100
2490.855	1.197	1196.7	incongruent	Block3	incongruent/STIM_011.jpg	99
2495.482	1.128	1127.6	incongruent	Block3	incongruent/STIM_011.jpg	99
2499.45	1.046	1045.5	incongruent	Block3	incongruent/STIM_011.jpg	99
2503.251	0.84	840.2	incongruent	Block3	incongruent/STIM_011.jpg	100
2507.643	1.172	1171.9	incongruent	Block3	incongruent/STIM_011.jpg	100
2510.868	0.619	619.4	incongruent	Block3	incongruent/STIM_012.jpg	99
2515.337	0.866	865.9	incongruent	Block3	incongruent/STIM_012.jpg	99
2519.69	1.078	1078.1	incongruent	Block3	incongruent/STIM_012.jpg	100
2523.683	0.907	906.7	incongruent	Block3	incongruent/STIM_012.jpg	100
2526.898	1.027	1026.8	incongruent	Block3	incongruent/STIM_012.jpg	100
2529.973	0.858	857.7	incongruent	Block3	incongruent/STIM_013.jpg	100
2532.814	0.589	588.7	incongruent	Block3	incongruent/STIM_013.jpg	100
2537.218	0.941	941.3	incongruent	Block3	incongruent/STIM_013.jpg	100
2541.051	0.753	752.9	incongruent	Block3	incongruent/STIM_013.jpg	100
2545.08	1.069	1068.7	incongruent	Block3	incongruent/STIM_013.jpg	99
2548.416	0.642	641.9	incongruent	Block3	incongruent/STIM_014.jpg	100
2552.66	0.962	961.5	incongruent	Block3	incongruent/STIM_014.jpg	100
2556.426	0.95	950.5	incongruent	Block3	incongruent/STIM_014.jpg	100
2559.814	0.909	909.3	incongruent	Block3	incongruent/STIM_014.jpg	99
2563.677	0.842	842.3	incongruent	Block3	incongruent/STIM_014.jpg	99
2567.638	0.597	597.1	incongruent	Block3	incongruent/STIM_015.jpg	99
2570.342	0.644	644.1	incongruent	Block3	incongruent/STIM_015.jpg	100
2574.767	1.0	1000.2	incongruent	Block3	incongruent/STIM_015.jpg	99
2579.419	0.703	703.4	incongruent	Block3	incongruent/STIM_015.jpg	99
2583.869	1.005	1005.1	incongruent	Block3	incongruent/STIM_015.jpg	99
2588.127	0.895	894.9	incongruent	Block3	incongruent/STIM_016.jpg	99
2592.609	0.837	836.8	incongruent	Block3	incongruent/STIM_016.jpg	99
2595.953	1.162	1161.7	incongruent	Block3	incongruent/STIM_016.jpg	99
2599.639	0.743	742.7	incongruent	Block3	incongruent/STIM_016.jpg	100
2603.035	1.099	1098.9	incongruent	Block3	incongruent/STIM_016.jpg	99
2606.583	1.194	1194.4	incongruent	Block3	incongruent/STIM_017.jpg	99
2611.322	1.056	1055.7	incongruent	Block3	incongruent/STIM_017.jpg	100
2614.779	0.865	865.4	incongruent	Block3	incongruent/STIM_017.jpg	99
2618.913	1.051	1051.2	incongruent	Block3	incongruent/STIM_017.jpg	99
2623.717	1.161	1161.2	incongruent	Block3	incongruent/STIM_017.jpg	99
2628.224	0.573	573.2	incongruent	Block3	incongruent/STIM_018.jpg	100
2631.198	0.697	697.2	incongruent	Block3	incongruent/STIM_018.jpg	99
2634.385	0.588	587.6	incongruent	Block3	incongruent/STIM_018.jpg	100
2637.582	0.706	706.0	incongruent	Block3	incongruent/STIM_018.jpg	100
2640.598	0.679	678.7	incongruent	Block3	incongruent/STIM_018.jpg	99
2643.255	0.898	898.4	incongruent	Block3	incongruent/STIM_019.jpg	100
2646.871	0.946	945.5	incongruent	Block3	incongruent/STIM_019.jpg	100
2650.707	1.058	1058.3	incongruent	Block3	incongruent/STIM_019.jpg	100
2655.332	1.073	1073.0	incongruent	Block3	incongruent/STIM_019.jpg	99
2659.601	0.603	603.3	incongruent	Block3	incongruent/STIM_019.jpg	100
2662.405	1.178	1177.9	incongruent	Block3	incongruent/STIM_020.jpg	99
2666.999	0.691	691.4	incongruent	Block3	incongruent/STIM_020.jpg	100
2670.951	1.106	1105.6	incongruent	Block3	incongruent/STIM_020.jpg	99
2673.929	0.763	763.1	incongruent	Block3	incongruent/STIM_020.jpg	100
2677.321	0.612	611.6	incongruent	Block3	incongruent/STIM_020.jpg	100
2680.57	1.019	1018.7	incongruent	Block3	incongruent/STIM_021.jpg	100
2685.445	0.704	704.2	incongruent	Block3	incongruent/STIM_021.jpg	100
2689.417	0.683	682.6	incongruent	Block3	incongruent/STIM_021.jpg	100
2693.321	0.966	966.4	incongruent	Block3	incongruent/STIM_021.jpg	100
2698.117	0.996	995.9	incongruent	Block3	incongruent/STIM_021.jpg	100
2702.818	0.644	644.4	incongruent	Block3	incongruent/STIM_022.jpg	100
2706.932	0.881	881.4	incongruent	Block3	incongruent/STIM_022.jpg	100
2710.197	1.091	1090.7	incongruent	Block3	incongruent/STIM_022.jpg	99
2714.252	0.8	800.2	incongruent	Block3	incongruent/STIM_022.jpg	100
2718.132	0.696	696.1	incongruent	Block3	incongruent/STIM_022.jpg	99
2721.382	0.85	850.0	incongruent	Block3	incongruent/STIM_023.jpg	99
2726.028	1.099	1099.2	incongruent	Block3	incongruent/STIM_023.jpg	99
2729.902	1.06	1060.1	incongruent	Block3	incongruent/STIM_023.jpg	99
2733.938	1.015	1015.2	incongruent	Block3	incongruent/STIM_023.jpg	100
2737.859	1.091	1090.9	incongruent	Block3	incongruent/STIM_023.jpg	99
2742.344	0.821	821.4	incongruent	Block3	incongruent/STIM_024.jpg	100
2745.398	1.059	1059.2	incongruent	Block3	incongruent/STIM_024.jpg	100
2748.838	1.02	1019.8	incongruent	Block3	incongruent/STIM_024.jpg	99
2753.542	0.609	608.7	incongruent	Block3	incongruent/STIM_024.jpg	99
2756.66	1.062	1061.7	incongruent	Block3	incongruent/STIM_024.jpg	100
2760.044	1.088	1087.9	incongruent	Block3	incongruent/STIM_025.jpg	100
2764.208	0.998	997.9	incongruent	Block3	incongruent/STIM_025.jpg	99
2768.506	0.935	935.3	incongruent	Block3	incongruent/STIM_025.jpg	99
2772.575	0.695	695.2	incongruent	Block3	incongruent/STIM_025.jpg	100
2776.499	1.058	1058.4	incongruent	Block3	incongruent/STIM_025.jpg	99
2781.326	1.084	1084.5	incongruent	Block3	incongruent/STIM_026.jpg	100
2786.054	0.923	923.1	incongruent	Block3	incongruent/STIM_026.jpg	99
2790.621	1.149	1149.4	incongruent	Block3	incongruent/STIM_026.jpg	99
2794.685	1.066	1065.7	incongruent	Block3	incongruent/STIM_026.jpg	100
2799.167	0.879	879.2	incongruent	Block3	incongruent/STIM_026.jpg	100
2802.017	0.999	998.8	incongruent	Block3	incongruent/STIM_027.jpg	99
2805.493	0.95	949.6	incongruent	Block3	incongruent/STIM_027.jpg	100
2808.884	1.189	1189.2	incongruent	Block3	incongruent/STIM_027.jpg	99
2812.657	0.817	816.7	incongruent	Block3	incongruent/STIM_027.jpg	99
2816.388	0.974	973.8	incongruent	Block3	incongruent/STIM_027.jpg	99
2819.691	1.171	1170.7	incongruent	Block3	incongruent/STIM_028.jpg	100
2822.905	0.854	854.5	incongruent	Block3	incongruent/STIM_028.jpg	100
2826.281	0.578	578.1	incongruent	Block3	incongruent/STIM_028.jpg	100
2830.39	1.12	1119.5	incongruent	Block3	incongruent/STIM_028.jpg	99
2834.438	1.025	1024.9	incongruent	Block3	incongruent/STIM_028.jpg	99
2837.42	0.859	858.7	incongruent	Block3	incongruent/STIM_029.jpg	100
2841.355	0.995	995.4	incongruent	Block3	incongruent/STIM_029.jpg	99
2844.402	0.927	926.9	incongruent	Block3	incongruent/STIM_029.jpg	99
2848.675	0.715	714.7	incongruent	Block3	incongruent/STIM_029.jpg	99
2853.166	1.048	1048.3	incongruent	Block3	incongruent/STIM_029.jpg	100
2856.599	0.995	995.4	congruent	Block3	congruent/STIM_000.jpg	100
2861.244	0.836	836.4	congruent	Block3	congruent/STIM_000.jpg	99
2864.08	0.685	684.9	congruent	Block3	congruent/STIM_000.jpg	99
2867.704	0.66	659.6	congruent	Block3	congruent/STIM_000.jpg	99
2870.952	1.018	1018.2	congruent	Block3	congruent/STIM_000.jpg	100
2874.781	0.856	855.9	congruent	Block3	congruent/STIM_001.jpg	99
2878.388	0.882	882.1	congruent	Block3	congruent/STIM_001.jpg	100
2881.748	1.014	1013.7	congruent	Block3	congruent/STIM_001.jpg	100
2885.722	0.728	728.3	congruent	Block3	congruent/STIM_001.jpg	100
2888.532	0.688	688.3	congruent	Block3	congruent/STIM_001.jpg	99
2892.516	0.738	738.0	congruent	Block3	congruent/STIM_002.jpg	99
2896.372	0.834	834.4	congruent	Block3	congruent/STIM_002.jpg	99
2900.709	0.895	895.3	congruent	Block3	congruent/STIM_002.jpg	99
2903.823	0.831	830.8	congruent	Block3	congruent/STIM_002.jpg	100
2907.939	0.653	653.2	congruent	Block3	congruent/STIM_002.jpg	99
2911.392	0.734	733.8	congruent	Block3	congruent/STIM_003.jpg	100
2914.725	0.773	773.4	congruent	Block3	congruent/STIM_003.jpg	99
2918.263	0.606	605.6	congruent	Block3	congruent/STIM_003.jpg	100
2920.882	0.736	735.6	congruent	Block3	congruent/STIM_003.jpg	99
2925.288	0.758	758.3	congruent	Block3	congruent/STIM_003.jpg	100
2929.819	0.716	715.9	congruent	Block3	congruent/STIM_004.jpg	99
2933.513	0.997	996.8	congruent	Block3	congruent/STIM_004.jpg	100
2936.979	0.659	658.9	congruent	Block3	congruent/STIM_004.jpg	99
2941.513	0.581	580.7	congruent	Block3	congruent/STIM_004.jpg	100
2945.162	0.579	579.3	congruent	Block3	congruent/STIM_004.jpg	99
2949.071	0.701	701.2	congruent	Block3	congruent/STIM_005.jpg	100
2952.239	1.02	1019.6	congruent	Block3	congruent/STIM_005.jpg	99
2955.306	0.953	952.9	congruent	Block3	congruent/STIM_005.jpg	99
2959.953	0.749	748.7	congruent	Block3	congruent/STIM_005.jpg	100
2963.675	0.88	880.1	congruent	Block3	congruent/STIM_005.jpg	99
2967.988	0.587	586.9	congruent	Block3	congruent/STIM_006.jpg	99
2971.375	0.653	652.9	congruent	Block3	congruent/STIM_006.jpg	99
2974.667	1.025	1025.3	congruent	Block3	congruent/STIM_006.jpg	100
2978.799	0.589	589.4	congruent	Block3	congruent/STIM_006.jpg	100
2981.695	0.978	977.8	congruent	Block3	congruent/STIM_006.jpg	100
2984.624	0.94	940.5	congruent	Block3	congruent/STIM_007.jpg	99
2987.473	0.858	858.3	congruent	Block3	congruent/STIM_007.jpg	100
2990.471	0.913	913.1	congruent	Block3	congruent/STIM_007.jpg	100
2993.756	0.849	848.7	congruent	Block3	congruent/STIM_007.jpg	100
2997.721	0.587	586.7	congruent	Block3	congruent/STIM_007.jpg	100
3002.096	0.996	996.3	congruent	Block3	congruent/STIM_008.jpg	99
3006.046	0.742	742.4	congruent	Block3	congruent/STIM_008.jpg	99
3010.614	0.796	795.8	congruent	Block3	congruent/STIM_008.jpg	100
3013.997	0.799	798.8	congruent	Block3	congruent/STIM_008.jpg	99
3017.17	0.638	638.1	congruent	Block3	congruent/STIM_008.jpg	100
3021.69	0.942	942.3	congruent	Block3	congruent/STIM_009.jpg	99
3025.314	1.003	1003.2	congruent	Block3	congruent/STIM_009.jpg	100
3029.859	0.831	831.3	congruent	Block3	congruent/STIM_009.jpg	100
3032.868	0.79	790.4	congruent	Block3	congruent/STIM_009.jpg	100
3035.927	0.823	823.4	congruent	Block3	congruent/STIM_009.jpg	100
3039.725	0.727	727.0	congruent	Block3	congruent/STIM_010.jpg	99
3042.474	0.992	992.0	congruent	Block3	congruent/STIM_010.jpg	100
3046.815	0.737	737.3	congruent	Block3	congruent/STIM_010.jpg	99
3049.557	0.709	708.7	congruent	Block3	congruent/STIM_010.jpg	100
3052.62	0.873	873.0	congruent	Block3	congruent/STIM_010.jpg	99
3055.798	0.791	790.9	congruent	Block3	congruent/STIM_011.jpg	99
3059.343	0.87	870.2	congruent	Block3	congruent/STIM_011.jpg	99
3063.213	0.738	738.4	congruent	Block3	congruent/STIM_011.jpg	99
3065.878	0.755	755.0	congruent	Block3	congruent/STIM_011.jpg	100
3070.309	0.989	988.9	congruent	Block3	congruent/STIM_011.jpg	99
3074.969	0.722	722.0	congruent	Block3	congruent/STIM_012.jpg	100
3078.448	0.785	784.7	congruent	Block3	congruent/STIM_012.jpg	99
3083.076	0.968	967.6	congruent	Block3	congruent/STIM_012.jpg	100
3086.296	0.76	759.7	congruent	Block3	congruent/STIM_012.jpg	100
3089.754	0.757	756.9	congruent	Block3	congruent/STIM_012.jpg	100
3094.341	0.983	982.7	congruent	Block3	congruent/STIM_013.jpg	100
3098.329	0.916	915.8	congruent	Block3	congruent/STIM_013.jpg	100
3101.432	0.71	710.1	congruent	Block3	congruent/STIM_013.jpg	100
3105.339	0.652	651.8	congruent	Block3	congruent/STIM_013.jpg	100
3108.963	0.656	655.6	congruent	Block3	congruent/STIM_013.jpg	99
3112.678	0.838	838.3	congruent	Block3	congruent/STIM_014.jpg	99
3116.876	0.821	821.4	congruent	Block3	congruent/STIM_014.jpg	100
3120.806	0.678	677.9	congruent	Block3	congruent/STIM_014.jpg	99
3124.7	0.8	799.6	congruent	Block3	congruent/STIM_014.jpg	100
3128.165	0.906	906.4	congruent	Block3	congruent/STIM_014.jpg	99
3132.017	0.807	806.8	congruent	Block3	congruent/STIM_015.jpg	100
3136.258	0.772	772.3	congruent	Block3	congruent/STIM_015.jpg	100
3140.862	0.839	838.6	congruent	Block3	congruent/STIM_015.jpg	100
3143.871	0.754	754.2	congruent	Block3	congruent/STIM_015.jpg	100
3147.314	0.812	812.5	congruent	Block3	congruent/STIM_015.jpg	99
3150.131	1.02	1019.5	congruent	Block3	congruent/STIM_016.jpg	100
3154.542	0.648	648.4	congruent	Block3	congruent/STIM_016.jpg	99
3157.441	1.012	1012.0	congruent	Block3	congruent/STIM_016.jpg	100
3161.497	0.898	898.3	congruent	Block3	congruent/STIM_016.jpg	100
3165.932	0.921	920.6	congruent	Block3	congruent/STIM_016.jpg	99
3168.996	0.651	650.8	congruent	Block3	congruent/STIM_017.jpg	99
3171.588	0.806	806.1	congruent	Block3	congruent/STIM_017.jpg	99
3175.129	0.613	613.1	congruent	Block3	congruent/STIM_017.jpg	100
3179.475	0.831	831.4	congruent	Block3	congruent/STIM_017.jpg	100
3182.318	0.585	585.3	congruent	Block3	congruent/STIM_017.jpg	99
3184.994	0.65	650.3	congruent	Block3	congruent/STIM_018.jpg	100
3188.979	0.813	813.3	congruent	Block3	congruent/STIM_018.jpg	99
3193.381	0.965	965.1	congruent	Block3	congruent/STIM_018.jpg	100
3197.406	0.788	788.0	congruent	Block3	congruent/STIM_018.jpg	99
3200.414	0.754	754.1	congruent	Block3	congruent/STIM_018.jpg	100
3203.632	0.732	731.8	congruent	Block3	congruent/STIM_019.jpg	100
3206.531	0.767	766.7	congruent	Block3	congruent/STIM_019.jpg	100
3211.069	0.733	733.1	congruent	Block3	congruent/STIM_019.jpg	100
3215.529	0.682	682.1	congruent	Block3	congruent/STIM_019.jpg	100
3218.615	0.632	632.5	congruent	Block3	congruent/STIM_019.jpg	100
3221.825	0.905	904.7	congruent	Block3	congruent/STIM_020.jpg	100
3226.497	0.918	917.5	congruent	Block3	congruent/STIM_020.jpg	100
3230.127	0.766	765.8	congruent	Block3	congruent/STIM_020.jpg	100
3234.774	0.734	734.2	congruent	Block3	congruent/STIM_020.jpg	99
3238.306	0.59	590.0	congruent	Block3	congruent/STIM_020.jpg	99
3241.068	0.934	933.7	congruent	Block3	congruent/STIM_021.jpg	100
3244.316	0.756	755.9	congruent	Block3	congruent/STIM_021.jpg	99
3248.641	0.594	593.9	congruent	Block3	congruent/STIM_021.jpg	99
3251.589	0.8	799.8	congruent	Block3	congruent/STIM_021.jpg	99
3254.624	0.757	756.6	congruent	Block3	congruent/STIM_021.jpg	99
3257.318	0.987	987.1	congruent	Block3	congruent/STIM_022.jpg	99
3260.287	1.028	1027.5	congruent	Block3	congruent/STIM_022.jpg	99
3265.063	0.957	957.0	congruent	Block3	congruent/STIM_022.jpg	99
3269.673	0.884	884.1	congruent	Block3	congruent/STIM_022.jpg	99
3273.798	0.789	788.6	congruent	Block3	congruent/STIM_022.jpg	99
3278.268	0.885	885.4	congruent	Block3	congruent/STIM_023.jpg	99
3282.471	0.636	636.3	congruent	Block3	congruent/STIM_023.jpg	99
3285.253	0.705	705.4	congruent	Block3	congruent/STIM_023.jpg	99
3289.751	0.688	687.8	congruent	Block3	congruent/STIM_023.jpg	100
3293.26	1.017	1017.2	congruent	Block3	congruent/STIM_023.jpg	100
3298.095	0.683	683.3	congruent	Block3	congruent/STIM_024.jpg	100
3301.9	0.777	777.1	congruent	Block3	congruent/STIM_024.jpg	99
3304.756	0.75	749.7	congruent	Block3	congruent/STIM_024.jpg	99
3307.898	1.011	1010.9	congruent	Block3	congruent/STIM_024.jpg	99
3311.8	0.794	794.0	congruent	Block3	congruent/STIM_024.jpg	100
3315.472	0.933	932.9	congruent	Block3	congruent/STIM_025.jpg	100
3319.738	0.598	598.0	congruent	Block3	congruent/STIM_025.jpg	99
3323.223	0.874	874.1	congruent	Block3	congruent/STIM_025.jpg	99
3326.864	0.75	749.9	congruent	Block3	congruent/STIM_025.jpg	100
3329.97	0.864	863.6	congruent	Block3	congruent/STIM_025.jpg	99
3333.926	0.847	846.8	congruent	Block3	congruent/STIM_026.jpg	100
3337.308	0.914	914.4	congruent	Block3	congruent/STIM_026.jpg	100
3342.034	0.577	576.8	congruent	Block3	congruent/STIM_026.jpg	99
3346.52	0.783	782.7	congruent	Block3	congruent/STIM_026.jpg	100
3349.544	0.846	845.8	congruent	Block3	congruent/STIM_026.jpg	100
3352.872	0.702	701.6	congruent	Block3	congruent/STIM_027.jpg	100
3356.05	0.7	699.5	congruent	Block3	congruent/STIM_027.jpg	99
3359.8	0.759	758.7	congruent	Block3	congruent/STIM_027.jpg	99
3363.15	0.609	609.3	congruent	Block3	congruent/STIM_027.jpg	99
3366.409	0.856	856.1	congruent	Block3	congruent/STIM_027.jpg	99
3369.406	0.88	880.4	congruent	Block3	congruent/STIM_028.jpg	99
3374.058	0.712	712.3	congruent	Block3	congruent/STIM_028.jpg	99
3377.911	0.979	979.2	congruent	Block3	congruent/STIM_028.jpg	100
3381.638	0.899	899.1	congruent	Block3	congruent/STIM_028.jpg	100
3385.408	0.572	572.0	congruent	Block3	congruent/STIM_028.jpg	100
3388.344	0.853	853.1	congruent	Block3	congruent/STIM_029.jpg	100
3392.889	0.771	771.0	congruent	Block3	congruent/STIM_029.jpg	99
3397.019	0.88	880.5	congruent	Block3	congruent/STIM_029.jpg	100
3400.487	0.843	842.6	congruent	Block3	congruent/STIM_029.jpg	99
3403.882	0.58	579.9	congruent	Block3	congruent/STIM_029.jpg	99
