onset	duration	accuracy_binary	trial_type	learning_stage	stimulus
0.0	2.299	1	regulate	Run1	regulate/STIM_000.jpg
5.712	1.849	1	regulate	Run1	regulate/STIM_000.jpg
10.196	1.962	1	regulate	Run1	regulate/STIM_000.jpg
14.952	1.691	1	regulate	Run1	regulate/STIM_000.jpg
19.255	2.321	1	regulate	Run1	regulate/STIM_001.jpg
24.64	3.056	1	regulate	Run1	regulate/STIM_001.jpg
30.518	1.252	1	regulate	Run1	regulate/STIM_001.jpg
34.702	1.993	0	regulate	Run1	regulate/STIM_001.jpg
40.437	3.215	0	regulate	Run1	regulate/STIM_002.jpg
47.174	2.95	1	regulate	Run1	regulate/STIM_002.jpg
52.56	2.855	1	regulate	Run1	regulate/STIM_002.jpg
59.375	1.877	0	regulate	Run1	regulate/STIM_002.jpg
65.3	2.413	1	regulate	Run1	regulate/STIM_003.jpg
70.191	1.441	1	regulate	Run1	regulate/STIM_003.jpg
74.013	1.2	0	regulate	Run1	regulate/STIM_003.jpg
77.987	1.29	1	regulate	Run1	regulate/STIM_003.jpg
82.254	2.681	1	regulate	Run1	regulate/STIM_004.jpg
88.726	2.94	1	regulate	Run1	regulate/STIM_004.jpg
95.679	1.575	1	regulate	Run1	regulate/STIM_004.jpg
100.147	1.895	0	regulate	Run1	regulate/STIM_004.jpg
105.835	3.278	1	regulate	Run1	regulate/STIM_005.jpg
111.874	2.233	0	regulate	Run1	regulate/STIM_005.jpg
117.063	1.372	0	regulate	Run1	regulate/STIM_005.jpg
120.923	2.707	1	regulate	Run1	regulate/STIM_005.jpg
126.544	3.16	1	regulate	Run1	regulate/STIM_006.jpg
133.415	1.916	1	regulate	Run1	regulate/STIM_006.jpg
138.818	1.316	1	regulate	Run1	regulate/STIM_006.jpg
142.258	2.215	1	regulate	Run1	regulate/STIM_006.jpg
146.942	2.034	1	regulate	Run1	regulate/STIM_007.jpg
152.013	1.664	0	regulate	Run1	regulate/STIM_007.jpg
156.471	1.925	0	regulate	Run1	regulate/STIM_007.jpg
161.865	1.179	1	regulate	Run1	regulate/STIM_007.jpg
165.245	1.744	1	regulate	Run1	regulate/STIM_008.jpg
170.007	2.75	1	regulate	Run1	regulate/STIM_008.jpg
175.529	2.588	1	regulate	Run1	regulate/STIM_008.jpg
182.204	2.279	1	regulate	Run1	regulate/STIM_008.jpg
187.384	3.127	1	regulate	Run1	regulate/STIM_009.jpg
194.643	2.394	0	regulate	Run1	regulate/STIM_009.jpg
199.577	2.035	1	regulate	Run1	regulate/STIM_009.jpg
203.952	2.519	1	regulate	Run1	regulate/STIM_009.jpg
210.443	2.698	1	regulate	Run1	regulate/STIM_010.jpg
216.273	1.917	0	regulate	Run1	regulate/STIM_010.jpg
222.203	2.584	1	regulate	Run1	regulate/STIM_010.jpg
227.676	2.011	1	regulate	Run1	regulate/STIM_010.jpg
232.386	3.053	1	regulate	Run1	regulate/STIM_011.jpg
237.889	1.952	1	regulate	Run1	regulate/STIM_011.jpg
243.251	2.902	1	regulate	Run1	regulate/STIM_011.jpg
248.617	2.123	1	regulate	Run1	regulate/STIM_011.jpg
253.853	2.236	0	regulate	Run1	regulate/STIM_012.jpg
259.859	2.48	0	regulate	Run1	regulate/STIM_012.jpg
266.302	2.78	0	regulate	Run1	regulate/STIM_012.jpg
272.657	2.761	0	regulate	Run1	regulate/STIM_012.jpg
277.786	3.03	1	regulate	Run1	regulate/STIM_013.jpg
284.437	1.399	1	regulate	Run1	regulate/STIM_013.jpg
288.886	2.127	1	regulate	Run1	regulate/STIM_013.jpg
294.195	2.818	0	regulate	Run1	regulate/STIM_013.jpg
299.568	3.116	0	regulate	Run1	regulate/STIM_014.jpg
305.581	1.741	1	regulate	Run1	regulate/STIM_014.jpg
309.675	1.834	1	regulate	Run1	regulate/STIM_014.jpg
314.714	1.435	1	regulate	Run1	regulate/STIM_014.jpg
319.318	1.597	0	regulate	Run1	regulate/STIM_015.jpg
324.328	2.9	0	regulate	Run1	regulate/STIM_015.jpg
331.292	1.872	1	regulate	Run1	regulate/STIM_015.jpg
337.088	1.299	1	regulate	Run1	regulate/STIM_015.jpg
341.165	2.989	1	regulate	Run1	regulate/STIM_016.jpg
348.103	2.967	1	regulate	Run1	regulate/STIM_016.jpg
354.522	1.339	0	regulate	Run1	regulate/STIM_016.jpg
359.161	1.971	1	regulate	Run1	regulate/STIM_016.jpg
364.652	1.474	1	regulate	Run1	regulate/STIM_017.jpg
368.953	1.754	1	regulate	Run1	regulate/STIM_017.jpg
373.864	1.421	1	regulate	Run1	regulate/STIM_017.jpg
377.419	2.11	0	regulate	Run1	regulate/STIM_017.jpg
383.649	2.65	1	regulate	Run1	regulate/STIM_018.jpg
389.218	2.855	1	regulate	Run1	regulate/STIM_018.jpg
394.439	2.942	0	regulate	Run1	regulate/STIM_018.jpg
400.338	1.812	1	regulate	Run1	regulate/STIM_018.jpg
405.046	2.354	1	regulate	Run1	regulate/STIM_019.jpg
410.896	2.88	1	regulate	Run1	regulate/STIM_019.jpg
417.137	2.422	1	regulate	Run1	regulate/STIM_019.jpg
421.814	1.513	1	regulate	Run1	regulate/STIM_019.jpg
425.772	1.87	0	regulate	Run1	regulate/STIM_020.jpg
430.027	2.16	1	regulate	Run1	regulate/STIM_020.jpg
434.402	2.432	1	regulate	Run1	regulate/STIM_020.jpg
438.927	2.632	0	regulate	Run1	regulate/STIM_020.jpg
444.664	3.048	1	regulate	Run1	regulate/STIM_021.jpg
450.967	2.304	1	regulate	Run1	regulate/STIM_021.jpg
456.146	2.774	1	regulate	Run1	regulate/STIM_021.jpg
461.406	1.323	1	regulate	Run1	regulate/STIM_021.jpg
465.916	1.508	0	regulate	Run1	regulate/STIM_022.jpg
470.803	2.525	0	regulate	Run1	regulate/STIM_022.jpg
476.819	2.96	1	regulate	Run1	regulate/STIM_022.jpg
483.84	2.625	0	regulate	Run1	regulate/STIM_022.jpg
488.867	1.966	1	regulate	Run1	regulate/STIM_023.jpg
493.621	1.435	1	regulate	Run1	regulate/STIM_023.jpg
498.123	1.485	0	regulate	Run1	regulate/STIM_023.jpg
502.712	2.517	1	regulate	Run1	regulate/STIM_023.jpg
508.275	1.868	1	regulate	Run1	regulate/STIM_024.jpg
513.296	1.529	1	regulate	Run1	regulate/STIM_024.jpg
518.151	1.567	0	regulate	Run1	regulate/STIM_024.jpg
522.398	2.108	0	regulate	Run1	regulate/STIM_024.jpg
528.434	2.46	1	regulate	Run1	regulate/STIM_025.jpg
534.836	3.107	1	regulate	Run1	regulate/STIM_025.jpg
541.712	1.542	0	regulate	Run1	regulate/STIM_025.jpg
546.366	2.226	1	regulate	Run1	regulate/STIM_025.jpg
551.24	3.101	1	regulate	Run1	regulate/STIM_026.jpg
557.071	2.788	1	regulate	Run1	regulate/STIM_026.jpg
563.294	1.243	1	regulate	Run1	regulate/STIM_026.jpg
567.922	2.562	1	regulate	Run1	regulate/STIM_026.jpg
573.493	2.015	0	regulate	Run1	regulate/STIM_027.jpg
577.999	2.245	1	regulate	Run1	regulate/STIM_027.jpg
584.104	2.278	1	regulate	Run1	regulate/STIM_027.jpg
589.344	1.79	0	regulate	Run1	regulate/STIM_027.jpg
594.954	2.798	0	regulate	Run1	regulate/STIM_028.jpg
601.147	2.378	1	regulate	Run1	regulate/STIM_028.jpg
607.533	1.477	1	regulate	Run1	regulate/STIM_028.jpg
612.96	2.516	1	regulate	Run1	regulate/STIM_028.jpg
617.947	2.312	1	regulate	Run1	regulate/STIM_029.jpg
623.506	2.235	0	regulate	Run1	regulate/STIM_029.jpg
628.675	1.703	1	regulate	Run1	regulate/STIM_029.jpg
633.106	2.54	0	regulate	Run1	regulate/STIM_029.jpg
639.394	1.277	1	observe	Run1	observe/STIM_000.jpg
642.859	1.326	1	observe	Run1	observe/STIM_000.jpg
646.557	0.816	1	observe	Run1	observe/STIM_000.jpg
651.095	1.263	1	observe	Run1	observe/STIM_000.jpg
654.546	1.268	1	observe	Run1	observe/STIM_001.jpg
658.212	1.228	1	observe	Run1	observe/STIM_001.jpg
661.555	1.03	1	observe	Run1	observe/STIM_001.jpg
664.717	1.331	1	observe	Run1	observe/STIM_001.jpg
669.563	1.06	1	observe	Run1	observe/STIM_002.jpg
672.919	1.231	1	observe	Run1	observe/STIM_002.jpg
676.921	1.269	0	observe	Run1	observe/STIM_002.jpg
681.365	1.126	1	observe	Run1	observe/STIM_002.jpg
686.049	1.389	1	observe	Run1	observe/STIM_003.jpg
691.232	1.194	0	observe	Run1	observe/STIM_003.jpg
695.908	1.453	1	observe	Run1	observe/STIM_003.jpg
699.564	1.014	0	observe	Run1	observe/STIM_003.jpg
704.117	1.003	1	observe	Run1	observe/STIM_004.jpg
708.117	1.451	1	observe	Run1	observe/STIM_004.jpg
712.008	0.751	1	observe	Run1	observe/STIM_004.jpg
715.12	1.389	1	observe	Run1	observe/STIM_004.jpg
719.5	0.86	1	observe	Run1	observe/STIM_005.jpg
722.513	1.245	1	observe	Run1	observe/STIM_005.jpg
726.834	1.019	1	observe	Run1	observe/STIM_005.jpg
730.434	1.183	1	observe	Run1	observe/STIM_005.jpg
734.388	1.163	0	observe	Run1	observe/STIM_006.jpg
737.855	0.944	0	observe	Run1	observe/STIM_006.jpg
741.865	1.338	1	observe	Run1	observe/STIM_006.jpg
747.002	1.134	1	observe	Run1	observe/STIM_006.jpg
750.847	1.17	1	observe	Run1	observe/STIM_007.jpg
755.814	0.96	1	observe	Run1	observe/STIM_007.jpg
760.603	1.113	1	observe	Run1	observe/STIM_007.jpg
764.456	0.79	1	observe	Run1	observe/STIM_007.jpg
767.57	1.397	1	observe	Run1	observe/STIM_008.jpg
772.512	0.759	1	observe	Run1	observe/STIM_008.jpg
775.489	1.126	0	observe	Run1	observe/STIM_008.jpg
780.009	1.03	1	observe	Run1	observe/STIM_008.jpg
783.256	1.465	1	observe	Run1	observe/STIM_009.jpg
787.431	1.3	1	observe	Run1	observe/STIM_009.jpg
792.568	0.891	0	observe	Run1	observe/STIM_009.jpg
797.263	1.344	1	observe	Run1	observe/STIM_009.jpg
801.162	0.942	1	observe	Run1	observe/STIM_010.jpg
805.294	1.222	0	observe	Run1	observe/STIM_010.jpg
808.868	1.031	1	observe	Run1	observe/STIM_010.jpg
813.424	1.197	1	observe	Run1	observe/STIM_010.jpg
817.712	0.844	1	observe	Run1	observe/STIM_011.jpg
820.601	1.314	1	observe	Run1	observe/STIM_011.jpg
825.016	1.308	0	observe	Run1	observe/STIM_011.jpg
829.556	1.274	0	observe	Run1	observe/STIM_011.jpg
833.199	1.066	1	observe	Run1	observe/STIM_012.jpg
838.179	0.756	0	observe	Run1	observe/STIM_012.jpg
842.671	1.074	1	observe	Run1	observe/STIM_012.jpg
846.565	0.994	1	observe	Run1	observe/STIM_012.jpg
851.315	0.757	1	observe	Run1	observe/STIM_013.jpg
855.133	1.065	1	observe	Run1	observe/STIM_013.jpg
858.411	1.445	1	observe	Run1	observe/STIM_013.jpg
863.66	1.257	1	observe	Run1	observe/STIM_013.jpg
867.416	1.086	1	observe	Run1	observe/STIM_014.jpg
870.88	0.92	1	observe	Run1	observe/STIM_014.jpg
873.829	1.411	1	observe	Run1	observe/STIM_014.jpg
878.819	0.859	1	observe	Run1	observe/STIM_014.jpg
883.097	1.088	1	observe	Run1	observe/STIM_015.jpg
887.22	0.948	1	observe	Run1	observe/STIM_015.jpg
891.109	1.011	1	observe	Run1	observe/STIM_015.jpg
895.162	0.895	1	observe	Run1	observe/STIM_015.jpg
898.717	1.315	1	observe	Run1	observe/STIM_016.jpg
902.763	0.863	1	observe	Run1	observe/STIM_016.jpg
906.615	0.822	1	observe	Run1	observe/STIM_016.jpg
911.413	1.221	1	observe	Run1	observe/STIM_016.jpg
916.074	1.273	1	observe	Run1	observe/STIM_017.jpg
920.263	1.108	1	observe	Run1	observe/STIM_017.jpg
923.463	1.134	1	observe	Run1	observe/STIM_017.jpg
928.218	0.739	1	observe	Run1	observe/STIM_017.jpg
931.962	0.781	1	observe	Run1	observe/STIM_018.jpg
935.61	0.922	1	observe	Run1	observe/STIM_018.jpg
938.774	1.082	0	observe	Run1	observe/STIM_018.jpg
942.705	1.316	1	observe	Run1	observe/STIM_018.jpg
947.92	0.978	1	observe	Run1	observe/STIM_019.jpg
951.834	0.737	0	observe	Run1	observe/STIM_019.jpg
955.792	1.056	1	observe	Run1	observe/STIM_019.jpg
959.302	1.477	1	observe	Run1	observe/STIM_019.jpg
962.857	2.329	1	regulate	Run2	regulate/STIM_000.jpg
967.454	1.702	1	regulate	Run2	regulate/STIM_000.jpg
973.171	1.856	1	regulate	Run2	regulate/STIM_000.jpg
977.406	1.544	1	regulate	Run2	regulate/STIM_000.jpg
981.443	1.27	1	regulate	Run2	regulate/STIM_001.jpg
984.896	2.451	1	regulate	Run2	regulate/STIM_001.jpg
989.623	1.525	1	regulate	Run2	regulate/STIM_001.jpg
995.104	1.337	1	regulate	Run2	regulate/STIM_001.jpg
999.946	1.568	1	regulate	Run2	regulate/STIM_002.jpg
1003.76	1.607	1	regulate	Run2	regulate/STIM_002.jpg
1007.639	2.454	0	regulate	Run2	regulate/STIM_002.jpg
1013.66	2.198	1	regulate	Run2	regulate/STIM_002.jpg
1019.125	1.491	0	regulate	Run2	regulate/STIM_003.jpg
1024.235	1.494	1	regulate	Run2	regulate/STIM_003.jpg
1028.627	1.79	1	regulate	Run2	regulate/STIM_003.jpg
1032.769	1.965	0	regulate	Run2	regulate/STIM_003.jpg
1037.099	2.451	1	regulate	Run2	regulate/STIM_004.jpg
1043.583	1.312	1	regulate	Run2	regulate/STIM_004.jpg
1048.354	1.532	1	regulate	Run2	regulate/STIM_004.jpg
1053.858	2.241	0	regulate	Run2	regulate/STIM_004.jpg
1058.621	1.567	1	regulate	Run2	regulate/STIM_005.jpg
1063.224	2.386	1	regulate	Run2	regulate/STIM_005.jpg
1068.151	1.396	1	regulate	Run2	regulate/STIM_005.jpg
1071.784	2.129	1	regulate	Run2	regulate/STIM_005.jpg
1076.338	1.567	1	regulate	Run2	regulate/STIM_006.jpg
1080.976	2.197	1	regulate	Run2	regulate/STIM_006.jpg
1086.301	2.119	1	regulate	Run2	regulate/STIM_006.jpg
1092.097	1.522	1	regulate	Run2	regulate/STIM_006.jpg
1097.285	1.61	1	regulate	Run2	regulate/STIM_007.jpg
1102.29	1.777	1	regulate	Run2	regulate/STIM_007.jpg
1107.323	1.883	1	regulate	Run2	regulate/STIM_007.jpg
1111.744	1.566	1	regulate	Run2	regulate/STIM_007.jpg
1116.987	1.238	1	regulate	Run2	regulate/STIM_008.jpg
1120.582	2.214	1	regulate	Run2	regulate/STIM_008.jpg
1125.591	2.259	1	regulate	Run2	regulate/STIM_008.jpg
1130.112	2.354	1	regulate	Run2	regulate/STIM_008.jpg
1136.441	2.043	1	regulate	Run2	regulate/STIM_009.jpg
1142.315	2.58	1	regulate	Run2	regulate/STIM_009.jpg
1148.497	1.332	0	regulate	Run2	regulate/STIM_009.jpg
1153.587	1.857	1	regulate	Run2	regulate/STIM_009.jpg
1158.383	1.779	1	regulate	Run2	regulate/STIM_010.jpg
1163.807	2.174	1	regulate	Run2	regulate/STIM_010.jpg
1169.468	1.917	1	regulate	Run2	regulate/STIM_010.jpg
1174.474	2.134	1	regulate	Run2	regulate/STIM_010.jpg
1180.247	2.361	1	regulate	Run2	regulate/STIM_011.jpg
1185.319	2.025	1	regulate	Run2	regulate/STIM_011.jpg
1190.3	1.778	0	regulate	Run2	regulate/STIM_011.jpg
1195.187	1.198	1	regulate	Run2	regulate/STIM_011.jpg
1198.939	1.991	0	regulate	Run2	regulate/STIM_012.jpg
1203.61	1.526	1	regulate	Run2	regulate/STIM_012.jpg
1209.01	1.974	1	regulate	Run2	regulate/STIM_012.jpg
1213.878	1.059	1	regulate	Run2	regulate/STIM_012.jpg
1218.631	1.922	1	regulate	Run2	regulate/STIM_013.jpg
1222.986	1.624	1	regulate	Run2	regulate/STIM_013.jpg
1227.321	1.716	1	regulate	Run2	regulate/STIM_013.jpg
1231.17	1.214	1	regulate	Run2	regulate/STIM_013.jpg
1236.318	1.368	1	regulate	Run2	regulate/STIM_014.jpg
1240.077	1.338	1	regulate	Run2	regulate/STIM_014.jpg
1244.787	1.216	1	regulate	Run2	regulate/STIM_014.jpg
1249.117	1.188	1	regulate	Run2	regulate/STIM_014.jpg
1253.223	2.741	0	regulate	Run2	regulate/STIM_015.jpg
1259.032	2.46	0	regulate	Run2	regulate/STIM_015.jpg
1264.272	1.127	1	regulate	Run2	regulate/STIM_015.jpg
1268.145	1.877	1	regulate	Run2	regulate/STIM_015.jpg
1272.382	2.141	1	regulate	Run2	regulate/STIM_016.jpg
1278.42	2.177	1	regulate	Run2	regulate/STIM_016.jpg
1283.59	1.483	1	regulate	Run2	regulate/STIM_016.jpg
1288.406	1.946	1	regulate	Run2	regulate/STIM_016.jpg
1293.609	2.319	1	regulate	Run2	regulate/STIM_017.jpg
1298.599	1.935	1	regulate	Run2	regulate/STIM_017.jpg
1303.493	2.08	1	regulate	Run2	regulate/STIM_017.jpg
1309.41	1.933	0	regulate	Run2	regulate/STIM_017.jpg
1313.599	2.823	1	regulate	Run2	regulate/STIM_018.jpg
1319.859	1.904	1	regulate	Run2	regulate/STIM_018.jpg
1325.725	1.748	1	regulate	Run2	regulate/STIM_018.jpg
1330.51	1.533	1	regulate	Run2	regulate/STIM_018.jpg
1335.516	2.271	1	regulate	Run2	regulate/STIM_019.jpg
1340.018	1.17	1	regulate	Run2	regulate/STIM_019.jpg
1345.268	1.245	1	regulate	Run2	regulate/STIM_019.jpg
1350.403	2.304	1	regulate	Run2	regulate/STIM_019.jpg
1355.181	1.994	1	regulate	Run2	regulate/STIM_020.jpg
1360.198	2.369	1	regulate	Run2	regulate/STIM_020.jpg
1364.906	1.462	1	regulate	Run2	regulate/STIM_020.jpg
1369.47	1.609	1	regulate	Run2	regulate/STIM_020.jpg
1374.678	2.374	1	regulate	Run2	regulate/STIM_021.jpg
1380.328	1.303	1	regulate	Run2	regulate/STIM_021.jpg
1384.808	1.409	1	regulate	Run2	regulate/STIM_021.jpg
1390.256	1.659	1	regulate	Run2	regulate/STIM_021.jpg
1395.964	1.731	0	regulate	Run2	regulate/STIM_022.jpg
1400.447	1.266	1	regulate	Run2	regulate/STIM_022.jpg
1404.865	1.171	1	regulate	Run2	regulate/STIM_022.jpg
1408.946	1.544	1	regulate	Run2	regulate/STIM_022.jpg
1412.817	2.229	1	regulate	Run2	regulate/STIM_023.jpg
1418.135	1.785	1	regulate	Run2	regulate/STIM_023.jpg
1422.354	1.853	1	regulate	Run2	regulate/STIM_023.jpg
1426.692	1.512	1	regulate	Run2	regulate/STIM_023.jpg
1431.904	1.728	1	regulate	Run2	regulate/STIM_024.jpg
1436.431	1.903	1	regulate	Run2	regulate/STIM_024.jpg
1442.365	2.004	1	regulate	Run2	regulate/STIM_024.jpg
1446.74	1.191	1	regulate	Run2	regulate/STIM_024.jpg
1450.925	1.142	1	regulate	Run2	regulate/STIM_025.jpg
1455.569	1.901	1	regulate	Run2	regulate/STIM_025.jpg
1461.286	1.452	1	regulate	Run2	regulate/STIM_025.jpg
1464.841	1.227	1	regulate	Run2	regulate/STIM_025.jpg
1468.584	2.754	1	regulate	Run2	regulate/STIM_026.jpg
1474.782	1.49	1	regulate	Run2	regulate/STIM_026.jpg
1478.853	2.41	1	regulate	Run2	regulate/STIM_026.jpg
1483.561	2.039	1	regulate	Run2	regulate/STIM_026.jpg
1489.138	1.747	1	regulate	Run2	regulate/STIM_027.jpg
1493.875	2.002	1	regulate	Run2	regulate/STIM_027.jpg
1499.239	1.352	1	regulate	Run2	regulate/STIM_027.jpg
1504.059	1.081	1	regulate	Run2	regulate/STIM_027.jpg
1509.085	1.727	0	regulate	Run2	regulate/STIM_028.jpg
1514.123	2.564	0	regulate	Run2	regulate/STIM_028.jpg
1519.92	1.906	1	regulate	Run2	regulate/STIM_028.jpg
1524.292	1.907	1	regulate	Run2	regulate/STIM_028.jpg
1529.167	2.184	1	regulate	Run2	regulate/STIM_029.jpg
1534.363	1.888	1	regulate	Run2	regulate/STIM_029.jpg
1539.865	1.273	1	regulate	Run2	regulate/STIM_029.jpg
1543.656	1.34	1	regulate	Run2	regulate/STIM_029.jpg
1548.341	0.896	1	observe	Run2	observe/STIM_000.jpg
1551.868	0.787	1	observe	Run2	observe/STIM_000.jpg
1556.448	1.191	1	observe	Run2	observe/STIM_000.jpg
1560.281	0.803	1	observe	Run2	observe/STIM_000.jpg
1564.475	1.25	1	observe	Run2	observe/STIM_001.jpg
1569.488	1.317	1	observe	Run2	observe/STIM_001.jpg
1573.801	0.898	1	observe	Run2	observe/STIM_001.jpg
1578.596	1.316	1	observe	Run2	observe/STIM_001.jpg
1581.988	1.088	1	observe	Run2	observe/STIM_002.jpg
1585.117	1.553	1	observe	Run2	observe/STIM_002.jpg
1588.935	0.812	1	observe	Run2	observe/STIM_002.jpg
1592.244	0.95	1	observe	Run2	observe/STIM_002.jpg
1596.529	1.403	0	observe	Run2	observe/STIM_003.jpg
1601.418	0.956	1	observe	Run2	observe/STIM_003.jpg
1605.983	1.296	1	observe	Run2	observe/STIM_003.jpg
1610.954	1.502	1	observe	Run2	observe/STIM_003.jpg
1615.382	1.398	1	observe	Run2	observe/STIM_004.jpg
1620.33	1.455	1	observe	Run2	observe/STIM_004.jpg
1625.001	0.915	1	observe	Run2	observe/STIM_004.jpg
1629.395	0.939	1	observe	Run2	observe/STIM_004.jpg
1632.736	1.036	1	observe	Run2	observe/STIM_005.jpg
1636.682	1.256	1	observe	Run2	observe/STIM_005.jpg
1641.404	1.068	1	observe	Run2	observe/STIM_005.jpg
1644.862	1.16	1	observe	Run2	observe/STIM_005.jpg
1649.424	1.44	1	observe	Run2	observe/STIM_006.jpg
1654.46	1.273	1	observe	Run2	observe/STIM_006.jpg
1659.738	1.203	1	observe	Run2	observe/STIM_006.jpg
1664.478	1.353	1	observe	Run2	observe/STIM_006.jpg
1667.919	1.292	1	observe	Run2	observe/STIM_007.jpg
1672.988	0.822	1	observe	Run2	observe/STIM_007.jpg
1676.843	0.764	0	observe	Run2	observe/STIM_007.jpg
1680.274	1.147	1	observe	Run2	observe/STIM_007.jpg
1684.253	1.479	0	observe	Run2	observe/STIM_008.jpg
1688.221	1.21	1	observe	Run2	observe/STIM_008.jpg
1692.622	0.926	1	observe	Run2	observe/STIM_008.jpg
1696.643	1.029	1	observe	Run2	observe/STIM_008.jpg
1700.018	1.111	1	observe	Run2	observe/STIM_009.jpg
1704.831	0.955	1	observe	Run2	observe/STIM_009.jpg
1709.072	1.428	1	observe	Run2	observe/STIM_009.jpg
1714.221	1.109	1	observe	Run2	observe/STIM_009.jpg
1718.233	1.036	1	observe	Run2	observe/STIM_010.jpg
1721.578	1.337	1	observe	Run2	observe/STIM_010.jpg
1725.165	0.862	1	observe	Run2	observe/STIM_010.jpg
1728.735	1.118	1	observe	Run2	observe/STIM_010.jpg
1733.042	0.866	0	observe	Run2	observe/STIM_011.jpg
1737.123	0.824	1	observe	Run2	observe/STIM_011.jpg
1740.544	0.907	1	observe	Run2	observe/STIM_011.jpg
1743.632	0.956	0	observe	Run2	observe/STIM_011.jpg
1747.612	0.921	1	observe	Run2	observe/STIM_012.jpg
1752.374	1.009	1	observe	Run2	observe/STIM_012.jpg
1756.055	1.045	1	observe	Run2	observe/STIM_012.jpg
1759.898	0.964	1	observe	Run2	observe/STIM_012.jpg
1763.311	0.792	1	observe	Run2	observe/STIM_013.jpg
1767.927	1.401	1	observe	Run2	observe/STIM_013.jpg
1771.799	1.357	1	observe	Run2	observe/STIM_013.jpg
1775.674	0.707	1	observe	Run2	observe/STIM_013.jpg
1779.339	1.175	1	observe	Run2	observe/STIM_014.jpg
1784.413	1.37	1	observe	Run2	observe/STIM_014.jpg
1789.39	1.061	1	observe	Run2	observe/STIM_014.jpg
1792.82	1.029	1	observe	Run2	observe/STIM_014.jpg
1796.57	1.26	1	observe	Run2	observe/STIM_015.jpg
1800.764	1.089	1	observe	Run2	observe/STIM_015.jpg
1804.288	1.139	1	observe	Run2	observe/STIM_015.jpg
1808.827	0.95	1	observe	Run2	observe/STIM_015.jpg
1812.058	1.427	1	observe	Run2	observe/STIM_016.jpg
1815.834	1.492	0	observe	Run2	observe/STIM_016.jpg
1820.781	1.283	1	observe	Run2	observe/STIM_016.jpg
1824.348	0.968	1	observe	Run2	observe/STIM_016.jpg
1827.905	0.988	1	observe	Run2	observe/STIM_017.jpg
1832.092	0.879	1	observe	Run2	observe/STIM_017.jpg
1837.02	0.775	1	observe	Run2	observe/STIM_017.jpg
1841.215	1.341	1	observe	Run2	observe/STIM_017.jpg
1846.024	0.824	1	observe	Run2	observe/STIM_018.jpg
1850.043	1.221	1	observe	Run2	observe/STIM_018.jpg
1854.731	1.533	1	observe	Run2	observe/STIM_018.jpg
1860.197	1.248	1	observe	Run2	observe/STIM_018.jpg
1864.807	1.003	1	observe	Run2	observe/STIM_019.jpg
1869.116	1.467	0	observe	Run2	observe/STIM_019.jpg
1874.596	0.885	0	observe	Run2	observe/STIM_019.jpg
1877.621	1.517	1	observe	Run2	observe/STIM_019.jpg
1882.23	2.24	1	regulate	Run3	regulate/STIM_000.jpg
1887.193	2.288	1	regulate	Run3	regulate/STIM_000.jpg
1892.77	2.151	0	regulate	Run3	regulate/STIM_000.jpg
1898.342	1.302	1	regulate	Run3	regulate/STIM_000.jpg
1902.109	2.134	1	regulate	Run3	regulate/STIM_001.jpg
1907.45	1.498	1	regulate	Run3	regulate/STIM_001.jpg
1912.232	1.561	1	regulate	Run3	regulate/STIM_001.jpg
1916.551	1.896	1	regulate	Run3	regulate/STIM_001.jpg
1920.706	1.845	1	regulate	Run3	regulate/STIM_002.jpg
1926.033	2.378	1	regulate	Run3	regulate/STIM_002.jpg
1930.704	2.149	1	regulate	Run3	regulate/STIM_002.jpg
1935.116	1.944	1	regulate	Run3	regulate/STIM_002.jpg
1939.393	1.199	1	regulate	Run3	regulate/STIM_003.jpg
1943.498	1.05	1	regulate	Run3	regulate/STIM_003.jpg
1948.36	2.311	1	regulate	Run3	regulate/STIM_003.jpg
1953.191	1.247	1	regulate	Run3	regulate/STIM_003.jpg
1956.433	1.6	1	regulate	Run3	regulate/STIM_004.jpg
1960.511	1.39	1	regulate	Run3	regulate/STIM_004.jpg
1964.987	2.046	1	regulate	Run3	regulate/STIM_004.jpg
1970.28	2.036	1	regulate	Run3	regulate/STIM_004.jpg
1976.268	1.889	1	regulate	Run3	regulate/STIM_005.jpg
1981.35	1.034	1	regulate	Run3	regulate/STIM_005.jpg
1986.031	1.418	0	regulate	Run3	regulate/STIM_005.jpg
1990.847	2.051	1	regulate	Run3	regulate/STIM_005.jpg
1996.352	1.606	1	regulate	Run3	regulate/STIM_006.jpg
2001.997	1.08	1	regulate	Run3	regulate/STIM_006.jpg
2006.373	1.34	1	regulate	Run3	regulate/STIM_006.jpg
2011.121	1.806	1	regulate	Run3	regulate/STIM_006.jpg
2016.891	2.02	1	regulate	Run3	regulate/STIM_007.jpg
2021.708	1.726	0	regulate	Run3	regulate/STIM_007.jpg
2026.657	1.49	1	regulate	Run3	regulate/STIM_007.jpg
2031.495	1.486	0	regulate	Run3	regulate/STIM_007.jpg
2035.783	2.166	1	regulate	Run3	regulate/STIM_008.jpg
2040.232	1.836	1	regulate	Run3	regulate/STIM_008.jpg
2044.896	1.986	1	regulate	Run3	regulate/STIM_008.jpg
2050.401	2.073	1	regulate	Run3	regulate/STIM_008.jpg
2055.783	1.7	1	regulate	Run3	regulate/STIM_009.jpg
2061.476	1.762	1	regulate	Run3	regulate/STIM_009.jpg
2065.68	1.336	1	regulate	Run3	regulate/STIM_009.jpg
2070.002	1.754	1	regulate	Run3	regulate/STIM_009.jpg
2075.144	1.95	1	regulate	Run3	regulate/STIM_010.jpg
2079.279	2.329	1	regulate	Run3	regulate/STIM_010.jpg
2085.682	1.466	1	regulate	Run3	regulate/STIM_010.jpg
2090.812	1.247	1	regulate	Run3	regulate/STIM_010.jpg
2095.357	2.285	1	regulate	Run3	regulate/STIM_011.jpg
2100.44	1.276	1	regulate	Run3	regulate/STIM_011.jpg
2103.792	1.598	1	regulate	Run3	regulate/STIM_011.jpg
2108.194	2.243	1	regulate	Run3	regulate/STIM_011.jpg
2113.302	1.31	1	regulate	Run3	regulate/STIM_012.jpg
2116.654	1.777	1	regulate	Run3	regulate/STIM_012.jpg
2121.72	1.532	1	regulate	Run3	regulate/STIM_012.jpg
2127.345	1.889	1	regulate	Run3	regulate/STIM_012.jpg
2131.474	1.975	1	regulate	Run3	regulate/STIM_013.jpg
2137.538	1.635	1	regulate	Run3	regulate/STIM_013.jpg
2142.687	2.091	1	regulate	Run3	regulate/STIM_013.jpg
2147.36	1.318	1	regulate	Run3	regulate/STIM_013.jpg
2151.6	1.041	0	regulate	Run3	regulate/STIM_014.jpg
2155.971	2.359	0	regulate	Run3	regulate/STIM_014.jpg
2160.726	2.154	1	regulate	Run3	regulate/STIM_014.jpg
2165.518	2.092	1	regulate	Run3	regulate/STIM_014.jpg
2170.653	1.575	0	regulate	Run3	regulate/STIM_015.jpg
2175.878	2.095	1	regulate	Run3	regulate/STIM_015.jpg
2181.466	2.436	1	regulate	Run3	regulate/STIM_015.jpg
2187.527	1.795	1	regulate	Run3	regulate/STIM_015.jpg
2192.224	2.175	0	regulate	Run3	regulate/STIM_016.jpg
2198.258	1.231	1	regulate	Run3	regulate/STIM_016.jpg
2203.299	1.108	1	regulate	Run3	regulate/STIM_016.jpg
2206.488	2.259	1	regulate	Run3	regulate/STIM_016.jpg
2212.364	1.218	1	regulate	Run3	regulate/STIM_017.jpg
2217.361	1.103	1	regulate	Run3	regulate/STIM_017.jpg
2221.746	2.152	1	regulate	Run3	regulate/STIM_017.jpg
2227.365	2.008	1	regulate	Run3	regulate/STIM_017.jpg
2233.051	1.434	1	regulate	Run3	regulate/STIM_018.jpg
2237.67	1.228	1	regulate	Run3	regulate/STIM_018.jpg
2240.968	2.322	1	regulate	Run3	regulate/STIM_018.jpg
2245.677	2.223	0	regulate	Run3	regulate/STIM_018.jpg
2251.665	1.533	1	regulate	Run3	regulate/STIM_019.jpg
2255.754	1.552	0	regulate	Run3	regulate/STIM_019.jpg
2259.624	1.526	1	regulate	Run3	regulate/STIM_019.jpg
2264.574	1.617	1	regulate	Run3	regulate/STIM_019.jpg
2269.543	1.081	1	regulate	Run3	regulate/STIM_020.jpg
2273.408	1.61	1	regulate	Run3	regulate/STIM_020.jpg
2277.194	1.694	1	regulate	Run3	regulate/STIM_020.jpg
2280.969	1.84	1	regulate	Run3	regulate/STIM_020.jpg
2285.794	2.03	0	regulate	Run3	regulate/STIM_021.jpg
2290.259	1.151	1	regulate	Run3	regulate/STIM_021.jpg
2294.947	1.38	1	regulate	Run3	regulate/STIM_021.jpg
2299.818	1.031	1	regulate	Run3	regulate/STIM_021.jpg
2304.42	1.39	1	regulate	Run3	regulate/STIM_022.jpg
2308.742	1.62	1	regulate	Run3	regulate/STIM_022.jpg
2313.75	2.154	1	regulate	Run3	regulate/STIM_022.jpg
2318.249	1.065	1	regulate	Run3	regulate/STIM_022.jpg
2322.794	1.606	1	regulate	Run3	regulate/STIM_023.jpg
2327.452	1.057	0	regulate	Run3	regulate/STIM_023.jpg
2330.689	1.249	1	regulate	Run3	regulate/STIM_023.jpg
2334.358	2.158	1	regulate	Run3	regulate/STIM_023.jpg
2339.3	1.264	1	regulate	Run3	regulate/STIM_024.jpg
2343.236	1.073	1	regulate	Run3	regulate/STIM_024.jpg
2347.381	1.494	1	regulate	Run3	regulate/STIM_024.jpg
2352.599	1.802	1	regulate	Run3	regulate/STIM_024.jpg
2357.501	2.165	1	regulate	Run3	regulate/STIM_025.jpg
2362.094	1.236	1	regulate	Run3	regulate/STIM_025.jpg
2366.461	2.058	1	regulate	Run3	regulate/STIM_025.jpg
2371.722	1.342	1	regulate	Run3	regulate/STIM_025.jpg
2375.576	1.502	1	regulate	Run3	regulate/STIM_026.jpg
2381.216	1.828	1	regulate	Run3	regulate/STIM_026.jpg
2386.343	2.35	1	regulate	Run3	regulate/STIM_026.jpg
2391.049	2.056	1	regulate	Run3	regulate/STIM_026.jpg
2396.44	1.957	1	regulate	Run3	regulate/STIM_027.jpg
2400.785	1.096	1	regulate	Run3	regulate/STIM_027.jpg
2405.874	1.243	0	regulate	Run3	regulate/STIM_027.jpg
2410.857	2.198	1	regulate	Run3	regulate/STIM_027.jpg
2415.663	1.309	1	regulate	Run3	regulate/STIM_028.jpg
2420.338	1.261	1	regulate	Run3	regulate/STIM_028.jpg
2425.462	1.683	1	regulate	Run3	regulate/STIM_028.jpg
2429.638	2.251	1	regulate	Run3	regulate/STIM_028.jpg
2435.947	2.01	1	regulate	Run3	regulate/STIM_029.jpg
2441.094	2.224	0	regulate	Run3	regulate/STIM_029.jpg
2445.672	1.097	1	regulate	Run3	regulate/STIM_029.jpg
2450.219	1.222	1	regulate	Run3	regulate/STIM_029.jpg
2454.108	0.937	1	observe	Run3	observe/STIM_000.jpg
2457.9	1.178	0	observe	Run3	observe/STIM_000.jpg
2461.352	1.35	1	observe	Run3	observe/STIM_000.jpg
2466.661	0.842	1	observe	Run3	observe/STIM_000.jpg
2470.325	1.117	1	observe	Run3	observe/STIM_001.jpg
2475.285	1.011	1	observe	Run3	observe/STIM_001.jpg
2478.98	0.961	1	observe	Run3	observe/STIM_001.jpg
2482.549	0.883	1	observe	Run3	observe/STIM_001.jpg
2486.445	1.106	1	observe	Run3	observe/STIM_002.jpg
2491.131	0.97	1	observe	Run3	observe/STIM_002.jpg
2494.884	1.518	1	observe	Run3	observe/STIM_002.jpg
2500.375	1.341	1	observe	Run3	observe/STIM_002.jpg
2505.592	1.262	1	observe	Run3	observe/STIM_003.jpg
2509.512	0.9	1	observe	Run3	observe/STIM_003.jpg
2513.754	1.448	1	observe	Run3	observe/STIM_003.jpg
2517.572	1.337	1	observe	Run3	observe/STIM_003.jpg
2521.446	1.013	1	observe	Run3	observe/STIM_004.jpg
2526.057	1.049	1	observe	Run3	observe/STIM_004.jpg
2530.22	1.248	0	observe	Run3	observe/STIM_004.jpg
2533.636	1.218	0	observe	Run3	observe/STIM_004.jpg
2537.329	0.939	1	observe	Run3	observe/STIM_005.jpg
2541.958	1.244	1	observe	Run3	observe/STIM_005.jpg
2546.75	1.284	1	observe	Run3	observe/STIM_005.jpg
2550.21	1.216	1	observe	Run3	observe/STIM_005.jpg
2553.593	0.638	1	observe	Run3	observe/STIM_006.jpg
2557.918	1.612	1	observe	Run3	observe/STIM_006.jpg
2563.042	1.422	1	observe	Run3	observe/STIM_006.jpg
2566.645	0.828	0	observe	Run3	observe/STIM_006.jpg
2570.552	1.229	1	observe	Run3	observe/STIM_007.jpg
2574.057	1.492	1	observe	Run3	observe/STIM_007.jpg
2578.947	1.495	0	observe	Run3	observe/STIM_007.jpg
2583.775	1.217	1	observe	Run3	observe/STIM_007.jpg
2587.531	1.291	1	observe	Run3	observe/STIM_008.jpg
2591.273	1.301	0	observe	Run3	observe/STIM_008.jpg
2595.817	1.183	1	observe	Run3	observe/STIM_008.jpg
2599.201	0.882	1	observe	Run3	observe/STIM_008.jpg
2602.343	0.815	1	observe	Run3	observe/STIM_009.jpg
2605.49	1.457	1	observe	Run3	observe/STIM_009.jpg
2611.001	1.216	1	observe	Run3	observe/STIM_009.jpg
2614.395	0.882	0	observe	Run3	observe/STIM_009.jpg
2618.107	0.828	1	observe	Run3	observe/STIM_010.jpg
2622.054	0.975	1	observe	Run3	observe/STIM_010.jpg
2625.456	1.37	1	observe	Run3	observe/STIM_010.jpg
2630.506	1.344	1	observe	Run3	observe/STIM_010.jpg
2635.478	1.256	1	observe	Run3	observe/STIM_011.jpg
2639.341	1.107	1	observe	Run3	observe/STIM_011.jpg
2642.834	1.238	1	observe	Run3	observe/STIM_011.jpg
2646.881	0.794	1	observe	Run3	observe/STIM_011.jpg
2651.021	1.051	1	observe	Run3	observe/STIM_012.jpg
2654.771	1.142	1	observe	Run3	observe/STIM_012.jpg
2658.67	0.86	1	observe	Run3	observe/STIM_012.jpg
2662.061	1.039	1	observe	Run3	observe/STIM_012.jpg
2665.996	1.105	1	observe	Run3	observe/STIM_013.jpg
2670.191	0.932	1	observe	Run3	observe/STIM_013.jpg
2674.227	1.443	1	observe	Run3	observe/STIM_013.jpg
2679.232	0.778	1	observe	Run3	observe/STIM_013.jpg
2683.352	1.367	0	observe	Run3	observe/STIM_014.jpg
2687.488	1.477	0	observe	Run3	observe/STIM_014.jpg
2692.54	1.198	1	observe	Run3	observe/STIM_014.jpg
2697.048	1.418	1	observe	Run3	observe/STIM_014.jpg
2701.834	1.215	1	observe	Run3	observe/STIM_015.jpg
2705.656	1.124	1	observe	Run3	observe/STIM_015.jpg
2709.549	1.004	1	observe	Run3	observe/STIM_015.jpg
2713.194	1.483	1	observe	Run3	observe/STIM_015.jpg
2718.582	1.235	1	observe	Run3	observe/STIM_016.jpg
2722.019	1.256	1	observe	Run3	observe/STIM_016.jpg
2727.122	1.315	1	observe	Run3	observe/STIM_016.jpg
2730.937	1.004	1	observe	Run3	observe/STIM_016.jpg
2734.276	0.867	1	observe	Run3	observe/STIM_017.jpg
2737.919	1.017	1	observe	Run3	observe/STIM_017.jpg
2741.973	1.19	1	observe	Run3	observe/STIM_017.jpg
2746.896	1.462	0	observe	Run3	observe/STIM_017.jpg
2751.637	1.069	1	observe	Run3	observe/STIM_018.jpg
2755.417	1.159	1	observe	Run3	observe/STIM_018.jpg
2759.765	0.813	1	observe	Run3	observe/STIM_018.jpg
2763.173	1.319	1	observe	Run3	observe/STIM_018.jpg
2768.276	0.841	1	observe	Run3	observe/STIM_019.jpg
2772.323	1.453	1	observe	Run3	observe/STIM_019.jpg
2776.113	0.774	1	observe	Run3	observe/STIM_019.jpg
2779.066	1.427	1	observe	Run3	observe/STIM_019.jpg
