onset	duration	response_time_ms	trial_type	learning_stage	stimulus	response_port
0.0	2.199	2198.7	regulate	Run1	regulate/STIM_000.jpg	100
5.644	2.288	2288.5	regulate	Run1	regulate/STIM_000.jpg	100
11.606	2.775	2775.3	regulate	Run1	regulate/STIM_000.jpg	99
16.421	1.756	1756.0	regulate	Run1	regulate/STIM_000.jpg	99
20.57	1.626	1626.5	regulate	Run1	regulate/STIM_001.jpg	100
25.72	3.004	3003.5	regulate	Run1	regulate/STIM_001.jpg	99
30.789	1.542	1542.2	regulate	Run1	regulate/STIM_001.jpg	99
35.973	2.419	2419.1	regulate	Run1	regulate/STIM_001.jpg	99
41.498	1.873	1873.3	regulate	Run1	regulate/STIM_002.jpg	100
46.745	1.377	1377.1	regulate	Run1	regulate/STIM_002.jpg	99
51.978	2.187	2187.0	regulate	Run1	regulate/STIM_002.jpg	100
57.487	1.889	1888.7	regulate	Run1	regulate/STIM_002.jpg	100
62.306	1.834	1833.7	regulate	Run1	regulate/STIM_003.jpg	99
66.174	1.536	1535.6	regulate	Run1	regulate/STIM_003.jpg	99
70.31	2.451	2451.3	regulate	Run1	regulate/STIM_003.jpg	100
76.6	2.094	2093.5	regulate	Run1	regulate/STIM_003.jpg	100
82.031	2.499	2498.9	regulate	Run1	regulate/STIM_004.jpg	99
87.82	2.95	2949.6	regulate	Run1	regulate/STIM_004.jpg	99
93.957	2.002	2002.1	regulate	Run1	regulate/STIM_004.jpg	99
98.637	2.314	2314.0	regulate	Run1	regulate/STIM_004.jpg	99
103.133	1.594	1593.6	regulate	Run1	regulate/STIM_005.jpg	100
107.18	2.241	2241.3	regulate	Run1	regulate/STIM_005.jpg	100
112.547	1.264	1263.6	regulate	Run1	regulate/STIM_005.jpg	99
116.669	1.279	1278.6	regulate	Run1	regulate/STIM_005.jpg	100
120.745	2.15	2149.9	regulate	Run1	regulate/STIM_006.jpg	99
125.631	2.405	2404.9	regulate	Run1	regulate/STIM_006.jpg	100
131.326	1.354	1353.9	regulate	Run1	regulate/STIM_006.jpg	99
136.539	2.271	2271.0	regulate	Run1	regulate/STIM_006.jpg	100
140.99	1.608	1607.8	regulate	Run1	regulate/STIM_007.jpg	99
145.338	2.824	2823.6	regulate	Run1	regulate/STIM_007.jpg	99
150.188	2.231	2230.6	regulate	Run1	regulate/STIM_007.jpg	100
154.565	1.184	1183.5	regulate	Run1	regulate/STIM_007.jpg	99
157.848	2.988	2988.0	regulate	Run1	regulate/STIM_008.jpg	100
163.229	1.362	1361.6	regulate	Run1	regulate/STIM_008.jpg	99
168.427	1.732	1732.0	regulate	Run1	regulate/STIM_008.jpg	99
172.608	1.956	1956.2	regulate	Run1	regulate/STIM_008.jpg	100
177.711	2.419	2418.8	regulate	Run1	regulate/STIM_009.jpg	99
183.372	1.628	1627.6	regulate	Run1	regulate/STIM_009.jpg	100
187.917	1.748	1747.7	regulate	Run1	regulate/STIM_009.jpg	99
191.765	1.622	1621.9	regulate	Run1	regulate/STIM_009.jpg	99
196.791	1.605	1605.2	regulate	Run1	regulate/STIM_010.jpg	99
201.802	2.691	2690.9	regulate	Run1	regulate/STIM_010.jpg	100
208.2	2.444	2444.0	regulate	Run1	regulate/STIM_010.jpg	99
212.674	1.802	1801.6	regulate	Run1	regulate/STIM_010.jpg	100
218.163	1.806	1805.9	regulate	Run1	regulate/STIM_011.jpg	99
222.013	2.693	2692.7	regulate	Run1	regulate/STIM_011.jpg	99
226.744	2.54	2539.6	regulate	Run1	regulate/STIM_011.jpg	99
232.278	2.472	2471.7	regulate	Run1	regulate/STIM_011.jpg	100
238.434	2.225	2225.4	regulate	Run1	regulate/STIM_012.jpg	99
242.923	2.297	2297.3	regulate	Run1	regulate/STIM_012.jpg	99
248.477	2.803	2803.2	regulate	Run1	regulate/STIM_012.jpg	100
253.428	1.826	1825.7	regulate	Run1	regulate/STIM_012.jpg	99
258.734	2.382	2382.4	regulate	Run1	regulate/STIM_013.jpg	99
264.006	2.556	2556.0	regulate	Run1	regulate/STIM_013.jpg	100
268.787	2.681	2680.6	regulate	Run1	regulate/STIM_013.jpg	99
273.788	2.492	2491.8	regulate	Run1	regulate/STIM_013.jpg	99
280.068	2.418	2418.4	regulate	Run1	regulate/STIM_014.jpg	99
286.452	1.692	1692.4	regulate	Run1	regulate/STIM_014.jpg	99
292.055	2.658	2657.5	regulate	Run1	regulate/STIM_014.jpg	100
298.264	1.407	1407.0	regulate	Run1	regulate/STIM_014.jpg	99
302.68	2.708	2708.4	regulate	Run1	regulate/STIM_015.jpg	99
309.368	1.522	1521.6	regulate	Run1	regulate/STIM_015.jpg	99
313.792	1.932	1931.5	regulate	Run1	regulate/STIM_015.jpg	100
318.126	2.698	2698.1	regulate	Run1	regulate/STIM_015.jpg	99
324.748	1.968	1967.7	regulate	Run1	regulate/STIM_016.jpg	100
330.402	2.799	2799.0	regulate	Run1	regulate/STIM_016.jpg	99
337.117	2.81	2810.0	regulate	Run1	regulate/STIM_016.jpg	99
342.372	1.465	1465.1	regulate	Run1	regulate/STIM_016.jpg	100
346.959	1.764	1763.9	regulate	Run1	regulate/STIM_017.jpg	100
351.323	2.713	2713.1	regulate	Run1	regulate/STIM_017.jpg	100
357.156	2.28	2279.9	regulate	Run1	regulate/STIM_017.jpg	100
361.727	2.548	2548.2	regulate	Run1	regulate/STIM_017.jpg	100
367.981	1.991	1990.8	regulate	Run1	regulate/STIM_018.jpg	100
373.693	2.603	2603.1	regulate	Run1	regulate/STIM_018.jpg	100
379.45	1.715	1714.6	regulate	Run1	regulate/STIM_018.jpg	99
384.29	2.391	2390.8	regulate	Run1	regulate/STIM_018.jpg	99
389.583	2.149	2149.2	regulate	Run1	regulate/STIM_019.jpg	100
395.326	2.801	2801.2	regulate	Run1	regulate/STIM_019.jpg	100
401.572	2.601	2601.3	regulate	Run1	regulate/STIM_019.jpg	99
408.164	1.576	1575.7	regulate	Run1	regulate/STIM_019.jpg	99
411.955	3.003	3003.4	regulate	Run1	regulate/STIM_020.jpg	100
418.935	2.607	2606.6	regulate	Run1	regulate/STIM_020.jpg	100
424.593	2.225	2224.7	regulate	Run1	regulate/STIM_020.jpg	100
430.648	1.93	1930.5	regulate	Run1	regulate/STIM_020.jpg	100
435.169	2.179	2179.1	regulate	Run1	regulate/STIM_021.jpg	99
441.155	2.465	2465.4	regulate	Run1	regulate/STIM_021.jpg	100
446.172	1.609	1609.1	regulate	Run1	regulate/STIM_021.jpg	100
450.208	1.443	1442.6	regulate	Run1	regulate/STIM_021.jpg	100
454.662	2.339	2339.4	regulate	Run1	regulate/STIM_022.jpg	100
460.971	1.987	1986.7	regulate	Run1	regulate/STIM_022.jpg	99
465.93	1.516	1516.1	regulate	Run1	regulate/STIM_022.jpg	100
470.875	2.6	2600.1	regulate	Run1	regulate/STIM_022.jpg	99
477.063	2.621	2620.8	regulate	Run1	regulate/STIM_023.jpg	100
483.098	1.53	1529.5	regulate	Run1	regulate/STIM_023.jpg	99
487.299	1.953	1953.1	regulate	Run1	regulate/STIM_023.jpg	100
491.51	1.948	1947.8	regulate	Run1	regulate/STIM_023.jpg	100
497.319	2.723	2723.3	regulate	Run1	regulate/STIM_024.jpg	100
503.997	2.695	2695.1	regulate	Run1	regulate/STIM_024.jpg	99
509.65	2.172	2171.9	regulate	Run1	regulate/STIM_024.jpg	99
515.014	2.34	2340.0	regulate	Run1	regulate/STIM_024.jpg	99
519.905	2.619	2619.1	regulate	Run1	regulate/STIM_025.jpg	100
525.505	2.446	2446.0	regulate	Run1	regulate/STIM_025.jpg	100
530.416	1.263	1263.3	regulate	Run1	regulate/STIM_025.jpg	99
533.762	1.236	1236.4	regulate	Run1	regulate/STIM_025.jpg	100
538.263	2.679	2679.2	regulate	Run1	regulate/STIM_026.jpg	99
544.318	2.444	2443.9	regulate	Run1	regulate/STIM_026.jpg	100
550.577	1.438	1438.2	regulate	Run1	regulate/STIM_026.jpg	99
554.329	2.602	2602.1	regulate	Run1	regulate/STIM_026.jpg	100
559.805	2.487	2487.2	regulate	Run1	regulate/STIM_027.jpg	99
565.364	1.64	1640.2	regulate	Run1	regulate/STIM_027.jpg	100
569.914	1.556	1556.4	regulate	Run1	regulate/STIM_027.jpg	100
573.693	1.981	1981.0	regulate	Run1	regulate/STIM_027.jpg	99
579.625	1.685	1685.2	regulate	Run1	regulate/STIM_028.jpg	100
583.751	1.37	1370.4	regulate	Run1	regulate/STIM_028.jpg	100
588.579	2.395	2394.8	regulate	Run1	regulate/STIM_028.jpg	100
594.838	1.772	1772.2	regulate	Run1	regulate/STIM_028.jpg	100
599.463	3.124	3123.6	regulate	Run1	regulate/STIM_029.jpg	100
604.874	2.028	2028.2	regulate	Run1	regulate/STIM_029.jpg	100
609.871	2.069	2069.4	regulate	Run1	regulate/STIM_029.jpg	100
614.542	2.571	2570.9	regulate	Run1	regulate/STIM_029.jpg	99
619.194	1.165	1165.2	observe	Run1	observe/STIM_000.jpg	100
623.48	0.76	760.0	observe	Run1	observe/STIM_000.jpg	100
627.288	1.276	1275.7	observe	Run1	observe/STIM_000.jpg	99
631.121	1.189	1189.3	observe	Run1	observe/STIM_000.jpg	100
634.527	1.338	1337.9	observe	Run1	observe/STIM_001.jpg	99
638.523	0.76	760.5	observe	Run1	observe/STIM_001.jpg	100
642.224	1.027	1027.1	observe	Run1	observe/STIM_001.jpg	99
646.881	0.758	757.7	observe	Run1	observe/STIM_001.jpg	99
651.391	0.874	874.3	observe	Run1	observe/STIM_002.jpg	100
654.584	1.048	1048.4	observe	Run1	observe/STIM_002.jpg	100
659.264	0.888	888.0	observe	Run1	observe/STIM_002.jpg	99
662.609	0.948	947.7	observe	Run1	observe/STIM_002.jpg	100
665.938	0.899	898.9	observe	Run1	observe/STIM_003.jpg	100
670.816	1.347	1347.0	observe	Run1	observe/STIM_003.jpg	99
674.804	0.788	788.0	observe	Run1	observe/STIM_003.jpg	99
677.606	0.812	812.2	observe	Run1	observe/STIM_003.jpg	99
680.564	1.426	1425.6	observe	Run1	observe/STIM_004.jpg	100
684.776	1.216	1215.7	observe	Run1	observe/STIM_004.jpg	100
689.248	0.793	793.3	observe	Run1	observe/STIM_004.jpg	100
692.703	0.787	787.2	observe	Run1	observe/STIM_004.jpg	99
696.592	1.436	1436.2	observe	Run1	observe/STIM_005.jpg	100
701.675	1.4	1400.0	observe	Run1	observe/STIM_005.jpg	99
705.369	1.429	1429.1	observe	Run1	observe/STIM_005.jpg	99
709.514	0.76	759.8	observe	Run1	observe/STIM_005.jpg	99
714.048	1.058	1058.0	observe	Run1	observe/STIM_006.jpg	100
718.095	1.34	1339.6	observe	Run1	observe/STIM_006.jpg	99
723.395	1.027	1026.8	observe	Run1	observe/STIM_006.jpg	99
727.017	1.24	1240.2	observe	Run1	observe/STIM_006.jpg	99
731.231	0.787	787.1	observe	Run1	observe/STIM_007.jpg	100
735.176	0.739	738.6	observe	Run1	observe/STIM_007.jpg	99
739.68	0.738	738.3	observe	Run1	observe/STIM_007.jpg	100
742.883	1.129	1128.6	observe	Run1	observe/STIM_007.jpg	99
746.196	0.877	877.1	observe	Run1	observe/STIM_008.jpg	100
750.719	1.406	1406.1	observe	Run1	observe/STIM_008.jpg	99
754.168	0.754	754.3	observe	Run1	observe/STIM_008.jpg	100
757.848	1.188	1188.0	observe	Run1	observe/STIM_008.jpg	99
761.759	1.146	1145.7	observe	Run1	observe/STIM_009.jpg	100
766.077	0.962	962.4	observe	Run1	observe/STIM_009.jpg	99
770.137	0.974	974.5	observe	Run1	observe/STIM_009.jpg	100
774.32	0.928	928.0	observe	Run1	observe/STIM_009.jpg	99
778.359	0.916	915.6	observe	Run1	observe/STIM_010.jpg	99
781.636	0.744	744.0	observe	Run1	observe/STIM_010.jpg	100
784.431	0.771	770.7	observe	Run1	observe/STIM_010.jpg	99
789.147	0.997	997.2	observe	Run1	observe/STIM_010.jpg	99
792.486	0.762	761.8	observe	Run1	observe/STIM_011.jpg	99
795.58	0.838	838.1	observe	Run1	observe/STIM_011.jpg	99
800.41	1.282	1282.1	observe	Run1	observe/STIM_011.jpg	100
805.371	1.419	1418.6	observe	Run1	observe/STIM_011.jpg	100
810.628	1.181	1180.9	observe	Run1	observe/STIM_012.jpg	99
814.498	0.806	806.0	observe	Run1	observe/STIM_012.jpg	100
818.287	1.045	1045.2	observe	Run1	observe/STIM_012.jpg	100
823.108	0.899	899.2	observe	Run1	observe/STIM_012.jpg	100
826.11	1.415	1415.0	observe	Run1	observe/STIM_013.jpg	100
829.798	0.955	954.6	observe	Run1	observe/STIM_013.jpg	99
833.716	1.275	1275.4	observe	Run1	observe/STIM_013.jpg	99
838.079	1.323	1323.3	observe	Run1	observe/STIM_013.jpg	99
841.781	1.449	1449.0	observe	Run1	observe/STIM_014.jpg	100
846.921	1.039	1038.6	observe	Run1	observe/STIM_014.jpg	99
851.389	1.025	1025.1	observe	Run1	observe/STIM_014.jpg	99
855.785	0.824	823.5	observe	Run1	observe/STIM_014.jpg	100
860.255	1.137	1137.3	observe	Run1	observe/STIM_015.jpg	99
863.962	1.272	1272.3	observe	Run1	observe/STIM_015.jpg	99
867.446	1.202	1202.4	observe	Run1	observe/STIM_015.jpg	99
871.365	1.174	1173.7	observe	Run1	observe/STIM_015.jpg	99
875.761	0.756	755.6	observe	Run1	observe/STIM_016.jpg	100
880.402	0.918	917.9	observe	Run1	observe/STIM_016.jpg	100
884.537	1.332	1332.2	observe	Run1	observe/STIM_016.jpg	99
889.559	1.073	1073.1	observe	Run1	observe/STIM_016.jpg	100
892.832	1.096	1096.5	observe	Run1	observe/STIM_017.jpg	100
896.874	1.21	1210.0	observe	Run1	observe/STIM_017.jpg	99
900.744	1.066	1066.0	observe	Run1	observe/STIM_017.jpg	100
905.629	0.794	794.5	observe	Run1	observe/STIM_017.jpg	100
910.157	1.029	1029.0	observe	Run1	observe/STIM_018.jpg	99
914.616	1.41	1410.0	observe	Run1	observe/STIM_018.jpg	100
918.067	1.168	1168.1	observe	Run1	observe/STIM_018.jpg	100
921.914	1.146	1145.7	observe	Run1	observe/STIM_018.jpg	99
926.194	0.742	741.9	observe	Run1	observe/STIM_019.jpg	99
929.394	1.448	1447.8	observe	Run1	observe/STIM_019.jpg	100
934.815	0.878	878.0	observe	Run1	observe/STIM_019.jpg	99
938.81	1.323	1323.4	observe	Run1	observe/STIM_019.jpg	99
942.761	2.21	2210.4	regulate	Run2	regulate/STIM_000.jpg	100
947.639	2.012	2012.0	regulate	Run2	regulate/STIM_000.jpg	100
952.219	2.012	2011.6	regulate	Run2	regulate/STIM_000.jpg	99
956.368	1.79	1789.5	regulate	Run2	regulate/STIM_000.jpg	100
962.084	1.178	1178.1	regulate	Run2	regulate/STIM_001.jpg	100
966.763	1.437	1437.0	regulate	Run2	regulate/STIM_001.jpg	99
971.772	1.545	1545.4	regulate	Run2	regulate/STIM_001.jpg	99
976.139	1.03	1029.7	regulate	Run2	regulate/STIM_001.jpg	99
979.76	1.822	1822.2	regulate	Run2	regulate/STIM_002.jpg	99
984.444	1.689	1689.1	regulate	Run2	regulate/STIM_002.jpg	99
989.228	1.221	1221.1	regulate	Run2	regulate/STIM_002.jpg	100
993.687	2.08	2080.3	regulate	Run2	regulate/STIM_002.jpg	100
999.54	1.165	1165.2	regulate	Run2	regulate/STIM_003.jpg	100
1004.693	1.096	1096.3	regulate	Run2	regulate/STIM_003.jpg	100
1007.854	1.125	1124.6	regulate	Run2	regulate/STIM_003.jpg	100
1011.906	1.862	1861.6	regulate	Run2	regulate/STIM_003.jpg	100
1016.169	1.394	1394.4	regulate	Run2	regulate/STIM_004.jpg	99
1020.511	1.35	1350.2	regulate	Run2	regulate/STIM_004.jpg	99
1024.716	2.293	2292.7	regulate	Run2	regulate/STIM_004.jpg	99
1030.54	2.123	2123.1	regulate	Run2	regulate/STIM_004.jpg	99
1036.63	2.692	2691.8	regulate	Run2	regulate/STIM_005.jpg	99
1042.796	2.156	2156.4	regulate	Run2	regulate/STIM_005.jpg	99
1047.169	1.113	1112.6	regulate	Run2	regulate/STIM_005.jpg	99
1051.359	1.284	1284.2	regulate	Run2	regulate/STIM_005.jpg	99
1054.88	1.758	1758.1	regulate	Run2	regulate/STIM_006.jpg	99
1060.379	1.286	1285.5	regulate	Run2	regulate/STIM_006.jpg	100
1063.721	2.335	2334.9	regulate	Run2	regulate/STIM_006.jpg	99
1068.363	1.586	1586.3	regulate	Run2	regulate/STIM_006.jpg	100
1073.824	2.381	2381.2	regulate	Run2	regulate/STIM_007.jpg	99
1079.805	2.035	2034.6	regulate	Run2	regulate/STIM_007.jpg	100
1084.498	2.304	2304.0	regulate	Run2	regulate/STIM_007.jpg	99
1090.489	1.548	1548.5	regulate	Run2	regulate/STIM_007.jpg	99
1095.693	1.435	1435.3	regulate	Run2	regulate/STIM_008.jpg	100
1100.102	2.32	2320.2	regulate	Run2	regulate/STIM_008.jpg	100
1104.543	1.41	1410.2	regulate	Run2	regulate/STIM_008.jpg	99
1108.699	1.311	1311.1	regulate	Run2	regulate/STIM_008.jpg	100
1113.523	2.391	2391.4	regulate	Run2	regulate/STIM_009.jpg	100
1119.228	1.518	1518.3	regulate	Run2	regulate/STIM_009.jpg	99
1123.699	1.902	1901.7	regulate	Run2	regulate/STIM_009.jpg	100
1128.247	1.556	1556.5	regulate	Run2	regulate/STIM_009.jpg	99
1132.37	2.468	2468.2	regulate	Run2	regulate/STIM_010.jpg	99
1138.715	1.158	1158.4	regulate	Run2	regulate/STIM_010.jpg	99
1143.004	2.133	2133.3	regulate	Run2	regulate/STIM_010.jpg	100
1147.666	1.267	1267.1	regulate	Run2	regulate/STIM_010.jpg	100
1151.29	1.819	1818.8	regulate	Run2	regulate/STIM_011.jpg	100
1155.113	2.178	2178.4	regulate	Run2	regulate/STIM_011.jpg	100
1160.985	2.351	2350.8	regulate	Run2	regulate/STIM_011.jpg	99
1166.389	1.816	1816.5	regulate	Run2	regulate/STIM_011.jpg	100
1170.999	1.874	1874.5	regulate	Run2	regulate/STIM_012.jpg	100
1176.712	2.411	2411.1	regulate	Run2	regulate/STIM_012.jpg	100
1182.991	2.095	2094.8	regulate	Run2	regulate/STIM_012.jpg	99
1187.74	1.061	1060.7	regulate	Run2	regulate/STIM_012.jpg	100
1191.313	2.357	2357.1	regulate	Run2	regulate/STIM_013.jpg	99
1196.527	1.127	1127.0	regulate	Run2	regulate/STIM_013.jpg	100
1199.878	1.09	1090.1	regulate	Run2	regulate/STIM_013.jpg	99
1203.815	0.954	954.2	regulate	Run2	regulate/STIM_013.jpg	100
1207.83	1.504	1503.8	regulate	Run2	regulate/STIM_014.jpg	99
1212.762	1.207	1206.7	regulate	Run2	regulate/STIM_014.jpg	100
1217.339	1.351	1350.7	regulate	Run2	regulate/STIM_014.jpg	99
1221.675	2.199	2198.8	regulate	Run2	regulate/STIM_014.jpg	100
1227.657	1.294	1294.3	regulate	Run2	regulate/STIM_015.jpg	99
1231.015	1.929	1928.7	regulate	Run2	regulate/STIM_015.jpg	100
1235.21	1.411	1410.8	regulate	Run2	regulate/STIM_015.jpg	99
1240.604	1.477	1476.8	regulate	Run2	regulate/STIM_015.jpg	100
1245.448	1.762	1761.8	regulate	Run2	regulate/STIM_016.jpg	100
1250.923	2.468	2468.2	regulate	Run2	regulate/STIM_016.jpg	100
1255.906	1.415	1415.2	regulate	Run2	regulate/STIM_016.jpg	100
1260.002	2.074	2074.3	regulate	Run2	regulate/STIM_016.jpg	99
1265.409	1.631	1631.2	regulate	Run2	regulate/STIM_017.jpg	99
1269.411	1.909	1908.6	regulate	Run2	regulate/STIM_017.jpg	100
1274.651	1.949	1949.3	regulate	Run2	regulate/STIM_017.jpg	100
1278.768	1.472	1472.0	regulate	Run2	regulate/STIM_017.jpg	100
1282.534	1.875	1875.2	regulate	Run2	regulate/STIM_018.jpg	100
1287.748	1.226	1225.5	regulate	Run2	regulate/STIM_018.jpg	99
1292.744	2.276	2276.1	regulate	Run2	regulate/STIM_018.jpg	99
1298.683	1.796	1796.4	regulate	Run2	regulate/STIM_018.jpg	99
1304.33	1.434	1433.6	regulate	Run2	regulate/STIM_019.jpg	100
1308.522	1.91	1910.3	regulate	Run2	regulate/STIM_019.jpg	99
1312.785	1.125	1125.4	regulate	Run2	regulate/STIM_019.jpg	99
1317.245	2.012	2011.8	regulate	Run2	regulate/STIM_019.jpg	99
1322.839	1.176	1175.7	regulate	Run2	regulate/STIM_020.jpg	99
1326.434	2.383	2382.7	regulate	Run2	regulate/STIM_020.jpg	100
1331.113	1.462	1461.7	regulate	Run2	regulate/STIM_020.jpg	100
1335.652	1.732	1732.0	regulate	Run2	regulate/STIM_020.jpg	100
1341.204	2.67	2669.9	regulate	Run2	regulate/STIM_021.jpg	99
1345.969	2.176	2176.0	regulate	Run2	regulate/STIM_021.jpg	100
1350.397	2.301	2301.4	regulate	Run2	regulate/STIM_021.jpg	100
1355.072	1.074	1074.5	regulate	Run2	regulate/STIM_021.jpg	99
1358.983	2.095	2095.3	regulate	Run2	regulate/STIM_022.jpg	99
1363.711	1.653	1653.4	regulate	Run2	regulate/STIM_022.jpg	99
1368.657	1.756	1755.5	regulate	Run2	regulate/STIM_022.jpg	99
1373.73	1.234	1234.2	regulate	Run2	regulate/STIM_022.jpg	99
1378.803	1.746	1746.2	regulate	Run2	regulate/STIM_023.jpg	99
1384.049	1.704	1704.2	regulate	Run2	regulate/STIM_023.jpg	100
1387.858	1.544	1543.8	regulate	Run2	regulate/STIM_023.jpg	99
1393.135	1.452	1451.8	regulate	Run2	regulate/STIM_023.jpg	99
1397.621	2.699	2699.0	regulate	Run2	regulate/STIM_024.jpg	99
1403.796	2.212	2211.6	regulate	Run2	regulate/STIM_024.jpg	99
1409.037	1.181	1180.7	regulate	Run2	regulate/STIM_024.jpg	99
1413.833	2.136	2136.4	regulate	Run2	regulate/STIM_024.jpg	99
1418.737	1.664	1664.0	regulate	Run2	regulate/STIM_025.jpg	100
1423.785	2.19	2189.7	regulate	Run2	regulate/STIM_025.jpg	99
1428.872	1.08	1080.4	regulate	Run2	regulate/STIM_025.jpg	99
1433.483	1.418	1418.5	regulate	Run2	regulate/STIM_025.jpg	99
1437.094	1.221	1220.7	regulate	Run2	regulate/STIM_026.jpg	100
1441.102	1.548	1548.4	regulate	Run2	regulate/STIM_026.jpg	99
1445.352	2.355	2355.1	regulate	Run2	regulate/STIM_026.jpg	100
1451.649	1.48	1480.5	regulate	Run2	regulate/STIM_026.jpg	99
1457.02	1.913	1913.4	regulate	Run2	regulate/STIM_027.jpg	99
1462.379	2.252	2251.8	regulate	Run2	regulate/STIM_027.jpg	100
1468.254	2.117	2116.9	regulate	Run2	regulate/STIM_027.jpg	100
1472.788	2.221	2220.6	regulate	Run2	regulate/STIM_027.jpg	100
1477.147	1.881	1881.4	regulate	Run2	regulate/STIM_028.jpg	99
1482.854	2.407	2406.8	regulate	Run2	regulate/STIM_028.jpg	99
1487.734	2.209	2208.8	regulate	Run2	regulate/STIM_028.jpg	99
1492.589	2.012	2011.6	regulate	Run2	regulate/STIM_028.jpg	99
1496.988	1.787	1787.3	regulate	Run2	regulate/STIM_029.jpg	100
1501.383	1.306	1305.8	regulate	Run2	regulate/STIM_029.jpg	100
1505.225	1.184	1184.5	regulate	Run2	regulate/STIM_029.jpg	100
1509.575	1.463	1462.9	regulate	Run2	regulate/STIM_029.jpg	100
1514.535	1.055	1054.6	observe	Run2	observe/STIM_000.jpg	99
1518.417	0.933	933.0	observe	Run2	observe/STIM_000.jpg	100
1522.951	1.27	1270.2	observe	Run2	observe/STIM_000.jpg	100
1526.717	0.915	914.8	observe	Run2	observe/STIM_000.jpg	99
1531.609	0.933	932.6	observe	Run2	observe/STIM_001.jpg	99
1536.075	1.214	1214.3	observe	Run2	observe/STIM_001.jpg	99
1539.808	1.047	1046.6	observe	Run2	observe/STIM_001.jpg	100
1543.644	1.044	1044.5	observe	Run2	observe/STIM_001.jpg	99
1546.877	0.818	817.7	observe	Run2	observe/STIM_002.jpg	100
1550.304	0.862	862.3	observe	Run2	observe/STIM_002.jpg	100
1553.478	1.254	1253.8	observe	Run2	observe/STIM_002.jpg	99
1558.719	1.384	1383.8	observe	Run2	observe/STIM_002.jpg	99
1564.035	0.843	843.0	observe	Run2	observe/STIM_003.jpg	100
1568.145	0.848	847.7	observe	Run2	observe/STIM_003.jpg	99
1571.607	1.417	1416.9	observe	Run2	observe/STIM_003.jpg	99
1575.586	1.401	1401.0	observe	Run2	observe/STIM_003.jpg	99
1580.75	0.918	918.5	observe	Run2	observe/STIM_004.jpg	100
1584.549	1.396	1395.6	observe	Run2	observe/STIM_004.jpg	99
1588.066	1.42	1419.5	observe	Run2	observe/STIM_004.jpg	100
1591.835	1.087	1086.6	observe	Run2	observe/STIM_004.jpg	100
1595.688	1.174	1173.7	observe	Run2	observe/STIM_005.jpg	99
1600.715	1.171	1171.2	observe	Run2	observe/STIM_005.jpg	100
1605.248	1.262	1262.1	observe	Run2	observe/STIM_005.jpg	99
1609.527	1.351	1350.6	observe	Run2	observe/STIM_005.jpg	99
1614.218	0.959	958.8	observe	Run2	observe/STIM_006.jpg	99
1617.24	1.436	1435.8	observe	Run2	observe/STIM_006.jpg	100
1620.72	1.222	1222.4	observe	Run2	observe/STIM_006.jpg	99
1625.01	1.084	1084.4	observe	Run2	observe/STIM_006.jpg	99
1628.869	1.263	1262.7	observe	Run2	observe/STIM_007.jpg	100
1632.566	1.297	1297.3	observe	Run2	observe/STIM_007.jpg	100
1637.582	0.736	735.5	observe	Run2	observe/STIM_007.jpg	99
1640.781	1.212	1212.4	observe	Run2	observe/STIM_007.jpg	100
1644.763	1.357	1356.8	observe	Run2	observe/STIM_008.jpg	100
1649.406	0.819	818.6	observe	Run2	observe/STIM_008.jpg	100
1653.25	0.809	809.3	observe	Run2	observe/STIM_008.jpg	100
1657.633	0.735	735.1	observe	Run2	observe/STIM_008.jpg	100
1662.116	0.959	959.3	observe	Run2	observe/STIM_009.jpg	100
1666.204	1.413	1412.8	observe	Run2	observe/STIM_009.jpg	99
1669.889	1.262	1262.0	observe	Run2	observe/STIM_009.jpg	100
1675.019	1.058	1058.2	observe	Run2	observe/STIM_009.jpg	100
1679.001	0.9	899.7	observe	Run2	observe/STIM_010.jpg	100
1683.48	0.749	749.0	observe	Run2	observe/STIM_010.jpg	99
1688.054	1.049	1049.4	observe	Run2	observe/STIM_010.jpg	100
1692.557	0.979	978.7	observe	Run2	observe/STIM_010.jpg	99
1695.837	0.983	982.7	observe	Run2	observe/STIM_011.jpg	99
1700.123	0.776	775.8	observe	Run2	observe/STIM_011.jpg	100
1704.474	1.214	1214.2	observe	Run2	observe/STIM_011.jpg	99
1708.487	1.116	1115.7	observe	Run2	observe/STIM_011.jpg	100
1712.843	1.302	1302.5	observe	Run2	observe/STIM_012.jpg	100
1716.861	1.428	1427.6	observe	Run2	observe/STIM_012.jpg	100
1721.318	0.801	801.0	observe	Run2	observe/STIM_012.jpg	100
1725.25	1.071	1071.1	observe	Run2	observe/STIM_012.jpg	99
1729.918	1.419	1419.3	observe	Run2	observe/STIM_013.jpg	99
1734.284	1.065	1064.9	observe	Run2	observe/STIM_013.jpg	99
1738.069	1.297	1297.4	observe	Run2	observe/STIM_013.jpg	99
1742.854	1.271	1270.8	observe	Run2	observe/STIM_013.jpg	99
1747.81	0.879	878.6	observe	Run2	observe/STIM_014.jpg	100
1751.959	0.731	730.9	observe	Run2	observe/STIM_014.jpg	99
1755.713	0.947	947.1	observe	Run2	observe/STIM_014.jpg	99
1760.408	0.835	834.9	observe	Run2	observe/STIM_014.jpg	100
1763.724	1.139	1139.4	observe	Run2	observe/STIM_015.jpg	99
1767.815	0.802	802.5	observe	Run2	observe/STIM_015.jpg	99
1771.212	1.22	1220.1	observe	Run2	observe/STIM_015.jpg	99
1775.267	0.929	929.3	observe	Run2	observe/STIM_015.jpg	100
1778.409	1.245	1244.6	observe	Run2	observe/STIM_016.jpg	100
1781.917	0.996	995.9	observe	Run2	observe/STIM_016.jpg	100
1786.616	0.973	972.8	observe	Run2	observe/STIM_016.jpg	100
1790.146	1.026	1025.5	observe	Run2	observe/STIM_016.jpg	99
1795.055	1.009	1008.8	observe	Run2	observe/STIM_017.jpg	100
1799.891	1.105	1105.0	observe	Run2	observe/STIM_017.jpg	100
1803.394	1.228	1228.5	observe	Run2	observe/STIM_017.jpg	99
1806.883	0.814	813.5	observe	Run2	observe/STIM_017.jpg	100
1810.615	1.33	1329.6	observe	Run2	observe/STIM_018.jpg	99
1815.236	0.774	774.3	observe	Run2	observe/STIM_018.jpg	99
1818.401	1.152	1152.2	observe	Run2	observe/STIM_018.jpg	99
1823.03	1.225	1224.7	observe	Run2	observe/STIM_018.jpg	100
1827.392	0.731	730.6	observe	Run2	observe/STIM_019.jpg	100
1830.686	0.726	726.4	observe	Run2	observe/STIM_019.jpg	100
1833.625	1.378	1377.7	observe	Run2	observe/STIM_019.jpg	99
1838.687	0.807	806.7	observe	Run2	observe/STIM_019.jpg	99
1841.967	1.526	1526.5	regulate	Run3	regulate/STIM_000.jpg	99
1846.783	1.443	1442.6	regulate	Run3	regulate/STIM_000.jpg	100
1851.647	1.104	1104.4	regulate	Run3	regulate/STIM_000.jpg	100
1854.859	2.157	2157.2	regulate	Run3	regulate/STIM_000.jpg	100
1859.331	2.128	2128.5	regulate	Run3	regulate/STIM_001.jpg	100
1863.706	1.796	1796.5	regulate	Run3	regulate/STIM_001.jpg	99
1867.682	1.987	1987.1	regulate	Run3	regulate/STIM_001.jpg	100
1873.235	1.591	1591.2	regulate	Run3	regulate/STIM_001.jpg	100
1877.694	1.714	1713.9	regulate	Run3	regulate/STIM_002.jpg	99
1881.5	1.483	1482.9	regulate	Run3	regulate/STIM_002.jpg	99
1885.622	1.259	1259.2	regulate	Run3	regulate/STIM_002.jpg	99
1889.023	1.155	1154.8	regulate	Run3	regulate/STIM_002.jpg	100
1892.821	2.199	2198.9	regulate	Run3	regulate/STIM_003.jpg	99
1897.03	1.962	1961.7	regulate	Run3	regulate/STIM_003.jpg	100
1902.357	2.119	2118.8	regulate	Run3	regulate/STIM_003.jpg	100
1907.762	1.275	1274.8	regulate	Run3	regulate/STIM_003.jpg	100
1912.378	1.557	1557.0	regulate	Run3	regulate/STIM_004.jpg	99
1917.169	2.183	2182.9	regulate	Run3	regulate/STIM_004.jpg	99
1922.976	1.766	1765.6	regulate	Run3	regulate/STIM_004.jpg	100
1927.981	2.028	2028.2	regulate	Run3	regulate/STIM_004.jpg	100
1932.226	1.707	1706.6	regulate	Run3	regulate/STIM_005.jpg	100
1937.834	1.878	1878.4	regulate	Run3	regulate/STIM_005.jpg	99
1943.561	1.656	1656.1	regulate	Run3	regulate/STIM_005.jpg	99
1948.852	1.501	1501.1	regulate	Run3	regulate/STIM_005.jpg	99
1953.629	0.958	957.5	regulate	Run3	regulate/STIM_006.jpg	100
1958.452	2.177	2176.9	regulate	Run3	regulate/STIM_006.jpg	99
1964.478	1.06	1059.7	regulate	Run3	regulate/STIM_006.jpg	99
1969.477	2.068	2067.5	regulate	Run3	regulate/STIM_006.jpg	100
1974.358	2.151	2151.4	regulate	Run3	regulate/STIM_007.jpg	100
1979.9	1.118	1118.0	regulate	Run3	regulate/STIM_007.jpg	99
1984.562	2.087	2086.7	regulate	Run3	regulate/STIM_007.jpg	100
1989.248	2.07	2070.5	regulate	Run3	regulate/STIM_007.jpg	99
1994.042	2.085	2085.0	regulate	Run3	regulate/STIM_008.jpg	100
1999.021	1.454	1454.3	regulate	Run3	regulate/STIM_008.jpg	99
2002.818	1.734	1734.4	regulate	Run3	regulate/STIM_008.jpg	100
2007.377	1.271	1271.2	regulate	Run3	regulate/STIM_008.jpg	99
2010.715	1.16	1159.8	regulate	Run3	regulate/STIM_009.jpg	100
2014.847	1.884	1883.7	regulate	Run3	regulate/STIM_009.jpg	100
2019.008	2.055	2055.4	regulate	Run3	regulate/STIM_009.jpg	100
2024.875	1.643	1643.1	regulate	Run3	regulate/STIM_009.jpg	99
2029.489	1.947	1946.6	regulate	Run3	regulate/STIM_010.jpg	100
2035.12	1.231	1230.8	regulate	Run3	regulate/STIM_010.jpg	99
2038.804	1.373	1373.3	regulate	Run3	regulate/STIM_010.jpg	100
2043.722	2.064	2063.7	regulate	Run3	regulate/STIM_010.jpg	99
2048.804	1.406	1406.1	regulate	Run3	regulate/STIM_011.jpg	99
2052.692	1.591	1591.0	regulate	Run3	regulate/STIM_011.jpg	99
2056.894	2.088	2088.2	regulate	Run3	regulate/STIM_011.jpg	99
2062.182	2.207	2206.7	regulate	Run3	regulate/STIM_011.jpg	99
2066.632	1.218	1218.5	regulate	Run3	regulate/STIM_012.jpg	99
2071.223	1.215	1215.4	regulate	Run3	regulate/STIM_012.jpg	100
2074.866	1.514	1514.5	regulate	Run3	regulate/STIM_012.jpg	99
2079.922	2.013	2013.1	regulate	Run3	regulate/STIM_012.jpg	99
2084.826	1.682	1681.5	regulate	Run3	regulate/STIM_013.jpg	99
2088.91	1.134	1134.0	regulate	Run3	regulate/STIM_013.jpg	99
2092.533	1.883	1883.1	regulate	Run3	regulate/STIM_013.jpg	99
2097.187	1.866	1866.3	regulate	Run3	regulate/STIM_013.jpg	99
2102.013	1.985	1985.4	regulate	Run3	regulate/STIM_014.jpg	99
2106.76	1.619	1618.6	regulate	Run3	regulate/STIM_014.jpg	99
2111.914	1.913	1913.3	regulate	Run3	regulate/STIM_014.jpg	100
2115.88	1.901	1900.7	regulate	Run3	regulate/STIM_014.jpg	99
2120.328	1.21	1209.8	regulate	Run3	regulate/STIM_015.jpg	100
2124.391	1.053	1052.9	regulate	Run3	regulate/STIM_015.jpg	99
2128.008	2.222	2221.5	regulate	Run3	regulate/STIM_015.jpg	99
2132.394	1.761	1761.1	regulate	Run3	regulate/STIM_015.jpg	100
2137.349	1.767	1766.8	regulate	Run3	regulate/STIM_016.jpg	99
2141.58	1.972	1972.3	regulate	Run3	regulate/STIM_016.jpg	99
2145.905	1.824	1823.9	regulate	Run3	regulate/STIM_016.jpg	99
2151.339	1.296	1296.4	regulate	Run3	regulate/STIM_016.jpg	100
2154.678	1.928	1927.5	regulate	Run3	regulate/STIM_017.jpg	99
2159.942	1.093	1092.7	regulate	Run3	regulate/STIM_017.jpg	99
2163.666	1.647	1647.1	regulate	Run3	regulate/STIM_017.jpg	100
2167.846	1.539	1539.3	regulate	Run3	regulate/STIM_017.jpg	99
2172.131	1.703	1702.8	regulate	Run3	regulate/STIM_018.jpg	99
2176.569	1.81	1810.0	regulate	Run3	regulate/STIM_018.jpg	99
2180.68	1.664	1663.9	regulate	Run3	regulate/STIM_018.jpg	99
2185.379	1.632	1631.9	regulate	Run3	regulate/STIM_018.jpg	99
2189.135	1.387	1387.4	regulate	Run3	regulate/STIM_019.jpg	99
2192.659	1.687	1687.1	regulate	Run3	regulate/STIM_019.jpg	99
2197.695	2.191	2191.0	regulate	Run3	regulate/STIM_019.jpg	100
2203.792	1.923	1923.1	regulate	Run3	regulate/STIM_019.jpg	100
2209.499	1.544	1543.9	regulate	Run3	regulate/STIM_020.jpg	99
2213.562	2.132	2132.1	regulate	Run3	regulate/STIM_020.jpg	100
2219.36	1.175	1174.6	regulate	Run3	regulate/STIM_020.jpg	99
2222.599	1.562	1562.3	regulate	Run3	regulate/STIM_020.jpg	99
2228.086	1.464	1463.9	regulate	Run3	regulate/STIM_021.jpg	100
2231.679	1.049	1048.8	regulate	Run3	regulate/STIM_021.jpg	99
2235.952	1.693	1693.0	regulate	Run3	regulate/STIM_021.jpg	99
2239.809	1.891	1891.4	regulate	Run3	regulate/STIM_021.jpg	99
2245.343	1.346	1346.4	regulate	Run3	regulate/STIM_022.jpg	100
2248.912	2.179	2179.3	regulate	Run3	regulate/STIM_022.jpg	100
2254.294	1.12	1120.2	regulate	Run3	regulate/STIM_022.jpg	99
2258.618	1.711	1710.6	regulate	Run3	regulate/STIM_022.jpg	99
2264.252	1.417	1417.3	regulate	Run3	regulate/STIM_023.jpg	100
2269.079	1.299	1299.4	regulate	Run3	regulate/STIM_023.jpg	100
2273.357	1.924	1923.6	regulate	Run3	regulate/STIM_023.jpg	99
2278.46	1.706	1705.5	regulate	Run3	regulate/STIM_023.jpg	99
2283.359	1.77	1769.9	regulate	Run3	regulate/STIM_024.jpg	100
2288.542	1.629	1628.6	regulate	Run3	regulate/STIM_024.jpg	100
2293.077	2.121	2120.9	regulate	Run3	regulate/STIM_024.jpg	99
2297.661	1.345	1345.3	regulate	Run3	regulate/STIM_024.jpg	100
2302.887	1.937	1937.2	regulate	Run3	regulate/STIM_025.jpg	100
2308.397	1.412	1411.5	regulate	Run3	regulate/STIM_025.jpg	100
2313.107	1.539	1539.0	regulate	Run3	regulate/STIM_025.jpg	100
2317.912	1.087	1087.3	regulate	Run3	regulate/STIM_025.jpg	99
2321.512	2.011	2011.3	regulate	Run3	regulate/STIM_026.jpg	99
2326.995	1.653	1653.0	regulate	Run3	regulate/STIM_026.jpg	99
2331.403	2.154	2153.7	regulate	Run3	regulate/STIM_026.jpg	99
2336.107	1.2	1200.5	regulate	Run3	regulate/STIM_026.jpg	100
2341.229	1.871	1870.6	regulate	Run3	regulate/STIM_027.jpg	99
2345.874	1.562	1562.1	regulate	Run3	regulate/STIM_027.jpg	99
2350.355	1.359	1358.8	regulate	Run3	regulate/STIM_027.jpg	99
2354.554	0.978	978.1	regulate	Run3	regulate/STIM_027.jpg	100
2358.399	1.586	1586.5	regulate	Run3	regulate/STIM_028.jpg	99
2363.661	2.217	2216.9	regulate	Run3	regulate/STIM_028.jpg	100
2369.328	1.951	1950.8	regulate	Run3	regulate/STIM_028.jpg	99
2375.113	1.966	1965.7	regulate	Run3	regulate/STIM_028.jpg	100
2379.663	1.501	1500.9	regulate	Run3	regulate/STIM_029.jpg	100
2384.78	1.841	1841.0	regulate	Run3	regulate/STIM_029.jpg	99
2389.228	1.187	1187.1	regulate	Run3	regulate/STIM_029.jpg	100
2392.453	2.054	2054.0	regulate	Run3	regulate/STIM_029.jpg	99
2397.412	1.094	1093.9	observe	Run3	observe/STIM_000.jpg	100
2401.785	1.015	1014.7	observe	Run3	observe/STIM_000.jpg	99
2405.297	1.181	1181.3	observe	Run3	observe/STIM_000.jpg	99
2409.482	0.818	817.8	observe	Run3	observe/STIM_000.jpg	99
2412.6	1.088	1088.2	observe	Run3	observe/STIM_001.jpg	100
2417.123	1.394	1394.5	observe	Run3	observe/STIM_001.jpg	99
2420.682	0.791	790.7	observe	Run3	observe/STIM_001.jpg	99
2425.261	0.77	770.5	observe	Run3	observe/STIM_001.jpg	99
2428.676	1.246	1246.4	observe	Run3	observe/STIM_002.jpg	100
2433.835	0.749	748.6	observe	Run3	observe/STIM_002.jpg	99
2437.576	0.769	768.6	observe	Run3	observe/STIM_002.jpg	100
2442.324	0.835	835.4	observe	Run3	observe/STIM_002.jpg	99
2447.152	0.901	900.7	observe	Run3	observe/STIM_003.jpg	100
2451.363	1.077	1077.3	observe	Run3	observe/STIM_003.jpg	100
2455.035	0.772	772.5	observe	Run3	observe/STIM_003.jpg	100
2458.43	1.155	1154.8	observe	Run3	observe/STIM_003.jpg	100
2462.942	1.308	1307.7	observe	Run3	observe/STIM_004.jpg	99
2468.202	0.732	732.2	observe	Run3	observe/STIM_004.jpg	100
2471.259	1.032	1032.2	observe	Run3	observe/STIM_004.jpg	100
2475.489	1.109	1108.7	observe	Run3	observe/STIM_004.jpg	99
2478.851	1.314	1314.4	observe	Run3	observe/STIM_005.jpg	100
2482.866	1.018	1018.0	observe	Run3	observe/STIM_005.jpg	99
2486.191	1.189	1189.1	observe	Run3	observe/STIM_005.jpg	100
2490.019	0.977	976.9	observe	Run3	observe/STIM_005.jpg	99
2494.767	1.298	1298.0	observe	Run3	observe/STIM_006.jpg	100
2499.103	1.008	1008.2	observe	Run3	observe/STIM_006.jpg	99
2502.653	1.088	1088.2	observe	Run3	observe/STIM_006.jpg	100
2506.475	0.948	947.6	observe	Run3	observe/STIM_006.jpg	100
2509.505	0.87	870.0	observe	Run3	observe/STIM_007.jpg	99
2512.714	1.223	1222.8	observe	Run3	observe/STIM_007.jpg	99
2515.984	1.434	1434.2	observe	Run3	observe/STIM_007.jpg	100
2519.507	1.264	1263.8	observe	Run3	observe/STIM_007.jpg	100
2523.345	0.935	934.8	observe	Run3	observe/STIM_008.jpg	100
2527.897	1.042	1042.3	observe	Run3	observe/STIM_008.jpg	99
2531.168	1.377	1377.0	observe	Run3	observe/STIM_008.jpg	100
2535.361	1.154	1153.8	observe	Run3	observe/STIM_008.jpg	100
2539.364	0.874	873.6	observe	Run3	observe/STIM_009.jpg	99
2544.193	1.004	1003.6	observe	Run3	observe/STIM_009.jpg	99
2547.529	1.067	1066.7	observe	Run3	observe/STIM_009.jpg	100
2551.331	1.291	1291.1	observe	Run3	observe/STIM_009.jpg	100
2555.493	1.132	1132.2	observe	Run3	observe/STIM_010.jpg	99
2558.632	0.936	936.0	observe	Run3	observe/STIM_010.jpg	100
2563.567	1.02	1020.2	observe	Run3	observe/STIM_010.jpg	100
2567.161	1.395	1394.9	observe	Run3	observe/STIM_010.jpg	99
2571.276	1.066	1066.0	observe	Run3	observe/STIM_011.jpg	99
2575.342	1.326	1325.8	observe	Run3	observe/STIM_011.jpg	100
2578.755	1.174	1173.8	observe	Run3	observe/STIM_011.jpg	99
2583.62	1.289	1288.9	observe	Run3	observe/STIM_011.jpg	99
2587.504	1.234	1234.0	observe	Run3	observe/STIM_012.jpg	100
2591.047	1.277	1277.3	observe	Run3	observe/STIM_012.jpg	99
2595.355	1.32	1319.8	observe	Run3	observe/STIM_012.jpg	100
2598.909	1.309	1308.8	observe	Run3	observe/STIM_012.jpg	99
2603.973	1.221	1221.0	observe	Run3	observe/STIM_013.jpg	100
2609.002	1.132	1132.2	observe	Run3	observe/STIM_013.jpg	100
2612.758	1.202	1202.4	observe	Run3	observe/STIM_013.jpg	100
2617.559	0.957	956.7	observe	Run3	observe/STIM_013.jpg	99
2621.336	1.211	1211.2	observe	Run3	observe/STIM_014.jpg	99
2625.232	1.13	1129.9	observe	Run3	observe/STIM_014.jpg	99
2629.296	1.278	1277.5	observe	Run3	observe/STIM_014.jpg	100
2634.07	1.041	1041.2	observe	Run3	observe/STIM_014.jpg	100
2637.451	0.82	820.1	observe	Run3	observe/STIM_015.jpg	99
2640.642	1.193	1193.3	observe	Run3	observe/STIM_015.jpg	100
2645.342	1.35	1349.7	observe	Run3	observe/STIM_015.jpg	100
2650.652	1.346	1346.0	observe	Run3	observe/STIM_015.jpg	100
2655.99	1.122	1121.8	observe	Run3	observe/STIM_016.jpg	100
2659.754	0.97	970.5	observe	Run3	observe/STIM_016.jpg	100
2663.033	1.373	1373.3	observe	Run3	observe/STIM_016.jpg	100
2667.55	1.217	1217.1	observe	Run3	observe/STIM_016.jpg	99
2670.781	1.248	1247.6	observe	Run3	observe/STIM_017.jpg	99
2675.576	0.814	813.8	observe	Run3	observe/STIM_017.jpg	100
2678.829	1.27	1270.3	observe	Run3	observe/STIM_017.jpg	100
2682.601	0.749	748.7	observe	Run3	observe/STIM_017.jpg	100
2686.798	0.951	951.4	observe	Run3	observe/STIM_018.jpg	99
2691.207	1.404	1403.6	observe	Run3	observe/STIM_018.jpg	100
2695.618	1.0	999.7	observe	Run3	observe/STIM_018.jpg	99
2698.918	1.118	1117.9	observe	Run3	observe/STIM_018.jpg	100
2703.771	1.144	1144.5	observe	Run3	observe/STIM_019.jpg	100
2708.622	0.983	983.3	observe	Run3	observe/STIM_019.jpg	100
2712.682	1.239	1238.9	observe	Run3	observe/STIM_019.jpg	99
2717.484	0.852	851.9	observe	Run3	observe/STIM_019.jpg	99
