onset	duration	accuracy_binary	trial_type	learning_stage	stimulus
0.0	1.764	0	generate	Run1	generate/STIM_000.jpg
4.903	0.926	0	generate	Run1	generate/STIM_000.jpg
8.859	1.379	1	generate	Run1	generate/STIM_000.jpg
14.003	1.396	1	generate	Run1	generate/STIM_000.jpg
19.357	1.373	1	generate	Run1	generate/STIM_000.jpg
24.713	1.854	0	generate	Run1	generate/STIM_001.jpg
29.167	1.71	1	generate	Run1	generate/STIM_001.jpg
34.13	1.064	1	generate	Run1	generate/STIM_001.jpg
38.641	1.373	1	generate	Run1	generate/STIM_001.jpg
43.405	0.99	1	generate	Run1	generate/STIM_001.jpg
47.311	1.756	1	generate	Run1	generate/STIM_002.jpg
51.307	1.731	1	generate	Run1	generate/STIM_002.jpg
56.567	1.594	0	generate	Run1	generate/STIM_002.jpg
60.601	1.383	1	generate	Run1	generate/STIM_002.jpg
65.73	0.948	1	generate	Run1	generate/STIM_002.jpg
70.315	0.855	1	generate	Run1	generate/STIM_003.jpg
73.18	0.826	0	generate	Run1	generate/STIM_003.jpg
76.563	1.254	1	generate	Run1	generate/STIM_003.jpg
80.219	1.185	1	generate	Run1	generate/STIM_003.jpg
83.818	0.623	0	generate	Run1	generate/STIM_003.jpg
87.672	1.037	1	generate	Run1	generate/STIM_004.jpg
92.629	1.152	1	generate	Run1	generate/STIM_004.jpg
96.592	1.127	1	generate	Run1	generate/STIM_004.jpg
100.736	0.954	1	generate	Run1	generate/STIM_004.jpg
104.724	0.595	1	generate	Run1	generate/STIM_004.jpg
107.762	1.326	1	generate	Run1	generate/STIM_005.jpg
112.996	0.915	1	generate	Run1	generate/STIM_005.jpg
117.907	0.965	1	generate	Run1	generate/STIM_005.jpg
121.477	0.893	1	generate	Run1	generate/STIM_005.jpg
124.885	1.128	0	generate	Run1	generate/STIM_005.jpg
128.65	1.422	0	generate	Run1	generate/STIM_006.jpg
132.833	1.061	1	generate	Run1	generate/STIM_006.jpg
137.343	1.186	1	generate	Run1	generate/STIM_006.jpg
142.316	1.058	0	generate	Run1	generate/STIM_006.jpg
146.608	0.74	0	generate	Run1	generate/STIM_006.jpg
150.266	0.874	1	generate	Run1	generate/STIM_007.jpg
153.885	1.028	1	generate	Run1	generate/STIM_007.jpg
157.424	1.617	0	generate	Run1	generate/STIM_007.jpg
162.748	1.191	1	generate	Run1	generate/STIM_007.jpg
166.966	1.453	1	generate	Run1	generate/STIM_007.jpg
171.574	1.018	0	generate	Run1	generate/STIM_008.jpg
175.153	1.055	1	generate	Run1	generate/STIM_008.jpg
179.016	0.814	0	generate	Run1	generate/STIM_008.jpg
183.583	1.277	0	generate	Run1	generate/STIM_008.jpg
187.911	0.751	1	generate	Run1	generate/STIM_008.jpg
192.375	1.016	0	generate	Run1	generate/STIM_009.jpg
195.758	1.294	1	generate	Run1	generate/STIM_009.jpg
200.462	1.157	1	generate	Run1	generate/STIM_009.jpg
204.564	0.861	1	generate	Run1	generate/STIM_009.jpg
209.262	0.842	1	generate	Run1	generate/STIM_009.jpg
212.387	0.837	1	generate	Run1	generate/STIM_010.jpg
215.503	0.844	0	generate	Run1	generate/STIM_010.jpg
219.373	1.003	1	generate	Run1	generate/STIM_010.jpg
223.901	1.3	0	generate	Run1	generate/STIM_010.jpg
228.22	0.787	1	generate	Run1	generate/STIM_010.jpg
231.79	0.834	1	generate	Run1	generate/STIM_011.jpg
236.12	0.958	1	generate	Run1	generate/STIM_011.jpg
239.194	1.497	1	generate	Run1	generate/STIM_011.jpg
244.225	1.391	1	generate	Run1	generate/STIM_011.jpg
248.539	1.179	1	generate	Run1	generate/STIM_011.jpg
253.503	1.133	1	generate	Run1	generate/STIM_012.jpg
257.828	1.01	0	generate	Run1	generate/STIM_012.jpg
261.994	0.796	1	generate	Run1	generate/STIM_012.jpg
266.027	1.237	0	generate	Run1	generate/STIM_012.jpg
270.16	1.306	1	generate	Run1	generate/STIM_012.jpg
274.923	1.668	1	generate	Run1	generate/STIM_013.jpg
279.952	1.027	1	generate	Run1	generate/STIM_013.jpg
283.939	1.322	1	generate	Run1	generate/STIM_013.jpg
289.113	0.702	1	generate	Run1	generate/STIM_013.jpg
293.564	1.366	1	generate	Run1	generate/STIM_013.jpg
298.652	1.614	1	generate	Run1	generate/STIM_014.jpg
303.862	0.766	1	generate	Run1	generate/STIM_014.jpg
307.251	1.436	0	generate	Run1	generate/STIM_014.jpg
311.382	1.024	1	generate	Run1	generate/STIM_014.jpg
316.221	0.677	1	generate	Run1	generate/STIM_014.jpg
320.654	1.309	1	generate	Run1	generate/STIM_015.jpg
325.093	1.537	0	generate	Run1	generate/STIM_015.jpg
328.635	0.95	1	generate	Run1	generate/STIM_015.jpg
331.942	1.256	0	generate	Run1	generate/STIM_015.jpg
337.02	1.377	1	generate	Run1	generate/STIM_015.jpg
342.154	1.451	1	generate	Run1	generate/STIM_016.jpg
346.826	1.275	1	generate	Run1	generate/STIM_016.jpg
351.22	1.607	1	generate	Run1	generate/STIM_016.jpg
356.119	1.44	1	generate	Run1	generate/STIM_016.jpg
360.176	0.996	1	generate	Run1	generate/STIM_016.jpg
363.452	1.446	1	generate	Run1	generate/STIM_017.jpg
368.823	1.456	0	generate	Run1	generate/STIM_017.jpg
373.707	0.757	1	generate	Run1	generate/STIM_017.jpg
376.487	0.948	0	generate	Run1	generate/STIM_017.jpg
379.961	1.118	1	generate	Run1	generate/STIM_017.jpg
384.89	1.768	1	generate	Run1	generate/STIM_018.jpg
388.971	1.289	1	generate	Run1	generate/STIM_018.jpg
393.696	1.262	1	generate	Run1	generate/STIM_018.jpg
398.704	1.377	1	generate	Run1	generate/STIM_018.jpg
403.193	0.596	0	generate	Run1	generate/STIM_018.jpg
407.036	1.102	1	generate	Run1	generate/STIM_019.jpg
411.821	0.977	0	generate	Run1	generate/STIM_019.jpg
416.517	1.609	1	generate	Run1	generate/STIM_019.jpg
420.834	1.026	1	generate	Run1	generate/STIM_019.jpg
425.78	0.725	1	generate	Run1	generate/STIM_019.jpg
429.204	1.544	1	generate	Run1	generate/STIM_020.jpg
434.603	1.141	1	generate	Run1	generate/STIM_020.jpg
439.076	1.02	0	generate	Run1	generate/STIM_020.jpg
442.102	1.2	1	generate	Run1	generate/STIM_020.jpg
446.244	1.3	1	generate	Run1	generate/STIM_020.jpg
451.484	1.248	1	generate	Run1	generate/STIM_021.jpg
455.451	0.797	1	generate	Run1	generate/STIM_021.jpg
458.464	1.264	0	generate	Run1	generate/STIM_021.jpg
462.558	1.239	1	generate	Run1	generate/STIM_021.jpg
466.344	0.69	1	generate	Run1	generate/STIM_021.jpg
471.027	1.783	1	generate	Run1	generate/STIM_022.jpg
475.754	1.49	0	generate	Run1	generate/STIM_022.jpg
480.865	1.228	0	generate	Run1	generate/STIM_022.jpg
484.764	0.692	1	generate	Run1	generate/STIM_022.jpg
488.273	1.226	1	generate	Run1	generate/STIM_022.jpg
492.783	1.075	1	generate	Run1	generate/STIM_023.jpg
497.1	1.385	1	generate	Run1	generate/STIM_023.jpg
502.336	1.244	0	generate	Run1	generate/STIM_023.jpg
505.991	1.34	1	generate	Run1	generate/STIM_023.jpg
510.276	1.195	1	generate	Run1	generate/STIM_023.jpg
514.639	1.201	1	generate	Run1	generate/STIM_024.jpg
517.892	1.115	1	generate	Run1	generate/STIM_024.jpg
522.677	1.05	1	generate	Run1	generate/STIM_024.jpg
526.846	1.011	1	generate	Run1	generate/STIM_024.jpg
530.051	1.376	1	generate	Run1	generate/STIM_024.jpg
534.22	0.362	0	repeat	Run1	repeat/STIM_000.jpg
538.581	0.487	1	repeat	Run1	repeat/STIM_000.jpg
542.385	0.555	1	repeat	Run1	repeat/STIM_000.jpg
546.29	0.576	1	repeat	Run1	repeat/STIM_000.jpg
550.223	0.387	1	repeat	Run1	repeat/STIM_000.jpg
553.139	0.576	1	repeat	Run1	repeat/STIM_001.jpg
555.743	0.327	1	repeat	Run1	repeat/STIM_001.jpg
558.808	0.555	1	repeat	Run1	repeat/STIM_001.jpg
562.392	0.355	1	repeat	Run1	repeat/STIM_001.jpg
566.419	0.357	1	repeat	Run1	repeat/STIM_001.jpg
568.819	0.376	1	repeat	Run1	repeat/STIM_002.jpg
572.086	0.447	1	repeat	Run1	repeat/STIM_002.jpg
574.893	0.488	1	repeat	Run1	repeat/STIM_002.jpg
578.609	0.43	1	repeat	Run1	repeat/STIM_002.jpg
582.503	0.434	1	repeat	Run1	repeat/STIM_002.jpg
585.309	0.319	1	repeat	Run1	repeat/STIM_003.jpg
589.067	0.56	1	repeat	Run1	repeat/STIM_003.jpg
593.302	0.517	1	repeat	Run1	repeat/STIM_003.jpg
597.368	0.391	1	repeat	Run1	repeat/STIM_003.jpg
601.244	0.543	1	repeat	Run1	repeat/STIM_003.jpg
605.13	0.565	1	repeat	Run1	repeat/STIM_004.jpg
609.488	0.539	1	repeat	Run1	repeat/STIM_004.jpg
612.342	0.55	1	repeat	Run1	repeat/STIM_004.jpg
616.348	0.314	1	repeat	Run1	repeat/STIM_004.jpg
620.586	0.532	1	repeat	Run1	repeat/STIM_004.jpg
624.851	0.503	1	repeat	Run1	repeat/STIM_005.jpg
628.166	0.563	1	repeat	Run1	repeat/STIM_005.jpg
631.027	0.496	1	repeat	Run1	repeat/STIM_005.jpg
634.316	0.612	1	repeat	Run1	repeat/STIM_005.jpg
638.461	0.436	1	repeat	Run1	repeat/STIM_005.jpg
641.031	0.608	1	repeat	Run1	repeat/STIM_006.jpg
645.41	0.449	1	repeat	Run1	repeat/STIM_006.jpg
647.908	0.403	1	repeat	Run1	repeat/STIM_006.jpg
652.025	0.375	1	repeat	Run1	repeat/STIM_006.jpg
656.112	0.392	1	repeat	Run1	repeat/STIM_006.jpg
659.013	0.507	1	repeat	Run1	repeat/STIM_007.jpg
661.627	0.59	1	repeat	Run1	repeat/STIM_007.jpg
664.512	0.429	1	repeat	Run1	repeat/STIM_007.jpg
667.563	0.496	1	repeat	Run1	repeat/STIM_007.jpg
670.961	0.611	1	repeat	Run1	repeat/STIM_007.jpg
674.002	0.613	1	repeat	Run1	repeat/STIM_008.jpg
678.026	0.441	1	repeat	Run1	repeat/STIM_008.jpg
680.476	0.354	1	repeat	Run1	repeat/STIM_008.jpg
683.817	0.535	1	repeat	Run1	repeat/STIM_008.jpg
688.084	0.379	0	repeat	Run1	repeat/STIM_008.jpg
691.202	0.458	1	repeat	Run1	repeat/STIM_009.jpg
694.55	0.346	0	repeat	Run1	repeat/STIM_009.jpg
698.365	0.441	1	repeat	Run1	repeat/STIM_009.jpg
701.68	0.385	1	repeat	Run1	repeat/STIM_009.jpg
706.022	0.396	1	repeat	Run1	repeat/STIM_009.jpg
709.653	0.392	1	repeat	Run1	repeat/STIM_010.jpg
712.313	0.331	1	repeat	Run1	repeat/STIM_010.jpg
716.297	0.316	1	repeat	Run1	repeat/STIM_010.jpg
720.466	0.352	0	repeat	Run1	repeat/STIM_010.jpg
723.111	0.594	1	repeat	Run1	repeat/STIM_010.jpg
727.235	0.488	0	repeat	Run1	repeat/STIM_011.jpg
731.717	0.536	1	repeat	Run1	repeat/STIM_011.jpg
735.106	0.589	1	repeat	Run1	repeat/STIM_011.jpg
738.882	0.451	1	repeat	Run1	repeat/STIM_011.jpg
742.953	0.587	0	repeat	Run1	repeat/STIM_011.jpg
746.763	0.517	1	repeat	Run1	repeat/STIM_012.jpg
750.63	0.376	1	repeat	Run1	repeat/STIM_012.jpg
754.476	0.452	1	repeat	Run1	repeat/STIM_012.jpg
757.548	0.481	0	repeat	Run1	repeat/STIM_012.jpg
760.628	0.565	1	repeat	Run1	repeat/STIM_012.jpg
764.046	0.427	1	repeat	Run1	repeat/STIM_013.jpg
767.436	0.484	1	repeat	Run1	repeat/STIM_013.jpg
770.79	0.395	1	repeat	Run1	repeat/STIM_013.jpg
774.151	0.494	0	repeat	Run1	repeat/STIM_013.jpg
777.881	0.6	1	repeat	Run1	repeat/STIM_013.jpg
781.276	0.582	1	repeat	Run1	repeat/STIM_014.jpg
785.476	0.587	1	repeat	Run1	repeat/STIM_014.jpg
789.245	0.412	1	repeat	Run1	repeat/STIM_014.jpg
792.127	0.484	1	repeat	Run1	repeat/STIM_014.jpg
795.463	0.479	1	repeat	Run1	repeat/STIM_014.jpg
799.06	1.421	1	generate	Run2	generate/STIM_000.jpg
803.054	1.1	1	generate	Run2	generate/STIM_000.jpg
806.514	0.771	1	generate	Run2	generate/STIM_000.jpg
810.115	0.537	0	generate	Run2	generate/STIM_000.jpg
812.754	0.651	1	generate	Run2	generate/STIM_000.jpg
817.394	1.15	1	generate	Run2	generate/STIM_001.jpg
821.448	1.436	1	generate	Run2	generate/STIM_001.jpg
825.262	1.079	1	generate	Run2	generate/STIM_001.jpg
829.044	1.299	1	generate	Run2	generate/STIM_001.jpg
833.035	0.56	1	generate	Run2	generate/STIM_001.jpg
835.917	1.13	1	generate	Run2	generate/STIM_002.jpg
840.174	1.062	1	generate	Run2	generate/STIM_002.jpg
844.331	1.382	1	generate	Run2	generate/STIM_002.jpg
849.643	0.89	0	generate	Run2	generate/STIM_002.jpg
852.696	0.975	1	generate	Run2	generate/STIM_002.jpg
857.461	0.733	1	generate	Run2	generate/STIM_003.jpg
862.188	1.288	0	generate	Run2	generate/STIM_003.jpg
866.152	1.041	0	generate	Run2	generate/STIM_003.jpg
869.351	0.524	1	generate	Run2	generate/STIM_003.jpg
873.456	1.154	1	generate	Run2	generate/STIM_003.jpg
877.877	1.351	1	generate	Run2	generate/STIM_004.jpg
882.883	0.828	1	generate	Run2	generate/STIM_004.jpg
887.167	0.882	1	generate	Run2	generate/STIM_004.jpg
891.465	1.001	0	generate	Run2	generate/STIM_004.jpg
895.064	0.569	1	generate	Run2	generate/STIM_004.jpg
897.972	0.727	1	generate	Run2	generate/STIM_005.jpg
901.572	0.962	1	generate	Run2	generate/STIM_005.jpg
904.844	0.644	0	generate	Run2	generate/STIM_005.jpg
908.156	1.269	1	generate	Run2	generate/STIM_005.jpg
912.985	1.239	1	generate	Run2	generate/STIM_005.jpg
917.717	0.656	0	generate	Run2	generate/STIM_006.jpg
921.089	0.943	0	generate	Run2	generate/STIM_006.jpg
924.103	1.294	1	generate	Run2	generate/STIM_006.jpg
928.291	0.94	1	generate	Run2	generate/STIM_006.jpg
931.592	0.91	0	generate	Run2	generate/STIM_006.jpg
935.738	1.25	1	generate	Run2	generate/STIM_007.jpg
940.278	1.367	1	generate	Run2	generate/STIM_007.jpg
944.204	0.782	1	generate	Run2	generate/STIM_007.jpg
947.901	0.894	0	generate	Run2	generate/STIM_007.jpg
951.366	0.93	0	generate	Run2	generate/STIM_007.jpg
954.616	0.931	1	generate	Run2	generate/STIM_008.jpg
959.08	1.292	1	generate	Run2	generate/STIM_008.jpg
964.31	1.377	0	generate	Run2	generate/STIM_008.jpg
969.019	0.521	1	generate	Run2	generate/STIM_008.jpg
972.963	0.688	1	generate	Run2	generate/STIM_008.jpg
976.833	1.355	0	generate	Run2	generate/STIM_009.jpg
980.394	1.42	0	generate	Run2	generate/STIM_009.jpg
984.528	1.073	1	generate	Run2	generate/STIM_009.jpg
988.094	0.589	1	generate	Run2	generate/STIM_009.jpg
991.313	1.148	1	generate	Run2	generate/STIM_009.jpg
995.139	1.059	1	generate	Run2	generate/STIM_010.jpg
998.626	1.008	0	generate	Run2	generate/STIM_010.jpg
1003.563	1.35	1	generate	Run2	generate/STIM_010.jpg
1007.971	1.29	1	generate	Run2	generate/STIM_010.jpg
1011.989	0.835	0	generate	Run2	generate/STIM_010.jpg
1016.279	1.531	1	generate	Run2	generate/STIM_011.jpg
1020.725	1.237	0	generate	Run2	generate/STIM_011.jpg
1024.307	0.92	0	generate	Run2	generate/STIM_011.jpg
1027.424	0.676	0	generate	Run2	generate/STIM_011.jpg
1030.651	0.771	0	generate	Run2	generate/STIM_011.jpg
1033.833	0.861	1	generate	Run2	generate/STIM_012.jpg
1038.43	1.026	1	generate	Run2	generate/STIM_012.jpg
1041.65	1.162	1	generate	Run2	generate/STIM_012.jpg
1045.816	1.244	1	generate	Run2	generate/STIM_012.jpg
1050.953	1.146	1	generate	Run2	generate/STIM_012.jpg
1054.801	0.632	1	generate	Run2	generate/STIM_013.jpg
1058.403	1.265	1	generate	Run2	generate/STIM_013.jpg
1061.979	1.105	1	generate	Run2	generate/STIM_013.jpg
1066.983	0.811	0	generate	Run2	generate/STIM_013.jpg
1070.754	0.698	0	generate	Run2	generate/STIM_013.jpg
1073.52	1.241	0	generate	Run2	generate/STIM_014.jpg
1078.322	1.009	1	generate	Run2	generate/STIM_014.jpg
1082.945	0.857	1	generate	Run2	generate/STIM_014.jpg
1087.069	0.665	1	generate	Run2	generate/STIM_014.jpg
1091.295	0.793	0	generate	Run2	generate/STIM_014.jpg
1095.395	0.634	1	generate	Run2	generate/STIM_015.jpg
1098.575	1.205	1	generate	Run2	generate/STIM_015.jpg
1102.518	0.974	1	generate	Run2	generate/STIM_015.jpg
1106.149	0.746	1	generate	Run2	generate/STIM_015.jpg
1109.698	0.546	0	generate	Run2	generate/STIM_015.jpg
1113.349	1.396	1	generate	Run2	generate/STIM_016.jpg
1116.911	1.352	1	generate	Run2	generate/STIM_016.jpg
1120.366	1.218	0	generate	Run2	generate/STIM_016.jpg
1125.291	0.766	1	generate	Run2	generate/STIM_016.jpg
1129.452	0.748	0	generate	Run2	generate/STIM_016.jpg
1133.909	1.549	1	generate	Run2	generate/STIM_017.jpg
1137.931	0.959	0	generate	Run2	generate/STIM_017.jpg
1142.599	0.894	0	generate	Run2	generate/STIM_017.jpg
1145.78	0.815	1	generate	Run2	generate/STIM_017.jpg
1149.07	1.183	1	generate	Run2	generate/STIM_017.jpg
1153.34	1.057	1	generate	Run2	generate/STIM_018.jpg
1157.082	0.614	1	generate	Run2	generate/STIM_018.jpg
1161.298	1.067	1	generate	Run2	generate/STIM_018.jpg
1165.646	0.835	1	generate	Run2	generate/STIM_018.jpg
1169.021	1.21	1	generate	Run2	generate/STIM_018.jpg
1173.011	0.902	1	generate	Run2	generate/STIM_019.jpg
1177.668	0.643	1	generate	Run2	generate/STIM_019.jpg
1182.146	0.954	1	generate	Run2	generate/STIM_019.jpg
1185.584	0.854	1	generate	Run2	generate/STIM_019.jpg
1189.0	0.695	1	generate	Run2	generate/STIM_019.jpg
1193.12	1.217	1	generate	Run2	generate/STIM_020.jpg
1198.189	1.023	1	generate	Run2	generate/STIM_020.jpg
1202.1	1.168	1	generate	Run2	generate/STIM_020.jpg
1205.672	0.973	1	generate	Run2	generate/STIM_020.jpg
1210.499	1.227	0	generate	Run2	generate/STIM_020.jpg
1215.021	1.332	1	generate	Run2	generate/STIM_021.jpg
1220.077	0.852	0	generate	Run2	generate/STIM_021.jpg
1224.293	0.561	0	generate	Run2	generate/STIM_021.jpg
1227.851	0.601	1	generate	Run2	generate/STIM_021.jpg
1232.016	1.096	1	generate	Run2	generate/STIM_021.jpg
1235.636	0.826	1	generate	Run2	generate/STIM_022.jpg
1240.171	0.767	1	generate	Run2	generate/STIM_022.jpg
1244.271	1.067	1	generate	Run2	generate/STIM_022.jpg
1248.767	0.967	1	generate	Run2	generate/STIM_022.jpg
1252.358	0.733	1	generate	Run2	generate/STIM_022.jpg
1255.798	0.643	0	generate	Run2	generate/STIM_023.jpg
1259.736	1.195	1	generate	Run2	generate/STIM_023.jpg
1264.712	0.906	1	generate	Run2	generate/STIM_023.jpg
1269.595	0.539	1	generate	Run2	generate/STIM_023.jpg
1273.786	0.864	1	generate	Run2	generate/STIM_023.jpg
1277.696	0.808	1	generate	Run2	generate/STIM_024.jpg
1282.362	0.72	1	generate	Run2	generate/STIM_024.jpg
1285.58	1.285	1	generate	Run2	generate/STIM_024.jpg
1289.879	1.182	1	generate	Run2	generate/STIM_024.jpg
1294.758	0.578	1	generate	Run2	generate/STIM_024.jpg
1297.623	0.474	1	repeat	Run2	repeat/STIM_000.jpg
1301.656	0.552	1	repeat	Run2	repeat/STIM_000.jpg
1305.776	0.421	1	repeat	Run2	repeat/STIM_000.jpg
1309.746	0.317	1	repeat	Run2	repeat/STIM_000.jpg
1313.92	0.437	0	repeat	Run2	repeat/STIM_000.jpg
1318.289	0.594	1	repeat	Run2	repeat/STIM_001.jpg
1322.571	0.427	1	repeat	Run2	repeat/STIM_001.jpg
1326.39	0.61	1	repeat	Run2	repeat/STIM_001.jpg
1330.36	0.469	1	repeat	Run2	repeat/STIM_001.jpg
1333.673	0.461	1	repeat	Run2	repeat/STIM_001.jpg
1337.734	0.377	1	repeat	Run2	repeat/STIM_002.jpg
1340.249	0.364	1	repeat	Run2	repeat/STIM_002.jpg
1343.705	0.438	1	repeat	Run2	repeat/STIM_002.jpg
1347.297	0.543	1	repeat	Run2	repeat/STIM_002.jpg
1350.373	0.451	1	repeat	Run2	repeat/STIM_002.jpg
1353.485	0.561	1	repeat	Run2	repeat/STIM_003.jpg
1356.201	0.482	1	repeat	Run2	repeat/STIM_003.jpg
1358.744	0.491	1	repeat	Run2	repeat/STIM_003.jpg
1362.44	0.572	0	repeat	Run2	repeat/STIM_003.jpg
1366.505	0.563	1	repeat	Run2	repeat/STIM_003.jpg
1370.065	0.603	1	repeat	Run2	repeat/STIM_004.jpg
1373.734	0.52	1	repeat	Run2	repeat/STIM_004.jpg
1376.704	0.384	1	repeat	Run2	repeat/STIM_004.jpg
1380.815	0.515	0	repeat	Run2	repeat/STIM_004.jpg
1383.779	0.458	1	repeat	Run2	repeat/STIM_004.jpg
1387.896	0.336	0	repeat	Run2	repeat/STIM_005.jpg
1391.595	0.323	1	repeat	Run2	repeat/STIM_005.jpg
1394.795	0.55	1	repeat	Run2	repeat/STIM_005.jpg
1398.753	0.54	1	repeat	Run2	repeat/STIM_005.jpg
1402.941	0.348	0	repeat	Run2	repeat/STIM_005.jpg
1405.562	0.613	1	repeat	Run2	repeat/STIM_006.jpg
1408.841	0.32	1	repeat	Run2	repeat/STIM_006.jpg
1411.76	0.533	1	repeat	Run2	repeat/STIM_006.jpg
1414.33	0.483	1	repeat	Run2	repeat/STIM_006.jpg
1416.983	0.351	0	repeat	Run2	repeat/STIM_006.jpg
1421.019	0.506	1	repeat	Run2	repeat/STIM_007.jpg
1425.228	0.579	0	repeat	Run2	repeat/STIM_007.jpg
1429.35	0.335	1	repeat	Run2	repeat/STIM_007.jpg
1433.448	0.38	1	repeat	Run2	repeat/STIM_007.jpg
1437.28	0.502	1	repeat	Run2	repeat/STIM_007.jpg
1441.575	0.404	1	repeat	Run2	repeat/STIM_008.jpg
1444.948	0.533	1	repeat	Run2	repeat/STIM_008.jpg
1448.541	0.415	1	repeat	Run2	repeat/STIM_008.jpg
1451.16	0.546	1	repeat	Run2	repeat/STIM_008.jpg
1454.57	0.477	1	repeat	Run2	repeat/STIM_008.jpg
1457.712	0.589	1	repeat	Run2	repeat/STIM_009.jpg
1460.905	0.354	1	repeat	Run2	repeat/STIM_009.jpg
1463.895	0.617	1	repeat	Run2	repeat/STIM_009.jpg
1467.388	0.475	1	repeat	Run2	repeat/STIM_009.jpg
1471.327	0.486	0	repeat	Run2	repeat/STIM_009.jpg
1474.126	0.449	0	repeat	Run2	repeat/STIM_010.jpg
1478.162	0.511	1	repeat	Run2	repeat/STIM_010.jpg
1482.215	0.321	1	repeat	Run2	repeat/STIM_010.jpg
1485.976	0.318	1	repeat	Run2	repeat/STIM_010.jpg
1489.234	0.459	1	repeat	Run2	repeat/STIM_010.jpg
1492.188	0.431	1	repeat	Run2	repeat/STIM_011.jpg
1496.475	0.505	1	repeat	Run2	repeat/STIM_011.jpg
1500.229	0.311	1	repeat	Run2	repeat/STIM_011.jpg
1502.953	0.591	1	repeat	Run2	repeat/STIM_011.jpg
1506.531	0.457	1	repeat	Run2	repeat/STIM_011.jpg
1510.295	0.414	1	repeat	Run2	repeat/STIM_012.jpg
1514.086	0.323	1	repeat	Run2	repeat/STIM_012.jpg
1518.088	0.31	0	repeat	Run2	repeat/STIM_012.jpg
1520.939	0.461	1	repeat	Run2	repeat/STIM_012.jpg
1524.452	0.532	1	repeat	Run2	repeat/STIM_012.jpg
1528.191	0.417	0	repeat	Run2	repeat/STIM_013.jpg
1531.446	0.53	1	repeat	Run2	repeat/STIM_013.jpg
1535.411	0.514	1	repeat	Run2	repeat/STIM_013.jpg
1539.861	0.422	1	repeat	Run2	repeat/STIM_013.jpg
1543.787	0.562	0	repeat	Run2	repeat/STIM_013.jpg
1547.76	0.533	1	repeat	Run2	repeat/STIM_014.jpg
1551.428	0.552	0	repeat	Run2	repeat/STIM_014.jpg
1555.776	0.575	1	repeat	Run2	repeat/STIM_014.jpg
1559.281	0.348	1	repeat	Run2	repeat/STIM_014.jpg
1562.205	0.61	1	repeat	Run2	repeat/STIM_014.jpg
1565.38	0.846	1	generate	Run3	generate/STIM_000.jpg
1569.052	0.665	1	generate	Run3	generate/STIM_000.jpg
1573.256	0.73	1	generate	Run3	generate/STIM_000.jpg
1577.536	1.228	1	generate	Run3	generate/STIM_000.jpg
1582.543	0.784	1	generate	Run3	generate/STIM_000.jpg
1586.948	1.031	1	generate	Run3	generate/STIM_001.jpg
1591.933	0.939	0	generate	Run3	generate/STIM_001.jpg
1596.578	0.877	1	generate	Run3	generate/STIM_001.jpg
1601.224	1.141	1	generate	Run3	generate/STIM_001.jpg
1605.666	0.806	1	generate	Run3	generate/STIM_001.jpg
1609.513	0.866	1	generate	Run3	generate/STIM_002.jpg
1613.033	0.659	1	generate	Run3	generate/STIM_002.jpg
1616.258	0.611	1	generate	Run3	generate/STIM_002.jpg
1620.226	0.899	0	generate	Run3	generate/STIM_002.jpg
1623.943	0.703	0	generate	Run3	generate/STIM_002.jpg
1628.012	0.905	1	generate	Run3	generate/STIM_003.jpg
1631.111	1.003	1	generate	Run3	generate/STIM_003.jpg
1635.268	1.214	1	generate	Run3	generate/STIM_003.jpg
1639.47	1.298	1	generate	Run3	generate/STIM_003.jpg
1644.68	1.178	1	generate	Run3	generate/STIM_003.jpg
1648.414	1.251	1	generate	Run3	generate/STIM_004.jpg
1653.367	1.058	1	generate	Run3	generate/STIM_004.jpg
1657.068	0.836	1	generate	Run3	generate/STIM_004.jpg
1660.214	1.178	1	generate	Run3	generate/STIM_004.jpg
1663.451	1.098	1	generate	Run3	generate/STIM_004.jpg
1668.104	1.161	1	generate	Run3	generate/STIM_005.jpg
1671.551	0.607	1	generate	Run3	generate/STIM_005.jpg
1674.815	1.076	1	generate	Run3	generate/STIM_005.jpg
1678.168	0.797	1	generate	Run3	generate/STIM_005.jpg
1682.793	1.112	1	generate	Run3	generate/STIM_005.jpg
1687.637	0.572	1	generate	Run3	generate/STIM_006.jpg
1690.241	0.67	1	generate	Run3	generate/STIM_006.jpg
1693.582	0.56	1	generate	Run3	generate/STIM_006.jpg
1696.519	0.941	1	generate	Run3	generate/STIM_006.jpg
1701.321	1.203	1	generate	Run3	generate/STIM_006.jpg
1705.798	0.534	1	generate	Run3	generate/STIM_007.jpg
1709.894	0.722	1	generate	Run3	generate/STIM_007.jpg
1712.926	1.101	1	generate	Run3	generate/STIM_007.jpg
1717.496	1.103	1	generate	Run3	generate/STIM_007.jpg
1722.294	1.126	1	generate	Run3	generate/STIM_007.jpg
1726.388	0.537	1	generate	Run3	generate/STIM_008.jpg
1729.732	1.258	1	generate	Run3	generate/STIM_008.jpg
1734.194	0.997	1	generate	Run3	generate/STIM_008.jpg
1739.117	1.123	1	generate	Run3	generate/STIM_008.jpg
1743.209	0.678	1	generate	Run3	generate/STIM_008.jpg
1747.737	0.823	1	generate	Run3	generate/STIM_009.jpg
1750.771	0.949	1	generate	Run3	generate/STIM_009.jpg
1754.45	1.183	1	generate	Run3	generate/STIM_009.jpg
1757.747	0.805	1	generate	Run3	generate/STIM_009.jpg
1761.41	1.238	1	generate	Run3	generate/STIM_009.jpg
1765.286	0.885	0	generate	Run3	generate/STIM_010.jpg
1768.363	0.767	1	generate	Run3	generate/STIM_010.jpg
1771.46	1.076	1	generate	Run3	generate/STIM_010.jpg
1775.56	1.213	1	generate	Run3	generate/STIM_010.jpg
1780.485	0.996	1	generate	Run3	generate/STIM_010.jpg
1783.941	0.888	1	generate	Run3	generate/STIM_011.jpg
1787.275	1.25	1	generate	Run3	generate/STIM_011.jpg
1792.097	0.833	0	generate	Run3	generate/STIM_011.jpg
1796.263	0.548	1	generate	Run3	generate/STIM_011.jpg
1798.985	1.067	1	generate	Run3	generate/STIM_011.jpg
1802.499	0.763	0	generate	Run3	generate/STIM_012.jpg
1807.157	1.173	1	generate	Run3	generate/STIM_012.jpg
1811.293	1.151	1	generate	Run3	generate/STIM_012.jpg
1814.545	1.047	1	generate	Run3	generate/STIM_012.jpg
1817.808	0.879	1	generate	Run3	generate/STIM_012.jpg
1822.481	0.761	1	generate	Run3	generate/STIM_013.jpg
1826.959	1.296	1	generate	Run3	generate/STIM_013.jpg
1831.928	1.079	1	generate	Run3	generate/STIM_013.jpg
1835.977	1.182	0	generate	Run3	generate/STIM_013.jpg
1839.161	1.224	1	generate	Run3	generate/STIM_013.jpg
1842.932	1.158	1	generate	Run3	generate/STIM_014.jpg
1847.521	1.266	1	generate	Run3	generate/STIM_014.jpg
1851.59	0.76	1	generate	Run3	generate/STIM_014.jpg
1854.566	1.197	1	generate	Run3	generate/STIM_014.jpg
1857.984	1.229	1	generate	Run3	generate/STIM_014.jpg
1863.128	1.254	1	generate	Run3	generate/STIM_015.jpg
1866.816	0.902	1	generate	Run3	generate/STIM_015.jpg
1870.005	0.918	0	generate	Run3	generate/STIM_015.jpg
1874.026	0.692	1	generate	Run3	generate/STIM_015.jpg
1877.28	0.709	1	generate	Run3	generate/STIM_015.jpg
1881.068	0.784	0	generate	Run3	generate/STIM_016.jpg
1884.519	0.939	1	generate	Run3	generate/STIM_016.jpg
1889.097	0.857	1	generate	Run3	generate/STIM_016.jpg
1892.926	0.702	1	generate	Run3	generate/STIM_016.jpg
1896.483	1.054	0	generate	Run3	generate/STIM_016.jpg
1900.654	1.164	1	generate	Run3	generate/STIM_017.jpg
1904.642	0.795	1	generate	Run3	generate/STIM_017.jpg
1907.636	1.152	1	generate	Run3	generate/STIM_017.jpg
1912.666	1.105	1	generate	Run3	generate/STIM_017.jpg
1916.933	0.836	0	generate	Run3	generate/STIM_017.jpg
1920.818	0.804	1	generate	Run3	generate/STIM_018.jpg
1924.562	0.816	1	generate	Run3	generate/STIM_018.jpg
1929.016	0.728	1	generate	Run3	generate/STIM_018.jpg
1932.589	0.945	1	generate	Run3	generate/STIM_018.jpg
1936.378	0.731	0	generate	Run3	generate/STIM_018.jpg
1940.038	0.837	0	generate	Run3	generate/STIM_019.jpg
1943.874	0.67	1	generate	Run3	generate/STIM_019.jpg
1946.619	0.814	0	generate	Run3	generate/STIM_019.jpg
1950.979	0.978	1	generate	Run3	generate/STIM_019.jpg
1954.255	0.874	1	generate	Run3	generate/STIM_019.jpg
1958.305	0.563	1	generate	Run3	generate/STIM_020.jpg
1961.366	0.708	1	generate	Run3	generate/STIM_020.jpg
1965.421	0.968	0	generate	Run3	generate/STIM_020.jpg
1969.87	0.745	1	generate	Run3	generate/STIM_020.jpg
1974.419	0.973	0	generate	Run3	generate/STIM_020.jpg
1977.691	1.285	1	generate	Run3	generate/STIM_021.jpg
1981.441	1.066	1	generate	Run3	generate/STIM_021.jpg
1985.119	1.293	1	generate	Run3	generate/STIM_021.jpg
1990.217	0.749	1	generate	Run3	generate/STIM_021.jpg
1993.182	0.54	1	generate	Run3	generate/STIM_021.jpg
1996.763	1.056	0	generate	Run3	generate/STIM_022.jpg
1999.938	0.902	1	generate	Run3	generate/STIM_022.jpg
2004.816	0.933	1	generate	Run3	generate/STIM_022.jpg
2008.733	0.682	1	generate	Run3	generate/STIM_022.jpg
2012.755	0.53	0	generate	Run3	generate/STIM_022.jpg
2015.488	0.641	0	generate	Run3	generate/STIM_023.jpg
2019.586	0.879	1	generate	Run3	generate/STIM_023.jpg
2022.983	1.12	0	generate	Run3	generate/STIM_023.jpg
2027.386	0.612	1	generate	Run3	generate/STIM_023.jpg
2030.055	0.966	1	generate	Run3	generate/STIM_023.jpg
2034.479	1.076	1	generate	Run3	generate/STIM_024.jpg
2038.857	0.589	1	generate	Run3	generate/STIM_024.jpg
2042.269	1.117	1	generate	Run3	generate/STIM_024.jpg
2045.875	0.639	1	generate	Run3	generate/STIM_024.jpg
2050.363	0.826	1	generate	Run3	generate/STIM_024.jpg
2054.812	0.434	1	repeat	Run3	repeat/STIM_000.jpg
2058.129	0.58	1	repeat	Run3	repeat/STIM_000.jpg
2060.851	0.383	0	repeat	Run3	repeat/STIM_000.jpg
2064.026	0.412	0	repeat	Run3	repeat/STIM_000.jpg
2067.089	0.456	1	repeat	Run3	repeat/STIM_000.jpg
2069.758	0.37	0	repeat	Run3	repeat/STIM_001.jpg
2073.612	0.492	1	repeat	Run3	repeat/STIM_001.jpg
2077.252	0.509	1	repeat	Run3	repeat/STIM_001.jpg
2080.07	0.484	1	repeat	Run3	repeat/STIM_001.jpg
2084.319	0.335	1	repeat	Run3	repeat/STIM_001.jpg
2088.389	0.499	1	repeat	Run3	repeat/STIM_002.jpg
2092.886	0.555	0	repeat	Run3	repeat/STIM_002.jpg
2096.016	0.592	1	repeat	Run3	repeat/STIM_002.jpg
2098.869	0.458	1	repeat	Run3	repeat/STIM_002.jpg
2101.334	0.48	1	repeat	Run3	repeat/STIM_002.jpg
2105.429	0.59	0	repeat	Run3	repeat/STIM_003.jpg
2109.141	0.415	1	repeat	Run3	repeat/STIM_003.jpg
2113.315	0.316	1	repeat	Run3	repeat/STIM_003.jpg
2117.452	0.325	1	repeat	Run3	repeat/STIM_003.jpg
2120.654	0.617	1	repeat	Run3	repeat/STIM_003.jpg
2123.738	0.431	1	repeat	Run3	repeat/STIM_004.jpg
2126.444	0.589	1	repeat	Run3	repeat/STIM_004.jpg
2129.523	0.403	1	repeat	Run3	repeat/STIM_004.jpg
2132.58	0.39	1	repeat	Run3	repeat/STIM_004.jpg
2136.528	0.346	1	repeat	Run3	repeat/STIM_004.jpg
2139.528	0.428	0	repeat	Run3	repeat/STIM_005.jpg
2142.162	0.448	1	repeat	Run3	repeat/STIM_005.jpg
2145.764	0.603	1	repeat	Run3	repeat/STIM_005.jpg
2148.762	0.436	1	repeat	Run3	repeat/STIM_005.jpg
2152.377	0.616	1	repeat	Run3	repeat/STIM_005.jpg
2156.955	0.373	0	repeat	Run3	repeat/STIM_006.jpg
2159.396	0.44	1	repeat	Run3	repeat/STIM_006.jpg
2163.133	0.342	1	repeat	Run3	repeat/STIM_006.jpg
2167.074	0.393	1	repeat	Run3	repeat/STIM_006.jpg
2169.687	0.606	1	repeat	Run3	repeat/STIM_006.jpg
2173.654	0.425	1	repeat	Run3	repeat/STIM_007.jpg
2177.923	0.613	1	repeat	Run3	repeat/STIM_007.jpg
2181.538	0.539	1	repeat	Run3	repeat/STIM_007.jpg
2185.988	0.446	1	repeat	Run3	repeat/STIM_007.jpg
2188.912	0.567	0	repeat	Run3	repeat/STIM_007.jpg
2191.758	0.394	0	repeat	Run3	repeat/STIM_008.jpg
2194.778	0.416	1	repeat	Run3	repeat/STIM_008.jpg
2198.806	0.485	1	repeat	Run3	repeat/STIM_008.jpg
2202.839	0.368	1	repeat	Run3	repeat/STIM_008.jpg
2207.205	0.442	1	repeat	Run3	repeat/STIM_008.jpg
2211.115	0.59	1	repeat	Run3	repeat/STIM_009.jpg
2213.834	0.429	1	repeat	Run3	repeat/STIM_009.jpg
2216.593	0.465	1	repeat	Run3	repeat/STIM_009.jpg
2219.074	0.508	1	repeat	Run3	repeat/STIM_009.jpg
2222.894	0.453	1	repeat	Run3	repeat/STIM_009.jpg
2226.187	0.464	1	repeat	Run3	repeat/STIM_010.jpg
2229.032	0.314	1	repeat	Run3	repeat/STIM_010.jpg
2231.502	0.521	0	repeat	Run3	repeat/STIM_010.jpg
2235.759	0.31	1	repeat	Run3	repeat/STIM_010.jpg
2239.317	0.419	1	repeat	Run3	repeat/STIM_010.jpg
2242.729	0.608	1	repeat	Run3	repeat/STIM_011.jpg
2245.509	0.314	1	repeat	Run3	repeat/STIM_011.jpg
2249.541	0.496	1	repeat	Run3	repeat/STIM_011.jpg
2253.034	0.511	1	repeat	Run3	repeat/STIM_011.jpg
2256.115	0.312	1	repeat	Run3	repeat/STIM_011.jpg
2258.528	0.435	1	repeat	Run3	repeat/STIM_012.jpg
2262.372	0.594	1	repeat	Run3	repeat/STIM_012.jpg
2266.873	0.398	1	repeat	Run3	repeat/STIM_012.jpg
2271.066	0.537	1	repeat	Run3	repeat/STIM_012.jpg
2275.127	0.325	1	repeat	Run3	repeat/STIM_012.jpg
2277.738	0.452	1	repeat	Run3	repeat/STIM_013.jpg
2280.758	0.349	1	repeat	Run3	repeat/STIM_013.jpg
2283.844	0.328	1	repeat	Run3	repeat/STIM_013.jpg
2287.521	0.34	0	repeat	Run3	repeat/STIM_013.jpg
2290.541	0.572	1	repeat	Run3	repeat/STIM_013.jpg
2293.714	0.551	1	repeat	Run3	repeat/STIM_014.jpg
2297.038	0.522	1	repeat	Run3	repeat/STIM_014.jpg
2300.283	0.442	1	repeat	Run3	repeat/STIM_014.jpg
2302.85	0.456	0	repeat	Run3	repeat/STIM_014.jpg
2305.821	0.45	1	repeat	Run3	repeat/STIM_014.jpg
2308.754	0.98	0	generate	Run4	generate/STIM_000.jpg
2312.907	0.632	1	generate	Run4	generate/STIM_000.jpg
2316.766	0.548	0	generate	Run4	generate/STIM_000.jpg
2320.492	0.856	1	generate	Run4	generate/STIM_000.jpg
2324.629	0.815	1	generate	Run4	generate/STIM_000.jpg
2327.933	0.61	1	generate	Run4	generate/STIM_001.jpg
2330.879	0.777	1	generate	Run4	generate/STIM_001.jpg
2335.331	0.628	1	generate	Run4	generate/STIM_001.jpg
2338.313	0.979	1	generate	Run4	generate/STIM_001.jpg
2342.226	0.528	1	generate	Run4	generate/STIM_001.jpg
2346.662	0.781	1	generate	Run4	generate/STIM_002.jpg
2349.913	0.703	1	generate	Run4	generate/STIM_002.jpg
2353.704	1.136	1	generate	Run4	generate/STIM_002.jpg
2357.722	0.619	1	generate	Run4	generate/STIM_002.jpg
2360.87	0.754	1	generate	Run4	generate/STIM_002.jpg
2364.315	0.544	0	generate	Run4	generate/STIM_003.jpg
2367.343	1.075	0	generate	Run4	generate/STIM_003.jpg
2370.791	1.274	1	generate	Run4	generate/STIM_003.jpg
2374.841	0.527	1	generate	Run4	generate/STIM_003.jpg
2377.972	0.686	1	generate	Run4	generate/STIM_003.jpg
2381.031	0.761	1	generate	Run4	generate/STIM_004.jpg
2385.221	0.601	1	generate	Run4	generate/STIM_004.jpg
2389.235	0.635	1	generate	Run4	generate/STIM_004.jpg
2393.542	0.602	1	generate	Run4	generate/STIM_004.jpg
2396.69	1.197	0	generate	Run4	generate/STIM_004.jpg
2401.019	0.524	0	generate	Run4	generate/STIM_005.jpg
2404.915	0.665	1	generate	Run4	generate/STIM_005.jpg
2408.805	1.232	1	generate	Run4	generate/STIM_005.jpg
2412.059	1.114	1	generate	Run4	generate/STIM_005.jpg
2415.381	0.588	1	generate	Run4	generate/STIM_005.jpg
2418.618	0.826	0	generate	Run4	generate/STIM_006.jpg
2423.079	0.836	1	generate	Run4	generate/STIM_006.jpg
2427.239	0.6	1	generate	Run4	generate/STIM_006.jpg
2430.468	0.718	1	generate	Run4	generate/STIM_006.jpg
2434.358	1.009	1	generate	Run4	generate/STIM_006.jpg
2437.882	0.965	0	generate	Run4	generate/STIM_007.jpg
2441.217	0.946	1	generate	Run4	generate/STIM_007.jpg
2445.264	0.793	1	generate	Run4	generate/STIM_007.jpg
2448.384	0.806	1	generate	Run4	generate/STIM_007.jpg
2452.317	1.082	1	generate	Run4	generate/STIM_007.jpg
2456.561	0.583	1	generate	Run4	generate/STIM_008.jpg
2460.609	0.842	1	generate	Run4	generate/STIM_008.jpg
2465.227	1.093	1	generate	Run4	generate/STIM_008.jpg
2469.871	1.222	1	generate	Run4	generate/STIM_008.jpg
2474.927	1.212	1	generate	Run4	generate/STIM_008.jpg
2479.629	0.578	1	generate	Run4	generate/STIM_009.jpg
2484.008	0.526	1	generate	Run4	generate/STIM_009.jpg
2488.036	0.938	1	generate	Run4	generate/STIM_009.jpg
2492.817	0.761	1	generate	Run4	generate/STIM_009.jpg
2495.638	0.836	1	generate	Run4	generate/STIM_009.jpg
2498.87	1.076	1	generate	Run4	generate/STIM_010.jpg
2503.476	0.777	1	generate	Run4	generate/STIM_010.jpg
2508.238	0.521	0	generate	Run4	generate/STIM_010.jpg
2511.634	0.79	1	generate	Run4	generate/STIM_010.jpg
2515.375	0.947	1	generate	Run4	generate/STIM_010.jpg
2519.705	1.248	0	generate	Run4	generate/STIM_011.jpg
2524.126	0.795	1	generate	Run4	generate/STIM_011.jpg
2528.527	0.529	1	generate	Run4	generate/STIM_011.jpg
2532.967	0.69	1	generate	Run4	generate/STIM_011.jpg
2537.255	0.539	1	generate	Run4	generate/STIM_011.jpg
2540.065	1.099	1	generate	Run4	generate/STIM_012.jpg
2543.863	1.024	1	generate	Run4	generate/STIM_012.jpg
2547.297	1.189	1	generate	Run4	generate/STIM_012.jpg
2552.005	1.264	1	generate	Run4	generate/STIM_012.jpg
2556.785	1.084	1	generate	Run4	generate/STIM_012.jpg
2561.439	1.244	1	generate	Run4	generate/STIM_013.jpg
2564.914	0.809	1	generate	Run4	generate/STIM_013.jpg
2569.544	0.849	1	generate	Run4	generate/STIM_013.jpg
2574.239	0.698	1	generate	Run4	generate/STIM_013.jpg
2578.039	0.849	1	generate	Run4	generate/STIM_013.jpg
2582.885	1.207	1	generate	Run4	generate/STIM_014.jpg
2586.596	0.966	1	generate	Run4	generate/STIM_014.jpg
2589.749	0.953	1	generate	Run4	generate/STIM_014.jpg
2593.405	0.724	1	generate	Run4	generate/STIM_014.jpg
2596.339	1.152	1	generate	Run4	generate/STIM_014.jpg
2600.314	0.614	1	generate	Run4	generate/STIM_015.jpg
2603.849	0.939	1	generate	Run4	generate/STIM_015.jpg
2607.412	0.857	1	generate	Run4	generate/STIM_015.jpg
2612.231	1.17	1	generate	Run4	generate/STIM_015.jpg
2617.098	1.052	1	generate	Run4	generate/STIM_015.jpg
2621.623	0.958	1	generate	Run4	generate/STIM_016.jpg
2625.589	1.218	1	generate	Run4	generate/STIM_016.jpg
2629.982	1.203	1	generate	Run4	generate/STIM_016.jpg
2634.527	0.577	1	generate	Run4	generate/STIM_016.jpg
2637.44	0.886	1	generate	Run4	generate/STIM_016.jpg
2640.905	1.026	1	generate	Run4	generate/STIM_017.jpg
2644.563	0.926	1	generate	Run4	generate/STIM_017.jpg
2649.469	0.704	1	generate	Run4	generate/STIM_017.jpg
2652.211	1.027	0	generate	Run4	generate/STIM_017.jpg
2656.793	0.796	1	generate	Run4	generate/STIM_017.jpg
2660.763	0.685	1	generate	Run4	generate/STIM_018.jpg
2664.187	0.598	1	generate	Run4	generate/STIM_018.jpg
2668.268	1.226	1	generate	Run4	generate/STIM_018.jpg
2673.107	0.844	1	generate	Run4	generate/STIM_018.jpg
2676.568	1.003	1	generate	Run4	generate/STIM_018.jpg
2681.233	1.174	1	generate	Run4	generate/STIM_019.jpg
2685.554	0.566	1	generate	Run4	generate/STIM_019.jpg
2690.008	1.044	1	generate	Run4	generate/STIM_019.jpg
2694.925	1.2	1	generate	Run4	generate/STIM_019.jpg
2698.381	0.864	1	generate	Run4	generate/STIM_019.jpg
2701.684	0.56	1	generate	Run4	generate/STIM_020.jpg
2705.534	0.612	1	generate	Run4	generate/STIM_020.jpg
2708.253	1.069	1	generate	Run4	generate/STIM_020.jpg
2711.704	1.173	1	generate	Run4	generate/STIM_020.jpg
2716.151	1.257	1	generate	Run4	generate/STIM_020.jpg
2719.531	0.823	1	generate	Run4	generate/STIM_021.jpg
2723.39	0.94	1	generate	Run4	generate/STIM_021.jpg
2727.651	1.08	1	generate	Run4	generate/STIM_021.jpg
2732.019	0.73	1	generate	Run4	generate/STIM_021.jpg
2735.667	0.829	1	generate	Run4	generate/STIM_021.jpg
2740.065	0.685	1	generate	Run4	generate/STIM_022.jpg
2744.714	1.147	1	generate	Run4	generate/STIM_022.jpg
2749.66	0.674	1	generate	Run4	generate/STIM_022.jpg
2752.662	0.56	1	generate	Run4	generate/STIM_022.jpg
2755.33	0.877	1	generate	Run4	generate/STIM_022.jpg
2758.576	0.893	1	generate	Run4	generate/STIM_023.jpg
2762.571	0.757	1	generate	Run4	generate/STIM_023.jpg
2767.291	0.685	1	generate	Run4	generate/STIM_023.jpg
2770.661	1.041	0	generate	Run4	generate/STIM_023.jpg
2774.033	1.048	1	generate	Run4	generate/STIM_023.jpg
2777.175	0.808	1	generate	Run4	generate/STIM_024.jpg
2780.186	0.919	1	generate	Run4	generate/STIM_024.jpg
2783.879	0.613	1	generate	Run4	generate/STIM_024.jpg
2786.573	0.761	1	generate	Run4	generate/STIM_024.jpg
2790.26	1.168	1	generate	Run4	generate/STIM_024.jpg
2795.347	0.6	0	repeat	Run4	repeat/STIM_000.jpg
2798.613	0.602	1	repeat	Run4	repeat/STIM_000.jpg
2802.851	0.399	1	repeat	Run4	repeat/STIM_000.jpg
2805.876	0.412	1	repeat	Run4	repeat/STIM_000.jpg
2809.931	0.412	1	repeat	Run4	repeat/STIM_000.jpg
2813.008	0.56	1	repeat	Run4	repeat/STIM_001.jpg
2815.837	0.381	1	repeat	Run4	repeat/STIM_001.jpg
2820.181	0.558	0	repeat	Run4	repeat/STIM_001.jpg
2823.348	0.464	1	repeat	Run4	repeat/STIM_001.jpg
2826.701	0.54	1	repeat	Run4	repeat/STIM_001.jpg
2830.511	0.313	1	repeat	Run4	repeat/STIM_002.jpg
2833.64	0.367	1	repeat	Run4	repeat/STIM_002.jpg
2836.479	0.414	1	repeat	Run4	repeat/STIM_002.jpg
2839.032	0.333	1	repeat	Run4	repeat/STIM_002.jpg
2842.505	0.54	1	repeat	Run4	repeat/STIM_002.jpg
2846.398	0.54	1	repeat	Run4	repeat/STIM_003.jpg
2850.191	0.485	1	repeat	Run4	repeat/STIM_003.jpg
2854.124	0.312	1	repeat	Run4	repeat/STIM_003.jpg
2858.232	0.618	1	repeat	Run4	repeat/STIM_003.jpg
2861.005	0.398	1	repeat	Run4	repeat/STIM_003.jpg
2863.573	0.551	1	repeat	Run4	repeat/STIM_004.jpg
2867.622	0.506	1	repeat	Run4	repeat/STIM_004.jpg
2870.538	0.523	1	repeat	Run4	repeat/STIM_004.jpg
2873.432	0.592	1	repeat	Run4	repeat/STIM_004.jpg
2876.029	0.467	1	repeat	Run4	repeat/STIM_004.jpg
2880.215	0.523	1	repeat	Run4	repeat/STIM_005.jpg
2883.984	0.561	1	repeat	Run4	repeat/STIM_005.jpg
2888.198	0.43	1	repeat	Run4	repeat/STIM_005.jpg
2891.375	0.473	1	repeat	Run4	repeat/STIM_005.jpg
2895.807	0.47	1	repeat	Run4	repeat/STIM_005.jpg
2899.706	0.595	1	repeat	Run4	repeat/STIM_006.jpg
2903.914	0.449	1	repeat	Run4	repeat/STIM_006.jpg
2907.093	0.395	1	repeat	Run4	repeat/STIM_006.jpg
2910.074	0.584	1	repeat	Run4	repeat/STIM_006.jpg
2914.096	0.613	1	repeat	Run4	repeat/STIM_006.jpg
2916.711	0.542	1	repeat	Run4	repeat/STIM_007.jpg
2920.986	0.409	1	repeat	Run4	repeat/STIM_007.jpg
2924.481	0.515	1	repeat	Run4	repeat/STIM_007.jpg
2928.577	0.578	1	repeat	Run4	repeat/STIM_007.jpg
2932.839	0.55	1	repeat	Run4	repeat/STIM_007.jpg
2937.204	0.393	1	repeat	Run4	repeat/STIM_008.jpg
2940.397	0.585	1	repeat	Run4	repeat/STIM_008.jpg
2944.134	0.439	0	repeat	Run4	repeat/STIM_008.jpg
2947.973	0.461	1	repeat	Run4	repeat/STIM_008.jpg
2951.5	0.558	1	repeat	Run4	repeat/STIM_008.jpg
2955.664	0.332	1	repeat	Run4	repeat/STIM_009.jpg
2959.976	0.567	1	repeat	Run4	repeat/STIM_009.jpg
2963.033	0.519	1	repeat	Run4	repeat/STIM_009.jpg
2966.982	0.544	1	repeat	Run4	repeat/STIM_009.jpg
2970.512	0.398	1	repeat	Run4	repeat/STIM_009.jpg
2974.803	0.502	1	repeat	Run4	repeat/STIM_010.jpg
2977.857	0.57	1	repeat	Run4	repeat/STIM_010.jpg
2982.394	0.512	1	repeat	Run4	repeat/STIM_010.jpg
2986.587	0.596	1	repeat	Run4	repeat/STIM_010.jpg
2990.949	0.512	0	repeat	Run4	repeat/STIM_010.jpg
2995.356	0.384	1	repeat	Run4	repeat/STIM_011.jpg
2998.567	0.602	1	repeat	Run4	repeat/STIM_011.jpg
3002.168	0.595	1	repeat	Run4	repeat/STIM_011.jpg
3006.452	0.427	1	repeat	Run4	repeat/STIM_011.jpg
3010.246	0.357	1	repeat	Run4	repeat/STIM_011.jpg
3012.65	0.431	1	repeat	Run4	repeat/STIM_012.jpg
3016.053	0.548	1	repeat	Run4	repeat/STIM_012.jpg
3018.755	0.373	1	repeat	Run4	repeat/STIM_012.jpg
3021.156	0.56	1	repeat	Run4	repeat/STIM_012.jpg
3024.187	0.342	1	repeat	Run4	repeat/STIM_012.jpg
3028.05	0.32	1	repeat	Run4	repeat/STIM_013.jpg
3030.985	0.367	1	repeat	Run4	repeat/STIM_013.jpg
3034.364	0.353	1	repeat	Run4	repeat/STIM_013.jpg
3037.775	0.401	1	repeat	Run4	repeat/STIM_013.jpg
3041.596	0.343	1	repeat	Run4	repeat/STIM_013.jpg
3045.152	0.341	1	repeat	Run4	repeat/STIM_014.jpg
3048.998	0.594	1	repeat	Run4	repeat/STIM_014.jpg
3052.131	0.392	0	repeat	Run4	repeat/STIM_014.jpg
3056.241	0.321	1	repeat	Run4	repeat/STIM_014.jpg
3059.275	0.458	1	repeat	Run4	repeat/STIM_014.jpg
