onset	duration	accuracy	trial_type	learning_stage	stimulus
0.0	2.192	incorrect	generate	Run1	generate/STIM_000.jpg
5.627	2.224	correct	generate	Run1	generate/STIM_000.jpg
11.516	2.332	correct	generate	Run1	generate/STIM_000.jpg
17.022	1.345	correct	generate	Run1	generate/STIM_000.jpg
20.84	1.613	correct	generate	Run1	generate/STIM_000.jpg
25.977	2.214	correct	generate	Run1	generate/STIM_001.jpg
32.151	2.54	correct	generate	Run1	generate/STIM_001.jpg
37.94	1.178	correct	generate	Run1	generate/STIM_001.jpg
41.623	1.774	correct	generate	Run1	generate/STIM_001.jpg
47.343	1.972	incorrect	generate	Run1	generate/STIM_001.jpg
52.094	1.501	incorrect	generate	Run1	generate/STIM_002.jpg
56.616	1.273	incorrect	generate	Run1	generate/STIM_002.jpg
61.845	1.933	correct	generate	Run1	generate/STIM_002.jpg
67.709	1.821	correct	generate	Run1	generate/STIM_002.jpg
72.321	1.267	correct	generate	Run1	generate/STIM_002.jpg
75.783	2.659	correct	generate	Run1	generate/STIM_003.jpg
82.019	2.61	correct	generate	Run1	generate/STIM_003.jpg
88.731	1.997	correct	generate	Run1	generate/STIM_003.jpg
93.427	1.759	correct	generate	Run1	generate/STIM_003.jpg
97.945	1.725	incorrect	generate	Run1	generate/STIM_003.jpg
103.482	1.338	correct	generate	Run1	generate/STIM_004.jpg
108.594	2.091	correct	generate	Run1	generate/STIM_004.jpg
113.412	1.614	incorrect	generate	Run1	generate/STIM_004.jpg
117.382	2.284	correct	generate	Run1	generate/STIM_004.jpg
123.328	1.819	incorrect	generate	Run1	generate/STIM_004.jpg
128.903	1.595	correct	generate	Run1	generate/STIM_005.jpg
134.613	2.47	incorrect	generate	Run1	generate/STIM_005.jpg
141.108	2.086	incorrect	generate	Run1	generate/STIM_005.jpg
146.731	1.902	correct	generate	Run1	generate/STIM_005.jpg
152.026	1.613	correct	generate	Run1	generate/STIM_005.jpg
157.017	2.489	correct	generate	Run1	generate/STIM_006.jpg
161.856	2.196	correct	generate	Run1	generate/STIM_006.jpg
167.984	1.102	correct	generate	Run1	generate/STIM_006.jpg
172.361	2.172	correct	generate	Run1	generate/STIM_006.jpg
177.23	1.519	correct	generate	Run1	generate/STIM_006.jpg
181.473	2.262	correct	generate	Run1	generate/STIM_007.jpg
187.539	1.808	correct	generate	Run1	generate/STIM_007.jpg
193.437	1.198	incorrect	generate	Run1	generate/STIM_007.jpg
198.167	1.581	incorrect	generate	Run1	generate/STIM_007.jpg
203.719	1.821	correct	generate	Run1	generate/STIM_007.jpg
208.282	1.389	correct	generate	Run1	generate/STIM_008.jpg
212.941	1.531	correct	generate	Run1	generate/STIM_008.jpg
218.277	2.222	incorrect	generate	Run1	generate/STIM_008.jpg
223.693	1.074	correct	generate	Run1	generate/STIM_008.jpg
227.547	2.008	correct	generate	Run1	generate/STIM_008.jpg
232.156	1.594	correct	generate	Run1	generate/STIM_009.jpg
236.85	2.411	correct	generate	Run1	generate/STIM_009.jpg
241.929	1.586	correct	generate	Run1	generate/STIM_009.jpg
246.705	2.305	correct	generate	Run1	generate/STIM_009.jpg
253.213	1.93	correct	generate	Run1	generate/STIM_009.jpg
258.539	2.017	incorrect	generate	Run1	generate/STIM_010.jpg
262.864	1.774	incorrect	generate	Run1	generate/STIM_010.jpg
266.867	1.463	correct	generate	Run1	generate/STIM_010.jpg
271.942	1.402	correct	generate	Run1	generate/STIM_010.jpg
276.399	1.689	incorrect	generate	Run1	generate/STIM_010.jpg
281.314	1.992	correct	generate	Run1	generate/STIM_011.jpg
287.002	1.051	correct	generate	Run1	generate/STIM_011.jpg
291.911	2.062	correct	generate	Run1	generate/STIM_011.jpg
297.876	2.229	correct	generate	Run1	generate/STIM_011.jpg
303.039	1.441	incorrect	generate	Run1	generate/STIM_011.jpg
307.524	2.359	incorrect	generate	Run1	generate/STIM_012.jpg
314.053	1.135	correct	generate	Run1	generate/STIM_012.jpg
318.572	2.24	correct	generate	Run1	generate/STIM_012.jpg
324.88	0.975	correct	generate	Run1	generate/STIM_012.jpg
329.752	1.768	correct	generate	Run1	generate/STIM_012.jpg
335.541	1.417	incorrect	generate	Run1	generate/STIM_013.jpg
340.454	1.976	incorrect	generate	Run1	generate/STIM_013.jpg
346.21	1.698	correct	generate	Run1	generate/STIM_013.jpg
351.087	1.969	correct	generate	Run1	generate/STIM_013.jpg
355.721	1.687	correct	generate	Run1	generate/STIM_013.jpg
360.542	2.429	correct	generate	Run1	generate/STIM_014.jpg
366.248	1.735	correct	generate	Run1	generate/STIM_014.jpg
371.386	1.249	correct	generate	Run1	generate/STIM_014.jpg
375.282	1.982	correct	generate	Run1	generate/STIM_014.jpg
380.682	0.964	incorrect	generate	Run1	generate/STIM_014.jpg
385.196	2.028	correct	generate	Run1	generate/STIM_015.jpg
390.272	1.264	correct	generate	Run1	generate/STIM_015.jpg
395.563	2.032	incorrect	generate	Run1	generate/STIM_015.jpg
399.908	1.814	correct	generate	Run1	generate/STIM_015.jpg
404.401	1.143	incorrect	generate	Run1	generate/STIM_015.jpg
408.636	2.721	correct	generate	Run1	generate/STIM_016.jpg
414.505	1.779	incorrect	generate	Run1	generate/STIM_016.jpg
419.561	2.106	correct	generate	Run1	generate/STIM_016.jpg
424.649	1.149	correct	generate	Run1	generate/STIM_016.jpg
429.866	1.508	correct	generate	Run1	generate/STIM_016.jpg
434.929	1.385	correct	generate	Run1	generate/STIM_017.jpg
439.794	1.926	correct	generate	Run1	generate/STIM_017.jpg
445.047	1.104	correct	generate	Run1	generate/STIM_017.jpg
449.524	1.688	correct	generate	Run1	generate/STIM_017.jpg
454.065	1.213	incorrect	generate	Run1	generate/STIM_017.jpg
457.421	2.14	incorrect	generate	Run1	generate/STIM_018.jpg
462.132	2.576	correct	generate	Run1	generate/STIM_018.jpg
467.654	1.492	correct	generate	Run1	generate/STIM_018.jpg
471.558	1.382	incorrect	generate	Run1	generate/STIM_018.jpg
475.403	1.172	correct	generate	Run1	generate/STIM_018.jpg
480.396	2.424	correct	generate	Run1	generate/STIM_019.jpg
485.725	1.746	correct	generate	Run1	generate/STIM_019.jpg
490.641	2.178	correct	generate	Run1	generate/STIM_019.jpg
495.826	1.03	correct	generate	Run1	generate/STIM_019.jpg
499.975	1.642	correct	generate	Run1	generate/STIM_019.jpg
504.091	1.23	correct	generate	Run1	generate/STIM_020.jpg
509.043	1.141	correct	generate	Run1	generate/STIM_020.jpg
512.4	1.065	correct	generate	Run1	generate/STIM_020.jpg
515.73	1.875	correct	generate	Run1	generate/STIM_020.jpg
520.507	2.173	correct	generate	Run1	generate/STIM_020.jpg
525.363	1.96	correct	generate	Run1	generate/STIM_021.jpg
530.571	1.547	correct	generate	Run1	generate/STIM_021.jpg
535.494	2.202	correct	generate	Run1	generate/STIM_021.jpg
539.972	1.038	correct	generate	Run1	generate/STIM_021.jpg
544.285	1.977	correct	generate	Run1	generate/STIM_021.jpg
550.199	1.885	correct	generate	Run1	generate/STIM_022.jpg
554.619	2.591	correct	generate	Run1	generate/STIM_022.jpg
559.817	1.827	correct	generate	Run1	generate/STIM_022.jpg
563.991	1.319	correct	generate	Run1	generate/STIM_022.jpg
567.931	1.749	correct	generate	Run1	generate/STIM_022.jpg
571.928	2.038	correct	generate	Run1	generate/STIM_023.jpg
577.253	1.154	correct	generate	Run1	generate/STIM_023.jpg
580.649	1.14	correct	generate	Run1	generate/STIM_023.jpg
584.662	1.392	correct	generate	Run1	generate/STIM_023.jpg
588.403	1.84	correct	generate	Run1	generate/STIM_023.jpg
593.609	1.592	correct	generate	Run1	generate/STIM_024.jpg
598.408	1.154	correct	generate	Run1	generate/STIM_024.jpg
603.294	2.365	correct	generate	Run1	generate/STIM_024.jpg
609.353	1.202	incorrect	generate	Run1	generate/STIM_024.jpg
613.028	1.216	correct	generate	Run1	generate/STIM_024.jpg
617.958	0.795	correct	repeat	Run1	repeat/STIM_000.jpg
621.887	0.691	correct	repeat	Run1	repeat/STIM_000.jpg
625.965	0.655	correct	repeat	Run1	repeat/STIM_000.jpg
628.802	0.851	correct	repeat	Run1	repeat/STIM_000.jpg
632.25	0.545	correct	repeat	Run1	repeat/STIM_000.jpg
635.718	0.809	correct	repeat	Run1	repeat/STIM_001.jpg
638.82	0.795	correct	repeat	Run1	repeat/STIM_001.jpg
642.033	0.894	correct	repeat	Run1	repeat/STIM_001.jpg
646.973	0.602	correct	repeat	Run1	repeat/STIM_001.jpg
651.24	0.489	incorrect	repeat	Run1	repeat/STIM_001.jpg
654.783	0.834	correct	repeat	Run1	repeat/STIM_002.jpg
659.546	0.777	correct	repeat	Run1	repeat/STIM_002.jpg
664.318	0.642	correct	repeat	Run1	repeat/STIM_002.jpg
668.94	0.564	correct	repeat	Run1	repeat/STIM_002.jpg
672.029	0.808	correct	repeat	Run1	repeat/STIM_002.jpg
676.56	0.788	correct	repeat	Run1	repeat/STIM_003.jpg
680.257	0.755	correct	repeat	Run1	repeat/STIM_003.jpg
683.807	0.821	correct	repeat	Run1	repeat/STIM_003.jpg
687.623	0.547	correct	repeat	Run1	repeat/STIM_003.jpg
690.588	0.771	incorrect	repeat	Run1	repeat/STIM_003.jpg
693.605	0.48	correct	repeat	Run1	repeat/STIM_004.jpg
698.112	0.465	correct	repeat	Run1	repeat/STIM_004.jpg
700.996	0.881	correct	repeat	Run1	repeat/STIM_004.jpg
705.307	0.609	correct	repeat	Run1	repeat/STIM_004.jpg
708.606	0.475	correct	repeat	Run1	repeat/STIM_004.jpg
712.881	0.602	correct	repeat	Run1	repeat/STIM_005.jpg
716.089	0.754	correct	repeat	Run1	repeat/STIM_005.jpg
720.254	0.478	correct	repeat	Run1	repeat/STIM_005.jpg
723.872	0.573	correct	repeat	Run1	repeat/STIM_005.jpg
727.409	0.873	correct	repeat	Run1	repeat/STIM_005.jpg
731.784	0.78	correct	repeat	Run1	repeat/STIM_006.jpg
735.99	0.717	correct	repeat	Run1	repeat/STIM_006.jpg
740.169	0.865	correct	repeat	Run1	repeat/STIM_006.jpg
743.956	0.823	correct	repeat	Run1	repeat/STIM_006.jpg
748.714	0.512	correct	repeat	Run1	repeat/STIM_006.jpg
751.339	0.539	correct	repeat	Run1	repeat/STIM_007.jpg
755.493	0.865	correct	repeat	Run1	repeat/STIM_007.jpg
760.267	0.848	incorrect	repeat	Run1	repeat/STIM_007.jpg
764.127	0.835	correct	repeat	Run1	repeat/STIM_007.jpg
767.523	0.469	correct	repeat	Run1	repeat/STIM_007.jpg
770.423	0.814	correct	repeat	Run1	repeat/STIM_008.jpg
773.467	0.622	correct	repeat	Run1	repeat/STIM_008.jpg
777.115	0.53	correct	repeat	Run1	repeat/STIM_008.jpg
780.141	0.551	correct	repeat	Run1	repeat/STIM_008.jpg
783.103	0.685	correct	repeat	Run1	repeat/STIM_008.jpg
786.147	0.559	correct	repeat	Run1	repeat/STIM_009.jpg
789.846	0.712	correct	repeat	Run1	repeat/STIM_009.jpg
793.906	0.669	correct	repeat	Run1	repeat/STIM_009.jpg
797.273	0.5	correct	repeat	Run1	repeat/STIM_009.jpg
800.844	0.596	correct	repeat	Run1	repeat/STIM_009.jpg
804.75	0.568	correct	repeat	Run1	repeat/STIM_010.jpg
808.174	0.633	correct	repeat	Run1	repeat/STIM_010.jpg
812.743	0.495	correct	repeat	Run1	repeat/STIM_010.jpg
816.122	0.79	correct	repeat	Run1	repeat/STIM_010.jpg
820.338	0.69	incorrect	repeat	Run1	repeat/STIM_010.jpg
824.989	0.78	correct	repeat	Run1	repeat/STIM_011.jpg
828.418	0.748	correct	repeat	Run1	repeat/STIM_011.jpg
832.227	0.591	correct	repeat	Run1	repeat/STIM_011.jpg
835.023	0.789	correct	repeat	Run1	repeat/STIM_011.jpg
838.76	0.62	correct	repeat	Run1	repeat/STIM_011.jpg
841.648	0.685	correct	repeat	Run1	repeat/STIM_012.jpg
844.655	0.705	correct	repeat	Run1	repeat/STIM_012.jpg
849.235	0.844	correct	repeat	Run1	repeat/STIM_012.jpg
853.64	0.563	correct	repeat	Run1	repeat/STIM_012.jpg
857.525	0.64	correct	repeat	Run1	repeat/STIM_012.jpg
861.571	0.791	correct	repeat	Run1	repeat/STIM_013.jpg
865.613	0.77	correct	repeat	Run1	repeat/STIM_013.jpg
870.266	0.854	correct	repeat	Run1	repeat/STIM_013.jpg
873.83	0.587	correct	repeat	Run1	repeat/STIM_013.jpg
878.236	0.693	correct	repeat	Run1	repeat/STIM_013.jpg
881.683	0.895	correct	repeat	Run1	repeat/STIM_014.jpg
886.608	0.796	correct	repeat	Run1	repeat/STIM_014.jpg
889.617	0.685	correct	repeat	Run1	repeat/STIM_014.jpg
893.809	0.72	correct	repeat	Run1	repeat/STIM_014.jpg
898.519	0.668	correct	repeat	Run1	repeat/STIM_014.jpg
903.1	2.163	correct	generate	Run2	generate/STIM_000.jpg
909.405	2.146	correct	generate	Run2	generate/STIM_000.jpg
914.128	0.904	correct	generate	Run2	generate/STIM_000.jpg
917.232	1.143	correct	generate	Run2	generate/STIM_000.jpg
922.223	0.988	correct	generate	Run2	generate/STIM_000.jpg
926.012	1.906	correct	generate	Run2	generate/STIM_001.jpg
930.391	0.952	correct	generate	Run2	generate/STIM_001.jpg
934.518	1.71	incorrect	generate	Run2	generate/STIM_001.jpg
939.59	1.126	correct	generate	Run2	generate/STIM_001.jpg
944.231	0.993	correct	generate	Run2	generate/STIM_001.jpg
949.193	1.283	correct	generate	Run2	generate/STIM_002.jpg
953.206	1.54	incorrect	generate	Run2	generate/STIM_002.jpg
958.368	1.874	incorrect	generate	Run2	generate/STIM_002.jpg
963.049	1.172	correct	generate	Run2	generate/STIM_002.jpg
966.893	0.853	correct	generate	Run2	generate/STIM_002.jpg
970.868	2.036	correct	generate	Run2	generate/STIM_003.jpg
976.112	1.965	correct	generate	Run2	generate/STIM_003.jpg
982.148	1.278	incorrect	generate	Run2	generate/STIM_003.jpg
986.361	0.996	incorrect	generate	Run2	generate/STIM_003.jpg
989.981	1.376	correct	generate	Run2	generate/STIM_003.jpg
994.69	1.52	incorrect	generate	Run2	generate/STIM_004.jpg
998.979	0.922	correct	generate	Run2	generate/STIM_004.jpg
1003.552	1.465	correct	generate	Run2	generate/STIM_004.jpg
1007.181	1.279	correct	generate	Run2	generate/STIM_004.jpg
1012.142	1.483	correct	generate	Run2	generate/STIM_004.jpg
1017.114	1.899	correct	generate	Run2	generate/STIM_005.jpg
1021.629	1.171	correct	generate	Run2	generate/STIM_005.jpg
1026.265	1.484	correct	generate	Run2	generate/STIM_005.jpg
1030.669	1.438	correct	generate	Run2	generate/STIM_005.jpg
1035.782	1.229	correct	generate	Run2	generate/STIM_005.jpg
1040.213	1.054	correct	generate	Run2	generate/STIM_006.jpg
1043.75	1.977	correct	generate	Run2	generate/STIM_006.jpg
1049.197	1.846	incorrect	generate	Run2	generate/STIM_006.jpg
1054.748	1.704	correct	generate	Run2	generate/STIM_006.jpg
1059.179	0.81	correct	generate	Run2	generate/STIM_006.jpg
1062.438	2.283	correct	generate	Run2	generate/STIM_007.jpg
1067.068	1.678	incorrect	generate	Run2	generate/STIM_007.jpg
1071.588	1.086	incorrect	generate	Run2	generate/STIM_007.jpg
1075.629	1.229	correct	generate	Run2	generate/STIM_007.jpg
1080.789	0.804	correct	generate	Run2	generate/STIM_007.jpg
1084.613	1.266	correct	generate	Run2	generate/STIM_008.jpg
1088.252	0.896	correct	generate	Run2	generate/STIM_008.jpg
1093.148	2.04	correct	generate	Run2	generate/STIM_008.jpg
1099.026	1.712	correct	generate	Run2	generate/STIM_008.jpg
1102.964	1.416	correct	generate	Run2	generate/STIM_008.jpg
1108.319	1.682	correct	generate	Run2	generate/STIM_009.jpg
1113.269	1.388	correct	generate	Run2	generate/STIM_009.jpg
1118.104	0.904	correct	generate	Run2	generate/STIM_009.jpg
1122.833	1.545	correct	generate	Run2	generate/STIM_009.jpg
1127.946	1.244	correct	generate	Run2	generate/STIM_009.jpg
1133.054	2.278	correct	generate	Run2	generate/STIM_010.jpg
1139.362	1.418	correct	generate	Run2	generate/STIM_010.jpg
1143.031	1.094	correct	generate	Run2	generate/STIM_010.jpg
1146.892	1.701	correct	generate	Run2	generate/STIM_010.jpg
1150.817	1.531	correct	generate	Run2	generate/STIM_010.jpg
1156.309	1.37	correct	generate	Run2	generate/STIM_011.jpg
1160.293	0.947	incorrect	generate	Run2	generate/STIM_011.jpg
1165.043	1.143	correct	generate	Run2	generate/STIM_011.jpg
1169.19	1.495	correct	generate	Run2	generate/STIM_011.jpg
1172.955	1.835	incorrect	generate	Run2	generate/STIM_011.jpg
1178.606	1.716	correct	generate	Run2	generate/STIM_012.jpg
1184.02	1.634	incorrect	generate	Run2	generate/STIM_012.jpg
1188.376	1.927	correct	generate	Run2	generate/STIM_012.jpg
1194.334	1.722	incorrect	generate	Run2	generate/STIM_012.jpg
1198.694	1.134	correct	generate	Run2	generate/STIM_012.jpg
1203.687	1.71	correct	generate	Run2	generate/STIM_013.jpg
1209.063	2.144	correct	generate	Run2	generate/STIM_013.jpg
1215.222	1.74	correct	generate	Run2	generate/STIM_013.jpg
1220.426	1.758	correct	generate	Run2	generate/STIM_013.jpg
1226.136	1.531	correct	generate	Run2	generate/STIM_013.jpg
1230.9	2.333	correct	generate	Run2	generate/STIM_014.jpg
1237.216	1.622	incorrect	generate	Run2	generate/STIM_014.jpg
1242.341	1.721	correct	generate	Run2	generate/STIM_014.jpg
1247.357	1.875	correct	generate	Run2	generate/STIM_014.jpg
1253.396	1.498	correct	generate	Run2	generate/STIM_014.jpg
1258.214	2.026	incorrect	generate	Run2	generate/STIM_015.jpg
1264.395	1.903	correct	generate	Run2	generate/STIM_015.jpg
1269.879	1.866	correct	generate	Run2	generate/STIM_015.jpg
1274.082	0.939	correct	generate	Run2	generate/STIM_015.jpg
1278.381	0.848	incorrect	generate	Run2	generate/STIM_015.jpg
1283.122	1.334	correct	generate	Run2	generate/STIM_016.jpg
1287.087	1.955	correct	generate	Run2	generate/STIM_016.jpg
1291.766	0.909	correct	generate	Run2	generate/STIM_016.jpg
1295.272	1.807	correct	generate	Run2	generate/STIM_016.jpg
1300.152	1.536	correct	generate	Run2	generate/STIM_016.jpg
1305.698	2.281	correct	generate	Run2	generate/STIM_017.jpg
1311.634	1.488	correct	generate	Run2	generate/STIM_017.jpg
1315.921	1.034	correct	generate	Run2	generate/STIM_017.jpg
1319.133	1.712	correct	generate	Run2	generate/STIM_017.jpg
1323.242	1.713	correct	generate	Run2	generate/STIM_017.jpg
1327.607	1.603	correct	generate	Run2	generate/STIM_018.jpg
1332.768	1.558	correct	generate	Run2	generate/STIM_018.jpg
1338.315	1.394	correct	generate	Run2	generate/STIM_018.jpg
1341.911	1.192	correct	generate	Run2	generate/STIM_018.jpg
1346.531	1.667	correct	generate	Run2	generate/STIM_018.jpg
1351.135	2.282	correct	generate	Run2	generate/STIM_019.jpg
1355.649	1.258	incorrect	generate	Run2	generate/STIM_019.jpg
1359.607	1.116	correct	generate	Run2	generate/STIM_019.jpg
1363.667	0.94	correct	generate	Run2	generate/STIM_019.jpg
1367.046	1.844	correct	generate	Run2	generate/STIM_019.jpg
1371.304	1.722	incorrect	generate	Run2	generate/STIM_020.jpg
1375.405	1.925	correct	generate	Run2	generate/STIM_020.jpg
1381.332	1.618	correct	generate	Run2	generate/STIM_020.jpg
1386.481	0.884	correct	generate	Run2	generate/STIM_020.jpg
1390.619	1.128	correct	generate	Run2	generate/STIM_020.jpg
1393.886	1.907	correct	generate	Run2	generate/STIM_021.jpg
1398.575	1.758	incorrect	generate	Run2	generate/STIM_021.jpg
1404.226	0.943	correct	generate	Run2	generate/STIM_021.jpg
1408.863	1.639	correct	generate	Run2	generate/STIM_021.jpg
1412.862	0.976	correct	generate	Run2	generate/STIM_021.jpg
1416.473	1.477	incorrect	generate	Run2	generate/STIM_022.jpg
1420.605	1.886	correct	generate	Run2	generate/STIM_022.jpg
1424.816	1.872	correct	generate	Run2	generate/STIM_022.jpg
1430.6	0.962	correct	generate	Run2	generate/STIM_022.jpg
1435.592	1.347	correct	generate	Run2	generate/STIM_022.jpg
1439.913	0.942	incorrect	generate	Run2	generate/STIM_023.jpg
1444.562	1.628	correct	generate	Run2	generate/STIM_023.jpg
1449.773	1.488	correct	generate	Run2	generate/STIM_023.jpg
1453.7	1.309	correct	generate	Run2	generate/STIM_023.jpg
1457.142	1.233	correct	generate	Run2	generate/STIM_023.jpg
1460.962	1.377	correct	generate	Run2	generate/STIM_024.jpg
1464.612	1.037	correct	generate	Run2	generate/STIM_024.jpg
1468.777	1.097	incorrect	generate	Run2	generate/STIM_024.jpg
1473.342	0.811	correct	generate	Run2	generate/STIM_024.jpg
1477.027	1.858	correct	generate	Run2	generate/STIM_024.jpg
1481.744	0.557	correct	repeat	Run2	repeat/STIM_000.jpg
1484.816	0.909	correct	repeat	Run2	repeat/STIM_000.jpg
1489.189	0.589	correct	repeat	Run2	repeat/STIM_000.jpg
1493.233	0.742	correct	repeat	Run2	repeat/STIM_000.jpg
1496.214	0.657	correct	repeat	Run2	repeat/STIM_000.jpg
1500.606	0.846	incorrect	repeat	Run2	repeat/STIM_001.jpg
1505.509	0.839	correct	repeat	Run2	repeat/STIM_001.jpg
1510.132	0.744	correct	repeat	Run2	repeat/STIM_001.jpg
1513.23	0.747	correct	repeat	Run2	repeat/STIM_001.jpg
1516.627	0.635	correct	repeat	Run2	repeat/STIM_001.jpg
1520.891	0.595	correct	repeat	Run2	repeat/STIM_002.jpg
1523.987	0.656	correct	repeat	Run2	repeat/STIM_002.jpg
1526.786	0.795	incorrect	repeat	Run2	repeat/STIM_002.jpg
1530.829	0.793	correct	repeat	Run2	repeat/STIM_002.jpg
1535.636	0.915	correct	repeat	Run2	repeat/STIM_002.jpg
1539.963	0.797	correct	repeat	Run2	repeat/STIM_003.jpg
1543.277	0.482	correct	repeat	Run2	repeat/STIM_003.jpg
1546.352	0.79	correct	repeat	Run2	repeat/STIM_003.jpg
1550.643	0.512	correct	repeat	Run2	repeat/STIM_003.jpg
1554.848	0.506	correct	repeat	Run2	repeat/STIM_003.jpg
1559.307	0.543	correct	repeat	Run2	repeat/STIM_004.jpg
1563.153	0.898	incorrect	repeat	Run2	repeat/STIM_004.jpg
1567.348	0.824	correct	repeat	Run2	repeat/STIM_004.jpg
1571.422	0.708	incorrect	repeat	Run2	repeat/STIM_004.jpg
1574.249	0.631	correct	repeat	Run2	repeat/STIM_004.jpg
1578.227	0.837	correct	repeat	Run2	repeat/STIM_005.jpg
1582.847	0.478	incorrect	repeat	Run2	repeat/STIM_005.jpg
1585.419	0.683	correct	repeat	Run2	repeat/STIM_005.jpg
1589.498	0.824	correct	repeat	Run2	repeat/STIM_005.jpg
1593.977	0.782	correct	repeat	Run2	repeat/STIM_005.jpg
1596.867	0.749	correct	repeat	Run2	repeat/STIM_006.jpg
1600.272	0.82	correct	repeat	Run2	repeat/STIM_006.jpg
1603.862	0.523	correct	repeat	Run2	repeat/STIM_006.jpg
1606.522	0.5	correct	repeat	Run2	repeat/STIM_006.jpg
1610.674	0.478	correct	repeat	Run2	repeat/STIM_006.jpg
1614.565	0.527	correct	repeat	Run2	repeat/STIM_007.jpg
1619.01	0.522	correct	repeat	Run2	repeat/STIM_007.jpg
1622.064	0.7	correct	repeat	Run2	repeat/STIM_007.jpg
1625.121	0.874	correct	repeat	Run2	repeat/STIM_007.jpg
1629.131	0.698	incorrect	repeat	Run2	repeat/STIM_007.jpg
1633.712	0.8	correct	repeat	Run2	repeat/STIM_008.jpg
1637.183	0.753	correct	repeat	Run2	repeat/STIM_008.jpg
1640.929	0.496	correct	repeat	Run2	repeat/STIM_008.jpg
1644.089	0.901	correct	repeat	Run2	repeat/STIM_008.jpg
1648.524	0.59	incorrect	repeat	Run2	repeat/STIM_008.jpg
1652.321	0.896	incorrect	repeat	Run2	repeat/STIM_009.jpg
1655.681	0.693	correct	repeat	Run2	repeat/STIM_009.jpg
1660.337	0.747	correct	repeat	Run2	repeat/STIM_009.jpg
1664.13	0.646	correct	repeat	Run2	repeat/STIM_009.jpg
1667.965	0.815	correct	repeat	Run2	repeat/STIM_009.jpg
1671.821	0.894	correct	repeat	Run2	repeat/STIM_010.jpg
1676.515	0.796	correct	repeat	Run2	repeat/STIM_010.jpg
1679.562	0.558	correct	repeat	Run2	repeat/STIM_010.jpg
1682.975	0.638	correct	repeat	Run2	repeat/STIM_010.jpg
1686.475	0.657	correct	repeat	Run2	repeat/STIM_010.jpg
1690.559	0.746	correct	repeat	Run2	repeat/STIM_011.jpg
1694.365	0.814	correct	repeat	Run2	repeat/STIM_011.jpg
1698.644	0.9	correct	repeat	Run2	repeat/STIM_011.jpg
1703.337	0.814	correct	repeat	Run2	repeat/STIM_011.jpg
1708.099	0.708	correct	repeat	Run2	repeat/STIM_011.jpg
1712.07	0.775	correct	repeat	Run2	repeat/STIM_012.jpg
1716.901	0.833	correct	repeat	Run2	repeat/STIM_012.jpg
1721.674	0.692	correct	repeat	Run2	repeat/STIM_012.jpg
1725.181	0.748	correct	repeat	Run2	repeat/STIM_012.jpg
1729.871	0.906	correct	repeat	Run2	repeat/STIM_012.jpg
1733.495	0.614	correct	repeat	Run2	repeat/STIM_013.jpg
1737.398	0.701	correct	repeat	Run2	repeat/STIM_013.jpg
1740.509	0.678	correct	repeat	Run2	repeat/STIM_013.jpg
1743.278	0.742	correct	repeat	Run2	repeat/STIM_013.jpg
1747.016	0.867	correct	repeat	Run2	repeat/STIM_013.jpg
1750.393	0.721	correct	repeat	Run2	repeat/STIM_014.jpg
1754.314	0.528	correct	repeat	Run2	repeat/STIM_014.jpg
1757.136	0.796	correct	repeat	Run2	repeat/STIM_014.jpg
1760.22	0.903	correct	repeat	Run2	repeat/STIM_014.jpg
1765.191	0.476	correct	repeat	Run2	repeat/STIM_014.jpg
1768.88	1.558	correct	generate	Run3	generate/STIM_000.jpg
1773.476	0.968	correct	generate	Run3	generate/STIM_000.jpg
1776.576	1.871	correct	generate	Run3	generate/STIM_000.jpg
1782.605	1.792	correct	generate	Run3	generate/STIM_000.jpg
1788.209	0.904	correct	generate	Run3	generate/STIM_000.jpg
1791.931	1.306	incorrect	generate	Run3	generate/STIM_001.jpg
1795.945	0.903	correct	generate	Run3	generate/STIM_001.jpg
1799.383	0.934	correct	generate	Run3	generate/STIM_001.jpg
1803.835	0.774	correct	generate	Run3	generate/STIM_001.jpg
1807.46	1.443	incorrect	generate	Run3	generate/STIM_001.jpg
1811.842	1.457	correct	generate	Run3	generate/STIM_002.jpg
1816.986	1.524	correct	generate	Run3	generate/STIM_002.jpg
1820.771	1.69	incorrect	generate	Run3	generate/STIM_002.jpg
1826.336	0.851	correct	generate	Run3	generate/STIM_002.jpg
1830.719	1.371	correct	generate	Run3	generate/STIM_002.jpg
1835.231	1.314	correct	generate	Run3	generate/STIM_003.jpg
1839.323	0.967	correct	generate	Run3	generate/STIM_003.jpg
1842.772	1.891	correct	generate	Run3	generate/STIM_003.jpg
1846.935	1.533	correct	generate	Run3	generate/STIM_003.jpg
1850.864	1.446	correct	generate	Run3	generate/STIM_003.jpg
1855.934	1.635	incorrect	generate	Run3	generate/STIM_004.jpg
1860.077	1.646	correct	generate	Run3	generate/STIM_004.jpg
1864.227	1.846	correct	generate	Run3	generate/STIM_004.jpg
1868.313	1.188	correct	generate	Run3	generate/STIM_004.jpg
1872.74	1.776	correct	generate	Run3	generate/STIM_004.jpg
1878.335	1.269	correct	generate	Run3	generate/STIM_005.jpg
1882.198	1.721	correct	generate	Run3	generate/STIM_005.jpg
1887.356	1.688	correct	generate	Run3	generate/STIM_005.jpg
1891.908	1.234	incorrect	generate	Run3	generate/STIM_005.jpg
1897.006	1.768	correct	generate	Run3	generate/STIM_005.jpg
1902.069	1.514	correct	generate	Run3	generate/STIM_006.jpg
1907.557	1.743	correct	generate	Run3	generate/STIM_006.jpg
1911.939	1.273	correct	generate	Run3	generate/STIM_006.jpg
1915.521	1.352	correct	generate	Run3	generate/STIM_006.jpg
1919.054	1.441	correct	generate	Run3	generate/STIM_006.jpg
1924.35	1.317	correct	generate	Run3	generate/STIM_007.jpg
1928.96	1.053	correct	generate	Run3	generate/STIM_007.jpg
1932.981	1.849	correct	generate	Run3	generate/STIM_007.jpg
1937.26	1.786	correct	generate	Run3	generate/STIM_007.jpg
1942.098	1.487	incorrect	generate	Run3	generate/STIM_007.jpg
1946.334	1.817	correct	generate	Run3	generate/STIM_008.jpg
1950.404	1.494	correct	generate	Run3	generate/STIM_008.jpg
1955.285	1.164	correct	generate	Run3	generate/STIM_008.jpg
1960.38	0.841	correct	generate	Run3	generate/STIM_008.jpg
1963.566	1.296	correct	generate	Run3	generate/STIM_008.jpg
1968.359	1.42	incorrect	generate	Run3	generate/STIM_009.jpg
1972.02	1.027	correct	generate	Run3	generate/STIM_009.jpg
1975.649	1.382	correct	generate	Run3	generate/STIM_009.jpg
1979.938	1.542	correct	generate	Run3	generate/STIM_009.jpg
1983.813	1.274	correct	generate	Run3	generate/STIM_009.jpg
1987.859	0.941	incorrect	generate	Run3	generate/STIM_010.jpg
1991.614	0.855	correct	generate	Run3	generate/STIM_010.jpg
1996.346	1.244	correct	generate	Run3	generate/STIM_010.jpg
2000.727	1.849	correct	generate	Run3	generate/STIM_010.jpg
2005.449	1.3	incorrect	generate	Run3	generate/STIM_010.jpg
2010.584	0.872	correct	generate	Run3	generate/STIM_011.jpg
2015.019	1.166	correct	generate	Run3	generate/STIM_011.jpg
2018.722	1.529	correct	generate	Run3	generate/STIM_011.jpg
2023.589	1.908	correct	generate	Run3	generate/STIM_011.jpg
2028.523	1.65	correct	generate	Run3	generate/STIM_011.jpg
2032.894	1.306	incorrect	generate	Run3	generate/STIM_012.jpg
2037.756	1.832	correct	generate	Run3	generate/STIM_012.jpg
2043.637	0.94	correct	generate	Run3	generate/STIM_012.jpg
2046.915	0.973	correct	generate	Run3	generate/STIM_012.jpg
2050.193	1.644	correct	generate	Run3	generate/STIM_012.jpg
2055.481	1.57	correct	generate	Run3	generate/STIM_013.jpg
2060.493	1.045	correct	generate	Run3	generate/STIM_013.jpg
2064.569	1.662	correct	generate	Run3	generate/STIM_013.jpg
2069.298	0.817	correct	generate	Run3	generate/STIM_013.jpg
2072.805	1.907	correct	generate	Run3	generate/STIM_013.jpg
2076.905	1.01	correct	generate	Run3	generate/STIM_014.jpg
2080.214	1.765	correct	generate	Run3	generate/STIM_014.jpg
2084.208	1.668	correct	generate	Run3	generate/STIM_014.jpg
2088.55	1.032	correct	generate	Run3	generate/STIM_014.jpg
2092.668	1.546	correct	generate	Run3	generate/STIM_014.jpg
2096.68	1.056	correct	generate	Run3	generate/STIM_015.jpg
2100.886	1.282	correct	generate	Run3	generate/STIM_015.jpg
2104.889	1.494	correct	generate	Run3	generate/STIM_015.jpg
2109.085	1.367	correct	generate	Run3	generate/STIM_015.jpg
2112.821	1.554	correct	generate	Run3	generate/STIM_015.jpg
2117.333	1.687	correct	generate	Run3	generate/STIM_016.jpg
2122.444	1.037	correct	generate	Run3	generate/STIM_016.jpg
2125.964	1.196	correct	generate	Run3	generate/STIM_016.jpg
2131.218	1.639	correct	generate	Run3	generate/STIM_016.jpg
2136.749	1.922	correct	generate	Run3	generate/STIM_016.jpg
2141.11	0.966	incorrect	generate	Run3	generate/STIM_017.jpg
2145.122	1.175	correct	generate	Run3	generate/STIM_017.jpg
2148.596	1.158	incorrect	generate	Run3	generate/STIM_017.jpg
2152.937	1.834	correct	generate	Run3	generate/STIM_017.jpg
2156.94	1.053	correct	generate	Run3	generate/STIM_017.jpg
2162.053	1.11	correct	generate	Run3	generate/STIM_018.jpg
2165.605	1.583	correct	generate	Run3	generate/STIM_018.jpg
2169.764	1.064	correct	generate	Run3	generate/STIM_018.jpg
2173.785	0.998	correct	generate	Run3	generate/STIM_018.jpg
2177.97	0.997	correct	generate	Run3	generate/STIM_018.jpg
2181.315	1.22	correct	generate	Run3	generate/STIM_019.jpg
2184.842	1.178	correct	generate	Run3	generate/STIM_019.jpg
2189.467	1.764	correct	generate	Run3	generate/STIM_019.jpg
2194.827	1.27	correct	generate	Run3	generate/STIM_019.jpg
2198.618	1.442	correct	generate	Run3	generate/STIM_019.jpg
2202.942	0.826	correct	generate	Run3	generate/STIM_020.jpg
2207.194	1.236	incorrect	generate	Run3	generate/STIM_020.jpg
2211.677	1.863	incorrect	generate	Run3	generate/STIM_020.jpg
2216.439	1.674	correct	generate	Run3	generate/STIM_020.jpg
2221.796	1.718	correct	generate	Run3	generate/STIM_020.jpg
2225.885	0.858	correct	generate	Run3	generate/STIM_021.jpg
2230.244	1.339	correct	generate	Run3	generate/STIM_021.jpg
2234.889	1.528	correct	generate	Run3	generate/STIM_021.jpg
2238.907	1.014	correct	generate	Run3	generate/STIM_021.jpg
2243.05	1.025	correct	generate	Run3	generate/STIM_021.jpg
2247.51	1.845	correct	generate	Run3	generate/STIM_022.jpg
2251.619	1.062	correct	generate	Run3	generate/STIM_022.jpg
2255.269	1.715	correct	generate	Run3	generate/STIM_022.jpg
2260.515	1.544	correct	generate	Run3	generate/STIM_022.jpg
2265.817	1.428	correct	generate	Run3	generate/STIM_022.jpg
2271.277	1.117	incorrect	generate	Run3	generate/STIM_023.jpg
2275.403	1.181	correct	generate	Run3	generate/STIM_023.jpg
2279.649	1.898	correct	generate	Run3	generate/STIM_023.jpg
2284.553	1.259	incorrect	generate	Run3	generate/STIM_023.jpg
2288.063	1.747	correct	generate	Run3	generate/STIM_023.jpg
2293.104	1.886	correct	generate	Run3	generate/STIM_024.jpg
2298.111	1.918	incorrect	generate	Run3	generate/STIM_024.jpg
2303.156	1.581	correct	generate	Run3	generate/STIM_024.jpg
2307.075	1.205	incorrect	generate	Run3	generate/STIM_024.jpg
2311.34	1.364	correct	generate	Run3	generate/STIM_024.jpg
2315.474	0.837	correct	repeat	Run3	repeat/STIM_000.jpg
2318.884	0.742	correct	repeat	Run3	repeat/STIM_000.jpg
2322.342	0.735	correct	repeat	Run3	repeat/STIM_000.jpg
2325.908	0.761	correct	repeat	Run3	repeat/STIM_000.jpg
2330.18	0.855	correct	repeat	Run3	repeat/STIM_000.jpg
2335.084	0.888	correct	repeat	Run3	repeat/STIM_001.jpg
2338.145	0.882	correct	repeat	Run3	repeat/STIM_001.jpg
2342.698	0.668	correct	repeat	Run3	repeat/STIM_001.jpg
2347.05	0.641	correct	repeat	Run3	repeat/STIM_001.jpg
2350.385	0.506	correct	repeat	Run3	repeat/STIM_001.jpg
2353.206	0.745	correct	repeat	Run3	repeat/STIM_002.jpg
2357.047	0.692	correct	repeat	Run3	repeat/STIM_002.jpg
2360.058	0.721	correct	repeat	Run3	repeat/STIM_002.jpg
2364.119	0.759	correct	repeat	Run3	repeat/STIM_002.jpg
2367.174	0.725	correct	repeat	Run3	repeat/STIM_002.jpg
2371.649	0.738	correct	repeat	Run3	repeat/STIM_003.jpg
2376.119	0.742	correct	repeat	Run3	repeat/STIM_003.jpg
2380.357	0.524	correct	repeat	Run3	repeat/STIM_003.jpg
2384.419	0.789	correct	repeat	Run3	repeat/STIM_003.jpg
2388.653	0.553	correct	repeat	Run3	repeat/STIM_003.jpg
2393.154	0.736	correct	repeat	Run3	repeat/STIM_004.jpg
2397.016	0.876	correct	repeat	Run3	repeat/STIM_004.jpg
2401.629	0.916	incorrect	repeat	Run3	repeat/STIM_004.jpg
2405.097	0.694	correct	repeat	Run3	repeat/STIM_004.jpg
2408.873	0.784	correct	repeat	Run3	repeat/STIM_004.jpg
2412.734	0.652	correct	repeat	Run3	repeat/STIM_005.jpg
2416.595	0.561	correct	repeat	Run3	repeat/STIM_005.jpg
2420.767	0.53	correct	repeat	Run3	repeat/STIM_005.jpg
2425.318	0.488	correct	repeat	Run3	repeat/STIM_005.jpg
2429.534	0.575	correct	repeat	Run3	repeat/STIM_005.jpg
2432.543	0.516	correct	repeat	Run3	repeat/STIM_006.jpg
2436.168	0.654	correct	repeat	Run3	repeat/STIM_006.jpg
2439.18	0.859	correct	repeat	Run3	repeat/STIM_006.jpg
2442.121	0.511	correct	repeat	Run3	repeat/STIM_006.jpg
2445.075	0.907	correct	repeat	Run3	repeat/STIM_006.jpg
2449.213	0.511	correct	repeat	Run3	repeat/STIM_007.jpg
2451.81	0.771	correct	repeat	Run3	repeat/STIM_007.jpg
2455.691	0.804	correct	repeat	Run3	repeat/STIM_007.jpg
2459.76	0.556	correct	repeat	Run3	repeat/STIM_007.jpg
2463.98	0.716	correct	repeat	Run3	repeat/STIM_007.jpg
2468.467	0.704	correct	repeat	Run3	repeat/STIM_008.jpg
2473.169	0.497	correct	repeat	Run3	repeat/STIM_008.jpg
2477.425	0.543	correct	repeat	Run3	repeat/STIM_008.jpg
2481.079	0.815	correct	repeat	Run3	repeat/STIM_008.jpg
2484.094	0.835	incorrect	repeat	Run3	repeat/STIM_008.jpg
2488.183	0.474	correct	repeat	Run3	repeat/STIM_009.jpg
2491.232	0.638	incorrect	repeat	Run3	repeat/STIM_009.jpg
2495.661	0.62	correct	repeat	Run3	repeat/STIM_009.jpg
2499.968	0.876	correct	repeat	Run3	repeat/STIM_009.jpg
2503.664	0.794	correct	repeat	Run3	repeat/STIM_009.jpg
2507.035	0.719	correct	repeat	Run3	repeat/STIM_010.jpg
2510.16	0.821	correct	repeat	Run3	repeat/STIM_010.jpg
2514.895	0.524	correct	repeat	Run3	repeat/STIM_010.jpg
2518.469	0.908	correct	repeat	Run3	repeat/STIM_010.jpg
2523.169	0.66	correct	repeat	Run3	repeat/STIM_010.jpg
2526.379	0.885	correct	repeat	Run3	repeat/STIM_011.jpg
2530.942	0.526	correct	repeat	Run3	repeat/STIM_011.jpg
2533.772	0.506	correct	repeat	Run3	repeat/STIM_011.jpg
2536.858	0.479	correct	repeat	Run3	repeat/STIM_011.jpg
2540.407	0.493	correct	repeat	Run3	repeat/STIM_011.jpg
2543.442	0.536	correct	repeat	Run3	repeat/STIM_012.jpg
2547.597	0.566	correct	repeat	Run3	repeat/STIM_012.jpg
2550.92	0.838	correct	repeat	Run3	repeat/STIM_012.jpg
2555.485	0.542	correct	repeat	Run3	repeat/STIM_012.jpg
2558.952	0.652	correct	repeat	Run3	repeat/STIM_012.jpg
2562.277	0.875	correct	repeat	Run3	repeat/STIM_013.jpg
2567.211	0.821	correct	repeat	Run3	repeat/STIM_013.jpg
2571.55	0.581	correct	repeat	Run3	repeat/STIM_013.jpg
2575.321	0.698	correct	repeat	Run3	repeat/STIM_013.jpg
2579.645	0.829	correct	repeat	Run3	repeat/STIM_013.jpg
2583.757	0.824	correct	repeat	Run3	repeat/STIM_014.jpg
2588.605	0.606	correct	repeat	Run3	repeat/STIM_014.jpg
2592.38	0.463	correct	repeat	Run3	repeat/STIM_014.jpg
2596.521	0.708	correct	repeat	Run3	repeat/STIM_014.jpg
2599.888	0.514	correct	repeat	Run3	repeat/STIM_014.jpg
2602.513	1.174	incorrect	generate	Run4	generate/STIM_000.jpg
2607.405	1.132	correct	generate	Run4	generate/STIM_000.jpg
2611.348	1.151	correct	generate	Run4	generate/STIM_000.jpg
2614.999	0.889	correct	generate	Run4	generate/STIM_000.jpg
2619.767	1.145	correct	generate	Run4	generate/STIM_000.jpg
2624.709	0.939	correct	generate	Run4	generate/STIM_001.jpg
2629.563	1.841	correct	generate	Run4	generate/STIM_001.jpg
2634.035	1.599	correct	generate	Run4	generate/STIM_001.jpg
2637.855	1.812	correct	generate	Run4	generate/STIM_001.jpg
2643.804	1.031	correct	generate	Run4	generate/STIM_001.jpg
2648.671	1.563	correct	generate	Run4	generate/STIM_002.jpg
2652.823	0.839	correct	generate	Run4	generate/STIM_002.jpg
2656.847	1.553	correct	generate	Run4	generate/STIM_002.jpg
2662.499	1.346	correct	generate	Run4	generate/STIM_002.jpg
2667.647	1.3	correct	generate	Run4	generate/STIM_002.jpg
2671.099	1.719	correct	generate	Run4	generate/STIM_003.jpg
2676.546	1.545	correct	generate	Run4	generate/STIM_003.jpg
2681.478	1.371	correct	generate	Run4	generate/STIM_003.jpg
2686.539	1.884	correct	generate	Run4	generate/STIM_003.jpg
2691.853	1.224	correct	generate	Run4	generate/STIM_003.jpg
2696.518	1.31	correct	generate	Run4	generate/STIM_004.jpg
2700.982	1.903	correct	generate	Run4	generate/STIM_004.jpg
2706.334	0.929	correct	generate	Run4	generate/STIM_004.jpg
2710.735	1.61	correct	generate	Run4	generate/STIM_004.jpg
2715.931	0.822	correct	generate	Run4	generate/STIM_004.jpg
2719.347	1.093	correct	generate	Run4	generate/STIM_005.jpg
2723.313	0.97	correct	generate	Run4	generate/STIM_005.jpg
2727.96	1.852	correct	generate	Run4	generate/STIM_005.jpg
2732.004	0.793	correct	generate	Run4	generate/STIM_005.jpg
2736.115	1.041	correct	generate	Run4	generate/STIM_005.jpg
2741.022	1.703	correct	generate	Run4	generate/STIM_006.jpg
2746.339	1.244	correct	generate	Run4	generate/STIM_006.jpg
2749.946	1.304	correct	generate	Run4	generate/STIM_006.jpg
2753.833	1.853	correct	generate	Run4	generate/STIM_006.jpg
2757.954	1.685	correct	generate	Run4	generate/STIM_006.jpg
2763.309	1.234	correct	generate	Run4	generate/STIM_007.jpg
2767.709	1.011	correct	generate	Run4	generate/STIM_007.jpg
2772.065	1.408	correct	generate	Run4	generate/STIM_007.jpg
2775.832	0.999	correct	generate	Run4	generate/STIM_007.jpg
2780.899	1.112	correct	generate	Run4	generate/STIM_007.jpg
2784.415	0.776	correct	generate	Run4	generate/STIM_008.jpg
2788.777	0.866	correct	generate	Run4	generate/STIM_008.jpg
2792.989	1.244	correct	generate	Run4	generate/STIM_008.jpg
2797.1	1.582	incorrect	generate	Run4	generate/STIM_008.jpg
2802.383	0.777	correct	generate	Run4	generate/STIM_008.jpg
2805.27	1.802	correct	generate	Run4	generate/STIM_009.jpg
2810.663	1.585	correct	generate	Run4	generate/STIM_009.jpg
2816.227	1.485	correct	generate	Run4	generate/STIM_009.jpg
2821.786	1.322	correct	generate	Run4	generate/STIM_009.jpg
2826.28	1.699	correct	generate	Run4	generate/STIM_009.jpg
2830.691	1.548	correct	generate	Run4	generate/STIM_010.jpg
2835.56	1.712	correct	generate	Run4	generate/STIM_010.jpg
2839.536	1.695	correct	generate	Run4	generate/STIM_010.jpg
2843.662	1.538	correct	generate	Run4	generate/STIM_010.jpg
2848.638	1.78	correct	generate	Run4	generate/STIM_010.jpg
2852.898	1.812	correct	generate	Run4	generate/STIM_011.jpg
2858.407	0.897	correct	generate	Run4	generate/STIM_011.jpg
2861.582	1.905	correct	generate	Run4	generate/STIM_011.jpg
2866.659	1.65	correct	generate	Run4	generate/STIM_011.jpg
2871.722	1.833	correct	generate	Run4	generate/STIM_011.jpg
2877.278	1.307	correct	generate	Run4	generate/STIM_012.jpg
2881.416	1.727	correct	generate	Run4	generate/STIM_012.jpg
2885.86	1.035	correct	generate	Run4	generate/STIM_012.jpg
2889.203	1.064	correct	generate	Run4	generate/STIM_012.jpg
2892.764	0.796	correct	generate	Run4	generate/STIM_012.jpg
2896.121	1.23	correct	generate	Run4	generate/STIM_013.jpg
2901.001	1.065	correct	generate	Run4	generate/STIM_013.jpg
2906.041	1.406	correct	generate	Run4	generate/STIM_013.jpg
2910.7	1.623	correct	generate	Run4	generate/STIM_013.jpg
2915.529	1.155	correct	generate	Run4	generate/STIM_013.jpg
2919.844	1.227	correct	generate	Run4	generate/STIM_014.jpg
2925.098	1.253	correct	generate	Run4	generate/STIM_014.jpg
2928.753	1.653	correct	generate	Run4	generate/STIM_014.jpg
2932.907	0.936	correct	generate	Run4	generate/STIM_014.jpg
2937.812	0.805	correct	generate	Run4	generate/STIM_014.jpg
2942.3	1.454	correct	generate	Run4	generate/STIM_015.jpg
2946.199	1.416	incorrect	generate	Run4	generate/STIM_015.jpg
2949.918	1.196	correct	generate	Run4	generate/STIM_015.jpg
2953.817	1.753	correct	generate	Run4	generate/STIM_015.jpg
2957.876	1.512	correct	generate	Run4	generate/STIM_015.jpg
2962.548	0.804	correct	generate	Run4	generate/STIM_016.jpg
2966.204	0.829	incorrect	generate	Run4	generate/STIM_016.jpg
2969.891	1.053	correct	generate	Run4	generate/STIM_016.jpg
2973.605	1.358	correct	generate	Run4	generate/STIM_016.jpg
2978.163	1.598	correct	generate	Run4	generate/STIM_016.jpg
2983.207	1.785	incorrect	generate	Run4	generate/STIM_017.jpg
2987.754	1.227	correct	generate	Run4	generate/STIM_017.jpg
2992.039	1.461	correct	generate	Run4	generate/STIM_017.jpg
2997.382	1.336	correct	generate	Run4	generate/STIM_017.jpg
3002.443	1.782	correct	generate	Run4	generate/STIM_017.jpg
3006.801	1.752	correct	generate	Run4	generate/STIM_018.jpg
3010.915	1.344	correct	generate	Run4	generate/STIM_018.jpg
3015.959	1.58	correct	generate	Run4	generate/STIM_018.jpg
3020.117	1.402	correct	generate	Run4	generate/STIM_018.jpg
3025.501	0.919	correct	generate	Run4	generate/STIM_018.jpg
3029.009	1.764	incorrect	generate	Run4	generate/STIM_019.jpg
3033.845	1.694	correct	generate	Run4	generate/STIM_019.jpg
3038.818	1.89	correct	generate	Run4	generate/STIM_019.jpg
3043.146	1.782	correct	generate	Run4	generate/STIM_019.jpg
3048.036	0.995	correct	generate	Run4	generate/STIM_019.jpg
3051.191	1.664	correct	generate	Run4	generate/STIM_020.jpg
3055.265	1.739	correct	generate	Run4	generate/STIM_020.jpg
3059.893	1.162	correct	generate	Run4	generate/STIM_020.jpg
3064.697	1.552	incorrect	generate	Run4	generate/STIM_020.jpg
3069.832	1.77	correct	generate	Run4	generate/STIM_020.jpg
3074.787	1.261	correct	generate	Run4	generate/STIM_021.jpg
3080.027	1.325	correct	generate	Run4	generate/STIM_021.jpg
3084.537	1.522	correct	generate	Run4	generate/STIM_021.jpg
3088.361	1.024	correct	generate	Run4	generate/STIM_021.jpg
3092.939	1.524	correct	generate	Run4	generate/STIM_021.jpg
3096.959	1.522	correct	generate	Run4	generate/STIM_022.jpg
3101.8	0.802	correct	generate	Run4	generate/STIM_022.jpg
3104.864	1.894	correct	generate	Run4	generate/STIM_022.jpg
3110.778	1.335	correct	generate	Run4	generate/STIM_022.jpg
3115.521	1.177	correct	generate	Run4	generate/STIM_022.jpg
3120.678	1.895	correct	generate	Run4	generate/STIM_023.jpg
3126.105	0.935	correct	generate	Run4	generate/STIM_023.jpg
3130.352	1.696	correct	generate	Run4	generate/STIM_023.jpg
3135.311	1.592	correct	generate	Run4	generate/STIM_023.jpg
3140.319	0.916	correct	generate	Run4	generate/STIM_023.jpg
3144.426	1.661	correct	generate	Run4	generate/STIM_024.jpg
3148.885	1.603	correct	generate	Run4	generate/STIM_024.jpg
3154.016	1.79	correct	generate	Run4	generate/STIM_024.jpg
3159.113	1.005	correct	generate	Run4	generate/STIM_024.jpg
3162.825	1.232	correct	generate	Run4	generate/STIM_024.jpg
3167.031	0.769	correct	repeat	Run4	repeat/STIM_000.jpg
3171.822	0.864	correct	repeat	Run4	repeat/STIM_000.jpg
3176.567	0.601	correct	repeat	Run4	repeat/STIM_000.jpg
3180.711	0.651	correct	repeat	Run4	repeat/STIM_000.jpg
3183.487	0.658	correct	repeat	Run4	repeat/STIM_000.jpg
3187.762	0.697	correct	repeat	Run4	repeat/STIM_001.jpg
3191.545	0.499	correct	repeat	Run4	repeat/STIM_001.jpg
3195.327	0.687	correct	repeat	Run4	repeat/STIM_001.jpg
3199.151	0.901	correct	repeat	Run4	repeat/STIM_001.jpg
3202.593	0.549	correct	repeat	Run4	repeat/STIM_001.jpg
3205.711	0.684	correct	repeat	Run4	repeat/STIM_002.jpg
3210.382	0.667	correct	repeat	Run4	repeat/STIM_002.jpg
3214.334	0.882	correct	repeat	Run4	repeat/STIM_002.jpg
3218.624	0.571	correct	repeat	Run4	repeat/STIM_002.jpg
3222.182	0.73	correct	repeat	Run4	repeat/STIM_002.jpg
3225.978	0.859	correct	repeat	Run4	repeat/STIM_003.jpg
3229.399	0.578	correct	repeat	Run4	repeat/STIM_003.jpg
3232.707	0.51	correct	repeat	Run4	repeat/STIM_003.jpg
3236.446	0.742	correct	repeat	Run4	repeat/STIM_003.jpg
3240.883	0.707	correct	repeat	Run4	repeat/STIM_003.jpg
3244.132	0.642	correct	repeat	Run4	repeat/STIM_004.jpg
3248.102	0.694	correct	repeat	Run4	repeat/STIM_004.jpg
3251.097	0.719	correct	repeat	Run4	repeat/STIM_004.jpg
3255.788	0.749	correct	repeat	Run4	repeat/STIM_004.jpg
3260.134	0.636	correct	repeat	Run4	repeat/STIM_004.jpg
3263.523	0.527	correct	repeat	Run4	repeat/STIM_005.jpg
3266.962	0.867	correct	repeat	Run4	repeat/STIM_005.jpg
3271.447	0.717	correct	repeat	Run4	repeat/STIM_005.jpg
3275.469	0.81	correct	repeat	Run4	repeat/STIM_005.jpg
3279.744	0.631	correct	repeat	Run4	repeat/STIM_005.jpg
3284.415	0.749	correct	repeat	Run4	repeat/STIM_006.jpg
3288.266	0.814	correct	repeat	Run4	repeat/STIM_006.jpg
3292.15	0.828	correct	repeat	Run4	repeat/STIM_006.jpg
3296.842	0.483	correct	repeat	Run4	repeat/STIM_006.jpg
3301.039	0.588	correct	repeat	Run4	repeat/STIM_006.jpg
3305.478	0.774	correct	repeat	Run4	repeat/STIM_007.jpg
3310.027	0.495	correct	repeat	Run4	repeat/STIM_007.jpg
3314.375	0.897	correct	repeat	Run4	repeat/STIM_007.jpg
3318.122	0.661	correct	repeat	Run4	repeat/STIM_007.jpg
3322.324	0.711	correct	repeat	Run4	repeat/STIM_007.jpg
3326.248	0.822	correct	repeat	Run4	repeat/STIM_008.jpg
3330.35	0.828	correct	repeat	Run4	repeat/STIM_008.jpg
3335.112	0.613	correct	repeat	Run4	repeat/STIM_008.jpg
3339.339	0.874	correct	repeat	Run4	repeat/STIM_008.jpg
3344.1	0.533	correct	repeat	Run4	repeat/STIM_008.jpg
3347.231	0.639	correct	repeat	Run4	repeat/STIM_009.jpg
3350.55	0.511	correct	repeat	Run4	repeat/STIM_009.jpg
3353.312	0.542	correct	repeat	Run4	repeat/STIM_009.jpg
3357.574	0.894	correct	repeat	Run4	repeat/STIM_009.jpg
3360.728	0.557	correct	repeat	Run4	repeat/STIM_009.jpg
3363.981	0.484	correct	repeat	Run4	repeat/STIM_010.jpg
3367.303	0.46	correct	repeat	Run4	repeat/STIM_010.jpg
3370.538	0.763	correct	repeat	Run4	repeat/STIM_010.jpg
3373.523	0.748	correct	repeat	Run4	repeat/STIM_010.jpg
3376.949	0.814	correct	repeat	Run4	repeat/STIM_010.jpg
3379.994	0.54	correct	repeat	Run4	repeat/STIM_011.jpg
3383.726	0.679	correct	repeat	Run4	repeat/STIM_011.jpg
3388.451	0.58	incorrect	repeat	Run4	repeat/STIM_011.jpg
3391.677	0.629	correct	repeat	Run4	repeat/STIM_011.jpg
3394.621	0.899	correct	repeat	Run4	repeat/STIM_011.jpg
3399.166	0.459	correct	repeat	Run4	repeat/STIM_012.jpg
3402.635	0.515	correct	repeat	Run4	repeat/STIM_012.jpg
3405.56	0.881	correct	repeat	Run4	repeat/STIM_012.jpg
3409.035	0.535	correct	repeat	Run4	repeat/STIM_012.jpg
3412.928	0.755	correct	repeat	Run4	repeat/STIM_012.jpg
3416.152	0.858	incorrect	repeat	Run4	repeat/STIM_013.jpg
3420.146	0.633	correct	repeat	Run4	repeat/STIM_013.jpg
3424.565	0.78	correct	repeat	Run4	repeat/STIM_013.jpg
3427.557	0.705	correct	repeat	Run4	repeat/STIM_013.jpg
3431.0	0.666	correct	repeat	Run4	repeat/STIM_013.jpg
3433.78	0.682	correct	repeat	Run4	repeat/STIM_014.jpg
3437.847	0.739	correct	repeat	Run4	repeat/STIM_014.jpg
3440.965	0.672	correct	repeat	Run4	repeat/STIM_014.jpg
3443.7	0.696	correct	repeat	Run4	repeat/STIM_014.jpg
3447.944	0.729	correct	repeat	Run4	repeat/STIM_014.jpg
