onset	duration	response_time_ms	trial_type	learning_stage	stimulus	response_port
0.0	2.192	2191.9	generate	Run1	generate/STIM_000.jpg	100
5.627	2.224	2224.5	generate	Run1	generate/STIM_000.jpg	100
11.516	2.332	2332.3	generate	Run1	generate/STIM_000.jpg	99
17.022	1.345	1345.2	generate	Run1	generate/STIM_000.jpg	99
20.84	1.613	1612.9	generate	Run1	generate/STIM_000.jpg	100
25.977	2.214	2213.5	generate	Run1	generate/STIM_001.jpg	99
32.151	2.54	2540.2	generate	Run1	generate/STIM_001.jpg	100
37.94	1.178	1177.5	generate	Run1	generate/STIM_001.jpg	99
41.623	1.774	1773.6	generate	Run1	generate/STIM_001.jpg	100
47.343	1.972	1972.4	generate	Run1	generate/STIM_001.jpg	100
52.094	1.501	1500.8	generate	Run1	generate/STIM_002.jpg	100
56.616	1.273	1272.8	generate	Run1	generate/STIM_002.jpg	99
61.845	1.933	1932.9	generate	Run1	generate/STIM_002.jpg	100
67.709	1.821	1820.7	generate	Run1	generate/STIM_002.jpg	99
72.321	1.267	1267.3	generate	Run1	generate/STIM_002.jpg	99
75.783	2.659	2659.3	generate	Run1	generate/STIM_003.jpg	99
82.019	2.61	2610.1	generate	Run1	generate/STIM_003.jpg	100
88.731	1.997	1997.1	generate	Run1	generate/STIM_003.jpg	99
93.427	1.759	1759.3	generate	Run1	generate/STIM_003.jpg	99
97.945	1.725	1725.2	generate	Run1	generate/STIM_003.jpg	99
103.482	1.338	1337.9	generate	Run1	generate/STIM_004.jpg	100
108.594	2.091	2090.6	generate	Run1	generate/STIM_004.jpg	100
113.412	1.614	1614.4	generate	Run1	generate/STIM_004.jpg	99
117.382	2.284	2283.6	generate	Run1	generate/STIM_004.jpg	100
123.328	1.819	1819.4	generate	Run1	generate/STIM_004.jpg	100
128.903	1.595	1595.0	generate	Run1	generate/STIM_005.jpg	99
134.613	2.47	2470.2	generate	Run1	generate/STIM_005.jpg	99
141.108	2.086	2086.1	generate	Run1	generate/STIM_005.jpg	100
146.731	1.902	1902.0	generate	Run1	generate/STIM_005.jpg	100
152.026	1.613	1612.6	generate	Run1	generate/STIM_005.jpg	99
157.017	2.489	2488.7	generate	Run1	generate/STIM_006.jpg	100
161.856	2.196	2196.5	generate	Run1	generate/STIM_006.jpg	100
167.984	1.102	1101.8	generate	Run1	generate/STIM_006.jpg	100
172.361	2.172	2172.5	generate	Run1	generate/STIM_006.jpg	100
177.23	1.519	1518.9	generate	Run1	generate/STIM_006.jpg	100
181.473	2.262	2262.4	generate	Run1	generate/STIM_007.jpg	100
187.539	1.808	1808.2	generate	Run1	generate/STIM_007.jpg	99
193.437	1.198	1197.9	generate	Run1	generate/STIM_007.jpg	99
198.167	1.581	1581.0	generate	Run1	generate/STIM_007.jpg	100
203.719	1.821	1821.0	generate	Run1	generate/STIM_007.jpg	100
208.282	1.389	1389.2	generate	Run1	generate/STIM_008.jpg	99
212.941	1.531	1531.1	generate	Run1	generate/STIM_008.jpg	99
218.277	2.222	2221.8	generate	Run1	generate/STIM_008.jpg	100
223.693	1.074	1074.4	generate	Run1	generate/STIM_008.jpg	100
227.547	2.008	2007.6	generate	Run1	generate/STIM_008.jpg	100
232.156	1.594	1594.4	generate	Run1	generate/STIM_009.jpg	99
236.85	2.411	2411.3	generate	Run1	generate/STIM_009.jpg	99
241.929	1.586	1586.1	generate	Run1	generate/STIM_009.jpg	99
246.705	2.305	2305.0	generate	Run1	generate/STIM_009.jpg	100
253.213	1.93	1929.7	generate	Run1	generate/STIM_009.jpg	100
258.539	2.017	2016.7	generate	Run1	generate/STIM_010.jpg	99
262.864	1.774	1774.4	generate	Run1	generate/STIM_010.jpg	99
266.867	1.463	1462.9	generate	Run1	generate/STIM_010.jpg	99
271.942	1.402	1401.5	generate	Run1	generate/STIM_010.jpg	100
276.399	1.689	1688.6	generate	Run1	generate/STIM_010.jpg	99
281.314	1.992	1992.3	generate	Run1	generate/STIM_011.jpg	100
287.002	1.051	1050.9	generate	Run1	generate/STIM_011.jpg	99
291.911	2.062	2061.8	generate	Run1	generate/STIM_011.jpg	100
297.876	2.229	2229.3	generate	Run1	generate/STIM_011.jpg	99
303.039	1.441	1440.8	generate	Run1	generate/STIM_011.jpg	99
307.524	2.359	2358.9	generate	Run1	generate/STIM_012.jpg	99
314.053	1.135	1135.1	generate	Run1	generate/STIM_012.jpg	99
318.572	2.24	2240.3	generate	Run1	generate/STIM_012.jpg	100
324.88	0.975	975.4	generate	Run1	generate/STIM_012.jpg	100
329.752	1.768	1767.7	generate	Run1	generate/STIM_012.jpg	99
335.541	1.417	1416.7	generate	Run1	generate/STIM_013.jpg	100
340.454	1.976	1976.0	generate	Run1	generate/STIM_013.jpg	99
346.21	1.698	1697.5	generate	Run1	generate/STIM_013.jpg	100
351.087	1.969	1969.1	generate	Run1	generate/STIM_013.jpg	100
355.721	1.687	1686.8	generate	Run1	generate/STIM_013.jpg	99
360.542	2.429	2429.4	generate	Run1	generate/STIM_014.jpg	100
366.248	1.735	1735.0	generate	Run1	generate/STIM_014.jpg	100
371.386	1.249	1248.6	generate	Run1	generate/STIM_014.jpg	100
375.282	1.982	1982.4	generate	Run1	generate/STIM_014.jpg	99
380.682	0.964	964.0	generate	Run1	generate/STIM_014.jpg	99
385.196	2.028	2028.0	generate	Run1	generate/STIM_015.jpg	100
390.272	1.264	1263.8	generate	Run1	generate/STIM_015.jpg	99
395.563	2.032	2031.7	generate	Run1	generate/STIM_015.jpg	100
399.908	1.814	1813.6	generate	Run1	generate/STIM_015.jpg	100
404.401	1.143	1142.8	generate	Run1	generate/STIM_015.jpg	99
408.636	2.721	2720.6	generate	Run1	generate/STIM_016.jpg	99
414.505	1.779	1779.4	generate	Run1	generate/STIM_016.jpg	99
419.561	2.106	2106.1	generate	Run1	generate/STIM_016.jpg	99
424.649	1.149	1149.0	generate	Run1	generate/STIM_016.jpg	99
429.866	1.508	1508.4	generate	Run1	generate/STIM_016.jpg	100
434.929	1.385	1385.0	generate	Run1	generate/STIM_017.jpg	100
439.794	1.926	1926.1	generate	Run1	generate/STIM_017.jpg	100
445.047	1.104	1103.5	generate	Run1	generate/STIM_017.jpg	99
449.524	1.688	1687.6	generate	Run1	generate/STIM_017.jpg	99
454.065	1.213	1213.0	generate	Run1	generate/STIM_017.jpg	100
457.421	2.14	2140.0	generate	Run1	generate/STIM_018.jpg	100
462.132	2.576	2575.6	generate	Run1	generate/STIM_018.jpg	99
467.654	1.492	1491.5	generate	Run1	generate/STIM_018.jpg	99
471.558	1.382	1381.7	generate	Run1	generate/STIM_018.jpg	99
475.403	1.172	1171.8	generate	Run1	generate/STIM_018.jpg	100
480.396	2.424	2423.7	generate	Run1	generate/STIM_019.jpg	99
485.725	1.746	1745.8	generate	Run1	generate/STIM_019.jpg	99
490.641	2.178	2177.5	generate	Run1	generate/STIM_019.jpg	99
495.826	1.03	1030.4	generate	Run1	generate/STIM_019.jpg	99
499.975	1.642	1642.3	generate	Run1	generate/STIM_019.jpg	100
504.091	1.23	1229.6	generate	Run1	generate/STIM_020.jpg	99
509.043	1.141	1140.9	generate	Run1	generate/STIM_020.jpg	99
512.4	1.065	1065.3	generate	Run1	generate/STIM_020.jpg	100
515.73	1.875	1875.0	generate	Run1	generate/STIM_020.jpg	100
520.507	2.173	2173.3	generate	Run1	generate/STIM_020.jpg	99
525.363	1.96	1959.6	generate	Run1	generate/STIM_021.jpg	100
530.571	1.547	1547.3	generate	Run1	generate/STIM_021.jpg	99
535.494	2.202	2201.8	generate	Run1	generate/STIM_021.jpg	100
539.972	1.038	1037.7	generate	Run1	generate/STIM_021.jpg	99
544.285	1.977	1976.8	generate	Run1	generate/STIM_021.jpg	100
550.199	1.885	1885.1	generate	Run1	generate/STIM_022.jpg	100
554.619	2.591	2591.2	generate	Run1	generate/STIM_022.jpg	99
559.817	1.827	1827.1	generate	Run1	generate/STIM_022.jpg	100
563.991	1.319	1318.6	generate	Run1	generate/STIM_022.jpg	99
567.931	1.749	1749.4	generate	Run1	generate/STIM_022.jpg	100
571.928	2.038	2037.7	generate	Run1	generate/STIM_023.jpg	100
577.253	1.154	1153.8	generate	Run1	generate/STIM_023.jpg	100
580.649	1.14	1140.4	generate	Run1	generate/STIM_023.jpg	99
584.662	1.392	1391.5	generate	Run1	generate/STIM_023.jpg	99
588.403	1.84	1839.6	generate	Run1	generate/STIM_023.jpg	99
593.609	1.592	1591.6	generate	Run1	generate/STIM_024.jpg	100
598.408	1.154	1153.8	generate	Run1	generate/STIM_024.jpg	99
603.294	2.365	2364.7	generate	Run1	generate/STIM_024.jpg	100
609.353	1.202	1201.5	generate	Run1	generate/STIM_024.jpg	100
613.028	1.216	1216.0	generate	Run1	generate/STIM_024.jpg	100
617.958	0.795	794.7	repeat	Run1	repeat/STIM_000.jpg	100
621.887	0.691	691.1	repeat	Run1	repeat/STIM_000.jpg	99
625.965	0.655	654.8	repeat	Run1	repeat/STIM_000.jpg	100
628.802	0.851	851.1	repeat	Run1	repeat/STIM_000.jpg	100
632.25	0.545	544.7	repeat	Run1	repeat/STIM_000.jpg	100
635.718	0.809	808.6	repeat	Run1	repeat/STIM_001.jpg	99
638.82	0.795	794.6	repeat	Run1	repeat/STIM_001.jpg	100
642.033	0.894	893.7	repeat	Run1	repeat/STIM_001.jpg	99
646.973	0.602	602.3	repeat	Run1	repeat/STIM_001.jpg	100
651.24	0.489	489.0	repeat	Run1	repeat/STIM_001.jpg	100
654.783	0.834	834.5	repeat	Run1	repeat/STIM_002.jpg	100
659.546	0.777	776.8	repeat	Run1	repeat/STIM_002.jpg	100
664.318	0.642	642.3	repeat	Run1	repeat/STIM_002.jpg	99
668.94	0.564	564.1	repeat	Run1	repeat/STIM_002.jpg	100
672.029	0.808	807.8	repeat	Run1	repeat/STIM_002.jpg	99
676.56	0.788	788.4	repeat	Run1	repeat/STIM_003.jpg	99
680.257	0.755	754.8	repeat	Run1	repeat/STIM_003.jpg	99
683.807	0.821	821.3	repeat	Run1	repeat/STIM_003.jpg	99
687.623	0.547	547.4	repeat	Run1	repeat/STIM_003.jpg	100
690.588	0.771	770.7	repeat	Run1	repeat/STIM_003.jpg	99
693.605	0.48	480.4	repeat	Run1	repeat/STIM_004.jpg	100
698.112	0.465	464.7	repeat	Run1	repeat/STIM_004.jpg	100
700.996	0.881	881.0	repeat	Run1	repeat/STIM_004.jpg	100
705.307	0.609	608.8	repeat	Run1	repeat/STIM_004.jpg	99
708.606	0.475	474.6	repeat	Run1	repeat/STIM_004.jpg	99
712.881	0.602	602.2	repeat	Run1	repeat/STIM_005.jpg	99
716.089	0.754	753.7	repeat	Run1	repeat/STIM_005.jpg	100
720.254	0.478	478.1	repeat	Run1	repeat/STIM_005.jpg	100
723.872	0.573	573.3	repeat	Run1	repeat/STIM_005.jpg	100
727.409	0.873	872.6	repeat	Run1	repeat/STIM_005.jpg	100
731.784	0.78	779.8	repeat	Run1	repeat/STIM_006.jpg	100
735.99	0.717	716.9	repeat	Run1	repeat/STIM_006.jpg	99
740.169	0.865	865.3	repeat	Run1	repeat/STIM_006.jpg	100
743.956	0.823	823.4	repeat	Run1	repeat/STIM_006.jpg	100
748.714	0.512	511.6	repeat	Run1	repeat/STIM_006.jpg	99
751.339	0.539	538.7	repeat	Run1	repeat/STIM_007.jpg	99
755.493	0.865	864.7	repeat	Run1	repeat/STIM_007.jpg	99
760.267	0.848	848.2	repeat	Run1	repeat/STIM_007.jpg	100
764.127	0.835	835.4	repeat	Run1	repeat/STIM_007.jpg	99
767.523	0.469	468.7	repeat	Run1	repeat/STIM_007.jpg	99
770.423	0.814	813.5	repeat	Run1	repeat/STIM_008.jpg	100
773.467	0.622	622.0	repeat	Run1	repeat/STIM_008.jpg	100
777.115	0.53	530.0	repeat	Run1	repeat/STIM_008.jpg	99
780.141	0.551	551.4	repeat	Run1	repeat/STIM_008.jpg	100
783.103	0.685	685.2	repeat	Run1	repeat/STIM_008.jpg	99
786.147	0.559	558.6	repeat	Run1	repeat/STIM_009.jpg	100
789.846	0.712	711.6	repeat	Run1	repeat/STIM_009.jpg	99
793.906	0.669	669.4	repeat	Run1	repeat/STIM_009.jpg	100
797.273	0.5	499.5	repeat	Run1	repeat/STIM_009.jpg	100
800.844	0.596	596.4	repeat	Run1	repeat/STIM_009.jpg	99
804.75	0.568	567.8	repeat	Run1	repeat/STIM_010.jpg	100
808.174	0.633	632.6	repeat	Run1	repeat/STIM_010.jpg	100
812.743	0.495	495.1	repeat	Run1	repeat/STIM_010.jpg	100
816.122	0.79	789.9	repeat	Run1	repeat/STIM_010.jpg	99
820.338	0.69	690.2	repeat	Run1	repeat/STIM_010.jpg	100
824.989	0.78	779.6	repeat	Run1	repeat/STIM_011.jpg	99
828.418	0.748	748.0	repeat	Run1	repeat/STIM_011.jpg	100
832.227	0.591	590.6	repeat	Run1	repeat/STIM_011.jpg	100
835.023	0.789	789.1	repeat	Run1	repeat/STIM_011.jpg	100
838.76	0.62	619.8	repeat	Run1	repeat/STIM_011.jpg	100
841.648	0.685	684.7	repeat	Run1	repeat/STIM_012.jpg	100
844.655	0.705	704.6	repeat	Run1	repeat/STIM_012.jpg	100
849.235	0.844	843.8	repeat	Run1	repeat/STIM_012.jpg	100
853.64	0.563	563.4	repeat	Run1	repeat/STIM_012.jpg	100
857.525	0.64	640.0	repeat	Run1	repeat/STIM_012.jpg	100
861.571	0.791	790.9	repeat	Run1	repeat/STIM_013.jpg	99
865.613	0.77	769.6	repeat	Run1	repeat/STIM_013.jpg	99
870.266	0.854	854.2	repeat	Run1	repeat/STIM_013.jpg	99
873.83	0.587	587.3	repeat	Run1	repeat/STIM_013.jpg	100
878.236	0.693	693.1	repeat	Run1	repeat/STIM_013.jpg	99
881.683	0.895	895.0	repeat	Run1	repeat/STIM_014.jpg	100
886.608	0.796	796.1	repeat	Run1	repeat/STIM_014.jpg	99
889.617	0.685	684.8	repeat	Run1	repeat/STIM_014.jpg	99
893.809	0.72	719.5	repeat	Run1	repeat/STIM_014.jpg	100
898.519	0.668	668.2	repeat	Run1	repeat/STIM_014.jpg	100
903.1	2.163	2163.4	generate	Run2	generate/STIM_000.jpg	99
909.405	2.146	2146.0	generate	Run2	generate/STIM_000.jpg	99
914.128	0.904	903.7	generate	Run2	generate/STIM_000.jpg	99
917.232	1.143	1143.3	generate	Run2	generate/STIM_000.jpg	100
922.223	0.988	987.5	generate	Run2	generate/STIM_000.jpg	100
926.012	1.906	1905.9	generate	Run2	generate/STIM_001.jpg	100
930.391	0.952	952.4	generate	Run2	generate/STIM_001.jpg	99
934.518	1.71	1709.8	generate	Run2	generate/STIM_001.jpg	100
939.59	1.126	1125.8	generate	Run2	generate/STIM_001.jpg	100
944.231	0.993	992.8	generate	Run2	generate/STIM_001.jpg	100
949.193	1.283	1282.8	generate	Run2	generate/STIM_002.jpg	100
953.206	1.54	1539.5	generate	Run2	generate/STIM_002.jpg	100
958.368	1.874	1874.0	generate	Run2	generate/STIM_002.jpg	100
963.049	1.172	1172.0	generate	Run2	generate/STIM_002.jpg	100
966.893	0.853	853.0	generate	Run2	generate/STIM_002.jpg	100
970.868	2.036	2035.9	generate	Run2	generate/STIM_003.jpg	99
976.112	1.965	1965.4	generate	Run2	generate/STIM_003.jpg	100
982.148	1.278	1277.5	generate	Run2	generate/STIM_003.jpg	99
986.361	0.996	996.2	generate	Run2	generate/STIM_003.jpg	100
989.981	1.376	1376.2	generate	Run2	generate/STIM_003.jpg	99
994.69	1.52	1520.2	generate	Run2	generate/STIM_004.jpg	99
998.979	0.922	921.7	generate	Run2	generate/STIM_004.jpg	100
1003.552	1.465	1464.6	generate	Run2	generate/STIM_004.jpg	100
1007.181	1.279	1278.9	generate	Run2	generate/STIM_004.jpg	100
1012.142	1.483	1482.8	generate	Run2	generate/STIM_004.jpg	100
1017.114	1.899	1899.3	generate	Run2	generate/STIM_005.jpg	99
1021.629	1.171	1171.2	generate	Run2	generate/STIM_005.jpg	100
1026.265	1.484	1483.7	generate	Run2	generate/STIM_005.jpg	100
1030.669	1.438	1438.4	generate	Run2	generate/STIM_005.jpg	99
1035.782	1.229	1228.8	generate	Run2	generate/STIM_005.jpg	99
1040.213	1.054	1053.6	generate	Run2	generate/STIM_006.jpg	99
1043.75	1.977	1977.0	generate	Run2	generate/STIM_006.jpg	99
1049.197	1.846	1845.8	generate	Run2	generate/STIM_006.jpg	99
1054.748	1.704	1703.5	generate	Run2	generate/STIM_006.jpg	100
1059.179	0.81	810.4	generate	Run2	generate/STIM_006.jpg	99
1062.438	2.283	2282.8	generate	Run2	generate/STIM_007.jpg	100
1067.068	1.678	1677.8	generate	Run2	generate/STIM_007.jpg	100
1071.588	1.086	1085.7	generate	Run2	generate/STIM_007.jpg	100
1075.629	1.229	1229.2	generate	Run2	generate/STIM_007.jpg	100
1080.789	0.804	803.9	generate	Run2	generate/STIM_007.jpg	99
1084.613	1.266	1266.3	generate	Run2	generate/STIM_008.jpg	99
1088.252	0.896	896.4	generate	Run2	generate/STIM_008.jpg	99
1093.148	2.04	2039.8	generate	Run2	generate/STIM_008.jpg	100
1099.026	1.712	1712.3	generate	Run2	generate/STIM_008.jpg	100
1102.964	1.416	1416.2	generate	Run2	generate/STIM_008.jpg	100
1108.319	1.682	1682.4	generate	Run2	generate/STIM_009.jpg	100
1113.269	1.388	1387.8	generate	Run2	generate/STIM_009.jpg	99
1118.104	0.904	904.2	generate	Run2	generate/STIM_009.jpg	100
1122.833	1.545	1545.3	generate	Run2	generate/STIM_009.jpg	99
1127.946	1.244	1244.1	generate	Run2	generate/STIM_009.jpg	100
1133.054	2.278	2278.5	generate	Run2	generate/STIM_010.jpg	100
1139.362	1.418	1417.9	generate	Run2	generate/STIM_010.jpg	100
1143.031	1.094	1094.0	generate	Run2	generate/STIM_010.jpg	99
1146.892	1.701	1701.3	generate	Run2	generate/STIM_010.jpg	99
1150.817	1.531	1531.2	generate	Run2	generate/STIM_010.jpg	100
1156.309	1.37	1369.6	generate	Run2	generate/STIM_011.jpg	99
1160.293	0.947	947.1	generate	Run2	generate/STIM_011.jpg	100
1165.043	1.143	1142.6	generate	Run2	generate/STIM_011.jpg	99
1169.19	1.495	1494.9	generate	Run2	generate/STIM_011.jpg	100
1172.955	1.835	1835.2	generate	Run2	generate/STIM_011.jpg	99
1178.606	1.716	1716.5	generate	Run2	generate/STIM_012.jpg	100
1184.02	1.634	1633.6	generate	Run2	generate/STIM_012.jpg	100
1188.376	1.927	1926.7	generate	Run2	generate/STIM_012.jpg	100
1194.334	1.722	1722.2	generate	Run2	generate/STIM_012.jpg	100
1198.694	1.134	1133.7	generate	Run2	generate/STIM_012.jpg	99
1203.687	1.71	1710.2	generate	Run2	generate/STIM_013.jpg	100
1209.063	2.144	2144.5	generate	Run2	generate/STIM_013.jpg	100
1215.222	1.74	1739.8	generate	Run2	generate/STIM_013.jpg	100
1220.426	1.758	1758.3	generate	Run2	generate/STIM_013.jpg	100
1226.136	1.531	1530.6	generate	Run2	generate/STIM_013.jpg	100
1230.9	2.333	2333.0	generate	Run2	generate/STIM_014.jpg	99
1237.216	1.622	1621.9	generate	Run2	generate/STIM_014.jpg	100
1242.341	1.721	1720.8	generate	Run2	generate/STIM_014.jpg	100
1247.357	1.875	1875.2	generate	Run2	generate/STIM_014.jpg	100
1253.396	1.498	1498.4	generate	Run2	generate/STIM_014.jpg	99
1258.214	2.026	2026.3	generate	Run2	generate/STIM_015.jpg	100
1264.395	1.903	1903.2	generate	Run2	generate/STIM_015.jpg	99
1269.879	1.866	1865.5	generate	Run2	generate/STIM_015.jpg	100
1274.082	0.939	939.0	generate	Run2	generate/STIM_015.jpg	100
1278.381	0.848	848.0	generate	Run2	generate/STIM_015.jpg	99
1283.122	1.334	1333.6	generate	Run2	generate/STIM_016.jpg	100
1287.087	1.955	1955.1	generate	Run2	generate/STIM_016.jpg	99
1291.766	0.909	909.2	generate	Run2	generate/STIM_016.jpg	100
1295.272	1.807	1806.6	generate	Run2	generate/STIM_016.jpg	100
1300.152	1.536	1535.8	generate	Run2	generate/STIM_016.jpg	99
1305.698	2.281	2281.4	generate	Run2	generate/STIM_017.jpg	100
1311.634	1.488	1488.0	generate	Run2	generate/STIM_017.jpg	100
1315.921	1.034	1034.3	generate	Run2	generate/STIM_017.jpg	100
1319.133	1.712	1711.6	generate	Run2	generate/STIM_017.jpg	100
1323.242	1.713	1713.3	generate	Run2	generate/STIM_017.jpg	100
1327.607	1.603	1602.9	generate	Run2	generate/STIM_018.jpg	100
1332.768	1.558	1557.9	generate	Run2	generate/STIM_018.jpg	100
1338.315	1.394	1394.3	generate	Run2	generate/STIM_018.jpg	100
1341.911	1.192	1192.4	generate	Run2	generate/STIM_018.jpg	100
1346.531	1.667	1667.1	generate	Run2	generate/STIM_018.jpg	99
1351.135	2.282	2282.1	generate	Run2	generate/STIM_019.jpg	99
1355.649	1.258	1257.5	generate	Run2	generate/STIM_019.jpg	99
1359.607	1.116	1115.8	generate	Run2	generate/STIM_019.jpg	100
1363.667	0.94	940.1	generate	Run2	generate/STIM_019.jpg	100
1367.046	1.844	1843.5	generate	Run2	generate/STIM_019.jpg	99
1371.304	1.722	1721.8	generate	Run2	generate/STIM_020.jpg	100
1375.405	1.925	1925.1	generate	Run2	generate/STIM_020.jpg	100
1381.332	1.618	1618.0	generate	Run2	generate/STIM_020.jpg	100
1386.481	0.884	884.2	generate	Run2	generate/STIM_020.jpg	100
1390.619	1.128	1128.0	generate	Run2	generate/STIM_020.jpg	99
1393.886	1.907	1907.2	generate	Run2	generate/STIM_021.jpg	99
1398.575	1.758	1758.5	generate	Run2	generate/STIM_021.jpg	100
1404.226	0.943	943.2	generate	Run2	generate/STIM_021.jpg	100
1408.863	1.639	1638.6	generate	Run2	generate/STIM_021.jpg	99
1412.862	0.976	976.1	generate	Run2	generate/STIM_021.jpg	100
1416.473	1.477	1477.3	generate	Run2	generate/STIM_022.jpg	99
1420.605	1.886	1885.7	generate	Run2	generate/STIM_022.jpg	100
1424.816	1.872	1872.5	generate	Run2	generate/STIM_022.jpg	99
1430.6	0.962	962.2	generate	Run2	generate/STIM_022.jpg	100
1435.592	1.347	1347.3	generate	Run2	generate/STIM_022.jpg	100
1439.913	0.942	941.6	generate	Run2	generate/STIM_023.jpg	99
1444.562	1.628	1627.8	generate	Run2	generate/STIM_023.jpg	99
1449.773	1.488	1488.1	generate	Run2	generate/STIM_023.jpg	100
1453.7	1.309	1308.9	generate	Run2	generate/STIM_023.jpg	99
1457.142	1.233	1232.8	generate	Run2	generate/STIM_023.jpg	100
1460.962	1.377	1377.2	generate	Run2	generate/STIM_024.jpg	100
1464.612	1.037	1036.9	generate	Run2	generate/STIM_024.jpg	100
1468.777	1.097	1097.1	generate	Run2	generate/STIM_024.jpg	100
1473.342	0.811	810.6	generate	Run2	generate/STIM_024.jpg	99
1477.027	1.858	1857.6	generate	Run2	generate/STIM_024.jpg	100
1481.744	0.557	557.2	repeat	Run2	repeat/STIM_000.jpg	99
1484.816	0.909	909.0	repeat	Run2	repeat/STIM_000.jpg	100
1489.189	0.589	589.2	repeat	Run2	repeat/STIM_000.jpg	99
1493.233	0.742	741.6	repeat	Run2	repeat/STIM_000.jpg	99
1496.214	0.657	656.9	repeat	Run2	repeat/STIM_000.jpg	99
1500.606	0.846	846.5	repeat	Run2	repeat/STIM_001.jpg	100
1505.509	0.839	838.6	repeat	Run2	repeat/STIM_001.jpg	100
1510.132	0.744	743.5	repeat	Run2	repeat/STIM_001.jpg	99
1513.23	0.747	746.7	repeat	Run2	repeat/STIM_001.jpg	100
1516.627	0.635	634.8	repeat	Run2	repeat/STIM_001.jpg	100
1520.891	0.595	595.3	repeat	Run2	repeat/STIM_002.jpg	99
1523.987	0.656	656.2	repeat	Run2	repeat/STIM_002.jpg	100
1526.786	0.795	794.9	repeat	Run2	repeat/STIM_002.jpg	100
1530.829	0.793	793.2	repeat	Run2	repeat/STIM_002.jpg	100
1535.636	0.915	915.4	repeat	Run2	repeat/STIM_002.jpg	100
1539.963	0.797	797.2	repeat	Run2	repeat/STIM_003.jpg	100
1543.277	0.482	482.3	repeat	Run2	repeat/STIM_003.jpg	100
1546.352	0.79	790.4	repeat	Run2	repeat/STIM_003.jpg	99
1550.643	0.512	511.9	repeat	Run2	repeat/STIM_003.jpg	100
1554.848	0.506	505.9	repeat	Run2	repeat/STIM_003.jpg	100
1559.307	0.543	542.6	repeat	Run2	repeat/STIM_004.jpg	100
1563.153	0.898	897.8	repeat	Run2	repeat/STIM_004.jpg	99
1567.348	0.824	823.6	repeat	Run2	repeat/STIM_004.jpg	100
1571.422	0.708	708.2	repeat	Run2	repeat/STIM_004.jpg	99
1574.249	0.631	630.7	repeat	Run2	repeat/STIM_004.jpg	100
1578.227	0.837	836.9	repeat	Run2	repeat/STIM_005.jpg	100
1582.847	0.478	477.8	repeat	Run2	repeat/STIM_005.jpg	100
1585.419	0.683	683.4	repeat	Run2	repeat/STIM_005.jpg	100
1589.498	0.824	824.5	repeat	Run2	repeat/STIM_005.jpg	100
1593.977	0.782	781.8	repeat	Run2	repeat/STIM_005.jpg	100
1596.867	0.749	748.7	repeat	Run2	repeat/STIM_006.jpg	99
1600.272	0.82	820.2	repeat	Run2	repeat/STIM_006.jpg	100
1603.862	0.523	522.7	repeat	Run2	repeat/STIM_006.jpg	100
1606.522	0.5	499.8	repeat	Run2	repeat/STIM_006.jpg	100
1610.674	0.478	478.4	repeat	Run2	repeat/STIM_006.jpg	99
1614.565	0.527	527.0	repeat	Run2	repeat/STIM_007.jpg	99
1619.01	0.522	522.4	repeat	Run2	repeat/STIM_007.jpg	99
1622.064	0.7	700.5	repeat	Run2	repeat/STIM_007.jpg	100
1625.121	0.874	873.6	repeat	Run2	repeat/STIM_007.jpg	100
1629.131	0.698	698.2	repeat	Run2	repeat/STIM_007.jpg	99
1633.712	0.8	800.2	repeat	Run2	repeat/STIM_008.jpg	99
1637.183	0.753	753.4	repeat	Run2	repeat/STIM_008.jpg	99
1640.929	0.496	496.1	repeat	Run2	repeat/STIM_008.jpg	99
1644.089	0.901	901.3	repeat	Run2	repeat/STIM_008.jpg	99
1648.524	0.59	589.6	repeat	Run2	repeat/STIM_008.jpg	99
1652.321	0.896	896.3	repeat	Run2	repeat/STIM_009.jpg	99
1655.681	0.693	693.3	repeat	Run2	repeat/STIM_009.jpg	99
1660.337	0.747	746.6	repeat	Run2	repeat/STIM_009.jpg	99
1664.13	0.646	646.2	repeat	Run2	repeat/STIM_009.jpg	100
1667.965	0.815	815.1	repeat	Run2	repeat/STIM_009.jpg	99
1671.821	0.894	894.3	repeat	Run2	repeat/STIM_010.jpg	100
1676.515	0.796	795.8	repeat	Run2	repeat/STIM_010.jpg	100
1679.562	0.558	558.5	repeat	Run2	repeat/STIM_010.jpg	99
1682.975	0.638	638.2	repeat	Run2	repeat/STIM_010.jpg	100
1686.475	0.657	657.3	repeat	Run2	repeat/STIM_010.jpg	99
1690.559	0.746	745.8	repeat	Run2	repeat/STIM_011.jpg	99
1694.365	0.814	813.7	repeat	Run2	repeat/STIM_011.jpg	100
1698.644	0.9	900.1	repeat	Run2	repeat/STIM_011.jpg	100
1703.337	0.814	814.0	repeat	Run2	repeat/STIM_011.jpg	99
1708.099	0.708	708.3	repeat	Run2	repeat/STIM_011.jpg	99
1712.07	0.775	775.2	repeat	Run2	repeat/STIM_012.jpg	100
1716.901	0.833	833.0	repeat	Run2	repeat/STIM_012.jpg	100
1721.674	0.692	692.2	repeat	Run2	repeat/STIM_012.jpg	99
1725.181	0.748	748.4	repeat	Run2	repeat/STIM_012.jpg	100
1729.871	0.906	905.6	repeat	Run2	repeat/STIM_012.jpg	99
1733.495	0.614	613.9	repeat	Run2	repeat/STIM_013.jpg	100
1737.398	0.701	701.1	repeat	Run2	repeat/STIM_013.jpg	100
1740.509	0.678	678.2	repeat	Run2	repeat/STIM_013.jpg	100
1743.278	0.742	742.4	repeat	Run2	repeat/STIM_013.jpg	100
1747.016	0.867	867.4	repeat	Run2	repeat/STIM_013.jpg	100
1750.393	0.721	720.7	repeat	Run2	repeat/STIM_014.jpg	99
1754.314	0.528	528.3	repeat	Run2	repeat/STIM_014.jpg	99
1757.136	0.796	796.2	repeat	Run2	repeat/STIM_014.jpg	100
1760.22	0.903	903.1	repeat	Run2	repeat/STIM_014.jpg	99
1765.191	0.476	476.1	repeat	Run2	repeat/STIM_014.jpg	99
1768.88	1.558	1557.5	generate	Run3	generate/STIM_000.jpg	100
1773.476	0.968	968.4	generate	Run3	generate/STIM_000.jpg	99
1776.576	1.871	1871.4	generate	Run3	generate/STIM_000.jpg	100
1782.605	1.792	1791.5	generate	Run3	generate/STIM_000.jpg	99
1788.209	0.904	903.9	generate	Run3	generate/STIM_000.jpg	99
1791.931	1.306	1306.1	generate	Run3	generate/STIM_001.jpg	99
1795.945	0.903	903.0	generate	Run3	generate/STIM_001.jpg	100
1799.383	0.934	933.6	generate	Run3	generate/STIM_001.jpg	99
1803.835	0.774	773.9	generate	Run3	generate/STIM_001.jpg	99
1807.46	1.443	1443.1	generate	Run3	generate/STIM_001.jpg	99
1811.842	1.457	1456.6	generate	Run3	generate/STIM_002.jpg	100
1816.986	1.524	1523.5	generate	Run3	generate/STIM_002.jpg	99
1820.771	1.69	1689.9	generate	Run3	generate/STIM_002.jpg	100
1826.336	0.851	851.4	generate	Run3	generate/STIM_002.jpg	100
1830.719	1.371	1371.1	generate	Run3	generate/STIM_002.jpg	100
1835.231	1.314	1314.4	generate	Run3	generate/STIM_003.jpg	99
1839.323	0.967	966.6	generate	Run3	generate/STIM_003.jpg	99
1842.772	1.891	1891.4	generate	Run3	generate/STIM_003.jpg	99
1846.935	1.533	1533.1	generate	Run3	generate/STIM_003.jpg	100
1850.864	1.446	1446.1	generate	Run3	generate/STIM_003.jpg	99
1855.934	1.635	1634.7	generate	Run3	generate/STIM_004.jpg	100
1860.077	1.646	1645.8	generate	Run3	generate/STIM_004.jpg	99
1864.227	1.846	1846.1	generate	Run3	generate/STIM_004.jpg	99
1868.313	1.188	1187.9	generate	Run3	generate/STIM_004.jpg	99
1872.74	1.776	1776.0	generate	Run3	generate/STIM_004.jpg	99
1878.335	1.269	1269.4	generate	Run3	generate/STIM_005.jpg	99
1882.198	1.721	1721.1	generate	Run3	generate/STIM_005.jpg	99
1887.356	1.688	1688.0	generate	Run3	generate/STIM_005.jpg	99
1891.908	1.234	1234.4	generate	Run3	generate/STIM_005.jpg	99
1897.006	1.768	1767.9	generate	Run3	generate/STIM_005.jpg	99
1902.069	1.514	1513.7	generate	Run3	generate/STIM_006.jpg	99
1907.557	1.743	1742.9	generate	Run3	generate/STIM_006.jpg	100
1911.939	1.273	1272.6	generate	Run3	generate/STIM_006.jpg	100
1915.521	1.352	1351.7	generate	Run3	generate/STIM_006.jpg	100
1919.054	1.441	1441.2	generate	Run3	generate/STIM_006.jpg	100
1924.35	1.317	1317.3	generate	Run3	generate/STIM_007.jpg	99
1928.96	1.053	1052.8	generate	Run3	generate/STIM_007.jpg	99
1932.981	1.849	1848.7	generate	Run3	generate/STIM_007.jpg	100
1937.26	1.786	1785.6	generate	Run3	generate/STIM_007.jpg	100
1942.098	1.487	1487.1	generate	Run3	generate/STIM_007.jpg	100
1946.334	1.817	1817.1	generate	Run3	generate/STIM_008.jpg	100
1950.404	1.494	1493.8	generate	Run3	generate/STIM_008.jpg	99
1955.285	1.164	1163.5	generate	Run3	generate/STIM_008.jpg	100
1960.38	0.841	841.1	generate	Run3	generate/STIM_008.jpg	100
1963.566	1.296	1295.9	generate	Run3	generate/STIM_008.jpg	99
1968.359	1.42	1419.5	generate	Run3	generate/STIM_009.jpg	99
1972.02	1.027	1027.3	generate	Run3	generate/STIM_009.jpg	99
1975.649	1.382	1382.5	generate	Run3	generate/STIM_009.jpg	99
1979.938	1.542	1541.7	generate	Run3	generate/STIM_009.jpg	99
1983.813	1.274	1274.0	generate	Run3	generate/STIM_009.jpg	100
1987.859	0.941	940.9	generate	Run3	generate/STIM_010.jpg	99
1991.614	0.855	855.0	generate	Run3	generate/STIM_010.jpg	99
1996.346	1.244	1244.0	generate	Run3	generate/STIM_010.jpg	100
2000.727	1.849	1848.6	generate	Run3	generate/STIM_010.jpg	100
2005.449	1.3	1300.2	generate	Run3	generate/STIM_010.jpg	99
2010.584	0.872	871.5	generate	Run3	generate/STIM_011.jpg	100
2015.019	1.166	1165.9	generate	Run3	generate/STIM_011.jpg	100
2018.722	1.529	1529.0	generate	Run3	generate/STIM_011.jpg	99
2023.589	1.908	1908.1	generate	Run3	generate/STIM_011.jpg	100
2028.523	1.65	1650.2	generate	Run3	generate/STIM_011.jpg	99
2032.894	1.306	1306.4	generate	Run3	generate/STIM_012.jpg	99
2037.756	1.832	1832.1	generate	Run3	generate/STIM_012.jpg	100
2043.637	0.94	940.2	generate	Run3	generate/STIM_012.jpg	99
2046.915	0.973	972.8	generate	Run3	generate/STIM_012.jpg	100
2050.193	1.644	1643.6	generate	Run3	generate/STIM_012.jpg	99
2055.481	1.57	1570.1	generate	Run3	generate/STIM_013.jpg	99
2060.493	1.045	1045.3	generate	Run3	generate/STIM_013.jpg	100
2064.569	1.662	1662.5	generate	Run3	generate/STIM_013.jpg	99
2069.298	0.817	817.3	generate	Run3	generate/STIM_013.jpg	99
2072.805	1.907	1907.2	generate	Run3	generate/STIM_013.jpg	100
2076.905	1.01	1010.1	generate	Run3	generate/STIM_014.jpg	99
2080.214	1.765	1764.7	generate	Run3	generate/STIM_014.jpg	100
2084.208	1.668	1668.3	generate	Run3	generate/STIM_014.jpg	100
2088.55	1.032	1031.9	generate	Run3	generate/STIM_014.jpg	99
2092.668	1.546	1546.0	generate	Run3	generate/STIM_014.jpg	100
2096.68	1.056	1056.1	generate	Run3	generate/STIM_015.jpg	99
2100.886	1.282	1281.8	generate	Run3	generate/STIM_015.jpg	99
2104.889	1.494	1493.9	generate	Run3	generate/STIM_015.jpg	100
2109.085	1.367	1367.0	generate	Run3	generate/STIM_015.jpg	100
2112.821	1.554	1554.3	generate	Run3	generate/STIM_015.jpg	100
2117.333	1.687	1687.1	generate	Run3	generate/STIM_016.jpg	99
2122.444	1.037	1036.7	generate	Run3	generate/STIM_016.jpg	99
2125.964	1.196	1195.9	generate	Run3	generate/STIM_016.jpg	100
2131.218	1.639	1638.6	generate	Run3	generate/STIM_016.jpg	100
2136.749	1.922	1922.3	generate	Run3	generate/STIM_016.jpg	99
2141.11	0.966	965.8	generate	Run3	generate/STIM_017.jpg	100
2145.122	1.175	1174.8	generate	Run3	generate/STIM_017.jpg	99
2148.596	1.158	1158.1	generate	Run3	generate/STIM_017.jpg	100
2152.937	1.834	1834.0	generate	Run3	generate/STIM_017.jpg	99
2156.94	1.053	1053.4	generate	Run3	generate/STIM_017.jpg	100
2162.053	1.11	1109.9	generate	Run3	generate/STIM_018.jpg	100
2165.605	1.583	1583.0	generate	Run3	generate/STIM_018.jpg	99
2169.764	1.064	1063.5	generate	Run3	generate/STIM_018.jpg	100
2173.785	0.998	997.8	generate	Run3	generate/STIM_018.jpg	99
2177.97	0.997	997.3	generate	Run3	generate/STIM_018.jpg	100
2181.315	1.22	1220.4	generate	Run3	generate/STIM_019.jpg	100
2184.842	1.178	1178.0	generate	Run3	generate/STIM_019.jpg	99
2189.467	1.764	1763.6	generate	Run3	generate/STIM_019.jpg	99
2194.827	1.27	1269.9	generate	Run3	generate/STIM_019.jpg	99
2198.618	1.442	1441.8	generate	Run3	generate/STIM_019.jpg	100
2202.942	0.826	825.7	generate	Run3	generate/STIM_020.jpg	100
2207.194	1.236	1235.6	generate	Run3	generate/STIM_020.jpg	99
2211.677	1.863	1863.4	generate	Run3	generate/STIM_020.jpg	100
2216.439	1.674	1674.4	generate	Run3	generate/STIM_020.jpg	99
2221.796	1.718	1717.5	generate	Run3	generate/STIM_020.jpg	100
2225.885	0.858	857.7	generate	Run3	generate/STIM_021.jpg	100
2230.244	1.339	1338.7	generate	Run3	generate/STIM_021.jpg	99
2234.889	1.528	1527.5	generate	Run3	generate/STIM_021.jpg	99
2238.907	1.014	1013.6	generate	Run3	generate/STIM_021.jpg	99
2243.05	1.025	1025.3	generate	Run3	generate/STIM_021.jpg	99
2247.51	1.845	1845.3	generate	Run3	generate/STIM_022.jpg	99
2251.619	1.062	1061.7	generate	Run3	generate/STIM_022.jpg	99
2255.269	1.715	1715.4	generate	Run3	generate/STIM_022.jpg	100
2260.515	1.544	1544.4	generate	Run3	generate/STIM_022.jpg	99
2265.817	1.428	1428.4	generate	Run3	generate/STIM_022.jpg	100
2271.277	1.117	1116.8	generate	Run3	generate/STIM_023.jpg	99
2275.403	1.181	1181.3	generate	Run3	generate/STIM_023.jpg	99
2279.649	1.898	1898.1	generate	Run3	generate/STIM_023.jpg	100
2284.553	1.259	1259.3	generate	Run3	generate/STIM_023.jpg	100
2288.063	1.747	1746.9	generate	Run3	generate/STIM_023.jpg	99
2293.104	1.886	1885.7	generate	Run3	generate/STIM_024.jpg	100
2298.111	1.918	1918.5	generate	Run3	generate/STIM_024.jpg	100
2303.156	1.581	1580.8	generate	Run3	generate/STIM_024.jpg	99
2307.075	1.205	1205.2	generate	Run3	generate/STIM_024.jpg	100
2311.34	1.364	1364.2	generate	Run3	generate/STIM_024.jpg	99
2315.474	0.837	836.7	repeat	Run3	repeat/STIM_000.jpg	99
2318.884	0.742	742.1	repeat	Run3	repeat/STIM_000.jpg	99
2322.342	0.735	734.8	repeat	Run3	repeat/STIM_000.jpg	99
2325.908	0.761	761.0	repeat	Run3	repeat/STIM_000.jpg	99
2330.18	0.855	855.3	repeat	Run3	repeat/STIM_000.jpg	100
2335.084	0.888	888.4	repeat	Run3	repeat/STIM_001.jpg	100
2338.145	0.882	882.1	repeat	Run3	repeat/STIM_001.jpg	100
2342.698	0.668	667.5	repeat	Run3	repeat/STIM_001.jpg	99
2347.05	0.641	640.6	repeat	Run3	repeat/STIM_001.jpg	100
2350.385	0.506	505.6	repeat	Run3	repeat/STIM_001.jpg	100
2353.206	0.745	744.7	repeat	Run3	repeat/STIM_002.jpg	100
2357.047	0.692	692.5	repeat	Run3	repeat/STIM_002.jpg	99
2360.058	0.721	721.1	repeat	Run3	repeat/STIM_002.jpg	99
2364.119	0.759	759.1	repeat	Run3	repeat/STIM_002.jpg	99
2367.174	0.725	725.1	repeat	Run3	repeat/STIM_002.jpg	100
2371.649	0.738	737.5	repeat	Run3	repeat/STIM_003.jpg	100
2376.119	0.742	741.7	repeat	Run3	repeat/STIM_003.jpg	100
2380.357	0.524	523.9	repeat	Run3	repeat/STIM_003.jpg	99
2384.419	0.789	788.7	repeat	Run3	repeat/STIM_003.jpg	99
2388.653	0.553	552.6	repeat	Run3	repeat/STIM_003.jpg	100
2393.154	0.736	735.9	repeat	Run3	repeat/STIM_004.jpg	99
2397.016	0.876	876.3	repeat	Run3	repeat/STIM_004.jpg	100
2401.629	0.916	916.0	repeat	Run3	repeat/STIM_004.jpg	100
2405.097	0.694	694.1	repeat	Run3	repeat/STIM_004.jpg	100
2408.873	0.784	783.7	repeat	Run3	repeat/STIM_004.jpg	99
2412.734	0.652	652.5	repeat	Run3	repeat/STIM_005.jpg	100
2416.595	0.561	561.3	repeat	Run3	repeat/STIM_005.jpg	100
2420.767	0.53	529.9	repeat	Run3	repeat/STIM_005.jpg	100
2425.318	0.488	488.0	repeat	Run3	repeat/STIM_005.jpg	100
2429.534	0.575	575.3	repeat	Run3	repeat/STIM_005.jpg	99
2432.543	0.516	515.5	repeat	Run3	repeat/STIM_006.jpg	100
2436.168	0.654	653.7	repeat	Run3	repeat/STIM_006.jpg	99
2439.18	0.859	858.6	repeat	Run3	repeat/STIM_006.jpg	100
2442.121	0.511	511.4	repeat	Run3	repeat/STIM_006.jpg	99
2445.075	0.907	906.9	repeat	Run3	repeat/STIM_006.jpg	99
2449.213	0.511	511.2	repeat	Run3	repeat/STIM_007.jpg	100
2451.81	0.771	771.1	repeat	Run3	repeat/STIM_007.jpg	99
2455.691	0.804	803.5	repeat	Run3	repeat/STIM_007.jpg	99
2459.76	0.556	556.4	repeat	Run3	repeat/STIM_007.jpg	100
2463.98	0.716	716.4	repeat	Run3	repeat/STIM_007.jpg	100
2468.467	0.704	704.5	repeat	Run3	repeat/STIM_008.jpg	100
2473.169	0.497	496.8	repeat	Run3	repeat/STIM_008.jpg	99
2477.425	0.543	543.3	repeat	Run3	repeat/STIM_008.jpg	99
2481.079	0.815	814.7	repeat	Run3	repeat/STIM_008.jpg	100
2484.094	0.835	835.1	repeat	Run3	repeat/STIM_008.jpg	100
2488.183	0.474	473.7	repeat	Run3	repeat/STIM_009.jpg	99
2491.232	0.638	637.5	repeat	Run3	repeat/STIM_009.jpg	99
2495.661	0.62	620.2	repeat	Run3	repeat/STIM_009.jpg	100
2499.968	0.876	876.1	repeat	Run3	repeat/STIM_009.jpg	100
2503.664	0.794	793.6	repeat	Run3	repeat/STIM_009.jpg	100
2507.035	0.719	719.4	repeat	Run3	repeat/STIM_010.jpg	100
2510.16	0.821	821.1	repeat	Run3	repeat/STIM_010.jpg	99
2514.895	0.524	523.8	repeat	Run3	repeat/STIM_010.jpg	99
2518.469	0.908	907.8	repeat	Run3	repeat/STIM_010.jpg	100
2523.169	0.66	659.5	repeat	Run3	repeat/STIM_010.jpg	99
2526.379	0.885	885.4	repeat	Run3	repeat/STIM_011.jpg	99
2530.942	0.526	526.5	repeat	Run3	repeat/STIM_011.jpg	100
2533.772	0.506	505.8	repeat	Run3	repeat/STIM_011.jpg	99
2536.858	0.479	479.0	repeat	Run3	repeat/STIM_011.jpg	100
2540.407	0.493	493.1	repeat	Run3	repeat/STIM_011.jpg	99
2543.442	0.536	535.7	repeat	Run3	repeat/STIM_012.jpg	99
2547.597	0.566	566.2	repeat	Run3	repeat/STIM_012.jpg	100
2550.92	0.838	838.2	repeat	Run3	repeat/STIM_012.jpg	100
2555.485	0.542	542.1	repeat	Run3	repeat/STIM_012.jpg	99
2558.952	0.652	652.3	repeat	Run3	repeat/STIM_012.jpg	100
2562.277	0.875	875.4	repeat	Run3	repeat/STIM_013.jpg	99
2567.211	0.821	820.6	repeat	Run3	repeat/STIM_013.jpg	100
2571.55	0.581	581.3	repeat	Run3	repeat/STIM_013.jpg	99
2575.321	0.698	698.4	repeat	Run3	repeat/STIM_013.jpg	99
2579.645	0.829	829.0	repeat	Run3	repeat/STIM_013.jpg	99
2583.757	0.824	824.1	repeat	Run3	repeat/STIM_014.jpg	99
2588.605	0.606	605.5	repeat	Run3	repeat/STIM_014.jpg	99
2592.38	0.463	463.1	repeat	Run3	repeat/STIM_014.jpg	100
2596.521	0.708	707.7	repeat	Run3	repeat/STIM_014.jpg	100
2599.888	0.514	514.3	repeat	Run3	repeat/STIM_014.jpg	100
2602.513	1.174	1174.2	generate	Run4	generate/STIM_000.jpg	100
2607.405	1.132	1131.7	generate	Run4	generate/STIM_000.jpg	99
2611.348	1.151	1151.1	generate	Run4	generate/STIM_000.jpg	100
2614.999	0.889	889.1	generate	Run4	generate/STIM_000.jpg	100
2619.767	1.145	1144.7	generate	Run4	generate/STIM_000.jpg	100
2624.709	0.939	939.1	generate	Run4	generate/STIM_001.jpg	100
2629.563	1.841	1840.8	generate	Run4	generate/STIM_001.jpg	100
2634.035	1.599	1598.9	generate	Run4	generate/STIM_001.jpg	100
2637.855	1.812	1812.2	generate	Run4	generate/STIM_001.jpg	100
2643.804	1.031	1030.6	generate	Run4	generate/STIM_001.jpg	99
2648.671	1.563	1563.0	generate	Run4	generate/STIM_002.jpg	100
2652.823	0.839	838.9	generate	Run4	generate/STIM_002.jpg	99
2656.847	1.553	1553.2	generate	Run4	generate/STIM_002.jpg	100
2662.499	1.346	1346.4	generate	Run4	generate/STIM_002.jpg	100
2667.647	1.3	1299.8	generate	Run4	generate/STIM_002.jpg	99
2671.099	1.719	1719.1	generate	Run4	generate/STIM_003.jpg	100
2676.546	1.545	1545.4	generate	Run4	generate/STIM_003.jpg	100
2681.478	1.371	1370.6	generate	Run4	generate/STIM_003.jpg	100
2686.539	1.884	1884.3	generate	Run4	generate/STIM_003.jpg	100
2691.853	1.224	1224.2	generate	Run4	generate/STIM_003.jpg	99
2696.518	1.31	1310.1	generate	Run4	generate/STIM_004.jpg	100
2700.982	1.903	1903.3	generate	Run4	generate/STIM_004.jpg	99
2706.334	0.929	929.0	generate	Run4	generate/STIM_004.jpg	100
2710.735	1.61	1610.5	generate	Run4	generate/STIM_004.jpg	99
2715.931	0.822	822.4	generate	Run4	generate/STIM_004.jpg	100
2719.347	1.093	1093.1	generate	Run4	generate/STIM_005.jpg	100
2723.313	0.97	970.5	generate	Run4	generate/STIM_005.jpg	99
2727.96	1.852	1852.1	generate	Run4	generate/STIM_005.jpg	100
2732.004	0.793	792.6	generate	Run4	generate/STIM_005.jpg	99
2736.115	1.041	1040.8	generate	Run4	generate/STIM_005.jpg	99
2741.022	1.703	1703.3	generate	Run4	generate/STIM_006.jpg	100
2746.339	1.244	1243.8	generate	Run4	generate/STIM_006.jpg	99
2749.946	1.304	1304.0	generate	Run4	generate/STIM_006.jpg	99
2753.833	1.853	1852.7	generate	Run4	generate/STIM_006.jpg	100
2757.954	1.685	1685.1	generate	Run4	generate/STIM_006.jpg	99
2763.309	1.234	1233.9	generate	Run4	generate/STIM_007.jpg	99
2767.709	1.011	1011.3	generate	Run4	generate/STIM_007.jpg	99
2772.065	1.408	1408.3	generate	Run4	generate/STIM_007.jpg	100
2775.832	0.999	999.0	generate	Run4	generate/STIM_007.jpg	100
2780.899	1.112	1111.8	generate	Run4	generate/STIM_007.jpg	100
2784.415	0.776	776.3	generate	Run4	generate/STIM_008.jpg	99
2788.777	0.866	865.6	generate	Run4	generate/STIM_008.jpg	99
2792.989	1.244	1243.6	generate	Run4	generate/STIM_008.jpg	99
2797.1	1.582	1581.6	generate	Run4	generate/STIM_008.jpg	100
2802.383	0.777	777.2	generate	Run4	generate/STIM_008.jpg	100
2805.27	1.802	1802.0	generate	Run4	generate/STIM_009.jpg	99
2810.663	1.585	1585.1	generate	Run4	generate/STIM_009.jpg	99
2816.227	1.485	1484.8	generate	Run4	generate/STIM_009.jpg	100
2821.786	1.322	1321.7	generate	Run4	generate/STIM_009.jpg	100
2826.28	1.699	1699.0	generate	Run4	generate/STIM_009.jpg	99
2830.691	1.548	1547.8	generate	Run4	generate/STIM_010.jpg	99
2835.56	1.712	1712.2	generate	Run4	generate/STIM_010.jpg	100
2839.536	1.695	1695.1	generate	Run4	generate/STIM_010.jpg	99
2843.662	1.538	1537.7	generate	Run4	generate/STIM_010.jpg	100
2848.638	1.78	1779.7	generate	Run4	generate/STIM_010.jpg	99
2852.898	1.812	1812.4	generate	Run4	generate/STIM_011.jpg	99
2858.407	0.897	896.6	generate	Run4	generate/STIM_011.jpg	100
2861.582	1.905	1905.4	generate	Run4	generate/STIM_011.jpg	99
2866.659	1.65	1650.1	generate	Run4	generate/STIM_011.jpg	99
2871.722	1.833	1833.2	generate	Run4	generate/STIM_011.jpg	100
2877.278	1.307	1307.2	generate	Run4	generate/STIM_012.jpg	100
2881.416	1.727	1727.4	generate	Run4	generate/STIM_012.jpg	99
2885.86	1.035	1034.6	generate	Run4	generate/STIM_012.jpg	100
2889.203	1.064	1064.0	generate	Run4	generate/STIM_012.jpg	99
2892.764	0.796	795.5	generate	Run4	generate/STIM_012.jpg	100
2896.121	1.23	1230.3	generate	Run4	generate/STIM_013.jpg	100
2901.001	1.065	1064.8	generate	Run4	generate/STIM_013.jpg	99
2906.041	1.406	1405.6	generate	Run4	generate/STIM_013.jpg	99
2910.7	1.623	1622.8	generate	Run4	generate/STIM_013.jpg	99
2915.529	1.155	1154.9	generate	Run4	generate/STIM_013.jpg	99
2919.844	1.227	1227.3	generate	Run4	generate/STIM_014.jpg	99
2925.098	1.253	1253.2	generate	Run4	generate/STIM_014.jpg	100
2928.753	1.653	1653.0	generate	Run4	generate/STIM_014.jpg	100
2932.907	0.936	936.3	generate	Run4	generate/STIM_014.jpg	100
2937.812	0.805	805.2	generate	Run4	generate/STIM_014.jpg	100
2942.3	1.454	1453.7	generate	Run4	generate/STIM_015.jpg	99
2946.199	1.416	1416.0	generate	Run4	generate/STIM_015.jpg	99
2949.918	1.196	1196.2	generate	Run4	generate/STIM_015.jpg	99
2953.817	1.753	1752.7	generate	Run4	generate/STIM_015.jpg	99
2957.876	1.512	1511.5	generate	Run4	generate/STIM_015.jpg	100
2962.548	0.804	804.2	generate	Run4	generate/STIM_016.jpg	100
2966.204	0.829	829.0	generate	Run4	generate/STIM_016.jpg	99
2969.891	1.053	1052.8	generate	Run4	generate/STIM_016.jpg	99
2973.605	1.358	1358.4	generate	Run4	generate/STIM_016.jpg	100
2978.163	1.598	1597.8	generate	Run4	generate/STIM_016.jpg	100
2983.207	1.785	1785.1	generate	Run4	generate/STIM_017.jpg	100
2987.754	1.227	1227.3	generate	Run4	generate/STIM_017.jpg	99
2992.039	1.461	1461.0	generate	Run4	generate/STIM_017.jpg	100
2997.382	1.336	1335.7	generate	Run4	generate/STIM_017.jpg	99
3002.443	1.782	1782.4	generate	Run4	generate/STIM_017.jpg	99
3006.801	1.752	1751.9	generate	Run4	generate/STIM_018.jpg	99
3010.915	1.344	1344.4	generate	Run4	generate/STIM_018.jpg	100
3015.959	1.58	1579.8	generate	Run4	generate/STIM_018.jpg	100
3020.117	1.402	1401.8	generate	Run4	generate/STIM_018.jpg	99
3025.501	0.919	918.9	generate	Run4	generate/STIM_018.jpg	99
3029.009	1.764	1764.5	generate	Run4	generate/STIM_019.jpg	100
3033.845	1.694	1694.2	generate	Run4	generate/STIM_019.jpg	100
3038.818	1.89	1890.4	generate	Run4	generate/STIM_019.jpg	100
3043.146	1.782	1782.3	generate	Run4	generate/STIM_019.jpg	99
3048.036	0.995	995.1	generate	Run4	generate/STIM_019.jpg	99
3051.191	1.664	1663.7	generate	Run4	generate/STIM_020.jpg	100
3055.265	1.739	1739.3	generate	Run4	generate/STIM_020.jpg	99
3059.893	1.162	1161.5	generate	Run4	generate/STIM_020.jpg	99
3064.697	1.552	1552.0	generate	Run4	generate/STIM_020.jpg	99
3069.832	1.77	1769.7	generate	Run4	generate/STIM_020.jpg	100
3074.787	1.261	1260.6	generate	Run4	generate/STIM_021.jpg	100
3080.027	1.325	1324.6	generate	Run4	generate/STIM_021.jpg	99
3084.537	1.522	1521.6	generate	Run4	generate/STIM_021.jpg	100
3088.361	1.024	1024.2	generate	Run4	generate/STIM_021.jpg	100
3092.939	1.524	1524.5	generate	Run4	generate/STIM_021.jpg	99
3096.959	1.522	1521.8	generate	Run4	generate/STIM_022.jpg	100
3101.8	0.802	801.9	generate	Run4	generate/STIM_022.jpg	99
3104.864	1.894	1893.6	generate	Run4	generate/STIM_022.jpg	100
3110.778	1.335	1334.8	generate	Run4	generate/STIM_022.jpg	99
3115.521	1.177	1177.2	generate	Run4	generate/STIM_022.jpg	99
3120.678	1.895	1895.3	generate	Run4	generate/STIM_023.jpg	100
3126.105	0.935	935.1	generate	Run4	generate/STIM_023.jpg	99
3130.352	1.696	1696.2	generate	Run4	generate/STIM_023.jpg	100
3135.311	1.592	1591.6	generate	Run4	generate/STIM_023.jpg	100
3140.319	0.916	916.5	generate	Run4	generate/STIM_023.jpg	100
3144.426	1.661	1660.8	generate	Run4	generate/STIM_024.jpg	99
3148.885	1.603	1602.8	generate	Run4	generate/STIM_024.jpg	100
3154.016	1.79	1789.6	generate	Run4	generate/STIM_024.jpg	100
3159.113	1.005	1005.1	generate	Run4	generate/STIM_024.jpg	99
3162.825	1.232	1231.6	generate	Run4	generate/STIM_024.jpg	100
3167.031	0.769	768.7	repeat	Run4	repeat/STIM_000.jpg	100
3171.822	0.864	864.1	repeat	Run4	repeat/STIM_000.jpg	99
3176.567	0.601	600.6	repeat	Run4	repeat/STIM_000.jpg	99
3180.711	0.651	651.3	repeat	Run4	repeat/STIM_000.jpg	99
3183.487	0.658	658.5	repeat	Run4	repeat/STIM_000.jpg	99
3187.762	0.697	696.8	repeat	Run4	repeat/STIM_001.jpg	99
3191.545	0.499	499.2	repeat	Run4	repeat/STIM_001.jpg	100
3195.327	0.687	687.0	repeat	Run4	repeat/STIM_001.jpg	99
3199.151	0.901	901.3	repeat	Run4	repeat/STIM_001.jpg	100
3202.593	0.549	549.1	repeat	Run4	repeat/STIM_001.jpg	100
3205.711	0.684	683.8	repeat	Run4	repeat/STIM_002.jpg	99
3210.382	0.667	666.6	repeat	Run4	repeat/STIM_002.jpg	99
3214.334	0.882	881.6	repeat	Run4	repeat/STIM_002.jpg	99
3218.624	0.571	570.7	repeat	Run4	repeat/STIM_002.jpg	99
3222.182	0.73	730.2	repeat	Run4	repeat/STIM_002.jpg	99
3225.978	0.859	858.6	repeat	Run4	repeat/STIM_003.jpg	99
3229.399	0.578	578.0	repeat	Run4	repeat/STIM_003.jpg	99
3232.707	0.51	510.3	repeat	Run4	repeat/STIM_003.jpg	99
3236.446	0.742	741.9	repeat	Run4	repeat/STIM_003.jpg	100
3240.883	0.707	706.7	repeat	Run4	repeat/STIM_003.jpg	99
3244.132	0.642	641.9	repeat	Run4	repeat/STIM_004.jpg	99
3248.102	0.694	693.7	repeat	Run4	repeat/STIM_004.jpg	100
3251.097	0.719	718.7	repeat	Run4	repeat/STIM_004.jpg	100
3255.788	0.749	748.6	repeat	Run4	repeat/STIM_004.jpg	99
3260.134	0.636	635.6	repeat	Run4	repeat/STIM_004.jpg	100
3263.523	0.527	527.4	repeat	Run4	repeat/STIM_005.jpg	99
3266.962	0.867	866.8	repeat	Run4	repeat/STIM_005.jpg	100
3271.447	0.717	717.4	repeat	Run4	repeat/STIM_005.jpg	100
3275.469	0.81	810.1	repeat	Run4	repeat/STIM_005.jpg	100
3279.744	0.631	630.8	repeat	Run4	repeat/STIM_005.jpg	99
3284.415	0.749	749.3	repeat	Run4	repeat/STIM_006.jpg	99
3288.266	0.814	813.9	repeat	Run4	repeat/STIM_006.jpg	100
3292.15	0.828	827.5	repeat	Run4	repeat/STIM_006.jpg	99
3296.842	0.483	482.8	repeat	Run4	repeat/STIM_006.jpg	100
3301.039	0.588	587.7	repeat	Run4	repeat/STIM_006.jpg	100
3305.478	0.774	774.0	repeat	Run4	repeat/STIM_007.jpg	99
3310.027	0.495	495.2	repeat	Run4	repeat/STIM_007.jpg	99
3314.375	0.897	897.0	repeat	Run4	repeat/STIM_007.jpg	99
3318.122	0.661	660.7	repeat	Run4	repeat/STIM_007.jpg	99
3322.324	0.711	711.3	repeat	Run4	repeat/STIM_007.jpg	100
3326.248	0.822	822.1	repeat	Run4	repeat/STIM_008.jpg	99
3330.35	0.828	827.9	repeat	Run4	repeat/STIM_008.jpg	99
3335.112	0.613	613.0	repeat	Run4	repeat/STIM_008.jpg	100
3339.339	0.874	873.8	repeat	Run4	repeat/STIM_008.jpg	100
3344.1	0.533	533.4	repeat	Run4	repeat/STIM_008.jpg	99
3347.231	0.639	639.2	repeat	Run4	repeat/STIM_009.jpg	99
3350.55	0.511	510.9	repeat	Run4	repeat/STIM_009.jpg	100
3353.312	0.542	541.6	repeat	Run4	repeat/STIM_009.jpg	100
3357.574	0.894	894.5	repeat	Run4	repeat/STIM_009.jpg	100
3360.728	0.557	557.2	repeat	Run4	repeat/STIM_009.jpg	100
3363.981	0.484	483.8	repeat	Run4	repeat/STIM_010.jpg	99
3367.303	0.46	459.6	repeat	Run4	repeat/STIM_010.jpg	100
3370.538	0.763	762.9	repeat	Run4	repeat/STIM_010.jpg	100
3373.523	0.748	748.2	repeat	Run4	repeat/STIM_010.jpg	100
3376.949	0.814	814.2	repeat	Run4	repeat/STIM_010.jpg	99
3379.994	0.54	540.1	repeat	Run4	repeat/STIM_011.jpg	100
3383.726	0.679	679.2	repeat	Run4	repeat/STIM_011.jpg	99
3388.451	0.58	579.7	repeat	Run4	repeat/STIM_011.jpg	99
3391.677	0.629	629.2	repeat	Run4	repeat/STIM_011.jpg	100
3394.621	0.899	899.2	repeat	Run4	repeat/STIM_011.jpg	99
3399.166	0.459	459.2	repeat	Run4	repeat/STIM_012.jpg	99
3402.635	0.515	515.2	repeat	Run4	repeat/STIM_012.jpg	99
3405.56	0.881	880.8	repeat	Run4	repeat/STIM_012.jpg	99
3409.035	0.535	534.8	repeat	Run4	repeat/STIM_012.jpg	99
3412.928	0.755	755.4	repeat	Run4	repeat/STIM_012.jpg	99
3416.152	0.858	858.1	repeat	Run4	repeat/STIM_013.jpg	100
3420.146	0.633	633.3	repeat	Run4	repeat/STIM_013.jpg	99
3424.565	0.78	779.8	repeat	Run4	repeat/STIM_013.jpg	99
3427.557	0.705	704.7	repeat	Run4	repeat/STIM_013.jpg	100
3431.0	0.666	665.8	repeat	Run4	repeat/STIM_013.jpg	100
3433.78	0.682	682.4	repeat	Run4	repeat/STIM_014.jpg	99
3437.847	0.739	739.3	repeat	Run4	repeat/STIM_014.jpg	99
3440.965	0.672	671.8	repeat	Run4	repeat/STIM_014.jpg	100
3443.7	0.696	695.8	repeat	Run4	repeat/STIM_014.jpg	99
3447.944	0.729	729.1	repeat	Run4	repeat/STIM_014.jpg	99
