onset	duration	accuracy_binary	trial_type	learning_stage	stimulus
0.0	2.192	0	generate	Run1	generate/STIM_000.jpg
5.627	2.224	1	generate	Run1	generate/STIM_000.jpg
11.516	2.332	1	generate	Run1	generate/STIM_000.jpg
17.022	1.345	1	generate	Run1	generate/STIM_000.jpg
20.84	1.613	1	generate	Run1	generate/STIM_000.jpg
25.977	2.214	1	generate	Run1	generate/STIM_001.jpg
32.151	2.54	1	generate	Run1	generate/STIM_001.jpg
37.94	1.178	1	generate	Run1	generate/STIM_001.jpg
41.623	1.774	1	generate	Run1	generate/STIM_001.jpg
47.343	1.972	0	generate	Run1	generate/STIM_001.jpg
52.094	1.501	0	generate	Run1	generate/STIM_002.jpg
56.616	1.273	0	generate	Run1	generate/STIM_002.jpg
61.845	1.933	1	generate	Run1	generate/STIM_002.jpg
67.709	1.821	1	generate	Run1	generate/STIM_002.jpg
72.321	1.267	1	generate	Run1	generate/STIM_002.jpg
75.783	2.659	1	generate	Run1	generate/STIM_003.jpg
82.019	2.61	1	generate	Run1	generate/STIM_003.jpg
88.731	1.997	1	generate	Run1	generate/STIM_003.jpg
93.427	1.759	1	generate	Run1	generate/STIM_003.jpg
97.945	1.725	0	generate	Run1	generate/STIM_003.jpg
103.482	1.338	1	generate	Run1	generate/STIM_004.jpg
108.594	2.091	1	generate	Run1	generate/STIM_004.jpg
113.412	1.614	0	generate	Run1	generate/STIM_004.jpg
117.382	2.284	1	generate	Run1	generate/STIM_004.jpg
123.328	1.819	0	generate	Run1	generate/STIM_004.jpg
128.903	1.595	1	generate	Run1	generate/STIM_005.jpg
134.613	2.47	0	generate	Run1	generate/STIM_005.jpg
141.108	2.086	0	generate	Run1	generate/STIM_005.jpg
146.731	1.902	1	generate	Run1	generate/STIM_005.jpg
152.026	1.613	1	generate	Run1	generate/STIM_005.jpg
157.017	2.489	1	generate	Run1	generate/STIM_006.jpg
161.856	2.196	1	generate	Run1	generate/STIM_006.jpg
167.984	1.102	1	generate	Run1	generate/STIM_006.jpg
172.361	2.172	1	generate	Run1	generate/STIM_006.jpg
177.23	1.519	1	generate	Run1	generate/STIM_006.jpg
181.473	2.262	1	generate	Run1	generate/STIM_007.jpg
187.539	1.808	1	generate	Run1	generate/STIM_007.jpg
193.437	1.198	0	generate	Run1	generate/STIM_007.jpg
198.167	1.581	0	generate	Run1	generate/STIM_007.jpg
203.719	1.821	1	generate	Run1	generate/STIM_007.jpg
208.282	1.389	1	generate	Run1	generate/STIM_008.jpg
212.941	1.531	1	generate	Run1	generate/STIM_008.jpg
218.277	2.222	0	generate	Run1	generate/STIM_008.jpg
223.693	1.074	1	generate	Run1	generate/STIM_008.jpg
227.547	2.008	1	generate	Run1	generate/STIM_008.jpg
232.156	1.594	1	generate	Run1	generate/STIM_009.jpg
236.85	2.411	1	generate	Run1	generate/STIM_009.jpg
241.929	1.586	1	generate	Run1	generate/STIM_009.jpg
246.705	2.305	1	generate	Run1	generate/STIM_009.jpg
253.213	1.93	1	generate	Run1	generate/STIM_009.jpg
258.539	2.017	0	generate	Run1	generate/STIM_010.jpg
262.864	1.774	0	generate	Run1	generate/STIM_010.jpg
266.867	1.463	1	generate	Run1	generate/STIM_010.jpg
271.942	1.402	1	generate	Run1	generate/STIM_010.jpg
276.399	1.689	0	generate	Run1	generate/STIM_010.jpg
281.314	1.992	1	generate	Run1	generate/STIM_011.jpg
287.002	1.051	1	generate	Run1	generate/STIM_011.jpg
291.911	2.062	1	generate	Run1	generate/STIM_011.jpg
297.876	2.229	1	generate	Run1	generate/STIM_011.jpg
303.039	1.441	0	generate	Run1	generate/STIM_011.jpg
307.524	2.359	0	generate	Run1	generate/STIM_012.jpg
314.053	1.135	1	generate	Run1	generate/STIM_012.jpg
318.572	2.24	1	generate	Run1	generate/STIM_012.jpg
324.88	0.975	1	generate	Run1	generate/STIM_012.jpg
329.752	1.768	1	generate	Run1	generate/STIM_012.jpg
335.541	1.417	0	generate	Run1	generate/STIM_013.jpg
340.454	1.976	0	generate	Run1	generate/STIM_013.jpg
346.21	1.698	1	generate	Run1	generate/STIM_013.jpg
351.087	1.969	1	generate	Run1	generate/STIM_013.jpg
355.721	1.687	1	generate	Run1	generate/STIM_013.jpg
360.542	2.429	1	generate	Run1	generate/STIM_014.jpg
366.248	1.735	1	generate	Run1	generate/STIM_014.jpg
371.386	1.249	1	generate	Run1	generate/STIM_014.jpg
375.282	1.982	1	generate	Run1	generate/STIM_014.jpg
380.682	0.964	0	generate	Run1	generate/STIM_014.jpg
385.196	2.028	1	generate	Run1	generate/STIM_015.jpg
390.272	1.264	1	generate	Run1	generate/STIM_015.jpg
395.563	2.032	0	generate	Run1	generate/STIM_015.jpg
399.908	1.814	1	generate	Run1	generate/STIM_015.jpg
404.401	1.143	0	generate	Run1	generate/STIM_015.jpg
408.636	2.721	1	generate	Run1	generate/STIM_016.jpg
414.505	1.779	0	generate	Run1	generate/STIM_016.jpg
419.561	2.106	1	generate	Run1	generate/STIM_016.jpg
424.649	1.149	1	generate	Run1	generate/STIM_016.jpg
429.866	1.508	1	generate	Run1	generate/STIM_016.jpg
434.929	1.385	1	generate	Run1	generate/STIM_017.jpg
439.794	1.926	1	generate	Run1	generate/STIM_017.jpg
445.047	1.104	1	generate	Run1	generate/STIM_017.jpg
449.524	1.688	1	generate	Run1	generate/STIM_017.jpg
454.065	1.213	0	generate	Run1	generate/STIM_017.jpg
457.421	2.14	0	generate	Run1	generate/STIM_018.jpg
462.132	2.576	1	generate	Run1	generate/STIM_018.jpg
467.654	1.492	1	generate	Run1	generate/STIM_018.jpg
471.558	1.382	0	generate	Run1	generate/STIM_018.jpg
475.403	1.172	1	generate	Run1	generate/STIM_018.jpg
480.396	2.424	1	generate	Run1	generate/STIM_019.jpg
485.725	1.746	1	generate	Run1	generate/STIM_019.jpg
490.641	2.178	1	generate	Run1	generate/STIM_019.jpg
495.826	1.03	1	generate	Run1	generate/STIM_019.jpg
499.975	1.642	1	generate	Run1	generate/STIM_019.jpg
504.091	1.23	1	generate	Run1	generate/STIM_020.jpg
509.043	1.141	1	generate	Run1	generate/STIM_020.jpg
512.4	1.065	1	generate	Run1	generate/STIM_020.jpg
515.73	1.875	1	generate	Run1	generate/STIM_020.jpg
520.507	2.173	1	generate	Run1	generate/STIM_020.jpg
525.363	1.96	1	generate	Run1	generate/STIM_021.jpg
530.571	1.547	1	generate	Run1	generate/STIM_021.jpg
535.494	2.202	1	generate	Run1	generate/STIM_021.jpg
539.972	1.038	1	generate	Run1	generate/STIM_021.jpg
544.285	1.977	1	generate	Run1	generate/STIM_021.jpg
550.199	1.885	1	generate	Run1	generate/STIM_022.jpg
554.619	2.591	1	generate	Run1	generate/STIM_022.jpg
559.817	1.827	1	generate	Run1	generate/STIM_022.jpg
563.991	1.319	1	generate	Run1	generate/STIM_022.jpg
567.931	1.749	1	generate	Run1	generate/STIM_022.jpg
571.928	2.038	1	generate	Run1	generate/STIM_023.jpg
577.253	1.154	1	generate	Run1	generate/STIM_023.jpg
580.649	1.14	1	generate	Run1	generate/STIM_023.jpg
584.662	1.392	1	generate	Run1	generate/STIM_023.jpg
588.403	1.84	1	generate	Run1	generate/STIM_023.jpg
593.609	1.592	1	generate	Run1	generate/STIM_024.jpg
598.408	1.154	1	generate	Run1	generate/STIM_024.jpg
603.294	2.365	1	generate	Run1	generate/STIM_024.jpg
609.353	1.202	0	generate	Run1	generate/STIM_024.jpg
613.028	1.216	1	generate	Run1	generate/STIM_024.jpg
617.958	0.795	1	repeat	Run1	repeat/STIM_000.jpg
621.887	0.691	1	repeat	Run1	repeat/STIM_000.jpg
625.965	0.655	1	repeat	Run1	repeat/STIM_000.jpg
628.802	0.851	1	repeat	Run1	repeat/STIM_000.jpg
632.25	0.545	1	repeat	Run1	repeat/STIM_000.jpg
635.718	0.809	1	repeat	Run1	repeat/STIM_001.jpg
638.82	0.795	1	repeat	Run1	repeat/STIM_001.jpg
642.033	0.894	1	repeat	Run1	repeat/STIM_001.jpg
646.973	0.602	1	repeat	Run1	repeat/STIM_001.jpg
651.24	0.489	0	repeat	Run1	repeat/STIM_001.jpg
654.783	0.834	1	repeat	Run1	repeat/STIM_002.jpg
659.546	0.777	1	repeat	Run1	repeat/STIM_002.jpg
664.318	0.642	1	repeat	Run1	repeat/STIM_002.jpg
668.94	0.564	1	repeat	Run1	repeat/STIM_002.jpg
672.029	0.808	1	repeat	Run1	repeat/STIM_002.jpg
676.56	0.788	1	repeat	Run1	repeat/STIM_003.jpg
680.257	0.755	1	repeat	Run1	repeat/STIM_003.jpg
683.807	0.821	1	repeat	Run1	repeat/STIM_003.jpg
687.623	0.547	1	repeat	Run1	repeat/STIM_003.jpg
690.588	0.771	0	repeat	Run1	repeat/STIM_003.jpg
693.605	0.48	1	repeat	Run1	repeat/STIM_004.jpg
698.112	0.465	1	repeat	Run1	repeat/STIM_004.jpg
700.996	0.881	1	repeat	Run1	repeat/STIM_004.jpg
705.307	0.609	1	repeat	Run1	repeat/STIM_004.jpg
708.606	0.475	1	repeat	Run1	repeat/STIM_004.jpg
712.881	0.602	1	repeat	Run1	repeat/STIM_005.jpg
716.089	0.754	1	repeat	Run1	repeat/STIM_005.jpg
720.254	0.478	1	repeat	Run1	repeat/STIM_005.jpg
723.872	0.573	1	repeat	Run1	repeat/STIM_005.jpg
727.409	0.873	1	repeat	Run1	repeat/STIM_005.jpg
731.784	0.78	1	repeat	Run1	repeat/STIM_006.jpg
735.99	0.717	1	repeat	Run1	repeat/STIM_006.jpg
740.169	0.865	1	repeat	Run1	repeat/STIM_006.jpg
743.956	0.823	1	repeat	Run1	repeat/STIM_006.jpg
748.714	0.512	1	repeat	Run1	repeat/STIM_006.jpg
751.339	0.539	1	repeat	Run1	repeat/STIM_007.jpg
755.493	0.865	1	repeat	Run1	repeat/STIM_007.jpg
760.267	0.848	0	repeat	Run1	repeat/STIM_007.jpg
764.127	0.835	1	repeat	Run1	repeat/STIM_007.jpg
767.523	0.469	1	repeat	Run1	repeat/STIM_007.jpg
770.423	0.814	1	repeat	Run1	repeat/STIM_008.jpg
773.467	0.622	1	repeat	Run1	repeat/STIM_008.jpg
777.115	0.53	1	repeat	Run1	repeat/STIM_008.jpg
780.141	0.551	1	repeat	Run1	repeat/STIM_008.jpg
783.103	0.685	1	repeat	Run1	repeat/STIM_008.jpg
786.147	0.559	1	repeat	Run1	repeat/STIM_009.jpg
789.846	0.712	1	repeat	Run1	repeat/STIM_009.jpg
793.906	0.669	1	repeat	Run1	repeat/STIM_009.jpg
797.273	0.5	1	repeat	Run1	repeat/STIM_009.jpg
800.844	0.596	1	repeat	Run1	repeat/STIM_009.jpg
804.75	0.568	1	repeat	Run1	repeat/STIM_010.jpg
808.174	0.633	1	repeat	Run1	repeat/STIM_010.jpg
812.743	0.495	1	repeat	Run1	repeat/STIM_010.jpg
816.122	0.79	1	repeat	Run1	repeat/STIM_010.jpg
820.338	0.69	0	repeat	Run1	repeat/STIM_010.jpg
824.989	0.78	1	repeat	Run1	repeat/STIM_011.jpg
828.418	0.748	1	repeat	Run1	repeat/STIM_011.jpg
832.227	0.591	1	repeat	Run1	repeat/STIM_011.jpg
835.023	0.789	1	repeat	Run1	repeat/STIM_011.jpg
838.76	0.62	1	repeat	Run1	repeat/STIM_011.jpg
841.648	0.685	1	repeat	Run1	repeat/STIM_012.jpg
844.655	0.705	1	repeat	Run1	repeat/STIM_012.jpg
849.235	0.844	1	repeat	Run1	repeat/STIM_012.jpg
853.64	0.563	1	repeat	Run1	repeat/STIM_012.jpg
857.525	0.64	1	repeat	Run1	repeat/STIM_012.jpg
861.571	0.791	1	repeat	Run1	repeat/STIM_013.jpg
865.613	0.77	1	repeat	Run1	repeat/STIM_013.jpg
870.266	0.854	1	repeat	Run1	repeat/STIM_013.jpg
873.83	0.587	1	repeat	Run1	repeat/STIM_013.jpg
878.236	0.693	1	repeat	Run1	repeat/STIM_013.jpg
881.683	0.895	1	repeat	Run1	repeat/STIM_014.jpg
886.608	0.796	1	repeat	Run1	repeat/STIM_014.jpg
889.617	0.685	1	repeat	Run1	repeat/STIM_014.jpg
893.809	0.72	1	repeat	Run1	repeat/STIM_014.jpg
898.519	0.668	1	repeat	Run1	repeat/STIM_014.jpg
903.1	2.163	1	generate	Run2	generate/STIM_000.jpg
909.405	2.146	1	generate	Run2	generate/STIM_000.jpg
914.128	0.904	1	generate	Run2	generate/STIM_000.jpg
917.232	1.143	1	generate	Run2	generate/STIM_000.jpg
922.223	0.988	1	generate	Run2	generate/STIM_000.jpg
926.012	1.906	1	generate	Run2	generate/STIM_001.jpg
930.391	0.952	1	generate	Run2	generate/STIM_001.jpg
934.518	1.71	0	generate	Run2	generate/STIM_001.jpg
939.59	1.126	1	generate	Run2	generate/STIM_001.jpg
944.231	0.993	1	generate	Run2	generate/STIM_001.jpg
949.193	1.283	1	generate	Run2	generate/STIM_002.jpg
953.206	1.54	0	generate	Run2	generate/STIM_002.jpg
958.368	1.874	0	generate	Run2	generate/STIM_002.jpg
963.049	1.172	1	generate	Run2	generate/STIM_002.jpg
966.893	0.853	1	generate	Run2	generate/STIM_002.jpg
970.868	2.036	1	generate	Run2	generate/STIM_003.jpg
976.112	1.965	1	generate	Run2	generate/STIM_003.jpg
982.148	1.278	0	generate	Run2	generate/STIM_003.jpg
986.361	0.996	0	generate	Run2	generate/STIM_003.jpg
989.981	1.376	1	generate	Run2	generate/STIM_003.jpg
994.69	1.52	0	generate	Run2	generate/STIM_004.jpg
998.979	0.922	1	generate	Run2	generate/STIM_004.jpg
1003.552	1.465	1	generate	Run2	generate/STIM_004.jpg
1007.181	1.279	1	generate	Run2	generate/STIM_004.jpg
1012.142	1.483	1	generate	Run2	generate/STIM_004.jpg
1017.114	1.899	1	generate	Run2	generate/STIM_005.jpg
1021.629	1.171	1	generate	Run2	generate/STIM_005.jpg
1026.265	1.484	1	generate	Run2	generate/STIM_005.jpg
1030.669	1.438	1	generate	Run2	generate/STIM_005.jpg
1035.782	1.229	1	generate	Run2	generate/STIM_005.jpg
1040.213	1.054	1	generate	Run2	generate/STIM_006.jpg
1043.75	1.977	1	generate	Run2	generate/STIM_006.jpg
1049.197	1.846	0	generate	Run2	generate/STIM_006.jpg
1054.748	1.704	1	generate	Run2	generate/STIM_006.jpg
1059.179	0.81	1	generate	Run2	generate/STIM_006.jpg
1062.438	2.283	1	generate	Run2	generate/STIM_007.jpg
1067.068	1.678	0	generate	Run2	generate/STIM_007.jpg
1071.588	1.086	0	generate	Run2	generate/STIM_007.jpg
1075.629	1.229	1	generate	Run2	generate/STIM_007.jpg
1080.789	0.804	1	generate	Run2	generate/STIM_007.jpg
1084.613	1.266	1	generate	Run2	generate/STIM_008.jpg
1088.252	0.896	1	generate	Run2	generate/STIM_008.jpg
1093.148	2.04	1	generate	Run2	generate/STIM_008.jpg
1099.026	1.712	1	generate	Run2	generate/STIM_008.jpg
1102.964	1.416	1	generate	Run2	generate/STIM_008.jpg
1108.319	1.682	1	generate	Run2	generate/STIM_009.jpg
1113.269	1.388	1	generate	Run2	generate/STIM_009.jpg
1118.104	0.904	1	generate	Run2	generate/STIM_009.jpg
1122.833	1.545	1	generate	Run2	generate/STIM_009.jpg
1127.946	1.244	1	generate	Run2	generate/STIM_009.jpg
1133.054	2.278	1	generate	Run2	generate/STIM_010.jpg
1139.362	1.418	1	generate	Run2	generate/STIM_010.jpg
1143.031	1.094	1	generate	Run2	generate/STIM_010.jpg
1146.892	1.701	1	generate	Run2	generate/STIM_010.jpg
1150.817	1.531	1	generate	Run2	generate/STIM_010.jpg
1156.309	1.37	1	generate	Run2	generate/STIM_011.jpg
1160.293	0.947	0	generate	Run2	generate/STIM_011.jpg
1165.043	1.143	1	generate	Run2	generate/STIM_011.jpg
1169.19	1.495	1	generate	Run2	generate/STIM_011.jpg
1172.955	1.835	0	generate	Run2	generate/STIM_011.jpg
1178.606	1.716	1	generate	Run2	generate/STIM_012.jpg
1184.02	1.634	0	generate	Run2	generate/STIM_012.jpg
1188.376	1.927	1	generate	Run2	generate/STIM_012.jpg
1194.334	1.722	0	generate	Run2	generate/STIM_012.jpg
1198.694	1.134	1	generate	Run2	generate/STIM_012.jpg
1203.687	1.71	1	generate	Run2	generate/STIM_013.jpg
1209.063	2.144	1	generate	Run2	generate/STIM_013.jpg
1215.222	1.74	1	generate	Run2	generate/STIM_013.jpg
1220.426	1.758	1	generate	Run2	generate/STIM_013.jpg
1226.136	1.531	1	generate	Run2	generate/STIM_013.jpg
1230.9	2.333	1	generate	Run2	generate/STIM_014.jpg
1237.216	1.622	0	generate	Run2	generate/STIM_014.jpg
1242.341	1.721	1	generate	Run2	generate/STIM_014.jpg
1247.357	1.875	1	generate	Run2	generate/STIM_014.jpg
1253.396	1.498	1	generate	Run2	generate/STIM_014.jpg
1258.214	2.026	0	generate	Run2	generate/STIM_015.jpg
1264.395	1.903	1	generate	Run2	generate/STIM_015.jpg
1269.879	1.866	1	generate	Run2	generate/STIM_015.jpg
1274.082	0.939	1	generate	Run2	generate/STIM_015.jpg
1278.381	0.848	0	generate	Run2	generate/STIM_015.jpg
1283.122	1.334	1	generate	Run2	generate/STIM_016.jpg
1287.087	1.955	1	generate	Run2	generate/STIM_016.jpg
1291.766	0.909	1	generate	Run2	generate/STIM_016.jpg
1295.272	1.807	1	generate	Run2	generate/STIM_016.jpg
1300.152	1.536	1	generate	Run2	generate/STIM_016.jpg
1305.698	2.281	1	generate	Run2	generate/STIM_017.jpg
1311.634	1.488	1	generate	Run2	generate/STIM_017.jpg
1315.921	1.034	1	generate	Run2	generate/STIM_017.jpg
1319.133	1.712	1	generate	Run2	generate/STIM_017.jpg
1323.242	1.713	1	generate	Run2	generate/STIM_017.jpg
1327.607	1.603	1	generate	Run2	generate/STIM_018.jpg
1332.768	1.558	1	generate	Run2	generate/STIM_018.jpg
1338.315	1.394	1	generate	Run2	generate/STIM_018.jpg
1341.911	1.192	1	generate	Run2	generate/STIM_018.jpg
1346.531	1.667	1	generate	Run2	generate/STIM_018.jpg
1351.135	2.282	1	generate	Run2	generate/STIM_019.jpg
1355.649	1.258	0	generate	Run2	generate/STIM_019.jpg
1359.607	1.116	1	generate	Run2	generate/STIM_019.jpg
1363.667	0.94	1	generate	Run2	generate/STIM_019.jpg
1367.046	1.844	1	generate	Run2	generate/STIM_019.jpg
1371.304	1.722	0	generate	Run2	generate/STIM_020.jpg
1375.405	1.925	1	generate	Run2	generate/STIM_020.jpg
1381.332	1.618	1	generate	Run2	generate/STIM_020.jpg
1386.481	0.884	1	generate	Run2	generate/STIM_020.jpg
1390.619	1.128	1	generate	Run2	generate/STIM_020.jpg
1393.886	1.907	1	generate	Run2	generate/STIM_021.jpg
1398.575	1.758	0	generate	Run2	generate/STIM_021.jpg
1404.226	0.943	1	generate	Run2	generate/STIM_021.jpg
1408.863	1.639	1	generate	Run2	generate/STIM_021.jpg
1412.862	0.976	1	generate	Run2	generate/STIM_021.jpg
1416.473	1.477	0	generate	Run2	generate/STIM_022.jpg
1420.605	1.886	1	generate	Run2	generate/STIM_022.jpg
1424.816	1.872	1	generate	Run2	generate/STIM_022.jpg
1430.6	0.962	1	generate	Run2	generate/STIM_022.jpg
1435.592	1.347	1	generate	Run2	generate/STIM_022.jpg
1439.913	0.942	0	generate	Run2	generate/STIM_023.jpg
1444.562	1.628	1	generate	Run2	generate/STIM_023.jpg
1449.773	1.488	1	generate	Run2	generate/STIM_023.jpg
1453.7	1.309	1	generate	Run2	generate/STIM_023.jpg
1457.142	1.233	1	generate	Run2	generate/STIM_023.jpg
1460.962	1.377	1	generate	Run2	generate/STIM_024.jpg
1464.612	1.037	1	generate	Run2	generate/STIM_024.jpg
1468.777	1.097	0	generate	Run2	generate/STIM_024.jpg
1473.342	0.811	1	generate	Run2	generate/STIM_024.jpg
1477.027	1.858	1	generate	Run2	generate/STIM_024.jpg
1481.744	0.557	1	repeat	Run2	repeat/STIM_000.jpg
1484.816	0.909	1	repeat	Run2	repeat/STIM_000.jpg
1489.189	0.589	1	repeat	Run2	repeat/STIM_000.jpg
1493.233	0.742	1	repeat	Run2	repeat/STIM_000.jpg
1496.214	0.657	1	repeat	Run2	repeat/STIM_000.jpg
1500.606	0.846	0	repeat	Run2	repeat/STIM_001.jpg
1505.509	0.839	1	repeat	Run2	repeat/STIM_001.jpg
1510.132	0.744	1	repeat	Run2	repeat/STIM_001.jpg
1513.23	0.747	1	repeat	Run2	repeat/STIM_001.jpg
1516.627	0.635	1	repeat	Run2	repeat/STIM_001.jpg
1520.891	0.595	1	repeat	Run2	repeat/STIM_002.jpg
1523.987	0.656	1	repeat	Run2	repeat/STIM_002.jpg
1526.786	0.795	0	repeat	Run2	repeat/STIM_002.jpg
1530.829	0.793	1	repeat	Run2	repeat/STIM_002.jpg
1535.636	0.915	1	repeat	Run2	repeat/STIM_002.jpg
1539.963	0.797	1	repeat	Run2	repeat/STIM_003.jpg
1543.277	0.482	1	repeat	Run2	repeat/STIM_003.jpg
1546.352	0.79	1	repeat	Run2	repeat/STIM_003.jpg
1550.643	0.512	1	repeat	Run2	repeat/STIM_003.jpg
1554.848	0.506	1	repeat	Run2	repeat/STIM_003.jpg
1559.307	0.543	1	repeat	Run2	repeat/STIM_004.jpg
1563.153	0.898	0	repeat	Run2	repeat/STIM_004.jpg
1567.348	0.824	1	repeat	Run2	repeat/STIM_004.jpg
1571.422	0.708	0	repeat	Run2	repeat/STIM_004.jpg
1574.249	0.631	1	repeat	Run2	repeat/STIM_004.jpg
1578.227	0.837	1	repeat	Run2	repeat/STIM_005.jpg
1582.847	0.478	0	repeat	Run2	repeat/STIM_005.jpg
1585.419	0.683	1	repeat	Run2	repeat/STIM_005.jpg
1589.498	0.824	1	repeat	Run2	repeat/STIM_005.jpg
1593.977	0.782	1	repeat	Run2	repeat/STIM_005.jpg
1596.867	0.749	1	repeat	Run2	repeat/STIM_006.jpg
1600.272	0.82	1	repeat	Run2	repeat/STIM_006.jpg
1603.862	0.523	1	repeat	Run2	repeat/STIM_006.jpg
1606.522	0.5	1	repeat	Run2	repeat/STIM_006.jpg
1610.674	0.478	1	repeat	Run2	repeat/STIM_006.jpg
1614.565	0.527	1	repeat	Run2	repeat/STIM_007.jpg
1619.01	0.522	1	repeat	Run2	repeat/STIM_007.jpg
1622.064	0.7	1	repeat	Run2	repeat/STIM_007.jpg
1625.121	0.874	1	repeat	Run2	repeat/STIM_007.jpg
1629.131	0.698	0	repeat	Run2	repeat/STIM_007.jpg
1633.712	0.8	1	repeat	Run2	repeat/STIM_008.jpg
1637.183	0.753	1	repeat	Run2	repeat/STIM_008.jpg
1640.929	0.496	1	repeat	Run2	repeat/STIM_008.jpg
1644.089	0.901	1	repeat	Run2	repeat/STIM_008.jpg
1648.524	0.59	0	repeat	Run2	repeat/STIM_008.jpg
1652.321	0.896	0	repeat	Run2	repeat/STIM_009.jpg
1655.681	0.693	1	repeat	Run2	repeat/STIM_009.jpg
1660.337	0.747	1	repeat	Run2	repeat/STIM_009.jpg
1664.13	0.646	1	repeat	Run2	repeat/STIM_009.jpg
1667.965	0.815	1	repeat	Run2	repeat/STIM_009.jpg
1671.821	0.894	1	repeat	Run2	repeat/STIM_010.jpg
1676.515	0.796	1	repeat	Run2	repeat/STIM_010.jpg
1679.562	0.558	1	repeat	Run2	repeat/STIM_010.jpg
1682.975	0.638	1	repeat	Run2	repeat/STIM_010.jpg
1686.475	0.657	1	repeat	Run2	repeat/STIM_010.jpg
1690.559	0.746	1	repeat	Run2	repeat/STIM_011.jpg
1694.365	0.814	1	repeat	Run2	repeat/STIM_011.jpg
1698.644	0.9	1	repeat	Run2	repeat/STIM_011.jpg
1703.337	0.814	1	repeat	Run2	repeat/STIM_011.jpg
1708.099	0.708	1	repeat	Run2	repeat/STIM_011.jpg
1712.07	0.775	1	repeat	Run2	repeat/STIM_012.jpg
1716.901	0.833	1	repeat	Run2	repeat/STIM_012.jpg
1721.674	0.692	1	repeat	Run2	repeat/STIM_012.jpg
1725.181	0.748	1	repeat	Run2	repeat/STIM_012.jpg
1729.871	0.906	1	repeat	Run2	repeat/STIM_012.jpg
1733.495	0.614	1	repeat	Run2	repeat/STIM_013.jpg
1737.398	0.701	1	repeat	Run2	repeat/STIM_013.jpg
1740.509	0.678	1	repeat	Run2	repeat/STIM_013.jpg
1743.278	0.742	1	repeat	Run2	repeat/STIM_013.jpg
1747.016	0.867	1	repeat	Run2	repeat/STIM_013.jpg
1750.393	0.721	1	repeat	Run2	repeat/STIM_014.jpg
1754.314	0.528	1	repeat	Run2	repeat/STIM_014.jpg
1757.136	0.796	1	repeat	Run2	repeat/STIM_014.jpg
1760.22	0.903	1	repeat	Run2	repeat/STIM_014.jpg
1765.191	0.476	1	repeat	Run2	repeat/STIM_014.jpg
1768.88	1.558	1	generate	Run3	generate/STIM_000.jpg
1773.476	0.968	1	generate	Run3	generate/STIM_000.jpg
1776.576	1.871	1	generate	Run3	generate/STIM_000.jpg
1782.605	1.792	1	generate	Run3	generate/STIM_000.jpg
1788.209	0.904	1	generate	Run3	generate/STIM_000.jpg
1791.931	1.306	0	generate	Run3	generate/STIM_001.jpg
1795.945	0.903	1	generate	Run3	generate/STIM_001.jpg
1799.383	0.934	1	generate	Run3	generate/STIM_001.jpg
1803.835	0.774	1	generate	Run3	generate/STIM_001.jpg
1807.46	1.443	0	generate	Run3	generate/STIM_001.jpg
1811.842	1.457	1	generate	Run3	generate/STIM_002.jpg
1816.986	1.524	1	generate	Run3	generate/STIM_002.jpg
1820.771	1.69	0	generate	Run3	generate/STIM_002.jpg
1826.336	0.851	1	generate	Run3	generate/STIM_002.jpg
1830.719	1.371	1	generate	Run3	generate/STIM_002.jpg
1835.231	1.314	1	generate	Run3	generate/STIM_003.jpg
1839.323	0.967	1	generate	Run3	generate/STIM_003.jpg
1842.772	1.891	1	generate	Run3	generate/STIM_003.jpg
1846.935	1.533	1	generate	Run3	generate/STIM_003.jpg
1850.864	1.446	1	generate	Run3	generate/STIM_003.jpg
1855.934	1.635	0	generate	Run3	generate/STIM_004.jpg
1860.077	1.646	1	generate	Run3	generate/STIM_004.jpg
1864.227	1.846	1	generate	Run3	generate/STIM_004.jpg
1868.313	1.188	1	generate	Run3	generate/STIM_004.jpg
1872.74	1.776	1	generate	Run3	generate/STIM_004.jpg
1878.335	1.269	1	generate	Run3	generate/STIM_005.jpg
1882.198	1.721	1	generate	Run3	generate/STIM_005.jpg
1887.356	1.688	1	generate	Run3	generate/STIM_005.jpg
1891.908	1.234	0	generate	Run3	generate/STIM_005.jpg
1897.006	1.768	1	generate	Run3	generate/STIM_005.jpg
1902.069	1.514	1	generate	Run3	generate/STIM_006.jpg
1907.557	1.743	1	generate	Run3	generate/STIM_006.jpg
1911.939	1.273	1	generate	Run3	generate/STIM_006.jpg
1915.521	1.352	1	generate	Run3	generate/STIM_006.jpg
1919.054	1.441	1	generate	Run3	generate/STIM_006.jpg
1924.35	1.317	1	generate	Run3	generate/STIM_007.jpg
1928.96	1.053	1	generate	Run3	generate/STIM_007.jpg
1932.981	1.849	1	generate	Run3	generate/STIM_007.jpg
1937.26	1.786	1	generate	Run3	generate/STIM_007.jpg
1942.098	1.487	0	generate	Run3	generate/STIM_007.jpg
1946.334	1.817	1	generate	Run3	generate/STIM_008.jpg
1950.404	1.494	1	generate	Run3	generate/STIM_008.jpg
1955.285	1.164	1	generate	Run3	generate/STIM_008.jpg
1960.38	0.841	1	generate	Run3	generate/STIM_008.jpg
1963.566	1.296	1	generate	Run3	generate/STIM_008.jpg
1968.359	1.42	0	generate	Run3	generate/STIM_009.jpg
1972.02	1.027	1	generate	Run3	generate/STIM_009.jpg
1975.649	1.382	1	generate	Run3	generate/STIM_009.jpg
1979.938	1.542	1	generate	Run3	generate/STIM_009.jpg
1983.813	1.274	1	generate	Run3	generate/STIM_009.jpg
1987.859	0.941	0	generate	Run3	generate/STIM_010.jpg
1991.614	0.855	1	generate	Run3	generate/STIM_010.jpg
1996.346	1.244	1	generate	Run3	generate/STIM_010.jpg
2000.727	1.849	1	generate	Run3	generate/STIM_010.jpg
2005.449	1.3	0	generate	Run3	generate/STIM_010.jpg
2010.584	0.872	1	generate	Run3	generate/STIM_011.jpg
2015.019	1.166	1	generate	Run3	generate/STIM_011.jpg
2018.722	1.529	1	generate	Run3	generate/STIM_011.jpg
2023.589	1.908	1	generate	Run3	generate/STIM_011.jpg
2028.523	1.65	1	generate	Run3	generate/STIM_011.jpg
2032.894	1.306	0	generate	Run3	generate/STIM_012.jpg
2037.756	1.832	1	generate	Run3	generate/STIM_012.jpg
2043.637	0.94	1	generate	Run3	generate/STIM_012.jpg
2046.915	0.973	1	generate	Run3	generate/STIM_012.jpg
2050.193	1.644	1	generate	Run3	generate/STIM_012.jpg
2055.481	1.57	1	generate	Run3	generate/STIM_013.jpg
2060.493	1.045	1	generate	Run3	generate/STIM_013.jpg
2064.569	1.662	1	generate	Run3	generate/STIM_013.jpg
2069.298	0.817	1	generate	Run3	generate/STIM_013.jpg
2072.805	1.907	1	generate	Run3	generate/STIM_013.jpg
2076.905	1.01	1	generate	Run3	generate/STIM_014.jpg
2080.214	1.765	1	generate	Run3	generate/STIM_014.jpg
2084.208	1.668	1	generate	Run3	generate/STIM_014.jpg
2088.55	1.032	1	generate	Run3	generate/STIM_014.jpg
2092.668	1.546	1	generate	Run3	generate/STIM_014.jpg
2096.68	1.056	1	generate	Run3	generate/STIM_015.jpg
2100.886	1.282	1	generate	Run3	generate/STIM_015.jpg
2104.889	1.494	1	generate	Run3	generate/STIM_015.jpg
2109.085	1.367	1	generate	Run3	generate/STIM_015.jpg
2112.821	1.554	1	generate	Run3	generate/STIM_015.jpg
2117.333	1.687	1	generate	Run3	generate/STIM_016.jpg
2122.444	1.037	1	generate	Run3	generate/STIM_016.jpg
2125.964	1.196	1	generate	Run3	generate/STIM_016.jpg
2131.218	1.639	1	generate	Run3	generate/STIM_016.jpg
2136.749	1.922	1	generate	Run3	generate/STIM_016.jpg
2141.11	0.966	0	generate	Run3	generate/STIM_017.jpg
2145.122	1.175	1	generate	Run3	generate/STIM_017.jpg
2148.596	1.158	0	generate	Run3	generate/STIM_017.jpg
2152.937	1.834	1	generate	Run3	generate/STIM_017.jpg
2156.94	1.053	1	generate	Run3	generate/STIM_017.jpg
2162.053	1.11	1	generate	Run3	generate/STIM_018.jpg
2165.605	1.583	1	generate	Run3	generate/STIM_018.jpg
2169.764	1.064	1	generate	Run3	generate/STIM_018.jpg
2173.785	0.998	1	generate	Run3	generate/STIM_018.jpg
2177.97	0.997	1	generate	Run3	generate/STIM_018.jpg
2181.315	1.22	1	generate	Run3	generate/STIM_019.jpg
2184.842	1.178	1	generate	Run3	generate/STIM_019.jpg
2189.467	1.764	1	generate	Run3	generate/STIM_019.jpg
2194.827	1.27	1	generate	Run3	generate/STIM_019.jpg
2198.618	1.442	1	generate	Run3	generate/STIM_019.jpg
2202.942	0.826	1	generate	Run3	generate/STIM_020.jpg
2207.194	1.236	0	generate	Run3	generate/STIM_020.jpg
2211.677	1.863	0	generate	Run3	generate/STIM_020.jpg
2216.439	1.674	1	generate	Run3	generate/STIM_020.jpg
2221.796	1.718	1	generate	Run3	generate/STIM_020.jpg
2225.885	0.858	1	generate	Run3	generate/STIM_021.jpg
2230.244	1.339	1	generate	Run3	generate/STIM_021.jpg
2234.889	1.528	1	generate	Run3	generate/STIM_021.jpg
2238.907	1.014	1	generate	Run3	generate/STIM_021.jpg
2243.05	1.025	1	generate	Run3	generate/STIM_021.jpg
2247.51	1.845	1	generate	Run3	generate/STIM_022.jpg
2251.619	1.062	1	generate	Run3	generate/STIM_022.jpg
2255.269	1.715	1	generate	Run3	generate/STIM_022.jpg
2260.515	1.544	1	generate	Run3	generate/STIM_022.jpg
2265.817	1.428	1	generate	Run3	generate/STIM_022.jpg
2271.277	1.117	0	generate	Run3	generate/STIM_023.jpg
2275.403	1.181	1	generate	Run3	generate/STIM_023.jpg
2279.649	1.898	1	generate	Run3	generate/STIM_023.jpg
2284.553	1.259	0	generate	Run3	generate/STIM_023.jpg
2288.063	1.747	1	generate	Run3	generate/STIM_023.jpg
2293.104	1.886	1	generate	Run3	generate/STIM_024.jpg
2298.111	1.918	0	generate	Run3	generate/STIM_024.jpg
2303.156	1.581	1	generate	Run3	generate/STIM_024.jpg
2307.075	1.205	0	generate	Run3	generate/STIM_024.jpg
2311.34	1.364	1	generate	Run3	generate/STIM_024.jpg
2315.474	0.837	1	repeat	Run3	repeat/STIM_000.jpg
2318.884	0.742	1	repeat	Run3	repeat/STIM_000.jpg
2322.342	0.735	1	repeat	Run3	repeat/STIM_000.jpg
2325.908	0.761	1	repeat	Run3	repeat/STIM_000.jpg
2330.18	0.855	1	repeat	Run3	repeat/STIM_000.jpg
2335.084	0.888	1	repeat	Run3	repeat/STIM_001.jpg
2338.145	0.882	1	repeat	Run3	repeat/STIM_001.jpg
2342.698	0.668	1	repeat	Run3	repeat/STIM_001.jpg
2347.05	0.641	1	repeat	Run3	repeat/STIM_001.jpg
2350.385	0.506	1	repeat	Run3	repeat/STIM_001.jpg
2353.206	0.745	1	repeat	Run3	repeat/STIM_002.jpg
2357.047	0.692	1	repeat	Run3	repeat/STIM_002.jpg
2360.058	0.721	1	repeat	Run3	repeat/STIM_002.jpg
2364.119	0.759	1	repeat	Run3	repeat/STIM_002.jpg
2367.174	0.725	1	repeat	Run3	repeat/STIM_002.jpg
2371.649	0.738	1	repeat	Run3	repeat/STIM_003.jpg
2376.119	0.742	1	repeat	Run3	repeat/STIM_003.jpg
2380.357	0.524	1	repeat	Run3	repeat/STIM_003.jpg
2384.419	0.789	1	repeat	Run3	repeat/STIM_003.jpg
2388.653	0.553	1	repeat	Run3	repeat/STIM_003.jpg
2393.154	0.736	1	repeat	Run3	repeat/STIM_004.jpg
2397.016	0.876	1	repeat	Run3	repeat/STIM_004.jpg
2401.629	0.916	0	repeat	Run3	repeat/STIM_004.jpg
2405.097	0.694	1	repeat	Run3	repeat/STIM_004.jpg
2408.873	0.784	1	repeat	Run3	repeat/STIM_004.jpg
2412.734	0.652	1	repeat	Run3	repeat/STIM_005.jpg
2416.595	0.561	1	repeat	Run3	repeat/STIM_005.jpg
2420.767	0.53	1	repeat	Run3	repeat/STIM_005.jpg
2425.318	0.488	1	repeat	Run3	repeat/STIM_005.jpg
2429.534	0.575	1	repeat	Run3	repeat/STIM_005.jpg
2432.543	0.516	1	repeat	Run3	repeat/STIM_006.jpg
2436.168	0.654	1	repeat	Run3	repeat/STIM_006.jpg
2439.18	0.859	1	repeat	Run3	repeat/STIM_006.jpg
2442.121	0.511	1	repeat	Run3	repeat/STIM_006.jpg
2445.075	0.907	1	repeat	Run3	repeat/STIM_006.jpg
2449.213	0.511	1	repeat	Run3	repeat/STIM_007.jpg
2451.81	0.771	1	repeat	Run3	repeat/STIM_007.jpg
2455.691	0.804	1	repeat	Run3	repeat/STIM_007.jpg
2459.76	0.556	1	repeat	Run3	repeat/STIM_007.jpg
2463.98	0.716	1	repeat	Run3	repeat/STIM_007.jpg
2468.467	0.704	1	repeat	Run3	repeat/STIM_008.jpg
2473.169	0.497	1	repeat	Run3	repeat/STIM_008.jpg
2477.425	0.543	1	repeat	Run3	repeat/STIM_008.jpg
2481.079	0.815	1	repeat	Run3	repeat/STIM_008.jpg
2484.094	0.835	0	repeat	Run3	repeat/STIM_008.jpg
2488.183	0.474	1	repeat	Run3	repeat/STIM_009.jpg
2491.232	0.638	0	repeat	Run3	repeat/STIM_009.jpg
2495.661	0.62	1	repeat	Run3	repeat/STIM_009.jpg
2499.968	0.876	1	repeat	Run3	repeat/STIM_009.jpg
2503.664	0.794	1	repeat	Run3	repeat/STIM_009.jpg
2507.035	0.719	1	repeat	Run3	repeat/STIM_010.jpg
2510.16	0.821	1	repeat	Run3	repeat/STIM_010.jpg
2514.895	0.524	1	repeat	Run3	repeat/STIM_010.jpg
2518.469	0.908	1	repeat	Run3	repeat/STIM_010.jpg
2523.169	0.66	1	repeat	Run3	repeat/STIM_010.jpg
2526.379	0.885	1	repeat	Run3	repeat/STIM_011.jpg
2530.942	0.526	1	repeat	Run3	repeat/STIM_011.jpg
2533.772	0.506	1	repeat	Run3	repeat/STIM_011.jpg
2536.858	0.479	1	repeat	Run3	repeat/STIM_011.jpg
2540.407	0.493	1	repeat	Run3	repeat/STIM_011.jpg
2543.442	0.536	1	repeat	Run3	repeat/STIM_012.jpg
2547.597	0.566	1	repeat	Run3	repeat/STIM_012.jpg
2550.92	0.838	1	repeat	Run3	repeat/STIM_012.jpg
2555.485	0.542	1	repeat	Run3	repeat/STIM_012.jpg
2558.952	0.652	1	repeat	Run3	repeat/STIM_012.jpg
2562.277	0.875	1	repeat	Run3	repeat/STIM_013.jpg
2567.211	0.821	1	repeat	Run3	repeat/STIM_013.jpg
2571.55	0.581	1	repeat	Run3	repeat/STIM_013.jpg
2575.321	0.698	1	repeat	Run3	repeat/STIM_013.jpg
2579.645	0.829	1	repeat	Run3	repeat/STIM_013.jpg
2583.757	0.824	1	repeat	Run3	repeat/STIM_014.jpg
2588.605	0.606	1	repeat	Run3	repeat/STIM_014.jpg
2592.38	0.463	1	repeat	Run3	repeat/STIM_014.jpg
2596.521	0.708	1	repeat	Run3	repeat/STIM_014.jpg
2599.888	0.514	1	repeat	Run3	repeat/STIM_014.jpg
2602.513	1.174	0	generate	Run4	generate/STIM_000.jpg
2607.405	1.132	1	generate	Run4	generate/STIM_000.jpg
2611.348	1.151	1	generate	Run4	generate/STIM_000.jpg
2614.999	0.889	1	generate	Run4	generate/STIM_000.jpg
2619.767	1.145	1	generate	Run4	generate/STIM_000.jpg
2624.709	0.939	1	generate	Run4	generate/STIM_001.jpg
2629.563	1.841	1	generate	Run4	generate/STIM_001.jpg
2634.035	1.599	1	generate	Run4	generate/STIM_001.jpg
2637.855	1.812	1	generate	Run4	generate/STIM_001.jpg
2643.804	1.031	1	generate	Run4	generate/STIM_001.jpg
2648.671	1.563	1	generate	Run4	generate/STIM_002.jpg
2652.823	0.839	1	generate	Run4	generate/STIM_002.jpg
2656.847	1.553	1	generate	Run4	generate/STIM_002.jpg
2662.499	1.346	1	generate	Run4	generate/STIM_002.jpg
2667.647	1.3	1	generate	Run4	generate/STIM_002.jpg
2671.099	1.719	1	generate	Run4	generate/STIM_003.jpg
2676.546	1.545	1	generate	Run4	generate/STIM_003.jpg
2681.478	1.371	1	generate	Run4	generate/STIM_003.jpg
2686.539	1.884	1	generate	Run4	generate/STIM_003.jpg
2691.853	1.224	1	generate	Run4	generate/STIM_003.jpg
2696.518	1.31	1	generate	Run4	generate/STIM_004.jpg
2700.982	1.903	1	generate	Run4	generate/STIM_004.jpg
2706.334	0.929	1	generate	Run4	generate/STIM_004.jpg
2710.735	1.61	1	generate	Run4	generate/STIM_004.jpg
2715.931	0.822	1	generate	Run4	generate/STIM_004.jpg
2719.347	1.093	1	generate	Run4	generate/STIM_005.jpg
2723.313	0.97	1	generate	Run4	generate/STIM_005.jpg
2727.96	1.852	1	generate	Run4	generate/STIM_005.jpg
2732.004	0.793	1	generate	Run4	generate/STIM_005.jpg
2736.115	1.041	1	generate	Run4	generate/STIM_005.jpg
2741.022	1.703	1	generate	Run4	generate/STIM_006.jpg
2746.339	1.244	1	generate	Run4	generate/STIM_006.jpg
2749.946	1.304	1	generate	Run4	generate/STIM_006.jpg
2753.833	1.853	1	generate	Run4	generate/STIM_006.jpg
2757.954	1.685	1	generate	Run4	generate/STIM_006.jpg
2763.309	1.234	1	generate	Run4	generate/STIM_007.jpg
2767.709	1.011	1	generate	Run4	generate/STIM_007.jpg
2772.065	1.408	1	generate	Run4	generate/STIM_007.jpg
2775.832	0.999	1	generate	Run4	generate/STIM_007.jpg
2780.899	1.112	1	generate	Run4	generate/STIM_007.jpg
2784.415	0.776	1	generate	Run4	generate/STIM_008.jpg
2788.777	0.866	1	generate	Run4	generate/STIM_008.jpg
2792.989	1.244	1	generate	Run4	generate/STIM_008.jpg
2797.1	1.582	0	generate	Run4	generate/STIM_008.jpg
2802.383	0.777	1	generate	Run4	generate/STIM_008.jpg
2805.27	1.802	1	generate	Run4	generate/STIM_009.jpg
2810.663	1.585	1	generate	Run4	generate/STIM_009.jpg
2816.227	1.485	1	generate	Run4	generate/STIM_009.jpg
2821.786	1.322	1	generate	Run4	generate/STIM_009.jpg
2826.28	1.699	1	generate	Run4	generate/STIM_009.jpg
2830.691	1.548	1	generate	Run4	generate/STIM_010.jpg
2835.56	1.712	1	generate	Run4	generate/STIM_010.jpg
2839.536	1.695	1	generate	Run4	generate/STIM_010.jpg
2843.662	1.538	1	generate	Run4	generate/STIM_010.jpg
2848.638	1.78	1	generate	Run4	generate/STIM_010.jpg
2852.898	1.812	1	generate	Run4	generate/STIM_011.jpg
2858.407	0.897	1	generate	Run4	generate/STIM_011.jpg
2861.582	1.905	1	generate	Run4	generate/STIM_011.jpg
2866.659	1.65	1	generate	Run4	generate/STIM_011.jpg
2871.722	1.833	1	generate	Run4	generate/STIM_011.jpg
2877.278	1.307	1	generate	Run4	generate/STIM_012.jpg
2881.416	1.727	1	generate	Run4	generate/STIM_012.jpg
2885.86	1.035	1	generate	Run4	generate/STIM_012.jpg
2889.203	1.064	1	generate	Run4	generate/STIM_012.jpg
2892.764	0.796	1	generate	Run4	generate/STIM_012.jpg
2896.121	1.23	1	generate	Run4	generate/STIM_013.jpg
2901.001	1.065	1	generate	Run4	generate/STIM_013.jpg
2906.041	1.406	1	generate	Run4	generate/STIM_013.jpg
2910.7	1.623	1	generate	Run4	generate/STIM_013.jpg
2915.529	1.155	1	generate	Run4	generate/STIM_013.jpg
2919.844	1.227	1	generate	Run4	generate/STIM_014.jpg
2925.098	1.253	1	generate	Run4	generate/STIM_014.jpg
2928.753	1.653	1	generate	Run4	generate/STIM_014.jpg
2932.907	0.936	1	generate	Run4	generate/STIM_014.jpg
2937.812	0.805	1	generate	Run4	generate/STIM_014.jpg
2942.3	1.454	1	generate	Run4	generate/STIM_015.jpg
2946.199	1.416	0	generate	Run4	generate/STIM_015.jpg
2949.918	1.196	1	generate	Run4	generate/STIM_015.jpg
2953.817	1.753	1	generate	Run4	generate/STIM_015.jpg
2957.876	1.512	1	generate	Run4	generate/STIM_015.jpg
2962.548	0.804	1	generate	Run4	generate/STIM_016.jpg
2966.204	0.829	0	generate	Run4	generate/STIM_016.jpg
2969.891	1.053	1	generate	Run4	generate/STIM_016.jpg
2973.605	1.358	1	generate	Run4	generate/STIM_016.jpg
2978.163	1.598	1	generate	Run4	generate/STIM_016.jpg
2983.207	1.785	0	generate	Run4	generate/STIM_017.jpg
2987.754	1.227	1	generate	Run4	generate/STIM_017.jpg
2992.039	1.461	1	generate	Run4	generate/STIM_017.jpg
2997.382	1.336	1	generate	Run4	generate/STIM_017.jpg
3002.443	1.782	1	generate	Run4	generate/STIM_017.jpg
3006.801	1.752	1	generate	Run4	generate/STIM_018.jpg
3010.915	1.344	1	generate	Run4	generate/STIM_018.jpg
3015.959	1.58	1	generate	Run4	generate/STIM_018.jpg
3020.117	1.402	1	generate	Run4	generate/STIM_018.jpg
3025.501	0.919	1	generate	Run4	generate/STIM_018.jpg
3029.009	1.764	0	generate	Run4	generate/STIM_019.jpg
3033.845	1.694	1	generate	Run4	generate/STIM_019.jpg
3038.818	1.89	1	generate	Run4	generate/STIM_019.jpg
3043.146	1.782	1	generate	Run4	generate/STIM_019.jpg
3048.036	0.995	1	generate	Run4	generate/STIM_019.jpg
3051.191	1.664	1	generate	Run4	generate/STIM_020.jpg
3055.265	1.739	1	generate	Run4	generate/STIM_020.jpg
3059.893	1.162	1	generate	Run4	generate/STIM_020.jpg
3064.697	1.552	0	generate	Run4	generate/STIM_020.jpg
3069.832	1.77	1	generate	Run4	generate/STIM_020.jpg
3074.787	1.261	1	generate	Run4	generate/STIM_021.jpg
3080.027	1.325	1	generate	Run4	generate/STIM_021.jpg
3084.537	1.522	1	generate	Run4	generate/STIM_021.jpg
3088.361	1.024	1	generate	Run4	generate/STIM_021.jpg
3092.939	1.524	1	generate	Run4	generate/STIM_021.jpg
3096.959	1.522	1	generate	Run4	generate/STIM_022.jpg
3101.8	0.802	1	generate	Run4	generate/STIM_022.jpg
3104.864	1.894	1	generate	Run4	generate/STIM_022.jpg
3110.778	1.335	1	generate	Run4	generate/STIM_022.jpg
3115.521	1.177	1	generate	Run4	generate/STIM_022.jpg
3120.678	1.895	1	generate	Run4	generate/STIM_023.jpg
3126.105	0.935	1	generate	Run4	generate/STIM_023.jpg
3130.352	1.696	1	generate	Run4	generate/STIM_023.jpg
3135.311	1.592	1	generate	Run4	generate/STIM_023.jpg
3140.319	0.916	1	generate	Run4	generate/STIM_023.jpg
3144.426	1.661	1	generate	Run4	generate/STIM_024.jpg
3148.885	1.603	1	generate	Run4	generate/STIM_024.jpg
3154.016	1.79	1	generate	Run4	generate/STIM_024.jpg
3159.113	1.005	1	generate	Run4	generate/STIM_024.jpg
3162.825	1.232	1	generate	Run4	generate/STIM_024.jpg
3167.031	0.769	1	repeat	Run4	repeat/STIM_000.jpg
3171.822	0.864	1	repeat	Run4	repeat/STIM_000.jpg
3176.567	0.601	1	repeat	Run4	repeat/STIM_000.jpg
3180.711	0.651	1	repeat	Run4	repeat/STIM_000.jpg
3183.487	0.658	1	repeat	Run4	repeat/STIM_000.jpg
3187.762	0.697	1	repeat	Run4	repeat/STIM_001.jpg
3191.545	0.499	1	repeat	Run4	repeat/STIM_001.jpg
3195.327	0.687	1	repeat	Run4	repeat/STIM_001.jpg
3199.151	0.901	1	repeat	Run4	repeat/STIM_001.jpg
3202.593	0.549	1	repeat	Run4	repeat/STIM_001.jpg
3205.711	0.684	1	repeat	Run4	repeat/STIM_002.jpg
3210.382	0.667	1	repeat	Run4	repeat/STIM_002.jpg
3214.334	0.882	1	repeat	Run4	repeat/STIM_002.jpg
3218.624	0.571	1	repeat	Run4	repeat/STIM_002.jpg
3222.182	0.73	1	repeat	Run4	repeat/STIM_002.jpg
3225.978	0.859	1	repeat	Run4	repeat/STIM_003.jpg
3229.399	0.578	1	repeat	Run4	repeat/STIM_003.jpg
3232.707	0.51	1	repeat	Run4	repeat/STIM_003.jpg
3236.446	0.742	1	repeat	Run4	repeat/STIM_003.jpg
3240.883	0.707	1	repeat	Run4	repeat/STIM_003.jpg
3244.132	0.642	1	repeat	Run4	repeat/STIM_004.jpg
3248.102	0.694	1	repeat	Run4	repeat/STIM_004.jpg
3251.097	0.719	1	repeat	Run4	repeat/STIM_004.jpg
3255.788	0.749	1	repeat	Run4	repeat/STIM_004.jpg
3260.134	0.636	1	repeat	Run4	repeat/STIM_004.jpg
3263.523	0.527	1	repeat	Run4	repeat/STIM_005.jpg
3266.962	0.867	1	repeat	Run4	repeat/STIM_005.jpg
3271.447	0.717	1	repeat	Run4	repeat/STIM_005.jpg
3275.469	0.81	1	repeat	Run4	repeat/STIM_005.jpg
3279.744	0.631	1	repeat	Run4	repeat/STIM_005.jpg
3284.415	0.749	1	repeat	Run4	repeat/STIM_006.jpg
3288.266	0.814	1	repeat	Run4	repeat/STIM_006.jpg
3292.15	0.828	1	repeat	Run4	repeat/STIM_006.jpg
3296.842	0.483	1	repeat	Run4	repeat/STIM_006.jpg
3301.039	0.588	1	repeat	Run4	repeat/STIM_006.jpg
3305.478	0.774	1	repeat	Run4	repeat/STIM_007.jpg
3310.027	0.495	1	repeat	Run4	repeat/STIM_007.jpg
3314.375	0.897	1	repeat	Run4	repeat/STIM_007.jpg
3318.122	0.661	1	repeat	Run4	repeat/STIM_007.jpg
3322.324	0.711	1	repeat	Run4	repeat/STIM_007.jpg
3326.248	0.822	1	repeat	Run4	repeat/STIM_008.jpg
3330.35	0.828	1	repeat	Run4	repeat/STIM_008.jpg
3335.112	0.613	1	repeat	Run4	repeat/STIM_008.jpg
3339.339	0.874	1	repeat	Run4	repeat/STIM_008.jpg
3344.1	0.533	1	repeat	Run4	repeat/STIM_008.jpg
3347.231	0.639	1	repeat	Run4	repeat/STIM_009.jpg
3350.55	0.511	1	repeat	Run4	repeat/STIM_009.jpg
3353.312	0.542	1	repeat	Run4	repeat/STIM_009.jpg
3357.574	0.894	1	repeat	Run4	repeat/STIM_009.jpg
3360.728	0.557	1	repeat	Run4	repeat/STIM_009.jpg
3363.981	0.484	1	repeat	Run4	repeat/STIM_010.jpg
3367.303	0.46	1	repeat	Run4	repeat/STIM_010.jpg
3370.538	0.763	1	repeat	Run4	repeat/STIM_010.jpg
3373.523	0.748	1	repeat	Run4	repeat/STIM_010.jpg
3376.949	0.814	1	repeat	Run4	repeat/STIM_010.jpg
3379.994	0.54	1	repeat	Run4	repeat/STIM_011.jpg
3383.726	0.679	1	repeat	Run4	repeat/STIM_011.jpg
3388.451	0.58	0	repeat	Run4	repeat/STIM_011.jpg
3391.677	0.629	1	repeat	Run4	repeat/STIM_011.jpg
3394.621	0.899	1	repeat	Run4	repeat/STIM_011.jpg
3399.166	0.459	1	repeat	Run4	repeat/STIM_012.jpg
3402.635	0.515	1	repeat	Run4	repeat/STIM_012.jpg
3405.56	0.881	1	repeat	Run4	repeat/STIM_012.jpg
3409.035	0.535	1	repeat	Run4	repeat/STIM_012.jpg
3412.928	0.755	1	repeat	Run4	repeat/STIM_012.jpg
3416.152	0.858	0	repeat	Run4	repeat/STIM_013.jpg
3420.146	0.633	1	repeat	Run4	repeat/STIM_013.jpg
3424.565	0.78	1	repeat	Run4	repeat/STIM_013.jpg
3427.557	0.705	1	repeat	Run4	repeat/STIM_013.jpg
3431.0	0.666	1	repeat	Run4	repeat/STIM_013.jpg
3433.78	0.682	1	repeat	Run4	repeat/STIM_014.jpg
3437.847	0.739	1	repeat	Run4	repeat/STIM_014.jpg
3440.965	0.672	1	repeat	Run4	repeat/STIM_014.jpg
3443.7	0.696	1	repeat	Run4	repeat/STIM_014.jpg
3447.944	0.729	1	repeat	Run4	repeat/STIM_014.jpg
