onset	duration	accuracy_binary	trial_type	learning_stage	stimulus
0.0	2.423	0	generate	Run1	generate/STIM_000.jpg
4.622	1.377	1	generate	Run1	generate/STIM_000.jpg
8.296	1.789	1	generate	Run1	generate/STIM_000.jpg
13.497	1.825	1	generate	Run1	generate/STIM_000.jpg
17.566	1.198	1	generate	Run1	generate/STIM_000.jpg
21.185	2.293	0	generate	Run1	generate/STIM_001.jpg
26.309	2.473	1	generate	Run1	generate/STIM_001.jpg
32.704	2.393	1	generate	Run1	generate/STIM_001.jpg
37.208	2.198	1	generate	Run1	generate/STIM_001.jpg
42.265	1.741	0	generate	Run1	generate/STIM_001.jpg
47.707	1.157	0	generate	Run1	generate/STIM_002.jpg
52.595	1.236	0	generate	Run1	generate/STIM_002.jpg
56.076	1.13	1	generate	Run1	generate/STIM_002.jpg
59.806	1.591	1	generate	Run1	generate/STIM_002.jpg
64.891	1.764	1	generate	Run1	generate/STIM_002.jpg
68.96	2.306	1	generate	Run1	generate/STIM_003.jpg
74.323	1.301	1	generate	Run1	generate/STIM_003.jpg
77.955	1.836	1	generate	Run1	generate/STIM_003.jpg
83.77	1.532	1	generate	Run1	generate/STIM_003.jpg
87.931	2.006	0	generate	Run1	generate/STIM_003.jpg
93.437	2.535	1	generate	Run1	generate/STIM_004.jpg
99.224	2.234	1	generate	Run1	generate/STIM_004.jpg
104.16	1.51	0	generate	Run1	generate/STIM_004.jpg
109.113	1.878	1	generate	Run1	generate/STIM_004.jpg
113.875	2.082	0	generate	Run1	generate/STIM_004.jpg
118.911	1.172	1	generate	Run1	generate/STIM_005.jpg
123.612	2.061	1	generate	Run1	generate/STIM_005.jpg
129.012	1.984	0	generate	Run1	generate/STIM_005.jpg
133.722	1.38	1	generate	Run1	generate/STIM_005.jpg
138.557	0.959	1	generate	Run1	generate/STIM_005.jpg
142.881	2.372	1	generate	Run1	generate/STIM_006.jpg
148.432	2.258	1	generate	Run1	generate/STIM_006.jpg
154.062	2.189	1	generate	Run1	generate/STIM_006.jpg
159.546	1.955	1	generate	Run1	generate/STIM_006.jpg
163.863	1.317	1	generate	Run1	generate/STIM_006.jpg
167.997	2.655	1	generate	Run1	generate/STIM_007.jpg
173.492	1.16	1	generate	Run1	generate/STIM_007.jpg
178.42	1.219	1	generate	Run1	generate/STIM_007.jpg
182.866	1.265	0	generate	Run1	generate/STIM_007.jpg
186.155	1.343	1	generate	Run1	generate/STIM_007.jpg
189.711	2.496	1	generate	Run1	generate/STIM_008.jpg
195.768	1.709	1	generate	Run1	generate/STIM_008.jpg
200.581	2.403	0	generate	Run1	generate/STIM_008.jpg
205.766	1.231	1	generate	Run1	generate/STIM_008.jpg
209.104	1.121	1	generate	Run1	generate/STIM_008.jpg
212.59	1.531	1	generate	Run1	generate/STIM_009.jpg
217.291	1.53	1	generate	Run1	generate/STIM_009.jpg
220.985	1.419	1	generate	Run1	generate/STIM_009.jpg
225.043	1.738	1	generate	Run1	generate/STIM_009.jpg
230.553	1.088	1	generate	Run1	generate/STIM_009.jpg
235.177	1.574	0	generate	Run1	generate/STIM_010.jpg
238.958	2.396	0	generate	Run1	generate/STIM_010.jpg
244.447	1.532	1	generate	Run1	generate/STIM_010.jpg
248.665	2.097	1	generate	Run1	generate/STIM_010.jpg
253.663	1.83	0	generate	Run1	generate/STIM_010.jpg
259.471	1.508	0	generate	Run1	generate/STIM_011.jpg
264.677	1.757	1	generate	Run1	generate/STIM_011.jpg
269.458	1.883	1	generate	Run1	generate/STIM_011.jpg
274.803	1.838	1	generate	Run1	generate/STIM_011.jpg
279.015	2.153	0	generate	Run1	generate/STIM_011.jpg
284.75	1.813	0	generate	Run1	generate/STIM_012.jpg
288.946	1.49	1	generate	Run1	generate/STIM_012.jpg
293.805	2.368	1	generate	Run1	generate/STIM_012.jpg
299.4	1.435	1	generate	Run1	generate/STIM_012.jpg
303.07	2.047	1	generate	Run1	generate/STIM_012.jpg
308.897	1.485	0	generate	Run1	generate/STIM_013.jpg
313.325	2.168	0	generate	Run1	generate/STIM_013.jpg
317.846	1.679	1	generate	Run1	generate/STIM_013.jpg
322.112	1.111	1	generate	Run1	generate/STIM_013.jpg
326.712	1.743	1	generate	Run1	generate/STIM_013.jpg
330.646	1.668	1	generate	Run1	generate/STIM_014.jpg
334.492	1.831	1	generate	Run1	generate/STIM_014.jpg
340.308	2.237	1	generate	Run1	generate/STIM_014.jpg
344.568	1.532	1	generate	Run1	generate/STIM_014.jpg
349.242	1.256	0	generate	Run1	generate/STIM_014.jpg
353.962	1.204	1	generate	Run1	generate/STIM_015.jpg
358.267	1.98	1	generate	Run1	generate/STIM_015.jpg
363.311	1.098	1	generate	Run1	generate/STIM_015.jpg
366.621	1.443	1	generate	Run1	generate/STIM_015.jpg
370.692	1.576	0	generate	Run1	generate/STIM_015.jpg
375.226	1.79	1	generate	Run1	generate/STIM_016.jpg
379.677	1.468	1	generate	Run1	generate/STIM_016.jpg
383.395	2.386	1	generate	Run1	generate/STIM_016.jpg
388.698	1.995	1	generate	Run1	generate/STIM_016.jpg
392.885	0.869	1	generate	Run1	generate/STIM_016.jpg
396.829	1.299	1	generate	Run1	generate/STIM_017.jpg
400.913	2.401	1	generate	Run1	generate/STIM_017.jpg
406.238	1.532	1	generate	Run1	generate/STIM_017.jpg
410.666	1.344	1	generate	Run1	generate/STIM_017.jpg
415.764	1.164	0	generate	Run1	generate/STIM_017.jpg
419.084	2.621	0	generate	Run1	generate/STIM_018.jpg
424.744	1.752	1	generate	Run1	generate/STIM_018.jpg
429.89	1.178	1	generate	Run1	generate/STIM_018.jpg
433.384	1.582	0	generate	Run1	generate/STIM_018.jpg
437.134	1.044	1	generate	Run1	generate/STIM_018.jpg
440.62	2.181	1	generate	Run1	generate/STIM_019.jpg
446.799	1.28	1	generate	Run1	generate/STIM_019.jpg
451.737	1.941	1	generate	Run1	generate/STIM_019.jpg
457.314	1.335	1	generate	Run1	generate/STIM_019.jpg
461.596	1.729	1	generate	Run1	generate/STIM_019.jpg
465.525	1.118	1	generate	Run1	generate/STIM_020.jpg
470.457	1.97	1	generate	Run1	generate/STIM_020.jpg
475.104	1.611	1	generate	Run1	generate/STIM_020.jpg
478.79	1.025	1	generate	Run1	generate/STIM_020.jpg
482.369	0.896	1	generate	Run1	generate/STIM_020.jpg
485.402	1.791	1	generate	Run1	generate/STIM_021.jpg
491.145	1.183	1	generate	Run1	generate/STIM_021.jpg
495.388	2.116	1	generate	Run1	generate/STIM_021.jpg
500.543	2.259	1	generate	Run1	generate/STIM_021.jpg
505.421	1.36	1	generate	Run1	generate/STIM_021.jpg
509.617	2.479	1	generate	Run1	generate/STIM_022.jpg
515.129	2.238	1	generate	Run1	generate/STIM_022.jpg
520.918	1.465	1	generate	Run1	generate/STIM_022.jpg
526.009	1.563	1	generate	Run1	generate/STIM_022.jpg
530.149	1.093	1	generate	Run1	generate/STIM_022.jpg
534.71	2.443	1	generate	Run1	generate/STIM_023.jpg
539.907	1.122	1	generate	Run1	generate/STIM_023.jpg
544.145	1.612	1	generate	Run1	generate/STIM_023.jpg
548.358	1.554	1	generate	Run1	generate/STIM_023.jpg
553.358	0.953	1	generate	Run1	generate/STIM_023.jpg
557.419	1.742	1	generate	Run1	generate/STIM_024.jpg
561.305	2.459	1	generate	Run1	generate/STIM_024.jpg
567.731	1.965	1	generate	Run1	generate/STIM_024.jpg
572.826	2.017	0	generate	Run1	generate/STIM_024.jpg
577.962	0.87	1	generate	Run1	generate/STIM_024.jpg
581.517	0.897	1	repeat	Run1	repeat/STIM_000.jpg
585.049	0.75	1	repeat	Run1	repeat/STIM_000.jpg
587.947	0.757	1	repeat	Run1	repeat/STIM_000.jpg
591.405	0.679	1	repeat	Run1	repeat/STIM_000.jpg
595.424	0.576	1	repeat	Run1	repeat/STIM_000.jpg
599.07	0.72	1	repeat	Run1	repeat/STIM_001.jpg
602.239	0.81	1	repeat	Run1	repeat/STIM_001.jpg
605.168	0.58	1	repeat	Run1	repeat/STIM_001.jpg
608.224	0.497	1	repeat	Run1	repeat/STIM_001.jpg
612.587	0.801	1	repeat	Run1	repeat/STIM_001.jpg
615.757	0.84	1	repeat	Run1	repeat/STIM_002.jpg
620.308	0.498	1	repeat	Run1	repeat/STIM_002.jpg
623.197	0.481	1	repeat	Run1	repeat/STIM_002.jpg
627.141	0.669	1	repeat	Run1	repeat/STIM_002.jpg
630.212	0.466	1	repeat	Run1	repeat/STIM_002.jpg
633.733	0.736	1	repeat	Run1	repeat/STIM_003.jpg
637.95	0.835	1	repeat	Run1	repeat/STIM_003.jpg
642.39	0.688	1	repeat	Run1	repeat/STIM_003.jpg
645.349	0.895	1	repeat	Run1	repeat/STIM_003.jpg
650.107	0.457	0	repeat	Run1	repeat/STIM_003.jpg
653.422	0.552	1	repeat	Run1	repeat/STIM_004.jpg
656.322	0.804	1	repeat	Run1	repeat/STIM_004.jpg
660.647	0.775	1	repeat	Run1	repeat/STIM_004.jpg
663.715	0.812	1	repeat	Run1	repeat/STIM_004.jpg
667.043	0.865	1	repeat	Run1	repeat/STIM_004.jpg
671.631	0.89	1	repeat	Run1	repeat/STIM_005.jpg
675.114	0.466	1	repeat	Run1	repeat/STIM_005.jpg
679.227	0.7	1	repeat	Run1	repeat/STIM_005.jpg
683.221	0.88	1	repeat	Run1	repeat/STIM_005.jpg
686.212	0.588	1	repeat	Run1	repeat/STIM_005.jpg
690.495	0.633	1	repeat	Run1	repeat/STIM_006.jpg
694.258	0.614	1	repeat	Run1	repeat/STIM_006.jpg
696.927	0.712	1	repeat	Run1	repeat/STIM_006.jpg
700.166	0.512	1	repeat	Run1	repeat/STIM_006.jpg
703.772	0.889	1	repeat	Run1	repeat/STIM_006.jpg
706.884	0.458	1	repeat	Run1	repeat/STIM_007.jpg
710.355	0.593	1	repeat	Run1	repeat/STIM_007.jpg
714.334	0.776	1	repeat	Run1	repeat/STIM_007.jpg
717.79	0.794	1	repeat	Run1	repeat/STIM_007.jpg
722.408	0.479	1	repeat	Run1	repeat/STIM_007.jpg
726.704	0.756	1	repeat	Run1	repeat/STIM_008.jpg
729.935	0.577	1	repeat	Run1	repeat/STIM_008.jpg
734.225	0.609	1	repeat	Run1	repeat/STIM_008.jpg
736.982	0.877	1	repeat	Run1	repeat/STIM_008.jpg
740.117	0.686	1	repeat	Run1	repeat/STIM_008.jpg
744.49	0.738	1	repeat	Run1	repeat/STIM_009.jpg
747.456	0.482	1	repeat	Run1	repeat/STIM_009.jpg
750.096	0.632	1	repeat	Run1	repeat/STIM_009.jpg
753.28	0.887	1	repeat	Run1	repeat/STIM_009.jpg
757.559	0.764	1	repeat	Run1	repeat/STIM_009.jpg
762.054	0.51	1	repeat	Run1	repeat/STIM_010.jpg
766.215	0.617	1	repeat	Run1	repeat/STIM_010.jpg
769.1	0.643	1	repeat	Run1	repeat/STIM_010.jpg
772.622	0.837	1	repeat	Run1	repeat/STIM_010.jpg
775.516	0.672	0	repeat	Run1	repeat/STIM_010.jpg
778.752	0.774	1	repeat	Run1	repeat/STIM_011.jpg
782.051	0.451	1	repeat	Run1	repeat/STIM_011.jpg
785.129	0.815	1	repeat	Run1	repeat/STIM_011.jpg
788.507	0.484	1	repeat	Run1	repeat/STIM_011.jpg
791.402	0.507	1	repeat	Run1	repeat/STIM_011.jpg
795.314	0.712	1	repeat	Run1	repeat/STIM_012.jpg
798.79	0.824	1	repeat	Run1	repeat/STIM_012.jpg
802.502	0.704	1	repeat	Run1	repeat/STIM_012.jpg
806.181	0.506	1	repeat	Run1	repeat/STIM_012.jpg
809.243	0.544	1	repeat	Run1	repeat/STIM_012.jpg
812.295	0.652	1	repeat	Run1	repeat/STIM_013.jpg
816.503	0.728	1	repeat	Run1	repeat/STIM_013.jpg
820.556	0.748	1	repeat	Run1	repeat/STIM_013.jpg
824.376	0.726	1	repeat	Run1	repeat/STIM_013.jpg
827.742	0.68	1	repeat	Run1	repeat/STIM_013.jpg
831.373	0.529	1	repeat	Run1	repeat/STIM_014.jpg
835.04	0.547	1	repeat	Run1	repeat/STIM_014.jpg
838.448	0.529	1	repeat	Run1	repeat/STIM_014.jpg
841.912	0.582	1	repeat	Run1	repeat/STIM_014.jpg
845.14	0.589	1	repeat	Run1	repeat/STIM_014.jpg
847.896	2.28	1	generate	Run2	generate/STIM_000.jpg
853.053	1.004	1	generate	Run2	generate/STIM_000.jpg
857.767	1.098	1	generate	Run2	generate/STIM_000.jpg
862.669	1.499	1	generate	Run2	generate/STIM_000.jpg
867.928	1.004	1	generate	Run2	generate/STIM_000.jpg
872.81	1.556	1	generate	Run2	generate/STIM_001.jpg
877.214	1.632	1	generate	Run2	generate/STIM_001.jpg
882.232	1.199	1	generate	Run2	generate/STIM_001.jpg
887.259	1.607	1	generate	Run2	generate/STIM_001.jpg
891.4	1.107	1	generate	Run2	generate/STIM_001.jpg
896.288	1.809	1	generate	Run2	generate/STIM_002.jpg
901.494	1.743	1	generate	Run2	generate/STIM_002.jpg
905.331	1.351	0	generate	Run2	generate/STIM_002.jpg
909.337	1.847	1	generate	Run2	generate/STIM_002.jpg
913.475	1.025	1	generate	Run2	generate/STIM_002.jpg
916.537	1.079	1	generate	Run2	generate/STIM_003.jpg
921.569	1.036	1	generate	Run2	generate/STIM_003.jpg
924.675	1.55	0	generate	Run2	generate/STIM_003.jpg
928.48	0.872	1	generate	Run2	generate/STIM_003.jpg
931.487	1.041	1	generate	Run2	generate/STIM_003.jpg
935.564	0.924	0	generate	Run2	generate/STIM_004.jpg
940.111	1.006	0	generate	Run2	generate/STIM_004.jpg
943.889	1.661	1	generate	Run2	generate/STIM_004.jpg
947.687	1.866	1	generate	Run2	generate/STIM_004.jpg
953.237	1.521	1	generate	Run2	generate/STIM_004.jpg
958.398	1.444	1	generate	Run2	generate/STIM_005.jpg
963.727	1.641	1	generate	Run2	generate/STIM_005.jpg
968.602	0.975	1	generate	Run2	generate/STIM_005.jpg
972.991	1.883	1	generate	Run2	generate/STIM_005.jpg
978.084	0.849	1	generate	Run2	generate/STIM_005.jpg
981.053	1.009	1	generate	Run2	generate/STIM_006.jpg
984.636	1.926	1	generate	Run2	generate/STIM_006.jpg
989.813	0.977	1	generate	Run2	generate/STIM_006.jpg
994.761	0.822	1	generate	Run2	generate/STIM_006.jpg
997.747	1.065	1	generate	Run2	generate/STIM_006.jpg
1002.791	1.86	1	generate	Run2	generate/STIM_007.jpg
1007.601	1.77	0	generate	Run2	generate/STIM_007.jpg
1012.396	1.24	1	generate	Run2	generate/STIM_007.jpg
1016.813	1.785	1	generate	Run2	generate/STIM_007.jpg
1022.326	0.988	1	generate	Run2	generate/STIM_007.jpg
1025.548	1.6	1	generate	Run2	generate/STIM_008.jpg
1030.699	1.415	1	generate	Run2	generate/STIM_008.jpg
1034.739	1.696	1	generate	Run2	generate/STIM_008.jpg
1040.229	1.778	1	generate	Run2	generate/STIM_008.jpg
1044.529	1.104	1	generate	Run2	generate/STIM_008.jpg
1048.104	1.464	1	generate	Run2	generate/STIM_009.jpg
1052.824	1.766	1	generate	Run2	generate/STIM_009.jpg
1058.081	0.869	1	generate	Run2	generate/STIM_009.jpg
1060.993	0.865	1	generate	Run2	generate/STIM_009.jpg
1064.291	1.855	1	generate	Run2	generate/STIM_009.jpg
1068.57	1.819	1	generate	Run2	generate/STIM_010.jpg
1073.349	1.018	1	generate	Run2	generate/STIM_010.jpg
1077.838	1.618	1	generate	Run2	generate/STIM_010.jpg
1083.313	1.602	1	generate	Run2	generate/STIM_010.jpg
1088.053	1.424	1	generate	Run2	generate/STIM_010.jpg
1091.727	2.238	1	generate	Run2	generate/STIM_011.jpg
1097.767	1.069	1	generate	Run2	generate/STIM_011.jpg
1100.842	0.97	1	generate	Run2	generate/STIM_011.jpg
1104.959	1.171	1	generate	Run2	generate/STIM_011.jpg
1109.608	1.268	0	generate	Run2	generate/STIM_011.jpg
1113.152	1.53	1	generate	Run2	generate/STIM_012.jpg
1117.738	2.011	1	generate	Run2	generate/STIM_012.jpg
1123.505	1.726	1	generate	Run2	generate/STIM_012.jpg
1127.528	1.53	0	generate	Run2	generate/STIM_012.jpg
1131.564	0.899	1	generate	Run2	generate/STIM_012.jpg
1135.345	0.934	1	generate	Run2	generate/STIM_013.jpg
1138.479	2.149	1	generate	Run2	generate/STIM_013.jpg
1143.192	1.818	1	generate	Run2	generate/STIM_013.jpg
1148.706	1.621	1	generate	Run2	generate/STIM_013.jpg
1153.036	1.234	1	generate	Run2	generate/STIM_013.jpg
1157.366	1.589	1	generate	Run2	generate/STIM_014.jpg
1162.619	1.745	0	generate	Run2	generate/STIM_014.jpg
1168.178	1.131	1	generate	Run2	generate/STIM_014.jpg
1172.783	1.648	1	generate	Run2	generate/STIM_014.jpg
1177.135	1.681	1	generate	Run2	generate/STIM_014.jpg
1181.409	2.045	0	generate	Run2	generate/STIM_015.jpg
1185.676	2.012	1	generate	Run2	generate/STIM_015.jpg
1191.019	1.208	1	generate	Run2	generate/STIM_015.jpg
1194.461	1.71	1	generate	Run2	generate/STIM_015.jpg
1199.399	1.609	0	generate	Run2	generate/STIM_015.jpg
1204.738	1.698	1	generate	Run2	generate/STIM_016.jpg
1210.051	1.048	1	generate	Run2	generate/STIM_016.jpg
1213.881	1.5	1	generate	Run2	generate/STIM_016.jpg
1217.696	1.188	1	generate	Run2	generate/STIM_016.jpg
1221.949	1.792	1	generate	Run2	generate/STIM_016.jpg
1226.812	1.37	1	generate	Run2	generate/STIM_017.jpg
1230.669	1.69	1	generate	Run2	generate/STIM_017.jpg
1236.083	1.394	1	generate	Run2	generate/STIM_017.jpg
1240.623	0.902	1	generate	Run2	generate/STIM_017.jpg
1244.797	1.345	1	generate	Run2	generate/STIM_017.jpg
1249.005	2.18	1	generate	Run2	generate/STIM_018.jpg
1254.851	1.58	1	generate	Run2	generate/STIM_018.jpg
1259.582	1.564	1	generate	Run2	generate/STIM_018.jpg
1263.419	1.603	1	generate	Run2	generate/STIM_018.jpg
1268.191	1.037	1	generate	Run2	generate/STIM_018.jpg
1272.115	1.518	1	generate	Run2	generate/STIM_019.jpg
1276.418	1.898	1	generate	Run2	generate/STIM_019.jpg
1281.578	1.122	1	generate	Run2	generate/STIM_019.jpg
1285.613	1.395	1	generate	Run2	generate/STIM_019.jpg
1289.545	0.91	1	generate	Run2	generate/STIM_019.jpg
1293.708	2.153	0	generate	Run2	generate/STIM_020.jpg
1298.2	1.431	1	generate	Run2	generate/STIM_020.jpg
1301.798	1.658	1	generate	Run2	generate/STIM_020.jpg
1305.556	1.746	1	generate	Run2	generate/STIM_020.jpg
1310.195	1.875	1	generate	Run2	generate/STIM_020.jpg
1315.598	1.247	1	generate	Run2	generate/STIM_021.jpg
1320.341	1.827	1	generate	Run2	generate/STIM_021.jpg
1324.534	1.478	1	generate	Run2	generate/STIM_021.jpg
1329.83	1.692	1	generate	Run2	generate/STIM_021.jpg
1334.91	1.287	1	generate	Run2	generate/STIM_021.jpg
1339.464	1.196	1	generate	Run2	generate/STIM_022.jpg
1344.599	2.065	1	generate	Run2	generate/STIM_022.jpg
1350.01	1.418	1	generate	Run2	generate/STIM_022.jpg
1355.145	1.673	1	generate	Run2	generate/STIM_022.jpg
1360.43	0.894	1	generate	Run2	generate/STIM_022.jpg
1364.914	1.652	0	generate	Run2	generate/STIM_023.jpg
1369.86	1.646	1	generate	Run2	generate/STIM_023.jpg
1373.671	1.17	1	generate	Run2	generate/STIM_023.jpg
1377.675	1.07	1	generate	Run2	generate/STIM_023.jpg
1381.48	1.734	1	generate	Run2	generate/STIM_023.jpg
1386.575	1.19	1	generate	Run2	generate/STIM_024.jpg
1390.378	1.596	1	generate	Run2	generate/STIM_024.jpg
1394.789	1.976	1	generate	Run2	generate/STIM_024.jpg
1400.454	0.886	1	generate	Run2	generate/STIM_024.jpg
1403.346	1.081	1	generate	Run2	generate/STIM_024.jpg
1407.121	0.832	1	repeat	Run2	repeat/STIM_000.jpg
1411.461	0.65	1	repeat	Run2	repeat/STIM_000.jpg
1415.092	0.596	1	repeat	Run2	repeat/STIM_000.jpg
1419.039	0.79	1	repeat	Run2	repeat/STIM_000.jpg
1422.241	0.516	1	repeat	Run2	repeat/STIM_000.jpg
1426.077	0.607	0	repeat	Run2	repeat/STIM_001.jpg
1429.533	0.528	1	repeat	Run2	repeat/STIM_001.jpg
1433.241	0.5	1	repeat	Run2	repeat/STIM_001.jpg
1436.612	0.766	1	repeat	Run2	repeat/STIM_001.jpg
1441.078	0.453	1	repeat	Run2	repeat/STIM_001.jpg
1444.669	0.7	1	repeat	Run2	repeat/STIM_002.jpg
1447.887	0.584	1	repeat	Run2	repeat/STIM_002.jpg
1452.374	0.789	1	repeat	Run2	repeat/STIM_002.jpg
1456.518	0.844	1	repeat	Run2	repeat/STIM_002.jpg
1460.785	0.636	1	repeat	Run2	repeat/STIM_002.jpg
1464.401	0.61	1	repeat	Run2	repeat/STIM_003.jpg
1468.53	0.673	1	repeat	Run2	repeat/STIM_003.jpg
1471.672	0.532	1	repeat	Run2	repeat/STIM_003.jpg
1474.734	0.698	1	repeat	Run2	repeat/STIM_003.jpg
1477.651	0.472	1	repeat	Run2	repeat/STIM_003.jpg
1481.243	0.878	1	repeat	Run2	repeat/STIM_004.jpg
1484.812	0.723	0	repeat	Run2	repeat/STIM_004.jpg
1488.841	0.593	1	repeat	Run2	repeat/STIM_004.jpg
1492.253	0.774	0	repeat	Run2	repeat/STIM_004.jpg
1496.073	0.735	1	repeat	Run2	repeat/STIM_004.jpg
1500.024	0.468	1	repeat	Run2	repeat/STIM_005.jpg
1502.5	0.559	0	repeat	Run2	repeat/STIM_005.jpg
1506.567	0.466	1	repeat	Run2	repeat/STIM_005.jpg
1509.202	0.602	1	repeat	Run2	repeat/STIM_005.jpg
1511.888	0.676	1	repeat	Run2	repeat/STIM_005.jpg
1515.511	0.766	1	repeat	Run2	repeat/STIM_006.jpg
1518.347	0.68	1	repeat	Run2	repeat/STIM_006.jpg
1522.175	0.788	1	repeat	Run2	repeat/STIM_006.jpg
1526.674	0.732	1	repeat	Run2	repeat/STIM_006.jpg
1529.575	0.734	1	repeat	Run2	repeat/STIM_006.jpg
1532.469	0.858	0	repeat	Run2	repeat/STIM_007.jpg
1537.036	0.805	1	repeat	Run2	repeat/STIM_007.jpg
1540.552	0.499	1	repeat	Run2	repeat/STIM_007.jpg
1544.341	0.855	1	repeat	Run2	repeat/STIM_007.jpg
1547.715	0.612	0	repeat	Run2	repeat/STIM_007.jpg
1552.04	0.524	1	repeat	Run2	repeat/STIM_008.jpg
1556.121	0.541	1	repeat	Run2	repeat/STIM_008.jpg
1558.983	0.836	1	repeat	Run2	repeat/STIM_008.jpg
1562.999	0.498	1	repeat	Run2	repeat/STIM_008.jpg
1565.84	0.573	0	repeat	Run2	repeat/STIM_008.jpg
1569.949	0.864	1	repeat	Run2	repeat/STIM_009.jpg
1574.194	0.509	1	repeat	Run2	repeat/STIM_009.jpg
1578.694	0.807	0	repeat	Run2	repeat/STIM_009.jpg
1583.081	0.512	1	repeat	Run2	repeat/STIM_009.jpg
1587.404	0.638	1	repeat	Run2	repeat/STIM_009.jpg
1591.39	0.829	1	repeat	Run2	repeat/STIM_010.jpg
1594.571	0.476	1	repeat	Run2	repeat/STIM_010.jpg
1598.449	0.651	1	repeat	Run2	repeat/STIM_010.jpg
1601.822	0.733	1	repeat	Run2	repeat/STIM_010.jpg
1605.377	0.829	1	repeat	Run2	repeat/STIM_010.jpg
1608.655	0.885	1	repeat	Run2	repeat/STIM_011.jpg
1613.432	0.713	1	repeat	Run2	repeat/STIM_011.jpg
1618.049	0.55	1	repeat	Run2	repeat/STIM_011.jpg
1621.249	0.636	1	repeat	Run2	repeat/STIM_011.jpg
1625.256	0.548	1	repeat	Run2	repeat/STIM_011.jpg
1629.402	0.633	1	repeat	Run2	repeat/STIM_012.jpg
1632.306	0.486	1	repeat	Run2	repeat/STIM_012.jpg
1636.571	0.828	1	repeat	Run2	repeat/STIM_012.jpg
1639.466	0.641	1	repeat	Run2	repeat/STIM_012.jpg
1643.058	0.72	1	repeat	Run2	repeat/STIM_012.jpg
1646.651	0.502	1	repeat	Run2	repeat/STIM_013.jpg
1650.04	0.56	1	repeat	Run2	repeat/STIM_013.jpg
1653.337	0.469	1	repeat	Run2	repeat/STIM_013.jpg
1656.704	0.613	1	repeat	Run2	repeat/STIM_013.jpg
1661.012	0.469	1	repeat	Run2	repeat/STIM_013.jpg
1664.454	0.602	1	repeat	Run2	repeat/STIM_014.jpg
1668.339	0.809	1	repeat	Run2	repeat/STIM_014.jpg
1671.247	0.546	1	repeat	Run2	repeat/STIM_014.jpg
1675.042	0.794	1	repeat	Run2	repeat/STIM_014.jpg
1678.27	0.553	1	repeat	Run2	repeat/STIM_014.jpg
1681.704	1.502	1	generate	Run3	generate/STIM_000.jpg
1686.615	1.067	1	generate	Run3	generate/STIM_000.jpg
1690.755	1.858	1	generate	Run3	generate/STIM_000.jpg
1694.977	1.592	1	generate	Run3	generate/STIM_000.jpg
1700.183	1.559	1	generate	Run3	generate/STIM_000.jpg
1704.597	0.82	1	generate	Run3	generate/STIM_001.jpg
1708.666	1.087	1	generate	Run3	generate/STIM_001.jpg
1712.265	1.323	1	generate	Run3	generate/STIM_001.jpg
1716.657	1.765	1	generate	Run3	generate/STIM_001.jpg
1721.934	1.548	1	generate	Run3	generate/STIM_001.jpg
1725.882	0.86	1	generate	Run3	generate/STIM_002.jpg
1730.136	1.871	1	generate	Run3	generate/STIM_002.jpg
1734.453	1.799	0	generate	Run3	generate/STIM_002.jpg
1740.118	0.769	1	generate	Run3	generate/STIM_002.jpg
1744.782	1.518	1	generate	Run3	generate/STIM_002.jpg
1750.104	1.133	1	generate	Run3	generate/STIM_003.jpg
1753.739	0.93	1	generate	Run3	generate/STIM_003.jpg
1757.926	0.944	1	generate	Run3	generate/STIM_003.jpg
1762.156	1.133	1	generate	Run3	generate/STIM_003.jpg
1766.154	0.852	1	generate	Run3	generate/STIM_003.jpg
1770.624	1.419	1	generate	Run3	generate/STIM_004.jpg
1774.069	1.13	1	generate	Run3	generate/STIM_004.jpg
1779.118	0.904	1	generate	Run3	generate/STIM_004.jpg
1783.021	1.002	1	generate	Run3	generate/STIM_004.jpg
1787.748	0.888	1	generate	Run3	generate/STIM_004.jpg
1792.503	0.791	1	generate	Run3	generate/STIM_005.jpg
1796.44	0.886	1	generate	Run3	generate/STIM_005.jpg
1800.192	1.118	1	generate	Run3	generate/STIM_005.jpg
1805.074	1.468	1	generate	Run3	generate/STIM_005.jpg
1809.138	1.345	1	generate	Run3	generate/STIM_005.jpg
1812.506	1.118	1	generate	Run3	generate/STIM_006.jpg
1817.316	1.356	1	generate	Run3	generate/STIM_006.jpg
1821.881	1.189	1	generate	Run3	generate/STIM_006.jpg
1826.761	1.719	1	generate	Run3	generate/STIM_006.jpg
1831.96	1.568	1	generate	Run3	generate/STIM_006.jpg
1836.926	1.253	1	generate	Run3	generate/STIM_007.jpg
1841.891	1.526	1	generate	Run3	generate/STIM_007.jpg
1846.357	1.241	1	generate	Run3	generate/STIM_007.jpg
1851.114	0.808	1	generate	Run3	generate/STIM_007.jpg
1853.964	1.742	1	generate	Run3	generate/STIM_007.jpg
1857.86	0.83	1	generate	Run3	generate/STIM_008.jpg
1861.38	1.016	1	generate	Run3	generate/STIM_008.jpg
1864.558	1.079	1	generate	Run3	generate/STIM_008.jpg
1868.251	1.009	1	generate	Run3	generate/STIM_008.jpg
1871.9	1.275	1	generate	Run3	generate/STIM_008.jpg
1876.991	1.879	0	generate	Run3	generate/STIM_009.jpg
1881.711	0.896	1	generate	Run3	generate/STIM_009.jpg
1886.031	1.491	1	generate	Run3	generate/STIM_009.jpg
1890.356	1.744	1	generate	Run3	generate/STIM_009.jpg
1894.819	1.585	1	generate	Run3	generate/STIM_009.jpg
1900.139	1.299	1	generate	Run3	generate/STIM_010.jpg
1904.6	1.714	1	generate	Run3	generate/STIM_010.jpg
1908.74	1.062	1	generate	Run3	generate/STIM_010.jpg
1913.075	0.895	1	generate	Run3	generate/STIM_010.jpg
1917.899	1.481	1	generate	Run3	generate/STIM_010.jpg
1923.019	0.931	1	generate	Run3	generate/STIM_011.jpg
1926.548	1.608	1	generate	Run3	generate/STIM_011.jpg
1930.193	1.868	1	generate	Run3	generate/STIM_011.jpg
1935.185	1.327	1	generate	Run3	generate/STIM_011.jpg
1939.687	1.075	1	generate	Run3	generate/STIM_011.jpg
1944.19	0.759	0	generate	Run3	generate/STIM_012.jpg
1948.794	1.764	1	generate	Run3	generate/STIM_012.jpg
1953.022	1.759	1	generate	Run3	generate/STIM_012.jpg
1956.798	1.536	1	generate	Run3	generate/STIM_012.jpg
1962.024	1.191	1	generate	Run3	generate/STIM_012.jpg
1966.788	1.166	1	generate	Run3	generate/STIM_013.jpg
1971.929	1.7	1	generate	Run3	generate/STIM_013.jpg
1977.143	0.916	1	generate	Run3	generate/STIM_013.jpg
1981.339	1.476	1	generate	Run3	generate/STIM_013.jpg
1985.403	0.848	1	generate	Run3	generate/STIM_013.jpg
1989.101	0.947	1	generate	Run3	generate/STIM_014.jpg
1993.77	0.806	1	generate	Run3	generate/STIM_014.jpg
1997.137	1.811	1	generate	Run3	generate/STIM_014.jpg
2002.582	1.732	1	generate	Run3	generate/STIM_014.jpg
2007.797	1.126	1	generate	Run3	generate/STIM_014.jpg
2012.917	1.278	1	generate	Run3	generate/STIM_015.jpg
2016.854	1.498	1	generate	Run3	generate/STIM_015.jpg
2020.626	1.103	1	generate	Run3	generate/STIM_015.jpg
2024.23	1.571	1	generate	Run3	generate/STIM_015.jpg
2029.591	1.246	1	generate	Run3	generate/STIM_015.jpg
2033.509	1.197	1	generate	Run3	generate/STIM_016.jpg
2037.105	0.896	1	generate	Run3	generate/STIM_016.jpg
2040.79	1.85	1	generate	Run3	generate/STIM_016.jpg
2045.855	1.739	1	generate	Run3	generate/STIM_016.jpg
2051.189	1.357	1	generate	Run3	generate/STIM_016.jpg
2056.056	1.452	0	generate	Run3	generate/STIM_017.jpg
2061.44	1.324	1	generate	Run3	generate/STIM_017.jpg
2064.904	1.095	0	generate	Run3	generate/STIM_017.jpg
2068.365	0.901	1	generate	Run3	generate/STIM_017.jpg
2071.373	1.402	1	generate	Run3	generate/STIM_017.jpg
2075.466	0.858	1	generate	Run3	generate/STIM_018.jpg
2078.604	1.241	1	generate	Run3	generate/STIM_018.jpg
2083.087	1.192	1	generate	Run3	generate/STIM_018.jpg
2087.134	1.317	1	generate	Run3	generate/STIM_018.jpg
2091.466	0.876	1	generate	Run3	generate/STIM_018.jpg
2095.328	1.385	1	generate	Run3	generate/STIM_019.jpg
2099.368	1.477	1	generate	Run3	generate/STIM_019.jpg
2104.305	1.001	1	generate	Run3	generate/STIM_019.jpg
2108.013	1.05	1	generate	Run3	generate/STIM_019.jpg
2112.539	1.475	1	generate	Run3	generate/STIM_019.jpg
2117.317	1.423	1	generate	Run3	generate/STIM_020.jpg
2122.102	1.682	0	generate	Run3	generate/STIM_020.jpg
2126.859	1.282	0	generate	Run3	generate/STIM_020.jpg
2131.432	0.76	1	generate	Run3	generate/STIM_020.jpg
2134.569	0.99	1	generate	Run3	generate/STIM_020.jpg
2137.643	1.474	1	generate	Run3	generate/STIM_021.jpg
2142.461	1.372	1	generate	Run3	generate/STIM_021.jpg
2146.466	1.578	1	generate	Run3	generate/STIM_021.jpg
2151.361	1.12	1	generate	Run3	generate/STIM_021.jpg
2154.608	0.977	1	generate	Run3	generate/STIM_021.jpg
2158.318	1.466	1	generate	Run3	generate/STIM_022.jpg
2162.494	1.356	1	generate	Run3	generate/STIM_022.jpg
2166.038	0.983	1	generate	Run3	generate/STIM_022.jpg
2170.277	0.863	1	generate	Run3	generate/STIM_022.jpg
2175.074	1.831	1	generate	Run3	generate/STIM_022.jpg
2180.809	1.282	0	generate	Run3	generate/STIM_023.jpg
2185.971	1.381	1	generate	Run3	generate/STIM_023.jpg
2191.308	1.465	1	generate	Run3	generate/STIM_023.jpg
2194.922	1.452	0	generate	Run3	generate/STIM_023.jpg
2199.934	0.824	1	generate	Run3	generate/STIM_023.jpg
2204.212	1.712	1	generate	Run3	generate/STIM_024.jpg
2209.065	1.764	0	generate	Run3	generate/STIM_024.jpg
2213.135	1.437	1	generate	Run3	generate/STIM_024.jpg
2218.181	1.844	0	generate	Run3	generate/STIM_024.jpg
2223.464	1.662	1	generate	Run3	generate/STIM_024.jpg
2227.691	0.571	1	repeat	Run3	repeat/STIM_000.jpg
2232.255	0.775	1	repeat	Run3	repeat/STIM_000.jpg
2236.737	0.587	1	repeat	Run3	repeat/STIM_000.jpg
2240.706	0.859	1	repeat	Run3	repeat/STIM_000.jpg
2244.678	0.868	1	repeat	Run3	repeat/STIM_000.jpg
2248.317	0.564	1	repeat	Run3	repeat/STIM_001.jpg
2252.007	0.509	1	repeat	Run3	repeat/STIM_001.jpg
2255.062	0.735	1	repeat	Run3	repeat/STIM_001.jpg
2258.078	0.57	1	repeat	Run3	repeat/STIM_001.jpg
2262.514	0.74	1	repeat	Run3	repeat/STIM_001.jpg
2267.071	0.768	1	repeat	Run3	repeat/STIM_002.jpg
2270.158	0.774	1	repeat	Run3	repeat/STIM_002.jpg
2274.799	0.452	1	repeat	Run3	repeat/STIM_002.jpg
2278.49	0.685	1	repeat	Run3	repeat/STIM_002.jpg
2281.632	0.725	1	repeat	Run3	repeat/STIM_002.jpg
2284.454	0.73	1	repeat	Run3	repeat/STIM_003.jpg
2287.313	0.707	1	repeat	Run3	repeat/STIM_003.jpg
2291.225	0.651	1	repeat	Run3	repeat/STIM_003.jpg
2295.784	0.655	1	repeat	Run3	repeat/STIM_003.jpg
2299.112	0.656	1	repeat	Run3	repeat/STIM_003.jpg
2303.285	0.656	1	repeat	Run3	repeat/STIM_004.jpg
2307.227	0.74	1	repeat	Run3	repeat/STIM_004.jpg
2311.912	0.772	1	repeat	Run3	repeat/STIM_004.jpg
2315.638	0.646	1	repeat	Run3	repeat/STIM_004.jpg
2319.504	0.646	1	repeat	Run3	repeat/STIM_004.jpg
2322.218	0.633	1	repeat	Run3	repeat/STIM_005.jpg
2324.898	0.858	1	repeat	Run3	repeat/STIM_005.jpg
2329.098	0.805	1	repeat	Run3	repeat/STIM_005.jpg
2332.03	0.699	1	repeat	Run3	repeat/STIM_005.jpg
2335.693	0.5	1	repeat	Run3	repeat/STIM_005.jpg
2338.348	0.555	1	repeat	Run3	repeat/STIM_006.jpg
2342.603	0.464	1	repeat	Run3	repeat/STIM_006.jpg
2345.22	0.854	1	repeat	Run3	repeat/STIM_006.jpg
2349.35	0.463	1	repeat	Run3	repeat/STIM_006.jpg
2352.283	0.827	1	repeat	Run3	repeat/STIM_006.jpg
2355.208	0.546	1	repeat	Run3	repeat/STIM_007.jpg
2357.82	0.48	1	repeat	Run3	repeat/STIM_007.jpg
2362.244	0.764	1	repeat	Run3	repeat/STIM_007.jpg
2365.307	0.494	1	repeat	Run3	repeat/STIM_007.jpg
2368.393	0.592	1	repeat	Run3	repeat/STIM_007.jpg
2371.317	0.748	1	repeat	Run3	repeat/STIM_008.jpg
2374.612	0.853	1	repeat	Run3	repeat/STIM_008.jpg
2377.829	0.862	1	repeat	Run3	repeat/STIM_008.jpg
2381.263	0.743	1	repeat	Run3	repeat/STIM_008.jpg
2385.061	0.725	0	repeat	Run3	repeat/STIM_008.jpg
2388.218	0.726	1	repeat	Run3	repeat/STIM_009.jpg
2392.659	0.739	1	repeat	Run3	repeat/STIM_009.jpg
2396.313	0.824	1	repeat	Run3	repeat/STIM_009.jpg
2400.502	0.657	1	repeat	Run3	repeat/STIM_009.jpg
2404.063	0.494	1	repeat	Run3	repeat/STIM_009.jpg
2407.071	0.808	1	repeat	Run3	repeat/STIM_010.jpg
2410.806	0.712	1	repeat	Run3	repeat/STIM_010.jpg
2415.011	0.465	1	repeat	Run3	repeat/STIM_010.jpg
2418.538	0.682	1	repeat	Run3	repeat/STIM_010.jpg
2422.624	0.799	1	repeat	Run3	repeat/STIM_010.jpg
2427.126	0.564	1	repeat	Run3	repeat/STIM_011.jpg
2430.795	0.749	1	repeat	Run3	repeat/STIM_011.jpg
2435.251	0.79	1	repeat	Run3	repeat/STIM_011.jpg
2439.431	0.834	1	repeat	Run3	repeat/STIM_011.jpg
2442.722	0.74	1	repeat	Run3	repeat/STIM_011.jpg
2445.816	0.478	1	repeat	Run3	repeat/STIM_012.jpg
2449.514	0.661	1	repeat	Run3	repeat/STIM_012.jpg
2453.406	0.455	1	repeat	Run3	repeat/STIM_012.jpg
2456.225	0.574	1	repeat	Run3	repeat/STIM_012.jpg
2458.966	0.883	1	repeat	Run3	repeat/STIM_012.jpg
2463.24	0.462	1	repeat	Run3	repeat/STIM_013.jpg
2466.398	0.831	1	repeat	Run3	repeat/STIM_013.jpg
2470.052	0.579	1	repeat	Run3	repeat/STIM_013.jpg
2474.355	0.532	1	repeat	Run3	repeat/STIM_013.jpg
2477.076	0.709	1	repeat	Run3	repeat/STIM_013.jpg
2481.133	0.839	1	repeat	Run3	repeat/STIM_014.jpg
2484.27	0.713	1	repeat	Run3	repeat/STIM_014.jpg
2488.817	0.602	1	repeat	Run3	repeat/STIM_014.jpg
2492.368	0.642	1	repeat	Run3	repeat/STIM_014.jpg
2495.884	0.733	1	repeat	Run3	repeat/STIM_014.jpg
2499.75	0.819	1	generate	Run4	generate/STIM_000.jpg
2503.129	1.185	1	generate	Run4	generate/STIM_000.jpg
2507.995	1.107	1	generate	Run4	generate/STIM_000.jpg
2512.444	1.19	1	generate	Run4	generate/STIM_000.jpg
2516.691	1.139	1	generate	Run4	generate/STIM_000.jpg
2521.451	1.604	1	generate	Run4	generate/STIM_001.jpg
2525.84	0.89	1	generate	Run4	generate/STIM_001.jpg
2529.991	1.045	1	generate	Run4	generate/STIM_001.jpg
2534.87	1.756	1	generate	Run4	generate/STIM_001.jpg
2539.543	1.545	1	generate	Run4	generate/STIM_001.jpg
2543.349	1.622	1	generate	Run4	generate/STIM_002.jpg
2547.254	0.978	1	generate	Run4	generate/STIM_002.jpg
2551.042	1.441	1	generate	Run4	generate/STIM_002.jpg
2555.065	0.798	1	generate	Run4	generate/STIM_002.jpg
2559.226	1.861	1	generate	Run4	generate/STIM_002.jpg
2564.329	1.452	1	generate	Run4	generate/STIM_003.jpg
2569.509	0.949	1	generate	Run4	generate/STIM_003.jpg
2574.277	0.978	1	generate	Run4	generate/STIM_003.jpg
2578.868	1.284	1	generate	Run4	generate/STIM_003.jpg
2583.083	0.904	1	generate	Run4	generate/STIM_003.jpg
2587.299	1.065	1	generate	Run4	generate/STIM_004.jpg
2592.351	0.948	1	generate	Run4	generate/STIM_004.jpg
2596.298	1.257	1	generate	Run4	generate/STIM_004.jpg
2601.155	1.05	1	generate	Run4	generate/STIM_004.jpg
2606.155	1.016	1	generate	Run4	generate/STIM_004.jpg
2610.422	1.248	1	generate	Run4	generate/STIM_005.jpg
2614.573	1.095	1	generate	Run4	generate/STIM_005.jpg
2617.985	1.46	1	generate	Run4	generate/STIM_005.jpg
2622.335	1.884	1	generate	Run4	generate/STIM_005.jpg
2626.693	1.163	1	generate	Run4	generate/STIM_005.jpg
2631.053	1.078	1	generate	Run4	generate/STIM_006.jpg
2634.328	1.556	1	generate	Run4	generate/STIM_006.jpg
2638.265	0.929	1	generate	Run4	generate/STIM_006.jpg
2642.32	1.227	1	generate	Run4	generate/STIM_006.jpg
2646.13	0.83	1	generate	Run4	generate/STIM_006.jpg
2649.696	1.19	1	generate	Run4	generate/STIM_007.jpg
2654.22	1.805	1	generate	Run4	generate/STIM_007.jpg
2659.413	1.772	1	generate	Run4	generate/STIM_007.jpg
2663.342	0.92	1	generate	Run4	generate/STIM_007.jpg
2667.365	1.362	1	generate	Run4	generate/STIM_007.jpg
2671.182	0.994	1	generate	Run4	generate/STIM_008.jpg
2674.964	1.046	1	generate	Run4	generate/STIM_008.jpg
2678.527	1.241	1	generate	Run4	generate/STIM_008.jpg
2682.886	1.198	0	generate	Run4	generate/STIM_008.jpg
2687.809	1.076	1	generate	Run4	generate/STIM_008.jpg
2691.147	1.61	1	generate	Run4	generate/STIM_009.jpg
2695.254	1.878	1	generate	Run4	generate/STIM_009.jpg
2699.367	0.89	1	generate	Run4	generate/STIM_009.jpg
2703.127	0.846	1	generate	Run4	generate/STIM_009.jpg
2707.679	1.773	1	generate	Run4	generate/STIM_009.jpg
2711.68	1.566	1	generate	Run4	generate/STIM_010.jpg
2716.661	0.854	1	generate	Run4	generate/STIM_010.jpg
2720.26	1.184	1	generate	Run4	generate/STIM_010.jpg
2723.505	1.682	1	generate	Run4	generate/STIM_010.jpg
2728.325	1.034	1	generate	Run4	generate/STIM_010.jpg
2731.82	1.824	1	generate	Run4	generate/STIM_011.jpg
2736.244	1.184	1	generate	Run4	generate/STIM_011.jpg
2741.334	1.036	1	generate	Run4	generate/STIM_011.jpg
2745.904	1.094	1	generate	Run4	generate/STIM_011.jpg
2750.646	1.548	1	generate	Run4	generate/STIM_011.jpg
2755.398	1.252	1	generate	Run4	generate/STIM_012.jpg
2759.488	1.134	1	generate	Run4	generate/STIM_012.jpg
2762.655	1.749	1	generate	Run4	generate/STIM_012.jpg
2767.267	1.52	1	generate	Run4	generate/STIM_012.jpg
2772.124	1.809	1	generate	Run4	generate/STIM_012.jpg
2776.037	1.154	1	generate	Run4	generate/STIM_013.jpg
2780.826	1.54	1	generate	Run4	generate/STIM_013.jpg
2786.364	1.845	1	generate	Run4	generate/STIM_013.jpg
2790.461	0.985	1	generate	Run4	generate/STIM_013.jpg
2794.515	1.134	1	generate	Run4	generate/STIM_013.jpg
2798.114	1.614	1	generate	Run4	generate/STIM_014.jpg
2803.555	0.863	1	generate	Run4	generate/STIM_014.jpg
2808.364	1.705	1	generate	Run4	generate/STIM_014.jpg
2812.088	1.144	1	generate	Run4	generate/STIM_014.jpg
2815.904	1.153	1	generate	Run4	generate/STIM_014.jpg
2820.053	1.804	1	generate	Run4	generate/STIM_015.jpg
2824.255	1.478	1	generate	Run4	generate/STIM_015.jpg
2827.791	1.879	1	generate	Run4	generate/STIM_015.jpg
2832.637	1.832	1	generate	Run4	generate/STIM_015.jpg
2837.197	1.883	1	generate	Run4	generate/STIM_015.jpg
2841.121	1.669	1	generate	Run4	generate/STIM_016.jpg
2845.168	1.222	0	generate	Run4	generate/STIM_016.jpg
2849.862	1.277	1	generate	Run4	generate/STIM_016.jpg
2854.211	1.478	1	generate	Run4	generate/STIM_016.jpg
2859.119	1.62	1	generate	Run4	generate/STIM_016.jpg
2864.652	1.014	0	generate	Run4	generate/STIM_017.jpg
2869.344	1.45	1	generate	Run4	generate/STIM_017.jpg
2872.882	1.247	1	generate	Run4	generate/STIM_017.jpg
2877.854	1.228	1	generate	Run4	generate/STIM_017.jpg
2882.378	0.838	1	generate	Run4	generate/STIM_017.jpg
2886.634	1.746	1	generate	Run4	generate/STIM_018.jpg
2891.742	0.994	1	generate	Run4	generate/STIM_018.jpg
2894.75	0.776	1	generate	Run4	generate/STIM_018.jpg
2899.154	1.69	1	generate	Run4	generate/STIM_018.jpg
2904.488	1.243	1	generate	Run4	generate/STIM_018.jpg
2908.342	0.778	0	generate	Run4	generate/STIM_019.jpg
2912.836	1.182	1	generate	Run4	generate/STIM_019.jpg
2917.394	1.276	1	generate	Run4	generate/STIM_019.jpg
2922.654	1.002	1	generate	Run4	generate/STIM_019.jpg
2926.602	1.637	1	generate	Run4	generate/STIM_019.jpg
2932.118	1.382	1	generate	Run4	generate/STIM_020.jpg
2936.798	1.168	1	generate	Run4	generate/STIM_020.jpg
2940.158	1.482	1	generate	Run4	generate/STIM_020.jpg
2944.238	1.56	0	generate	Run4	generate/STIM_020.jpg
2948.524	1.129	1	generate	Run4	generate/STIM_020.jpg
2952.489	1.878	1	generate	Run4	generate/STIM_021.jpg
2956.829	1.763	1	generate	Run4	generate/STIM_021.jpg
2961.204	1.304	1	generate	Run4	generate/STIM_021.jpg
2965.752	1.457	1	generate	Run4	generate/STIM_021.jpg
2970.731	1.654	1	generate	Run4	generate/STIM_021.jpg
2976.124	1.068	1	generate	Run4	generate/STIM_022.jpg
2980.75	0.908	1	generate	Run4	generate/STIM_022.jpg
2984.725	1.599	1	generate	Run4	generate/STIM_022.jpg
2989.769	1.756	1	generate	Run4	generate/STIM_022.jpg
2995.441	1.65	1	generate	Run4	generate/STIM_022.jpg
3000.705	1.556	1	generate	Run4	generate/STIM_023.jpg
3004.376	1.178	1	generate	Run4	generate/STIM_023.jpg
3009.512	1.077	1	generate	Run4	generate/STIM_023.jpg
3014.326	1.031	1	generate	Run4	generate/STIM_023.jpg
3019.074	1.241	1	generate	Run4	generate/STIM_023.jpg
3023.581	1.523	1	generate	Run4	generate/STIM_024.jpg
3028.35	1.477	1	generate	Run4	generate/STIM_024.jpg
3032.447	1.844	1	generate	Run4	generate/STIM_024.jpg
3037.547	1.506	1	generate	Run4	generate/STIM_024.jpg
3041.072	1.547	1	generate	Run4	generate/STIM_024.jpg
3045.811	0.772	1	repeat	Run4	repeat/STIM_000.jpg
3049.111	0.815	1	repeat	Run4	repeat/STIM_000.jpg
3053.811	0.839	1	repeat	Run4	repeat/STIM_000.jpg
3058.066	0.872	1	repeat	Run4	repeat/STIM_000.jpg
3061.046	0.589	1	repeat	Run4	repeat/STIM_000.jpg
3065.359	0.522	1	repeat	Run4	repeat/STIM_001.jpg
3069.354	0.646	1	repeat	Run4	repeat/STIM_001.jpg
3073.244	0.562	1	repeat	Run4	repeat/STIM_001.jpg
3075.855	0.818	1	repeat	Run4	repeat/STIM_001.jpg
3079.958	0.51	1	repeat	Run4	repeat/STIM_001.jpg
3082.644	0.567	1	repeat	Run4	repeat/STIM_002.jpg
3085.769	0.463	1	repeat	Run4	repeat/STIM_002.jpg
3088.877	0.738	1	repeat	Run4	repeat/STIM_002.jpg
3093.22	0.584	1	repeat	Run4	repeat/STIM_002.jpg
3097.133	0.505	1	repeat	Run4	repeat/STIM_002.jpg
3100.396	0.788	1	repeat	Run4	repeat/STIM_003.jpg
3103.393	0.659	1	repeat	Run4	repeat/STIM_003.jpg
3106.799	0.859	1	repeat	Run4	repeat/STIM_003.jpg
3109.669	0.473	1	repeat	Run4	repeat/STIM_003.jpg
3112.613	0.869	1	repeat	Run4	repeat/STIM_003.jpg
3116.312	0.802	1	repeat	Run4	repeat/STIM_004.jpg
3120.936	0.77	1	repeat	Run4	repeat/STIM_004.jpg
3124.091	0.654	1	repeat	Run4	repeat/STIM_004.jpg
3128.475	0.579	1	repeat	Run4	repeat/STIM_004.jpg
3131.677	0.845	1	repeat	Run4	repeat/STIM_004.jpg
3135.805	0.587	1	repeat	Run4	repeat/STIM_005.jpg
3140.317	0.463	1	repeat	Run4	repeat/STIM_005.jpg
3144.779	0.813	1	repeat	Run4	repeat/STIM_005.jpg
3149.278	0.557	1	repeat	Run4	repeat/STIM_005.jpg
3152.251	0.66	1	repeat	Run4	repeat/STIM_005.jpg
3154.943	0.751	1	repeat	Run4	repeat/STIM_006.jpg
3159.381	0.636	1	repeat	Run4	repeat/STIM_006.jpg
3163.215	0.625	1	repeat	Run4	repeat/STIM_006.jpg
3167.566	0.779	1	repeat	Run4	repeat/STIM_006.jpg
3171.991	0.53	1	repeat	Run4	repeat/STIM_006.jpg
3176.162	0.689	1	repeat	Run4	repeat/STIM_007.jpg
3180.615	0.655	1	repeat	Run4	repeat/STIM_007.jpg
3183.403	0.776	1	repeat	Run4	repeat/STIM_007.jpg
3187.439	0.521	1	repeat	Run4	repeat/STIM_007.jpg
3191.028	0.584	1	repeat	Run4	repeat/STIM_007.jpg
3195.214	0.758	1	repeat	Run4	repeat/STIM_008.jpg
3198.924	0.768	1	repeat	Run4	repeat/STIM_008.jpg
3203.011	0.646	1	repeat	Run4	repeat/STIM_008.jpg
3207.089	0.623	1	repeat	Run4	repeat/STIM_008.jpg
3210.025	0.812	1	repeat	Run4	repeat/STIM_008.jpg
3214.628	0.75	1	repeat	Run4	repeat/STIM_009.jpg
3217.691	0.474	1	repeat	Run4	repeat/STIM_009.jpg
3221.083	0.831	1	repeat	Run4	repeat/STIM_009.jpg
3223.972	0.584	1	repeat	Run4	repeat/STIM_009.jpg
3227.448	0.47	1	repeat	Run4	repeat/STIM_009.jpg
3230.039	0.564	1	repeat	Run4	repeat/STIM_010.jpg
3233.538	0.543	1	repeat	Run4	repeat/STIM_010.jpg
3237.286	0.836	1	repeat	Run4	repeat/STIM_010.jpg
3241.139	0.626	1	repeat	Run4	repeat/STIM_010.jpg
3244.297	0.528	1	repeat	Run4	repeat/STIM_010.jpg
3247.74	0.623	1	repeat	Run4	repeat/STIM_011.jpg
3252.271	0.762	1	repeat	Run4	repeat/STIM_011.jpg
3255.153	0.843	0	repeat	Run4	repeat/STIM_011.jpg
3259.036	0.652	1	repeat	Run4	repeat/STIM_011.jpg
3261.863	0.797	1	repeat	Run4	repeat/STIM_011.jpg
3265.192	0.576	1	repeat	Run4	repeat/STIM_012.jpg
3269.503	0.622	1	repeat	Run4	repeat/STIM_012.jpg
3273.094	0.801	1	repeat	Run4	repeat/STIM_012.jpg
3276.499	0.535	1	repeat	Run4	repeat/STIM_012.jpg
3279.56	0.692	1	repeat	Run4	repeat/STIM_012.jpg
3283.65	0.469	1	repeat	Run4	repeat/STIM_013.jpg
3287.114	0.616	1	repeat	Run4	repeat/STIM_013.jpg
3291.61	0.752	1	repeat	Run4	repeat/STIM_013.jpg
3294.849	0.516	1	repeat	Run4	repeat/STIM_013.jpg
3299.225	0.772	1	repeat	Run4	repeat/STIM_013.jpg
3302.658	0.804	1	repeat	Run4	repeat/STIM_014.jpg
3306.03	0.75	1	repeat	Run4	repeat/STIM_014.jpg
3309.963	0.859	1	repeat	Run4	repeat/STIM_014.jpg
3314.14	0.543	1	repeat	Run4	repeat/STIM_014.jpg
3318.043	0.51	1	repeat	Run4	repeat/STIM_014.jpg
