onset	duration	accuracy_binary	trial_type	learning_stage	stimulus
0.0	0.836	1	2back	Block1	2back/STIM_000.jpg
4.279	0.726	1	2back	Block1	2back/STIM_000.jpg
8.858	0.723	0	2back	Block1	2back/STIM_000.jpg
11.727	1.195	1	2back	Block1	2back/STIM_001.jpg
16.247	1.185	0	2back	Block1	2back/STIM_001.jpg
19.945	0.569	1	2back	Block1	2back/STIM_001.jpg
23.001	0.848	0	2back	Block1	2back/STIM_002.jpg
25.879	1.013	1	2back	Block1	2back/STIM_002.jpg
28.906	0.748	1	2back	Block1	2back/STIM_002.jpg
33.62	1.088	1	2back	Block1	2back/STIM_003.jpg
36.996	0.684	1	2back	Block1	2back/STIM_003.jpg
40.887	0.727	0	2back	Block1	2back/STIM_003.jpg
44.803	1.198	1	2back	Block1	2back/STIM_004.jpg
49.59	0.528	1	2back	Block1	2back/STIM_004.jpg
52.568	0.59	1	2back	Block1	2back/STIM_004.jpg
56.714	1.067	1	2back	Block1	2back/STIM_005.jpg
61.641	0.681	1	2back	Block1	2back/STIM_005.jpg
65.524	0.81	1	2back	Block1	2back/STIM_005.jpg
70.087	0.567	0	2back	Block1	2back/STIM_006.jpg
73.885	1.075	1	2back	Block1	2back/STIM_006.jpg
77.585	0.825	1	2back	Block1	2back/STIM_006.jpg
81.975	1.054	1	2back	Block1	2back/STIM_007.jpg
86.784	0.528	1	2back	Block1	2back/STIM_007.jpg
90.733	1.076	1	2back	Block1	2back/STIM_007.jpg
94.225	0.626	0	2back	Block1	2back/STIM_008.jpg
97.159	0.821	1	2back	Block1	2back/STIM_008.jpg
101.424	1.013	1	2back	Block1	2back/STIM_008.jpg
105.812	0.573	0	2back	Block1	2back/STIM_009.jpg
108.577	0.628	1	2back	Block1	2back/STIM_009.jpg
112.609	0.637	1	2back	Block1	2back/STIM_009.jpg
116.524	0.931	1	2back	Block1	2back/STIM_010.jpg
121.443	0.919	1	2back	Block1	2back/STIM_010.jpg
125.888	0.984	1	2back	Block1	2back/STIM_010.jpg
129.131	0.857	1	2back	Block1	2back/STIM_011.jpg
132.586	0.957	1	2back	Block1	2back/STIM_011.jpg
136.5	0.625	0	2back	Block1	2back/STIM_011.jpg
140.306	0.885	0	2back	Block1	2back/STIM_012.jpg
144.323	1.094	1	2back	Block1	2back/STIM_012.jpg
148.894	0.86	1	2back	Block1	2back/STIM_012.jpg
152.268	1.084	1	2back	Block1	2back/STIM_013.jpg
155.726	1.126	0	2back	Block1	2back/STIM_013.jpg
159.874	0.842	1	2back	Block1	2back/STIM_013.jpg
164.306	1.154	0	2back	Block1	2back/STIM_014.jpg
169.396	0.859	1	2back	Block1	2back/STIM_014.jpg
172.84	1.066	0	2back	Block1	2back/STIM_014.jpg
176.057	1.044	1	2back	Block1	2back/STIM_015.jpg
180.833	1.022	1	2back	Block1	2back/STIM_015.jpg
184.394	0.898	1	2back	Block1	2back/STIM_015.jpg
187.931	0.812	0	2back	Block1	2back/STIM_016.jpg
191.054	0.924	1	2back	Block1	2back/STIM_016.jpg
195.423	0.891	1	2back	Block1	2back/STIM_016.jpg
199.999	1.048	1	2back	Block1	2back/STIM_017.jpg
204.864	1.005	0	2back	Block1	2back/STIM_017.jpg
209.711	0.606	1	2back	Block1	2back/STIM_017.jpg
213.763	1.193	0	2back	Block1	2back/STIM_018.jpg
218.635	0.762	1	2back	Block1	2back/STIM_018.jpg
222.764	1.083	0	2back	Block1	2back/STIM_018.jpg
226.788	0.55	1	2back	Block1	2back/STIM_019.jpg
229.439	0.667	1	2back	Block1	2back/STIM_019.jpg
232.245	0.586	1	2back	Block1	2back/STIM_019.jpg
236.358	0.553	1	2back	Block1	2back/STIM_020.jpg
240.635	0.888	1	2back	Block1	2back/STIM_020.jpg
244.45	0.986	1	2back	Block1	2back/STIM_020.jpg
249.01	0.826	1	2back	Block1	2back/STIM_021.jpg
252.409	0.931	1	2back	Block1	2back/STIM_021.jpg
256.249	0.796	0	2back	Block1	2back/STIM_021.jpg
259.438	1.055	1	2back	Block1	2back/STIM_022.jpg
263.249	0.706	1	2back	Block1	2back/STIM_022.jpg
267.589	0.504	1	2back	Block1	2back/STIM_022.jpg
270.439	1.243	1	2back	Block1	2back/STIM_023.jpg
275.038	0.966	1	2back	Block1	2back/STIM_023.jpg
279.505	0.68	1	2back	Block1	2back/STIM_023.jpg
282.872	1.222	1	2back	Block1	2back/STIM_024.jpg
286.524	1.163	1	2back	Block1	2back/STIM_024.jpg
291.287	0.628	1	2back	Block1	2back/STIM_024.jpg
295.026	0.702	1	2back	Block1	2back/STIM_025.jpg
298.188	1.039	1	2back	Block1	2back/STIM_025.jpg
302.06	0.496	1	2back	Block1	2back/STIM_025.jpg
306.231	0.811	1	2back	Block1	2back/STIM_026.jpg
310.976	0.724	1	2back	Block1	2back/STIM_026.jpg
315.053	0.497	1	2back	Block1	2back/STIM_026.jpg
318.533	1.258	1	2back	Block1	2back/STIM_027.jpg
323.29	1.129	1	2back	Block1	2back/STIM_027.jpg
327.32	0.617	1	2back	Block1	2back/STIM_027.jpg
330.307	0.979	1	2back	Block1	2back/STIM_028.jpg
333.319	0.778	1	2back	Block1	2back/STIM_028.jpg
338.045	0.509	1	2back	Block1	2back/STIM_028.jpg
341.915	0.588	0	2back	Block1	2back/STIM_029.jpg
345.415	0.778	1	2back	Block1	2back/STIM_029.jpg
349.233	0.845	1	2back	Block1	2back/STIM_029.jpg
353.34	0.581	1	2back	Block1	2back/STIM_030.jpg
357.02	1.156	1	2back	Block1	2back/STIM_030.jpg
362.068	1.032	1	2back	Block1	2back/STIM_030.jpg
365.99	0.873	1	2back	Block1	2back/STIM_031.jpg
369.681	0.577	0	2back	Block1	2back/STIM_031.jpg
372.655	0.96	1	2back	Block1	2back/STIM_031.jpg
377.441	1.193	1	2back	Block1	2back/STIM_032.jpg
382.321	0.906	1	2back	Block1	2back/STIM_032.jpg
386.997	0.787	1	2back	Block1	2back/STIM_032.jpg
391.728	0.71	0	2back	Block1	2back/STIM_033.jpg
395.912	0.557	1	2back	Block1	2back/STIM_033.jpg
399.268	0.543	1	2back	Block1	2back/STIM_033.jpg
403.189	0.609	1	2back	Block1	2back/STIM_034.jpg
406.5	0.649	0	2back	Block1	2back/STIM_034.jpg
410.049	0.966	1	2back	Block1	2back/STIM_034.jpg
414.135	1.247	1	2back	Block1	2back/STIM_035.jpg
418.735	0.579	1	2back	Block1	2back/STIM_035.jpg
422.55	0.632	1	2back	Block1	2back/STIM_035.jpg
426.288	0.954	0	2back	Block1	2back/STIM_036.jpg
430.974	0.785	1	2back	Block1	2back/STIM_036.jpg
434.72	0.516	1	2back	Block1	2back/STIM_036.jpg
437.373	0.694	1	2back	Block1	2back/STIM_037.jpg
440.597	0.889	1	2back	Block1	2back/STIM_037.jpg
444.066	0.811	1	2back	Block1	2back/STIM_037.jpg
447.311	0.603	1	2back	Block1	2back/STIM_038.jpg
451.631	1.197	1	2back	Block1	2back/STIM_038.jpg
454.921	0.757	1	2back	Block1	2back/STIM_038.jpg
459.155	0.557	1	2back	Block1	2back/STIM_039.jpg
462.727	0.924	1	2back	Block1	2back/STIM_039.jpg
467.375	0.716	1	2back	Block1	2back/STIM_039.jpg
470.619	0.571	1	0back	Block1	0back/STIM_000.jpg
475.101	0.527	0	0back	Block1	0back/STIM_000.jpg
477.83	0.482	1	0back	Block1	0back/STIM_000.jpg
480.615	0.686	1	0back	Block1	0back/STIM_001.jpg
483.453	0.711	1	0back	Block1	0back/STIM_001.jpg
486.936	0.462	1	0back	Block1	0back/STIM_001.jpg
490.325	0.365	1	0back	Block1	0back/STIM_002.jpg
492.846	0.661	1	0back	Block1	0back/STIM_002.jpg
496.385	0.564	1	0back	Block1	0back/STIM_002.jpg
500.572	0.591	1	0back	Block1	0back/STIM_003.jpg
505.04	0.519	1	0back	Block1	0back/STIM_003.jpg
508.575	0.491	0	0back	Block1	0back/STIM_003.jpg
512.363	0.696	1	0back	Block1	0back/STIM_004.jpg
515.134	0.424	1	0back	Block1	0back/STIM_004.jpg
518.89	0.582	1	0back	Block1	0back/STIM_004.jpg
522.64	0.405	1	0back	Block1	0back/STIM_005.jpg
526.523	0.613	1	0back	Block1	0back/STIM_005.jpg
529.552	0.384	1	0back	Block1	0back/STIM_005.jpg
532.28	0.423	1	0back	Block1	0back/STIM_006.jpg
536.242	0.711	1	0back	Block1	0back/STIM_006.jpg
539.17	0.582	1	0back	Block1	0back/STIM_006.jpg
542.451	0.632	1	0back	Block1	0back/STIM_007.jpg
546.361	0.39	1	0back	Block1	0back/STIM_007.jpg
548.834	0.523	1	0back	Block1	0back/STIM_007.jpg
552.874	0.387	1	0back	Block1	0back/STIM_008.jpg
556.191	0.442	1	0back	Block1	0back/STIM_008.jpg
559.842	0.572	1	0back	Block1	0back/STIM_008.jpg
562.604	0.543	1	0back	Block1	0back/STIM_009.jpg
566.046	0.509	1	0back	Block1	0back/STIM_009.jpg
568.786	0.476	0	0back	Block1	0back/STIM_009.jpg
572.289	0.512	1	0back	Block1	0back/STIM_010.jpg
574.863	0.695	1	0back	Block1	0back/STIM_010.jpg
577.588	0.466	1	0back	Block1	0back/STIM_010.jpg
581.89	0.483	1	0back	Block1	0back/STIM_011.jpg
585.393	0.386	1	0back	Block1	0back/STIM_011.jpg
588.422	0.514	1	0back	Block1	0back/STIM_011.jpg
591.093	0.388	1	0back	Block1	0back/STIM_012.jpg
594.707	0.566	1	0back	Block1	0back/STIM_012.jpg
597.338	0.365	1	0back	Block1	0back/STIM_012.jpg
600.079	0.449	1	0back	Block1	0back/STIM_013.jpg
602.829	0.612	1	0back	Block1	0back/STIM_013.jpg
605.659	0.609	1	0back	Block1	0back/STIM_013.jpg
609.024	0.529	1	0back	Block1	0back/STIM_014.jpg
612.287	0.662	1	0back	Block1	0back/STIM_014.jpg
615.103	0.651	1	0back	Block1	0back/STIM_014.jpg
619.448	0.701	1	0back	Block1	0back/STIM_015.jpg
624.016	0.584	1	0back	Block1	0back/STIM_015.jpg
627.928	0.44	1	0back	Block1	0back/STIM_015.jpg
630.897	0.534	1	0back	Block1	0back/STIM_016.jpg
635.246	0.385	1	0back	Block1	0back/STIM_016.jpg
638.922	0.65	1	0back	Block1	0back/STIM_016.jpg
642.821	0.515	1	0back	Block1	0back/STIM_017.jpg
645.927	0.363	1	0back	Block1	0back/STIM_017.jpg
650.041	0.597	1	0back	Block1	0back/STIM_017.jpg
653.644	0.573	0	0back	Block1	0back/STIM_018.jpg
657.733	0.523	1	0back	Block1	0back/STIM_018.jpg
660.564	0.604	1	0back	Block1	0back/STIM_018.jpg
664.606	0.712	1	0back	Block1	0back/STIM_019.jpg
669.28	0.445	1	0back	Block1	0back/STIM_019.jpg
672.269	0.465	1	0back	Block1	0back/STIM_019.jpg
674.772	0.964	1	2back	Block2	2back/STIM_000.jpg
678.669	0.905	1	2back	Block2	2back/STIM_000.jpg
682.174	0.411	1	2back	Block2	2back/STIM_000.jpg
685.772	0.804	1	2back	Block2	2back/STIM_001.jpg
689.337	0.746	1	2back	Block2	2back/STIM_001.jpg
694.04	0.711	1	2back	Block2	2back/STIM_001.jpg
697.531	0.936	1	2back	Block2	2back/STIM_002.jpg
701.838	0.544	1	2back	Block2	2back/STIM_002.jpg
705.559	0.488	1	2back	Block2	2back/STIM_002.jpg
708.319	0.67	1	2back	Block2	2back/STIM_003.jpg
712.868	0.54	1	2back	Block2	2back/STIM_003.jpg
716.531	0.64	1	2back	Block2	2back/STIM_003.jpg
720.541	0.65	0	2back	Block2	2back/STIM_004.jpg
724.781	0.935	0	2back	Block2	2back/STIM_004.jpg
729.38	0.47	1	2back	Block2	2back/STIM_004.jpg
732.837	0.463	0	2back	Block2	2back/STIM_005.jpg
737.135	0.592	1	2back	Block2	2back/STIM_005.jpg
740.036	0.408	1	2back	Block2	2back/STIM_005.jpg
742.85	0.745	1	2back	Block2	2back/STIM_006.jpg
746.935	0.562	1	2back	Block2	2back/STIM_006.jpg
750.697	0.622	1	2back	Block2	2back/STIM_006.jpg
754.318	0.583	1	2back	Block2	2back/STIM_007.jpg
757.596	0.688	1	2back	Block2	2back/STIM_007.jpg
760.943	0.554	1	2back	Block2	2back/STIM_007.jpg
765.49	0.984	1	2back	Block2	2back/STIM_008.jpg
769.79	0.435	1	2back	Block2	2back/STIM_008.jpg
773.791	0.582	1	2back	Block2	2back/STIM_008.jpg
777.059	0.802	1	2back	Block2	2back/STIM_009.jpg
781.369	0.511	0	2back	Block2	2back/STIM_009.jpg
784.661	0.689	1	2back	Block2	2back/STIM_009.jpg
788.205	1.074	0	2back	Block2	2back/STIM_010.jpg
791.29	0.997	1	2back	Block2	2back/STIM_010.jpg
795.4	0.594	1	2back	Block2	2back/STIM_010.jpg
798.861	0.648	0	2back	Block2	2back/STIM_011.jpg
803.272	0.565	1	2back	Block2	2back/STIM_011.jpg
807.166	0.649	1	2back	Block2	2back/STIM_011.jpg
809.93	0.78	1	2back	Block2	2back/STIM_012.jpg
814.196	0.891	0	2back	Block2	2back/STIM_012.jpg
819.065	0.842	1	2back	Block2	2back/STIM_012.jpg
823.201	0.519	1	2back	Block2	2back/STIM_013.jpg
827.397	0.566	1	2back	Block2	2back/STIM_013.jpg
831.591	0.761	1	2back	Block2	2back/STIM_013.jpg
834.496	0.608	1	2back	Block2	2back/STIM_014.jpg
837.622	0.461	1	2back	Block2	2back/STIM_014.jpg
840.286	0.79	1	2back	Block2	2back/STIM_014.jpg
843.384	0.577	1	2back	Block2	2back/STIM_015.jpg
846.912	0.438	1	2back	Block2	2back/STIM_015.jpg
850.635	0.814	1	2back	Block2	2back/STIM_015.jpg
854.064	0.679	1	2back	Block2	2back/STIM_016.jpg
858.617	0.71	1	2back	Block2	2back/STIM_016.jpg
862.93	0.856	1	2back	Block2	2back/STIM_016.jpg
866.055	1.021	1	2back	Block2	2back/STIM_017.jpg
869.604	0.925	1	2back	Block2	2back/STIM_017.jpg
873.702	0.531	1	2back	Block2	2back/STIM_017.jpg
877.657	0.678	1	2back	Block2	2back/STIM_018.jpg
881.649	0.935	1	2back	Block2	2back/STIM_018.jpg
884.607	0.564	1	2back	Block2	2back/STIM_018.jpg
888.558	0.926	1	2back	Block2	2back/STIM_019.jpg
892.532	0.854	1	2back	Block2	2back/STIM_019.jpg
895.752	0.864	1	2back	Block2	2back/STIM_019.jpg
898.927	0.683	1	2back	Block2	2back/STIM_020.jpg
902.561	0.834	1	2back	Block2	2back/STIM_020.jpg
905.885	0.437	1	2back	Block2	2back/STIM_020.jpg
909.709	0.474	1	2back	Block2	2back/STIM_021.jpg
912.782	0.822	1	2back	Block2	2back/STIM_021.jpg
916.645	0.809	1	2back	Block2	2back/STIM_021.jpg
921.24	0.527	1	2back	Block2	2back/STIM_022.jpg
924.349	0.469	1	2back	Block2	2back/STIM_022.jpg
927.875	0.743	1	2back	Block2	2back/STIM_022.jpg
932.443	0.694	1	2back	Block2	2back/STIM_023.jpg
935.864	0.964	1	2back	Block2	2back/STIM_023.jpg
939.865	0.92	1	2back	Block2	2back/STIM_023.jpg
943.534	0.664	1	2back	Block2	2back/STIM_024.jpg
947.667	0.814	0	2back	Block2	2back/STIM_024.jpg
950.866	0.852	1	2back	Block2	2back/STIM_024.jpg
954.852	0.915	1	2back	Block2	2back/STIM_025.jpg
959.369	0.972	1	2back	Block2	2back/STIM_025.jpg
963.518	0.764	1	2back	Block2	2back/STIM_025.jpg
967.236	0.958	1	2back	Block2	2back/STIM_026.jpg
971.707	0.599	1	2back	Block2	2back/STIM_026.jpg
975.89	0.493	1	2back	Block2	2back/STIM_026.jpg
978.748	0.47	1	2back	Block2	2back/STIM_027.jpg
982.417	0.694	1	2back	Block2	2back/STIM_027.jpg
986.895	0.937	1	2back	Block2	2back/STIM_027.jpg
990.713	1.016	1	2back	Block2	2back/STIM_028.jpg
994.127	0.973	1	2back	Block2	2back/STIM_028.jpg
997.753	0.433	1	2back	Block2	2back/STIM_028.jpg
1000.973	0.795	1	2back	Block2	2back/STIM_029.jpg
1004.525	0.863	1	2back	Block2	2back/STIM_029.jpg
1009.187	0.911	1	2back	Block2	2back/STIM_029.jpg
1013.866	0.518	1	2back	Block2	2back/STIM_030.jpg
1017.44	0.823	1	2back	Block2	2back/STIM_030.jpg
1022.247	0.562	1	2back	Block2	2back/STIM_030.jpg
1026.674	0.481	1	2back	Block2	2back/STIM_031.jpg
1029.168	0.776	1	2back	Block2	2back/STIM_031.jpg
1033.821	0.616	1	2back	Block2	2back/STIM_031.jpg
1036.516	0.726	1	2back	Block2	2back/STIM_032.jpg
1040.924	0.943	0	2back	Block2	2back/STIM_032.jpg
1043.899	0.431	1	2back	Block2	2back/STIM_032.jpg
1047.721	0.93	1	2back	Block2	2back/STIM_033.jpg
1050.996	0.822	1	2back	Block2	2back/STIM_033.jpg
1055.811	0.761	0	2back	Block2	2back/STIM_033.jpg
1058.704	0.685	0	2back	Block2	2back/STIM_034.jpg
1062.67	0.605	1	2back	Block2	2back/STIM_034.jpg
1065.665	0.916	1	2back	Block2	2back/STIM_034.jpg
1069.047	0.52	1	2back	Block2	2back/STIM_035.jpg
1072.493	0.901	1	2back	Block2	2back/STIM_035.jpg
1076.895	0.419	1	2back	Block2	2back/STIM_035.jpg
1079.551	0.607	1	2back	Block2	2back/STIM_036.jpg
1084.022	0.842	1	2back	Block2	2back/STIM_036.jpg
1088.096	0.479	0	2back	Block2	2back/STIM_036.jpg
1092.517	0.995	1	2back	Block2	2back/STIM_037.jpg
1096.166	1.008	1	2back	Block2	2back/STIM_037.jpg
1100.285	0.454	1	2back	Block2	2back/STIM_037.jpg
1103.551	0.578	1	2back	Block2	2back/STIM_038.jpg
1107.962	0.664	1	2back	Block2	2back/STIM_038.jpg
1110.979	0.921	1	2back	Block2	2back/STIM_038.jpg
1114.463	1.012	1	2back	Block2	2back/STIM_039.jpg
1117.727	0.978	1	2back	Block2	2back/STIM_039.jpg
1121.784	0.602	1	2back	Block2	2back/STIM_039.jpg
1125.27	0.714	1	0back	Block2	0back/STIM_000.jpg
1129.842	0.639	1	0back	Block2	0back/STIM_000.jpg
1133.573	0.455	1	0back	Block2	0back/STIM_000.jpg
1136.119	0.605	1	0back	Block2	0back/STIM_001.jpg
1138.942	0.534	1	0back	Block2	0back/STIM_001.jpg
1141.754	0.536	1	0back	Block2	0back/STIM_001.jpg
1145.927	0.432	1	0back	Block2	0back/STIM_002.jpg
1148.388	0.452	1	0back	Block2	0back/STIM_002.jpg
1151.054	0.396	1	0back	Block2	0back/STIM_002.jpg
1154.23	0.709	1	0back	Block2	0back/STIM_003.jpg
1158.298	0.722	1	0back	Block2	0back/STIM_003.jpg
1162.338	0.482	1	0back	Block2	0back/STIM_003.jpg
1166.665	0.715	1	0back	Block2	0back/STIM_004.jpg
1170.981	0.383	1	0back	Block2	0back/STIM_004.jpg
1174.582	0.644	1	0back	Block2	0back/STIM_004.jpg
1177.323	0.637	1	0back	Block2	0back/STIM_005.jpg
1181.246	0.384	1	0back	Block2	0back/STIM_005.jpg
1185.014	0.404	1	0back	Block2	0back/STIM_005.jpg
1187.934	0.663	1	0back	Block2	0back/STIM_006.jpg
1192.075	0.417	1	0back	Block2	0back/STIM_006.jpg
1195.968	0.636	1	0back	Block2	0back/STIM_006.jpg
1199.16	0.493	1	0back	Block2	0back/STIM_007.jpg
1203.423	0.7	1	0back	Block2	0back/STIM_007.jpg
1206.455	0.365	1	0back	Block2	0back/STIM_007.jpg
1208.999	0.584	1	0back	Block2	0back/STIM_008.jpg
1212.513	0.672	1	0back	Block2	0back/STIM_008.jpg
1215.301	0.37	1	0back	Block2	0back/STIM_008.jpg
1217.829	0.383	1	0back	Block2	0back/STIM_009.jpg
1221.114	0.618	1	0back	Block2	0back/STIM_009.jpg
1224.011	0.525	1	0back	Block2	0back/STIM_009.jpg
1226.612	0.581	1	0back	Block2	0back/STIM_010.jpg
1229.199	0.499	1	0back	Block2	0back/STIM_010.jpg
1231.937	0.446	1	0back	Block2	0back/STIM_010.jpg
1235.414	0.651	1	0back	Block2	0back/STIM_011.jpg
1239.073	0.587	1	0back	Block2	0back/STIM_011.jpg
1243.626	0.545	1	0back	Block2	0back/STIM_011.jpg
1246.467	0.592	0	0back	Block2	0back/STIM_012.jpg
1249.088	0.444	1	0back	Block2	0back/STIM_012.jpg
1252.628	0.676	1	0back	Block2	0back/STIM_012.jpg
1256.564	0.508	1	0back	Block2	0back/STIM_013.jpg
1259.194	0.672	1	0back	Block2	0back/STIM_013.jpg
1263.009	0.588	1	0back	Block2	0back/STIM_013.jpg
1267.18	0.714	1	0back	Block2	0back/STIM_014.jpg
1271.721	0.615	1	0back	Block2	0back/STIM_014.jpg
1275.079	0.497	1	0back	Block2	0back/STIM_014.jpg
1278.276	0.524	1	0back	Block2	0back/STIM_015.jpg
1281.795	0.47	1	0back	Block2	0back/STIM_015.jpg
1285.809	0.594	1	0back	Block2	0back/STIM_015.jpg
1289.254	0.42	1	0back	Block2	0back/STIM_016.jpg
1293.269	0.426	1	0back	Block2	0back/STIM_016.jpg
1297.374	0.428	1	0back	Block2	0back/STIM_016.jpg
1299.945	0.654	1	0back	Block2	0back/STIM_017.jpg
1304.285	0.547	1	0back	Block2	0back/STIM_017.jpg
1307.6	0.622	1	0back	Block2	0back/STIM_017.jpg
1311.876	0.391	1	0back	Block2	0back/STIM_018.jpg
1315.697	0.677	0	0back	Block2	0back/STIM_018.jpg
1320.177	0.386	1	0back	Block2	0back/STIM_018.jpg
1322.829	0.665	1	0back	Block2	0back/STIM_019.jpg
1326.602	0.544	1	0back	Block2	0back/STIM_019.jpg
1331.029	0.497	1	0back	Block2	0back/STIM_019.jpg
1335.023	0.631	1	2back	Block3	2back/STIM_000.jpg
1337.899	0.668	1	2back	Block3	2back/STIM_000.jpg
1341.03	0.718	1	2back	Block3	2back/STIM_000.jpg
1343.917	0.442	1	2back	Block3	2back/STIM_001.jpg
1347.556	0.688	1	2back	Block3	2back/STIM_001.jpg
1351.552	0.74	1	2back	Block3	2back/STIM_001.jpg
1355.29	0.516	1	2back	Block3	2back/STIM_002.jpg
1359.671	0.816	1	2back	Block3	2back/STIM_002.jpg
1363.393	0.815	1	2back	Block3	2back/STIM_002.jpg
1368.074	0.81	0	2back	Block3	2back/STIM_003.jpg
1372.439	0.534	0	2back	Block3	2back/STIM_003.jpg
1375.549	0.43	1	2back	Block3	2back/STIM_003.jpg
1379.943	0.483	1	2back	Block3	2back/STIM_004.jpg
1384.339	0.622	1	2back	Block3	2back/STIM_004.jpg
1388.16	0.582	1	2back	Block3	2back/STIM_004.jpg
1392.37	0.505	0	2back	Block3	2back/STIM_005.jpg
1396.167	0.626	1	2back	Block3	2back/STIM_005.jpg
1399.2	0.772	1	2back	Block3	2back/STIM_005.jpg
1403.288	0.496	1	2back	Block3	2back/STIM_006.jpg
1407.171	0.394	1	2back	Block3	2back/STIM_006.jpg
1411.094	0.776	1	2back	Block3	2back/STIM_006.jpg
1414.629	0.638	1	2back	Block3	2back/STIM_007.jpg
1417.409	0.475	1	2back	Block3	2back/STIM_007.jpg
1421.492	0.719	1	2back	Block3	2back/STIM_007.jpg
1424.3	0.482	1	2back	Block3	2back/STIM_008.jpg
1428.218	0.671	1	2back	Block3	2back/STIM_008.jpg
1431.424	0.779	1	2back	Block3	2back/STIM_008.jpg
1436.098	0.656	0	2back	Block3	2back/STIM_009.jpg
1439.613	0.642	1	2back	Block3	2back/STIM_009.jpg
1444.223	0.674	1	2back	Block3	2back/STIM_009.jpg
1448.862	0.557	1	2back	Block3	2back/STIM_010.jpg
1452.546	0.539	1	2back	Block3	2back/STIM_010.jpg
1456.21	0.399	1	2back	Block3	2back/STIM_010.jpg
1459.1	0.407	1	2back	Block3	2back/STIM_011.jpg
1463.455	0.773	1	2back	Block3	2back/STIM_011.jpg
1467.844	0.558	1	2back	Block3	2back/STIM_011.jpg
1471.572	0.765	1	2back	Block3	2back/STIM_012.jpg
1475.73	0.448	1	2back	Block3	2back/STIM_012.jpg
1479.534	0.795	1	2back	Block3	2back/STIM_012.jpg
1483.951	0.493	1	2back	Block3	2back/STIM_013.jpg
1486.614	0.663	1	2back	Block3	2back/STIM_013.jpg
1490.55	0.466	1	2back	Block3	2back/STIM_013.jpg
1494.56	0.837	1	2back	Block3	2back/STIM_014.jpg
1498.381	0.622	1	2back	Block3	2back/STIM_014.jpg
1502.844	0.512	1	2back	Block3	2back/STIM_014.jpg
1507.097	0.686	1	2back	Block3	2back/STIM_015.jpg
1511.11	0.76	1	2back	Block3	2back/STIM_015.jpg
1514.598	0.572	1	2back	Block3	2back/STIM_015.jpg
1517.349	0.487	1	2back	Block3	2back/STIM_016.jpg
1521.267	0.479	1	2back	Block3	2back/STIM_016.jpg
1525.416	0.706	1	2back	Block3	2back/STIM_016.jpg
1528.161	0.815	1	2back	Block3	2back/STIM_017.jpg
1531.216	0.836	1	2back	Block3	2back/STIM_017.jpg
1534.505	0.795	1	2back	Block3	2back/STIM_017.jpg
1538.489	0.409	0	2back	Block3	2back/STIM_018.jpg
1541.25	0.552	1	2back	Block3	2back/STIM_018.jpg
1544.701	0.794	1	2back	Block3	2back/STIM_018.jpg
1549.488	0.612	1	2back	Block3	2back/STIM_019.jpg
1553.044	0.559	1	2back	Block3	2back/STIM_019.jpg
1556.799	0.431	1	2back	Block3	2back/STIM_019.jpg
1560.842	0.79	1	2back	Block3	2back/STIM_020.jpg
1564.764	0.624	1	2back	Block3	2back/STIM_020.jpg
1568.651	0.586	1	2back	Block3	2back/STIM_020.jpg
1571.547	0.682	1	2back	Block3	2back/STIM_021.jpg
1575.392	0.468	1	2back	Block3	2back/STIM_021.jpg
1578.651	0.381	1	2back	Block3	2back/STIM_021.jpg
1582.965	0.688	1	2back	Block3	2back/STIM_022.jpg
1587.417	0.592	1	2back	Block3	2back/STIM_022.jpg
1590.488	0.8	1	2back	Block3	2back/STIM_022.jpg
1594.041	0.393	1	2back	Block3	2back/STIM_023.jpg
1596.713	0.647	1	2back	Block3	2back/STIM_023.jpg
1600.588	0.656	0	2back	Block3	2back/STIM_023.jpg
1604.517	0.534	1	2back	Block3	2back/STIM_024.jpg
1608.466	0.572	0	2back	Block3	2back/STIM_024.jpg
1612.85	0.6	1	2back	Block3	2back/STIM_024.jpg
1617.073	0.636	1	2back	Block3	2back/STIM_025.jpg
1621.562	0.678	1	2back	Block3	2back/STIM_025.jpg
1625.52	0.438	1	2back	Block3	2back/STIM_025.jpg
1629.918	0.507	1	2back	Block3	2back/STIM_026.jpg
1633.883	0.716	1	2back	Block3	2back/STIM_026.jpg
1638.358	0.586	1	2back	Block3	2back/STIM_026.jpg
1642.226	0.388	1	2back	Block3	2back/STIM_027.jpg
1646.049	0.455	1	2back	Block3	2back/STIM_027.jpg
1649.501	0.569	1	2back	Block3	2back/STIM_027.jpg
1652.873	0.524	1	2back	Block3	2back/STIM_028.jpg
1656.304	0.571	1	2back	Block3	2back/STIM_028.jpg
1659.099	0.83	1	2back	Block3	2back/STIM_028.jpg
1663.335	0.573	1	2back	Block3	2back/STIM_029.jpg
1667.754	0.796	1	2back	Block3	2back/STIM_029.jpg
1671.143	0.849	1	2back	Block3	2back/STIM_029.jpg
1674.851	0.604	1	2back	Block3	2back/STIM_030.jpg
1677.714	0.595	1	2back	Block3	2back/STIM_030.jpg
1682.045	0.774	1	2back	Block3	2back/STIM_030.jpg
1686.688	0.675	1	2back	Block3	2back/STIM_031.jpg
1691.002	0.817	0	2back	Block3	2back/STIM_031.jpg
1695.617	0.827	1	2back	Block3	2back/STIM_031.jpg
1700.29	0.718	1	2back	Block3	2back/STIM_032.jpg
1703.4	0.713	1	2back	Block3	2back/STIM_032.jpg
1707.713	0.746	1	2back	Block3	2back/STIM_032.jpg
1711.433	0.765	1	2back	Block3	2back/STIM_033.jpg
1715.899	0.636	1	2back	Block3	2back/STIM_033.jpg
1719.833	0.541	1	2back	Block3	2back/STIM_033.jpg
1722.811	0.448	1	2back	Block3	2back/STIM_034.jpg
1726.042	0.771	1	2back	Block3	2back/STIM_034.jpg
1729.335	0.854	1	2back	Block3	2back/STIM_034.jpg
1733.039	0.78	1	2back	Block3	2back/STIM_035.jpg
1737.049	0.463	1	2back	Block3	2back/STIM_035.jpg
1740.451	0.427	1	2back	Block3	2back/STIM_035.jpg
1744.455	0.551	1	2back	Block3	2back/STIM_036.jpg
1748.99	0.818	1	2back	Block3	2back/STIM_036.jpg
1753.583	0.44	1	2back	Block3	2back/STIM_036.jpg
1757.853	0.782	1	2back	Block3	2back/STIM_037.jpg
1762.531	0.74	1	2back	Block3	2back/STIM_037.jpg
1767.103	0.853	1	2back	Block3	2back/STIM_037.jpg
1771.808	0.798	1	2back	Block3	2back/STIM_038.jpg
1775.788	0.556	1	2back	Block3	2back/STIM_038.jpg
1779.056	0.588	1	2back	Block3	2back/STIM_038.jpg
1781.957	0.612	1	2back	Block3	2back/STIM_039.jpg
1785.693	0.458	1	2back	Block3	2back/STIM_039.jpg
1789.238	0.594	1	2back	Block3	2back/STIM_039.jpg
1793.816	0.508	1	0back	Block3	0back/STIM_000.jpg
1797.239	0.456	1	0back	Block3	0back/STIM_000.jpg
1799.713	0.565	1	0back	Block3	0back/STIM_000.jpg
1803.237	0.72	1	0back	Block3	0back/STIM_001.jpg
1806.733	0.634	1	0back	Block3	0back/STIM_001.jpg
1809.798	0.651	1	0back	Block3	0back/STIM_001.jpg
1814.089	0.468	1	0back	Block3	0back/STIM_002.jpg
1816.943	0.423	1	0back	Block3	0back/STIM_002.jpg
1820.935	0.57	1	0back	Block3	0back/STIM_002.jpg
1825.057	0.513	1	0back	Block3	0back/STIM_003.jpg
1828.461	0.529	1	0back	Block3	0back/STIM_003.jpg
1831.915	0.534	1	0back	Block3	0back/STIM_003.jpg
1835.527	0.373	1	0back	Block3	0back/STIM_004.jpg
1839.657	0.656	1	0back	Block3	0back/STIM_004.jpg
1843.563	0.389	1	0back	Block3	0back/STIM_004.jpg
1846.788	0.711	1	0back	Block3	0back/STIM_005.jpg
1850.266	0.497	1	0back	Block3	0back/STIM_005.jpg
1854.515	0.426	1	0back	Block3	0back/STIM_005.jpg
1857.103	0.504	1	0back	Block3	0back/STIM_006.jpg
1861.481	0.532	1	0back	Block3	0back/STIM_006.jpg
1865.212	0.491	0	0back	Block3	0back/STIM_006.jpg
1868.812	0.638	1	0back	Block3	0back/STIM_007.jpg
1872.682	0.562	1	0back	Block3	0back/STIM_007.jpg
1875.727	0.678	1	0back	Block3	0back/STIM_007.jpg
1879.764	0.427	1	0back	Block3	0back/STIM_008.jpg
1882.588	0.694	1	0back	Block3	0back/STIM_008.jpg
1885.884	0.672	1	0back	Block3	0back/STIM_008.jpg
1890.331	0.475	1	0back	Block3	0back/STIM_009.jpg
1893.168	0.676	1	0back	Block3	0back/STIM_009.jpg
1896.905	0.546	1	0back	Block3	0back/STIM_009.jpg
1900.788	0.593	1	0back	Block3	0back/STIM_010.jpg
1903.636	0.491	1	0back	Block3	0back/STIM_010.jpg
1906.994	0.443	1	0back	Block3	0back/STIM_010.jpg
1910.796	0.478	1	0back	Block3	0back/STIM_011.jpg
1914.016	0.451	1	0back	Block3	0back/STIM_011.jpg
1917.392	0.644	1	0back	Block3	0back/STIM_011.jpg
1920.569	0.439	1	0back	Block3	0back/STIM_012.jpg
1924.693	0.408	1	0back	Block3	0back/STIM_012.jpg
1928.361	0.404	1	0back	Block3	0back/STIM_012.jpg
1932.282	0.541	1	0back	Block3	0back/STIM_013.jpg
1935.372	0.713	1	0back	Block3	0back/STIM_013.jpg
1938.446	0.39	1	0back	Block3	0back/STIM_013.jpg
1941.2	0.667	1	0back	Block3	0back/STIM_014.jpg
1944.494	0.516	1	0back	Block3	0back/STIM_014.jpg
1948.672	0.388	1	0back	Block3	0back/STIM_014.jpg
1951.794	0.549	1	0back	Block3	0back/STIM_015.jpg
1955.241	0.492	0	0back	Block3	0back/STIM_015.jpg
1958.579	0.425	1	0back	Block3	0back/STIM_015.jpg
1961.079	0.698	1	0back	Block3	0back/STIM_016.jpg
1965.485	0.439	1	0back	Block3	0back/STIM_016.jpg
1969.845	0.701	1	0back	Block3	0back/STIM_016.jpg
1972.726	0.462	1	0back	Block3	0back/STIM_017.jpg
1976.628	0.686	1	0back	Block3	0back/STIM_017.jpg
1980.578	0.392	1	0back	Block3	0back/STIM_017.jpg
1983.193	0.42	1	0back	Block3	0back/STIM_018.jpg
1986.525	0.394	1	0back	Block3	0back/STIM_018.jpg
1990.914	0.617	1	0back	Block3	0back/STIM_018.jpg
1995.042	0.444	1	0back	Block3	0back/STIM_019.jpg
1999.068	0.607	1	0back	Block3	0back/STIM_019.jpg
2003.31	0.597	1	0back	Block3	0back/STIM_019.jpg
2007.339	0.615	1	2back	Block4	2back/STIM_000.jpg
2010.321	0.604	1	2back	Block4	2back/STIM_000.jpg
2013.61	0.826	1	2back	Block4	2back/STIM_000.jpg
2018.277	0.468	1	2back	Block4	2back/STIM_001.jpg
2022.207	0.866	1	2back	Block4	2back/STIM_001.jpg
2025.159	0.583	1	2back	Block4	2back/STIM_001.jpg
2029.011	0.558	1	2back	Block4	2back/STIM_002.jpg
2033.178	0.822	1	2back	Block4	2back/STIM_002.jpg
2037.591	0.771	1	2back	Block4	2back/STIM_002.jpg
2040.674	0.545	1	2back	Block4	2back/STIM_003.jpg
2045.155	0.79	1	2back	Block4	2back/STIM_003.jpg
2048.817	0.554	1	2back	Block4	2back/STIM_003.jpg
2052.532	0.501	1	2back	Block4	2back/STIM_004.jpg
2055.457	0.53	1	2back	Block4	2back/STIM_004.jpg
2058.86	0.44	1	2back	Block4	2back/STIM_004.jpg
2062.272	0.645	1	2back	Block4	2back/STIM_005.jpg
2065.198	0.388	1	2back	Block4	2back/STIM_005.jpg
2068.11	0.638	1	2back	Block4	2back/STIM_005.jpg
2072.326	0.723	1	2back	Block4	2back/STIM_006.jpg
2075.322	0.392	1	2back	Block4	2back/STIM_006.jpg
2078.389	0.41	1	2back	Block4	2back/STIM_006.jpg
2082.042	0.851	1	2back	Block4	2back/STIM_007.jpg
2086.277	0.878	1	2back	Block4	2back/STIM_007.jpg
2090.218	0.81	1	2back	Block4	2back/STIM_007.jpg
2093.593	0.534	1	2back	Block4	2back/STIM_008.jpg
2096.494	0.73	1	2back	Block4	2back/STIM_008.jpg
2100.833	0.451	1	2back	Block4	2back/STIM_008.jpg
2105.116	0.691	1	2back	Block4	2back/STIM_009.jpg
2109.536	0.516	1	2back	Block4	2back/STIM_009.jpg
2112.634	0.821	1	2back	Block4	2back/STIM_009.jpg
2116.098	0.784	1	2back	Block4	2back/STIM_010.jpg
2120.142	0.549	1	2back	Block4	2back/STIM_010.jpg
2123.497	0.619	1	2back	Block4	2back/STIM_010.jpg
2126.796	0.437	1	2back	Block4	2back/STIM_011.jpg
2130.41	0.673	1	2back	Block4	2back/STIM_011.jpg
2133.731	0.672	0	2back	Block4	2back/STIM_011.jpg
2136.434	0.758	1	2back	Block4	2back/STIM_012.jpg
2140.903	0.493	1	2back	Block4	2back/STIM_012.jpg
2145.346	0.398	1	2back	Block4	2back/STIM_012.jpg
2147.756	0.644	1	2back	Block4	2back/STIM_013.jpg
2150.863	0.764	1	2back	Block4	2back/STIM_013.jpg
2155.152	0.532	1	2back	Block4	2back/STIM_013.jpg
2157.996	0.532	1	2back	Block4	2back/STIM_014.jpg
2161.48	0.748	1	2back	Block4	2back/STIM_014.jpg
2166.225	0.501	1	2back	Block4	2back/STIM_014.jpg
2170.514	0.532	1	2back	Block4	2back/STIM_015.jpg
2173.663	0.622	1	2back	Block4	2back/STIM_015.jpg
2178.128	0.45	1	2back	Block4	2back/STIM_015.jpg
2182.516	0.748	1	2back	Block4	2back/STIM_016.jpg
2186.826	0.67	1	2back	Block4	2back/STIM_016.jpg
2190.941	0.626	1	2back	Block4	2back/STIM_016.jpg
2193.976	0.602	1	2back	Block4	2back/STIM_017.jpg
2197.673	0.676	1	2back	Block4	2back/STIM_017.jpg
2201.778	0.483	1	2back	Block4	2back/STIM_017.jpg
2206.081	0.637	1	2back	Block4	2back/STIM_018.jpg
2210.391	0.56	1	2back	Block4	2back/STIM_018.jpg
2213.127	0.402	1	2back	Block4	2back/STIM_018.jpg
2217.418	0.845	1	2back	Block4	2back/STIM_019.jpg
2221.971	0.863	1	2back	Block4	2back/STIM_019.jpg
2226.447	0.634	1	2back	Block4	2back/STIM_019.jpg
2229.402	0.733	1	2back	Block4	2back/STIM_020.jpg
2233.641	0.814	1	2back	Block4	2back/STIM_020.jpg
2238.039	0.517	1	2back	Block4	2back/STIM_020.jpg
2240.801	0.657	1	2back	Block4	2back/STIM_021.jpg
2244.098	0.766	1	2back	Block4	2back/STIM_021.jpg
2247.484	0.415	1	2back	Block4	2back/STIM_021.jpg
2251.755	0.662	1	2back	Block4	2back/STIM_022.jpg
2254.867	0.698	1	2back	Block4	2back/STIM_022.jpg
2258.732	0.845	1	2back	Block4	2back/STIM_022.jpg
2262.364	0.504	0	2back	Block4	2back/STIM_023.jpg
2265.583	0.753	0	2back	Block4	2back/STIM_023.jpg
2269.986	0.601	1	2back	Block4	2back/STIM_023.jpg
2274.069	0.82	1	2back	Block4	2back/STIM_024.jpg
2278.785	0.882	1	2back	Block4	2back/STIM_024.jpg
2282.848	0.48	1	2back	Block4	2back/STIM_024.jpg
2287.049	0.554	1	2back	Block4	2back/STIM_025.jpg
2290.722	0.727	1	2back	Block4	2back/STIM_025.jpg
2295.072	0.59	1	2back	Block4	2back/STIM_025.jpg
2298.701	0.629	1	2back	Block4	2back/STIM_026.jpg
2302.853	0.769	1	2back	Block4	2back/STIM_026.jpg
2306.519	0.714	1	2back	Block4	2back/STIM_026.jpg
2310.602	0.598	1	2back	Block4	2back/STIM_027.jpg
2313.339	0.488	1	2back	Block4	2back/STIM_027.jpg
2317.393	0.703	1	2back	Block4	2back/STIM_027.jpg
2320.888	0.67	1	2back	Block4	2back/STIM_028.jpg
2324.591	0.621	1	2back	Block4	2back/STIM_028.jpg
2329.157	0.796	1	2back	Block4	2back/STIM_028.jpg
2333.077	0.852	1	2back	Block4	2back/STIM_029.jpg
2337.481	0.83	1	2back	Block4	2back/STIM_029.jpg
2341.99	0.537	1	2back	Block4	2back/STIM_029.jpg
2345.114	0.758	1	2back	Block4	2back/STIM_030.jpg
2348.286	0.794	1	2back	Block4	2back/STIM_030.jpg
2352.754	0.589	1	2back	Block4	2back/STIM_030.jpg
2356.751	0.671	1	2back	Block4	2back/STIM_031.jpg
2360.05	0.777	1	2back	Block4	2back/STIM_031.jpg
2362.967	0.808	1	2back	Block4	2back/STIM_031.jpg
2366.832	0.465	1	2back	Block4	2back/STIM_032.jpg
2370.408	0.425	1	2back	Block4	2back/STIM_032.jpg
2374.397	0.85	1	2back	Block4	2back/STIM_032.jpg
2378.286	0.805	1	2back	Block4	2back/STIM_033.jpg
2381.374	0.414	1	2back	Block4	2back/STIM_033.jpg
2384.306	0.874	1	2back	Block4	2back/STIM_033.jpg
2388.511	0.607	1	2back	Block4	2back/STIM_034.jpg
2391.805	0.545	1	2back	Block4	2back/STIM_034.jpg
2396.111	0.445	1	2back	Block4	2back/STIM_034.jpg
2398.624	0.642	1	2back	Block4	2back/STIM_035.jpg
2401.657	0.6	1	2back	Block4	2back/STIM_035.jpg
2405.028	0.538	1	2back	Block4	2back/STIM_035.jpg
2408.712	0.753	1	2back	Block4	2back/STIM_036.jpg
2411.714	0.823	1	2back	Block4	2back/STIM_036.jpg
2415.757	0.627	1	2back	Block4	2back/STIM_036.jpg
2418.41	0.665	1	2back	Block4	2back/STIM_037.jpg
2421.796	0.631	1	2back	Block4	2back/STIM_037.jpg
2425.8	0.678	1	2back	Block4	2back/STIM_037.jpg
2428.821	0.712	1	2back	Block4	2back/STIM_038.jpg
2432.098	0.63	1	2back	Block4	2back/STIM_038.jpg
2436.194	0.707	1	2back	Block4	2back/STIM_038.jpg
2439.964	0.465	1	2back	Block4	2back/STIM_039.jpg
2444.194	0.711	1	2back	Block4	2back/STIM_039.jpg
2447.244	0.432	1	2back	Block4	2back/STIM_039.jpg
2450.203	0.553	1	0back	Block4	0back/STIM_000.jpg
2452.887	0.444	1	0back	Block4	0back/STIM_000.jpg
2456.788	0.59	1	0back	Block4	0back/STIM_000.jpg
2459.582	0.48	1	0back	Block4	0back/STIM_001.jpg
2463.087	0.678	1	0back	Block4	0back/STIM_001.jpg
2466.411	0.593	1	0back	Block4	0back/STIM_001.jpg
2469.672	0.628	1	0back	Block4	0back/STIM_002.jpg
2473.358	0.59	0	0back	Block4	0back/STIM_002.jpg
2476.592	0.416	0	0back	Block4	0back/STIM_002.jpg
2479.996	0.362	0	0back	Block4	0back/STIM_003.jpg
2483.299	0.416	1	0back	Block4	0back/STIM_003.jpg
2486.189	0.7	1	0back	Block4	0back/STIM_003.jpg
2489.867	0.637	1	0back	Block4	0back/STIM_004.jpg
2493.342	0.71	1	0back	Block4	0back/STIM_004.jpg
2496.649	0.581	1	0back	Block4	0back/STIM_004.jpg
2500.484	0.666	1	0back	Block4	0back/STIM_005.jpg
2503.352	0.685	1	0back	Block4	0back/STIM_005.jpg
2507.162	0.365	1	0back	Block4	0back/STIM_005.jpg
2510.265	0.48	1	0back	Block4	0back/STIM_006.jpg
2513.262	0.565	1	0back	Block4	0back/STIM_006.jpg
2517.808	0.662	1	0back	Block4	0back/STIM_006.jpg
2521.139	0.533	1	0back	Block4	0back/STIM_007.jpg
2525.219	0.658	1	0back	Block4	0back/STIM_007.jpg
2528.5	0.634	1	0back	Block4	0back/STIM_007.jpg
2532.926	0.717	1	0back	Block4	0back/STIM_008.jpg
2537.141	0.405	1	0back	Block4	0back/STIM_008.jpg
2539.701	0.538	1	0back	Block4	0back/STIM_008.jpg
2542.7	0.537	1	0back	Block4	0back/STIM_009.jpg
2546.907	0.544	1	0back	Block4	0back/STIM_009.jpg
2550.76	0.445	0	0back	Block4	0back/STIM_009.jpg
2553.777	0.549	1	0back	Block4	0back/STIM_010.jpg
2556.41	0.647	1	0back	Block4	0back/STIM_010.jpg
2559.631	0.654	0	0back	Block4	0back/STIM_010.jpg
2564.03	0.682	1	0back	Block4	0back/STIM_011.jpg
2568.201	0.427	1	0back	Block4	0back/STIM_011.jpg
2571.171	0.388	1	0back	Block4	0back/STIM_011.jpg
2573.95	0.694	1	0back	Block4	0back/STIM_012.jpg
2578.569	0.42	1	0back	Block4	0back/STIM_012.jpg
2582.418	0.703	1	0back	Block4	0back/STIM_012.jpg
2585.22	0.655	1	0back	Block4	0back/STIM_013.jpg
2588.067	0.542	1	0back	Block4	0back/STIM_013.jpg
2591.851	0.515	1	0back	Block4	0back/STIM_013.jpg
2596.117	0.705	1	0back	Block4	0back/STIM_014.jpg
2599.727	0.606	1	0back	Block4	0back/STIM_014.jpg
2602.412	0.555	1	0back	Block4	0back/STIM_014.jpg
2606.308	0.641	1	0back	Block4	0back/STIM_015.jpg
2609.762	0.529	1	0back	Block4	0back/STIM_015.jpg
2613.947	0.446	1	0back	Block4	0back/STIM_015.jpg
2617.86	0.394	1	0back	Block4	0back/STIM_016.jpg
2621.111	0.419	1	0back	Block4	0back/STIM_016.jpg
2625.152	0.707	1	0back	Block4	0back/STIM_016.jpg
2629.522	0.485	1	0back	Block4	0back/STIM_017.jpg
2632.588	0.401	1	0back	Block4	0back/STIM_017.jpg
2635.61	0.551	1	0back	Block4	0back/STIM_017.jpg
2639.154	0.619	1	0back	Block4	0back/STIM_018.jpg
2642.763	0.541	1	0back	Block4	0back/STIM_018.jpg
2645.648	0.557	1	0back	Block4	0back/STIM_018.jpg
2649.169	0.632	1	0back	Block4	0back/STIM_019.jpg
2652.248	0.611	1	0back	Block4	0back/STIM_019.jpg
2655.025	0.512	1	0back	Block4	0back/STIM_019.jpg
