onset	duration	accuracy	trial_type	learning_stage	stimulus
0.0	1.858	correct	generate	Run1	generate/STIM_000.jpg
5.294	1.352	correct	generate	Run1	generate/STIM_000.jpg
9.033	1.087	correct	generate	Run1	generate/STIM_000.jpg
13.286	2.057	correct	generate	Run1	generate/STIM_000.jpg
18.283	1.363	correct	generate	Run1	generate/STIM_000.jpg
21.708	2.201	correct	generate	Run1	generate/STIM_001.jpg
27.406	1.672	correct	generate	Run1	generate/STIM_001.jpg
32.037	1.229	correct	generate	Run1	generate/STIM_001.jpg
36.033	1.148	correct	generate	Run1	generate/STIM_001.jpg
40.28	1.62	correct	generate	Run1	generate/STIM_001.jpg
44.88	2.397	correct	generate	Run1	generate/STIM_002.jpg
49.943	2.369	correct	generate	Run1	generate/STIM_002.jpg
56.177	2.558	correct	generate	Run1	generate/STIM_002.jpg
61.579	1.099	correct	generate	Run1	generate/STIM_002.jpg
64.937	0.945	correct	generate	Run1	generate/STIM_002.jpg
68.315	2.769	correct	generate	Run1	generate/STIM_003.jpg
73.7	2.485	correct	generate	Run1	generate/STIM_003.jpg
79.618	2.48	correct	generate	Run1	generate/STIM_003.jpg
85.245	1.904	correct	generate	Run1	generate/STIM_003.jpg
90.896	1.412	correct	generate	Run1	generate/STIM_003.jpg
95.636	1.39	correct	generate	Run1	generate/STIM_004.jpg
99.373	2.041	correct	generate	Run1	generate/STIM_004.jpg
103.725	2.362	correct	generate	Run1	generate/STIM_004.jpg
108.688	1.844	correct	generate	Run1	generate/STIM_004.jpg
113.486	1.784	correct	generate	Run1	generate/STIM_004.jpg
117.626	2.766	correct	generate	Run1	generate/STIM_005.jpg
122.769	1.133	correct	generate	Run1	generate/STIM_005.jpg
126.47	2.426	correct	generate	Run1	generate/STIM_005.jpg
132.61	1.07	correct	generate	Run1	generate/STIM_005.jpg
137.392	1.288	correct	generate	Run1	generate/STIM_005.jpg
141.958	1.781	correct	generate	Run1	generate/STIM_006.jpg
147.7	2.654	correct	generate	Run1	generate/STIM_006.jpg
153.878	1.375	correct	generate	Run1	generate/STIM_006.jpg
158.629	1.994	correct	generate	Run1	generate/STIM_006.jpg
164.475	1.666	correct	generate	Run1	generate/STIM_006.jpg
168.728	2.249	correct	generate	Run1	generate/STIM_007.jpg
174.931	2.08	correct	generate	Run1	generate/STIM_007.jpg
180.589	1.434	correct	generate	Run1	generate/STIM_007.jpg
186.017	1.388	correct	generate	Run1	generate/STIM_007.jpg
191.195	1.102	correct	generate	Run1	generate/STIM_007.jpg
194.812	2.375	correct	generate	Run1	generate/STIM_008.jpg
200.288	1.212	correct	generate	Run1	generate/STIM_008.jpg
205.077	1.353	correct	generate	Run1	generate/STIM_008.jpg
210.115	1.181	correct	generate	Run1	generate/STIM_008.jpg
213.896	1.163	correct	generate	Run1	generate/STIM_008.jpg
217.214	1.384	correct	generate	Run1	generate/STIM_009.jpg
222.449	1.868	correct	generate	Run1	generate/STIM_009.jpg
227.465	1.636	correct	generate	Run1	generate/STIM_009.jpg
231.108	1.86	correct	generate	Run1	generate/STIM_009.jpg
235.666	1.699	correct	generate	Run1	generate/STIM_009.jpg
239.576	2.134	correct	generate	Run1	generate/STIM_010.jpg
244.568	1.406	correct	generate	Run1	generate/STIM_010.jpg
248.906	1.441	correct	generate	Run1	generate/STIM_010.jpg
253.73	1.432	correct	generate	Run1	generate/STIM_010.jpg
258.892	2.247	correct	generate	Run1	generate/STIM_010.jpg
263.621	2.592	correct	generate	Run1	generate/STIM_011.jpg
268.839	1.694	incorrect	generate	Run1	generate/STIM_011.jpg
274.094	1.944	correct	generate	Run1	generate/STIM_011.jpg
278.209	2.265	correct	generate	Run1	generate/STIM_011.jpg
283.255	2.015	correct	generate	Run1	generate/STIM_011.jpg
288.053	1.945	correct	generate	Run1	generate/STIM_012.jpg
293.271	2.55	correct	generate	Run1	generate/STIM_012.jpg
298.38	1.729	correct	generate	Run1	generate/STIM_012.jpg
302.599	2.152	correct	generate	Run1	generate/STIM_012.jpg
308.315	1.127	correct	generate	Run1	generate/STIM_012.jpg
313.324	1.412	correct	generate	Run1	generate/STIM_013.jpg
318.026	2.298	correct	generate	Run1	generate/STIM_013.jpg
322.968	1.171	correct	generate	Run1	generate/STIM_013.jpg
326.543	1.713	correct	generate	Run1	generate/STIM_013.jpg
330.89	1.095	correct	generate	Run1	generate/STIM_013.jpg
335.203	1.251	correct	generate	Run1	generate/STIM_014.jpg
339.844	2.348	correct	generate	Run1	generate/STIM_014.jpg
344.565	1.704	correct	generate	Run1	generate/STIM_014.jpg
349.135	1.092	correct	generate	Run1	generate/STIM_014.jpg
352.895	1.879	correct	generate	Run1	generate/STIM_014.jpg
357.911	2.101	correct	generate	Run1	generate/STIM_015.jpg
362.646	2.56	correct	generate	Run1	generate/STIM_015.jpg
367.469	1.579	correct	generate	Run1	generate/STIM_015.jpg
372.185	1.584	correct	generate	Run1	generate/STIM_015.jpg
376.064	1.584	correct	generate	Run1	generate/STIM_015.jpg
380.015	2.593	correct	generate	Run1	generate/STIM_016.jpg
386.098	1.195	correct	generate	Run1	generate/STIM_016.jpg
390.758	1.629	correct	generate	Run1	generate/STIM_016.jpg
395.344	1.727	correct	generate	Run1	generate/STIM_016.jpg
399.346	1.691	correct	generate	Run1	generate/STIM_016.jpg
403.9	1.872	correct	generate	Run1	generate/STIM_017.jpg
407.917	2.548	correct	generate	Run1	generate/STIM_017.jpg
413.235	1.135	correct	generate	Run1	generate/STIM_017.jpg
416.841	2.033	correct	generate	Run1	generate/STIM_017.jpg
422.021	1.765	correct	generate	Run1	generate/STIM_017.jpg
426.098	1.763	correct	generate	Run1	generate/STIM_018.jpg
430.658	1.556	correct	generate	Run1	generate/STIM_018.jpg
435.169	2.445	correct	generate	Run1	generate/STIM_018.jpg
440.194	1.806	correct	generate	Run1	generate/STIM_018.jpg
444.387	2.256	correct	generate	Run1	generate/STIM_018.jpg
449.419	1.441	correct	generate	Run1	generate/STIM_019.jpg
453.432	2.294	correct	generate	Run1	generate/STIM_019.jpg
458.189	1.396	correct	generate	Run1	generate/STIM_019.jpg
463.096	1.741	correct	generate	Run1	generate/STIM_019.jpg
468.069	1.353	correct	generate	Run1	generate/STIM_019.jpg
472.328	1.726	correct	generate	Run1	generate/STIM_020.jpg
477.133	1.716	correct	generate	Run1	generate/STIM_020.jpg
481.944	1.254	correct	generate	Run1	generate/STIM_020.jpg
486.577	2.447	correct	generate	Run1	generate/STIM_020.jpg
492.057	2.184	correct	generate	Run1	generate/STIM_020.jpg
497.804	1.26	correct	generate	Run1	generate/STIM_021.jpg
502.209	2.207	correct	generate	Run1	generate/STIM_021.jpg
507.804	2.59	correct	generate	Run1	generate/STIM_021.jpg
513.952	1.297	correct	generate	Run1	generate/STIM_021.jpg
519.045	2.112	correct	generate	Run1	generate/STIM_021.jpg
524.947	2.163	correct	generate	Run1	generate/STIM_022.jpg
530.346	2.276	correct	generate	Run1	generate/STIM_022.jpg
535.176	1.388	correct	generate	Run1	generate/STIM_022.jpg
540.109	1.993	correct	generate	Run1	generate/STIM_022.jpg
545.972	2.248	correct	generate	Run1	generate/STIM_022.jpg
550.721	1.444	correct	generate	Run1	generate/STIM_023.jpg
555.194	2.693	correct	generate	Run1	generate/STIM_023.jpg
561.825	1.868	correct	generate	Run1	generate/STIM_023.jpg
567.376	1.398	correct	generate	Run1	generate/STIM_023.jpg
571.023	0.987	correct	generate	Run1	generate/STIM_023.jpg
574.815	2.689	correct	generate	Run1	generate/STIM_024.jpg
579.735	1.514	correct	generate	Run1	generate/STIM_024.jpg
584.714	1.953	correct	generate	Run1	generate/STIM_024.jpg
590.106	1.962	correct	generate	Run1	generate/STIM_024.jpg
594.395	1.412	correct	generate	Run1	generate/STIM_024.jpg
598.187	0.598	correct	repeat	Run1	repeat/STIM_000.jpg
601.239	0.958	correct	repeat	Run1	repeat/STIM_000.jpg
604.218	0.617	correct	repeat	Run1	repeat/STIM_000.jpg
606.9	0.798	correct	repeat	Run1	repeat/STIM_000.jpg
611.196	0.761	correct	repeat	Run1	repeat/STIM_000.jpg
615.55	0.491	correct	repeat	Run1	repeat/STIM_001.jpg
619.353	0.873	correct	repeat	Run1	repeat/STIM_001.jpg
623.045	0.561	correct	repeat	Run1	repeat/STIM_001.jpg
627.441	0.534	correct	repeat	Run1	repeat/STIM_001.jpg
631.856	0.814	correct	repeat	Run1	repeat/STIM_001.jpg
636.47	0.748	incorrect	repeat	Run1	repeat/STIM_002.jpg
641.206	0.762	correct	repeat	Run1	repeat/STIM_002.jpg
645.501	0.753	correct	repeat	Run1	repeat/STIM_002.jpg
649.492	0.858	correct	repeat	Run1	repeat/STIM_002.jpg
653.795	0.864	correct	repeat	Run1	repeat/STIM_002.jpg
656.743	0.879	correct	repeat	Run1	repeat/STIM_003.jpg
660.028	0.787	correct	repeat	Run1	repeat/STIM_003.jpg
663.578	0.79	correct	repeat	Run1	repeat/STIM_003.jpg
667.712	0.732	correct	repeat	Run1	repeat/STIM_003.jpg
670.503	0.708	incorrect	repeat	Run1	repeat/STIM_003.jpg
673.446	0.77	correct	repeat	Run1	repeat/STIM_004.jpg
677.625	0.777	correct	repeat	Run1	repeat/STIM_004.jpg
681.784	0.734	correct	repeat	Run1	repeat/STIM_004.jpg
685.216	0.64	incorrect	repeat	Run1	repeat/STIM_004.jpg
687.954	0.639	correct	repeat	Run1	repeat/STIM_004.jpg
691.277	0.65	correct	repeat	Run1	repeat/STIM_005.jpg
694.854	0.673	correct	repeat	Run1	repeat/STIM_005.jpg
698.571	0.618	correct	repeat	Run1	repeat/STIM_005.jpg
702.149	0.826	correct	repeat	Run1	repeat/STIM_005.jpg
706.081	0.887	correct	repeat	Run1	repeat/STIM_005.jpg
710.769	0.778	correct	repeat	Run1	repeat/STIM_006.jpg
714.527	0.812	correct	repeat	Run1	repeat/STIM_006.jpg
719.128	0.746	correct	repeat	Run1	repeat/STIM_006.jpg
721.887	0.531	incorrect	repeat	Run1	repeat/STIM_006.jpg
725.206	0.696	correct	repeat	Run1	repeat/STIM_006.jpg
728.702	0.872	correct	repeat	Run1	repeat/STIM_007.jpg
731.801	0.912	correct	repeat	Run1	repeat/STIM_007.jpg
735.4	0.741	correct	repeat	Run1	repeat/STIM_007.jpg
739.851	0.953	correct	repeat	Run1	repeat/STIM_007.jpg
742.973	0.636	correct	repeat	Run1	repeat/STIM_007.jpg
746.047	0.731	correct	repeat	Run1	repeat/STIM_008.jpg
749.86	0.964	correct	repeat	Run1	repeat/STIM_008.jpg
754.135	0.85	correct	repeat	Run1	repeat/STIM_008.jpg
757.798	0.486	correct	repeat	Run1	repeat/STIM_008.jpg
762.234	0.639	correct	repeat	Run1	repeat/STIM_008.jpg
765.931	0.693	correct	repeat	Run1	repeat/STIM_009.jpg
769.948	0.841	correct	repeat	Run1	repeat/STIM_009.jpg
774.367	0.685	correct	repeat	Run1	repeat/STIM_009.jpg
777.239	0.579	correct	repeat	Run1	repeat/STIM_009.jpg
780.777	0.963	correct	repeat	Run1	repeat/STIM_009.jpg
783.931	0.804	correct	repeat	Run1	repeat/STIM_010.jpg
788.411	0.875	correct	repeat	Run1	repeat/STIM_010.jpg
792.776	0.838	correct	repeat	Run1	repeat/STIM_010.jpg
796.839	0.49	correct	repeat	Run1	repeat/STIM_010.jpg
799.638	0.539	correct	repeat	Run1	repeat/STIM_010.jpg
802.3	0.536	correct	repeat	Run1	repeat/STIM_011.jpg
806.614	0.792	correct	repeat	Run1	repeat/STIM_011.jpg
811.074	0.72	correct	repeat	Run1	repeat/STIM_011.jpg
815.678	0.66	correct	repeat	Run1	repeat/STIM_011.jpg
819.846	0.792	correct	repeat	Run1	repeat/STIM_011.jpg
824.195	0.92	correct	repeat	Run1	repeat/STIM_012.jpg
827.785	0.758	correct	repeat	Run1	repeat/STIM_012.jpg
832.526	0.71	correct	repeat	Run1	repeat/STIM_012.jpg
837.023	0.876	correct	repeat	Run1	repeat/STIM_012.jpg
840.001	0.586	correct	repeat	Run1	repeat/STIM_012.jpg
843.799	0.898	correct	repeat	Run1	repeat/STIM_013.jpg
847.349	0.859	correct	repeat	Run1	repeat/STIM_013.jpg
850.875	0.532	correct	repeat	Run1	repeat/STIM_013.jpg
854.686	0.551	correct	repeat	Run1	repeat/STIM_013.jpg
857.35	0.826	correct	repeat	Run1	repeat/STIM_013.jpg
861.562	0.839	correct	repeat	Run1	repeat/STIM_014.jpg
865.98	0.534	correct	repeat	Run1	repeat/STIM_014.jpg
869.294	0.719	correct	repeat	Run1	repeat/STIM_014.jpg
872.549	0.61	correct	repeat	Run1	repeat/STIM_014.jpg
877.031	0.781	correct	repeat	Run1	repeat/STIM_014.jpg
879.945	2.143	correct	generate	Run2	generate/STIM_000.jpg
884.309	2.198	correct	generate	Run2	generate/STIM_000.jpg
889.75	1.448	correct	generate	Run2	generate/STIM_000.jpg
894.328	1.248	correct	generate	Run2	generate/STIM_000.jpg
899.378	1.047	correct	generate	Run2	generate/STIM_000.jpg
902.932	1.935	correct	generate	Run2	generate/STIM_001.jpg
907.727	1.638	correct	generate	Run2	generate/STIM_001.jpg
912.181	1.049	correct	generate	Run2	generate/STIM_001.jpg
916.997	0.944	correct	generate	Run2	generate/STIM_001.jpg
921.28	1.753	correct	generate	Run2	generate/STIM_001.jpg
925.261	1.066	correct	generate	Run2	generate/STIM_002.jpg
928.647	1.755	correct	generate	Run2	generate/STIM_002.jpg
934.133	1.934	correct	generate	Run2	generate/STIM_002.jpg
938.921	1.326	correct	generate	Run2	generate/STIM_002.jpg
943.276	1.445	correct	generate	Run2	generate/STIM_002.jpg
947.856	2.341	correct	generate	Run2	generate/STIM_003.jpg
954.132	2.192	correct	generate	Run2	generate/STIM_003.jpg
960.191	1.438	correct	generate	Run2	generate/STIM_003.jpg
964.143	1.087	correct	generate	Run2	generate/STIM_003.jpg
968.727	1.917	correct	generate	Run2	generate/STIM_003.jpg
973.504	1.156	correct	generate	Run2	generate/STIM_004.jpg
977.36	1.03	correct	generate	Run2	generate/STIM_004.jpg
980.698	1.21	correct	generate	Run2	generate/STIM_004.jpg
984.649	1.84	correct	generate	Run2	generate/STIM_004.jpg
988.991	1.821	correct	generate	Run2	generate/STIM_004.jpg
993.37	1.84	correct	generate	Run2	generate/STIM_005.jpg
998.705	1.551	correct	generate	Run2	generate/STIM_005.jpg
1002.736	1.612	correct	generate	Run2	generate/STIM_005.jpg
1007.783	1.898	correct	generate	Run2	generate/STIM_005.jpg
1011.865	1.1	correct	generate	Run2	generate/STIM_005.jpg
1015.745	2.434	correct	generate	Run2	generate/STIM_006.jpg
1021.846	2.102	correct	generate	Run2	generate/STIM_006.jpg
1027.44	0.892	correct	generate	Run2	generate/STIM_006.jpg
1031.682	1.082	correct	generate	Run2	generate/STIM_006.jpg
1036.107	1.488	correct	generate	Run2	generate/STIM_006.jpg
1040.749	2.396	correct	generate	Run2	generate/STIM_007.jpg
1045.679	1.814	correct	generate	Run2	generate/STIM_007.jpg
1049.597	1.049	correct	generate	Run2	generate/STIM_007.jpg
1053.288	1.186	correct	generate	Run2	generate/STIM_007.jpg
1058.42	1.884	correct	generate	Run2	generate/STIM_007.jpg
1064.299	1.028	correct	generate	Run2	generate/STIM_008.jpg
1068.644	1.159	correct	generate	Run2	generate/STIM_008.jpg
1072.159	2.177	correct	generate	Run2	generate/STIM_008.jpg
1077.426	1.61	correct	generate	Run2	generate/STIM_008.jpg
1081.934	1.224	correct	generate	Run2	generate/STIM_008.jpg
1085.375	1.794	correct	generate	Run2	generate/STIM_009.jpg
1090.27	2.22	correct	generate	Run2	generate/STIM_009.jpg
1094.651	1.889	correct	generate	Run2	generate/STIM_009.jpg
1100.413	1.997	correct	generate	Run2	generate/STIM_009.jpg
1104.46	0.924	correct	generate	Run2	generate/STIM_009.jpg
1107.719	0.989	correct	generate	Run2	generate/STIM_010.jpg
1112.221	1.429	correct	generate	Run2	generate/STIM_010.jpg
1116.142	1.03	correct	generate	Run2	generate/STIM_010.jpg
1119.814	1.858	correct	generate	Run2	generate/STIM_010.jpg
1124.387	1.128	correct	generate	Run2	generate/STIM_010.jpg
1128.988	1.524	correct	generate	Run2	generate/STIM_011.jpg
1132.57	1.293	correct	generate	Run2	generate/STIM_011.jpg
1136.997	2.073	correct	generate	Run2	generate/STIM_011.jpg
1141.185	1.237	correct	generate	Run2	generate/STIM_011.jpg
1146.387	1.292	correct	generate	Run2	generate/STIM_011.jpg
1151.65	2.452	correct	generate	Run2	generate/STIM_012.jpg
1157.443	2.016	correct	generate	Run2	generate/STIM_012.jpg
1161.82	1.52	correct	generate	Run2	generate/STIM_012.jpg
1167.029	1.074	correct	generate	Run2	generate/STIM_012.jpg
1172.081	1.312	correct	generate	Run2	generate/STIM_012.jpg
1176.246	2.405	correct	generate	Run2	generate/STIM_013.jpg
1181.06	1.768	correct	generate	Run2	generate/STIM_013.jpg
1184.998	1.148	correct	generate	Run2	generate/STIM_013.jpg
1188.297	1.911	correct	generate	Run2	generate/STIM_013.jpg
1192.231	1.023	incorrect	generate	Run2	generate/STIM_013.jpg
1197.155	1.446	correct	generate	Run2	generate/STIM_014.jpg
1202.241	1.592	correct	generate	Run2	generate/STIM_014.jpg
1207.633	1.671	correct	generate	Run2	generate/STIM_014.jpg
1211.452	1.921	correct	generate	Run2	generate/STIM_014.jpg
1215.645	1.529	correct	generate	Run2	generate/STIM_014.jpg
1220.674	1.69	correct	generate	Run2	generate/STIM_015.jpg
1224.76	2.282	correct	generate	Run2	generate/STIM_015.jpg
1230.26	0.939	correct	generate	Run2	generate/STIM_015.jpg
1234.696	1.654	correct	generate	Run2	generate/STIM_015.jpg
1239.004	1.868	correct	generate	Run2	generate/STIM_015.jpg
1244.409	1.113	correct	generate	Run2	generate/STIM_016.jpg
1248.228	1.26	correct	generate	Run2	generate/STIM_016.jpg
1253.005	1.711	correct	generate	Run2	generate/STIM_016.jpg
1257.876	1.583	correct	generate	Run2	generate/STIM_016.jpg
1261.791	1.711	correct	generate	Run2	generate/STIM_016.jpg
1267.386	1.398	correct	generate	Run2	generate/STIM_017.jpg
1270.939	2.275	correct	generate	Run2	generate/STIM_017.jpg
1276.09	1.291	correct	generate	Run2	generate/STIM_017.jpg
1281.379	0.827	correct	generate	Run2	generate/STIM_017.jpg
1285.425	1.055	correct	generate	Run2	generate/STIM_017.jpg
1288.592	1.6	correct	generate	Run2	generate/STIM_018.jpg
1292.512	1.602	correct	generate	Run2	generate/STIM_018.jpg
1296.704	1.622	correct	generate	Run2	generate/STIM_018.jpg
1300.867	1.021	correct	generate	Run2	generate/STIM_018.jpg
1304.177	1.798	correct	generate	Run2	generate/STIM_018.jpg
1308.259	1.027	correct	generate	Run2	generate/STIM_019.jpg
1311.849	1.187	correct	generate	Run2	generate/STIM_019.jpg
1316.311	1.267	correct	generate	Run2	generate/STIM_019.jpg
1319.783	1.519	correct	generate	Run2	generate/STIM_019.jpg
1325.187	1.905	correct	generate	Run2	generate/STIM_019.jpg
1330.584	2.457	correct	generate	Run2	generate/STIM_020.jpg
1335.263	1.779	correct	generate	Run2	generate/STIM_020.jpg
1339.725	1.238	correct	generate	Run2	generate/STIM_020.jpg
1344.765	1.941	correct	generate	Run2	generate/STIM_020.jpg
1349.09	1.44	correct	generate	Run2	generate/STIM_020.jpg
1352.809	1.587	correct	generate	Run2	generate/STIM_021.jpg
1356.722	1.346	correct	generate	Run2	generate/STIM_021.jpg
1361.731	1.846	correct	generate	Run2	generate/STIM_021.jpg
1367.279	1.348	correct	generate	Run2	generate/STIM_021.jpg
1371.424	1.097	correct	generate	Run2	generate/STIM_021.jpg
1376.471	2.158	correct	generate	Run2	generate/STIM_022.jpg
1382.252	1.027	correct	generate	Run2	generate/STIM_022.jpg
1386.689	1.407	correct	generate	Run2	generate/STIM_022.jpg
1390.312	1.27	correct	generate	Run2	generate/STIM_022.jpg
1393.884	1.315	correct	generate	Run2	generate/STIM_022.jpg
1397.287	2.352	correct	generate	Run2	generate/STIM_023.jpg
1402.844	1.253	correct	generate	Run2	generate/STIM_023.jpg
1407.824	1.856	correct	generate	Run2	generate/STIM_023.jpg
1413.107	1.221	correct	generate	Run2	generate/STIM_023.jpg
1417.024	1.116	correct	generate	Run2	generate/STIM_023.jpg
1420.72	1.324	correct	generate	Run2	generate/STIM_024.jpg
1425.227	1.047	incorrect	generate	Run2	generate/STIM_024.jpg
1429.907	0.89	correct	generate	Run2	generate/STIM_024.jpg
1434.131	0.909	incorrect	generate	Run2	generate/STIM_024.jpg
1438.61	1.716	correct	generate	Run2	generate/STIM_024.jpg
1442.448	0.817	correct	repeat	Run2	repeat/STIM_000.jpg
1445.726	0.676	correct	repeat	Run2	repeat/STIM_000.jpg
1448.647	0.646	correct	repeat	Run2	repeat/STIM_000.jpg
1452.404	0.523	correct	repeat	Run2	repeat/STIM_000.jpg
1456.677	0.907	correct	repeat	Run2	repeat/STIM_000.jpg
1461.209	0.562	correct	repeat	Run2	repeat/STIM_001.jpg
1463.881	0.852	correct	repeat	Run2	repeat/STIM_001.jpg
1468.282	0.639	correct	repeat	Run2	repeat/STIM_001.jpg
1471.917	0.582	correct	repeat	Run2	repeat/STIM_001.jpg
1474.982	0.964	correct	repeat	Run2	repeat/STIM_001.jpg
1478.491	0.852	correct	repeat	Run2	repeat/STIM_002.jpg
1481.997	0.728	correct	repeat	Run2	repeat/STIM_002.jpg
1485.042	0.558	correct	repeat	Run2	repeat/STIM_002.jpg
1488.658	0.636	correct	repeat	Run2	repeat/STIM_002.jpg
1492.387	0.49	correct	repeat	Run2	repeat/STIM_002.jpg
1496.46	0.937	correct	repeat	Run2	repeat/STIM_003.jpg
1499.483	0.954	correct	repeat	Run2	repeat/STIM_003.jpg
1503.183	0.819	correct	repeat	Run2	repeat/STIM_003.jpg
1507.207	0.85	correct	repeat	Run2	repeat/STIM_003.jpg
1511.946	0.546	correct	repeat	Run2	repeat/STIM_003.jpg
1514.848	0.594	correct	repeat	Run2	repeat/STIM_004.jpg
1518.532	0.927	correct	repeat	Run2	repeat/STIM_004.jpg
1521.895	0.864	correct	repeat	Run2	repeat/STIM_004.jpg
1525.226	0.666	correct	repeat	Run2	repeat/STIM_004.jpg
1528.879	0.822	correct	repeat	Run2	repeat/STIM_004.jpg
1533.262	0.747	correct	repeat	Run2	repeat/STIM_005.jpg
1537.979	0.869	correct	repeat	Run2	repeat/STIM_005.jpg
1541.987	0.844	correct	repeat	Run2	repeat/STIM_005.jpg
1546.695	0.551	correct	repeat	Run2	repeat/STIM_005.jpg
1550.677	0.752	correct	repeat	Run2	repeat/STIM_005.jpg
1554.29	0.592	correct	repeat	Run2	repeat/STIM_006.jpg
1557.858	0.871	correct	repeat	Run2	repeat/STIM_006.jpg
1562.477	0.853	correct	repeat	Run2	repeat/STIM_006.jpg
1566.634	0.75	correct	repeat	Run2	repeat/STIM_006.jpg
1570.506	0.489	correct	repeat	Run2	repeat/STIM_006.jpg
1574.15	0.594	correct	repeat	Run2	repeat/STIM_007.jpg
1577.77	0.79	correct	repeat	Run2	repeat/STIM_007.jpg
1581.497	0.616	correct	repeat	Run2	repeat/STIM_007.jpg
1585.61	0.713	correct	repeat	Run2	repeat/STIM_007.jpg
1588.618	0.88	correct	repeat	Run2	repeat/STIM_007.jpg
1591.753	0.858	correct	repeat	Run2	repeat/STIM_008.jpg
1594.959	0.699	correct	repeat	Run2	repeat/STIM_008.jpg
1599.599	0.8	correct	repeat	Run2	repeat/STIM_008.jpg
1603.415	0.826	correct	repeat	Run2	repeat/STIM_008.jpg
1607.171	0.785	correct	repeat	Run2	repeat/STIM_008.jpg
1611.715	0.825	correct	repeat	Run2	repeat/STIM_009.jpg
1615.002	0.611	correct	repeat	Run2	repeat/STIM_009.jpg
1617.821	0.769	correct	repeat	Run2	repeat/STIM_009.jpg
1621.8	0.738	correct	repeat	Run2	repeat/STIM_009.jpg
1625.246	0.581	correct	repeat	Run2	repeat/STIM_009.jpg
1629.243	0.936	correct	repeat	Run2	repeat/STIM_010.jpg
1633.854	0.5	correct	repeat	Run2	repeat/STIM_010.jpg
1637.658	0.567	correct	repeat	Run2	repeat/STIM_010.jpg
1641.964	0.792	correct	repeat	Run2	repeat/STIM_010.jpg
1645.661	0.842	correct	repeat	Run2	repeat/STIM_010.jpg
1648.821	0.585	incorrect	repeat	Run2	repeat/STIM_011.jpg
1652.559	0.584	correct	repeat	Run2	repeat/STIM_011.jpg
1656.456	0.8	correct	repeat	Run2	repeat/STIM_011.jpg
1660.819	0.538	correct	repeat	Run2	repeat/STIM_011.jpg
1664.144	0.897	correct	repeat	Run2	repeat/STIM_011.jpg
1668.648	0.527	correct	repeat	Run2	repeat/STIM_012.jpg
1671.43	0.937	correct	repeat	Run2	repeat/STIM_012.jpg
1675.562	0.954	correct	repeat	Run2	repeat/STIM_012.jpg
1679.609	0.965	incorrect	repeat	Run2	repeat/STIM_012.jpg
1684.282	0.688	correct	repeat	Run2	repeat/STIM_012.jpg
1688.052	0.775	correct	repeat	Run2	repeat/STIM_013.jpg
1691.697	0.652	correct	repeat	Run2	repeat/STIM_013.jpg
1695.773	0.864	correct	repeat	Run2	repeat/STIM_013.jpg
1699.874	0.88	correct	repeat	Run2	repeat/STIM_013.jpg
1703.016	0.738	correct	repeat	Run2	repeat/STIM_013.jpg
1707.185	0.67	correct	repeat	Run2	repeat/STIM_014.jpg
1710.761	0.738	correct	repeat	Run2	repeat/STIM_014.jpg
1714.661	0.812	correct	repeat	Run2	repeat/STIM_014.jpg
1718.625	0.945	correct	repeat	Run2	repeat/STIM_014.jpg
1723.181	0.496	correct	repeat	Run2	repeat/STIM_014.jpg
1726.553	2.026	correct	generate	Run3	generate/STIM_000.jpg
1732.446	1.103	correct	generate	Run3	generate/STIM_000.jpg
1735.905	0.996	correct	generate	Run3	generate/STIM_000.jpg
1739.762	1.272	correct	generate	Run3	generate/STIM_000.jpg
1743.204	0.958	correct	generate	Run3	generate/STIM_000.jpg
1746.726	1.065	correct	generate	Run3	generate/STIM_001.jpg
1751.578	1.069	correct	generate	Run3	generate/STIM_001.jpg
1755.417	1.672	correct	generate	Run3	generate/STIM_001.jpg
1760.218	1.932	correct	generate	Run3	generate/STIM_001.jpg
1764.686	1.754	incorrect	generate	Run3	generate/STIM_001.jpg
1770.129	1.95	correct	generate	Run3	generate/STIM_002.jpg
1774.146	1.059	correct	generate	Run3	generate/STIM_002.jpg
1777.66	1.159	correct	generate	Run3	generate/STIM_002.jpg
1781.846	1.671	correct	generate	Run3	generate/STIM_002.jpg
1786.581	0.892	correct	generate	Run3	generate/STIM_002.jpg
1790.865	1.486	correct	generate	Run3	generate/STIM_003.jpg
1796.123	1.414	correct	generate	Run3	generate/STIM_003.jpg
1799.909	1.508	correct	generate	Run3	generate/STIM_003.jpg
1804.773	0.883	correct	generate	Run3	generate/STIM_003.jpg
1809.01	1.091	correct	generate	Run3	generate/STIM_003.jpg
1812.34	1.937	correct	generate	Run3	generate/STIM_004.jpg
1816.289	1.573	correct	generate	Run3	generate/STIM_004.jpg
1820.444	1.237	correct	generate	Run3	generate/STIM_004.jpg
1824.935	1.496	correct	generate	Run3	generate/STIM_004.jpg
1828.784	1.213	correct	generate	Run3	generate/STIM_004.jpg
1833.04	1.049	correct	generate	Run3	generate/STIM_005.jpg
1836.175	1.037	correct	generate	Run3	generate/STIM_005.jpg
1839.386	0.898	correct	generate	Run3	generate/STIM_005.jpg
1843.204	1.748	correct	generate	Run3	generate/STIM_005.jpg
1847.631	1.233	correct	generate	Run3	generate/STIM_005.jpg
1851.335	1.09	correct	generate	Run3	generate/STIM_006.jpg
1856.353	0.929	correct	generate	Run3	generate/STIM_006.jpg
1859.291	1.114	correct	generate	Run3	generate/STIM_006.jpg
1863.028	1.109	correct	generate	Run3	generate/STIM_006.jpg
1867.928	1.03	correct	generate	Run3	generate/STIM_006.jpg
1871.403	1.908	correct	generate	Run3	generate/STIM_007.jpg
1875.556	1.788	correct	generate	Run3	generate/STIM_007.jpg
1879.814	1.086	correct	generate	Run3	generate/STIM_007.jpg
1883.536	0.861	correct	generate	Run3	generate/STIM_007.jpg
1887.936	1.423	correct	generate	Run3	generate/STIM_007.jpg
1892.902	1.479	correct	generate	Run3	generate/STIM_008.jpg
1898.072	1.919	correct	generate	Run3	generate/STIM_008.jpg
1902.855	0.95	correct	generate	Run3	generate/STIM_008.jpg
1907.422	1.681	correct	generate	Run3	generate/STIM_008.jpg
1911.218	1.212	correct	generate	Run3	generate/STIM_008.jpg
1915.968	1.194	correct	generate	Run3	generate/STIM_009.jpg
1919.991	1.853	correct	generate	Run3	generate/STIM_009.jpg
1923.997	1.58	correct	generate	Run3	generate/STIM_009.jpg
1928.222	1.559	correct	generate	Run3	generate/STIM_009.jpg
1932.022	1.03	correct	generate	Run3	generate/STIM_009.jpg
1935.532	1.674	correct	generate	Run3	generate/STIM_010.jpg
1939.343	1.415	correct	generate	Run3	generate/STIM_010.jpg
1943.566	1.52	correct	generate	Run3	generate/STIM_010.jpg
1947.895	1.716	correct	generate	Run3	generate/STIM_010.jpg
1952.179	0.864	correct	generate	Run3	generate/STIM_010.jpg
1955.984	0.98	correct	generate	Run3	generate/STIM_011.jpg
1960.211	1.711	correct	generate	Run3	generate/STIM_011.jpg
1965.467	1.348	correct	generate	Run3	generate/STIM_011.jpg
1969.88	1.402	correct	generate	Run3	generate/STIM_011.jpg
1973.877	0.953	correct	generate	Run3	generate/STIM_011.jpg
1977.428	1.459	correct	generate	Run3	generate/STIM_012.jpg
1981.682	1.647	correct	generate	Run3	generate/STIM_012.jpg
1986.121	1.669	correct	generate	Run3	generate/STIM_012.jpg
1990.894	0.974	correct	generate	Run3	generate/STIM_012.jpg
1994.213	1.829	correct	generate	Run3	generate/STIM_012.jpg
1999.723	1.67	correct	generate	Run3	generate/STIM_013.jpg
2004.277	1.825	correct	generate	Run3	generate/STIM_013.jpg
2008.709	1.028	correct	generate	Run3	generate/STIM_013.jpg
2013.682	1.12	correct	generate	Run3	generate/STIM_013.jpg
2018.216	1.827	correct	generate	Run3	generate/STIM_013.jpg
2023.932	1.878	correct	generate	Run3	generate/STIM_014.jpg
2028.29	1.647	correct	generate	Run3	generate/STIM_014.jpg
2032.955	1.656	correct	generate	Run3	generate/STIM_014.jpg
2038.331	1.716	correct	generate	Run3	generate/STIM_014.jpg
2043.314	1.469	correct	generate	Run3	generate/STIM_014.jpg
2047.1	1.382	correct	generate	Run3	generate/STIM_015.jpg
2051.963	1.031	correct	generate	Run3	generate/STIM_015.jpg
2055.549	1.033	correct	generate	Run3	generate/STIM_015.jpg
2060.215	1.345	correct	generate	Run3	generate/STIM_015.jpg
2065.271	1.058	correct	generate	Run3	generate/STIM_015.jpg
2069.58	1.853	correct	generate	Run3	generate/STIM_016.jpg
2073.887	0.998	correct	generate	Run3	generate/STIM_016.jpg
2077.121	1.207	correct	generate	Run3	generate/STIM_016.jpg
2081.727	1.874	correct	generate	Run3	generate/STIM_016.jpg
2085.975	1.637	correct	generate	Run3	generate/STIM_016.jpg
2089.692	1.465	correct	generate	Run3	generate/STIM_017.jpg
2094.869	1.069	correct	generate	Run3	generate/STIM_017.jpg
2098.592	1.178	correct	generate	Run3	generate/STIM_017.jpg
2103.626	1.831	correct	generate	Run3	generate/STIM_017.jpg
2108.615	1.578	correct	generate	Run3	generate/STIM_017.jpg
2112.819	1.566	correct	generate	Run3	generate/STIM_018.jpg
2116.466	1.902	correct	generate	Run3	generate/STIM_018.jpg
2122.057	1.288	correct	generate	Run3	generate/STIM_018.jpg
2126.677	1.585	correct	generate	Run3	generate/STIM_018.jpg
2131.878	1.476	correct	generate	Run3	generate/STIM_018.jpg
2135.659	1.096	correct	generate	Run3	generate/STIM_019.jpg
2140.398	0.864	correct	generate	Run3	generate/STIM_019.jpg
2143.331	0.995	correct	generate	Run3	generate/STIM_019.jpg
2146.55	0.971	correct	generate	Run3	generate/STIM_019.jpg
2150.867	0.874	correct	generate	Run3	generate/STIM_019.jpg
2155.014	1.236	correct	generate	Run3	generate/STIM_020.jpg
2158.454	1.266	correct	generate	Run3	generate/STIM_020.jpg
2162.582	2.011	correct	generate	Run3	generate/STIM_020.jpg
2168.372	0.875	correct	generate	Run3	generate/STIM_020.jpg
2173.078	1.945	correct	generate	Run3	generate/STIM_020.jpg
2177.908	1.031	correct	generate	Run3	generate/STIM_021.jpg
2181.531	1.613	correct	generate	Run3	generate/STIM_021.jpg
2186.937	1.995	correct	generate	Run3	generate/STIM_021.jpg
2191.288	1.766	correct	generate	Run3	generate/STIM_021.jpg
2195.333	1.673	correct	generate	Run3	generate/STIM_021.jpg
2200.147	1.786	correct	generate	Run3	generate/STIM_022.jpg
2204.681	0.977	correct	generate	Run3	generate/STIM_022.jpg
2209.2	1.365	correct	generate	Run3	generate/STIM_022.jpg
2214.373	0.943	correct	generate	Run3	generate/STIM_022.jpg
2217.826	1.928	correct	generate	Run3	generate/STIM_022.jpg
2221.785	1.599	correct	generate	Run3	generate/STIM_023.jpg
2227.125	1.047	correct	generate	Run3	generate/STIM_023.jpg
2231.468	1.833	correct	generate	Run3	generate/STIM_023.jpg
2236.183	0.984	correct	generate	Run3	generate/STIM_023.jpg
2240.643	1.142	correct	generate	Run3	generate/STIM_023.jpg
2243.924	1.866	correct	generate	Run3	generate/STIM_024.jpg
2248.53	1.14	correct	generate	Run3	generate/STIM_024.jpg
2252.819	1.63	correct	generate	Run3	generate/STIM_024.jpg
2256.872	1.049	correct	generate	Run3	generate/STIM_024.jpg
2260.432	1.986	correct	generate	Run3	generate/STIM_024.jpg
2264.502	0.891	correct	repeat	Run3	repeat/STIM_000.jpg
2267.964	0.782	correct	repeat	Run3	repeat/STIM_000.jpg
2270.923	0.59	correct	repeat	Run3	repeat/STIM_000.jpg
2274.723	0.636	correct	repeat	Run3	repeat/STIM_000.jpg
2277.517	0.62	correct	repeat	Run3	repeat/STIM_000.jpg
2281.912	0.847	correct	repeat	Run3	repeat/STIM_001.jpg
2286.522	0.531	correct	repeat	Run3	repeat/STIM_001.jpg
2289.441	0.57	correct	repeat	Run3	repeat/STIM_001.jpg
2292.27	0.907	correct	repeat	Run3	repeat/STIM_001.jpg
2295.264	0.894	correct	repeat	Run3	repeat/STIM_001.jpg
2299.736	0.713	correct	repeat	Run3	repeat/STIM_002.jpg
2302.527	0.784	correct	repeat	Run3	repeat/STIM_002.jpg
2305.788	0.815	correct	repeat	Run3	repeat/STIM_002.jpg
2310.092	0.567	correct	repeat	Run3	repeat/STIM_002.jpg
2313.564	0.555	correct	repeat	Run3	repeat/STIM_002.jpg
2317.594	0.949	correct	repeat	Run3	repeat/STIM_003.jpg
2321.858	0.744	correct	repeat	Run3	repeat/STIM_003.jpg
2325.503	0.68	correct	repeat	Run3	repeat/STIM_003.jpg
2329.958	0.871	correct	repeat	Run3	repeat/STIM_003.jpg
2334.235	0.604	correct	repeat	Run3	repeat/STIM_003.jpg
2337.537	0.752	correct	repeat	Run3	repeat/STIM_004.jpg
2342.235	0.558	correct	repeat	Run3	repeat/STIM_004.jpg
2346.668	0.562	correct	repeat	Run3	repeat/STIM_004.jpg
2349.973	0.91	incorrect	repeat	Run3	repeat/STIM_004.jpg
2354.043	0.589	correct	repeat	Run3	repeat/STIM_004.jpg
2356.827	0.746	correct	repeat	Run3	repeat/STIM_005.jpg
2359.904	0.593	incorrect	repeat	Run3	repeat/STIM_005.jpg
2363.291	0.864	correct	repeat	Run3	repeat/STIM_005.jpg
2366.702	0.843	correct	repeat	Run3	repeat/STIM_005.jpg
2370.805	0.823	correct	repeat	Run3	repeat/STIM_005.jpg
2375.508	0.831	correct	repeat	Run3	repeat/STIM_006.jpg
2378.386	0.634	correct	repeat	Run3	repeat/STIM_006.jpg
2381.608	0.509	correct	repeat	Run3	repeat/STIM_006.jpg
2386.086	0.56	correct	repeat	Run3	repeat/STIM_006.jpg
2389.116	0.877	correct	repeat	Run3	repeat/STIM_006.jpg
2392.463	0.87	correct	repeat	Run3	repeat/STIM_007.jpg
2395.927	0.65	correct	repeat	Run3	repeat/STIM_007.jpg
2399.42	0.625	correct	repeat	Run3	repeat/STIM_007.jpg
2403.163	0.739	correct	repeat	Run3	repeat/STIM_007.jpg
2407.448	0.538	incorrect	repeat	Run3	repeat/STIM_007.jpg
2410.389	0.949	correct	repeat	Run3	repeat/STIM_008.jpg
2414.785	0.898	correct	repeat	Run3	repeat/STIM_008.jpg
2419.183	0.955	correct	repeat	Run3	repeat/STIM_008.jpg
2422.947	0.913	correct	repeat	Run3	repeat/STIM_008.jpg
2427.651	0.512	correct	repeat	Run3	repeat/STIM_008.jpg
2430.431	0.964	correct	repeat	Run3	repeat/STIM_009.jpg
2435.175	0.918	correct	repeat	Run3	repeat/STIM_009.jpg
2438.421	0.943	correct	repeat	Run3	repeat/STIM_009.jpg
2442.914	0.596	correct	repeat	Run3	repeat/STIM_009.jpg
2446.015	0.917	correct	repeat	Run3	repeat/STIM_009.jpg
2449.297	0.697	correct	repeat	Run3	repeat/STIM_010.jpg
2452.132	0.606	correct	repeat	Run3	repeat/STIM_010.jpg
2455.296	0.709	correct	repeat	Run3	repeat/STIM_010.jpg
2459.291	0.514	correct	repeat	Run3	repeat/STIM_010.jpg
2463.312	0.524	correct	repeat	Run3	repeat/STIM_010.jpg
2467.246	0.914	correct	repeat	Run3	repeat/STIM_011.jpg
2470.657	0.585	correct	repeat	Run3	repeat/STIM_011.jpg
2473.823	0.492	correct	repeat	Run3	repeat/STIM_011.jpg
2476.359	0.554	correct	repeat	Run3	repeat/STIM_011.jpg
2480.046	0.672	correct	repeat	Run3	repeat/STIM_011.jpg
2484.664	0.648	correct	repeat	Run3	repeat/STIM_012.jpg
2489.305	0.817	correct	repeat	Run3	repeat/STIM_012.jpg
2493.417	0.72	correct	repeat	Run3	repeat/STIM_012.jpg
2497.156	0.812	correct	repeat	Run3	repeat/STIM_012.jpg
2501.906	0.722	correct	repeat	Run3	repeat/STIM_012.jpg
2505.114	0.862	correct	repeat	Run3	repeat/STIM_013.jpg
2508.788	0.774	correct	repeat	Run3	repeat/STIM_013.jpg
2512.335	0.786	correct	repeat	Run3	repeat/STIM_013.jpg
2515.465	0.531	correct	repeat	Run3	repeat/STIM_013.jpg
2518.971	0.797	correct	repeat	Run3	repeat/STIM_013.jpg
2522.681	0.574	correct	repeat	Run3	repeat/STIM_014.jpg
2527.079	0.77	correct	repeat	Run3	repeat/STIM_014.jpg
2531.532	0.726	correct	repeat	Run3	repeat/STIM_014.jpg
2535.878	0.726	correct	repeat	Run3	repeat/STIM_014.jpg
2540.079	0.77	correct	repeat	Run3	repeat/STIM_014.jpg
2544.605	1.383	correct	generate	Run4	generate/STIM_000.jpg
2548.62	1.979	correct	generate	Run4	generate/STIM_000.jpg
2553.629	1.761	correct	generate	Run4	generate/STIM_000.jpg
2559.222	1.908	correct	generate	Run4	generate/STIM_000.jpg
2563.703	1.235	correct	generate	Run4	generate/STIM_000.jpg
2567.46	1.639	correct	generate	Run4	generate/STIM_001.jpg
2572.024	1.094	correct	generate	Run4	generate/STIM_001.jpg
2576.789	1.784	correct	generate	Run4	generate/STIM_001.jpg
2580.964	1.107	correct	generate	Run4	generate/STIM_001.jpg
2585.354	0.989	correct	generate	Run4	generate/STIM_001.jpg
2589.951	1.651	correct	generate	Run4	generate/STIM_002.jpg
2594.596	0.876	correct	generate	Run4	generate/STIM_002.jpg
2598.782	1.067	correct	generate	Run4	generate/STIM_002.jpg
2603.42	0.844	correct	generate	Run4	generate/STIM_002.jpg
2606.788	1.214	correct	generate	Run4	generate/STIM_002.jpg
2610.688	1.136	incorrect	generate	Run4	generate/STIM_003.jpg
2615.64	1.54	correct	generate	Run4	generate/STIM_003.jpg
2620.21	1.253	correct	generate	Run4	generate/STIM_003.jpg
2624.78	1.618	correct	generate	Run4	generate/STIM_003.jpg
2628.909	1.405	correct	generate	Run4	generate/STIM_003.jpg
2633.894	0.936	correct	generate	Run4	generate/STIM_004.jpg
2638.791	0.873	incorrect	generate	Run4	generate/STIM_004.jpg
2642.122	1.782	correct	generate	Run4	generate/STIM_004.jpg
2646.837	1.051	correct	generate	Run4	generate/STIM_004.jpg
2651.19	1.162	correct	generate	Run4	generate/STIM_004.jpg
2655.311	1.302	correct	generate	Run4	generate/STIM_005.jpg
2659.595	1.486	correct	generate	Run4	generate/STIM_005.jpg
2664.884	1.052	correct	generate	Run4	generate/STIM_005.jpg
2668.886	1.964	correct	generate	Run4	generate/STIM_005.jpg
2673.73	1.881	correct	generate	Run4	generate/STIM_005.jpg
2677.979	1.71	correct	generate	Run4	generate/STIM_006.jpg
2681.888	1.848	correct	generate	Run4	generate/STIM_006.jpg
2686.095	1.964	correct	generate	Run4	generate/STIM_006.jpg
2691.662	1.125	correct	generate	Run4	generate/STIM_006.jpg
2695.209	1.837	correct	generate	Run4	generate/STIM_006.jpg
2700.376	1.251	correct	generate	Run4	generate/STIM_007.jpg
2703.843	1.537	correct	generate	Run4	generate/STIM_007.jpg
2707.667	1.13	correct	generate	Run4	generate/STIM_007.jpg
2712.436	2.004	correct	generate	Run4	generate/STIM_007.jpg
2717.295	1.511	correct	generate	Run4	generate/STIM_007.jpg
2721.638	1.904	correct	generate	Run4	generate/STIM_008.jpg
2726.914	1.985	correct	generate	Run4	generate/STIM_008.jpg
2731.139	1.587	correct	generate	Run4	generate/STIM_008.jpg
2736.54	1.481	correct	generate	Run4	generate/STIM_008.jpg
2740.38	1.477	correct	generate	Run4	generate/STIM_008.jpg
2745.496	1.367	incorrect	generate	Run4	generate/STIM_009.jpg
2749.029	1.973	correct	generate	Run4	generate/STIM_009.jpg
2753.727	0.986	correct	generate	Run4	generate/STIM_009.jpg
2758.572	1.257	correct	generate	Run4	generate/STIM_009.jpg
2763.705	1.653	correct	generate	Run4	generate/STIM_009.jpg
2768.469	1.188	correct	generate	Run4	generate/STIM_010.jpg
2772.915	1.804	correct	generate	Run4	generate/STIM_010.jpg
2778.048	1.172	incorrect	generate	Run4	generate/STIM_010.jpg
2781.657	1.078	correct	generate	Run4	generate/STIM_010.jpg
2785.822	2.013	correct	generate	Run4	generate/STIM_010.jpg
2790.843	1.641	correct	generate	Run4	generate/STIM_011.jpg
2795.775	1.107	correct	generate	Run4	generate/STIM_011.jpg
2799.704	1.056	correct	generate	Run4	generate/STIM_011.jpg
2803.744	1.557	correct	generate	Run4	generate/STIM_011.jpg
2807.383	0.921	correct	generate	Run4	generate/STIM_011.jpg
2811.769	1.314	correct	generate	Run4	generate/STIM_012.jpg
2816.245	1.222	correct	generate	Run4	generate/STIM_012.jpg
2821.347	1.79	correct	generate	Run4	generate/STIM_012.jpg
2826.47	1.127	correct	generate	Run4	generate/STIM_012.jpg
2831.098	1.883	correct	generate	Run4	generate/STIM_012.jpg
2835.7	0.908	correct	generate	Run4	generate/STIM_013.jpg
2840.32	0.978	correct	generate	Run4	generate/STIM_013.jpg
2844.793	1.481	correct	generate	Run4	generate/STIM_013.jpg
2849.911	1.594	correct	generate	Run4	generate/STIM_013.jpg
2854.978	1.666	correct	generate	Run4	generate/STIM_013.jpg
2860.551	1.347	correct	generate	Run4	generate/STIM_014.jpg
2865.823	1.548	correct	generate	Run4	generate/STIM_014.jpg
2871.209	1.284	correct	generate	Run4	generate/STIM_014.jpg
2874.636	1.415	correct	generate	Run4	generate/STIM_014.jpg
2878.564	1.47	correct	generate	Run4	generate/STIM_014.jpg
2883.624	1.903	correct	generate	Run4	generate/STIM_015.jpg
2888.728	1.844	correct	generate	Run4	generate/STIM_015.jpg
2893.268	2.033	correct	generate	Run4	generate/STIM_015.jpg
2897.976	2.007	correct	generate	Run4	generate/STIM_015.jpg
2902.136	1.704	correct	generate	Run4	generate/STIM_015.jpg
2906.146	1.929	correct	generate	Run4	generate/STIM_016.jpg
2911.542	1.33	correct	generate	Run4	generate/STIM_016.jpg
2916.414	1.024	correct	generate	Run4	generate/STIM_016.jpg
2920.459	1.268	correct	generate	Run4	generate/STIM_016.jpg
2924.043	1.258	correct	generate	Run4	generate/STIM_016.jpg
2929.278	1.017	correct	generate	Run4	generate/STIM_017.jpg
2933.366	1.469	correct	generate	Run4	generate/STIM_017.jpg
2936.952	0.895	correct	generate	Run4	generate/STIM_017.jpg
2940.249	1.191	correct	generate	Run4	generate/STIM_017.jpg
2944.389	1.529	correct	generate	Run4	generate/STIM_017.jpg
2948.764	1.702	correct	generate	Run4	generate/STIM_018.jpg
2953.194	1.076	correct	generate	Run4	generate/STIM_018.jpg
2958.238	1.888	correct	generate	Run4	generate/STIM_018.jpg
2963.121	1.999	correct	generate	Run4	generate/STIM_018.jpg
2968.302	1.334	correct	generate	Run4	generate/STIM_018.jpg
2971.876	1.628	correct	generate	Run4	generate/STIM_019.jpg
2976.45	1.031	correct	generate	Run4	generate/STIM_019.jpg
2980.341	1.189	correct	generate	Run4	generate/STIM_019.jpg
2984.65	2.006	correct	generate	Run4	generate/STIM_019.jpg
2990.183	1.862	correct	generate	Run4	generate/STIM_019.jpg
2995.673	1.137	correct	generate	Run4	generate/STIM_020.jpg
3000.781	1.97	incorrect	generate	Run4	generate/STIM_020.jpg
3006.284	0.922	correct	generate	Run4	generate/STIM_020.jpg
3009.809	1.288	correct	generate	Run4	generate/STIM_020.jpg
3013.884	1.333	correct	generate	Run4	generate/STIM_020.jpg
3018.979	1.004	correct	generate	Run4	generate/STIM_021.jpg
3022.015	1.903	correct	generate	Run4	generate/STIM_021.jpg
3027.58	1.842	correct	generate	Run4	generate/STIM_021.jpg
3033.172	1.403	incorrect	generate	Run4	generate/STIM_021.jpg
3037.698	1.78	correct	generate	Run4	generate/STIM_021.jpg
3043.117	1.744	correct	generate	Run4	generate/STIM_022.jpg
3047.987	1.294	correct	generate	Run4	generate/STIM_022.jpg
3052.515	1.079	correct	generate	Run4	generate/STIM_022.jpg
3056.963	0.982	correct	generate	Run4	generate/STIM_022.jpg
3061.742	1.988	correct	generate	Run4	generate/STIM_022.jpg
3066.25	1.169	correct	generate	Run4	generate/STIM_023.jpg
3069.917	1.691	correct	generate	Run4	generate/STIM_023.jpg
3074.636	1.42	correct	generate	Run4	generate/STIM_023.jpg
3079.674	1.727	correct	generate	Run4	generate/STIM_023.jpg
3084.183	0.938	correct	generate	Run4	generate/STIM_023.jpg
3088.821	1.694	correct	generate	Run4	generate/STIM_024.jpg
3092.75	0.996	correct	generate	Run4	generate/STIM_024.jpg
3097.68	1.319	correct	generate	Run4	generate/STIM_024.jpg
3101.327	1.544	correct	generate	Run4	generate/STIM_024.jpg
3106.836	1.487	correct	generate	Run4	generate/STIM_024.jpg
3111.582	0.767	correct	repeat	Run4	repeat/STIM_000.jpg
3116.167	0.931	correct	repeat	Run4	repeat/STIM_000.jpg
3119.415	0.965	correct	repeat	Run4	repeat/STIM_000.jpg
3122.749	0.523	correct	repeat	Run4	repeat/STIM_000.jpg
3127.085	0.876	correct	repeat	Run4	repeat/STIM_000.jpg
3131.828	0.486	correct	repeat	Run4	repeat/STIM_001.jpg
3136.259	0.924	correct	repeat	Run4	repeat/STIM_001.jpg
3141.086	0.659	correct	repeat	Run4	repeat/STIM_001.jpg
3144.098	0.938	correct	repeat	Run4	repeat/STIM_001.jpg
3148.59	0.941	correct	repeat	Run4	repeat/STIM_001.jpg
3152.616	0.819	correct	repeat	Run4	repeat/STIM_002.jpg
3156.689	0.918	correct	repeat	Run4	repeat/STIM_002.jpg
3160.719	0.746	correct	repeat	Run4	repeat/STIM_002.jpg
3164.076	0.56	correct	repeat	Run4	repeat/STIM_002.jpg
3166.664	0.514	correct	repeat	Run4	repeat/STIM_002.jpg
3171.118	0.714	correct	repeat	Run4	repeat/STIM_003.jpg
3175.352	0.822	correct	repeat	Run4	repeat/STIM_003.jpg
3178.649	0.534	correct	repeat	Run4	repeat/STIM_003.jpg
3182.953	0.738	correct	repeat	Run4	repeat/STIM_003.jpg
3187.116	0.831	correct	repeat	Run4	repeat/STIM_003.jpg
3190.914	0.864	correct	repeat	Run4	repeat/STIM_004.jpg
3194.546	0.786	correct	repeat	Run4	repeat/STIM_004.jpg
3198.61	0.715	correct	repeat	Run4	repeat/STIM_004.jpg
3202.916	0.636	correct	repeat	Run4	repeat/STIM_004.jpg
3206.951	0.739	correct	repeat	Run4	repeat/STIM_004.jpg
3211.355	0.525	correct	repeat	Run4	repeat/STIM_005.jpg
3214.345	0.87	correct	repeat	Run4	repeat/STIM_005.jpg
3218.964	0.796	correct	repeat	Run4	repeat/STIM_005.jpg
3222.261	0.679	correct	repeat	Run4	repeat/STIM_005.jpg
3225.734	0.922	correct	repeat	Run4	repeat/STIM_005.jpg
3228.838	0.633	correct	repeat	Run4	repeat/STIM_006.jpg
3232.167	0.6	correct	repeat	Run4	repeat/STIM_006.jpg
3236.549	0.687	correct	repeat	Run4	repeat/STIM_006.jpg
3240.077	0.81	correct	repeat	Run4	repeat/STIM_006.jpg
3243.696	0.699	correct	repeat	Run4	repeat/STIM_006.jpg
3248.311	0.626	correct	repeat	Run4	repeat/STIM_007.jpg
3252.535	0.706	correct	repeat	Run4	repeat/STIM_007.jpg
3256.089	0.82	incorrect	repeat	Run4	repeat/STIM_007.jpg
3260.167	0.723	correct	repeat	Run4	repeat/STIM_007.jpg
3264.004	0.556	correct	repeat	Run4	repeat/STIM_007.jpg
3268.517	0.542	correct	repeat	Run4	repeat/STIM_008.jpg
3272.727	0.609	correct	repeat	Run4	repeat/STIM_008.jpg
3275.987	0.957	correct	repeat	Run4	repeat/STIM_008.jpg
3280.53	0.57	correct	repeat	Run4	repeat/STIM_008.jpg
3283.898	0.767	correct	repeat	Run4	repeat/STIM_008.jpg
3288.326	0.558	correct	repeat	Run4	repeat/STIM_009.jpg
3292.404	0.509	correct	repeat	Run4	repeat/STIM_009.jpg
3295.533	0.956	correct	repeat	Run4	repeat/STIM_009.jpg
3300.243	0.798	incorrect	repeat	Run4	repeat/STIM_009.jpg
3303.69	0.788	correct	repeat	Run4	repeat/STIM_009.jpg
3307.022	0.756	correct	repeat	Run4	repeat/STIM_010.jpg
3311.274	0.759	correct	repeat	Run4	repeat/STIM_010.jpg
3315.053	0.752	correct	repeat	Run4	repeat/STIM_010.jpg
3318.52	0.651	correct	repeat	Run4	repeat/STIM_010.jpg
3322.51	0.904	correct	repeat	Run4	repeat/STIM_010.jpg
3326.841	0.857	correct	repeat	Run4	repeat/STIM_011.jpg
3330.594	0.82	correct	repeat	Run4	repeat/STIM_011.jpg
3334.546	0.894	correct	repeat	Run4	repeat/STIM_011.jpg
3339.268	0.94	incorrect	repeat	Run4	repeat/STIM_011.jpg
3342.531	0.674	correct	repeat	Run4	repeat/STIM_011.jpg
3345.615	0.72	correct	repeat	Run4	repeat/STIM_012.jpg
3348.502	0.938	correct	repeat	Run4	repeat/STIM_012.jpg
3351.838	0.643	correct	repeat	Run4	repeat/STIM_012.jpg
3355.46	0.549	correct	repeat	Run4	repeat/STIM_012.jpg
3358.707	0.777	correct	repeat	Run4	repeat/STIM_012.jpg
3362.951	0.873	correct	repeat	Run4	repeat/STIM_013.jpg
3366.215	0.956	correct	repeat	Run4	repeat/STIM_013.jpg
3370.382	0.887	correct	repeat	Run4	repeat/STIM_013.jpg
3374.638	0.707	correct	repeat	Run4	repeat/STIM_013.jpg
3377.378	0.566	correct	repeat	Run4	repeat/STIM_013.jpg
3380.912	0.833	correct	repeat	Run4	repeat/STIM_014.jpg
3384.637	0.569	correct	repeat	Run4	repeat/STIM_014.jpg
3388.527	0.898	correct	repeat	Run4	repeat/STIM_014.jpg
3392.124	0.71	correct	repeat	Run4	repeat/STIM_014.jpg
3396.095	0.76	correct	repeat	Run4	repeat/STIM_014.jpg
