onset	duration	accuracy_binary	trial_type	learning_stage	stimulus
0.0	2.388	0	generate	Run1	generate/STIM_000.jpg
5.392	1.299	1	generate	Run1	generate/STIM_000.jpg
9.348	1.191	1	generate	Run1	generate/STIM_000.jpg
12.701	1.079	0	generate	Run1	generate/STIM_000.jpg
15.917	1.333	1	generate	Run1	generate/STIM_000.jpg
20.229	1.229	1	generate	Run1	generate/STIM_001.jpg
23.479	1.809	1	generate	Run1	generate/STIM_001.jpg
28.342	1.657	0	generate	Run1	generate/STIM_001.jpg
33.791	2.424	0	generate	Run1	generate/STIM_001.jpg
38.745	1.926	1	generate	Run1	generate/STIM_001.jpg
43.363	2.206	1	generate	Run1	generate/STIM_002.jpg
48.005	2.241	0	generate	Run1	generate/STIM_002.jpg
52.944	1.896	1	generate	Run1	generate/STIM_002.jpg
57.559	1.892	1	generate	Run1	generate/STIM_002.jpg
61.556	1.508	1	generate	Run1	generate/STIM_002.jpg
65.104	1.773	0	generate	Run1	generate/STIM_003.jpg
69.907	2.393	1	generate	Run1	generate/STIM_003.jpg
74.576	2.2	1	generate	Run1	generate/STIM_003.jpg
80.68	1.548	1	generate	Run1	generate/STIM_003.jpg
86.1	1.397	1	generate	Run1	generate/STIM_003.jpg
91.414	2.579	0	generate	Run1	generate/STIM_004.jpg
97.219	1.72	0	generate	Run1	generate/STIM_004.jpg
101.427	2.416	1	generate	Run1	generate/STIM_004.jpg
107.833	1.994	1	generate	Run1	generate/STIM_004.jpg
112.886	2.345	1	generate	Run1	generate/STIM_004.jpg
117.542	2.626	1	generate	Run1	generate/STIM_005.jpg
123.185	2.652	1	generate	Run1	generate/STIM_005.jpg
128.134	2.624	1	generate	Run1	generate/STIM_005.jpg
133.496	1.916	0	generate	Run1	generate/STIM_005.jpg
139.353	1.692	1	generate	Run1	generate/STIM_005.jpg
143.449	2.274	1	generate	Run1	generate/STIM_006.jpg
149.235	2.026	0	generate	Run1	generate/STIM_006.jpg
153.702	1.85	1	generate	Run1	generate/STIM_006.jpg
159.168	2.428	1	generate	Run1	generate/STIM_006.jpg
164.707	1.975	1	generate	Run1	generate/STIM_006.jpg
169.795	1.759	1	generate	Run1	generate/STIM_007.jpg
174.961	1.842	1	generate	Run1	generate/STIM_007.jpg
179.959	2.512	0	generate	Run1	generate/STIM_007.jpg
184.804	1.802	1	generate	Run1	generate/STIM_007.jpg
189.474	2.262	1	generate	Run1	generate/STIM_007.jpg
195.364	1.492	1	generate	Run1	generate/STIM_008.jpg
199.27	2.501	1	generate	Run1	generate/STIM_008.jpg
205.27	2.484	0	generate	Run1	generate/STIM_008.jpg
211.562	1.526	1	generate	Run1	generate/STIM_008.jpg
216.451	1.166	1	generate	Run1	generate/STIM_008.jpg
220.356	1.517	1	generate	Run1	generate/STIM_009.jpg
224.593	1.182	1	generate	Run1	generate/STIM_009.jpg
228.462	2.662	1	generate	Run1	generate/STIM_009.jpg
233.535	2.392	1	generate	Run1	generate/STIM_009.jpg
238.387	1.433	0	generate	Run1	generate/STIM_009.jpg
243.809	1.402	1	generate	Run1	generate/STIM_010.jpg
247.546	2.094	0	generate	Run1	generate/STIM_010.jpg
253.454	2.369	1	generate	Run1	generate/STIM_010.jpg
258.042	1.96	0	generate	Run1	generate/STIM_010.jpg
263.468	1.304	1	generate	Run1	generate/STIM_010.jpg
268.577	1.463	1	generate	Run1	generate/STIM_011.jpg
273.957	1.375	0	generate	Run1	generate/STIM_011.jpg
278.979	2.095	1	generate	Run1	generate/STIM_011.jpg
283.917	2.08	1	generate	Run1	generate/STIM_011.jpg
288.071	1.491	0	generate	Run1	generate/STIM_011.jpg
291.957	2.635	1	generate	Run1	generate/STIM_012.jpg
298.478	2.201	0	generate	Run1	generate/STIM_012.jpg
303.645	1.286	0	generate	Run1	generate/STIM_012.jpg
307.354	1.282	1	generate	Run1	generate/STIM_012.jpg
312.018	1.02	0	generate	Run1	generate/STIM_012.jpg
315.682	1.984	1	generate	Run1	generate/STIM_013.jpg
320.14	1.262	1	generate	Run1	generate/STIM_013.jpg
323.634	2.122	1	generate	Run1	generate/STIM_013.jpg
329.667	2.401	0	generate	Run1	generate/STIM_013.jpg
334.52	1.774	0	generate	Run1	generate/STIM_013.jpg
338.678	2.722	1	generate	Run1	generate/STIM_014.jpg
344.815	2.546	1	generate	Run1	generate/STIM_014.jpg
349.824	1.552	1	generate	Run1	generate/STIM_014.jpg
353.649	2.069	1	generate	Run1	generate/STIM_014.jpg
357.915	1.598	0	generate	Run1	generate/STIM_014.jpg
362.293	1.229	1	generate	Run1	generate/STIM_015.jpg
366.071	2.123	1	generate	Run1	generate/STIM_015.jpg
372.012	2.337	1	generate	Run1	generate/STIM_015.jpg
377.704	2.412	1	generate	Run1	generate/STIM_015.jpg
382.519	2.36	1	generate	Run1	generate/STIM_015.jpg
388.842	2.738	1	generate	Run1	generate/STIM_016.jpg
394.961	2.666	1	generate	Run1	generate/STIM_016.jpg
400.262	2.247	1	generate	Run1	generate/STIM_016.jpg
404.769	1.762	1	generate	Run1	generate/STIM_016.jpg
409.857	2.304	1	generate	Run1	generate/STIM_016.jpg
415.703	2.433	1	generate	Run1	generate/STIM_017.jpg
421.358	1.179	0	generate	Run1	generate/STIM_017.jpg
426.142	1.711	1	generate	Run1	generate/STIM_017.jpg
430.803	1.935	1	generate	Run1	generate/STIM_017.jpg
434.781	1.846	1	generate	Run1	generate/STIM_017.jpg
439.348	1.597	1	generate	Run1	generate/STIM_018.jpg
444.051	1.852	1	generate	Run1	generate/STIM_018.jpg
448.91	2.22	1	generate	Run1	generate/STIM_018.jpg
454.003	1.254	1	generate	Run1	generate/STIM_018.jpg
457.702	1.411	1	generate	Run1	generate/STIM_018.jpg
461.223	2.184	1	generate	Run1	generate/STIM_019.jpg
467.133	1.291	1	generate	Run1	generate/STIM_019.jpg
471.188	2.462	1	generate	Run1	generate/STIM_019.jpg
476.321	2.138	0	generate	Run1	generate/STIM_019.jpg
482.276	1.564	1	generate	Run1	generate/STIM_019.jpg
486.632	1.243	0	generate	Run1	generate/STIM_020.jpg
491.18	2.558	0	generate	Run1	generate/STIM_020.jpg
496.229	2.019	0	generate	Run1	generate/STIM_020.jpg
502.168	1.24	1	generate	Run1	generate/STIM_020.jpg
506.682	1.867	1	generate	Run1	generate/STIM_020.jpg
512.255	1.955	1	generate	Run1	generate/STIM_021.jpg
517.203	1.436	1	generate	Run1	generate/STIM_021.jpg
521.645	2.66	1	generate	Run1	generate/STIM_021.jpg
527.204	2.382	1	generate	Run1	generate/STIM_021.jpg
531.995	1.842	1	generate	Run1	generate/STIM_021.jpg
536.461	2.429	1	generate	Run1	generate/STIM_022.jpg
541.418	1.261	1	generate	Run1	generate/STIM_022.jpg
544.918	2.544	0	generate	Run1	generate/STIM_022.jpg
551.321	2.45	0	generate	Run1	generate/STIM_022.jpg
556.602	1.303	1	generate	Run1	generate/STIM_022.jpg
561.711	2.627	1	generate	Run1	generate/STIM_023.jpg
566.711	1.924	1	generate	Run1	generate/STIM_023.jpg
571.409	2.211	1	generate	Run1	generate/STIM_023.jpg
576.856	2.25	1	generate	Run1	generate/STIM_023.jpg
581.136	1.482	1	generate	Run1	generate/STIM_023.jpg
585.958	1.304	1	generate	Run1	generate/STIM_024.jpg
590.521	1.884	1	generate	Run1	generate/STIM_024.jpg
594.872	2.246	1	generate	Run1	generate/STIM_024.jpg
599.264	1.031	1	generate	Run1	generate/STIM_024.jpg
603.993	2.009	1	generate	Run1	generate/STIM_024.jpg
609.501	0.857	1	repeat	Run1	repeat/STIM_000.jpg
613.262	0.528	1	repeat	Run1	repeat/STIM_000.jpg
616.854	0.695	1	repeat	Run1	repeat/STIM_000.jpg
619.773	0.738	1	repeat	Run1	repeat/STIM_000.jpg
624.087	0.53	1	repeat	Run1	repeat/STIM_000.jpg
627.095	0.609	1	repeat	Run1	repeat/STIM_001.jpg
631.667	0.982	1	repeat	Run1	repeat/STIM_001.jpg
635.778	0.888	1	repeat	Run1	repeat/STIM_001.jpg
640.198	0.896	1	repeat	Run1	repeat/STIM_001.jpg
643.475	0.815	1	repeat	Run1	repeat/STIM_001.jpg
648.233	0.639	0	repeat	Run1	repeat/STIM_002.jpg
652.396	0.722	1	repeat	Run1	repeat/STIM_002.jpg
655.801	0.714	1	repeat	Run1	repeat/STIM_002.jpg
658.778	0.85	1	repeat	Run1	repeat/STIM_002.jpg
663.207	0.629	1	repeat	Run1	repeat/STIM_002.jpg
666.164	0.711	1	repeat	Run1	repeat/STIM_003.jpg
670.654	0.536	1	repeat	Run1	repeat/STIM_003.jpg
674.826	0.917	1	repeat	Run1	repeat/STIM_003.jpg
678.522	0.595	1	repeat	Run1	repeat/STIM_003.jpg
681.151	0.805	0	repeat	Run1	repeat/STIM_003.jpg
684.667	0.792	1	repeat	Run1	repeat/STIM_004.jpg
689.183	0.878	1	repeat	Run1	repeat/STIM_004.jpg
692.858	0.798	1	repeat	Run1	repeat/STIM_004.jpg
697.644	0.99	0	repeat	Run1	repeat/STIM_004.jpg
702.451	0.911	1	repeat	Run1	repeat/STIM_004.jpg
706.557	0.62	1	repeat	Run1	repeat/STIM_005.jpg
710.517	0.517	1	repeat	Run1	repeat/STIM_005.jpg
713.249	0.577	1	repeat	Run1	repeat/STIM_005.jpg
716.001	0.778	1	repeat	Run1	repeat/STIM_005.jpg
718.789	0.906	1	repeat	Run1	repeat/STIM_005.jpg
722.499	0.559	1	repeat	Run1	repeat/STIM_006.jpg
726.694	0.762	1	repeat	Run1	repeat/STIM_006.jpg
729.979	0.944	1	repeat	Run1	repeat/STIM_006.jpg
733.126	0.606	0	repeat	Run1	repeat/STIM_006.jpg
737.491	0.902	1	repeat	Run1	repeat/STIM_006.jpg
740.577	0.549	1	repeat	Run1	repeat/STIM_007.jpg
743.943	0.921	1	repeat	Run1	repeat/STIM_007.jpg
748.781	0.937	1	repeat	Run1	repeat/STIM_007.jpg
752.241	0.775	1	repeat	Run1	repeat/STIM_007.jpg
755.857	0.655	1	repeat	Run1	repeat/STIM_007.jpg
760.298	0.897	1	repeat	Run1	repeat/STIM_008.jpg
764.298	0.525	1	repeat	Run1	repeat/STIM_008.jpg
767.443	0.497	1	repeat	Run1	repeat/STIM_008.jpg
770.843	0.705	1	repeat	Run1	repeat/STIM_008.jpg
774.537	0.874	1	repeat	Run1	repeat/STIM_008.jpg
778.421	0.504	1	repeat	Run1	repeat/STIM_009.jpg
781.158	0.557	1	repeat	Run1	repeat/STIM_009.jpg
784.934	0.703	1	repeat	Run1	repeat/STIM_009.jpg
788.649	0.742	1	repeat	Run1	repeat/STIM_009.jpg
792.309	0.57	1	repeat	Run1	repeat/STIM_009.jpg
795.347	0.511	1	repeat	Run1	repeat/STIM_010.jpg
798.335	0.71	0	repeat	Run1	repeat/STIM_010.jpg
801.81	0.708	0	repeat	Run1	repeat/STIM_010.jpg
806.202	0.927	1	repeat	Run1	repeat/STIM_010.jpg
809.439	0.699	1	repeat	Run1	repeat/STIM_010.jpg
813.754	0.532	1	repeat	Run1	repeat/STIM_011.jpg
816.458	0.797	1	repeat	Run1	repeat/STIM_011.jpg
821.045	0.617	1	repeat	Run1	repeat/STIM_011.jpg
824.66	0.908	1	repeat	Run1	repeat/STIM_011.jpg
828.716	0.925	1	repeat	Run1	repeat/STIM_011.jpg
832.837	0.811	1	repeat	Run1	repeat/STIM_012.jpg
837.392	0.772	1	repeat	Run1	repeat/STIM_012.jpg
841.082	0.634	1	repeat	Run1	repeat/STIM_012.jpg
844.74	0.527	1	repeat	Run1	repeat/STIM_012.jpg
847.313	0.554	1	repeat	Run1	repeat/STIM_012.jpg
850.677	0.602	0	repeat	Run1	repeat/STIM_013.jpg
854.366	0.805	1	repeat	Run1	repeat/STIM_013.jpg
857.799	0.592	1	repeat	Run1	repeat/STIM_013.jpg
861.829	0.883	1	repeat	Run1	repeat/STIM_013.jpg
865.973	0.57	1	repeat	Run1	repeat/STIM_013.jpg
869.072	0.96	0	repeat	Run1	repeat/STIM_014.jpg
872.86	0.842	1	repeat	Run1	repeat/STIM_014.jpg
876.979	0.663	1	repeat	Run1	repeat/STIM_014.jpg
879.848	0.497	1	repeat	Run1	repeat/STIM_014.jpg
883.684	0.553	1	repeat	Run1	repeat/STIM_014.jpg
887.683	1.883	1	generate	Run2	generate/STIM_000.jpg
893.055	1.511	1	generate	Run2	generate/STIM_000.jpg
897.327	1.991	1	generate	Run2	generate/STIM_000.jpg
902.579	1.637	1	generate	Run2	generate/STIM_000.jpg
907.405	1.001	1	generate	Run2	generate/STIM_000.jpg
912.049	2.415	0	generate	Run2	generate/STIM_001.jpg
916.943	2.23	1	generate	Run2	generate/STIM_001.jpg
921.307	1.404	1	generate	Run2	generate/STIM_001.jpg
925.262	0.899	1	generate	Run2	generate/STIM_001.jpg
928.922	1.325	1	generate	Run2	generate/STIM_001.jpg
933.68	2.358	1	generate	Run2	generate/STIM_002.jpg
939.646	1.357	1	generate	Run2	generate/STIM_002.jpg
944.495	2.164	1	generate	Run2	generate/STIM_002.jpg
950.034	1.82	1	generate	Run2	generate/STIM_002.jpg
954.193	1.216	1	generate	Run2	generate/STIM_002.jpg
959.206	1.503	1	generate	Run2	generate/STIM_003.jpg
962.988	1.446	1	generate	Run2	generate/STIM_003.jpg
968.3	1.028	1	generate	Run2	generate/STIM_003.jpg
971.997	1.605	1	generate	Run2	generate/STIM_003.jpg
976.403	1.84	1	generate	Run2	generate/STIM_003.jpg
980.718	1.456	1	generate	Run2	generate/STIM_004.jpg
985.989	2.345	1	generate	Run2	generate/STIM_004.jpg
992.332	1.77	0	generate	Run2	generate/STIM_004.jpg
996.676	1.041	1	generate	Run2	generate/STIM_004.jpg
1000.886	1.092	1	generate	Run2	generate/STIM_004.jpg
1005.885	1.825	1	generate	Run2	generate/STIM_005.jpg
1011.285	1.109	0	generate	Run2	generate/STIM_005.jpg
1014.457	1.796	0	generate	Run2	generate/STIM_005.jpg
1018.547	1.737	1	generate	Run2	generate/STIM_005.jpg
1023.956	1.234	1	generate	Run2	generate/STIM_005.jpg
1028.97	1.418	1	generate	Run2	generate/STIM_006.jpg
1033.508	2.073	1	generate	Run2	generate/STIM_006.jpg
1039.316	1.791	0	generate	Run2	generate/STIM_006.jpg
1044.988	1.825	1	generate	Run2	generate/STIM_006.jpg
1050.463	1.97	1	generate	Run2	generate/STIM_006.jpg
1055.06	2.527	0	generate	Run2	generate/STIM_007.jpg
1061.087	2.0	1	generate	Run2	generate/STIM_007.jpg
1066.953	1.699	0	generate	Run2	generate/STIM_007.jpg
1072.48	2.001	1	generate	Run2	generate/STIM_007.jpg
1077.199	0.946	1	generate	Run2	generate/STIM_007.jpg
1082.084	1.762	1	generate	Run2	generate/STIM_008.jpg
1087.82	1.248	0	generate	Run2	generate/STIM_008.jpg
1092.251	1.266	1	generate	Run2	generate/STIM_008.jpg
1096.892	1.975	1	generate	Run2	generate/STIM_008.jpg
1102.017	1.226	1	generate	Run2	generate/STIM_008.jpg
1105.356	1.095	1	generate	Run2	generate/STIM_009.jpg
1109.044	1.229	1	generate	Run2	generate/STIM_009.jpg
1114.244	1.713	1	generate	Run2	generate/STIM_009.jpg
1119.562	1.11	1	generate	Run2	generate/STIM_009.jpg
1123.07	1.613	1	generate	Run2	generate/STIM_009.jpg
1127.294	2.256	0	generate	Run2	generate/STIM_010.jpg
1132.65	2.189	0	generate	Run2	generate/STIM_010.jpg
1137.158	1.323	1	generate	Run2	generate/STIM_010.jpg
1141.29	1.795	1	generate	Run2	generate/STIM_010.jpg
1146.297	1.611	1	generate	Run2	generate/STIM_010.jpg
1151.455	2.161	1	generate	Run2	generate/STIM_011.jpg
1157.318	1.654	1	generate	Run2	generate/STIM_011.jpg
1162.812	1.434	1	generate	Run2	generate/STIM_011.jpg
1167.64	1.737	1	generate	Run2	generate/STIM_011.jpg
1171.799	1.7	1	generate	Run2	generate/STIM_011.jpg
1175.617	2.252	1	generate	Run2	generate/STIM_012.jpg
1180.299	1.598	1	generate	Run2	generate/STIM_012.jpg
1185.588	1.263	1	generate	Run2	generate/STIM_012.jpg
1189.382	1.093	1	generate	Run2	generate/STIM_012.jpg
1192.489	1.397	1	generate	Run2	generate/STIM_012.jpg
1197.526	2.345	1	generate	Run2	generate/STIM_013.jpg
1202.069	1.582	0	generate	Run2	generate/STIM_013.jpg
1206.551	1.953	1	generate	Run2	generate/STIM_013.jpg
1210.616	1.315	1	generate	Run2	generate/STIM_013.jpg
1214.785	1.653	0	generate	Run2	generate/STIM_013.jpg
1219.145	1.4	1	generate	Run2	generate/STIM_014.jpg
1223.362	1.837	1	generate	Run2	generate/STIM_014.jpg
1229.131	1.208	1	generate	Run2	generate/STIM_014.jpg
1232.838	1.535	1	generate	Run2	generate/STIM_014.jpg
1237.309	1.181	1	generate	Run2	generate/STIM_014.jpg
1241.282	1.576	1	generate	Run2	generate/STIM_015.jpg
1246.127	1.037	1	generate	Run2	generate/STIM_015.jpg
1249.442	1.265	1	generate	Run2	generate/STIM_015.jpg
1254.132	1.745	1	generate	Run2	generate/STIM_015.jpg
1258.086	1.478	1	generate	Run2	generate/STIM_015.jpg
1262.617	1.2	1	generate	Run2	generate/STIM_016.jpg
1266.082	1.989	1	generate	Run2	generate/STIM_016.jpg
1270.446	1.088	1	generate	Run2	generate/STIM_016.jpg
1274.862	1.126	1	generate	Run2	generate/STIM_016.jpg
1278.431	1.402	1	generate	Run2	generate/STIM_016.jpg
1283.645	1.057	1	generate	Run2	generate/STIM_017.jpg
1288.143	1.622	1	generate	Run2	generate/STIM_017.jpg
1292.31	1.429	1	generate	Run2	generate/STIM_017.jpg
1295.912	1.643	1	generate	Run2	generate/STIM_017.jpg
1300.592	1.532	1	generate	Run2	generate/STIM_017.jpg
1304.137	1.858	1	generate	Run2	generate/STIM_018.jpg
1309.521	2.246	1	generate	Run2	generate/STIM_018.jpg
1314.939	1.635	1	generate	Run2	generate/STIM_018.jpg
1318.697	1.418	1	generate	Run2	generate/STIM_018.jpg
1322.31	1.903	1	generate	Run2	generate/STIM_018.jpg
1326.884	1.292	1	generate	Run2	generate/STIM_019.jpg
1331.645	1.137	0	generate	Run2	generate/STIM_019.jpg
1336.71	2.01	1	generate	Run2	generate/STIM_019.jpg
1342.125	0.989	0	generate	Run2	generate/STIM_019.jpg
1346.607	1.151	1	generate	Run2	generate/STIM_019.jpg
1350.979	1.386	1	generate	Run2	generate/STIM_020.jpg
1355.382	1.043	0	generate	Run2	generate/STIM_020.jpg
1359.452	1.18	1	generate	Run2	generate/STIM_020.jpg
1364.115	1.074	1	generate	Run2	generate/STIM_020.jpg
1368.751	1.774	1	generate	Run2	generate/STIM_020.jpg
1373.06	2.359	0	generate	Run2	generate/STIM_021.jpg
1378.574	2.001	1	generate	Run2	generate/STIM_021.jpg
1382.763	1.088	1	generate	Run2	generate/STIM_021.jpg
1387.32	1.126	1	generate	Run2	generate/STIM_021.jpg
1391.453	1.351	1	generate	Run2	generate/STIM_021.jpg
1394.859	1.875	1	generate	Run2	generate/STIM_022.jpg
1399.814	1.686	0	generate	Run2	generate/STIM_022.jpg
1404.154	2.073	1	generate	Run2	generate/STIM_022.jpg
1408.506	2.055	1	generate	Run2	generate/STIM_022.jpg
1413.35	2.071	1	generate	Run2	generate/STIM_022.jpg
1418.524	1.466	1	generate	Run2	generate/STIM_023.jpg
1423.097	1.846	1	generate	Run2	generate/STIM_023.jpg
1428.855	1.86	1	generate	Run2	generate/STIM_023.jpg
1432.927	1.701	1	generate	Run2	generate/STIM_023.jpg
1438.157	1.405	1	generate	Run2	generate/STIM_023.jpg
1442.79	1.193	1	generate	Run2	generate/STIM_024.jpg
1447.969	2.042	0	generate	Run2	generate/STIM_024.jpg
1452.177	1.187	1	generate	Run2	generate/STIM_024.jpg
1456.221	1.922	0	generate	Run2	generate/STIM_024.jpg
1461.214	1.855	1	generate	Run2	generate/STIM_024.jpg
1466.411	0.498	1	repeat	Run2	repeat/STIM_000.jpg
1469.516	0.633	1	repeat	Run2	repeat/STIM_000.jpg
1473.074	0.595	1	repeat	Run2	repeat/STIM_000.jpg
1476.873	0.598	1	repeat	Run2	repeat/STIM_000.jpg
1481.367	0.801	0	repeat	Run2	repeat/STIM_000.jpg
1485.985	0.971	1	repeat	Run2	repeat/STIM_001.jpg
1490.912	0.697	1	repeat	Run2	repeat/STIM_001.jpg
1495.095	0.748	1	repeat	Run2	repeat/STIM_001.jpg
1498.88	0.752	1	repeat	Run2	repeat/STIM_001.jpg
1502.481	0.605	1	repeat	Run2	repeat/STIM_001.jpg
1506.827	0.968	1	repeat	Run2	repeat/STIM_002.jpg
1510.023	0.99	1	repeat	Run2	repeat/STIM_002.jpg
1514.351	0.646	1	repeat	Run2	repeat/STIM_002.jpg
1517.874	0.623	1	repeat	Run2	repeat/STIM_002.jpg
1522.034	0.653	1	repeat	Run2	repeat/STIM_002.jpg
1525.728	0.684	1	repeat	Run2	repeat/STIM_003.jpg
1529.516	0.855	1	repeat	Run2	repeat/STIM_003.jpg
1532.624	0.938	1	repeat	Run2	repeat/STIM_003.jpg
1535.877	0.801	1	repeat	Run2	repeat/STIM_003.jpg
1539.91	0.723	1	repeat	Run2	repeat/STIM_003.jpg
1543.126	0.68	1	repeat	Run2	repeat/STIM_004.jpg
1547.085	0.622	1	repeat	Run2	repeat/STIM_004.jpg
1550.895	0.918	1	repeat	Run2	repeat/STIM_004.jpg
1554.209	0.75	1	repeat	Run2	repeat/STIM_004.jpg
1557.416	0.782	1	repeat	Run2	repeat/STIM_004.jpg
1561.208	0.634	1	repeat	Run2	repeat/STIM_005.jpg
1565.78	0.696	1	repeat	Run2	repeat/STIM_005.jpg
1568.501	0.93	1	repeat	Run2	repeat/STIM_005.jpg
1571.47	0.756	1	repeat	Run2	repeat/STIM_005.jpg
1575.511	0.92	1	repeat	Run2	repeat/STIM_005.jpg
1578.539	0.587	1	repeat	Run2	repeat/STIM_006.jpg
1582.31	0.845	1	repeat	Run2	repeat/STIM_006.jpg
1586.841	0.73	1	repeat	Run2	repeat/STIM_006.jpg
1591.215	0.951	1	repeat	Run2	repeat/STIM_006.jpg
1595.004	0.566	1	repeat	Run2	repeat/STIM_006.jpg
1598.283	0.565	0	repeat	Run2	repeat/STIM_007.jpg
1602.628	0.75	1	repeat	Run2	repeat/STIM_007.jpg
1605.684	0.873	1	repeat	Run2	repeat/STIM_007.jpg
1609.595	0.748	1	repeat	Run2	repeat/STIM_007.jpg
1613.184	0.69	0	repeat	Run2	repeat/STIM_007.jpg
1617.696	0.866	1	repeat	Run2	repeat/STIM_008.jpg
1622.058	0.524	1	repeat	Run2	repeat/STIM_008.jpg
1625.206	0.876	1	repeat	Run2	repeat/STIM_008.jpg
1628.989	0.724	1	repeat	Run2	repeat/STIM_008.jpg
1632.353	0.938	1	repeat	Run2	repeat/STIM_008.jpg
1636.722	0.791	1	repeat	Run2	repeat/STIM_009.jpg
1640.712	0.782	1	repeat	Run2	repeat/STIM_009.jpg
1644.675	0.802	1	repeat	Run2	repeat/STIM_009.jpg
1648.118	0.717	1	repeat	Run2	repeat/STIM_009.jpg
1652.351	0.857	1	repeat	Run2	repeat/STIM_009.jpg
1656.747	0.833	1	repeat	Run2	repeat/STIM_010.jpg
1661.399	0.733	1	repeat	Run2	repeat/STIM_010.jpg
1664.751	0.954	1	repeat	Run2	repeat/STIM_010.jpg
1669.63	0.929	1	repeat	Run2	repeat/STIM_010.jpg
1672.714	0.922	1	repeat	Run2	repeat/STIM_010.jpg
1677.447	0.891	0	repeat	Run2	repeat/STIM_011.jpg
1681.132	0.65	1	repeat	Run2	repeat/STIM_011.jpg
1684.251	0.668	1	repeat	Run2	repeat/STIM_011.jpg
1687.246	0.945	1	repeat	Run2	repeat/STIM_011.jpg
1691.453	0.93	1	repeat	Run2	repeat/STIM_011.jpg
1695.898	0.775	1	repeat	Run2	repeat/STIM_012.jpg
1699.054	0.497	1	repeat	Run2	repeat/STIM_012.jpg
1702.76	0.584	1	repeat	Run2	repeat/STIM_012.jpg
1705.408	0.947	0	repeat	Run2	repeat/STIM_012.jpg
1709.865	0.931	1	repeat	Run2	repeat/STIM_012.jpg
1712.957	0.798	1	repeat	Run2	repeat/STIM_013.jpg
1716.729	0.773	1	repeat	Run2	repeat/STIM_013.jpg
1720.27	0.816	1	repeat	Run2	repeat/STIM_013.jpg
1724.974	0.648	1	repeat	Run2	repeat/STIM_013.jpg
1728.964	0.565	1	repeat	Run2	repeat/STIM_013.jpg
1731.639	0.972	1	repeat	Run2	repeat/STIM_014.jpg
1734.703	0.849	0	repeat	Run2	repeat/STIM_014.jpg
1737.728	0.501	1	repeat	Run2	repeat/STIM_014.jpg
1740.255	0.626	1	repeat	Run2	repeat/STIM_014.jpg
1744.782	0.944	1	repeat	Run2	repeat/STIM_014.jpg
1749.489	1.028	1	generate	Run3	generate/STIM_000.jpg
1753.506	1.729	1	generate	Run3	generate/STIM_000.jpg
1758.81	1.922	1	generate	Run3	generate/STIM_000.jpg
1763.205	1.527	0	generate	Run3	generate/STIM_000.jpg
1767.268	1.61	1	generate	Run3	generate/STIM_000.jpg
1772.617	1.884	1	generate	Run3	generate/STIM_001.jpg
1776.556	1.905	1	generate	Run3	generate/STIM_001.jpg
1781.171	1.274	1	generate	Run3	generate/STIM_001.jpg
1786.03	2.031	1	generate	Run3	generate/STIM_001.jpg
1791.485	1.269	0	generate	Run3	generate/STIM_001.jpg
1795.01	1.991	1	generate	Run3	generate/STIM_002.jpg
1800.221	1.664	1	generate	Run3	generate/STIM_002.jpg
1804.326	0.836	1	generate	Run3	generate/STIM_002.jpg
1808.684	1.421	1	generate	Run3	generate/STIM_002.jpg
1813.979	2.044	1	generate	Run3	generate/STIM_002.jpg
1818.776	1.281	1	generate	Run3	generate/STIM_003.jpg
1823.797	0.968	1	generate	Run3	generate/STIM_003.jpg
1827.393	1.35	1	generate	Run3	generate/STIM_003.jpg
1831.396	1.174	1	generate	Run3	generate/STIM_003.jpg
1835.321	2.077	1	generate	Run3	generate/STIM_003.jpg
1839.933	1.422	1	generate	Run3	generate/STIM_004.jpg
1844.779	1.845	1	generate	Run3	generate/STIM_004.jpg
1849.093	1.252	0	generate	Run3	generate/STIM_004.jpg
1853.909	1.342	1	generate	Run3	generate/STIM_004.jpg
1859.095	1.634	1	generate	Run3	generate/STIM_004.jpg
1863.205	1.608	1	generate	Run3	generate/STIM_005.jpg
1867.435	1.988	1	generate	Run3	generate/STIM_005.jpg
1872.838	1.089	1	generate	Run3	generate/STIM_005.jpg
1876.452	1.422	1	generate	Run3	generate/STIM_005.jpg
1879.999	1.562	1	generate	Run3	generate/STIM_005.jpg
1884.816	0.865	1	generate	Run3	generate/STIM_006.jpg
1889.069	1.875	1	generate	Run3	generate/STIM_006.jpg
1893.25	1.532	1	generate	Run3	generate/STIM_006.jpg
1898.053	0.954	1	generate	Run3	generate/STIM_006.jpg
1901.35	1.327	1	generate	Run3	generate/STIM_006.jpg
1904.986	2.08	0	generate	Run3	generate/STIM_007.jpg
1909.991	1.655	1	generate	Run3	generate/STIM_007.jpg
1915.556	1.676	1	generate	Run3	generate/STIM_007.jpg
1920.924	1.68	1	generate	Run3	generate/STIM_007.jpg
1925.708	1.162	1	generate	Run3	generate/STIM_007.jpg
1928.881	0.85	0	generate	Run3	generate/STIM_008.jpg
1933.336	1.293	1	generate	Run3	generate/STIM_008.jpg
1937.99	1.475	1	generate	Run3	generate/STIM_008.jpg
1943.132	1.877	1	generate	Run3	generate/STIM_008.jpg
1948.316	0.859	1	generate	Run3	generate/STIM_008.jpg
1951.915	1.389	1	generate	Run3	generate/STIM_009.jpg
1955.531	1.057	0	generate	Run3	generate/STIM_009.jpg
1960.512	1.599	1	generate	Run3	generate/STIM_009.jpg
1965.209	1.746	1	generate	Run3	generate/STIM_009.jpg
1969.826	1.064	1	generate	Run3	generate/STIM_009.jpg
1974.407	1.731	1	generate	Run3	generate/STIM_010.jpg
1978.701	1.878	1	generate	Run3	generate/STIM_010.jpg
1983.254	1.8	1	generate	Run3	generate/STIM_010.jpg
1987.787	1.759	1	generate	Run3	generate/STIM_010.jpg
1992.475	1.671	1	generate	Run3	generate/STIM_010.jpg
1998.078	1.952	1	generate	Run3	generate/STIM_011.jpg
2002.119	1.029	1	generate	Run3	generate/STIM_011.jpg
2005.918	1.742	1	generate	Run3	generate/STIM_011.jpg
2011.29	2.033	1	generate	Run3	generate/STIM_011.jpg
2016.519	1.915	1	generate	Run3	generate/STIM_011.jpg
2021.174	1.34	1	generate	Run3	generate/STIM_012.jpg
2026.173	1.018	1	generate	Run3	generate/STIM_012.jpg
2029.396	1.328	1	generate	Run3	generate/STIM_012.jpg
2032.927	1.789	1	generate	Run3	generate/STIM_012.jpg
2036.861	0.916	1	generate	Run3	generate/STIM_012.jpg
2041.602	1.938	0	generate	Run3	generate/STIM_013.jpg
2046.84	0.864	1	generate	Run3	generate/STIM_013.jpg
2051.703	1.902	1	generate	Run3	generate/STIM_013.jpg
2056.555	1.902	1	generate	Run3	generate/STIM_013.jpg
2061.503	1.15	1	generate	Run3	generate/STIM_013.jpg
2065.095	0.9	1	generate	Run3	generate/STIM_014.jpg
2069.291	1.016	1	generate	Run3	generate/STIM_014.jpg
2073.945	1.221	1	generate	Run3	generate/STIM_014.jpg
2078.808	1.396	1	generate	Run3	generate/STIM_014.jpg
2083.45	1.101	1	generate	Run3	generate/STIM_014.jpg
2088.199	1.713	1	generate	Run3	generate/STIM_015.jpg
2093.03	0.838	0	generate	Run3	generate/STIM_015.jpg
2096.756	1.448	1	generate	Run3	generate/STIM_015.jpg
2101.504	1.914	1	generate	Run3	generate/STIM_015.jpg
2106.929	1.294	1	generate	Run3	generate/STIM_015.jpg
2112.036	1.388	1	generate	Run3	generate/STIM_016.jpg
2116.628	1.75	1	generate	Run3	generate/STIM_016.jpg
2122.312	1.378	0	generate	Run3	generate/STIM_016.jpg
2126.998	2.054	1	generate	Run3	generate/STIM_016.jpg
2131.197	1.603	0	generate	Run3	generate/STIM_016.jpg
2136.142	1.0	1	generate	Run3	generate/STIM_017.jpg
2139.62	1.865	1	generate	Run3	generate/STIM_017.jpg
2144.516	1.989	1	generate	Run3	generate/STIM_017.jpg
2149.811	1.015	1	generate	Run3	generate/STIM_017.jpg
2154.083	1.788	1	generate	Run3	generate/STIM_017.jpg
2159.265	2.078	1	generate	Run3	generate/STIM_018.jpg
2164.192	1.365	1	generate	Run3	generate/STIM_018.jpg
2169.015	1.573	1	generate	Run3	generate/STIM_018.jpg
2173.023	1.845	1	generate	Run3	generate/STIM_018.jpg
2177.945	1.596	1	generate	Run3	generate/STIM_018.jpg
2182.66	1.675	1	generate	Run3	generate/STIM_019.jpg
2187.948	1.75	1	generate	Run3	generate/STIM_019.jpg
2192.598	1.22	1	generate	Run3	generate/STIM_019.jpg
2197.734	1.206	1	generate	Run3	generate/STIM_019.jpg
2201.821	1.365	1	generate	Run3	generate/STIM_019.jpg
2207.106	1.433	1	generate	Run3	generate/STIM_020.jpg
2211.694	1.376	1	generate	Run3	generate/STIM_020.jpg
2216.728	1.436	1	generate	Run3	generate/STIM_020.jpg
2221.121	1.604	1	generate	Run3	generate/STIM_020.jpg
2226.377	1.328	1	generate	Run3	generate/STIM_020.jpg
2230.071	1.843	1	generate	Run3	generate/STIM_021.jpg
2235.585	1.571	1	generate	Run3	generate/STIM_021.jpg
2240.15	1.126	1	generate	Run3	generate/STIM_021.jpg
2244.352	1.364	1	generate	Run3	generate/STIM_021.jpg
2247.992	1.53	1	generate	Run3	generate/STIM_021.jpg
2252.188	1.19	1	generate	Run3	generate/STIM_022.jpg
2256.929	1.057	1	generate	Run3	generate/STIM_022.jpg
2261.419	1.351	1	generate	Run3	generate/STIM_022.jpg
2266.045	0.896	0	generate	Run3	generate/STIM_022.jpg
2269.731	2.074	1	generate	Run3	generate/STIM_022.jpg
2275.503	1.397	1	generate	Run3	generate/STIM_023.jpg
2279.145	1.068	1	generate	Run3	generate/STIM_023.jpg
2283.056	1.272	1	generate	Run3	generate/STIM_023.jpg
2286.952	1.264	1	generate	Run3	generate/STIM_023.jpg
2291.744	1.033	1	generate	Run3	generate/STIM_023.jpg
2295.451	1.536	1	generate	Run3	generate/STIM_024.jpg
2300.666	1.516	1	generate	Run3	generate/STIM_024.jpg
2305.117	2.038	1	generate	Run3	generate/STIM_024.jpg
2310.849	0.934	1	generate	Run3	generate/STIM_024.jpg
2314.823	1.95	1	generate	Run3	generate/STIM_024.jpg
2320.457	0.99	1	repeat	Run3	repeat/STIM_000.jpg
2324.083	0.663	1	repeat	Run3	repeat/STIM_000.jpg
2327.127	0.535	1	repeat	Run3	repeat/STIM_000.jpg
2331.516	0.887	1	repeat	Run3	repeat/STIM_000.jpg
2334.961	0.809	1	repeat	Run3	repeat/STIM_000.jpg
2338.796	0.906	1	repeat	Run3	repeat/STIM_001.jpg
2342.994	0.856	1	repeat	Run3	repeat/STIM_001.jpg
2346.203	0.846	1	repeat	Run3	repeat/STIM_001.jpg
2350.383	0.644	1	repeat	Run3	repeat/STIM_001.jpg
2354.011	0.58	1	repeat	Run3	repeat/STIM_001.jpg
2357.037	0.712	1	repeat	Run3	repeat/STIM_002.jpg
2361.453	0.572	1	repeat	Run3	repeat/STIM_002.jpg
2365.665	0.661	1	repeat	Run3	repeat/STIM_002.jpg
2369.567	0.882	1	repeat	Run3	repeat/STIM_002.jpg
2373.736	0.866	1	repeat	Run3	repeat/STIM_002.jpg
2377.923	0.673	1	repeat	Run3	repeat/STIM_003.jpg
2381.066	0.513	1	repeat	Run3	repeat/STIM_003.jpg
2385.438	0.717	1	repeat	Run3	repeat/STIM_003.jpg
2388.937	0.585	0	repeat	Run3	repeat/STIM_003.jpg
2391.831	0.802	1	repeat	Run3	repeat/STIM_003.jpg
2395.208	0.815	1	repeat	Run3	repeat/STIM_004.jpg
2399.587	0.634	1	repeat	Run3	repeat/STIM_004.jpg
2404.141	0.722	1	repeat	Run3	repeat/STIM_004.jpg
2407.486	0.637	0	repeat	Run3	repeat/STIM_004.jpg
2411.26	0.575	1	repeat	Run3	repeat/STIM_004.jpg
2414.203	0.875	1	repeat	Run3	repeat/STIM_005.jpg
2418.213	0.976	0	repeat	Run3	repeat/STIM_005.jpg
2421.929	0.826	1	repeat	Run3	repeat/STIM_005.jpg
2426.332	0.848	1	repeat	Run3	repeat/STIM_005.jpg
2429.489	0.788	1	repeat	Run3	repeat/STIM_005.jpg
2433.038	0.547	1	repeat	Run3	repeat/STIM_006.jpg
2437.389	0.672	1	repeat	Run3	repeat/STIM_006.jpg
2442.062	0.618	1	repeat	Run3	repeat/STIM_006.jpg
2446.124	0.652	1	repeat	Run3	repeat/STIM_006.jpg
2449.616	0.664	1	repeat	Run3	repeat/STIM_006.jpg
2453.324	0.602	1	repeat	Run3	repeat/STIM_007.jpg
2457.425	0.973	1	repeat	Run3	repeat/STIM_007.jpg
2461.099	0.758	1	repeat	Run3	repeat/STIM_007.jpg
2463.925	0.676	1	repeat	Run3	repeat/STIM_007.jpg
2467.979	0.856	1	repeat	Run3	repeat/STIM_007.jpg
2472.657	0.722	1	repeat	Run3	repeat/STIM_008.jpg
2476.219	0.581	1	repeat	Run3	repeat/STIM_008.jpg
2478.986	0.544	1	repeat	Run3	repeat/STIM_008.jpg
2482.639	0.632	1	repeat	Run3	repeat/STIM_008.jpg
2485.872	0.597	1	repeat	Run3	repeat/STIM_008.jpg
2489.268	0.926	1	repeat	Run3	repeat/STIM_009.jpg
2493.803	0.544	1	repeat	Run3	repeat/STIM_009.jpg
2497.817	0.744	1	repeat	Run3	repeat/STIM_009.jpg
2501.755	0.965	1	repeat	Run3	repeat/STIM_009.jpg
2504.941	0.669	1	repeat	Run3	repeat/STIM_009.jpg
2508.622	0.736	1	repeat	Run3	repeat/STIM_010.jpg
2512.062	0.573	1	repeat	Run3	repeat/STIM_010.jpg
2516.601	0.966	1	repeat	Run3	repeat/STIM_010.jpg
2520.063	0.734	1	repeat	Run3	repeat/STIM_010.jpg
2523.457	0.512	1	repeat	Run3	repeat/STIM_010.jpg
2526.172	0.882	1	repeat	Run3	repeat/STIM_011.jpg
2530.505	0.895	1	repeat	Run3	repeat/STIM_011.jpg
2534.109	0.809	1	repeat	Run3	repeat/STIM_011.jpg
2538.768	0.882	1	repeat	Run3	repeat/STIM_011.jpg
2542.043	0.82	1	repeat	Run3	repeat/STIM_011.jpg
2544.943	0.631	1	repeat	Run3	repeat/STIM_012.jpg
2548.578	0.679	1	repeat	Run3	repeat/STIM_012.jpg
2551.65	0.658	1	repeat	Run3	repeat/STIM_012.jpg
2554.666	0.694	0	repeat	Run3	repeat/STIM_012.jpg
2558.008	0.77	1	repeat	Run3	repeat/STIM_012.jpg
2562.016	0.537	1	repeat	Run3	repeat/STIM_013.jpg
2566.454	0.521	1	repeat	Run3	repeat/STIM_013.jpg
2570.468	0.918	1	repeat	Run3	repeat/STIM_013.jpg
2574.493	0.841	1	repeat	Run3	repeat/STIM_013.jpg
2577.359	0.919	1	repeat	Run3	repeat/STIM_013.jpg
2582.243	0.613	1	repeat	Run3	repeat/STIM_014.jpg
2584.958	0.919	1	repeat	Run3	repeat/STIM_014.jpg
2588.404	0.567	1	repeat	Run3	repeat/STIM_014.jpg
2592.505	0.613	1	repeat	Run3	repeat/STIM_014.jpg
2596.858	0.765	1	repeat	Run3	repeat/STIM_014.jpg
2600.868	1.26	1	generate	Run4	generate/STIM_000.jpg
2605.482	1.833	1	generate	Run4	generate/STIM_000.jpg
2609.339	1.632	1	generate	Run4	generate/STIM_000.jpg
2613.432	1.17	1	generate	Run4	generate/STIM_000.jpg
2617.992	1.32	1	generate	Run4	generate/STIM_000.jpg
2622.313	1.929	1	generate	Run4	generate/STIM_001.jpg
2627.282	1.978	1	generate	Run4	generate/STIM_001.jpg
2632.922	1.135	1	generate	Run4	generate/STIM_001.jpg
2637.935	1.183	1	generate	Run4	generate/STIM_001.jpg
2642.296	1.722	1	generate	Run4	generate/STIM_001.jpg
2647.549	1.989	1	generate	Run4	generate/STIM_002.jpg
2652.554	1.387	1	generate	Run4	generate/STIM_002.jpg
2656.848	1.084	1	generate	Run4	generate/STIM_002.jpg
2660.183	1.99	1	generate	Run4	generate/STIM_002.jpg
2666.183	1.642	1	generate	Run4	generate/STIM_002.jpg
2671.215	1.909	0	generate	Run4	generate/STIM_003.jpg
2675.99	1.684	1	generate	Run4	generate/STIM_003.jpg
2679.994	1.455	1	generate	Run4	generate/STIM_003.jpg
2684.466	1.809	1	generate	Run4	generate/STIM_003.jpg
2688.739	1.159	1	generate	Run4	generate/STIM_003.jpg
2693.732	1.9	0	generate	Run4	generate/STIM_004.jpg
2699.4	1.665	0	generate	Run4	generate/STIM_004.jpg
2704.852	1.724	1	generate	Run4	generate/STIM_004.jpg
2709.44	1.222	1	generate	Run4	generate/STIM_004.jpg
2713.748	1.274	1	generate	Run4	generate/STIM_004.jpg
2718.034	1.641	1	generate	Run4	generate/STIM_005.jpg
2723.017	1.944	1	generate	Run4	generate/STIM_005.jpg
2728.976	2.067	1	generate	Run4	generate/STIM_005.jpg
2734.514	1.864	1	generate	Run4	generate/STIM_005.jpg
2739.686	1.486	1	generate	Run4	generate/STIM_005.jpg
2743.95	1.993	1	generate	Run4	generate/STIM_006.jpg
2748.301	1.144	1	generate	Run4	generate/STIM_006.jpg
2753.116	1.466	1	generate	Run4	generate/STIM_006.jpg
2758.037	1.892	1	generate	Run4	generate/STIM_006.jpg
2763.612	1.012	1	generate	Run4	generate/STIM_006.jpg
2768.546	1.806	1	generate	Run4	generate/STIM_007.jpg
2774.064	1.812	1	generate	Run4	generate/STIM_007.jpg
2779.763	1.8	1	generate	Run4	generate/STIM_007.jpg
2784.204	1.992	1	generate	Run4	generate/STIM_007.jpg
2789.625	2.039	1	generate	Run4	generate/STIM_007.jpg
2795.395	1.887	0	generate	Run4	generate/STIM_008.jpg
2800.52	1.701	1	generate	Run4	generate/STIM_008.jpg
2805.796	1.682	1	generate	Run4	generate/STIM_008.jpg
2810.379	1.36	1	generate	Run4	generate/STIM_008.jpg
2814.228	1.831	1	generate	Run4	generate/STIM_008.jpg
2818.157	0.919	0	generate	Run4	generate/STIM_009.jpg
2823.044	1.514	1	generate	Run4	generate/STIM_009.jpg
2827.894	1.554	1	generate	Run4	generate/STIM_009.jpg
2832.405	1.165	1	generate	Run4	generate/STIM_009.jpg
2835.645	1.245	1	generate	Run4	generate/STIM_009.jpg
2840.045	0.929	1	generate	Run4	generate/STIM_010.jpg
2844.294	0.871	1	generate	Run4	generate/STIM_010.jpg
2848.413	1.584	0	generate	Run4	generate/STIM_010.jpg
2853.024	1.764	1	generate	Run4	generate/STIM_010.jpg
2857.479	1.455	1	generate	Run4	generate/STIM_010.jpg
2862.906	1.498	1	generate	Run4	generate/STIM_011.jpg
2867.195	1.113	1	generate	Run4	generate/STIM_011.jpg
2871.792	1.911	1	generate	Run4	generate/STIM_011.jpg
2876.013	1.113	1	generate	Run4	generate/STIM_011.jpg
2879.758	1.868	1	generate	Run4	generate/STIM_011.jpg
2885.006	1.683	1	generate	Run4	generate/STIM_012.jpg
2889.793	1.381	1	generate	Run4	generate/STIM_012.jpg
2894.887	1.712	1	generate	Run4	generate/STIM_012.jpg
2899.634	1.861	1	generate	Run4	generate/STIM_012.jpg
2904.036	1.004	1	generate	Run4	generate/STIM_012.jpg
2908.066	1.248	1	generate	Run4	generate/STIM_013.jpg
2912.573	1.207	1	generate	Run4	generate/STIM_013.jpg
2916.517	0.856	1	generate	Run4	generate/STIM_013.jpg
2919.533	0.938	1	generate	Run4	generate/STIM_013.jpg
2923.662	1.885	1	generate	Run4	generate/STIM_013.jpg
2929.514	1.896	1	generate	Run4	generate/STIM_014.jpg
2933.647	1.796	1	generate	Run4	generate/STIM_014.jpg
2938.443	1.933	1	generate	Run4	generate/STIM_014.jpg
2942.547	1.739	1	generate	Run4	generate/STIM_014.jpg
2948.201	1.952	1	generate	Run4	generate/STIM_014.jpg
2953.842	1.438	1	generate	Run4	generate/STIM_015.jpg
2957.363	1.494	1	generate	Run4	generate/STIM_015.jpg
2962.378	0.96	1	generate	Run4	generate/STIM_015.jpg
2966.842	1.372	1	generate	Run4	generate/STIM_015.jpg
2971.119	1.247	1	generate	Run4	generate/STIM_015.jpg
2976.005	1.21	1	generate	Run4	generate/STIM_016.jpg
2981.19	1.229	1	generate	Run4	generate/STIM_016.jpg
2985.619	1.379	1	generate	Run4	generate/STIM_016.jpg
2989.927	1.746	1	generate	Run4	generate/STIM_016.jpg
2995.163	1.028	1	generate	Run4	generate/STIM_016.jpg
2998.211	1.823	1	generate	Run4	generate/STIM_017.jpg
3002.401	1.796	1	generate	Run4	generate/STIM_017.jpg
3007.574	1.731	1	generate	Run4	generate/STIM_017.jpg
3012.215	1.42	1	generate	Run4	generate/STIM_017.jpg
3016.45	1.141	1	generate	Run4	generate/STIM_017.jpg
3020.801	1.992	1	generate	Run4	generate/STIM_018.jpg
3025.413	1.612	1	generate	Run4	generate/STIM_018.jpg
3029.284	1.09	1	generate	Run4	generate/STIM_018.jpg
3033.238	1.448	1	generate	Run4	generate/STIM_018.jpg
3037.493	1.649	1	generate	Run4	generate/STIM_018.jpg
3042.289	1.692	0	generate	Run4	generate/STIM_019.jpg
3046.4	1.88	1	generate	Run4	generate/STIM_019.jpg
3050.585	1.171	1	generate	Run4	generate/STIM_019.jpg
3055.597	1.489	1	generate	Run4	generate/STIM_019.jpg
3061.071	1.587	1	generate	Run4	generate/STIM_019.jpg
3066.17	1.356	1	generate	Run4	generate/STIM_020.jpg
3070.649	1.729	0	generate	Run4	generate/STIM_020.jpg
3076.376	2.041	1	generate	Run4	generate/STIM_020.jpg
3081.464	1.772	1	generate	Run4	generate/STIM_020.jpg
3085.471	1.714	1	generate	Run4	generate/STIM_020.jpg
3089.384	1.542	1	generate	Run4	generate/STIM_021.jpg
3094.005	1.953	1	generate	Run4	generate/STIM_021.jpg
3098.928	1.413	1	generate	Run4	generate/STIM_021.jpg
3102.981	1.193	0	generate	Run4	generate/STIM_021.jpg
3106.805	1.184	1	generate	Run4	generate/STIM_021.jpg
3110.243	1.348	1	generate	Run4	generate/STIM_022.jpg
3114.002	1.793	0	generate	Run4	generate/STIM_022.jpg
3119.462	1.8	1	generate	Run4	generate/STIM_022.jpg
3124.265	1.944	1	generate	Run4	generate/STIM_022.jpg
3129.814	1.844	1	generate	Run4	generate/STIM_022.jpg
3134.204	2.053	1	generate	Run4	generate/STIM_023.jpg
3139.458	1.898	1	generate	Run4	generate/STIM_023.jpg
3145.313	1.937	1	generate	Run4	generate/STIM_023.jpg
3149.336	1.644	1	generate	Run4	generate/STIM_023.jpg
3153.509	1.482	1	generate	Run4	generate/STIM_023.jpg
3157.602	1.241	1	generate	Run4	generate/STIM_024.jpg
3162.092	1.186	1	generate	Run4	generate/STIM_024.jpg
3165.977	1.68	1	generate	Run4	generate/STIM_024.jpg
3169.807	1.343	1	generate	Run4	generate/STIM_024.jpg
3174.182	1.686	1	generate	Run4	generate/STIM_024.jpg
3179.336	0.544	1	repeat	Run4	repeat/STIM_000.jpg
3183.712	0.782	1	repeat	Run4	repeat/STIM_000.jpg
3186.558	0.74	1	repeat	Run4	repeat/STIM_000.jpg
3190.37	0.969	1	repeat	Run4	repeat/STIM_000.jpg
3195.085	0.633	1	repeat	Run4	repeat/STIM_000.jpg
3198.856	0.917	1	repeat	Run4	repeat/STIM_001.jpg
3203.416	0.655	1	repeat	Run4	repeat/STIM_001.jpg
3207.942	0.572	1	repeat	Run4	repeat/STIM_001.jpg
3210.901	0.51	1	repeat	Run4	repeat/STIM_001.jpg
3214.088	0.881	1	repeat	Run4	repeat/STIM_001.jpg
3217.474	0.566	1	repeat	Run4	repeat/STIM_002.jpg
3221.722	0.658	1	repeat	Run4	repeat/STIM_002.jpg
3225.915	0.564	1	repeat	Run4	repeat/STIM_002.jpg
3230.346	0.948	1	repeat	Run4	repeat/STIM_002.jpg
3234.755	0.925	1	repeat	Run4	repeat/STIM_002.jpg
3238.716	0.503	1	repeat	Run4	repeat/STIM_003.jpg
3242.23	0.662	1	repeat	Run4	repeat/STIM_003.jpg
3246.12	0.589	1	repeat	Run4	repeat/STIM_003.jpg
3249.737	0.957	1	repeat	Run4	repeat/STIM_003.jpg
3253.602	0.811	1	repeat	Run4	repeat/STIM_003.jpg
3257.752	0.883	1	repeat	Run4	repeat/STIM_004.jpg
3261.603	0.572	1	repeat	Run4	repeat/STIM_004.jpg
3265.371	0.86	1	repeat	Run4	repeat/STIM_004.jpg
3268.396	0.915	1	repeat	Run4	repeat/STIM_004.jpg
3271.86	0.735	1	repeat	Run4	repeat/STIM_004.jpg
3276.543	0.695	1	repeat	Run4	repeat/STIM_005.jpg
3280.989	0.794	1	repeat	Run4	repeat/STIM_005.jpg
3285.514	0.973	1	repeat	Run4	repeat/STIM_005.jpg
3289.548	0.736	1	repeat	Run4	repeat/STIM_005.jpg
3292.933	0.954	1	repeat	Run4	repeat/STIM_005.jpg
3296.829	0.548	1	repeat	Run4	repeat/STIM_006.jpg
3300.188	0.676	1	repeat	Run4	repeat/STIM_006.jpg
3303.05	0.524	1	repeat	Run4	repeat/STIM_006.jpg
3306.008	0.708	1	repeat	Run4	repeat/STIM_006.jpg
3309.862	0.654	1	repeat	Run4	repeat/STIM_006.jpg
3313.08	0.543	1	repeat	Run4	repeat/STIM_007.jpg
3316.93	0.577	1	repeat	Run4	repeat/STIM_007.jpg
3321.5	0.749	1	repeat	Run4	repeat/STIM_007.jpg
3325.897	0.92	1	repeat	Run4	repeat/STIM_007.jpg
3330.331	0.61	0	repeat	Run4	repeat/STIM_007.jpg
3333.998	0.606	1	repeat	Run4	repeat/STIM_008.jpg
3336.966	0.885	1	repeat	Run4	repeat/STIM_008.jpg
3339.885	0.826	1	repeat	Run4	repeat/STIM_008.jpg
3344.429	0.539	1	repeat	Run4	repeat/STIM_008.jpg
3348.314	0.606	1	repeat	Run4	repeat/STIM_008.jpg
3352.346	0.965	1	repeat	Run4	repeat/STIM_009.jpg
3356.627	0.734	1	repeat	Run4	repeat/STIM_009.jpg
3360.764	0.52	1	repeat	Run4	repeat/STIM_009.jpg
3363.695	0.549	0	repeat	Run4	repeat/STIM_009.jpg
3366.56	0.94	1	repeat	Run4	repeat/STIM_009.jpg
3370.68	0.921	1	repeat	Run4	repeat/STIM_010.jpg
3375.264	0.91	1	repeat	Run4	repeat/STIM_010.jpg
3378.643	0.736	1	repeat	Run4	repeat/STIM_010.jpg
3382.48	0.496	1	repeat	Run4	repeat/STIM_010.jpg
3385.181	0.631	1	repeat	Run4	repeat/STIM_010.jpg
3389.612	0.85	1	repeat	Run4	repeat/STIM_011.jpg
3392.605	0.695	1	repeat	Run4	repeat/STIM_011.jpg
3395.67	0.549	1	repeat	Run4	repeat/STIM_011.jpg
3399.925	0.55	1	repeat	Run4	repeat/STIM_011.jpg
3403.427	0.97	1	repeat	Run4	repeat/STIM_011.jpg
3407.399	0.603	1	repeat	Run4	repeat/STIM_012.jpg
3411.009	0.567	1	repeat	Run4	repeat/STIM_012.jpg
3413.659	0.769	1	repeat	Run4	repeat/STIM_012.jpg
3417.399	0.635	1	repeat	Run4	repeat/STIM_012.jpg
3420.193	0.763	1	repeat	Run4	repeat/STIM_012.jpg
3424.857	0.661	1	repeat	Run4	repeat/STIM_013.jpg
3428.561	0.902	1	repeat	Run4	repeat/STIM_013.jpg
3432.681	0.736	1	repeat	Run4	repeat/STIM_013.jpg
3435.676	0.707	1	repeat	Run4	repeat/STIM_013.jpg
3439.273	0.772	1	repeat	Run4	repeat/STIM_013.jpg
3442.219	0.7	1	repeat	Run4	repeat/STIM_014.jpg
3446.684	0.545	1	repeat	Run4	repeat/STIM_014.jpg
3449.631	0.961	1	repeat	Run4	repeat/STIM_014.jpg
3454.259	0.783	0	repeat	Run4	repeat/STIM_014.jpg
3457.405	0.756	0	repeat	Run4	repeat/STIM_014.jpg
