onset	duration	response_time_ms	trial_type	learning_stage	stimulus	response_port
0.0	2.388	2387.9	generate	Run1	generate/STIM_000.jpg	100
5.392	1.299	1298.6	generate	Run1	generate/STIM_000.jpg	100
9.348	1.191	1190.7	generate	Run1	generate/STIM_000.jpg	100
12.701	1.079	1078.7	generate	Run1	generate/STIM_000.jpg	99
15.917	1.333	1333.0	generate	Run1	generate/STIM_000.jpg	99
20.229	1.229	1229.4	generate	Run1	generate/STIM_001.jpg	99
23.479	1.809	1809.1	generate	Run1	generate/STIM_001.jpg	100
28.342	1.657	1657.1	generate	Run1	generate/STIM_001.jpg	100
33.791	2.424	2424.5	generate	Run1	generate/STIM_001.jpg	100
38.745	1.926	1926.1	generate	Run1	generate/STIM_001.jpg	99
43.363	2.206	2205.7	generate	Run1	generate/STIM_002.jpg	99
48.005	2.241	2241.2	generate	Run1	generate/STIM_002.jpg	99
52.944	1.896	1896.2	generate	Run1	generate/STIM_002.jpg	99
57.559	1.892	1892.1	generate	Run1	generate/STIM_002.jpg	99
61.556	1.508	1507.6	generate	Run1	generate/STIM_002.jpg	100
65.104	1.773	1773.1	generate	Run1	generate/STIM_003.jpg	100
69.907	2.393	2392.6	generate	Run1	generate/STIM_003.jpg	100
74.576	2.2	2200.4	generate	Run1	generate/STIM_003.jpg	99
80.68	1.548	1548.0	generate	Run1	generate/STIM_003.jpg	100
86.1	1.397	1397.2	generate	Run1	generate/STIM_003.jpg	99
91.414	2.579	2578.6	generate	Run1	generate/STIM_004.jpg	100
97.219	1.72	1719.6	generate	Run1	generate/STIM_004.jpg	100
101.427	2.416	2416.0	generate	Run1	generate/STIM_004.jpg	99
107.833	1.994	1994.3	generate	Run1	generate/STIM_004.jpg	99
112.886	2.345	2345.0	generate	Run1	generate/STIM_004.jpg	100
117.542	2.626	2626.5	generate	Run1	generate/STIM_005.jpg	100
123.185	2.652	2652.0	generate	Run1	generate/STIM_005.jpg	100
128.134	2.624	2623.5	generate	Run1	generate/STIM_005.jpg	99
133.496	1.916	1915.8	generate	Run1	generate/STIM_005.jpg	99
139.353	1.692	1691.5	generate	Run1	generate/STIM_005.jpg	100
143.449	2.274	2274.2	generate	Run1	generate/STIM_006.jpg	100
149.235	2.026	2026.4	generate	Run1	generate/STIM_006.jpg	100
153.702	1.85	1850.3	generate	Run1	generate/STIM_006.jpg	100
159.168	2.428	2428.5	generate	Run1	generate/STIM_006.jpg	99
164.707	1.975	1974.8	generate	Run1	generate/STIM_006.jpg	100
169.795	1.759	1759.1	generate	Run1	generate/STIM_007.jpg	100
174.961	1.842	1841.5	generate	Run1	generate/STIM_007.jpg	99
179.959	2.512	2512.4	generate	Run1	generate/STIM_007.jpg	99
184.804	1.802	1802.1	generate	Run1	generate/STIM_007.jpg	99
189.474	2.262	2261.8	generate	Run1	generate/STIM_007.jpg	100
195.364	1.492	1492.2	generate	Run1	generate/STIM_008.jpg	99
199.27	2.501	2500.6	generate	Run1	generate/STIM_008.jpg	99
205.27	2.484	2483.6	generate	Run1	generate/STIM_008.jpg	99
211.562	1.526	1525.6	generate	Run1	generate/STIM_008.jpg	99
216.451	1.166	1166.2	generate	Run1	generate/STIM_008.jpg	100
220.356	1.517	1517.4	generate	Run1	generate/STIM_009.jpg	99
224.593	1.182	1182.4	generate	Run1	generate/STIM_009.jpg	100
228.462	2.662	2662.5	generate	Run1	generate/STIM_009.jpg	99
233.535	2.392	2392.0	generate	Run1	generate/STIM_009.jpg	99
238.387	1.433	1433.4	generate	Run1	generate/STIM_009.jpg	99
243.809	1.402	1401.5	generate	Run1	generate/STIM_010.jpg	100
247.546	2.094	2093.6	generate	Run1	generate/STIM_010.jpg	100
253.454	2.369	2368.9	generate	Run1	generate/STIM_010.jpg	99
258.042	1.96	1960.4	generate	Run1	generate/STIM_010.jpg	99
263.468	1.304	1303.6	generate	Run1	generate/STIM_010.jpg	100
268.577	1.463	1462.7	generate	Run1	generate/STIM_011.jpg	99
273.957	1.375	1374.6	generate	Run1	generate/STIM_011.jpg	99
278.979	2.095	2094.9	generate	Run1	generate/STIM_011.jpg	100
283.917	2.08	2079.9	generate	Run1	generate/STIM_011.jpg	99
288.071	1.491	1491.0	generate	Run1	generate/STIM_011.jpg	100
291.957	2.635	2635.3	generate	Run1	generate/STIM_012.jpg	99
298.478	2.201	2201.4	generate	Run1	generate/STIM_012.jpg	99
303.645	1.286	1286.5	generate	Run1	generate/STIM_012.jpg	100
307.354	1.282	1282.5	generate	Run1	generate/STIM_012.jpg	100
312.018	1.02	1019.9	generate	Run1	generate/STIM_012.jpg	100
315.682	1.984	1984.2	generate	Run1	generate/STIM_013.jpg	100
320.14	1.262	1262.3	generate	Run1	generate/STIM_013.jpg	99
323.634	2.122	2121.7	generate	Run1	generate/STIM_013.jpg	99
329.667	2.401	2400.8	generate	Run1	generate/STIM_013.jpg	99
334.52	1.774	1773.7	generate	Run1	generate/STIM_013.jpg	100
338.678	2.722	2722.2	generate	Run1	generate/STIM_014.jpg	100
344.815	2.546	2545.8	generate	Run1	generate/STIM_014.jpg	100
349.824	1.552	1552.5	generate	Run1	generate/STIM_014.jpg	99
353.649	2.069	2069.3	generate	Run1	generate/STIM_014.jpg	100
357.915	1.598	1598.2	generate	Run1	generate/STIM_014.jpg	100
362.293	1.229	1228.9	generate	Run1	generate/STIM_015.jpg	99
366.071	2.123	2122.7	generate	Run1	generate/STIM_015.jpg	99
372.012	2.337	2337.4	generate	Run1	generate/STIM_015.jpg	100
377.704	2.412	2412.0	generate	Run1	generate/STIM_015.jpg	100
382.519	2.36	2360.2	generate	Run1	generate/STIM_015.jpg	99
388.842	2.738	2738.5	generate	Run1	generate/STIM_016.jpg	100
394.961	2.666	2665.6	generate	Run1	generate/STIM_016.jpg	100
400.262	2.247	2246.9	generate	Run1	generate/STIM_016.jpg	99
404.769	1.762	1761.9	generate	Run1	generate/STIM_016.jpg	100
409.857	2.304	2303.7	generate	Run1	generate/STIM_016.jpg	99
415.703	2.433	2432.9	generate	Run1	generate/STIM_017.jpg	99
421.358	1.179	1179.4	generate	Run1	generate/STIM_017.jpg	100
426.142	1.711	1711.2	generate	Run1	generate/STIM_017.jpg	100
430.803	1.935	1935.3	generate	Run1	generate/STIM_017.jpg	99
434.781	1.846	1846.2	generate	Run1	generate/STIM_017.jpg	99
439.348	1.597	1597.2	generate	Run1	generate/STIM_018.jpg	100
444.051	1.852	1851.5	generate	Run1	generate/STIM_018.jpg	100
448.91	2.22	2220.2	generate	Run1	generate/STIM_018.jpg	99
454.003	1.254	1254.4	generate	Run1	generate/STIM_018.jpg	99
457.702	1.411	1410.7	generate	Run1	generate/STIM_018.jpg	99
461.223	2.184	2184.0	generate	Run1	generate/STIM_019.jpg	100
467.133	1.291	1290.7	generate	Run1	generate/STIM_019.jpg	99
471.188	2.462	2461.9	generate	Run1	generate/STIM_019.jpg	99
476.321	2.138	2138.2	generate	Run1	generate/STIM_019.jpg	100
482.276	1.564	1563.5	generate	Run1	generate/STIM_019.jpg	99
486.632	1.243	1243.0	generate	Run1	generate/STIM_020.jpg	100
491.18	2.558	2558.1	generate	Run1	generate/STIM_020.jpg	99
496.229	2.019	2019.2	generate	Run1	generate/STIM_020.jpg	99
502.168	1.24	1239.7	generate	Run1	generate/STIM_020.jpg	100
506.682	1.867	1866.7	generate	Run1	generate/STIM_020.jpg	100
512.255	1.955	1954.6	generate	Run1	generate/STIM_021.jpg	99
517.203	1.436	1436.2	generate	Run1	generate/STIM_021.jpg	100
521.645	2.66	2659.5	generate	Run1	generate/STIM_021.jpg	100
527.204	2.382	2382.2	generate	Run1	generate/STIM_021.jpg	99
531.995	1.842	1841.7	generate	Run1	generate/STIM_021.jpg	99
536.461	2.429	2428.9	generate	Run1	generate/STIM_022.jpg	100
541.418	1.261	1260.8	generate	Run1	generate/STIM_022.jpg	100
544.918	2.544	2544.1	generate	Run1	generate/STIM_022.jpg	99
551.321	2.45	2450.2	generate	Run1	generate/STIM_022.jpg	99
556.602	1.303	1303.0	generate	Run1	generate/STIM_022.jpg	100
561.711	2.627	2627.4	generate	Run1	generate/STIM_023.jpg	100
566.711	1.924	1924.1	generate	Run1	generate/STIM_023.jpg	99
571.409	2.211	2211.1	generate	Run1	generate/STIM_023.jpg	99
576.856	2.25	2250.5	generate	Run1	generate/STIM_023.jpg	100
581.136	1.482	1481.8	generate	Run1	generate/STIM_023.jpg	99
585.958	1.304	1303.7	generate	Run1	generate/STIM_024.jpg	99
590.521	1.884	1883.5	generate	Run1	generate/STIM_024.jpg	99
594.872	2.246	2246.1	generate	Run1	generate/STIM_024.jpg	99
599.264	1.031	1031.4	generate	Run1	generate/STIM_024.jpg	100
603.993	2.009	2008.9	generate	Run1	generate/STIM_024.jpg	100
609.501	0.857	857.4	repeat	Run1	repeat/STIM_000.jpg	99
613.262	0.528	528.5	repeat	Run1	repeat/STIM_000.jpg	99
616.854	0.695	694.9	repeat	Run1	repeat/STIM_000.jpg	99
619.773	0.738	738.3	repeat	Run1	repeat/STIM_000.jpg	99
624.087	0.53	530.2	repeat	Run1	repeat/STIM_000.jpg	99
627.095	0.609	609.3	repeat	Run1	repeat/STIM_001.jpg	100
631.667	0.982	982.2	repeat	Run1	repeat/STIM_001.jpg	100
635.778	0.888	887.7	repeat	Run1	repeat/STIM_001.jpg	99
640.198	0.896	896.0	repeat	Run1	repeat/STIM_001.jpg	99
643.475	0.815	814.8	repeat	Run1	repeat/STIM_001.jpg	100
648.233	0.639	638.9	repeat	Run1	repeat/STIM_002.jpg	100
652.396	0.722	721.7	repeat	Run1	repeat/STIM_002.jpg	99
655.801	0.714	714.1	repeat	Run1	repeat/STIM_002.jpg	99
658.778	0.85	850.3	repeat	Run1	repeat/STIM_002.jpg	99
663.207	0.629	629.2	repeat	Run1	repeat/STIM_002.jpg	100
666.164	0.711	710.8	repeat	Run1	repeat/STIM_003.jpg	99
670.654	0.536	535.6	repeat	Run1	repeat/STIM_003.jpg	99
674.826	0.917	916.9	repeat	Run1	repeat/STIM_003.jpg	99
678.522	0.595	595.4	repeat	Run1	repeat/STIM_003.jpg	99
681.151	0.805	804.8	repeat	Run1	repeat/STIM_003.jpg	100
684.667	0.792	791.6	repeat	Run1	repeat/STIM_004.jpg	100
689.183	0.878	878.3	repeat	Run1	repeat/STIM_004.jpg	99
692.858	0.798	798.5	repeat	Run1	repeat/STIM_004.jpg	100
697.644	0.99	989.8	repeat	Run1	repeat/STIM_004.jpg	99
702.451	0.911	911.4	repeat	Run1	repeat/STIM_004.jpg	100
706.557	0.62	619.6	repeat	Run1	repeat/STIM_005.jpg	100
710.517	0.517	517.4	repeat	Run1	repeat/STIM_005.jpg	99
713.249	0.577	577.2	repeat	Run1	repeat/STIM_005.jpg	99
716.001	0.778	777.6	repeat	Run1	repeat/STIM_005.jpg	100
718.789	0.906	906.5	repeat	Run1	repeat/STIM_005.jpg	99
722.499	0.559	559.0	repeat	Run1	repeat/STIM_006.jpg	99
726.694	0.762	762.3	repeat	Run1	repeat/STIM_006.jpg	99
729.979	0.944	944.5	repeat	Run1	repeat/STIM_006.jpg	100
733.126	0.606	606.4	repeat	Run1	repeat/STIM_006.jpg	99
737.491	0.902	902.0	repeat	Run1	repeat/STIM_006.jpg	99
740.577	0.549	548.8	repeat	Run1	repeat/STIM_007.jpg	100
743.943	0.921	921.2	repeat	Run1	repeat/STIM_007.jpg	99
748.781	0.937	937.3	repeat	Run1	repeat/STIM_007.jpg	99
752.241	0.775	775.3	repeat	Run1	repeat/STIM_007.jpg	100
755.857	0.655	655.0	repeat	Run1	repeat/STIM_007.jpg	100
760.298	0.897	897.0	repeat	Run1	repeat/STIM_008.jpg	100
764.298	0.525	525.1	repeat	Run1	repeat/STIM_008.jpg	99
767.443	0.497	497.1	repeat	Run1	repeat/STIM_008.jpg	100
770.843	0.705	705.2	repeat	Run1	repeat/STIM_008.jpg	99
774.537	0.874	874.2	repeat	Run1	repeat/STIM_008.jpg	99
778.421	0.504	503.7	repeat	Run1	repeat/STIM_009.jpg	99
781.158	0.557	557.2	repeat	Run1	repeat/STIM_009.jpg	100
784.934	0.703	702.6	repeat	Run1	repeat/STIM_009.jpg	99
788.649	0.742	742.3	repeat	Run1	repeat/STIM_009.jpg	100
792.309	0.57	569.8	repeat	Run1	repeat/STIM_009.jpg	100
795.347	0.511	510.8	repeat	Run1	repeat/STIM_010.jpg	100
798.335	0.71	710.2	repeat	Run1	repeat/STIM_010.jpg	100
801.81	0.708	708.0	repeat	Run1	repeat/STIM_010.jpg	100
806.202	0.927	926.7	repeat	Run1	repeat/STIM_010.jpg	100
809.439	0.699	699.4	repeat	Run1	repeat/STIM_010.jpg	100
813.754	0.532	532.4	repeat	Run1	repeat/STIM_011.jpg	100
816.458	0.797	796.6	repeat	Run1	repeat/STIM_011.jpg	100
821.045	0.617	617.2	repeat	Run1	repeat/STIM_011.jpg	100
824.66	0.908	907.9	repeat	Run1	repeat/STIM_011.jpg	100
828.716	0.925	924.6	repeat	Run1	repeat/STIM_011.jpg	100
832.837	0.811	810.9	repeat	Run1	repeat/STIM_012.jpg	100
837.392	0.772	771.9	repeat	Run1	repeat/STIM_012.jpg	99
841.082	0.634	633.9	repeat	Run1	repeat/STIM_012.jpg	99
844.74	0.527	527.0	repeat	Run1	repeat/STIM_012.jpg	100
847.313	0.554	554.4	repeat	Run1	repeat/STIM_012.jpg	100
850.677	0.602	602.5	repeat	Run1	repeat/STIM_013.jpg	100
854.366	0.805	805.1	repeat	Run1	repeat/STIM_013.jpg	99
857.799	0.592	592.0	repeat	Run1	repeat/STIM_013.jpg	100
861.829	0.883	883.4	repeat	Run1	repeat/STIM_013.jpg	99
865.973	0.57	570.0	repeat	Run1	repeat/STIM_013.jpg	100
869.072	0.96	960.4	repeat	Run1	repeat/STIM_014.jpg	99
872.86	0.842	842.2	repeat	Run1	repeat/STIM_014.jpg	100
876.979	0.663	663.3	repeat	Run1	repeat/STIM_014.jpg	99
879.848	0.497	497.4	repeat	Run1	repeat/STIM_014.jpg	99
883.684	0.553	553.1	repeat	Run1	repeat/STIM_014.jpg	99
887.683	1.883	1883.3	generate	Run2	generate/STIM_000.jpg	100
893.055	1.511	1511.0	generate	Run2	generate/STIM_000.jpg	99
897.327	1.991	1990.7	generate	Run2	generate/STIM_000.jpg	99
902.579	1.637	1636.6	generate	Run2	generate/STIM_000.jpg	99
907.405	1.001	1001.3	generate	Run2	generate/STIM_000.jpg	100
912.049	2.415	2414.7	generate	Run2	generate/STIM_001.jpg	100
916.943	2.23	2230.4	generate	Run2	generate/STIM_001.jpg	99
921.307	1.404	1403.5	generate	Run2	generate/STIM_001.jpg	100
925.262	0.899	898.8	generate	Run2	generate/STIM_001.jpg	100
928.922	1.325	1325.2	generate	Run2	generate/STIM_001.jpg	99
933.68	2.358	2357.8	generate	Run2	generate/STIM_002.jpg	100
939.646	1.357	1356.8	generate	Run2	generate/STIM_002.jpg	100
944.495	2.164	2163.7	generate	Run2	generate/STIM_002.jpg	99
950.034	1.82	1819.8	generate	Run2	generate/STIM_002.jpg	99
954.193	1.216	1216.1	generate	Run2	generate/STIM_002.jpg	99
959.206	1.503	1503.4	generate	Run2	generate/STIM_003.jpg	100
962.988	1.446	1446.1	generate	Run2	generate/STIM_003.jpg	100
968.3	1.028	1027.8	generate	Run2	generate/STIM_003.jpg	99
971.997	1.605	1605.1	generate	Run2	generate/STIM_003.jpg	100
976.403	1.84	1840.1	generate	Run2	generate/STIM_003.jpg	100
980.718	1.456	1456.0	generate	Run2	generate/STIM_004.jpg	100
985.989	2.345	2344.9	generate	Run2	generate/STIM_004.jpg	100
992.332	1.77	1770.4	generate	Run2	generate/STIM_004.jpg	99
996.676	1.041	1041.4	generate	Run2	generate/STIM_004.jpg	99
1000.886	1.092	1091.9	generate	Run2	generate/STIM_004.jpg	99
1005.885	1.825	1825.2	generate	Run2	generate/STIM_005.jpg	100
1011.285	1.109	1109.1	generate	Run2	generate/STIM_005.jpg	100
1014.457	1.796	1796.4	generate	Run2	generate/STIM_005.jpg	99
1018.547	1.737	1737.1	generate	Run2	generate/STIM_005.jpg	100
1023.956	1.234	1234.3	generate	Run2	generate/STIM_005.jpg	99
1028.97	1.418	1417.5	generate	Run2	generate/STIM_006.jpg	100
1033.508	2.073	2072.7	generate	Run2	generate/STIM_006.jpg	99
1039.316	1.791	1790.9	generate	Run2	generate/STIM_006.jpg	99
1044.988	1.825	1824.9	generate	Run2	generate/STIM_006.jpg	100
1050.463	1.97	1970.4	generate	Run2	generate/STIM_006.jpg	99
1055.06	2.527	2526.9	generate	Run2	generate/STIM_007.jpg	100
1061.087	2.0	1999.7	generate	Run2	generate/STIM_007.jpg	99
1066.953	1.699	1699.0	generate	Run2	generate/STIM_007.jpg	100
1072.48	2.001	2001.2	generate	Run2	generate/STIM_007.jpg	99
1077.199	0.946	945.6	generate	Run2	generate/STIM_007.jpg	100
1082.084	1.762	1761.6	generate	Run2	generate/STIM_008.jpg	100
1087.82	1.248	1247.5	generate	Run2	generate/STIM_008.jpg	99
1092.251	1.266	1265.7	generate	Run2	generate/STIM_008.jpg	100
1096.892	1.975	1975.0	generate	Run2	generate/STIM_008.jpg	99
1102.017	1.226	1226.5	generate	Run2	generate/STIM_008.jpg	99
1105.356	1.095	1095.2	generate	Run2	generate/STIM_009.jpg	99
1109.044	1.229	1229.1	generate	Run2	generate/STIM_009.jpg	100
1114.244	1.713	1712.9	generate	Run2	generate/STIM_009.jpg	99
1119.562	1.11	1110.2	generate	Run2	generate/STIM_009.jpg	100
1123.07	1.613	1613.1	generate	Run2	generate/STIM_009.jpg	100
1127.294	2.256	2256.3	generate	Run2	generate/STIM_010.jpg	100
1132.65	2.189	2188.6	generate	Run2	generate/STIM_010.jpg	100
1137.158	1.323	1322.6	generate	Run2	generate/STIM_010.jpg	100
1141.29	1.795	1794.7	generate	Run2	generate/STIM_010.jpg	100
1146.297	1.611	1610.8	generate	Run2	generate/STIM_010.jpg	99
1151.455	2.161	2160.7	generate	Run2	generate/STIM_011.jpg	99
1157.318	1.654	1653.5	generate	Run2	generate/STIM_011.jpg	99
1162.812	1.434	1433.5	generate	Run2	generate/STIM_011.jpg	100
1167.64	1.737	1737.0	generate	Run2	generate/STIM_011.jpg	100
1171.799	1.7	1700.2	generate	Run2	generate/STIM_011.jpg	99
1175.617	2.252	2252.5	generate	Run2	generate/STIM_012.jpg	100
1180.299	1.598	1598.3	generate	Run2	generate/STIM_012.jpg	100
1185.588	1.263	1263.4	generate	Run2	generate/STIM_012.jpg	100
1189.382	1.093	1093.0	generate	Run2	generate/STIM_012.jpg	99
1192.489	1.397	1396.8	generate	Run2	generate/STIM_012.jpg	99
1197.526	2.345	2344.9	generate	Run2	generate/STIM_013.jpg	100
1202.069	1.582	1581.8	generate	Run2	generate/STIM_013.jpg	99
1206.551	1.953	1952.8	generate	Run2	generate/STIM_013.jpg	100
1210.616	1.315	1315.2	generate	Run2	generate/STIM_013.jpg	99
1214.785	1.653	1653.1	generate	Run2	generate/STIM_013.jpg	99
1219.145	1.4	1399.6	generate	Run2	generate/STIM_014.jpg	100
1223.362	1.837	1836.6	generate	Run2	generate/STIM_014.jpg	99
1229.131	1.208	1207.7	generate	Run2	generate/STIM_014.jpg	99
1232.838	1.535	1534.9	generate	Run2	generate/STIM_014.jpg	100
1237.309	1.181	1181.0	generate	Run2	generate/STIM_014.jpg	99
1241.282	1.576	1576.1	generate	Run2	generate/STIM_015.jpg	100
1246.127	1.037	1036.6	generate	Run2	generate/STIM_015.jpg	100
1249.442	1.265	1264.7	generate	Run2	generate/STIM_015.jpg	100
1254.132	1.745	1745.2	generate	Run2	generate/STIM_015.jpg	99
1258.086	1.478	1478.3	generate	Run2	generate/STIM_015.jpg	100
1262.617	1.2	1199.6	generate	Run2	generate/STIM_016.jpg	100
1266.082	1.989	1989.2	generate	Run2	generate/STIM_016.jpg	99
1270.446	1.088	1087.9	generate	Run2	generate/STIM_016.jpg	99
1274.862	1.126	1126.5	generate	Run2	generate/STIM_016.jpg	100
1278.431	1.402	1402.2	generate	Run2	generate/STIM_016.jpg	100
1283.645	1.057	1056.8	generate	Run2	generate/STIM_017.jpg	100
1288.143	1.622	1621.9	generate	Run2	generate/STIM_017.jpg	100
1292.31	1.429	1429.3	generate	Run2	generate/STIM_017.jpg	99
1295.912	1.643	1642.9	generate	Run2	generate/STIM_017.jpg	99
1300.592	1.532	1531.6	generate	Run2	generate/STIM_017.jpg	99
1304.137	1.858	1858.3	generate	Run2	generate/STIM_018.jpg	100
1309.521	2.246	2245.7	generate	Run2	generate/STIM_018.jpg	100
1314.939	1.635	1634.6	generate	Run2	generate/STIM_018.jpg	100
1318.697	1.418	1417.5	generate	Run2	generate/STIM_018.jpg	100
1322.31	1.903	1902.7	generate	Run2	generate/STIM_018.jpg	100
1326.884	1.292	1291.9	generate	Run2	generate/STIM_019.jpg	100
1331.645	1.137	1136.8	generate	Run2	generate/STIM_019.jpg	100
1336.71	2.01	2009.6	generate	Run2	generate/STIM_019.jpg	99
1342.125	0.989	989.1	generate	Run2	generate/STIM_019.jpg	99
1346.607	1.151	1151.1	generate	Run2	generate/STIM_019.jpg	100
1350.979	1.386	1385.8	generate	Run2	generate/STIM_020.jpg	100
1355.382	1.043	1043.4	generate	Run2	generate/STIM_020.jpg	100
1359.452	1.18	1179.9	generate	Run2	generate/STIM_020.jpg	100
1364.115	1.074	1074.0	generate	Run2	generate/STIM_020.jpg	99
1368.751	1.774	1773.6	generate	Run2	generate/STIM_020.jpg	100
1373.06	2.359	2359.1	generate	Run2	generate/STIM_021.jpg	99
1378.574	2.001	2000.5	generate	Run2	generate/STIM_021.jpg	100
1382.763	1.088	1088.1	generate	Run2	generate/STIM_021.jpg	100
1387.32	1.126	1126.0	generate	Run2	generate/STIM_021.jpg	100
1391.453	1.351	1351.3	generate	Run2	generate/STIM_021.jpg	99
1394.859	1.875	1874.8	generate	Run2	generate/STIM_022.jpg	100
1399.814	1.686	1686.4	generate	Run2	generate/STIM_022.jpg	100
1404.154	2.073	2073.0	generate	Run2	generate/STIM_022.jpg	99
1408.506	2.055	2055.0	generate	Run2	generate/STIM_022.jpg	99
1413.35	2.071	2070.8	generate	Run2	generate/STIM_022.jpg	99
1418.524	1.466	1465.7	generate	Run2	generate/STIM_023.jpg	99
1423.097	1.846	1845.7	generate	Run2	generate/STIM_023.jpg	99
1428.855	1.86	1859.8	generate	Run2	generate/STIM_023.jpg	99
1432.927	1.701	1701.0	generate	Run2	generate/STIM_023.jpg	100
1438.157	1.405	1404.7	generate	Run2	generate/STIM_023.jpg	99
1442.79	1.193	1193.1	generate	Run2	generate/STIM_024.jpg	99
1447.969	2.042	2042.3	generate	Run2	generate/STIM_024.jpg	100
1452.177	1.187	1186.6	generate	Run2	generate/STIM_024.jpg	100
1456.221	1.922	1922.5	generate	Run2	generate/STIM_024.jpg	99
1461.214	1.855	1854.8	generate	Run2	generate/STIM_024.jpg	100
1466.411	0.498	498.0	repeat	Run2	repeat/STIM_000.jpg	100
1469.516	0.633	633.4	repeat	Run2	repeat/STIM_000.jpg	100
1473.074	0.595	595.0	repeat	Run2	repeat/STIM_000.jpg	100
1476.873	0.598	598.2	repeat	Run2	repeat/STIM_000.jpg	99
1481.367	0.801	800.7	repeat	Run2	repeat/STIM_000.jpg	100
1485.985	0.971	971.0	repeat	Run2	repeat/STIM_001.jpg	100
1490.912	0.697	696.6	repeat	Run2	repeat/STIM_001.jpg	99
1495.095	0.748	747.5	repeat	Run2	repeat/STIM_001.jpg	100
1498.88	0.752	751.8	repeat	Run2	repeat/STIM_001.jpg	99
1502.481	0.605	605.3	repeat	Run2	repeat/STIM_001.jpg	100
1506.827	0.968	968.2	repeat	Run2	repeat/STIM_002.jpg	100
1510.023	0.99	990.0	repeat	Run2	repeat/STIM_002.jpg	99
1514.351	0.646	645.6	repeat	Run2	repeat/STIM_002.jpg	100
1517.874	0.623	623.2	repeat	Run2	repeat/STIM_002.jpg	100
1522.034	0.653	653.3	repeat	Run2	repeat/STIM_002.jpg	100
1525.728	0.684	683.9	repeat	Run2	repeat/STIM_003.jpg	100
1529.516	0.855	854.6	repeat	Run2	repeat/STIM_003.jpg	100
1532.624	0.938	938.2	repeat	Run2	repeat/STIM_003.jpg	100
1535.877	0.801	801.3	repeat	Run2	repeat/STIM_003.jpg	100
1539.91	0.723	723.1	repeat	Run2	repeat/STIM_003.jpg	100
1543.126	0.68	680.2	repeat	Run2	repeat/STIM_004.jpg	100
1547.085	0.622	622.0	repeat	Run2	repeat/STIM_004.jpg	99
1550.895	0.918	918.3	repeat	Run2	repeat/STIM_004.jpg	99
1554.209	0.75	749.9	repeat	Run2	repeat/STIM_004.jpg	100
1557.416	0.782	781.7	repeat	Run2	repeat/STIM_004.jpg	100
1561.208	0.634	634.5	repeat	Run2	repeat/STIM_005.jpg	99
1565.78	0.696	695.8	repeat	Run2	repeat/STIM_005.jpg	100
1568.501	0.93	929.9	repeat	Run2	repeat/STIM_005.jpg	99
1571.47	0.756	756.0	repeat	Run2	repeat/STIM_005.jpg	100
1575.511	0.92	919.9	repeat	Run2	repeat/STIM_005.jpg	100
1578.539	0.587	586.7	repeat	Run2	repeat/STIM_006.jpg	100
1582.31	0.845	844.9	repeat	Run2	repeat/STIM_006.jpg	100
1586.841	0.73	729.6	repeat	Run2	repeat/STIM_006.jpg	99
1591.215	0.951	950.6	repeat	Run2	repeat/STIM_006.jpg	99
1595.004	0.566	565.8	repeat	Run2	repeat/STIM_006.jpg	99
1598.283	0.565	564.6	repeat	Run2	repeat/STIM_007.jpg	99
1602.628	0.75	749.6	repeat	Run2	repeat/STIM_007.jpg	99
1605.684	0.873	873.3	repeat	Run2	repeat/STIM_007.jpg	99
1609.595	0.748	748.1	repeat	Run2	repeat/STIM_007.jpg	100
1613.184	0.69	689.6	repeat	Run2	repeat/STIM_007.jpg	100
1617.696	0.866	866.2	repeat	Run2	repeat/STIM_008.jpg	99
1622.058	0.524	524.2	repeat	Run2	repeat/STIM_008.jpg	99
1625.206	0.876	875.6	repeat	Run2	repeat/STIM_008.jpg	99
1628.989	0.724	724.2	repeat	Run2	repeat/STIM_008.jpg	99
1632.353	0.938	937.7	repeat	Run2	repeat/STIM_008.jpg	100
1636.722	0.791	791.0	repeat	Run2	repeat/STIM_009.jpg	99
1640.712	0.782	781.9	repeat	Run2	repeat/STIM_009.jpg	99
1644.675	0.802	801.9	repeat	Run2	repeat/STIM_009.jpg	100
1648.118	0.717	717.2	repeat	Run2	repeat/STIM_009.jpg	99
1652.351	0.857	856.6	repeat	Run2	repeat/STIM_009.jpg	100
1656.747	0.833	832.7	repeat	Run2	repeat/STIM_010.jpg	100
1661.399	0.733	733.3	repeat	Run2	repeat/STIM_010.jpg	99
1664.751	0.954	954.4	repeat	Run2	repeat/STIM_010.jpg	99
1669.63	0.929	928.8	repeat	Run2	repeat/STIM_010.jpg	99
1672.714	0.922	922.2	repeat	Run2	repeat/STIM_010.jpg	100
1677.447	0.891	891.1	repeat	Run2	repeat/STIM_011.jpg	100
1681.132	0.65	649.9	repeat	Run2	repeat/STIM_011.jpg	100
1684.251	0.668	667.8	repeat	Run2	repeat/STIM_011.jpg	99
1687.246	0.945	945.3	repeat	Run2	repeat/STIM_011.jpg	100
1691.453	0.93	930.5	repeat	Run2	repeat/STIM_011.jpg	100
1695.898	0.775	775.4	repeat	Run2	repeat/STIM_012.jpg	99
1699.054	0.497	496.8	repeat	Run2	repeat/STIM_012.jpg	100
1702.76	0.584	583.9	repeat	Run2	repeat/STIM_012.jpg	99
1705.408	0.947	947.1	repeat	Run2	repeat/STIM_012.jpg	100
1709.865	0.931	931.0	repeat	Run2	repeat/STIM_012.jpg	99
1712.957	0.798	798.0	repeat	Run2	repeat/STIM_013.jpg	100
1716.729	0.773	772.7	repeat	Run2	repeat/STIM_013.jpg	99
1720.27	0.816	815.6	repeat	Run2	repeat/STIM_013.jpg	99
1724.974	0.648	648.2	repeat	Run2	repeat/STIM_013.jpg	99
1728.964	0.565	565.0	repeat	Run2	repeat/STIM_013.jpg	100
1731.639	0.972	972.3	repeat	Run2	repeat/STIM_014.jpg	100
1734.703	0.849	849.4	repeat	Run2	repeat/STIM_014.jpg	99
1737.728	0.501	501.3	repeat	Run2	repeat/STIM_014.jpg	100
1740.255	0.626	625.8	repeat	Run2	repeat/STIM_014.jpg	99
1744.782	0.944	944.2	repeat	Run2	repeat/STIM_014.jpg	99
1749.489	1.028	1028.0	generate	Run3	generate/STIM_000.jpg	99
1753.506	1.729	1729.3	generate	Run3	generate/STIM_000.jpg	99
1758.81	1.922	1922.2	generate	Run3	generate/STIM_000.jpg	100
1763.205	1.527	1527.2	generate	Run3	generate/STIM_000.jpg	99
1767.268	1.61	1610.5	generate	Run3	generate/STIM_000.jpg	100
1772.617	1.884	1883.8	generate	Run3	generate/STIM_001.jpg	99
1776.556	1.905	1905.4	generate	Run3	generate/STIM_001.jpg	99
1781.171	1.274	1274.1	generate	Run3	generate/STIM_001.jpg	99
1786.03	2.031	2031.3	generate	Run3	generate/STIM_001.jpg	100
1791.485	1.269	1269.3	generate	Run3	generate/STIM_001.jpg	100
1795.01	1.991	1990.7	generate	Run3	generate/STIM_002.jpg	99
1800.221	1.664	1664.4	generate	Run3	generate/STIM_002.jpg	99
1804.326	0.836	835.5	generate	Run3	generate/STIM_002.jpg	100
1808.684	1.421	1420.6	generate	Run3	generate/STIM_002.jpg	99
1813.979	2.044	2044.2	generate	Run3	generate/STIM_002.jpg	100
1818.776	1.281	1281.3	generate	Run3	generate/STIM_003.jpg	99
1823.797	0.968	967.5	generate	Run3	generate/STIM_003.jpg	100
1827.393	1.35	1350.3	generate	Run3	generate/STIM_003.jpg	100
1831.396	1.174	1173.8	generate	Run3	generate/STIM_003.jpg	99
1835.321	2.077	2077.0	generate	Run3	generate/STIM_003.jpg	99
1839.933	1.422	1421.8	generate	Run3	generate/STIM_004.jpg	100
1844.779	1.845	1844.8	generate	Run3	generate/STIM_004.jpg	99
1849.093	1.252	1251.8	generate	Run3	generate/STIM_004.jpg	100
1853.909	1.342	1342.0	generate	Run3	generate/STIM_004.jpg	99
1859.095	1.634	1634.0	generate	Run3	generate/STIM_004.jpg	100
1863.205	1.608	1608.3	generate	Run3	generate/STIM_005.jpg	99
1867.435	1.988	1988.0	generate	Run3	generate/STIM_005.jpg	100
1872.838	1.089	1089.3	generate	Run3	generate/STIM_005.jpg	99
1876.452	1.422	1422.4	generate	Run3	generate/STIM_005.jpg	100
1879.999	1.562	1562.2	generate	Run3	generate/STIM_005.jpg	99
1884.816	0.865	864.7	generate	Run3	generate/STIM_006.jpg	100
1889.069	1.875	1874.9	generate	Run3	generate/STIM_006.jpg	99
1893.25	1.532	1531.8	generate	Run3	generate/STIM_006.jpg	99
1898.053	0.954	953.6	generate	Run3	generate/STIM_006.jpg	100
1901.35	1.327	1327.4	generate	Run3	generate/STIM_006.jpg	99
1904.986	2.08	2080.4	generate	Run3	generate/STIM_007.jpg	99
1909.991	1.655	1654.7	generate	Run3	generate/STIM_007.jpg	100
1915.556	1.676	1675.7	generate	Run3	generate/STIM_007.jpg	100
1920.924	1.68	1680.3	generate	Run3	generate/STIM_007.jpg	100
1925.708	1.162	1162.4	generate	Run3	generate/STIM_007.jpg	99
1928.881	0.85	850.2	generate	Run3	generate/STIM_008.jpg	100
1933.336	1.293	1292.9	generate	Run3	generate/STIM_008.jpg	100
1937.99	1.475	1475.0	generate	Run3	generate/STIM_008.jpg	100
1943.132	1.877	1876.8	generate	Run3	generate/STIM_008.jpg	99
1948.316	0.859	859.0	generate	Run3	generate/STIM_008.jpg	99
1951.915	1.389	1389.2	generate	Run3	generate/STIM_009.jpg	99
1955.531	1.057	1057.3	generate	Run3	generate/STIM_009.jpg	99
1960.512	1.599	1599.4	generate	Run3	generate/STIM_009.jpg	100
1965.209	1.746	1746.1	generate	Run3	generate/STIM_009.jpg	99
1969.826	1.064	1064.4	generate	Run3	generate/STIM_009.jpg	99
1974.407	1.731	1731.2	generate	Run3	generate/STIM_010.jpg	99
1978.701	1.878	1878.0	generate	Run3	generate/STIM_010.jpg	100
1983.254	1.8	1799.6	generate	Run3	generate/STIM_010.jpg	100
1987.787	1.759	1759.2	generate	Run3	generate/STIM_010.jpg	100
1992.475	1.671	1671.2	generate	Run3	generate/STIM_010.jpg	99
1998.078	1.952	1952.2	generate	Run3	generate/STIM_011.jpg	100
2002.119	1.029	1029.2	generate	Run3	generate/STIM_011.jpg	100
2005.918	1.742	1741.7	generate	Run3	generate/STIM_011.jpg	99
2011.29	2.033	2033.2	generate	Run3	generate/STIM_011.jpg	100
2016.519	1.915	1914.8	generate	Run3	generate/STIM_011.jpg	100
2021.174	1.34	1339.6	generate	Run3	generate/STIM_012.jpg	99
2026.173	1.018	1018.1	generate	Run3	generate/STIM_012.jpg	100
2029.396	1.328	1328.3	generate	Run3	generate/STIM_012.jpg	99
2032.927	1.789	1789.3	generate	Run3	generate/STIM_012.jpg	99
2036.861	0.916	916.4	generate	Run3	generate/STIM_012.jpg	99
2041.602	1.938	1938.2	generate	Run3	generate/STIM_013.jpg	99
2046.84	0.864	863.7	generate	Run3	generate/STIM_013.jpg	99
2051.703	1.902	1902.4	generate	Run3	generate/STIM_013.jpg	99
2056.555	1.902	1901.6	generate	Run3	generate/STIM_013.jpg	100
2061.503	1.15	1149.6	generate	Run3	generate/STIM_013.jpg	100
2065.095	0.9	900.0	generate	Run3	generate/STIM_014.jpg	99
2069.291	1.016	1016.3	generate	Run3	generate/STIM_014.jpg	100
2073.945	1.221	1220.7	generate	Run3	generate/STIM_014.jpg	100
2078.808	1.396	1395.6	generate	Run3	generate/STIM_014.jpg	99
2083.45	1.101	1101.2	generate	Run3	generate/STIM_014.jpg	100
2088.199	1.713	1713.3	generate	Run3	generate/STIM_015.jpg	100
2093.03	0.838	838.3	generate	Run3	generate/STIM_015.jpg	100
2096.756	1.448	1448.1	generate	Run3	generate/STIM_015.jpg	99
2101.504	1.914	1914.0	generate	Run3	generate/STIM_015.jpg	99
2106.929	1.294	1293.8	generate	Run3	generate/STIM_015.jpg	99
2112.036	1.388	1388.3	generate	Run3	generate/STIM_016.jpg	100
2116.628	1.75	1749.7	generate	Run3	generate/STIM_016.jpg	100
2122.312	1.378	1378.5	generate	Run3	generate/STIM_016.jpg	100
2126.998	2.054	2054.5	generate	Run3	generate/STIM_016.jpg	99
2131.197	1.603	1603.1	generate	Run3	generate/STIM_016.jpg	100
2136.142	1.0	999.7	generate	Run3	generate/STIM_017.jpg	99
2139.62	1.865	1864.7	generate	Run3	generate/STIM_017.jpg	99
2144.516	1.989	1989.4	generate	Run3	generate/STIM_017.jpg	100
2149.811	1.015	1015.3	generate	Run3	generate/STIM_017.jpg	99
2154.083	1.788	1787.8	generate	Run3	generate/STIM_017.jpg	99
2159.265	2.078	2077.5	generate	Run3	generate/STIM_018.jpg	99
2164.192	1.365	1365.4	generate	Run3	generate/STIM_018.jpg	100
2169.015	1.573	1573.0	generate	Run3	generate/STIM_018.jpg	100
2173.023	1.845	1844.8	generate	Run3	generate/STIM_018.jpg	99
2177.945	1.596	1596.2	generate	Run3	generate/STIM_018.jpg	99
2182.66	1.675	1675.2	generate	Run3	generate/STIM_019.jpg	99
2187.948	1.75	1750.3	generate	Run3	generate/STIM_019.jpg	99
2192.598	1.22	1219.6	generate	Run3	generate/STIM_019.jpg	99
2197.734	1.206	1206.4	generate	Run3	generate/STIM_019.jpg	100
2201.821	1.365	1365.0	generate	Run3	generate/STIM_019.jpg	99
2207.106	1.433	1433.1	generate	Run3	generate/STIM_020.jpg	100
2211.694	1.376	1375.8	generate	Run3	generate/STIM_020.jpg	99
2216.728	1.436	1436.0	generate	Run3	generate/STIM_020.jpg	100
2221.121	1.604	1604.4	generate	Run3	generate/STIM_020.jpg	100
2226.377	1.328	1328.0	generate	Run3	generate/STIM_020.jpg	99
2230.071	1.843	1843.1	generate	Run3	generate/STIM_021.jpg	100
2235.585	1.571	1571.1	generate	Run3	generate/STIM_021.jpg	100
2240.15	1.126	1125.9	generate	Run3	generate/STIM_021.jpg	99
2244.352	1.364	1364.3	generate	Run3	generate/STIM_021.jpg	100
2247.992	1.53	1530.5	generate	Run3	generate/STIM_021.jpg	100
2252.188	1.19	1190.5	generate	Run3	generate/STIM_022.jpg	100
2256.929	1.057	1057.2	generate	Run3	generate/STIM_022.jpg	100
2261.419	1.351	1350.8	generate	Run3	generate/STIM_022.jpg	99
2266.045	0.896	895.8	generate	Run3	generate/STIM_022.jpg	99
2269.731	2.074	2074.2	generate	Run3	generate/STIM_022.jpg	99
2275.503	1.397	1397.3	generate	Run3	generate/STIM_023.jpg	100
2279.145	1.068	1068.4	generate	Run3	generate/STIM_023.jpg	99
2283.056	1.272	1271.5	generate	Run3	generate/STIM_023.jpg	100
2286.952	1.264	1264.5	generate	Run3	generate/STIM_023.jpg	100
2291.744	1.033	1033.0	generate	Run3	generate/STIM_023.jpg	100
2295.451	1.536	1536.5	generate	Run3	generate/STIM_024.jpg	99
2300.666	1.516	1516.2	generate	Run3	generate/STIM_024.jpg	99
2305.117	2.038	2037.7	generate	Run3	generate/STIM_024.jpg	99
2310.849	0.934	934.3	generate	Run3	generate/STIM_024.jpg	99
2314.823	1.95	1950.0	generate	Run3	generate/STIM_024.jpg	100
2320.457	0.99	989.7	repeat	Run3	repeat/STIM_000.jpg	100
2324.083	0.663	662.9	repeat	Run3	repeat/STIM_000.jpg	100
2327.127	0.535	534.7	repeat	Run3	repeat/STIM_000.jpg	100
2331.516	0.887	887.2	repeat	Run3	repeat/STIM_000.jpg	99
2334.961	0.809	809.4	repeat	Run3	repeat/STIM_000.jpg	100
2338.796	0.906	905.6	repeat	Run3	repeat/STIM_001.jpg	100
2342.994	0.856	856.3	repeat	Run3	repeat/STIM_001.jpg	99
2346.203	0.846	846.5	repeat	Run3	repeat/STIM_001.jpg	99
2350.383	0.644	643.6	repeat	Run3	repeat/STIM_001.jpg	99
2354.011	0.58	579.7	repeat	Run3	repeat/STIM_001.jpg	99
2357.037	0.712	711.7	repeat	Run3	repeat/STIM_002.jpg	99
2361.453	0.572	572.2	repeat	Run3	repeat/STIM_002.jpg	99
2365.665	0.661	661.0	repeat	Run3	repeat/STIM_002.jpg	100
2369.567	0.882	882.1	repeat	Run3	repeat/STIM_002.jpg	99
2373.736	0.866	865.5	repeat	Run3	repeat/STIM_002.jpg	100
2377.923	0.673	672.6	repeat	Run3	repeat/STIM_003.jpg	99
2381.066	0.513	513.2	repeat	Run3	repeat/STIM_003.jpg	99
2385.438	0.717	717.0	repeat	Run3	repeat/STIM_003.jpg	99
2388.937	0.585	585.1	repeat	Run3	repeat/STIM_003.jpg	100
2391.831	0.802	801.9	repeat	Run3	repeat/STIM_003.jpg	100
2395.208	0.815	815.2	repeat	Run3	repeat/STIM_004.jpg	100
2399.587	0.634	634.0	repeat	Run3	repeat/STIM_004.jpg	100
2404.141	0.722	722.2	repeat	Run3	repeat/STIM_004.jpg	99
2407.486	0.637	637.1	repeat	Run3	repeat/STIM_004.jpg	99
2411.26	0.575	574.6	repeat	Run3	repeat/STIM_004.jpg	99
2414.203	0.875	875.3	repeat	Run3	repeat/STIM_005.jpg	99
2418.213	0.976	975.6	repeat	Run3	repeat/STIM_005.jpg	100
2421.929	0.826	825.6	repeat	Run3	repeat/STIM_005.jpg	100
2426.332	0.848	848.2	repeat	Run3	repeat/STIM_005.jpg	100
2429.489	0.788	788.2	repeat	Run3	repeat/STIM_005.jpg	100
2433.038	0.547	546.9	repeat	Run3	repeat/STIM_006.jpg	99
2437.389	0.672	672.3	repeat	Run3	repeat/STIM_006.jpg	99
2442.062	0.618	617.6	repeat	Run3	repeat/STIM_006.jpg	99
2446.124	0.652	651.6	repeat	Run3	repeat/STIM_006.jpg	100
2449.616	0.664	663.7	repeat	Run3	repeat/STIM_006.jpg	99
2453.324	0.602	601.5	repeat	Run3	repeat/STIM_007.jpg	100
2457.425	0.973	973.4	repeat	Run3	repeat/STIM_007.jpg	99
2461.099	0.758	757.7	repeat	Run3	repeat/STIM_007.jpg	99
2463.925	0.676	676.1	repeat	Run3	repeat/STIM_007.jpg	100
2467.979	0.856	855.9	repeat	Run3	repeat/STIM_007.jpg	99
2472.657	0.722	722.4	repeat	Run3	repeat/STIM_008.jpg	99
2476.219	0.581	581.0	repeat	Run3	repeat/STIM_008.jpg	99
2478.986	0.544	544.4	repeat	Run3	repeat/STIM_008.jpg	100
2482.639	0.632	631.9	repeat	Run3	repeat/STIM_008.jpg	99
2485.872	0.597	597.3	repeat	Run3	repeat/STIM_008.jpg	100
2489.268	0.926	925.6	repeat	Run3	repeat/STIM_009.jpg	99
2493.803	0.544	543.6	repeat	Run3	repeat/STIM_009.jpg	99
2497.817	0.744	744.2	repeat	Run3	repeat/STIM_009.jpg	100
2501.755	0.965	964.7	repeat	Run3	repeat/STIM_009.jpg	99
2504.941	0.669	669.4	repeat	Run3	repeat/STIM_009.jpg	100
2508.622	0.736	735.7	repeat	Run3	repeat/STIM_010.jpg	100
2512.062	0.573	572.7	repeat	Run3	repeat/STIM_010.jpg	99
2516.601	0.966	965.9	repeat	Run3	repeat/STIM_010.jpg	100
2520.063	0.734	733.5	repeat	Run3	repeat/STIM_010.jpg	100
2523.457	0.512	512.4	repeat	Run3	repeat/STIM_010.jpg	99
2526.172	0.882	882.4	repeat	Run3	repeat/STIM_011.jpg	100
2530.505	0.895	895.2	repeat	Run3	repeat/STIM_011.jpg	100
2534.109	0.809	809.4	repeat	Run3	repeat/STIM_011.jpg	100
2538.768	0.882	882.2	repeat	Run3	repeat/STIM_011.jpg	99
2542.043	0.82	819.5	repeat	Run3	repeat/STIM_011.jpg	100
2544.943	0.631	630.6	repeat	Run3	repeat/STIM_012.jpg	100
2548.578	0.679	678.6	repeat	Run3	repeat/STIM_012.jpg	100
2551.65	0.658	658.1	repeat	Run3	repeat/STIM_012.jpg	99
2554.666	0.694	694.4	repeat	Run3	repeat/STIM_012.jpg	100
2558.008	0.77	769.6	repeat	Run3	repeat/STIM_012.jpg	99
2562.016	0.537	536.7	repeat	Run3	repeat/STIM_013.jpg	100
2566.454	0.521	520.8	repeat	Run3	repeat/STIM_013.jpg	100
2570.468	0.918	918.5	repeat	Run3	repeat/STIM_013.jpg	100
2574.493	0.841	841.3	repeat	Run3	repeat/STIM_013.jpg	100
2577.359	0.919	918.9	repeat	Run3	repeat/STIM_013.jpg	100
2582.243	0.613	612.9	repeat	Run3	repeat/STIM_014.jpg	99
2584.958	0.919	918.8	repeat	Run3	repeat/STIM_014.jpg	100
2588.404	0.567	566.7	repeat	Run3	repeat/STIM_014.jpg	99
2592.505	0.613	613.1	repeat	Run3	repeat/STIM_014.jpg	99
2596.858	0.765	764.9	repeat	Run3	repeat/STIM_014.jpg	99
2600.868	1.26	1260.1	generate	Run4	generate/STIM_000.jpg	99
2605.482	1.833	1833.1	generate	Run4	generate/STIM_000.jpg	99
2609.339	1.632	1632.2	generate	Run4	generate/STIM_000.jpg	99
2613.432	1.17	1169.6	generate	Run4	generate/STIM_000.jpg	100
2617.992	1.32	1319.8	generate	Run4	generate/STIM_000.jpg	99
2622.313	1.929	1928.6	generate	Run4	generate/STIM_001.jpg	99
2627.282	1.978	1978.1	generate	Run4	generate/STIM_001.jpg	100
2632.922	1.135	1134.8	generate	Run4	generate/STIM_001.jpg	99
2637.935	1.183	1183.4	generate	Run4	generate/STIM_001.jpg	99
2642.296	1.722	1722.1	generate	Run4	generate/STIM_001.jpg	99
2647.549	1.989	1988.8	generate	Run4	generate/STIM_002.jpg	100
2652.554	1.387	1387.2	generate	Run4	generate/STIM_002.jpg	99
2656.848	1.084	1084.3	generate	Run4	generate/STIM_002.jpg	100
2660.183	1.99	1989.8	generate	Run4	generate/STIM_002.jpg	99
2666.183	1.642	1641.8	generate	Run4	generate/STIM_002.jpg	100
2671.215	1.909	1908.6	generate	Run4	generate/STIM_003.jpg	99
2675.99	1.684	1683.7	generate	Run4	generate/STIM_003.jpg	100
2679.994	1.455	1455.2	generate	Run4	generate/STIM_003.jpg	99
2684.466	1.809	1809.1	generate	Run4	generate/STIM_003.jpg	99
2688.739	1.159	1159.4	generate	Run4	generate/STIM_003.jpg	99
2693.732	1.9	1900.1	generate	Run4	generate/STIM_004.jpg	99
2699.4	1.665	1665.0	generate	Run4	generate/STIM_004.jpg	100
2704.852	1.724	1724.5	generate	Run4	generate/STIM_004.jpg	99
2709.44	1.222	1222.4	generate	Run4	generate/STIM_004.jpg	99
2713.748	1.274	1273.7	generate	Run4	generate/STIM_004.jpg	100
2718.034	1.641	1641.1	generate	Run4	generate/STIM_005.jpg	100
2723.017	1.944	1944.5	generate	Run4	generate/STIM_005.jpg	100
2728.976	2.067	2066.6	generate	Run4	generate/STIM_005.jpg	100
2734.514	1.864	1863.7	generate	Run4	generate/STIM_005.jpg	100
2739.686	1.486	1485.5	generate	Run4	generate/STIM_005.jpg	99
2743.95	1.993	1992.9	generate	Run4	generate/STIM_006.jpg	100
2748.301	1.144	1143.6	generate	Run4	generate/STIM_006.jpg	99
2753.116	1.466	1465.7	generate	Run4	generate/STIM_006.jpg	99
2758.037	1.892	1891.7	generate	Run4	generate/STIM_006.jpg	99
2763.612	1.012	1011.9	generate	Run4	generate/STIM_006.jpg	100
2768.546	1.806	1806.0	generate	Run4	generate/STIM_007.jpg	100
2774.064	1.812	1811.6	generate	Run4	generate/STIM_007.jpg	100
2779.763	1.8	1800.2	generate	Run4	generate/STIM_007.jpg	99
2784.204	1.992	1991.6	generate	Run4	generate/STIM_007.jpg	100
2789.625	2.039	2039.3	generate	Run4	generate/STIM_007.jpg	100
2795.395	1.887	1886.7	generate	Run4	generate/STIM_008.jpg	100
2800.52	1.701	1701.4	generate	Run4	generate/STIM_008.jpg	99
2805.796	1.682	1682.2	generate	Run4	generate/STIM_008.jpg	99
2810.379	1.36	1359.7	generate	Run4	generate/STIM_008.jpg	100
2814.228	1.831	1831.0	generate	Run4	generate/STIM_008.jpg	100
2818.157	0.919	918.8	generate	Run4	generate/STIM_009.jpg	100
2823.044	1.514	1514.2	generate	Run4	generate/STIM_009.jpg	99
2827.894	1.554	1553.5	generate	Run4	generate/STIM_009.jpg	99
2832.405	1.165	1165.0	generate	Run4	generate/STIM_009.jpg	100
2835.645	1.245	1245.4	generate	Run4	generate/STIM_009.jpg	99
2840.045	0.929	928.9	generate	Run4	generate/STIM_010.jpg	100
2844.294	0.871	871.0	generate	Run4	generate/STIM_010.jpg	99
2848.413	1.584	1584.5	generate	Run4	generate/STIM_010.jpg	99
2853.024	1.764	1764.4	generate	Run4	generate/STIM_010.jpg	100
2857.479	1.455	1455.1	generate	Run4	generate/STIM_010.jpg	99
2862.906	1.498	1498.4	generate	Run4	generate/STIM_011.jpg	99
2867.195	1.113	1112.7	generate	Run4	generate/STIM_011.jpg	99
2871.792	1.911	1911.0	generate	Run4	generate/STIM_011.jpg	99
2876.013	1.113	1113.2	generate	Run4	generate/STIM_011.jpg	100
2879.758	1.868	1868.3	generate	Run4	generate/STIM_011.jpg	100
2885.006	1.683	1683.0	generate	Run4	generate/STIM_012.jpg	99
2889.793	1.381	1380.6	generate	Run4	generate/STIM_012.jpg	100
2894.887	1.712	1711.6	generate	Run4	generate/STIM_012.jpg	100
2899.634	1.861	1860.8	generate	Run4	generate/STIM_012.jpg	100
2904.036	1.004	1003.5	generate	Run4	generate/STIM_012.jpg	99
2908.066	1.248	1247.7	generate	Run4	generate/STIM_013.jpg	99
2912.573	1.207	1206.9	generate	Run4	generate/STIM_013.jpg	100
2916.517	0.856	855.9	generate	Run4	generate/STIM_013.jpg	99
2919.533	0.938	938.2	generate	Run4	generate/STIM_013.jpg	99
2923.662	1.885	1885.1	generate	Run4	generate/STIM_013.jpg	99
2929.514	1.896	1895.6	generate	Run4	generate/STIM_014.jpg	99
2933.647	1.796	1796.2	generate	Run4	generate/STIM_014.jpg	99
2938.443	1.933	1932.8	generate	Run4	generate/STIM_014.jpg	99
2942.547	1.739	1739.0	generate	Run4	generate/STIM_014.jpg	99
2948.201	1.952	1952.3	generate	Run4	generate/STIM_014.jpg	99
2953.842	1.438	1437.8	generate	Run4	generate/STIM_015.jpg	100
2957.363	1.494	1494.5	generate	Run4	generate/STIM_015.jpg	99
2962.378	0.96	960.0	generate	Run4	generate/STIM_015.jpg	100
2966.842	1.372	1371.8	generate	Run4	generate/STIM_015.jpg	99
2971.119	1.247	1247.0	generate	Run4	generate/STIM_015.jpg	99
2976.005	1.21	1210.3	generate	Run4	generate/STIM_016.jpg	99
2981.19	1.229	1229.1	generate	Run4	generate/STIM_016.jpg	99
2985.619	1.379	1379.1	generate	Run4	generate/STIM_016.jpg	100
2989.927	1.746	1746.4	generate	Run4	generate/STIM_016.jpg	100
2995.163	1.028	1027.5	generate	Run4	generate/STIM_016.jpg	99
2998.211	1.823	1823.4	generate	Run4	generate/STIM_017.jpg	99
3002.401	1.796	1795.5	generate	Run4	generate/STIM_017.jpg	100
3007.574	1.731	1731.3	generate	Run4	generate/STIM_017.jpg	100
3012.215	1.42	1419.6	generate	Run4	generate/STIM_017.jpg	99
3016.45	1.141	1141.0	generate	Run4	generate/STIM_017.jpg	100
3020.801	1.992	1991.9	generate	Run4	generate/STIM_018.jpg	100
3025.413	1.612	1612.0	generate	Run4	generate/STIM_018.jpg	100
3029.284	1.09	1090.3	generate	Run4	generate/STIM_018.jpg	99
3033.238	1.448	1448.5	generate	Run4	generate/STIM_018.jpg	99
3037.493	1.649	1648.7	generate	Run4	generate/STIM_018.jpg	100
3042.289	1.692	1692.2	generate	Run4	generate/STIM_019.jpg	99
3046.4	1.88	1880.5	generate	Run4	generate/STIM_019.jpg	99
3050.585	1.171	1170.8	generate	Run4	generate/STIM_019.jpg	99
3055.597	1.489	1488.8	generate	Run4	generate/STIM_019.jpg	100
3061.071	1.587	1586.7	generate	Run4	generate/STIM_019.jpg	99
3066.17	1.356	1355.7	generate	Run4	generate/STIM_020.jpg	100
3070.649	1.729	1728.7	generate	Run4	generate/STIM_020.jpg	100
3076.376	2.041	2040.8	generate	Run4	generate/STIM_020.jpg	99
3081.464	1.772	1771.9	generate	Run4	generate/STIM_020.jpg	99
3085.471	1.714	1713.7	generate	Run4	generate/STIM_020.jpg	100
3089.384	1.542	1541.5	generate	Run4	generate/STIM_021.jpg	99
3094.005	1.953	1953.3	generate	Run4	generate/STIM_021.jpg	99
3098.928	1.413	1413.3	generate	Run4	generate/STIM_021.jpg	100
3102.981	1.193	1192.7	generate	Run4	generate/STIM_021.jpg	99
3106.805	1.184	1184.4	generate	Run4	generate/STIM_021.jpg	99
3110.243	1.348	1348.5	generate	Run4	generate/STIM_022.jpg	99
3114.002	1.793	1792.9	generate	Run4	generate/STIM_022.jpg	100
3119.462	1.8	1800.0	generate	Run4	generate/STIM_022.jpg	99
3124.265	1.944	1943.6	generate	Run4	generate/STIM_022.jpg	99
3129.814	1.844	1844.2	generate	Run4	generate/STIM_022.jpg	99
3134.204	2.053	2052.8	generate	Run4	generate/STIM_023.jpg	100
3139.458	1.898	1898.0	generate	Run4	generate/STIM_023.jpg	99
3145.313	1.937	1936.9	generate	Run4	generate/STIM_023.jpg	99
3149.336	1.644	1644.3	generate	Run4	generate/STIM_023.jpg	100
3153.509	1.482	1482.5	generate	Run4	generate/STIM_023.jpg	99
3157.602	1.241	1240.6	generate	Run4	generate/STIM_024.jpg	100
3162.092	1.186	1186.4	generate	Run4	generate/STIM_024.jpg	99
3165.977	1.68	1679.7	generate	Run4	generate/STIM_024.jpg	100
3169.807	1.343	1342.9	generate	Run4	generate/STIM_024.jpg	100
3174.182	1.686	1685.7	generate	Run4	generate/STIM_024.jpg	100
3179.336	0.544	543.5	repeat	Run4	repeat/STIM_000.jpg	100
3183.712	0.782	781.5	repeat	Run4	repeat/STIM_000.jpg	99
3186.558	0.74	740.2	repeat	Run4	repeat/STIM_000.jpg	100
3190.37	0.969	969.3	repeat	Run4	repeat/STIM_000.jpg	100
3195.085	0.633	633.2	repeat	Run4	repeat/STIM_000.jpg	100
3198.856	0.917	917.3	repeat	Run4	repeat/STIM_001.jpg	100
3203.416	0.655	654.9	repeat	Run4	repeat/STIM_001.jpg	100
3207.942	0.572	572.1	repeat	Run4	repeat/STIM_001.jpg	100
3210.901	0.51	510.3	repeat	Run4	repeat/STIM_001.jpg	99
3214.088	0.881	880.8	repeat	Run4	repeat/STIM_001.jpg	99
3217.474	0.566	566.5	repeat	Run4	repeat/STIM_002.jpg	99
3221.722	0.658	658.5	repeat	Run4	repeat/STIM_002.jpg	99
3225.915	0.564	564.1	repeat	Run4	repeat/STIM_002.jpg	100
3230.346	0.948	948.5	repeat	Run4	repeat/STIM_002.jpg	99
3234.755	0.925	925.0	repeat	Run4	repeat/STIM_002.jpg	99
3238.716	0.503	503.5	repeat	Run4	repeat/STIM_003.jpg	99
3242.23	0.662	661.7	repeat	Run4	repeat/STIM_003.jpg	99
3246.12	0.589	588.9	repeat	Run4	repeat/STIM_003.jpg	100
3249.737	0.957	956.8	repeat	Run4	repeat/STIM_003.jpg	100
3253.602	0.811	811.2	repeat	Run4	repeat/STIM_003.jpg	100
3257.752	0.883	882.6	repeat	Run4	repeat/STIM_004.jpg	99
3261.603	0.572	572.2	repeat	Run4	repeat/STIM_004.jpg	100
3265.371	0.86	859.7	repeat	Run4	repeat/STIM_004.jpg	99
3268.396	0.915	915.4	repeat	Run4	repeat/STIM_004.jpg	100
3271.86	0.735	735.4	repeat	Run4	repeat/STIM_004.jpg	99
3276.543	0.695	695.4	repeat	Run4	repeat/STIM_005.jpg	100
3280.989	0.794	793.8	repeat	Run4	repeat/STIM_005.jpg	100
3285.514	0.973	972.7	repeat	Run4	repeat/STIM_005.jpg	99
3289.548	0.736	735.7	repeat	Run4	repeat/STIM_005.jpg	99
3292.933	0.954	953.8	repeat	Run4	repeat/STIM_005.jpg	100
3296.829	0.548	547.7	repeat	Run4	repeat/STIM_006.jpg	100
3300.188	0.676	676.4	repeat	Run4	repeat/STIM_006.jpg	99
3303.05	0.524	523.9	repeat	Run4	repeat/STIM_006.jpg	99
3306.008	0.708	708.0	repeat	Run4	repeat/STIM_006.jpg	99
3309.862	0.654	653.6	repeat	Run4	repeat/STIM_006.jpg	99
3313.08	0.543	543.3	repeat	Run4	repeat/STIM_007.jpg	99
3316.93	0.577	577.2	repeat	Run4	repeat/STIM_007.jpg	99
3321.5	0.749	749.1	repeat	Run4	repeat/STIM_007.jpg	100
3325.897	0.92	919.7	repeat	Run4	repeat/STIM_007.jpg	99
3330.331	0.61	609.5	repeat	Run4	repeat/STIM_007.jpg	100
3333.998	0.606	606.0	repeat	Run4	repeat/STIM_008.jpg	99
3336.966	0.885	885.2	repeat	Run4	repeat/STIM_008.jpg	100
3339.885	0.826	825.9	repeat	Run4	repeat/STIM_008.jpg	99
3344.429	0.539	538.6	repeat	Run4	repeat/STIM_008.jpg	100
3348.314	0.606	606.4	repeat	Run4	repeat/STIM_008.jpg	100
3352.346	0.965	964.8	repeat	Run4	repeat/STIM_009.jpg	100
3356.627	0.734	734.2	repeat	Run4	repeat/STIM_009.jpg	99
3360.764	0.52	520.4	repeat	Run4	repeat/STIM_009.jpg	100
3363.695	0.549	548.9	repeat	Run4	repeat/STIM_009.jpg	99
3366.56	0.94	940.1	repeat	Run4	repeat/STIM_009.jpg	99
3370.68	0.921	920.8	repeat	Run4	repeat/STIM_010.jpg	100
3375.264	0.91	910.3	repeat	Run4	repeat/STIM_010.jpg	99
3378.643	0.736	735.9	repeat	Run4	repeat/STIM_010.jpg	99
3382.48	0.496	496.0	repeat	Run4	repeat/STIM_010.jpg	99
3385.181	0.631	631.0	repeat	Run4	repeat/STIM_010.jpg	100
3389.612	0.85	850.0	repeat	Run4	repeat/STIM_011.jpg	99
3392.605	0.695	694.7	repeat	Run4	repeat/STIM_011.jpg	100
3395.67	0.549	549.0	repeat	Run4	repeat/STIM_011.jpg	99
3399.925	0.55	550.1	repeat	Run4	repeat/STIM_011.jpg	100
3403.427	0.97	970.3	repeat	Run4	repeat/STIM_011.jpg	100
3407.399	0.603	603.0	repeat	Run4	repeat/STIM_012.jpg	100
3411.009	0.567	566.6	repeat	Run4	repeat/STIM_012.jpg	100
3413.659	0.769	769.0	repeat	Run4	repeat/STIM_012.jpg	100
3417.399	0.635	634.8	repeat	Run4	repeat/STIM_012.jpg	99
3420.193	0.763	762.8	repeat	Run4	repeat/STIM_012.jpg	99
3424.857	0.661	660.7	repeat	Run4	repeat/STIM_013.jpg	100
3428.561	0.902	901.8	repeat	Run4	repeat/STIM_013.jpg	100
3432.681	0.736	736.3	repeat	Run4	repeat/STIM_013.jpg	100
3435.676	0.707	707.4	repeat	Run4	repeat/STIM_013.jpg	100
3439.273	0.772	772.2	repeat	Run4	repeat/STIM_013.jpg	99
3442.219	0.7	699.5	repeat	Run4	repeat/STIM_014.jpg	99
3446.684	0.545	545.0	repeat	Run4	repeat/STIM_014.jpg	99
3449.631	0.961	961.0	repeat	Run4	repeat/STIM_014.jpg	100
3454.259	0.783	783.3	repeat	Run4	repeat/STIM_014.jpg	100
3457.405	0.756	755.5	repeat	Run4	repeat/STIM_014.jpg	100
