onset	duration	response_time_ms	trial_type	learning_stage	stimulus	response_port
0.0	1.858	1858.4	generate	Run1	generate/STIM_000.jpg	100
5.294	1.352	1352.4	generate	Run1	generate/STIM_000.jpg	100
9.033	1.087	1087.3	generate	Run1	generate/STIM_000.jpg	100
13.286	2.057	2056.8	generate	Run1	generate/STIM_000.jpg	99
18.283	1.363	1362.6	generate	Run1	generate/STIM_000.jpg	99
21.708	2.201	2201.3	generate	Run1	generate/STIM_001.jpg	99
27.406	1.672	1672.2	generate	Run1	generate/STIM_001.jpg	100
32.037	1.229	1228.7	generate	Run1	generate/STIM_001.jpg	100
36.033	1.148	1147.6	generate	Run1	generate/STIM_001.jpg	100
40.28	1.62	1620.3	generate	Run1	generate/STIM_001.jpg	99
44.88	2.397	2397.3	generate	Run1	generate/STIM_002.jpg	99
49.943	2.369	2368.6	generate	Run1	generate/STIM_002.jpg	99
56.177	2.558	2557.8	generate	Run1	generate/STIM_002.jpg	99
61.579	1.099	1098.7	generate	Run1	generate/STIM_002.jpg	99
64.937	0.945	945.1	generate	Run1	generate/STIM_002.jpg	100
68.315	2.769	2768.7	generate	Run1	generate/STIM_003.jpg	100
73.7	2.485	2484.7	generate	Run1	generate/STIM_003.jpg	100
79.618	2.48	2480.5	generate	Run1	generate/STIM_003.jpg	99
85.245	1.904	1903.8	generate	Run1	generate/STIM_003.jpg	100
90.896	1.412	1412.4	generate	Run1	generate/STIM_003.jpg	99
95.636	1.39	1389.7	generate	Run1	generate/STIM_004.jpg	100
99.373	2.041	2041.0	generate	Run1	generate/STIM_004.jpg	100
103.725	2.362	2361.5	generate	Run1	generate/STIM_004.jpg	99
108.688	1.844	1843.7	generate	Run1	generate/STIM_004.jpg	99
113.486	1.784	1784.2	generate	Run1	generate/STIM_004.jpg	100
117.626	2.766	2766.5	generate	Run1	generate/STIM_005.jpg	100
122.769	1.133	1132.6	generate	Run1	generate/STIM_005.jpg	100
126.47	2.426	2426.5	generate	Run1	generate/STIM_005.jpg	99
132.61	1.07	1070.3	generate	Run1	generate/STIM_005.jpg	99
137.392	1.288	1287.5	generate	Run1	generate/STIM_005.jpg	100
141.958	1.781	1781.0	generate	Run1	generate/STIM_006.jpg	100
147.7	2.654	2654.5	generate	Run1	generate/STIM_006.jpg	100
153.878	1.375	1375.1	generate	Run1	generate/STIM_006.jpg	100
158.629	1.994	1993.9	generate	Run1	generate/STIM_006.jpg	99
164.475	1.666	1665.9	generate	Run1	generate/STIM_006.jpg	100
168.728	2.249	2248.9	generate	Run1	generate/STIM_007.jpg	100
174.931	2.08	2079.7	generate	Run1	generate/STIM_007.jpg	99
180.589	1.434	1434.0	generate	Run1	generate/STIM_007.jpg	99
186.017	1.388	1387.6	generate	Run1	generate/STIM_007.jpg	99
191.195	1.102	1101.6	generate	Run1	generate/STIM_007.jpg	100
194.812	2.375	2374.9	generate	Run1	generate/STIM_008.jpg	99
200.288	1.212	1211.6	generate	Run1	generate/STIM_008.jpg	99
205.077	1.353	1352.6	generate	Run1	generate/STIM_008.jpg	99
210.115	1.181	1181.4	generate	Run1	generate/STIM_008.jpg	99
213.896	1.163	1162.9	generate	Run1	generate/STIM_008.jpg	100
217.214	1.384	1384.3	generate	Run1	generate/STIM_009.jpg	99
222.449	1.868	1867.9	generate	Run1	generate/STIM_009.jpg	100
227.465	1.636	1636.0	generate	Run1	generate/STIM_009.jpg	99
231.108	1.86	1859.8	generate	Run1	generate/STIM_009.jpg	99
235.666	1.699	1699.1	generate	Run1	generate/STIM_009.jpg	99
239.576	2.134	2134.2	generate	Run1	generate/STIM_010.jpg	100
244.568	1.406	1406.5	generate	Run1	generate/STIM_010.jpg	100
248.906	1.441	1440.9	generate	Run1	generate/STIM_010.jpg	99
253.73	1.432	1432.4	generate	Run1	generate/STIM_010.jpg	99
258.892	2.247	2247.1	generate	Run1	generate/STIM_010.jpg	100
263.621	2.592	2591.9	generate	Run1	generate/STIM_011.jpg	99
268.839	1.694	1693.6	generate	Run1	generate/STIM_011.jpg	99
274.094	1.944	1944.3	generate	Run1	generate/STIM_011.jpg	100
278.209	2.265	2265.2	generate	Run1	generate/STIM_011.jpg	99
283.255	2.015	2015.3	generate	Run1	generate/STIM_011.jpg	100
288.053	1.945	1944.7	generate	Run1	generate/STIM_012.jpg	99
293.271	2.55	2550.0	generate	Run1	generate/STIM_012.jpg	99
298.38	1.729	1729.1	generate	Run1	generate/STIM_012.jpg	100
302.599	2.152	2152.1	generate	Run1	generate/STIM_012.jpg	100
308.315	1.127	1127.0	generate	Run1	generate/STIM_012.jpg	100
313.324	1.412	1412.0	generate	Run1	generate/STIM_013.jpg	100
318.026	2.298	2297.8	generate	Run1	generate/STIM_013.jpg	99
322.968	1.171	1171.1	generate	Run1	generate/STIM_013.jpg	99
326.543	1.713	1712.9	generate	Run1	generate/STIM_013.jpg	99
330.89	1.095	1094.9	generate	Run1	generate/STIM_013.jpg	100
335.203	1.251	1250.8	generate	Run1	generate/STIM_014.jpg	100
339.844	2.348	2348.0	generate	Run1	generate/STIM_014.jpg	100
344.565	1.704	1704.1	generate	Run1	generate/STIM_014.jpg	99
349.135	1.092	1092.0	generate	Run1	generate/STIM_014.jpg	100
352.895	1.879	1879.2	generate	Run1	generate/STIM_014.jpg	100
357.911	2.101	2101.0	generate	Run1	generate/STIM_015.jpg	99
362.646	2.56	2559.5	generate	Run1	generate/STIM_015.jpg	99
367.469	1.579	1578.6	generate	Run1	generate/STIM_015.jpg	100
372.185	1.584	1584.1	generate	Run1	generate/STIM_015.jpg	100
376.064	1.584	1583.5	generate	Run1	generate/STIM_015.jpg	99
380.015	2.593	2592.7	generate	Run1	generate/STIM_016.jpg	100
386.098	1.195	1195.2	generate	Run1	generate/STIM_016.jpg	100
390.758	1.629	1629.3	generate	Run1	generate/STIM_016.jpg	99
395.344	1.727	1727.3	generate	Run1	generate/STIM_016.jpg	100
399.346	1.691	1691.1	generate	Run1	generate/STIM_016.jpg	99
403.9	1.872	1872.0	generate	Run1	generate/STIM_017.jpg	99
407.917	2.548	2547.6	generate	Run1	generate/STIM_017.jpg	100
413.235	1.135	1134.8	generate	Run1	generate/STIM_017.jpg	100
416.841	2.033	2032.6	generate	Run1	generate/STIM_017.jpg	99
422.021	1.765	1765.0	generate	Run1	generate/STIM_017.jpg	99
426.098	1.763	1763.1	generate	Run1	generate/STIM_018.jpg	100
430.658	1.556	1556.1	generate	Run1	generate/STIM_018.jpg	100
435.169	2.445	2445.0	generate	Run1	generate/STIM_018.jpg	99
440.194	1.806	1805.8	generate	Run1	generate/STIM_018.jpg	99
444.387	2.256	2255.9	generate	Run1	generate/STIM_018.jpg	99
449.419	1.441	1441.2	generate	Run1	generate/STIM_019.jpg	100
453.432	2.294	2294.0	generate	Run1	generate/STIM_019.jpg	99
458.189	1.396	1396.5	generate	Run1	generate/STIM_019.jpg	99
463.096	1.741	1741.0	generate	Run1	generate/STIM_019.jpg	100
468.069	1.353	1353.4	generate	Run1	generate/STIM_019.jpg	99
472.328	1.726	1726.3	generate	Run1	generate/STIM_020.jpg	100
477.133	1.716	1716.1	generate	Run1	generate/STIM_020.jpg	99
481.944	1.254	1254.2	generate	Run1	generate/STIM_020.jpg	99
486.577	2.447	2446.6	generate	Run1	generate/STIM_020.jpg	100
492.057	2.184	2183.8	generate	Run1	generate/STIM_020.jpg	100
497.804	1.26	1260.2	generate	Run1	generate/STIM_021.jpg	99
502.209	2.207	2206.9	generate	Run1	generate/STIM_021.jpg	100
507.804	2.59	2590.5	generate	Run1	generate/STIM_021.jpg	100
513.952	1.297	1297.0	generate	Run1	generate/STIM_021.jpg	99
519.045	2.112	2112.3	generate	Run1	generate/STIM_021.jpg	99
524.947	2.163	2163.1	generate	Run1	generate/STIM_022.jpg	100
530.346	2.276	2275.7	generate	Run1	generate/STIM_022.jpg	100
535.176	1.388	1388.0	generate	Run1	generate/STIM_022.jpg	99
540.109	1.993	1993.0	generate	Run1	generate/STIM_022.jpg	99
545.972	2.248	2247.9	generate	Run1	generate/STIM_022.jpg	100
550.721	1.444	1444.4	generate	Run1	generate/STIM_023.jpg	100
555.194	2.693	2693.1	generate	Run1	generate/STIM_023.jpg	99
561.825	1.868	1867.8	generate	Run1	generate/STIM_023.jpg	99
567.376	1.398	1398.2	generate	Run1	generate/STIM_023.jpg	100
571.023	0.987	986.8	generate	Run1	generate/STIM_023.jpg	99
574.815	2.689	2688.9	generate	Run1	generate/STIM_024.jpg	99
579.735	1.514	1514.2	generate	Run1	generate/STIM_024.jpg	99
584.714	1.953	1952.9	generate	Run1	generate/STIM_024.jpg	99
590.106	1.962	1961.5	generate	Run1	generate/STIM_024.jpg	100
594.395	1.412	1412.4	generate	Run1	generate/STIM_024.jpg	100
598.187	0.598	598.2	repeat	Run1	repeat/STIM_000.jpg	99
601.239	0.958	957.8	repeat	Run1	repeat/STIM_000.jpg	99
604.218	0.617	616.7	repeat	Run1	repeat/STIM_000.jpg	99
606.9	0.798	798.3	repeat	Run1	repeat/STIM_000.jpg	99
611.196	0.761	761.0	repeat	Run1	repeat/STIM_000.jpg	99
615.55	0.491	491.2	repeat	Run1	repeat/STIM_001.jpg	100
619.353	0.873	872.6	repeat	Run1	repeat/STIM_001.jpg	100
623.045	0.561	561.3	repeat	Run1	repeat/STIM_001.jpg	99
627.441	0.534	534.3	repeat	Run1	repeat/STIM_001.jpg	99
631.856	0.814	813.8	repeat	Run1	repeat/STIM_001.jpg	100
636.47	0.748	747.8	repeat	Run1	repeat/STIM_002.jpg	100
641.206	0.762	761.8	repeat	Run1	repeat/STIM_002.jpg	99
645.501	0.753	753.0	repeat	Run1	repeat/STIM_002.jpg	99
649.492	0.858	858.1	repeat	Run1	repeat/STIM_002.jpg	99
653.795	0.864	863.8	repeat	Run1	repeat/STIM_002.jpg	100
656.743	0.879	879.0	repeat	Run1	repeat/STIM_003.jpg	99
660.028	0.787	786.7	repeat	Run1	repeat/STIM_003.jpg	99
663.578	0.79	790.1	repeat	Run1	repeat/STIM_003.jpg	99
667.712	0.732	731.7	repeat	Run1	repeat/STIM_003.jpg	99
670.503	0.708	708.0	repeat	Run1	repeat/STIM_003.jpg	100
673.446	0.77	770.5	repeat	Run1	repeat/STIM_004.jpg	100
677.625	0.777	777.2	repeat	Run1	repeat/STIM_004.jpg	99
681.784	0.734	734.1	repeat	Run1	repeat/STIM_004.jpg	100
685.216	0.64	639.8	repeat	Run1	repeat/STIM_004.jpg	99
687.954	0.639	638.9	repeat	Run1	repeat/STIM_004.jpg	100
691.277	0.65	649.9	repeat	Run1	repeat/STIM_005.jpg	100
694.854	0.673	672.7	repeat	Run1	repeat/STIM_005.jpg	99
698.571	0.618	618.1	repeat	Run1	repeat/STIM_005.jpg	99
702.149	0.826	825.9	repeat	Run1	repeat/STIM_005.jpg	100
706.081	0.887	887.2	repeat	Run1	repeat/STIM_005.jpg	99
710.769	0.778	778.3	repeat	Run1	repeat/STIM_006.jpg	99
714.527	0.812	812.5	repeat	Run1	repeat/STIM_006.jpg	99
719.128	0.746	746.1	repeat	Run1	repeat/STIM_006.jpg	100
721.887	0.531	531.0	repeat	Run1	repeat/STIM_006.jpg	99
725.206	0.696	696.3	repeat	Run1	repeat/STIM_006.jpg	99
728.702	0.872	872.0	repeat	Run1	repeat/STIM_007.jpg	100
731.801	0.912	911.7	repeat	Run1	repeat/STIM_007.jpg	99
735.4	0.741	741.1	repeat	Run1	repeat/STIM_007.jpg	99
739.851	0.953	952.6	repeat	Run1	repeat/STIM_007.jpg	100
742.973	0.636	636.0	repeat	Run1	repeat/STIM_007.jpg	100
746.047	0.731	730.8	repeat	Run1	repeat/STIM_008.jpg	100
749.86	0.964	963.7	repeat	Run1	repeat/STIM_008.jpg	99
754.135	0.85	850.4	repeat	Run1	repeat/STIM_008.jpg	100
757.798	0.486	486.5	repeat	Run1	repeat/STIM_008.jpg	99
762.234	0.639	638.9	repeat	Run1	repeat/STIM_008.jpg	99
765.931	0.693	693.1	repeat	Run1	repeat/STIM_009.jpg	99
769.948	0.841	841.3	repeat	Run1	repeat/STIM_009.jpg	100
774.367	0.685	685.2	repeat	Run1	repeat/STIM_009.jpg	99
777.239	0.579	579.0	repeat	Run1	repeat/STIM_009.jpg	100
780.777	0.963	963.4	repeat	Run1	repeat/STIM_009.jpg	100
783.931	0.804	803.5	repeat	Run1	repeat/STIM_010.jpg	100
788.411	0.875	875.4	repeat	Run1	repeat/STIM_010.jpg	100
792.776	0.838	837.6	repeat	Run1	repeat/STIM_010.jpg	100
796.839	0.49	489.5	repeat	Run1	repeat/STIM_010.jpg	100
799.638	0.539	539.4	repeat	Run1	repeat/STIM_010.jpg	100
802.3	0.536	536.1	repeat	Run1	repeat/STIM_011.jpg	100
806.614	0.792	791.5	repeat	Run1	repeat/STIM_011.jpg	100
811.074	0.72	720.2	repeat	Run1	repeat/STIM_011.jpg	100
815.678	0.66	660.2	repeat	Run1	repeat/STIM_011.jpg	100
819.846	0.792	791.7	repeat	Run1	repeat/STIM_011.jpg	100
824.195	0.92	920.2	repeat	Run1	repeat/STIM_012.jpg	100
827.785	0.758	758.0	repeat	Run1	repeat/STIM_012.jpg	99
832.526	0.71	710.2	repeat	Run1	repeat/STIM_012.jpg	99
837.023	0.876	875.8	repeat	Run1	repeat/STIM_012.jpg	100
840.001	0.586	585.8	repeat	Run1	repeat/STIM_012.jpg	100
843.799	0.898	897.8	repeat	Run1	repeat/STIM_013.jpg	100
847.349	0.859	859.0	repeat	Run1	repeat/STIM_013.jpg	99
850.875	0.532	531.6	repeat	Run1	repeat/STIM_013.jpg	100
854.686	0.551	551.2	repeat	Run1	repeat/STIM_013.jpg	99
857.35	0.826	825.9	repeat	Run1	repeat/STIM_013.jpg	100
861.562	0.839	839.0	repeat	Run1	repeat/STIM_014.jpg	99
865.98	0.534	534.3	repeat	Run1	repeat/STIM_014.jpg	100
869.294	0.719	719.4	repeat	Run1	repeat/STIM_014.jpg	99
872.549	0.61	610.1	repeat	Run1	repeat/STIM_014.jpg	99
877.031	0.781	780.9	repeat	Run1	repeat/STIM_014.jpg	99
879.945	2.143	2143.0	generate	Run2	generate/STIM_000.jpg	100
884.309	2.198	2197.8	generate	Run2	generate/STIM_000.jpg	99
889.75	1.448	1448.0	generate	Run2	generate/STIM_000.jpg	99
894.328	1.248	1247.9	generate	Run2	generate/STIM_000.jpg	99
899.378	1.047	1046.7	generate	Run2	generate/STIM_000.jpg	100
902.932	1.935	1935.1	generate	Run2	generate/STIM_001.jpg	100
907.727	1.638	1637.9	generate	Run2	generate/STIM_001.jpg	99
912.181	1.049	1049.2	generate	Run2	generate/STIM_001.jpg	100
916.997	0.944	943.9	generate	Run2	generate/STIM_001.jpg	100
921.28	1.753	1753.1	generate	Run2	generate/STIM_001.jpg	99
925.261	1.066	1066.4	generate	Run2	generate/STIM_002.jpg	100
928.647	1.755	1755.4	generate	Run2	generate/STIM_002.jpg	100
934.133	1.934	1934.3	generate	Run2	generate/STIM_002.jpg	99
938.921	1.326	1326.2	generate	Run2	generate/STIM_002.jpg	99
943.276	1.445	1444.8	generate	Run2	generate/STIM_002.jpg	99
947.856	2.341	2340.9	generate	Run2	generate/STIM_003.jpg	100
954.132	2.192	2192.4	generate	Run2	generate/STIM_003.jpg	100
960.191	1.438	1437.7	generate	Run2	generate/STIM_003.jpg	99
964.143	1.087	1086.8	generate	Run2	generate/STIM_003.jpg	100
968.727	1.917	1916.9	generate	Run2	generate/STIM_003.jpg	100
973.504	1.156	1155.8	generate	Run2	generate/STIM_004.jpg	100
977.36	1.03	1030.5	generate	Run2	generate/STIM_004.jpg	100
980.698	1.21	1209.9	generate	Run2	generate/STIM_004.jpg	99
984.649	1.84	1840.1	generate	Run2	generate/STIM_004.jpg	99
988.991	1.821	1821.0	generate	Run2	generate/STIM_004.jpg	99
993.37	1.84	1839.9	generate	Run2	generate/STIM_005.jpg	100
998.705	1.551	1550.7	generate	Run2	generate/STIM_005.jpg	100
1002.736	1.612	1611.7	generate	Run2	generate/STIM_005.jpg	99
1007.783	1.898	1898.5	generate	Run2	generate/STIM_005.jpg	100
1011.865	1.1	1099.8	generate	Run2	generate/STIM_005.jpg	99
1015.745	2.434	2433.6	generate	Run2	generate/STIM_006.jpg	100
1021.846	2.102	2101.7	generate	Run2	generate/STIM_006.jpg	99
1027.44	0.892	891.9	generate	Run2	generate/STIM_006.jpg	99
1031.682	1.082	1082.2	generate	Run2	generate/STIM_006.jpg	100
1036.107	1.488	1487.5	generate	Run2	generate/STIM_006.jpg	99
1040.749	2.396	2396.3	generate	Run2	generate/STIM_007.jpg	100
1045.679	1.814	1814.4	generate	Run2	generate/STIM_007.jpg	99
1049.597	1.049	1049.3	generate	Run2	generate/STIM_007.jpg	100
1053.288	1.186	1185.8	generate	Run2	generate/STIM_007.jpg	99
1058.42	1.884	1884.2	generate	Run2	generate/STIM_007.jpg	100
1064.299	1.028	1028.4	generate	Run2	generate/STIM_008.jpg	100
1068.644	1.159	1159.4	generate	Run2	generate/STIM_008.jpg	99
1072.159	2.177	2177.2	generate	Run2	generate/STIM_008.jpg	100
1077.426	1.61	1609.8	generate	Run2	generate/STIM_008.jpg	99
1081.934	1.224	1223.5	generate	Run2	generate/STIM_008.jpg	99
1085.375	1.794	1794.3	generate	Run2	generate/STIM_009.jpg	99
1090.27	2.22	2219.7	generate	Run2	generate/STIM_009.jpg	100
1094.651	1.889	1888.7	generate	Run2	generate/STIM_009.jpg	99
1100.413	1.997	1996.7	generate	Run2	generate/STIM_009.jpg	100
1104.46	0.924	924.0	generate	Run2	generate/STIM_009.jpg	100
1107.719	0.989	989.3	generate	Run2	generate/STIM_010.jpg	100
1112.221	1.429	1429.2	generate	Run2	generate/STIM_010.jpg	100
1116.142	1.03	1029.7	generate	Run2	generate/STIM_010.jpg	100
1119.814	1.858	1857.5	generate	Run2	generate/STIM_010.jpg	100
1124.387	1.128	1127.6	generate	Run2	generate/STIM_010.jpg	99
1128.988	1.524	1524.5	generate	Run2	generate/STIM_011.jpg	99
1132.57	1.293	1293.2	generate	Run2	generate/STIM_011.jpg	99
1136.997	2.073	2073.1	generate	Run2	generate/STIM_011.jpg	100
1141.185	1.237	1237.1	generate	Run2	generate/STIM_011.jpg	100
1146.387	1.292	1292.1	generate	Run2	generate/STIM_011.jpg	99
1151.65	2.452	2452.5	generate	Run2	generate/STIM_012.jpg	100
1157.443	2.016	2016.0	generate	Run2	generate/STIM_012.jpg	100
1161.82	1.52	1519.5	generate	Run2	generate/STIM_012.jpg	100
1167.029	1.074	1073.8	generate	Run2	generate/STIM_012.jpg	99
1172.081	1.312	1311.9	generate	Run2	generate/STIM_012.jpg	99
1176.246	2.405	2404.6	generate	Run2	generate/STIM_013.jpg	100
1181.06	1.768	1767.8	generate	Run2	generate/STIM_013.jpg	99
1184.998	1.148	1148.1	generate	Run2	generate/STIM_013.jpg	100
1188.297	1.911	1910.8	generate	Run2	generate/STIM_013.jpg	99
1192.231	1.023	1023.1	generate	Run2	generate/STIM_013.jpg	99
1197.155	1.446	1446.1	generate	Run2	generate/STIM_014.jpg	100
1202.241	1.592	1592.0	generate	Run2	generate/STIM_014.jpg	99
1207.633	1.671	1671.1	generate	Run2	generate/STIM_014.jpg	99
1211.452	1.921	1920.7	generate	Run2	generate/STIM_014.jpg	100
1215.645	1.529	1529.2	generate	Run2	generate/STIM_014.jpg	99
1220.674	1.69	1689.9	generate	Run2	generate/STIM_015.jpg	100
1224.76	2.282	2282.1	generate	Run2	generate/STIM_015.jpg	100
1230.26	0.939	939.4	generate	Run2	generate/STIM_015.jpg	100
1234.696	1.654	1654.1	generate	Run2	generate/STIM_015.jpg	99
1239.004	1.868	1867.6	generate	Run2	generate/STIM_015.jpg	100
1244.409	1.113	1112.6	generate	Run2	generate/STIM_016.jpg	100
1248.228	1.26	1259.5	generate	Run2	generate/STIM_016.jpg	99
1253.005	1.711	1710.9	generate	Run2	generate/STIM_016.jpg	99
1257.876	1.583	1583.4	generate	Run2	generate/STIM_016.jpg	100
1261.791	1.711	1711.3	generate	Run2	generate/STIM_016.jpg	100
1267.386	1.398	1398.1	generate	Run2	generate/STIM_017.jpg	100
1270.939	2.275	2274.8	generate	Run2	generate/STIM_017.jpg	100
1276.09	1.291	1291.4	generate	Run2	generate/STIM_017.jpg	99
1281.379	0.827	827.1	generate	Run2	generate/STIM_017.jpg	99
1285.425	1.055	1055.0	generate	Run2	generate/STIM_017.jpg	99
1288.592	1.6	1600.1	generate	Run2	generate/STIM_018.jpg	100
1292.512	1.602	1601.5	generate	Run2	generate/STIM_018.jpg	100
1296.704	1.622	1621.5	generate	Run2	generate/STIM_018.jpg	100
1300.867	1.021	1021.3	generate	Run2	generate/STIM_018.jpg	100
1304.177	1.798	1797.6	generate	Run2	generate/STIM_018.jpg	100
1308.259	1.027	1027.4	generate	Run2	generate/STIM_019.jpg	100
1311.849	1.187	1186.8	generate	Run2	generate/STIM_019.jpg	100
1316.311	1.267	1267.2	generate	Run2	generate/STIM_019.jpg	99
1319.783	1.519	1518.6	generate	Run2	generate/STIM_019.jpg	99
1325.187	1.905	1905.3	generate	Run2	generate/STIM_019.jpg	100
1330.584	2.457	2456.8	generate	Run2	generate/STIM_020.jpg	100
1335.263	1.779	1779.2	generate	Run2	generate/STIM_020.jpg	100
1339.725	1.238	1237.5	generate	Run2	generate/STIM_020.jpg	100
1344.765	1.941	1940.9	generate	Run2	generate/STIM_020.jpg	99
1349.09	1.44	1439.8	generate	Run2	generate/STIM_020.jpg	100
1352.809	1.587	1587.3	generate	Run2	generate/STIM_021.jpg	99
1356.722	1.346	1346.0	generate	Run2	generate/STIM_021.jpg	100
1361.731	1.846	1846.1	generate	Run2	generate/STIM_021.jpg	100
1367.279	1.348	1348.3	generate	Run2	generate/STIM_021.jpg	100
1371.424	1.097	1097.4	generate	Run2	generate/STIM_021.jpg	99
1376.471	2.158	2158.1	generate	Run2	generate/STIM_022.jpg	100
1382.252	1.027	1027.4	generate	Run2	generate/STIM_022.jpg	100
1386.689	1.407	1407.2	generate	Run2	generate/STIM_022.jpg	99
1390.312	1.27	1269.6	generate	Run2	generate/STIM_022.jpg	99
1393.884	1.315	1315.0	generate	Run2	generate/STIM_022.jpg	99
1397.287	2.352	2351.7	generate	Run2	generate/STIM_023.jpg	99
1402.844	1.253	1252.6	generate	Run2	generate/STIM_023.jpg	99
1407.824	1.856	1855.9	generate	Run2	generate/STIM_023.jpg	99
1413.107	1.221	1221.2	generate	Run2	generate/STIM_023.jpg	100
1417.024	1.116	1116.1	generate	Run2	generate/STIM_023.jpg	99
1420.72	1.324	1323.8	generate	Run2	generate/STIM_024.jpg	99
1425.227	1.047	1047.0	generate	Run2	generate/STIM_024.jpg	100
1429.907	0.89	890.5	generate	Run2	generate/STIM_024.jpg	100
1434.131	0.909	909.4	generate	Run2	generate/STIM_024.jpg	99
1438.61	1.716	1715.8	generate	Run2	generate/STIM_024.jpg	100
1442.448	0.817	816.8	repeat	Run2	repeat/STIM_000.jpg	100
1445.726	0.676	675.6	repeat	Run2	repeat/STIM_000.jpg	100
1448.647	0.646	646.5	repeat	Run2	repeat/STIM_000.jpg	100
1452.404	0.523	523.4	repeat	Run2	repeat/STIM_000.jpg	99
1456.677	0.907	906.8	repeat	Run2	repeat/STIM_000.jpg	100
1461.209	0.562	561.9	repeat	Run2	repeat/STIM_001.jpg	100
1463.881	0.852	852.4	repeat	Run2	repeat/STIM_001.jpg	99
1468.282	0.639	638.7	repeat	Run2	repeat/STIM_001.jpg	100
1471.917	0.582	581.9	repeat	Run2	repeat/STIM_001.jpg	99
1474.982	0.964	963.5	repeat	Run2	repeat/STIM_001.jpg	100
1478.491	0.852	851.9	repeat	Run2	repeat/STIM_002.jpg	100
1481.997	0.728	728.1	repeat	Run2	repeat/STIM_002.jpg	99
1485.042	0.558	558.2	repeat	Run2	repeat/STIM_002.jpg	100
1488.658	0.636	635.5	repeat	Run2	repeat/STIM_002.jpg	100
1492.387	0.49	489.5	repeat	Run2	repeat/STIM_002.jpg	100
1496.46	0.937	937.4	repeat	Run2	repeat/STIM_003.jpg	100
1499.483	0.954	953.7	repeat	Run2	repeat/STIM_003.jpg	100
1503.183	0.819	818.6	repeat	Run2	repeat/STIM_003.jpg	100
1507.207	0.85	849.9	repeat	Run2	repeat/STIM_003.jpg	100
1511.946	0.546	546.5	repeat	Run2	repeat/STIM_003.jpg	100
1514.848	0.594	593.7	repeat	Run2	repeat/STIM_004.jpg	100
1518.532	0.927	927.3	repeat	Run2	repeat/STIM_004.jpg	99
1521.895	0.864	864.5	repeat	Run2	repeat/STIM_004.jpg	99
1525.226	0.666	666.3	repeat	Run2	repeat/STIM_004.jpg	100
1528.879	0.822	821.7	repeat	Run2	repeat/STIM_004.jpg	100
1533.262	0.747	747.0	repeat	Run2	repeat/STIM_005.jpg	99
1537.979	0.869	868.9	repeat	Run2	repeat/STIM_005.jpg	100
1541.987	0.844	844.0	repeat	Run2	repeat/STIM_005.jpg	99
1546.695	0.551	551.4	repeat	Run2	repeat/STIM_005.jpg	100
1550.677	0.752	751.5	repeat	Run2	repeat/STIM_005.jpg	100
1554.29	0.592	591.5	repeat	Run2	repeat/STIM_006.jpg	100
1557.858	0.871	871.0	repeat	Run2	repeat/STIM_006.jpg	100
1562.477	0.853	853.2	repeat	Run2	repeat/STIM_006.jpg	99
1566.634	0.75	749.5	repeat	Run2	repeat/STIM_006.jpg	99
1570.506	0.489	488.7	repeat	Run2	repeat/STIM_006.jpg	99
1574.15	0.594	594.1	repeat	Run2	repeat/STIM_007.jpg	99
1577.77	0.79	790.3	repeat	Run2	repeat/STIM_007.jpg	99
1581.497	0.616	616.0	repeat	Run2	repeat/STIM_007.jpg	99
1585.61	0.713	712.9	repeat	Run2	repeat/STIM_007.jpg	100
1588.618	0.88	880.0	repeat	Run2	repeat/STIM_007.jpg	100
1591.753	0.858	858.4	repeat	Run2	repeat/STIM_008.jpg	99
1594.959	0.699	698.9	repeat	Run2	repeat/STIM_008.jpg	99
1599.599	0.8	799.5	repeat	Run2	repeat/STIM_008.jpg	99
1603.415	0.826	826.1	repeat	Run2	repeat/STIM_008.jpg	99
1607.171	0.785	785.3	repeat	Run2	repeat/STIM_008.jpg	100
1611.715	0.825	825.1	repeat	Run2	repeat/STIM_009.jpg	99
1615.002	0.611	611.1	repeat	Run2	repeat/STIM_009.jpg	99
1617.821	0.769	769.1	repeat	Run2	repeat/STIM_009.jpg	100
1621.8	0.738	738.4	repeat	Run2	repeat/STIM_009.jpg	99
1625.246	0.581	581.0	repeat	Run2	repeat/STIM_009.jpg	100
1629.243	0.936	936.4	repeat	Run2	repeat/STIM_010.jpg	100
1633.854	0.5	499.8	repeat	Run2	repeat/STIM_010.jpg	99
1637.658	0.567	566.7	repeat	Run2	repeat/STIM_010.jpg	99
1641.964	0.792	791.8	repeat	Run2	repeat/STIM_010.jpg	99
1645.661	0.842	841.8	repeat	Run2	repeat/STIM_010.jpg	100
1648.821	0.585	585.0	repeat	Run2	repeat/STIM_011.jpg	100
1652.559	0.584	584.0	repeat	Run2	repeat/STIM_011.jpg	100
1656.456	0.8	800.2	repeat	Run2	repeat/STIM_011.jpg	99
1660.819	0.538	537.7	repeat	Run2	repeat/STIM_011.jpg	100
1664.144	0.897	896.9	repeat	Run2	repeat/STIM_011.jpg	100
1668.648	0.527	526.9	repeat	Run2	repeat/STIM_012.jpg	99
1671.43	0.937	937.2	repeat	Run2	repeat/STIM_012.jpg	100
1675.562	0.954	954.0	repeat	Run2	repeat/STIM_012.jpg	99
1679.609	0.965	964.8	repeat	Run2	repeat/STIM_012.jpg	100
1684.282	0.688	688.1	repeat	Run2	repeat/STIM_012.jpg	99
1688.052	0.775	775.1	repeat	Run2	repeat/STIM_013.jpg	100
1691.697	0.652	651.9	repeat	Run2	repeat/STIM_013.jpg	99
1695.773	0.864	863.7	repeat	Run2	repeat/STIM_013.jpg	99
1699.874	0.88	879.9	repeat	Run2	repeat/STIM_013.jpg	99
1703.016	0.738	737.6	repeat	Run2	repeat/STIM_013.jpg	100
1707.185	0.67	669.9	repeat	Run2	repeat/STIM_014.jpg	100
1710.761	0.738	738.4	repeat	Run2	repeat/STIM_014.jpg	99
1714.661	0.812	812.4	repeat	Run2	repeat/STIM_014.jpg	100
1718.625	0.945	944.8	repeat	Run2	repeat/STIM_014.jpg	99
1723.181	0.496	495.5	repeat	Run2	repeat/STIM_014.jpg	99
1726.553	2.026	2026.2	generate	Run3	generate/STIM_000.jpg	99
1732.446	1.103	1102.6	generate	Run3	generate/STIM_000.jpg	99
1735.905	0.996	996.4	generate	Run3	generate/STIM_000.jpg	100
1739.762	1.272	1272.3	generate	Run3	generate/STIM_000.jpg	99
1743.204	0.958	957.9	generate	Run3	generate/STIM_000.jpg	100
1746.726	1.065	1065.1	generate	Run3	generate/STIM_001.jpg	99
1751.578	1.069	1068.8	generate	Run3	generate/STIM_001.jpg	99
1755.417	1.672	1671.7	generate	Run3	generate/STIM_001.jpg	99
1760.218	1.932	1931.9	generate	Run3	generate/STIM_001.jpg	100
1764.686	1.754	1754.1	generate	Run3	generate/STIM_001.jpg	100
1770.129	1.95	1950.4	generate	Run3	generate/STIM_002.jpg	99
1774.146	1.059	1059.2	generate	Run3	generate/STIM_002.jpg	99
1777.66	1.159	1158.7	generate	Run3	generate/STIM_002.jpg	100
1781.846	1.671	1671.3	generate	Run3	generate/STIM_002.jpg	99
1786.581	0.892	892.0	generate	Run3	generate/STIM_002.jpg	100
1790.865	1.486	1486.5	generate	Run3	generate/STIM_003.jpg	99
1796.123	1.414	1414.5	generate	Run3	generate/STIM_003.jpg	100
1799.909	1.508	1507.7	generate	Run3	generate/STIM_003.jpg	100
1804.773	0.883	882.6	generate	Run3	generate/STIM_003.jpg	99
1809.01	1.091	1091.3	generate	Run3	generate/STIM_003.jpg	99
1812.34	1.937	1936.6	generate	Run3	generate/STIM_004.jpg	100
1816.289	1.573	1572.9	generate	Run3	generate/STIM_004.jpg	99
1820.444	1.237	1236.6	generate	Run3	generate/STIM_004.jpg	100
1824.935	1.496	1495.5	generate	Run3	generate/STIM_004.jpg	99
1828.784	1.213	1212.9	generate	Run3	generate/STIM_004.jpg	100
1833.04	1.049	1048.8	generate	Run3	generate/STIM_005.jpg	99
1836.175	1.037	1036.6	generate	Run3	generate/STIM_005.jpg	100
1839.386	0.898	897.7	generate	Run3	generate/STIM_005.jpg	99
1843.204	1.748	1748.3	generate	Run3	generate/STIM_005.jpg	100
1847.631	1.233	1233.4	generate	Run3	generate/STIM_005.jpg	99
1851.335	1.09	1090.2	generate	Run3	generate/STIM_006.jpg	100
1856.353	0.929	928.9	generate	Run3	generate/STIM_006.jpg	99
1859.291	1.114	1114.1	generate	Run3	generate/STIM_006.jpg	99
1863.028	1.109	1109.3	generate	Run3	generate/STIM_006.jpg	100
1867.928	1.03	1029.6	generate	Run3	generate/STIM_006.jpg	99
1871.403	1.908	1907.8	generate	Run3	generate/STIM_007.jpg	99
1875.556	1.788	1788.1	generate	Run3	generate/STIM_007.jpg	100
1879.814	1.086	1085.7	generate	Run3	generate/STIM_007.jpg	100
1883.536	0.861	860.6	generate	Run3	generate/STIM_007.jpg	100
1887.936	1.423	1422.8	generate	Run3	generate/STIM_007.jpg	99
1892.902	1.479	1479.0	generate	Run3	generate/STIM_008.jpg	100
1898.072	1.919	1918.9	generate	Run3	generate/STIM_008.jpg	100
1902.855	0.95	950.4	generate	Run3	generate/STIM_008.jpg	100
1907.422	1.681	1680.9	generate	Run3	generate/STIM_008.jpg	99
1911.218	1.212	1211.8	generate	Run3	generate/STIM_008.jpg	99
1915.968	1.194	1194.5	generate	Run3	generate/STIM_009.jpg	99
1919.991	1.853	1853.2	generate	Run3	generate/STIM_009.jpg	99
1923.997	1.58	1580.1	generate	Run3	generate/STIM_009.jpg	100
1928.222	1.559	1558.7	generate	Run3	generate/STIM_009.jpg	99
1932.022	1.03	1030.3	generate	Run3	generate/STIM_009.jpg	99
1935.532	1.674	1674.2	generate	Run3	generate/STIM_010.jpg	99
1939.343	1.415	1414.9	generate	Run3	generate/STIM_010.jpg	100
1943.566	1.52	1520.3	generate	Run3	generate/STIM_010.jpg	100
1947.895	1.716	1715.6	generate	Run3	generate/STIM_010.jpg	100
1952.179	0.864	863.9	generate	Run3	generate/STIM_010.jpg	99
1955.984	0.98	979.6	generate	Run3	generate/STIM_011.jpg	100
1960.211	1.711	1711.0	generate	Run3	generate/STIM_011.jpg	100
1965.467	1.348	1348.3	generate	Run3	generate/STIM_011.jpg	99
1969.88	1.402	1402.0	generate	Run3	generate/STIM_011.jpg	100
1973.877	0.953	953.0	generate	Run3	generate/STIM_011.jpg	100
1977.428	1.459	1459.0	generate	Run3	generate/STIM_012.jpg	99
1981.682	1.647	1647.4	generate	Run3	generate/STIM_012.jpg	100
1986.121	1.669	1668.8	generate	Run3	generate/STIM_012.jpg	99
1990.894	0.974	974.0	generate	Run3	generate/STIM_012.jpg	99
1994.213	1.829	1829.4	generate	Run3	generate/STIM_012.jpg	99
1999.723	1.67	1670.1	generate	Run3	generate/STIM_013.jpg	99
2004.277	1.825	1824.9	generate	Run3	generate/STIM_013.jpg	99
2008.709	1.028	1028.1	generate	Run3	generate/STIM_013.jpg	99
2013.682	1.12	1120.1	generate	Run3	generate/STIM_013.jpg	100
2018.216	1.827	1826.7	generate	Run3	generate/STIM_013.jpg	100
2023.932	1.878	1877.8	generate	Run3	generate/STIM_014.jpg	99
2028.29	1.647	1646.9	generate	Run3	generate/STIM_014.jpg	100
2032.955	1.656	1655.7	generate	Run3	generate/STIM_014.jpg	100
2038.331	1.716	1716.1	generate	Run3	generate/STIM_014.jpg	99
2043.314	1.469	1469.2	generate	Run3	generate/STIM_014.jpg	100
2047.1	1.382	1382.3	generate	Run3	generate/STIM_015.jpg	100
2051.963	1.031	1030.6	generate	Run3	generate/STIM_015.jpg	100
2055.549	1.033	1032.6	generate	Run3	generate/STIM_015.jpg	99
2060.215	1.345	1345.4	generate	Run3	generate/STIM_015.jpg	99
2065.271	1.058	1057.8	generate	Run3	generate/STIM_015.jpg	99
2069.58	1.853	1852.7	generate	Run3	generate/STIM_016.jpg	100
2073.887	0.998	998.5	generate	Run3	generate/STIM_016.jpg	100
2077.121	1.207	1207.4	generate	Run3	generate/STIM_016.jpg	100
2081.727	1.874	1874.0	generate	Run3	generate/STIM_016.jpg	99
2085.975	1.637	1637.1	generate	Run3	generate/STIM_016.jpg	100
2089.692	1.465	1464.6	generate	Run3	generate/STIM_017.jpg	99
2094.869	1.069	1069.2	generate	Run3	generate/STIM_017.jpg	99
2098.592	1.178	1178.4	generate	Run3	generate/STIM_017.jpg	100
2103.626	1.831	1830.7	generate	Run3	generate/STIM_017.jpg	99
2108.615	1.578	1578.2	generate	Run3	generate/STIM_017.jpg	99
2112.819	1.566	1565.8	generate	Run3	generate/STIM_018.jpg	99
2116.466	1.902	1901.5	generate	Run3	generate/STIM_018.jpg	100
2122.057	1.288	1288.0	generate	Run3	generate/STIM_018.jpg	100
2126.677	1.585	1585.4	generate	Run3	generate/STIM_018.jpg	99
2131.878	1.476	1476.0	generate	Run3	generate/STIM_018.jpg	99
2135.659	1.096	1095.9	generate	Run3	generate/STIM_019.jpg	99
2140.398	0.864	863.7	generate	Run3	generate/STIM_019.jpg	99
2143.331	0.995	995.0	generate	Run3	generate/STIM_019.jpg	99
2146.55	0.971	971.3	generate	Run3	generate/STIM_019.jpg	100
2150.867	0.874	874.4	generate	Run3	generate/STIM_019.jpg	99
2155.014	1.236	1236.4	generate	Run3	generate/STIM_020.jpg	100
2158.454	1.266	1265.6	generate	Run3	generate/STIM_020.jpg	99
2162.582	2.011	2010.6	generate	Run3	generate/STIM_020.jpg	100
2168.372	0.875	875.4	generate	Run3	generate/STIM_020.jpg	100
2173.078	1.945	1944.7	generate	Run3	generate/STIM_020.jpg	99
2177.908	1.031	1030.9	generate	Run3	generate/STIM_021.jpg	100
2181.531	1.613	1612.6	generate	Run3	generate/STIM_021.jpg	100
2186.937	1.995	1995.4	generate	Run3	generate/STIM_021.jpg	99
2191.288	1.766	1766.3	generate	Run3	generate/STIM_021.jpg	100
2195.333	1.673	1672.9	generate	Run3	generate/STIM_021.jpg	100
2200.147	1.786	1786.4	generate	Run3	generate/STIM_022.jpg	100
2204.681	0.977	977.3	generate	Run3	generate/STIM_022.jpg	100
2209.2	1.365	1365.3	generate	Run3	generate/STIM_022.jpg	99
2214.373	0.943	942.9	generate	Run3	generate/STIM_022.jpg	99
2217.826	1.928	1927.6	generate	Run3	generate/STIM_022.jpg	99
2221.785	1.599	1599.4	generate	Run3	generate/STIM_023.jpg	100
2227.125	1.047	1047.1	generate	Run3	generate/STIM_023.jpg	99
2231.468	1.833	1833.1	generate	Run3	generate/STIM_023.jpg	100
2236.183	0.984	983.7	generate	Run3	generate/STIM_023.jpg	100
2240.643	1.142	1141.6	generate	Run3	generate/STIM_023.jpg	100
2243.924	1.866	1866.1	generate	Run3	generate/STIM_024.jpg	99
2248.53	1.14	1139.8	generate	Run3	generate/STIM_024.jpg	99
2252.819	1.63	1630.3	generate	Run3	generate/STIM_024.jpg	99
2256.872	1.049	1048.6	generate	Run3	generate/STIM_024.jpg	99
2260.432	1.986	1985.6	generate	Run3	generate/STIM_024.jpg	100
2264.502	0.891	890.6	repeat	Run3	repeat/STIM_000.jpg	100
2267.964	0.782	781.5	repeat	Run3	repeat/STIM_000.jpg	100
2270.923	0.59	590.3	repeat	Run3	repeat/STIM_000.jpg	100
2274.723	0.636	636.2	repeat	Run3	repeat/STIM_000.jpg	99
2277.517	0.62	620.3	repeat	Run3	repeat/STIM_000.jpg	100
2281.912	0.847	847.1	repeat	Run3	repeat/STIM_001.jpg	100
2286.522	0.531	530.9	repeat	Run3	repeat/STIM_001.jpg	99
2289.441	0.57	570.2	repeat	Run3	repeat/STIM_001.jpg	99
2292.27	0.907	907.2	repeat	Run3	repeat/STIM_001.jpg	99
2295.264	0.894	893.9	repeat	Run3	repeat/STIM_001.jpg	99
2299.736	0.713	713.1	repeat	Run3	repeat/STIM_002.jpg	99
2302.527	0.784	783.6	repeat	Run3	repeat/STIM_002.jpg	99
2305.788	0.815	814.6	repeat	Run3	repeat/STIM_002.jpg	100
2310.092	0.567	567.1	repeat	Run3	repeat/STIM_002.jpg	99
2313.564	0.555	554.7	repeat	Run3	repeat/STIM_002.jpg	100
2317.594	0.949	949.3	repeat	Run3	repeat/STIM_003.jpg	99
2321.858	0.744	743.8	repeat	Run3	repeat/STIM_003.jpg	99
2325.503	0.68	680.1	repeat	Run3	repeat/STIM_003.jpg	99
2329.958	0.871	870.9	repeat	Run3	repeat/STIM_003.jpg	100
2334.235	0.604	604.3	repeat	Run3	repeat/STIM_003.jpg	100
2337.537	0.752	752.1	repeat	Run3	repeat/STIM_004.jpg	100
2342.235	0.558	558.1	repeat	Run3	repeat/STIM_004.jpg	100
2346.668	0.562	562.1	repeat	Run3	repeat/STIM_004.jpg	99
2349.973	0.91	909.6	repeat	Run3	repeat/STIM_004.jpg	99
2354.043	0.589	588.8	repeat	Run3	repeat/STIM_004.jpg	99
2356.827	0.746	746.1	repeat	Run3	repeat/STIM_005.jpg	99
2359.904	0.593	592.8	repeat	Run3	repeat/STIM_005.jpg	100
2363.291	0.864	864.1	repeat	Run3	repeat/STIM_005.jpg	100
2366.702	0.843	842.8	repeat	Run3	repeat/STIM_005.jpg	100
2370.805	0.823	822.8	repeat	Run3	repeat/STIM_005.jpg	100
2375.508	0.831	831.2	repeat	Run3	repeat/STIM_006.jpg	99
2378.386	0.634	633.6	repeat	Run3	repeat/STIM_006.jpg	99
2381.608	0.509	509.3	repeat	Run3	repeat/STIM_006.jpg	99
2386.086	0.56	560.4	repeat	Run3	repeat/STIM_006.jpg	100
2389.116	0.877	877.1	repeat	Run3	repeat/STIM_006.jpg	99
2392.463	0.87	869.7	repeat	Run3	repeat/STIM_007.jpg	100
2395.927	0.65	649.7	repeat	Run3	repeat/STIM_007.jpg	99
2399.42	0.625	625.0	repeat	Run3	repeat/STIM_007.jpg	99
2403.163	0.739	739.1	repeat	Run3	repeat/STIM_007.jpg	100
2407.448	0.538	538.0	repeat	Run3	repeat/STIM_007.jpg	99
2410.389	0.949	949.2	repeat	Run3	repeat/STIM_008.jpg	99
2414.785	0.898	898.4	repeat	Run3	repeat/STIM_008.jpg	99
2419.183	0.955	955.2	repeat	Run3	repeat/STIM_008.jpg	100
2422.947	0.913	913.1	repeat	Run3	repeat/STIM_008.jpg	99
2427.651	0.512	511.6	repeat	Run3	repeat/STIM_008.jpg	100
2430.431	0.964	964.5	repeat	Run3	repeat/STIM_009.jpg	99
2435.175	0.918	917.6	repeat	Run3	repeat/STIM_009.jpg	99
2438.421	0.943	943.1	repeat	Run3	repeat/STIM_009.jpg	100
2442.914	0.596	595.7	repeat	Run3	repeat/STIM_009.jpg	99
2446.015	0.917	916.9	repeat	Run3	repeat/STIM_009.jpg	100
2449.297	0.697	696.9	repeat	Run3	repeat/STIM_010.jpg	100
2452.132	0.606	605.5	repeat	Run3	repeat/STIM_010.jpg	99
2455.296	0.709	708.7	repeat	Run3	repeat/STIM_010.jpg	100
2459.291	0.514	514.4	repeat	Run3	repeat/STIM_010.jpg	100
2463.312	0.524	524.4	repeat	Run3	repeat/STIM_010.jpg	99
2467.246	0.914	914.1	repeat	Run3	repeat/STIM_011.jpg	100
2470.657	0.585	584.7	repeat	Run3	repeat/STIM_011.jpg	100
2473.823	0.492	491.5	repeat	Run3	repeat/STIM_011.jpg	100
2476.359	0.554	554.2	repeat	Run3	repeat/STIM_011.jpg	99
2480.046	0.672	672.5	repeat	Run3	repeat/STIM_011.jpg	100
2484.664	0.648	647.6	repeat	Run3	repeat/STIM_012.jpg	100
2489.305	0.817	817.0	repeat	Run3	repeat/STIM_012.jpg	100
2493.417	0.72	719.8	repeat	Run3	repeat/STIM_012.jpg	99
2497.156	0.812	811.8	repeat	Run3	repeat/STIM_012.jpg	100
2501.906	0.722	721.9	repeat	Run3	repeat/STIM_012.jpg	99
2505.114	0.862	862.4	repeat	Run3	repeat/STIM_013.jpg	100
2508.788	0.774	774.4	repeat	Run3	repeat/STIM_013.jpg	100
2512.335	0.786	786.2	repeat	Run3	repeat/STIM_013.jpg	100
2515.465	0.531	531.2	repeat	Run3	repeat/STIM_013.jpg	100
2518.971	0.797	797.2	repeat	Run3	repeat/STIM_013.jpg	100
2522.681	0.574	574.5	repeat	Run3	repeat/STIM_014.jpg	99
2527.079	0.77	769.5	repeat	Run3	repeat/STIM_014.jpg	100
2531.532	0.726	725.5	repeat	Run3	repeat/STIM_014.jpg	99
2535.878	0.726	726.3	repeat	Run3	repeat/STIM_014.jpg	99
2540.079	0.77	770.1	repeat	Run3	repeat/STIM_014.jpg	99
2544.605	1.383	1383.4	generate	Run4	generate/STIM_000.jpg	99
2548.62	1.979	1978.9	generate	Run4	generate/STIM_000.jpg	99
2553.629	1.761	1761.0	generate	Run4	generate/STIM_000.jpg	99
2559.222	1.908	1908.4	generate	Run4	generate/STIM_000.jpg	100
2563.703	1.235	1235.0	generate	Run4	generate/STIM_000.jpg	99
2567.46	1.639	1638.8	generate	Run4	generate/STIM_001.jpg	99
2572.024	1.094	1094.3	generate	Run4	generate/STIM_001.jpg	100
2576.789	1.784	1784.3	generate	Run4	generate/STIM_001.jpg	99
2580.964	1.107	1107.4	generate	Run4	generate/STIM_001.jpg	99
2585.354	0.989	989.3	generate	Run4	generate/STIM_001.jpg	99
2589.951	1.651	1651.4	generate	Run4	generate/STIM_002.jpg	100
2594.596	0.876	876.5	generate	Run4	generate/STIM_002.jpg	99
2598.782	1.067	1066.9	generate	Run4	generate/STIM_002.jpg	100
2603.42	0.844	844.2	generate	Run4	generate/STIM_002.jpg	99
2606.788	1.214	1213.6	generate	Run4	generate/STIM_002.jpg	100
2610.688	1.136	1136.1	generate	Run4	generate/STIM_003.jpg	99
2615.64	1.54	1540.0	generate	Run4	generate/STIM_003.jpg	100
2620.21	1.253	1252.8	generate	Run4	generate/STIM_003.jpg	99
2624.78	1.618	1618.1	generate	Run4	generate/STIM_003.jpg	99
2628.909	1.405	1404.6	generate	Run4	generate/STIM_003.jpg	99
2633.894	0.936	936.2	generate	Run4	generate/STIM_004.jpg	99
2638.791	0.873	872.9	generate	Run4	generate/STIM_004.jpg	100
2642.122	1.782	1781.5	generate	Run4	generate/STIM_004.jpg	99
2646.837	1.051	1050.9	generate	Run4	generate/STIM_004.jpg	99
2651.19	1.162	1161.5	generate	Run4	generate/STIM_004.jpg	100
2655.311	1.302	1301.5	generate	Run4	generate/STIM_005.jpg	100
2659.595	1.486	1485.9	generate	Run4	generate/STIM_005.jpg	100
2664.884	1.052	1052.5	generate	Run4	generate/STIM_005.jpg	100
2668.886	1.964	1963.9	generate	Run4	generate/STIM_005.jpg	100
2673.73	1.881	1880.8	generate	Run4	generate/STIM_005.jpg	99
2677.979	1.71	1710.4	generate	Run4	generate/STIM_006.jpg	100
2681.888	1.848	1847.5	generate	Run4	generate/STIM_006.jpg	99
2686.095	1.964	1964.2	generate	Run4	generate/STIM_006.jpg	99
2691.662	1.125	1124.6	generate	Run4	generate/STIM_006.jpg	99
2695.209	1.837	1837.4	generate	Run4	generate/STIM_006.jpg	100
2700.376	1.251	1250.8	generate	Run4	generate/STIM_007.jpg	100
2703.843	1.537	1537.0	generate	Run4	generate/STIM_007.jpg	100
2707.667	1.13	1130.4	generate	Run4	generate/STIM_007.jpg	99
2712.436	2.004	2004.0	generate	Run4	generate/STIM_007.jpg	100
2717.295	1.511	1510.7	generate	Run4	generate/STIM_007.jpg	100
2721.638	1.904	1903.5	generate	Run4	generate/STIM_008.jpg	100
2726.914	1.985	1985.0	generate	Run4	generate/STIM_008.jpg	99
2731.139	1.587	1587.1	generate	Run4	generate/STIM_008.jpg	99
2736.54	1.481	1481.4	generate	Run4	generate/STIM_008.jpg	100
2740.38	1.477	1477.0	generate	Run4	generate/STIM_008.jpg	100
2745.496	1.367	1367.1	generate	Run4	generate/STIM_009.jpg	100
2749.029	1.973	1972.7	generate	Run4	generate/STIM_009.jpg	99
2753.727	0.986	986.1	generate	Run4	generate/STIM_009.jpg	99
2758.572	1.257	1257.3	generate	Run4	generate/STIM_009.jpg	100
2763.705	1.653	1652.8	generate	Run4	generate/STIM_009.jpg	99
2768.469	1.188	1187.7	generate	Run4	generate/STIM_010.jpg	100
2772.915	1.804	1803.9	generate	Run4	generate/STIM_010.jpg	99
2778.048	1.172	1172.0	generate	Run4	generate/STIM_010.jpg	99
2781.657	1.078	1077.9	generate	Run4	generate/STIM_010.jpg	100
2785.822	2.013	2012.7	generate	Run4	generate/STIM_010.jpg	99
2790.843	1.641	1641.0	generate	Run4	generate/STIM_011.jpg	99
2795.775	1.107	1106.7	generate	Run4	generate/STIM_011.jpg	99
2799.704	1.056	1056.2	generate	Run4	generate/STIM_011.jpg	99
2803.744	1.557	1557.3	generate	Run4	generate/STIM_011.jpg	100
2807.383	0.921	920.7	generate	Run4	generate/STIM_011.jpg	100
2811.769	1.314	1313.7	generate	Run4	generate/STIM_012.jpg	99
2816.245	1.222	1221.5	generate	Run4	generate/STIM_012.jpg	100
2821.347	1.79	1789.8	generate	Run4	generate/STIM_012.jpg	100
2826.47	1.127	1127.0	generate	Run4	generate/STIM_012.jpg	100
2831.098	1.883	1882.7	generate	Run4	generate/STIM_012.jpg	99
2835.7	0.908	908.4	generate	Run4	generate/STIM_013.jpg	99
2840.32	0.978	977.8	generate	Run4	generate/STIM_013.jpg	100
2844.793	1.481	1481.0	generate	Run4	generate/STIM_013.jpg	99
2849.911	1.594	1594.4	generate	Run4	generate/STIM_013.jpg	99
2854.978	1.666	1666.3	generate	Run4	generate/STIM_013.jpg	99
2860.551	1.347	1346.7	generate	Run4	generate/STIM_014.jpg	99
2865.823	1.548	1547.5	generate	Run4	generate/STIM_014.jpg	99
2871.209	1.284	1284.2	generate	Run4	generate/STIM_014.jpg	99
2874.636	1.415	1414.6	generate	Run4	generate/STIM_014.jpg	99
2878.564	1.47	1469.9	generate	Run4	generate/STIM_014.jpg	99
2883.624	1.903	1903.0	generate	Run4	generate/STIM_015.jpg	100
2888.728	1.844	1843.7	generate	Run4	generate/STIM_015.jpg	99
2893.268	2.033	2033.3	generate	Run4	generate/STIM_015.jpg	100
2897.976	2.007	2007.2	generate	Run4	generate/STIM_015.jpg	99
2902.136	1.704	1704.4	generate	Run4	generate/STIM_015.jpg	99
2906.146	1.929	1928.8	generate	Run4	generate/STIM_016.jpg	99
2911.542	1.33	1329.5	generate	Run4	generate/STIM_016.jpg	99
2916.414	1.024	1023.7	generate	Run4	generate/STIM_016.jpg	100
2920.459	1.268	1268.3	generate	Run4	generate/STIM_016.jpg	100
2924.043	1.258	1257.6	generate	Run4	generate/STIM_016.jpg	99
2929.278	1.017	1017.0	generate	Run4	generate/STIM_017.jpg	99
2933.366	1.469	1468.9	generate	Run4	generate/STIM_017.jpg	100
2936.952	0.895	895.4	generate	Run4	generate/STIM_017.jpg	100
2940.249	1.191	1191.3	generate	Run4	generate/STIM_017.jpg	99
2944.389	1.529	1529.1	generate	Run4	generate/STIM_017.jpg	100
2948.764	1.702	1702.1	generate	Run4	generate/STIM_018.jpg	100
2953.194	1.076	1076.0	generate	Run4	generate/STIM_018.jpg	100
2958.238	1.888	1887.9	generate	Run4	generate/STIM_018.jpg	99
2963.121	1.999	1999.2	generate	Run4	generate/STIM_018.jpg	99
2968.302	1.334	1334.1	generate	Run4	generate/STIM_018.jpg	100
2971.876	1.628	1628.3	generate	Run4	generate/STIM_019.jpg	99
2976.45	1.031	1030.8	generate	Run4	generate/STIM_019.jpg	99
2980.341	1.189	1188.6	generate	Run4	generate/STIM_019.jpg	99
2984.65	2.006	2005.6	generate	Run4	generate/STIM_019.jpg	100
2990.183	1.862	1862.0	generate	Run4	generate/STIM_019.jpg	99
2995.673	1.137	1137.3	generate	Run4	generate/STIM_020.jpg	100
3000.781	1.97	1969.8	generate	Run4	generate/STIM_020.jpg	100
3006.284	0.922	922.1	generate	Run4	generate/STIM_020.jpg	99
3009.809	1.288	1287.8	generate	Run4	generate/STIM_020.jpg	99
3013.884	1.333	1333.2	generate	Run4	generate/STIM_020.jpg	100
3018.979	1.004	1003.5	generate	Run4	generate/STIM_021.jpg	99
3022.015	1.903	1902.7	generate	Run4	generate/STIM_021.jpg	99
3027.58	1.842	1842.3	generate	Run4	generate/STIM_021.jpg	100
3033.172	1.403	1402.8	generate	Run4	generate/STIM_021.jpg	99
3037.698	1.78	1779.7	generate	Run4	generate/STIM_021.jpg	99
3043.117	1.744	1743.8	generate	Run4	generate/STIM_022.jpg	99
3047.987	1.294	1293.8	generate	Run4	generate/STIM_022.jpg	100
3052.515	1.079	1078.6	generate	Run4	generate/STIM_022.jpg	99
3056.963	0.982	981.5	generate	Run4	generate/STIM_022.jpg	99
3061.742	1.988	1987.5	generate	Run4	generate/STIM_022.jpg	99
3066.25	1.169	1168.9	generate	Run4	generate/STIM_023.jpg	100
3069.917	1.691	1691.1	generate	Run4	generate/STIM_023.jpg	99
3074.636	1.42	1419.6	generate	Run4	generate/STIM_023.jpg	99
3079.674	1.727	1727.0	generate	Run4	generate/STIM_023.jpg	100
3084.183	0.938	937.9	generate	Run4	generate/STIM_023.jpg	99
3088.821	1.694	1694.5	generate	Run4	generate/STIM_024.jpg	100
3092.75	0.996	995.8	generate	Run4	generate/STIM_024.jpg	99
3097.68	1.319	1319.4	generate	Run4	generate/STIM_024.jpg	100
3101.327	1.544	1544.0	generate	Run4	generate/STIM_024.jpg	100
3106.836	1.487	1486.9	generate	Run4	generate/STIM_024.jpg	100
3111.582	0.767	767.1	repeat	Run4	repeat/STIM_000.jpg	100
3116.167	0.931	930.9	repeat	Run4	repeat/STIM_000.jpg	99
3119.415	0.965	964.9	repeat	Run4	repeat/STIM_000.jpg	100
3122.749	0.523	522.9	repeat	Run4	repeat/STIM_000.jpg	100
3127.085	0.876	876.1	repeat	Run4	repeat/STIM_000.jpg	100
3131.828	0.486	485.5	repeat	Run4	repeat/STIM_001.jpg	100
3136.259	0.924	924.3	repeat	Run4	repeat/STIM_001.jpg	100
3141.086	0.659	658.8	repeat	Run4	repeat/STIM_001.jpg	100
3144.098	0.938	938.4	repeat	Run4	repeat/STIM_001.jpg	99
3148.59	0.941	941.0	repeat	Run4	repeat/STIM_001.jpg	99
3152.616	0.819	818.6	repeat	Run4	repeat/STIM_002.jpg	99
3156.689	0.918	918.5	repeat	Run4	repeat/STIM_002.jpg	99
3160.719	0.746	746.4	repeat	Run4	repeat/STIM_002.jpg	100
3164.076	0.56	559.8	repeat	Run4	repeat/STIM_002.jpg	99
3166.664	0.514	513.5	repeat	Run4	repeat/STIM_002.jpg	99
3171.118	0.714	713.8	repeat	Run4	repeat/STIM_003.jpg	99
3175.352	0.822	821.5	repeat	Run4	repeat/STIM_003.jpg	99
3178.649	0.534	533.6	repeat	Run4	repeat/STIM_003.jpg	100
3182.953	0.738	738.2	repeat	Run4	repeat/STIM_003.jpg	100
3187.116	0.831	831.2	repeat	Run4	repeat/STIM_003.jpg	100
3190.914	0.864	864.1	repeat	Run4	repeat/STIM_004.jpg	99
3194.546	0.786	786.2	repeat	Run4	repeat/STIM_004.jpg	100
3198.61	0.715	715.4	repeat	Run4	repeat/STIM_004.jpg	99
3202.916	0.636	636.3	repeat	Run4	repeat/STIM_004.jpg	100
3206.951	0.739	739.0	repeat	Run4	repeat/STIM_004.jpg	99
3211.355	0.525	524.8	repeat	Run4	repeat/STIM_005.jpg	100
3214.345	0.87	869.8	repeat	Run4	repeat/STIM_005.jpg	100
3218.964	0.796	796.3	repeat	Run4	repeat/STIM_005.jpg	99
3222.261	0.679	679.3	repeat	Run4	repeat/STIM_005.jpg	99
3225.734	0.922	922.2	repeat	Run4	repeat/STIM_005.jpg	100
3228.838	0.633	633.1	repeat	Run4	repeat/STIM_006.jpg	100
3232.167	0.6	600.1	repeat	Run4	repeat/STIM_006.jpg	99
3236.549	0.687	687.0	repeat	Run4	repeat/STIM_006.jpg	99
3240.077	0.81	809.8	repeat	Run4	repeat/STIM_006.jpg	99
3243.696	0.699	699.1	repeat	Run4	repeat/STIM_006.jpg	99
3248.311	0.626	625.6	repeat	Run4	repeat/STIM_007.jpg	99
3252.535	0.706	705.6	repeat	Run4	repeat/STIM_007.jpg	99
3256.089	0.82	819.9	repeat	Run4	repeat/STIM_007.jpg	100
3260.167	0.723	722.9	repeat	Run4	repeat/STIM_007.jpg	99
3264.004	0.556	556.0	repeat	Run4	repeat/STIM_007.jpg	100
3268.517	0.542	542.2	repeat	Run4	repeat/STIM_008.jpg	99
3272.727	0.609	609.0	repeat	Run4	repeat/STIM_008.jpg	100
3275.987	0.957	957.1	repeat	Run4	repeat/STIM_008.jpg	99
3280.53	0.57	570.1	repeat	Run4	repeat/STIM_008.jpg	100
3283.898	0.767	767.1	repeat	Run4	repeat/STIM_008.jpg	100
3288.326	0.558	558.0	repeat	Run4	repeat/STIM_009.jpg	100
3292.404	0.509	509.4	repeat	Run4	repeat/STIM_009.jpg	99
3295.533	0.956	956.0	repeat	Run4	repeat/STIM_009.jpg	100
3300.243	0.798	798.0	repeat	Run4	repeat/STIM_009.jpg	99
3303.69	0.788	788.3	repeat	Run4	repeat/STIM_009.jpg	99
3307.022	0.756	756.3	repeat	Run4	repeat/STIM_010.jpg	100
3311.274	0.759	759.2	repeat	Run4	repeat/STIM_010.jpg	99
3315.053	0.752	751.7	repeat	Run4	repeat/STIM_010.jpg	99
3318.52	0.651	650.8	repeat	Run4	repeat/STIM_010.jpg	99
3322.51	0.904	904.3	repeat	Run4	repeat/STIM_010.jpg	100
3326.841	0.857	856.7	repeat	Run4	repeat/STIM_011.jpg	99
3330.594	0.82	819.7	repeat	Run4	repeat/STIM_011.jpg	100
3334.546	0.894	893.9	repeat	Run4	repeat/STIM_011.jpg	99
3339.268	0.94	940.4	repeat	Run4	repeat/STIM_011.jpg	100
3342.531	0.674	674.5	repeat	Run4	repeat/STIM_011.jpg	100
3345.615	0.72	720.5	repeat	Run4	repeat/STIM_012.jpg	100
3348.502	0.938	938.2	repeat	Run4	repeat/STIM_012.jpg	100
3351.838	0.643	643.3	repeat	Run4	repeat/STIM_012.jpg	100
3355.46	0.549	548.9	repeat	Run4	repeat/STIM_012.jpg	99
3358.707	0.777	776.6	repeat	Run4	repeat/STIM_012.jpg	99
3362.951	0.873	872.7	repeat	Run4	repeat/STIM_013.jpg	100
3366.215	0.956	955.6	repeat	Run4	repeat/STIM_013.jpg	100
3370.382	0.887	886.7	repeat	Run4	repeat/STIM_013.jpg	100
3374.638	0.707	706.7	repeat	Run4	repeat/STIM_013.jpg	100
3377.378	0.566	566.4	repeat	Run4	repeat/STIM_013.jpg	99
3380.912	0.833	833.2	repeat	Run4	repeat/STIM_014.jpg	99
3384.637	0.569	569.1	repeat	Run4	repeat/STIM_014.jpg	99
3388.527	0.898	898.4	repeat	Run4	repeat/STIM_014.jpg	100
3392.124	0.71	710.4	repeat	Run4	repeat/STIM_014.jpg	100
3396.095	0.76	759.5	repeat	Run4	repeat/STIM_014.jpg	100
