onset	duration	accuracy	trial_type	learning_stage	stimulus
0.0	3.154	correct	regulate	Run1	regulate/STIM_000.jpg
6.599	1.683	correct	regulate	Run1	regulate/STIM_000.jpg
11.492	2.725	correct	regulate	Run1	regulate/STIM_000.jpg
17.928	1.483	correct	regulate	Run1	regulate/STIM_000.jpg
22.588	3.208	correct	regulate	Run1	regulate/STIM_001.jpg
28.052	1.89	correct	regulate	Run1	regulate/STIM_001.jpg
32.492	1.806	correct	regulate	Run1	regulate/STIM_001.jpg
36.668	1.672	correct	regulate	Run1	regulate/STIM_001.jpg
41.984	1.738	correct	regulate	Run1	regulate/STIM_002.jpg
46.27	2.052	correct	regulate	Run1	regulate/STIM_002.jpg
50.918	2.201	incorrect	regulate	Run1	regulate/STIM_002.jpg
56.736	1.47	correct	regulate	Run1	regulate/STIM_002.jpg
61.498	2.438	correct	regulate	Run1	regulate/STIM_003.jpg
67.737	2.614	correct	regulate	Run1	regulate/STIM_003.jpg
73.28	2.571	correct	regulate	Run1	regulate/STIM_003.jpg
78.945	1.354	incorrect	regulate	Run1	regulate/STIM_003.jpg
83.482	2.716	correct	regulate	Run1	regulate/STIM_004.jpg
90.083	2.286	incorrect	regulate	Run1	regulate/STIM_004.jpg
96.135	2.532	correct	regulate	Run1	regulate/STIM_004.jpg
102.612	2.621	correct	regulate	Run1	regulate/STIM_004.jpg
108.226	1.623	correct	regulate	Run1	regulate/STIM_005.jpg
112.682	2.319	correct	regulate	Run1	regulate/STIM_005.jpg
118.506	1.9	correct	regulate	Run1	regulate/STIM_005.jpg
124.407	2.613	incorrect	regulate	Run1	regulate/STIM_005.jpg
130.158	2.155	correct	regulate	Run1	regulate/STIM_006.jpg
136.241	1.654	correct	regulate	Run1	regulate/STIM_006.jpg
140.52	2.973	correct	regulate	Run1	regulate/STIM_006.jpg
147.277	2.318	incorrect	regulate	Run1	regulate/STIM_006.jpg
152.589	2.52	correct	regulate	Run1	regulate/STIM_007.jpg
158.29	3.136	correct	regulate	Run1	regulate/STIM_007.jpg
163.765	2.981	correct	regulate	Run1	regulate/STIM_007.jpg
170.173	1.353	correct	regulate	Run1	regulate/STIM_007.jpg
174.587	2.547	correct	regulate	Run1	regulate/STIM_008.jpg
180.631	3.122	correct	regulate	Run1	regulate/STIM_008.jpg
187.165	2.242	correct	regulate	Run1	regulate/STIM_008.jpg
191.926	1.246	correct	regulate	Run1	regulate/STIM_008.jpg
195.43	2.876	correct	regulate	Run1	regulate/STIM_009.jpg
202.263	3.05	correct	regulate	Run1	regulate/STIM_009.jpg
208.977	2.07	correct	regulate	Run1	regulate/STIM_009.jpg
213.187	1.802	correct	regulate	Run1	regulate/STIM_009.jpg
218.492	2.828	incorrect	regulate	Run1	regulate/STIM_010.jpg
223.813	2.902	correct	regulate	Run1	regulate/STIM_010.jpg
230.342	2.714	correct	regulate	Run1	regulate/STIM_010.jpg
236.389	1.703	incorrect	regulate	Run1	regulate/STIM_010.jpg
242.113	3.033	correct	regulate	Run1	regulate/STIM_011.jpg
247.681	2.124	correct	regulate	Run1	regulate/STIM_011.jpg
251.892	1.582	correct	regulate	Run1	regulate/STIM_011.jpg
257.356	1.951	correct	regulate	Run1	regulate/STIM_011.jpg
261.614	1.762	correct	regulate	Run1	regulate/STIM_012.jpg
266.45	1.83	correct	regulate	Run1	regulate/STIM_012.jpg
271.438	1.374	correct	regulate	Run1	regulate/STIM_012.jpg
276.07	1.55	correct	regulate	Run1	regulate/STIM_012.jpg
281.249	2.298	correct	regulate	Run1	regulate/STIM_013.jpg
285.649	2.588	incorrect	regulate	Run1	regulate/STIM_013.jpg
290.485	3.05	correct	regulate	Run1	regulate/STIM_013.jpg
295.893	2.335	correct	regulate	Run1	regulate/STIM_013.jpg
301.555	2.365	correct	regulate	Run1	regulate/STIM_014.jpg
306.56	1.63	correct	regulate	Run1	regulate/STIM_014.jpg
310.76	2.781	correct	regulate	Run1	regulate/STIM_014.jpg
317.085	2.396	correct	regulate	Run1	regulate/STIM_014.jpg
321.573	3.35	incorrect	regulate	Run1	regulate/STIM_015.jpg
328.754	1.544	correct	regulate	Run1	regulate/STIM_015.jpg
334.126	2.539	correct	regulate	Run1	regulate/STIM_015.jpg
340.446	1.389	correct	regulate	Run1	regulate/STIM_015.jpg
344.941	1.458	correct	regulate	Run1	regulate/STIM_016.jpg
349.401	2.234	correct	regulate	Run1	regulate/STIM_016.jpg
355.195	2.486	correct	regulate	Run1	regulate/STIM_016.jpg
361.508	1.621	correct	regulate	Run1	regulate/STIM_016.jpg
365.561	2.624	correct	regulate	Run1	regulate/STIM_017.jpg
371.748	1.642	correct	regulate	Run1	regulate/STIM_017.jpg
375.643	2.262	correct	regulate	Run1	regulate/STIM_017.jpg
381.852	2.788	correct	regulate	Run1	regulate/STIM_017.jpg
388.021	1.869	correct	regulate	Run1	regulate/STIM_018.jpg
392.311	2.006	correct	regulate	Run1	regulate/STIM_018.jpg
397.201	2.639	correct	regulate	Run1	regulate/STIM_018.jpg
402.864	2.485	incorrect	regulate	Run1	regulate/STIM_018.jpg
409.321	2.869	correct	regulate	Run1	regulate/STIM_019.jpg
415.26	2.773	correct	regulate	Run1	regulate/STIM_019.jpg
421.637	1.394	correct	regulate	Run1	regulate/STIM_019.jpg
425.147	2.742	incorrect	regulate	Run1	regulate/STIM_019.jpg
430.822	1.93	incorrect	regulate	Run1	regulate/STIM_020.jpg
434.938	2.484	incorrect	regulate	Run1	regulate/STIM_020.jpg
440.393	2.815	incorrect	regulate	Run1	regulate/STIM_020.jpg
447.127	2.557	correct	regulate	Run1	regulate/STIM_020.jpg
452.099	1.948	incorrect	regulate	Run1	regulate/STIM_021.jpg
457.334	1.578	incorrect	regulate	Run1	regulate/STIM_021.jpg
462.952	2.725	correct	regulate	Run1	regulate/STIM_021.jpg
469.656	2.219	correct	regulate	Run1	regulate/STIM_021.jpg
474.424	1.761	correct	regulate	Run1	regulate/STIM_022.jpg
479.608	1.486	correct	regulate	Run1	regulate/STIM_022.jpg
484.126	2.467	incorrect	regulate	Run1	regulate/STIM_022.jpg
489.612	1.991	correct	regulate	Run1	regulate/STIM_022.jpg
494.905	2.923	incorrect	regulate	Run1	regulate/STIM_023.jpg
501.657	2.406	correct	regulate	Run1	regulate/STIM_023.jpg
508.097	2.411	correct	regulate	Run1	regulate/STIM_023.jpg
513.712	2.797	correct	regulate	Run1	regulate/STIM_023.jpg
520.045	2.446	correct	regulate	Run1	regulate/STIM_024.jpg
525.372	2.462	correct	regulate	Run1	regulate/STIM_024.jpg
530.924	3.035	correct	regulate	Run1	regulate/STIM_024.jpg
536.926	1.511	correct	regulate	Run1	regulate/STIM_024.jpg
542.195	1.718	correct	regulate	Run1	regulate/STIM_025.jpg
547.883	1.672	correct	regulate	Run1	regulate/STIM_025.jpg
553.092	2.322	correct	regulate	Run1	regulate/STIM_025.jpg
558.099	2.866	correct	regulate	Run1	regulate/STIM_025.jpg
563.603	2.781	correct	regulate	Run1	regulate/STIM_026.jpg
568.494	2.969	correct	regulate	Run1	regulate/STIM_026.jpg
575.264	1.758	correct	regulate	Run1	regulate/STIM_026.jpg
579.962	2.828	correct	regulate	Run1	regulate/STIM_026.jpg
585.18	1.874	correct	regulate	Run1	regulate/STIM_027.jpg
589.487	1.616	correct	regulate	Run1	regulate/STIM_027.jpg
593.255	2.6	incorrect	regulate	Run1	regulate/STIM_027.jpg
597.967	1.637	correct	regulate	Run1	regulate/STIM_027.jpg
602.635	2.596	incorrect	regulate	Run1	regulate/STIM_028.jpg
609.141	2.534	correct	regulate	Run1	regulate/STIM_028.jpg
614.631	2.704	correct	regulate	Run1	regulate/STIM_028.jpg
620.595	2.505	correct	regulate	Run1	regulate/STIM_028.jpg
626.483	2.475	correct	regulate	Run1	regulate/STIM_029.jpg
631.433	1.62	correct	regulate	Run1	regulate/STIM_029.jpg
635.646	2.231	correct	regulate	Run1	regulate/STIM_029.jpg
641.542	1.924	correct	regulate	Run1	regulate/STIM_029.jpg
646.065	0.984	correct	observe	Run1	observe/STIM_000.jpg
649.149	0.906	correct	observe	Run1	observe/STIM_000.jpg
653.111	1.484	correct	observe	Run1	observe/STIM_000.jpg
656.658	1.185	correct	observe	Run1	observe/STIM_000.jpg
660.989	1.538	correct	observe	Run1	observe/STIM_001.jpg
664.907	1.02	incorrect	observe	Run1	observe/STIM_001.jpg
669.91	1.141	correct	observe	Run1	observe/STIM_001.jpg
674.74	1.483	correct	observe	Run1	observe/STIM_001.jpg
679.173	0.878	correct	observe	Run1	observe/STIM_002.jpg
683.571	1.351	correct	observe	Run1	observe/STIM_002.jpg
688.57	1.354	correct	observe	Run1	observe/STIM_002.jpg
693.861	0.941	correct	observe	Run1	observe/STIM_002.jpg
698.46	0.883	correct	observe	Run1	observe/STIM_003.jpg
702.331	1.137	correct	observe	Run1	observe/STIM_003.jpg
707.357	0.872	correct	observe	Run1	observe/STIM_003.jpg
711.93	1.134	correct	observe	Run1	observe/STIM_003.jpg
717.064	1.28	correct	observe	Run1	observe/STIM_004.jpg
721.57	1.543	incorrect	observe	Run1	observe/STIM_004.jpg
726.206	1.106	correct	observe	Run1	observe/STIM_004.jpg
729.853	1.395	correct	observe	Run1	observe/STIM_004.jpg
733.316	0.865	correct	observe	Run1	observe/STIM_005.jpg
737.358	1.2	correct	observe	Run1	observe/STIM_005.jpg
741.052	1.366	correct	observe	Run1	observe/STIM_005.jpg
746.201	0.938	correct	observe	Run1	observe/STIM_005.jpg
750.896	0.965	correct	observe	Run1	observe/STIM_006.jpg
754.218	1.026	incorrect	observe	Run1	observe/STIM_006.jpg
757.851	1.282	correct	observe	Run1	observe/STIM_006.jpg
761.578	1.486	correct	observe	Run1	observe/STIM_006.jpg
766.724	1.081	incorrect	observe	Run1	observe/STIM_007.jpg
771.763	1.091	correct	observe	Run1	observe/STIM_007.jpg
776.27	1.327	correct	observe	Run1	observe/STIM_007.jpg
780.218	1.347	incorrect	observe	Run1	observe/STIM_007.jpg
784.139	0.832	correct	observe	Run1	observe/STIM_008.jpg
788.091	1.22	correct	observe	Run1	observe/STIM_008.jpg
793.031	1.266	correct	observe	Run1	observe/STIM_008.jpg
796.561	0.866	correct	observe	Run1	observe/STIM_008.jpg
801.113	0.909	correct	observe	Run1	observe/STIM_009.jpg
804.885	1.48	correct	observe	Run1	observe/STIM_009.jpg
810.392	1.344	incorrect	observe	Run1	observe/STIM_009.jpg
815.398	0.778	correct	observe	Run1	observe/STIM_009.jpg
819.689	1.366	incorrect	observe	Run1	observe/STIM_010.jpg
823.41	1.222	correct	observe	Run1	observe/STIM_010.jpg
827.086	1.316	correct	observe	Run1	observe/STIM_010.jpg
830.918	1.124	correct	observe	Run1	observe/STIM_010.jpg
835.448	1.214	correct	observe	Run1	observe/STIM_011.jpg
840.593	1.287	correct	observe	Run1	observe/STIM_011.jpg
845.153	0.958	correct	observe	Run1	observe/STIM_011.jpg
849.983	1.118	correct	observe	Run1	observe/STIM_011.jpg
854.12	1.029	incorrect	observe	Run1	observe/STIM_012.jpg
857.185	1.237	correct	observe	Run1	observe/STIM_012.jpg
861.612	0.913	correct	observe	Run1	observe/STIM_012.jpg
865.337	1.052	incorrect	observe	Run1	observe/STIM_012.jpg
869.259	1.028	correct	observe	Run1	observe/STIM_013.jpg
874.238	1.45	correct	observe	Run1	observe/STIM_013.jpg
879.03	0.981	correct	observe	Run1	observe/STIM_013.jpg
882.114	1.362	correct	observe	Run1	observe/STIM_013.jpg
885.897	1.0	correct	observe	Run1	observe/STIM_014.jpg
890.345	0.891	correct	observe	Run1	observe/STIM_014.jpg
894.748	1.539	correct	observe	Run1	observe/STIM_014.jpg
899.666	0.846	incorrect	observe	Run1	observe/STIM_014.jpg
902.935	0.832	incorrect	observe	Run1	observe/STIM_015.jpg
906.638	1.45	correct	observe	Run1	observe/STIM_015.jpg
911.713	1.484	correct	observe	Run1	observe/STIM_015.jpg
915.707	1.514	correct	observe	Run1	observe/STIM_015.jpg
919.597	1.248	correct	observe	Run1	observe/STIM_016.jpg
923.738	1.065	correct	observe	Run1	observe/STIM_016.jpg
928.252	1.018	correct	observe	Run1	observe/STIM_016.jpg
932.505	1.084	correct	observe	Run1	observe/STIM_016.jpg
935.685	1.365	correct	observe	Run1	observe/STIM_017.jpg
940.851	1.263	correct	observe	Run1	observe/STIM_017.jpg
945.42	1.167	correct	observe	Run1	observe/STIM_017.jpg
948.827	0.888	correct	observe	Run1	observe/STIM_017.jpg
952.111	1.136	incorrect	observe	Run1	observe/STIM_018.jpg
956.35	1.128	incorrect	observe	Run1	observe/STIM_018.jpg
960.134	1.304	correct	observe	Run1	observe/STIM_018.jpg
964.661	1.22	correct	observe	Run1	observe/STIM_018.jpg
968.272	1.069	correct	observe	Run1	observe/STIM_019.jpg
972.856	1.442	incorrect	observe	Run1	observe/STIM_019.jpg
976.395	1.317	incorrect	observe	Run1	observe/STIM_019.jpg
981.538	1.106	correct	observe	Run1	observe/STIM_019.jpg
985.817	1.338	correct	regulate	Run2	regulate/STIM_000.jpg
989.878	2.15	correct	regulate	Run2	regulate/STIM_000.jpg
994.527	2.262	correct	regulate	Run2	regulate/STIM_000.jpg
999.392	1.637	correct	regulate	Run2	regulate/STIM_000.jpg
1003.485	1.248	correct	regulate	Run2	regulate/STIM_001.jpg
1007.681	1.414	correct	regulate	Run2	regulate/STIM_001.jpg
1011.429	2.04	correct	regulate	Run2	regulate/STIM_001.jpg
1016.853	1.262	correct	regulate	Run2	regulate/STIM_001.jpg
1021.132	2.372	incorrect	regulate	Run2	regulate/STIM_002.jpg
1027.147	1.824	correct	regulate	Run2	regulate/STIM_002.jpg
1032.257	1.144	correct	regulate	Run2	regulate/STIM_002.jpg
1037.22	1.362	correct	regulate	Run2	regulate/STIM_002.jpg
1041.87	2.054	incorrect	regulate	Run2	regulate/STIM_003.jpg
1047.65	2.265	correct	regulate	Run2	regulate/STIM_003.jpg
1051.994	1.288	correct	regulate	Run2	regulate/STIM_003.jpg
1055.649	1.232	correct	regulate	Run2	regulate/STIM_003.jpg
1060.334	1.511	correct	regulate	Run2	regulate/STIM_004.jpg
1064.372	1.199	correct	regulate	Run2	regulate/STIM_004.jpg
1069.297	2.128	correct	regulate	Run2	regulate/STIM_004.jpg
1074.513	1.72	correct	regulate	Run2	regulate/STIM_004.jpg
1079.349	2.811	correct	regulate	Run2	regulate/STIM_005.jpg
1085.248	1.993	correct	regulate	Run2	regulate/STIM_005.jpg
1090.256	2.485	correct	regulate	Run2	regulate/STIM_005.jpg
1096.481	1.366	correct	regulate	Run2	regulate/STIM_005.jpg
1101.463	1.573	correct	regulate	Run2	regulate/STIM_006.jpg
1105.872	2.09	correct	regulate	Run2	regulate/STIM_006.jpg
1111.512	2.493	correct	regulate	Run2	regulate/STIM_006.jpg
1117.205	2.043	correct	regulate	Run2	regulate/STIM_006.jpg
1121.699	2.449	correct	regulate	Run2	regulate/STIM_007.jpg
1127.838	1.427	correct	regulate	Run2	regulate/STIM_007.jpg
1132.679	1.247	correct	regulate	Run2	regulate/STIM_007.jpg
1136.633	1.119	correct	regulate	Run2	regulate/STIM_007.jpg
1141.653	2.004	correct	regulate	Run2	regulate/STIM_008.jpg
1146.263	1.832	correct	regulate	Run2	regulate/STIM_008.jpg
1150.573	1.731	correct	regulate	Run2	regulate/STIM_008.jpg
1155.783	1.638	correct	regulate	Run2	regulate/STIM_008.jpg
1160.94	1.281	correct	regulate	Run2	regulate/STIM_009.jpg
1165.53	1.689	correct	regulate	Run2	regulate/STIM_009.jpg
1169.396	1.278	correct	regulate	Run2	regulate/STIM_009.jpg
1173.891	1.751	correct	regulate	Run2	regulate/STIM_009.jpg
1178.884	1.523	incorrect	regulate	Run2	regulate/STIM_010.jpg
1184.303	1.29	correct	regulate	Run2	regulate/STIM_010.jpg
1189.318	1.452	correct	regulate	Run2	regulate/STIM_010.jpg
1193.345	1.474	incorrect	regulate	Run2	regulate/STIM_010.jpg
1198.017	1.833	correct	regulate	Run2	regulate/STIM_011.jpg
1203.406	1.692	correct	regulate	Run2	regulate/STIM_011.jpg
1208.507	2.086	correct	regulate	Run2	regulate/STIM_011.jpg
1213.049	2.262	correct	regulate	Run2	regulate/STIM_011.jpg
1218.097	2.329	correct	regulate	Run2	regulate/STIM_012.jpg
1223.828	1.403	incorrect	regulate	Run2	regulate/STIM_012.jpg
1228.52	1.167	correct	regulate	Run2	regulate/STIM_012.jpg
1233.155	1.317	correct	regulate	Run2	regulate/STIM_012.jpg
1237.966	2.394	correct	regulate	Run2	regulate/STIM_013.jpg
1243.003	2.428	correct	regulate	Run2	regulate/STIM_013.jpg
1247.956	1.106	correct	regulate	Run2	regulate/STIM_013.jpg
1252.048	1.175	correct	regulate	Run2	regulate/STIM_013.jpg
1256.231	2.772	incorrect	regulate	Run2	regulate/STIM_014.jpg
1262.289	1.386	correct	regulate	Run2	regulate/STIM_014.jpg
1266.032	2.149	correct	regulate	Run2	regulate/STIM_014.jpg
1272.042	1.843	correct	regulate	Run2	regulate/STIM_014.jpg
1277.557	1.318	incorrect	regulate	Run2	regulate/STIM_015.jpg
1281.118	2.479	correct	regulate	Run2	regulate/STIM_015.jpg
1286.513	1.591	correct	regulate	Run2	regulate/STIM_015.jpg
1290.475	1.436	incorrect	regulate	Run2	regulate/STIM_015.jpg
1294.285	1.991	correct	regulate	Run2	regulate/STIM_016.jpg
1299.301	2.324	correct	regulate	Run2	regulate/STIM_016.jpg
1305.363	1.726	correct	regulate	Run2	regulate/STIM_016.jpg
1310.499	1.503	correct	regulate	Run2	regulate/STIM_016.jpg
1315.871	1.499	correct	regulate	Run2	regulate/STIM_017.jpg
1320.069	2.03	correct	regulate	Run2	regulate/STIM_017.jpg
1324.349	1.431	correct	regulate	Run2	regulate/STIM_017.jpg
1328.225	2.201	correct	regulate	Run2	regulate/STIM_017.jpg
1332.978	2.758	correct	regulate	Run2	regulate/STIM_018.jpg
1337.98	2.158	correct	regulate	Run2	regulate/STIM_018.jpg
1342.317	1.678	correct	regulate	Run2	regulate/STIM_018.jpg
1346.948	1.616	correct	regulate	Run2	regulate/STIM_018.jpg
1351.04	1.652	correct	regulate	Run2	regulate/STIM_019.jpg
1355.085	1.452	incorrect	regulate	Run2	regulate/STIM_019.jpg
1358.729	1.246	incorrect	regulate	Run2	regulate/STIM_019.jpg
1362.213	1.496	correct	regulate	Run2	regulate/STIM_019.jpg
1366.515	1.837	correct	regulate	Run2	regulate/STIM_020.jpg
1370.456	1.898	correct	regulate	Run2	regulate/STIM_020.jpg
1374.585	2.212	incorrect	regulate	Run2	regulate/STIM_020.jpg
1379.164	1.942	correct	regulate	Run2	regulate/STIM_020.jpg
1383.533	2.256	incorrect	regulate	Run2	regulate/STIM_021.jpg
1388.339	1.27	correct	regulate	Run2	regulate/STIM_021.jpg
1392.998	1.799	correct	regulate	Run2	regulate/STIM_021.jpg
1397.536	2.254	correct	regulate	Run2	regulate/STIM_021.jpg
1403.773	2.39	correct	regulate	Run2	regulate/STIM_022.jpg
1410.145	1.964	correct	regulate	Run2	regulate/STIM_022.jpg
1415.698	1.78	correct	regulate	Run2	regulate/STIM_022.jpg
1420.392	1.207	incorrect	regulate	Run2	regulate/STIM_022.jpg
1425.129	2.584	correct	regulate	Run2	regulate/STIM_023.jpg
1431.045	2.373	incorrect	regulate	Run2	regulate/STIM_023.jpg
1437.478	1.809	correct	regulate	Run2	regulate/STIM_023.jpg
1442.229	1.855	correct	regulate	Run2	regulate/STIM_023.jpg
1446.425	1.318	correct	regulate	Run2	regulate/STIM_024.jpg
1450.522	1.904	incorrect	regulate	Run2	regulate/STIM_024.jpg
1455.515	1.34	correct	regulate	Run2	regulate/STIM_024.jpg
1459.203	1.287	correct	regulate	Run2	regulate/STIM_024.jpg
1462.983	2.616	correct	regulate	Run2	regulate/STIM_025.jpg
1468.491	1.39	correct	regulate	Run2	regulate/STIM_025.jpg
1473.051	1.379	incorrect	regulate	Run2	regulate/STIM_025.jpg
1476.567	1.308	correct	regulate	Run2	regulate/STIM_025.jpg
1480.895	1.285	correct	regulate	Run2	regulate/STIM_026.jpg
1484.526	1.275	incorrect	regulate	Run2	regulate/STIM_026.jpg
1488.58	1.813	incorrect	regulate	Run2	regulate/STIM_026.jpg
1493.399	1.398	correct	regulate	Run2	regulate/STIM_026.jpg
1498.736	1.332	correct	regulate	Run2	regulate/STIM_027.jpg
1502.114	1.689	correct	regulate	Run2	regulate/STIM_027.jpg
1507.627	1.868	correct	regulate	Run2	regulate/STIM_027.jpg
1512.193	1.092	incorrect	regulate	Run2	regulate/STIM_027.jpg
1517.278	1.939	incorrect	regulate	Run2	regulate/STIM_028.jpg
1522.337	1.268	correct	regulate	Run2	regulate/STIM_028.jpg
1527.591	2.534	correct	regulate	Run2	regulate/STIM_028.jpg
1532.536	1.366	correct	regulate	Run2	regulate/STIM_028.jpg
1536.871	1.395	correct	regulate	Run2	regulate/STIM_029.jpg
1541.319	1.178	correct	regulate	Run2	regulate/STIM_029.jpg
1545.446	2.45	correct	regulate	Run2	regulate/STIM_029.jpg
1551.547	1.876	correct	regulate	Run2	regulate/STIM_029.jpg
1556.734	1.171	correct	observe	Run2	observe/STIM_000.jpg
1561.766	1.466	correct	observe	Run2	observe/STIM_000.jpg
1566.766	0.832	correct	observe	Run2	observe/STIM_000.jpg
1570.027	1.544	correct	observe	Run2	observe/STIM_000.jpg
1574.664	1.049	correct	observe	Run2	observe/STIM_001.jpg
1579.392	1.478	correct	observe	Run2	observe/STIM_001.jpg
1583.031	0.927	correct	observe	Run2	observe/STIM_001.jpg
1586.141	1.368	correct	observe	Run2	observe/STIM_001.jpg
1590.542	1.53	correct	observe	Run2	observe/STIM_002.jpg
1594.716	1.342	correct	observe	Run2	observe/STIM_002.jpg
1599.097	1.312	correct	observe	Run2	observe/STIM_002.jpg
1604.186	1.213	correct	observe	Run2	observe/STIM_002.jpg
1608.092	1.38	correct	observe	Run2	observe/STIM_003.jpg
1611.917	1.35	correct	observe	Run2	observe/STIM_003.jpg
1615.449	1.202	correct	observe	Run2	observe/STIM_003.jpg
1619.39	1.527	incorrect	observe	Run2	observe/STIM_003.jpg
1623.352	0.972	correct	observe	Run2	observe/STIM_004.jpg
1627.242	1.21	correct	observe	Run2	observe/STIM_004.jpg
1632.249	1.009	correct	observe	Run2	observe/STIM_004.jpg
1636.81	1.293	correct	observe	Run2	observe/STIM_004.jpg
1641.993	1.112	correct	observe	Run2	observe/STIM_005.jpg
1647.096	1.537	correct	observe	Run2	observe/STIM_005.jpg
1651.306	1.431	correct	observe	Run2	observe/STIM_005.jpg
1654.993	1.525	correct	observe	Run2	observe/STIM_005.jpg
1659.302	1.531	correct	observe	Run2	observe/STIM_006.jpg
1664.512	1.224	correct	observe	Run2	observe/STIM_006.jpg
1668.29	1.323	incorrect	observe	Run2	observe/STIM_006.jpg
1673.427	1.312	incorrect	observe	Run2	observe/STIM_006.jpg
1678.753	0.934	incorrect	observe	Run2	observe/STIM_007.jpg
1683.543	0.835	correct	observe	Run2	observe/STIM_007.jpg
1687.366	0.909	incorrect	observe	Run2	observe/STIM_007.jpg
1691.695	1.057	correct	observe	Run2	observe/STIM_007.jpg
1695.693	1.508	correct	observe	Run2	observe/STIM_008.jpg
1700.678	0.901	correct	observe	Run2	observe/STIM_008.jpg
1704.112	0.945	incorrect	observe	Run2	observe/STIM_008.jpg
1707.139	0.838	correct	observe	Run2	observe/STIM_008.jpg
1710.178	1.026	correct	observe	Run2	observe/STIM_009.jpg
1714.181	0.924	correct	observe	Run2	observe/STIM_009.jpg
1718.178	0.778	correct	observe	Run2	observe/STIM_009.jpg
1722.487	0.967	correct	observe	Run2	observe/STIM_009.jpg
1726.602	1.297	incorrect	observe	Run2	observe/STIM_010.jpg
1730.16	1.184	correct	observe	Run2	observe/STIM_010.jpg
1733.948	1.486	correct	observe	Run2	observe/STIM_010.jpg
1738.333	1.156	correct	observe	Run2	observe/STIM_010.jpg
1742.456	0.834	correct	observe	Run2	observe/STIM_011.jpg
1745.587	0.983	correct	observe	Run2	observe/STIM_011.jpg
1750.54	1.522	correct	observe	Run2	observe/STIM_011.jpg
1755.386	1.155	correct	observe	Run2	observe/STIM_011.jpg
1760.062	0.875	correct	observe	Run2	observe/STIM_012.jpg
1763.274	1.01	incorrect	observe	Run2	observe/STIM_012.jpg
1768.006	1.15	correct	observe	Run2	observe/STIM_012.jpg
1772.122	1.344	correct	observe	Run2	observe/STIM_012.jpg
1775.713	1.398	correct	observe	Run2	observe/STIM_013.jpg
1779.259	1.313	correct	observe	Run2	observe/STIM_013.jpg
1782.625	1.034	correct	observe	Run2	observe/STIM_013.jpg
1786.227	1.437	correct	observe	Run2	observe/STIM_013.jpg
1790.929	1.376	incorrect	observe	Run2	observe/STIM_014.jpg
1795.831	1.448	correct	observe	Run2	observe/STIM_014.jpg
1801.023	1.292	correct	observe	Run2	observe/STIM_014.jpg
1806.169	1.328	incorrect	observe	Run2	observe/STIM_014.jpg
1811.524	1.34	correct	observe	Run2	observe/STIM_015.jpg
1816.405	1.478	correct	observe	Run2	observe/STIM_015.jpg
1820.298	0.894	correct	observe	Run2	observe/STIM_015.jpg
1823.523	0.857	incorrect	observe	Run2	observe/STIM_015.jpg
1827.671	1.457	incorrect	observe	Run2	observe/STIM_016.jpg
1832.737	1.203	incorrect	observe	Run2	observe/STIM_016.jpg
1836.624	0.847	correct	observe	Run2	observe/STIM_016.jpg
1841.051	1.183	correct	observe	Run2	observe/STIM_016.jpg
1846.246	1.502	correct	observe	Run2	observe/STIM_017.jpg
1851.265	1.486	correct	observe	Run2	observe/STIM_017.jpg
1855.402	1.451	correct	observe	Run2	observe/STIM_017.jpg
1860.427	1.418	correct	observe	Run2	observe/STIM_017.jpg
1865.558	1.473	correct	observe	Run2	observe/STIM_018.jpg
1870.077	1.066	correct	observe	Run2	observe/STIM_018.jpg
1874.089	1.22	correct	observe	Run2	observe/STIM_018.jpg
1878.58	0.835	correct	observe	Run2	observe/STIM_018.jpg
1883.396	1.432	incorrect	observe	Run2	observe/STIM_019.jpg
1887.662	1.425	incorrect	observe	Run2	observe/STIM_019.jpg
1891.135	1.377	correct	observe	Run2	observe/STIM_019.jpg
1896.275	1.26	correct	observe	Run2	observe/STIM_019.jpg
1899.855	1.934	correct	regulate	Run3	regulate/STIM_000.jpg
1905.065	1.509	correct	regulate	Run3	regulate/STIM_000.jpg
1909.669	2.197	correct	regulate	Run3	regulate/STIM_000.jpg
1914.266	1.104	correct	regulate	Run3	regulate/STIM_000.jpg
1918.108	1.639	correct	regulate	Run3	regulate/STIM_001.jpg
1922.951	1.167	correct	regulate	Run3	regulate/STIM_001.jpg
1927.106	2.039	correct	regulate	Run3	regulate/STIM_001.jpg
1931.365	1.883	correct	regulate	Run3	regulate/STIM_001.jpg
1936.017	1.725	correct	regulate	Run3	regulate/STIM_002.jpg
1940.377	1.679	correct	regulate	Run3	regulate/STIM_002.jpg
1944.768	1.488	correct	regulate	Run3	regulate/STIM_002.jpg
1948.665	1.321	correct	regulate	Run3	regulate/STIM_002.jpg
1953.043	1.485	correct	regulate	Run3	regulate/STIM_003.jpg
1958.444	1.031	correct	regulate	Run3	regulate/STIM_003.jpg
1962.741	2.231	incorrect	regulate	Run3	regulate/STIM_003.jpg
1967.106	1.073	correct	regulate	Run3	regulate/STIM_003.jpg
1971.54	1.259	incorrect	regulate	Run3	regulate/STIM_004.jpg
1976.25	1.074	correct	regulate	Run3	regulate/STIM_004.jpg
1980.094	1.981	correct	regulate	Run3	regulate/STIM_004.jpg
1985.045	1.044	correct	regulate	Run3	regulate/STIM_004.jpg
1989.449	1.072	correct	regulate	Run3	regulate/STIM_005.jpg
1993.589	2.003	correct	regulate	Run3	regulate/STIM_005.jpg
1998.209	1.784	correct	regulate	Run3	regulate/STIM_005.jpg
2002.17	1.708	correct	regulate	Run3	regulate/STIM_005.jpg
2007.475	2.202	correct	regulate	Run3	regulate/STIM_006.jpg
2012.35	1.862	correct	regulate	Run3	regulate/STIM_006.jpg
2017.453	1.196	correct	regulate	Run3	regulate/STIM_006.jpg
2020.993	1.66	correct	regulate	Run3	regulate/STIM_006.jpg
2026.413	1.717	correct	regulate	Run3	regulate/STIM_007.jpg
2030.773	1.09	correct	regulate	Run3	regulate/STIM_007.jpg
2035.863	1.637	correct	regulate	Run3	regulate/STIM_007.jpg
2040.374	2.31	correct	regulate	Run3	regulate/STIM_007.jpg
2046.369	1.47	correct	regulate	Run3	regulate/STIM_008.jpg
2051.624	1.174	correct	regulate	Run3	regulate/STIM_008.jpg
2056.327	1.371	correct	regulate	Run3	regulate/STIM_008.jpg
2060.864	2.264	correct	regulate	Run3	regulate/STIM_008.jpg
2065.605	1.913	correct	regulate	Run3	regulate/STIM_009.jpg
2070.942	1.255	correct	regulate	Run3	regulate/STIM_009.jpg
2074.444	1.513	correct	regulate	Run3	regulate/STIM_009.jpg
2078.402	2.102	correct	regulate	Run3	regulate/STIM_009.jpg
2082.988	1.689	correct	regulate	Run3	regulate/STIM_010.jpg
2087.729	1.654	correct	regulate	Run3	regulate/STIM_010.jpg
2091.466	1.294	correct	regulate	Run3	regulate/STIM_010.jpg
2096.31	1.67	correct	regulate	Run3	regulate/STIM_010.jpg
2101.75	1.116	correct	regulate	Run3	regulate/STIM_011.jpg
2106.866	2.099	correct	regulate	Run3	regulate/STIM_011.jpg
2111.712	2.233	correct	regulate	Run3	regulate/STIM_011.jpg
2116.508	1.765	correct	regulate	Run3	regulate/STIM_011.jpg
2121.727	1.801	correct	regulate	Run3	regulate/STIM_012.jpg
2125.809	1.095	correct	regulate	Run3	regulate/STIM_012.jpg
2129.188	1.66	correct	regulate	Run3	regulate/STIM_012.jpg
2134.658	1.614	correct	regulate	Run3	regulate/STIM_012.jpg
2140.095	1.544	correct	regulate	Run3	regulate/STIM_013.jpg
2143.708	2.275	correct	regulate	Run3	regulate/STIM_013.jpg
2149.784	2.355	correct	regulate	Run3	regulate/STIM_013.jpg
2154.864	1.871	correct	regulate	Run3	regulate/STIM_013.jpg
2159.098	1.493	correct	regulate	Run3	regulate/STIM_014.jpg
2162.901	2.07	correct	regulate	Run3	regulate/STIM_014.jpg
2167.805	1.448	correct	regulate	Run3	regulate/STIM_014.jpg
2171.566	1.235	correct	regulate	Run3	regulate/STIM_014.jpg
2176.541	2.07	correct	regulate	Run3	regulate/STIM_015.jpg
2182.639	1.601	correct	regulate	Run3	regulate/STIM_015.jpg
2188.221	1.541	correct	regulate	Run3	regulate/STIM_015.jpg
2191.831	2.247	correct	regulate	Run3	regulate/STIM_015.jpg
2196.263	1.584	correct	regulate	Run3	regulate/STIM_016.jpg
2201.188	1.972	correct	regulate	Run3	regulate/STIM_016.jpg
2205.976	1.238	correct	regulate	Run3	regulate/STIM_016.jpg
2210.305	2.275	correct	regulate	Run3	regulate/STIM_016.jpg
2216.169	2.236	correct	regulate	Run3	regulate/STIM_017.jpg
2221.513	2.151	correct	regulate	Run3	regulate/STIM_017.jpg
2226.831	1.429	correct	regulate	Run3	regulate/STIM_017.jpg
2231.785	1.867	correct	regulate	Run3	regulate/STIM_017.jpg
2237.273	1.278	correct	regulate	Run3	regulate/STIM_018.jpg
2241.757	1.026	correct	regulate	Run3	regulate/STIM_018.jpg
2245.15	1.734	correct	regulate	Run3	regulate/STIM_018.jpg
2250.51	1.624	correct	regulate	Run3	regulate/STIM_018.jpg
2254.43	2.321	incorrect	regulate	Run3	regulate/STIM_019.jpg
2260.81	1.715	correct	regulate	Run3	regulate/STIM_019.jpg
2264.96	1.27	correct	regulate	Run3	regulate/STIM_019.jpg
2270.14	1.168	incorrect	regulate	Run3	regulate/STIM_019.jpg
2274.657	1.849	correct	regulate	Run3	regulate/STIM_020.jpg
2279.213	1.781	correct	regulate	Run3	regulate/STIM_020.jpg
2283.127	1.041	correct	regulate	Run3	regulate/STIM_020.jpg
2287.155	1.898	correct	regulate	Run3	regulate/STIM_020.jpg
2292.455	2.357	correct	regulate	Run3	regulate/STIM_021.jpg
2298.673	1.456	correct	regulate	Run3	regulate/STIM_021.jpg
2302.925	1.481	correct	regulate	Run3	regulate/STIM_021.jpg
2307.992	2.176	correct	regulate	Run3	regulate/STIM_021.jpg
2314.106	1.357	correct	regulate	Run3	regulate/STIM_022.jpg
2319.256	1.059	correct	regulate	Run3	regulate/STIM_022.jpg
2324.204	1.295	correct	regulate	Run3	regulate/STIM_022.jpg
2328.644	1.203	correct	regulate	Run3	regulate/STIM_022.jpg
2333.127	1.544	correct	regulate	Run3	regulate/STIM_023.jpg
2337.83	1.708	correct	regulate	Run3	regulate/STIM_023.jpg
2343.532	1.701	incorrect	regulate	Run3	regulate/STIM_023.jpg
2347.915	1.44	correct	regulate	Run3	regulate/STIM_023.jpg
2352.721	2.244	correct	regulate	Run3	regulate/STIM_024.jpg
2358.788	2.125	correct	regulate	Run3	regulate/STIM_024.jpg
2363.308	2.283	correct	regulate	Run3	regulate/STIM_024.jpg
2368.656	1.588	correct	regulate	Run3	regulate/STIM_024.jpg
2373.177	1.703	correct	regulate	Run3	regulate/STIM_025.jpg
2377.959	2.286	correct	regulate	Run3	regulate/STIM_025.jpg
2383.375	1.323	correct	regulate	Run3	regulate/STIM_025.jpg
2388.476	1.723	correct	regulate	Run3	regulate/STIM_025.jpg
2392.723	2.087	correct	regulate	Run3	regulate/STIM_026.jpg
2397.15	1.039	correct	regulate	Run3	regulate/STIM_026.jpg
2400.623	1.885	correct	regulate	Run3	regulate/STIM_026.jpg
2405.846	1.414	correct	regulate	Run3	regulate/STIM_026.jpg
2410.851	1.124	correct	regulate	Run3	regulate/STIM_027.jpg
2415.942	1.421	correct	regulate	Run3	regulate/STIM_027.jpg
2420.243	1.734	correct	regulate	Run3	regulate/STIM_027.jpg
2424.201	1.279	correct	regulate	Run3	regulate/STIM_027.jpg
2427.586	2.223	incorrect	regulate	Run3	regulate/STIM_028.jpg
2433.633	2.31	correct	regulate	Run3	regulate/STIM_028.jpg
2439.743	1.386	incorrect	regulate	Run3	regulate/STIM_028.jpg
2444.302	1.706	correct	regulate	Run3	regulate/STIM_028.jpg
2449.298	1.591	correct	regulate	Run3	regulate/STIM_029.jpg
2453.413	1.568	correct	regulate	Run3	regulate/STIM_029.jpg
2458.022	1.146	correct	regulate	Run3	regulate/STIM_029.jpg
2462.277	1.756	correct	regulate	Run3	regulate/STIM_029.jpg
2466.346	1.404	correct	observe	Run3	observe/STIM_000.jpg
2471.62	0.852	correct	observe	Run3	observe/STIM_000.jpg
2475.236	1.309	correct	observe	Run3	observe/STIM_000.jpg
2478.976	1.085	correct	observe	Run3	observe/STIM_000.jpg
2483.087	0.813	correct	observe	Run3	observe/STIM_001.jpg
2486.918	1.064	correct	observe	Run3	observe/STIM_001.jpg
2490.561	1.234	correct	observe	Run3	observe/STIM_001.jpg
2495.08	1.285	correct	observe	Run3	observe/STIM_001.jpg
2499.242	1.2	correct	observe	Run3	observe/STIM_002.jpg
2502.783	1.276	correct	observe	Run3	observe/STIM_002.jpg
2506.765	1.407	correct	observe	Run3	observe/STIM_002.jpg
2511.395	1.216	incorrect	observe	Run3	observe/STIM_002.jpg
2516.591	1.504	correct	observe	Run3	observe/STIM_003.jpg
2520.472	0.871	correct	observe	Run3	observe/STIM_003.jpg
2524.709	1.085	correct	observe	Run3	observe/STIM_003.jpg
2527.942	0.942	incorrect	observe	Run3	observe/STIM_003.jpg
2532.694	1.056	correct	observe	Run3	observe/STIM_004.jpg
2536.844	0.96	correct	observe	Run3	observe/STIM_004.jpg
2540.94	0.964	correct	observe	Run3	observe/STIM_004.jpg
2545.165	1.091	correct	observe	Run3	observe/STIM_004.jpg
2549.78	1.132	correct	observe	Run3	observe/STIM_005.jpg
2554.121	0.972	correct	observe	Run3	observe/STIM_005.jpg
2557.524	1.232	correct	observe	Run3	observe/STIM_005.jpg
2561.353	0.921	correct	observe	Run3	observe/STIM_005.jpg
2565.176	1.37	correct	observe	Run3	observe/STIM_006.jpg
2568.996	0.843	correct	observe	Run3	observe/STIM_006.jpg
2572.232	1.358	correct	observe	Run3	observe/STIM_006.jpg
2577.344	1.416	correct	observe	Run3	observe/STIM_006.jpg
2581.522	1.433	correct	observe	Run3	observe/STIM_007.jpg
2585.728	1.35	correct	observe	Run3	observe/STIM_007.jpg
2591.068	1.532	correct	observe	Run3	observe/STIM_007.jpg
2596.604	1.329	incorrect	observe	Run3	observe/STIM_007.jpg
2601.75	1.15	correct	observe	Run3	observe/STIM_008.jpg
2605.957	1.003	correct	observe	Run3	observe/STIM_008.jpg
2609.895	1.531	incorrect	observe	Run3	observe/STIM_008.jpg
2615.1	1.109	correct	observe	Run3	observe/STIM_008.jpg
2619.078	1.286	correct	observe	Run3	observe/STIM_009.jpg
2623.779	0.883	correct	observe	Run3	observe/STIM_009.jpg
2628.322	0.781	correct	observe	Run3	observe/STIM_009.jpg
2632.866	0.921	correct	observe	Run3	observe/STIM_009.jpg
2636.626	1.306	correct	observe	Run3	observe/STIM_010.jpg
2640.952	1.382	correct	observe	Run3	observe/STIM_010.jpg
2645.396	1.376	correct	observe	Run3	observe/STIM_010.jpg
2650.491	1.476	correct	observe	Run3	observe/STIM_010.jpg
2655.397	1.391	correct	observe	Run3	observe/STIM_011.jpg
2660.823	1.239	correct	observe	Run3	observe/STIM_011.jpg
2664.913	1.082	incorrect	observe	Run3	observe/STIM_011.jpg
2669.771	1.035	correct	observe	Run3	observe/STIM_011.jpg
2673.052	0.909	incorrect	observe	Run3	observe/STIM_012.jpg
2677.741	0.807	correct	observe	Run3	observe/STIM_012.jpg
2681.868	1.283	incorrect	observe	Run3	observe/STIM_012.jpg
2687.19	0.799	correct	observe	Run3	observe/STIM_012.jpg
2690.63	0.787	correct	observe	Run3	observe/STIM_013.jpg
2695.254	1.412	correct	observe	Run3	observe/STIM_013.jpg
2700.709	1.344	correct	observe	Run3	observe/STIM_013.jpg
2706.002	1.315	correct	observe	Run3	observe/STIM_013.jpg
2710.157	1.127	correct	observe	Run3	observe/STIM_014.jpg
2715.234	1.049	correct	observe	Run3	observe/STIM_014.jpg
2719.784	0.883	correct	observe	Run3	observe/STIM_014.jpg
2722.804	1.217	incorrect	observe	Run3	observe/STIM_014.jpg
2727.731	1.099	correct	observe	Run3	observe/STIM_015.jpg
2731.156	1.124	correct	observe	Run3	observe/STIM_015.jpg
2735.751	1.203	correct	observe	Run3	observe/STIM_015.jpg
2740.805	0.983	correct	observe	Run3	observe/STIM_015.jpg
2744.033	1.482	correct	observe	Run3	observe/STIM_016.jpg
2748.263	1.473	correct	observe	Run3	observe/STIM_016.jpg
2753.681	1.093	incorrect	observe	Run3	observe/STIM_016.jpg
2757.709	0.777	correct	observe	Run3	observe/STIM_016.jpg
2762.262	0.804	correct	observe	Run3	observe/STIM_017.jpg
2766.673	0.856	correct	observe	Run3	observe/STIM_017.jpg
2771.222	1.229	correct	observe	Run3	observe/STIM_017.jpg
2776.265	1.356	correct	observe	Run3	observe/STIM_017.jpg
2780.068	1.252	correct	observe	Run3	observe/STIM_018.jpg
2783.806	1.374	correct	observe	Run3	observe/STIM_018.jpg
2789.188	0.798	correct	observe	Run3	observe/STIM_018.jpg
2793.623	0.954	correct	observe	Run3	observe/STIM_018.jpg
2796.979	0.9	correct	observe	Run3	observe/STIM_019.jpg
2801.763	1.288	incorrect	observe	Run3	observe/STIM_019.jpg
2806.184	0.781	correct	observe	Run3	observe/STIM_019.jpg
2809.532	1.067	correct	observe	Run3	observe/STIM_019.jpg
