onset	duration	accuracy	trial_type	learning_stage	stimulus
0.0	1.094	correct	2back	Block1	2back/STIM_000.jpg
4.23	1.036	correct	2back	Block1	2back/STIM_000.jpg
7.949	0.892	correct	2back	Block1	2back/STIM_000.jpg
12.559	0.728	correct	2back	Block1	2back/STIM_001.jpg
15.436	1.203	correct	2back	Block1	2back/STIM_001.jpg
19.216	1.198	correct	2back	Block1	2back/STIM_001.jpg
22.584	0.688	incorrect	2back	Block1	2back/STIM_002.jpg
25.813	1.113	incorrect	2back	Block1	2back/STIM_002.jpg
30.295	1.22	correct	2back	Block1	2back/STIM_002.jpg
35.117	1.062	correct	2back	Block1	2back/STIM_003.jpg
38.937	1.096	correct	2back	Block1	2back/STIM_003.jpg
44.011	0.552	correct	2back	Block1	2back/STIM_003.jpg
47.699	1.2	correct	2back	Block1	2back/STIM_004.jpg
50.968	0.708	correct	2back	Block1	2back/STIM_004.jpg
53.865	1.086	correct	2back	Block1	2back/STIM_004.jpg
58.132	1.086	correct	2back	Block1	2back/STIM_005.jpg
61.967	1.239	correct	2back	Block1	2back/STIM_005.jpg
65.403	0.842	correct	2back	Block1	2back/STIM_005.jpg
68.857	1.257	correct	2back	Block1	2back/STIM_006.jpg
74.117	0.801	correct	2back	Block1	2back/STIM_006.jpg
77.444	0.879	correct	2back	Block1	2back/STIM_006.jpg
81.83	0.76	incorrect	2back	Block1	2back/STIM_007.jpg
85.895	0.849	correct	2back	Block1	2back/STIM_007.jpg
89.437	0.712	correct	2back	Block1	2back/STIM_007.jpg
93.194	1.064	incorrect	2back	Block1	2back/STIM_008.jpg
96.708	1.316	correct	2back	Block1	2back/STIM_008.jpg
100.089	1.252	correct	2back	Block1	2back/STIM_008.jpg
105.121	1.292	correct	2back	Block1	2back/STIM_009.jpg
110.29	1.22	correct	2back	Block1	2back/STIM_009.jpg
113.792	1.064	correct	2back	Block1	2back/STIM_009.jpg
118.505	0.78	incorrect	2back	Block1	2back/STIM_010.jpg
121.487	1.227	incorrect	2back	Block1	2back/STIM_010.jpg
126.458	0.64	correct	2back	Block1	2back/STIM_010.jpg
129.328	0.879	correct	2back	Block1	2back/STIM_011.jpg
132.381	1.167	incorrect	2back	Block1	2back/STIM_011.jpg
137.477	1.001	incorrect	2back	Block1	2back/STIM_011.jpg
142.375	0.725	correct	2back	Block1	2back/STIM_012.jpg
146.439	1.151	correct	2back	Block1	2back/STIM_012.jpg
150.39	0.538	correct	2back	Block1	2back/STIM_012.jpg
154.445	1.33	correct	2back	Block1	2back/STIM_013.jpg
158.387	0.675	correct	2back	Block1	2back/STIM_013.jpg
161.793	0.623	incorrect	2back	Block1	2back/STIM_013.jpg
166.292	1.366	correct	2back	Block1	2back/STIM_014.jpg
169.714	0.907	correct	2back	Block1	2back/STIM_014.jpg
174.216	1.173	correct	2back	Block1	2back/STIM_014.jpg
177.471	1.025	correct	2back	Block1	2back/STIM_015.jpg
180.776	0.74	correct	2back	Block1	2back/STIM_015.jpg
183.637	1.076	correct	2back	Block1	2back/STIM_015.jpg
188.252	1.112	correct	2back	Block1	2back/STIM_016.jpg
192.494	1.218	correct	2back	Block1	2back/STIM_016.jpg
196.969	0.586	incorrect	2back	Block1	2back/STIM_016.jpg
200.441	1.114	correct	2back	Block1	2back/STIM_017.jpg
204.738	0.948	correct	2back	Block1	2back/STIM_017.jpg
209.346	1.071	incorrect	2back	Block1	2back/STIM_017.jpg
213.144	0.755	correct	2back	Block1	2back/STIM_018.jpg
217.546	0.873	correct	2back	Block1	2back/STIM_018.jpg
221.669	0.755	incorrect	2back	Block1	2back/STIM_018.jpg
225.344	0.935	correct	2back	Block1	2back/STIM_019.jpg
229.452	0.624	correct	2back	Block1	2back/STIM_019.jpg
232.455	0.87	correct	2back	Block1	2back/STIM_019.jpg
236.812	1.076	correct	2back	Block1	2back/STIM_020.jpg
241.826	1.179	correct	2back	Block1	2back/STIM_020.jpg
245.225	0.55	correct	2back	Block1	2back/STIM_020.jpg
247.87	1.048	correct	2back	Block1	2back/STIM_021.jpg
251.718	0.903	correct	2back	Block1	2back/STIM_021.jpg
256.137	1.107	correct	2back	Block1	2back/STIM_021.jpg
260.849	1.182	incorrect	2back	Block1	2back/STIM_022.jpg
264.038	0.936	correct	2back	Block1	2back/STIM_022.jpg
268.67	1.042	correct	2back	Block1	2back/STIM_022.jpg
273.181	1.334	correct	2back	Block1	2back/STIM_023.jpg
277.938	1.264	correct	2back	Block1	2back/STIM_023.jpg
281.486	0.996	incorrect	2back	Block1	2back/STIM_023.jpg
285.337	1.361	correct	2back	Block1	2back/STIM_024.jpg
288.941	1.006	correct	2back	Block1	2back/STIM_024.jpg
293.91	0.804	correct	2back	Block1	2back/STIM_024.jpg
297.313	0.814	correct	2back	Block1	2back/STIM_025.jpg
300.321	0.863	correct	2back	Block1	2back/STIM_025.jpg
303.794	0.804	correct	2back	Block1	2back/STIM_025.jpg
307.83	1.048	correct	2back	Block1	2back/STIM_026.jpg
312.664	1.055	correct	2back	Block1	2back/STIM_026.jpg
316.111	0.886	correct	2back	Block1	2back/STIM_026.jpg
320.339	1.2	correct	2back	Block1	2back/STIM_027.jpg
325.201	1.276	correct	2back	Block1	2back/STIM_027.jpg
329.02	0.779	correct	2back	Block1	2back/STIM_027.jpg
332.341	1.249	correct	2back	Block1	2back/STIM_028.jpg
337.039	0.666	correct	2back	Block1	2back/STIM_028.jpg
340.3	0.857	incorrect	2back	Block1	2back/STIM_028.jpg
343.502	0.744	correct	2back	Block1	2back/STIM_029.jpg
346.407	0.578	correct	2back	Block1	2back/STIM_029.jpg
349.559	1.08	correct	2back	Block1	2back/STIM_029.jpg
354.04	1.372	correct	2back	Block1	2back/STIM_030.jpg
358.579	1.175	correct	2back	Block1	2back/STIM_030.jpg
363.295	1.04	correct	2back	Block1	2back/STIM_030.jpg
367.993	0.988	correct	2back	Block1	2back/STIM_031.jpg
372.736	0.602	correct	2back	Block1	2back/STIM_031.jpg
376.347	0.725	correct	2back	Block1	2back/STIM_031.jpg
380.622	1.036	correct	2back	Block1	2back/STIM_032.jpg
383.793	0.584	correct	2back	Block1	2back/STIM_032.jpg
388.148	0.721	correct	2back	Block1	2back/STIM_032.jpg
392.296	1.356	incorrect	2back	Block1	2back/STIM_033.jpg
395.783	0.994	correct	2back	Block1	2back/STIM_033.jpg
398.853	1.21	correct	2back	Block1	2back/STIM_033.jpg
404.028	0.626	correct	2back	Block1	2back/STIM_034.jpg
408.237	0.921	incorrect	2back	Block1	2back/STIM_034.jpg
412.873	1.06	correct	2back	Block1	2back/STIM_034.jpg
416.489	1.263	correct	2back	Block1	2back/STIM_035.jpg
419.933	1.033	correct	2back	Block1	2back/STIM_035.jpg
423.065	1.139	correct	2back	Block1	2back/STIM_035.jpg
427.487	1.357	incorrect	2back	Block1	2back/STIM_036.jpg
431.596	1.006	incorrect	2back	Block1	2back/STIM_036.jpg
435.896	1.104	correct	2back	Block1	2back/STIM_036.jpg
440.979	0.831	correct	2back	Block1	2back/STIM_037.jpg
444.492	0.899	correct	2back	Block1	2back/STIM_037.jpg
448.649	0.565	correct	2back	Block1	2back/STIM_037.jpg
451.876	1.297	correct	2back	Block1	2back/STIM_038.jpg
457.098	1.092	correct	2back	Block1	2back/STIM_038.jpg
460.21	1.139	incorrect	2back	Block1	2back/STIM_038.jpg
464.538	1.132	correct	2back	Block1	2back/STIM_039.jpg
468.075	1.219	correct	2back	Block1	2back/STIM_039.jpg
472.986	0.881	correct	2back	Block1	2back/STIM_039.jpg
476.068	0.534	correct	0back	Block1	0back/STIM_000.jpg
479.059	0.722	correct	0back	Block1	0back/STIM_000.jpg
482.102	0.731	correct	0back	Block1	0back/STIM_000.jpg
485.64	0.593	correct	0back	Block1	0back/STIM_001.jpg
489.779	0.535	correct	0back	Block1	0back/STIM_001.jpg
493.474	0.552	correct	0back	Block1	0back/STIM_001.jpg
496.641	0.431	correct	0back	Block1	0back/STIM_002.jpg
499.563	0.398	correct	0back	Block1	0back/STIM_002.jpg
502.108	0.545	correct	0back	Block1	0back/STIM_002.jpg
504.901	0.646	correct	0back	Block1	0back/STIM_003.jpg
508.914	0.536	incorrect	0back	Block1	0back/STIM_003.jpg
512.276	0.57	correct	0back	Block1	0back/STIM_003.jpg
516.597	0.561	correct	0back	Block1	0back/STIM_004.jpg
520.594	0.708	correct	0back	Block1	0back/STIM_004.jpg
525.247	0.716	correct	0back	Block1	0back/STIM_004.jpg
529.371	0.695	correct	0back	Block1	0back/STIM_005.jpg
532.909	0.566	correct	0back	Block1	0back/STIM_005.jpg
536.97	0.629	correct	0back	Block1	0back/STIM_005.jpg
539.807	0.668	correct	0back	Block1	0back/STIM_006.jpg
542.81	0.522	correct	0back	Block1	0back/STIM_006.jpg
546.692	0.408	correct	0back	Block1	0back/STIM_006.jpg
550.527	0.434	correct	0back	Block1	0back/STIM_007.jpg
553.421	0.698	correct	0back	Block1	0back/STIM_007.jpg
556.533	0.67	correct	0back	Block1	0back/STIM_007.jpg
560.868	0.409	correct	0back	Block1	0back/STIM_008.jpg
565.162	0.425	correct	0back	Block1	0back/STIM_008.jpg
568.625	0.538	correct	0back	Block1	0back/STIM_008.jpg
573.007	0.707	correct	0back	Block1	0back/STIM_009.jpg
577.547	0.755	correct	0back	Block1	0back/STIM_009.jpg
581.443	0.672	correct	0back	Block1	0back/STIM_009.jpg
585.476	0.548	correct	0back	Block1	0back/STIM_010.jpg
588.389	0.44	correct	0back	Block1	0back/STIM_010.jpg
591.427	0.465	correct	0back	Block1	0back/STIM_010.jpg
595.461	0.48	correct	0back	Block1	0back/STIM_011.jpg
598.459	0.75	correct	0back	Block1	0back/STIM_011.jpg
601.623	0.548	correct	0back	Block1	0back/STIM_011.jpg
606.159	0.626	correct	0back	Block1	0back/STIM_012.jpg
609.382	0.411	correct	0back	Block1	0back/STIM_012.jpg
613.237	0.694	correct	0back	Block1	0back/STIM_012.jpg
617.081	0.67	correct	0back	Block1	0back/STIM_013.jpg
620.344	0.61	correct	0back	Block1	0back/STIM_013.jpg
623.562	0.63	correct	0back	Block1	0back/STIM_013.jpg
627.942	0.613	correct	0back	Block1	0back/STIM_014.jpg
632.404	0.68	correct	0back	Block1	0back/STIM_014.jpg
635.495	0.742	correct	0back	Block1	0back/STIM_014.jpg
639.877	0.566	correct	0back	Block1	0back/STIM_015.jpg
643.208	0.686	incorrect	0back	Block1	0back/STIM_015.jpg
646.824	0.794	correct	0back	Block1	0back/STIM_015.jpg
649.79	0.624	correct	0back	Block1	0back/STIM_016.jpg
654.213	0.547	correct	0back	Block1	0back/STIM_016.jpg
657.873	0.522	correct	0back	Block1	0back/STIM_016.jpg
660.527	0.643	correct	0back	Block1	0back/STIM_017.jpg
664.687	0.612	correct	0back	Block1	0back/STIM_017.jpg
668.353	0.567	correct	0back	Block1	0back/STIM_017.jpg
671.142	0.618	correct	0back	Block1	0back/STIM_018.jpg
673.871	0.592	correct	0back	Block1	0back/STIM_018.jpg
678.096	0.607	correct	0back	Block1	0back/STIM_018.jpg
681.924	0.531	correct	0back	Block1	0back/STIM_019.jpg
684.898	0.45	correct	0back	Block1	0back/STIM_019.jpg
689.18	0.565	correct	0back	Block1	0back/STIM_019.jpg
692.055	0.948	correct	2back	Block2	2back/STIM_000.jpg
695.269	0.875	correct	2back	Block2	2back/STIM_000.jpg
699.669	0.628	correct	2back	Block2	2back/STIM_000.jpg
703.029	0.828	correct	2back	Block2	2back/STIM_001.jpg
705.947	0.749	correct	2back	Block2	2back/STIM_001.jpg
710.344	0.55	correct	2back	Block2	2back/STIM_001.jpg
714.118	0.696	incorrect	2back	Block2	2back/STIM_002.jpg
718.658	0.862	correct	2back	Block2	2back/STIM_002.jpg
721.991	0.717	correct	2back	Block2	2back/STIM_002.jpg
725.354	0.713	correct	2back	Block2	2back/STIM_003.jpg
729.982	0.642	correct	2back	Block2	2back/STIM_003.jpg
733.504	1.032	correct	2back	Block2	2back/STIM_003.jpg
737.104	0.633	correct	2back	Block2	2back/STIM_004.jpg
741.463	0.746	correct	2back	Block2	2back/STIM_004.jpg
745.178	0.494	correct	2back	Block2	2back/STIM_004.jpg
747.907	0.533	correct	2back	Block2	2back/STIM_005.jpg
751.323	0.548	correct	2back	Block2	2back/STIM_005.jpg
754.676	0.487	incorrect	2back	Block2	2back/STIM_005.jpg
758.827	0.786	correct	2back	Block2	2back/STIM_006.jpg
762.704	0.609	correct	2back	Block2	2back/STIM_006.jpg
766.965	0.593	correct	2back	Block2	2back/STIM_006.jpg
770.149	1.059	correct	2back	Block2	2back/STIM_007.jpg
774.008	0.941	correct	2back	Block2	2back/STIM_007.jpg
778.559	0.876	correct	2back	Block2	2back/STIM_007.jpg
782.279	1.029	correct	2back	Block2	2back/STIM_008.jpg
786.786	1.094	correct	2back	Block2	2back/STIM_008.jpg
791.674	0.531	correct	2back	Block2	2back/STIM_008.jpg
794.527	0.865	correct	2back	Block2	2back/STIM_009.jpg
798.609	0.489	correct	2back	Block2	2back/STIM_009.jpg
802.939	0.687	correct	2back	Block2	2back/STIM_009.jpg
806.923	1.071	correct	2back	Block2	2back/STIM_010.jpg
811.261	0.985	correct	2back	Block2	2back/STIM_010.jpg
814.72	0.557	correct	2back	Block2	2back/STIM_010.jpg
817.59	0.921	correct	2back	Block2	2back/STIM_011.jpg
822.127	0.888	correct	2back	Block2	2back/STIM_011.jpg
826.208	0.492	correct	2back	Block2	2back/STIM_011.jpg
829.127	1.181	correct	2back	Block2	2back/STIM_012.jpg
832.453	0.537	correct	2back	Block2	2back/STIM_012.jpg
835.588	0.719	correct	2back	Block2	2back/STIM_012.jpg
838.492	0.858	correct	2back	Block2	2back/STIM_013.jpg
841.861	0.531	correct	2back	Block2	2back/STIM_013.jpg
845.379	0.722	correct	2back	Block2	2back/STIM_013.jpg
849.37	0.909	incorrect	2back	Block2	2back/STIM_014.jpg
853.734	0.879	correct	2back	Block2	2back/STIM_014.jpg
857.398	0.629	correct	2back	Block2	2back/STIM_014.jpg
861.347	0.996	correct	2back	Block2	2back/STIM_015.jpg
865.635	0.5	correct	2back	Block2	2back/STIM_015.jpg
869.489	0.868	correct	2back	Block2	2back/STIM_015.jpg
873.277	1.065	correct	2back	Block2	2back/STIM_016.jpg
877.882	0.674	correct	2back	Block2	2back/STIM_016.jpg
882.186	1.02	correct	2back	Block2	2back/STIM_016.jpg
887.021	1.101	correct	2back	Block2	2back/STIM_017.jpg
890.702	0.554	correct	2back	Block2	2back/STIM_017.jpg
894.743	0.721	correct	2back	Block2	2back/STIM_017.jpg
898.838	0.702	correct	2back	Block2	2back/STIM_018.jpg
902.988	1.083	correct	2back	Block2	2back/STIM_018.jpg
907.18	0.674	correct	2back	Block2	2back/STIM_018.jpg
910.165	1.07	correct	2back	Block2	2back/STIM_019.jpg
914.226	0.625	correct	2back	Block2	2back/STIM_019.jpg
918.84	1.029	correct	2back	Block2	2back/STIM_019.jpg
923.292	0.62	correct	2back	Block2	2back/STIM_020.jpg
926.234	1.014	correct	2back	Block2	2back/STIM_020.jpg
929.309	0.608	correct	2back	Block2	2back/STIM_020.jpg
932.206	0.729	correct	2back	Block2	2back/STIM_021.jpg
936.349	0.834	correct	2back	Block2	2back/STIM_021.jpg
941.175	0.552	correct	2back	Block2	2back/STIM_021.jpg
943.821	0.652	correct	2back	Block2	2back/STIM_022.jpg
946.797	0.94	correct	2back	Block2	2back/STIM_022.jpg
951.272	0.941	correct	2back	Block2	2back/STIM_022.jpg
954.871	1.025	correct	2back	Block2	2back/STIM_023.jpg
958.139	0.696	correct	2back	Block2	2back/STIM_023.jpg
961.711	0.81	correct	2back	Block2	2back/STIM_023.jpg
965.593	0.904	correct	2back	Block2	2back/STIM_024.jpg
969.25	1.031	correct	2back	Block2	2back/STIM_024.jpg
973.327	1.0	correct	2back	Block2	2back/STIM_024.jpg
978.304	0.904	correct	2back	Block2	2back/STIM_025.jpg
982.142	0.855	correct	2back	Block2	2back/STIM_025.jpg
985.36	0.738	correct	2back	Block2	2back/STIM_025.jpg
988.379	0.839	correct	2back	Block2	2back/STIM_026.jpg
992.301	0.699	correct	2back	Block2	2back/STIM_026.jpg
996.631	0.616	correct	2back	Block2	2back/STIM_026.jpg
1000.243	0.545	correct	2back	Block2	2back/STIM_027.jpg
1003.18	0.542	correct	2back	Block2	2back/STIM_027.jpg
1006.622	0.85	correct	2back	Block2	2back/STIM_027.jpg
1011.0	0.835	correct	2back	Block2	2back/STIM_028.jpg
1015.835	0.978	correct	2back	Block2	2back/STIM_028.jpg
1019.431	0.893	correct	2back	Block2	2back/STIM_028.jpg
1023.281	0.941	correct	2back	Block2	2back/STIM_029.jpg
1027.941	0.617	correct	2back	Block2	2back/STIM_029.jpg
1030.703	0.996	incorrect	2back	Block2	2back/STIM_029.jpg
1034.808	1.049	correct	2back	Block2	2back/STIM_030.jpg
1038.722	0.751	correct	2back	Block2	2back/STIM_030.jpg
1043.198	0.757	correct	2back	Block2	2back/STIM_030.jpg
1047.71	0.652	correct	2back	Block2	2back/STIM_031.jpg
1052.342	0.883	correct	2back	Block2	2back/STIM_031.jpg
1055.349	0.829	correct	2back	Block2	2back/STIM_031.jpg
1059.992	0.956	incorrect	2back	Block2	2back/STIM_032.jpg
1063.635	0.671	correct	2back	Block2	2back/STIM_032.jpg
1067.912	0.803	correct	2back	Block2	2back/STIM_032.jpg
1071.911	1.079	correct	2back	Block2	2back/STIM_033.jpg
1075.783	1.048	correct	2back	Block2	2back/STIM_033.jpg
1080.128	0.672	incorrect	2back	Block2	2back/STIM_033.jpg
1083.702	0.728	correct	2back	Block2	2back/STIM_034.jpg
1087.292	0.708	correct	2back	Block2	2back/STIM_034.jpg
1091.895	0.996	incorrect	2back	Block2	2back/STIM_034.jpg
1096.045	0.607	incorrect	2back	Block2	2back/STIM_035.jpg
1100.125	0.714	correct	2back	Block2	2back/STIM_035.jpg
1103.962	0.918	correct	2back	Block2	2back/STIM_035.jpg
1107.066	1.117	correct	2back	Block2	2back/STIM_036.jpg
1111.161	0.587	correct	2back	Block2	2back/STIM_036.jpg
1115.488	0.69	correct	2back	Block2	2back/STIM_036.jpg
1118.346	0.575	incorrect	2back	Block2	2back/STIM_037.jpg
1121.524	0.656	correct	2back	Block2	2back/STIM_037.jpg
1124.353	0.479	correct	2back	Block2	2back/STIM_037.jpg
1128.191	0.742	correct	2back	Block2	2back/STIM_038.jpg
1132.861	1.008	correct	2back	Block2	2back/STIM_038.jpg
1136.671	0.492	correct	2back	Block2	2back/STIM_038.jpg
1140.457	0.671	correct	2back	Block2	2back/STIM_039.jpg
1143.787	0.548	correct	2back	Block2	2back/STIM_039.jpg
1146.357	0.603	correct	2back	Block2	2back/STIM_039.jpg
1150.269	0.532	correct	0back	Block2	0back/STIM_000.jpg
1154.003	0.472	correct	0back	Block2	0back/STIM_000.jpg
1158.289	0.782	correct	0back	Block2	0back/STIM_000.jpg
1162.517	0.422	correct	0back	Block2	0back/STIM_001.jpg
1166.046	0.691	correct	0back	Block2	0back/STIM_001.jpg
1170.435	0.567	incorrect	0back	Block2	0back/STIM_001.jpg
1174.161	0.661	correct	0back	Block2	0back/STIM_002.jpg
1178.184	0.762	correct	0back	Block2	0back/STIM_002.jpg
1181.528	0.637	correct	0back	Block2	0back/STIM_002.jpg
1185.402	0.756	incorrect	0back	Block2	0back/STIM_003.jpg
1188.986	0.486	correct	0back	Block2	0back/STIM_003.jpg
1192.646	0.616	correct	0back	Block2	0back/STIM_003.jpg
1196.967	0.558	correct	0back	Block2	0back/STIM_004.jpg
1199.531	0.69	correct	0back	Block2	0back/STIM_004.jpg
1203.445	0.479	correct	0back	Block2	0back/STIM_004.jpg
1207.622	0.668	correct	0back	Block2	0back/STIM_005.jpg
1212.182	0.686	correct	0back	Block2	0back/STIM_005.jpg
1216.43	0.766	correct	0back	Block2	0back/STIM_005.jpg
1220.672	0.648	correct	0back	Block2	0back/STIM_006.jpg
1225.07	0.594	correct	0back	Block2	0back/STIM_006.jpg
1227.925	0.644	correct	0back	Block2	0back/STIM_006.jpg
1230.994	0.696	correct	0back	Block2	0back/STIM_007.jpg
1234.058	0.475	correct	0back	Block2	0back/STIM_007.jpg
1238.107	0.684	correct	0back	Block2	0back/STIM_007.jpg
1242.518	0.644	correct	0back	Block2	0back/STIM_008.jpg
1247.082	0.43	correct	0back	Block2	0back/STIM_008.jpg
1250.22	0.434	correct	0back	Block2	0back/STIM_008.jpg
1253.586	0.727	correct	0back	Block2	0back/STIM_009.jpg
1256.631	0.754	correct	0back	Block2	0back/STIM_009.jpg
1260.6	0.488	correct	0back	Block2	0back/STIM_009.jpg
1263.659	0.533	correct	0back	Block2	0back/STIM_010.jpg
1268.165	0.707	correct	0back	Block2	0back/STIM_010.jpg
1272.478	0.484	correct	0back	Block2	0back/STIM_010.jpg
1276.135	0.734	correct	0back	Block2	0back/STIM_011.jpg
1278.953	0.75	correct	0back	Block2	0back/STIM_011.jpg
1283.005	0.54	correct	0back	Block2	0back/STIM_011.jpg
1286.219	0.636	correct	0back	Block2	0back/STIM_012.jpg
1288.972	0.714	correct	0back	Block2	0back/STIM_012.jpg
1292.707	0.628	correct	0back	Block2	0back/STIM_012.jpg
1296.619	0.644	incorrect	0back	Block2	0back/STIM_013.jpg
1300.742	0.685	correct	0back	Block2	0back/STIM_013.jpg
1304.083	0.596	correct	0back	Block2	0back/STIM_013.jpg
1308.095	0.658	correct	0back	Block2	0back/STIM_014.jpg
1310.762	0.701	correct	0back	Block2	0back/STIM_014.jpg
1313.584	0.686	correct	0back	Block2	0back/STIM_014.jpg
1318.04	0.444	correct	0back	Block2	0back/STIM_015.jpg
1322.478	0.727	correct	0back	Block2	0back/STIM_015.jpg
1325.711	0.432	correct	0back	Block2	0back/STIM_015.jpg
1329.065	0.517	correct	0back	Block2	0back/STIM_016.jpg
1332.762	0.714	correct	0back	Block2	0back/STIM_016.jpg
1336.595	0.614	correct	0back	Block2	0back/STIM_016.jpg
1339.247	0.622	correct	0back	Block2	0back/STIM_017.jpg
1343.498	0.514	correct	0back	Block2	0back/STIM_017.jpg
1347.862	0.45	correct	0back	Block2	0back/STIM_017.jpg
1351.8	0.592	correct	0back	Block2	0back/STIM_018.jpg
1355.209	0.727	correct	0back	Block2	0back/STIM_018.jpg
1359.042	0.457	correct	0back	Block2	0back/STIM_018.jpg
1362.761	0.765	correct	0back	Block2	0back/STIM_019.jpg
1366.2	0.509	correct	0back	Block2	0back/STIM_019.jpg
1370.245	0.67	correct	0back	Block2	0back/STIM_019.jpg
1374.365	0.594	correct	2back	Block3	2back/STIM_000.jpg
1377.036	0.548	correct	2back	Block3	2back/STIM_000.jpg
1381.247	0.791	correct	2back	Block3	2back/STIM_000.jpg
1385.369	0.611	correct	2back	Block3	2back/STIM_001.jpg
1389.55	0.445	correct	2back	Block3	2back/STIM_001.jpg
1392.363	0.929	correct	2back	Block3	2back/STIM_001.jpg
1396.092	0.63	correct	2back	Block3	2back/STIM_002.jpg
1399.689	0.929	correct	2back	Block3	2back/STIM_002.jpg
1403.585	0.54	correct	2back	Block3	2back/STIM_002.jpg
1406.187	0.507	correct	2back	Block3	2back/STIM_003.jpg
1409.385	0.45	correct	2back	Block3	2back/STIM_003.jpg
1412.124	0.732	correct	2back	Block3	2back/STIM_003.jpg
1415.225	0.697	correct	2back	Block3	2back/STIM_004.jpg
1418.825	0.511	correct	2back	Block3	2back/STIM_004.jpg
1422.166	0.833	correct	2back	Block3	2back/STIM_004.jpg
1426.196	0.867	correct	2back	Block3	2back/STIM_005.jpg
1429.198	0.476	correct	2back	Block3	2back/STIM_005.jpg
1433.035	0.866	correct	2back	Block3	2back/STIM_005.jpg
1437.352	0.966	correct	2back	Block3	2back/STIM_006.jpg
1441.436	0.734	correct	2back	Block3	2back/STIM_006.jpg
1444.206	0.748	correct	2back	Block3	2back/STIM_006.jpg
1448.037	0.486	correct	2back	Block3	2back/STIM_007.jpg
1451.86	0.665	incorrect	2back	Block3	2back/STIM_007.jpg
1456.222	0.563	correct	2back	Block3	2back/STIM_007.jpg
1459.81	0.907	correct	2back	Block3	2back/STIM_008.jpg
1464.703	0.84	correct	2back	Block3	2back/STIM_008.jpg
1468.814	0.565	correct	2back	Block3	2back/STIM_008.jpg
1472.766	0.834	correct	2back	Block3	2back/STIM_009.jpg
1477.188	0.63	correct	2back	Block3	2back/STIM_009.jpg
1480.033	0.694	correct	2back	Block3	2back/STIM_009.jpg
1482.793	0.62	correct	2back	Block3	2back/STIM_010.jpg
1485.783	0.688	correct	2back	Block3	2back/STIM_010.jpg
1488.499	0.888	correct	2back	Block3	2back/STIM_010.jpg
1493.347	0.76	correct	2back	Block3	2back/STIM_011.jpg
1496.35	0.776	correct	2back	Block3	2back/STIM_011.jpg
1500.177	0.785	correct	2back	Block3	2back/STIM_011.jpg
1504.015	0.79	correct	2back	Block3	2back/STIM_012.jpg
1507.65	0.805	correct	2back	Block3	2back/STIM_012.jpg
1512.066	0.658	correct	2back	Block3	2back/STIM_012.jpg
1516.036	0.842	correct	2back	Block3	2back/STIM_013.jpg
1519.542	0.494	correct	2back	Block3	2back/STIM_013.jpg
1522.55	0.929	correct	2back	Block3	2back/STIM_013.jpg
1525.939	0.677	correct	2back	Block3	2back/STIM_014.jpg
1530.583	0.585	correct	2back	Block3	2back/STIM_014.jpg
1533.73	0.58	correct	2back	Block3	2back/STIM_014.jpg
1536.631	0.484	correct	2back	Block3	2back/STIM_015.jpg
1540.348	0.95	correct	2back	Block3	2back/STIM_015.jpg
1543.327	0.576	correct	2back	Block3	2back/STIM_015.jpg
1547.418	0.718	correct	2back	Block3	2back/STIM_016.jpg
1551.668	0.425	correct	2back	Block3	2back/STIM_016.jpg
1555.036	0.613	correct	2back	Block3	2back/STIM_016.jpg
1559.324	0.623	correct	2back	Block3	2back/STIM_017.jpg
1563.562	0.972	correct	2back	Block3	2back/STIM_017.jpg
1568.421	0.494	correct	2back	Block3	2back/STIM_017.jpg
1571.049	0.959	correct	2back	Block3	2back/STIM_018.jpg
1574.093	0.946	correct	2back	Block3	2back/STIM_018.jpg
1578.834	0.611	correct	2back	Block3	2back/STIM_018.jpg
1582.399	0.607	correct	2back	Block3	2back/STIM_019.jpg
1585.962	0.44	correct	2back	Block3	2back/STIM_019.jpg
1588.717	0.429	correct	2back	Block3	2back/STIM_019.jpg
1592.756	0.703	correct	2back	Block3	2back/STIM_020.jpg
1596.629	0.441	correct	2back	Block3	2back/STIM_020.jpg
1600.381	0.583	correct	2back	Block3	2back/STIM_020.jpg
1604.515	0.605	correct	2back	Block3	2back/STIM_021.jpg
1608.148	0.547	correct	2back	Block3	2back/STIM_021.jpg
1612.195	0.736	correct	2back	Block3	2back/STIM_021.jpg
1615.811	0.884	correct	2back	Block3	2back/STIM_022.jpg
1619.698	0.803	correct	2back	Block3	2back/STIM_022.jpg
1623.657	0.464	correct	2back	Block3	2back/STIM_022.jpg
1626.569	0.505	correct	2back	Block3	2back/STIM_023.jpg
1629.503	0.542	correct	2back	Block3	2back/STIM_023.jpg
1633.662	0.828	correct	2back	Block3	2back/STIM_023.jpg
1637.974	0.964	correct	2back	Block3	2back/STIM_024.jpg
1642.382	0.677	correct	2back	Block3	2back/STIM_024.jpg
1645.736	0.461	correct	2back	Block3	2back/STIM_024.jpg
1649.613	0.613	correct	2back	Block3	2back/STIM_025.jpg
1652.694	0.827	correct	2back	Block3	2back/STIM_025.jpg
1656.894	0.856	correct	2back	Block3	2back/STIM_025.jpg
1660.741	0.453	correct	2back	Block3	2back/STIM_026.jpg
1664.789	0.886	correct	2back	Block3	2back/STIM_026.jpg
1668.106	0.441	correct	2back	Block3	2back/STIM_026.jpg
1672.386	0.878	correct	2back	Block3	2back/STIM_027.jpg
1676.984	0.46	correct	2back	Block3	2back/STIM_027.jpg
1680.362	0.506	correct	2back	Block3	2back/STIM_027.jpg
1683.963	0.46	correct	2back	Block3	2back/STIM_028.jpg
1687.479	0.937	correct	2back	Block3	2back/STIM_028.jpg
1690.794	0.658	correct	2back	Block3	2back/STIM_028.jpg
1694.644	0.555	correct	2back	Block3	2back/STIM_029.jpg
1698.897	0.719	correct	2back	Block3	2back/STIM_029.jpg
1702.729	0.931	correct	2back	Block3	2back/STIM_029.jpg
1705.971	0.664	correct	2back	Block3	2back/STIM_030.jpg
1709.892	0.943	correct	2back	Block3	2back/STIM_030.jpg
1714.026	0.916	correct	2back	Block3	2back/STIM_030.jpg
1718.146	0.663	correct	2back	Block3	2back/STIM_031.jpg
1722.496	0.829	correct	2back	Block3	2back/STIM_031.jpg
1725.95	0.545	correct	2back	Block3	2back/STIM_031.jpg
1729.66	0.743	correct	2back	Block3	2back/STIM_032.jpg
1732.782	0.811	correct	2back	Block3	2back/STIM_032.jpg
1736.869	0.69	correct	2back	Block3	2back/STIM_032.jpg
1739.936	0.46	correct	2back	Block3	2back/STIM_033.jpg
1743.692	0.757	correct	2back	Block3	2back/STIM_033.jpg
1748.439	0.974	correct	2back	Block3	2back/STIM_033.jpg
1752.098	0.648	correct	2back	Block3	2back/STIM_034.jpg
1755.029	0.907	correct	2back	Block3	2back/STIM_034.jpg
1758.953	0.878	correct	2back	Block3	2back/STIM_034.jpg
1763.414	0.911	correct	2back	Block3	2back/STIM_035.jpg
1767.004	0.539	correct	2back	Block3	2back/STIM_035.jpg
1770.111	0.546	correct	2back	Block3	2back/STIM_035.jpg
1772.729	0.53	correct	2back	Block3	2back/STIM_036.jpg
1776.064	0.482	correct	2back	Block3	2back/STIM_036.jpg
1780.035	0.834	correct	2back	Block3	2back/STIM_036.jpg
1783.353	0.879	correct	2back	Block3	2back/STIM_037.jpg
1786.962	0.516	correct	2back	Block3	2back/STIM_037.jpg
1790.309	0.581	correct	2back	Block3	2back/STIM_037.jpg
1793.654	0.498	correct	2back	Block3	2back/STIM_038.jpg
1797.482	0.557	correct	2back	Block3	2back/STIM_038.jpg
1801.88	0.635	correct	2back	Block3	2back/STIM_038.jpg
1806.036	0.42	correct	2back	Block3	2back/STIM_039.jpg
1809.278	0.528	correct	2back	Block3	2back/STIM_039.jpg
1813.157	0.616	correct	2back	Block3	2back/STIM_039.jpg
1816.147	0.645	correct	0back	Block3	0back/STIM_000.jpg
1820.438	0.734	correct	0back	Block3	0back/STIM_000.jpg
1824.404	0.651	correct	0back	Block3	0back/STIM_000.jpg
1828.829	0.422	correct	0back	Block3	0back/STIM_001.jpg
1831.442	0.522	correct	0back	Block3	0back/STIM_001.jpg
1835.28	0.675	correct	0back	Block3	0back/STIM_001.jpg
1838.041	0.785	correct	0back	Block3	0back/STIM_002.jpg
1841.65	0.784	correct	0back	Block3	0back/STIM_002.jpg
1845.667	0.44	correct	0back	Block3	0back/STIM_002.jpg
1848.403	0.465	correct	0back	Block3	0back/STIM_003.jpg
1851.128	0.648	correct	0back	Block3	0back/STIM_003.jpg
1855.514	0.791	correct	0back	Block3	0back/STIM_003.jpg
1859.188	0.701	correct	0back	Block3	0back/STIM_004.jpg
1862.334	0.458	correct	0back	Block3	0back/STIM_004.jpg
1865.331	0.745	correct	0back	Block3	0back/STIM_004.jpg
1869.415	0.488	correct	0back	Block3	0back/STIM_005.jpg
1872.689	0.414	incorrect	0back	Block3	0back/STIM_005.jpg
1875.712	0.6	correct	0back	Block3	0back/STIM_005.jpg
1880.081	0.782	correct	0back	Block3	0back/STIM_006.jpg
1883.943	0.571	correct	0back	Block3	0back/STIM_006.jpg
1888.177	0.545	correct	0back	Block3	0back/STIM_006.jpg
1891.321	0.764	correct	0back	Block3	0back/STIM_007.jpg
1895.498	0.765	correct	0back	Block3	0back/STIM_007.jpg
1898.652	0.727	correct	0back	Block3	0back/STIM_007.jpg
1902.316	0.702	correct	0back	Block3	0back/STIM_008.jpg
1905.056	0.701	correct	0back	Block3	0back/STIM_008.jpg
1908.225	0.632	correct	0back	Block3	0back/STIM_008.jpg
1912.029	0.621	correct	0back	Block3	0back/STIM_009.jpg
1915.254	0.446	correct	0back	Block3	0back/STIM_009.jpg
1917.777	0.503	correct	0back	Block3	0back/STIM_009.jpg
1921.868	0.574	correct	0back	Block3	0back/STIM_010.jpg
1924.741	0.402	correct	0back	Block3	0back/STIM_010.jpg
1927.889	0.598	correct	0back	Block3	0back/STIM_010.jpg
1931.62	0.479	correct	0back	Block3	0back/STIM_011.jpg
1935.184	0.691	correct	0back	Block3	0back/STIM_011.jpg
1939.012	0.784	correct	0back	Block3	0back/STIM_011.jpg
1942.684	0.47	correct	0back	Block3	0back/STIM_012.jpg
1946.126	0.52	correct	0back	Block3	0back/STIM_012.jpg
1950.031	0.704	correct	0back	Block3	0back/STIM_012.jpg
1953.06	0.748	correct	0back	Block3	0back/STIM_013.jpg
1957.408	0.767	correct	0back	Block3	0back/STIM_013.jpg
1961.618	0.503	correct	0back	Block3	0back/STIM_013.jpg
1964.265	0.707	correct	0back	Block3	0back/STIM_014.jpg
1967.774	0.494	correct	0back	Block3	0back/STIM_014.jpg
1970.393	0.676	correct	0back	Block3	0back/STIM_014.jpg
1974.91	0.729	correct	0back	Block3	0back/STIM_015.jpg
1978.399	0.597	correct	0back	Block3	0back/STIM_015.jpg
1981.062	0.433	correct	0back	Block3	0back/STIM_015.jpg
1985.19	0.417	correct	0back	Block3	0back/STIM_016.jpg
1987.625	0.491	correct	0back	Block3	0back/STIM_016.jpg
1990.911	0.79	correct	0back	Block3	0back/STIM_016.jpg
1994.509	0.536	correct	0back	Block3	0back/STIM_017.jpg
1997.347	0.398	correct	0back	Block3	0back/STIM_017.jpg
2001.686	0.464	correct	0back	Block3	0back/STIM_017.jpg
2004.752	0.642	correct	0back	Block3	0back/STIM_018.jpg
2008.601	0.79	correct	0back	Block3	0back/STIM_018.jpg
2013.066	0.432	correct	0back	Block3	0back/STIM_018.jpg
2017.384	0.549	incorrect	0back	Block3	0back/STIM_019.jpg
2020.207	0.432	correct	0back	Block3	0back/STIM_019.jpg
2023.276	0.479	correct	0back	Block3	0back/STIM_019.jpg
2026.144	0.598	correct	2back	Block4	2back/STIM_000.jpg
2029.393	0.633	correct	2back	Block4	2back/STIM_000.jpg
2032.177	0.419	correct	2back	Block4	2back/STIM_000.jpg
2035.44	0.831	correct	2back	Block4	2back/STIM_001.jpg
2039.377	0.499	correct	2back	Block4	2back/STIM_001.jpg
2042.623	0.586	correct	2back	Block4	2back/STIM_001.jpg
2046.171	0.587	correct	2back	Block4	2back/STIM_002.jpg
2049.102	0.642	correct	2back	Block4	2back/STIM_002.jpg
2053.428	0.817	correct	2back	Block4	2back/STIM_002.jpg
2057.418	0.933	correct	2back	Block4	2back/STIM_003.jpg
2060.814	0.762	correct	2back	Block4	2back/STIM_003.jpg
2063.9	0.801	correct	2back	Block4	2back/STIM_003.jpg
2068.269	0.744	correct	2back	Block4	2back/STIM_004.jpg
2071.111	0.487	correct	2back	Block4	2back/STIM_004.jpg
2074.231	0.468	correct	2back	Block4	2back/STIM_004.jpg
2076.936	0.962	correct	2back	Block4	2back/STIM_005.jpg
2080.793	0.463	correct	2back	Block4	2back/STIM_005.jpg
2084.921	0.722	correct	2back	Block4	2back/STIM_005.jpg
2088.341	0.548	correct	2back	Block4	2back/STIM_006.jpg
2092.241	0.6	correct	2back	Block4	2back/STIM_006.jpg
2095.634	0.735	correct	2back	Block4	2back/STIM_006.jpg
2099.15	0.67	correct	2back	Block4	2back/STIM_007.jpg
2101.845	0.693	correct	2back	Block4	2back/STIM_007.jpg
2104.696	0.807	correct	2back	Block4	2back/STIM_007.jpg
2108.656	0.875	correct	2back	Block4	2back/STIM_008.jpg
2111.806	0.567	incorrect	2back	Block4	2back/STIM_008.jpg
2115.3	0.811	correct	2back	Block4	2back/STIM_008.jpg
2119.442	0.587	correct	2back	Block4	2back/STIM_009.jpg
2122.742	0.451	correct	2back	Block4	2back/STIM_009.jpg
2126.042	0.652	correct	2back	Block4	2back/STIM_009.jpg
2129.551	0.955	correct	2back	Block4	2back/STIM_010.jpg
2133.423	0.579	correct	2back	Block4	2back/STIM_010.jpg
2137.969	0.48	correct	2back	Block4	2back/STIM_010.jpg
2141.61	0.697	correct	2back	Block4	2back/STIM_011.jpg
2145.097	0.604	incorrect	2back	Block4	2back/STIM_011.jpg
2148.999	0.696	correct	2back	Block4	2back/STIM_011.jpg
2152.802	0.843	correct	2back	Block4	2back/STIM_012.jpg
2156.081	0.924	correct	2back	Block4	2back/STIM_012.jpg
2159.665	0.936	correct	2back	Block4	2back/STIM_012.jpg
2164.559	0.772	correct	2back	Block4	2back/STIM_013.jpg
2167.667	0.656	correct	2back	Block4	2back/STIM_013.jpg
2170.331	0.689	correct	2back	Block4	2back/STIM_013.jpg
2174.757	0.538	correct	2back	Block4	2back/STIM_014.jpg
2178.911	0.927	correct	2back	Block4	2back/STIM_014.jpg
2182.347	0.876	correct	2back	Block4	2back/STIM_014.jpg
2186.933	0.497	correct	2back	Block4	2back/STIM_015.jpg
2190.805	0.65	correct	2back	Block4	2back/STIM_015.jpg
2193.959	0.645	correct	2back	Block4	2back/STIM_015.jpg
2197.358	0.86	correct	2back	Block4	2back/STIM_016.jpg
2200.567	0.962	correct	2back	Block4	2back/STIM_016.jpg
2204.679	0.971	correct	2back	Block4	2back/STIM_016.jpg
2208.192	0.969	correct	2back	Block4	2back/STIM_017.jpg
2211.765	0.828	correct	2back	Block4	2back/STIM_017.jpg
2216.006	0.928	correct	2back	Block4	2back/STIM_017.jpg
2220.513	0.57	correct	2back	Block4	2back/STIM_018.jpg
2224.571	0.948	correct	2back	Block4	2back/STIM_018.jpg
2228.895	0.694	correct	2back	Block4	2back/STIM_018.jpg
2233.502	0.475	correct	2back	Block4	2back/STIM_019.jpg
2237.54	0.538	correct	2back	Block4	2back/STIM_019.jpg
2241.338	0.582	correct	2back	Block4	2back/STIM_019.jpg
2244.248	0.484	correct	2back	Block4	2back/STIM_020.jpg
2248.089	0.805	correct	2back	Block4	2back/STIM_020.jpg
2252.597	0.752	correct	2back	Block4	2back/STIM_020.jpg
2256.848	0.508	correct	2back	Block4	2back/STIM_021.jpg
2260.119	0.874	correct	2back	Block4	2back/STIM_021.jpg
2263.501	0.429	correct	2back	Block4	2back/STIM_021.jpg
2267.587	0.598	correct	2back	Block4	2back/STIM_022.jpg
2271.709	0.459	correct	2back	Block4	2back/STIM_022.jpg
2274.371	0.442	correct	2back	Block4	2back/STIM_022.jpg
2278.568	0.809	correct	2back	Block4	2back/STIM_023.jpg
2281.715	0.526	correct	2back	Block4	2back/STIM_023.jpg
2284.995	0.883	correct	2back	Block4	2back/STIM_023.jpg
2288.711	0.43	correct	2back	Block4	2back/STIM_024.jpg
2291.745	0.557	correct	2back	Block4	2back/STIM_024.jpg
2295.897	0.974	correct	2back	Block4	2back/STIM_024.jpg
2300.48	0.717	correct	2back	Block4	2back/STIM_025.jpg
2304.386	0.804	correct	2back	Block4	2back/STIM_025.jpg
2307.787	0.513	correct	2back	Block4	2back/STIM_025.jpg
2310.95	0.948	correct	2back	Block4	2back/STIM_026.jpg
2315.637	0.829	correct	2back	Block4	2back/STIM_026.jpg
2319.233	0.523	correct	2back	Block4	2back/STIM_026.jpg
2322.394	0.738	correct	2back	Block4	2back/STIM_027.jpg
2326.991	0.972	correct	2back	Block4	2back/STIM_027.jpg
2330.022	0.872	correct	2back	Block4	2back/STIM_027.jpg
2333.161	0.461	incorrect	2back	Block4	2back/STIM_028.jpg
2336.81	0.738	correct	2back	Block4	2back/STIM_028.jpg
2339.749	0.724	correct	2back	Block4	2back/STIM_028.jpg
2342.734	0.833	correct	2back	Block4	2back/STIM_029.jpg
2346.915	0.919	correct	2back	Block4	2back/STIM_029.jpg
2350.123	0.736	correct	2back	Block4	2back/STIM_029.jpg
2354.241	0.422	correct	2back	Block4	2back/STIM_030.jpg
2357.879	0.759	correct	2back	Block4	2back/STIM_030.jpg
2360.945	0.753	correct	2back	Block4	2back/STIM_030.jpg
2365.101	0.897	correct	2back	Block4	2back/STIM_031.jpg
2369.587	0.458	correct	2back	Block4	2back/STIM_031.jpg
2373.456	0.868	correct	2back	Block4	2back/STIM_031.jpg
2376.64	0.845	correct	2back	Block4	2back/STIM_032.jpg
2381.156	0.906	correct	2back	Block4	2back/STIM_032.jpg
2384.112	0.548	correct	2back	Block4	2back/STIM_032.jpg
2388.363	0.735	correct	2back	Block4	2back/STIM_033.jpg
2391.735	0.835	correct	2back	Block4	2back/STIM_033.jpg
2396.008	0.448	correct	2back	Block4	2back/STIM_033.jpg
2399.722	0.61	correct	2back	Block4	2back/STIM_034.jpg
2402.721	0.87	correct	2back	Block4	2back/STIM_034.jpg
2406.397	0.937	correct	2back	Block4	2back/STIM_034.jpg
2410.982	0.812	correct	2back	Block4	2back/STIM_035.jpg
2415.393	0.749	incorrect	2back	Block4	2back/STIM_035.jpg
2418.744	0.838	correct	2back	Block4	2back/STIM_035.jpg
2422.155	0.632	correct	2back	Block4	2back/STIM_036.jpg
2426.393	0.505	correct	2back	Block4	2back/STIM_036.jpg
2430.225	0.64	incorrect	2back	Block4	2back/STIM_036.jpg
2434.672	0.424	correct	2back	Block4	2back/STIM_037.jpg
2437.377	0.526	correct	2back	Block4	2back/STIM_037.jpg
2440.028	0.684	correct	2back	Block4	2back/STIM_037.jpg
2443.738	0.92	correct	2back	Block4	2back/STIM_038.jpg
2448.04	0.738	correct	2back	Block4	2back/STIM_038.jpg
2451.292	0.436	correct	2back	Block4	2back/STIM_038.jpg
2454.749	0.847	correct	2back	Block4	2back/STIM_039.jpg
2458.555	0.64	correct	2back	Block4	2back/STIM_039.jpg
2461.784	0.616	correct	2back	Block4	2back/STIM_039.jpg
2465.648	0.475	correct	0back	Block4	0back/STIM_000.jpg
2469.956	0.435	correct	0back	Block4	0back/STIM_000.jpg
2472.722	0.481	correct	0back	Block4	0back/STIM_000.jpg
2475.434	0.636	correct	0back	Block4	0back/STIM_001.jpg
2479.919	0.704	incorrect	0back	Block4	0back/STIM_001.jpg
2484.452	0.747	correct	0back	Block4	0back/STIM_001.jpg
2488.595	0.42	correct	0back	Block4	0back/STIM_002.jpg
2491.039	0.728	correct	0back	Block4	0back/STIM_002.jpg
2495.408	0.633	correct	0back	Block4	0back/STIM_002.jpg
2498.91	0.64	correct	0back	Block4	0back/STIM_003.jpg
2502.597	0.689	correct	0back	Block4	0back/STIM_003.jpg
2505.801	0.474	correct	0back	Block4	0back/STIM_003.jpg
2509.337	0.433	correct	0back	Block4	0back/STIM_004.jpg
2513.634	0.559	correct	0back	Block4	0back/STIM_004.jpg
2517.658	0.551	correct	0back	Block4	0back/STIM_004.jpg
2520.624	0.533	correct	0back	Block4	0back/STIM_005.jpg
2524.368	0.666	correct	0back	Block4	0back/STIM_005.jpg
2528.427	0.724	incorrect	0back	Block4	0back/STIM_005.jpg
2531.205	0.558	correct	0back	Block4	0back/STIM_006.jpg
2533.828	0.526	correct	0back	Block4	0back/STIM_006.jpg
2537.428	0.669	correct	0back	Block4	0back/STIM_006.jpg
2541.135	0.766	correct	0back	Block4	0back/STIM_007.jpg
2543.976	0.558	correct	0back	Block4	0back/STIM_007.jpg
2548.077	0.79	correct	0back	Block4	0back/STIM_007.jpg
2552.019	0.755	correct	0back	Block4	0back/STIM_008.jpg
2556.601	0.597	correct	0back	Block4	0back/STIM_008.jpg
2559.741	0.552	correct	0back	Block4	0back/STIM_008.jpg
2563.953	0.659	correct	0back	Block4	0back/STIM_009.jpg
2568.085	0.526	correct	0back	Block4	0back/STIM_009.jpg
2572.572	0.757	correct	0back	Block4	0back/STIM_009.jpg
2575.516	0.776	correct	0back	Block4	0back/STIM_010.jpg
2578.352	0.682	correct	0back	Block4	0back/STIM_010.jpg
2582.401	0.519	correct	0back	Block4	0back/STIM_010.jpg
2586.837	0.494	correct	0back	Block4	0back/STIM_011.jpg
2589.714	0.414	correct	0back	Block4	0back/STIM_011.jpg
2593.226	0.702	correct	0back	Block4	0back/STIM_011.jpg
2596.817	0.758	correct	0back	Block4	0back/STIM_012.jpg
2599.86	0.548	correct	0back	Block4	0back/STIM_012.jpg
2603.291	0.788	correct	0back	Block4	0back/STIM_012.jpg
2607.406	0.649	correct	0back	Block4	0back/STIM_013.jpg
2610.269	0.404	correct	0back	Block4	0back/STIM_013.jpg
2613.969	0.575	correct	0back	Block4	0back/STIM_013.jpg
2618.137	0.594	correct	0back	Block4	0back/STIM_014.jpg
2621.135	0.559	correct	0back	Block4	0back/STIM_014.jpg
2623.864	0.626	correct	0back	Block4	0back/STIM_014.jpg
2628.006	0.419	correct	0back	Block4	0back/STIM_015.jpg
2631.705	0.537	correct	0back	Block4	0back/STIM_015.jpg
2635.875	0.755	correct	0back	Block4	0back/STIM_015.jpg
2639.714	0.644	incorrect	0back	Block4	0back/STIM_016.jpg
2642.94	0.53	correct	0back	Block4	0back/STIM_016.jpg
2647.374	0.77	correct	0back	Block4	0back/STIM_016.jpg
2651.372	0.563	correct	0back	Block4	0back/STIM_017.jpg
2654.691	0.779	correct	0back	Block4	0back/STIM_017.jpg
2659.224	0.532	correct	0back	Block4	0back/STIM_017.jpg
2662.798	0.488	correct	0back	Block4	0back/STIM_018.jpg
2665.95	0.546	correct	0back	Block4	0back/STIM_018.jpg
2670.275	0.58	correct	0back	Block4	0back/STIM_018.jpg
2673.401	0.588	correct	0back	Block4	0back/STIM_019.jpg
2676.126	0.465	correct	0back	Block4	0back/STIM_019.jpg
2679.266	0.438	correct	0back	Block4	0back/STIM_019.jpg
