onset	duration	accuracy_binary	trial_type	learning_stage	stimulus
0.0	1.466	1	2back	Block1	2back/STIM_000.jpg
5.142	0.862	1	2back	Block1	2back/STIM_000.jpg
9.048	0.906	1	2back	Block1	2back/STIM_000.jpg
12.323	1.169	1	2back	Block1	2back/STIM_001.jpg
16.714	1.389	1	2back	Block1	2back/STIM_001.jpg
21.896	0.801	1	2back	Block1	2back/STIM_001.jpg
25.199	0.666	0	2back	Block1	2back/STIM_002.jpg
28.318	1.216	0	2back	Block1	2back/STIM_002.jpg
31.702	1.088	0	2back	Block1	2back/STIM_002.jpg
36.199	1.281	1	2back	Block1	2back/STIM_003.jpg
40.316	0.63	1	2back	Block1	2back/STIM_003.jpg
43.383	0.86	1	2back	Block1	2back/STIM_003.jpg
46.988	1.36	0	2back	Block1	2back/STIM_004.jpg
50.821	1.403	1	2back	Block1	2back/STIM_004.jpg
55.0	0.962	1	2back	Block1	2back/STIM_004.jpg
59.078	0.942	1	2back	Block1	2back/STIM_005.jpg
63.125	0.754	1	2back	Block1	2back/STIM_005.jpg
66.916	0.599	1	2back	Block1	2back/STIM_005.jpg
70.813	0.723	1	2back	Block1	2back/STIM_006.jpg
73.751	0.731	1	2back	Block1	2back/STIM_006.jpg
78.016	0.816	1	2back	Block1	2back/STIM_006.jpg
82.615	1.045	0	2back	Block1	2back/STIM_007.jpg
87.155	0.754	1	2back	Block1	2back/STIM_007.jpg
90.531	1.013	1	2back	Block1	2back/STIM_007.jpg
94.003	1.369	0	2back	Block1	2back/STIM_008.jpg
98.664	0.688	1	2back	Block1	2back/STIM_008.jpg
102.113	1.29	0	2back	Block1	2back/STIM_008.jpg
105.478	1.076	1	2back	Block1	2back/STIM_009.jpg
109.971	0.654	1	2back	Block1	2back/STIM_009.jpg
113.883	0.623	1	2back	Block1	2back/STIM_009.jpg
117.414	1.09	0	2back	Block1	2back/STIM_010.jpg
122.009	0.7	0	2back	Block1	2back/STIM_010.jpg
125.414	0.695	1	2back	Block1	2back/STIM_010.jpg
128.503	1.036	0	2back	Block1	2back/STIM_011.jpg
132.601	1.408	0	2back	Block1	2back/STIM_011.jpg
137.884	0.951	0	2back	Block1	2back/STIM_011.jpg
141.888	1.503	1	2back	Block1	2back/STIM_012.jpg
145.429	0.844	1	2back	Block1	2back/STIM_012.jpg
148.841	0.704	1	2back	Block1	2back/STIM_012.jpg
151.705	1.3	0	2back	Block1	2back/STIM_013.jpg
156.185	1.221	1	2back	Block1	2back/STIM_013.jpg
159.937	0.77	0	2back	Block1	2back/STIM_013.jpg
163.367	0.978	1	2back	Block1	2back/STIM_014.jpg
167.115	1.086	1	2back	Block1	2back/STIM_014.jpg
171.801	1.17	0	2back	Block1	2back/STIM_014.jpg
176.875	1.02	0	2back	Block1	2back/STIM_015.jpg
180.113	0.744	1	2back	Block1	2back/STIM_015.jpg
183.478	0.976	1	2back	Block1	2back/STIM_015.jpg
187.516	1.347	0	2back	Block1	2back/STIM_016.jpg
192.107	1.148	0	2back	Block1	2back/STIM_016.jpg
196.267	1.115	0	2back	Block1	2back/STIM_016.jpg
200.415	0.868	1	2back	Block1	2back/STIM_017.jpg
203.871	0.92	1	2back	Block1	2back/STIM_017.jpg
207.144	1.014	0	2back	Block1	2back/STIM_017.jpg
211.685	1.15	1	2back	Block1	2back/STIM_018.jpg
215.117	1.214	1	2back	Block1	2back/STIM_018.jpg
219.912	1.07	0	2back	Block1	2back/STIM_018.jpg
224.094	1.341	1	2back	Block1	2back/STIM_019.jpg
228.796	0.886	1	2back	Block1	2back/STIM_019.jpg
232.466	1.239	1	2back	Block1	2back/STIM_019.jpg
237.243	1.51	1	2back	Block1	2back/STIM_020.jpg
240.804	0.815	1	2back	Block1	2back/STIM_020.jpg
245.566	0.733	1	2back	Block1	2back/STIM_020.jpg
249.853	1.197	1	2back	Block1	2back/STIM_021.jpg
253.084	0.971	1	2back	Block1	2back/STIM_021.jpg
257.992	0.917	0	2back	Block1	2back/STIM_021.jpg
261.742	1.25	0	2back	Block1	2back/STIM_022.jpg
266.727	1.194	1	2back	Block1	2back/STIM_022.jpg
270.351	1.323	1	2back	Block1	2back/STIM_022.jpg
274.506	1.007	1	2back	Block1	2back/STIM_023.jpg
279.43	0.796	1	2back	Block1	2back/STIM_023.jpg
282.246	0.638	0	2back	Block1	2back/STIM_023.jpg
286.014	1.298	0	2back	Block1	2back/STIM_024.jpg
290.533	0.702	1	2back	Block1	2back/STIM_024.jpg
293.673	0.846	1	2back	Block1	2back/STIM_024.jpg
296.869	1.097	1	2back	Block1	2back/STIM_025.jpg
300.241	0.659	1	2back	Block1	2back/STIM_025.jpg
303.897	0.636	1	2back	Block1	2back/STIM_025.jpg
308.134	0.673	1	2back	Block1	2back/STIM_026.jpg
312.157	0.842	1	2back	Block1	2back/STIM_026.jpg
315.81	1.206	1	2back	Block1	2back/STIM_026.jpg
320.375	1.511	0	2back	Block1	2back/STIM_027.jpg
324.161	1.274	1	2back	Block1	2back/STIM_027.jpg
328.586	0.882	1	2back	Block1	2back/STIM_027.jpg
333.091	1.171	1	2back	Block1	2back/STIM_028.jpg
337.432	0.919	1	2back	Block1	2back/STIM_028.jpg
341.841	1.213	0	2back	Block1	2back/STIM_028.jpg
346.808	1.029	0	2back	Block1	2back/STIM_029.jpg
350.235	1.257	1	2back	Block1	2back/STIM_029.jpg
355.104	0.736	1	2back	Block1	2back/STIM_029.jpg
358.769	0.925	1	2back	Block1	2back/STIM_030.jpg
362.983	1.014	1	2back	Block1	2back/STIM_030.jpg
366.437	1.32	1	2back	Block1	2back/STIM_030.jpg
371.223	0.867	0	2back	Block1	2back/STIM_031.jpg
374.809	1.336	1	2back	Block1	2back/STIM_031.jpg
379.876	1.034	1	2back	Block1	2back/STIM_031.jpg
384.43	1.029	1	2back	Block1	2back/STIM_032.jpg
388.025	1.269	1	2back	Block1	2back/STIM_032.jpg
391.853	0.878	1	2back	Block1	2back/STIM_032.jpg
396.318	1.391	0	2back	Block1	2back/STIM_033.jpg
399.779	1.336	1	2back	Block1	2back/STIM_033.jpg
404.174	0.996	0	2back	Block1	2back/STIM_033.jpg
408.774	1.532	1	2back	Block1	2back/STIM_034.jpg
412.353	1.404	0	2back	Block1	2back/STIM_034.jpg
417.56	1.178	1	2back	Block1	2back/STIM_034.jpg
421.163	1.166	1	2back	Block1	2back/STIM_035.jpg
425.757	0.692	1	2back	Block1	2back/STIM_035.jpg
428.899	1.151	1	2back	Block1	2back/STIM_035.jpg
432.233	1.466	0	2back	Block1	2back/STIM_036.jpg
435.889	0.893	0	2back	Block1	2back/STIM_036.jpg
438.809	1.176	0	2back	Block1	2back/STIM_036.jpg
442.704	0.734	1	2back	Block1	2back/STIM_037.jpg
446.528	0.852	1	2back	Block1	2back/STIM_037.jpg
450.841	0.639	1	2back	Block1	2back/STIM_037.jpg
453.552	1.054	1	2back	Block1	2back/STIM_038.jpg
457.57	1.154	1	2back	Block1	2back/STIM_038.jpg
460.855	1.35	0	2back	Block1	2back/STIM_038.jpg
465.373	1.286	1	2back	Block1	2back/STIM_039.jpg
468.798	1.025	1	2back	Block1	2back/STIM_039.jpg
473.525	0.62	0	2back	Block1	2back/STIM_039.jpg
476.726	0.519	1	0back	Block1	0back/STIM_000.jpg
480.387	0.648	1	0back	Block1	0back/STIM_000.jpg
483.749	0.865	1	0back	Block1	0back/STIM_000.jpg
488.507	0.737	0	0back	Block1	0back/STIM_001.jpg
491.892	0.712	1	0back	Block1	0back/STIM_001.jpg
494.992	0.818	1	0back	Block1	0back/STIM_001.jpg
497.818	0.709	0	0back	Block1	0back/STIM_002.jpg
501.581	0.827	1	0back	Block1	0back/STIM_002.jpg
506.151	0.775	1	0back	Block1	0back/STIM_002.jpg
509.924	0.641	1	0back	Block1	0back/STIM_003.jpg
512.675	0.832	0	0back	Block1	0back/STIM_003.jpg
516.78	0.673	1	0back	Block1	0back/STIM_003.jpg
521.404	0.815	1	0back	Block1	0back/STIM_004.jpg
524.963	0.467	1	0back	Block1	0back/STIM_004.jpg
528.066	0.711	0	0back	Block1	0back/STIM_004.jpg
531.062	0.612	1	0back	Block1	0back/STIM_005.jpg
533.897	0.605	0	0back	Block1	0back/STIM_005.jpg
536.938	0.513	1	0back	Block1	0back/STIM_005.jpg
541.248	0.791	1	0back	Block1	0back/STIM_006.jpg
544.639	0.637	0	0back	Block1	0back/STIM_006.jpg
549.139	0.779	1	0back	Block1	0back/STIM_006.jpg
552.185	0.56	1	0back	Block1	0back/STIM_007.jpg
555.913	0.471	1	0back	Block1	0back/STIM_007.jpg
559.835	0.817	1	0back	Block1	0back/STIM_007.jpg
562.824	0.731	1	0back	Block1	0back/STIM_008.jpg
565.816	0.549	0	0back	Block1	0back/STIM_008.jpg
569.38	0.749	1	0back	Block1	0back/STIM_008.jpg
572.524	0.713	1	0back	Block1	0back/STIM_009.jpg
575.54	0.707	1	0back	Block1	0back/STIM_009.jpg
579.183	0.597	1	0back	Block1	0back/STIM_009.jpg
582.043	0.819	0	0back	Block1	0back/STIM_010.jpg
585.658	0.601	1	0back	Block1	0back/STIM_010.jpg
588.569	0.511	1	0back	Block1	0back/STIM_010.jpg
591.82	0.811	1	0back	Block1	0back/STIM_011.jpg
594.683	0.846	1	0back	Block1	0back/STIM_011.jpg
597.865	0.612	1	0back	Block1	0back/STIM_011.jpg
600.74	0.514	1	0back	Block1	0back/STIM_012.jpg
603.893	0.627	1	0back	Block1	0back/STIM_012.jpg
607.672	0.868	1	0back	Block1	0back/STIM_012.jpg
612.038	0.708	0	0back	Block1	0back/STIM_013.jpg
615.359	0.838	0	0back	Block1	0back/STIM_013.jpg
618.987	0.471	1	0back	Block1	0back/STIM_013.jpg
622.772	0.837	1	0back	Block1	0back/STIM_014.jpg
627.415	0.524	1	0back	Block1	0back/STIM_014.jpg
630.325	0.624	1	0back	Block1	0back/STIM_014.jpg
633.143	0.458	1	0back	Block1	0back/STIM_015.jpg
636.528	0.747	0	0back	Block1	0back/STIM_015.jpg
639.625	0.474	1	0back	Block1	0back/STIM_015.jpg
643.685	0.474	1	0back	Block1	0back/STIM_016.jpg
647.71	0.828	0	0back	Block1	0back/STIM_016.jpg
652.295	0.77	1	0back	Block1	0back/STIM_016.jpg
656.289	0.853	0	0back	Block1	0back/STIM_017.jpg
659.776	0.73	0	0back	Block1	0back/STIM_017.jpg
662.696	0.716	1	0back	Block1	0back/STIM_017.jpg
667.165	0.775	1	0back	Block1	0back/STIM_018.jpg
671.019	0.645	1	0back	Block1	0back/STIM_018.jpg
675.637	0.653	0	0back	Block1	0back/STIM_018.jpg
679.668	0.807	1	0back	Block1	0back/STIM_019.jpg
682.852	0.847	1	0back	Block1	0back/STIM_019.jpg
687.457	0.794	1	0back	Block1	0back/STIM_019.jpg
692.123	1.133	1	2back	Block2	2back/STIM_000.jpg
696.287	0.53	1	2back	Block2	2back/STIM_000.jpg
699.941	1.133	1	2back	Block2	2back/STIM_000.jpg
703.822	0.679	1	2back	Block2	2back/STIM_001.jpg
706.87	0.964	1	2back	Block2	2back/STIM_001.jpg
711.745	0.883	1	2back	Block2	2back/STIM_001.jpg
714.88	0.776	0	2back	Block2	2back/STIM_002.jpg
719.412	1.206	1	2back	Block2	2back/STIM_002.jpg
724.135	0.932	1	2back	Block2	2back/STIM_002.jpg
728.616	0.751	1	2back	Block2	2back/STIM_003.jpg
732.946	0.577	1	2back	Block2	2back/STIM_003.jpg
737.212	0.769	1	2back	Block2	2back/STIM_003.jpg
740.369	1.208	1	2back	Block2	2back/STIM_004.jpg
743.587	0.978	0	2back	Block2	2back/STIM_004.jpg
747.946	0.956	1	2back	Block2	2back/STIM_004.jpg
751.306	1.042	1	2back	Block2	2back/STIM_005.jpg
755.363	1.06	1	2back	Block2	2back/STIM_005.jpg
759.333	0.539	0	2back	Block2	2back/STIM_005.jpg
762.826	0.68	1	2back	Block2	2back/STIM_006.jpg
767.453	0.571	0	2back	Block2	2back/STIM_006.jpg
770.12	0.997	1	2back	Block2	2back/STIM_006.jpg
773.625	1.256	1	2back	Block2	2back/STIM_007.jpg
778.674	0.992	1	2back	Block2	2back/STIM_007.jpg
783.645	1.012	1	2back	Block2	2back/STIM_007.jpg
788.235	1.011	1	2back	Block2	2back/STIM_008.jpg
791.862	0.844	1	2back	Block2	2back/STIM_008.jpg
796.195	0.619	1	2back	Block2	2back/STIM_008.jpg
798.973	1.153	0	2back	Block2	2back/STIM_009.jpg
802.539	0.672	1	2back	Block2	2back/STIM_009.jpg
805.742	0.854	1	2back	Block2	2back/STIM_009.jpg
809.782	1.174	1	2back	Block2	2back/STIM_010.jpg
813.267	1.109	0	2back	Block2	2back/STIM_010.jpg
817.213	0.556	1	2back	Block2	2back/STIM_010.jpg
820.097	0.735	1	2back	Block2	2back/STIM_011.jpg
824.464	0.952	1	2back	Block2	2back/STIM_011.jpg
828.816	0.906	1	2back	Block2	2back/STIM_011.jpg
831.967	0.728	1	2back	Block2	2back/STIM_012.jpg
834.748	0.62	1	2back	Block2	2back/STIM_012.jpg
837.57	1.145	1	2back	Block2	2back/STIM_012.jpg
840.888	0.598	1	2back	Block2	2back/STIM_013.jpg
844.195	0.782	1	2back	Block2	2back/STIM_013.jpg
847.734	1.123	1	2back	Block2	2back/STIM_013.jpg
851.068	0.866	0	2back	Block2	2back/STIM_014.jpg
854.335	1.136	0	2back	Block2	2back/STIM_014.jpg
859.252	0.681	1	2back	Block2	2back/STIM_014.jpg
863.413	0.591	0	2back	Block2	2back/STIM_015.jpg
867.268	0.988	1	2back	Block2	2back/STIM_015.jpg
872.246	0.65	1	2back	Block2	2back/STIM_015.jpg
876.871	0.847	0	2back	Block2	2back/STIM_016.jpg
881.149	0.536	1	2back	Block2	2back/STIM_016.jpg
884.685	1.105	1	2back	Block2	2back/STIM_016.jpg
887.969	1.287	1	2back	Block2	2back/STIM_017.jpg
893.052	1.177	1	2back	Block2	2back/STIM_017.jpg
896.557	1.146	0	2back	Block2	2back/STIM_017.jpg
901.46	0.581	0	2back	Block2	2back/STIM_018.jpg
904.565	0.908	1	2back	Block2	2back/STIM_018.jpg
908.575	1.144	0	2back	Block2	2back/STIM_018.jpg
912.466	1.129	1	2back	Block2	2back/STIM_019.jpg
917.066	0.86	1	2back	Block2	2back/STIM_019.jpg
920.376	1.046	1	2back	Block2	2back/STIM_019.jpg
923.511	1.026	0	2back	Block2	2back/STIM_020.jpg
927.676	1.191	1	2back	Block2	2back/STIM_020.jpg
930.975	0.534	1	2back	Block2	2back/STIM_020.jpg
934.03	0.933	1	2back	Block2	2back/STIM_021.jpg
937.99	0.984	1	2back	Block2	2back/STIM_021.jpg
942.243	0.746	1	2back	Block2	2back/STIM_021.jpg
945.526	0.83	1	2back	Block2	2back/STIM_022.jpg
949.577	0.548	0	2back	Block2	2back/STIM_022.jpg
953.377	0.904	1	2back	Block2	2back/STIM_022.jpg
957.292	1.267	0	2back	Block2	2back/STIM_023.jpg
962.014	1.094	0	2back	Block2	2back/STIM_023.jpg
967.068	0.906	1	2back	Block2	2back/STIM_023.jpg
970.21	1.063	1	2back	Block2	2back/STIM_024.jpg
973.807	0.616	1	2back	Block2	2back/STIM_024.jpg
976.766	0.693	1	2back	Block2	2back/STIM_024.jpg
980.688	1.088	1	2back	Block2	2back/STIM_025.jpg
984.693	1.162	1	2back	Block2	2back/STIM_025.jpg
988.493	0.554	1	2back	Block2	2back/STIM_025.jpg
991.516	0.943	1	2back	Block2	2back/STIM_026.jpg
996.221	0.72	1	2back	Block2	2back/STIM_026.jpg
1000.758	1.002	1	2back	Block2	2back/STIM_026.jpg
1004.904	0.6	0	2back	Block2	2back/STIM_027.jpg
1009.16	0.677	1	2back	Block2	2back/STIM_027.jpg
1013.147	0.665	1	2back	Block2	2back/STIM_027.jpg
1017.171	0.685	1	2back	Block2	2back/STIM_028.jpg
1021.042	1.109	1	2back	Block2	2back/STIM_028.jpg
1024.86	0.769	1	2back	Block2	2back/STIM_028.jpg
1029.132	0.698	1	2back	Block2	2back/STIM_029.jpg
1032.376	0.672	0	2back	Block2	2back/STIM_029.jpg
1035.274	0.807	0	2back	Block2	2back/STIM_029.jpg
1039.415	1.133	1	2back	Block2	2back/STIM_030.jpg
1044.435	0.759	1	2back	Block2	2back/STIM_030.jpg
1047.346	0.685	0	2back	Block2	2back/STIM_030.jpg
1050.43	0.724	1	2back	Block2	2back/STIM_031.jpg
1054.838	0.808	0	2back	Block2	2back/STIM_031.jpg
1059.57	0.927	1	2back	Block2	2back/STIM_031.jpg
1064.44	1.31	0	2back	Block2	2back/STIM_032.jpg
1069.417	1.156	1	2back	Block2	2back/STIM_032.jpg
1073.579	0.917	1	2back	Block2	2back/STIM_032.jpg
1078.105	0.714	1	2back	Block2	2back/STIM_033.jpg
1081.628	0.702	1	2back	Block2	2back/STIM_033.jpg
1086.133	1.106	0	2back	Block2	2back/STIM_033.jpg
1090.678	0.826	1	2back	Block2	2back/STIM_034.jpg
1093.58	0.783	1	2back	Block2	2back/STIM_034.jpg
1097.049	1.049	0	2back	Block2	2back/STIM_034.jpg
1102.041	1.007	0	2back	Block2	2back/STIM_035.jpg
1106.567	0.991	1	2back	Block2	2back/STIM_035.jpg
1111.3	0.528	0	2back	Block2	2back/STIM_035.jpg
1115.628	0.917	1	2back	Block2	2back/STIM_036.jpg
1119.329	0.624	1	2back	Block2	2back/STIM_036.jpg
1123.913	0.747	1	2back	Block2	2back/STIM_036.jpg
1128.306	0.615	0	2back	Block2	2back/STIM_037.jpg
1131.092	1.086	1	2back	Block2	2back/STIM_037.jpg
1134.185	0.514	1	2back	Block2	2back/STIM_037.jpg
1137.512	1.222	1	2back	Block2	2back/STIM_038.jpg
1140.816	0.87	0	2back	Block2	2back/STIM_038.jpg
1145.602	0.6	1	2back	Block2	2back/STIM_038.jpg
1149.295	0.62	1	2back	Block2	2back/STIM_039.jpg
1152.565	0.621	1	2back	Block2	2back/STIM_039.jpg
1156.763	0.543	1	2back	Block2	2back/STIM_039.jpg
1160.928	0.601	1	0back	Block2	0back/STIM_000.jpg
1163.922	0.465	1	0back	Block2	0back/STIM_000.jpg
1167.278	0.493	1	0back	Block2	0back/STIM_000.jpg
1170.014	0.683	1	0back	Block2	0back/STIM_001.jpg
1173.715	0.616	1	0back	Block2	0back/STIM_001.jpg
1176.933	0.527	0	0back	Block2	0back/STIM_001.jpg
1180.755	0.639	1	0back	Block2	0back/STIM_002.jpg
1185.295	0.761	1	0back	Block2	0back/STIM_002.jpg
1188.09	0.566	0	0back	Block2	0back/STIM_002.jpg
1191.122	0.79	0	0back	Block2	0back/STIM_003.jpg
1194.276	0.751	1	0back	Block2	0back/STIM_003.jpg
1197.098	0.553	1	0back	Block2	0back/STIM_003.jpg
1199.722	0.818	1	0back	Block2	0back/STIM_004.jpg
1203.401	0.821	1	0back	Block2	0back/STIM_004.jpg
1206.338	0.665	1	0back	Block2	0back/STIM_004.jpg
1209.668	0.481	1	0back	Block2	0back/STIM_005.jpg
1212.616	0.85	1	0back	Block2	0back/STIM_005.jpg
1217.334	0.491	1	0back	Block2	0back/STIM_005.jpg
1219.969	0.719	1	0back	Block2	0back/STIM_006.jpg
1224.565	0.88	1	0back	Block2	0back/STIM_006.jpg
1229.213	0.586	1	0back	Block2	0back/STIM_006.jpg
1232.518	0.493	1	0back	Block2	0back/STIM_007.jpg
1235.215	0.554	1	0back	Block2	0back/STIM_007.jpg
1239.007	0.811	1	0back	Block2	0back/STIM_007.jpg
1242.195	0.564	0	0back	Block2	0back/STIM_008.jpg
1245.716	0.544	1	0back	Block2	0back/STIM_008.jpg
1249.002	0.729	0	0back	Block2	0back/STIM_008.jpg
1253.114	0.588	1	0back	Block2	0back/STIM_009.jpg
1256.491	0.568	0	0back	Block2	0back/STIM_009.jpg
1260.72	0.783	1	0back	Block2	0back/STIM_009.jpg
1263.99	0.687	1	0back	Block2	0back/STIM_010.jpg
1267.291	0.495	1	0back	Block2	0back/STIM_010.jpg
1270.83	0.834	1	0back	Block2	0back/STIM_010.jpg
1275.099	0.478	1	0back	Block2	0back/STIM_011.jpg
1278.879	0.536	1	0back	Block2	0back/STIM_011.jpg
1281.771	0.8	1	0back	Block2	0back/STIM_011.jpg
1286.377	0.732	0	0back	Block2	0back/STIM_012.jpg
1290.568	0.84	1	0back	Block2	0back/STIM_012.jpg
1294.702	0.768	1	0back	Block2	0back/STIM_012.jpg
1299.326	0.741	0	0back	Block2	0back/STIM_013.jpg
1303.092	0.746	1	0back	Block2	0back/STIM_013.jpg
1306.862	0.846	0	0back	Block2	0back/STIM_013.jpg
1310.553	0.531	1	0back	Block2	0back/STIM_014.jpg
1314.061	0.766	0	0back	Block2	0back/STIM_014.jpg
1317.848	0.7	1	0back	Block2	0back/STIM_014.jpg
1321.469	0.826	1	0back	Block2	0back/STIM_015.jpg
1324.398	0.456	1	0back	Block2	0back/STIM_015.jpg
1328.56	0.808	0	0back	Block2	0back/STIM_015.jpg
1332.824	0.509	1	0back	Block2	0back/STIM_016.jpg
1336.331	0.879	1	0back	Block2	0back/STIM_016.jpg
1339.936	0.871	1	0back	Block2	0back/STIM_016.jpg
1343.536	0.746	1	0back	Block2	0back/STIM_017.jpg
1347.503	0.535	1	0back	Block2	0back/STIM_017.jpg
1350.6	0.526	0	0back	Block2	0back/STIM_017.jpg
1353.481	0.834	1	0back	Block2	0back/STIM_018.jpg
1357.498	0.691	1	0back	Block2	0back/STIM_018.jpg
1360.322	0.862	0	0back	Block2	0back/STIM_018.jpg
1363.916	0.82	1	0back	Block2	0back/STIM_019.jpg
1368.444	0.558	1	0back	Block2	0back/STIM_019.jpg
1372.695	0.666	0	0back	Block2	0back/STIM_019.jpg
1375.59	0.697	1	2back	Block3	2back/STIM_000.jpg
1378.594	0.8	1	2back	Block3	2back/STIM_000.jpg
1383.094	1.036	1	2back	Block3	2back/STIM_000.jpg
1387.982	0.853	1	2back	Block3	2back/STIM_001.jpg
1392.093	1.005	1	2back	Block3	2back/STIM_001.jpg
1395.837	0.785	1	2back	Block3	2back/STIM_001.jpg
1400.321	0.692	1	2back	Block3	2back/STIM_002.jpg
1404.622	0.816	0	2back	Block3	2back/STIM_002.jpg
1408.323	0.756	1	2back	Block3	2back/STIM_002.jpg
1412.321	0.61	1	2back	Block3	2back/STIM_003.jpg
1416.611	1.052	0	2back	Block3	2back/STIM_003.jpg
1420.882	0.778	1	2back	Block3	2back/STIM_003.jpg
1425.327	1.002	1	2back	Block3	2back/STIM_004.jpg
1429.005	0.621	1	2back	Block3	2back/STIM_004.jpg
1431.742	0.856	1	2back	Block3	2back/STIM_004.jpg
1435.21	0.591	1	2back	Block3	2back/STIM_005.jpg
1439.485	0.944	1	2back	Block3	2back/STIM_005.jpg
1443.171	0.633	1	2back	Block3	2back/STIM_005.jpg
1447.396	0.911	1	2back	Block3	2back/STIM_006.jpg
1451.09	0.504	1	2back	Block3	2back/STIM_006.jpg
1454.432	1.079	1	2back	Block3	2back/STIM_006.jpg
1457.808	0.563	1	2back	Block3	2back/STIM_007.jpg
1461.635	0.764	0	2back	Block3	2back/STIM_007.jpg
1464.911	0.698	1	2back	Block3	2back/STIM_007.jpg
1468.945	0.626	1	2back	Block3	2back/STIM_008.jpg
1472.997	0.998	1	2back	Block3	2back/STIM_008.jpg
1477.246	0.916	1	2back	Block3	2back/STIM_008.jpg
1481.235	0.536	1	2back	Block3	2back/STIM_009.jpg
1484.733	1.039	1	2back	Block3	2back/STIM_009.jpg
1489.229	0.764	1	2back	Block3	2back/STIM_009.jpg
1493.489	0.764	1	2back	Block3	2back/STIM_010.jpg
1497.317	0.851	1	2back	Block3	2back/STIM_010.jpg
1500.992	0.727	1	2back	Block3	2back/STIM_010.jpg
1505.586	0.631	1	2back	Block3	2back/STIM_011.jpg
1508.435	0.576	0	2back	Block3	2back/STIM_011.jpg
1512.231	0.916	1	2back	Block3	2back/STIM_011.jpg
1516.931	0.598	1	2back	Block3	2back/STIM_012.jpg
1520.079	0.477	1	2back	Block3	2back/STIM_012.jpg
1522.795	0.958	1	2back	Block3	2back/STIM_012.jpg
1527.21	0.851	1	2back	Block3	2back/STIM_013.jpg
1531.719	0.643	0	2back	Block3	2back/STIM_013.jpg
1535.223	0.756	1	2back	Block3	2back/STIM_013.jpg
1539.403	1.057	1	2back	Block3	2back/STIM_014.jpg
1543.341	0.708	0	2back	Block3	2back/STIM_014.jpg
1546.309	0.94	1	2back	Block3	2back/STIM_014.jpg
1550.224	0.525	1	2back	Block3	2back/STIM_015.jpg
1554.133	0.527	0	2back	Block3	2back/STIM_015.jpg
1557.249	0.529	1	2back	Block3	2back/STIM_015.jpg
1560.873	1.055	1	2back	Block3	2back/STIM_016.jpg
1564.931	0.908	1	2back	Block3	2back/STIM_016.jpg
1569.673	0.66	1	2back	Block3	2back/STIM_016.jpg
1574.17	1.071	1	2back	Block3	2back/STIM_017.jpg
1578.023	0.94	1	2back	Block3	2back/STIM_017.jpg
1581.861	0.776	1	2back	Block3	2back/STIM_017.jpg
1584.955	0.938	1	2back	Block3	2back/STIM_018.jpg
1589.238	0.876	1	2back	Block3	2back/STIM_018.jpg
1592.257	0.721	1	2back	Block3	2back/STIM_018.jpg
1596.257	0.753	1	2back	Block3	2back/STIM_019.jpg
1599.1	0.711	1	2back	Block3	2back/STIM_019.jpg
1602.027	0.582	1	2back	Block3	2back/STIM_019.jpg
1605.824	0.896	1	2back	Block3	2back/STIM_020.jpg
1609.954	0.63	1	2back	Block3	2back/STIM_020.jpg
1613.645	0.687	1	2back	Block3	2back/STIM_020.jpg
1617.252	0.956	1	2back	Block3	2back/STIM_021.jpg
1621.458	0.946	1	2back	Block3	2back/STIM_021.jpg
1625.082	0.76	1	2back	Block3	2back/STIM_021.jpg
1628.364	0.962	1	2back	Block3	2back/STIM_022.jpg
1633.176	0.987	1	2back	Block3	2back/STIM_022.jpg
1637.074	0.843	1	2back	Block3	2back/STIM_022.jpg
1640.051	0.697	1	2back	Block3	2back/STIM_023.jpg
1643.789	0.568	1	2back	Block3	2back/STIM_023.jpg
1647.87	0.97	1	2back	Block3	2back/STIM_023.jpg
1651.796	0.588	1	2back	Block3	2back/STIM_024.jpg
1655.26	0.531	1	2back	Block3	2back/STIM_024.jpg
1658.08	1.072	0	2back	Block3	2back/STIM_024.jpg
1662.823	0.589	1	2back	Block3	2back/STIM_025.jpg
1666.128	0.768	0	2back	Block3	2back/STIM_025.jpg
1670.414	0.71	1	2back	Block3	2back/STIM_025.jpg
1674.923	1.023	1	2back	Block3	2back/STIM_026.jpg
1679.788	0.811	0	2back	Block3	2back/STIM_026.jpg
1683.515	0.496	1	2back	Block3	2back/STIM_026.jpg
1686.318	0.974	1	2back	Block3	2back/STIM_027.jpg
1690.506	0.533	0	2back	Block3	2back/STIM_027.jpg
1694.16	0.763	1	2back	Block3	2back/STIM_027.jpg
1698.788	0.696	1	2back	Block3	2back/STIM_028.jpg
1701.829	1.016	1	2back	Block3	2back/STIM_028.jpg
1706.425	0.916	1	2back	Block3	2back/STIM_028.jpg
1709.841	0.984	1	2back	Block3	2back/STIM_029.jpg
1712.878	0.636	1	2back	Block3	2back/STIM_029.jpg
1717.233	0.985	1	2back	Block3	2back/STIM_029.jpg
1721.091	0.665	1	2back	Block3	2back/STIM_030.jpg
1724.596	1.041	1	2back	Block3	2back/STIM_030.jpg
1727.668	0.722	0	2back	Block3	2back/STIM_030.jpg
1731.301	0.946	1	2back	Block3	2back/STIM_031.jpg
1735.854	0.911	1	2back	Block3	2back/STIM_031.jpg
1739.303	0.654	1	2back	Block3	2back/STIM_031.jpg
1742.091	0.485	1	2back	Block3	2back/STIM_032.jpg
1746.556	0.894	0	2back	Block3	2back/STIM_032.jpg
1749.716	0.981	1	2back	Block3	2back/STIM_032.jpg
1753.236	0.545	1	2back	Block3	2back/STIM_033.jpg
1756.853	0.689	1	2back	Block3	2back/STIM_033.jpg
1761.239	0.95	1	2back	Block3	2back/STIM_033.jpg
1765.0	0.605	1	2back	Block3	2back/STIM_034.jpg
1769.363	0.896	1	2back	Block3	2back/STIM_034.jpg
1772.404	0.742	1	2back	Block3	2back/STIM_034.jpg
1776.702	0.613	0	2back	Block3	2back/STIM_035.jpg
1780.582	0.869	1	2back	Block3	2back/STIM_035.jpg
1785.418	0.61	0	2back	Block3	2back/STIM_035.jpg
1789.805	0.726	1	2back	Block3	2back/STIM_036.jpg
1793.988	0.554	1	2back	Block3	2back/STIM_036.jpg
1798.226	0.792	1	2back	Block3	2back/STIM_036.jpg
1801.979	0.52	1	2back	Block3	2back/STIM_037.jpg
1805.044	0.859	1	2back	Block3	2back/STIM_037.jpg
1809.571	0.943	1	2back	Block3	2back/STIM_037.jpg
1813.058	0.941	1	2back	Block3	2back/STIM_038.jpg
1817.837	0.612	1	2back	Block3	2back/STIM_038.jpg
1820.78	1.052	1	2back	Block3	2back/STIM_038.jpg
1824.423	1.062	1	2back	Block3	2back/STIM_039.jpg
1828.683	1.072	1	2back	Block3	2back/STIM_039.jpg
1833.459	0.909	0	2back	Block3	2back/STIM_039.jpg
1837.493	0.499	1	0back	Block3	0back/STIM_000.jpg
1840.272	0.831	1	0back	Block3	0back/STIM_000.jpg
1844.137	0.488	0	0back	Block3	0back/STIM_000.jpg
1847.472	0.539	1	0back	Block3	0back/STIM_001.jpg
1850.167	0.636	1	0back	Block3	0back/STIM_001.jpg
1854.03	0.625	1	0back	Block3	0back/STIM_001.jpg
1857.416	0.505	1	0back	Block3	0back/STIM_002.jpg
1861.657	0.878	1	0back	Block3	0back/STIM_002.jpg
1866.006	0.547	1	0back	Block3	0back/STIM_002.jpg
1869.464	0.878	1	0back	Block3	0back/STIM_003.jpg
1873.077	0.663	1	0back	Block3	0back/STIM_003.jpg
1876.053	0.48	1	0back	Block3	0back/STIM_003.jpg
1878.762	0.527	1	0back	Block3	0back/STIM_004.jpg
1882.425	0.834	1	0back	Block3	0back/STIM_004.jpg
1886.964	0.866	0	0back	Block3	0back/STIM_004.jpg
1891.659	0.675	1	0back	Block3	0back/STIM_005.jpg
1894.389	0.745	0	0back	Block3	0back/STIM_005.jpg
1897.737	0.683	1	0back	Block3	0back/STIM_005.jpg
1902.239	0.689	1	0back	Block3	0back/STIM_006.jpg
1906.24	0.597	1	0back	Block3	0back/STIM_006.jpg
1910.405	0.88	0	0back	Block3	0back/STIM_006.jpg
1915.275	0.759	1	0back	Block3	0back/STIM_007.jpg
1918.716	0.554	1	0back	Block3	0back/STIM_007.jpg
1922.309	0.508	1	0back	Block3	0back/STIM_007.jpg
1926.086	0.514	1	0back	Block3	0back/STIM_008.jpg
1929.805	0.74	1	0back	Block3	0back/STIM_008.jpg
1932.75	0.745	1	0back	Block3	0back/STIM_008.jpg
1936.146	0.616	1	0back	Block3	0back/STIM_009.jpg
1939.819	0.544	1	0back	Block3	0back/STIM_009.jpg
1943.457	0.766	1	0back	Block3	0back/STIM_009.jpg
1947.971	0.453	1	0back	Block3	0back/STIM_010.jpg
1951.828	0.882	1	0back	Block3	0back/STIM_010.jpg
1954.801	0.723	1	0back	Block3	0back/STIM_010.jpg
1957.932	0.679	1	0back	Block3	0back/STIM_011.jpg
1960.937	0.486	1	0back	Block3	0back/STIM_011.jpg
1963.476	0.46	0	0back	Block3	0back/STIM_011.jpg
1965.94	0.615	1	0back	Block3	0back/STIM_012.jpg
1970.172	0.686	1	0back	Block3	0back/STIM_012.jpg
1973.705	0.647	1	0back	Block3	0back/STIM_012.jpg
1977.559	0.823	1	0back	Block3	0back/STIM_013.jpg
1981.022	0.454	1	0back	Block3	0back/STIM_013.jpg
1984.497	0.812	1	0back	Block3	0back/STIM_013.jpg
1988.498	0.473	1	0back	Block3	0back/STIM_014.jpg
1991.742	0.483	0	0back	Block3	0back/STIM_014.jpg
1995.075	0.565	1	0back	Block3	0back/STIM_014.jpg
1999.266	0.718	1	0back	Block3	0back/STIM_015.jpg
2003.765	0.729	1	0back	Block3	0back/STIM_015.jpg
2007.207	0.845	1	0back	Block3	0back/STIM_015.jpg
2010.651	0.458	1	0back	Block3	0back/STIM_016.jpg
2014.546	0.642	1	0back	Block3	0back/STIM_016.jpg
2017.728	0.464	0	0back	Block3	0back/STIM_016.jpg
2020.396	0.707	1	0back	Block3	0back/STIM_017.jpg
2024.022	0.879	1	0back	Block3	0back/STIM_017.jpg
2027.606	0.47	1	0back	Block3	0back/STIM_017.jpg
2031.466	0.769	1	0back	Block3	0back/STIM_018.jpg
2034.294	0.724	1	0back	Block3	0back/STIM_018.jpg
2038.668	0.48	1	0back	Block3	0back/STIM_018.jpg
2042.268	0.521	0	0back	Block3	0back/STIM_019.jpg
2045.272	0.606	1	0back	Block3	0back/STIM_019.jpg
2049.465	0.638	1	0back	Block3	0back/STIM_019.jpg
2052.919	0.481	1	2back	Block4	2back/STIM_000.jpg
2055.564	0.616	1	2back	Block4	2back/STIM_000.jpg
2060.106	0.692	1	2back	Block4	2back/STIM_000.jpg
2064.093	1.044	1	2back	Block4	2back/STIM_001.jpg
2067.886	0.848	1	2back	Block4	2back/STIM_001.jpg
2070.932	0.958	1	2back	Block4	2back/STIM_001.jpg
2074.059	0.557	1	2back	Block4	2back/STIM_002.jpg
2077.573	0.587	1	2back	Block4	2back/STIM_002.jpg
2080.674	1.068	1	2back	Block4	2back/STIM_002.jpg
2084.899	0.782	1	2back	Block4	2back/STIM_003.jpg
2087.757	0.879	1	2back	Block4	2back/STIM_003.jpg
2092.275	0.661	1	2back	Block4	2back/STIM_003.jpg
2094.992	0.527	0	2back	Block4	2back/STIM_004.jpg
2098.639	0.489	1	2back	Block4	2back/STIM_004.jpg
2102.773	0.729	1	2back	Block4	2back/STIM_004.jpg
2106.828	0.76	1	2back	Block4	2back/STIM_005.jpg
2110.532	0.858	1	2back	Block4	2back/STIM_005.jpg
2113.64	0.606	1	2back	Block4	2back/STIM_005.jpg
2117.356	0.548	1	2back	Block4	2back/STIM_006.jpg
2119.992	0.815	1	2back	Block4	2back/STIM_006.jpg
2123.584	0.639	0	2back	Block4	2back/STIM_006.jpg
2127.846	1.011	1	2back	Block4	2back/STIM_007.jpg
2132.431	1.051	1	2back	Block4	2back/STIM_007.jpg
2136.557	0.506	1	2back	Block4	2back/STIM_007.jpg
2140.077	0.906	1	2back	Block4	2back/STIM_008.jpg
2144.75	0.69	0	2back	Block4	2back/STIM_008.jpg
2148.409	0.836	1	2back	Block4	2back/STIM_008.jpg
2152.269	0.596	1	2back	Block4	2back/STIM_009.jpg
2156.46	0.898	1	2back	Block4	2back/STIM_009.jpg
2160.05	0.585	1	2back	Block4	2back/STIM_009.jpg
2163.078	1.06	1	2back	Block4	2back/STIM_010.jpg
2166.409	0.931	0	2back	Block4	2back/STIM_010.jpg
2169.759	0.578	1	2back	Block4	2back/STIM_010.jpg
2172.377	0.824	1	2back	Block4	2back/STIM_011.jpg
2176.683	0.774	0	2back	Block4	2back/STIM_011.jpg
2180.71	0.55	1	2back	Block4	2back/STIM_011.jpg
2184.547	0.737	1	2back	Block4	2back/STIM_012.jpg
2189.267	0.805	1	2back	Block4	2back/STIM_012.jpg
2192.812	0.937	1	2back	Block4	2back/STIM_012.jpg
2197.593	0.978	1	2back	Block4	2back/STIM_013.jpg
2200.731	0.567	1	2back	Block4	2back/STIM_013.jpg
2203.795	0.806	1	2back	Block4	2back/STIM_013.jpg
2208.503	0.588	1	2back	Block4	2back/STIM_014.jpg
2212.024	0.854	1	2back	Block4	2back/STIM_014.jpg
2215.568	0.742	1	2back	Block4	2back/STIM_014.jpg
2219.267	0.636	1	2back	Block4	2back/STIM_015.jpg
2223.379	0.971	1	2back	Block4	2back/STIM_015.jpg
2226.67	0.593	1	2back	Block4	2back/STIM_015.jpg
2230.35	0.865	1	2back	Block4	2back/STIM_016.jpg
2233.288	0.847	1	2back	Block4	2back/STIM_016.jpg
2237.712	0.976	1	2back	Block4	2back/STIM_016.jpg
2241.931	0.504	1	2back	Block4	2back/STIM_017.jpg
2246.344	0.97	1	2back	Block4	2back/STIM_017.jpg
2250.805	0.534	1	2back	Block4	2back/STIM_017.jpg
2253.741	0.691	1	2back	Block4	2back/STIM_018.jpg
2258.183	0.863	1	2back	Block4	2back/STIM_018.jpg
2261.869	1.016	1	2back	Block4	2back/STIM_018.jpg
2266.072	0.471	1	2back	Block4	2back/STIM_019.jpg
2270.207	0.951	1	2back	Block4	2back/STIM_019.jpg
2273.598	1.016	1	2back	Block4	2back/STIM_019.jpg
2276.798	0.584	1	2back	Block4	2back/STIM_020.jpg
2279.637	0.981	1	2back	Block4	2back/STIM_020.jpg
2283.757	0.661	1	2back	Block4	2back/STIM_020.jpg
2287.337	0.598	1	2back	Block4	2back/STIM_021.jpg
2291.014	0.916	1	2back	Block4	2back/STIM_021.jpg
2294.514	0.623	1	2back	Block4	2back/STIM_021.jpg
2298.037	0.827	0	2back	Block4	2back/STIM_022.jpg
2301.046	0.667	1	2back	Block4	2back/STIM_022.jpg
2305.433	0.839	1	2back	Block4	2back/STIM_022.jpg
2308.37	0.658	1	2back	Block4	2back/STIM_023.jpg
2311.91	1.039	1	2back	Block4	2back/STIM_023.jpg
2315.589	0.622	1	2back	Block4	2back/STIM_023.jpg
2319.714	0.556	0	2back	Block4	2back/STIM_024.jpg
2324.124	0.989	1	2back	Block4	2back/STIM_024.jpg
2327.877	0.834	1	2back	Block4	2back/STIM_024.jpg
2332.451	0.75	1	2back	Block4	2back/STIM_025.jpg
2335.43	0.867	0	2back	Block4	2back/STIM_025.jpg
2339.448	0.972	1	2back	Block4	2back/STIM_025.jpg
2342.448	0.704	1	2back	Block4	2back/STIM_026.jpg
2345.678	1.034	1	2back	Block4	2back/STIM_026.jpg
2349.635	0.738	1	2back	Block4	2back/STIM_026.jpg
2352.7	1.031	1	2back	Block4	2back/STIM_027.jpg
2356.666	1.058	1	2back	Block4	2back/STIM_027.jpg
2359.904	0.923	1	2back	Block4	2back/STIM_027.jpg
2363.239	0.775	0	2back	Block4	2back/STIM_028.jpg
2366.601	0.607	1	2back	Block4	2back/STIM_028.jpg
2369.517	0.827	1	2back	Block4	2back/STIM_028.jpg
2372.522	0.966	0	2back	Block4	2back/STIM_029.jpg
2376.5	0.988	1	2back	Block4	2back/STIM_029.jpg
2381.204	0.813	1	2back	Block4	2back/STIM_029.jpg
2384.034	0.565	1	2back	Block4	2back/STIM_030.jpg
2387.786	0.875	1	2back	Block4	2back/STIM_030.jpg
2391.736	0.944	1	2back	Block4	2back/STIM_030.jpg
2395.019	0.865	0	2back	Block4	2back/STIM_031.jpg
2399.843	1.02	1	2back	Block4	2back/STIM_031.jpg
2403.528	0.672	1	2back	Block4	2back/STIM_031.jpg
2406.346	0.664	1	2back	Block4	2back/STIM_032.jpg
2409.208	0.884	1	2back	Block4	2back/STIM_032.jpg
2412.112	0.509	1	2back	Block4	2back/STIM_032.jpg
2414.959	0.631	1	2back	Block4	2back/STIM_033.jpg
2417.835	0.775	1	2back	Block4	2back/STIM_033.jpg
2422.405	0.843	1	2back	Block4	2back/STIM_033.jpg
2427.05	0.922	1	2back	Block4	2back/STIM_034.jpg
2431.354	0.537	1	2back	Block4	2back/STIM_034.jpg
2435.575	0.745	1	2back	Block4	2back/STIM_034.jpg
2439.325	0.588	1	2back	Block4	2back/STIM_035.jpg
2442.661	0.63	0	2back	Block4	2back/STIM_035.jpg
2446.172	0.904	1	2back	Block4	2back/STIM_035.jpg
2450.833	0.968	1	2back	Block4	2back/STIM_036.jpg
2455.319	0.709	1	2back	Block4	2back/STIM_036.jpg
2458.828	0.871	0	2back	Block4	2back/STIM_036.jpg
2462.796	1.027	0	2back	Block4	2back/STIM_037.jpg
2467.174	0.771	1	2back	Block4	2back/STIM_037.jpg
2470.607	1.014	0	2back	Block4	2back/STIM_037.jpg
2474.706	0.699	1	2back	Block4	2back/STIM_038.jpg
2478.506	0.731	1	2back	Block4	2back/STIM_038.jpg
2481.964	1.032	1	2back	Block4	2back/STIM_038.jpg
2486.656	0.776	1	2back	Block4	2back/STIM_039.jpg
2490.761	0.903	1	2back	Block4	2back/STIM_039.jpg
2494.743	0.911	1	2back	Block4	2back/STIM_039.jpg
2498.361	0.829	1	0back	Block4	0back/STIM_000.jpg
2503.013	0.594	0	0back	Block4	0back/STIM_000.jpg
2506.355	0.56	1	0back	Block4	0back/STIM_000.jpg
2509.627	0.693	1	0back	Block4	0back/STIM_001.jpg
2512.579	0.847	0	0back	Block4	0back/STIM_001.jpg
2516.464	0.811	1	0back	Block4	0back/STIM_001.jpg
2520.426	0.859	1	0back	Block4	0back/STIM_002.jpg
2523.634	0.557	1	0back	Block4	0back/STIM_002.jpg
2526.315	0.763	1	0back	Block4	0back/STIM_002.jpg
2529.244	0.848	1	0back	Block4	0back/STIM_003.jpg
2533.992	0.575	1	0back	Block4	0back/STIM_003.jpg
2537.724	0.873	0	0back	Block4	0back/STIM_003.jpg
2541.015	0.522	1	0back	Block4	0back/STIM_004.jpg
2544.222	0.574	1	0back	Block4	0back/STIM_004.jpg
2546.876	0.798	1	0back	Block4	0back/STIM_004.jpg
2550.58	0.51	1	0back	Block4	0back/STIM_005.jpg
2554.821	0.516	1	0back	Block4	0back/STIM_005.jpg
2558.845	0.569	0	0back	Block4	0back/STIM_005.jpg
2563.184	0.728	1	0back	Block4	0back/STIM_006.jpg
2566.484	0.738	1	0back	Block4	0back/STIM_006.jpg
2569.307	0.821	1	0back	Block4	0back/STIM_006.jpg
2572.363	0.764	1	0back	Block4	0back/STIM_007.jpg
2575.13	0.789	1	0back	Block4	0back/STIM_007.jpg
2578.035	0.46	0	0back	Block4	0back/STIM_007.jpg
2580.539	0.479	1	0back	Block4	0back/STIM_008.jpg
2584.452	0.572	1	0back	Block4	0back/STIM_008.jpg
2587.549	0.608	1	0back	Block4	0back/STIM_008.jpg
2591.931	0.678	1	0back	Block4	0back/STIM_009.jpg
2595.265	0.85	0	0back	Block4	0back/STIM_009.jpg
2599.717	0.704	1	0back	Block4	0back/STIM_009.jpg
2604.043	0.517	1	0back	Block4	0back/STIM_010.jpg
2606.895	0.839	0	0back	Block4	0back/STIM_010.jpg
2610.667	0.575	0	0back	Block4	0back/STIM_010.jpg
2613.482	0.572	1	0back	Block4	0back/STIM_011.jpg
2618.027	0.728	1	0back	Block4	0back/STIM_011.jpg
2622.428	0.689	1	0back	Block4	0back/STIM_011.jpg
2627.105	0.65	1	0back	Block4	0back/STIM_012.jpg
2630.981	0.544	1	0back	Block4	0back/STIM_012.jpg
2634.863	0.664	0	0back	Block4	0back/STIM_012.jpg
2637.563	0.528	0	0back	Block4	0back/STIM_013.jpg
2640.294	0.8	1	0back	Block4	0back/STIM_013.jpg
2644.48	0.511	1	0back	Block4	0back/STIM_013.jpg
2647.248	0.607	1	0back	Block4	0back/STIM_014.jpg
2651.035	0.597	1	0back	Block4	0back/STIM_014.jpg
2655.184	0.533	1	0back	Block4	0back/STIM_014.jpg
2658.833	0.721	1	0back	Block4	0back/STIM_015.jpg
2662.935	0.575	0	0back	Block4	0back/STIM_015.jpg
2666.62	0.547	0	0back	Block4	0back/STIM_015.jpg
2670.143	0.809	0	0back	Block4	0back/STIM_016.jpg
2673.426	0.599	1	0back	Block4	0back/STIM_016.jpg
2676.4	0.733	1	0back	Block4	0back/STIM_016.jpg
2680.251	0.633	1	0back	Block4	0back/STIM_017.jpg
2683.279	0.728	1	0back	Block4	0back/STIM_017.jpg
2687.203	0.875	1	0back	Block4	0back/STIM_017.jpg
2691.94	0.827	0	0back	Block4	0back/STIM_018.jpg
2695.557	0.468	0	0back	Block4	0back/STIM_018.jpg
2699.23	0.764	1	0back	Block4	0back/STIM_018.jpg
2703.003	0.584	1	0back	Block4	0back/STIM_019.jpg
2706.783	0.627	1	0back	Block4	0back/STIM_019.jpg
2710.927	0.844	1	0back	Block4	0back/STIM_019.jpg
