onset	duration	response_time_ms	trial_type	learning_stage	stimulus	response_port
0.0	1.466	1466.3	2back	Block1	2back/STIM_000.jpg	99
5.142	0.862	861.8	2back	Block1	2back/STIM_000.jpg	100
9.048	0.906	906.0	2back	Block1	2back/STIM_000.jpg	100
12.323	1.169	1169.1	2back	Block1	2back/STIM_001.jpg	99
16.714	1.389	1388.8	2back	Block1	2back/STIM_001.jpg	99
21.896	0.801	801.1	2back	Block1	2back/STIM_001.jpg	100
25.199	0.666	665.6	2back	Block1	2back/STIM_002.jpg	99
28.318	1.216	1215.8	2back	Block1	2back/STIM_002.jpg	99
31.702	1.088	1088.2	2back	Block1	2back/STIM_002.jpg	100
36.199	1.281	1280.9	2back	Block1	2back/STIM_003.jpg	99
40.316	0.63	629.8	2back	Block1	2back/STIM_003.jpg	100
43.383	0.86	860.0	2back	Block1	2back/STIM_003.jpg	100
46.988	1.36	1360.3	2back	Block1	2back/STIM_004.jpg	100
50.821	1.403	1403.1	2back	Block1	2back/STIM_004.jpg	100
55.0	0.962	962.2	2back	Block1	2back/STIM_004.jpg	100
59.078	0.942	942.0	2back	Block1	2back/STIM_005.jpg	100
63.125	0.754	754.0	2back	Block1	2back/STIM_005.jpg	99
66.916	0.599	598.9	2back	Block1	2back/STIM_005.jpg	100
70.813	0.723	723.4	2back	Block1	2back/STIM_006.jpg	99
73.751	0.731	731.2	2back	Block1	2back/STIM_006.jpg	100
78.016	0.816	815.8	2back	Block1	2back/STIM_006.jpg	99
82.615	1.045	1045.4	2back	Block1	2back/STIM_007.jpg	99
87.155	0.754	753.7	2back	Block1	2back/STIM_007.jpg	100
90.531	1.013	1013.3	2back	Block1	2back/STIM_007.jpg	99
94.003	1.369	1369.3	2back	Block1	2back/STIM_008.jpg	100
98.664	0.688	687.8	2back	Block1	2back/STIM_008.jpg	100
102.113	1.29	1290.3	2back	Block1	2back/STIM_008.jpg	100
105.478	1.076	1076.0	2back	Block1	2back/STIM_009.jpg	100
109.971	0.654	653.9	2back	Block1	2back/STIM_009.jpg	100
113.883	0.623	622.9	2back	Block1	2back/STIM_009.jpg	99
117.414	1.09	1089.5	2back	Block1	2back/STIM_010.jpg	100
122.009	0.7	699.9	2back	Block1	2back/STIM_010.jpg	99
125.414	0.695	695.3	2back	Block1	2back/STIM_010.jpg	100
128.503	1.036	1036.3	2back	Block1	2back/STIM_011.jpg	99
132.601	1.408	1408.0	2back	Block1	2back/STIM_011.jpg	99
137.884	0.951	950.7	2back	Block1	2back/STIM_011.jpg	99
141.888	1.503	1503.2	2back	Block1	2back/STIM_012.jpg	99
145.429	0.844	843.7	2back	Block1	2back/STIM_012.jpg	99
148.841	0.704	704.0	2back	Block1	2back/STIM_012.jpg	100
151.705	1.3	1300.3	2back	Block1	2back/STIM_013.jpg	99
156.185	1.221	1221.0	2back	Block1	2back/STIM_013.jpg	100
159.937	0.77	770.5	2back	Block1	2back/STIM_013.jpg	99
163.367	0.978	978.0	2back	Block1	2back/STIM_014.jpg	99
167.115	1.086	1086.2	2back	Block1	2back/STIM_014.jpg	99
171.801	1.17	1169.9	2back	Block1	2back/STIM_014.jpg	100
176.875	1.02	1020.5	2back	Block1	2back/STIM_015.jpg	100
180.113	0.744	743.7	2back	Block1	2back/STIM_015.jpg	99
183.478	0.976	975.8	2back	Block1	2back/STIM_015.jpg	100
187.516	1.347	1347.1	2back	Block1	2back/STIM_016.jpg	99
192.107	1.148	1147.9	2back	Block1	2back/STIM_016.jpg	99
196.267	1.115	1115.3	2back	Block1	2back/STIM_016.jpg	100
200.415	0.868	867.5	2back	Block1	2back/STIM_017.jpg	100
203.871	0.92	919.9	2back	Block1	2back/STIM_017.jpg	99
207.144	1.014	1014.5	2back	Block1	2back/STIM_017.jpg	100
211.685	1.15	1149.6	2back	Block1	2back/STIM_018.jpg	100
215.117	1.214	1213.6	2back	Block1	2back/STIM_018.jpg	99
219.912	1.07	1070.2	2back	Block1	2back/STIM_018.jpg	100
224.094	1.341	1341.0	2back	Block1	2back/STIM_019.jpg	99
228.796	0.886	885.6	2back	Block1	2back/STIM_019.jpg	99
232.466	1.239	1239.3	2back	Block1	2back/STIM_019.jpg	99
237.243	1.51	1510.3	2back	Block1	2back/STIM_020.jpg	99
240.804	0.815	815.2	2back	Block1	2back/STIM_020.jpg	100
245.566	0.733	733.3	2back	Block1	2back/STIM_020.jpg	100
249.853	1.197	1196.9	2back	Block1	2back/STIM_021.jpg	100
253.084	0.971	971.3	2back	Block1	2back/STIM_021.jpg	99
257.992	0.917	916.8	2back	Block1	2back/STIM_021.jpg	99
261.742	1.25	1250.3	2back	Block1	2back/STIM_022.jpg	99
266.727	1.194	1194.3	2back	Block1	2back/STIM_022.jpg	99
270.351	1.323	1322.9	2back	Block1	2back/STIM_022.jpg	100
274.506	1.007	1006.8	2back	Block1	2back/STIM_023.jpg	100
279.43	0.796	796.0	2back	Block1	2back/STIM_023.jpg	99
282.246	0.638	637.7	2back	Block1	2back/STIM_023.jpg	99
286.014	1.298	1297.5	2back	Block1	2back/STIM_024.jpg	100
290.533	0.702	701.9	2back	Block1	2back/STIM_024.jpg	99
293.673	0.846	846.4	2back	Block1	2back/STIM_024.jpg	99
296.869	1.097	1097.4	2back	Block1	2back/STIM_025.jpg	99
300.241	0.659	659.1	2back	Block1	2back/STIM_025.jpg	100
303.897	0.636	636.3	2back	Block1	2back/STIM_025.jpg	100
308.134	0.673	672.8	2back	Block1	2back/STIM_026.jpg	100
312.157	0.842	842.5	2back	Block1	2back/STIM_026.jpg	100
315.81	1.206	1206.4	2back	Block1	2back/STIM_026.jpg	99
320.375	1.511	1511.2	2back	Block1	2back/STIM_027.jpg	99
324.161	1.274	1273.7	2back	Block1	2back/STIM_027.jpg	100
328.586	0.882	881.6	2back	Block1	2back/STIM_027.jpg	100
333.091	1.171	1171.3	2back	Block1	2back/STIM_028.jpg	100
337.432	0.919	919.1	2back	Block1	2back/STIM_028.jpg	100
341.841	1.213	1213.3	2back	Block1	2back/STIM_028.jpg	99
346.808	1.029	1029.0	2back	Block1	2back/STIM_029.jpg	99
350.235	1.257	1256.9	2back	Block1	2back/STIM_029.jpg	99
355.104	0.736	735.6	2back	Block1	2back/STIM_029.jpg	100
358.769	0.925	925.1	2back	Block1	2back/STIM_030.jpg	100
362.983	1.014	1014.0	2back	Block1	2back/STIM_030.jpg	100
366.437	1.32	1320.2	2back	Block1	2back/STIM_030.jpg	100
371.223	0.867	867.1	2back	Block1	2back/STIM_031.jpg	99
374.809	1.336	1336.5	2back	Block1	2back/STIM_031.jpg	99
379.876	1.034	1033.8	2back	Block1	2back/STIM_031.jpg	99
384.43	1.029	1028.9	2back	Block1	2back/STIM_032.jpg	99
388.025	1.269	1268.7	2back	Block1	2back/STIM_032.jpg	99
391.853	0.878	877.7	2back	Block1	2back/STIM_032.jpg	100
396.318	1.391	1390.6	2back	Block1	2back/STIM_033.jpg	100
399.779	1.336	1336.5	2back	Block1	2back/STIM_033.jpg	99
404.174	0.996	996.4	2back	Block1	2back/STIM_033.jpg	99
408.774	1.532	1532.2	2back	Block1	2back/STIM_034.jpg	99
412.353	1.404	1404.0	2back	Block1	2back/STIM_034.jpg	100
417.56	1.178	1178.1	2back	Block1	2back/STIM_034.jpg	100
421.163	1.166	1165.6	2back	Block1	2back/STIM_035.jpg	99
425.757	0.692	691.7	2back	Block1	2back/STIM_035.jpg	99
428.899	1.151	1150.9	2back	Block1	2back/STIM_035.jpg	100
432.233	1.466	1466.4	2back	Block1	2back/STIM_036.jpg	100
435.889	0.893	892.9	2back	Block1	2back/STIM_036.jpg	99
438.809	1.176	1176.2	2back	Block1	2back/STIM_036.jpg	99
442.704	0.734	733.9	2back	Block1	2back/STIM_037.jpg	100
446.528	0.852	852.3	2back	Block1	2back/STIM_037.jpg	99
450.841	0.639	639.0	2back	Block1	2back/STIM_037.jpg	100
453.552	1.054	1053.8	2back	Block1	2back/STIM_038.jpg	100
457.57	1.154	1153.8	2back	Block1	2back/STIM_038.jpg	100
460.855	1.35	1349.5	2back	Block1	2back/STIM_038.jpg	100
465.373	1.286	1285.9	2back	Block1	2back/STIM_039.jpg	99
468.798	1.025	1024.9	2back	Block1	2back/STIM_039.jpg	100
473.525	0.62	620.3	2back	Block1	2back/STIM_039.jpg	100
476.726	0.519	518.7	0back	Block1	0back/STIM_000.jpg	99
480.387	0.648	648.4	0back	Block1	0back/STIM_000.jpg	100
483.749	0.865	865.4	0back	Block1	0back/STIM_000.jpg	100
488.507	0.737	737.4	0back	Block1	0back/STIM_001.jpg	100
491.892	0.712	711.8	0back	Block1	0back/STIM_001.jpg	100
494.992	0.818	818.2	0back	Block1	0back/STIM_001.jpg	99
497.818	0.709	708.8	0back	Block1	0back/STIM_002.jpg	99
501.581	0.827	827.4	0back	Block1	0back/STIM_002.jpg	99
506.151	0.775	774.9	0back	Block1	0back/STIM_002.jpg	100
509.924	0.641	640.8	0back	Block1	0back/STIM_003.jpg	100
512.675	0.832	831.5	0back	Block1	0back/STIM_003.jpg	100
516.78	0.673	672.6	0back	Block1	0back/STIM_003.jpg	100
521.404	0.815	814.8	0back	Block1	0back/STIM_004.jpg	100
524.963	0.467	467.3	0back	Block1	0back/STIM_004.jpg	100
528.066	0.711	710.7	0back	Block1	0back/STIM_004.jpg	100
531.062	0.612	611.7	0back	Block1	0back/STIM_005.jpg	99
533.897	0.605	605.4	0back	Block1	0back/STIM_005.jpg	100
536.938	0.513	513.4	0back	Block1	0back/STIM_005.jpg	99
541.248	0.791	790.6	0back	Block1	0back/STIM_006.jpg	99
544.639	0.637	637.4	0back	Block1	0back/STIM_006.jpg	100
549.139	0.779	779.3	0back	Block1	0back/STIM_006.jpg	100
552.185	0.56	559.6	0back	Block1	0back/STIM_007.jpg	100
555.913	0.471	471.3	0back	Block1	0back/STIM_007.jpg	100
559.835	0.817	816.8	0back	Block1	0back/STIM_007.jpg	99
562.824	0.731	731.4	0back	Block1	0back/STIM_008.jpg	99
565.816	0.549	549.4	0back	Block1	0back/STIM_008.jpg	99
569.38	0.749	748.8	0back	Block1	0back/STIM_008.jpg	99
572.524	0.713	712.7	0back	Block1	0back/STIM_009.jpg	99
575.54	0.707	706.9	0back	Block1	0back/STIM_009.jpg	100
579.183	0.597	597.1	0back	Block1	0back/STIM_009.jpg	100
582.043	0.819	818.8	0back	Block1	0back/STIM_010.jpg	99
585.658	0.601	601.3	0back	Block1	0back/STIM_010.jpg	100
588.569	0.511	511.3	0back	Block1	0back/STIM_010.jpg	99
591.82	0.811	811.4	0back	Block1	0back/STIM_011.jpg	100
594.683	0.846	846.4	0back	Block1	0back/STIM_011.jpg	100
597.865	0.612	612.0	0back	Block1	0back/STIM_011.jpg	100
600.74	0.514	514.5	0back	Block1	0back/STIM_012.jpg	100
603.893	0.627	626.7	0back	Block1	0back/STIM_012.jpg	99
607.672	0.868	868.4	0back	Block1	0back/STIM_012.jpg	100
612.038	0.708	707.9	0back	Block1	0back/STIM_013.jpg	99
615.359	0.838	838.1	0back	Block1	0back/STIM_013.jpg	99
618.987	0.471	470.8	0back	Block1	0back/STIM_013.jpg	100
622.772	0.837	836.8	0back	Block1	0back/STIM_014.jpg	100
627.415	0.524	524.0	0back	Block1	0back/STIM_014.jpg	100
630.325	0.624	624.4	0back	Block1	0back/STIM_014.jpg	99
633.143	0.458	457.5	0back	Block1	0back/STIM_015.jpg	100
636.528	0.747	747.0	0back	Block1	0back/STIM_015.jpg	99
639.625	0.474	473.6	0back	Block1	0back/STIM_015.jpg	100
643.685	0.474	473.7	0back	Block1	0back/STIM_016.jpg	99
647.71	0.828	827.9	0back	Block1	0back/STIM_016.jpg	99
652.295	0.77	770.4	0back	Block1	0back/STIM_016.jpg	100
656.289	0.853	853.0	0back	Block1	0back/STIM_017.jpg	100
659.776	0.73	730.3	0back	Block1	0back/STIM_017.jpg	100
662.696	0.716	716.4	0back	Block1	0back/STIM_017.jpg	100
667.165	0.775	774.6	0back	Block1	0back/STIM_018.jpg	99
671.019	0.645	645.2	0back	Block1	0back/STIM_018.jpg	100
675.637	0.653	652.9	0back	Block1	0back/STIM_018.jpg	100
679.668	0.807	807.2	0back	Block1	0back/STIM_019.jpg	100
682.852	0.847	846.6	0back	Block1	0back/STIM_019.jpg	99
687.457	0.794	794.4	0back	Block1	0back/STIM_019.jpg	100
692.123	1.133	1133.1	2back	Block2	2back/STIM_000.jpg	100
696.287	0.53	530.5	2back	Block2	2back/STIM_000.jpg	99
699.941	1.133	1133.3	2back	Block2	2back/STIM_000.jpg	100
703.822	0.679	679.0	2back	Block2	2back/STIM_001.jpg	99
706.87	0.964	963.8	2back	Block2	2back/STIM_001.jpg	100
711.745	0.883	883.3	2back	Block2	2back/STIM_001.jpg	100
714.88	0.776	776.4	2back	Block2	2back/STIM_002.jpg	100
719.412	1.206	1205.9	2back	Block2	2back/STIM_002.jpg	99
724.135	0.932	932.3	2back	Block2	2back/STIM_002.jpg	100
728.616	0.751	751.4	2back	Block2	2back/STIM_003.jpg	100
732.946	0.577	576.6	2back	Block2	2back/STIM_003.jpg	99
737.212	0.769	769.4	2back	Block2	2back/STIM_003.jpg	100
740.369	1.208	1207.6	2back	Block2	2back/STIM_004.jpg	100
743.587	0.978	977.6	2back	Block2	2back/STIM_004.jpg	99
747.946	0.956	955.5	2back	Block2	2back/STIM_004.jpg	99
751.306	1.042	1042.2	2back	Block2	2back/STIM_005.jpg	99
755.363	1.06	1060.4	2back	Block2	2back/STIM_005.jpg	99
759.333	0.539	539.3	2back	Block2	2back/STIM_005.jpg	99
762.826	0.68	680.3	2back	Block2	2back/STIM_006.jpg	100
767.453	0.571	571.0	2back	Block2	2back/STIM_006.jpg	100
770.12	0.997	996.7	2back	Block2	2back/STIM_006.jpg	100
773.625	1.256	1255.7	2back	Block2	2back/STIM_007.jpg	100
778.674	0.992	992.1	2back	Block2	2back/STIM_007.jpg	99
783.645	1.012	1011.7	2back	Block2	2back/STIM_007.jpg	99
788.235	1.011	1010.9	2back	Block2	2back/STIM_008.jpg	99
791.862	0.844	844.1	2back	Block2	2back/STIM_008.jpg	99
796.195	0.619	618.7	2back	Block2	2back/STIM_008.jpg	100
798.973	1.153	1152.8	2back	Block2	2back/STIM_009.jpg	100
802.539	0.672	672.3	2back	Block2	2back/STIM_009.jpg	99
805.742	0.854	853.7	2back	Block2	2back/STIM_009.jpg	100
809.782	1.174	1174.4	2back	Block2	2back/STIM_010.jpg	100
813.267	1.109	1109.0	2back	Block2	2back/STIM_010.jpg	100
817.213	0.556	555.7	2back	Block2	2back/STIM_010.jpg	100
820.097	0.735	734.6	2back	Block2	2back/STIM_011.jpg	99
824.464	0.952	952.1	2back	Block2	2back/STIM_011.jpg	100
828.816	0.906	905.7	2back	Block2	2back/STIM_011.jpg	100
831.967	0.728	727.5	2back	Block2	2back/STIM_012.jpg	100
834.748	0.62	620.1	2back	Block2	2back/STIM_012.jpg	99
837.57	1.145	1145.1	2back	Block2	2back/STIM_012.jpg	100
840.888	0.598	598.2	2back	Block2	2back/STIM_013.jpg	100
844.195	0.782	781.8	2back	Block2	2back/STIM_013.jpg	99
847.734	1.123	1123.4	2back	Block2	2back/STIM_013.jpg	100
851.068	0.866	866.2	2back	Block2	2back/STIM_014.jpg	99
854.335	1.136	1135.5	2back	Block2	2back/STIM_014.jpg	100
859.252	0.681	681.0	2back	Block2	2back/STIM_014.jpg	100
863.413	0.591	590.6	2back	Block2	2back/STIM_015.jpg	99
867.268	0.988	988.3	2back	Block2	2back/STIM_015.jpg	99
872.246	0.65	649.5	2back	Block2	2back/STIM_015.jpg	100
876.871	0.847	846.8	2back	Block2	2back/STIM_016.jpg	100
881.149	0.536	536.0	2back	Block2	2back/STIM_016.jpg	99
884.685	1.105	1104.7	2back	Block2	2back/STIM_016.jpg	99
887.969	1.287	1286.9	2back	Block2	2back/STIM_017.jpg	100
893.052	1.177	1177.0	2back	Block2	2back/STIM_017.jpg	99
896.557	1.146	1146.0	2back	Block2	2back/STIM_017.jpg	100
901.46	0.581	581.2	2back	Block2	2back/STIM_018.jpg	100
904.565	0.908	908.5	2back	Block2	2back/STIM_018.jpg	100
908.575	1.144	1144.4	2back	Block2	2back/STIM_018.jpg	100
912.466	1.129	1128.7	2back	Block2	2back/STIM_019.jpg	100
917.066	0.86	860.0	2back	Block2	2back/STIM_019.jpg	99
920.376	1.046	1046.1	2back	Block2	2back/STIM_019.jpg	99
923.511	1.026	1026.1	2back	Block2	2back/STIM_020.jpg	100
927.676	1.191	1191.1	2back	Block2	2back/STIM_020.jpg	99
930.975	0.534	533.7	2back	Block2	2back/STIM_020.jpg	100
934.03	0.933	933.1	2back	Block2	2back/STIM_021.jpg	100
937.99	0.984	984.3	2back	Block2	2back/STIM_021.jpg	100
942.243	0.746	746.3	2back	Block2	2back/STIM_021.jpg	100
945.526	0.83	830.2	2back	Block2	2back/STIM_022.jpg	100
949.577	0.548	548.2	2back	Block2	2back/STIM_022.jpg	99
953.377	0.904	904.5	2back	Block2	2back/STIM_022.jpg	99
957.292	1.267	1267.1	2back	Block2	2back/STIM_023.jpg	100
962.014	1.094	1093.9	2back	Block2	2back/STIM_023.jpg	100
967.068	0.906	906.1	2back	Block2	2back/STIM_023.jpg	100
970.21	1.063	1062.9	2back	Block2	2back/STIM_024.jpg	99
973.807	0.616	615.7	2back	Block2	2back/STIM_024.jpg	100
976.766	0.693	692.8	2back	Block2	2back/STIM_024.jpg	99
980.688	1.088	1088.2	2back	Block2	2back/STIM_025.jpg	100
984.693	1.162	1162.3	2back	Block2	2back/STIM_025.jpg	100
988.493	0.554	553.5	2back	Block2	2back/STIM_025.jpg	99
991.516	0.943	942.7	2back	Block2	2back/STIM_026.jpg	99
996.221	0.72	719.8	2back	Block2	2back/STIM_026.jpg	99
1000.758	1.002	1001.9	2back	Block2	2back/STIM_026.jpg	100
1004.904	0.6	599.5	2back	Block2	2back/STIM_027.jpg	100
1009.16	0.677	677.2	2back	Block2	2back/STIM_027.jpg	100
1013.147	0.665	665.2	2back	Block2	2back/STIM_027.jpg	100
1017.171	0.685	684.9	2back	Block2	2back/STIM_028.jpg	100
1021.042	1.109	1109.4	2back	Block2	2back/STIM_028.jpg	99
1024.86	0.769	768.9	2back	Block2	2back/STIM_028.jpg	100
1029.132	0.698	698.4	2back	Block2	2back/STIM_029.jpg	100
1032.376	0.672	671.6	2back	Block2	2back/STIM_029.jpg	100
1035.274	0.807	806.8	2back	Block2	2back/STIM_029.jpg	100
1039.415	1.133	1132.7	2back	Block2	2back/STIM_030.jpg	100
1044.435	0.759	759.0	2back	Block2	2back/STIM_030.jpg	99
1047.346	0.685	685.4	2back	Block2	2back/STIM_030.jpg	99
1050.43	0.724	723.7	2back	Block2	2back/STIM_031.jpg	100
1054.838	0.808	807.8	2back	Block2	2back/STIM_031.jpg	100
1059.57	0.927	927.4	2back	Block2	2back/STIM_031.jpg	100
1064.44	1.31	1309.9	2back	Block2	2back/STIM_032.jpg	100
1069.417	1.156	1156.3	2back	Block2	2back/STIM_032.jpg	99
1073.579	0.917	916.8	2back	Block2	2back/STIM_032.jpg	99
1078.105	0.714	713.8	2back	Block2	2back/STIM_033.jpg	99
1081.628	0.702	701.7	2back	Block2	2back/STIM_033.jpg	100
1086.133	1.106	1106.4	2back	Block2	2back/STIM_033.jpg	99
1090.678	0.826	826.4	2back	Block2	2back/STIM_034.jpg	99
1093.58	0.783	782.7	2back	Block2	2back/STIM_034.jpg	99
1097.049	1.049	1049.1	2back	Block2	2back/STIM_034.jpg	99
1102.041	1.007	1006.9	2back	Block2	2back/STIM_035.jpg	100
1106.567	0.991	991.2	2back	Block2	2back/STIM_035.jpg	100
1111.3	0.528	527.9	2back	Block2	2back/STIM_035.jpg	100
1115.628	0.917	917.2	2back	Block2	2back/STIM_036.jpg	99
1119.329	0.624	623.6	2back	Block2	2back/STIM_036.jpg	100
1123.913	0.747	746.7	2back	Block2	2back/STIM_036.jpg	99
1128.306	0.615	615.2	2back	Block2	2back/STIM_037.jpg	100
1131.092	1.086	1086.2	2back	Block2	2back/STIM_037.jpg	99
1134.185	0.514	514.3	2back	Block2	2back/STIM_037.jpg	99
1137.512	1.222	1222.2	2back	Block2	2back/STIM_038.jpg	99
1140.816	0.87	870.5	2back	Block2	2back/STIM_038.jpg	100
1145.602	0.6	599.5	2back	Block2	2back/STIM_038.jpg	100
1149.295	0.62	620.3	2back	Block2	2back/STIM_039.jpg	99
1152.565	0.621	620.6	2back	Block2	2back/STIM_039.jpg	100
1156.763	0.543	542.6	2back	Block2	2back/STIM_039.jpg	99
1160.928	0.601	601.4	0back	Block2	0back/STIM_000.jpg	100
1163.922	0.465	465.2	0back	Block2	0back/STIM_000.jpg	99
1167.278	0.493	492.7	0back	Block2	0back/STIM_000.jpg	99
1170.014	0.683	683.4	0back	Block2	0back/STIM_001.jpg	99
1173.715	0.616	616.2	0back	Block2	0back/STIM_001.jpg	100
1176.933	0.527	527.0	0back	Block2	0back/STIM_001.jpg	99
1180.755	0.639	638.9	0back	Block2	0back/STIM_002.jpg	100
1185.295	0.761	761.0	0back	Block2	0back/STIM_002.jpg	100
1188.09	0.566	566.5	0back	Block2	0back/STIM_002.jpg	99
1191.122	0.79	790.2	0back	Block2	0back/STIM_003.jpg	99
1194.276	0.751	750.9	0back	Block2	0back/STIM_003.jpg	100
1197.098	0.553	552.8	0back	Block2	0back/STIM_003.jpg	100
1199.722	0.818	818.0	0back	Block2	0back/STIM_004.jpg	99
1203.401	0.821	820.6	0back	Block2	0back/STIM_004.jpg	99
1206.338	0.665	665.2	0back	Block2	0back/STIM_004.jpg	100
1209.668	0.481	480.9	0back	Block2	0back/STIM_005.jpg	100
1212.616	0.85	850.1	0back	Block2	0back/STIM_005.jpg	99
1217.334	0.491	491.0	0back	Block2	0back/STIM_005.jpg	100
1219.969	0.719	719.3	0back	Block2	0back/STIM_006.jpg	99
1224.565	0.88	879.5	0back	Block2	0back/STIM_006.jpg	100
1229.213	0.586	585.5	0back	Block2	0back/STIM_006.jpg	100
1232.518	0.493	493.3	0back	Block2	0back/STIM_007.jpg	99
1235.215	0.554	554.1	0back	Block2	0back/STIM_007.jpg	99
1239.007	0.811	811.4	0back	Block2	0back/STIM_007.jpg	99
1242.195	0.564	564.1	0back	Block2	0back/STIM_008.jpg	100
1245.716	0.544	543.9	0back	Block2	0back/STIM_008.jpg	99
1249.002	0.729	729.1	0back	Block2	0back/STIM_008.jpg	99
1253.114	0.588	587.5	0back	Block2	0back/STIM_009.jpg	100
1256.491	0.568	568.1	0back	Block2	0back/STIM_009.jpg	99
1260.72	0.783	783.1	0back	Block2	0back/STIM_009.jpg	100
1263.99	0.687	687.2	0back	Block2	0back/STIM_010.jpg	100
1267.291	0.495	495.1	0back	Block2	0back/STIM_010.jpg	99
1270.83	0.834	834.2	0back	Block2	0back/STIM_010.jpg	99
1275.099	0.478	478.1	0back	Block2	0back/STIM_011.jpg	99
1278.879	0.536	536.2	0back	Block2	0back/STIM_011.jpg	100
1281.771	0.8	800.4	0back	Block2	0back/STIM_011.jpg	100
1286.377	0.732	731.9	0back	Block2	0back/STIM_012.jpg	99
1290.568	0.84	839.5	0back	Block2	0back/STIM_012.jpg	100
1294.702	0.768	767.8	0back	Block2	0back/STIM_012.jpg	100
1299.326	0.741	740.8	0back	Block2	0back/STIM_013.jpg	100
1303.092	0.746	745.8	0back	Block2	0back/STIM_013.jpg	99
1306.862	0.846	846.1	0back	Block2	0back/STIM_013.jpg	99
1310.553	0.531	530.9	0back	Block2	0back/STIM_014.jpg	100
1314.061	0.766	765.5	0back	Block2	0back/STIM_014.jpg	99
1317.848	0.7	699.9	0back	Block2	0back/STIM_014.jpg	99
1321.469	0.826	826.0	0back	Block2	0back/STIM_015.jpg	100
1324.398	0.456	455.9	0back	Block2	0back/STIM_015.jpg	99
1328.56	0.808	807.5	0back	Block2	0back/STIM_015.jpg	100
1332.824	0.509	509.4	0back	Block2	0back/STIM_016.jpg	100
1336.331	0.879	878.9	0back	Block2	0back/STIM_016.jpg	100
1339.936	0.871	870.6	0back	Block2	0back/STIM_016.jpg	100
1343.536	0.746	745.7	0back	Block2	0back/STIM_017.jpg	99
1347.503	0.535	535.2	0back	Block2	0back/STIM_017.jpg	100
1350.6	0.526	526.0	0back	Block2	0back/STIM_017.jpg	100
1353.481	0.834	833.9	0back	Block2	0back/STIM_018.jpg	100
1357.498	0.691	690.7	0back	Block2	0back/STIM_018.jpg	100
1360.322	0.862	862.1	0back	Block2	0back/STIM_018.jpg	99
1363.916	0.82	819.6	0back	Block2	0back/STIM_019.jpg	100
1368.444	0.558	557.6	0back	Block2	0back/STIM_019.jpg	100
1372.695	0.666	665.5	0back	Block2	0back/STIM_019.jpg	99
1375.59	0.697	697.2	2back	Block3	2back/STIM_000.jpg	99
1378.594	0.8	799.9	2back	Block3	2back/STIM_000.jpg	100
1383.094	1.036	1036.0	2back	Block3	2back/STIM_000.jpg	99
1387.982	0.853	852.9	2back	Block3	2back/STIM_001.jpg	100
1392.093	1.005	1005.2	2back	Block3	2back/STIM_001.jpg	100
1395.837	0.785	785.1	2back	Block3	2back/STIM_001.jpg	100
1400.321	0.692	692.3	2back	Block3	2back/STIM_002.jpg	100
1404.622	0.816	816.5	2back	Block3	2back/STIM_002.jpg	99
1408.323	0.756	755.8	2back	Block3	2back/STIM_002.jpg	99
1412.321	0.61	610.0	2back	Block3	2back/STIM_003.jpg	99
1416.611	1.052	1052.1	2back	Block3	2back/STIM_003.jpg	99
1420.882	0.778	778.0	2back	Block3	2back/STIM_003.jpg	99
1425.327	1.002	1002.4	2back	Block3	2back/STIM_004.jpg	99
1429.005	0.621	621.1	2back	Block3	2back/STIM_004.jpg	99
1431.742	0.856	856.4	2back	Block3	2back/STIM_004.jpg	100
1435.21	0.591	591.4	2back	Block3	2back/STIM_005.jpg	100
1439.485	0.944	943.6	2back	Block3	2back/STIM_005.jpg	99
1443.171	0.633	633.3	2back	Block3	2back/STIM_005.jpg	100
1447.396	0.911	910.6	2back	Block3	2back/STIM_006.jpg	99
1451.09	0.504	503.8	2back	Block3	2back/STIM_006.jpg	99
1454.432	1.079	1079.4	2back	Block3	2back/STIM_006.jpg	100
1457.808	0.563	562.8	2back	Block3	2back/STIM_007.jpg	99
1461.635	0.764	763.8	2back	Block3	2back/STIM_007.jpg	99
1464.911	0.698	698.3	2back	Block3	2back/STIM_007.jpg	100
1468.945	0.626	626.1	2back	Block3	2back/STIM_008.jpg	100
1472.997	0.998	998.4	2back	Block3	2back/STIM_008.jpg	100
1477.246	0.916	916.4	2back	Block3	2back/STIM_008.jpg	100
1481.235	0.536	535.8	2back	Block3	2back/STIM_009.jpg	100
1484.733	1.039	1038.9	2back	Block3	2back/STIM_009.jpg	99
1489.229	0.764	764.0	2back	Block3	2back/STIM_009.jpg	100
1493.489	0.764	764.1	2back	Block3	2back/STIM_010.jpg	99
1497.317	0.851	850.9	2back	Block3	2back/STIM_010.jpg	100
1500.992	0.727	726.6	2back	Block3	2back/STIM_010.jpg	99
1505.586	0.631	630.9	2back	Block3	2back/STIM_011.jpg	99
1508.435	0.576	575.6	2back	Block3	2back/STIM_011.jpg	100
1512.231	0.916	915.9	2back	Block3	2back/STIM_011.jpg	99
1516.931	0.598	598.1	2back	Block3	2back/STIM_012.jpg	99
1520.079	0.477	477.1	2back	Block3	2back/STIM_012.jpg	100
1522.795	0.958	958.5	2back	Block3	2back/STIM_012.jpg	99
1527.21	0.851	850.9	2back	Block3	2back/STIM_013.jpg	99
1531.719	0.643	643.0	2back	Block3	2back/STIM_013.jpg	99
1535.223	0.756	755.7	2back	Block3	2back/STIM_013.jpg	99
1539.403	1.057	1056.9	2back	Block3	2back/STIM_014.jpg	100
1543.341	0.708	708.2	2back	Block3	2back/STIM_014.jpg	99
1546.309	0.94	940.4	2back	Block3	2back/STIM_014.jpg	100
1550.224	0.525	524.7	2back	Block3	2back/STIM_015.jpg	100
1554.133	0.527	526.8	2back	Block3	2back/STIM_015.jpg	99
1557.249	0.529	528.6	2back	Block3	2back/STIM_015.jpg	99
1560.873	1.055	1055.1	2back	Block3	2back/STIM_016.jpg	99
1564.931	0.908	907.9	2back	Block3	2back/STIM_016.jpg	99
1569.673	0.66	660.5	2back	Block3	2back/STIM_016.jpg	100
1574.17	1.071	1071.0	2back	Block3	2back/STIM_017.jpg	99
1578.023	0.94	939.6	2back	Block3	2back/STIM_017.jpg	100
1581.861	0.776	776.5	2back	Block3	2back/STIM_017.jpg	99
1584.955	0.938	938.2	2back	Block3	2back/STIM_018.jpg	99
1589.238	0.876	876.5	2back	Block3	2back/STIM_018.jpg	99
1592.257	0.721	720.9	2back	Block3	2back/STIM_018.jpg	99
1596.257	0.753	753.1	2back	Block3	2back/STIM_019.jpg	100
1599.1	0.711	710.8	2back	Block3	2back/STIM_019.jpg	99
1602.027	0.582	582.0	2back	Block3	2back/STIM_019.jpg	99
1605.824	0.896	895.9	2back	Block3	2back/STIM_020.jpg	100
1609.954	0.63	630.0	2back	Block3	2back/STIM_020.jpg	99
1613.645	0.687	687.2	2back	Block3	2back/STIM_020.jpg	100
1617.252	0.956	955.9	2back	Block3	2back/STIM_021.jpg	99
1621.458	0.946	945.8	2back	Block3	2back/STIM_021.jpg	100
1625.082	0.76	759.9	2back	Block3	2back/STIM_021.jpg	99
1628.364	0.962	962.0	2back	Block3	2back/STIM_022.jpg	100
1633.176	0.987	986.8	2back	Block3	2back/STIM_022.jpg	100
1637.074	0.843	843.4	2back	Block3	2back/STIM_022.jpg	99
1640.051	0.697	696.9	2back	Block3	2back/STIM_023.jpg	100
1643.789	0.568	567.9	2back	Block3	2back/STIM_023.jpg	100
1647.87	0.97	970.4	2back	Block3	2back/STIM_023.jpg	99
1651.796	0.588	587.5	2back	Block3	2back/STIM_024.jpg	100
1655.26	0.531	531.0	2back	Block3	2back/STIM_024.jpg	100
1658.08	1.072	1072.2	2back	Block3	2back/STIM_024.jpg	100
1662.823	0.589	588.6	2back	Block3	2back/STIM_025.jpg	99
1666.128	0.768	768.1	2back	Block3	2back/STIM_025.jpg	99
1670.414	0.71	710.4	2back	Block3	2back/STIM_025.jpg	100
1674.923	1.023	1023.0	2back	Block3	2back/STIM_026.jpg	99
1679.788	0.811	810.7	2back	Block3	2back/STIM_026.jpg	99
1683.515	0.496	496.1	2back	Block3	2back/STIM_026.jpg	99
1686.318	0.974	973.7	2back	Block3	2back/STIM_027.jpg	100
1690.506	0.533	532.6	2back	Block3	2back/STIM_027.jpg	100
1694.16	0.763	762.6	2back	Block3	2back/STIM_027.jpg	100
1698.788	0.696	696.1	2back	Block3	2back/STIM_028.jpg	99
1701.829	1.016	1016.0	2back	Block3	2back/STIM_028.jpg	100
1706.425	0.916	915.6	2back	Block3	2back/STIM_028.jpg	100
1709.841	0.984	984.0	2back	Block3	2back/STIM_029.jpg	99
1712.878	0.636	636.0	2back	Block3	2back/STIM_029.jpg	99
1717.233	0.985	985.1	2back	Block3	2back/STIM_029.jpg	100
1721.091	0.665	665.0	2back	Block3	2back/STIM_030.jpg	100
1724.596	1.041	1040.6	2back	Block3	2back/STIM_030.jpg	100
1727.668	0.722	722.0	2back	Block3	2back/STIM_030.jpg	99
1731.301	0.946	946.2	2back	Block3	2back/STIM_031.jpg	100
1735.854	0.911	910.8	2back	Block3	2back/STIM_031.jpg	100
1739.303	0.654	654.1	2back	Block3	2back/STIM_031.jpg	100
1742.091	0.485	485.0	2back	Block3	2back/STIM_032.jpg	99
1746.556	0.894	894.0	2back	Block3	2back/STIM_032.jpg	99
1749.716	0.981	980.8	2back	Block3	2back/STIM_032.jpg	100
1753.236	0.545	545.2	2back	Block3	2back/STIM_033.jpg	100
1756.853	0.689	688.7	2back	Block3	2back/STIM_033.jpg	99
1761.239	0.95	949.7	2back	Block3	2back/STIM_033.jpg	99
1765.0	0.605	605.4	2back	Block3	2back/STIM_034.jpg	100
1769.363	0.896	896.0	2back	Block3	2back/STIM_034.jpg	100
1772.404	0.742	742.0	2back	Block3	2back/STIM_034.jpg	100
1776.702	0.613	612.7	2back	Block3	2back/STIM_035.jpg	100
1780.582	0.869	868.9	2back	Block3	2back/STIM_035.jpg	100
1785.418	0.61	610.1	2back	Block3	2back/STIM_035.jpg	100
1789.805	0.726	726.3	2back	Block3	2back/STIM_036.jpg	99
1793.988	0.554	553.9	2back	Block3	2back/STIM_036.jpg	99
1798.226	0.792	791.7	2back	Block3	2back/STIM_036.jpg	100
1801.979	0.52	519.6	2back	Block3	2back/STIM_037.jpg	100
1805.044	0.859	859.3	2back	Block3	2back/STIM_037.jpg	100
1809.571	0.943	943.1	2back	Block3	2back/STIM_037.jpg	100
1813.058	0.941	941.0	2back	Block3	2back/STIM_038.jpg	100
1817.837	0.612	611.5	2back	Block3	2back/STIM_038.jpg	99
1820.78	1.052	1051.8	2back	Block3	2back/STIM_038.jpg	100
1824.423	1.062	1062.2	2back	Block3	2back/STIM_039.jpg	100
1828.683	1.072	1071.5	2back	Block3	2back/STIM_039.jpg	100
1833.459	0.909	909.2	2back	Block3	2back/STIM_039.jpg	99
1837.493	0.499	499.1	0back	Block3	0back/STIM_000.jpg	99
1840.272	0.831	831.2	0back	Block3	0back/STIM_000.jpg	99
1844.137	0.488	487.5	0back	Block3	0back/STIM_000.jpg	100
1847.472	0.539	539.4	0back	Block3	0back/STIM_001.jpg	99
1850.167	0.636	636.2	0back	Block3	0back/STIM_001.jpg	100
1854.03	0.625	624.7	0back	Block3	0back/STIM_001.jpg	100
1857.416	0.505	505.0	0back	Block3	0back/STIM_002.jpg	100
1861.657	0.878	877.9	0back	Block3	0back/STIM_002.jpg	99
1866.006	0.547	546.8	0back	Block3	0back/STIM_002.jpg	99
1869.464	0.878	878.0	0back	Block3	0back/STIM_003.jpg	99
1873.077	0.663	663.4	0back	Block3	0back/STIM_003.jpg	100
1876.053	0.48	480.2	0back	Block3	0back/STIM_003.jpg	99
1878.762	0.527	527.4	0back	Block3	0back/STIM_004.jpg	99
1882.425	0.834	834.5	0back	Block3	0back/STIM_004.jpg	99
1886.964	0.866	866.0	0back	Block3	0back/STIM_004.jpg	99
1891.659	0.675	675.2	0back	Block3	0back/STIM_005.jpg	100
1894.389	0.745	745.0	0back	Block3	0back/STIM_005.jpg	100
1897.737	0.683	683.3	0back	Block3	0back/STIM_005.jpg	100
1902.239	0.689	689.1	0back	Block3	0back/STIM_006.jpg	100
1906.24	0.597	597.2	0back	Block3	0back/STIM_006.jpg	99
1910.405	0.88	879.6	0back	Block3	0back/STIM_006.jpg	100
1915.275	0.759	759.3	0back	Block3	0back/STIM_007.jpg	99
1918.716	0.554	553.5	0back	Block3	0back/STIM_007.jpg	99
1922.309	0.508	508.0	0back	Block3	0back/STIM_007.jpg	99
1926.086	0.514	513.6	0back	Block3	0back/STIM_008.jpg	99
1929.805	0.74	739.7	0back	Block3	0back/STIM_008.jpg	100
1932.75	0.745	744.6	0back	Block3	0back/STIM_008.jpg	99
1936.146	0.616	615.5	0back	Block3	0back/STIM_009.jpg	99
1939.819	0.544	544.2	0back	Block3	0back/STIM_009.jpg	99
1943.457	0.766	766.4	0back	Block3	0back/STIM_009.jpg	100
1947.971	0.453	452.9	0back	Block3	0back/STIM_010.jpg	100
1951.828	0.882	881.5	0back	Block3	0back/STIM_010.jpg	100
1954.801	0.723	722.9	0back	Block3	0back/STIM_010.jpg	99
1957.932	0.679	678.7	0back	Block3	0back/STIM_011.jpg	100
1960.937	0.486	486.1	0back	Block3	0back/STIM_011.jpg	99
1963.476	0.46	460.0	0back	Block3	0back/STIM_011.jpg	99
1965.94	0.615	614.7	0back	Block3	0back/STIM_012.jpg	99
1970.172	0.686	686.3	0back	Block3	0back/STIM_012.jpg	100
1973.705	0.647	646.9	0back	Block3	0back/STIM_012.jpg	99
1977.559	0.823	822.6	0back	Block3	0back/STIM_013.jpg	100
1981.022	0.454	453.6	0back	Block3	0back/STIM_013.jpg	99
1984.497	0.812	812.0	0back	Block3	0back/STIM_013.jpg	99
1988.498	0.473	473.1	0back	Block3	0back/STIM_014.jpg	99
1991.742	0.483	483.0	0back	Block3	0back/STIM_014.jpg	99
1995.075	0.565	564.6	0back	Block3	0back/STIM_014.jpg	99
1999.266	0.718	718.3	0back	Block3	0back/STIM_015.jpg	99
2003.765	0.729	728.6	0back	Block3	0back/STIM_015.jpg	100
2007.207	0.845	844.7	0back	Block3	0back/STIM_015.jpg	100
2010.651	0.458	457.9	0back	Block3	0back/STIM_016.jpg	99
2014.546	0.642	642.5	0back	Block3	0back/STIM_016.jpg	99
2017.728	0.464	463.7	0back	Block3	0back/STIM_016.jpg	99
2020.396	0.707	707.0	0back	Block3	0back/STIM_017.jpg	100
2024.022	0.879	879.3	0back	Block3	0back/STIM_017.jpg	100
2027.606	0.47	469.9	0back	Block3	0back/STIM_017.jpg	100
2031.466	0.769	769.3	0back	Block3	0back/STIM_018.jpg	99
2034.294	0.724	724.1	0back	Block3	0back/STIM_018.jpg	100
2038.668	0.48	479.7	0back	Block3	0back/STIM_018.jpg	99
2042.268	0.521	521.4	0back	Block3	0back/STIM_019.jpg	100
2045.272	0.606	605.8	0back	Block3	0back/STIM_019.jpg	100
2049.465	0.638	637.8	0back	Block3	0back/STIM_019.jpg	99
2052.919	0.481	480.6	2back	Block4	2back/STIM_000.jpg	99
2055.564	0.616	615.5	2back	Block4	2back/STIM_000.jpg	99
2060.106	0.692	691.5	2back	Block4	2back/STIM_000.jpg	99
2064.093	1.044	1044.4	2back	Block4	2back/STIM_001.jpg	99
2067.886	0.848	848.4	2back	Block4	2back/STIM_001.jpg	100
2070.932	0.958	958.4	2back	Block4	2back/STIM_001.jpg	99
2074.059	0.557	556.8	2back	Block4	2back/STIM_002.jpg	99
2077.573	0.587	586.9	2back	Block4	2back/STIM_002.jpg	99
2080.674	1.068	1068.1	2back	Block4	2back/STIM_002.jpg	100
2084.899	0.782	781.8	2back	Block4	2back/STIM_003.jpg	99
2087.757	0.879	879.1	2back	Block4	2back/STIM_003.jpg	99
2092.275	0.661	661.3	2back	Block4	2back/STIM_003.jpg	99
2094.992	0.527	527.3	2back	Block4	2back/STIM_004.jpg	100
2098.639	0.489	489.3	2back	Block4	2back/STIM_004.jpg	100
2102.773	0.729	729.2	2back	Block4	2back/STIM_004.jpg	99
2106.828	0.76	760.4	2back	Block4	2back/STIM_005.jpg	99
2110.532	0.858	857.7	2back	Block4	2back/STIM_005.jpg	99
2113.64	0.606	606.0	2back	Block4	2back/STIM_005.jpg	99
2117.356	0.548	547.5	2back	Block4	2back/STIM_006.jpg	100
2119.992	0.815	814.9	2back	Block4	2back/STIM_006.jpg	100
2123.584	0.639	639.0	2back	Block4	2back/STIM_006.jpg	100
2127.846	1.011	1010.9	2back	Block4	2back/STIM_007.jpg	100
2132.431	1.051	1051.2	2back	Block4	2back/STIM_007.jpg	100
2136.557	0.506	505.6	2back	Block4	2back/STIM_007.jpg	100
2140.077	0.906	905.7	2back	Block4	2back/STIM_008.jpg	100
2144.75	0.69	690.4	2back	Block4	2back/STIM_008.jpg	100
2148.409	0.836	835.6	2back	Block4	2back/STIM_008.jpg	100
2152.269	0.596	596.0	2back	Block4	2back/STIM_009.jpg	100
2156.46	0.898	897.7	2back	Block4	2back/STIM_009.jpg	99
2160.05	0.585	585.4	2back	Block4	2back/STIM_009.jpg	100
2163.078	1.06	1059.8	2back	Block4	2back/STIM_010.jpg	100
2166.409	0.931	930.8	2back	Block4	2back/STIM_010.jpg	99
2169.759	0.578	577.6	2back	Block4	2back/STIM_010.jpg	100
2172.377	0.824	823.8	2back	Block4	2back/STIM_011.jpg	100
2176.683	0.774	773.6	2back	Block4	2back/STIM_011.jpg	100
2180.71	0.55	550.4	2back	Block4	2back/STIM_011.jpg	100
2184.547	0.737	737.0	2back	Block4	2back/STIM_012.jpg	99
2189.267	0.805	805.1	2back	Block4	2back/STIM_012.jpg	99
2192.812	0.937	937.1	2back	Block4	2back/STIM_012.jpg	100
2197.593	0.978	977.5	2back	Block4	2back/STIM_013.jpg	99
2200.731	0.567	566.7	2back	Block4	2back/STIM_013.jpg	100
2203.795	0.806	805.7	2back	Block4	2back/STIM_013.jpg	100
2208.503	0.588	588.2	2back	Block4	2back/STIM_014.jpg	100
2212.024	0.854	854.5	2back	Block4	2back/STIM_014.jpg	99
2215.568	0.742	741.9	2back	Block4	2back/STIM_014.jpg	100
2219.267	0.636	636.0	2back	Block4	2back/STIM_015.jpg	100
2223.379	0.971	971.2	2back	Block4	2back/STIM_015.jpg	100
2226.67	0.593	592.8	2back	Block4	2back/STIM_015.jpg	100
2230.35	0.865	865.4	2back	Block4	2back/STIM_016.jpg	100
2233.288	0.847	846.6	2back	Block4	2back/STIM_016.jpg	100
2237.712	0.976	976.0	2back	Block4	2back/STIM_016.jpg	99
2241.931	0.504	503.8	2back	Block4	2back/STIM_017.jpg	100
2246.344	0.97	969.8	2back	Block4	2back/STIM_017.jpg	99
2250.805	0.534	533.9	2back	Block4	2back/STIM_017.jpg	99
2253.741	0.691	691.0	2back	Block4	2back/STIM_018.jpg	99
2258.183	0.863	863.4	2back	Block4	2back/STIM_018.jpg	100
2261.869	1.016	1015.6	2back	Block4	2back/STIM_018.jpg	100
2266.072	0.471	471.1	2back	Block4	2back/STIM_019.jpg	100
2270.207	0.951	950.8	2back	Block4	2back/STIM_019.jpg	100
2273.598	1.016	1015.6	2back	Block4	2back/STIM_019.jpg	99
2276.798	0.584	584.1	2back	Block4	2back/STIM_020.jpg	99
2279.637	0.981	980.9	2back	Block4	2back/STIM_020.jpg	99
2283.757	0.661	660.8	2back	Block4	2back/STIM_020.jpg	99
2287.337	0.598	597.7	2back	Block4	2back/STIM_021.jpg	100
2291.014	0.916	916.1	2back	Block4	2back/STIM_021.jpg	100
2294.514	0.623	623.1	2back	Block4	2back/STIM_021.jpg	100
2298.037	0.827	826.9	2back	Block4	2back/STIM_022.jpg	99
2301.046	0.667	666.6	2back	Block4	2back/STIM_022.jpg	100
2305.433	0.839	838.9	2back	Block4	2back/STIM_022.jpg	100
2308.37	0.658	658.5	2back	Block4	2back/STIM_023.jpg	100
2311.91	1.039	1038.9	2back	Block4	2back/STIM_023.jpg	99
2315.589	0.622	621.8	2back	Block4	2back/STIM_023.jpg	99
2319.714	0.556	555.9	2back	Block4	2back/STIM_024.jpg	100
2324.124	0.989	988.9	2back	Block4	2back/STIM_024.jpg	99
2327.877	0.834	834.4	2back	Block4	2back/STIM_024.jpg	100
2332.451	0.75	749.5	2back	Block4	2back/STIM_025.jpg	100
2335.43	0.867	866.7	2back	Block4	2back/STIM_025.jpg	100
2339.448	0.972	972.0	2back	Block4	2back/STIM_025.jpg	99
2342.448	0.704	704.1	2back	Block4	2back/STIM_026.jpg	99
2345.678	1.034	1034.4	2back	Block4	2back/STIM_026.jpg	99
2349.635	0.738	738.1	2back	Block4	2back/STIM_026.jpg	100
2352.7	1.031	1030.6	2back	Block4	2back/STIM_027.jpg	100
2356.666	1.058	1058.5	2back	Block4	2back/STIM_027.jpg	99
2359.904	0.923	923.1	2back	Block4	2back/STIM_027.jpg	99
2363.239	0.775	774.8	2back	Block4	2back/STIM_028.jpg	100
2366.601	0.607	606.6	2back	Block4	2back/STIM_028.jpg	100
2369.517	0.827	827.0	2back	Block4	2back/STIM_028.jpg	100
2372.522	0.966	966.2	2back	Block4	2back/STIM_029.jpg	100
2376.5	0.988	988.2	2back	Block4	2back/STIM_029.jpg	99
2381.204	0.813	812.8	2back	Block4	2back/STIM_029.jpg	100
2384.034	0.565	564.6	2back	Block4	2back/STIM_030.jpg	99
2387.786	0.875	874.7	2back	Block4	2back/STIM_030.jpg	100
2391.736	0.944	943.7	2back	Block4	2back/STIM_030.jpg	99
2395.019	0.865	865.3	2back	Block4	2back/STIM_031.jpg	100
2399.843	1.02	1019.5	2back	Block4	2back/STIM_031.jpg	100
2403.528	0.672	671.5	2back	Block4	2back/STIM_031.jpg	99
2406.346	0.664	663.8	2back	Block4	2back/STIM_032.jpg	99
2409.208	0.884	884.1	2back	Block4	2back/STIM_032.jpg	100
2412.112	0.509	509.3	2back	Block4	2back/STIM_032.jpg	100
2414.959	0.631	630.7	2back	Block4	2back/STIM_033.jpg	99
2417.835	0.775	775.3	2back	Block4	2back/STIM_033.jpg	100
2422.405	0.843	843.0	2back	Block4	2back/STIM_033.jpg	99
2427.05	0.922	922.5	2back	Block4	2back/STIM_034.jpg	100
2431.354	0.537	537.3	2back	Block4	2back/STIM_034.jpg	99
2435.575	0.745	744.6	2back	Block4	2back/STIM_034.jpg	99
2439.325	0.588	588.5	2back	Block4	2back/STIM_035.jpg	99
2442.661	0.63	630.0	2back	Block4	2back/STIM_035.jpg	100
2446.172	0.904	904.2	2back	Block4	2back/STIM_035.jpg	100
2450.833	0.968	967.9	2back	Block4	2back/STIM_036.jpg	100
2455.319	0.709	708.9	2back	Block4	2back/STIM_036.jpg	100
2458.828	0.871	870.9	2back	Block4	2back/STIM_036.jpg	100
2462.796	1.027	1027.1	2back	Block4	2back/STIM_037.jpg	100
2467.174	0.771	770.9	2back	Block4	2back/STIM_037.jpg	99
2470.607	1.014	1014.5	2back	Block4	2back/STIM_037.jpg	99
2474.706	0.699	698.7	2back	Block4	2back/STIM_038.jpg	100
2478.506	0.731	731.0	2back	Block4	2back/STIM_038.jpg	100
2481.964	1.032	1031.7	2back	Block4	2back/STIM_038.jpg	99
2486.656	0.776	775.8	2back	Block4	2back/STIM_039.jpg	99
2490.761	0.903	902.8	2back	Block4	2back/STIM_039.jpg	99
2494.743	0.911	910.7	2back	Block4	2back/STIM_039.jpg	99
2498.361	0.829	828.9	0back	Block4	0back/STIM_000.jpg	100
2503.013	0.594	593.5	0back	Block4	0back/STIM_000.jpg	99
2506.355	0.56	559.8	0back	Block4	0back/STIM_000.jpg	99
2509.627	0.693	693.2	0back	Block4	0back/STIM_001.jpg	100
2512.579	0.847	847.4	0back	Block4	0back/STIM_001.jpg	99
2516.464	0.811	811.4	0back	Block4	0back/STIM_001.jpg	100
2520.426	0.859	858.8	0back	Block4	0back/STIM_002.jpg	99
2523.634	0.557	557.3	0back	Block4	0back/STIM_002.jpg	99
2526.315	0.763	762.9	0back	Block4	0back/STIM_002.jpg	99
2529.244	0.848	848.0	0back	Block4	0back/STIM_003.jpg	99
2533.992	0.575	574.9	0back	Block4	0back/STIM_003.jpg	99
2537.724	0.873	873.3	0back	Block4	0back/STIM_003.jpg	99
2541.015	0.522	522.2	0back	Block4	0back/STIM_004.jpg	100
2544.222	0.574	573.7	0back	Block4	0back/STIM_004.jpg	100
2546.876	0.798	797.9	0back	Block4	0back/STIM_004.jpg	100
2550.58	0.51	510.2	0back	Block4	0back/STIM_005.jpg	100
2554.821	0.516	516.2	0back	Block4	0back/STIM_005.jpg	100
2558.845	0.569	568.8	0back	Block4	0back/STIM_005.jpg	100
2563.184	0.728	727.5	0back	Block4	0back/STIM_006.jpg	99
2566.484	0.738	737.8	0back	Block4	0back/STIM_006.jpg	99
2569.307	0.821	820.9	0back	Block4	0back/STIM_006.jpg	99
2572.363	0.764	763.5	0back	Block4	0back/STIM_007.jpg	99
2575.13	0.789	788.9	0back	Block4	0back/STIM_007.jpg	99
2578.035	0.46	460.5	0back	Block4	0back/STIM_007.jpg	100
2580.539	0.479	478.7	0back	Block4	0back/STIM_008.jpg	99
2584.452	0.572	571.5	0back	Block4	0back/STIM_008.jpg	100
2587.549	0.608	608.0	0back	Block4	0back/STIM_008.jpg	100
2591.931	0.678	677.8	0back	Block4	0back/STIM_009.jpg	100
2595.265	0.85	850.2	0back	Block4	0back/STIM_009.jpg	99
2599.717	0.704	703.6	0back	Block4	0back/STIM_009.jpg	99
2604.043	0.517	517.2	0back	Block4	0back/STIM_010.jpg	99
2606.895	0.839	839.1	0back	Block4	0back/STIM_010.jpg	100
2610.667	0.575	575.2	0back	Block4	0back/STIM_010.jpg	99
2613.482	0.572	572.3	0back	Block4	0back/STIM_011.jpg	99
2618.027	0.728	727.9	0back	Block4	0back/STIM_011.jpg	100
2622.428	0.689	689.4	0back	Block4	0back/STIM_011.jpg	100
2627.105	0.65	649.8	0back	Block4	0back/STIM_012.jpg	100
2630.981	0.544	543.6	0back	Block4	0back/STIM_012.jpg	99
2634.863	0.664	663.8	0back	Block4	0back/STIM_012.jpg	99
2637.563	0.528	528.4	0back	Block4	0back/STIM_013.jpg	99
2640.294	0.8	799.9	0back	Block4	0back/STIM_013.jpg	100
2644.48	0.511	510.8	0back	Block4	0back/STIM_013.jpg	100
2647.248	0.607	607.3	0back	Block4	0back/STIM_014.jpg	99
2651.035	0.597	597.1	0back	Block4	0back/STIM_014.jpg	99
2655.184	0.533	533.3	0back	Block4	0back/STIM_014.jpg	99
2658.833	0.721	721.2	0back	Block4	0back/STIM_015.jpg	100
2662.935	0.575	575.3	0back	Block4	0back/STIM_015.jpg	99
2666.62	0.547	547.3	0back	Block4	0back/STIM_015.jpg	100
2670.143	0.809	808.7	0back	Block4	0back/STIM_016.jpg	100
2673.426	0.599	599.1	0back	Block4	0back/STIM_016.jpg	99
2676.4	0.733	733.3	0back	Block4	0back/STIM_016.jpg	100
2680.251	0.633	633.1	0back	Block4	0back/STIM_017.jpg	100
2683.279	0.728	727.7	0back	Block4	0back/STIM_017.jpg	99
2687.203	0.875	874.6	0back	Block4	0back/STIM_017.jpg	99
2691.94	0.827	826.7	0back	Block4	0back/STIM_018.jpg	99
2695.557	0.468	467.5	0back	Block4	0back/STIM_018.jpg	100
2699.23	0.764	764.3	0back	Block4	0back/STIM_018.jpg	100
2703.003	0.584	584.4	0back	Block4	0back/STIM_019.jpg	100
2706.783	0.627	626.8	0back	Block4	0back/STIM_019.jpg	100
2710.927	0.844	844.1	0back	Block4	0back/STIM_019.jpg	99
