onset	duration	response_time_ms	trial_type	learning_stage	stimulus	response_port
0.0	0.828	827.5	incongruent	Block1	incongruent/STIM_000.jpg	99
3.462	1.039	1038.7	incongruent	Block1	incongruent/STIM_000.jpg	100
8.348	0.877	876.7	incongruent	Block1	incongruent/STIM_000.jpg	99
13.035	1.182	1182.3	incongruent	Block1	incongruent/STIM_000.jpg	99
17.739	1.093	1093.4	incongruent	Block1	incongruent/STIM_000.jpg	100
21.594	1.157	1157.1	incongruent	Block1	incongruent/STIM_001.jpg	99
25.641	1.308	1308.2	incongruent	Block1	incongruent/STIM_001.jpg	100
29.31	0.766	765.5	incongruent	Block1	incongruent/STIM_001.jpg	100
34.103	0.989	988.6	incongruent	Block1	incongruent/STIM_001.jpg	99
38.278	0.934	934.5	incongruent	Block1	incongruent/STIM_001.jpg	99
42.251	1.17	1169.9	incongruent	Block1	incongruent/STIM_002.jpg	99
46.199	1.357	1356.8	incongruent	Block1	incongruent/STIM_002.jpg	100
50.778	1.144	1144.4	incongruent	Block1	incongruent/STIM_002.jpg	100
54.502	0.928	928.2	incongruent	Block1	incongruent/STIM_002.jpg	99
57.629	0.94	940.0	incongruent	Block1	incongruent/STIM_002.jpg	99
62.182	1.168	1168.0	incongruent	Block1	incongruent/STIM_003.jpg	99
66.58	0.988	988.3	incongruent	Block1	incongruent/STIM_003.jpg	99
70.741	0.798	798.2	incongruent	Block1	incongruent/STIM_003.jpg	100
73.738	0.621	620.8	incongruent	Block1	incongruent/STIM_003.jpg	100
77.235	1.045	1044.7	incongruent	Block1	incongruent/STIM_003.jpg	100
81.432	0.891	891.4	incongruent	Block1	incongruent/STIM_004.jpg	99
86.016	1.187	1186.7	incongruent	Block1	incongruent/STIM_004.jpg	99
90.105	0.673	673.2	incongruent	Block1	incongruent/STIM_004.jpg	100
94.47	1.098	1098.5	incongruent	Block1	incongruent/STIM_004.jpg	100
98.422	0.714	714.2	incongruent	Block1	incongruent/STIM_004.jpg	99
102.181	1.389	1388.9	incongruent	Block1	incongruent/STIM_005.jpg	99
105.736	0.9	900.4	incongruent	Block1	incongruent/STIM_005.jpg	99
109.427	0.943	942.8	incongruent	Block1	incongruent/STIM_005.jpg	100
114.213	1.092	1092.5	incongruent	Block1	incongruent/STIM_005.jpg	99
118.262	0.942	942.1	incongruent	Block1	incongruent/STIM_005.jpg	100
123.125	1.113	1112.7	incongruent	Block1	incongruent/STIM_006.jpg	100
127.398	1.07	1069.9	incongruent	Block1	incongruent/STIM_006.jpg	99
131.381	0.881	881.3	incongruent	Block1	incongruent/STIM_006.jpg	99
134.787	1.183	1183.3	incongruent	Block1	incongruent/STIM_006.jpg	100
138.301	0.711	711.0	incongruent	Block1	incongruent/STIM_006.jpg	99
141.416	1.234	1234.2	incongruent	Block1	incongruent/STIM_007.jpg	100
146.217	1.157	1157.2	incongruent	Block1	incongruent/STIM_007.jpg	100
150.484	1.195	1194.6	incongruent	Block1	incongruent/STIM_007.jpg	99
154.979	0.652	652.1	incongruent	Block1	incongruent/STIM_007.jpg	99
158.058	0.845	845.2	incongruent	Block1	incongruent/STIM_007.jpg	99
162.273	0.81	810.5	incongruent	Block1	incongruent/STIM_008.jpg	99
165.237	0.678	678.5	incongruent	Block1	incongruent/STIM_008.jpg	99
169.003	0.967	967.0	incongruent	Block1	incongruent/STIM_008.jpg	100
172.672	1.061	1060.7	incongruent	Block1	incongruent/STIM_008.jpg	100
176.19	0.696	695.5	incongruent	Block1	incongruent/STIM_008.jpg	99
179.417	1.346	1345.6	incongruent	Block1	incongruent/STIM_009.jpg	100
184.504	0.681	681.4	incongruent	Block1	incongruent/STIM_009.jpg	99
187.762	0.737	736.6	incongruent	Block1	incongruent/STIM_009.jpg	100
191.491	0.865	865.2	incongruent	Block1	incongruent/STIM_009.jpg	99
195.162	0.858	858.4	incongruent	Block1	incongruent/STIM_009.jpg	100
199.378	1.017	1017.4	incongruent	Block1	incongruent/STIM_010.jpg	99
203.367	0.803	802.7	incongruent	Block1	incongruent/STIM_010.jpg	100
206.273	1.166	1166.0	incongruent	Block1	incongruent/STIM_010.jpg	99
210.778	1.096	1096.2	incongruent	Block1	incongruent/STIM_010.jpg	99
215.103	1.135	1134.6	incongruent	Block1	incongruent/STIM_010.jpg	99
219.855	1.084	1084.1	incongruent	Block1	incongruent/STIM_011.jpg	99
224.409	1.17	1170.5	incongruent	Block1	incongruent/STIM_011.jpg	99
228.57	0.755	755.3	incongruent	Block1	incongruent/STIM_011.jpg	100
233.217	1.032	1031.6	incongruent	Block1	incongruent/STIM_011.jpg	100
237.911	0.712	712.5	incongruent	Block1	incongruent/STIM_011.jpg	100
241.655	0.962	962.4	incongruent	Block1	incongruent/STIM_012.jpg	100
245.695	1.045	1044.8	incongruent	Block1	incongruent/STIM_012.jpg	100
249.12	0.998	997.9	incongruent	Block1	incongruent/STIM_012.jpg	99
253.762	0.747	746.9	incongruent	Block1	incongruent/STIM_012.jpg	100
257.97	0.998	997.8	incongruent	Block1	incongruent/STIM_012.jpg	99
261.23	0.933	933.0	incongruent	Block1	incongruent/STIM_013.jpg	100
265.279	1.201	1200.8	incongruent	Block1	incongruent/STIM_013.jpg	100
270.063	1.093	1093.4	incongruent	Block1	incongruent/STIM_013.jpg	99
273.666	0.694	693.7	incongruent	Block1	incongruent/STIM_013.jpg	99
278.318	0.789	789.3	incongruent	Block1	incongruent/STIM_013.jpg	99
281.612	1.402	1402.1	incongruent	Block1	incongruent/STIM_014.jpg	99
286.415	0.675	674.6	incongruent	Block1	incongruent/STIM_014.jpg	100
289.603	0.732	732.3	incongruent	Block1	incongruent/STIM_014.jpg	99
292.431	0.688	687.6	incongruent	Block1	incongruent/STIM_014.jpg	99
296.183	0.812	812.0	incongruent	Block1	incongruent/STIM_014.jpg	100
299.544	0.791	790.6	incongruent	Block1	incongruent/STIM_015.jpg	99
304.126	0.724	723.9	incongruent	Block1	incongruent/STIM_015.jpg	100
307.52	1.124	1123.7	incongruent	Block1	incongruent/STIM_015.jpg	99
312.279	0.595	594.8	incongruent	Block1	incongruent/STIM_015.jpg	100
315.041	0.782	782.2	incongruent	Block1	incongruent/STIM_015.jpg	99
317.893	1.247	1246.8	incongruent	Block1	incongruent/STIM_016.jpg	99
321.8	0.982	981.7	incongruent	Block1	incongruent/STIM_016.jpg	99
326.44	0.869	869.0	incongruent	Block1	incongruent/STIM_016.jpg	99
330.342	0.964	964.5	incongruent	Block1	incongruent/STIM_016.jpg	100
334.621	1.083	1082.8	incongruent	Block1	incongruent/STIM_016.jpg	99
339.533	0.742	741.5	incongruent	Block1	incongruent/STIM_017.jpg	100
342.857	0.672	672.4	incongruent	Block1	incongruent/STIM_017.jpg	100
347.074	0.793	792.7	incongruent	Block1	incongruent/STIM_017.jpg	100
350.998	0.92	920.0	incongruent	Block1	incongruent/STIM_017.jpg	99
354.472	0.758	758.2	incongruent	Block1	incongruent/STIM_017.jpg	100
357.869	1.368	1368.4	incongruent	Block1	incongruent/STIM_018.jpg	99
361.449	1.356	1356.5	incongruent	Block1	incongruent/STIM_018.jpg	100
365.114	0.732	731.8	incongruent	Block1	incongruent/STIM_018.jpg	99
369.458	0.572	571.7	incongruent	Block1	incongruent/STIM_018.jpg	100
373.731	0.632	632.5	incongruent	Block1	incongruent/STIM_018.jpg	99
377.499	1.045	1044.9	incongruent	Block1	incongruent/STIM_019.jpg	100
382.33	0.772	772.2	incongruent	Block1	incongruent/STIM_019.jpg	99
387.024	0.741	740.6	incongruent	Block1	incongruent/STIM_019.jpg	100
391.188	1.16	1159.9	incongruent	Block1	incongruent/STIM_019.jpg	99
395.663	0.677	676.7	incongruent	Block1	incongruent/STIM_019.jpg	100
399.427	0.858	858.5	incongruent	Block1	incongruent/STIM_020.jpg	99
403.498	0.769	769.4	incongruent	Block1	incongruent/STIM_020.jpg	99
407.729	0.646	645.8	incongruent	Block1	incongruent/STIM_020.jpg	99
412.161	0.632	631.7	incongruent	Block1	incongruent/STIM_020.jpg	100
415.788	0.923	922.6	incongruent	Block1	incongruent/STIM_020.jpg	99
419.702	0.992	991.6	incongruent	Block1	incongruent/STIM_021.jpg	100
424.603	0.872	872.2	incongruent	Block1	incongruent/STIM_021.jpg	100
427.545	0.886	885.5	incongruent	Block1	incongruent/STIM_021.jpg	100
431.154	0.929	929.3	incongruent	Block1	incongruent/STIM_021.jpg	100
435.925	0.582	582.1	incongruent	Block1	incongruent/STIM_021.jpg	100
439.54	0.762	761.8	incongruent	Block1	incongruent/STIM_022.jpg	99
443.584	1.174	1173.8	incongruent	Block1	incongruent/STIM_022.jpg	100
447.393	1.142	1141.5	incongruent	Block1	incongruent/STIM_022.jpg	100
451.488	1.063	1062.7	incongruent	Block1	incongruent/STIM_022.jpg	100
455.379	0.936	936.4	incongruent	Block1	incongruent/STIM_022.jpg	99
459.094	1.398	1397.8	incongruent	Block1	incongruent/STIM_023.jpg	99
462.981	1.016	1016.0	incongruent	Block1	incongruent/STIM_023.jpg	100
467.005	1.003	1003.3	incongruent	Block1	incongruent/STIM_023.jpg	100
471.811	0.771	770.8	incongruent	Block1	incongruent/STIM_023.jpg	99
476.611	1.007	1006.6	incongruent	Block1	incongruent/STIM_023.jpg	100
480.05	0.882	882.1	incongruent	Block1	incongruent/STIM_024.jpg	99
483.189	0.868	868.2	incongruent	Block1	incongruent/STIM_024.jpg	100
486.689	0.76	759.8	incongruent	Block1	incongruent/STIM_024.jpg	99
491.199	0.806	805.8	incongruent	Block1	incongruent/STIM_024.jpg	100
495.387	0.56	559.8	incongruent	Block1	incongruent/STIM_024.jpg	100
498.578	1.365	1364.6	incongruent	Block1	incongruent/STIM_025.jpg	100
503.409	0.841	840.6	incongruent	Block1	incongruent/STIM_025.jpg	100
506.398	0.857	856.9	incongruent	Block1	incongruent/STIM_025.jpg	99
509.407	1.097	1096.6	incongruent	Block1	incongruent/STIM_025.jpg	99
514.104	1.117	1116.6	incongruent	Block1	incongruent/STIM_025.jpg	100
519.07	1.049	1049.2	incongruent	Block1	incongruent/STIM_026.jpg	99
524.087	1.021	1020.6	incongruent	Block1	incongruent/STIM_026.jpg	99
528.172	1.094	1093.5	incongruent	Block1	incongruent/STIM_026.jpg	99
531.496	1.173	1173.1	incongruent	Block1	incongruent/STIM_026.jpg	100
536.3	0.614	614.2	incongruent	Block1	incongruent/STIM_026.jpg	100
540.073	1.051	1051.4	incongruent	Block1	incongruent/STIM_027.jpg	99
543.411	0.904	904.0	incongruent	Block1	incongruent/STIM_027.jpg	100
547.946	1.272	1271.7	incongruent	Block1	incongruent/STIM_027.jpg	99
551.424	0.614	614.0	incongruent	Block1	incongruent/STIM_027.jpg	100
555.789	0.636	636.5	incongruent	Block1	incongruent/STIM_027.jpg	99
559.423	1.109	1109.1	incongruent	Block1	incongruent/STIM_028.jpg	100
563.051	0.914	914.2	incongruent	Block1	incongruent/STIM_028.jpg	100
566.772	1.047	1046.7	incongruent	Block1	incongruent/STIM_028.jpg	100
570.317	0.952	951.8	incongruent	Block1	incongruent/STIM_028.jpg	100
574.222	0.558	558.5	incongruent	Block1	incongruent/STIM_028.jpg	100
577.572	1.394	1393.6	incongruent	Block1	incongruent/STIM_029.jpg	100
582.979	1.073	1072.6	incongruent	Block1	incongruent/STIM_029.jpg	99
587.441	0.87	869.6	incongruent	Block1	incongruent/STIM_029.jpg	99
591.027	0.651	651.1	incongruent	Block1	incongruent/STIM_029.jpg	100
594.809	0.677	676.7	incongruent	Block1	incongruent/STIM_029.jpg	99
599.312	0.6	600.4	congruent	Block1	congruent/STIM_000.jpg	99
602.415	0.854	853.6	congruent	Block1	congruent/STIM_000.jpg	99
606.813	0.726	726.1	congruent	Block1	congruent/STIM_000.jpg	99
610.739	0.759	759.0	congruent	Block1	congruent/STIM_000.jpg	100
613.855	0.789	789.4	congruent	Block1	congruent/STIM_000.jpg	99
617.857	0.664	663.9	congruent	Block1	congruent/STIM_001.jpg	99
622.291	0.543	542.6	congruent	Block1	congruent/STIM_001.jpg	99
624.94	0.849	848.7	congruent	Block1	congruent/STIM_001.jpg	100
629.403	0.69	689.7	congruent	Block1	congruent/STIM_001.jpg	99
632.507	0.588	587.7	congruent	Block1	congruent/STIM_001.jpg	100
636.785	0.756	755.8	congruent	Block1	congruent/STIM_002.jpg	99
641.284	0.608	607.6	congruent	Block1	congruent/STIM_002.jpg	100
645.073	0.53	530.4	congruent	Block1	congruent/STIM_002.jpg	99
648.026	0.856	855.5	congruent	Block1	congruent/STIM_002.jpg	100
651.362	0.857	856.9	congruent	Block1	congruent/STIM_002.jpg	99
655.629	0.682	681.7	congruent	Block1	congruent/STIM_003.jpg	100
659.443	0.812	811.8	congruent	Block1	congruent/STIM_003.jpg	100
662.576	0.784	784.2	congruent	Block1	congruent/STIM_003.jpg	99
667.392	0.772	771.9	congruent	Block1	congruent/STIM_003.jpg	99
670.618	0.651	651.3	congruent	Block1	congruent/STIM_003.jpg	100
673.559	0.53	529.6	congruent	Block1	congruent/STIM_004.jpg	99
676.189	0.676	675.8	congruent	Block1	congruent/STIM_004.jpg	100
680.564	0.7	700.2	congruent	Block1	congruent/STIM_004.jpg	100
684.55	0.742	742.0	congruent	Block1	congruent/STIM_004.jpg	99
687.495	0.788	788.3	congruent	Block1	congruent/STIM_004.jpg	100
692.262	0.773	773.3	congruent	Block1	congruent/STIM_005.jpg	100
696.5	0.628	627.7	congruent	Block1	congruent/STIM_005.jpg	99
700.148	0.574	574.1	congruent	Block1	congruent/STIM_005.jpg	99
703.542	0.544	544.1	congruent	Block1	congruent/STIM_005.jpg	100
706.175	0.743	742.7	congruent	Block1	congruent/STIM_005.jpg	99
709.096	0.708	708.0	congruent	Block1	congruent/STIM_006.jpg	100
713.67	0.512	512.1	congruent	Block1	congruent/STIM_006.jpg	99
717.981	0.605	604.6	congruent	Block1	congruent/STIM_006.jpg	99
722.395	0.735	735.3	congruent	Block1	congruent/STIM_006.jpg	99
726.652	0.668	668.4	congruent	Block1	congruent/STIM_006.jpg	100
729.905	0.506	506.4	congruent	Block1	congruent/STIM_007.jpg	99
732.783	0.549	548.9	congruent	Block1	congruent/STIM_007.jpg	99
735.928	0.636	635.5	congruent	Block1	congruent/STIM_007.jpg	100
739.124	0.657	656.7	congruent	Block1	congruent/STIM_007.jpg	100
742.244	0.849	849.2	congruent	Block1	congruent/STIM_007.jpg	100
745.484	0.623	622.8	congruent	Block1	congruent/STIM_008.jpg	99
748.942	0.71	709.8	congruent	Block1	congruent/STIM_008.jpg	100
753.157	0.81	810.2	congruent	Block1	congruent/STIM_008.jpg	100
756.31	0.529	529.1	congruent	Block1	congruent/STIM_008.jpg	99
759.68	0.791	790.8	congruent	Block1	congruent/STIM_008.jpg	100
764.16	0.692	692.2	congruent	Block1	congruent/STIM_009.jpg	100
767.257	0.484	484.2	congruent	Block1	congruent/STIM_009.jpg	99
769.836	0.794	793.9	congruent	Block1	congruent/STIM_009.jpg	99
772.75	0.645	644.7	congruent	Block1	congruent/STIM_009.jpg	99
776.662	0.519	519.1	congruent	Block1	congruent/STIM_009.jpg	99
779.999	0.535	535.2	congruent	Block1	congruent/STIM_010.jpg	100
783.726	0.607	607.0	congruent	Block1	congruent/STIM_010.jpg	99
786.608	0.716	715.5	congruent	Block1	congruent/STIM_010.jpg	100
790.04	0.723	723.4	congruent	Block1	congruent/STIM_010.jpg	99
793.224	0.57	570.1	congruent	Block1	congruent/STIM_010.jpg	99
795.866	0.699	699.3	congruent	Block1	congruent/STIM_011.jpg	100
799.216	0.801	801.2	congruent	Block1	congruent/STIM_011.jpg	99
802.921	0.53	530.2	congruent	Block1	congruent/STIM_011.jpg	100
806.564	0.503	503.4	congruent	Block1	congruent/STIM_011.jpg	99
809.705	0.576	575.6	congruent	Block1	congruent/STIM_011.jpg	99
812.446	0.485	485.0	congruent	Block1	congruent/STIM_012.jpg	100
816.506	0.828	828.4	congruent	Block1	congruent/STIM_012.jpg	100
819.84	0.728	728.5	congruent	Block1	congruent/STIM_012.jpg	99
824.15	0.651	650.9	congruent	Block1	congruent/STIM_012.jpg	100
828.661	0.703	702.6	congruent	Block1	congruent/STIM_012.jpg	99
831.652	0.588	588.4	congruent	Block1	congruent/STIM_013.jpg	99
835.088	0.774	774.4	congruent	Block1	congruent/STIM_013.jpg	99
838.098	0.737	737.2	congruent	Block1	congruent/STIM_013.jpg	99
841.989	0.547	547.2	congruent	Block1	congruent/STIM_013.jpg	99
845.652	0.79	790.3	congruent	Block1	congruent/STIM_013.jpg	100
850.086	0.674	673.5	congruent	Block1	congruent/STIM_014.jpg	100
853.055	0.538	538.4	congruent	Block1	congruent/STIM_014.jpg	100
857.612	0.719	719.0	congruent	Block1	congruent/STIM_014.jpg	100
861.085	0.574	574.0	congruent	Block1	congruent/STIM_014.jpg	99
863.949	0.782	782.5	congruent	Block1	congruent/STIM_014.jpg	99
868.758	0.544	544.4	congruent	Block1	congruent/STIM_015.jpg	99
871.955	0.79	790.5	congruent	Block1	congruent/STIM_015.jpg	99
874.947	0.538	538.3	congruent	Block1	congruent/STIM_015.jpg	99
878.639	0.503	503.4	congruent	Block1	congruent/STIM_015.jpg	100
881.405	0.584	584.1	congruent	Block1	congruent/STIM_015.jpg	100
885.542	0.788	788.3	congruent	Block1	congruent/STIM_016.jpg	100
888.768	0.817	817.2	congruent	Block1	congruent/STIM_016.jpg	100
893.484	0.791	791.0	congruent	Block1	congruent/STIM_016.jpg	100
896.551	0.739	739.0	congruent	Block1	congruent/STIM_016.jpg	99
899.894	0.533	533.4	congruent	Block1	congruent/STIM_016.jpg	99
902.693	0.59	589.8	congruent	Block1	congruent/STIM_017.jpg	99
906.626	0.82	819.7	congruent	Block1	congruent/STIM_017.jpg	100
910.205	0.484	484.3	congruent	Block1	congruent/STIM_017.jpg	100
913.659	0.708	707.8	congruent	Block1	congruent/STIM_017.jpg	99
917.675	0.62	620.3	congruent	Block1	congruent/STIM_017.jpg	99
921.36	0.567	566.7	congruent	Block1	congruent/STIM_018.jpg	99
925.616	0.857	857.2	congruent	Block1	congruent/STIM_018.jpg	100
928.902	0.792	792.0	congruent	Block1	congruent/STIM_018.jpg	99
933.138	0.564	564.4	congruent	Block1	congruent/STIM_018.jpg	100
936.163	0.589	588.9	congruent	Block1	congruent/STIM_018.jpg	100
939.774	0.643	642.6	congruent	Block1	congruent/STIM_019.jpg	100
943.279	0.605	604.6	congruent	Block1	congruent/STIM_019.jpg	99
947.002	0.63	629.5	congruent	Block1	congruent/STIM_019.jpg	100
951.41	0.782	782.4	congruent	Block1	congruent/STIM_019.jpg	99
955.986	0.713	713.1	congruent	Block1	congruent/STIM_019.jpg	100
958.815	0.81	810.1	congruent	Block1	congruent/STIM_020.jpg	99
962.548	0.822	821.7	congruent	Block1	congruent/STIM_020.jpg	99
966.152	0.824	823.7	congruent	Block1	congruent/STIM_020.jpg	100
969.715	0.599	599.2	congruent	Block1	congruent/STIM_020.jpg	100
974.132	0.819	819.4	congruent	Block1	congruent/STIM_020.jpg	99
978.277	0.593	592.7	congruent	Block1	congruent/STIM_021.jpg	99
981.323	0.567	566.8	congruent	Block1	congruent/STIM_021.jpg	99
985.078	0.642	642.4	congruent	Block1	congruent/STIM_021.jpg	100
988.816	0.684	684.2	congruent	Block1	congruent/STIM_021.jpg	100
991.637	0.78	779.8	congruent	Block1	congruent/STIM_021.jpg	99
994.746	0.804	803.5	congruent	Block1	congruent/STIM_022.jpg	100
998.856	0.773	772.8	congruent	Block1	congruent/STIM_022.jpg	99
1002.062	0.753	752.9	congruent	Block1	congruent/STIM_022.jpg	100
1004.942	0.752	752.5	congruent	Block1	congruent/STIM_022.jpg	99
1009.095	0.801	800.9	congruent	Block1	congruent/STIM_022.jpg	99
1012.441	0.698	698.1	congruent	Block1	congruent/STIM_023.jpg	99
1015.505	0.495	495.4	congruent	Block1	congruent/STIM_023.jpg	100
1018.565	0.831	831.2	congruent	Block1	congruent/STIM_023.jpg	100
1022.057	0.613	613.3	congruent	Block1	congruent/STIM_023.jpg	100
1026.58	0.825	825.2	congruent	Block1	congruent/STIM_023.jpg	100
1030.913	0.631	631.1	congruent	Block1	congruent/STIM_024.jpg	99
1034.946	0.499	499.2	congruent	Block1	congruent/STIM_024.jpg	100
1037.812	0.541	541.2	congruent	Block1	congruent/STIM_024.jpg	100
1040.837	0.849	849.2	congruent	Block1	congruent/STIM_024.jpg	100
1044.696	0.625	624.6	congruent	Block1	congruent/STIM_024.jpg	99
1047.49	0.477	477.0	congruent	Block1	congruent/STIM_025.jpg	99
1050.073	0.664	664.5	congruent	Block1	congruent/STIM_025.jpg	100
1053.381	0.854	854.5	congruent	Block1	congruent/STIM_025.jpg	99
1056.835	0.602	602.3	congruent	Block1	congruent/STIM_025.jpg	100
1060.186	0.725	725.4	congruent	Block1	congruent/STIM_025.jpg	100
1063.695	0.645	645.4	congruent	Block1	congruent/STIM_026.jpg	100
1067.109	0.72	720.2	congruent	Block1	congruent/STIM_026.jpg	99
1071.14	0.592	592.2	congruent	Block1	congruent/STIM_026.jpg	100
1074.327	0.828	827.6	congruent	Block1	congruent/STIM_026.jpg	99
1077.743	0.777	776.8	congruent	Block1	congruent/STIM_026.jpg	99
1081.919	0.812	812.3	congruent	Block1	congruent/STIM_027.jpg	99
1085.816	0.674	674.0	congruent	Block1	congruent/STIM_027.jpg	100
1090.385	0.573	573.4	congruent	Block1	congruent/STIM_027.jpg	99
1094.238	0.78	780.0	congruent	Block1	congruent/STIM_027.jpg	100
1099.053	0.492	491.5	congruent	Block1	congruent/STIM_027.jpg	99
1102.34	0.633	632.6	congruent	Block1	congruent/STIM_028.jpg	99
1106.666	0.595	595.2	congruent	Block1	congruent/STIM_028.jpg	100
1110.748	0.567	566.8	congruent	Block1	congruent/STIM_028.jpg	100
1115.204	0.72	719.8	congruent	Block1	congruent/STIM_028.jpg	100
1118.73	0.678	678.5	congruent	Block1	congruent/STIM_028.jpg	100
1123.103	0.624	624.5	congruent	Block1	congruent/STIM_029.jpg	99
1127.727	0.763	763.2	congruent	Block1	congruent/STIM_029.jpg	99
1131.878	0.762	761.9	congruent	Block1	congruent/STIM_029.jpg	100
1134.999	0.516	516.2	congruent	Block1	congruent/STIM_029.jpg	99
1138.643	0.838	837.6	congruent	Block1	congruent/STIM_029.jpg	100
1142.655	0.983	982.6	incongruent	Block2	incongruent/STIM_000.jpg	99
1147.05	0.838	837.9	incongruent	Block2	incongruent/STIM_000.jpg	100
1150.838	0.637	637.3	incongruent	Block2	incongruent/STIM_000.jpg	99
1154.879	1.0	999.8	incongruent	Block2	incongruent/STIM_000.jpg	99
1159.474	0.61	609.6	incongruent	Block2	incongruent/STIM_000.jpg	100
1163.905	0.784	783.6	incongruent	Block2	incongruent/STIM_001.jpg	99
1167.102	0.68	680.3	incongruent	Block2	incongruent/STIM_001.jpg	100
1170.417	0.78	780.5	incongruent	Block2	incongruent/STIM_001.jpg	99
1174.419	0.577	576.8	incongruent	Block2	incongruent/STIM_001.jpg	99
1177.204	0.754	753.5	incongruent	Block2	incongruent/STIM_001.jpg	99
1180.242	0.889	888.7	incongruent	Block2	incongruent/STIM_002.jpg	99
1183.467	0.626	626.3	incongruent	Block2	incongruent/STIM_002.jpg	100
1187.594	0.596	595.5	incongruent	Block2	incongruent/STIM_002.jpg	99
1190.994	0.923	922.6	incongruent	Block2	incongruent/STIM_002.jpg	99
1194.906	0.577	576.8	incongruent	Block2	incongruent/STIM_002.jpg	100
1199.473	1.189	1189.4	incongruent	Block2	incongruent/STIM_003.jpg	99
1203.137	0.829	829.0	incongruent	Block2	incongruent/STIM_003.jpg	100
1207.332	0.788	787.5	incongruent	Block2	incongruent/STIM_003.jpg	99
1210.215	0.67	669.9	incongruent	Block2	incongruent/STIM_003.jpg	99
1212.96	0.707	706.7	incongruent	Block2	incongruent/STIM_003.jpg	99
1216.013	0.947	947.0	incongruent	Block2	incongruent/STIM_004.jpg	100
1220.175	0.878	878.1	incongruent	Block2	incongruent/STIM_004.jpg	100
1223.463	1.04	1039.6	incongruent	Block2	incongruent/STIM_004.jpg	99
1227.502	0.734	733.9	incongruent	Block2	incongruent/STIM_004.jpg	100
1231.034	0.933	932.7	incongruent	Block2	incongruent/STIM_004.jpg	100
1234.609	0.736	735.9	incongruent	Block2	incongruent/STIM_005.jpg	100
1237.743	1.069	1068.9	incongruent	Block2	incongruent/STIM_005.jpg	100
1241.745	0.903	902.9	incongruent	Block2	incongruent/STIM_005.jpg	100
1245.327	0.532	532.0	incongruent	Block2	incongruent/STIM_005.jpg	100
1249.123	0.615	615.1	incongruent	Block2	incongruent/STIM_005.jpg	99
1252.73	1.051	1051.1	incongruent	Block2	incongruent/STIM_006.jpg	100
1256.197	0.732	732.4	incongruent	Block2	incongruent/STIM_006.jpg	100
1260.887	1.037	1037.1	incongruent	Block2	incongruent/STIM_006.jpg	99
1264.675	0.632	632.1	incongruent	Block2	incongruent/STIM_006.jpg	100
1267.407	0.513	513.4	incongruent	Block2	incongruent/STIM_006.jpg	100
1270.969	1.105	1104.9	incongruent	Block2	incongruent/STIM_007.jpg	100
1275.805	0.807	807.4	incongruent	Block2	incongruent/STIM_007.jpg	100
1279.771	0.753	752.6	incongruent	Block2	incongruent/STIM_007.jpg	100
1284.509	0.843	843.0	incongruent	Block2	incongruent/STIM_007.jpg	99
1287.509	0.47	469.5	incongruent	Block2	incongruent/STIM_007.jpg	99
1291.892	0.917	917.0	incongruent	Block2	incongruent/STIM_008.jpg	99
1295.9	0.535	535.3	incongruent	Block2	incongruent/STIM_008.jpg	99
1299.412	0.567	567.1	incongruent	Block2	incongruent/STIM_008.jpg	99
1303.144	0.984	983.6	incongruent	Block2	incongruent/STIM_008.jpg	99
1307.915	0.607	606.9	incongruent	Block2	incongruent/STIM_008.jpg	99
1311.862	0.573	573.3	incongruent	Block2	incongruent/STIM_009.jpg	99
1315.441	0.864	863.5	incongruent	Block2	incongruent/STIM_009.jpg	100
1320.223	0.532	532.5	incongruent	Block2	incongruent/STIM_009.jpg	99
1323.532	0.783	782.8	incongruent	Block2	incongruent/STIM_009.jpg	99
1327.309	0.612	611.7	incongruent	Block2	incongruent/STIM_009.jpg	99
1330.231	1.077	1076.7	incongruent	Block2	incongruent/STIM_010.jpg	100
1333.837	0.923	923.1	incongruent	Block2	incongruent/STIM_010.jpg	100
1338.067	0.91	910.5	incongruent	Block2	incongruent/STIM_010.jpg	100
1341.952	0.716	716.0	incongruent	Block2	incongruent/STIM_010.jpg	100
1346.186	0.804	803.5	incongruent	Block2	incongruent/STIM_010.jpg	100
1349.718	0.908	907.8	incongruent	Block2	incongruent/STIM_011.jpg	100
1354.595	0.828	828.0	incongruent	Block2	incongruent/STIM_011.jpg	100
1357.498	0.989	989.1	incongruent	Block2	incongruent/STIM_011.jpg	100
1361.908	0.695	695.3	incongruent	Block2	incongruent/STIM_011.jpg	100
1366.29	0.895	895.4	incongruent	Block2	incongruent/STIM_011.jpg	99
1370.359	1.194	1193.7	incongruent	Block2	incongruent/STIM_012.jpg	100
1374.697	1.043	1042.7	incongruent	Block2	incongruent/STIM_012.jpg	99
1378.826	0.86	860.5	incongruent	Block2	incongruent/STIM_012.jpg	100
1382.068	0.655	655.0	incongruent	Block2	incongruent/STIM_012.jpg	99
1386.354	0.821	820.6	incongruent	Block2	incongruent/STIM_012.jpg	99
1390.32	0.834	834.4	incongruent	Block2	incongruent/STIM_013.jpg	100
1394.092	0.904	903.9	incongruent	Block2	incongruent/STIM_013.jpg	100
1397.159	0.554	553.5	incongruent	Block2	incongruent/STIM_013.jpg	99
1400.785	0.62	619.7	incongruent	Block2	incongruent/STIM_013.jpg	100
1405.152	0.575	575.2	incongruent	Block2	incongruent/STIM_013.jpg	99
1409.298	0.942	941.9	incongruent	Block2	incongruent/STIM_014.jpg	99
1413.655	1.05	1050.3	incongruent	Block2	incongruent/STIM_014.jpg	99
1418.645	0.791	791.3	incongruent	Block2	incongruent/STIM_014.jpg	100
1422.045	0.53	530.3	incongruent	Block2	incongruent/STIM_014.jpg	99
1425.207	0.937	937.0	incongruent	Block2	incongruent/STIM_014.jpg	100
1429.007	0.836	835.5	incongruent	Block2	incongruent/STIM_015.jpg	99
1432.156	0.865	864.6	incongruent	Block2	incongruent/STIM_015.jpg	99
1436.729	0.855	854.8	incongruent	Block2	incongruent/STIM_015.jpg	100
1441.294	0.533	532.9	incongruent	Block2	incongruent/STIM_015.jpg	100
1444.899	0.681	680.6	incongruent	Block2	incongruent/STIM_015.jpg	100
1449.531	0.865	864.6	incongruent	Block2	incongruent/STIM_016.jpg	100
1453.251	0.993	992.6	incongruent	Block2	incongruent/STIM_016.jpg	99
1457.818	0.847	847.0	incongruent	Block2	incongruent/STIM_016.jpg	99
1460.821	0.583	583.0	incongruent	Block2	incongruent/STIM_016.jpg	99
1465.188	0.596	595.8	incongruent	Block2	incongruent/STIM_016.jpg	99
1468.217	1.089	1089.1	incongruent	Block2	incongruent/STIM_017.jpg	100
1472.549	1.102	1101.7	incongruent	Block2	incongruent/STIM_017.jpg	100
1476.463	0.61	609.8	incongruent	Block2	incongruent/STIM_017.jpg	99
1480.76	0.75	750.5	incongruent	Block2	incongruent/STIM_017.jpg	99
1484.188	0.722	721.9	incongruent	Block2	incongruent/STIM_017.jpg	100
1487.519	0.713	713.2	incongruent	Block2	incongruent/STIM_018.jpg	100
1490.702	0.854	853.5	incongruent	Block2	incongruent/STIM_018.jpg	100
1493.902	0.981	981.4	incongruent	Block2	incongruent/STIM_018.jpg	100
1498.679	0.537	537.1	incongruent	Block2	incongruent/STIM_018.jpg	99
1501.953	0.95	950.0	incongruent	Block2	incongruent/STIM_018.jpg	99
1506.542	0.733	732.8	incongruent	Block2	incongruent/STIM_019.jpg	100
1509.395	1.036	1036.0	incongruent	Block2	incongruent/STIM_019.jpg	100
1513.025	0.819	818.7	incongruent	Block2	incongruent/STIM_019.jpg	99
1516.509	0.776	776.3	incongruent	Block2	incongruent/STIM_019.jpg	99
1519.913	0.846	845.7	incongruent	Block2	incongruent/STIM_019.jpg	100
1524.227	0.697	696.9	incongruent	Block2	incongruent/STIM_020.jpg	100
1527.501	0.907	907.3	incongruent	Block2	incongruent/STIM_020.jpg	99
1531.977	0.64	640.0	incongruent	Block2	incongruent/STIM_020.jpg	100
1535.777	0.777	777.2	incongruent	Block2	incongruent/STIM_020.jpg	99
1540.066	0.89	889.5	incongruent	Block2	incongruent/STIM_020.jpg	99
1544.631	0.9	900.1	incongruent	Block2	incongruent/STIM_021.jpg	99
1549.19	0.905	904.9	incongruent	Block2	incongruent/STIM_021.jpg	99
1552.948	0.684	683.7	incongruent	Block2	incongruent/STIM_021.jpg	100
1557.428	0.846	845.7	incongruent	Block2	incongruent/STIM_021.jpg	99
1562.052	0.987	987.3	incongruent	Block2	incongruent/STIM_021.jpg	99
1565.147	0.822	822.2	incongruent	Block2	incongruent/STIM_022.jpg	100
1569.613	0.757	757.3	incongruent	Block2	incongruent/STIM_022.jpg	100
1574.241	1.072	1071.9	incongruent	Block2	incongruent/STIM_022.jpg	99
1577.761	0.722	722.5	incongruent	Block2	incongruent/STIM_022.jpg	99
1581.592	0.888	887.8	incongruent	Block2	incongruent/STIM_022.jpg	99
1586.47	0.628	628.0	incongruent	Block2	incongruent/STIM_023.jpg	99
1589.96	0.927	927.1	incongruent	Block2	incongruent/STIM_023.jpg	99
1592.936	0.896	895.7	incongruent	Block2	incongruent/STIM_023.jpg	100
1596.657	0.651	651.4	incongruent	Block2	incongruent/STIM_023.jpg	99
1600.593	0.887	887.1	incongruent	Block2	incongruent/STIM_023.jpg	100
1605.441	0.997	997.0	incongruent	Block2	incongruent/STIM_024.jpg	99
1608.577	1.099	1098.7	incongruent	Block2	incongruent/STIM_024.jpg	99
1611.859	0.849	849.1	incongruent	Block2	incongruent/STIM_024.jpg	99
1616.168	0.647	646.8	incongruent	Block2	incongruent/STIM_024.jpg	100
1620.157	0.474	474.5	incongruent	Block2	incongruent/STIM_024.jpg	99
1623.739	0.589	589.1	incongruent	Block2	incongruent/STIM_025.jpg	99
1628.053	0.752	751.6	incongruent	Block2	incongruent/STIM_025.jpg	100
1632.293	0.618	617.5	incongruent	Block2	incongruent/STIM_025.jpg	100
1635.849	0.579	578.6	incongruent	Block2	incongruent/STIM_025.jpg	99
1640.187	0.766	765.8	incongruent	Block2	incongruent/STIM_025.jpg	100
1643.08	0.61	609.5	incongruent	Block2	incongruent/STIM_026.jpg	99
1647.405	0.741	741.3	incongruent	Block2	incongruent/STIM_026.jpg	100
1651.897	0.905	905.2	incongruent	Block2	incongruent/STIM_026.jpg	99
1656.223	0.866	866.0	incongruent	Block2	incongruent/STIM_026.jpg	99
1660.369	0.528	527.6	incongruent	Block2	incongruent/STIM_026.jpg	99
1663.583	0.82	820.3	incongruent	Block2	incongruent/STIM_027.jpg	100
1666.928	0.537	537.4	incongruent	Block2	incongruent/STIM_027.jpg	100
1670.789	0.731	731.0	incongruent	Block2	incongruent/STIM_027.jpg	99
1673.668	0.614	613.6	incongruent	Block2	incongruent/STIM_027.jpg	100
1677.704	0.503	503.2	incongruent	Block2	incongruent/STIM_027.jpg	99
1681.681	1.128	1127.7	incongruent	Block2	incongruent/STIM_028.jpg	100
1685.347	0.863	863.3	incongruent	Block2	incongruent/STIM_028.jpg	99
1689.094	0.776	775.9	incongruent	Block2	incongruent/STIM_028.jpg	99
1692.838	0.488	488.2	incongruent	Block2	incongruent/STIM_028.jpg	99
1697.218	0.935	934.6	incongruent	Block2	incongruent/STIM_028.jpg	99
1701.576	0.785	785.1	incongruent	Block2	incongruent/STIM_029.jpg	99
1705.73	1.082	1082.4	incongruent	Block2	incongruent/STIM_029.jpg	99
1710.012	0.686	685.5	incongruent	Block2	incongruent/STIM_029.jpg	99
1713.072	0.776	776.0	incongruent	Block2	incongruent/STIM_029.jpg	100
1715.957	0.499	498.6	incongruent	Block2	incongruent/STIM_029.jpg	100
1720.464	0.522	521.7	congruent	Block2	congruent/STIM_000.jpg	99
1723.99	0.576	575.8	congruent	Block2	congruent/STIM_000.jpg	99
1727.39	0.809	808.9	congruent	Block2	congruent/STIM_000.jpg	99
1731.415	0.729	728.7	congruent	Block2	congruent/STIM_000.jpg	99
1734.881	0.503	503.5	congruent	Block2	congruent/STIM_000.jpg	99
1738.541	0.742	742.1	congruent	Block2	congruent/STIM_001.jpg	100
1742.645	0.619	619.3	congruent	Block2	congruent/STIM_001.jpg	100
1745.684	0.555	555.3	congruent	Block2	congruent/STIM_001.jpg	100
1749.125	0.743	742.9	congruent	Block2	congruent/STIM_001.jpg	99
1753.114	0.561	560.9	congruent	Block2	congruent/STIM_001.jpg	99
1755.815	0.646	646.4	congruent	Block2	congruent/STIM_002.jpg	99
1759.591	0.834	834.2	congruent	Block2	congruent/STIM_002.jpg	99
1762.839	0.785	784.7	congruent	Block2	congruent/STIM_002.jpg	99
1766.987	0.749	748.7	congruent	Block2	congruent/STIM_002.jpg	100
1771.267	0.546	545.9	congruent	Block2	congruent/STIM_002.jpg	99
1775.508	0.805	805.1	congruent	Block2	congruent/STIM_003.jpg	99
1778.561	0.855	855.2	congruent	Block2	congruent/STIM_003.jpg	100
1782.381	0.653	653.1	congruent	Block2	congruent/STIM_003.jpg	100
1786.423	0.7	700.0	congruent	Block2	congruent/STIM_003.jpg	99
1789.64	0.803	803.2	congruent	Block2	congruent/STIM_003.jpg	100
1792.893	0.681	681.2	congruent	Block2	congruent/STIM_004.jpg	100
1795.72	0.517	517.0	congruent	Block2	congruent/STIM_004.jpg	100
1798.965	0.768	767.8	congruent	Block2	congruent/STIM_004.jpg	99
1802.27	0.817	816.6	congruent	Block2	congruent/STIM_004.jpg	99
1806.723	0.503	503.0	congruent	Block2	congruent/STIM_004.jpg	99
1810.682	0.692	692.5	congruent	Block2	congruent/STIM_005.jpg	99
1814.648	0.828	828.0	congruent	Block2	congruent/STIM_005.jpg	99
1817.99	0.706	706.0	congruent	Block2	congruent/STIM_005.jpg	100
1821.925	0.731	730.7	congruent	Block2	congruent/STIM_005.jpg	99
1825.297	0.819	818.8	congruent	Block2	congruent/STIM_005.jpg	99
1828.758	0.839	838.7	congruent	Block2	congruent/STIM_006.jpg	99
1833.26	0.644	643.9	congruent	Block2	congruent/STIM_006.jpg	99
1837.588	0.632	632.4	congruent	Block2	congruent/STIM_006.jpg	99
1842.042	0.673	673.4	congruent	Block2	congruent/STIM_006.jpg	100
1845.433	0.8	800.0	congruent	Block2	congruent/STIM_006.jpg	100
1848.81	0.637	636.7	congruent	Block2	congruent/STIM_007.jpg	100
1852.753	0.799	799.2	congruent	Block2	congruent/STIM_007.jpg	100
1857.522	0.499	499.1	congruent	Block2	congruent/STIM_007.jpg	99
1861.709	0.768	768.2	congruent	Block2	congruent/STIM_007.jpg	99
1865.506	0.744	744.0	congruent	Block2	congruent/STIM_007.jpg	99
1869.595	0.627	627.2	congruent	Block2	congruent/STIM_008.jpg	99
1872.354	0.809	808.9	congruent	Block2	congruent/STIM_008.jpg	99
1875.367	0.755	755.3	congruent	Block2	congruent/STIM_008.jpg	100
1878.172	0.54	540.4	congruent	Block2	congruent/STIM_008.jpg	99
1880.897	0.85	849.7	congruent	Block2	congruent/STIM_008.jpg	99
1884.763	0.493	493.2	congruent	Block2	congruent/STIM_009.jpg	100
1887.862	0.786	786.1	congruent	Block2	congruent/STIM_009.jpg	99
1891.949	0.728	728.0	congruent	Block2	congruent/STIM_009.jpg	99
1896.415	0.798	798.5	congruent	Block2	congruent/STIM_009.jpg	99
1899.792	0.599	599.2	congruent	Block2	congruent/STIM_009.jpg	100
1902.639	0.841	841.3	congruent	Block2	congruent/STIM_010.jpg	99
1906.525	0.81	810.4	congruent	Block2	congruent/STIM_010.jpg	100
1911.015	0.79	789.5	congruent	Block2	congruent/STIM_010.jpg	100
1915.598	0.651	651.1	congruent	Block2	congruent/STIM_010.jpg	100
1919.769	0.722	721.9	congruent	Block2	congruent/STIM_010.jpg	100
1922.628	0.559	558.9	congruent	Block2	congruent/STIM_011.jpg	100
1925.303	0.849	849.1	congruent	Block2	congruent/STIM_011.jpg	100
1929.4	0.784	783.5	congruent	Block2	congruent/STIM_011.jpg	100
1933.33	0.618	617.5	congruent	Block2	congruent/STIM_011.jpg	99
1937.418	0.837	837.1	congruent	Block2	congruent/STIM_011.jpg	99
1941.639	0.516	516.1	congruent	Block2	congruent/STIM_012.jpg	99
1944.785	0.706	706.1	congruent	Block2	congruent/STIM_012.jpg	100
1948.037	0.487	487.4	congruent	Block2	congruent/STIM_012.jpg	99
1950.805	0.639	638.8	congruent	Block2	congruent/STIM_012.jpg	99
1954.426	0.578	578.1	congruent	Block2	congruent/STIM_012.jpg	100
1957.831	0.701	701.4	congruent	Block2	congruent/STIM_013.jpg	100
1961.845	0.746	745.8	congruent	Block2	congruent/STIM_013.jpg	100
1964.843	0.586	586.0	congruent	Block2	congruent/STIM_013.jpg	100
1968.772	0.703	702.9	congruent	Block2	congruent/STIM_013.jpg	100
1972.986	0.78	780.4	congruent	Block2	congruent/STIM_013.jpg	100
1977.541	0.788	787.9	congruent	Block2	congruent/STIM_014.jpg	99
1980.789	0.695	695.2	congruent	Block2	congruent/STIM_014.jpg	99
1984.348	0.845	845.1	congruent	Block2	congruent/STIM_014.jpg	100
1987.854	0.724	723.6	congruent	Block2	congruent/STIM_014.jpg	100
1991.56	0.834	834.0	congruent	Block2	congruent/STIM_014.jpg	100
1995.59	0.531	531.0	congruent	Block2	congruent/STIM_015.jpg	99
1999.762	0.829	829.0	congruent	Block2	congruent/STIM_015.jpg	100
2002.74	0.585	585.3	congruent	Block2	congruent/STIM_015.jpg	100
2006.615	0.792	792.2	congruent	Block2	congruent/STIM_015.jpg	99
2010.613	0.489	488.7	congruent	Block2	congruent/STIM_015.jpg	100
2013.747	0.547	546.8	congruent	Block2	congruent/STIM_016.jpg	99
2016.434	0.641	641.2	congruent	Block2	congruent/STIM_016.jpg	100
2019.894	0.534	533.7	congruent	Block2	congruent/STIM_016.jpg	100
2024.453	0.858	857.6	congruent	Block2	congruent/STIM_016.jpg	100
2029.274	0.847	846.6	congruent	Block2	congruent/STIM_016.jpg	99
2032.485	0.806	805.5	congruent	Block2	congruent/STIM_017.jpg	100
2036.17	0.67	670.4	congruent	Block2	congruent/STIM_017.jpg	99
2039.048	0.746	746.3	congruent	Block2	congruent/STIM_017.jpg	99
2042.16	0.833	833.3	congruent	Block2	congruent/STIM_017.jpg	99
2046.301	0.651	650.7	congruent	Block2	congruent/STIM_017.jpg	99
2050.744	0.592	592.4	congruent	Block2	congruent/STIM_018.jpg	99
2054.722	0.792	791.6	congruent	Block2	congruent/STIM_018.jpg	99
2058.885	0.858	857.5	congruent	Block2	congruent/STIM_018.jpg	100
2062.679	0.488	488.5	congruent	Block2	congruent/STIM_018.jpg	100
2066.689	0.808	808.4	congruent	Block2	congruent/STIM_018.jpg	99
2071.391	0.757	757.0	congruent	Block2	congruent/STIM_019.jpg	99
2074.617	0.638	638.3	congruent	Block2	congruent/STIM_019.jpg	99
2078.895	0.822	822.5	congruent	Block2	congruent/STIM_019.jpg	100
2082.263	0.492	492.3	congruent	Block2	congruent/STIM_019.jpg	99
2086.139	0.532	531.6	congruent	Block2	congruent/STIM_019.jpg	100
2089.569	0.512	512.3	congruent	Block2	congruent/STIM_020.jpg	100
2093.209	0.533	533.2	congruent	Block2	congruent/STIM_020.jpg	100
2097.643	0.548	548.0	congruent	Block2	congruent/STIM_020.jpg	99
2102.037	0.618	618.4	congruent	Block2	congruent/STIM_020.jpg	100
2104.931	0.525	525.3	congruent	Block2	congruent/STIM_020.jpg	99
2108.809	0.587	586.6	congruent	Block2	congruent/STIM_021.jpg	99
2112.538	0.542	541.9	congruent	Block2	congruent/STIM_021.jpg	99
2116.532	0.698	698.4	congruent	Block2	congruent/STIM_021.jpg	100
2120.269	0.763	762.7	congruent	Block2	congruent/STIM_021.jpg	100
2124.537	0.731	730.9	congruent	Block2	congruent/STIM_021.jpg	100
2127.943	0.62	619.7	congruent	Block2	congruent/STIM_022.jpg	100
2130.901	0.519	519.0	congruent	Block2	congruent/STIM_022.jpg	99
2135.273	0.782	781.6	congruent	Block2	congruent/STIM_022.jpg	100
2138.912	0.563	562.9	congruent	Block2	congruent/STIM_022.jpg	100
2141.546	0.515	515.3	congruent	Block2	congruent/STIM_022.jpg	99
2144.426	0.834	833.6	congruent	Block2	congruent/STIM_023.jpg	100
2148.704	0.605	605.2	congruent	Block2	congruent/STIM_023.jpg	99
2153.106	0.699	698.6	congruent	Block2	congruent/STIM_023.jpg	100
2157.764	0.843	843.4	congruent	Block2	congruent/STIM_023.jpg	100
2161.572	0.668	667.6	congruent	Block2	congruent/STIM_023.jpg	100
2164.798	0.757	756.9	congruent	Block2	congruent/STIM_024.jpg	99
2169.556	0.836	835.5	congruent	Block2	congruent/STIM_024.jpg	100
2173.598	0.71	710.5	congruent	Block2	congruent/STIM_024.jpg	100
2177.709	0.542	541.8	congruent	Block2	congruent/STIM_024.jpg	100
2181.277	0.784	783.8	congruent	Block2	congruent/STIM_024.jpg	100
2184.49	0.616	615.5	congruent	Block2	congruent/STIM_025.jpg	99
2187.476	0.642	642.0	congruent	Block2	congruent/STIM_025.jpg	100
2190.793	0.603	603.3	congruent	Block2	congruent/STIM_025.jpg	99
2194.482	0.755	755.2	congruent	Block2	congruent/STIM_025.jpg	99
2197.895	0.762	761.5	congruent	Block2	congruent/STIM_025.jpg	99
2202.36	0.498	497.8	congruent	Block2	congruent/STIM_026.jpg	100
2205.861	0.732	731.7	congruent	Block2	congruent/STIM_026.jpg	99
2210.318	0.819	819.3	congruent	Block2	congruent/STIM_026.jpg	99
2214.54	0.646	646.3	congruent	Block2	congruent/STIM_026.jpg	99
2219.131	0.556	555.6	congruent	Block2	congruent/STIM_026.jpg	99
2223.024	0.522	522.0	congruent	Block2	congruent/STIM_027.jpg	100
2227.14	0.745	745.1	congruent	Block2	congruent/STIM_027.jpg	100
2231.777	0.836	836.2	congruent	Block2	congruent/STIM_027.jpg	99
2234.829	0.732	732.4	congruent	Block2	congruent/STIM_027.jpg	100
2237.733	0.755	755.4	congruent	Block2	congruent/STIM_027.jpg	99
2241.895	0.5	500.0	congruent	Block2	congruent/STIM_028.jpg	100
2246.209	0.856	856.0	congruent	Block2	congruent/STIM_028.jpg	99
2249.666	0.634	634.1	congruent	Block2	congruent/STIM_028.jpg	100
2254.187	0.725	725.4	congruent	Block2	congruent/STIM_028.jpg	99
2257.89	0.515	515.0	congruent	Block2	congruent/STIM_028.jpg	99
2260.854	0.757	757.1	congruent	Block2	congruent/STIM_029.jpg	99
2265.468	0.8	800.1	congruent	Block2	congruent/STIM_029.jpg	100
2269.383	0.502	501.7	congruent	Block2	congruent/STIM_029.jpg	100
2273.73	0.732	732.3	congruent	Block2	congruent/STIM_029.jpg	99
2277.928	0.676	675.9	congruent	Block2	congruent/STIM_029.jpg	100
2280.79	0.573	573.3	incongruent	Block3	incongruent/STIM_000.jpg	100
2284.335	0.836	836.4	incongruent	Block3	incongruent/STIM_000.jpg	99
2288.462	0.73	730.3	incongruent	Block3	incongruent/STIM_000.jpg	99
2292.917	0.739	738.8	incongruent	Block3	incongruent/STIM_000.jpg	100
2297.048	0.764	763.6	incongruent	Block3	incongruent/STIM_000.jpg	100
2300.273	0.62	620.3	incongruent	Block3	incongruent/STIM_001.jpg	99
2303.855	0.835	835.2	incongruent	Block3	incongruent/STIM_001.jpg	100
2306.964	0.784	783.9	incongruent	Block3	incongruent/STIM_001.jpg	100
2310.557	0.506	506.1	incongruent	Block3	incongruent/STIM_001.jpg	99
2314.933	0.696	695.6	incongruent	Block3	incongruent/STIM_001.jpg	100
2319.2	0.846	846.2	incongruent	Block3	incongruent/STIM_002.jpg	100
2322.487	0.919	919.0	incongruent	Block3	incongruent/STIM_002.jpg	100
2327.365	0.661	661.2	incongruent	Block3	incongruent/STIM_002.jpg	99
2330.199	0.491	490.8	incongruent	Block3	incongruent/STIM_002.jpg	100
2333.029	0.68	679.5	incongruent	Block3	incongruent/STIM_002.jpg	99
2336.801	0.553	552.6	incongruent	Block3	incongruent/STIM_003.jpg	99
2340.256	0.83	829.8	incongruent	Block3	incongruent/STIM_003.jpg	99
2343.168	0.744	743.9	incongruent	Block3	incongruent/STIM_003.jpg	100
2346.279	0.6	600.5	incongruent	Block3	incongruent/STIM_003.jpg	99
2350.195	0.77	770.3	incongruent	Block3	incongruent/STIM_003.jpg	99
2353.405	0.508	508.1	incongruent	Block3	incongruent/STIM_004.jpg	100
2356.661	0.792	792.4	incongruent	Block3	incongruent/STIM_004.jpg	100
2360.452	0.748	748.3	incongruent	Block3	incongruent/STIM_004.jpg	100
2364.726	0.956	956.3	incongruent	Block3	incongruent/STIM_004.jpg	100
2368.111	0.483	482.9	incongruent	Block3	incongruent/STIM_004.jpg	99
2372.092	0.581	580.6	incongruent	Block3	incongruent/STIM_005.jpg	100
2375.276	0.862	862.4	incongruent	Block3	incongruent/STIM_005.jpg	100
2378.812	0.622	621.8	incongruent	Block3	incongruent/STIM_005.jpg	99
2381.874	0.522	522.0	incongruent	Block3	incongruent/STIM_005.jpg	100
2386.335	0.791	791.0	incongruent	Block3	incongruent/STIM_005.jpg	99
2389.47	0.548	547.5	incongruent	Block3	incongruent/STIM_006.jpg	99
2393.482	0.667	667.3	incongruent	Block3	incongruent/STIM_006.jpg	100
2397.54	0.578	578.1	incongruent	Block3	incongruent/STIM_006.jpg	100
2402.121	0.642	642.3	incongruent	Block3	incongruent/STIM_006.jpg	99
2405.165	0.603	603.3	incongruent	Block3	incongruent/STIM_006.jpg	99
2408.156	0.85	850.0	incongruent	Block3	incongruent/STIM_007.jpg	100
2411.536	0.778	777.9	incongruent	Block3	incongruent/STIM_007.jpg	100
2415.905	0.883	883.1	incongruent	Block3	incongruent/STIM_007.jpg	99
2419.34	0.732	731.7	incongruent	Block3	incongruent/STIM_007.jpg	100
2423.692	0.99	989.5	incongruent	Block3	incongruent/STIM_007.jpg	99
2428.557	0.834	833.8	incongruent	Block3	incongruent/STIM_008.jpg	100
2432.828	0.851	851.1	incongruent	Block3	incongruent/STIM_008.jpg	99
2437.637	0.714	714.2	incongruent	Block3	incongruent/STIM_008.jpg	99
2440.747	0.78	780.2	incongruent	Block3	incongruent/STIM_008.jpg	100
2443.643	0.519	519.0	incongruent	Block3	incongruent/STIM_008.jpg	99
2447.59	0.862	861.5	incongruent	Block3	incongruent/STIM_009.jpg	99
2450.77	0.899	899.3	incongruent	Block3	incongruent/STIM_009.jpg	99
2455.618	0.844	844.2	incongruent	Block3	incongruent/STIM_009.jpg	100
2458.755	0.82	820.2	incongruent	Block3	incongruent/STIM_009.jpg	99
2461.978	0.96	959.6	incongruent	Block3	incongruent/STIM_009.jpg	100
2465.588	0.496	496.2	incongruent	Block3	incongruent/STIM_010.jpg	100
2468.663	0.652	652.0	incongruent	Block3	incongruent/STIM_010.jpg	100
2472.203	0.49	489.6	incongruent	Block3	incongruent/STIM_010.jpg	99
2476.6	0.572	572.4	incongruent	Block3	incongruent/STIM_010.jpg	99
2480.735	0.491	491.0	incongruent	Block3	incongruent/STIM_010.jpg	100
2483.408	0.648	648.5	incongruent	Block3	incongruent/STIM_011.jpg	99
2487.671	0.766	766.5	incongruent	Block3	incongruent/STIM_011.jpg	99
2492.358	0.722	721.6	incongruent	Block3	incongruent/STIM_011.jpg	100
2496.102	0.92	920.2	incongruent	Block3	incongruent/STIM_011.jpg	100
2500.761	0.505	505.1	incongruent	Block3	incongruent/STIM_011.jpg	100
2505.231	0.921	921.0	incongruent	Block3	incongruent/STIM_012.jpg	100
2508.983	0.743	743.0	incongruent	Block3	incongruent/STIM_012.jpg	99
2513.527	0.671	671.1	incongruent	Block3	incongruent/STIM_012.jpg	99
2516.486	0.578	578.5	incongruent	Block3	incongruent/STIM_012.jpg	99
2520.268	0.511	511.2	incongruent	Block3	incongruent/STIM_012.jpg	100
2523.316	0.829	829.1	incongruent	Block3	incongruent/STIM_013.jpg	100
2527.649	0.733	733.1	incongruent	Block3	incongruent/STIM_013.jpg	99
2531.707	0.732	731.6	incongruent	Block3	incongruent/STIM_013.jpg	99
2535.411	0.59	589.6	incongruent	Block3	incongruent/STIM_013.jpg	100
2538.743	0.671	671.0	incongruent	Block3	incongruent/STIM_013.jpg	99
2543.399	0.801	800.6	incongruent	Block3	incongruent/STIM_014.jpg	100
2547.549	0.647	646.9	incongruent	Block3	incongruent/STIM_014.jpg	100
2551.367	0.554	554.1	incongruent	Block3	incongruent/STIM_014.jpg	99
2555.592	0.831	830.8	incongruent	Block3	incongruent/STIM_014.jpg	100
2560.234	0.747	746.7	incongruent	Block3	incongruent/STIM_014.jpg	99
2564.711	0.963	963.4	incongruent	Block3	incongruent/STIM_015.jpg	100
2569.403	0.936	936.3	incongruent	Block3	incongruent/STIM_015.jpg	99
2573.849	0.641	640.8	incongruent	Block3	incongruent/STIM_015.jpg	100
2578.471	0.618	617.5	incongruent	Block3	incongruent/STIM_015.jpg	99
2581.996	0.769	769.1	incongruent	Block3	incongruent/STIM_015.jpg	99
2584.885	0.533	533.0	incongruent	Block3	incongruent/STIM_016.jpg	100
2588.562	0.907	907.4	incongruent	Block3	incongruent/STIM_016.jpg	100
2593.3	0.826	826.4	incongruent	Block3	incongruent/STIM_016.jpg	100
2597.011	0.961	960.7	incongruent	Block3	incongruent/STIM_016.jpg	100
2601.629	0.76	759.9	incongruent	Block3	incongruent/STIM_016.jpg	100
2604.7	0.496	495.9	incongruent	Block3	incongruent/STIM_017.jpg	99
2607.955	0.927	926.8	incongruent	Block3	incongruent/STIM_017.jpg	99
2611.841	0.52	520.5	incongruent	Block3	incongruent/STIM_017.jpg	99
2614.429	0.856	856.1	incongruent	Block3	incongruent/STIM_017.jpg	99
2618.193	0.906	906.4	incongruent	Block3	incongruent/STIM_017.jpg	100
2621.393	0.511	510.8	incongruent	Block3	incongruent/STIM_018.jpg	100
2625.455	0.921	920.9	incongruent	Block3	incongruent/STIM_018.jpg	100
2629.98	0.707	707.2	incongruent	Block3	incongruent/STIM_018.jpg	100
2634.417	0.693	692.6	incongruent	Block3	incongruent/STIM_018.jpg	100
2637.887	0.648	648.4	incongruent	Block3	incongruent/STIM_018.jpg	100
2641.975	0.918	918.5	incongruent	Block3	incongruent/STIM_019.jpg	100
2645.087	0.665	664.6	incongruent	Block3	incongruent/STIM_019.jpg	100
2647.841	0.892	892.0	incongruent	Block3	incongruent/STIM_019.jpg	99
2652.436	0.8	800.2	incongruent	Block3	incongruent/STIM_019.jpg	100
2655.391	0.806	805.8	incongruent	Block3	incongruent/STIM_019.jpg	99
2660.065	0.927	927.3	incongruent	Block3	incongruent/STIM_020.jpg	100
2663.302	0.723	722.6	incongruent	Block3	incongruent/STIM_020.jpg	100
2666.574	0.626	626.5	incongruent	Block3	incongruent/STIM_020.jpg	100
2669.408	0.937	936.9	incongruent	Block3	incongruent/STIM_020.jpg	99
2673.001	0.517	517.2	incongruent	Block3	incongruent/STIM_020.jpg	100
2676.479	0.832	831.6	incongruent	Block3	incongruent/STIM_021.jpg	100
2680.224	0.491	490.9	incongruent	Block3	incongruent/STIM_021.jpg	99
2683.935	0.995	995.0	incongruent	Block3	incongruent/STIM_021.jpg	100
2687.747	0.636	636.3	incongruent	Block3	incongruent/STIM_021.jpg	100
2691.664	0.533	533.1	incongruent	Block3	incongruent/STIM_021.jpg	99
2695.245	0.993	993.0	incongruent	Block3	incongruent/STIM_022.jpg	100
2699.804	0.797	796.7	incongruent	Block3	incongruent/STIM_022.jpg	99
2704.336	0.586	586.2	incongruent	Block3	incongruent/STIM_022.jpg	99
2708.444	0.626	625.6	incongruent	Block3	incongruent/STIM_022.jpg	100
2712.259	0.537	537.2	incongruent	Block3	incongruent/STIM_022.jpg	100
2715.99	0.472	472.1	incongruent	Block3	incongruent/STIM_023.jpg	99
2720.008	0.948	948.2	incongruent	Block3	incongruent/STIM_023.jpg	99
2723.61	0.522	521.5	incongruent	Block3	incongruent/STIM_023.jpg	99
2727.072	0.802	801.7	incongruent	Block3	incongruent/STIM_023.jpg	99
2730.276	0.881	881.4	incongruent	Block3	incongruent/STIM_023.jpg	99
2733.826	0.793	793.2	incongruent	Block3	incongruent/STIM_024.jpg	99
2737.488	0.711	711.0	incongruent	Block3	incongruent/STIM_024.jpg	99
2740.83	0.503	503.0	incongruent	Block3	incongruent/STIM_024.jpg	100
2744.136	0.52	520.3	incongruent	Block3	incongruent/STIM_024.jpg	99
2747.225	0.575	574.6	incongruent	Block3	incongruent/STIM_024.jpg	99
2751.702	0.634	633.7	incongruent	Block3	incongruent/STIM_025.jpg	99
2755.021	0.995	995.2	incongruent	Block3	incongruent/STIM_025.jpg	100
2758.839	0.681	680.7	incongruent	Block3	incongruent/STIM_025.jpg	99
2763.064	0.56	560.3	incongruent	Block3	incongruent/STIM_025.jpg	99
2765.968	0.701	700.8	incongruent	Block3	incongruent/STIM_025.jpg	100
2769.18	0.718	717.5	incongruent	Block3	incongruent/STIM_026.jpg	100
2772.229	0.964	964.1	incongruent	Block3	incongruent/STIM_026.jpg	99
2776.924	0.851	851.0	incongruent	Block3	incongruent/STIM_026.jpg	99
2781.066	0.496	495.5	incongruent	Block3	incongruent/STIM_026.jpg	100
2783.639	0.942	941.6	incongruent	Block3	incongruent/STIM_026.jpg	99
2787.363	0.936	936.1	incongruent	Block3	incongruent/STIM_027.jpg	100
2790.881	0.935	935.0	incongruent	Block3	incongruent/STIM_027.jpg	100
2795.459	0.681	680.7	incongruent	Block3	incongruent/STIM_027.jpg	100
2799.938	0.652	651.5	incongruent	Block3	incongruent/STIM_027.jpg	100
2803.811	0.89	890.3	incongruent	Block3	incongruent/STIM_027.jpg	99
2807.559	0.997	996.6	incongruent	Block3	incongruent/STIM_028.jpg	100
2812.413	0.541	541.0	incongruent	Block3	incongruent/STIM_028.jpg	100
2816.629	0.619	619.0	incongruent	Block3	incongruent/STIM_028.jpg	100
2820.353	0.72	720.4	incongruent	Block3	incongruent/STIM_028.jpg	99
2823.258	0.703	703.2	incongruent	Block3	incongruent/STIM_028.jpg	99
2827.434	0.586	585.9	incongruent	Block3	incongruent/STIM_029.jpg	99
2831.272	0.748	747.8	incongruent	Block3	incongruent/STIM_029.jpg	99
2835.558	0.929	929.3	incongruent	Block3	incongruent/STIM_029.jpg	99
2838.809	0.641	640.8	incongruent	Block3	incongruent/STIM_029.jpg	99
2843.208	0.546	545.6	incongruent	Block3	incongruent/STIM_029.jpg	100
2846.863	0.699	699.0	congruent	Block3	congruent/STIM_000.jpg	99
2849.928	0.505	505.5	congruent	Block3	congruent/STIM_000.jpg	99
2853.997	0.599	599.1	congruent	Block3	congruent/STIM_000.jpg	100
2857.456	0.765	764.8	congruent	Block3	congruent/STIM_000.jpg	99
2860.55	0.828	828.3	congruent	Block3	congruent/STIM_000.jpg	100
2863.67	0.783	783.0	congruent	Block3	congruent/STIM_001.jpg	100
2867.973	0.82	819.9	congruent	Block3	congruent/STIM_001.jpg	99
2872.492	0.804	803.8	congruent	Block3	congruent/STIM_001.jpg	100
2877.263	0.8	800.0	congruent	Block3	congruent/STIM_001.jpg	100
2881.037	0.784	783.6	congruent	Block3	congruent/STIM_001.jpg	100
2885.021	0.794	793.8	congruent	Block3	congruent/STIM_002.jpg	100
2887.892	0.572	572.0	congruent	Block3	congruent/STIM_002.jpg	100
2891.688	0.831	831.0	congruent	Block3	congruent/STIM_002.jpg	99
2896.526	0.553	553.0	congruent	Block3	congruent/STIM_002.jpg	100
2901.089	0.634	634.1	congruent	Block3	congruent/STIM_002.jpg	99
2904.545	0.566	565.9	congruent	Block3	congruent/STIM_003.jpg	99
2908.469	0.565	565.0	congruent	Block3	congruent/STIM_003.jpg	99
2911.431	0.821	821.4	congruent	Block3	congruent/STIM_003.jpg	99
2915.313	0.481	480.9	congruent	Block3	congruent/STIM_003.jpg	99
2917.894	0.539	539.2	congruent	Block3	congruent/STIM_003.jpg	100
2921.465	0.7	699.9	congruent	Block3	congruent/STIM_004.jpg	99
2925.11	0.848	848.3	congruent	Block3	congruent/STIM_004.jpg	100
2929.044	0.569	569.4	congruent	Block3	congruent/STIM_004.jpg	99
2933.495	0.678	678.0	congruent	Block3	congruent/STIM_004.jpg	99
2936.685	0.479	479.1	congruent	Block3	congruent/STIM_004.jpg	100
2940.141	0.524	523.8	congruent	Block3	congruent/STIM_005.jpg	100
2942.727	0.739	738.8	congruent	Block3	congruent/STIM_005.jpg	100
2946.682	0.625	624.6	congruent	Block3	congruent/STIM_005.jpg	100
2950.571	0.624	624.3	congruent	Block3	congruent/STIM_005.jpg	99
2955.09	0.521	521.3	congruent	Block3	congruent/STIM_005.jpg	99
2958.523	0.519	518.7	congruent	Block3	congruent/STIM_006.jpg	100
2963.038	0.487	487.2	congruent	Block3	congruent/STIM_006.jpg	100
2965.934	0.52	520.0	congruent	Block3	congruent/STIM_006.jpg	100
2969.655	0.495	494.9	congruent	Block3	congruent/STIM_006.jpg	99
2973.14	0.813	812.9	congruent	Block3	congruent/STIM_006.jpg	100
2975.996	0.631	630.7	congruent	Block3	congruent/STIM_007.jpg	99
2980.165	0.483	483.0	congruent	Block3	congruent/STIM_007.jpg	99
2984.26	0.686	686.5	congruent	Block3	congruent/STIM_007.jpg	99
2988.607	0.499	499.4	congruent	Block3	congruent/STIM_007.jpg	99
2992.916	0.856	856.5	congruent	Block3	congruent/STIM_007.jpg	100
2996.089	0.662	662.5	congruent	Block3	congruent/STIM_008.jpg	99
2999.585	0.517	517.0	congruent	Block3	congruent/STIM_008.jpg	99
3003.518	0.51	510.4	congruent	Block3	congruent/STIM_008.jpg	100
3008.04	0.598	598.5	congruent	Block3	congruent/STIM_008.jpg	100
3011.103	0.554	553.7	congruent	Block3	congruent/STIM_008.jpg	99
3013.78	0.586	585.8	congruent	Block3	congruent/STIM_009.jpg	99
3017.97	0.855	854.9	congruent	Block3	congruent/STIM_009.jpg	99
3021.944	0.507	506.7	congruent	Block3	congruent/STIM_009.jpg	100
3025.41	0.78	779.8	congruent	Block3	congruent/STIM_009.jpg	99
3028.369	0.557	557.1	congruent	Block3	congruent/STIM_009.jpg	100
3031.066	0.595	595.1	congruent	Block3	congruent/STIM_010.jpg	99
3035.267	0.521	520.9	congruent	Block3	congruent/STIM_010.jpg	99
3038.708	0.806	805.6	congruent	Block3	congruent/STIM_010.jpg	99
3043.292	0.855	855.0	congruent	Block3	congruent/STIM_010.jpg	99
3047.013	0.555	554.6	congruent	Block3	congruent/STIM_010.jpg	99
3051.503	0.802	802.0	congruent	Block3	congruent/STIM_011.jpg	99
3055.844	0.713	713.1	congruent	Block3	congruent/STIM_011.jpg	99
3059.907	0.742	741.6	congruent	Block3	congruent/STIM_011.jpg	99
3063.258	0.7	700.1	congruent	Block3	congruent/STIM_011.jpg	100
3066.251	0.566	566.1	congruent	Block3	congruent/STIM_011.jpg	100
3069.527	0.854	854.2	congruent	Block3	congruent/STIM_012.jpg	99
3072.942	0.621	621.2	congruent	Block3	congruent/STIM_012.jpg	100
3076.725	0.84	839.7	congruent	Block3	congruent/STIM_012.jpg	100
3080.443	0.778	777.7	congruent	Block3	congruent/STIM_012.jpg	99
3083.961	0.564	563.8	congruent	Block3	congruent/STIM_012.jpg	100
3088.021	0.605	605.1	congruent	Block3	congruent/STIM_013.jpg	99
3090.766	0.61	610.3	congruent	Block3	congruent/STIM_013.jpg	100
3095.143	0.63	630.1	congruent	Block3	congruent/STIM_013.jpg	100
3098.846	0.807	806.9	congruent	Block3	congruent/STIM_013.jpg	100
3103.33	0.547	547.2	congruent	Block3	congruent/STIM_013.jpg	100
3106.51	0.728	728.5	congruent	Block3	congruent/STIM_014.jpg	99
3110.627	0.784	783.8	congruent	Block3	congruent/STIM_014.jpg	100
3114.275	0.59	589.9	congruent	Block3	congruent/STIM_014.jpg	99
3118.108	0.761	760.6	congruent	Block3	congruent/STIM_014.jpg	99
3122.3	0.624	624.1	congruent	Block3	congruent/STIM_014.jpg	99
3126.496	0.732	732.3	congruent	Block3	congruent/STIM_015.jpg	99
3129.4	0.827	826.9	congruent	Block3	congruent/STIM_015.jpg	99
3132.457	0.702	702.4	congruent	Block3	congruent/STIM_015.jpg	100
3135.368	0.619	618.8	congruent	Block3	congruent/STIM_015.jpg	99
3138.45	0.703	702.6	congruent	Block3	congruent/STIM_015.jpg	99
3142.197	0.637	636.6	congruent	Block3	congruent/STIM_016.jpg	99
3146.655	0.702	702.0	congruent	Block3	congruent/STIM_016.jpg	100
3150.632	0.799	799.3	congruent	Block3	congruent/STIM_016.jpg	100
3155.048	0.79	790.1	congruent	Block3	congruent/STIM_016.jpg	99
3159.847	0.661	661.3	congruent	Block3	congruent/STIM_016.jpg	100
3163.233	0.534	534.5	congruent	Block3	congruent/STIM_017.jpg	100
3167.116	0.747	746.9	congruent	Block3	congruent/STIM_017.jpg	100
3170.476	0.615	615.0	congruent	Block3	congruent/STIM_017.jpg	100
3173.644	0.487	487.1	congruent	Block3	congruent/STIM_017.jpg	99
3177.502	0.495	494.8	congruent	Block3	congruent/STIM_017.jpg	100
3180.251	0.518	518.3	congruent	Block3	congruent/STIM_018.jpg	99
3183.679	0.694	694.0	congruent	Block3	congruent/STIM_018.jpg	100
3188.273	0.546	546.4	congruent	Block3	congruent/STIM_018.jpg	99
3192.625	0.481	481.4	congruent	Block3	congruent/STIM_018.jpg	100
3195.293	0.694	693.7	congruent	Block3	congruent/STIM_018.jpg	100
3198.986	0.858	857.9	congruent	Block3	congruent/STIM_019.jpg	100
3202.621	0.609	609.1	congruent	Block3	congruent/STIM_019.jpg	100
3206.262	0.787	786.7	congruent	Block3	congruent/STIM_019.jpg	100
3210.618	0.505	505.1	congruent	Block3	congruent/STIM_019.jpg	100
3213.151	0.66	660.3	congruent	Block3	congruent/STIM_019.jpg	99
3217.797	0.693	693.4	congruent	Block3	congruent/STIM_020.jpg	99
3221.67	0.824	823.5	congruent	Block3	congruent/STIM_020.jpg	100
3225.582	0.682	682.1	congruent	Block3	congruent/STIM_020.jpg	99
3228.432	0.62	620.1	congruent	Block3	congruent/STIM_020.jpg	99
3232.89	0.825	825.1	congruent	Block3	congruent/STIM_020.jpg	99
3237.011	0.638	638.5	congruent	Block3	congruent/STIM_021.jpg	100
3240.459	0.722	722.4	congruent	Block3	congruent/STIM_021.jpg	100
3243.288	0.813	813.0	congruent	Block3	congruent/STIM_021.jpg	99
3246.192	0.529	529.3	congruent	Block3	congruent/STIM_021.jpg	100
3249.888	0.6	600.5	congruent	Block3	congruent/STIM_021.jpg	99
3254.011	0.832	831.5	congruent	Block3	congruent/STIM_022.jpg	99
3258.303	0.534	533.8	congruent	Block3	congruent/STIM_022.jpg	100
3261.217	0.597	597.1	congruent	Block3	congruent/STIM_022.jpg	99
3265.835	0.73	730.1	congruent	Block3	congruent/STIM_022.jpg	99
3269.063	0.731	731.3	congruent	Block3	congruent/STIM_022.jpg	99
3271.954	0.65	649.9	congruent	Block3	congruent/STIM_023.jpg	99
3275.126	0.52	520.1	congruent	Block3	congruent/STIM_023.jpg	100
3278.819	0.559	558.7	congruent	Block3	congruent/STIM_023.jpg	100
3282.616	0.818	818.1	congruent	Block3	congruent/STIM_023.jpg	100
3287.138	0.586	586.5	congruent	Block3	congruent/STIM_023.jpg	99
3290.542	0.532	531.8	congruent	Block3	congruent/STIM_024.jpg	100
3293.871	0.482	482.3	congruent	Block3	congruent/STIM_024.jpg	99
3296.594	0.74	740.5	congruent	Block3	congruent/STIM_024.jpg	100
3299.513	0.642	642.0	congruent	Block3	congruent/STIM_024.jpg	99
3304.104	0.687	687.3	congruent	Block3	congruent/STIM_024.jpg	100
3308.169	0.499	499.1	congruent	Block3	congruent/STIM_025.jpg	100
3310.746	0.648	648.0	congruent	Block3	congruent/STIM_025.jpg	100
3315.136	0.687	687.4	congruent	Block3	congruent/STIM_025.jpg	99
3319.743	0.671	670.6	congruent	Block3	congruent/STIM_025.jpg	100
3323.657	0.679	679.1	congruent	Block3	congruent/STIM_025.jpg	100
3328.324	0.72	720.4	congruent	Block3	congruent/STIM_026.jpg	100
3332.706	0.58	580.4	congruent	Block3	congruent/STIM_026.jpg	99
3335.851	0.791	790.6	congruent	Block3	congruent/STIM_026.jpg	100
3339.043	0.586	586.4	congruent	Block3	congruent/STIM_026.jpg	100
3342.958	0.567	567.2	congruent	Block3	congruent/STIM_026.jpg	99
3347.289	0.807	807.1	congruent	Block3	congruent/STIM_027.jpg	100
3350.551	0.848	848.4	congruent	Block3	congruent/STIM_027.jpg	99
3355.019	0.525	525.2	congruent	Block3	congruent/STIM_027.jpg	99
3358.704	0.845	845.4	congruent	Block3	congruent/STIM_027.jpg	99
3362.103	0.737	736.6	congruent	Block3	congruent/STIM_027.jpg	99
3364.9	0.663	662.8	congruent	Block3	congruent/STIM_028.jpg	100
3368.254	0.561	560.7	congruent	Block3	congruent/STIM_028.jpg	100
3372.824	0.531	531.4	congruent	Block3	congruent/STIM_028.jpg	100
3376.958	0.61	609.9	congruent	Block3	congruent/STIM_028.jpg	100
3379.919	0.55	549.8	congruent	Block3	congruent/STIM_028.jpg	100
3384.145	0.844	843.9	congruent	Block3	congruent/STIM_029.jpg	100
3387.867	0.658	657.7	congruent	Block3	congruent/STIM_029.jpg	100
3391.304	0.55	550.0	congruent	Block3	congruent/STIM_029.jpg	99
3394.962	0.68	679.5	congruent	Block3	congruent/STIM_029.jpg	99
3398.982	0.533	533.3	congruent	Block3	congruent/STIM_029.jpg	99
