onset	duration	accuracy_binary	trial_type	learning_stage	stimulus
0.0	0.828	0	incongruent	Block1	incongruent/STIM_000.jpg
3.462	1.039	0	incongruent	Block1	incongruent/STIM_000.jpg
8.348	0.877	1	incongruent	Block1	incongruent/STIM_000.jpg
13.035	1.182	1	incongruent	Block1	incongruent/STIM_000.jpg
17.739	1.093	1	incongruent	Block1	incongruent/STIM_000.jpg
21.594	1.157	1	incongruent	Block1	incongruent/STIM_001.jpg
25.641	1.308	0	incongruent	Block1	incongruent/STIM_001.jpg
29.31	0.766	1	incongruent	Block1	incongruent/STIM_001.jpg
34.103	0.989	1	incongruent	Block1	incongruent/STIM_001.jpg
38.278	0.934	1	incongruent	Block1	incongruent/STIM_001.jpg
42.251	1.17	1	incongruent	Block1	incongruent/STIM_002.jpg
46.199	1.357	1	incongruent	Block1	incongruent/STIM_002.jpg
50.778	1.144	1	incongruent	Block1	incongruent/STIM_002.jpg
54.502	0.928	1	incongruent	Block1	incongruent/STIM_002.jpg
57.629	0.94	1	incongruent	Block1	incongruent/STIM_002.jpg
62.182	1.168	0	incongruent	Block1	incongruent/STIM_003.jpg
66.58	0.988	1	incongruent	Block1	incongruent/STIM_003.jpg
70.741	0.798	1	incongruent	Block1	incongruent/STIM_003.jpg
73.738	0.621	1	incongruent	Block1	incongruent/STIM_003.jpg
77.235	1.045	1	incongruent	Block1	incongruent/STIM_003.jpg
81.432	0.891	1	incongruent	Block1	incongruent/STIM_004.jpg
86.016	1.187	1	incongruent	Block1	incongruent/STIM_004.jpg
90.105	0.673	1	incongruent	Block1	incongruent/STIM_004.jpg
94.47	1.098	1	incongruent	Block1	incongruent/STIM_004.jpg
98.422	0.714	1	incongruent	Block1	incongruent/STIM_004.jpg
102.181	1.389	0	incongruent	Block1	incongruent/STIM_005.jpg
105.736	0.9	1	incongruent	Block1	incongruent/STIM_005.jpg
109.427	0.943	1	incongruent	Block1	incongruent/STIM_005.jpg
114.213	1.092	0	incongruent	Block1	incongruent/STIM_005.jpg
118.262	0.942	1	incongruent	Block1	incongruent/STIM_005.jpg
123.125	1.113	1	incongruent	Block1	incongruent/STIM_006.jpg
127.398	1.07	1	incongruent	Block1	incongruent/STIM_006.jpg
131.381	0.881	1	incongruent	Block1	incongruent/STIM_006.jpg
134.787	1.183	1	incongruent	Block1	incongruent/STIM_006.jpg
138.301	0.711	1	incongruent	Block1	incongruent/STIM_006.jpg
141.416	1.234	1	incongruent	Block1	incongruent/STIM_007.jpg
146.217	1.157	1	incongruent	Block1	incongruent/STIM_007.jpg
150.484	1.195	1	incongruent	Block1	incongruent/STIM_007.jpg
154.979	0.652	1	incongruent	Block1	incongruent/STIM_007.jpg
158.058	0.845	1	incongruent	Block1	incongruent/STIM_007.jpg
162.273	0.81	1	incongruent	Block1	incongruent/STIM_008.jpg
165.237	0.678	0	incongruent	Block1	incongruent/STIM_008.jpg
169.003	0.967	1	incongruent	Block1	incongruent/STIM_008.jpg
172.672	1.061	1	incongruent	Block1	incongruent/STIM_008.jpg
176.19	0.696	1	incongruent	Block1	incongruent/STIM_008.jpg
179.417	1.346	0	incongruent	Block1	incongruent/STIM_009.jpg
184.504	0.681	1	incongruent	Block1	incongruent/STIM_009.jpg
187.762	0.737	0	incongruent	Block1	incongruent/STIM_009.jpg
191.491	0.865	1	incongruent	Block1	incongruent/STIM_009.jpg
195.162	0.858	1	incongruent	Block1	incongruent/STIM_009.jpg
199.378	1.017	1	incongruent	Block1	incongruent/STIM_010.jpg
203.367	0.803	1	incongruent	Block1	incongruent/STIM_010.jpg
206.273	1.166	1	incongruent	Block1	incongruent/STIM_010.jpg
210.778	1.096	1	incongruent	Block1	incongruent/STIM_010.jpg
215.103	1.135	1	incongruent	Block1	incongruent/STIM_010.jpg
219.855	1.084	1	incongruent	Block1	incongruent/STIM_011.jpg
224.409	1.17	1	incongruent	Block1	incongruent/STIM_011.jpg
228.57	0.755	1	incongruent	Block1	incongruent/STIM_011.jpg
233.217	1.032	1	incongruent	Block1	incongruent/STIM_011.jpg
237.911	0.712	0	incongruent	Block1	incongruent/STIM_011.jpg
241.655	0.962	1	incongruent	Block1	incongruent/STIM_012.jpg
245.695	1.045	1	incongruent	Block1	incongruent/STIM_012.jpg
249.12	0.998	1	incongruent	Block1	incongruent/STIM_012.jpg
253.762	0.747	1	incongruent	Block1	incongruent/STIM_012.jpg
257.97	0.998	1	incongruent	Block1	incongruent/STIM_012.jpg
261.23	0.933	1	incongruent	Block1	incongruent/STIM_013.jpg
265.279	1.201	1	incongruent	Block1	incongruent/STIM_013.jpg
270.063	1.093	1	incongruent	Block1	incongruent/STIM_013.jpg
273.666	0.694	1	incongruent	Block1	incongruent/STIM_013.jpg
278.318	0.789	1	incongruent	Block1	incongruent/STIM_013.jpg
281.612	1.402	1	incongruent	Block1	incongruent/STIM_014.jpg
286.415	0.675	1	incongruent	Block1	incongruent/STIM_014.jpg
289.603	0.732	0	incongruent	Block1	incongruent/STIM_014.jpg
292.431	0.688	1	incongruent	Block1	incongruent/STIM_014.jpg
296.183	0.812	1	incongruent	Block1	incongruent/STIM_014.jpg
299.544	0.791	1	incongruent	Block1	incongruent/STIM_015.jpg
304.126	0.724	1	incongruent	Block1	incongruent/STIM_015.jpg
307.52	1.124	1	incongruent	Block1	incongruent/STIM_015.jpg
312.279	0.595	1	incongruent	Block1	incongruent/STIM_015.jpg
315.041	0.782	0	incongruent	Block1	incongruent/STIM_015.jpg
317.893	1.247	1	incongruent	Block1	incongruent/STIM_016.jpg
321.8	0.982	0	incongruent	Block1	incongruent/STIM_016.jpg
326.44	0.869	0	incongruent	Block1	incongruent/STIM_016.jpg
330.342	0.964	1	incongruent	Block1	incongruent/STIM_016.jpg
334.621	1.083	1	incongruent	Block1	incongruent/STIM_016.jpg
339.533	0.742	1	incongruent	Block1	incongruent/STIM_017.jpg
342.857	0.672	1	incongruent	Block1	incongruent/STIM_017.jpg
347.074	0.793	1	incongruent	Block1	incongruent/STIM_017.jpg
350.998	0.92	1	incongruent	Block1	incongruent/STIM_017.jpg
354.472	0.758	1	incongruent	Block1	incongruent/STIM_017.jpg
357.869	1.368	1	incongruent	Block1	incongruent/STIM_018.jpg
361.449	1.356	0	incongruent	Block1	incongruent/STIM_018.jpg
365.114	0.732	1	incongruent	Block1	incongruent/STIM_018.jpg
369.458	0.572	1	incongruent	Block1	incongruent/STIM_018.jpg
373.731	0.632	1	incongruent	Block1	incongruent/STIM_018.jpg
377.499	1.045	1	incongruent	Block1	incongruent/STIM_019.jpg
382.33	0.772	1	incongruent	Block1	incongruent/STIM_019.jpg
387.024	0.741	1	incongruent	Block1	incongruent/STIM_019.jpg
391.188	1.16	1	incongruent	Block1	incongruent/STIM_019.jpg
395.663	0.677	1	incongruent	Block1	incongruent/STIM_019.jpg
399.427	0.858	1	incongruent	Block1	incongruent/STIM_020.jpg
403.498	0.769	1	incongruent	Block1	incongruent/STIM_020.jpg
407.729	0.646	1	incongruent	Block1	incongruent/STIM_020.jpg
412.161	0.632	1	incongruent	Block1	incongruent/STIM_020.jpg
415.788	0.923	1	incongruent	Block1	incongruent/STIM_020.jpg
419.702	0.992	1	incongruent	Block1	incongruent/STIM_021.jpg
424.603	0.872	1	incongruent	Block1	incongruent/STIM_021.jpg
427.545	0.886	1	incongruent	Block1	incongruent/STIM_021.jpg
431.154	0.929	1	incongruent	Block1	incongruent/STIM_021.jpg
435.925	0.582	1	incongruent	Block1	incongruent/STIM_021.jpg
439.54	0.762	0	incongruent	Block1	incongruent/STIM_022.jpg
443.584	1.174	1	incongruent	Block1	incongruent/STIM_022.jpg
447.393	1.142	1	incongruent	Block1	incongruent/STIM_022.jpg
451.488	1.063	1	incongruent	Block1	incongruent/STIM_022.jpg
455.379	0.936	1	incongruent	Block1	incongruent/STIM_022.jpg
459.094	1.398	1	incongruent	Block1	incongruent/STIM_023.jpg
462.981	1.016	1	incongruent	Block1	incongruent/STIM_023.jpg
467.005	1.003	1	incongruent	Block1	incongruent/STIM_023.jpg
471.811	0.771	1	incongruent	Block1	incongruent/STIM_023.jpg
476.611	1.007	1	incongruent	Block1	incongruent/STIM_023.jpg
480.05	0.882	1	incongruent	Block1	incongruent/STIM_024.jpg
483.189	0.868	1	incongruent	Block1	incongruent/STIM_024.jpg
486.689	0.76	1	incongruent	Block1	incongruent/STIM_024.jpg
491.199	0.806	0	incongruent	Block1	incongruent/STIM_024.jpg
495.387	0.56	1	incongruent	Block1	incongruent/STIM_024.jpg
498.578	1.365	1	incongruent	Block1	incongruent/STIM_025.jpg
503.409	0.841	1	incongruent	Block1	incongruent/STIM_025.jpg
506.398	0.857	1	incongruent	Block1	incongruent/STIM_025.jpg
509.407	1.097	1	incongruent	Block1	incongruent/STIM_025.jpg
514.104	1.117	1	incongruent	Block1	incongruent/STIM_025.jpg
519.07	1.049	0	incongruent	Block1	incongruent/STIM_026.jpg
524.087	1.021	1	incongruent	Block1	incongruent/STIM_026.jpg
528.172	1.094	1	incongruent	Block1	incongruent/STIM_026.jpg
531.496	1.173	1	incongruent	Block1	incongruent/STIM_026.jpg
536.3	0.614	1	incongruent	Block1	incongruent/STIM_026.jpg
540.073	1.051	1	incongruent	Block1	incongruent/STIM_027.jpg
543.411	0.904	1	incongruent	Block1	incongruent/STIM_027.jpg
547.946	1.272	1	incongruent	Block1	incongruent/STIM_027.jpg
551.424	0.614	1	incongruent	Block1	incongruent/STIM_027.jpg
555.789	0.636	1	incongruent	Block1	incongruent/STIM_027.jpg
559.423	1.109	1	incongruent	Block1	incongruent/STIM_028.jpg
563.051	0.914	1	incongruent	Block1	incongruent/STIM_028.jpg
566.772	1.047	1	incongruent	Block1	incongruent/STIM_028.jpg
570.317	0.952	1	incongruent	Block1	incongruent/STIM_028.jpg
574.222	0.558	1	incongruent	Block1	incongruent/STIM_028.jpg
577.572	1.394	1	incongruent	Block1	incongruent/STIM_029.jpg
582.979	1.073	1	incongruent	Block1	incongruent/STIM_029.jpg
587.441	0.87	1	incongruent	Block1	incongruent/STIM_029.jpg
591.027	0.651	1	incongruent	Block1	incongruent/STIM_029.jpg
594.809	0.677	1	incongruent	Block1	incongruent/STIM_029.jpg
599.312	0.6	1	congruent	Block1	congruent/STIM_000.jpg
602.415	0.854	1	congruent	Block1	congruent/STIM_000.jpg
606.813	0.726	1	congruent	Block1	congruent/STIM_000.jpg
610.739	0.759	1	congruent	Block1	congruent/STIM_000.jpg
613.855	0.789	1	congruent	Block1	congruent/STIM_000.jpg
617.857	0.664	1	congruent	Block1	congruent/STIM_001.jpg
622.291	0.543	1	congruent	Block1	congruent/STIM_001.jpg
624.94	0.849	1	congruent	Block1	congruent/STIM_001.jpg
629.403	0.69	1	congruent	Block1	congruent/STIM_001.jpg
632.507	0.588	1	congruent	Block1	congruent/STIM_001.jpg
636.785	0.756	1	congruent	Block1	congruent/STIM_002.jpg
641.284	0.608	1	congruent	Block1	congruent/STIM_002.jpg
645.073	0.53	1	congruent	Block1	congruent/STIM_002.jpg
648.026	0.856	1	congruent	Block1	congruent/STIM_002.jpg
651.362	0.857	1	congruent	Block1	congruent/STIM_002.jpg
655.629	0.682	1	congruent	Block1	congruent/STIM_003.jpg
659.443	0.812	1	congruent	Block1	congruent/STIM_003.jpg
662.576	0.784	1	congruent	Block1	congruent/STIM_003.jpg
667.392	0.772	1	congruent	Block1	congruent/STIM_003.jpg
670.618	0.651	0	congruent	Block1	congruent/STIM_003.jpg
673.559	0.53	1	congruent	Block1	congruent/STIM_004.jpg
676.189	0.676	1	congruent	Block1	congruent/STIM_004.jpg
680.564	0.7	1	congruent	Block1	congruent/STIM_004.jpg
684.55	0.742	1	congruent	Block1	congruent/STIM_004.jpg
687.495	0.788	1	congruent	Block1	congruent/STIM_004.jpg
692.262	0.773	1	congruent	Block1	congruent/STIM_005.jpg
696.5	0.628	1	congruent	Block1	congruent/STIM_005.jpg
700.148	0.574	1	congruent	Block1	congruent/STIM_005.jpg
703.542	0.544	1	congruent	Block1	congruent/STIM_005.jpg
706.175	0.743	1	congruent	Block1	congruent/STIM_005.jpg
709.096	0.708	1	congruent	Block1	congruent/STIM_006.jpg
713.67	0.512	1	congruent	Block1	congruent/STIM_006.jpg
717.981	0.605	1	congruent	Block1	congruent/STIM_006.jpg
722.395	0.735	1	congruent	Block1	congruent/STIM_006.jpg
726.652	0.668	1	congruent	Block1	congruent/STIM_006.jpg
729.905	0.506	1	congruent	Block1	congruent/STIM_007.jpg
732.783	0.549	1	congruent	Block1	congruent/STIM_007.jpg
735.928	0.636	1	congruent	Block1	congruent/STIM_007.jpg
739.124	0.657	1	congruent	Block1	congruent/STIM_007.jpg
742.244	0.849	1	congruent	Block1	congruent/STIM_007.jpg
745.484	0.623	1	congruent	Block1	congruent/STIM_008.jpg
748.942	0.71	1	congruent	Block1	congruent/STIM_008.jpg
753.157	0.81	1	congruent	Block1	congruent/STIM_008.jpg
756.31	0.529	1	congruent	Block1	congruent/STIM_008.jpg
759.68	0.791	1	congruent	Block1	congruent/STIM_008.jpg
764.16	0.692	1	congruent	Block1	congruent/STIM_009.jpg
767.257	0.484	1	congruent	Block1	congruent/STIM_009.jpg
769.836	0.794	1	congruent	Block1	congruent/STIM_009.jpg
772.75	0.645	1	congruent	Block1	congruent/STIM_009.jpg
776.662	0.519	0	congruent	Block1	congruent/STIM_009.jpg
779.999	0.535	1	congruent	Block1	congruent/STIM_010.jpg
783.726	0.607	1	congruent	Block1	congruent/STIM_010.jpg
786.608	0.716	1	congruent	Block1	congruent/STIM_010.jpg
790.04	0.723	1	congruent	Block1	congruent/STIM_010.jpg
793.224	0.57	1	congruent	Block1	congruent/STIM_010.jpg
795.866	0.699	1	congruent	Block1	congruent/STIM_011.jpg
799.216	0.801	1	congruent	Block1	congruent/STIM_011.jpg
802.921	0.53	1	congruent	Block1	congruent/STIM_011.jpg
806.564	0.503	1	congruent	Block1	congruent/STIM_011.jpg
809.705	0.576	1	congruent	Block1	congruent/STIM_011.jpg
812.446	0.485	1	congruent	Block1	congruent/STIM_012.jpg
816.506	0.828	1	congruent	Block1	congruent/STIM_012.jpg
819.84	0.728	1	congruent	Block1	congruent/STIM_012.jpg
824.15	0.651	1	congruent	Block1	congruent/STIM_012.jpg
828.661	0.703	1	congruent	Block1	congruent/STIM_012.jpg
831.652	0.588	1	congruent	Block1	congruent/STIM_013.jpg
835.088	0.774	1	congruent	Block1	congruent/STIM_013.jpg
838.098	0.737	1	congruent	Block1	congruent/STIM_013.jpg
841.989	0.547	1	congruent	Block1	congruent/STIM_013.jpg
845.652	0.79	1	congruent	Block1	congruent/STIM_013.jpg
850.086	0.674	1	congruent	Block1	congruent/STIM_014.jpg
853.055	0.538	1	congruent	Block1	congruent/STIM_014.jpg
857.612	0.719	1	congruent	Block1	congruent/STIM_014.jpg
861.085	0.574	1	congruent	Block1	congruent/STIM_014.jpg
863.949	0.782	1	congruent	Block1	congruent/STIM_014.jpg
868.758	0.544	1	congruent	Block1	congruent/STIM_015.jpg
871.955	0.79	1	congruent	Block1	congruent/STIM_015.jpg
874.947	0.538	1	congruent	Block1	congruent/STIM_015.jpg
878.639	0.503	1	congruent	Block1	congruent/STIM_015.jpg
881.405	0.584	1	congruent	Block1	congruent/STIM_015.jpg
885.542	0.788	1	congruent	Block1	congruent/STIM_016.jpg
888.768	0.817	1	congruent	Block1	congruent/STIM_016.jpg
893.484	0.791	1	congruent	Block1	congruent/STIM_016.jpg
896.551	0.739	1	congruent	Block1	congruent/STIM_016.jpg
899.894	0.533	1	congruent	Block1	congruent/STIM_016.jpg
902.693	0.59	1	congruent	Block1	congruent/STIM_017.jpg
906.626	0.82	1	congruent	Block1	congruent/STIM_017.jpg
910.205	0.484	1	congruent	Block1	congruent/STIM_017.jpg
913.659	0.708	1	congruent	Block1	congruent/STIM_017.jpg
917.675	0.62	1	congruent	Block1	congruent/STIM_017.jpg
921.36	0.567	1	congruent	Block1	congruent/STIM_018.jpg
925.616	0.857	1	congruent	Block1	congruent/STIM_018.jpg
928.902	0.792	1	congruent	Block1	congruent/STIM_018.jpg
933.138	0.564	1	congruent	Block1	congruent/STIM_018.jpg
936.163	0.589	1	congruent	Block1	congruent/STIM_018.jpg
939.774	0.643	1	congruent	Block1	congruent/STIM_019.jpg
943.279	0.605	1	congruent	Block1	congruent/STIM_019.jpg
947.002	0.63	1	congruent	Block1	congruent/STIM_019.jpg
951.41	0.782	1	congruent	Block1	congruent/STIM_019.jpg
955.986	0.713	1	congruent	Block1	congruent/STIM_019.jpg
958.815	0.81	1	congruent	Block1	congruent/STIM_020.jpg
962.548	0.822	1	congruent	Block1	congruent/STIM_020.jpg
966.152	0.824	1	congruent	Block1	congruent/STIM_020.jpg
969.715	0.599	1	congruent	Block1	congruent/STIM_020.jpg
974.132	0.819	1	congruent	Block1	congruent/STIM_020.jpg
978.277	0.593	1	congruent	Block1	congruent/STIM_021.jpg
981.323	0.567	1	congruent	Block1	congruent/STIM_021.jpg
985.078	0.642	1	congruent	Block1	congruent/STIM_021.jpg
988.816	0.684	1	congruent	Block1	congruent/STIM_021.jpg
991.637	0.78	1	congruent	Block1	congruent/STIM_021.jpg
994.746	0.804	1	congruent	Block1	congruent/STIM_022.jpg
998.856	0.773	1	congruent	Block1	congruent/STIM_022.jpg
1002.062	0.753	1	congruent	Block1	congruent/STIM_022.jpg
1004.942	0.752	1	congruent	Block1	congruent/STIM_022.jpg
1009.095	0.801	1	congruent	Block1	congruent/STIM_022.jpg
1012.441	0.698	1	congruent	Block1	congruent/STIM_023.jpg
1015.505	0.495	1	congruent	Block1	congruent/STIM_023.jpg
1018.565	0.831	1	congruent	Block1	congruent/STIM_023.jpg
1022.057	0.613	1	congruent	Block1	congruent/STIM_023.jpg
1026.58	0.825	1	congruent	Block1	congruent/STIM_023.jpg
1030.913	0.631	1	congruent	Block1	congruent/STIM_024.jpg
1034.946	0.499	1	congruent	Block1	congruent/STIM_024.jpg
1037.812	0.541	0	congruent	Block1	congruent/STIM_024.jpg
1040.837	0.849	1	congruent	Block1	congruent/STIM_024.jpg
1044.696	0.625	1	congruent	Block1	congruent/STIM_024.jpg
1047.49	0.477	0	congruent	Block1	congruent/STIM_025.jpg
1050.073	0.664	1	congruent	Block1	congruent/STIM_025.jpg
1053.381	0.854	1	congruent	Block1	congruent/STIM_025.jpg
1056.835	0.602	1	congruent	Block1	congruent/STIM_025.jpg
1060.186	0.725	1	congruent	Block1	congruent/STIM_025.jpg
1063.695	0.645	1	congruent	Block1	congruent/STIM_026.jpg
1067.109	0.72	1	congruent	Block1	congruent/STIM_026.jpg
1071.14	0.592	1	congruent	Block1	congruent/STIM_026.jpg
1074.327	0.828	1	congruent	Block1	congruent/STIM_026.jpg
1077.743	0.777	1	congruent	Block1	congruent/STIM_026.jpg
1081.919	0.812	1	congruent	Block1	congruent/STIM_027.jpg
1085.816	0.674	1	congruent	Block1	congruent/STIM_027.jpg
1090.385	0.573	1	congruent	Block1	congruent/STIM_027.jpg
1094.238	0.78	1	congruent	Block1	congruent/STIM_027.jpg
1099.053	0.492	1	congruent	Block1	congruent/STIM_027.jpg
1102.34	0.633	1	congruent	Block1	congruent/STIM_028.jpg
1106.666	0.595	1	congruent	Block1	congruent/STIM_028.jpg
1110.748	0.567	1	congruent	Block1	congruent/STIM_028.jpg
1115.204	0.72	1	congruent	Block1	congruent/STIM_028.jpg
1118.73	0.678	1	congruent	Block1	congruent/STIM_028.jpg
1123.103	0.624	1	congruent	Block1	congruent/STIM_029.jpg
1127.727	0.763	1	congruent	Block1	congruent/STIM_029.jpg
1131.878	0.762	1	congruent	Block1	congruent/STIM_029.jpg
1134.999	0.516	1	congruent	Block1	congruent/STIM_029.jpg
1138.643	0.838	1	congruent	Block1	congruent/STIM_029.jpg
1142.655	0.983	1	incongruent	Block2	incongruent/STIM_000.jpg
1147.05	0.838	1	incongruent	Block2	incongruent/STIM_000.jpg
1150.838	0.637	1	incongruent	Block2	incongruent/STIM_000.jpg
1154.879	1.0	1	incongruent	Block2	incongruent/STIM_000.jpg
1159.474	0.61	1	incongruent	Block2	incongruent/STIM_000.jpg
1163.905	0.784	1	incongruent	Block2	incongruent/STIM_001.jpg
1167.102	0.68	1	incongruent	Block2	incongruent/STIM_001.jpg
1170.417	0.78	1	incongruent	Block2	incongruent/STIM_001.jpg
1174.419	0.577	1	incongruent	Block2	incongruent/STIM_001.jpg
1177.204	0.754	1	incongruent	Block2	incongruent/STIM_001.jpg
1180.242	0.889	1	incongruent	Block2	incongruent/STIM_002.jpg
1183.467	0.626	1	incongruent	Block2	incongruent/STIM_002.jpg
1187.594	0.596	1	incongruent	Block2	incongruent/STIM_002.jpg
1190.994	0.923	1	incongruent	Block2	incongruent/STIM_002.jpg
1194.906	0.577	1	incongruent	Block2	incongruent/STIM_002.jpg
1199.473	1.189	1	incongruent	Block2	incongruent/STIM_003.jpg
1203.137	0.829	1	incongruent	Block2	incongruent/STIM_003.jpg
1207.332	0.788	1	incongruent	Block2	incongruent/STIM_003.jpg
1210.215	0.67	1	incongruent	Block2	incongruent/STIM_003.jpg
1212.96	0.707	1	incongruent	Block2	incongruent/STIM_003.jpg
1216.013	0.947	1	incongruent	Block2	incongruent/STIM_004.jpg
1220.175	0.878	1	incongruent	Block2	incongruent/STIM_004.jpg
1223.463	1.04	1	incongruent	Block2	incongruent/STIM_004.jpg
1227.502	0.734	1	incongruent	Block2	incongruent/STIM_004.jpg
1231.034	0.933	1	incongruent	Block2	incongruent/STIM_004.jpg
1234.609	0.736	1	incongruent	Block2	incongruent/STIM_005.jpg
1237.743	1.069	1	incongruent	Block2	incongruent/STIM_005.jpg
1241.745	0.903	0	incongruent	Block2	incongruent/STIM_005.jpg
1245.327	0.532	1	incongruent	Block2	incongruent/STIM_005.jpg
1249.123	0.615	1	incongruent	Block2	incongruent/STIM_005.jpg
1252.73	1.051	1	incongruent	Block2	incongruent/STIM_006.jpg
1256.197	0.732	1	incongruent	Block2	incongruent/STIM_006.jpg
1260.887	1.037	1	incongruent	Block2	incongruent/STIM_006.jpg
1264.675	0.632	1	incongruent	Block2	incongruent/STIM_006.jpg
1267.407	0.513	1	incongruent	Block2	incongruent/STIM_006.jpg
1270.969	1.105	1	incongruent	Block2	incongruent/STIM_007.jpg
1275.805	0.807	1	incongruent	Block2	incongruent/STIM_007.jpg
1279.771	0.753	1	incongruent	Block2	incongruent/STIM_007.jpg
1284.509	0.843	1	incongruent	Block2	incongruent/STIM_007.jpg
1287.509	0.47	1	incongruent	Block2	incongruent/STIM_007.jpg
1291.892	0.917	1	incongruent	Block2	incongruent/STIM_008.jpg
1295.9	0.535	1	incongruent	Block2	incongruent/STIM_008.jpg
1299.412	0.567	1	incongruent	Block2	incongruent/STIM_008.jpg
1303.144	0.984	1	incongruent	Block2	incongruent/STIM_008.jpg
1307.915	0.607	1	incongruent	Block2	incongruent/STIM_008.jpg
1311.862	0.573	1	incongruent	Block2	incongruent/STIM_009.jpg
1315.441	0.864	1	incongruent	Block2	incongruent/STIM_009.jpg
1320.223	0.532	1	incongruent	Block2	incongruent/STIM_009.jpg
1323.532	0.783	1	incongruent	Block2	incongruent/STIM_009.jpg
1327.309	0.612	1	incongruent	Block2	incongruent/STIM_009.jpg
1330.231	1.077	1	incongruent	Block2	incongruent/STIM_010.jpg
1333.837	0.923	1	incongruent	Block2	incongruent/STIM_010.jpg
1338.067	0.91	1	incongruent	Block2	incongruent/STIM_010.jpg
1341.952	0.716	1	incongruent	Block2	incongruent/STIM_010.jpg
1346.186	0.804	1	incongruent	Block2	incongruent/STIM_010.jpg
1349.718	0.908	0	incongruent	Block2	incongruent/STIM_011.jpg
1354.595	0.828	1	incongruent	Block2	incongruent/STIM_011.jpg
1357.498	0.989	1	incongruent	Block2	incongruent/STIM_011.jpg
1361.908	0.695	0	incongruent	Block2	incongruent/STIM_011.jpg
1366.29	0.895	1	incongruent	Block2	incongruent/STIM_011.jpg
1370.359	1.194	1	incongruent	Block2	incongruent/STIM_012.jpg
1374.697	1.043	1	incongruent	Block2	incongruent/STIM_012.jpg
1378.826	0.86	1	incongruent	Block2	incongruent/STIM_012.jpg
1382.068	0.655	1	incongruent	Block2	incongruent/STIM_012.jpg
1386.354	0.821	1	incongruent	Block2	incongruent/STIM_012.jpg
1390.32	0.834	1	incongruent	Block2	incongruent/STIM_013.jpg
1394.092	0.904	1	incongruent	Block2	incongruent/STIM_013.jpg
1397.159	0.554	0	incongruent	Block2	incongruent/STIM_013.jpg
1400.785	0.62	1	incongruent	Block2	incongruent/STIM_013.jpg
1405.152	0.575	1	incongruent	Block2	incongruent/STIM_013.jpg
1409.298	0.942	1	incongruent	Block2	incongruent/STIM_014.jpg
1413.655	1.05	1	incongruent	Block2	incongruent/STIM_014.jpg
1418.645	0.791	1	incongruent	Block2	incongruent/STIM_014.jpg
1422.045	0.53	1	incongruent	Block2	incongruent/STIM_014.jpg
1425.207	0.937	1	incongruent	Block2	incongruent/STIM_014.jpg
1429.007	0.836	1	incongruent	Block2	incongruent/STIM_015.jpg
1432.156	0.865	1	incongruent	Block2	incongruent/STIM_015.jpg
1436.729	0.855	1	incongruent	Block2	incongruent/STIM_015.jpg
1441.294	0.533	1	incongruent	Block2	incongruent/STIM_015.jpg
1444.899	0.681	1	incongruent	Block2	incongruent/STIM_015.jpg
1449.531	0.865	1	incongruent	Block2	incongruent/STIM_016.jpg
1453.251	0.993	1	incongruent	Block2	incongruent/STIM_016.jpg
1457.818	0.847	1	incongruent	Block2	incongruent/STIM_016.jpg
1460.821	0.583	1	incongruent	Block2	incongruent/STIM_016.jpg
1465.188	0.596	1	incongruent	Block2	incongruent/STIM_016.jpg
1468.217	1.089	1	incongruent	Block2	incongruent/STIM_017.jpg
1472.549	1.102	0	incongruent	Block2	incongruent/STIM_017.jpg
1476.463	0.61	1	incongruent	Block2	incongruent/STIM_017.jpg
1480.76	0.75	1	incongruent	Block2	incongruent/STIM_017.jpg
1484.188	0.722	1	incongruent	Block2	incongruent/STIM_017.jpg
1487.519	0.713	1	incongruent	Block2	incongruent/STIM_018.jpg
1490.702	0.854	1	incongruent	Block2	incongruent/STIM_018.jpg
1493.902	0.981	1	incongruent	Block2	incongruent/STIM_018.jpg
1498.679	0.537	1	incongruent	Block2	incongruent/STIM_018.jpg
1501.953	0.95	1	incongruent	Block2	incongruent/STIM_018.jpg
1506.542	0.733	1	incongruent	Block2	incongruent/STIM_019.jpg
1509.395	1.036	1	incongruent	Block2	incongruent/STIM_019.jpg
1513.025	0.819	1	incongruent	Block2	incongruent/STIM_019.jpg
1516.509	0.776	1	incongruent	Block2	incongruent/STIM_019.jpg
1519.913	0.846	1	incongruent	Block2	incongruent/STIM_019.jpg
1524.227	0.697	1	incongruent	Block2	incongruent/STIM_020.jpg
1527.501	0.907	1	incongruent	Block2	incongruent/STIM_020.jpg
1531.977	0.64	1	incongruent	Block2	incongruent/STIM_020.jpg
1535.777	0.777	1	incongruent	Block2	incongruent/STIM_020.jpg
1540.066	0.89	1	incongruent	Block2	incongruent/STIM_020.jpg
1544.631	0.9	1	incongruent	Block2	incongruent/STIM_021.jpg
1549.19	0.905	1	incongruent	Block2	incongruent/STIM_021.jpg
1552.948	0.684	1	incongruent	Block2	incongruent/STIM_021.jpg
1557.428	0.846	1	incongruent	Block2	incongruent/STIM_021.jpg
1562.052	0.987	1	incongruent	Block2	incongruent/STIM_021.jpg
1565.147	0.822	1	incongruent	Block2	incongruent/STIM_022.jpg
1569.613	0.757	1	incongruent	Block2	incongruent/STIM_022.jpg
1574.241	1.072	1	incongruent	Block2	incongruent/STIM_022.jpg
1577.761	0.722	1	incongruent	Block2	incongruent/STIM_022.jpg
1581.592	0.888	1	incongruent	Block2	incongruent/STIM_022.jpg
1586.47	0.628	1	incongruent	Block2	incongruent/STIM_023.jpg
1589.96	0.927	1	incongruent	Block2	incongruent/STIM_023.jpg
1592.936	0.896	1	incongruent	Block2	incongruent/STIM_023.jpg
1596.657	0.651	1	incongruent	Block2	incongruent/STIM_023.jpg
1600.593	0.887	1	incongruent	Block2	incongruent/STIM_023.jpg
1605.441	0.997	1	incongruent	Block2	incongruent/STIM_024.jpg
1608.577	1.099	1	incongruent	Block2	incongruent/STIM_024.jpg
1611.859	0.849	1	incongruent	Block2	incongruent/STIM_024.jpg
1616.168	0.647	1	incongruent	Block2	incongruent/STIM_024.jpg
1620.157	0.474	1	incongruent	Block2	incongruent/STIM_024.jpg
1623.739	0.589	1	incongruent	Block2	incongruent/STIM_025.jpg
1628.053	0.752	0	incongruent	Block2	incongruent/STIM_025.jpg
1632.293	0.618	1	incongruent	Block2	incongruent/STIM_025.jpg
1635.849	0.579	1	incongruent	Block2	incongruent/STIM_025.jpg
1640.187	0.766	1	incongruent	Block2	incongruent/STIM_025.jpg
1643.08	0.61	1	incongruent	Block2	incongruent/STIM_026.jpg
1647.405	0.741	1	incongruent	Block2	incongruent/STIM_026.jpg
1651.897	0.905	1	incongruent	Block2	incongruent/STIM_026.jpg
1656.223	0.866	1	incongruent	Block2	incongruent/STIM_026.jpg
1660.369	0.528	1	incongruent	Block2	incongruent/STIM_026.jpg
1663.583	0.82	1	incongruent	Block2	incongruent/STIM_027.jpg
1666.928	0.537	1	incongruent	Block2	incongruent/STIM_027.jpg
1670.789	0.731	1	incongruent	Block2	incongruent/STIM_027.jpg
1673.668	0.614	1	incongruent	Block2	incongruent/STIM_027.jpg
1677.704	0.503	1	incongruent	Block2	incongruent/STIM_027.jpg
1681.681	1.128	1	incongruent	Block2	incongruent/STIM_028.jpg
1685.347	0.863	1	incongruent	Block2	incongruent/STIM_028.jpg
1689.094	0.776	1	incongruent	Block2	incongruent/STIM_028.jpg
1692.838	0.488	1	incongruent	Block2	incongruent/STIM_028.jpg
1697.218	0.935	1	incongruent	Block2	incongruent/STIM_028.jpg
1701.576	0.785	1	incongruent	Block2	incongruent/STIM_029.jpg
1705.73	1.082	1	incongruent	Block2	incongruent/STIM_029.jpg
1710.012	0.686	1	incongruent	Block2	incongruent/STIM_029.jpg
1713.072	0.776	1	incongruent	Block2	incongruent/STIM_029.jpg
1715.957	0.499	1	incongruent	Block2	incongruent/STIM_029.jpg
1720.464	0.522	1	congruent	Block2	congruent/STIM_000.jpg
1723.99	0.576	1	congruent	Block2	congruent/STIM_000.jpg
1727.39	0.809	1	congruent	Block2	congruent/STIM_000.jpg
1731.415	0.729	1	congruent	Block2	congruent/STIM_000.jpg
1734.881	0.503	1	congruent	Block2	congruent/STIM_000.jpg
1738.541	0.742	1	congruent	Block2	congruent/STIM_001.jpg
1742.645	0.619	1	congruent	Block2	congruent/STIM_001.jpg
1745.684	0.555	0	congruent	Block2	congruent/STIM_001.jpg
1749.125	0.743	1	congruent	Block2	congruent/STIM_001.jpg
1753.114	0.561	1	congruent	Block2	congruent/STIM_001.jpg
1755.815	0.646	1	congruent	Block2	congruent/STIM_002.jpg
1759.591	0.834	1	congruent	Block2	congruent/STIM_002.jpg
1762.839	0.785	1	congruent	Block2	congruent/STIM_002.jpg
1766.987	0.749	0	congruent	Block2	congruent/STIM_002.jpg
1771.267	0.546	1	congruent	Block2	congruent/STIM_002.jpg
1775.508	0.805	1	congruent	Block2	congruent/STIM_003.jpg
1778.561	0.855	1	congruent	Block2	congruent/STIM_003.jpg
1782.381	0.653	1	congruent	Block2	congruent/STIM_003.jpg
1786.423	0.7	1	congruent	Block2	congruent/STIM_003.jpg
1789.64	0.803	1	congruent	Block2	congruent/STIM_003.jpg
1792.893	0.681	1	congruent	Block2	congruent/STIM_004.jpg
1795.72	0.517	1	congruent	Block2	congruent/STIM_004.jpg
1798.965	0.768	1	congruent	Block2	congruent/STIM_004.jpg
1802.27	0.817	1	congruent	Block2	congruent/STIM_004.jpg
1806.723	0.503	1	congruent	Block2	congruent/STIM_004.jpg
1810.682	0.692	1	congruent	Block2	congruent/STIM_005.jpg
1814.648	0.828	1	congruent	Block2	congruent/STIM_005.jpg
1817.99	0.706	1	congruent	Block2	congruent/STIM_005.jpg
1821.925	0.731	1	congruent	Block2	congruent/STIM_005.jpg
1825.297	0.819	1	congruent	Block2	congruent/STIM_005.jpg
1828.758	0.839	1	congruent	Block2	congruent/STIM_006.jpg
1833.26	0.644	1	congruent	Block2	congruent/STIM_006.jpg
1837.588	0.632	1	congruent	Block2	congruent/STIM_006.jpg
1842.042	0.673	1	congruent	Block2	congruent/STIM_006.jpg
1845.433	0.8	1	congruent	Block2	congruent/STIM_006.jpg
1848.81	0.637	1	congruent	Block2	congruent/STIM_007.jpg
1852.753	0.799	1	congruent	Block2	congruent/STIM_007.jpg
1857.522	0.499	0	congruent	Block2	congruent/STIM_007.jpg
1861.709	0.768	1	congruent	Block2	congruent/STIM_007.jpg
1865.506	0.744	1	congruent	Block2	congruent/STIM_007.jpg
1869.595	0.627	0	congruent	Block2	congruent/STIM_008.jpg
1872.354	0.809	1	congruent	Block2	congruent/STIM_008.jpg
1875.367	0.755	1	congruent	Block2	congruent/STIM_008.jpg
1878.172	0.54	1	congruent	Block2	congruent/STIM_008.jpg
1880.897	0.85	1	congruent	Block2	congruent/STIM_008.jpg
1884.763	0.493	1	congruent	Block2	congruent/STIM_009.jpg
1887.862	0.786	1	congruent	Block2	congruent/STIM_009.jpg
1891.949	0.728	1	congruent	Block2	congruent/STIM_009.jpg
1896.415	0.798	1	congruent	Block2	congruent/STIM_009.jpg
1899.792	0.599	1	congruent	Block2	congruent/STIM_009.jpg
1902.639	0.841	1	congruent	Block2	congruent/STIM_010.jpg
1906.525	0.81	1	congruent	Block2	congruent/STIM_010.jpg
1911.015	0.79	1	congruent	Block2	congruent/STIM_010.jpg
1915.598	0.651	1	congruent	Block2	congruent/STIM_010.jpg
1919.769	0.722	1	congruent	Block2	congruent/STIM_010.jpg
1922.628	0.559	1	congruent	Block2	congruent/STIM_011.jpg
1925.303	0.849	0	congruent	Block2	congruent/STIM_011.jpg
1929.4	0.784	1	congruent	Block2	congruent/STIM_011.jpg
1933.33	0.618	1	congruent	Block2	congruent/STIM_011.jpg
1937.418	0.837	1	congruent	Block2	congruent/STIM_011.jpg
1941.639	0.516	1	congruent	Block2	congruent/STIM_012.jpg
1944.785	0.706	1	congruent	Block2	congruent/STIM_012.jpg
1948.037	0.487	1	congruent	Block2	congruent/STIM_012.jpg
1950.805	0.639	1	congruent	Block2	congruent/STIM_012.jpg
1954.426	0.578	1	congruent	Block2	congruent/STIM_012.jpg
1957.831	0.701	0	congruent	Block2	congruent/STIM_013.jpg
1961.845	0.746	1	congruent	Block2	congruent/STIM_013.jpg
1964.843	0.586	1	congruent	Block2	congruent/STIM_013.jpg
1968.772	0.703	1	congruent	Block2	congruent/STIM_013.jpg
1972.986	0.78	1	congruent	Block2	congruent/STIM_013.jpg
1977.541	0.788	1	congruent	Block2	congruent/STIM_014.jpg
1980.789	0.695	1	congruent	Block2	congruent/STIM_014.jpg
1984.348	0.845	1	congruent	Block2	congruent/STIM_014.jpg
1987.854	0.724	1	congruent	Block2	congruent/STIM_014.jpg
1991.56	0.834	1	congruent	Block2	congruent/STIM_014.jpg
1995.59	0.531	1	congruent	Block2	congruent/STIM_015.jpg
1999.762	0.829	1	congruent	Block2	congruent/STIM_015.jpg
2002.74	0.585	1	congruent	Block2	congruent/STIM_015.jpg
2006.615	0.792	1	congruent	Block2	congruent/STIM_015.jpg
2010.613	0.489	1	congruent	Block2	congruent/STIM_015.jpg
2013.747	0.547	1	congruent	Block2	congruent/STIM_016.jpg
2016.434	0.641	1	congruent	Block2	congruent/STIM_016.jpg
2019.894	0.534	1	congruent	Block2	congruent/STIM_016.jpg
2024.453	0.858	1	congruent	Block2	congruent/STIM_016.jpg
2029.274	0.847	1	congruent	Block2	congruent/STIM_016.jpg
2032.485	0.806	1	congruent	Block2	congruent/STIM_017.jpg
2036.17	0.67	1	congruent	Block2	congruent/STIM_017.jpg
2039.048	0.746	1	congruent	Block2	congruent/STIM_017.jpg
2042.16	0.833	1	congruent	Block2	congruent/STIM_017.jpg
2046.301	0.651	1	congruent	Block2	congruent/STIM_017.jpg
2050.744	0.592	1	congruent	Block2	congruent/STIM_018.jpg
2054.722	0.792	1	congruent	Block2	congruent/STIM_018.jpg
2058.885	0.858	1	congruent	Block2	congruent/STIM_018.jpg
2062.679	0.488	1	congruent	Block2	congruent/STIM_018.jpg
2066.689	0.808	1	congruent	Block2	congruent/STIM_018.jpg
2071.391	0.757	1	congruent	Block2	congruent/STIM_019.jpg
2074.617	0.638	0	congruent	Block2	congruent/STIM_019.jpg
2078.895	0.822	1	congruent	Block2	congruent/STIM_019.jpg
2082.263	0.492	1	congruent	Block2	congruent/STIM_019.jpg
2086.139	0.532	1	congruent	Block2	congruent/STIM_019.jpg
2089.569	0.512	1	congruent	Block2	congruent/STIM_020.jpg
2093.209	0.533	1	congruent	Block2	congruent/STIM_020.jpg
2097.643	0.548	1	congruent	Block2	congruent/STIM_020.jpg
2102.037	0.618	1	congruent	Block2	congruent/STIM_020.jpg
2104.931	0.525	1	congruent	Block2	congruent/STIM_020.jpg
2108.809	0.587	1	congruent	Block2	congruent/STIM_021.jpg
2112.538	0.542	1	congruent	Block2	congruent/STIM_021.jpg
2116.532	0.698	1	congruent	Block2	congruent/STIM_021.jpg
2120.269	0.763	1	congruent	Block2	congruent/STIM_021.jpg
2124.537	0.731	0	congruent	Block2	congruent/STIM_021.jpg
2127.943	0.62	1	congruent	Block2	congruent/STIM_022.jpg
2130.901	0.519	1	congruent	Block2	congruent/STIM_022.jpg
2135.273	0.782	0	congruent	Block2	congruent/STIM_022.jpg
2138.912	0.563	1	congruent	Block2	congruent/STIM_022.jpg
2141.546	0.515	1	congruent	Block2	congruent/STIM_022.jpg
2144.426	0.834	1	congruent	Block2	congruent/STIM_023.jpg
2148.704	0.605	1	congruent	Block2	congruent/STIM_023.jpg
2153.106	0.699	1	congruent	Block2	congruent/STIM_023.jpg
2157.764	0.843	1	congruent	Block2	congruent/STIM_023.jpg
2161.572	0.668	1	congruent	Block2	congruent/STIM_023.jpg
2164.798	0.757	1	congruent	Block2	congruent/STIM_024.jpg
2169.556	0.836	1	congruent	Block2	congruent/STIM_024.jpg
2173.598	0.71	1	congruent	Block2	congruent/STIM_024.jpg
2177.709	0.542	1	congruent	Block2	congruent/STIM_024.jpg
2181.277	0.784	1	congruent	Block2	congruent/STIM_024.jpg
2184.49	0.616	1	congruent	Block2	congruent/STIM_025.jpg
2187.476	0.642	1	congruent	Block2	congruent/STIM_025.jpg
2190.793	0.603	1	congruent	Block2	congruent/STIM_025.jpg
2194.482	0.755	0	congruent	Block2	congruent/STIM_025.jpg
2197.895	0.762	1	congruent	Block2	congruent/STIM_025.jpg
2202.36	0.498	1	congruent	Block2	congruent/STIM_026.jpg
2205.861	0.732	1	congruent	Block2	congruent/STIM_026.jpg
2210.318	0.819	1	congruent	Block2	congruent/STIM_026.jpg
2214.54	0.646	1	congruent	Block2	congruent/STIM_026.jpg
2219.131	0.556	1	congruent	Block2	congruent/STIM_026.jpg
2223.024	0.522	1	congruent	Block2	congruent/STIM_027.jpg
2227.14	0.745	1	congruent	Block2	congruent/STIM_027.jpg
2231.777	0.836	1	congruent	Block2	congruent/STIM_027.jpg
2234.829	0.732	1	congruent	Block2	congruent/STIM_027.jpg
2237.733	0.755	1	congruent	Block2	congruent/STIM_027.jpg
2241.895	0.5	1	congruent	Block2	congruent/STIM_028.jpg
2246.209	0.856	0	congruent	Block2	congruent/STIM_028.jpg
2249.666	0.634	1	congruent	Block2	congruent/STIM_028.jpg
2254.187	0.725	1	congruent	Block2	congruent/STIM_028.jpg
2257.89	0.515	1	congruent	Block2	congruent/STIM_028.jpg
2260.854	0.757	1	congruent	Block2	congruent/STIM_029.jpg
2265.468	0.8	1	congruent	Block2	congruent/STIM_029.jpg
2269.383	0.502	1	congruent	Block2	congruent/STIM_029.jpg
2273.73	0.732	1	congruent	Block2	congruent/STIM_029.jpg
2277.928	0.676	1	congruent	Block2	congruent/STIM_029.jpg
2280.79	0.573	1	incongruent	Block3	incongruent/STIM_000.jpg
2284.335	0.836	1	incongruent	Block3	incongruent/STIM_000.jpg
2288.462	0.73	1	incongruent	Block3	incongruent/STIM_000.jpg
2292.917	0.739	1	incongruent	Block3	incongruent/STIM_000.jpg
2297.048	0.764	1	incongruent	Block3	incongruent/STIM_000.jpg
2300.273	0.62	1	incongruent	Block3	incongruent/STIM_001.jpg
2303.855	0.835	1	incongruent	Block3	incongruent/STIM_001.jpg
2306.964	0.784	1	incongruent	Block3	incongruent/STIM_001.jpg
2310.557	0.506	1	incongruent	Block3	incongruent/STIM_001.jpg
2314.933	0.696	1	incongruent	Block3	incongruent/STIM_001.jpg
2319.2	0.846	1	incongruent	Block3	incongruent/STIM_002.jpg
2322.487	0.919	1	incongruent	Block3	incongruent/STIM_002.jpg
2327.365	0.661	1	incongruent	Block3	incongruent/STIM_002.jpg
2330.199	0.491	1	incongruent	Block3	incongruent/STIM_002.jpg
2333.029	0.68	1	incongruent	Block3	incongruent/STIM_002.jpg
2336.801	0.553	1	incongruent	Block3	incongruent/STIM_003.jpg
2340.256	0.83	1	incongruent	Block3	incongruent/STIM_003.jpg
2343.168	0.744	1	incongruent	Block3	incongruent/STIM_003.jpg
2346.279	0.6	1	incongruent	Block3	incongruent/STIM_003.jpg
2350.195	0.77	1	incongruent	Block3	incongruent/STIM_003.jpg
2353.405	0.508	1	incongruent	Block3	incongruent/STIM_004.jpg
2356.661	0.792	1	incongruent	Block3	incongruent/STIM_004.jpg
2360.452	0.748	1	incongruent	Block3	incongruent/STIM_004.jpg
2364.726	0.956	1	incongruent	Block3	incongruent/STIM_004.jpg
2368.111	0.483	1	incongruent	Block3	incongruent/STIM_004.jpg
2372.092	0.581	1	incongruent	Block3	incongruent/STIM_005.jpg
2375.276	0.862	1	incongruent	Block3	incongruent/STIM_005.jpg
2378.812	0.622	0	incongruent	Block3	incongruent/STIM_005.jpg
2381.874	0.522	1	incongruent	Block3	incongruent/STIM_005.jpg
2386.335	0.791	1	incongruent	Block3	incongruent/STIM_005.jpg
2389.47	0.548	1	incongruent	Block3	incongruent/STIM_006.jpg
2393.482	0.667	1	incongruent	Block3	incongruent/STIM_006.jpg
2397.54	0.578	1	incongruent	Block3	incongruent/STIM_006.jpg
2402.121	0.642	1	incongruent	Block3	incongruent/STIM_006.jpg
2405.165	0.603	1	incongruent	Block3	incongruent/STIM_006.jpg
2408.156	0.85	1	incongruent	Block3	incongruent/STIM_007.jpg
2411.536	0.778	1	incongruent	Block3	incongruent/STIM_007.jpg
2415.905	0.883	1	incongruent	Block3	incongruent/STIM_007.jpg
2419.34	0.732	1	incongruent	Block3	incongruent/STIM_007.jpg
2423.692	0.99	1	incongruent	Block3	incongruent/STIM_007.jpg
2428.557	0.834	1	incongruent	Block3	incongruent/STIM_008.jpg
2432.828	0.851	1	incongruent	Block3	incongruent/STIM_008.jpg
2437.637	0.714	1	incongruent	Block3	incongruent/STIM_008.jpg
2440.747	0.78	1	incongruent	Block3	incongruent/STIM_008.jpg
2443.643	0.519	1	incongruent	Block3	incongruent/STIM_008.jpg
2447.59	0.862	1	incongruent	Block3	incongruent/STIM_009.jpg
2450.77	0.899	1	incongruent	Block3	incongruent/STIM_009.jpg
2455.618	0.844	1	incongruent	Block3	incongruent/STIM_009.jpg
2458.755	0.82	1	incongruent	Block3	incongruent/STIM_009.jpg
2461.978	0.96	1	incongruent	Block3	incongruent/STIM_009.jpg
2465.588	0.496	1	incongruent	Block3	incongruent/STIM_010.jpg
2468.663	0.652	1	incongruent	Block3	incongruent/STIM_010.jpg
2472.203	0.49	1	incongruent	Block3	incongruent/STIM_010.jpg
2476.6	0.572	1	incongruent	Block3	incongruent/STIM_010.jpg
2480.735	0.491	1	incongruent	Block3	incongruent/STIM_010.jpg
2483.408	0.648	1	incongruent	Block3	incongruent/STIM_011.jpg
2487.671	0.766	1	incongruent	Block3	incongruent/STIM_011.jpg
2492.358	0.722	1	incongruent	Block3	incongruent/STIM_011.jpg
2496.102	0.92	1	incongruent	Block3	incongruent/STIM_011.jpg
2500.761	0.505	1	incongruent	Block3	incongruent/STIM_011.jpg
2505.231	0.921	1	incongruent	Block3	incongruent/STIM_012.jpg
2508.983	0.743	1	incongruent	Block3	incongruent/STIM_012.jpg
2513.527	0.671	1	incongruent	Block3	incongruent/STIM_012.jpg
2516.486	0.578	1	incongruent	Block3	incongruent/STIM_012.jpg
2520.268	0.511	1	incongruent	Block3	incongruent/STIM_012.jpg
2523.316	0.829	0	incongruent	Block3	incongruent/STIM_013.jpg
2527.649	0.733	1	incongruent	Block3	incongruent/STIM_013.jpg
2531.707	0.732	1	incongruent	Block3	incongruent/STIM_013.jpg
2535.411	0.59	1	incongruent	Block3	incongruent/STIM_013.jpg
2538.743	0.671	1	incongruent	Block3	incongruent/STIM_013.jpg
2543.399	0.801	1	incongruent	Block3	incongruent/STIM_014.jpg
2547.549	0.647	1	incongruent	Block3	incongruent/STIM_014.jpg
2551.367	0.554	1	incongruent	Block3	incongruent/STIM_014.jpg
2555.592	0.831	1	incongruent	Block3	incongruent/STIM_014.jpg
2560.234	0.747	1	incongruent	Block3	incongruent/STIM_014.jpg
2564.711	0.963	1	incongruent	Block3	incongruent/STIM_015.jpg
2569.403	0.936	1	incongruent	Block3	incongruent/STIM_015.jpg
2573.849	0.641	1	incongruent	Block3	incongruent/STIM_015.jpg
2578.471	0.618	1	incongruent	Block3	incongruent/STIM_015.jpg
2581.996	0.769	1	incongruent	Block3	incongruent/STIM_015.jpg
2584.885	0.533	1	incongruent	Block3	incongruent/STIM_016.jpg
2588.562	0.907	1	incongruent	Block3	incongruent/STIM_016.jpg
2593.3	0.826	1	incongruent	Block3	incongruent/STIM_016.jpg
2597.011	0.961	1	incongruent	Block3	incongruent/STIM_016.jpg
2601.629	0.76	1	incongruent	Block3	incongruent/STIM_016.jpg
2604.7	0.496	1	incongruent	Block3	incongruent/STIM_017.jpg
2607.955	0.927	1	incongruent	Block3	incongruent/STIM_017.jpg
2611.841	0.52	1	incongruent	Block3	incongruent/STIM_017.jpg
2614.429	0.856	1	incongruent	Block3	incongruent/STIM_017.jpg
2618.193	0.906	1	incongruent	Block3	incongruent/STIM_017.jpg
2621.393	0.511	1	incongruent	Block3	incongruent/STIM_018.jpg
2625.455	0.921	1	incongruent	Block3	incongruent/STIM_018.jpg
2629.98	0.707	1	incongruent	Block3	incongruent/STIM_018.jpg
2634.417	0.693	1	incongruent	Block3	incongruent/STIM_018.jpg
2637.887	0.648	1	incongruent	Block3	incongruent/STIM_018.jpg
2641.975	0.918	1	incongruent	Block3	incongruent/STIM_019.jpg
2645.087	0.665	1	incongruent	Block3	incongruent/STIM_019.jpg
2647.841	0.892	1	incongruent	Block3	incongruent/STIM_019.jpg
2652.436	0.8	1	incongruent	Block3	incongruent/STIM_019.jpg
2655.391	0.806	1	incongruent	Block3	incongruent/STIM_019.jpg
2660.065	0.927	1	incongruent	Block3	incongruent/STIM_020.jpg
2663.302	0.723	1	incongruent	Block3	incongruent/STIM_020.jpg
2666.574	0.626	1	incongruent	Block3	incongruent/STIM_020.jpg
2669.408	0.937	1	incongruent	Block3	incongruent/STIM_020.jpg
2673.001	0.517	1	incongruent	Block3	incongruent/STIM_020.jpg
2676.479	0.832	1	incongruent	Block3	incongruent/STIM_021.jpg
2680.224	0.491	1	incongruent	Block3	incongruent/STIM_021.jpg
2683.935	0.995	1	incongruent	Block3	incongruent/STIM_021.jpg
2687.747	0.636	1	incongruent	Block3	incongruent/STIM_021.jpg
2691.664	0.533	1	incongruent	Block3	incongruent/STIM_021.jpg
2695.245	0.993	1	incongruent	Block3	incongruent/STIM_022.jpg
2699.804	0.797	1	incongruent	Block3	incongruent/STIM_022.jpg
2704.336	0.586	1	incongruent	Block3	incongruent/STIM_022.jpg
2708.444	0.626	1	incongruent	Block3	incongruent/STIM_022.jpg
2712.259	0.537	1	incongruent	Block3	incongruent/STIM_022.jpg
2715.99	0.472	1	incongruent	Block3	incongruent/STIM_023.jpg
2720.008	0.948	1	incongruent	Block3	incongruent/STIM_023.jpg
2723.61	0.522	1	incongruent	Block3	incongruent/STIM_023.jpg
2727.072	0.802	1	incongruent	Block3	incongruent/STIM_023.jpg
2730.276	0.881	1	incongruent	Block3	incongruent/STIM_023.jpg
2733.826	0.793	1	incongruent	Block3	incongruent/STIM_024.jpg
2737.488	0.711	1	incongruent	Block3	incongruent/STIM_024.jpg
2740.83	0.503	1	incongruent	Block3	incongruent/STIM_024.jpg
2744.136	0.52	1	incongruent	Block3	incongruent/STIM_024.jpg
2747.225	0.575	1	incongruent	Block3	incongruent/STIM_024.jpg
2751.702	0.634	1	incongruent	Block3	incongruent/STIM_025.jpg
2755.021	0.995	1	incongruent	Block3	incongruent/STIM_025.jpg
2758.839	0.681	1	incongruent	Block3	incongruent/STIM_025.jpg
2763.064	0.56	1	incongruent	Block3	incongruent/STIM_025.jpg
2765.968	0.701	0	incongruent	Block3	incongruent/STIM_025.jpg
2769.18	0.718	1	incongruent	Block3	incongruent/STIM_026.jpg
2772.229	0.964	1	incongruent	Block3	incongruent/STIM_026.jpg
2776.924	0.851	1	incongruent	Block3	incongruent/STIM_026.jpg
2781.066	0.496	1	incongruent	Block3	incongruent/STIM_026.jpg
2783.639	0.942	1	incongruent	Block3	incongruent/STIM_026.jpg
2787.363	0.936	1	incongruent	Block3	incongruent/STIM_027.jpg
2790.881	0.935	1	incongruent	Block3	incongruent/STIM_027.jpg
2795.459	0.681	1	incongruent	Block3	incongruent/STIM_027.jpg
2799.938	0.652	1	incongruent	Block3	incongruent/STIM_027.jpg
2803.811	0.89	1	incongruent	Block3	incongruent/STIM_027.jpg
2807.559	0.997	1	incongruent	Block3	incongruent/STIM_028.jpg
2812.413	0.541	1	incongruent	Block3	incongruent/STIM_028.jpg
2816.629	0.619	1	incongruent	Block3	incongruent/STIM_028.jpg
2820.353	0.72	1	incongruent	Block3	incongruent/STIM_028.jpg
2823.258	0.703	1	incongruent	Block3	incongruent/STIM_028.jpg
2827.434	0.586	1	incongruent	Block3	incongruent/STIM_029.jpg
2831.272	0.748	1	incongruent	Block3	incongruent/STIM_029.jpg
2835.558	0.929	1	incongruent	Block3	incongruent/STIM_029.jpg
2838.809	0.641	1	incongruent	Block3	incongruent/STIM_029.jpg
2843.208	0.546	1	incongruent	Block3	incongruent/STIM_029.jpg
2846.863	0.699	1	congruent	Block3	congruent/STIM_000.jpg
2849.928	0.505	1	congruent	Block3	congruent/STIM_000.jpg
2853.997	0.599	1	congruent	Block3	congruent/STIM_000.jpg
2857.456	0.765	1	congruent	Block3	congruent/STIM_000.jpg
2860.55	0.828	1	congruent	Block3	congruent/STIM_000.jpg
2863.67	0.783	1	congruent	Block3	congruent/STIM_001.jpg
2867.973	0.82	1	congruent	Block3	congruent/STIM_001.jpg
2872.492	0.804	0	congruent	Block3	congruent/STIM_001.jpg
2877.263	0.8	1	congruent	Block3	congruent/STIM_001.jpg
2881.037	0.784	1	congruent	Block3	congruent/STIM_001.jpg
2885.021	0.794	1	congruent	Block3	congruent/STIM_002.jpg
2887.892	0.572	1	congruent	Block3	congruent/STIM_002.jpg
2891.688	0.831	1	congruent	Block3	congruent/STIM_002.jpg
2896.526	0.553	1	congruent	Block3	congruent/STIM_002.jpg
2901.089	0.634	1	congruent	Block3	congruent/STIM_002.jpg
2904.545	0.566	1	congruent	Block3	congruent/STIM_003.jpg
2908.469	0.565	1	congruent	Block3	congruent/STIM_003.jpg
2911.431	0.821	1	congruent	Block3	congruent/STIM_003.jpg
2915.313	0.481	0	congruent	Block3	congruent/STIM_003.jpg
2917.894	0.539	1	congruent	Block3	congruent/STIM_003.jpg
2921.465	0.7	1	congruent	Block3	congruent/STIM_004.jpg
2925.11	0.848	1	congruent	Block3	congruent/STIM_004.jpg
2929.044	0.569	1	congruent	Block3	congruent/STIM_004.jpg
2933.495	0.678	1	congruent	Block3	congruent/STIM_004.jpg
2936.685	0.479	0	congruent	Block3	congruent/STIM_004.jpg
2940.141	0.524	1	congruent	Block3	congruent/STIM_005.jpg
2942.727	0.739	1	congruent	Block3	congruent/STIM_005.jpg
2946.682	0.625	1	congruent	Block3	congruent/STIM_005.jpg
2950.571	0.624	1	congruent	Block3	congruent/STIM_005.jpg
2955.09	0.521	1	congruent	Block3	congruent/STIM_005.jpg
2958.523	0.519	1	congruent	Block3	congruent/STIM_006.jpg
2963.038	0.487	1	congruent	Block3	congruent/STIM_006.jpg
2965.934	0.52	1	congruent	Block3	congruent/STIM_006.jpg
2969.655	0.495	0	congruent	Block3	congruent/STIM_006.jpg
2973.14	0.813	1	congruent	Block3	congruent/STIM_006.jpg
2975.996	0.631	1	congruent	Block3	congruent/STIM_007.jpg
2980.165	0.483	1	congruent	Block3	congruent/STIM_007.jpg
2984.26	0.686	1	congruent	Block3	congruent/STIM_007.jpg
2988.607	0.499	1	congruent	Block3	congruent/STIM_007.jpg
2992.916	0.856	1	congruent	Block3	congruent/STIM_007.jpg
2996.089	0.662	1	congruent	Block3	congruent/STIM_008.jpg
2999.585	0.517	1	congruent	Block3	congruent/STIM_008.jpg
3003.518	0.51	1	congruent	Block3	congruent/STIM_008.jpg
3008.04	0.598	1	congruent	Block3	congruent/STIM_008.jpg
3011.103	0.554	1	congruent	Block3	congruent/STIM_008.jpg
3013.78	0.586	1	congruent	Block3	congruent/STIM_009.jpg
3017.97	0.855	1	congruent	Block3	congruent/STIM_009.jpg
3021.944	0.507	1	congruent	Block3	congruent/STIM_009.jpg
3025.41	0.78	1	congruent	Block3	congruent/STIM_009.jpg
3028.369	0.557	1	congruent	Block3	congruent/STIM_009.jpg
3031.066	0.595	1	congruent	Block3	congruent/STIM_010.jpg
3035.267	0.521	0	congruent	Block3	congruent/STIM_010.jpg
3038.708	0.806	1	congruent	Block3	congruent/STIM_010.jpg
3043.292	0.855	1	congruent	Block3	congruent/STIM_010.jpg
3047.013	0.555	1	congruent	Block3	congruent/STIM_010.jpg
3051.503	0.802	1	congruent	Block3	congruent/STIM_011.jpg
3055.844	0.713	1	congruent	Block3	congruent/STIM_011.jpg
3059.907	0.742	1	congruent	Block3	congruent/STIM_011.jpg
3063.258	0.7	1	congruent	Block3	congruent/STIM_011.jpg
3066.251	0.566	1	congruent	Block3	congruent/STIM_011.jpg
3069.527	0.854	1	congruent	Block3	congruent/STIM_012.jpg
3072.942	0.621	1	congruent	Block3	congruent/STIM_012.jpg
3076.725	0.84	1	congruent	Block3	congruent/STIM_012.jpg
3080.443	0.778	1	congruent	Block3	congruent/STIM_012.jpg
3083.961	0.564	1	congruent	Block3	congruent/STIM_012.jpg
3088.021	0.605	1	congruent	Block3	congruent/STIM_013.jpg
3090.766	0.61	1	congruent	Block3	congruent/STIM_013.jpg
3095.143	0.63	1	congruent	Block3	congruent/STIM_013.jpg
3098.846	0.807	1	congruent	Block3	congruent/STIM_013.jpg
3103.33	0.547	1	congruent	Block3	congruent/STIM_013.jpg
3106.51	0.728	1	congruent	Block3	congruent/STIM_014.jpg
3110.627	0.784	1	congruent	Block3	congruent/STIM_014.jpg
3114.275	0.59	1	congruent	Block3	congruent/STIM_014.jpg
3118.108	0.761	0	congruent	Block3	congruent/STIM_014.jpg
3122.3	0.624	1	congruent	Block3	congruent/STIM_014.jpg
3126.496	0.732	1	congruent	Block3	congruent/STIM_015.jpg
3129.4	0.827	1	congruent	Block3	congruent/STIM_015.jpg
3132.457	0.702	1	congruent	Block3	congruent/STIM_015.jpg
3135.368	0.619	1	congruent	Block3	congruent/STIM_015.jpg
3138.45	0.703	1	congruent	Block3	congruent/STIM_015.jpg
3142.197	0.637	1	congruent	Block3	congruent/STIM_016.jpg
3146.655	0.702	1	congruent	Block3	congruent/STIM_016.jpg
3150.632	0.799	1	congruent	Block3	congruent/STIM_016.jpg
3155.048	0.79	1	congruent	Block3	congruent/STIM_016.jpg
3159.847	0.661	1	congruent	Block3	congruent/STIM_016.jpg
3163.233	0.534	1	congruent	Block3	congruent/STIM_017.jpg
3167.116	0.747	1	congruent	Block3	congruent/STIM_017.jpg
3170.476	0.615	1	congruent	Block3	congruent/STIM_017.jpg
3173.644	0.487	1	congruent	Block3	congruent/STIM_017.jpg
3177.502	0.495	1	congruent	Block3	congruent/STIM_017.jpg
3180.251	0.518	1	congruent	Block3	congruent/STIM_018.jpg
3183.679	0.694	1	congruent	Block3	congruent/STIM_018.jpg
3188.273	0.546	1	congruent	Block3	congruent/STIM_018.jpg
3192.625	0.481	1	congruent	Block3	congruent/STIM_018.jpg
3195.293	0.694	1	congruent	Block3	congruent/STIM_018.jpg
3198.986	0.858	1	congruent	Block3	congruent/STIM_019.jpg
3202.621	0.609	1	congruent	Block3	congruent/STIM_019.jpg
3206.262	0.787	1	congruent	Block3	congruent/STIM_019.jpg
3210.618	0.505	1	congruent	Block3	congruent/STIM_019.jpg
3213.151	0.66	1	congruent	Block3	congruent/STIM_019.jpg
3217.797	0.693	1	congruent	Block3	congruent/STIM_020.jpg
3221.67	0.824	1	congruent	Block3	congruent/STIM_020.jpg
3225.582	0.682	1	congruent	Block3	congruent/STIM_020.jpg
3228.432	0.62	1	congruent	Block3	congruent/STIM_020.jpg
3232.89	0.825	1	congruent	Block3	congruent/STIM_020.jpg
3237.011	0.638	1	congruent	Block3	congruent/STIM_021.jpg
3240.459	0.722	1	congruent	Block3	congruent/STIM_021.jpg
3243.288	0.813	1	congruent	Block3	congruent/STIM_021.jpg
3246.192	0.529	1	congruent	Block3	congruent/STIM_021.jpg
3249.888	0.6	1	congruent	Block3	congruent/STIM_021.jpg
3254.011	0.832	1	congruent	Block3	congruent/STIM_022.jpg
3258.303	0.534	1	congruent	Block3	congruent/STIM_022.jpg
3261.217	0.597	1	congruent	Block3	congruent/STIM_022.jpg
3265.835	0.73	1	congruent	Block3	congruent/STIM_022.jpg
3269.063	0.731	0	congruent	Block3	congruent/STIM_022.jpg
3271.954	0.65	1	congruent	Block3	congruent/STIM_023.jpg
3275.126	0.52	1	congruent	Block3	congruent/STIM_023.jpg
3278.819	0.559	1	congruent	Block3	congruent/STIM_023.jpg
3282.616	0.818	1	congruent	Block3	congruent/STIM_023.jpg
3287.138	0.586	1	congruent	Block3	congruent/STIM_023.jpg
3290.542	0.532	1	congruent	Block3	congruent/STIM_024.jpg
3293.871	0.482	1	congruent	Block3	congruent/STIM_024.jpg
3296.594	0.74	1	congruent	Block3	congruent/STIM_024.jpg
3299.513	0.642	1	congruent	Block3	congruent/STIM_024.jpg
3304.104	0.687	1	congruent	Block3	congruent/STIM_024.jpg
3308.169	0.499	1	congruent	Block3	congruent/STIM_025.jpg
3310.746	0.648	1	congruent	Block3	congruent/STIM_025.jpg
3315.136	0.687	1	congruent	Block3	congruent/STIM_025.jpg
3319.743	0.671	1	congruent	Block3	congruent/STIM_025.jpg
3323.657	0.679	1	congruent	Block3	congruent/STIM_025.jpg
3328.324	0.72	1	congruent	Block3	congruent/STIM_026.jpg
3332.706	0.58	1	congruent	Block3	congruent/STIM_026.jpg
3335.851	0.791	1	congruent	Block3	congruent/STIM_026.jpg
3339.043	0.586	0	congruent	Block3	congruent/STIM_026.jpg
3342.958	0.567	1	congruent	Block3	congruent/STIM_026.jpg
3347.289	0.807	1	congruent	Block3	congruent/STIM_027.jpg
3350.551	0.848	1	congruent	Block3	congruent/STIM_027.jpg
3355.019	0.525	1	congruent	Block3	congruent/STIM_027.jpg
3358.704	0.845	1	congruent	Block3	congruent/STIM_027.jpg
3362.103	0.737	1	congruent	Block3	congruent/STIM_027.jpg
3364.9	0.663	1	congruent	Block3	congruent/STIM_028.jpg
3368.254	0.561	1	congruent	Block3	congruent/STIM_028.jpg
3372.824	0.531	1	congruent	Block3	congruent/STIM_028.jpg
3376.958	0.61	1	congruent	Block3	congruent/STIM_028.jpg
3379.919	0.55	1	congruent	Block3	congruent/STIM_028.jpg
3384.145	0.844	1	congruent	Block3	congruent/STIM_029.jpg
3387.867	0.658	1	congruent	Block3	congruent/STIM_029.jpg
3391.304	0.55	1	congruent	Block3	congruent/STIM_029.jpg
3394.962	0.68	1	congruent	Block3	congruent/STIM_029.jpg
3398.982	0.533	1	congruent	Block3	congruent/STIM_029.jpg
