onset	duration	accuracy_binary	trial_type	learning_stage	stimulus
0.0	1.033	0	incongruent	Block1	incongruent/STIM_000.jpg
4.969	0.751	1	incongruent	Block1	incongruent/STIM_000.jpg
8.125	0.777	1	incongruent	Block1	incongruent/STIM_000.jpg
11.296	0.721	1	incongruent	Block1	incongruent/STIM_000.jpg
14.241	0.673	1	incongruent	Block1	incongruent/STIM_000.jpg
17.103	1.59	0	incongruent	Block1	incongruent/STIM_001.jpg
22.284	1.127	0	incongruent	Block1	incongruent/STIM_001.jpg
27.228	0.947	1	incongruent	Block1	incongruent/STIM_001.jpg
31.548	1.152	1	incongruent	Block1	incongruent/STIM_001.jpg
36.471	1.199	1	incongruent	Block1	incongruent/STIM_001.jpg
40.324	1.541	0	incongruent	Block1	incongruent/STIM_002.jpg
45.042	0.836	1	incongruent	Block1	incongruent/STIM_002.jpg
49.243	1.089	1	incongruent	Block1	incongruent/STIM_002.jpg
52.715	0.702	1	incongruent	Block1	incongruent/STIM_002.jpg
56.992	1.233	1	incongruent	Block1	incongruent/STIM_002.jpg
61.48	0.994	0	incongruent	Block1	incongruent/STIM_003.jpg
65.38	1.016	0	incongruent	Block1	incongruent/STIM_003.jpg
68.586	1.474	0	incongruent	Block1	incongruent/STIM_003.jpg
73.453	1.374	1	incongruent	Block1	incongruent/STIM_003.jpg
76.839	1.013	1	incongruent	Block1	incongruent/STIM_003.jpg
81.709	1.498	0	incongruent	Block1	incongruent/STIM_004.jpg
85.628	1.515	1	incongruent	Block1	incongruent/STIM_004.jpg
89.26	0.725	0	incongruent	Block1	incongruent/STIM_004.jpg
93.779	1.058	0	incongruent	Block1	incongruent/STIM_004.jpg
97.975	0.737	1	incongruent	Block1	incongruent/STIM_004.jpg
101.108	1.281	1	incongruent	Block1	incongruent/STIM_005.jpg
105.517	1.074	1	incongruent	Block1	incongruent/STIM_005.jpg
109.002	1.484	1	incongruent	Block1	incongruent/STIM_005.jpg
113.734	1.056	1	incongruent	Block1	incongruent/STIM_005.jpg
118.493	0.732	1	incongruent	Block1	incongruent/STIM_005.jpg
122.598	1.149	1	incongruent	Block1	incongruent/STIM_006.jpg
126.668	0.891	1	incongruent	Block1	incongruent/STIM_006.jpg
130.509	0.852	0	incongruent	Block1	incongruent/STIM_006.jpg
133.998	1.038	0	incongruent	Block1	incongruent/STIM_006.jpg
138.606	0.698	1	incongruent	Block1	incongruent/STIM_006.jpg
141.983	1.625	0	incongruent	Block1	incongruent/STIM_007.jpg
147.524	1.374	1	incongruent	Block1	incongruent/STIM_007.jpg
151.893	1.14	1	incongruent	Block1	incongruent/STIM_007.jpg
156.242	1.186	0	incongruent	Block1	incongruent/STIM_007.jpg
161.024	1.106	0	incongruent	Block1	incongruent/STIM_007.jpg
165.596	1.548	0	incongruent	Block1	incongruent/STIM_008.jpg
169.993	1.402	0	incongruent	Block1	incongruent/STIM_008.jpg
174.479	0.844	1	incongruent	Block1	incongruent/STIM_008.jpg
178.651	0.736	0	incongruent	Block1	incongruent/STIM_008.jpg
182.247	0.686	1	incongruent	Block1	incongruent/STIM_008.jpg
185.072	1.479	0	incongruent	Block1	incongruent/STIM_009.jpg
189.325	0.827	1	incongruent	Block1	incongruent/STIM_009.jpg
192.709	1.295	1	incongruent	Block1	incongruent/STIM_009.jpg
196.577	1.377	1	incongruent	Block1	incongruent/STIM_009.jpg
201.948	0.962	1	incongruent	Block1	incongruent/STIM_009.jpg
206.105	1.4	1	incongruent	Block1	incongruent/STIM_010.jpg
210.209	1.073	1	incongruent	Block1	incongruent/STIM_010.jpg
214.654	1.254	0	incongruent	Block1	incongruent/STIM_010.jpg
218.96	1.125	1	incongruent	Block1	incongruent/STIM_010.jpg
223.814	0.846	1	incongruent	Block1	incongruent/STIM_010.jpg
226.867	1.564	0	incongruent	Block1	incongruent/STIM_011.jpg
230.83	1.476	1	incongruent	Block1	incongruent/STIM_011.jpg
234.546	1.092	1	incongruent	Block1	incongruent/STIM_011.jpg
238.819	0.947	1	incongruent	Block1	incongruent/STIM_011.jpg
243.038	0.841	0	incongruent	Block1	incongruent/STIM_011.jpg
245.994	1.089	1	incongruent	Block1	incongruent/STIM_012.jpg
249.285	1.583	1	incongruent	Block1	incongruent/STIM_012.jpg
253.927	1.08	0	incongruent	Block1	incongruent/STIM_012.jpg
257.109	1.335	1	incongruent	Block1	incongruent/STIM_012.jpg
262.323	0.671	1	incongruent	Block1	incongruent/STIM_012.jpg
266.892	1.568	0	incongruent	Block1	incongruent/STIM_013.jpg
270.647	1.024	1	incongruent	Block1	incongruent/STIM_013.jpg
274.473	1.057	1	incongruent	Block1	incongruent/STIM_013.jpg
278.529	1.392	1	incongruent	Block1	incongruent/STIM_013.jpg
283.254	0.82	1	incongruent	Block1	incongruent/STIM_013.jpg
286.995	1.591	1	incongruent	Block1	incongruent/STIM_014.jpg
292.496	0.766	1	incongruent	Block1	incongruent/STIM_014.jpg
295.793	0.749	0	incongruent	Block1	incongruent/STIM_014.jpg
300.3	1.345	0	incongruent	Block1	incongruent/STIM_014.jpg
304.619	0.757	1	incongruent	Block1	incongruent/STIM_014.jpg
308.827	1.624	1	incongruent	Block1	incongruent/STIM_015.jpg
313.194	1.409	1	incongruent	Block1	incongruent/STIM_015.jpg
317.713	0.762	1	incongruent	Block1	incongruent/STIM_015.jpg
321.864	0.769	1	incongruent	Block1	incongruent/STIM_015.jpg
326.133	0.925	0	incongruent	Block1	incongruent/STIM_015.jpg
330.923	1.441	1	incongruent	Block1	incongruent/STIM_016.jpg
335.443	0.804	0	incongruent	Block1	incongruent/STIM_016.jpg
339.06	1.05	1	incongruent	Block1	incongruent/STIM_016.jpg
343.102	1.134	0	incongruent	Block1	incongruent/STIM_016.jpg
347.814	1.161	1	incongruent	Block1	incongruent/STIM_016.jpg
352.646	0.876	1	incongruent	Block1	incongruent/STIM_017.jpg
357.121	0.848	1	incongruent	Block1	incongruent/STIM_017.jpg
360.003	1.125	1	incongruent	Block1	incongruent/STIM_017.jpg
364.864	1.068	1	incongruent	Block1	incongruent/STIM_017.jpg
369.819	0.751	1	incongruent	Block1	incongruent/STIM_017.jpg
373.416	1.59	0	incongruent	Block1	incongruent/STIM_018.jpg
377.67	1.004	1	incongruent	Block1	incongruent/STIM_018.jpg
381.438	0.895	1	incongruent	Block1	incongruent/STIM_018.jpg
385.623	0.682	1	incongruent	Block1	incongruent/STIM_018.jpg
389.898	1.284	1	incongruent	Block1	incongruent/STIM_018.jpg
394.777	1.48	0	incongruent	Block1	incongruent/STIM_019.jpg
399.965	1.465	1	incongruent	Block1	incongruent/STIM_019.jpg
405.068	0.872	1	incongruent	Block1	incongruent/STIM_019.jpg
408.943	0.936	1	incongruent	Block1	incongruent/STIM_019.jpg
412.292	0.687	1	incongruent	Block1	incongruent/STIM_019.jpg
416.796	1.647	1	incongruent	Block1	incongruent/STIM_020.jpg
422.299	1.004	0	incongruent	Block1	incongruent/STIM_020.jpg
425.357	0.987	1	incongruent	Block1	incongruent/STIM_020.jpg
429.119	1.334	1	incongruent	Block1	incongruent/STIM_020.jpg
432.608	1.112	0	incongruent	Block1	incongruent/STIM_020.jpg
436.245	1.092	1	incongruent	Block1	incongruent/STIM_021.jpg
440.53	1.15	1	incongruent	Block1	incongruent/STIM_021.jpg
444.144	0.857	1	incongruent	Block1	incongruent/STIM_021.jpg
448.416	1.001	0	incongruent	Block1	incongruent/STIM_021.jpg
452.505	1.266	0	incongruent	Block1	incongruent/STIM_021.jpg
455.889	1.212	0	incongruent	Block1	incongruent/STIM_022.jpg
459.286	1.007	0	incongruent	Block1	incongruent/STIM_022.jpg
462.799	1.37	1	incongruent	Block1	incongruent/STIM_022.jpg
467.476	1.374	1	incongruent	Block1	incongruent/STIM_022.jpg
472.745	0.7	1	incongruent	Block1	incongruent/STIM_022.jpg
475.618	0.798	1	incongruent	Block1	incongruent/STIM_023.jpg
480.082	1.433	0	incongruent	Block1	incongruent/STIM_023.jpg
485.076	1.058	1	incongruent	Block1	incongruent/STIM_023.jpg
488.233	1.053	1	incongruent	Block1	incongruent/STIM_023.jpg
492.275	0.926	1	incongruent	Block1	incongruent/STIM_023.jpg
495.879	0.952	0	incongruent	Block1	incongruent/STIM_024.jpg
499.179	1.101	0	incongruent	Block1	incongruent/STIM_024.jpg
502.311	0.941	1	incongruent	Block1	incongruent/STIM_024.jpg
506.817	0.742	0	incongruent	Block1	incongruent/STIM_024.jpg
510.223	0.656	1	incongruent	Block1	incongruent/STIM_024.jpg
512.934	1.64	0	incongruent	Block1	incongruent/STIM_025.jpg
518.122	0.755	1	incongruent	Block1	incongruent/STIM_025.jpg
521.469	1.498	1	incongruent	Block1	incongruent/STIM_025.jpg
525.281	0.68	1	incongruent	Block1	incongruent/STIM_025.jpg
529.022	0.87	0	incongruent	Block1	incongruent/STIM_025.jpg
533.566	1.162	1	incongruent	Block1	incongruent/STIM_026.jpg
537.535	1.374	1	incongruent	Block1	incongruent/STIM_026.jpg
542.839	0.728	0	incongruent	Block1	incongruent/STIM_026.jpg
546.993	1.141	1	incongruent	Block1	incongruent/STIM_026.jpg
552.082	0.911	0	incongruent	Block1	incongruent/STIM_026.jpg
556.667	1.291	1	incongruent	Block1	incongruent/STIM_027.jpg
560.972	1.304	1	incongruent	Block1	incongruent/STIM_027.jpg
564.861	0.944	1	incongruent	Block1	incongruent/STIM_027.jpg
568.0	0.92	1	incongruent	Block1	incongruent/STIM_027.jpg
572.906	0.807	1	incongruent	Block1	incongruent/STIM_027.jpg
576.119	1.627	0	incongruent	Block1	incongruent/STIM_028.jpg
579.808	1.434	1	incongruent	Block1	incongruent/STIM_028.jpg
584.358	1.003	0	incongruent	Block1	incongruent/STIM_028.jpg
588.821	0.994	1	incongruent	Block1	incongruent/STIM_028.jpg
592.861	0.905	0	incongruent	Block1	incongruent/STIM_028.jpg
597.421	1.428	0	incongruent	Block1	incongruent/STIM_029.jpg
602.549	1.476	1	incongruent	Block1	incongruent/STIM_029.jpg
607.784	1.156	1	incongruent	Block1	incongruent/STIM_029.jpg
612.614	0.997	1	incongruent	Block1	incongruent/STIM_029.jpg
616.339	0.698	1	incongruent	Block1	incongruent/STIM_029.jpg
619.693	0.951	1	congruent	Block1	congruent/STIM_000.jpg
623.7	0.805	0	congruent	Block1	congruent/STIM_000.jpg
627.234	0.881	1	congruent	Block1	congruent/STIM_000.jpg
630.92	0.991	1	congruent	Block1	congruent/STIM_000.jpg
634.795	0.718	1	congruent	Block1	congruent/STIM_000.jpg
637.535	0.844	1	congruent	Block1	congruent/STIM_001.jpg
641.833	0.812	1	congruent	Block1	congruent/STIM_001.jpg
645.42	0.883	1	congruent	Block1	congruent/STIM_001.jpg
650.196	0.83	1	congruent	Block1	congruent/STIM_001.jpg
654.764	0.888	1	congruent	Block1	congruent/STIM_001.jpg
659.121	0.842	1	congruent	Block1	congruent/STIM_002.jpg
663.39	0.616	1	congruent	Block1	congruent/STIM_002.jpg
667.537	0.688	1	congruent	Block1	congruent/STIM_002.jpg
671.495	0.804	0	congruent	Block1	congruent/STIM_002.jpg
675.619	0.868	0	congruent	Block1	congruent/STIM_002.jpg
678.504	0.574	1	congruent	Block1	congruent/STIM_003.jpg
681.472	0.956	1	congruent	Block1	congruent/STIM_003.jpg
684.968	0.781	1	congruent	Block1	congruent/STIM_003.jpg
689.393	0.692	1	congruent	Block1	congruent/STIM_003.jpg
692.772	0.794	1	congruent	Block1	congruent/STIM_003.jpg
696.508	0.692	1	congruent	Block1	congruent/STIM_004.jpg
700.833	0.784	1	congruent	Block1	congruent/STIM_004.jpg
704.209	0.902	0	congruent	Block1	congruent/STIM_004.jpg
708.629	0.898	1	congruent	Block1	congruent/STIM_004.jpg
712.172	0.903	0	congruent	Block1	congruent/STIM_004.jpg
716.639	0.706	1	congruent	Block1	congruent/STIM_005.jpg
719.789	0.788	1	congruent	Block1	congruent/STIM_005.jpg
724.472	0.729	1	congruent	Block1	congruent/STIM_005.jpg
727.966	0.994	1	congruent	Block1	congruent/STIM_005.jpg
731.291	0.971	0	congruent	Block1	congruent/STIM_005.jpg
736.07	0.908	1	congruent	Block1	congruent/STIM_006.jpg
739.111	0.719	0	congruent	Block1	congruent/STIM_006.jpg
742.14	0.818	1	congruent	Block1	congruent/STIM_006.jpg
746.687	0.907	1	congruent	Block1	congruent/STIM_006.jpg
750.76	0.611	1	congruent	Block1	congruent/STIM_006.jpg
754.552	0.917	1	congruent	Block1	congruent/STIM_007.jpg
759.376	0.616	1	congruent	Block1	congruent/STIM_007.jpg
762.104	0.852	1	congruent	Block1	congruent/STIM_007.jpg
766.668	0.622	1	congruent	Block1	congruent/STIM_007.jpg
770.638	0.78	1	congruent	Block1	congruent/STIM_007.jpg
774.857	0.602	1	congruent	Block1	congruent/STIM_008.jpg
778.639	0.837	1	congruent	Block1	congruent/STIM_008.jpg
782.377	0.576	1	congruent	Block1	congruent/STIM_008.jpg
785.256	0.922	1	congruent	Block1	congruent/STIM_008.jpg
789.418	0.584	0	congruent	Block1	congruent/STIM_008.jpg
792.55	0.769	1	congruent	Block1	congruent/STIM_009.jpg
797.172	0.612	1	congruent	Block1	congruent/STIM_009.jpg
800.633	0.557	1	congruent	Block1	congruent/STIM_009.jpg
804.339	0.794	1	congruent	Block1	congruent/STIM_009.jpg
807.214	1.0	1	congruent	Block1	congruent/STIM_009.jpg
810.323	0.917	1	congruent	Block1	congruent/STIM_010.jpg
815.191	1.0	1	congruent	Block1	congruent/STIM_010.jpg
820.038	0.976	1	congruent	Block1	congruent/STIM_010.jpg
824.619	0.901	1	congruent	Block1	congruent/STIM_010.jpg
829.31	0.75	1	congruent	Block1	congruent/STIM_010.jpg
833.344	0.675	0	congruent	Block1	congruent/STIM_011.jpg
836.279	0.621	1	congruent	Block1	congruent/STIM_011.jpg
839.022	0.839	1	congruent	Block1	congruent/STIM_011.jpg
843.3	0.706	0	congruent	Block1	congruent/STIM_011.jpg
846.781	0.927	1	congruent	Block1	congruent/STIM_011.jpg
851.672	0.68	1	congruent	Block1	congruent/STIM_012.jpg
855.789	0.826	1	congruent	Block1	congruent/STIM_012.jpg
860.043	0.97	1	congruent	Block1	congruent/STIM_012.jpg
864.71	0.751	0	congruent	Block1	congruent/STIM_012.jpg
867.532	0.617	1	congruent	Block1	congruent/STIM_012.jpg
870.242	0.645	1	congruent	Block1	congruent/STIM_013.jpg
874.123	0.925	1	congruent	Block1	congruent/STIM_013.jpg
877.311	0.742	0	congruent	Block1	congruent/STIM_013.jpg
880.054	0.988	0	congruent	Block1	congruent/STIM_013.jpg
883.858	0.761	1	congruent	Block1	congruent/STIM_013.jpg
887.769	0.758	0	congruent	Block1	congruent/STIM_014.jpg
890.816	0.581	0	congruent	Block1	congruent/STIM_014.jpg
894.442	0.608	1	congruent	Block1	congruent/STIM_014.jpg
898.537	0.9	1	congruent	Block1	congruent/STIM_014.jpg
901.468	0.758	1	congruent	Block1	congruent/STIM_014.jpg
905.304	0.788	1	congruent	Block1	congruent/STIM_015.jpg
909.358	0.623	1	congruent	Block1	congruent/STIM_015.jpg
912.902	0.556	1	congruent	Block1	congruent/STIM_015.jpg
916.915	0.806	1	congruent	Block1	congruent/STIM_015.jpg
919.797	0.558	1	congruent	Block1	congruent/STIM_015.jpg
923.918	0.556	1	congruent	Block1	congruent/STIM_016.jpg
927.64	0.643	1	congruent	Block1	congruent/STIM_016.jpg
931.455	0.569	0	congruent	Block1	congruent/STIM_016.jpg
934.027	0.889	1	congruent	Block1	congruent/STIM_016.jpg
938.197	0.7	1	congruent	Block1	congruent/STIM_016.jpg
941.642	0.822	1	congruent	Block1	congruent/STIM_017.jpg
945.916	0.865	1	congruent	Block1	congruent/STIM_017.jpg
949.185	0.841	0	congruent	Block1	congruent/STIM_017.jpg
953.354	0.845	1	congruent	Block1	congruent/STIM_017.jpg
957.272	0.814	1	congruent	Block1	congruent/STIM_017.jpg
960.612	0.87	1	congruent	Block1	congruent/STIM_018.jpg
963.876	0.735	1	congruent	Block1	congruent/STIM_018.jpg
967.29	0.593	1	congruent	Block1	congruent/STIM_018.jpg
971.047	0.906	1	congruent	Block1	congruent/STIM_018.jpg
975.766	0.724	1	congruent	Block1	congruent/STIM_018.jpg
978.908	0.776	1	congruent	Block1	congruent/STIM_019.jpg
982.14	0.818	1	congruent	Block1	congruent/STIM_019.jpg
985.002	0.937	1	congruent	Block1	congruent/STIM_019.jpg
988.814	0.597	1	congruent	Block1	congruent/STIM_019.jpg
992.963	0.989	1	congruent	Block1	congruent/STIM_019.jpg
997.634	0.671	1	congruent	Block1	congruent/STIM_020.jpg
1001.849	0.937	1	congruent	Block1	congruent/STIM_020.jpg
1006.743	0.562	1	congruent	Block1	congruent/STIM_020.jpg
1009.984	0.953	1	congruent	Block1	congruent/STIM_020.jpg
1013.996	0.725	1	congruent	Block1	congruent/STIM_020.jpg
1018.141	0.681	0	congruent	Block1	congruent/STIM_021.jpg
1022.558	0.733	1	congruent	Block1	congruent/STIM_021.jpg
1026.69	0.968	1	congruent	Block1	congruent/STIM_021.jpg
1030.145	0.721	1	congruent	Block1	congruent/STIM_021.jpg
1033.973	0.668	0	congruent	Block1	congruent/STIM_021.jpg
1038.176	0.745	0	congruent	Block1	congruent/STIM_022.jpg
1041.719	0.943	1	congruent	Block1	congruent/STIM_022.jpg
1046.054	0.767	1	congruent	Block1	congruent/STIM_022.jpg
1049.792	0.749	1	congruent	Block1	congruent/STIM_022.jpg
1054.401	0.61	1	congruent	Block1	congruent/STIM_022.jpg
1058.336	0.956	1	congruent	Block1	congruent/STIM_023.jpg
1062.345	0.68	0	congruent	Block1	congruent/STIM_023.jpg
1066.391	0.585	1	congruent	Block1	congruent/STIM_023.jpg
1069.367	0.89	1	congruent	Block1	congruent/STIM_023.jpg
1072.904	0.94	1	congruent	Block1	congruent/STIM_023.jpg
1077.151	0.778	0	congruent	Block1	congruent/STIM_024.jpg
1080.249	0.795	1	congruent	Block1	congruent/STIM_024.jpg
1084.247	0.615	1	congruent	Block1	congruent/STIM_024.jpg
1087.093	0.837	0	congruent	Block1	congruent/STIM_024.jpg
1091.337	0.939	0	congruent	Block1	congruent/STIM_024.jpg
1096.269	0.965	1	congruent	Block1	congruent/STIM_025.jpg
1100.717	0.721	1	congruent	Block1	congruent/STIM_025.jpg
1103.744	0.965	1	congruent	Block1	congruent/STIM_025.jpg
1108.165	0.855	1	congruent	Block1	congruent/STIM_025.jpg
1112.884	0.64	1	congruent	Block1	congruent/STIM_025.jpg
1117.319	0.762	1	congruent	Block1	congruent/STIM_026.jpg
1121.634	0.889	1	congruent	Block1	congruent/STIM_026.jpg
1124.662	0.615	1	congruent	Block1	congruent/STIM_026.jpg
1127.759	0.88	1	congruent	Block1	congruent/STIM_026.jpg
1131.279	0.947	0	congruent	Block1	congruent/STIM_026.jpg
1135.789	0.629	1	congruent	Block1	congruent/STIM_027.jpg
1139.073	0.598	1	congruent	Block1	congruent/STIM_027.jpg
1143.041	0.995	0	congruent	Block1	congruent/STIM_027.jpg
1146.092	0.898	0	congruent	Block1	congruent/STIM_027.jpg
1149.286	0.754	1	congruent	Block1	congruent/STIM_027.jpg
1153.279	0.805	1	congruent	Block1	congruent/STIM_028.jpg
1156.084	0.89	0	congruent	Block1	congruent/STIM_028.jpg
1159.126	0.587	1	congruent	Block1	congruent/STIM_028.jpg
1163.252	0.997	1	congruent	Block1	congruent/STIM_028.jpg
1168.1	0.704	1	congruent	Block1	congruent/STIM_028.jpg
1171.82	0.621	0	congruent	Block1	congruent/STIM_029.jpg
1175.414	0.897	0	congruent	Block1	congruent/STIM_029.jpg
1178.557	0.771	1	congruent	Block1	congruent/STIM_029.jpg
1181.517	0.669	1	congruent	Block1	congruent/STIM_029.jpg
1184.661	0.734	0	congruent	Block1	congruent/STIM_029.jpg
1187.484	1.395	0	incongruent	Block2	incongruent/STIM_000.jpg
1192.872	0.991	1	incongruent	Block2	incongruent/STIM_000.jpg
1196.653	1.061	1	incongruent	Block2	incongruent/STIM_000.jpg
1199.98	1.078	1	incongruent	Block2	incongruent/STIM_000.jpg
1203.673	0.621	1	incongruent	Block2	incongruent/STIM_000.jpg
1206.888	1.207	0	incongruent	Block2	incongruent/STIM_001.jpg
1210.916	0.675	1	incongruent	Block2	incongruent/STIM_001.jpg
1214.517	0.832	1	incongruent	Block2	incongruent/STIM_001.jpg
1218.052	0.925	1	incongruent	Block2	incongruent/STIM_001.jpg
1221.715	1.164	1	incongruent	Block2	incongruent/STIM_001.jpg
1226.327	1.302	1	incongruent	Block2	incongruent/STIM_002.jpg
1231.21	0.967	1	incongruent	Block2	incongruent/STIM_002.jpg
1235.74	0.769	1	incongruent	Block2	incongruent/STIM_002.jpg
1240.434	1.141	1	incongruent	Block2	incongruent/STIM_002.jpg
1244.471	1.162	1	incongruent	Block2	incongruent/STIM_002.jpg
1247.636	0.665	1	incongruent	Block2	incongruent/STIM_003.jpg
1251.777	1.1	1	incongruent	Block2	incongruent/STIM_003.jpg
1256.117	0.939	0	incongruent	Block2	incongruent/STIM_003.jpg
1259.767	1.008	1	incongruent	Block2	incongruent/STIM_003.jpg
1263.169	0.549	1	incongruent	Block2	incongruent/STIM_003.jpg
1266.471	1.0	1	incongruent	Block2	incongruent/STIM_004.jpg
1269.849	1.028	1	incongruent	Block2	incongruent/STIM_004.jpg
1272.988	1.019	1	incongruent	Block2	incongruent/STIM_004.jpg
1276.372	0.774	1	incongruent	Block2	incongruent/STIM_004.jpg
1279.587	1.146	0	incongruent	Block2	incongruent/STIM_004.jpg
1283.482	1.186	1	incongruent	Block2	incongruent/STIM_005.jpg
1287.656	1.039	1	incongruent	Block2	incongruent/STIM_005.jpg
1291.133	0.753	0	incongruent	Block2	incongruent/STIM_005.jpg
1294.481	0.732	1	incongruent	Block2	incongruent/STIM_005.jpg
1298.595	0.736	1	incongruent	Block2	incongruent/STIM_005.jpg
1301.887	0.888	0	incongruent	Block2	incongruent/STIM_006.jpg
1305.13	1.305	0	incongruent	Block2	incongruent/STIM_006.jpg
1309.065	1.144	1	incongruent	Block2	incongruent/STIM_006.jpg
1313.99	1.006	1	incongruent	Block2	incongruent/STIM_006.jpg
1317.066	0.902	1	incongruent	Block2	incongruent/STIM_006.jpg
1320.968	0.68	1	incongruent	Block2	incongruent/STIM_007.jpg
1324.983	1.135	1	incongruent	Block2	incongruent/STIM_007.jpg
1328.453	1.122	1	incongruent	Block2	incongruent/STIM_007.jpg
1332.786	0.868	1	incongruent	Block2	incongruent/STIM_007.jpg
1336.124	1.102	1	incongruent	Block2	incongruent/STIM_007.jpg
1341.188	1.021	1	incongruent	Block2	incongruent/STIM_008.jpg
1345.408	0.915	0	incongruent	Block2	incongruent/STIM_008.jpg
1349.053	0.886	1	incongruent	Block2	incongruent/STIM_008.jpg
1352.72	1.121	1	incongruent	Block2	incongruent/STIM_008.jpg
1356.952	0.552	0	incongruent	Block2	incongruent/STIM_008.jpg
1360.791	0.761	1	incongruent	Block2	incongruent/STIM_009.jpg
1363.889	1.027	1	incongruent	Block2	incongruent/STIM_009.jpg
1368.852	1.122	1	incongruent	Block2	incongruent/STIM_009.jpg
1372.547	1.061	0	incongruent	Block2	incongruent/STIM_009.jpg
1376.072	0.853	1	incongruent	Block2	incongruent/STIM_009.jpg
1379.826	0.828	0	incongruent	Block2	incongruent/STIM_010.jpg
1384.532	1.01	0	incongruent	Block2	incongruent/STIM_010.jpg
1389.538	0.602	1	incongruent	Block2	incongruent/STIM_010.jpg
1392.423	1.019	1	incongruent	Block2	incongruent/STIM_010.jpg
1396.449	0.596	1	incongruent	Block2	incongruent/STIM_010.jpg
1400.071	1.257	0	incongruent	Block2	incongruent/STIM_011.jpg
1405.023	1.084	1	incongruent	Block2	incongruent/STIM_011.jpg
1409.973	1.002	1	incongruent	Block2	incongruent/STIM_011.jpg
1414.161	0.569	0	incongruent	Block2	incongruent/STIM_011.jpg
1417.249	0.719	1	incongruent	Block2	incongruent/STIM_011.jpg
1420.672	0.92	1	incongruent	Block2	incongruent/STIM_012.jpg
1424.396	1.231	1	incongruent	Block2	incongruent/STIM_012.jpg
1428.936	0.98	1	incongruent	Block2	incongruent/STIM_012.jpg
1431.977	0.832	1	incongruent	Block2	incongruent/STIM_012.jpg
1435.247	0.652	1	incongruent	Block2	incongruent/STIM_012.jpg
1438.436	1.097	1	incongruent	Block2	incongruent/STIM_013.jpg
1442.665	1.002	1	incongruent	Block2	incongruent/STIM_013.jpg
1445.983	1.063	1	incongruent	Block2	incongruent/STIM_013.jpg
1450.496	0.788	0	incongruent	Block2	incongruent/STIM_013.jpg
1454.071	0.573	1	incongruent	Block2	incongruent/STIM_013.jpg
1458.227	0.667	1	incongruent	Block2	incongruent/STIM_014.jpg
1461.962	0.939	1	incongruent	Block2	incongruent/STIM_014.jpg
1464.939	0.708	1	incongruent	Block2	incongruent/STIM_014.jpg
1467.981	1.008	1	incongruent	Block2	incongruent/STIM_014.jpg
1472.987	1.077	0	incongruent	Block2	incongruent/STIM_014.jpg
1477.616	1.22	1	incongruent	Block2	incongruent/STIM_015.jpg
1481.729	1.175	1	incongruent	Block2	incongruent/STIM_015.jpg
1486.552	0.698	0	incongruent	Block2	incongruent/STIM_015.jpg
1489.859	1.145	1	incongruent	Block2	incongruent/STIM_015.jpg
1494.638	1.166	1	incongruent	Block2	incongruent/STIM_015.jpg
1498.369	1.17	1	incongruent	Block2	incongruent/STIM_016.jpg
1501.927	1.068	1	incongruent	Block2	incongruent/STIM_016.jpg
1506.803	1.074	1	incongruent	Block2	incongruent/STIM_016.jpg
1510.487	0.978	1	incongruent	Block2	incongruent/STIM_016.jpg
1514.182	1.1	1	incongruent	Block2	incongruent/STIM_016.jpg
1519.106	0.836	1	incongruent	Block2	incongruent/STIM_017.jpg
1522.518	0.76	1	incongruent	Block2	incongruent/STIM_017.jpg
1525.876	0.957	1	incongruent	Block2	incongruent/STIM_017.jpg
1530.747	0.95	0	incongruent	Block2	incongruent/STIM_017.jpg
1535.524	0.782	0	incongruent	Block2	incongruent/STIM_017.jpg
1540.283	0.824	1	incongruent	Block2	incongruent/STIM_018.jpg
1544.386	0.717	1	incongruent	Block2	incongruent/STIM_018.jpg
1547.592	1.212	1	incongruent	Block2	incongruent/STIM_018.jpg
1551.73	1.124	1	incongruent	Block2	incongruent/STIM_018.jpg
1556.465	0.554	1	incongruent	Block2	incongruent/STIM_018.jpg
1560.398	0.706	1	incongruent	Block2	incongruent/STIM_019.jpg
1564.619	0.988	0	incongruent	Block2	incongruent/STIM_019.jpg
1568.551	0.885	1	incongruent	Block2	incongruent/STIM_019.jpg
1573.259	0.638	0	incongruent	Block2	incongruent/STIM_019.jpg
1576.546	0.929	1	incongruent	Block2	incongruent/STIM_019.jpg
1580.88	0.812	0	incongruent	Block2	incongruent/STIM_020.jpg
1584.686	0.998	1	incongruent	Block2	incongruent/STIM_020.jpg
1589.183	1.121	1	incongruent	Block2	incongruent/STIM_020.jpg
1593.145	0.836	1	incongruent	Block2	incongruent/STIM_020.jpg
1597.348	0.615	1	incongruent	Block2	incongruent/STIM_020.jpg
1601.402	1.208	1	incongruent	Block2	incongruent/STIM_021.jpg
1605.57	1.235	1	incongruent	Block2	incongruent/STIM_021.jpg
1610.454	0.84	1	incongruent	Block2	incongruent/STIM_021.jpg
1613.495	0.989	1	incongruent	Block2	incongruent/STIM_021.jpg
1618.071	1.08	1	incongruent	Block2	incongruent/STIM_021.jpg
1621.432	1.181	0	incongruent	Block2	incongruent/STIM_022.jpg
1625.345	0.63	0	incongruent	Block2	incongruent/STIM_022.jpg
1627.978	0.726	1	incongruent	Block2	incongruent/STIM_022.jpg
1632.16	1.149	0	incongruent	Block2	incongruent/STIM_022.jpg
1636.977	0.721	0	incongruent	Block2	incongruent/STIM_022.jpg
1639.862	0.925	0	incongruent	Block2	incongruent/STIM_023.jpg
1644.64	1.156	1	incongruent	Block2	incongruent/STIM_023.jpg
1648.635	0.841	1	incongruent	Block2	incongruent/STIM_023.jpg
1652.509	0.994	1	incongruent	Block2	incongruent/STIM_023.jpg
1656.472	0.925	1	incongruent	Block2	incongruent/STIM_023.jpg
1659.495	0.77	1	incongruent	Block2	incongruent/STIM_024.jpg
1662.77	0.687	1	incongruent	Block2	incongruent/STIM_024.jpg
1666.458	0.794	1	incongruent	Block2	incongruent/STIM_024.jpg
1670.828	0.805	1	incongruent	Block2	incongruent/STIM_024.jpg
1673.8	0.958	1	incongruent	Block2	incongruent/STIM_024.jpg
1678.363	0.913	1	incongruent	Block2	incongruent/STIM_025.jpg
1681.858	0.797	1	incongruent	Block2	incongruent/STIM_025.jpg
1686.077	0.636	1	incongruent	Block2	incongruent/STIM_025.jpg
1690.006	1.055	1	incongruent	Block2	incongruent/STIM_025.jpg
1693.975	0.644	1	incongruent	Block2	incongruent/STIM_025.jpg
1698.323	1.106	1	incongruent	Block2	incongruent/STIM_026.jpg
1702.947	0.731	0	incongruent	Block2	incongruent/STIM_026.jpg
1705.785	1.248	1	incongruent	Block2	incongruent/STIM_026.jpg
1710.956	0.836	1	incongruent	Block2	incongruent/STIM_026.jpg
1713.846	0.686	1	incongruent	Block2	incongruent/STIM_026.jpg
1717.186	1.334	1	incongruent	Block2	incongruent/STIM_027.jpg
1721.764	0.696	1	incongruent	Block2	incongruent/STIM_027.jpg
1726.223	0.715	1	incongruent	Block2	incongruent/STIM_027.jpg
1730.396	1.148	1	incongruent	Block2	incongruent/STIM_027.jpg
1733.752	0.993	1	incongruent	Block2	incongruent/STIM_027.jpg
1738.523	0.772	1	incongruent	Block2	incongruent/STIM_028.jpg
1742.052	0.675	1	incongruent	Block2	incongruent/STIM_028.jpg
1745.779	1.017	1	incongruent	Block2	incongruent/STIM_028.jpg
1749.412	0.711	1	incongruent	Block2	incongruent/STIM_028.jpg
1753.233	1.072	1	incongruent	Block2	incongruent/STIM_028.jpg
1757.64	1.077	1	incongruent	Block2	incongruent/STIM_029.jpg
1761.938	1.084	1	incongruent	Block2	incongruent/STIM_029.jpg
1765.565	1.228	1	incongruent	Block2	incongruent/STIM_029.jpg
1769.312	1.12	0	incongruent	Block2	incongruent/STIM_029.jpg
1772.933	1.163	1	incongruent	Block2	incongruent/STIM_029.jpg
1777.306	0.786	1	congruent	Block2	congruent/STIM_000.jpg
1780.608	0.969	1	congruent	Block2	congruent/STIM_000.jpg
1785.101	0.692	1	congruent	Block2	congruent/STIM_000.jpg
1788.96	0.673	0	congruent	Block2	congruent/STIM_000.jpg
1792.184	0.682	0	congruent	Block2	congruent/STIM_000.jpg
1796.19	0.557	1	congruent	Block2	congruent/STIM_001.jpg
1800.253	0.627	1	congruent	Block2	congruent/STIM_001.jpg
1803.305	0.666	1	congruent	Block2	congruent/STIM_001.jpg
1806.866	0.913	1	congruent	Block2	congruent/STIM_001.jpg
1810.255	0.736	1	congruent	Block2	congruent/STIM_001.jpg
1814.486	0.977	1	congruent	Block2	congruent/STIM_002.jpg
1818.912	0.583	1	congruent	Block2	congruent/STIM_002.jpg
1823.124	0.978	0	congruent	Block2	congruent/STIM_002.jpg
1826.861	0.885	0	congruent	Block2	congruent/STIM_002.jpg
1831.175	0.823	1	congruent	Block2	congruent/STIM_002.jpg
1835.785	0.719	1	congruent	Block2	congruent/STIM_003.jpg
1839.562	0.607	0	congruent	Block2	congruent/STIM_003.jpg
1843.008	0.9	1	congruent	Block2	congruent/STIM_003.jpg
1846.902	0.827	1	congruent	Block2	congruent/STIM_003.jpg
1851.357	0.869	1	congruent	Block2	congruent/STIM_003.jpg
1855.32	0.725	1	congruent	Block2	congruent/STIM_004.jpg
1859.1	0.625	1	congruent	Block2	congruent/STIM_004.jpg
1861.799	0.993	0	congruent	Block2	congruent/STIM_004.jpg
1865.698	0.934	1	congruent	Block2	congruent/STIM_004.jpg
1869.772	0.576	1	congruent	Block2	congruent/STIM_004.jpg
1872.793	0.96	1	congruent	Block2	congruent/STIM_005.jpg
1875.918	0.565	1	congruent	Block2	congruent/STIM_005.jpg
1879.486	0.751	1	congruent	Block2	congruent/STIM_005.jpg
1882.565	0.85	1	congruent	Block2	congruent/STIM_005.jpg
1885.674	0.894	1	congruent	Block2	congruent/STIM_005.jpg
1889.515	0.818	1	congruent	Block2	congruent/STIM_006.jpg
1893.154	0.564	1	congruent	Block2	congruent/STIM_006.jpg
1896.326	0.895	1	congruent	Block2	congruent/STIM_006.jpg
1901.005	0.994	1	congruent	Block2	congruent/STIM_006.jpg
1904.684	0.629	1	congruent	Block2	congruent/STIM_006.jpg
1907.763	0.853	1	congruent	Block2	congruent/STIM_007.jpg
1911.974	0.846	1	congruent	Block2	congruent/STIM_007.jpg
1915.415	0.564	1	congruent	Block2	congruent/STIM_007.jpg
1919.507	0.953	1	congruent	Block2	congruent/STIM_007.jpg
1922.937	0.877	1	congruent	Block2	congruent/STIM_007.jpg
1927.497	0.959	1	congruent	Block2	congruent/STIM_008.jpg
1931.045	0.856	1	congruent	Block2	congruent/STIM_008.jpg
1935.337	0.682	1	congruent	Block2	congruent/STIM_008.jpg
1939.616	0.619	1	congruent	Block2	congruent/STIM_008.jpg
1943.104	0.933	1	congruent	Block2	congruent/STIM_008.jpg
1946.759	0.755	1	congruent	Block2	congruent/STIM_009.jpg
1950.936	0.626	1	congruent	Block2	congruent/STIM_009.jpg
1953.704	0.95	1	congruent	Block2	congruent/STIM_009.jpg
1957.211	0.7	1	congruent	Block2	congruent/STIM_009.jpg
1960.991	0.556	1	congruent	Block2	congruent/STIM_009.jpg
1965.482	0.877	1	congruent	Block2	congruent/STIM_010.jpg
1970.097	0.743	1	congruent	Block2	congruent/STIM_010.jpg
1974.001	0.692	1	congruent	Block2	congruent/STIM_010.jpg
1978.142	0.759	1	congruent	Block2	congruent/STIM_010.jpg
1981.998	0.663	1	congruent	Block2	congruent/STIM_010.jpg
1984.958	0.819	1	congruent	Block2	congruent/STIM_011.jpg
1989.127	0.998	1	congruent	Block2	congruent/STIM_011.jpg
1993.986	0.799	1	congruent	Block2	congruent/STIM_011.jpg
1998.492	0.998	1	congruent	Block2	congruent/STIM_011.jpg
2001.577	0.911	1	congruent	Block2	congruent/STIM_011.jpg
2004.5	0.864	1	congruent	Block2	congruent/STIM_012.jpg
2008.597	0.696	1	congruent	Block2	congruent/STIM_012.jpg
2011.398	0.569	1	congruent	Block2	congruent/STIM_012.jpg
2014.065	0.87	0	congruent	Block2	congruent/STIM_012.jpg
2017.453	0.7	1	congruent	Block2	congruent/STIM_012.jpg
2020.725	0.993	0	congruent	Block2	congruent/STIM_013.jpg
2024.386	0.888	1	congruent	Block2	congruent/STIM_013.jpg
2028.091	0.728	1	congruent	Block2	congruent/STIM_013.jpg
2031.966	0.958	1	congruent	Block2	congruent/STIM_013.jpg
2034.96	0.918	0	congruent	Block2	congruent/STIM_013.jpg
2038.697	0.61	1	congruent	Block2	congruent/STIM_014.jpg
2042.823	0.612	0	congruent	Block2	congruent/STIM_014.jpg
2047.093	0.634	1	congruent	Block2	congruent/STIM_014.jpg
2050.029	0.677	1	congruent	Block2	congruent/STIM_014.jpg
2054.235	0.814	0	congruent	Block2	congruent/STIM_014.jpg
2058.423	0.702	1	congruent	Block2	congruent/STIM_015.jpg
2062.458	0.834	1	congruent	Block2	congruent/STIM_015.jpg
2065.456	0.702	1	congruent	Block2	congruent/STIM_015.jpg
2068.458	0.94	1	congruent	Block2	congruent/STIM_015.jpg
2072.662	0.654	1	congruent	Block2	congruent/STIM_015.jpg
2077.267	0.672	1	congruent	Block2	congruent/STIM_016.jpg
2081.826	0.774	1	congruent	Block2	congruent/STIM_016.jpg
2086.252	0.908	0	congruent	Block2	congruent/STIM_016.jpg
2089.76	0.596	1	congruent	Block2	congruent/STIM_016.jpg
2092.36	0.829	0	congruent	Block2	congruent/STIM_016.jpg
2096.651	0.898	1	congruent	Block2	congruent/STIM_017.jpg
2100.534	0.58	0	congruent	Block2	congruent/STIM_017.jpg
2103.862	0.877	0	congruent	Block2	congruent/STIM_017.jpg
2108.097	0.658	1	congruent	Block2	congruent/STIM_017.jpg
2112.237	0.957	1	congruent	Block2	congruent/STIM_017.jpg
2117.068	0.578	1	congruent	Block2	congruent/STIM_018.jpg
2119.793	0.996	1	congruent	Block2	congruent/STIM_018.jpg
2123.586	0.71	1	congruent	Block2	congruent/STIM_018.jpg
2127.655	0.664	1	congruent	Block2	congruent/STIM_018.jpg
2131.209	0.849	1	congruent	Block2	congruent/STIM_018.jpg
2135.279	0.999	1	congruent	Block2	congruent/STIM_019.jpg
2139.445	0.665	1	congruent	Block2	congruent/STIM_019.jpg
2142.807	0.589	1	congruent	Block2	congruent/STIM_019.jpg
2146.9	0.718	1	congruent	Block2	congruent/STIM_019.jpg
2151.352	0.775	1	congruent	Block2	congruent/STIM_019.jpg
2155.611	0.744	1	congruent	Block2	congruent/STIM_020.jpg
2159.433	0.837	0	congruent	Block2	congruent/STIM_020.jpg
2164.17	0.852	1	congruent	Block2	congruent/STIM_020.jpg
2168.707	0.733	1	congruent	Block2	congruent/STIM_020.jpg
2171.847	0.602	1	congruent	Block2	congruent/STIM_020.jpg
2175.494	0.888	1	congruent	Block2	congruent/STIM_021.jpg
2180.126	0.715	0	congruent	Block2	congruent/STIM_021.jpg
2183.775	0.968	1	congruent	Block2	congruent/STIM_021.jpg
2188.576	0.848	0	congruent	Block2	congruent/STIM_021.jpg
2191.947	0.942	1	congruent	Block2	congruent/STIM_021.jpg
2195.08	0.922	1	congruent	Block2	congruent/STIM_022.jpg
2199.719	0.648	1	congruent	Block2	congruent/STIM_022.jpg
2202.555	0.859	1	congruent	Block2	congruent/STIM_022.jpg
2206.452	0.886	1	congruent	Block2	congruent/STIM_022.jpg
2210.982	0.857	1	congruent	Block2	congruent/STIM_022.jpg
2214.834	0.748	1	congruent	Block2	congruent/STIM_023.jpg
2218.332	0.608	0	congruent	Block2	congruent/STIM_023.jpg
2222.519	0.866	1	congruent	Block2	congruent/STIM_023.jpg
2226.432	0.677	0	congruent	Block2	congruent/STIM_023.jpg
2229.764	0.848	1	congruent	Block2	congruent/STIM_023.jpg
2234.026	0.796	1	congruent	Block2	congruent/STIM_024.jpg
2237.231	0.838	1	congruent	Block2	congruent/STIM_024.jpg
2240.814	0.954	1	congruent	Block2	congruent/STIM_024.jpg
2245.132	0.713	1	congruent	Block2	congruent/STIM_024.jpg
2249.131	0.903	1	congruent	Block2	congruent/STIM_024.jpg
2252.59	0.976	1	congruent	Block2	congruent/STIM_025.jpg
2257.157	0.946	1	congruent	Block2	congruent/STIM_025.jpg
2260.822	0.766	0	congruent	Block2	congruent/STIM_025.jpg
2264.101	0.7	1	congruent	Block2	congruent/STIM_025.jpg
2266.968	0.802	1	congruent	Block2	congruent/STIM_025.jpg
2271.165	0.736	0	congruent	Block2	congruent/STIM_026.jpg
2275.199	0.615	0	congruent	Block2	congruent/STIM_026.jpg
2278.251	0.622	1	congruent	Block2	congruent/STIM_026.jpg
2281.768	0.649	1	congruent	Block2	congruent/STIM_026.jpg
2284.615	0.853	1	congruent	Block2	congruent/STIM_026.jpg
2289.415	0.56	1	congruent	Block2	congruent/STIM_027.jpg
2292.74	0.736	1	congruent	Block2	congruent/STIM_027.jpg
2296.201	0.887	1	congruent	Block2	congruent/STIM_027.jpg
2300.124	0.606	0	congruent	Block2	congruent/STIM_027.jpg
2304.441	0.683	1	congruent	Block2	congruent/STIM_027.jpg
2308.607	0.815	1	congruent	Block2	congruent/STIM_028.jpg
2313.002	0.979	1	congruent	Block2	congruent/STIM_028.jpg
2316.486	0.703	1	congruent	Block2	congruent/STIM_028.jpg
2319.223	0.84	0	congruent	Block2	congruent/STIM_028.jpg
2322.113	0.558	1	congruent	Block2	congruent/STIM_028.jpg
2326.208	0.892	1	congruent	Block2	congruent/STIM_029.jpg
2329.227	0.732	1	congruent	Block2	congruent/STIM_029.jpg
2333.095	0.749	1	congruent	Block2	congruent/STIM_029.jpg
2337.308	0.884	1	congruent	Block2	congruent/STIM_029.jpg
2341.976	0.932	1	congruent	Block2	congruent/STIM_029.jpg
2345.379	0.873	1	incongruent	Block3	incongruent/STIM_000.jpg
2350.154	1.143	1	incongruent	Block3	incongruent/STIM_000.jpg
2353.952	1.12	1	incongruent	Block3	incongruent/STIM_000.jpg
2358.915	1.065	1	incongruent	Block3	incongruent/STIM_000.jpg
2363.088	0.985	1	incongruent	Block3	incongruent/STIM_000.jpg
2367.614	1.115	1	incongruent	Block3	incongruent/STIM_001.jpg
2371.501	1.003	1	incongruent	Block3	incongruent/STIM_001.jpg
2376.19	0.569	1	incongruent	Block3	incongruent/STIM_001.jpg
2380.238	0.562	1	incongruent	Block3	incongruent/STIM_001.jpg
2384.202	0.58	1	incongruent	Block3	incongruent/STIM_001.jpg
2388.61	0.977	1	incongruent	Block3	incongruent/STIM_002.jpg
2393.139	0.887	1	incongruent	Block3	incongruent/STIM_002.jpg
2396.325	0.885	1	incongruent	Block3	incongruent/STIM_002.jpg
2399.387	0.994	1	incongruent	Block3	incongruent/STIM_002.jpg
2403.115	0.785	1	incongruent	Block3	incongruent/STIM_002.jpg
2407.26	0.972	1	incongruent	Block3	incongruent/STIM_003.jpg
2411.727	0.92	1	incongruent	Block3	incongruent/STIM_003.jpg
2414.943	0.804	1	incongruent	Block3	incongruent/STIM_003.jpg
2418.053	0.765	1	incongruent	Block3	incongruent/STIM_003.jpg
2422.222	0.562	1	incongruent	Block3	incongruent/STIM_003.jpg
2425.063	1.16	1	incongruent	Block3	incongruent/STIM_004.jpg
2430.145	0.732	1	incongruent	Block3	incongruent/STIM_004.jpg
2434.492	0.822	1	incongruent	Block3	incongruent/STIM_004.jpg
2437.743	1.049	1	incongruent	Block3	incongruent/STIM_004.jpg
2442.618	1.012	1	incongruent	Block3	incongruent/STIM_004.jpg
2446.128	0.687	1	incongruent	Block3	incongruent/STIM_005.jpg
2448.871	0.702	1	incongruent	Block3	incongruent/STIM_005.jpg
2451.833	0.863	1	incongruent	Block3	incongruent/STIM_005.jpg
2456.269	0.59	1	incongruent	Block3	incongruent/STIM_005.jpg
2458.919	1.053	1	incongruent	Block3	incongruent/STIM_005.jpg
2462.454	0.704	1	incongruent	Block3	incongruent/STIM_006.jpg
2466.639	0.715	1	incongruent	Block3	incongruent/STIM_006.jpg
2471.346	1.065	1	incongruent	Block3	incongruent/STIM_006.jpg
2475.938	0.548	1	incongruent	Block3	incongruent/STIM_006.jpg
2479.417	0.715	1	incongruent	Block3	incongruent/STIM_006.jpg
2482.911	0.79	1	incongruent	Block3	incongruent/STIM_007.jpg
2487.486	1.039	1	incongruent	Block3	incongruent/STIM_007.jpg
2490.541	0.869	1	incongruent	Block3	incongruent/STIM_007.jpg
2493.99	0.676	1	incongruent	Block3	incongruent/STIM_007.jpg
2497.311	0.706	1	incongruent	Block3	incongruent/STIM_007.jpg
2500.675	0.86	1	incongruent	Block3	incongruent/STIM_008.jpg
2503.672	1.011	1	incongruent	Block3	incongruent/STIM_008.jpg
2507.936	0.983	1	incongruent	Block3	incongruent/STIM_008.jpg
2512.494	0.976	1	incongruent	Block3	incongruent/STIM_008.jpg
2515.807	0.562	1	incongruent	Block3	incongruent/STIM_008.jpg
2519.52	1.167	0	incongruent	Block3	incongruent/STIM_009.jpg
2523.641	0.774	0	incongruent	Block3	incongruent/STIM_009.jpg
2528.279	1.152	0	incongruent	Block3	incongruent/STIM_009.jpg
2532.842	0.778	1	incongruent	Block3	incongruent/STIM_009.jpg
2536.507	1.037	1	incongruent	Block3	incongruent/STIM_009.jpg
2541.302	0.96	1	incongruent	Block3	incongruent/STIM_010.jpg
2544.395	0.553	1	incongruent	Block3	incongruent/STIM_010.jpg
2547.673	0.707	1	incongruent	Block3	incongruent/STIM_010.jpg
2551.143	1.032	1	incongruent	Block3	incongruent/STIM_010.jpg
2554.389	0.746	1	incongruent	Block3	incongruent/STIM_010.jpg
2557.828	0.988	1	incongruent	Block3	incongruent/STIM_011.jpg
2561.902	1.152	0	incongruent	Block3	incongruent/STIM_011.jpg
2566.568	1.01	1	incongruent	Block3	incongruent/STIM_011.jpg
2569.638	1.086	1	incongruent	Block3	incongruent/STIM_011.jpg
2573.846	0.592	1	incongruent	Block3	incongruent/STIM_011.jpg
2577.92	1.0	1	incongruent	Block3	incongruent/STIM_012.jpg
2581.392	0.718	1	incongruent	Block3	incongruent/STIM_012.jpg
2585.81	0.997	1	incongruent	Block3	incongruent/STIM_012.jpg
2588.931	0.731	1	incongruent	Block3	incongruent/STIM_012.jpg
2592.886	0.98	0	incongruent	Block3	incongruent/STIM_012.jpg
2596.943	1.134	1	incongruent	Block3	incongruent/STIM_013.jpg
2601.782	1.065	1	incongruent	Block3	incongruent/STIM_013.jpg
2604.914	0.65	1	incongruent	Block3	incongruent/STIM_013.jpg
2608.619	1.146	1	incongruent	Block3	incongruent/STIM_013.jpg
2612.17	0.666	0	incongruent	Block3	incongruent/STIM_013.jpg
2615.799	0.746	1	incongruent	Block3	incongruent/STIM_014.jpg
2619.824	0.614	1	incongruent	Block3	incongruent/STIM_014.jpg
2624.212	1.164	1	incongruent	Block3	incongruent/STIM_014.jpg
2629.059	1.121	1	incongruent	Block3	incongruent/STIM_014.jpg
2633.139	0.566	1	incongruent	Block3	incongruent/STIM_014.jpg
2637.428	0.562	1	incongruent	Block3	incongruent/STIM_015.jpg
2640.225	0.921	1	incongruent	Block3	incongruent/STIM_015.jpg
2644.251	0.618	1	incongruent	Block3	incongruent/STIM_015.jpg
2646.96	1.141	1	incongruent	Block3	incongruent/STIM_015.jpg
2651.78	0.722	1	incongruent	Block3	incongruent/STIM_015.jpg
2655.087	0.688	1	incongruent	Block3	incongruent/STIM_016.jpg
2658.323	1.099	1	incongruent	Block3	incongruent/STIM_016.jpg
2661.517	0.872	0	incongruent	Block3	incongruent/STIM_016.jpg
2664.839	0.942	1	incongruent	Block3	incongruent/STIM_016.jpg
2669.128	0.636	1	incongruent	Block3	incongruent/STIM_016.jpg
2673.102	1.103	1	incongruent	Block3	incongruent/STIM_017.jpg
2677.438	1.057	1	incongruent	Block3	incongruent/STIM_017.jpg
2681.891	0.915	0	incongruent	Block3	incongruent/STIM_017.jpg
2686.171	1.069	1	incongruent	Block3	incongruent/STIM_017.jpg
2690.353	0.988	1	incongruent	Block3	incongruent/STIM_017.jpg
2694.011	0.982	1	incongruent	Block3	incongruent/STIM_018.jpg
2698.562	1.07	1	incongruent	Block3	incongruent/STIM_018.jpg
2701.723	1.012	0	incongruent	Block3	incongruent/STIM_018.jpg
2705.066	1.063	1	incongruent	Block3	incongruent/STIM_018.jpg
2708.598	0.996	1	incongruent	Block3	incongruent/STIM_018.jpg
2711.77	0.666	1	incongruent	Block3	incongruent/STIM_019.jpg
2714.781	0.646	1	incongruent	Block3	incongruent/STIM_019.jpg
2719.299	0.755	1	incongruent	Block3	incongruent/STIM_019.jpg
2723.773	0.808	1	incongruent	Block3	incongruent/STIM_019.jpg
2728.315	0.557	1	incongruent	Block3	incongruent/STIM_019.jpg
2731.126	0.753	1	incongruent	Block3	incongruent/STIM_020.jpg
2734.662	1.124	1	incongruent	Block3	incongruent/STIM_020.jpg
2738.133	0.897	1	incongruent	Block3	incongruent/STIM_020.jpg
2742.86	0.952	1	incongruent	Block3	incongruent/STIM_020.jpg
2747.41	0.576	1	incongruent	Block3	incongruent/STIM_020.jpg
2751.079	1.136	1	incongruent	Block3	incongruent/STIM_021.jpg
2755.047	0.804	1	incongruent	Block3	incongruent/STIM_021.jpg
2758.73	0.614	1	incongruent	Block3	incongruent/STIM_021.jpg
2762.828	0.614	1	incongruent	Block3	incongruent/STIM_021.jpg
2765.997	0.663	1	incongruent	Block3	incongruent/STIM_021.jpg
2769.41	1.084	1	incongruent	Block3	incongruent/STIM_022.jpg
2772.968	1.072	1	incongruent	Block3	incongruent/STIM_022.jpg
2777.524	1.066	1	incongruent	Block3	incongruent/STIM_022.jpg
2780.925	0.964	1	incongruent	Block3	incongruent/STIM_022.jpg
2784.383	0.912	1	incongruent	Block3	incongruent/STIM_022.jpg
2788.498	1.046	1	incongruent	Block3	incongruent/STIM_023.jpg
2791.806	0.942	1	incongruent	Block3	incongruent/STIM_023.jpg
2796.168	0.713	1	incongruent	Block3	incongruent/STIM_023.jpg
2800.803	0.656	1	incongruent	Block3	incongruent/STIM_023.jpg
2804.65	0.669	1	incongruent	Block3	incongruent/STIM_023.jpg
2808.47	0.843	1	incongruent	Block3	incongruent/STIM_024.jpg
2813.217	0.727	1	incongruent	Block3	incongruent/STIM_024.jpg
2817.401	0.625	1	incongruent	Block3	incongruent/STIM_024.jpg
2820.04	0.934	1	incongruent	Block3	incongruent/STIM_024.jpg
2824.097	0.834	1	incongruent	Block3	incongruent/STIM_024.jpg
2828.235	1.011	1	incongruent	Block3	incongruent/STIM_025.jpg
2831.37	1.109	0	incongruent	Block3	incongruent/STIM_025.jpg
2835.524	1.152	1	incongruent	Block3	incongruent/STIM_025.jpg
2840.603	1.092	1	incongruent	Block3	incongruent/STIM_025.jpg
2843.981	1.06	1	incongruent	Block3	incongruent/STIM_025.jpg
2848.886	0.745	1	incongruent	Block3	incongruent/STIM_026.jpg
2853.037	0.921	1	incongruent	Block3	incongruent/STIM_026.jpg
2857.044	1.12	1	incongruent	Block3	incongruent/STIM_026.jpg
2861.825	0.744	0	incongruent	Block3	incongruent/STIM_026.jpg
2864.572	0.677	1	incongruent	Block3	incongruent/STIM_026.jpg
2867.92	0.968	1	incongruent	Block3	incongruent/STIM_027.jpg
2871.917	0.555	1	incongruent	Block3	incongruent/STIM_027.jpg
2875.948	0.898	1	incongruent	Block3	incongruent/STIM_027.jpg
2879.335	0.944	1	incongruent	Block3	incongruent/STIM_027.jpg
2883.695	1.038	1	incongruent	Block3	incongruent/STIM_027.jpg
2887.883	0.546	1	incongruent	Block3	incongruent/STIM_028.jpg
2890.589	1.132	0	incongruent	Block3	incongruent/STIM_028.jpg
2894.304	0.764	1	incongruent	Block3	incongruent/STIM_028.jpg
2898.69	0.978	1	incongruent	Block3	incongruent/STIM_028.jpg
2902.25	0.915	1	incongruent	Block3	incongruent/STIM_028.jpg
2905.466	0.94	1	incongruent	Block3	incongruent/STIM_029.jpg
2908.5	0.777	1	incongruent	Block3	incongruent/STIM_029.jpg
2913.02	0.836	1	incongruent	Block3	incongruent/STIM_029.jpg
2917.817	0.76	1	incongruent	Block3	incongruent/STIM_029.jpg
2921.997	0.964	1	incongruent	Block3	incongruent/STIM_029.jpg
2926.529	0.926	1	congruent	Block3	congruent/STIM_000.jpg
2931.158	0.883	0	congruent	Block3	congruent/STIM_000.jpg
2935.703	0.934	1	congruent	Block3	congruent/STIM_000.jpg
2939.846	0.857	1	congruent	Block3	congruent/STIM_000.jpg
2944.07	0.776	1	congruent	Block3	congruent/STIM_000.jpg
2948.452	0.848	1	congruent	Block3	congruent/STIM_001.jpg
2952.111	0.744	1	congruent	Block3	congruent/STIM_001.jpg
2956.406	0.889	1	congruent	Block3	congruent/STIM_001.jpg
2960.781	0.782	1	congruent	Block3	congruent/STIM_001.jpg
2964.147	0.59	1	congruent	Block3	congruent/STIM_001.jpg
2967.956	0.84	1	congruent	Block3	congruent/STIM_002.jpg
2972.148	0.702	0	congruent	Block3	congruent/STIM_002.jpg
2975.563	0.629	1	congruent	Block3	congruent/STIM_002.jpg
2978.859	0.568	1	congruent	Block3	congruent/STIM_002.jpg
2982.768	0.686	0	congruent	Block3	congruent/STIM_002.jpg
2987.434	0.779	1	congruent	Block3	congruent/STIM_003.jpg
2991.796	0.806	0	congruent	Block3	congruent/STIM_003.jpg
2994.696	0.768	0	congruent	Block3	congruent/STIM_003.jpg
2997.686	0.903	0	congruent	Block3	congruent/STIM_003.jpg
3002.221	0.705	1	congruent	Block3	congruent/STIM_003.jpg
3005.266	0.571	0	congruent	Block3	congruent/STIM_004.jpg
3008.95	0.981	1	congruent	Block3	congruent/STIM_004.jpg
3012.665	0.967	1	congruent	Block3	congruent/STIM_004.jpg
3016.296	0.778	1	congruent	Block3	congruent/STIM_004.jpg
3020.897	0.644	1	congruent	Block3	congruent/STIM_004.jpg
3023.999	0.597	1	congruent	Block3	congruent/STIM_005.jpg
3028.159	0.683	1	congruent	Block3	congruent/STIM_005.jpg
3031.96	0.88	1	congruent	Block3	congruent/STIM_005.jpg
3035.973	0.56	1	congruent	Block3	congruent/STIM_005.jpg
3039.658	0.89	0	congruent	Block3	congruent/STIM_005.jpg
3042.999	0.961	1	congruent	Block3	congruent/STIM_006.jpg
3047.742	0.975	1	congruent	Block3	congruent/STIM_006.jpg
3051.893	0.918	1	congruent	Block3	congruent/STIM_006.jpg
3055.097	0.682	1	congruent	Block3	congruent/STIM_006.jpg
3059.073	0.796	1	congruent	Block3	congruent/STIM_006.jpg
3062.705	0.641	1	congruent	Block3	congruent/STIM_007.jpg
3066.508	0.94	1	congruent	Block3	congruent/STIM_007.jpg
3069.532	0.557	1	congruent	Block3	congruent/STIM_007.jpg
3072.546	0.95	0	congruent	Block3	congruent/STIM_007.jpg
3076.505	0.674	1	congruent	Block3	congruent/STIM_007.jpg
3080.071	0.895	1	congruent	Block3	congruent/STIM_008.jpg
3083.123	0.809	1	congruent	Block3	congruent/STIM_008.jpg
3087.425	0.944	0	congruent	Block3	congruent/STIM_008.jpg
3092.184	0.904	1	congruent	Block3	congruent/STIM_008.jpg
3096.725	0.743	0	congruent	Block3	congruent/STIM_008.jpg
3101.346	0.718	1	congruent	Block3	congruent/STIM_009.jpg
3104.113	0.613	1	congruent	Block3	congruent/STIM_009.jpg
3107.427	0.889	1	congruent	Block3	congruent/STIM_009.jpg
3110.919	0.893	1	congruent	Block3	congruent/STIM_009.jpg
3114.745	0.629	1	congruent	Block3	congruent/STIM_009.jpg
3118.368	0.608	1	congruent	Block3	congruent/STIM_010.jpg
3122.479	0.594	1	congruent	Block3	congruent/STIM_010.jpg
3126.027	0.679	1	congruent	Block3	congruent/STIM_010.jpg
3130.471	0.889	1	congruent	Block3	congruent/STIM_010.jpg
3134.274	0.847	1	congruent	Block3	congruent/STIM_010.jpg
3138.133	0.567	1	congruent	Block3	congruent/STIM_011.jpg
3141.656	0.778	1	congruent	Block3	congruent/STIM_011.jpg
3145.981	0.584	0	congruent	Block3	congruent/STIM_011.jpg
3149.291	0.867	1	congruent	Block3	congruent/STIM_011.jpg
3153.971	0.871	1	congruent	Block3	congruent/STIM_011.jpg
3158.533	0.941	1	congruent	Block3	congruent/STIM_012.jpg
3162.884	0.58	1	congruent	Block3	congruent/STIM_012.jpg
3166.214	0.992	1	congruent	Block3	congruent/STIM_012.jpg
3169.447	0.717	1	congruent	Block3	congruent/STIM_012.jpg
3172.798	0.579	0	congruent	Block3	congruent/STIM_012.jpg
3176.597	0.615	1	congruent	Block3	congruent/STIM_013.jpg
3180.261	0.736	0	congruent	Block3	congruent/STIM_013.jpg
3184.339	0.665	1	congruent	Block3	congruent/STIM_013.jpg
3187.74	0.875	1	congruent	Block3	congruent/STIM_013.jpg
3191.936	0.596	0	congruent	Block3	congruent/STIM_013.jpg
3195.789	0.618	1	congruent	Block3	congruent/STIM_014.jpg
3199.789	0.987	1	congruent	Block3	congruent/STIM_014.jpg
3203.33	0.61	1	congruent	Block3	congruent/STIM_014.jpg
3207.56	0.895	1	congruent	Block3	congruent/STIM_014.jpg
3211.408	0.561	1	congruent	Block3	congruent/STIM_014.jpg
3214.998	0.94	1	congruent	Block3	congruent/STIM_015.jpg
3218.434	0.57	1	congruent	Block3	congruent/STIM_015.jpg
3222.236	0.567	1	congruent	Block3	congruent/STIM_015.jpg
3226.411	0.759	1	congruent	Block3	congruent/STIM_015.jpg
3229.433	0.774	0	congruent	Block3	congruent/STIM_015.jpg
3232.347	0.843	1	congruent	Block3	congruent/STIM_016.jpg
3236.259	0.773	1	congruent	Block3	congruent/STIM_016.jpg
3240.377	0.645	1	congruent	Block3	congruent/STIM_016.jpg
3244.992	0.569	1	congruent	Block3	congruent/STIM_016.jpg
3249.228	0.926	0	congruent	Block3	congruent/STIM_016.jpg
3252.567	0.868	1	congruent	Block3	congruent/STIM_017.jpg
3256.988	0.579	0	congruent	Block3	congruent/STIM_017.jpg
3261.507	0.806	1	congruent	Block3	congruent/STIM_017.jpg
3265.46	0.865	1	congruent	Block3	congruent/STIM_017.jpg
3268.664	0.558	1	congruent	Block3	congruent/STIM_017.jpg
3271.477	0.929	1	congruent	Block3	congruent/STIM_018.jpg
3275.856	0.791	1	congruent	Block3	congruent/STIM_018.jpg
3280.454	0.724	1	congruent	Block3	congruent/STIM_018.jpg
3284.562	0.994	1	congruent	Block3	congruent/STIM_018.jpg
3287.743	0.8	1	congruent	Block3	congruent/STIM_018.jpg
3290.851	0.647	1	congruent	Block3	congruent/STIM_019.jpg
3294.791	0.576	1	congruent	Block3	congruent/STIM_019.jpg
3298.497	0.83	1	congruent	Block3	congruent/STIM_019.jpg
3301.534	0.898	1	congruent	Block3	congruent/STIM_019.jpg
3304.794	0.68	1	congruent	Block3	congruent/STIM_019.jpg
3307.616	0.828	1	congruent	Block3	congruent/STIM_020.jpg
3312.135	0.667	1	congruent	Block3	congruent/STIM_020.jpg
3316.361	0.562	1	congruent	Block3	congruent/STIM_020.jpg
3319.262	0.972	1	congruent	Block3	congruent/STIM_020.jpg
3323.149	0.634	1	congruent	Block3	congruent/STIM_020.jpg
3326.123	0.916	1	congruent	Block3	congruent/STIM_021.jpg
3330.413	0.985	1	congruent	Block3	congruent/STIM_021.jpg
3335.362	0.619	0	congruent	Block3	congruent/STIM_021.jpg
3338.582	0.59	1	congruent	Block3	congruent/STIM_021.jpg
3341.994	0.702	1	congruent	Block3	congruent/STIM_021.jpg
3346.671	0.604	1	congruent	Block3	congruent/STIM_022.jpg
3350.93	0.912	1	congruent	Block3	congruent/STIM_022.jpg
3354.575	0.675	0	congruent	Block3	congruent/STIM_022.jpg
3359.207	0.584	1	congruent	Block3	congruent/STIM_022.jpg
3363.663	0.558	0	congruent	Block3	congruent/STIM_022.jpg
3367.501	0.85	0	congruent	Block3	congruent/STIM_023.jpg
3371.271	0.595	1	congruent	Block3	congruent/STIM_023.jpg
3374.229	0.596	1	congruent	Block3	congruent/STIM_023.jpg
3377.227	0.715	1	congruent	Block3	congruent/STIM_023.jpg
3381.872	0.977	1	congruent	Block3	congruent/STIM_023.jpg
3385.863	0.569	1	congruent	Block3	congruent/STIM_024.jpg
3388.708	0.932	1	congruent	Block3	congruent/STIM_024.jpg
3392.09	0.594	1	congruent	Block3	congruent/STIM_024.jpg
3396.678	0.956	1	congruent	Block3	congruent/STIM_024.jpg
3401.192	0.634	1	congruent	Block3	congruent/STIM_024.jpg
3404.054	0.638	1	congruent	Block3	congruent/STIM_025.jpg
3407.484	0.645	0	congruent	Block3	congruent/STIM_025.jpg
3411.542	0.696	1	congruent	Block3	congruent/STIM_025.jpg
3415.626	0.66	1	congruent	Block3	congruent/STIM_025.jpg
3419.642	0.858	1	congruent	Block3	congruent/STIM_025.jpg
3423.877	0.711	1	congruent	Block3	congruent/STIM_026.jpg
3428.456	0.596	1	congruent	Block3	congruent/STIM_026.jpg
3431.178	0.655	1	congruent	Block3	congruent/STIM_026.jpg
3433.855	0.733	1	congruent	Block3	congruent/STIM_026.jpg
3437.389	0.674	0	congruent	Block3	congruent/STIM_026.jpg
3441.688	0.849	1	congruent	Block3	congruent/STIM_027.jpg
3445.886	0.919	1	congruent	Block3	congruent/STIM_027.jpg
3450.757	0.954	1	congruent	Block3	congruent/STIM_027.jpg
3453.939	0.67	0	congruent	Block3	congruent/STIM_027.jpg
3458.51	0.906	1	congruent	Block3	congruent/STIM_027.jpg
3461.485	0.908	1	congruent	Block3	congruent/STIM_028.jpg
3465.949	0.672	1	congruent	Block3	congruent/STIM_028.jpg
3469.065	0.626	1	congruent	Block3	congruent/STIM_028.jpg
3473.592	0.7	0	congruent	Block3	congruent/STIM_028.jpg
3476.617	0.59	0	congruent	Block3	congruent/STIM_028.jpg
3479.793	0.854	1	congruent	Block3	congruent/STIM_029.jpg
3482.968	0.826	1	congruent	Block3	congruent/STIM_029.jpg
3486.811	0.864	1	congruent	Block3	congruent/STIM_029.jpg
3491.541	0.843	1	congruent	Block3	congruent/STIM_029.jpg
3495.041	0.646	1	congruent	Block3	congruent/STIM_029.jpg
