onset	duration	response_time_ms	trial_type	learning_stage	stimulus	response_port
0.0	1.033	1032.9	incongruent	Block1	incongruent/STIM_000.jpg	99
4.969	0.751	751.0	incongruent	Block1	incongruent/STIM_000.jpg	100
8.125	0.777	776.7	incongruent	Block1	incongruent/STIM_000.jpg	100
11.296	0.721	720.9	incongruent	Block1	incongruent/STIM_000.jpg	100
14.241	0.673	673.3	incongruent	Block1	incongruent/STIM_000.jpg	100
17.103	1.59	1590.2	incongruent	Block1	incongruent/STIM_001.jpg	100
22.284	1.127	1127.3	incongruent	Block1	incongruent/STIM_001.jpg	99
27.228	0.947	946.7	incongruent	Block1	incongruent/STIM_001.jpg	99
31.548	1.152	1152.1	incongruent	Block1	incongruent/STIM_001.jpg	100
36.471	1.199	1198.9	incongruent	Block1	incongruent/STIM_001.jpg	100
40.324	1.541	1540.6	incongruent	Block1	incongruent/STIM_002.jpg	99
45.042	0.836	836.2	incongruent	Block1	incongruent/STIM_002.jpg	99
49.243	1.089	1089.2	incongruent	Block1	incongruent/STIM_002.jpg	99
52.715	0.702	701.9	incongruent	Block1	incongruent/STIM_002.jpg	100
56.992	1.233	1233.1	incongruent	Block1	incongruent/STIM_002.jpg	100
61.48	0.994	993.7	incongruent	Block1	incongruent/STIM_003.jpg	100
65.38	1.016	1016.3	incongruent	Block1	incongruent/STIM_003.jpg	99
68.586	1.474	1473.6	incongruent	Block1	incongruent/STIM_003.jpg	100
73.453	1.374	1374.5	incongruent	Block1	incongruent/STIM_003.jpg	100
76.839	1.013	1013.2	incongruent	Block1	incongruent/STIM_003.jpg	100
81.709	1.498	1497.7	incongruent	Block1	incongruent/STIM_004.jpg	100
85.628	1.515	1514.6	incongruent	Block1	incongruent/STIM_004.jpg	100
89.26	0.725	725.1	incongruent	Block1	incongruent/STIM_004.jpg	99
93.779	1.058	1057.6	incongruent	Block1	incongruent/STIM_004.jpg	99
97.975	0.737	736.7	incongruent	Block1	incongruent/STIM_004.jpg	100
101.108	1.281	1281.4	incongruent	Block1	incongruent/STIM_005.jpg	99
105.517	1.074	1074.4	incongruent	Block1	incongruent/STIM_005.jpg	100
109.002	1.484	1484.1	incongruent	Block1	incongruent/STIM_005.jpg	100
113.734	1.056	1056.1	incongruent	Block1	incongruent/STIM_005.jpg	100
118.493	0.732	732.2	incongruent	Block1	incongruent/STIM_005.jpg	100
122.598	1.149	1149.1	incongruent	Block1	incongruent/STIM_006.jpg	100
126.668	0.891	890.6	incongruent	Block1	incongruent/STIM_006.jpg	100
130.509	0.852	851.9	incongruent	Block1	incongruent/STIM_006.jpg	100
133.998	1.038	1038.0	incongruent	Block1	incongruent/STIM_006.jpg	99
138.606	0.698	698.0	incongruent	Block1	incongruent/STIM_006.jpg	100
141.983	1.625	1624.6	incongruent	Block1	incongruent/STIM_007.jpg	100
147.524	1.374	1373.5	incongruent	Block1	incongruent/STIM_007.jpg	99
151.893	1.14	1140.5	incongruent	Block1	incongruent/STIM_007.jpg	99
156.242	1.186	1186.1	incongruent	Block1	incongruent/STIM_007.jpg	100
161.024	1.106	1106.1	incongruent	Block1	incongruent/STIM_007.jpg	100
165.596	1.548	1548.1	incongruent	Block1	incongruent/STIM_008.jpg	99
169.993	1.402	1401.7	incongruent	Block1	incongruent/STIM_008.jpg	99
174.479	0.844	843.9	incongruent	Block1	incongruent/STIM_008.jpg	99
178.651	0.736	736.4	incongruent	Block1	incongruent/STIM_008.jpg	99
182.247	0.686	685.6	incongruent	Block1	incongruent/STIM_008.jpg	99
185.072	1.479	1478.8	incongruent	Block1	incongruent/STIM_009.jpg	99
189.325	0.827	826.6	incongruent	Block1	incongruent/STIM_009.jpg	100
192.709	1.295	1294.9	incongruent	Block1	incongruent/STIM_009.jpg	100
196.577	1.377	1377.1	incongruent	Block1	incongruent/STIM_009.jpg	99
201.948	0.962	962.4	incongruent	Block1	incongruent/STIM_009.jpg	99
206.105	1.4	1400.5	incongruent	Block1	incongruent/STIM_010.jpg	99
210.209	1.073	1072.7	incongruent	Block1	incongruent/STIM_010.jpg	99
214.654	1.254	1253.9	incongruent	Block1	incongruent/STIM_010.jpg	99
218.96	1.125	1125.4	incongruent	Block1	incongruent/STIM_010.jpg	100
223.814	0.846	845.5	incongruent	Block1	incongruent/STIM_010.jpg	100
226.867	1.564	1563.5	incongruent	Block1	incongruent/STIM_011.jpg	99
230.83	1.476	1476.3	incongruent	Block1	incongruent/STIM_011.jpg	100
234.546	1.092	1091.8	incongruent	Block1	incongruent/STIM_011.jpg	100
238.819	0.947	946.6	incongruent	Block1	incongruent/STIM_011.jpg	99
243.038	0.841	840.8	incongruent	Block1	incongruent/STIM_011.jpg	99
245.994	1.089	1088.9	incongruent	Block1	incongruent/STIM_012.jpg	100
249.285	1.583	1582.6	incongruent	Block1	incongruent/STIM_012.jpg	99
253.927	1.08	1079.9	incongruent	Block1	incongruent/STIM_012.jpg	100
257.109	1.335	1335.4	incongruent	Block1	incongruent/STIM_012.jpg	100
262.323	0.671	670.6	incongruent	Block1	incongruent/STIM_012.jpg	100
266.892	1.568	1567.6	incongruent	Block1	incongruent/STIM_013.jpg	100
270.647	1.024	1024.0	incongruent	Block1	incongruent/STIM_013.jpg	99
274.473	1.057	1056.9	incongruent	Block1	incongruent/STIM_013.jpg	100
278.529	1.392	1391.6	incongruent	Block1	incongruent/STIM_013.jpg	100
283.254	0.82	820.0	incongruent	Block1	incongruent/STIM_013.jpg	100
286.995	1.591	1591.4	incongruent	Block1	incongruent/STIM_014.jpg	99
292.496	0.766	766.3	incongruent	Block1	incongruent/STIM_014.jpg	100
295.793	0.749	748.9	incongruent	Block1	incongruent/STIM_014.jpg	100
300.3	1.345	1344.7	incongruent	Block1	incongruent/STIM_014.jpg	99
304.619	0.757	757.3	incongruent	Block1	incongruent/STIM_014.jpg	100
308.827	1.624	1624.5	incongruent	Block1	incongruent/STIM_015.jpg	99
313.194	1.409	1409.0	incongruent	Block1	incongruent/STIM_015.jpg	99
317.713	0.762	762.3	incongruent	Block1	incongruent/STIM_015.jpg	100
321.864	0.769	769.2	incongruent	Block1	incongruent/STIM_015.jpg	99
326.133	0.925	925.3	incongruent	Block1	incongruent/STIM_015.jpg	100
330.923	1.441	1441.0	incongruent	Block1	incongruent/STIM_016.jpg	100
335.443	0.804	804.0	incongruent	Block1	incongruent/STIM_016.jpg	100
339.06	1.05	1050.0	incongruent	Block1	incongruent/STIM_016.jpg	99
343.102	1.134	1133.6	incongruent	Block1	incongruent/STIM_016.jpg	100
347.814	1.161	1161.1	incongruent	Block1	incongruent/STIM_016.jpg	100
352.646	0.876	875.6	incongruent	Block1	incongruent/STIM_017.jpg	99
357.121	0.848	847.9	incongruent	Block1	incongruent/STIM_017.jpg	100
360.003	1.125	1124.7	incongruent	Block1	incongruent/STIM_017.jpg	100
364.864	1.068	1067.7	incongruent	Block1	incongruent/STIM_017.jpg	100
369.819	0.751	751.3	incongruent	Block1	incongruent/STIM_017.jpg	100
373.416	1.59	1589.9	incongruent	Block1	incongruent/STIM_018.jpg	100
377.67	1.004	1003.9	incongruent	Block1	incongruent/STIM_018.jpg	100
381.438	0.895	894.7	incongruent	Block1	incongruent/STIM_018.jpg	100
385.623	0.682	681.7	incongruent	Block1	incongruent/STIM_018.jpg	99
389.898	1.284	1284.2	incongruent	Block1	incongruent/STIM_018.jpg	100
394.777	1.48	1480.4	incongruent	Block1	incongruent/STIM_019.jpg	99
399.965	1.465	1465.2	incongruent	Block1	incongruent/STIM_019.jpg	100
405.068	0.872	872.4	incongruent	Block1	incongruent/STIM_019.jpg	99
408.943	0.936	935.5	incongruent	Block1	incongruent/STIM_019.jpg	99
412.292	0.687	687.2	incongruent	Block1	incongruent/STIM_019.jpg	100
416.796	1.647	1647.1	incongruent	Block1	incongruent/STIM_020.jpg	100
422.299	1.004	1004.5	incongruent	Block1	incongruent/STIM_020.jpg	100
425.357	0.987	987.2	incongruent	Block1	incongruent/STIM_020.jpg	100
429.119	1.334	1334.1	incongruent	Block1	incongruent/STIM_020.jpg	100
432.608	1.112	1111.6	incongruent	Block1	incongruent/STIM_020.jpg	99
436.245	1.092	1092.3	incongruent	Block1	incongruent/STIM_021.jpg	99
440.53	1.15	1150.3	incongruent	Block1	incongruent/STIM_021.jpg	100
444.144	0.857	856.8	incongruent	Block1	incongruent/STIM_021.jpg	99
448.416	1.001	1001.4	incongruent	Block1	incongruent/STIM_021.jpg	99
452.505	1.266	1265.5	incongruent	Block1	incongruent/STIM_021.jpg	99
455.889	1.212	1212.4	incongruent	Block1	incongruent/STIM_022.jpg	99
459.286	1.007	1007.3	incongruent	Block1	incongruent/STIM_022.jpg	99
462.799	1.37	1369.9	incongruent	Block1	incongruent/STIM_022.jpg	100
467.476	1.374	1373.7	incongruent	Block1	incongruent/STIM_022.jpg	100
472.745	0.7	700.5	incongruent	Block1	incongruent/STIM_022.jpg	100
475.618	0.798	798.0	incongruent	Block1	incongruent/STIM_023.jpg	100
480.082	1.433	1433.1	incongruent	Block1	incongruent/STIM_023.jpg	100
485.076	1.058	1058.5	incongruent	Block1	incongruent/STIM_023.jpg	100
488.233	1.053	1052.7	incongruent	Block1	incongruent/STIM_023.jpg	100
492.275	0.926	926.1	incongruent	Block1	incongruent/STIM_023.jpg	100
495.879	0.952	951.9	incongruent	Block1	incongruent/STIM_024.jpg	100
499.179	1.101	1100.6	incongruent	Block1	incongruent/STIM_024.jpg	100
502.311	0.941	941.4	incongruent	Block1	incongruent/STIM_024.jpg	99
506.817	0.742	742.0	incongruent	Block1	incongruent/STIM_024.jpg	100
510.223	0.656	655.7	incongruent	Block1	incongruent/STIM_024.jpg	99
512.934	1.64	1640.0	incongruent	Block1	incongruent/STIM_025.jpg	100
518.122	0.755	755.3	incongruent	Block1	incongruent/STIM_025.jpg	100
521.469	1.498	1498.0	incongruent	Block1	incongruent/STIM_025.jpg	100
525.281	0.68	679.6	incongruent	Block1	incongruent/STIM_025.jpg	99
529.022	0.87	870.4	incongruent	Block1	incongruent/STIM_025.jpg	100
533.566	1.162	1162.5	incongruent	Block1	incongruent/STIM_026.jpg	100
537.535	1.374	1374.0	incongruent	Block1	incongruent/STIM_026.jpg	100
542.839	0.728	727.8	incongruent	Block1	incongruent/STIM_026.jpg	99
546.993	1.141	1140.7	incongruent	Block1	incongruent/STIM_026.jpg	99
552.082	0.911	910.6	incongruent	Block1	incongruent/STIM_026.jpg	100
556.667	1.291	1291.4	incongruent	Block1	incongruent/STIM_027.jpg	99
560.972	1.304	1304.3	incongruent	Block1	incongruent/STIM_027.jpg	100
564.861	0.944	944.1	incongruent	Block1	incongruent/STIM_027.jpg	100
568.0	0.92	920.5	incongruent	Block1	incongruent/STIM_027.jpg	100
572.906	0.807	806.9	incongruent	Block1	incongruent/STIM_027.jpg	99
576.119	1.627	1626.8	incongruent	Block1	incongruent/STIM_028.jpg	100
579.808	1.434	1433.7	incongruent	Block1	incongruent/STIM_028.jpg	100
584.358	1.003	1003.1	incongruent	Block1	incongruent/STIM_028.jpg	100
588.821	0.994	994.4	incongruent	Block1	incongruent/STIM_028.jpg	100
592.861	0.905	905.4	incongruent	Block1	incongruent/STIM_028.jpg	100
597.421	1.428	1427.8	incongruent	Block1	incongruent/STIM_029.jpg	99
602.549	1.476	1476.4	incongruent	Block1	incongruent/STIM_029.jpg	99
607.784	1.156	1156.3	incongruent	Block1	incongruent/STIM_029.jpg	100
612.614	0.997	996.6	incongruent	Block1	incongruent/STIM_029.jpg	100
616.339	0.698	697.8	incongruent	Block1	incongruent/STIM_029.jpg	100
619.693	0.951	951.4	congruent	Block1	congruent/STIM_000.jpg	99
623.7	0.805	805.2	congruent	Block1	congruent/STIM_000.jpg	100
627.234	0.881	881.1	congruent	Block1	congruent/STIM_000.jpg	99
630.92	0.991	990.6	congruent	Block1	congruent/STIM_000.jpg	99
634.795	0.718	718.3	congruent	Block1	congruent/STIM_000.jpg	99
637.535	0.844	843.6	congruent	Block1	congruent/STIM_001.jpg	100
641.833	0.812	811.5	congruent	Block1	congruent/STIM_001.jpg	100
645.42	0.883	882.6	congruent	Block1	congruent/STIM_001.jpg	100
650.196	0.83	829.8	congruent	Block1	congruent/STIM_001.jpg	99
654.764	0.888	888.3	congruent	Block1	congruent/STIM_001.jpg	99
659.121	0.842	842.2	congruent	Block1	congruent/STIM_002.jpg	100
663.39	0.616	616.5	congruent	Block1	congruent/STIM_002.jpg	99
667.537	0.688	688.3	congruent	Block1	congruent/STIM_002.jpg	100
671.495	0.804	804.0	congruent	Block1	congruent/STIM_002.jpg	99
675.619	0.868	868.1	congruent	Block1	congruent/STIM_002.jpg	99
678.504	0.574	574.0	congruent	Block1	congruent/STIM_003.jpg	100
681.472	0.956	955.9	congruent	Block1	congruent/STIM_003.jpg	99
684.968	0.781	780.7	congruent	Block1	congruent/STIM_003.jpg	100
689.393	0.692	691.7	congruent	Block1	congruent/STIM_003.jpg	100
692.772	0.794	793.8	congruent	Block1	congruent/STIM_003.jpg	99
696.508	0.692	692.4	congruent	Block1	congruent/STIM_004.jpg	99
700.833	0.784	784.0	congruent	Block1	congruent/STIM_004.jpg	100
704.209	0.902	901.5	congruent	Block1	congruent/STIM_004.jpg	100
708.629	0.898	897.9	congruent	Block1	congruent/STIM_004.jpg	100
712.172	0.903	902.6	congruent	Block1	congruent/STIM_004.jpg	99
716.639	0.706	705.5	congruent	Block1	congruent/STIM_005.jpg	99
719.789	0.788	788.2	congruent	Block1	congruent/STIM_005.jpg	100
724.472	0.729	728.9	congruent	Block1	congruent/STIM_005.jpg	100
727.966	0.994	994.0	congruent	Block1	congruent/STIM_005.jpg	100
731.291	0.971	971.1	congruent	Block1	congruent/STIM_005.jpg	100
736.07	0.908	907.8	congruent	Block1	congruent/STIM_006.jpg	99
739.111	0.719	718.7	congruent	Block1	congruent/STIM_006.jpg	100
742.14	0.818	818.0	congruent	Block1	congruent/STIM_006.jpg	99
746.687	0.907	907.4	congruent	Block1	congruent/STIM_006.jpg	99
750.76	0.611	610.9	congruent	Block1	congruent/STIM_006.jpg	100
754.552	0.917	916.6	congruent	Block1	congruent/STIM_007.jpg	100
759.376	0.616	615.8	congruent	Block1	congruent/STIM_007.jpg	99
762.104	0.852	851.6	congruent	Block1	congruent/STIM_007.jpg	100
766.668	0.622	621.5	congruent	Block1	congruent/STIM_007.jpg	99
770.638	0.78	780.0	congruent	Block1	congruent/STIM_007.jpg	100
774.857	0.602	601.7	congruent	Block1	congruent/STIM_008.jpg	99
778.639	0.837	837.4	congruent	Block1	congruent/STIM_008.jpg	100
782.377	0.576	576.3	congruent	Block1	congruent/STIM_008.jpg	99
785.256	0.922	922.0	congruent	Block1	congruent/STIM_008.jpg	100
789.418	0.584	584.2	congruent	Block1	congruent/STIM_008.jpg	99
792.55	0.769	768.8	congruent	Block1	congruent/STIM_009.jpg	100
797.172	0.612	612.0	congruent	Block1	congruent/STIM_009.jpg	100
800.633	0.557	557.1	congruent	Block1	congruent/STIM_009.jpg	100
804.339	0.794	794.3	congruent	Block1	congruent/STIM_009.jpg	100
807.214	1.0	999.8	congruent	Block1	congruent/STIM_009.jpg	99
810.323	0.917	917.2	congruent	Block1	congruent/STIM_010.jpg	100
815.191	1.0	1000.5	congruent	Block1	congruent/STIM_010.jpg	100
820.038	0.976	976.2	congruent	Block1	congruent/STIM_010.jpg	100
824.619	0.901	900.9	congruent	Block1	congruent/STIM_010.jpg	99
829.31	0.75	749.9	congruent	Block1	congruent/STIM_010.jpg	100
833.344	0.675	675.4	congruent	Block1	congruent/STIM_011.jpg	100
836.279	0.621	621.2	congruent	Block1	congruent/STIM_011.jpg	100
839.022	0.839	838.7	congruent	Block1	congruent/STIM_011.jpg	100
843.3	0.706	706.5	congruent	Block1	congruent/STIM_011.jpg	99
846.781	0.927	926.6	congruent	Block1	congruent/STIM_011.jpg	100
851.672	0.68	679.9	congruent	Block1	congruent/STIM_012.jpg	99
855.789	0.826	825.6	congruent	Block1	congruent/STIM_012.jpg	100
860.043	0.97	970.1	congruent	Block1	congruent/STIM_012.jpg	100
864.71	0.751	751.4	congruent	Block1	congruent/STIM_012.jpg	99
867.532	0.617	617.4	congruent	Block1	congruent/STIM_012.jpg	99
870.242	0.645	644.7	congruent	Block1	congruent/STIM_013.jpg	100
874.123	0.925	925.0	congruent	Block1	congruent/STIM_013.jpg	99
877.311	0.742	741.5	congruent	Block1	congruent/STIM_013.jpg	100
880.054	0.988	988.0	congruent	Block1	congruent/STIM_013.jpg	100
883.858	0.761	760.9	congruent	Block1	congruent/STIM_013.jpg	100
887.769	0.758	758.4	congruent	Block1	congruent/STIM_014.jpg	100
890.816	0.581	580.9	congruent	Block1	congruent/STIM_014.jpg	99
894.442	0.608	608.0	congruent	Block1	congruent/STIM_014.jpg	100
898.537	0.9	900.5	congruent	Block1	congruent/STIM_014.jpg	99
901.468	0.758	758.5	congruent	Block1	congruent/STIM_014.jpg	99
905.304	0.788	788.5	congruent	Block1	congruent/STIM_015.jpg	99
909.358	0.623	623.2	congruent	Block1	congruent/STIM_015.jpg	100
912.902	0.556	556.2	congruent	Block1	congruent/STIM_015.jpg	99
916.915	0.806	805.8	congruent	Block1	congruent/STIM_015.jpg	99
919.797	0.558	558.4	congruent	Block1	congruent/STIM_015.jpg	99
923.918	0.556	555.9	congruent	Block1	congruent/STIM_016.jpg	99
927.64	0.643	643.0	congruent	Block1	congruent/STIM_016.jpg	100
931.455	0.569	569.0	congruent	Block1	congruent/STIM_016.jpg	99
934.027	0.889	889.2	congruent	Block1	congruent/STIM_016.jpg	100
938.197	0.7	699.8	congruent	Block1	congruent/STIM_016.jpg	99
941.642	0.822	822.4	congruent	Block1	congruent/STIM_017.jpg	99
945.916	0.865	865.3	congruent	Block1	congruent/STIM_017.jpg	100
949.185	0.841	841.3	congruent	Block1	congruent/STIM_017.jpg	100
953.354	0.845	844.9	congruent	Block1	congruent/STIM_017.jpg	100
957.272	0.814	814.5	congruent	Block1	congruent/STIM_017.jpg	100
960.612	0.87	869.7	congruent	Block1	congruent/STIM_018.jpg	100
963.876	0.735	735.0	congruent	Block1	congruent/STIM_018.jpg	99
967.29	0.593	593.1	congruent	Block1	congruent/STIM_018.jpg	100
971.047	0.906	906.0	congruent	Block1	congruent/STIM_018.jpg	100
975.766	0.724	723.8	congruent	Block1	congruent/STIM_018.jpg	99
978.908	0.776	776.4	congruent	Block1	congruent/STIM_019.jpg	99
982.14	0.818	818.3	congruent	Block1	congruent/STIM_019.jpg	99
985.002	0.937	937.4	congruent	Block1	congruent/STIM_019.jpg	100
988.814	0.597	597.4	congruent	Block1	congruent/STIM_019.jpg	100
992.963	0.989	988.6	congruent	Block1	congruent/STIM_019.jpg	99
997.634	0.671	671.0	congruent	Block1	congruent/STIM_020.jpg	99
1001.849	0.937	936.7	congruent	Block1	congruent/STIM_020.jpg	100
1006.743	0.562	562.2	congruent	Block1	congruent/STIM_020.jpg	99
1009.984	0.953	953.4	congruent	Block1	congruent/STIM_020.jpg	100
1013.996	0.725	725.2	congruent	Block1	congruent/STIM_020.jpg	99
1018.141	0.681	680.6	congruent	Block1	congruent/STIM_021.jpg	99
1022.558	0.733	733.3	congruent	Block1	congruent/STIM_021.jpg	99
1026.69	0.968	968.4	congruent	Block1	congruent/STIM_021.jpg	100
1030.145	0.721	720.9	congruent	Block1	congruent/STIM_021.jpg	99
1033.973	0.668	668.5	congruent	Block1	congruent/STIM_021.jpg	99
1038.176	0.745	744.8	congruent	Block1	congruent/STIM_022.jpg	100
1041.719	0.943	943.2	congruent	Block1	congruent/STIM_022.jpg	99
1046.054	0.767	766.8	congruent	Block1	congruent/STIM_022.jpg	99
1049.792	0.749	749.4	congruent	Block1	congruent/STIM_022.jpg	99
1054.401	0.61	609.8	congruent	Block1	congruent/STIM_022.jpg	100
1058.336	0.956	955.8	congruent	Block1	congruent/STIM_023.jpg	99
1062.345	0.68	680.0	congruent	Block1	congruent/STIM_023.jpg	99
1066.391	0.585	585.1	congruent	Block1	congruent/STIM_023.jpg	99
1069.367	0.89	890.5	congruent	Block1	congruent/STIM_023.jpg	100
1072.904	0.94	940.1	congruent	Block1	congruent/STIM_023.jpg	99
1077.151	0.778	778.3	congruent	Block1	congruent/STIM_024.jpg	99
1080.249	0.795	795.4	congruent	Block1	congruent/STIM_024.jpg	100
1084.247	0.615	615.3	congruent	Block1	congruent/STIM_024.jpg	100
1087.093	0.837	837.2	congruent	Block1	congruent/STIM_024.jpg	100
1091.337	0.939	939.0	congruent	Block1	congruent/STIM_024.jpg	100
1096.269	0.965	964.9	congruent	Block1	congruent/STIM_025.jpg	100
1100.717	0.721	720.9	congruent	Block1	congruent/STIM_025.jpg	100
1103.744	0.965	964.9	congruent	Block1	congruent/STIM_025.jpg	99
1108.165	0.855	855.1	congruent	Block1	congruent/STIM_025.jpg	99
1112.884	0.64	639.8	congruent	Block1	congruent/STIM_025.jpg	100
1117.319	0.762	761.5	congruent	Block1	congruent/STIM_026.jpg	100
1121.634	0.889	888.6	congruent	Block1	congruent/STIM_026.jpg	99
1124.662	0.615	614.6	congruent	Block1	congruent/STIM_026.jpg	99
1127.759	0.88	879.7	congruent	Block1	congruent/STIM_026.jpg	99
1131.279	0.947	946.8	congruent	Block1	congruent/STIM_026.jpg	99
1135.789	0.629	629.0	congruent	Block1	congruent/STIM_027.jpg	99
1139.073	0.598	598.1	congruent	Block1	congruent/STIM_027.jpg	100
1143.041	0.995	994.7	congruent	Block1	congruent/STIM_027.jpg	99
1146.092	0.898	898.5	congruent	Block1	congruent/STIM_027.jpg	99
1149.286	0.754	754.5	congruent	Block1	congruent/STIM_027.jpg	99
1153.279	0.805	804.6	congruent	Block1	congruent/STIM_028.jpg	100
1156.084	0.89	890.2	congruent	Block1	congruent/STIM_028.jpg	99
1159.126	0.587	587.1	congruent	Block1	congruent/STIM_028.jpg	100
1163.252	0.997	996.9	congruent	Block1	congruent/STIM_028.jpg	99
1168.1	0.704	704.2	congruent	Block1	congruent/STIM_028.jpg	99
1171.82	0.621	621.3	congruent	Block1	congruent/STIM_029.jpg	99
1175.414	0.897	897.1	congruent	Block1	congruent/STIM_029.jpg	99
1178.557	0.771	770.8	congruent	Block1	congruent/STIM_029.jpg	100
1181.517	0.669	668.9	congruent	Block1	congruent/STIM_029.jpg	100
1184.661	0.734	733.8	congruent	Block1	congruent/STIM_029.jpg	100
1187.484	1.395	1395.2	incongruent	Block2	incongruent/STIM_000.jpg	99
1192.872	0.991	991.3	incongruent	Block2	incongruent/STIM_000.jpg	99
1196.653	1.061	1060.7	incongruent	Block2	incongruent/STIM_000.jpg	99
1199.98	1.078	1078.1	incongruent	Block2	incongruent/STIM_000.jpg	99
1203.673	0.621	621.1	incongruent	Block2	incongruent/STIM_000.jpg	99
1206.888	1.207	1206.9	incongruent	Block2	incongruent/STIM_001.jpg	99
1210.916	0.675	675.2	incongruent	Block2	incongruent/STIM_001.jpg	99
1214.517	0.832	831.5	incongruent	Block2	incongruent/STIM_001.jpg	99
1218.052	0.925	925.3	incongruent	Block2	incongruent/STIM_001.jpg	99
1221.715	1.164	1163.6	incongruent	Block2	incongruent/STIM_001.jpg	99
1226.327	1.302	1301.7	incongruent	Block2	incongruent/STIM_002.jpg	100
1231.21	0.967	967.1	incongruent	Block2	incongruent/STIM_002.jpg	100
1235.74	0.769	769.0	incongruent	Block2	incongruent/STIM_002.jpg	100
1240.434	1.141	1140.8	incongruent	Block2	incongruent/STIM_002.jpg	99
1244.471	1.162	1162.2	incongruent	Block2	incongruent/STIM_002.jpg	99
1247.636	0.665	665.3	incongruent	Block2	incongruent/STIM_003.jpg	99
1251.777	1.1	1099.5	incongruent	Block2	incongruent/STIM_003.jpg	99
1256.117	0.939	939.0	incongruent	Block2	incongruent/STIM_003.jpg	99
1259.767	1.008	1008.3	incongruent	Block2	incongruent/STIM_003.jpg	100
1263.169	0.549	548.7	incongruent	Block2	incongruent/STIM_003.jpg	100
1266.471	1.0	1000.2	incongruent	Block2	incongruent/STIM_004.jpg	99
1269.849	1.028	1028.1	incongruent	Block2	incongruent/STIM_004.jpg	99
1272.988	1.019	1018.9	incongruent	Block2	incongruent/STIM_004.jpg	100
1276.372	0.774	774.4	incongruent	Block2	incongruent/STIM_004.jpg	100
1279.587	1.146	1145.8	incongruent	Block2	incongruent/STIM_004.jpg	100
1283.482	1.186	1186.2	incongruent	Block2	incongruent/STIM_005.jpg	100
1287.656	1.039	1039.3	incongruent	Block2	incongruent/STIM_005.jpg	99
1291.133	0.753	753.2	incongruent	Block2	incongruent/STIM_005.jpg	99
1294.481	0.732	731.6	incongruent	Block2	incongruent/STIM_005.jpg	100
1298.595	0.736	736.1	incongruent	Block2	incongruent/STIM_005.jpg	100
1301.887	0.888	887.5	incongruent	Block2	incongruent/STIM_006.jpg	100
1305.13	1.305	1304.9	incongruent	Block2	incongruent/STIM_006.jpg	99
1309.065	1.144	1143.9	incongruent	Block2	incongruent/STIM_006.jpg	100
1313.99	1.006	1006.0	incongruent	Block2	incongruent/STIM_006.jpg	100
1317.066	0.902	901.9	incongruent	Block2	incongruent/STIM_006.jpg	100
1320.968	0.68	680.1	incongruent	Block2	incongruent/STIM_007.jpg	99
1324.983	1.135	1135.2	incongruent	Block2	incongruent/STIM_007.jpg	100
1328.453	1.122	1121.8	incongruent	Block2	incongruent/STIM_007.jpg	100
1332.786	0.868	868.0	incongruent	Block2	incongruent/STIM_007.jpg	99
1336.124	1.102	1102.3	incongruent	Block2	incongruent/STIM_007.jpg	100
1341.188	1.021	1021.3	incongruent	Block2	incongruent/STIM_008.jpg	99
1345.408	0.915	914.9	incongruent	Block2	incongruent/STIM_008.jpg	99
1349.053	0.886	886.0	incongruent	Block2	incongruent/STIM_008.jpg	100
1352.72	1.121	1120.6	incongruent	Block2	incongruent/STIM_008.jpg	100
1356.952	0.552	551.8	incongruent	Block2	incongruent/STIM_008.jpg	99
1360.791	0.761	761.0	incongruent	Block2	incongruent/STIM_009.jpg	100
1363.889	1.027	1026.6	incongruent	Block2	incongruent/STIM_009.jpg	100
1368.852	1.122	1121.7	incongruent	Block2	incongruent/STIM_009.jpg	99
1372.547	1.061	1061.2	incongruent	Block2	incongruent/STIM_009.jpg	99
1376.072	0.853	852.8	incongruent	Block2	incongruent/STIM_009.jpg	100
1379.826	0.828	827.7	incongruent	Block2	incongruent/STIM_010.jpg	99
1384.532	1.01	1010.4	incongruent	Block2	incongruent/STIM_010.jpg	100
1389.538	0.602	601.7	incongruent	Block2	incongruent/STIM_010.jpg	99
1392.423	1.019	1019.3	incongruent	Block2	incongruent/STIM_010.jpg	100
1396.449	0.596	595.6	incongruent	Block2	incongruent/STIM_010.jpg	99
1400.071	1.257	1257.4	incongruent	Block2	incongruent/STIM_011.jpg	100
1405.023	1.084	1084.4	incongruent	Block2	incongruent/STIM_011.jpg	100
1409.973	1.002	1001.7	incongruent	Block2	incongruent/STIM_011.jpg	99
1414.161	0.569	569.2	incongruent	Block2	incongruent/STIM_011.jpg	100
1417.249	0.719	718.8	incongruent	Block2	incongruent/STIM_011.jpg	99
1420.672	0.92	920.5	incongruent	Block2	incongruent/STIM_012.jpg	99
1424.396	1.231	1231.1	incongruent	Block2	incongruent/STIM_012.jpg	100
1428.936	0.98	980.3	incongruent	Block2	incongruent/STIM_012.jpg	100
1431.977	0.832	831.6	incongruent	Block2	incongruent/STIM_012.jpg	100
1435.247	0.652	651.5	incongruent	Block2	incongruent/STIM_012.jpg	100
1438.436	1.097	1097.2	incongruent	Block2	incongruent/STIM_013.jpg	99
1442.665	1.002	1002.2	incongruent	Block2	incongruent/STIM_013.jpg	99
1445.983	1.063	1063.1	incongruent	Block2	incongruent/STIM_013.jpg	100
1450.496	0.788	788.5	incongruent	Block2	incongruent/STIM_013.jpg	99
1454.071	0.573	572.9	incongruent	Block2	incongruent/STIM_013.jpg	99
1458.227	0.667	666.8	incongruent	Block2	incongruent/STIM_014.jpg	100
1461.962	0.939	939.4	incongruent	Block2	incongruent/STIM_014.jpg	99
1464.939	0.708	707.8	incongruent	Block2	incongruent/STIM_014.jpg	99
1467.981	1.008	1008.3	incongruent	Block2	incongruent/STIM_014.jpg	99
1472.987	1.077	1076.6	incongruent	Block2	incongruent/STIM_014.jpg	99
1477.616	1.22	1219.8	incongruent	Block2	incongruent/STIM_015.jpg	99
1481.729	1.175	1175.0	incongruent	Block2	incongruent/STIM_015.jpg	100
1486.552	0.698	697.9	incongruent	Block2	incongruent/STIM_015.jpg	100
1489.859	1.145	1145.2	incongruent	Block2	incongruent/STIM_015.jpg	99
1494.638	1.166	1165.6	incongruent	Block2	incongruent/STIM_015.jpg	99
1498.369	1.17	1169.8	incongruent	Block2	incongruent/STIM_016.jpg	99
1501.927	1.068	1067.8	incongruent	Block2	incongruent/STIM_016.jpg	100
1506.803	1.074	1074.5	incongruent	Block2	incongruent/STIM_016.jpg	99
1510.487	0.978	977.7	incongruent	Block2	incongruent/STIM_016.jpg	99
1514.182	1.1	1099.7	incongruent	Block2	incongruent/STIM_016.jpg	100
1519.106	0.836	836.4	incongruent	Block2	incongruent/STIM_017.jpg	100
1522.518	0.76	759.8	incongruent	Block2	incongruent/STIM_017.jpg	99
1525.876	0.957	956.9	incongruent	Block2	incongruent/STIM_017.jpg	100
1530.747	0.95	950.5	incongruent	Block2	incongruent/STIM_017.jpg	100
1535.524	0.782	781.8	incongruent	Block2	incongruent/STIM_017.jpg	100
1540.283	0.824	823.9	incongruent	Block2	incongruent/STIM_018.jpg	100
1544.386	0.717	716.8	incongruent	Block2	incongruent/STIM_018.jpg	100
1547.592	1.212	1212.5	incongruent	Block2	incongruent/STIM_018.jpg	100
1551.73	1.124	1124.4	incongruent	Block2	incongruent/STIM_018.jpg	100
1556.465	0.554	553.7	incongruent	Block2	incongruent/STIM_018.jpg	99
1560.398	0.706	705.7	incongruent	Block2	incongruent/STIM_019.jpg	99
1564.619	0.988	988.5	incongruent	Block2	incongruent/STIM_019.jpg	100
1568.551	0.885	885.1	incongruent	Block2	incongruent/STIM_019.jpg	99
1573.259	0.638	638.3	incongruent	Block2	incongruent/STIM_019.jpg	99
1576.546	0.929	929.2	incongruent	Block2	incongruent/STIM_019.jpg	99
1580.88	0.812	812.0	incongruent	Block2	incongruent/STIM_020.jpg	99
1584.686	0.998	997.6	incongruent	Block2	incongruent/STIM_020.jpg	99
1589.183	1.121	1121.1	incongruent	Block2	incongruent/STIM_020.jpg	99
1593.145	0.836	836.0	incongruent	Block2	incongruent/STIM_020.jpg	100
1597.348	0.615	614.9	incongruent	Block2	incongruent/STIM_020.jpg	99
1601.402	1.208	1207.9	incongruent	Block2	incongruent/STIM_021.jpg	99
1605.57	1.235	1235.1	incongruent	Block2	incongruent/STIM_021.jpg	100
1610.454	0.84	839.6	incongruent	Block2	incongruent/STIM_021.jpg	99
1613.495	0.989	989.1	incongruent	Block2	incongruent/STIM_021.jpg	100
1618.071	1.08	1079.6	incongruent	Block2	incongruent/STIM_021.jpg	99
1621.432	1.181	1180.7	incongruent	Block2	incongruent/STIM_022.jpg	99
1625.345	0.63	629.7	incongruent	Block2	incongruent/STIM_022.jpg	99
1627.978	0.726	725.6	incongruent	Block2	incongruent/STIM_022.jpg	99
1632.16	1.149	1148.7	incongruent	Block2	incongruent/STIM_022.jpg	100
1636.977	0.721	720.8	incongruent	Block2	incongruent/STIM_022.jpg	99
1639.862	0.925	924.9	incongruent	Block2	incongruent/STIM_023.jpg	99
1644.64	1.156	1155.8	incongruent	Block2	incongruent/STIM_023.jpg	100
1648.635	0.841	841.1	incongruent	Block2	incongruent/STIM_023.jpg	100
1652.509	0.994	994.4	incongruent	Block2	incongruent/STIM_023.jpg	99
1656.472	0.925	925.2	incongruent	Block2	incongruent/STIM_023.jpg	99
1659.495	0.77	769.9	incongruent	Block2	incongruent/STIM_024.jpg	99
1662.77	0.687	687.1	incongruent	Block2	incongruent/STIM_024.jpg	99
1666.458	0.794	793.7	incongruent	Block2	incongruent/STIM_024.jpg	100
1670.828	0.805	805.2	incongruent	Block2	incongruent/STIM_024.jpg	99
1673.8	0.958	958.2	incongruent	Block2	incongruent/STIM_024.jpg	100
1678.363	0.913	912.6	incongruent	Block2	incongruent/STIM_025.jpg	99
1681.858	0.797	797.2	incongruent	Block2	incongruent/STIM_025.jpg	99
1686.077	0.636	636.0	incongruent	Block2	incongruent/STIM_025.jpg	100
1690.006	1.055	1054.6	incongruent	Block2	incongruent/STIM_025.jpg	99
1693.975	0.644	644.4	incongruent	Block2	incongruent/STIM_025.jpg	99
1698.323	1.106	1105.9	incongruent	Block2	incongruent/STIM_026.jpg	100
1702.947	0.731	731.3	incongruent	Block2	incongruent/STIM_026.jpg	99
1705.785	1.248	1248.4	incongruent	Block2	incongruent/STIM_026.jpg	99
1710.956	0.836	835.5	incongruent	Block2	incongruent/STIM_026.jpg	99
1713.846	0.686	685.9	incongruent	Block2	incongruent/STIM_026.jpg	99
1717.186	1.334	1333.6	incongruent	Block2	incongruent/STIM_027.jpg	100
1721.764	0.696	696.5	incongruent	Block2	incongruent/STIM_027.jpg	100
1726.223	0.715	714.6	incongruent	Block2	incongruent/STIM_027.jpg	100
1730.396	1.148	1148.1	incongruent	Block2	incongruent/STIM_027.jpg	99
1733.752	0.993	992.9	incongruent	Block2	incongruent/STIM_027.jpg	100
1738.523	0.772	771.5	incongruent	Block2	incongruent/STIM_028.jpg	100
1742.052	0.675	674.7	incongruent	Block2	incongruent/STIM_028.jpg	100
1745.779	1.017	1016.9	incongruent	Block2	incongruent/STIM_028.jpg	100
1749.412	0.711	711.2	incongruent	Block2	incongruent/STIM_028.jpg	100
1753.233	1.072	1072.3	incongruent	Block2	incongruent/STIM_028.jpg	100
1757.64	1.077	1077.1	incongruent	Block2	incongruent/STIM_029.jpg	99
1761.938	1.084	1084.0	incongruent	Block2	incongruent/STIM_029.jpg	100
1765.565	1.228	1228.4	incongruent	Block2	incongruent/STIM_029.jpg	99
1769.312	1.12	1120.1	incongruent	Block2	incongruent/STIM_029.jpg	99
1772.933	1.163	1162.7	incongruent	Block2	incongruent/STIM_029.jpg	100
1777.306	0.786	786.5	congruent	Block2	congruent/STIM_000.jpg	100
1780.608	0.969	969.4	congruent	Block2	congruent/STIM_000.jpg	100
1785.101	0.692	692.2	congruent	Block2	congruent/STIM_000.jpg	100
1788.96	0.673	673.0	congruent	Block2	congruent/STIM_000.jpg	99
1792.184	0.682	681.5	congruent	Block2	congruent/STIM_000.jpg	100
1796.19	0.557	557.2	congruent	Block2	congruent/STIM_001.jpg	99
1800.253	0.627	626.7	congruent	Block2	congruent/STIM_001.jpg	100
1803.305	0.666	665.5	congruent	Block2	congruent/STIM_001.jpg	99
1806.866	0.913	912.8	congruent	Block2	congruent/STIM_001.jpg	99
1810.255	0.736	736.5	congruent	Block2	congruent/STIM_001.jpg	99
1814.486	0.977	976.8	congruent	Block2	congruent/STIM_002.jpg	100
1818.912	0.583	583.0	congruent	Block2	congruent/STIM_002.jpg	100
1823.124	0.978	978.4	congruent	Block2	congruent/STIM_002.jpg	100
1826.861	0.885	884.6	congruent	Block2	congruent/STIM_002.jpg	99
1831.175	0.823	823.4	congruent	Block2	congruent/STIM_002.jpg	100
1835.785	0.719	719.1	congruent	Block2	congruent/STIM_003.jpg	99
1839.562	0.607	606.7	congruent	Block2	congruent/STIM_003.jpg	99
1843.008	0.9	899.6	congruent	Block2	congruent/STIM_003.jpg	100
1846.902	0.827	827.3	congruent	Block2	congruent/STIM_003.jpg	99
1851.357	0.869	869.4	congruent	Block2	congruent/STIM_003.jpg	99
1855.32	0.725	725.1	congruent	Block2	congruent/STIM_004.jpg	99
1859.1	0.625	624.7	congruent	Block2	congruent/STIM_004.jpg	100
1861.799	0.993	993.4	congruent	Block2	congruent/STIM_004.jpg	99
1865.698	0.934	934.5	congruent	Block2	congruent/STIM_004.jpg	100
1869.772	0.576	576.2	congruent	Block2	congruent/STIM_004.jpg	99
1872.793	0.96	959.6	congruent	Block2	congruent/STIM_005.jpg	99
1875.918	0.565	564.9	congruent	Block2	congruent/STIM_005.jpg	100
1879.486	0.751	751.3	congruent	Block2	congruent/STIM_005.jpg	100
1882.565	0.85	849.8	congruent	Block2	congruent/STIM_005.jpg	100
1885.674	0.894	894.2	congruent	Block2	congruent/STIM_005.jpg	100
1889.515	0.818	818.3	congruent	Block2	congruent/STIM_006.jpg	99
1893.154	0.564	564.3	congruent	Block2	congruent/STIM_006.jpg	100
1896.326	0.895	895.2	congruent	Block2	congruent/STIM_006.jpg	100
1901.005	0.994	994.1	congruent	Block2	congruent/STIM_006.jpg	100
1904.684	0.629	629.3	congruent	Block2	congruent/STIM_006.jpg	100
1907.763	0.853	853.1	congruent	Block2	congruent/STIM_007.jpg	100
1911.974	0.846	846.3	congruent	Block2	congruent/STIM_007.jpg	99
1915.415	0.564	564.1	congruent	Block2	congruent/STIM_007.jpg	100
1919.507	0.953	953.4	congruent	Block2	congruent/STIM_007.jpg	100
1922.937	0.877	877.4	congruent	Block2	congruent/STIM_007.jpg	99
1927.497	0.959	958.8	congruent	Block2	congruent/STIM_008.jpg	100
1931.045	0.856	855.5	congruent	Block2	congruent/STIM_008.jpg	99
1935.337	0.682	682.0	congruent	Block2	congruent/STIM_008.jpg	100
1939.616	0.619	619.2	congruent	Block2	congruent/STIM_008.jpg	100
1943.104	0.933	932.6	congruent	Block2	congruent/STIM_008.jpg	100
1946.759	0.755	754.8	congruent	Block2	congruent/STIM_009.jpg	100
1950.936	0.626	626.2	congruent	Block2	congruent/STIM_009.jpg	99
1953.704	0.95	949.8	congruent	Block2	congruent/STIM_009.jpg	100
1957.211	0.7	699.9	congruent	Block2	congruent/STIM_009.jpg	99
1960.991	0.556	556.3	congruent	Block2	congruent/STIM_009.jpg	100
1965.482	0.877	877.3	congruent	Block2	congruent/STIM_010.jpg	99
1970.097	0.743	743.4	congruent	Block2	congruent/STIM_010.jpg	99
1974.001	0.692	691.6	congruent	Block2	congruent/STIM_010.jpg	99
1978.142	0.759	759.1	congruent	Block2	congruent/STIM_010.jpg	99
1981.998	0.663	663.3	congruent	Block2	congruent/STIM_010.jpg	100
1984.958	0.819	819.3	congruent	Block2	congruent/STIM_011.jpg	99
1989.127	0.998	997.5	congruent	Block2	congruent/STIM_011.jpg	99
1993.986	0.799	799.3	congruent	Block2	congruent/STIM_011.jpg	99
1998.492	0.998	997.5	congruent	Block2	congruent/STIM_011.jpg	100
2001.577	0.911	910.9	congruent	Block2	congruent/STIM_011.jpg	100
2004.5	0.864	863.5	congruent	Block2	congruent/STIM_012.jpg	100
2008.597	0.696	695.9	congruent	Block2	congruent/STIM_012.jpg	100
2011.398	0.569	569.3	congruent	Block2	congruent/STIM_012.jpg	100
2014.065	0.87	869.9	congruent	Block2	congruent/STIM_012.jpg	99
2017.453	0.7	700.0	congruent	Block2	congruent/STIM_012.jpg	99
2020.725	0.993	992.8	congruent	Block2	congruent/STIM_013.jpg	99
2024.386	0.888	888.0	congruent	Block2	congruent/STIM_013.jpg	100
2028.091	0.728	728.2	congruent	Block2	congruent/STIM_013.jpg	99
2031.966	0.958	958.3	congruent	Block2	congruent/STIM_013.jpg	100
2034.96	0.918	918.4	congruent	Block2	congruent/STIM_013.jpg	99
2038.697	0.61	610.5	congruent	Block2	congruent/STIM_014.jpg	100
2042.823	0.612	612.5	congruent	Block2	congruent/STIM_014.jpg	100
2047.093	0.634	633.8	congruent	Block2	congruent/STIM_014.jpg	99
2050.029	0.677	677.0	congruent	Block2	congruent/STIM_014.jpg	99
2054.235	0.814	814.3	congruent	Block2	congruent/STIM_014.jpg	99
2058.423	0.702	702.0	congruent	Block2	congruent/STIM_015.jpg	100
2062.458	0.834	834.5	congruent	Block2	congruent/STIM_015.jpg	100
2065.456	0.702	701.7	congruent	Block2	congruent/STIM_015.jpg	100
2068.458	0.94	940.0	congruent	Block2	congruent/STIM_015.jpg	100
2072.662	0.654	653.9	congruent	Block2	congruent/STIM_015.jpg	99
2077.267	0.672	672.1	congruent	Block2	congruent/STIM_016.jpg	99
2081.826	0.774	773.7	congruent	Block2	congruent/STIM_016.jpg	99
2086.252	0.908	908.1	congruent	Block2	congruent/STIM_016.jpg	99
2089.76	0.596	595.5	congruent	Block2	congruent/STIM_016.jpg	99
2092.36	0.829	828.7	congruent	Block2	congruent/STIM_016.jpg	100
2096.651	0.898	898.5	congruent	Block2	congruent/STIM_017.jpg	100
2100.534	0.58	580.0	congruent	Block2	congruent/STIM_017.jpg	100
2103.862	0.877	877.3	congruent	Block2	congruent/STIM_017.jpg	100
2108.097	0.658	657.8	congruent	Block2	congruent/STIM_017.jpg	100
2112.237	0.957	956.8	congruent	Block2	congruent/STIM_017.jpg	99
2117.068	0.578	578.2	congruent	Block2	congruent/STIM_018.jpg	99
2119.793	0.996	995.5	congruent	Block2	congruent/STIM_018.jpg	100
2123.586	0.71	709.7	congruent	Block2	congruent/STIM_018.jpg	99
2127.655	0.664	664.5	congruent	Block2	congruent/STIM_018.jpg	99
2131.209	0.849	848.9	congruent	Block2	congruent/STIM_018.jpg	99
2135.279	0.999	998.8	congruent	Block2	congruent/STIM_019.jpg	100
2139.445	0.665	665.1	congruent	Block2	congruent/STIM_019.jpg	100
2142.807	0.589	589.4	congruent	Block2	congruent/STIM_019.jpg	99
2146.9	0.718	717.6	congruent	Block2	congruent/STIM_019.jpg	99
2151.352	0.775	774.7	congruent	Block2	congruent/STIM_019.jpg	99
2155.611	0.744	743.8	congruent	Block2	congruent/STIM_020.jpg	100
2159.433	0.837	837.1	congruent	Block2	congruent/STIM_020.jpg	99
2164.17	0.852	852.1	congruent	Block2	congruent/STIM_020.jpg	100
2168.707	0.733	733.3	congruent	Block2	congruent/STIM_020.jpg	99
2171.847	0.602	602.5	congruent	Block2	congruent/STIM_020.jpg	100
2175.494	0.888	887.8	congruent	Block2	congruent/STIM_021.jpg	100
2180.126	0.715	714.8	congruent	Block2	congruent/STIM_021.jpg	100
2183.775	0.968	967.5	congruent	Block2	congruent/STIM_021.jpg	100
2188.576	0.848	847.7	congruent	Block2	congruent/STIM_021.jpg	100
2191.947	0.942	942.2	congruent	Block2	congruent/STIM_021.jpg	100
2195.08	0.922	922.2	congruent	Block2	congruent/STIM_022.jpg	99
2199.719	0.648	648.0	congruent	Block2	congruent/STIM_022.jpg	100
2202.555	0.859	859.0	congruent	Block2	congruent/STIM_022.jpg	100
2206.452	0.886	885.6	congruent	Block2	congruent/STIM_022.jpg	99
2210.982	0.857	857.0	congruent	Block2	congruent/STIM_022.jpg	99
2214.834	0.748	747.7	congruent	Block2	congruent/STIM_023.jpg	100
2218.332	0.608	608.1	congruent	Block2	congruent/STIM_023.jpg	100
2222.519	0.866	866.4	congruent	Block2	congruent/STIM_023.jpg	99
2226.432	0.677	676.9	congruent	Block2	congruent/STIM_023.jpg	99
2229.764	0.848	848.3	congruent	Block2	congruent/STIM_023.jpg	99
2234.026	0.796	796.4	congruent	Block2	congruent/STIM_024.jpg	99
2237.231	0.838	838.2	congruent	Block2	congruent/STIM_024.jpg	100
2240.814	0.954	953.9	congruent	Block2	congruent/STIM_024.jpg	100
2245.132	0.713	713.2	congruent	Block2	congruent/STIM_024.jpg	99
2249.131	0.903	902.9	congruent	Block2	congruent/STIM_024.jpg	100
2252.59	0.976	975.9	congruent	Block2	congruent/STIM_025.jpg	100
2257.157	0.946	945.8	congruent	Block2	congruent/STIM_025.jpg	99
2260.822	0.766	765.5	congruent	Block2	congruent/STIM_025.jpg	100
2264.101	0.7	700.3	congruent	Block2	congruent/STIM_025.jpg	100
2266.968	0.802	802.4	congruent	Block2	congruent/STIM_025.jpg	100
2271.165	0.736	736.1	congruent	Block2	congruent/STIM_026.jpg	100
2275.199	0.615	614.7	congruent	Block2	congruent/STIM_026.jpg	100
2278.251	0.622	621.9	congruent	Block2	congruent/STIM_026.jpg	99
2281.768	0.649	649.1	congruent	Block2	congruent/STIM_026.jpg	100
2284.615	0.853	852.6	congruent	Block2	congruent/STIM_026.jpg	100
2289.415	0.56	559.6	congruent	Block2	congruent/STIM_027.jpg	99
2292.74	0.736	735.5	congruent	Block2	congruent/STIM_027.jpg	99
2296.201	0.887	886.9	congruent	Block2	congruent/STIM_027.jpg	100
2300.124	0.606	605.8	congruent	Block2	congruent/STIM_027.jpg	100
2304.441	0.683	683.0	congruent	Block2	congruent/STIM_027.jpg	99
2308.607	0.815	814.8	congruent	Block2	congruent/STIM_028.jpg	100
2313.002	0.979	978.8	congruent	Block2	congruent/STIM_028.jpg	100
2316.486	0.703	702.6	congruent	Block2	congruent/STIM_028.jpg	100
2319.223	0.84	840.1	congruent	Block2	congruent/STIM_028.jpg	100
2322.113	0.558	558.0	congruent	Block2	congruent/STIM_028.jpg	100
2326.208	0.892	892.1	congruent	Block2	congruent/STIM_029.jpg	99
2329.227	0.732	731.6	congruent	Block2	congruent/STIM_029.jpg	99
2333.095	0.749	749.2	congruent	Block2	congruent/STIM_029.jpg	99
2337.308	0.884	884.2	congruent	Block2	congruent/STIM_029.jpg	99
2341.976	0.932	932.0	congruent	Block2	congruent/STIM_029.jpg	99
2345.379	0.873	872.7	incongruent	Block3	incongruent/STIM_000.jpg	99
2350.154	1.143	1143.2	incongruent	Block3	incongruent/STIM_000.jpg	99
2353.952	1.12	1120.1	incongruent	Block3	incongruent/STIM_000.jpg	100
2358.915	1.065	1065.1	incongruent	Block3	incongruent/STIM_000.jpg	99
2363.088	0.985	984.9	incongruent	Block3	incongruent/STIM_000.jpg	100
2367.614	1.115	1114.6	incongruent	Block3	incongruent/STIM_001.jpg	99
2371.501	1.003	1003.3	incongruent	Block3	incongruent/STIM_001.jpg	99
2376.19	0.569	568.9	incongruent	Block3	incongruent/STIM_001.jpg	99
2380.238	0.562	562.2	incongruent	Block3	incongruent/STIM_001.jpg	100
2384.202	0.58	579.7	incongruent	Block3	incongruent/STIM_001.jpg	100
2388.61	0.977	977.3	incongruent	Block3	incongruent/STIM_002.jpg	100
2393.139	0.887	887.0	incongruent	Block3	incongruent/STIM_002.jpg	100
2396.325	0.885	885.4	incongruent	Block3	incongruent/STIM_002.jpg	99
2399.387	0.994	993.7	incongruent	Block3	incongruent/STIM_002.jpg	100
2403.115	0.785	784.7	incongruent	Block3	incongruent/STIM_002.jpg	99
2407.26	0.972	971.5	incongruent	Block3	incongruent/STIM_003.jpg	99
2411.727	0.92	919.6	incongruent	Block3	incongruent/STIM_003.jpg	99
2414.943	0.804	803.8	incongruent	Block3	incongruent/STIM_003.jpg	100
2418.053	0.765	765.2	incongruent	Block3	incongruent/STIM_003.jpg	100
2422.222	0.562	562.2	incongruent	Block3	incongruent/STIM_003.jpg	99
2425.063	1.16	1160.0	incongruent	Block3	incongruent/STIM_004.jpg	100
2430.145	0.732	732.4	incongruent	Block3	incongruent/STIM_004.jpg	99
2434.492	0.822	821.9	incongruent	Block3	incongruent/STIM_004.jpg	100
2437.743	1.049	1049.2	incongruent	Block3	incongruent/STIM_004.jpg	99
2442.618	1.012	1012.4	incongruent	Block3	incongruent/STIM_004.jpg	99
2446.128	0.687	687.2	incongruent	Block3	incongruent/STIM_005.jpg	99
2448.871	0.702	701.6	incongruent	Block3	incongruent/STIM_005.jpg	99
2451.833	0.863	863.4	incongruent	Block3	incongruent/STIM_005.jpg	100
2456.269	0.59	590.3	incongruent	Block3	incongruent/STIM_005.jpg	100
2458.919	1.053	1052.6	incongruent	Block3	incongruent/STIM_005.jpg	99
2462.454	0.704	704.3	incongruent	Block3	incongruent/STIM_006.jpg	99
2466.639	0.715	715.3	incongruent	Block3	incongruent/STIM_006.jpg	99
2471.346	1.065	1064.9	incongruent	Block3	incongruent/STIM_006.jpg	100
2475.938	0.548	547.9	incongruent	Block3	incongruent/STIM_006.jpg	99
2479.417	0.715	715.3	incongruent	Block3	incongruent/STIM_006.jpg	99
2482.911	0.79	789.7	incongruent	Block3	incongruent/STIM_007.jpg	100
2487.486	1.039	1039.3	incongruent	Block3	incongruent/STIM_007.jpg	99
2490.541	0.869	869.0	incongruent	Block3	incongruent/STIM_007.jpg	100
2493.99	0.676	675.8	incongruent	Block3	incongruent/STIM_007.jpg	100
2497.311	0.706	705.9	incongruent	Block3	incongruent/STIM_007.jpg	99
2500.675	0.86	860.0	incongruent	Block3	incongruent/STIM_008.jpg	100
2503.672	1.011	1011.3	incongruent	Block3	incongruent/STIM_008.jpg	99
2507.936	0.983	983.1	incongruent	Block3	incongruent/STIM_008.jpg	99
2512.494	0.976	976.4	incongruent	Block3	incongruent/STIM_008.jpg	100
2515.807	0.562	562.0	incongruent	Block3	incongruent/STIM_008.jpg	99
2519.52	1.167	1167.1	incongruent	Block3	incongruent/STIM_009.jpg	100
2523.641	0.774	774.4	incongruent	Block3	incongruent/STIM_009.jpg	99
2528.279	1.152	1152.0	incongruent	Block3	incongruent/STIM_009.jpg	99
2532.842	0.778	778.5	incongruent	Block3	incongruent/STIM_009.jpg	99
2536.507	1.037	1037.3	incongruent	Block3	incongruent/STIM_009.jpg	100
2541.302	0.96	960.0	incongruent	Block3	incongruent/STIM_010.jpg	100
2544.395	0.553	553.4	incongruent	Block3	incongruent/STIM_010.jpg	100
2547.673	0.707	706.6	incongruent	Block3	incongruent/STIM_010.jpg	100
2551.143	1.032	1031.9	incongruent	Block3	incongruent/STIM_010.jpg	99
2554.389	0.746	745.5	incongruent	Block3	incongruent/STIM_010.jpg	100
2557.828	0.988	987.8	incongruent	Block3	incongruent/STIM_011.jpg	100
2561.902	1.152	1152.0	incongruent	Block3	incongruent/STIM_011.jpg	100
2566.568	1.01	1009.8	incongruent	Block3	incongruent/STIM_011.jpg	99
2569.638	1.086	1085.7	incongruent	Block3	incongruent/STIM_011.jpg	99
2573.846	0.592	591.9	incongruent	Block3	incongruent/STIM_011.jpg	100
2577.92	1.0	1000.5	incongruent	Block3	incongruent/STIM_012.jpg	100
2581.392	0.718	717.8	incongruent	Block3	incongruent/STIM_012.jpg	100
2585.81	0.997	997.1	incongruent	Block3	incongruent/STIM_012.jpg	100
2588.931	0.731	731.4	incongruent	Block3	incongruent/STIM_012.jpg	99
2592.886	0.98	979.5	incongruent	Block3	incongruent/STIM_012.jpg	99
2596.943	1.134	1134.4	incongruent	Block3	incongruent/STIM_013.jpg	99
2601.782	1.065	1065.2	incongruent	Block3	incongruent/STIM_013.jpg	100
2604.914	0.65	649.8	incongruent	Block3	incongruent/STIM_013.jpg	99
2608.619	1.146	1146.1	incongruent	Block3	incongruent/STIM_013.jpg	100
2612.17	0.666	665.7	incongruent	Block3	incongruent/STIM_013.jpg	100
2615.799	0.746	746.4	incongruent	Block3	incongruent/STIM_014.jpg	100
2619.824	0.614	614.5	incongruent	Block3	incongruent/STIM_014.jpg	100
2624.212	1.164	1163.8	incongruent	Block3	incongruent/STIM_014.jpg	99
2629.059	1.121	1120.6	incongruent	Block3	incongruent/STIM_014.jpg	99
2633.139	0.566	565.6	incongruent	Block3	incongruent/STIM_014.jpg	100
2637.428	0.562	562.2	incongruent	Block3	incongruent/STIM_015.jpg	99
2640.225	0.921	921.3	incongruent	Block3	incongruent/STIM_015.jpg	99
2644.251	0.618	618.4	incongruent	Block3	incongruent/STIM_015.jpg	99
2646.96	1.141	1140.7	incongruent	Block3	incongruent/STIM_015.jpg	99
2651.78	0.722	721.8	incongruent	Block3	incongruent/STIM_015.jpg	99
2655.087	0.688	688.1	incongruent	Block3	incongruent/STIM_016.jpg	99
2658.323	1.099	1099.4	incongruent	Block3	incongruent/STIM_016.jpg	100
2661.517	0.872	871.9	incongruent	Block3	incongruent/STIM_016.jpg	99
2664.839	0.942	941.8	incongruent	Block3	incongruent/STIM_016.jpg	99
2669.128	0.636	636.1	incongruent	Block3	incongruent/STIM_016.jpg	100
2673.102	1.103	1103.0	incongruent	Block3	incongruent/STIM_017.jpg	100
2677.438	1.057	1056.9	incongruent	Block3	incongruent/STIM_017.jpg	100
2681.891	0.915	914.9	incongruent	Block3	incongruent/STIM_017.jpg	100
2686.171	1.069	1069.4	incongruent	Block3	incongruent/STIM_017.jpg	100
2690.353	0.988	988.1	incongruent	Block3	incongruent/STIM_017.jpg	100
2694.011	0.982	981.7	incongruent	Block3	incongruent/STIM_018.jpg	100
2698.562	1.07	1069.6	incongruent	Block3	incongruent/STIM_018.jpg	99
2701.723	1.012	1012.2	incongruent	Block3	incongruent/STIM_018.jpg	99
2705.066	1.063	1063.1	incongruent	Block3	incongruent/STIM_018.jpg	100
2708.598	0.996	995.5	incongruent	Block3	incongruent/STIM_018.jpg	99
2711.77	0.666	665.9	incongruent	Block3	incongruent/STIM_019.jpg	99
2714.781	0.646	645.7	incongruent	Block3	incongruent/STIM_019.jpg	100
2719.299	0.755	754.9	incongruent	Block3	incongruent/STIM_019.jpg	100
2723.773	0.808	807.9	incongruent	Block3	incongruent/STIM_019.jpg	100
2728.315	0.557	557.4	incongruent	Block3	incongruent/STIM_019.jpg	100
2731.126	0.753	752.7	incongruent	Block3	incongruent/STIM_020.jpg	100
2734.662	1.124	1124.0	incongruent	Block3	incongruent/STIM_020.jpg	100
2738.133	0.897	896.9	incongruent	Block3	incongruent/STIM_020.jpg	99
2742.86	0.952	951.5	incongruent	Block3	incongruent/STIM_020.jpg	99
2747.41	0.576	575.8	incongruent	Block3	incongruent/STIM_020.jpg	99
2751.079	1.136	1136.1	incongruent	Block3	incongruent/STIM_021.jpg	99
2755.047	0.804	803.9	incongruent	Block3	incongruent/STIM_021.jpg	100
2758.73	0.614	614.0	incongruent	Block3	incongruent/STIM_021.jpg	100
2762.828	0.614	614.3	incongruent	Block3	incongruent/STIM_021.jpg	99
2765.997	0.663	662.6	incongruent	Block3	incongruent/STIM_021.jpg	99
2769.41	1.084	1083.9	incongruent	Block3	incongruent/STIM_022.jpg	100
2772.968	1.072	1072.4	incongruent	Block3	incongruent/STIM_022.jpg	100
2777.524	1.066	1065.5	incongruent	Block3	incongruent/STIM_022.jpg	100
2780.925	0.964	963.6	incongruent	Block3	incongruent/STIM_022.jpg	100
2784.383	0.912	911.9	incongruent	Block3	incongruent/STIM_022.jpg	100
2788.498	1.046	1046.5	incongruent	Block3	incongruent/STIM_023.jpg	99
2791.806	0.942	942.3	incongruent	Block3	incongruent/STIM_023.jpg	100
2796.168	0.713	713.2	incongruent	Block3	incongruent/STIM_023.jpg	99
2800.803	0.656	655.6	incongruent	Block3	incongruent/STIM_023.jpg	100
2804.65	0.669	668.9	incongruent	Block3	incongruent/STIM_023.jpg	100
2808.47	0.843	842.8	incongruent	Block3	incongruent/STIM_024.jpg	99
2813.217	0.727	727.4	incongruent	Block3	incongruent/STIM_024.jpg	99
2817.401	0.625	624.7	incongruent	Block3	incongruent/STIM_024.jpg	100
2820.04	0.934	933.6	incongruent	Block3	incongruent/STIM_024.jpg	99
2824.097	0.834	834.4	incongruent	Block3	incongruent/STIM_024.jpg	100
2828.235	1.011	1010.9	incongruent	Block3	incongruent/STIM_025.jpg	99
2831.37	1.109	1108.8	incongruent	Block3	incongruent/STIM_025.jpg	99
2835.524	1.152	1151.6	incongruent	Block3	incongruent/STIM_025.jpg	100
2840.603	1.092	1092.4	incongruent	Block3	incongruent/STIM_025.jpg	99
2843.981	1.06	1060.5	incongruent	Block3	incongruent/STIM_025.jpg	99
2848.886	0.745	745.3	incongruent	Block3	incongruent/STIM_026.jpg	100
2853.037	0.921	920.9	incongruent	Block3	incongruent/STIM_026.jpg	99
2857.044	1.12	1120.1	incongruent	Block3	incongruent/STIM_026.jpg	99
2861.825	0.744	743.6	incongruent	Block3	incongruent/STIM_026.jpg	99
2864.572	0.677	677.4	incongruent	Block3	incongruent/STIM_026.jpg	99
2867.92	0.968	968.5	incongruent	Block3	incongruent/STIM_027.jpg	99
2871.917	0.555	555.2	incongruent	Block3	incongruent/STIM_027.jpg	99
2875.948	0.898	897.5	incongruent	Block3	incongruent/STIM_027.jpg	100
2879.335	0.944	944.5	incongruent	Block3	incongruent/STIM_027.jpg	99
2883.695	1.038	1038.0	incongruent	Block3	incongruent/STIM_027.jpg	100
2887.883	0.546	545.5	incongruent	Block3	incongruent/STIM_028.jpg	99
2890.589	1.132	1132.1	incongruent	Block3	incongruent/STIM_028.jpg	100
2894.304	0.764	763.8	incongruent	Block3	incongruent/STIM_028.jpg	100
2898.69	0.978	977.5	incongruent	Block3	incongruent/STIM_028.jpg	100
2902.25	0.915	915.0	incongruent	Block3	incongruent/STIM_028.jpg	99
2905.466	0.94	939.6	incongruent	Block3	incongruent/STIM_029.jpg	100
2908.5	0.777	776.9	incongruent	Block3	incongruent/STIM_029.jpg	100
2913.02	0.836	835.6	incongruent	Block3	incongruent/STIM_029.jpg	100
2917.817	0.76	760.2	incongruent	Block3	incongruent/STIM_029.jpg	99
2921.997	0.964	963.9	incongruent	Block3	incongruent/STIM_029.jpg	100
2926.529	0.926	926.5	congruent	Block3	congruent/STIM_000.jpg	99
2931.158	0.883	882.8	congruent	Block3	congruent/STIM_000.jpg	99
2935.703	0.934	934.2	congruent	Block3	congruent/STIM_000.jpg	100
2939.846	0.857	857.3	congruent	Block3	congruent/STIM_000.jpg	99
2944.07	0.776	776.0	congruent	Block3	congruent/STIM_000.jpg	100
2948.452	0.848	848.5	congruent	Block3	congruent/STIM_001.jpg	100
2952.111	0.744	743.8	congruent	Block3	congruent/STIM_001.jpg	100
2956.406	0.889	889.0	congruent	Block3	congruent/STIM_001.jpg	99
2960.781	0.782	782.5	congruent	Block3	congruent/STIM_001.jpg	99
2964.147	0.59	590.2	congruent	Block3	congruent/STIM_001.jpg	100
2967.956	0.84	839.5	congruent	Block3	congruent/STIM_002.jpg	100
2972.148	0.702	702.0	congruent	Block3	congruent/STIM_002.jpg	99
2975.563	0.629	628.7	congruent	Block3	congruent/STIM_002.jpg	99
2978.859	0.568	567.8	congruent	Block3	congruent/STIM_002.jpg	99
2982.768	0.686	685.8	congruent	Block3	congruent/STIM_002.jpg	100
2987.434	0.779	779.1	congruent	Block3	congruent/STIM_003.jpg	100
2991.796	0.806	805.9	congruent	Block3	congruent/STIM_003.jpg	99
2994.696	0.768	767.8	congruent	Block3	congruent/STIM_003.jpg	100
2997.686	0.903	902.8	congruent	Block3	congruent/STIM_003.jpg	99
3002.221	0.705	705.4	congruent	Block3	congruent/STIM_003.jpg	100
3005.266	0.571	570.9	congruent	Block3	congruent/STIM_004.jpg	100
3008.95	0.981	981.0	congruent	Block3	congruent/STIM_004.jpg	100
3012.665	0.967	966.8	congruent	Block3	congruent/STIM_004.jpg	99
3016.296	0.778	778.4	congruent	Block3	congruent/STIM_004.jpg	100
3020.897	0.644	644.3	congruent	Block3	congruent/STIM_004.jpg	99
3023.999	0.597	597.1	congruent	Block3	congruent/STIM_005.jpg	99
3028.159	0.683	682.6	congruent	Block3	congruent/STIM_005.jpg	100
3031.96	0.88	879.9	congruent	Block3	congruent/STIM_005.jpg	99
3035.973	0.56	559.7	congruent	Block3	congruent/STIM_005.jpg	100
3039.658	0.89	889.6	congruent	Block3	congruent/STIM_005.jpg	100
3042.999	0.961	961.3	congruent	Block3	congruent/STIM_006.jpg	99
3047.742	0.975	975.1	congruent	Block3	congruent/STIM_006.jpg	100
3051.893	0.918	917.8	congruent	Block3	congruent/STIM_006.jpg	100
3055.097	0.682	681.8	congruent	Block3	congruent/STIM_006.jpg	100
3059.073	0.796	796.4	congruent	Block3	congruent/STIM_006.jpg	100
3062.705	0.641	640.9	congruent	Block3	congruent/STIM_007.jpg	99
3066.508	0.94	940.4	congruent	Block3	congruent/STIM_007.jpg	100
3069.532	0.557	556.6	congruent	Block3	congruent/STIM_007.jpg	99
3072.546	0.95	950.4	congruent	Block3	congruent/STIM_007.jpg	99
3076.505	0.674	674.2	congruent	Block3	congruent/STIM_007.jpg	100
3080.071	0.895	894.6	congruent	Block3	congruent/STIM_008.jpg	100
3083.123	0.809	809.4	congruent	Block3	congruent/STIM_008.jpg	100
3087.425	0.944	943.5	congruent	Block3	congruent/STIM_008.jpg	100
3092.184	0.904	903.9	congruent	Block3	congruent/STIM_008.jpg	100
3096.725	0.743	742.9	congruent	Block3	congruent/STIM_008.jpg	99
3101.346	0.718	717.6	congruent	Block3	congruent/STIM_009.jpg	100
3104.113	0.613	613.4	congruent	Block3	congruent/STIM_009.jpg	99
3107.427	0.889	888.8	congruent	Block3	congruent/STIM_009.jpg	100
3110.919	0.893	893.4	congruent	Block3	congruent/STIM_009.jpg	100
3114.745	0.629	628.7	congruent	Block3	congruent/STIM_009.jpg	100
3118.368	0.608	607.6	congruent	Block3	congruent/STIM_010.jpg	99
3122.479	0.594	594.4	congruent	Block3	congruent/STIM_010.jpg	99
3126.027	0.679	679.0	congruent	Block3	congruent/STIM_010.jpg	99
3130.471	0.889	889.4	congruent	Block3	congruent/STIM_010.jpg	99
3134.274	0.847	846.6	congruent	Block3	congruent/STIM_010.jpg	100
3138.133	0.567	567.4	congruent	Block3	congruent/STIM_011.jpg	100
3141.656	0.778	777.8	congruent	Block3	congruent/STIM_011.jpg	100
3145.981	0.584	584.5	congruent	Block3	congruent/STIM_011.jpg	99
3149.291	0.867	867.1	congruent	Block3	congruent/STIM_011.jpg	99
3153.971	0.871	870.9	congruent	Block3	congruent/STIM_011.jpg	99
3158.533	0.941	941.3	congruent	Block3	congruent/STIM_012.jpg	100
3162.884	0.58	580.1	congruent	Block3	congruent/STIM_012.jpg	99
3166.214	0.992	992.3	congruent	Block3	congruent/STIM_012.jpg	99
3169.447	0.717	717.0	congruent	Block3	congruent/STIM_012.jpg	100
3172.798	0.579	579.3	congruent	Block3	congruent/STIM_012.jpg	100
3176.597	0.615	615.1	congruent	Block3	congruent/STIM_013.jpg	100
3180.261	0.736	735.9	congruent	Block3	congruent/STIM_013.jpg	100
3184.339	0.665	664.9	congruent	Block3	congruent/STIM_013.jpg	100
3187.74	0.875	874.7	congruent	Block3	congruent/STIM_013.jpg	100
3191.936	0.596	596.4	congruent	Block3	congruent/STIM_013.jpg	99
3195.789	0.618	618.3	congruent	Block3	congruent/STIM_014.jpg	100
3199.789	0.987	987.4	congruent	Block3	congruent/STIM_014.jpg	100
3203.33	0.61	609.8	congruent	Block3	congruent/STIM_014.jpg	100
3207.56	0.895	895.2	congruent	Block3	congruent/STIM_014.jpg	100
3211.408	0.561	561.2	congruent	Block3	congruent/STIM_014.jpg	99
3214.998	0.94	940.5	congruent	Block3	congruent/STIM_015.jpg	99
3218.434	0.57	570.3	congruent	Block3	congruent/STIM_015.jpg	99
3222.236	0.567	566.7	congruent	Block3	congruent/STIM_015.jpg	100
3226.411	0.759	759.0	congruent	Block3	congruent/STIM_015.jpg	100
3229.433	0.774	774.4	congruent	Block3	congruent/STIM_015.jpg	100
3232.347	0.843	843.3	congruent	Block3	congruent/STIM_016.jpg	99
3236.259	0.773	772.8	congruent	Block3	congruent/STIM_016.jpg	100
3240.377	0.645	644.9	congruent	Block3	congruent/STIM_016.jpg	99
3244.992	0.569	569.2	congruent	Block3	congruent/STIM_016.jpg	99
3249.228	0.926	926.4	congruent	Block3	congruent/STIM_016.jpg	100
3252.567	0.868	867.7	congruent	Block3	congruent/STIM_017.jpg	99
3256.988	0.579	579.4	congruent	Block3	congruent/STIM_017.jpg	99
3261.507	0.806	806.3	congruent	Block3	congruent/STIM_017.jpg	99
3265.46	0.865	865.0	congruent	Block3	congruent/STIM_017.jpg	99
3268.664	0.558	558.4	congruent	Block3	congruent/STIM_017.jpg	100
3271.477	0.929	929.2	congruent	Block3	congruent/STIM_018.jpg	99
3275.856	0.791	791.1	congruent	Block3	congruent/STIM_018.jpg	99
3280.454	0.724	723.7	congruent	Block3	congruent/STIM_018.jpg	100
3284.562	0.994	993.5	congruent	Block3	congruent/STIM_018.jpg	99
3287.743	0.8	799.9	congruent	Block3	congruent/STIM_018.jpg	100
3290.851	0.647	647.4	congruent	Block3	congruent/STIM_019.jpg	100
3294.791	0.576	575.6	congruent	Block3	congruent/STIM_019.jpg	100
3298.497	0.83	830.4	congruent	Block3	congruent/STIM_019.jpg	100
3301.534	0.898	898.5	congruent	Block3	congruent/STIM_019.jpg	100
3304.794	0.68	679.7	congruent	Block3	congruent/STIM_019.jpg	100
3307.616	0.828	827.8	congruent	Block3	congruent/STIM_020.jpg	100
3312.135	0.667	666.6	congruent	Block3	congruent/STIM_020.jpg	99
3316.361	0.562	562.4	congruent	Block3	congruent/STIM_020.jpg	99
3319.262	0.972	971.6	congruent	Block3	congruent/STIM_020.jpg	99
3323.149	0.634	633.9	congruent	Block3	congruent/STIM_020.jpg	99
3326.123	0.916	915.7	congruent	Block3	congruent/STIM_021.jpg	99
3330.413	0.985	984.7	congruent	Block3	congruent/STIM_021.jpg	99
3335.362	0.619	618.7	congruent	Block3	congruent/STIM_021.jpg	99
3338.582	0.59	589.5	congruent	Block3	congruent/STIM_021.jpg	99
3341.994	0.702	702.0	congruent	Block3	congruent/STIM_021.jpg	99
3346.671	0.604	604.0	congruent	Block3	congruent/STIM_022.jpg	99
3350.93	0.912	912.0	congruent	Block3	congruent/STIM_022.jpg	99
3354.575	0.675	675.4	congruent	Block3	congruent/STIM_022.jpg	99
3359.207	0.584	584.0	congruent	Block3	congruent/STIM_022.jpg	100
3363.663	0.558	558.3	congruent	Block3	congruent/STIM_022.jpg	99
3367.501	0.85	850.3	congruent	Block3	congruent/STIM_023.jpg	99
3371.271	0.595	595.0	congruent	Block3	congruent/STIM_023.jpg	99
3374.229	0.596	595.8	congruent	Block3	congruent/STIM_023.jpg	99
3377.227	0.715	715.4	congruent	Block3	congruent/STIM_023.jpg	100
3381.872	0.977	977.2	congruent	Block3	congruent/STIM_023.jpg	100
3385.863	0.569	569.3	congruent	Block3	congruent/STIM_024.jpg	100
3388.708	0.932	931.7	congruent	Block3	congruent/STIM_024.jpg	100
3392.09	0.594	594.4	congruent	Block3	congruent/STIM_024.jpg	100
3396.678	0.956	955.6	congruent	Block3	congruent/STIM_024.jpg	100
3401.192	0.634	634.2	congruent	Block3	congruent/STIM_024.jpg	99
3404.054	0.638	638.3	congruent	Block3	congruent/STIM_025.jpg	100
3407.484	0.645	644.8	congruent	Block3	congruent/STIM_025.jpg	100
3411.542	0.696	695.6	congruent	Block3	congruent/STIM_025.jpg	100
3415.626	0.66	660.4	congruent	Block3	congruent/STIM_025.jpg	99
3419.642	0.858	858.1	congruent	Block3	congruent/STIM_025.jpg	100
3423.877	0.711	711.1	congruent	Block3	congruent/STIM_026.jpg	100
3428.456	0.596	596.5	congruent	Block3	congruent/STIM_026.jpg	100
3431.178	0.655	655.3	congruent	Block3	congruent/STIM_026.jpg	100
3433.855	0.733	732.7	congruent	Block3	congruent/STIM_026.jpg	100
3437.389	0.674	674.5	congruent	Block3	congruent/STIM_026.jpg	99
3441.688	0.849	848.7	congruent	Block3	congruent/STIM_027.jpg	100
3445.886	0.919	919.2	congruent	Block3	congruent/STIM_027.jpg	99
3450.757	0.954	954.2	congruent	Block3	congruent/STIM_027.jpg	100
3453.939	0.67	670.0	congruent	Block3	congruent/STIM_027.jpg	99
3458.51	0.906	906.5	congruent	Block3	congruent/STIM_027.jpg	100
3461.485	0.908	908.0	congruent	Block3	congruent/STIM_028.jpg	100
3465.949	0.672	672.4	congruent	Block3	congruent/STIM_028.jpg	100
3469.065	0.626	626.1	congruent	Block3	congruent/STIM_028.jpg	99
3473.592	0.7	700.0	congruent	Block3	congruent/STIM_028.jpg	100
3476.617	0.59	589.7	congruent	Block3	congruent/STIM_028.jpg	99
3479.793	0.854	853.9	congruent	Block3	congruent/STIM_029.jpg	100
3482.968	0.826	825.9	congruent	Block3	congruent/STIM_029.jpg	100
3486.811	0.864	864.0	congruent	Block3	congruent/STIM_029.jpg	100
3491.541	0.843	842.6	congruent	Block3	congruent/STIM_029.jpg	100
3495.041	0.646	645.6	congruent	Block3	congruent/STIM_029.jpg	99
