onset	duration	response_time_ms	trial_type	learning_stage	stimulus	response_port
0.0	1.0	999.8	2back	Block1	2back/STIM_000.jpg	100
4.218	1.083	1083.4	2back	Block1	2back/STIM_000.jpg	100
7.727	0.749	748.8	2back	Block1	2back/STIM_000.jpg	100
11.823	0.984	984.2	2back	Block1	2back/STIM_001.jpg	99
16.77	0.708	708.5	2back	Block1	2back/STIM_001.jpg	100
20.592	0.847	847.0	2back	Block1	2back/STIM_001.jpg	99
25.391	0.881	881.3	2back	Block1	2back/STIM_002.jpg	99
29.51	0.978	977.9	2back	Block1	2back/STIM_002.jpg	100
33.151	1.03	1029.5	2back	Block1	2back/STIM_002.jpg	100
37.17	0.839	839.1	2back	Block1	2back/STIM_003.jpg	99
41.894	1.089	1088.9	2back	Block1	2back/STIM_003.jpg	100
45.408	1.226	1225.5	2back	Block1	2back/STIM_003.jpg	100
49.189	0.785	785.0	2back	Block1	2back/STIM_004.jpg	100
53.715	0.689	688.9	2back	Block1	2back/STIM_004.jpg	100
56.991	0.634	634.2	2back	Block1	2back/STIM_004.jpg	100
60.637	1.201	1201.2	2back	Block1	2back/STIM_005.jpg	99
65.667	1.151	1150.9	2back	Block1	2back/STIM_005.jpg	100
69.943	1.219	1218.7	2back	Block1	2back/STIM_005.jpg	99
74.786	1.203	1203.1	2back	Block1	2back/STIM_006.jpg	100
79.541	1.385	1385.3	2back	Block1	2back/STIM_006.jpg	100
84.1	1.297	1297.3	2back	Block1	2back/STIM_006.jpg	100
89.049	1.437	1436.7	2back	Block1	2back/STIM_007.jpg	100
92.78	1.01	1010.1	2back	Block1	2back/STIM_007.jpg	100
96.04	1.153	1153.2	2back	Block1	2back/STIM_007.jpg	100
100.629	1.61	1609.7	2back	Block1	2back/STIM_008.jpg	99
105.77	1.488	1487.9	2back	Block1	2back/STIM_008.jpg	99
110.86	0.932	931.8	2back	Block1	2back/STIM_008.jpg	100
114.177	1.464	1464.2	2back	Block1	2back/STIM_009.jpg	99
118.223	0.904	904.4	2back	Block1	2back/STIM_009.jpg	100
121.841	1.392	1391.9	2back	Block1	2back/STIM_009.jpg	99
125.338	1.363	1363.3	2back	Block1	2back/STIM_010.jpg	99
130.292	1.11	1110.4	2back	Block1	2back/STIM_010.jpg	99
134.215	1.097	1096.9	2back	Block1	2back/STIM_010.jpg	100
138.35	1.61	1610.3	2back	Block1	2back/STIM_011.jpg	99
142.524	0.785	785.4	2back	Block1	2back/STIM_011.jpg	99
146.598	0.635	635.4	2back	Block1	2back/STIM_011.jpg	99
149.851	0.791	790.6	2back	Block1	2back/STIM_012.jpg	100
153.66	1.165	1165.2	2back	Block1	2back/STIM_012.jpg	100
157.109	1.138	1137.9	2back	Block1	2back/STIM_012.jpg	99
161.395	1.576	1575.8	2back	Block1	2back/STIM_013.jpg	99
165.632	1.344	1344.4	2back	Block1	2back/STIM_013.jpg	99
169.878	1.094	1093.9	2back	Block1	2back/STIM_013.jpg	99
173.696	1.544	1544.2	2back	Block1	2back/STIM_014.jpg	100
178.679	1.094	1093.5	2back	Block1	2back/STIM_014.jpg	100
182.864	0.756	755.8	2back	Block1	2back/STIM_014.jpg	99
187.199	1.054	1053.6	2back	Block1	2back/STIM_015.jpg	100
190.911	0.741	741.3	2back	Block1	2back/STIM_015.jpg	99
195.007	1.338	1338.1	2back	Block1	2back/STIM_015.jpg	99
198.731	1.51	1509.6	2back	Block1	2back/STIM_016.jpg	99
202.968	1.019	1019.1	2back	Block1	2back/STIM_016.jpg	100
206.145	1.32	1319.5	2back	Block1	2back/STIM_016.jpg	100
210.125	1.362	1361.6	2back	Block1	2back/STIM_017.jpg	99
214.436	1.336	1335.8	2back	Block1	2back/STIM_017.jpg	100
218.403	1.226	1226.5	2back	Block1	2back/STIM_017.jpg	100
222.11	1.142	1141.5	2back	Block1	2back/STIM_018.jpg	100
226.158	1.256	1256.5	2back	Block1	2back/STIM_018.jpg	99
231.145	0.913	912.9	2back	Block1	2back/STIM_018.jpg	99
234.11	1.365	1365.4	2back	Block1	2back/STIM_019.jpg	100
237.812	1.087	1086.6	2back	Block1	2back/STIM_019.jpg	100
241.867	1.282	1282.4	2back	Block1	2back/STIM_019.jpg	99
247.096	0.748	747.7	2back	Block1	2back/STIM_020.jpg	100
249.893	1.12	1120.1	2back	Block1	2back/STIM_020.jpg	100
254.244	1.457	1457.1	2back	Block1	2back/STIM_020.jpg	99
258.899	0.991	991.3	2back	Block1	2back/STIM_021.jpg	100
263.708	0.705	705.2	2back	Block1	2back/STIM_021.jpg	99
267.73	1.458	1458.2	2back	Block1	2back/STIM_021.jpg	100
272.102	1.126	1125.5	2back	Block1	2back/STIM_022.jpg	99
277.175	1.523	1523.3	2back	Block1	2back/STIM_022.jpg	100
281.382	0.821	820.9	2back	Block1	2back/STIM_022.jpg	100
285.127	1.247	1246.7	2back	Block1	2back/STIM_023.jpg	100
288.418	1.447	1446.6	2back	Block1	2back/STIM_023.jpg	100
293.199	0.955	955.3	2back	Block1	2back/STIM_023.jpg	100
298.115	0.98	979.7	2back	Block1	2back/STIM_024.jpg	100
303.003	1.035	1035.4	2back	Block1	2back/STIM_024.jpg	99
307.118	0.992	992.3	2back	Block1	2back/STIM_024.jpg	100
311.373	1.607	1607.2	2back	Block1	2back/STIM_025.jpg	99
316.141	1.057	1056.7	2back	Block1	2back/STIM_025.jpg	99
320.945	1.426	1426.3	2back	Block1	2back/STIM_025.jpg	100
325.152	1.121	1121.3	2back	Block1	2back/STIM_026.jpg	100
328.484	0.758	757.9	2back	Block1	2back/STIM_026.jpg	100
331.615	0.791	790.9	2back	Block1	2back/STIM_026.jpg	99
334.443	1.061	1061.2	2back	Block1	2back/STIM_027.jpg	99
338.95	1.523	1522.7	2back	Block1	2back/STIM_027.jpg	100
344.408	0.947	947.4	2back	Block1	2back/STIM_027.jpg	100
349.052	1.075	1074.6	2back	Block1	2back/STIM_028.jpg	99
352.401	1.174	1174.1	2back	Block1	2back/STIM_028.jpg	100
357.544	0.931	931.1	2back	Block1	2back/STIM_028.jpg	99
362.238	0.848	848.0	2back	Block1	2back/STIM_029.jpg	99
365.586	1.151	1151.1	2back	Block1	2back/STIM_029.jpg	99
369.921	0.729	729.4	2back	Block1	2back/STIM_029.jpg	100
374.593	0.881	881.0	2back	Block1	2back/STIM_030.jpg	100
378.291	1.265	1264.6	2back	Block1	2back/STIM_030.jpg	99
381.809	0.876	875.9	2back	Block1	2back/STIM_030.jpg	100
385.252	1.043	1042.8	2back	Block1	2back/STIM_031.jpg	99
389.646	1.094	1094.0	2back	Block1	2back/STIM_031.jpg	99
393.626	1.417	1417.3	2back	Block1	2back/STIM_031.jpg	100
398.146	1.482	1481.5	2back	Block1	2back/STIM_032.jpg	100
403.239	0.672	672.0	2back	Block1	2back/STIM_032.jpg	100
407.184	0.866	865.6	2back	Block1	2back/STIM_032.jpg	99
410.16	1.496	1496.0	2back	Block1	2back/STIM_033.jpg	100
415.576	1.461	1460.6	2back	Block1	2back/STIM_033.jpg	99
419.858	0.96	959.7	2back	Block1	2back/STIM_033.jpg	100
423.085	1.414	1413.9	2back	Block1	2back/STIM_034.jpg	99
426.667	1.526	1526.0	2back	Block1	2back/STIM_034.jpg	99
431.261	1.129	1128.9	2back	Block1	2back/STIM_034.jpg	100
436.348	1.037	1037.4	2back	Block1	2back/STIM_035.jpg	99
440.776	0.933	933.3	2back	Block1	2back/STIM_035.jpg	99
444.879	0.824	824.0	2back	Block1	2back/STIM_035.jpg	99
449.409	1.243	1243.2	2back	Block1	2back/STIM_036.jpg	99
453.603	1.096	1096.1	2back	Block1	2back/STIM_036.jpg	100
457.195	0.925	924.8	2back	Block1	2back/STIM_036.jpg	100
461.076	0.993	993.2	2back	Block1	2back/STIM_037.jpg	100
465.359	0.985	985.2	2back	Block1	2back/STIM_037.jpg	100
468.9	0.832	831.6	2back	Block1	2back/STIM_037.jpg	99
473.088	1.118	1118.4	2back	Block1	2back/STIM_038.jpg	100
476.674	1.126	1125.7	2back	Block1	2back/STIM_038.jpg	99
479.839	1.135	1135.0	2back	Block1	2back/STIM_038.jpg	99
483.897	1.575	1575.4	2back	Block1	2back/STIM_039.jpg	100
487.95	0.953	952.7	2back	Block1	2back/STIM_039.jpg	100
492.486	1.104	1103.7	2back	Block1	2back/STIM_039.jpg	100
496.87	0.86	860.2	0back	Block1	0back/STIM_000.jpg	100
500.718	0.788	787.8	0back	Block1	0back/STIM_000.jpg	99
504.245	0.551	551.4	0back	Block1	0back/STIM_000.jpg	99
508.636	0.735	735.2	0back	Block1	0back/STIM_001.jpg	99
512.533	0.61	609.6	0back	Block1	0back/STIM_001.jpg	100
516.091	0.758	758.1	0back	Block1	0back/STIM_001.jpg	99
520.041	0.925	925.2	0back	Block1	0back/STIM_002.jpg	99
523.94	0.824	823.5	0back	Block1	0back/STIM_002.jpg	99
527.907	0.789	788.6	0back	Block1	0back/STIM_002.jpg	99
531.319	0.66	660.0	0back	Block1	0back/STIM_003.jpg	99
535.524	0.863	863.0	0back	Block1	0back/STIM_003.jpg	100
538.957	0.618	618.0	0back	Block1	0back/STIM_003.jpg	100
542.188	0.885	885.4	0back	Block1	0back/STIM_004.jpg	99
546.404	0.492	491.5	0back	Block1	0back/STIM_004.jpg	100
549.754	0.59	590.2	0back	Block1	0back/STIM_004.jpg	100
552.662	0.742	741.5	0back	Block1	0back/STIM_005.jpg	100
556.475	0.9	900.3	0back	Block1	0back/STIM_005.jpg	100
560.947	0.467	466.9	0back	Block1	0back/STIM_005.jpg	100
563.426	0.85	850.3	0back	Block1	0back/STIM_006.jpg	100
566.85	0.856	856.1	0back	Block1	0back/STIM_006.jpg	100
570.743	0.906	906.2	0back	Block1	0back/STIM_006.jpg	100
573.762	0.888	888.3	0back	Block1	0back/STIM_007.jpg	99
577.442	0.521	521.4	0back	Block1	0back/STIM_007.jpg	99
580.893	0.916	916.0	0back	Block1	0back/STIM_007.jpg	100
584.345	0.64	639.8	0back	Block1	0back/STIM_008.jpg	100
588.945	0.716	715.5	0back	Block1	0back/STIM_008.jpg	100
592.111	0.764	763.6	0back	Block1	0back/STIM_008.jpg	100
595.569	0.789	788.8	0back	Block1	0back/STIM_009.jpg	100
599.972	0.656	655.6	0back	Block1	0back/STIM_009.jpg	100
602.84	0.855	854.9	0back	Block1	0back/STIM_009.jpg	100
606.176	0.898	898.2	0back	Block1	0back/STIM_010.jpg	99
609.284	0.565	564.8	0back	Block1	0back/STIM_010.jpg	100
613.131	0.583	582.8	0back	Block1	0back/STIM_010.jpg	99
617.513	0.676	676.3	0back	Block1	0back/STIM_011.jpg	99
621.192	0.619	619.1	0back	Block1	0back/STIM_011.jpg	99
625.099	0.507	507.2	0back	Block1	0back/STIM_011.jpg	100
628.341	0.766	766.3	0back	Block1	0back/STIM_012.jpg	99
631.41	0.773	773.4	0back	Block1	0back/STIM_012.jpg	99
634.791	0.891	891.0	0back	Block1	0back/STIM_012.jpg	100
639.256	0.84	840.3	0back	Block1	0back/STIM_013.jpg	99
642.539	0.725	725.2	0back	Block1	0back/STIM_013.jpg	99
645.901	0.821	820.8	0back	Block1	0back/STIM_013.jpg	99
649.346	0.674	673.5	0back	Block1	0back/STIM_014.jpg	99
653.149	0.566	565.7	0back	Block1	0back/STIM_014.jpg	100
657.553	0.595	595.1	0back	Block1	0back/STIM_014.jpg	99
660.589	0.81	809.7	0back	Block1	0back/STIM_015.jpg	99
664.961	0.815	815.4	0back	Block1	0back/STIM_015.jpg	99
669.341	0.778	778.4	0back	Block1	0back/STIM_015.jpg	99
673.727	0.464	464.4	0back	Block1	0back/STIM_016.jpg	100
677.07	0.564	564.1	0back	Block1	0back/STIM_016.jpg	99
681.488	0.584	583.9	0back	Block1	0back/STIM_016.jpg	100
685.943	0.594	594.5	0back	Block1	0back/STIM_017.jpg	100
690.012	0.817	817.4	0back	Block1	0back/STIM_017.jpg	100
693.837	0.677	676.9	0back	Block1	0back/STIM_017.jpg	100
697.668	0.56	560.3	0back	Block1	0back/STIM_018.jpg	99
701.758	0.793	792.6	0back	Block1	0back/STIM_018.jpg	100
705.377	0.701	701.4	0back	Block1	0back/STIM_018.jpg	99
709.612	0.794	794.0	0back	Block1	0back/STIM_019.jpg	99
713.368	0.708	707.7	0back	Block1	0back/STIM_019.jpg	99
717.592	0.53	530.2	0back	Block1	0back/STIM_019.jpg	100
722.035	1.136	1136.2	2back	Block2	2back/STIM_000.jpg	99
726.404	1.072	1071.9	2back	Block2	2back/STIM_000.jpg	99
729.891	1.112	1111.9	2back	Block2	2back/STIM_000.jpg	100
733.415	1.311	1311.0	2back	Block2	2back/STIM_001.jpg	99
736.792	1.122	1121.9	2back	Block2	2back/STIM_001.jpg	99
741.64	1.024	1024.4	2back	Block2	2back/STIM_001.jpg	99
744.972	0.638	637.6	2back	Block2	2back/STIM_002.jpg	99
749.173	0.908	907.7	2back	Block2	2back/STIM_002.jpg	99
753.011	1.106	1106.1	2back	Block2	2back/STIM_002.jpg	99
756.63	0.624	623.7	2back	Block2	2back/STIM_003.jpg	100
759.683	1.107	1106.7	2back	Block2	2back/STIM_003.jpg	100
764.102	0.866	865.5	2back	Block2	2back/STIM_003.jpg	100
768.568	0.628	627.7	2back	Block2	2back/STIM_004.jpg	100
771.846	0.581	580.8	2back	Block2	2back/STIM_004.jpg	99
774.594	1.146	1145.6	2back	Block2	2back/STIM_004.jpg	100
778.087	0.803	803.2	2back	Block2	2back/STIM_005.jpg	99
781.826	0.852	851.7	2back	Block2	2back/STIM_005.jpg	100
786.452	0.638	638.0	2back	Block2	2back/STIM_005.jpg	100
790.793	0.928	928.1	2back	Block2	2back/STIM_006.jpg	100
795.141	1.098	1097.7	2back	Block2	2back/STIM_006.jpg	100
799.158	0.617	616.9	2back	Block2	2back/STIM_006.jpg	100
801.783	0.757	756.7	2back	Block2	2back/STIM_007.jpg	99
804.612	1.01	1009.5	2back	Block2	2back/STIM_007.jpg	100
807.713	0.642	642.2	2back	Block2	2back/STIM_007.jpg	100
810.631	1.025	1024.7	2back	Block2	2back/STIM_008.jpg	100
814.877	0.61	609.5	2back	Block2	2back/STIM_008.jpg	99
818.129	0.95	950.1	2back	Block2	2back/STIM_008.jpg	99
821.542	0.873	873.0	2back	Block2	2back/STIM_009.jpg	100
825.244	1.052	1052.3	2back	Block2	2back/STIM_009.jpg	100
830.03	0.95	950.3	2back	Block2	2back/STIM_009.jpg	99
833.324	1.051	1051.1	2back	Block2	2back/STIM_010.jpg	99
836.897	0.63	630.3	2back	Block2	2back/STIM_010.jpg	100
840.761	1.102	1102.2	2back	Block2	2back/STIM_010.jpg	100
844.173	0.765	764.6	2back	Block2	2back/STIM_011.jpg	100
848.117	0.649	648.8	2back	Block2	2back/STIM_011.jpg	100
852.028	1.146	1145.9	2back	Block2	2back/STIM_011.jpg	100
856.275	0.918	917.9	2back	Block2	2back/STIM_012.jpg	99
860.953	0.613	613.3	2back	Block2	2back/STIM_012.jpg	100
864.555	0.626	625.5	2back	Block2	2back/STIM_012.jpg	99
867.465	0.768	768.4	2back	Block2	2back/STIM_013.jpg	99
871.545	1.285	1285.4	2back	Block2	2back/STIM_013.jpg	100
875.528	1.007	1007.2	2back	Block2	2back/STIM_013.jpg	99
878.589	0.705	705.2	2back	Block2	2back/STIM_014.jpg	99
882.037	1.211	1211.0	2back	Block2	2back/STIM_014.jpg	99
885.399	0.915	914.7	2back	Block2	2back/STIM_014.jpg	99
888.518	1.071	1071.3	2back	Block2	2back/STIM_015.jpg	100
891.69	1.0	1000.5	2back	Block2	2back/STIM_015.jpg	99
895.167	1.074	1073.8	2back	Block2	2back/STIM_015.jpg	100
899.63	0.988	987.9	2back	Block2	2back/STIM_016.jpg	100
903.716	0.992	991.8	2back	Block2	2back/STIM_016.jpg	99
908.502	1.213	1212.8	2back	Block2	2back/STIM_016.jpg	100
911.851	1.31	1310.5	2back	Block2	2back/STIM_017.jpg	99
915.216	0.717	717.3	2back	Block2	2back/STIM_017.jpg	99
918.771	0.73	729.8	2back	Block2	2back/STIM_017.jpg	99
921.514	0.669	669.2	2back	Block2	2back/STIM_018.jpg	99
924.607	0.887	886.7	2back	Block2	2back/STIM_018.jpg	99
928.096	0.974	974.3	2back	Block2	2back/STIM_018.jpg	99
931.115	1.131	1130.8	2back	Block2	2back/STIM_019.jpg	100
934.771	1.167	1166.8	2back	Block2	2back/STIM_019.jpg	99
939.328	0.522	522.2	2back	Block2	2back/STIM_019.jpg	100
941.863	0.735	735.2	2back	Block2	2back/STIM_020.jpg	100
945.086	1.271	1271.1	2back	Block2	2back/STIM_020.jpg	100
948.918	0.888	888.3	2back	Block2	2back/STIM_020.jpg	99
952.736	1.344	1343.9	2back	Block2	2back/STIM_021.jpg	100
956.926	0.879	878.7	2back	Block2	2back/STIM_021.jpg	99
961.612	1.192	1192.3	2back	Block2	2back/STIM_021.jpg	99
966.614	1.317	1316.7	2back	Block2	2back/STIM_022.jpg	99
970.892	0.669	669.0	2back	Block2	2back/STIM_022.jpg	99
974.38	0.622	622.4	2back	Block2	2back/STIM_022.jpg	99
977.784	1.271	1270.8	2back	Block2	2back/STIM_023.jpg	99
982.285	0.988	987.6	2back	Block2	2back/STIM_023.jpg	99
986.574	0.928	927.7	2back	Block2	2back/STIM_023.jpg	100
990.361	0.859	858.9	2back	Block2	2back/STIM_024.jpg	99
993.744	0.707	707.4	2back	Block2	2back/STIM_024.jpg	100
997.544	0.587	586.9	2back	Block2	2back/STIM_024.jpg	100
1000.986	1.367	1367.4	2back	Block2	2back/STIM_025.jpg	100
1004.752	1.12	1120.5	2back	Block2	2back/STIM_025.jpg	99
1007.951	0.726	726.0	2back	Block2	2back/STIM_025.jpg	100
1011.411	0.856	856.2	2back	Block2	2back/STIM_026.jpg	99
1015.802	1.175	1174.6	2back	Block2	2back/STIM_026.jpg	99
1019.755	0.799	799.0	2back	Block2	2back/STIM_026.jpg	99
1024.4	0.782	781.7	2back	Block2	2back/STIM_027.jpg	99
1028.087	1.173	1173.3	2back	Block2	2back/STIM_027.jpg	100
1033.011	0.93	930.0	2back	Block2	2back/STIM_027.jpg	100
1036.218	0.823	823.3	2back	Block2	2back/STIM_028.jpg	100
1040.216	0.646	646.1	2back	Block2	2back/STIM_028.jpg	100
1043.392	1.172	1171.6	2back	Block2	2back/STIM_028.jpg	100
1047.002	1.318	1318.1	2back	Block2	2back/STIM_029.jpg	99
1051.417	1.228	1228.5	2back	Block2	2back/STIM_029.jpg	99
1055.917	0.91	909.6	2back	Block2	2back/STIM_029.jpg	99
1059.896	1.237	1237.2	2back	Block2	2back/STIM_030.jpg	99
1064.756	0.787	787.0	2back	Block2	2back/STIM_030.jpg	99
1068.801	0.63	629.7	2back	Block2	2back/STIM_030.jpg	99
1072.95	1.096	1096.0	2back	Block2	2back/STIM_031.jpg	100
1076.407	0.92	920.0	2back	Block2	2back/STIM_031.jpg	100
1079.375	0.841	841.1	2back	Block2	2back/STIM_031.jpg	100
1083.944	1.37	1370.4	2back	Block2	2back/STIM_032.jpg	99
1087.713	0.729	729.4	2back	Block2	2back/STIM_032.jpg	99
1092.438	1.158	1158.0	2back	Block2	2back/STIM_032.jpg	100
1097.216	0.884	883.5	2back	Block2	2back/STIM_033.jpg	99
1101.189	0.754	754.2	2back	Block2	2back/STIM_033.jpg	99
1104.315	0.525	524.9	2back	Block2	2back/STIM_033.jpg	100
1107.5	1.28	1280.0	2back	Block2	2back/STIM_034.jpg	99
1112.183	1.024	1024.0	2back	Block2	2back/STIM_034.jpg	100
1116.556	0.66	659.5	2back	Block2	2back/STIM_034.jpg	100
1119.367	0.71	709.8	2back	Block2	2back/STIM_035.jpg	100
1123.958	1.176	1175.9	2back	Block2	2back/STIM_035.jpg	99
1129.019	0.659	658.9	2back	Block2	2back/STIM_035.jpg	99
1133.252	1.071	1071.2	2back	Block2	2back/STIM_036.jpg	99
1137.579	1.281	1281.0	2back	Block2	2back/STIM_036.jpg	99
1141.704	0.609	608.6	2back	Block2	2back/STIM_036.jpg	100
1144.971	1.305	1304.6	2back	Block2	2back/STIM_037.jpg	100
1148.385	0.826	826.5	2back	Block2	2back/STIM_037.jpg	100
1153.053	1.099	1098.6	2back	Block2	2back/STIM_037.jpg	100
1157.344	1.185	1185.3	2back	Block2	2back/STIM_038.jpg	99
1161.222	1.202	1201.9	2back	Block2	2back/STIM_038.jpg	99
1165.444	0.9	900.5	2back	Block2	2back/STIM_038.jpg	100
1169.273	0.756	755.9	2back	Block2	2back/STIM_039.jpg	100
1172.42	0.768	768.2	2back	Block2	2back/STIM_039.jpg	99
1176.965	1.148	1147.6	2back	Block2	2back/STIM_039.jpg	100
1180.65	0.77	770.0	0back	Block2	0back/STIM_000.jpg	99
1184.711	0.712	712.4	0back	Block2	0back/STIM_000.jpg	100
1187.699	0.913	913.2	0back	Block2	0back/STIM_000.jpg	99
1191.591	0.744	744.4	0back	Block2	0back/STIM_001.jpg	99
1195.481	0.847	847.0	0back	Block2	0back/STIM_001.jpg	100
1199.086	0.682	682.3	0back	Block2	0back/STIM_001.jpg	100
1201.957	0.884	884.2	0back	Block2	0back/STIM_002.jpg	100
1205.151	0.801	800.9	0back	Block2	0back/STIM_002.jpg	99
1208.557	0.623	623.2	0back	Block2	0back/STIM_002.jpg	100
1212.2	0.512	511.8	0back	Block2	0back/STIM_003.jpg	100
1215.629	0.655	654.7	0back	Block2	0back/STIM_003.jpg	100
1220.091	0.76	760.0	0back	Block2	0back/STIM_003.jpg	99
1223.927	0.744	744.0	0back	Block2	0back/STIM_004.jpg	99
1227.026	0.726	726.0	0back	Block2	0back/STIM_004.jpg	100
1230.592	0.752	751.7	0back	Block2	0back/STIM_004.jpg	100
1233.609	0.603	603.1	0back	Block2	0back/STIM_005.jpg	99
1238.1	0.473	473.1	0back	Block2	0back/STIM_005.jpg	100
1240.587	0.65	650.5	0back	Block2	0back/STIM_005.jpg	99
1243.552	0.813	812.7	0back	Block2	0back/STIM_006.jpg	100
1248.323	0.59	589.9	0back	Block2	0back/STIM_006.jpg	99
1252.322	0.776	776.3	0back	Block2	0back/STIM_006.jpg	100
1256.591	0.746	746.4	0back	Block2	0back/STIM_007.jpg	99
1259.458	0.809	809.4	0back	Block2	0back/STIM_007.jpg	99
1263.191	0.681	681.1	0back	Block2	0back/STIM_007.jpg	100
1266.876	0.857	856.6	0back	Block2	0back/STIM_008.jpg	99
1270.445	0.612	611.5	0back	Block2	0back/STIM_008.jpg	99
1274.695	0.801	801.2	0back	Block2	0back/STIM_008.jpg	99
1277.581	0.588	588.0	0back	Block2	0back/STIM_009.jpg	99
1281.272	0.885	885.4	0back	Block2	0back/STIM_009.jpg	100
1284.186	0.514	514.2	0back	Block2	0back/STIM_009.jpg	100
1286.83	0.851	850.8	0back	Block2	0back/STIM_010.jpg	100
1290.603	0.565	564.8	0back	Block2	0back/STIM_010.jpg	99
1295.082	0.536	536.2	0back	Block2	0back/STIM_010.jpg	100
1298.736	0.573	572.9	0back	Block2	0back/STIM_011.jpg	99
1301.425	0.86	859.8	0back	Block2	0back/STIM_011.jpg	99
1304.807	0.698	698.4	0back	Block2	0back/STIM_011.jpg	100
1307.947	0.538	538.2	0back	Block2	0back/STIM_012.jpg	100
1311.528	0.91	910.5	0back	Block2	0back/STIM_012.jpg	100
1314.667	0.48	479.6	0back	Block2	0back/STIM_012.jpg	100
1318.304	0.904	903.9	0back	Block2	0back/STIM_013.jpg	99
1321.98	0.602	602.1	0back	Block2	0back/STIM_013.jpg	100
1325.065	0.876	875.5	0back	Block2	0back/STIM_013.jpg	100
1328.952	0.491	490.8	0back	Block2	0back/STIM_014.jpg	100
1332.302	0.87	870.2	0back	Block2	0back/STIM_014.jpg	100
1336.184	0.703	703.2	0back	Block2	0back/STIM_014.jpg	100
1339.747	0.612	611.7	0back	Block2	0back/STIM_015.jpg	100
1343.511	0.841	840.7	0back	Block2	0back/STIM_015.jpg	100
1347.42	0.812	812.5	0back	Block2	0back/STIM_015.jpg	100
1352.218	0.884	883.6	0back	Block2	0back/STIM_016.jpg	99
1355.307	0.878	878.4	0back	Block2	0back/STIM_016.jpg	99
1359.724	0.854	854.0	0back	Block2	0back/STIM_016.jpg	99
1364.305	0.921	920.9	0back	Block2	0back/STIM_017.jpg	99
1368.5	0.564	564.3	0back	Block2	0back/STIM_017.jpg	99
1372.87	0.55	549.5	0back	Block2	0back/STIM_017.jpg	99
1375.735	0.552	551.7	0back	Block2	0back/STIM_018.jpg	99
1380.123	0.885	885.1	0back	Block2	0back/STIM_018.jpg	99
1384.883	0.805	804.6	0back	Block2	0back/STIM_018.jpg	100
1388.694	0.584	583.7	0back	Block2	0back/STIM_019.jpg	99
1392.562	0.831	830.6	0back	Block2	0back/STIM_019.jpg	100
1396.3	0.806	806.3	0back	Block2	0back/STIM_019.jpg	99
1399.183	1.019	1019.2	2back	Block3	2back/STIM_000.jpg	100
1402.67	0.632	632.4	2back	Block3	2back/STIM_000.jpg	99
1405.549	0.678	678.1	2back	Block3	2back/STIM_000.jpg	100
1409.907	0.62	620.2	2back	Block3	2back/STIM_001.jpg	99
1414.176	0.673	673.3	2back	Block3	2back/STIM_001.jpg	100
1417.315	0.724	724.4	2back	Block3	2back/STIM_001.jpg	100
1420.693	0.847	847.2	2back	Block3	2back/STIM_002.jpg	99
1423.871	1.038	1038.0	2back	Block3	2back/STIM_002.jpg	99
1428.37	0.594	593.8	2back	Block3	2back/STIM_002.jpg	99
1431.172	1.065	1065.0	2back	Block3	2back/STIM_003.jpg	99
1435.589	0.931	931.3	2back	Block3	2back/STIM_003.jpg	100
1438.63	0.684	684.3	2back	Block3	2back/STIM_003.jpg	100
1443.111	0.65	650.1	2back	Block3	2back/STIM_004.jpg	99
1447.367	0.607	607.0	2back	Block3	2back/STIM_004.jpg	100
1451.02	0.858	858.5	2back	Block3	2back/STIM_004.jpg	100
1454.421	0.7	699.6	2back	Block3	2back/STIM_005.jpg	99
1459.016	0.891	891.3	2back	Block3	2back/STIM_005.jpg	99
1462.593	0.758	758.5	2back	Block3	2back/STIM_005.jpg	100
1465.576	0.653	652.6	2back	Block3	2back/STIM_006.jpg	100
1469.291	0.847	846.7	2back	Block3	2back/STIM_006.jpg	100
1472.464	0.631	630.9	2back	Block3	2back/STIM_006.jpg	99
1475.693	0.884	883.5	2back	Block3	2back/STIM_007.jpg	100
1480.011	0.777	777.0	2back	Block3	2back/STIM_007.jpg	100
1483.162	0.839	839.0	2back	Block3	2back/STIM_007.jpg	99
1486.308	0.851	851.1	2back	Block3	2back/STIM_008.jpg	100
1490.218	1.042	1041.5	2back	Block3	2back/STIM_008.jpg	99
1493.304	0.522	522.3	2back	Block3	2back/STIM_008.jpg	100
1497.825	0.649	649.1	2back	Block3	2back/STIM_009.jpg	99
1502.374	0.79	789.5	2back	Block3	2back/STIM_009.jpg	100
1506.179	0.66	659.6	2back	Block3	2back/STIM_009.jpg	99
1509.186	1.045	1045.1	2back	Block3	2back/STIM_010.jpg	99
1513.167	0.586	585.7	2back	Block3	2back/STIM_010.jpg	100
1517.713	0.746	745.7	2back	Block3	2back/STIM_010.jpg	100
1522.164	1.097	1097.0	2back	Block3	2back/STIM_011.jpg	100
1525.278	1.002	1002.1	2back	Block3	2back/STIM_011.jpg	100
1528.59	0.863	862.8	2back	Block3	2back/STIM_011.jpg	99
1531.718	0.858	858.0	2back	Block3	2back/STIM_012.jpg	100
1535.599	0.508	508.3	2back	Block3	2back/STIM_012.jpg	100
1539.559	0.792	792.3	2back	Block3	2back/STIM_012.jpg	99
1543.699	1.12	1119.9	2back	Block3	2back/STIM_013.jpg	100
1547.333	0.579	578.8	2back	Block3	2back/STIM_013.jpg	99
1550.478	0.659	658.6	2back	Block3	2back/STIM_013.jpg	99
1553.206	0.619	619.0	2back	Block3	2back/STIM_014.jpg	99
1556.769	0.879	878.7	2back	Block3	2back/STIM_014.jpg	100
1560.657	1.017	1016.6	2back	Block3	2back/STIM_014.jpg	99
1565.631	0.88	879.9	2back	Block3	2back/STIM_015.jpg	100
1569.613	0.637	637.3	2back	Block3	2back/STIM_015.jpg	99
1572.5	0.579	579.2	2back	Block3	2back/STIM_015.jpg	100
1575.695	0.923	922.9	2back	Block3	2back/STIM_016.jpg	99
1580.383	0.612	611.7	2back	Block3	2back/STIM_016.jpg	100
1583.693	0.82	819.6	2back	Block3	2back/STIM_016.jpg	99
1587.365	0.496	496.2	2back	Block3	2back/STIM_017.jpg	99
1591.599	0.817	817.4	2back	Block3	2back/STIM_017.jpg	99
1594.835	0.898	898.1	2back	Block3	2back/STIM_017.jpg	100
1597.94	0.58	580.5	2back	Block3	2back/STIM_018.jpg	99
1601.583	1.02	1019.6	2back	Block3	2back/STIM_018.jpg	100
1605.95	0.909	909.2	2back	Block3	2back/STIM_018.jpg	100
1610.034	0.683	683.2	2back	Block3	2back/STIM_019.jpg	100
1614.133	0.667	667.1	2back	Block3	2back/STIM_019.jpg	99
1618.357	0.488	488.4	2back	Block3	2back/STIM_019.jpg	99
1622.03	1.107	1107.2	2back	Block3	2back/STIM_020.jpg	100
1626.811	0.65	650.2	2back	Block3	2back/STIM_020.jpg	99
1629.976	0.92	920.0	2back	Block3	2back/STIM_020.jpg	99
1633.342	0.68	679.6	2back	Block3	2back/STIM_021.jpg	100
1637.017	1.076	1076.0	2back	Block3	2back/STIM_021.jpg	100
1640.824	0.932	931.9	2back	Block3	2back/STIM_021.jpg	100
1643.917	0.851	851.1	2back	Block3	2back/STIM_022.jpg	99
1648.551	0.747	747.0	2back	Block3	2back/STIM_022.jpg	99
1653.272	0.55	549.7	2back	Block3	2back/STIM_022.jpg	99
1656.778	0.928	927.7	2back	Block3	2back/STIM_023.jpg	100
1661.018	0.951	950.8	2back	Block3	2back/STIM_023.jpg	100
1664.626	0.946	945.7	2back	Block3	2back/STIM_023.jpg	100
1669.073	0.654	654.5	2back	Block3	2back/STIM_024.jpg	99
1672.006	1.107	1106.7	2back	Block3	2back/STIM_024.jpg	99
1676.855	0.593	592.9	2back	Block3	2back/STIM_024.jpg	99
1679.604	0.57	569.8	2back	Block3	2back/STIM_025.jpg	99
1683.989	0.775	775.3	2back	Block3	2back/STIM_025.jpg	100
1687.843	0.807	806.7	2back	Block3	2back/STIM_025.jpg	100
1692.49	0.505	505.4	2back	Block3	2back/STIM_026.jpg	99
1695.092	0.718	717.5	2back	Block3	2back/STIM_026.jpg	99
1698.461	0.69	690.0	2back	Block3	2back/STIM_026.jpg	100
1701.261	0.501	501.3	2back	Block3	2back/STIM_027.jpg	99
1704.985	0.631	631.3	2back	Block3	2back/STIM_027.jpg	99
1709.555	0.679	678.6	2back	Block3	2back/STIM_027.jpg	100
1712.495	0.494	494.0	2back	Block3	2back/STIM_028.jpg	100
1715.456	0.746	745.7	2back	Block3	2back/STIM_028.jpg	99
1719.659	1.02	1020.4	2back	Block3	2back/STIM_028.jpg	99
1724.047	1.072	1072.2	2back	Block3	2back/STIM_029.jpg	99
1728.217	0.619	618.8	2back	Block3	2back/STIM_029.jpg	99
1731.191	0.83	830.4	2back	Block3	2back/STIM_029.jpg	100
1734.435	1.108	1107.8	2back	Block3	2back/STIM_030.jpg	100
1739.185	1.047	1046.7	2back	Block3	2back/STIM_030.jpg	99
1743.618	0.738	738.0	2back	Block3	2back/STIM_030.jpg	100
1747.21	0.514	514.0	2back	Block3	2back/STIM_031.jpg	100
1751.687	0.633	633.3	2back	Block3	2back/STIM_031.jpg	99
1754.807	0.589	588.8	2back	Block3	2back/STIM_031.jpg	99
1758.638	0.803	803.2	2back	Block3	2back/STIM_032.jpg	100
1763.112	0.622	621.6	2back	Block3	2back/STIM_032.jpg	100
1766.365	0.922	921.9	2back	Block3	2back/STIM_032.jpg	99
1770.459	0.716	715.6	2back	Block3	2back/STIM_033.jpg	99
1773.932	0.522	521.6	2back	Block3	2back/STIM_033.jpg	100
1776.985	0.888	888.2	2back	Block3	2back/STIM_033.jpg	99
1780.995	0.714	714.3	2back	Block3	2back/STIM_034.jpg	100
1785.325	1.005	1005.2	2back	Block3	2back/STIM_034.jpg	100
1789.832	0.86	859.8	2back	Block3	2back/STIM_034.jpg	100
1793.635	0.68	680.3	2back	Block3	2back/STIM_035.jpg	99
1797.734	0.63	629.8	2back	Block3	2back/STIM_035.jpg	100
1801.592	0.982	981.8	2back	Block3	2back/STIM_035.jpg	99
1805.243	0.586	586.3	2back	Block3	2back/STIM_036.jpg	100
1808.634	0.811	810.6	2back	Block3	2back/STIM_036.jpg	99
1812.908	0.634	634.0	2back	Block3	2back/STIM_036.jpg	99
1816.323	0.562	562.4	2back	Block3	2back/STIM_037.jpg	100
1819.318	1.132	1131.5	2back	Block3	2back/STIM_037.jpg	99
1823.944	0.964	963.6	2back	Block3	2back/STIM_037.jpg	100
1827.341	0.806	806.2	2back	Block3	2back/STIM_038.jpg	99
1831.714	1.121	1120.8	2back	Block3	2back/STIM_038.jpg	99
1835.19	0.911	910.8	2back	Block3	2back/STIM_038.jpg	100
1838.857	1.049	1049.3	2back	Block3	2back/STIM_039.jpg	99
1842.543	0.799	799.3	2back	Block3	2back/STIM_039.jpg	100
1845.611	1.133	1132.9	2back	Block3	2back/STIM_039.jpg	100
1849.054	0.532	531.6	0back	Block3	0back/STIM_000.jpg	100
1851.725	0.761	761.0	0back	Block3	0back/STIM_000.jpg	100
1856.086	0.562	562.3	0back	Block3	0back/STIM_000.jpg	99
1860.468	0.742	742.3	0back	Block3	0back/STIM_001.jpg	99
1865.064	0.722	722.4	0back	Block3	0back/STIM_001.jpg	100
1869.572	0.687	687.1	0back	Block3	0back/STIM_001.jpg	99
1873.916	0.498	497.6	0back	Block3	0back/STIM_002.jpg	100
1878.395	0.48	480.5	0back	Block3	0back/STIM_002.jpg	100
1881.845	0.69	689.7	0back	Block3	0back/STIM_002.jpg	99
1885.762	0.823	822.6	0back	Block3	0back/STIM_003.jpg	100
1889.533	0.65	650.3	0back	Block3	0back/STIM_003.jpg	99
1892.417	0.684	684.2	0back	Block3	0back/STIM_003.jpg	99
1896.746	0.54	540.1	0back	Block3	0back/STIM_004.jpg	99
1899.763	0.517	517.2	0back	Block3	0back/STIM_004.jpg	99
1902.46	0.534	533.7	0back	Block3	0back/STIM_004.jpg	100
1906.526	0.793	792.9	0back	Block3	0back/STIM_005.jpg	99
1910.169	0.82	819.5	0back	Block3	0back/STIM_005.jpg	100
1913.693	0.903	903.1	0back	Block3	0back/STIM_005.jpg	99
1917.154	0.503	503.1	0back	Block3	0back/STIM_006.jpg	99
1921.331	0.692	691.7	0back	Block3	0back/STIM_006.jpg	100
1925.938	0.71	710.2	0back	Block3	0back/STIM_006.jpg	100
1930.309	0.555	555.0	0back	Block3	0back/STIM_007.jpg	100
1933.434	0.565	565.1	0back	Block3	0back/STIM_007.jpg	100
1937.932	0.795	795.3	0back	Block3	0back/STIM_007.jpg	100
1941.285	0.87	870.3	0back	Block3	0back/STIM_008.jpg	100
1944.693	0.517	516.8	0back	Block3	0back/STIM_008.jpg	100
1947.971	0.508	508.5	0back	Block3	0back/STIM_008.jpg	99
1951.025	0.738	738.4	0back	Block3	0back/STIM_009.jpg	100
1955.06	0.909	908.9	0back	Block3	0back/STIM_009.jpg	99
1958.157	0.876	876.4	0back	Block3	0back/STIM_009.jpg	99
1962.204	0.489	489.1	0back	Block3	0back/STIM_010.jpg	99
1966.271	0.557	557.3	0back	Block3	0back/STIM_010.jpg	99
1970.16	0.569	569.3	0back	Block3	0back/STIM_010.jpg	100
1973.669	0.625	624.8	0back	Block3	0back/STIM_011.jpg	100
1978.269	0.601	601.4	0back	Block3	0back/STIM_011.jpg	99
1982.107	0.772	771.9	0back	Block3	0back/STIM_011.jpg	99
1985.227	0.829	829.1	0back	Block3	0back/STIM_012.jpg	100
1989.158	0.706	706.4	0back	Block3	0back/STIM_012.jpg	99
1993.438	0.698	698.1	0back	Block3	0back/STIM_012.jpg	99
1997.786	0.51	509.8	0back	Block3	0back/STIM_013.jpg	100
2001.314	0.912	911.5	0back	Block3	0back/STIM_013.jpg	99
2004.343	0.871	871.4	0back	Block3	0back/STIM_013.jpg	99
2008.949	0.678	678.0	0back	Block3	0back/STIM_014.jpg	100
2012.315	0.785	784.8	0back	Block3	0back/STIM_014.jpg	99
2016.648	0.887	886.7	0back	Block3	0back/STIM_014.jpg	99
2019.592	0.593	592.8	0back	Block3	0back/STIM_015.jpg	100
2022.986	0.576	576.3	0back	Block3	0back/STIM_015.jpg	99
2026.3	0.807	807.1	0back	Block3	0back/STIM_015.jpg	99
2030.154	0.914	913.7	0back	Block3	0back/STIM_016.jpg	100
2034.563	0.818	817.7	0back	Block3	0back/STIM_016.jpg	100
2039.181	0.72	719.6	0back	Block3	0back/STIM_016.jpg	100
2043.645	0.86	860.4	0back	Block3	0back/STIM_017.jpg	100
2046.815	0.872	872.3	0back	Block3	0back/STIM_017.jpg	100
2050.005	0.756	756.0	0back	Block3	0back/STIM_017.jpg	99
2054.721	0.903	902.6	0back	Block3	0back/STIM_018.jpg	99
2059.221	0.605	604.9	0back	Block3	0back/STIM_018.jpg	100
2062.679	0.594	594.0	0back	Block3	0back/STIM_018.jpg	99
2066.237	0.817	817.0	0back	Block3	0back/STIM_019.jpg	99
2070.656	0.66	660.5	0back	Block3	0back/STIM_019.jpg	100
2073.723	0.86	859.5	0back	Block3	0back/STIM_019.jpg	99
2076.682	0.858	858.5	2back	Block4	2back/STIM_000.jpg	99
2080.271	0.677	677.0	2back	Block4	2back/STIM_000.jpg	99
2083.665	0.57	569.7	2back	Block4	2back/STIM_000.jpg	100
2087.478	0.801	801.2	2back	Block4	2back/STIM_001.jpg	100
2092.078	0.986	985.7	2back	Block4	2back/STIM_001.jpg	100
2095.753	0.526	526.2	2back	Block4	2back/STIM_001.jpg	99
2099.979	0.928	928.3	2back	Block4	2back/STIM_002.jpg	99
2103.185	0.685	684.8	2back	Block4	2back/STIM_002.jpg	99
2107.086	0.698	698.3	2back	Block4	2back/STIM_002.jpg	100
2110.395	0.553	553.1	2back	Block4	2back/STIM_003.jpg	99
2114.404	0.592	592.2	2back	Block4	2back/STIM_003.jpg	99
2117.138	1.096	1095.7	2back	Block4	2back/STIM_003.jpg	99
2121.31	0.697	696.9	2back	Block4	2back/STIM_004.jpg	100
2124.951	0.729	729.3	2back	Block4	2back/STIM_004.jpg	99
2129.443	0.541	541.2	2back	Block4	2back/STIM_004.jpg	99
2133.247	0.669	669.1	2back	Block4	2back/STIM_005.jpg	99
2136.383	0.84	840.1	2back	Block4	2back/STIM_005.jpg	99
2139.38	1.007	1007.4	2back	Block4	2back/STIM_005.jpg	100
2143.451	1.048	1047.6	2back	Block4	2back/STIM_006.jpg	99
2146.715	0.649	648.6	2back	Block4	2back/STIM_006.jpg	99
2149.512	1.025	1025.3	2back	Block4	2back/STIM_006.jpg	100
2152.796	0.707	707.4	2back	Block4	2back/STIM_007.jpg	100
2155.688	0.743	742.9	2back	Block4	2back/STIM_007.jpg	100
2160.353	0.735	735.1	2back	Block4	2back/STIM_007.jpg	100
2165.076	0.874	874.3	2back	Block4	2back/STIM_008.jpg	100
2169.524	0.842	841.8	2back	Block4	2back/STIM_008.jpg	100
2172.825	1.058	1058.5	2back	Block4	2back/STIM_008.jpg	100
2176.35	0.96	960.0	2back	Block4	2back/STIM_009.jpg	100
2179.904	0.793	792.7	2back	Block4	2back/STIM_009.jpg	99
2183.484	0.865	864.9	2back	Block4	2back/STIM_009.jpg	99
2188.213	0.872	871.8	2back	Block4	2back/STIM_010.jpg	100
2191.69	1.079	1079.4	2back	Block4	2back/STIM_010.jpg	100
2195.052	0.746	745.5	2back	Block4	2back/STIM_010.jpg	99
2198.218	0.616	616.4	2back	Block4	2back/STIM_011.jpg	100
2201.852	0.621	621.0	2back	Block4	2back/STIM_011.jpg	99
2205.013	0.619	618.9	2back	Block4	2back/STIM_011.jpg	99
2208.153	0.61	609.7	2back	Block4	2back/STIM_012.jpg	99
2211.064	1.114	1114.0	2back	Block4	2back/STIM_012.jpg	99
2215.075	1.049	1049.4	2back	Block4	2back/STIM_012.jpg	99
2219.171	0.963	963.4	2back	Block4	2back/STIM_013.jpg	99
2224.025	0.707	706.8	2back	Block4	2back/STIM_013.jpg	100
2228.388	0.725	725.4	2back	Block4	2back/STIM_013.jpg	99
2231.997	0.694	693.5	2back	Block4	2back/STIM_014.jpg	99
2236.681	0.742	742.0	2back	Block4	2back/STIM_014.jpg	100
2239.458	0.986	986.3	2back	Block4	2back/STIM_014.jpg	100
2242.645	0.845	845.3	2back	Block4	2back/STIM_015.jpg	100
2246.955	0.487	486.8	2back	Block4	2back/STIM_015.jpg	99
2251.193	0.625	624.7	2back	Block4	2back/STIM_015.jpg	100
2253.994	0.748	748.1	2back	Block4	2back/STIM_016.jpg	99
2258.45	0.577	577.0	2back	Block4	2back/STIM_016.jpg	100
2261.27	0.996	995.6	2back	Block4	2back/STIM_016.jpg	99
2265.969	0.692	691.8	2back	Block4	2back/STIM_017.jpg	99
2268.798	0.642	642.5	2back	Block4	2back/STIM_017.jpg	99
2273.369	0.984	984.4	2back	Block4	2back/STIM_017.jpg	99
2277.836	1.042	1041.9	2back	Block4	2back/STIM_018.jpg	100
2281.707	0.857	856.7	2back	Block4	2back/STIM_018.jpg	99
2284.998	0.539	538.8	2back	Block4	2back/STIM_018.jpg	100
2288.444	0.821	820.9	2back	Block4	2back/STIM_019.jpg	100
2292.027	1.007	1006.7	2back	Block4	2back/STIM_019.jpg	100
2295.877	0.587	586.8	2back	Block4	2back/STIM_019.jpg	100
2300.323	0.757	757.0	2back	Block4	2back/STIM_020.jpg	99
2305.02	0.722	722.2	2back	Block4	2back/STIM_020.jpg	99
2307.788	0.862	861.6	2back	Block4	2back/STIM_020.jpg	99
2311.43	0.93	929.5	2back	Block4	2back/STIM_021.jpg	100
2315.063	0.679	679.0	2back	Block4	2back/STIM_021.jpg	100
2318.497	0.5	500.4	2back	Block4	2back/STIM_021.jpg	100
2322.491	0.73	730.1	2back	Block4	2back/STIM_022.jpg	100
2325.666	0.738	737.9	2back	Block4	2back/STIM_022.jpg	99
2330.029	1.099	1099.1	2back	Block4	2back/STIM_022.jpg	99
2335.123	1.067	1067.2	2back	Block4	2back/STIM_023.jpg	100
2339.552	0.63	629.6	2back	Block4	2back/STIM_023.jpg	99
2344.045	0.743	742.7	2back	Block4	2back/STIM_023.jpg	100
2346.959	0.769	769.0	2back	Block4	2back/STIM_024.jpg	99
2350.527	0.722	721.5	2back	Block4	2back/STIM_024.jpg	99
2354.352	1.059	1058.9	2back	Block4	2back/STIM_024.jpg	99
2359.41	0.642	642.1	2back	Block4	2back/STIM_025.jpg	100
2363.184	0.984	983.6	2back	Block4	2back/STIM_025.jpg	100
2366.244	0.703	703.0	2back	Block4	2back/STIM_025.jpg	99
2369.481	0.724	723.6	2back	Block4	2back/STIM_026.jpg	100
2372.298	0.977	977.1	2back	Block4	2back/STIM_026.jpg	99
2377.238	0.777	776.6	2back	Block4	2back/STIM_026.jpg	100
2381.537	0.595	595.2	2back	Block4	2back/STIM_027.jpg	99
2384.845	0.979	978.7	2back	Block4	2back/STIM_027.jpg	100
2389.816	0.538	538.5	2back	Block4	2back/STIM_027.jpg	99
2393.089	0.947	946.9	2back	Block4	2back/STIM_028.jpg	99
2396.37	1.029	1028.8	2back	Block4	2back/STIM_028.jpg	100
2401.322	0.641	641.4	2back	Block4	2back/STIM_028.jpg	99
2404.129	0.538	538.4	2back	Block4	2back/STIM_029.jpg	99
2408.285	0.563	563.4	2back	Block4	2back/STIM_029.jpg	100
2412.703	1.125	1125.4	2back	Block4	2back/STIM_029.jpg	99
2415.973	0.487	486.7	2back	Block4	2back/STIM_030.jpg	100
2418.663	0.594	593.5	2back	Block4	2back/STIM_030.jpg	99
2421.718	0.646	646.5	2back	Block4	2back/STIM_030.jpg	99
2424.832	1.016	1015.9	2back	Block4	2back/STIM_031.jpg	100
2427.9	0.75	750.1	2back	Block4	2back/STIM_031.jpg	100
2430.691	0.745	745.0	2back	Block4	2back/STIM_031.jpg	99
2434.86	0.807	807.2	2back	Block4	2back/STIM_032.jpg	100
2438.293	0.656	655.5	2back	Block4	2back/STIM_032.jpg	100
2441.506	0.644	643.8	2back	Block4	2back/STIM_032.jpg	99
2444.851	0.732	732.5	2back	Block4	2back/STIM_033.jpg	99
2449.056	0.646	645.9	2back	Block4	2back/STIM_033.jpg	100
2453.414	0.79	789.6	2back	Block4	2back/STIM_033.jpg	99
2457.264	0.933	932.9	2back	Block4	2back/STIM_034.jpg	99
2460.979	1.068	1067.8	2back	Block4	2back/STIM_034.jpg	99
2464.269	0.538	538.0	2back	Block4	2back/STIM_034.jpg	99
2466.83	0.604	604.0	2back	Block4	2back/STIM_035.jpg	100
2470.302	1.091	1090.8	2back	Block4	2back/STIM_035.jpg	100
2474.824	0.879	878.6	2back	Block4	2back/STIM_035.jpg	100
2478.662	0.571	571.2	2back	Block4	2back/STIM_036.jpg	100
2481.778	0.665	664.6	2back	Block4	2back/STIM_036.jpg	99
2486.389	0.529	528.8	2back	Block4	2back/STIM_036.jpg	100
2489.338	0.624	624.1	2back	Block4	2back/STIM_037.jpg	99
2492.468	1.121	1121.4	2back	Block4	2back/STIM_037.jpg	100
2496.109	0.9	900.5	2back	Block4	2back/STIM_037.jpg	99
2500.366	1.037	1037.3	2back	Block4	2back/STIM_038.jpg	99
2505.168	0.606	606.4	2back	Block4	2back/STIM_038.jpg	99
2509.477	0.739	738.9	2back	Block4	2back/STIM_038.jpg	100
2513.735	0.94	939.5	2back	Block4	2back/STIM_039.jpg	100
2517.544	0.568	567.7	2back	Block4	2back/STIM_039.jpg	100
2521.116	0.786	785.8	2back	Block4	2back/STIM_039.jpg	100
2525.729	0.493	493.0	0back	Block4	0back/STIM_000.jpg	99
2529.394	0.783	783.2	0back	Block4	0back/STIM_000.jpg	99
2533.576	0.624	623.5	0back	Block4	0back/STIM_000.jpg	100
2536.794	0.55	549.9	0back	Block4	0back/STIM_001.jpg	100
2540.998	0.762	762.1	0back	Block4	0back/STIM_001.jpg	99
2544.871	0.674	673.6	0back	Block4	0back/STIM_001.jpg	99
2547.928	0.835	835.1	0back	Block4	0back/STIM_002.jpg	100
2552.698	0.92	919.7	0back	Block4	0back/STIM_002.jpg	99
2557.468	0.62	619.5	0back	Block4	0back/STIM_002.jpg	100
2561.816	0.649	648.8	0back	Block4	0back/STIM_003.jpg	100
2565.76	0.482	481.7	0back	Block4	0back/STIM_003.jpg	99
2568.92	0.475	475.0	0back	Block4	0back/STIM_003.jpg	99
2572.618	0.517	517.0	0back	Block4	0back/STIM_004.jpg	100
2576.538	0.765	764.8	0back	Block4	0back/STIM_004.jpg	100
2579.94	0.75	750.4	0back	Block4	0back/STIM_004.jpg	99
2582.984	0.513	513.0	0back	Block4	0back/STIM_005.jpg	100
2587.0	0.799	799.3	0back	Block4	0back/STIM_005.jpg	100
2589.887	0.675	675.3	0back	Block4	0back/STIM_005.jpg	100
2593.034	0.588	587.8	0back	Block4	0back/STIM_006.jpg	100
2595.624	0.494	493.7	0back	Block4	0back/STIM_006.jpg	99
2599.698	0.652	652.0	0back	Block4	0back/STIM_006.jpg	100
2604.203	0.485	485.0	0back	Block4	0back/STIM_007.jpg	99
2608.163	0.759	758.9	0back	Block4	0back/STIM_007.jpg	99
2612.25	0.724	723.5	0back	Block4	0back/STIM_007.jpg	99
2615.222	0.628	628.5	0back	Block4	0back/STIM_008.jpg	100
2618.207	0.84	839.8	0back	Block4	0back/STIM_008.jpg	99
2621.847	0.547	547.1	0back	Block4	0back/STIM_008.jpg	99
2626.27	0.782	781.8	0back	Block4	0back/STIM_009.jpg	100
2630.9	0.517	517.1	0back	Block4	0back/STIM_009.jpg	100
2634.226	0.554	553.6	0back	Block4	0back/STIM_009.jpg	100
2638.293	0.745	745.1	0back	Block4	0back/STIM_010.jpg	100
2641.469	0.54	540.4	0back	Block4	0back/STIM_010.jpg	100
2645.445	0.558	558.2	0back	Block4	0back/STIM_010.jpg	100
2649.087	0.83	830.3	0back	Block4	0back/STIM_011.jpg	99
2653.221	0.872	872.3	0back	Block4	0back/STIM_011.jpg	100
2656.507	0.547	546.7	0back	Block4	0back/STIM_011.jpg	100
2659.775	0.783	782.8	0back	Block4	0back/STIM_012.jpg	100
2663.815	0.722	722.0	0back	Block4	0back/STIM_012.jpg	100
2667.176	0.892	892.3	0back	Block4	0back/STIM_012.jpg	99
2670.107	0.7	699.8	0back	Block4	0back/STIM_013.jpg	99
2673.438	0.685	684.7	0back	Block4	0back/STIM_013.jpg	100
2676.845	0.916	916.5	0back	Block4	0back/STIM_013.jpg	100
2681.475	0.585	584.7	0back	Block4	0back/STIM_014.jpg	99
2685.062	0.63	630.1	0back	Block4	0back/STIM_014.jpg	99
2687.935	0.719	718.9	0back	Block4	0back/STIM_014.jpg	99
2692.135	0.68	679.8	0back	Block4	0back/STIM_015.jpg	100
2696.264	0.641	640.7	0back	Block4	0back/STIM_015.jpg	100
2699.618	0.76	760.0	0back	Block4	0back/STIM_015.jpg	99
2703.528	0.481	480.9	0back	Block4	0back/STIM_016.jpg	100
2707.212	0.519	519.2	0back	Block4	0back/STIM_016.jpg	99
2709.982	0.566	565.8	0back	Block4	0back/STIM_016.jpg	100
2713.126	0.643	642.7	0back	Block4	0back/STIM_017.jpg	99
2716.155	0.777	776.8	0back	Block4	0back/STIM_017.jpg	100
2720.101	0.898	897.5	0back	Block4	0back/STIM_017.jpg	99
2723.622	0.542	542.5	0back	Block4	0back/STIM_018.jpg	100
2726.881	0.653	652.7	0back	Block4	0back/STIM_018.jpg	100
2730.964	0.779	779.2	0back	Block4	0back/STIM_018.jpg	99
2735.449	0.866	865.8	0back	Block4	0back/STIM_019.jpg	99
2738.405	0.678	677.5	0back	Block4	0back/STIM_019.jpg	99
2741.31	0.509	508.8	0back	Block4	0back/STIM_019.jpg	99
