onset	duration	response_time_ms	trial_type	learning_stage	stimulus	response_port
0.0	1.444	1444.1	study	Phase1	study/STIM_000.jpg	100
5.426	1.692	1692.2	study	Phase1	study/STIM_000.jpg	99
10.698	0.985	985.4	study	Phase1	study/STIM_000.jpg	99
15.434	1.317	1317.1	study	Phase1	study/STIM_001.jpg	99
19.388	1.54	1539.6	study	Phase1	study/STIM_001.jpg	99
24.802	0.87	869.6	study	Phase1	study/STIM_001.jpg	99
29.681	1.442	1441.7	study	Phase1	study/STIM_002.jpg	100
34.589	0.921	920.6	study	Phase1	study/STIM_002.jpg	100
39.411	1.195	1194.7	study	Phase1	study/STIM_002.jpg	99
43.45	1.616	1616.2	study	Phase1	study/STIM_003.jpg	99
48.092	1.088	1087.7	study	Phase1	study/STIM_003.jpg	100
52.099	0.878	877.8	study	Phase1	study/STIM_003.jpg	99
56.11	1.701	1700.6	study	Phase1	study/STIM_004.jpg	100
61.666	1.418	1417.8	study	Phase1	study/STIM_004.jpg	99
65.623	1.24	1240.3	study	Phase1	study/STIM_004.jpg	99
68.985	0.876	875.8	study	Phase1	study/STIM_005.jpg	100
73.663	0.871	870.6	study	Phase1	study/STIM_005.jpg	100
77.53	1.078	1078.0	study	Phase1	study/STIM_005.jpg	100
81.216	1.28	1280.1	study	Phase1	study/STIM_006.jpg	100
85.597	1.449	1449.3	study	Phase1	study/STIM_006.jpg	100
90.018	1.141	1140.8	study	Phase1	study/STIM_006.jpg	99
94.547	1.642	1641.5	study	Phase1	study/STIM_007.jpg	99
100.09	1.164	1163.8	study	Phase1	study/STIM_007.jpg	100
103.479	1.417	1416.6	study	Phase1	study/STIM_007.jpg	99
108.863	1.468	1467.8	study	Phase1	study/STIM_008.jpg	99
113.596	0.978	978.1	study	Phase1	study/STIM_008.jpg	100
117.323	1.355	1354.6	study	Phase1	study/STIM_008.jpg	99
122.196	1.758	1758.5	study	Phase1	study/STIM_009.jpg	100
127.026	1.307	1307.3	study	Phase1	study/STIM_009.jpg	99
132.02	1.564	1564.4	study	Phase1	study/STIM_009.jpg	100
136.433	1.537	1536.6	study	Phase1	study/STIM_010.jpg	99
141.173	1.045	1044.9	study	Phase1	study/STIM_010.jpg	99
145.342	1.532	1532.0	study	Phase1	study/STIM_010.jpg	99
149.891	1.012	1011.6	study	Phase1	study/STIM_011.jpg	99
153.862	0.946	946.1	study	Phase1	study/STIM_011.jpg	99
158.312	0.808	808.3	study	Phase1	study/STIM_011.jpg	100
161.635	1.658	1658.4	study	Phase1	study/STIM_012.jpg	100
165.696	1.231	1231.3	study	Phase1	study/STIM_012.jpg	99
170.264	1.371	1370.7	study	Phase1	study/STIM_012.jpg	99
173.617	1.421	1421.0	study	Phase1	study/STIM_013.jpg	99
177.71	0.9	899.8	study	Phase1	study/STIM_013.jpg	99
181.725	1.511	1511.1	study	Phase1	study/STIM_013.jpg	99
186.265	1.661	1660.6	study	Phase1	study/STIM_014.jpg	99
190.343	1.405	1404.9	study	Phase1	study/STIM_014.jpg	99
195.774	0.945	944.6	study	Phase1	study/STIM_014.jpg	99
200.018	1.411	1410.9	study	Phase1	study/STIM_015.jpg	99
205.061	1.741	1741.4	study	Phase1	study/STIM_015.jpg	99
210.453	1.541	1541.1	study	Phase1	study/STIM_015.jpg	100
214.388	1.388	1388.4	study	Phase1	study/STIM_016.jpg	100
217.819	1.553	1553.1	study	Phase1	study/STIM_016.jpg	99
222.257	1.418	1418.3	study	Phase1	study/STIM_016.jpg	99
227.631	1.638	1637.8	study	Phase1	study/STIM_017.jpg	99
232.862	1.358	1358.2	study	Phase1	study/STIM_017.jpg	99
237.882	1.29	1290.4	study	Phase1	study/STIM_017.jpg	100
242.201	1.402	1401.5	study	Phase1	study/STIM_018.jpg	100
246.517	1.46	1460.1	study	Phase1	study/STIM_018.jpg	99
250.951	1.575	1574.7	study	Phase1	study/STIM_018.jpg	99
256.153	1.693	1693.2	study	Phase1	study/STIM_019.jpg	100
260.267	1.569	1568.8	study	Phase1	study/STIM_019.jpg	100
264.084	1.121	1121.3	study	Phase1	study/STIM_019.jpg	99
267.29	1.86	1860.2	study	Phase1	study/STIM_020.jpg	100
272.64	1.487	1487.3	study	Phase1	study/STIM_020.jpg	99
277.075	1.522	1521.7	study	Phase1	study/STIM_020.jpg	100
280.808	1.754	1753.8	study	Phase1	study/STIM_021.jpg	99
285.345	1.678	1677.7	study	Phase1	study/STIM_021.jpg	100
289.278	1.054	1054.5	study	Phase1	study/STIM_021.jpg	100
294.21	1.25	1250.1	study	Phase1	study/STIM_022.jpg	99
297.802	1.116	1115.5	study	Phase1	study/STIM_022.jpg	99
302.496	1.049	1048.8	study	Phase1	study/STIM_022.jpg	99
306.692	1.057	1057.0	study	Phase1	study/STIM_023.jpg	100
310.842	1.22	1220.5	study	Phase1	study/STIM_023.jpg	100
315.284	1.552	1551.5	study	Phase1	study/STIM_023.jpg	99
320.547	1.351	1350.7	study	Phase1	study/STIM_024.jpg	100
325.096	1.419	1419.2	study	Phase1	study/STIM_024.jpg	100
328.688	0.847	847.4	study	Phase1	study/STIM_024.jpg	99
331.825	0.999	998.8	study	Phase1	study/STIM_025.jpg	100
336.549	0.97	970.2	study	Phase1	study/STIM_025.jpg	100
340.106	0.991	990.7	study	Phase1	study/STIM_025.jpg	100
343.805	0.866	865.7	study	Phase1	study/STIM_026.jpg	99
347.481	0.882	882.5	study	Phase1	study/STIM_026.jpg	100
350.762	1.271	1270.6	study	Phase1	study/STIM_026.jpg	99
355.292	0.912	912.3	study	Phase1	study/STIM_027.jpg	99
358.971	0.989	989.1	study	Phase1	study/STIM_027.jpg	99
362.459	1.689	1689.1	study	Phase1	study/STIM_027.jpg	99
367.903	0.897	897.1	study	Phase1	study/STIM_028.jpg	100
370.928	1.376	1376.0	study	Phase1	study/STIM_028.jpg	99
374.86	1.18	1179.5	study	Phase1	study/STIM_028.jpg	99
379.917	1.224	1223.6	study	Phase1	study/STIM_029.jpg	99
383.878	1.762	1761.9	study	Phase1	study/STIM_029.jpg	100
388.664	0.81	809.8	study	Phase1	study/STIM_029.jpg	100
393.179	1.225	1224.9	test	Phase1	test/STIM_000.jpg	100
397.313	0.743	743.1	test	Phase1	test/STIM_000.jpg	100
400.382	0.803	802.6	test	Phase1	test/STIM_000.jpg	99
404.677	0.941	940.8	test	Phase1	test/STIM_001.jpg	100
408.373	1.237	1236.6	test	Phase1	test/STIM_001.jpg	99
411.805	0.642	641.9	test	Phase1	test/STIM_001.jpg	100
414.607	1.023	1022.6	test	Phase1	test/STIM_002.jpg	100
417.935	0.8	800.1	test	Phase1	test/STIM_002.jpg	99
421.751	1.173	1172.9	test	Phase1	test/STIM_002.jpg	99
425.564	1.117	1117.3	test	Phase1	test/STIM_003.jpg	100
429.088	1.343	1343.0	test	Phase1	test/STIM_003.jpg	100
434.23	0.537	537.4	test	Phase1	test/STIM_003.jpg	99
437.706	0.846	845.5	test	Phase1	test/STIM_004.jpg	99
440.945	1.04	1039.5	test	Phase1	test/STIM_004.jpg	100
445.442	0.786	786.4	test	Phase1	test/STIM_004.jpg	99
449.615	0.931	931.0	test	Phase1	test/STIM_005.jpg	99
453.737	1.179	1179.1	test	Phase1	test/STIM_005.jpg	99
458.277	1.235	1235.3	test	Phase1	test/STIM_005.jpg	99
462.103	0.793	793.4	test	Phase1	test/STIM_006.jpg	100
466.897	0.927	926.9	test	Phase1	test/STIM_006.jpg	99
471.038	1.136	1135.7	test	Phase1	test/STIM_006.jpg	100
474.533	1.233	1232.6	test	Phase1	test/STIM_007.jpg	99
478.355	0.94	939.9	test	Phase1	test/STIM_007.jpg	99
482.919	0.668	668.3	test	Phase1	test/STIM_007.jpg	99
486.1	1.263	1262.9	test	Phase1	test/STIM_008.jpg	100
491.353	0.73	730.2	test	Phase1	test/STIM_008.jpg	99
494.374	1.206	1206.0	test	Phase1	test/STIM_008.jpg	100
498.442	1.005	1004.7	test	Phase1	test/STIM_009.jpg	99
501.745	1.338	1337.8	test	Phase1	test/STIM_009.jpg	100
506.315	1.058	1058.5	test	Phase1	test/STIM_009.jpg	99
511.368	0.557	557.4	test	Phase1	test/STIM_010.jpg	99
514.77	1.126	1125.7	test	Phase1	test/STIM_010.jpg	100
519.75	1.227	1227.4	test	Phase1	test/STIM_010.jpg	100
524.806	1.156	1156.2	test	Phase1	test/STIM_011.jpg	100
529.61	1.001	1001.1	test	Phase1	test/STIM_011.jpg	100
533.236	0.696	696.4	test	Phase1	test/STIM_011.jpg	100
536.852	1.179	1179.3	test	Phase1	test/STIM_012.jpg	99
540.212	0.623	623.0	test	Phase1	test/STIM_012.jpg	99
544.013	0.899	899.4	test	Phase1	test/STIM_012.jpg	99
548.444	1.153	1152.7	test	Phase1	test/STIM_013.jpg	100
552.515	0.77	770.5	test	Phase1	test/STIM_013.jpg	100
556.539	1.038	1037.6	test	Phase1	test/STIM_013.jpg	100
560.1	1.19	1190.4	test	Phase1	test/STIM_014.jpg	100
565.143	0.861	861.1	test	Phase1	test/STIM_014.jpg	99
569.302	0.578	578.2	test	Phase1	test/STIM_014.jpg	100
573.317	1.261	1261.4	test	Phase1	test/STIM_015.jpg	100
577.936	1.147	1147.1	test	Phase1	test/STIM_015.jpg	99
581.591	1.27	1270.0	test	Phase1	test/STIM_015.jpg	99
586.244	1.165	1164.9	test	Phase1	test/STIM_016.jpg	99
589.836	1.062	1061.6	test	Phase1	test/STIM_016.jpg	100
594.201	1.132	1131.8	test	Phase1	test/STIM_016.jpg	99
598.764	0.593	593.2	test	Phase1	test/STIM_017.jpg	100
602.942	1.267	1266.8	test	Phase1	test/STIM_017.jpg	99
607.24	0.798	798.2	test	Phase1	test/STIM_017.jpg	99
610.167	0.857	857.1	test	Phase1	test/STIM_018.jpg	99
613.381	0.72	719.9	test	Phase1	test/STIM_018.jpg	99
616.71	1.12	1120.5	test	Phase1	test/STIM_018.jpg	100
621.696	0.626	626.1	test	Phase1	test/STIM_019.jpg	99
625.206	0.681	681.4	test	Phase1	test/STIM_019.jpg	100
629.843	1.155	1155.3	test	Phase1	test/STIM_019.jpg	100
634.961	1.247	1246.7	test	Phase1	test/STIM_020.jpg	99
638.309	0.751	750.6	test	Phase1	test/STIM_020.jpg	99
642.066	1.292	1291.8	test	Phase1	test/STIM_020.jpg	100
645.773	1.064	1064.2	test	Phase1	test/STIM_021.jpg	100
649.851	1.052	1051.9	test	Phase1	test/STIM_021.jpg	100
654.924	1.298	1297.9	test	Phase1	test/STIM_021.jpg	100
658.528	0.692	692.4	test	Phase1	test/STIM_022.jpg	99
662.358	1.203	1203.2	test	Phase1	test/STIM_022.jpg	100
667.402	0.641	641.1	test	Phase1	test/STIM_022.jpg	99
670.995	1.197	1197.0	test	Phase1	test/STIM_023.jpg	99
675.647	1.151	1151.3	test	Phase1	test/STIM_023.jpg	99
680.174	1.093	1092.8	test	Phase1	test/STIM_023.jpg	99
685.069	1.118	1118.3	test	Phase1	test/STIM_024.jpg	100
689.551	0.9	900.5	test	Phase1	test/STIM_024.jpg	100
692.796	1.238	1237.5	test	Phase1	test/STIM_024.jpg	100
696.963	1.142	1141.6	test	Phase1	test/STIM_025.jpg	99
700.391	1.21	1209.6	test	Phase1	test/STIM_025.jpg	100
705.462	1.207	1207.0	test	Phase1	test/STIM_025.jpg	100
710.223	0.778	778.3	test	Phase1	test/STIM_026.jpg	99
713.791	1.068	1067.6	test	Phase1	test/STIM_026.jpg	100
717.857	0.81	809.5	test	Phase1	test/STIM_026.jpg	99
721.127	1.024	1023.5	test	Phase1	test/STIM_027.jpg	100
726.008	0.671	671.3	test	Phase1	test/STIM_027.jpg	99
730.502	0.803	802.9	test	Phase1	test/STIM_027.jpg	99
734.614	1.252	1251.9	test	Phase1	test/STIM_028.jpg	100
738.151	1.08	1080.3	test	Phase1	test/STIM_028.jpg	99
742.436	1.015	1015.2	test	Phase1	test/STIM_028.jpg	99
747.21	1.003	1002.9	test	Phase1	test/STIM_029.jpg	99
750.947	0.874	873.7	test	Phase1	test/STIM_029.jpg	99
754.705	1.132	1132.5	test	Phase1	test/STIM_029.jpg	100
759.373	0.864	864.5	study	Phase2	study/STIM_000.jpg	100
764.185	0.822	822.0	study	Phase2	study/STIM_000.jpg	100
767.932	1.252	1252.0	study	Phase2	study/STIM_000.jpg	100
772.595	0.921	920.9	study	Phase2	study/STIM_001.jpg	99
777.473	0.942	942.4	study	Phase2	study/STIM_001.jpg	100
781.706	0.573	572.8	study	Phase2	study/STIM_001.jpg	99
784.619	1.006	1005.7	study	Phase2	study/STIM_002.jpg	100
789.2	0.69	690.4	study	Phase2	study/STIM_002.jpg	100
792.086	0.841	840.6	study	Phase2	study/STIM_002.jpg	99
795.64	0.711	710.6	study	Phase2	study/STIM_003.jpg	99
798.895	1.127	1126.9	study	Phase2	study/STIM_003.jpg	99
803.343	0.638	637.9	study	Phase2	study/STIM_003.jpg	100
806.299	1.021	1021.2	study	Phase2	study/STIM_004.jpg	100
809.97	0.687	687.4	study	Phase2	study/STIM_004.jpg	100
814.42	0.694	694.0	study	Phase2	study/STIM_004.jpg	99
817.946	1.087	1087.4	study	Phase2	study/STIM_005.jpg	100
822.956	0.878	877.8	study	Phase2	study/STIM_005.jpg	100
825.945	0.868	868.4	study	Phase2	study/STIM_005.jpg	100
830.306	1.307	1307.4	study	Phase2	study/STIM_006.jpg	99
834.841	1.242	1242.5	study	Phase2	study/STIM_006.jpg	99
839.725	0.833	833.4	study	Phase2	study/STIM_006.jpg	100
843.887	0.976	976.0	study	Phase2	study/STIM_007.jpg	100
848.446	0.71	709.7	study	Phase2	study/STIM_007.jpg	99
852.403	0.95	949.9	study	Phase2	study/STIM_007.jpg	100
856.426	1.446	1446.2	study	Phase2	study/STIM_008.jpg	99
861.573	0.782	781.9	study	Phase2	study/STIM_008.jpg	100
865.185	1.272	1272.0	study	Phase2	study/STIM_008.jpg	99
869.908	0.896	895.8	study	Phase2	study/STIM_009.jpg	100
872.894	0.67	669.8	study	Phase2	study/STIM_009.jpg	100
875.685	0.662	661.9	study	Phase2	study/STIM_009.jpg	99
878.533	0.873	872.6	study	Phase2	study/STIM_010.jpg	99
882.414	1.407	1406.6	study	Phase2	study/STIM_010.jpg	99
887.591	1.064	1064.1	study	Phase2	study/STIM_010.jpg	99
892.187	1.412	1412.3	study	Phase2	study/STIM_011.jpg	100
897.079	0.922	922.1	study	Phase2	study/STIM_011.jpg	99
900.652	1.086	1085.7	study	Phase2	study/STIM_011.jpg	100
905.537	0.667	667.2	study	Phase2	study/STIM_012.jpg	100
908.256	0.844	844.4	study	Phase2	study/STIM_012.jpg	99
911.405	0.82	819.5	study	Phase2	study/STIM_012.jpg	99
914.329	1.513	1513.0	study	Phase2	study/STIM_013.jpg	100
918.097	1.103	1103.2	study	Phase2	study/STIM_013.jpg	99
922.333	0.725	725.2	study	Phase2	study/STIM_013.jpg	99
925.075	1.086	1085.9	study	Phase2	study/STIM_014.jpg	100
928.775	0.629	629.0	study	Phase2	study/STIM_014.jpg	99
931.919	1.028	1027.6	study	Phase2	study/STIM_014.jpg	99
935.67	1.361	1360.8	study	Phase2	study/STIM_015.jpg	100
939.496	1.472	1472.5	study	Phase2	study/STIM_015.jpg	100
944.158	1.212	1212.3	study	Phase2	study/STIM_015.jpg	99
947.584	1.197	1196.9	study	Phase2	study/STIM_016.jpg	99
951.36	0.853	853.1	study	Phase2	study/STIM_016.jpg	99
955.945	1.071	1070.7	study	Phase2	study/STIM_016.jpg	99
959.936	0.952	951.9	study	Phase2	study/STIM_017.jpg	99
964.674	1.213	1213.4	study	Phase2	study/STIM_017.jpg	99
969.603	0.741	740.6	study	Phase2	study/STIM_017.jpg	100
973.939	1.31	1310.3	study	Phase2	study/STIM_018.jpg	99
978.746	1.041	1040.6	study	Phase2	study/STIM_018.jpg	100
982.037	0.583	583.2	study	Phase2	study/STIM_018.jpg	99
986.03	0.727	727.4	study	Phase2	study/STIM_019.jpg	99
989.13	0.828	827.7	study	Phase2	study/STIM_019.jpg	100
993.105	0.838	838.1	study	Phase2	study/STIM_019.jpg	100
996.429	1.12	1120.4	study	Phase2	study/STIM_020.jpg	100
1000.275	0.734	734.3	study	Phase2	study/STIM_020.jpg	100
1004.655	0.964	964.4	study	Phase2	study/STIM_020.jpg	100
1008.728	0.909	908.7	study	Phase2	study/STIM_021.jpg	100
1012.24	0.793	793.3	study	Phase2	study/STIM_021.jpg	100
1015.273	1.093	1093.2	study	Phase2	study/STIM_021.jpg	99
1018.63	1.436	1436.3	study	Phase2	study/STIM_022.jpg	99
1023.0	1.002	1002.2	study	Phase2	study/STIM_022.jpg	99
1026.758	0.892	892.3	study	Phase2	study/STIM_022.jpg	99
1030.386	1.424	1423.7	study	Phase2	study/STIM_023.jpg	100
1034.941	1.191	1191.2	study	Phase2	study/STIM_023.jpg	100
1039.819	0.789	788.7	study	Phase2	study/STIM_023.jpg	100
1043.135	0.795	795.1	study	Phase2	study/STIM_024.jpg	100
1047.551	1.236	1235.9	study	Phase2	study/STIM_024.jpg	99
1051.991	0.698	698.2	study	Phase2	study/STIM_024.jpg	100
1055.192	0.69	690.1	study	Phase2	study/STIM_025.jpg	99
1059.353	1.226	1226.3	study	Phase2	study/STIM_025.jpg	100
1062.795	1.03	1030.2	study	Phase2	study/STIM_025.jpg	99
1066.004	1.118	1117.9	study	Phase2	study/STIM_026.jpg	99
1070.153	1.372	1372.1	study	Phase2	study/STIM_026.jpg	100
1074.832	0.664	664.1	study	Phase2	study/STIM_026.jpg	100
1077.736	1.307	1307.1	study	Phase2	study/STIM_027.jpg	99
1081.351	0.832	832.1	study	Phase2	study/STIM_027.jpg	99
1084.953	0.772	772.5	study	Phase2	study/STIM_027.jpg	100
1088.672	1.052	1052.4	study	Phase2	study/STIM_028.jpg	99
1093.61	1.042	1041.5	study	Phase2	study/STIM_028.jpg	99
1098.292	0.996	996.3	study	Phase2	study/STIM_028.jpg	100
1102.832	1.308	1307.7	study	Phase2	study/STIM_029.jpg	99
1106.257	0.811	811.0	study	Phase2	study/STIM_029.jpg	99
1110.279	1.176	1176.3	study	Phase2	study/STIM_029.jpg	100
1114.503	0.961	961.2	test	Phase2	test/STIM_000.jpg	99
1118.407	1.003	1003.2	test	Phase2	test/STIM_000.jpg	99
1122.601	0.609	609.0	test	Phase2	test/STIM_000.jpg	100
1126.104	0.9	900.2	test	Phase2	test/STIM_001.jpg	100
1130.991	0.858	858.1	test	Phase2	test/STIM_001.jpg	100
1134.847	1.143	1142.8	test	Phase2	test/STIM_001.jpg	99
1139.876	0.87	870.4	test	Phase2	test/STIM_002.jpg	99
1143.427	1.138	1138.5	test	Phase2	test/STIM_002.jpg	100
1147.461	0.619	619.0	test	Phase2	test/STIM_002.jpg	99
1151.378	1.287	1286.6	test	Phase2	test/STIM_003.jpg	99
1156.193	1.08	1080.2	test	Phase2	test/STIM_003.jpg	100
1159.653	0.613	613.1	test	Phase2	test/STIM_003.jpg	99
1163.858	0.877	877.3	test	Phase2	test/STIM_004.jpg	99
1168.562	0.812	812.0	test	Phase2	test/STIM_004.jpg	100
1171.915	0.839	838.7	test	Phase2	test/STIM_004.jpg	99
1176.598	0.592	592.3	test	Phase2	test/STIM_005.jpg	99
1180.093	0.604	604.0	test	Phase2	test/STIM_005.jpg	100
1183.39	0.837	836.7	test	Phase2	test/STIM_005.jpg	99
1186.499	0.877	877.2	test	Phase2	test/STIM_006.jpg	100
1191.095	1.025	1025.2	test	Phase2	test/STIM_006.jpg	100
1195.354	1.086	1086.3	test	Phase2	test/STIM_006.jpg	99
1198.95	1.172	1172.3	test	Phase2	test/STIM_007.jpg	99
1202.673	1.33	1330.2	test	Phase2	test/STIM_007.jpg	99
1207.052	1.028	1027.5	test	Phase2	test/STIM_007.jpg	99
1212.016	0.937	936.7	test	Phase2	test/STIM_008.jpg	99
1215.92	1.259	1258.6	test	Phase2	test/STIM_008.jpg	99
1220.58	1.221	1221.2	test	Phase2	test/STIM_008.jpg	99
1225.662	1.101	1101.2	test	Phase2	test/STIM_009.jpg	99
1228.729	1.021	1020.8	test	Phase2	test/STIM_009.jpg	100
1232.437	1.148	1148.4	test	Phase2	test/STIM_009.jpg	99
1236.662	0.699	699.0	test	Phase2	test/STIM_010.jpg	100
1241.016	0.744	744.3	test	Phase2	test/STIM_010.jpg	99
1245.624	1.104	1103.8	test	Phase2	test/STIM_010.jpg	100
1249.066	0.98	980.5	test	Phase2	test/STIM_011.jpg	99
1252.447	0.675	675.2	test	Phase2	test/STIM_011.jpg	100
1255.824	0.847	847.4	test	Phase2	test/STIM_011.jpg	100
1259.282	1.094	1093.6	test	Phase2	test/STIM_012.jpg	100
1263.252	0.708	707.6	test	Phase2	test/STIM_012.jpg	100
1267.065	1.095	1094.9	test	Phase2	test/STIM_012.jpg	99
1271.683	0.781	781.0	test	Phase2	test/STIM_013.jpg	100
1275.134	0.764	764.1	test	Phase2	test/STIM_013.jpg	99
1279.346	0.79	790.1	test	Phase2	test/STIM_013.jpg	99
1282.918	0.851	851.2	test	Phase2	test/STIM_014.jpg	100
1286.001	0.831	830.7	test	Phase2	test/STIM_014.jpg	99
1290.285	0.941	941.4	test	Phase2	test/STIM_014.jpg	99
1293.857	0.949	948.6	test	Phase2	test/STIM_015.jpg	100
1297.169	0.649	648.9	test	Phase2	test/STIM_015.jpg	100
1300.76	1.212	1211.8	test	Phase2	test/STIM_015.jpg	99
1304.643	0.747	747.0	test	Phase2	test/STIM_016.jpg	100
1307.579	1.15	1150.1	test	Phase2	test/STIM_016.jpg	100
1312.435	0.725	725.3	test	Phase2	test/STIM_016.jpg	100
1316.813	0.979	979.2	test	Phase2	test/STIM_017.jpg	99
1320.377	0.889	889.3	test	Phase2	test/STIM_017.jpg	100
1323.364	0.599	598.9	test	Phase2	test/STIM_017.jpg	100
1326.587	0.904	904.0	test	Phase2	test/STIM_018.jpg	100
1330.157	1.077	1076.8	test	Phase2	test/STIM_018.jpg	100
1333.722	1.12	1120.1	test	Phase2	test/STIM_018.jpg	100
1338.366	0.57	570.1	test	Phase2	test/STIM_019.jpg	100
1341.698	1.22	1220.5	test	Phase2	test/STIM_019.jpg	100
1346.173	0.984	984.2	test	Phase2	test/STIM_019.jpg	99
1349.413	0.691	690.8	test	Phase2	test/STIM_020.jpg	100
1353.607	1.353	1352.7	test	Phase2	test/STIM_020.jpg	100
1357.014	1.306	1305.6	test	Phase2	test/STIM_020.jpg	99
1362.296	1.105	1105.4	test	Phase2	test/STIM_021.jpg	100
1367.098	0.639	639.0	test	Phase2	test/STIM_021.jpg	100
1370.341	0.759	758.8	test	Phase2	test/STIM_021.jpg	100
1373.156	0.835	834.6	test	Phase2	test/STIM_022.jpg	100
1376.942	0.917	916.7	test	Phase2	test/STIM_022.jpg	100
1381.76	1.317	1317.0	test	Phase2	test/STIM_022.jpg	100
1385.576	1.238	1237.9	test	Phase2	test/STIM_023.jpg	99
1390.1	1.096	1096.4	test	Phase2	test/STIM_023.jpg	99
1394.309	0.745	744.9	test	Phase2	test/STIM_023.jpg	100
1397.943	1.283	1283.3	test	Phase2	test/STIM_024.jpg	100
1401.486	0.617	617.0	test	Phase2	test/STIM_024.jpg	99
1406.046	0.628	627.7	test	Phase2	test/STIM_024.jpg	100
1409.702	1.036	1035.6	test	Phase2	test/STIM_025.jpg	99
1413.461	0.64	639.8	test	Phase2	test/STIM_025.jpg	100
1417.968	0.848	848.3	test	Phase2	test/STIM_025.jpg	100
1422.149	0.879	878.8	test	Phase2	test/STIM_026.jpg	100
1425.872	1.258	1258.3	test	Phase2	test/STIM_026.jpg	99
1429.79	1.167	1166.9	test	Phase2	test/STIM_026.jpg	100
1433.786	1.111	1110.7	test	Phase2	test/STIM_027.jpg	100
1436.931	0.835	834.7	test	Phase2	test/STIM_027.jpg	99
1440.38	1.145	1144.9	test	Phase2	test/STIM_027.jpg	99
1444.244	0.999	998.6	test	Phase2	test/STIM_028.jpg	99
1448.561	0.656	656.3	test	Phase2	test/STIM_028.jpg	99
1452.153	0.922	922.4	test	Phase2	test/STIM_028.jpg	99
1456.783	0.908	908.3	test	Phase2	test/STIM_029.jpg	100
1461.562	1.182	1182.5	test	Phase2	test/STIM_029.jpg	99
1465.778	1.175	1175.4	test	Phase2	test/STIM_029.jpg	99
1469.75	0.983	983.1	study	Phase3	study/STIM_000.jpg	99
1474.268	1.196	1196.5	study	Phase3	study/STIM_000.jpg	100
1477.782	0.856	855.8	study	Phase3	study/STIM_000.jpg	99
1482.373	1.042	1041.5	study	Phase3	study/STIM_001.jpg	100
1486.389	0.944	944.0	study	Phase3	study/STIM_001.jpg	99
1490.213	0.932	932.2	study	Phase3	study/STIM_001.jpg	100
1494.771	1.037	1037.0	study	Phase3	study/STIM_002.jpg	99
1499.59	0.921	920.9	study	Phase3	study/STIM_002.jpg	100
1502.897	0.699	699.1	study	Phase3	study/STIM_002.jpg	100
1506.872	1.144	1143.9	study	Phase3	study/STIM_003.jpg	100
1510.756	0.833	832.8	study	Phase3	study/STIM_003.jpg	99
1514.392	0.999	999.2	study	Phase3	study/STIM_003.jpg	99
1517.507	0.781	781.0	study	Phase3	study/STIM_004.jpg	99
1521.751	1.248	1247.7	study	Phase3	study/STIM_004.jpg	100
1526.281	1.211	1211.0	study	Phase3	study/STIM_004.jpg	100
1530.118	1.021	1021.1	study	Phase3	study/STIM_005.jpg	99
1534.898	1.21	1210.4	study	Phase3	study/STIM_005.jpg	99
1538.558	1.005	1005.1	study	Phase3	study/STIM_005.jpg	100
1542.412	0.711	710.8	study	Phase3	study/STIM_006.jpg	99
1545.784	0.838	838.5	study	Phase3	study/STIM_006.jpg	99
1550.208	1.192	1191.5	study	Phase3	study/STIM_006.jpg	100
1553.765	0.645	645.2	study	Phase3	study/STIM_007.jpg	100
1556.989	1.179	1179.0	study	Phase3	study/STIM_007.jpg	100
1560.158	0.879	879.3	study	Phase3	study/STIM_007.jpg	99
1564.158	1.13	1130.1	study	Phase3	study/STIM_008.jpg	100
1568.763	0.688	687.8	study	Phase3	study/STIM_008.jpg	100
1573.057	1.052	1051.8	study	Phase3	study/STIM_008.jpg	99
1576.798	1.199	1198.9	study	Phase3	study/STIM_009.jpg	100
1581.076	1.116	1116.1	study	Phase3	study/STIM_009.jpg	100
1585.298	0.691	691.3	study	Phase3	study/STIM_009.jpg	99
1589.599	0.747	747.2	study	Phase3	study/STIM_010.jpg	100
1592.797	1.128	1128.1	study	Phase3	study/STIM_010.jpg	100
1597.418	1.042	1041.9	study	Phase3	study/STIM_010.jpg	100
1601.606	1.067	1066.9	study	Phase3	study/STIM_011.jpg	99
1605.306	0.808	807.7	study	Phase3	study/STIM_011.jpg	100
1609.421	0.919	919.4	study	Phase3	study/STIM_011.jpg	100
1614.253	0.95	950.3	study	Phase3	study/STIM_012.jpg	99
1617.509	0.697	697.4	study	Phase3	study/STIM_012.jpg	99
1620.3	0.896	896.5	study	Phase3	study/STIM_012.jpg	99
1623.943	0.736	736.4	study	Phase3	study/STIM_013.jpg	100
1628.231	1.227	1226.7	study	Phase3	study/STIM_013.jpg	100
1633.026	0.789	788.7	study	Phase3	study/STIM_013.jpg	100
1637.058	0.706	705.5	study	Phase3	study/STIM_014.jpg	99
1641.586	0.906	905.9	study	Phase3	study/STIM_014.jpg	99
1646.295	0.59	589.8	study	Phase3	study/STIM_014.jpg	99
1649.976	1.04	1040.5	study	Phase3	study/STIM_015.jpg	99
1653.229	1.048	1047.6	study	Phase3	study/STIM_015.jpg	100
1658.256	1.229	1229.4	study	Phase3	study/STIM_015.jpg	99
1663.407	1.006	1005.6	study	Phase3	study/STIM_016.jpg	99
1667.211	0.616	615.5	study	Phase3	study/STIM_016.jpg	100
1670.272	0.794	794.0	study	Phase3	study/STIM_016.jpg	99
1673.107	0.955	955.2	study	Phase3	study/STIM_017.jpg	99
1676.464	0.833	833.3	study	Phase3	study/STIM_017.jpg	99
1680.804	0.698	697.7	study	Phase3	study/STIM_017.jpg	99
1684.869	0.953	953.1	study	Phase3	study/STIM_018.jpg	99
1689.515	0.629	629.2	study	Phase3	study/STIM_018.jpg	100
1692.682	0.644	644.3	study	Phase3	study/STIM_018.jpg	99
1697.048	1.016	1016.0	study	Phase3	study/STIM_019.jpg	100
1701.1	0.82	819.9	study	Phase3	study/STIM_019.jpg	100
1705.014	1.186	1186.1	study	Phase3	study/STIM_019.jpg	100
1709.84	0.797	797.3	study	Phase3	study/STIM_020.jpg	99
1712.674	0.718	718.2	study	Phase3	study/STIM_020.jpg	99
1716.955	0.917	916.6	study	Phase3	study/STIM_020.jpg	100
1721.562	1.026	1026.5	study	Phase3	study/STIM_021.jpg	100
1726.623	1.211	1211.1	study	Phase3	study/STIM_021.jpg	100
1731.367	0.966	965.6	study	Phase3	study/STIM_021.jpg	100
1735.762	0.891	891.1	study	Phase3	study/STIM_022.jpg	100
1739.542	0.73	729.6	study	Phase3	study/STIM_022.jpg	100
1742.655	1.199	1199.4	study	Phase3	study/STIM_022.jpg	99
1747.241	0.607	607.1	study	Phase3	study/STIM_023.jpg	100
1750.005	0.77	770.1	study	Phase3	study/STIM_023.jpg	99
1754.774	0.873	873.3	study	Phase3	study/STIM_023.jpg	99
1757.795	0.531	531.3	study	Phase3	study/STIM_024.jpg	99
1761.345	0.699	698.8	study	Phase3	study/STIM_024.jpg	99
1765.357	1.019	1018.6	study	Phase3	study/STIM_024.jpg	99
1769.351	0.698	697.5	study	Phase3	study/STIM_025.jpg	99
1773.509	0.952	951.6	study	Phase3	study/STIM_025.jpg	100
1776.739	1.158	1158.4	study	Phase3	study/STIM_025.jpg	100
1780.824	1.143	1143.4	study	Phase3	study/STIM_026.jpg	99
1784.866	1.054	1053.8	study	Phase3	study/STIM_026.jpg	100
1788.05	0.883	882.8	study	Phase3	study/STIM_026.jpg	100
1791.008	0.527	527.1	study	Phase3	study/STIM_027.jpg	100
1795.47	1.017	1016.9	study	Phase3	study/STIM_027.jpg	99
1798.843	0.761	760.6	study	Phase3	study/STIM_027.jpg	99
1803.368	0.896	895.9	study	Phase3	study/STIM_028.jpg	100
1807.531	1.262	1261.7	study	Phase3	study/STIM_028.jpg	100
1811.824	0.582	582.2	study	Phase3	study/STIM_028.jpg	99
1815.638	1.242	1241.8	study	Phase3	study/STIM_029.jpg	99
1820.217	1.183	1183.1	study	Phase3	study/STIM_029.jpg	100
1824.499	1.166	1166.4	study	Phase3	study/STIM_029.jpg	99
1828.786	1.147	1147.0	test	Phase3	test/STIM_000.jpg	99
1832.409	0.726	726.2	test	Phase3	test/STIM_000.jpg	100
1835.198	1.177	1176.8	test	Phase3	test/STIM_000.jpg	100
1839.889	0.994	993.8	test	Phase3	test/STIM_001.jpg	100
1843.553	1.212	1211.5	test	Phase3	test/STIM_001.jpg	99
1846.907	0.982	981.7	test	Phase3	test/STIM_001.jpg	100
1851.048	0.924	924.0	test	Phase3	test/STIM_002.jpg	99
1855.748	0.927	927.3	test	Phase3	test/STIM_002.jpg	99
1859.605	0.674	674.2	test	Phase3	test/STIM_002.jpg	100
1863.356	0.627	627.0	test	Phase3	test/STIM_003.jpg	99
1866.917	1.071	1070.9	test	Phase3	test/STIM_003.jpg	99
1870.427	1.27	1269.8	test	Phase3	test/STIM_003.jpg	99
1874.627	0.97	970.2	test	Phase3	test/STIM_004.jpg	100
1878.697	0.926	925.7	test	Phase3	test/STIM_004.jpg	99
1882.744	0.698	698.4	test	Phase3	test/STIM_004.jpg	100
1886.912	0.648	647.8	test	Phase3	test/STIM_005.jpg	99
1891.069	1.245	1244.8	test	Phase3	test/STIM_005.jpg	99
1896.125	1.159	1159.0	test	Phase3	test/STIM_005.jpg	99
1900.514	0.577	576.6	test	Phase3	test/STIM_006.jpg	100
1904.167	1.25	1250.5	test	Phase3	test/STIM_006.jpg	99
1907.485	0.779	778.9	test	Phase3	test/STIM_006.jpg	100
1911.271	0.671	671.0	test	Phase3	test/STIM_007.jpg	99
1914.13	0.803	802.9	test	Phase3	test/STIM_007.jpg	100
1917.972	0.792	792.4	test	Phase3	test/STIM_007.jpg	99
1921.851	1.104	1104.1	test	Phase3	test/STIM_008.jpg	100
1925.097	1.016	1015.7	test	Phase3	test/STIM_008.jpg	99
1928.192	1.236	1235.6	test	Phase3	test/STIM_008.jpg	99
1932.305	0.743	742.6	test	Phase3	test/STIM_009.jpg	99
1936.861	1.124	1123.6	test	Phase3	test/STIM_009.jpg	100
1941.399	0.672	671.5	test	Phase3	test/STIM_009.jpg	100
1944.581	1.076	1076.1	test	Phase3	test/STIM_010.jpg	99
1948.176	0.756	756.2	test	Phase3	test/STIM_010.jpg	100
1951.697	1.236	1236.1	test	Phase3	test/STIM_010.jpg	100
1955.63	0.766	766.2	test	Phase3	test/STIM_011.jpg	100
1959.127	1.393	1392.6	test	Phase3	test/STIM_011.jpg	100
1962.419	0.744	744.0	test	Phase3	test/STIM_011.jpg	99
1965.968	0.802	802.2	test	Phase3	test/STIM_012.jpg	99
1969.145	1.261	1260.6	test	Phase3	test/STIM_012.jpg	100
1973.955	0.78	780.0	test	Phase3	test/STIM_012.jpg	99
1977.329	1.092	1091.9	test	Phase3	test/STIM_013.jpg	100
1980.908	0.691	690.9	test	Phase3	test/STIM_013.jpg	99
1985.326	1.139	1139.3	test	Phase3	test/STIM_013.jpg	100
1989.17	0.779	779.3	test	Phase3	test/STIM_014.jpg	100
1993.543	1.051	1050.6	test	Phase3	test/STIM_014.jpg	99
1997.702	0.991	991.2	test	Phase3	test/STIM_014.jpg	99
2000.933	0.945	945.2	test	Phase3	test/STIM_015.jpg	100
2005.71	1.216	1216.4	test	Phase3	test/STIM_015.jpg	100
2010.696	1.103	1102.9	test	Phase3	test/STIM_015.jpg	100
2015.284	0.649	648.9	test	Phase3	test/STIM_016.jpg	100
2019.145	0.654	653.7	test	Phase3	test/STIM_016.jpg	100
2022.58	1.18	1180.2	test	Phase3	test/STIM_016.jpg	99
2025.963	0.609	608.7	test	Phase3	test/STIM_017.jpg	100
2028.646	0.865	864.9	test	Phase3	test/STIM_017.jpg	99
2033.075	1.108	1108.4	test	Phase3	test/STIM_017.jpg	100
2037.311	1.176	1175.7	test	Phase3	test/STIM_018.jpg	100
2041.48	1.122	1121.6	test	Phase3	test/STIM_018.jpg	100
2045.406	0.693	693.2	test	Phase3	test/STIM_018.jpg	99
2049.682	1.049	1048.6	test	Phase3	test/STIM_019.jpg	99
2053.102	1.133	1133.3	test	Phase3	test/STIM_019.jpg	100
2056.756	0.663	662.9	test	Phase3	test/STIM_019.jpg	99
2060.445	0.558	558.3	test	Phase3	test/STIM_020.jpg	99
2064.233	1.085	1084.7	test	Phase3	test/STIM_020.jpg	100
2068.897	0.737	737.0	test	Phase3	test/STIM_020.jpg	99
2072.594	1.152	1151.9	test	Phase3	test/STIM_021.jpg	99
2077.331	0.83	830.5	test	Phase3	test/STIM_021.jpg	100
2080.414	0.81	809.8	test	Phase3	test/STIM_021.jpg	100
2084.685	1.025	1024.8	test	Phase3	test/STIM_022.jpg	99
2087.714	1.094	1093.8	test	Phase3	test/STIM_022.jpg	100
2090.733	1.145	1144.8	test	Phase3	test/STIM_022.jpg	99
2095.06	1.261	1261.4	test	Phase3	test/STIM_023.jpg	100
2100.277	1.288	1288.2	test	Phase3	test/STIM_023.jpg	100
2105.359	1.317	1316.9	test	Phase3	test/STIM_023.jpg	99
2109.474	0.803	802.8	test	Phase3	test/STIM_024.jpg	100
2113.3	1.191	1191.1	test	Phase3	test/STIM_024.jpg	99
2118.093	1.009	1009.3	test	Phase3	test/STIM_024.jpg	100
2122.27	1.241	1240.6	test	Phase3	test/STIM_025.jpg	99
2126.54	0.589	589.2	test	Phase3	test/STIM_025.jpg	99
2130.942	0.767	767.3	test	Phase3	test/STIM_025.jpg	99
2133.737	1.102	1101.8	test	Phase3	test/STIM_026.jpg	100
2138.791	0.782	781.9	test	Phase3	test/STIM_026.jpg	99
2142.883	0.745	745.1	test	Phase3	test/STIM_026.jpg	100
2145.624	1.2	1199.7	test	Phase3	test/STIM_027.jpg	99
2149.355	0.939	939.3	test	Phase3	test/STIM_027.jpg	100
2152.859	1.107	1106.8	test	Phase3	test/STIM_027.jpg	100
2157.311	0.906	906.1	test	Phase3	test/STIM_028.jpg	99
2160.853	1.037	1036.6	test	Phase3	test/STIM_028.jpg	100
2165.586	1.203	1203.0	test	Phase3	test/STIM_028.jpg	100
2170.082	0.855	855.1	test	Phase3	test/STIM_029.jpg	99
2173.339	0.719	719.2	test	Phase3	test/STIM_029.jpg	99
2177.925	1.0	999.7	test	Phase3	test/STIM_029.jpg	99
