onset	duration	response_time_ms	trial_type	learning_stage	stimulus	response_port
0.0	1.37	1369.8	study	Phase1	study/STIM_000.jpg	100
4.932	0.896	895.7	study	Phase1	study/STIM_000.jpg	99
9.536	0.74	739.9	study	Phase1	study/STIM_000.jpg	99
13.726	0.861	861.2	study	Phase1	study/STIM_001.jpg	99
18.545	0.929	928.8	study	Phase1	study/STIM_001.jpg	99
21.915	1.021	1021.0	study	Phase1	study/STIM_001.jpg	99
25.06	1.325	1325.4	study	Phase1	study/STIM_002.jpg	100
28.842	0.936	936.2	study	Phase1	study/STIM_002.jpg	100
32.525	1.148	1147.9	study	Phase1	study/STIM_002.jpg	99
36.899	1.19	1189.9	study	Phase1	study/STIM_003.jpg	99
40.249	0.852	851.6	study	Phase1	study/STIM_003.jpg	100
43.609	0.778	777.6	study	Phase1	study/STIM_003.jpg	99
48.304	1.023	1023.1	study	Phase1	study/STIM_004.jpg	100
51.471	1.381	1381.4	study	Phase1	study/STIM_004.jpg	99
56.384	1.118	1117.6	study	Phase1	study/STIM_004.jpg	99
59.655	1.208	1207.5	study	Phase1	study/STIM_005.jpg	100
64.781	0.996	995.8	study	Phase1	study/STIM_005.jpg	100
68.193	0.671	671.3	study	Phase1	study/STIM_005.jpg	100
72.846	1.074	1074.0	study	Phase1	study/STIM_006.jpg	100
76.889	0.976	976.2	study	Phase1	study/STIM_006.jpg	100
81.655	1.198	1197.9	study	Phase1	study/STIM_006.jpg	99
85.046	0.991	991.3	study	Phase1	study/STIM_007.jpg	99
88.38	1.363	1362.8	study	Phase1	study/STIM_007.jpg	100
92.886	0.813	813.2	study	Phase1	study/STIM_007.jpg	99
95.919	1.345	1344.9	study	Phase1	study/STIM_008.jpg	99
100.069	1.297	1297.2	study	Phase1	study/STIM_008.jpg	100
104.304	0.929	928.9	study	Phase1	study/STIM_008.jpg	99
109.16	1.107	1106.7	study	Phase1	study/STIM_009.jpg	100
113.645	1.251	1250.8	study	Phase1	study/STIM_009.jpg	99
117.502	0.643	643.3	study	Phase1	study/STIM_009.jpg	100
120.146	1.092	1091.8	study	Phase1	study/STIM_010.jpg	99
124.847	0.704	704.5	study	Phase1	study/STIM_010.jpg	99
128.996	1.366	1366.0	study	Phase1	study/STIM_010.jpg	99
132.722	0.744	743.5	study	Phase1	study/STIM_011.jpg	99
135.536	1.029	1028.9	study	Phase1	study/STIM_011.jpg	99
140.249	0.649	649.4	study	Phase1	study/STIM_011.jpg	100
143.737	0.777	776.8	study	Phase1	study/STIM_012.jpg	100
147.911	0.92	920.3	study	Phase1	study/STIM_012.jpg	99
150.99	1.308	1308.2	study	Phase1	study/STIM_012.jpg	99
155.052	1.158	1157.6	study	Phase1	study/STIM_013.jpg	99
158.641	0.835	835.1	study	Phase1	study/STIM_013.jpg	99
162.324	0.926	925.8	study	Phase1	study/STIM_013.jpg	99
165.296	1.502	1502.3	study	Phase1	study/STIM_014.jpg	99
170.588	1.173	1173.2	study	Phase1	study/STIM_014.jpg	99
174.805	0.957	956.7	study	Phase1	study/STIM_014.jpg	99
179.717	0.94	940.1	study	Phase1	study/STIM_015.jpg	99
183.635	0.735	735.3	study	Phase1	study/STIM_015.jpg	99
186.436	0.653	653.4	study	Phase1	study/STIM_015.jpg	100
189.343	1.163	1163.0	study	Phase1	study/STIM_016.jpg	100
194.497	0.854	854.4	study	Phase1	study/STIM_016.jpg	99
197.483	0.653	652.8	study	Phase1	study/STIM_016.jpg	99
201.453	1.247	1247.2	study	Phase1	study/STIM_017.jpg	99
205.78	1.291	1291.1	study	Phase1	study/STIM_017.jpg	99
210.339	1.212	1211.6	study	Phase1	study/STIM_017.jpg	100
214.998	0.803	803.2	study	Phase1	study/STIM_018.jpg	100
219.504	0.906	905.9	study	Phase1	study/STIM_018.jpg	99
224.386	0.721	721.2	study	Phase1	study/STIM_018.jpg	99
227.857	1.163	1162.6	study	Phase1	study/STIM_019.jpg	100
231.155	1.282	1281.6	study	Phase1	study/STIM_019.jpg	100
234.606	1.077	1076.9	study	Phase1	study/STIM_019.jpg	99
237.829	1.209	1209.2	study	Phase1	study/STIM_020.jpg	100
242.877	1.424	1424.2	study	Phase1	study/STIM_020.jpg	99
247.589	1.212	1211.5	study	Phase1	study/STIM_020.jpg	100
250.845	0.868	868.4	study	Phase1	study/STIM_021.jpg	99
254.176	1.067	1067.1	study	Phase1	study/STIM_021.jpg	100
258.783	1.256	1255.9	study	Phase1	study/STIM_021.jpg	100
263.798	0.979	978.7	study	Phase1	study/STIM_022.jpg	99
267.381	0.723	722.9	study	Phase1	study/STIM_022.jpg	99
270.125	0.839	838.7	study	Phase1	study/STIM_022.jpg	99
273.902	1.035	1034.6	study	Phase1	study/STIM_023.jpg	100
277.741	1.032	1032.1	study	Phase1	study/STIM_023.jpg	100
281.785	0.692	692.1	study	Phase1	study/STIM_023.jpg	99
285.251	1.45	1449.8	study	Phase1	study/STIM_024.jpg	100
289.734	1.438	1438.0	study	Phase1	study/STIM_024.jpg	100
294.554	0.637	637.1	study	Phase1	study/STIM_024.jpg	99
297.584	1.386	1386.3	study	Phase1	study/STIM_025.jpg	100
301.242	0.728	727.9	study	Phase1	study/STIM_025.jpg	100
304.32	0.655	655.1	study	Phase1	study/STIM_025.jpg	100
307.386	1.258	1257.8	study	Phase1	study/STIM_026.jpg	99
312.175	0.839	839.4	study	Phase1	study/STIM_026.jpg	100
315.226	0.977	976.6	study	Phase1	study/STIM_026.jpg	99
320.025	1.492	1491.6	study	Phase1	study/STIM_027.jpg	99
325.362	0.686	686.0	study	Phase1	study/STIM_027.jpg	99
328.181	1.053	1053.2	study	Phase1	study/STIM_027.jpg	99
332.816	0.684	684.3	study	Phase1	study/STIM_028.jpg	100
336.56	0.868	867.8	study	Phase1	study/STIM_028.jpg	99
341.18	1.082	1082.5	study	Phase1	study/STIM_028.jpg	99
346.224	1.015	1015.1	study	Phase1	study/STIM_029.jpg	99
350.533	1.276	1276.4	study	Phase1	study/STIM_029.jpg	100
355.03	1.266	1265.5	study	Phase1	study/STIM_029.jpg	100
359.648	0.817	816.9	test	Phase1	test/STIM_000.jpg	100
363.964	0.927	926.7	test	Phase1	test/STIM_000.jpg	100
367.697	0.91	910.0	test	Phase1	test/STIM_000.jpg	99
371.372	0.695	694.9	test	Phase1	test/STIM_001.jpg	100
376.019	0.735	735.2	test	Phase1	test/STIM_001.jpg	99
379.924	0.52	520.2	test	Phase1	test/STIM_001.jpg	100
382.884	0.998	997.8	test	Phase1	test/STIM_002.jpg	100
387.534	0.822	822.3	test	Phase1	test/STIM_002.jpg	99
390.447	0.639	639.4	test	Phase1	test/STIM_002.jpg	99
394.684	0.897	897.4	test	Phase1	test/STIM_003.jpg	100
399.369	0.871	871.1	test	Phase1	test/STIM_003.jpg	100
403.214	0.938	938.4	test	Phase1	test/STIM_003.jpg	99
407.214	0.995	995.4	test	Phase1	test/STIM_004.jpg	99
410.334	0.948	948.0	test	Phase1	test/STIM_004.jpg	100
414.282	0.739	739.3	test	Phase1	test/STIM_004.jpg	99
418.837	1.02	1020.5	test	Phase1	test/STIM_005.jpg	99
423.721	0.944	944.4	test	Phase1	test/STIM_005.jpg	99
427.142	0.889	888.6	test	Phase1	test/STIM_005.jpg	99
431.361	0.879	878.7	test	Phase1	test/STIM_006.jpg	100
435.435	0.518	518.1	test	Phase1	test/STIM_006.jpg	99
438.456	0.586	585.6	test	Phase1	test/STIM_006.jpg	100
442.982	1.069	1069.4	test	Phase1	test/STIM_007.jpg	99
446.22	0.859	859.1	test	Phase1	test/STIM_007.jpg	99
450.602	0.923	922.9	test	Phase1	test/STIM_007.jpg	99
454.935	0.872	871.7	test	Phase1	test/STIM_008.jpg	100
459.645	0.953	952.7	test	Phase1	test/STIM_008.jpg	99
463.555	0.943	943.1	test	Phase1	test/STIM_008.jpg	100
466.941	0.846	845.6	test	Phase1	test/STIM_009.jpg	99
471.129	0.835	834.9	test	Phase1	test/STIM_009.jpg	100
475.088	0.685	685.3	test	Phase1	test/STIM_009.jpg	99
479.437	0.863	863.2	test	Phase1	test/STIM_010.jpg	99
482.526	0.58	580.5	test	Phase1	test/STIM_010.jpg	100
486.959	1.083	1083.4	test	Phase1	test/STIM_010.jpg	100
490.138	0.872	871.5	test	Phase1	test/STIM_011.jpg	100
494.979	0.655	654.7	test	Phase1	test/STIM_011.jpg	100
499.621	1.072	1072.5	test	Phase1	test/STIM_011.jpg	100
502.976	0.558	557.6	test	Phase1	test/STIM_012.jpg	99
505.71	1.097	1096.7	test	Phase1	test/STIM_012.jpg	99
509.038	0.561	560.7	test	Phase1	test/STIM_012.jpg	99
513.236	0.964	964.5	test	Phase1	test/STIM_013.jpg	100
517.07	0.942	941.7	test	Phase1	test/STIM_013.jpg	100
521.4	0.709	708.7	test	Phase1	test/STIM_013.jpg	100
525.767	0.836	836.2	test	Phase1	test/STIM_014.jpg	100
530.338	1.0	999.5	test	Phase1	test/STIM_014.jpg	99
534.958	0.574	573.6	test	Phase1	test/STIM_014.jpg	100
539.487	0.518	518.3	test	Phase1	test/STIM_015.jpg	100
543.51	1.022	1022.4	test	Phase1	test/STIM_015.jpg	99
548.442	1.009	1009.1	test	Phase1	test/STIM_015.jpg	99
553.028	0.766	766.2	test	Phase1	test/STIM_016.jpg	99
556.086	1.066	1065.7	test	Phase1	test/STIM_016.jpg	100
560.174	0.827	827.3	test	Phase1	test/STIM_016.jpg	99
564.595	0.926	925.9	test	Phase1	test/STIM_017.jpg	100
569.386	1.104	1103.9	test	Phase1	test/STIM_017.jpg	99
573.988	0.547	547.3	test	Phase1	test/STIM_017.jpg	99
576.584	0.941	941.2	test	Phase1	test/STIM_018.jpg	99
579.764	0.568	567.8	test	Phase1	test/STIM_018.jpg	99
583.346	1.017	1017.2	test	Phase1	test/STIM_018.jpg	100
586.712	0.733	733.3	test	Phase1	test/STIM_019.jpg	99
590.463	1.044	1043.7	test	Phase1	test/STIM_019.jpg	100
594.977	0.893	893.3	test	Phase1	test/STIM_019.jpg	100
598.505	0.635	635.1	test	Phase1	test/STIM_020.jpg	99
601.397	0.857	857.2	test	Phase1	test/STIM_020.jpg	99
604.649	0.515	514.9	test	Phase1	test/STIM_020.jpg	100
608.782	0.564	564.4	test	Phase1	test/STIM_021.jpg	100
613.034	0.65	650.4	test	Phase1	test/STIM_021.jpg	100
617.337	0.902	902.5	test	Phase1	test/STIM_021.jpg	100
620.387	0.702	702.3	test	Phase1	test/STIM_022.jpg	99
624.653	0.961	960.7	test	Phase1	test/STIM_022.jpg	100
628.19	0.795	794.7	test	Phase1	test/STIM_022.jpg	99
632.965	0.757	757.2	test	Phase1	test/STIM_023.jpg	99
636.788	0.744	744.2	test	Phase1	test/STIM_023.jpg	99
641.024	0.736	736.4	test	Phase1	test/STIM_023.jpg	99
645.221	0.945	945.3	test	Phase1	test/STIM_024.jpg	100
650.116	0.965	965.3	test	Phase1	test/STIM_024.jpg	100
653.658	0.602	602.3	test	Phase1	test/STIM_024.jpg	100
657.049	1.056	1056.2	test	Phase1	test/STIM_025.jpg	99
660.216	0.858	858.3	test	Phase1	test/STIM_025.jpg	100
663.892	0.88	879.7	test	Phase1	test/STIM_025.jpg	100
667.871	0.964	963.6	test	Phase1	test/STIM_026.jpg	99
671.656	0.777	777.2	test	Phase1	test/STIM_026.jpg	100
674.513	0.582	581.9	test	Phase1	test/STIM_026.jpg	99
678.251	0.837	836.7	test	Phase1	test/STIM_027.jpg	100
682.237	1.088	1087.6	test	Phase1	test/STIM_027.jpg	99
686.044	1.08	1079.8	test	Phase1	test/STIM_027.jpg	99
690.271	0.922	921.5	test	Phase1	test/STIM_028.jpg	100
694.882	0.849	849.3	test	Phase1	test/STIM_028.jpg	99
698.823	1.07	1069.8	test	Phase1	test/STIM_028.jpg	99
702.453	0.524	523.6	test	Phase1	test/STIM_029.jpg	99
705.271	0.812	812.5	test	Phase1	test/STIM_029.jpg	99
709.879	0.589	589.4	test	Phase1	test/STIM_029.jpg	100
712.69	1.019	1018.9	study	Phase2	study/STIM_000.jpg	100
717.159	0.699	699.4	study	Phase2	study/STIM_000.jpg	100
719.867	0.941	940.6	study	Phase2	study/STIM_000.jpg	100
724.725	0.913	912.7	study	Phase2	study/STIM_001.jpg	99
727.986	1.096	1096.0	study	Phase2	study/STIM_001.jpg	100
731.19	1.009	1009.0	study	Phase2	study/STIM_001.jpg	99
734.306	0.864	864.0	study	Phase2	study/STIM_002.jpg	100
738.106	1.221	1221.2	study	Phase2	study/STIM_002.jpg	100
742.885	0.747	746.8	study	Phase2	study/STIM_002.jpg	99
746.524	1.125	1124.6	study	Phase2	study/STIM_003.jpg	99
751.139	0.896	896.1	study	Phase2	study/STIM_003.jpg	99
754.954	0.662	662.5	study	Phase2	study/STIM_003.jpg	100
758.615	0.864	863.9	study	Phase2	study/STIM_004.jpg	100
761.585	1.041	1040.8	study	Phase2	study/STIM_004.jpg	100
765.292	1.084	1084.5	study	Phase2	study/STIM_004.jpg	99
768.417	1.114	1113.5	study	Phase2	study/STIM_005.jpg	100
771.626	0.72	719.7	study	Phase2	study/STIM_005.jpg	100
775.128	0.876	876.0	study	Phase2	study/STIM_005.jpg	100
778.528	1.261	1260.8	study	Phase2	study/STIM_006.jpg	99
783.543	0.855	854.7	study	Phase2	study/STIM_006.jpg	99
788.119	0.732	731.7	study	Phase2	study/STIM_006.jpg	100
790.977	0.919	918.8	study	Phase2	study/STIM_007.jpg	100
795.14	1.097	1097.4	study	Phase2	study/STIM_007.jpg	99
800.128	0.566	565.6	study	Phase2	study/STIM_007.jpg	100
802.894	1.298	1298.2	study	Phase2	study/STIM_008.jpg	99
808.184	0.827	826.6	study	Phase2	study/STIM_008.jpg	100
811.361	0.565	564.6	study	Phase2	study/STIM_008.jpg	99
815.032	1.238	1238.4	study	Phase2	study/STIM_009.jpg	100
819.544	0.991	991.3	study	Phase2	study/STIM_009.jpg	100
823.978	1.084	1083.9	study	Phase2	study/STIM_009.jpg	99
827.288	0.908	907.9	study	Phase2	study/STIM_010.jpg	99
831.165	0.745	744.8	study	Phase2	study/STIM_010.jpg	99
835.519	0.726	726.3	study	Phase2	study/STIM_010.jpg	99
838.797	0.944	943.6	study	Phase2	study/STIM_011.jpg	100
843.38	1.002	1001.5	study	Phase2	study/STIM_011.jpg	99
848.044	0.642	642.3	study	Phase2	study/STIM_011.jpg	100
850.744	0.788	788.4	study	Phase2	study/STIM_012.jpg	100
854.906	1.03	1030.4	study	Phase2	study/STIM_012.jpg	99
858.221	0.719	719.4	study	Phase2	study/STIM_012.jpg	99
862.647	1.196	1195.7	study	Phase2	study/STIM_013.jpg	100
866.504	0.863	862.7	study	Phase2	study/STIM_013.jpg	99
869.827	0.523	523.4	study	Phase2	study/STIM_013.jpg	99
874.341	0.636	636.2	study	Phase2	study/STIM_014.jpg	100
877.385	0.918	917.5	study	Phase2	study/STIM_014.jpg	99
880.461	0.515	514.9	study	Phase2	study/STIM_014.jpg	99
883.859	1.08	1080.0	study	Phase2	study/STIM_015.jpg	100
887.766	0.901	901.2	study	Phase2	study/STIM_015.jpg	100
891.502	0.894	894.0	study	Phase2	study/STIM_015.jpg	99
896.377	0.741	741.2	study	Phase2	study/STIM_016.jpg	99
899.3	0.731	731.0	study	Phase2	study/STIM_016.jpg	99
902.644	0.708	708.3	study	Phase2	study/STIM_016.jpg	99
905.522	0.837	837.4	study	Phase2	study/STIM_017.jpg	99
910.331	0.752	751.9	study	Phase2	study/STIM_017.jpg	99
913.629	0.659	659.0	study	Phase2	study/STIM_017.jpg	100
917.012	0.7	699.9	study	Phase2	study/STIM_018.jpg	99
921.467	0.932	931.7	study	Phase2	study/STIM_018.jpg	100
924.573	0.882	881.8	study	Phase2	study/STIM_018.jpg	99
927.698	0.932	931.9	study	Phase2	study/STIM_019.jpg	99
931.355	1.016	1016.4	study	Phase2	study/STIM_019.jpg	100
935.607	1.013	1012.6	study	Phase2	study/STIM_019.jpg	100
940.599	1.002	1002.3	study	Phase2	study/STIM_020.jpg	100
944.428	1.054	1054.4	study	Phase2	study/STIM_020.jpg	100
947.902	0.897	897.1	study	Phase2	study/STIM_020.jpg	100
952.775	0.857	857.4	study	Phase2	study/STIM_021.jpg	100
957.555	0.577	577.4	study	Phase2	study/STIM_021.jpg	100
961.236	0.568	568.0	study	Phase2	study/STIM_021.jpg	99
964.944	0.842	842.3	study	Phase2	study/STIM_022.jpg	99
967.809	1.099	1098.8	study	Phase2	study/STIM_022.jpg	99
970.928	1.022	1022.5	study	Phase2	study/STIM_022.jpg	99
975.235	1.292	1291.9	study	Phase2	study/STIM_023.jpg	100
978.696	1.206	1205.6	study	Phase2	study/STIM_023.jpg	100
983.333	0.834	833.5	study	Phase2	study/STIM_023.jpg	100
986.946	0.873	872.6	study	Phase2	study/STIM_024.jpg	100
990.376	1.223	1223.3	study	Phase2	study/STIM_024.jpg	99
994.841	0.846	845.7	study	Phase2	study/STIM_024.jpg	100
999.594	1.304	1303.5	study	Phase2	study/STIM_025.jpg	99
1002.959	1.205	1205.1	study	Phase2	study/STIM_025.jpg	100
1007.391	0.626	625.8	study	Phase2	study/STIM_025.jpg	99
1010.933	1.103	1103.0	study	Phase2	study/STIM_026.jpg	99
1015.133	1.096	1095.8	study	Phase2	study/STIM_026.jpg	100
1019.09	0.746	746.0	study	Phase2	study/STIM_026.jpg	100
1023.478	0.739	738.8	study	Phase2	study/STIM_027.jpg	99
1026.834	0.837	836.9	study	Phase2	study/STIM_027.jpg	99
1029.894	0.602	601.8	study	Phase2	study/STIM_027.jpg	100
1033.87	1.089	1089.1	study	Phase2	study/STIM_028.jpg	99
1037.367	0.722	722.4	study	Phase2	study/STIM_028.jpg	99
1040.303	0.691	690.6	study	Phase2	study/STIM_028.jpg	100
1044.089	1.253	1252.8	study	Phase2	study/STIM_029.jpg	99
1049.241	1.05	1050.0	study	Phase2	study/STIM_029.jpg	99
1053.809	0.762	762.4	study	Phase2	study/STIM_029.jpg	100
1057.067	0.687	686.8	test	Phase2	test/STIM_000.jpg	99
1060.558	1.074	1074.5	test	Phase2	test/STIM_000.jpg	99
1065.589	0.802	802.2	test	Phase2	test/STIM_000.jpg	100
1068.615	1.027	1026.6	test	Phase2	test/STIM_001.jpg	100
1071.901	0.81	809.6	test	Phase2	test/STIM_001.jpg	100
1075.536	0.706	705.6	test	Phase2	test/STIM_001.jpg	99
1079.31	0.774	774.0	test	Phase2	test/STIM_002.jpg	99
1083.982	0.619	619.1	test	Phase2	test/STIM_002.jpg	100
1087.581	0.751	751.0	test	Phase2	test/STIM_002.jpg	99
1091.246	0.568	567.9	test	Phase2	test/STIM_003.jpg	99
1095.323	1.084	1084.2	test	Phase2	test/STIM_003.jpg	100
1099.675	0.723	722.7	test	Phase2	test/STIM_003.jpg	99
1103.593	0.747	747.3	test	Phase2	test/STIM_004.jpg	99
1108.132	0.77	770.3	test	Phase2	test/STIM_004.jpg	100
1111.348	0.545	545.1	test	Phase2	test/STIM_004.jpg	99
1115.124	1.012	1011.8	test	Phase2	test/STIM_005.jpg	99
1119.783	0.821	820.9	test	Phase2	test/STIM_005.jpg	100
1124.215	0.729	728.6	test	Phase2	test/STIM_005.jpg	99
1127.172	0.68	680.1	test	Phase2	test/STIM_006.jpg	100
1131.789	0.892	892.5	test	Phase2	test/STIM_006.jpg	100
1136.237	0.806	806.1	test	Phase2	test/STIM_006.jpg	99
1139.656	0.659	659.2	test	Phase2	test/STIM_007.jpg	99
1143.772	0.842	841.8	test	Phase2	test/STIM_007.jpg	99
1146.926	0.865	864.9	test	Phase2	test/STIM_007.jpg	99
1150.696	0.859	858.9	test	Phase2	test/STIM_008.jpg	99
1155.409	0.567	566.6	test	Phase2	test/STIM_008.jpg	99
1159.769	0.617	617.3	test	Phase2	test/STIM_008.jpg	99
1163.549	1.052	1051.9	test	Phase2	test/STIM_009.jpg	99
1168.43	0.859	858.6	test	Phase2	test/STIM_009.jpg	100
1171.562	0.972	971.8	test	Phase2	test/STIM_009.jpg	99
1175.03	0.911	910.6	test	Phase2	test/STIM_010.jpg	100
1179.759	0.538	537.9	test	Phase2	test/STIM_010.jpg	99
1183.656	0.601	600.6	test	Phase2	test/STIM_010.jpg	100
1186.625	0.69	690.4	test	Phase2	test/STIM_011.jpg	99
1190.921	0.712	711.7	test	Phase2	test/STIM_011.jpg	100
1195.01	1.101	1101.1	test	Phase2	test/STIM_011.jpg	100
1198.83	1.077	1076.7	test	Phase2	test/STIM_012.jpg	100
1203.474	0.649	649.2	test	Phase2	test/STIM_012.jpg	100
1207.912	0.914	913.6	test	Phase2	test/STIM_012.jpg	99
1211.253	0.656	655.8	test	Phase2	test/STIM_013.jpg	100
1215.56	0.642	641.6	test	Phase2	test/STIM_013.jpg	99
1218.849	0.876	876.3	test	Phase2	test/STIM_013.jpg	99
1222.243	0.907	907.4	test	Phase2	test/STIM_014.jpg	100
1226.665	1.003	1002.8	test	Phase2	test/STIM_014.jpg	99
1230.444	0.901	901.0	test	Phase2	test/STIM_014.jpg	99
1235.329	0.636	635.7	test	Phase2	test/STIM_015.jpg	100
1238.2	0.587	586.8	test	Phase2	test/STIM_015.jpg	100
1241.901	0.636	635.6	test	Phase2	test/STIM_015.jpg	99
1245.219	0.643	642.7	test	Phase2	test/STIM_016.jpg	100
1249.512	0.861	861.0	test	Phase2	test/STIM_016.jpg	100
1253.897	0.602	601.6	test	Phase2	test/STIM_016.jpg	100
1256.609	1.042	1042.4	test	Phase2	test/STIM_017.jpg	99
1260.205	0.697	697.0	test	Phase2	test/STIM_017.jpg	100
1264.095	1.032	1031.6	test	Phase2	test/STIM_017.jpg	100
1268.974	1.03	1030.4	test	Phase2	test/STIM_018.jpg	100
1272.236	0.882	882.3	test	Phase2	test/STIM_018.jpg	100
1275.297	1.069	1068.6	test	Phase2	test/STIM_018.jpg	100
1279.451	0.857	857.1	test	Phase2	test/STIM_019.jpg	100
1282.491	0.97	970.0	test	Phase2	test/STIM_019.jpg	100
1287.11	0.598	598.3	test	Phase2	test/STIM_019.jpg	99
1290.444	0.774	774.4	test	Phase2	test/STIM_020.jpg	100
1294.487	0.783	782.6	test	Phase2	test/STIM_020.jpg	100
1297.495	0.699	698.7	test	Phase2	test/STIM_020.jpg	99
1300.819	0.631	631.3	test	Phase2	test/STIM_021.jpg	100
1304.434	0.884	884.1	test	Phase2	test/STIM_021.jpg	100
1307.929	1.033	1033.3	test	Phase2	test/STIM_021.jpg	100
1312.238	0.528	527.7	test	Phase2	test/STIM_022.jpg	100
1315.353	0.533	532.7	test	Phase2	test/STIM_022.jpg	100
1319.562	1.045	1044.7	test	Phase2	test/STIM_022.jpg	100
1324.574	1.063	1063.2	test	Phase2	test/STIM_023.jpg	99
1328.039	0.584	584.0	test	Phase2	test/STIM_023.jpg	99
1331.437	0.541	541.0	test	Phase2	test/STIM_023.jpg	100
1334.081	0.984	984.3	test	Phase2	test/STIM_024.jpg	100
1337.916	0.917	917.3	test	Phase2	test/STIM_024.jpg	99
1342.016	0.858	857.7	test	Phase2	test/STIM_024.jpg	100
1346.856	0.687	686.8	test	Phase2	test/STIM_025.jpg	99
1350.267	1.051	1050.6	test	Phase2	test/STIM_025.jpg	100
1355.174	0.964	964.1	test	Phase2	test/STIM_025.jpg	100
1359.28	0.56	560.0	test	Phase2	test/STIM_026.jpg	100
1362.221	0.757	757.4	test	Phase2	test/STIM_026.jpg	99
1365.364	0.961	961.0	test	Phase2	test/STIM_026.jpg	100
1370.072	0.697	696.9	test	Phase2	test/STIM_027.jpg	100
1372.817	0.842	841.7	test	Phase2	test/STIM_027.jpg	99
1377.321	0.85	849.7	test	Phase2	test/STIM_027.jpg	99
1381.704	0.836	835.8	test	Phase2	test/STIM_028.jpg	99
1385.743	0.602	602.0	test	Phase2	test/STIM_028.jpg	99
1389.061	1.04	1039.7	test	Phase2	test/STIM_028.jpg	99
1392.587	0.693	692.7	test	Phase2	test/STIM_029.jpg	100
1396.177	0.958	958.5	test	Phase2	test/STIM_029.jpg	99
1400.878	0.524	524.1	test	Phase2	test/STIM_029.jpg	99
1404.619	1.054	1053.7	study	Phase3	study/STIM_000.jpg	99
1408.234	0.994	993.7	study	Phase3	study/STIM_000.jpg	100
1412.877	0.792	791.5	study	Phase3	study/STIM_000.jpg	99
1416.299	0.686	685.9	study	Phase3	study/STIM_001.jpg	100
1419.04	0.866	866.4	study	Phase3	study/STIM_001.jpg	99
1423.698	0.724	724.3	study	Phase3	study/STIM_001.jpg	100
1426.968	0.674	674.3	study	Phase3	study/STIM_002.jpg	99
1430.124	0.542	542.2	study	Phase3	study/STIM_002.jpg	100
1434.347	0.647	647.2	study	Phase3	study/STIM_002.jpg	100
1438.812	0.532	531.9	study	Phase3	study/STIM_003.jpg	100
1442.885	0.627	627.4	study	Phase3	study/STIM_003.jpg	99
1446.428	0.809	809.1	study	Phase3	study/STIM_003.jpg	99
1449.997	0.86	860.0	study	Phase3	study/STIM_004.jpg	99
1453.157	0.74	739.8	study	Phase3	study/STIM_004.jpg	100
1457.794	0.985	985.2	study	Phase3	study/STIM_004.jpg	100
1462.166	1.052	1052.1	study	Phase3	study/STIM_005.jpg	99
1466.441	0.548	547.7	study	Phase3	study/STIM_005.jpg	99
1470.524	0.58	579.9	study	Phase3	study/STIM_005.jpg	100
1474.239	0.626	625.6	study	Phase3	study/STIM_006.jpg	99
1477.198	1.054	1053.8	study	Phase3	study/STIM_006.jpg	99
1481.242	1.067	1067.1	study	Phase3	study/STIM_006.jpg	100
1485.784	0.782	782.4	study	Phase3	study/STIM_007.jpg	100
1489.4	0.811	810.6	study	Phase3	study/STIM_007.jpg	100
1492.863	1.072	1072.3	study	Phase3	study/STIM_007.jpg	99
1496.918	0.797	797.0	study	Phase3	study/STIM_008.jpg	100
1500.304	0.776	775.5	study	Phase3	study/STIM_008.jpg	100
1503.93	0.957	956.6	study	Phase3	study/STIM_008.jpg	99
1508.556	0.593	592.7	study	Phase3	study/STIM_009.jpg	100
1512.872	0.589	589.2	study	Phase3	study/STIM_009.jpg	100
1517.273	1.046	1045.9	study	Phase3	study/STIM_009.jpg	99
1521.635	0.581	581.4	study	Phase3	study/STIM_010.jpg	100
1524.248	0.8	800.0	study	Phase3	study/STIM_010.jpg	100
1528.939	0.872	872.5	study	Phase3	study/STIM_010.jpg	100
1532.677	0.918	918.3	study	Phase3	study/STIM_011.jpg	99
1537.319	0.504	503.8	study	Phase3	study/STIM_011.jpg	100
1541.332	1.065	1064.9	study	Phase3	study/STIM_011.jpg	100
1545.593	0.785	785.0	study	Phase3	study/STIM_012.jpg	99
1548.65	1.028	1028.5	study	Phase3	study/STIM_012.jpg	99
1553.116	0.949	949.0	study	Phase3	study/STIM_012.jpg	99
1556.703	1.006	1006.5	study	Phase3	study/STIM_013.jpg	100
1560.062	0.539	539.2	study	Phase3	study/STIM_013.jpg	100
1563.904	0.909	909.1	study	Phase3	study/STIM_013.jpg	100
1567.172	1.044	1044.3	study	Phase3	study/STIM_014.jpg	99
1570.37	0.622	622.5	study	Phase3	study/STIM_014.jpg	99
1573.943	0.778	778.4	study	Phase3	study/STIM_014.jpg	99
1576.725	0.562	562.1	study	Phase3	study/STIM_015.jpg	99
1580.463	0.576	576.2	study	Phase3	study/STIM_015.jpg	100
1584.872	0.606	606.0	study	Phase3	study/STIM_015.jpg	99
1589.358	0.623	623.0	study	Phase3	study/STIM_016.jpg	99
1593.544	0.674	674.3	study	Phase3	study/STIM_016.jpg	100
1598.087	0.66	660.0	study	Phase3	study/STIM_016.jpg	99
1600.849	1.027	1027.3	study	Phase3	study/STIM_017.jpg	99
1605.245	1.024	1024.4	study	Phase3	study/STIM_017.jpg	99
1608.48	0.944	943.8	study	Phase3	study/STIM_017.jpg	99
1611.932	0.61	610.0	study	Phase3	study/STIM_018.jpg	99
1615.981	0.647	646.6	study	Phase3	study/STIM_018.jpg	100
1619.583	0.916	916.0	study	Phase3	study/STIM_018.jpg	99
1623.312	0.986	985.7	study	Phase3	study/STIM_019.jpg	100
1627.737	0.64	640.0	study	Phase3	study/STIM_019.jpg	100
1631.566	0.632	632.5	study	Phase3	study/STIM_019.jpg	100
1635.095	0.698	698.1	study	Phase3	study/STIM_020.jpg	99
1638.289	0.957	956.8	study	Phase3	study/STIM_020.jpg	99
1642.686	0.775	774.9	study	Phase3	study/STIM_020.jpg	100
1646.862	0.976	976.2	study	Phase3	study/STIM_021.jpg	100
1651.369	0.8	800.2	study	Phase3	study/STIM_021.jpg	100
1654.706	0.481	480.9	study	Phase3	study/STIM_021.jpg	100
1657.522	1.002	1002.5	study	Phase3	study/STIM_022.jpg	100
1661.829	0.511	511.2	study	Phase3	study/STIM_022.jpg	100
1664.553	0.839	838.7	study	Phase3	study/STIM_022.jpg	99
1668.442	0.507	507.5	study	Phase3	study/STIM_023.jpg	100
1672.51	0.941	940.7	study	Phase3	study/STIM_023.jpg	99
1677.351	0.874	873.5	study	Phase3	study/STIM_023.jpg	99
1681.575	0.69	690.3	study	Phase3	study/STIM_024.jpg	99
1685.604	0.75	749.7	study	Phase3	study/STIM_024.jpg	99
1688.551	0.78	780.3	study	Phase3	study/STIM_024.jpg	99
1692.21	0.844	843.7	study	Phase3	study/STIM_025.jpg	99
1696.967	1.061	1060.8	study	Phase3	study/STIM_025.jpg	100
1701.895	0.784	784.2	study	Phase3	study/STIM_025.jpg	100
1706.567	0.917	917.4	study	Phase3	study/STIM_026.jpg	99
1711.241	0.871	870.6	study	Phase3	study/STIM_026.jpg	100
1715.503	1.04	1040.5	study	Phase3	study/STIM_026.jpg	100
1719.621	0.644	643.6	study	Phase3	study/STIM_027.jpg	100
1724.14	0.647	646.8	study	Phase3	study/STIM_027.jpg	99
1728.205	0.608	608.2	study	Phase3	study/STIM_027.jpg	99
1731.66	0.828	827.9	study	Phase3	study/STIM_028.jpg	100
1734.918	0.745	745.2	study	Phase3	study/STIM_028.jpg	100
1739.043	0.518	518.4	study	Phase3	study/STIM_028.jpg	99
1742.443	0.803	802.9	study	Phase3	study/STIM_029.jpg	99
1746.132	0.848	848.3	study	Phase3	study/STIM_029.jpg	100
1749.864	0.919	919.1	study	Phase3	study/STIM_029.jpg	99
1754.023	0.741	740.7	test	Phase3	test/STIM_000.jpg	99
1757.485	0.562	562.0	test	Phase3	test/STIM_000.jpg	100
1760.897	1.013	1013.4	test	Phase3	test/STIM_000.jpg	100
1765.069	0.653	653.2	test	Phase3	test/STIM_001.jpg	100
1769.278	0.582	581.9	test	Phase3	test/STIM_001.jpg	99
1772.298	1.041	1041.0	test	Phase3	test/STIM_001.jpg	100
1777.292	1.041	1040.7	test	Phase3	test/STIM_002.jpg	99
1782.304	0.805	804.6	test	Phase3	test/STIM_002.jpg	99
1786.06	1.077	1076.8	test	Phase3	test/STIM_002.jpg	100
1790.192	0.93	929.7	test	Phase3	test/STIM_003.jpg	99
1794.832	0.675	674.9	test	Phase3	test/STIM_003.jpg	99
1799.489	0.543	543.4	test	Phase3	test/STIM_003.jpg	99
1803.407	0.892	892.0	test	Phase3	test/STIM_004.jpg	100
1806.338	0.919	919.3	test	Phase3	test/STIM_004.jpg	99
1810.059	0.804	804.5	test	Phase3	test/STIM_004.jpg	100
1814.624	0.962	961.7	test	Phase3	test/STIM_005.jpg	99
1819.064	0.683	682.9	test	Phase3	test/STIM_005.jpg	99
1822.764	1.06	1060.1	test	Phase3	test/STIM_005.jpg	99
1827.118	0.52	519.8	test	Phase3	test/STIM_006.jpg	100
1830.244	0.953	953.3	test	Phase3	test/STIM_006.jpg	99
1834.084	0.688	688.2	test	Phase3	test/STIM_006.jpg	100
1838.699	1.099	1098.9	test	Phase3	test/STIM_007.jpg	99
1841.886	0.57	570.4	test	Phase3	test/STIM_007.jpg	100
1845.651	0.62	619.6	test	Phase3	test/STIM_007.jpg	99
1849.501	1.024	1023.7	test	Phase3	test/STIM_008.jpg	100
1853.492	0.872	871.9	test	Phase3	test/STIM_008.jpg	99
1856.853	0.828	827.9	test	Phase3	test/STIM_008.jpg	99
1861.651	0.839	839.4	test	Phase3	test/STIM_009.jpg	99
1866.336	0.935	935.4	test	Phase3	test/STIM_009.jpg	100
1869.998	0.766	766.1	test	Phase3	test/STIM_009.jpg	100
1873.396	0.943	942.7	test	Phase3	test/STIM_010.jpg	99
1876.433	0.559	558.8	test	Phase3	test/STIM_010.jpg	100
1880.295	0.899	898.8	test	Phase3	test/STIM_010.jpg	100
1884.979	0.819	818.8	test	Phase3	test/STIM_011.jpg	100
1889.376	0.58	580.5	test	Phase3	test/STIM_011.jpg	100
1893.348	0.634	633.8	test	Phase3	test/STIM_011.jpg	99
1897.854	0.977	977.2	test	Phase3	test/STIM_012.jpg	99
1901.636	0.621	621.4	test	Phase3	test/STIM_012.jpg	100
1904.832	1.108	1108.5	test	Phase3	test/STIM_012.jpg	99
1908.119	0.656	655.5	test	Phase3	test/STIM_013.jpg	100
1912.041	0.559	558.6	test	Phase3	test/STIM_013.jpg	99
1914.929	0.77	770.4	test	Phase3	test/STIM_013.jpg	100
1918.444	0.681	681.3	test	Phase3	test/STIM_014.jpg	100
1922.381	0.732	732.3	test	Phase3	test/STIM_014.jpg	99
1925.929	0.741	741.3	test	Phase3	test/STIM_014.jpg	99
1930.521	0.593	592.8	test	Phase3	test/STIM_015.jpg	100
1933.233	0.62	620.0	test	Phase3	test/STIM_015.jpg	100
1936.246	0.741	740.9	test	Phase3	test/STIM_015.jpg	100
1940.282	0.84	839.9	test	Phase3	test/STIM_016.jpg	100
1944.812	1.024	1024.5	test	Phase3	test/STIM_016.jpg	100
1949.773	0.61	609.8	test	Phase3	test/STIM_016.jpg	99
1953.838	0.943	943.4	test	Phase3	test/STIM_017.jpg	100
1957.819	0.528	527.8	test	Phase3	test/STIM_017.jpg	99
1962.196	0.617	617.3	test	Phase3	test/STIM_017.jpg	100
1966.374	1.076	1075.5	test	Phase3	test/STIM_018.jpg	100
1971.227	0.784	783.7	test	Phase3	test/STIM_018.jpg	100
1974.614	1.067	1066.6	test	Phase3	test/STIM_018.jpg	99
1979.436	0.712	711.9	test	Phase3	test/STIM_019.jpg	99
1982.743	0.996	996.2	test	Phase3	test/STIM_019.jpg	100
1987.067	1.022	1021.8	test	Phase3	test/STIM_019.jpg	99
1990.966	0.519	519.1	test	Phase3	test/STIM_020.jpg	99
1993.881	1.011	1011.1	test	Phase3	test/STIM_020.jpg	100
1997.969	0.859	859.4	test	Phase3	test/STIM_020.jpg	99
2001.939	0.665	664.8	test	Phase3	test/STIM_021.jpg	99
2005.541	0.86	860.5	test	Phase3	test/STIM_021.jpg	100
2008.649	0.803	803.3	test	Phase3	test/STIM_021.jpg	100
2013.203	0.608	608.4	test	Phase3	test/STIM_022.jpg	99
2017.415	0.56	560.5	test	Phase3	test/STIM_022.jpg	100
2020.448	0.622	622.2	test	Phase3	test/STIM_022.jpg	99
2023.743	1.012	1011.8	test	Phase3	test/STIM_023.jpg	100
2028.728	0.517	517.0	test	Phase3	test/STIM_023.jpg	100
2031.549	0.972	971.9	test	Phase3	test/STIM_023.jpg	99
2035.705	0.638	637.8	test	Phase3	test/STIM_024.jpg	100
2039.337	1.062	1062.5	test	Phase3	test/STIM_024.jpg	99
2044.131	0.955	955.3	test	Phase3	test/STIM_024.jpg	100
2048.148	0.929	928.6	test	Phase3	test/STIM_025.jpg	99
2051.811	0.965	964.9	test	Phase3	test/STIM_025.jpg	99
2055.196	0.605	604.9	test	Phase3	test/STIM_025.jpg	99
2057.934	0.584	584.4	test	Phase3	test/STIM_026.jpg	100
2061.861	0.652	652.4	test	Phase3	test/STIM_026.jpg	99
2064.738	0.541	540.7	test	Phase3	test/STIM_026.jpg	100
2068.814	0.879	878.8	test	Phase3	test/STIM_027.jpg	99
2073.64	0.766	766.5	test	Phase3	test/STIM_027.jpg	100
2076.56	0.982	982.5	test	Phase3	test/STIM_027.jpg	100
2080.821	0.513	512.9	test	Phase3	test/STIM_028.jpg	99
2085.242	0.901	900.6	test	Phase3	test/STIM_028.jpg	100
2088.426	0.836	836.4	test	Phase3	test/STIM_028.jpg	100
2093.199	0.969	969.3	test	Phase3	test/STIM_029.jpg	99
2096.234	0.646	646.2	test	Phase3	test/STIM_029.jpg	99
2099.198	0.913	913.4	test	Phase3	test/STIM_029.jpg	99
