onset	duration	accuracy_binary	trial_type	learning_stage	stimulus
0.0	1.444	1	study	Phase1	study/STIM_000.jpg
5.426	1.692	1	study	Phase1	study/STIM_000.jpg
10.698	0.985	1	study	Phase1	study/STIM_000.jpg
15.434	1.317	1	study	Phase1	study/STIM_001.jpg
19.388	1.54	1	study	Phase1	study/STIM_001.jpg
24.802	0.87	1	study	Phase1	study/STIM_001.jpg
29.681	1.442	1	study	Phase1	study/STIM_002.jpg
34.589	0.921	1	study	Phase1	study/STIM_002.jpg
39.411	1.195	1	study	Phase1	study/STIM_002.jpg
43.45	1.616	1	study	Phase1	study/STIM_003.jpg
48.092	1.088	1	study	Phase1	study/STIM_003.jpg
52.099	0.878	1	study	Phase1	study/STIM_003.jpg
56.11	1.701	0	study	Phase1	study/STIM_004.jpg
61.666	1.418	1	study	Phase1	study/STIM_004.jpg
65.623	1.24	0	study	Phase1	study/STIM_004.jpg
68.985	0.876	1	study	Phase1	study/STIM_005.jpg
73.663	0.871	1	study	Phase1	study/STIM_005.jpg
77.53	1.078	1	study	Phase1	study/STIM_005.jpg
81.216	1.28	0	study	Phase1	study/STIM_006.jpg
85.597	1.449	1	study	Phase1	study/STIM_006.jpg
90.018	1.141	1	study	Phase1	study/STIM_006.jpg
94.547	1.642	0	study	Phase1	study/STIM_007.jpg
100.09	1.164	1	study	Phase1	study/STIM_007.jpg
103.479	1.417	1	study	Phase1	study/STIM_007.jpg
108.863	1.468	1	study	Phase1	study/STIM_008.jpg
113.596	0.978	1	study	Phase1	study/STIM_008.jpg
117.323	1.355	1	study	Phase1	study/STIM_008.jpg
122.196	1.758	0	study	Phase1	study/STIM_009.jpg
127.026	1.307	1	study	Phase1	study/STIM_009.jpg
132.02	1.564	1	study	Phase1	study/STIM_009.jpg
136.433	1.537	1	study	Phase1	study/STIM_010.jpg
141.173	1.045	1	study	Phase1	study/STIM_010.jpg
145.342	1.532	1	study	Phase1	study/STIM_010.jpg
149.891	1.012	1	study	Phase1	study/STIM_011.jpg
153.862	0.946	1	study	Phase1	study/STIM_011.jpg
158.312	0.808	1	study	Phase1	study/STIM_011.jpg
161.635	1.658	1	study	Phase1	study/STIM_012.jpg
165.696	1.231	1	study	Phase1	study/STIM_012.jpg
170.264	1.371	1	study	Phase1	study/STIM_012.jpg
173.617	1.421	1	study	Phase1	study/STIM_013.jpg
177.71	0.9	1	study	Phase1	study/STIM_013.jpg
181.725	1.511	1	study	Phase1	study/STIM_013.jpg
186.265	1.661	1	study	Phase1	study/STIM_014.jpg
190.343	1.405	1	study	Phase1	study/STIM_014.jpg
195.774	0.945	1	study	Phase1	study/STIM_014.jpg
200.018	1.411	1	study	Phase1	study/STIM_015.jpg
205.061	1.741	0	study	Phase1	study/STIM_015.jpg
210.453	1.541	1	study	Phase1	study/STIM_015.jpg
214.388	1.388	1	study	Phase1	study/STIM_016.jpg
217.819	1.553	1	study	Phase1	study/STIM_016.jpg
222.257	1.418	1	study	Phase1	study/STIM_016.jpg
227.631	1.638	1	study	Phase1	study/STIM_017.jpg
232.862	1.358	1	study	Phase1	study/STIM_017.jpg
237.882	1.29	1	study	Phase1	study/STIM_017.jpg
242.201	1.402	1	study	Phase1	study/STIM_018.jpg
246.517	1.46	1	study	Phase1	study/STIM_018.jpg
250.951	1.575	1	study	Phase1	study/STIM_018.jpg
256.153	1.693	1	study	Phase1	study/STIM_019.jpg
260.267	1.569	1	study	Phase1	study/STIM_019.jpg
264.084	1.121	1	study	Phase1	study/STIM_019.jpg
267.29	1.86	1	study	Phase1	study/STIM_020.jpg
272.64	1.487	1	study	Phase1	study/STIM_020.jpg
277.075	1.522	1	study	Phase1	study/STIM_020.jpg
280.808	1.754	1	study	Phase1	study/STIM_021.jpg
285.345	1.678	1	study	Phase1	study/STIM_021.jpg
289.278	1.054	0	study	Phase1	study/STIM_021.jpg
294.21	1.25	1	study	Phase1	study/STIM_022.jpg
297.802	1.116	1	study	Phase1	study/STIM_022.jpg
302.496	1.049	1	study	Phase1	study/STIM_022.jpg
306.692	1.057	0	study	Phase1	study/STIM_023.jpg
310.842	1.22	1	study	Phase1	study/STIM_023.jpg
315.284	1.552	1	study	Phase1	study/STIM_023.jpg
320.547	1.351	1	study	Phase1	study/STIM_024.jpg
325.096	1.419	1	study	Phase1	study/STIM_024.jpg
328.688	0.847	1	study	Phase1	study/STIM_024.jpg
331.825	0.999	1	study	Phase1	study/STIM_025.jpg
336.549	0.97	1	study	Phase1	study/STIM_025.jpg
340.106	0.991	1	study	Phase1	study/STIM_025.jpg
343.805	0.866	0	study	Phase1	study/STIM_026.jpg
347.481	0.882	0	study	Phase1	study/STIM_026.jpg
350.762	1.271	1	study	Phase1	study/STIM_026.jpg
355.292	0.912	1	study	Phase1	study/STIM_027.jpg
358.971	0.989	1	study	Phase1	study/STIM_027.jpg
362.459	1.689	1	study	Phase1	study/STIM_027.jpg
367.903	0.897	1	study	Phase1	study/STIM_028.jpg
370.928	1.376	1	study	Phase1	study/STIM_028.jpg
374.86	1.18	1	study	Phase1	study/STIM_028.jpg
379.917	1.224	1	study	Phase1	study/STIM_029.jpg
383.878	1.762	1	study	Phase1	study/STIM_029.jpg
388.664	0.81	1	study	Phase1	study/STIM_029.jpg
393.179	1.225	1	test	Phase1	test/STIM_000.jpg
397.313	0.743	1	test	Phase1	test/STIM_000.jpg
400.382	0.803	1	test	Phase1	test/STIM_000.jpg
404.677	0.941	1	test	Phase1	test/STIM_001.jpg
408.373	1.237	1	test	Phase1	test/STIM_001.jpg
411.805	0.642	1	test	Phase1	test/STIM_001.jpg
414.607	1.023	1	test	Phase1	test/STIM_002.jpg
417.935	0.8	1	test	Phase1	test/STIM_002.jpg
421.751	1.173	1	test	Phase1	test/STIM_002.jpg
425.564	1.117	1	test	Phase1	test/STIM_003.jpg
429.088	1.343	0	test	Phase1	test/STIM_003.jpg
434.23	0.537	1	test	Phase1	test/STIM_003.jpg
437.706	0.846	1	test	Phase1	test/STIM_004.jpg
440.945	1.04	1	test	Phase1	test/STIM_004.jpg
445.442	0.786	1	test	Phase1	test/STIM_004.jpg
449.615	0.931	1	test	Phase1	test/STIM_005.jpg
453.737	1.179	1	test	Phase1	test/STIM_005.jpg
458.277	1.235	1	test	Phase1	test/STIM_005.jpg
462.103	0.793	1	test	Phase1	test/STIM_006.jpg
466.897	0.927	1	test	Phase1	test/STIM_006.jpg
471.038	1.136	1	test	Phase1	test/STIM_006.jpg
474.533	1.233	1	test	Phase1	test/STIM_007.jpg
478.355	0.94	0	test	Phase1	test/STIM_007.jpg
482.919	0.668	1	test	Phase1	test/STIM_007.jpg
486.1	1.263	1	test	Phase1	test/STIM_008.jpg
491.353	0.73	1	test	Phase1	test/STIM_008.jpg
494.374	1.206	1	test	Phase1	test/STIM_008.jpg
498.442	1.005	1	test	Phase1	test/STIM_009.jpg
501.745	1.338	0	test	Phase1	test/STIM_009.jpg
506.315	1.058	1	test	Phase1	test/STIM_009.jpg
511.368	0.557	1	test	Phase1	test/STIM_010.jpg
514.77	1.126	1	test	Phase1	test/STIM_010.jpg
519.75	1.227	1	test	Phase1	test/STIM_010.jpg
524.806	1.156	1	test	Phase1	test/STIM_011.jpg
529.61	1.001	1	test	Phase1	test/STIM_011.jpg
533.236	0.696	0	test	Phase1	test/STIM_011.jpg
536.852	1.179	1	test	Phase1	test/STIM_012.jpg
540.212	0.623	1	test	Phase1	test/STIM_012.jpg
544.013	0.899	1	test	Phase1	test/STIM_012.jpg
548.444	1.153	1	test	Phase1	test/STIM_013.jpg
552.515	0.77	1	test	Phase1	test/STIM_013.jpg
556.539	1.038	1	test	Phase1	test/STIM_013.jpg
560.1	1.19	1	test	Phase1	test/STIM_014.jpg
565.143	0.861	1	test	Phase1	test/STIM_014.jpg
569.302	0.578	0	test	Phase1	test/STIM_014.jpg
573.317	1.261	1	test	Phase1	test/STIM_015.jpg
577.936	1.147	1	test	Phase1	test/STIM_015.jpg
581.591	1.27	1	test	Phase1	test/STIM_015.jpg
586.244	1.165	1	test	Phase1	test/STIM_016.jpg
589.836	1.062	1	test	Phase1	test/STIM_016.jpg
594.201	1.132	1	test	Phase1	test/STIM_016.jpg
598.764	0.593	1	test	Phase1	test/STIM_017.jpg
602.942	1.267	1	test	Phase1	test/STIM_017.jpg
607.24	0.798	1	test	Phase1	test/STIM_017.jpg
610.167	0.857	1	test	Phase1	test/STIM_018.jpg
613.381	0.72	1	test	Phase1	test/STIM_018.jpg
616.71	1.12	1	test	Phase1	test/STIM_018.jpg
621.696	0.626	1	test	Phase1	test/STIM_019.jpg
625.206	0.681	1	test	Phase1	test/STIM_019.jpg
629.843	1.155	1	test	Phase1	test/STIM_019.jpg
634.961	1.247	1	test	Phase1	test/STIM_020.jpg
638.309	0.751	0	test	Phase1	test/STIM_020.jpg
642.066	1.292	1	test	Phase1	test/STIM_020.jpg
645.773	1.064	1	test	Phase1	test/STIM_021.jpg
649.851	1.052	1	test	Phase1	test/STIM_021.jpg
654.924	1.298	1	test	Phase1	test/STIM_021.jpg
658.528	0.692	1	test	Phase1	test/STIM_022.jpg
662.358	1.203	1	test	Phase1	test/STIM_022.jpg
667.402	0.641	1	test	Phase1	test/STIM_022.jpg
670.995	1.197	1	test	Phase1	test/STIM_023.jpg
675.647	1.151	1	test	Phase1	test/STIM_023.jpg
680.174	1.093	1	test	Phase1	test/STIM_023.jpg
685.069	1.118	1	test	Phase1	test/STIM_024.jpg
689.551	0.9	1	test	Phase1	test/STIM_024.jpg
692.796	1.238	1	test	Phase1	test/STIM_024.jpg
696.963	1.142	1	test	Phase1	test/STIM_025.jpg
700.391	1.21	0	test	Phase1	test/STIM_025.jpg
705.462	1.207	0	test	Phase1	test/STIM_025.jpg
710.223	0.778	0	test	Phase1	test/STIM_026.jpg
713.791	1.068	1	test	Phase1	test/STIM_026.jpg
717.857	0.81	1	test	Phase1	test/STIM_026.jpg
721.127	1.024	1	test	Phase1	test/STIM_027.jpg
726.008	0.671	1	test	Phase1	test/STIM_027.jpg
730.502	0.803	1	test	Phase1	test/STIM_027.jpg
734.614	1.252	1	test	Phase1	test/STIM_028.jpg
738.151	1.08	1	test	Phase1	test/STIM_028.jpg
742.436	1.015	1	test	Phase1	test/STIM_028.jpg
747.21	1.003	1	test	Phase1	test/STIM_029.jpg
750.947	0.874	1	test	Phase1	test/STIM_029.jpg
754.705	1.132	1	test	Phase1	test/STIM_029.jpg
759.373	0.864	1	study	Phase2	study/STIM_000.jpg
764.185	0.822	1	study	Phase2	study/STIM_000.jpg
767.932	1.252	1	study	Phase2	study/STIM_000.jpg
772.595	0.921	0	study	Phase2	study/STIM_001.jpg
777.473	0.942	1	study	Phase2	study/STIM_001.jpg
781.706	0.573	1	study	Phase2	study/STIM_001.jpg
784.619	1.006	1	study	Phase2	study/STIM_002.jpg
789.2	0.69	1	study	Phase2	study/STIM_002.jpg
792.086	0.841	1	study	Phase2	study/STIM_002.jpg
795.64	0.711	1	study	Phase2	study/STIM_003.jpg
798.895	1.127	1	study	Phase2	study/STIM_003.jpg
803.343	0.638	1	study	Phase2	study/STIM_003.jpg
806.299	1.021	1	study	Phase2	study/STIM_004.jpg
809.97	0.687	1	study	Phase2	study/STIM_004.jpg
814.42	0.694	1	study	Phase2	study/STIM_004.jpg
817.946	1.087	1	study	Phase2	study/STIM_005.jpg
822.956	0.878	1	study	Phase2	study/STIM_005.jpg
825.945	0.868	0	study	Phase2	study/STIM_005.jpg
830.306	1.307	0	study	Phase2	study/STIM_006.jpg
834.841	1.242	1	study	Phase2	study/STIM_006.jpg
839.725	0.833	1	study	Phase2	study/STIM_006.jpg
843.887	0.976	1	study	Phase2	study/STIM_007.jpg
848.446	0.71	1	study	Phase2	study/STIM_007.jpg
852.403	0.95	1	study	Phase2	study/STIM_007.jpg
856.426	1.446	1	study	Phase2	study/STIM_008.jpg
861.573	0.782	1	study	Phase2	study/STIM_008.jpg
865.185	1.272	1	study	Phase2	study/STIM_008.jpg
869.908	0.896	1	study	Phase2	study/STIM_009.jpg
872.894	0.67	1	study	Phase2	study/STIM_009.jpg
875.685	0.662	1	study	Phase2	study/STIM_009.jpg
878.533	0.873	1	study	Phase2	study/STIM_010.jpg
882.414	1.407	1	study	Phase2	study/STIM_010.jpg
887.591	1.064	1	study	Phase2	study/STIM_010.jpg
892.187	1.412	1	study	Phase2	study/STIM_011.jpg
897.079	0.922	1	study	Phase2	study/STIM_011.jpg
900.652	1.086	1	study	Phase2	study/STIM_011.jpg
905.537	0.667	1	study	Phase2	study/STIM_012.jpg
908.256	0.844	1	study	Phase2	study/STIM_012.jpg
911.405	0.82	1	study	Phase2	study/STIM_012.jpg
914.329	1.513	1	study	Phase2	study/STIM_013.jpg
918.097	1.103	1	study	Phase2	study/STIM_013.jpg
922.333	0.725	1	study	Phase2	study/STIM_013.jpg
925.075	1.086	0	study	Phase2	study/STIM_014.jpg
928.775	0.629	1	study	Phase2	study/STIM_014.jpg
931.919	1.028	1	study	Phase2	study/STIM_014.jpg
935.67	1.361	0	study	Phase2	study/STIM_015.jpg
939.496	1.472	1	study	Phase2	study/STIM_015.jpg
944.158	1.212	0	study	Phase2	study/STIM_015.jpg
947.584	1.197	1	study	Phase2	study/STIM_016.jpg
951.36	0.853	1	study	Phase2	study/STIM_016.jpg
955.945	1.071	1	study	Phase2	study/STIM_016.jpg
959.936	0.952	1	study	Phase2	study/STIM_017.jpg
964.674	1.213	1	study	Phase2	study/STIM_017.jpg
969.603	0.741	1	study	Phase2	study/STIM_017.jpg
973.939	1.31	1	study	Phase2	study/STIM_018.jpg
978.746	1.041	1	study	Phase2	study/STIM_018.jpg
982.037	0.583	1	study	Phase2	study/STIM_018.jpg
986.03	0.727	1	study	Phase2	study/STIM_019.jpg
989.13	0.828	1	study	Phase2	study/STIM_019.jpg
993.105	0.838	1	study	Phase2	study/STIM_019.jpg
996.429	1.12	1	study	Phase2	study/STIM_020.jpg
1000.275	0.734	1	study	Phase2	study/STIM_020.jpg
1004.655	0.964	1	study	Phase2	study/STIM_020.jpg
1008.728	0.909	1	study	Phase2	study/STIM_021.jpg
1012.24	0.793	1	study	Phase2	study/STIM_021.jpg
1015.273	1.093	1	study	Phase2	study/STIM_021.jpg
1018.63	1.436	1	study	Phase2	study/STIM_022.jpg
1023.0	1.002	1	study	Phase2	study/STIM_022.jpg
1026.758	0.892	1	study	Phase2	study/STIM_022.jpg
1030.386	1.424	1	study	Phase2	study/STIM_023.jpg
1034.941	1.191	1	study	Phase2	study/STIM_023.jpg
1039.819	0.789	1	study	Phase2	study/STIM_023.jpg
1043.135	0.795	0	study	Phase2	study/STIM_024.jpg
1047.551	1.236	1	study	Phase2	study/STIM_024.jpg
1051.991	0.698	1	study	Phase2	study/STIM_024.jpg
1055.192	0.69	1	study	Phase2	study/STIM_025.jpg
1059.353	1.226	1	study	Phase2	study/STIM_025.jpg
1062.795	1.03	1	study	Phase2	study/STIM_025.jpg
1066.004	1.118	1	study	Phase2	study/STIM_026.jpg
1070.153	1.372	1	study	Phase2	study/STIM_026.jpg
1074.832	0.664	1	study	Phase2	study/STIM_026.jpg
1077.736	1.307	1	study	Phase2	study/STIM_027.jpg
1081.351	0.832	1	study	Phase2	study/STIM_027.jpg
1084.953	0.772	1	study	Phase2	study/STIM_027.jpg
1088.672	1.052	0	study	Phase2	study/STIM_028.jpg
1093.61	1.042	1	study	Phase2	study/STIM_028.jpg
1098.292	0.996	0	study	Phase2	study/STIM_028.jpg
1102.832	1.308	1	study	Phase2	study/STIM_029.jpg
1106.257	0.811	1	study	Phase2	study/STIM_029.jpg
1110.279	1.176	1	study	Phase2	study/STIM_029.jpg
1114.503	0.961	1	test	Phase2	test/STIM_000.jpg
1118.407	1.003	0	test	Phase2	test/STIM_000.jpg
1122.601	0.609	0	test	Phase2	test/STIM_000.jpg
1126.104	0.9	1	test	Phase2	test/STIM_001.jpg
1130.991	0.858	0	test	Phase2	test/STIM_001.jpg
1134.847	1.143	0	test	Phase2	test/STIM_001.jpg
1139.876	0.87	0	test	Phase2	test/STIM_002.jpg
1143.427	1.138	1	test	Phase2	test/STIM_002.jpg
1147.461	0.619	1	test	Phase2	test/STIM_002.jpg
1151.378	1.287	1	test	Phase2	test/STIM_003.jpg
1156.193	1.08	1	test	Phase2	test/STIM_003.jpg
1159.653	0.613	1	test	Phase2	test/STIM_003.jpg
1163.858	0.877	1	test	Phase2	test/STIM_004.jpg
1168.562	0.812	1	test	Phase2	test/STIM_004.jpg
1171.915	0.839	1	test	Phase2	test/STIM_004.jpg
1176.598	0.592	1	test	Phase2	test/STIM_005.jpg
1180.093	0.604	1	test	Phase2	test/STIM_005.jpg
1183.39	0.837	1	test	Phase2	test/STIM_005.jpg
1186.499	0.877	1	test	Phase2	test/STIM_006.jpg
1191.095	1.025	1	test	Phase2	test/STIM_006.jpg
1195.354	1.086	1	test	Phase2	test/STIM_006.jpg
1198.95	1.172	1	test	Phase2	test/STIM_007.jpg
1202.673	1.33	1	test	Phase2	test/STIM_007.jpg
1207.052	1.028	1	test	Phase2	test/STIM_007.jpg
1212.016	0.937	1	test	Phase2	test/STIM_008.jpg
1215.92	1.259	1	test	Phase2	test/STIM_008.jpg
1220.58	1.221	0	test	Phase2	test/STIM_008.jpg
1225.662	1.101	1	test	Phase2	test/STIM_009.jpg
1228.729	1.021	1	test	Phase2	test/STIM_009.jpg
1232.437	1.148	1	test	Phase2	test/STIM_009.jpg
1236.662	0.699	1	test	Phase2	test/STIM_010.jpg
1241.016	0.744	1	test	Phase2	test/STIM_010.jpg
1245.624	1.104	1	test	Phase2	test/STIM_010.jpg
1249.066	0.98	1	test	Phase2	test/STIM_011.jpg
1252.447	0.675	1	test	Phase2	test/STIM_011.jpg
1255.824	0.847	1	test	Phase2	test/STIM_011.jpg
1259.282	1.094	1	test	Phase2	test/STIM_012.jpg
1263.252	0.708	1	test	Phase2	test/STIM_012.jpg
1267.065	1.095	1	test	Phase2	test/STIM_012.jpg
1271.683	0.781	0	test	Phase2	test/STIM_013.jpg
1275.134	0.764	1	test	Phase2	test/STIM_013.jpg
1279.346	0.79	0	test	Phase2	test/STIM_013.jpg
1282.918	0.851	1	test	Phase2	test/STIM_014.jpg
1286.001	0.831	1	test	Phase2	test/STIM_014.jpg
1290.285	0.941	1	test	Phase2	test/STIM_014.jpg
1293.857	0.949	1	test	Phase2	test/STIM_015.jpg
1297.169	0.649	1	test	Phase2	test/STIM_015.jpg
1300.76	1.212	0	test	Phase2	test/STIM_015.jpg
1304.643	0.747	1	test	Phase2	test/STIM_016.jpg
1307.579	1.15	1	test	Phase2	test/STIM_016.jpg
1312.435	0.725	1	test	Phase2	test/STIM_016.jpg
1316.813	0.979	1	test	Phase2	test/STIM_017.jpg
1320.377	0.889	0	test	Phase2	test/STIM_017.jpg
1323.364	0.599	1	test	Phase2	test/STIM_017.jpg
1326.587	0.904	1	test	Phase2	test/STIM_018.jpg
1330.157	1.077	1	test	Phase2	test/STIM_018.jpg
1333.722	1.12	1	test	Phase2	test/STIM_018.jpg
1338.366	0.57	1	test	Phase2	test/STIM_019.jpg
1341.698	1.22	1	test	Phase2	test/STIM_019.jpg
1346.173	0.984	0	test	Phase2	test/STIM_019.jpg
1349.413	0.691	1	test	Phase2	test/STIM_020.jpg
1353.607	1.353	1	test	Phase2	test/STIM_020.jpg
1357.014	1.306	1	test	Phase2	test/STIM_020.jpg
1362.296	1.105	1	test	Phase2	test/STIM_021.jpg
1367.098	0.639	0	test	Phase2	test/STIM_021.jpg
1370.341	0.759	1	test	Phase2	test/STIM_021.jpg
1373.156	0.835	1	test	Phase2	test/STIM_022.jpg
1376.942	0.917	1	test	Phase2	test/STIM_022.jpg
1381.76	1.317	1	test	Phase2	test/STIM_022.jpg
1385.576	1.238	1	test	Phase2	test/STIM_023.jpg
1390.1	1.096	1	test	Phase2	test/STIM_023.jpg
1394.309	0.745	1	test	Phase2	test/STIM_023.jpg
1397.943	1.283	1	test	Phase2	test/STIM_024.jpg
1401.486	0.617	0	test	Phase2	test/STIM_024.jpg
1406.046	0.628	0	test	Phase2	test/STIM_024.jpg
1409.702	1.036	1	test	Phase2	test/STIM_025.jpg
1413.461	0.64	1	test	Phase2	test/STIM_025.jpg
1417.968	0.848	1	test	Phase2	test/STIM_025.jpg
1422.149	0.879	1	test	Phase2	test/STIM_026.jpg
1425.872	1.258	1	test	Phase2	test/STIM_026.jpg
1429.79	1.167	1	test	Phase2	test/STIM_026.jpg
1433.786	1.111	1	test	Phase2	test/STIM_027.jpg
1436.931	0.835	1	test	Phase2	test/STIM_027.jpg
1440.38	1.145	0	test	Phase2	test/STIM_027.jpg
1444.244	0.999	1	test	Phase2	test/STIM_028.jpg
1448.561	0.656	1	test	Phase2	test/STIM_028.jpg
1452.153	0.922	1	test	Phase2	test/STIM_028.jpg
1456.783	0.908	1	test	Phase2	test/STIM_029.jpg
1461.562	1.182	1	test	Phase2	test/STIM_029.jpg
1465.778	1.175	1	test	Phase2	test/STIM_029.jpg
1469.75	0.983	1	study	Phase3	study/STIM_000.jpg
1474.268	1.196	1	study	Phase3	study/STIM_000.jpg
1477.782	0.856	1	study	Phase3	study/STIM_000.jpg
1482.373	1.042	1	study	Phase3	study/STIM_001.jpg
1486.389	0.944	1	study	Phase3	study/STIM_001.jpg
1490.213	0.932	1	study	Phase3	study/STIM_001.jpg
1494.771	1.037	1	study	Phase3	study/STIM_002.jpg
1499.59	0.921	1	study	Phase3	study/STIM_002.jpg
1502.897	0.699	1	study	Phase3	study/STIM_002.jpg
1506.872	1.144	1	study	Phase3	study/STIM_003.jpg
1510.756	0.833	1	study	Phase3	study/STIM_003.jpg
1514.392	0.999	1	study	Phase3	study/STIM_003.jpg
1517.507	0.781	1	study	Phase3	study/STIM_004.jpg
1521.751	1.248	1	study	Phase3	study/STIM_004.jpg
1526.281	1.211	1	study	Phase3	study/STIM_004.jpg
1530.118	1.021	1	study	Phase3	study/STIM_005.jpg
1534.898	1.21	1	study	Phase3	study/STIM_005.jpg
1538.558	1.005	1	study	Phase3	study/STIM_005.jpg
1542.412	0.711	1	study	Phase3	study/STIM_006.jpg
1545.784	0.838	1	study	Phase3	study/STIM_006.jpg
1550.208	1.192	0	study	Phase3	study/STIM_006.jpg
1553.765	0.645	1	study	Phase3	study/STIM_007.jpg
1556.989	1.179	1	study	Phase3	study/STIM_007.jpg
1560.158	0.879	1	study	Phase3	study/STIM_007.jpg
1564.158	1.13	1	study	Phase3	study/STIM_008.jpg
1568.763	0.688	1	study	Phase3	study/STIM_008.jpg
1573.057	1.052	1	study	Phase3	study/STIM_008.jpg
1576.798	1.199	0	study	Phase3	study/STIM_009.jpg
1581.076	1.116	1	study	Phase3	study/STIM_009.jpg
1585.298	0.691	1	study	Phase3	study/STIM_009.jpg
1589.599	0.747	1	study	Phase3	study/STIM_010.jpg
1592.797	1.128	1	study	Phase3	study/STIM_010.jpg
1597.418	1.042	1	study	Phase3	study/STIM_010.jpg
1601.606	1.067	1	study	Phase3	study/STIM_011.jpg
1605.306	0.808	1	study	Phase3	study/STIM_011.jpg
1609.421	0.919	1	study	Phase3	study/STIM_011.jpg
1614.253	0.95	1	study	Phase3	study/STIM_012.jpg
1617.509	0.697	1	study	Phase3	study/STIM_012.jpg
1620.3	0.896	1	study	Phase3	study/STIM_012.jpg
1623.943	0.736	1	study	Phase3	study/STIM_013.jpg
1628.231	1.227	1	study	Phase3	study/STIM_013.jpg
1633.026	0.789	1	study	Phase3	study/STIM_013.jpg
1637.058	0.706	1	study	Phase3	study/STIM_014.jpg
1641.586	0.906	1	study	Phase3	study/STIM_014.jpg
1646.295	0.59	1	study	Phase3	study/STIM_014.jpg
1649.976	1.04	0	study	Phase3	study/STIM_015.jpg
1653.229	1.048	1	study	Phase3	study/STIM_015.jpg
1658.256	1.229	1	study	Phase3	study/STIM_015.jpg
1663.407	1.006	1	study	Phase3	study/STIM_016.jpg
1667.211	0.616	1	study	Phase3	study/STIM_016.jpg
1670.272	0.794	1	study	Phase3	study/STIM_016.jpg
1673.107	0.955	1	study	Phase3	study/STIM_017.jpg
1676.464	0.833	1	study	Phase3	study/STIM_017.jpg
1680.804	0.698	1	study	Phase3	study/STIM_017.jpg
1684.869	0.953	1	study	Phase3	study/STIM_018.jpg
1689.515	0.629	1	study	Phase3	study/STIM_018.jpg
1692.682	0.644	1	study	Phase3	study/STIM_018.jpg
1697.048	1.016	1	study	Phase3	study/STIM_019.jpg
1701.1	0.82	1	study	Phase3	study/STIM_019.jpg
1705.014	1.186	1	study	Phase3	study/STIM_019.jpg
1709.84	0.797	1	study	Phase3	study/STIM_020.jpg
1712.674	0.718	1	study	Phase3	study/STIM_020.jpg
1716.955	0.917	1	study	Phase3	study/STIM_020.jpg
1721.562	1.026	1	study	Phase3	study/STIM_021.jpg
1726.623	1.211	1	study	Phase3	study/STIM_021.jpg
1731.367	0.966	1	study	Phase3	study/STIM_021.jpg
1735.762	0.891	1	study	Phase3	study/STIM_022.jpg
1739.542	0.73	1	study	Phase3	study/STIM_022.jpg
1742.655	1.199	1	study	Phase3	study/STIM_022.jpg
1747.241	0.607	1	study	Phase3	study/STIM_023.jpg
1750.005	0.77	1	study	Phase3	study/STIM_023.jpg
1754.774	0.873	1	study	Phase3	study/STIM_023.jpg
1757.795	0.531	1	study	Phase3	study/STIM_024.jpg
1761.345	0.699	1	study	Phase3	study/STIM_024.jpg
1765.357	1.019	1	study	Phase3	study/STIM_024.jpg
1769.351	0.698	1	study	Phase3	study/STIM_025.jpg
1773.509	0.952	0	study	Phase3	study/STIM_025.jpg
1776.739	1.158	1	study	Phase3	study/STIM_025.jpg
1780.824	1.143	1	study	Phase3	study/STIM_026.jpg
1784.866	1.054	1	study	Phase3	study/STIM_026.jpg
1788.05	0.883	1	study	Phase3	study/STIM_026.jpg
1791.008	0.527	1	study	Phase3	study/STIM_027.jpg
1795.47	1.017	1	study	Phase3	study/STIM_027.jpg
1798.843	0.761	1	study	Phase3	study/STIM_027.jpg
1803.368	0.896	1	study	Phase3	study/STIM_028.jpg
1807.531	1.262	1	study	Phase3	study/STIM_028.jpg
1811.824	0.582	1	study	Phase3	study/STIM_028.jpg
1815.638	1.242	1	study	Phase3	study/STIM_029.jpg
1820.217	1.183	1	study	Phase3	study/STIM_029.jpg
1824.499	1.166	1	study	Phase3	study/STIM_029.jpg
1828.786	1.147	1	test	Phase3	test/STIM_000.jpg
1832.409	0.726	1	test	Phase3	test/STIM_000.jpg
1835.198	1.177	1	test	Phase3	test/STIM_000.jpg
1839.889	0.994	1	test	Phase3	test/STIM_001.jpg
1843.553	1.212	1	test	Phase3	test/STIM_001.jpg
1846.907	0.982	1	test	Phase3	test/STIM_001.jpg
1851.048	0.924	1	test	Phase3	test/STIM_002.jpg
1855.748	0.927	0	test	Phase3	test/STIM_002.jpg
1859.605	0.674	1	test	Phase3	test/STIM_002.jpg
1863.356	0.627	1	test	Phase3	test/STIM_003.jpg
1866.917	1.071	1	test	Phase3	test/STIM_003.jpg
1870.427	1.27	0	test	Phase3	test/STIM_003.jpg
1874.627	0.97	0	test	Phase3	test/STIM_004.jpg
1878.697	0.926	1	test	Phase3	test/STIM_004.jpg
1882.744	0.698	1	test	Phase3	test/STIM_004.jpg
1886.912	0.648	1	test	Phase3	test/STIM_005.jpg
1891.069	1.245	1	test	Phase3	test/STIM_005.jpg
1896.125	1.159	1	test	Phase3	test/STIM_005.jpg
1900.514	0.577	1	test	Phase3	test/STIM_006.jpg
1904.167	1.25	1	test	Phase3	test/STIM_006.jpg
1907.485	0.779	1	test	Phase3	test/STIM_006.jpg
1911.271	0.671	1	test	Phase3	test/STIM_007.jpg
1914.13	0.803	1	test	Phase3	test/STIM_007.jpg
1917.972	0.792	1	test	Phase3	test/STIM_007.jpg
1921.851	1.104	1	test	Phase3	test/STIM_008.jpg
1925.097	1.016	1	test	Phase3	test/STIM_008.jpg
1928.192	1.236	0	test	Phase3	test/STIM_008.jpg
1932.305	0.743	1	test	Phase3	test/STIM_009.jpg
1936.861	1.124	1	test	Phase3	test/STIM_009.jpg
1941.399	0.672	1	test	Phase3	test/STIM_009.jpg
1944.581	1.076	1	test	Phase3	test/STIM_010.jpg
1948.176	0.756	1	test	Phase3	test/STIM_010.jpg
1951.697	1.236	0	test	Phase3	test/STIM_010.jpg
1955.63	0.766	1	test	Phase3	test/STIM_011.jpg
1959.127	1.393	1	test	Phase3	test/STIM_011.jpg
1962.419	0.744	1	test	Phase3	test/STIM_011.jpg
1965.968	0.802	1	test	Phase3	test/STIM_012.jpg
1969.145	1.261	1	test	Phase3	test/STIM_012.jpg
1973.955	0.78	1	test	Phase3	test/STIM_012.jpg
1977.329	1.092	1	test	Phase3	test/STIM_013.jpg
1980.908	0.691	1	test	Phase3	test/STIM_013.jpg
1985.326	1.139	1	test	Phase3	test/STIM_013.jpg
1989.17	0.779	1	test	Phase3	test/STIM_014.jpg
1993.543	1.051	1	test	Phase3	test/STIM_014.jpg
1997.702	0.991	1	test	Phase3	test/STIM_014.jpg
2000.933	0.945	1	test	Phase3	test/STIM_015.jpg
2005.71	1.216	1	test	Phase3	test/STIM_015.jpg
2010.696	1.103	1	test	Phase3	test/STIM_015.jpg
2015.284	0.649	1	test	Phase3	test/STIM_016.jpg
2019.145	0.654	1	test	Phase3	test/STIM_016.jpg
2022.58	1.18	1	test	Phase3	test/STIM_016.jpg
2025.963	0.609	1	test	Phase3	test/STIM_017.jpg
2028.646	0.865	1	test	Phase3	test/STIM_017.jpg
2033.075	1.108	1	test	Phase3	test/STIM_017.jpg
2037.311	1.176	1	test	Phase3	test/STIM_018.jpg
2041.48	1.122	1	test	Phase3	test/STIM_018.jpg
2045.406	0.693	1	test	Phase3	test/STIM_018.jpg
2049.682	1.049	1	test	Phase3	test/STIM_019.jpg
2053.102	1.133	1	test	Phase3	test/STIM_019.jpg
2056.756	0.663	1	test	Phase3	test/STIM_019.jpg
2060.445	0.558	1	test	Phase3	test/STIM_020.jpg
2064.233	1.085	1	test	Phase3	test/STIM_020.jpg
2068.897	0.737	1	test	Phase3	test/STIM_020.jpg
2072.594	1.152	1	test	Phase3	test/STIM_021.jpg
2077.331	0.83	1	test	Phase3	test/STIM_021.jpg
2080.414	0.81	1	test	Phase3	test/STIM_021.jpg
2084.685	1.025	1	test	Phase3	test/STIM_022.jpg
2087.714	1.094	1	test	Phase3	test/STIM_022.jpg
2090.733	1.145	1	test	Phase3	test/STIM_022.jpg
2095.06	1.261	1	test	Phase3	test/STIM_023.jpg
2100.277	1.288	1	test	Phase3	test/STIM_023.jpg
2105.359	1.317	1	test	Phase3	test/STIM_023.jpg
2109.474	0.803	1	test	Phase3	test/STIM_024.jpg
2113.3	1.191	1	test	Phase3	test/STIM_024.jpg
2118.093	1.009	1	test	Phase3	test/STIM_024.jpg
2122.27	1.241	0	test	Phase3	test/STIM_025.jpg
2126.54	0.589	1	test	Phase3	test/STIM_025.jpg
2130.942	0.767	1	test	Phase3	test/STIM_025.jpg
2133.737	1.102	0	test	Phase3	test/STIM_026.jpg
2138.791	0.782	1	test	Phase3	test/STIM_026.jpg
2142.883	0.745	1	test	Phase3	test/STIM_026.jpg
2145.624	1.2	1	test	Phase3	test/STIM_027.jpg
2149.355	0.939	1	test	Phase3	test/STIM_027.jpg
2152.859	1.107	1	test	Phase3	test/STIM_027.jpg
2157.311	0.906	1	test	Phase3	test/STIM_028.jpg
2160.853	1.037	1	test	Phase3	test/STIM_028.jpg
2165.586	1.203	1	test	Phase3	test/STIM_028.jpg
2170.082	0.855	1	test	Phase3	test/STIM_029.jpg
2173.339	0.719	1	test	Phase3	test/STIM_029.jpg
2177.925	1.0	1	test	Phase3	test/STIM_029.jpg
