onset	duration	accuracy_binary	trial_type	learning_stage	stimulus
24.053	1.341	1	learning	LS1	learning/PICTURE_212.jpg
28.623	1.006	1	learning	LS1	learning/PICTURE_659.jpg
33.193	0.751	1	learning	LS1	learning/PICTURE_26.jpg
37.763	1.263	1	learning	LS1	learning/PICTURE_38.jpg
42.332	1.392	1	learning	LS1	learning/PICTURE_654.jpg
46.902	1.041	1	learning	LS1	learning/PICTURE_212.jpg
51.472	1.138	1	learning	LS1	learning/PICTURE_26.jpg
56.042	0.963	1	learning	LS1	learning/PICTURE_659.jpg
60.611	1.06	1	learning	LS1	learning/PICTURE_654.jpg
65.181	1.332	1	learning	LS1	learning/PICTURE_38.jpg
74.271	1.161	1	learning	LS2	learning/PICTURE_659.jpg
78.841	0.778	1	learning	LS2	learning/PICTURE_38.jpg
83.41	0.906	1	learning	LS2	learning/PICTURE_654.jpg
87.98	1.115	1	learning	LS2	learning/PICTURE_38.jpg
92.55	1.308	1	learning	LS2	learning/PICTURE_212.jpg
97.12	0.909	1	learning	LS2	learning/PICTURE_26.jpg
101.69	1.23	1	learning	LS2	learning/PICTURE_212.jpg
106.259	1.038	1	learning	LS2	learning/PICTURE_654.jpg
110.829	1.055	1	learning	LS2	learning/PICTURE_659.jpg
115.399	0.737	1	learning	LS2	learning/PICTURE_26.jpg
124.489	1.06	1	learning	LS3	learning/PICTURE_38.jpg
129.058	0.805	1	learning	LS3	learning/PICTURE_659.jpg
133.628	0.822	1	learning	LS3	learning/PICTURE_212.jpg
138.198	1.238	1	learning	LS3	learning/PICTURE_26.jpg
142.768	0.903	1	learning	LS3	learning/PICTURE_212.jpg
147.338	0.968	1	learning	LS3	learning/PICTURE_659.jpg
151.907	0.92	1	learning	LS3	learning/PICTURE_654.jpg
156.477	0.842	1	learning	LS3	learning/PICTURE_26.jpg
161.047	0.954	1	learning	LS3	learning/PICTURE_38.jpg
165.617	1.05	1	learning	LS3	learning/PICTURE_654.jpg
174.706	0.799	1	learning	LS4	learning/PICTURE_659.jpg
179.276	0.975	1	learning	LS4	learning/PICTURE_212.jpg
183.846	0.88	1	learning	LS4	learning/PICTURE_26.jpg
188.416	0.88	1	learning	LS4	learning/PICTURE_654.jpg
192.985	0.849	1	learning	LS4	learning/PICTURE_659.jpg
197.555	0.882	1	learning	LS4	learning/PICTURE_654.jpg
202.125	1.042	1	learning	LS4	learning/PICTURE_38.jpg
206.695	1.091	1	learning	LS4	learning/PICTURE_26.jpg
211.265	1.3	1	learning	LS4	learning/PICTURE_212.jpg
215.834	0.933	1	learning	LS4	learning/PICTURE_38.jpg
242.97	0.982	1	control	LS1	control/PICTURE_540.jpg
247.539	0.871	1	control	LS1	control/PICTURE_116.jpg
252.109	1.143	1	control	LS1	control/PICTURE_491.jpg
256.679	0.904	1	control	LS1	control/PICTURE_263.jpg
261.249	0.889	1	control	LS1	control/PICTURE_116.jpg
265.818	1.162	1	control	LS1	control/PICTURE_491.jpg
270.388	1.099	1	control	LS1	control/PICTURE_135.jpg
274.958	0.988	1	control	LS1	control/PICTURE_263.jpg
279.528	0.844	1	control	LS1	control/PICTURE_135.jpg
284.098	1.565	1	control	LS1	control/PICTURE_540.jpg
293.187	0.849	1	control	LS2	control/PICTURE_135.jpg
297.757	0.834	1	control	LS2	control/PICTURE_540.jpg
302.327	0.851	1	control	LS2	control/PICTURE_491.jpg
306.897	0.82	1	control	LS2	control/PICTURE_116.jpg
311.466	0.948	1	control	LS2	control/PICTURE_540.jpg
316.036	0.901	1	control	LS2	control/PICTURE_263.jpg
320.606	0.998	1	control	LS2	control/PICTURE_116.jpg
325.176	0.823	1	control	LS2	control/PICTURE_263.jpg
329.746	0.856	1	control	LS2	control/PICTURE_135.jpg
334.315	0.825	1	control	LS2	control/PICTURE_491.jpg
343.405	1.004	1	control	LS3	control/PICTURE_151.jpg
347.975	0.877	1	control	LS3	control/PICTURE_119.jpg
352.545	0.941	1	control	LS3	control/PICTURE_111.jpg
357.114	0.91	1	control	LS3	control/PICTURE_234.jpg
361.684	1.135	1	control	LS3	control/PICTURE_621.jpg
366.254	1.103	1	control	LS3	control/PICTURE_151.jpg
370.824	1.248	1	control	LS3	control/PICTURE_111.jpg
375.394	1.136	1	control	LS3	control/PICTURE_234.jpg
379.963	0.753	1	control	LS3	control/PICTURE_119.jpg
384.533	0.834	1	control	LS3	control/PICTURE_621.jpg
393.623	0.95	1	control	LS4	control/PICTURE_621.jpg
398.192	0.807	1	control	LS4	control/PICTURE_111.jpg
402.762	1.271	1	control	LS4	control/PICTURE_119.jpg
407.332	0.872	1	control	LS4	control/PICTURE_151.jpg
411.902	1.288	1	control	LS4	control/PICTURE_234.jpg
416.472	1.401	1	control	LS4	control/PICTURE_111.jpg
421.041	1.13	1	control	LS4	control/PICTURE_151.jpg
425.611	1.339	1	control	LS4	control/PICTURE_119.jpg
430.181	1.259	1	control	LS4	control/PICTURE_234.jpg
434.751	0.876	1	control	LS4	control/PICTURE_621.jpg
461.886	0.813	0	learning	LS1	learning/PICTURE_100.jpg
466.456	0.862	0	learning	LS1	learning/PICTURE_97.jpg
471.026	0.783	0	learning	LS1	learning/PICTURE_32.jpg
475.595	0.879	1	learning	LS1	learning/PICTURE_267.jpg
480.165	1.2	1	learning	LS1	learning/PICTURE_100.jpg
484.735	0.865	1	learning	LS1	learning/PICTURE_32.jpg
489.305	1.361	0	learning	LS1	learning/PICTURE_77.jpg
493.875	1.218	1	learning	LS1	learning/PICTURE_267.jpg
498.444	1.251	0	learning	LS1	learning/PICTURE_97.jpg
503.014	0.948	1	learning	LS1	learning/PICTURE_77.jpg
512.104	1.24	1	learning	LS2	learning/PICTURE_32.jpg
516.673	0.793	1	learning	LS2	learning/PICTURE_100.jpg
521.243	1.161	1	learning	LS2	learning/PICTURE_97.jpg
525.813	1.609	1	learning	LS2	learning/PICTURE_267.jpg
530.383	0.827	1	learning	LS2	learning/PICTURE_97.jpg
534.953	1.067	1	learning	LS2	learning/PICTURE_77.jpg
539.522	0.876	1	learning	LS2	learning/PICTURE_100.jpg
544.092	0.845	1	learning	LS2	learning/PICTURE_32.jpg
548.662	0.878	1	learning	LS2	learning/PICTURE_77.jpg
553.232	1.342	1	learning	LS2	learning/PICTURE_267.jpg
562.321	0.85	1	learning	LS3	learning/PICTURE_77.jpg
566.891	0.851	1	learning	LS3	learning/PICTURE_97.jpg
571.461	1.315	1	learning	LS3	learning/PICTURE_32.jpg
576.031	0.82	1	learning	LS3	learning/PICTURE_267.jpg
580.601	0.933	1	learning	LS3	learning/PICTURE_77.jpg
585.17	1.397	1	learning	LS3	learning/PICTURE_32.jpg
589.74	0.839	1	learning	LS3	learning/PICTURE_100.jpg
594.31	0.983	1	learning	LS3	learning/PICTURE_97.jpg
598.88	0.744	1	learning	LS3	learning/PICTURE_100.jpg
603.449	1.288	1	learning	LS3	learning/PICTURE_267.jpg
612.539	1.196	1	learning	LS4	learning/PICTURE_97.jpg
617.109	0.702	1	learning	LS4	learning/PICTURE_267.jpg
621.679	0.99	1	learning	LS4	learning/PICTURE_32.jpg
626.248	0.927	1	learning	LS4	learning/PICTURE_97.jpg
630.818	1.135	1	learning	LS4	learning/PICTURE_32.jpg
635.388	0.961	1	learning	LS4	learning/PICTURE_100.jpg
639.958	1.649	1	learning	LS4	learning/PICTURE_77.jpg
644.528	0.819	1	learning	LS4	learning/PICTURE_267.jpg
649.097	0.74	1	learning	LS4	learning/PICTURE_77.jpg
653.667	0.788	1	learning	LS4	learning/PICTURE_100.jpg
680.802	0.869	0	learning	LS1	learning/PICTURE_71.jpg
685.372	0.742	0	learning	LS1	learning/PICTURE_72.jpg
689.942	0.711	0	learning	LS1	learning/PICTURE_67.jpg
694.512	1.095	1	learning	LS1	learning/PICTURE_72.jpg
699.082	0.936	1	learning	LS1	learning/PICTURE_67.jpg
703.651	1.096	0	learning	LS1	learning/PICTURE_74.jpg
708.221	0.793	1	learning	LS1	learning/PICTURE_68.jpg
712.791	0.969	1	learning	LS1	learning/PICTURE_71.jpg
717.361	1.673	1	learning	LS1	learning/PICTURE_68.jpg
721.931	1.195	0	learning	LS1	learning/PICTURE_74.jpg
731.02	0.847	1	learning	LS2	learning/PICTURE_68.jpg
735.59	0.848	1	learning	LS2	learning/PICTURE_72.jpg
740.16	0.801	1	learning	LS2	learning/PICTURE_71.jpg
744.729	1.633	1	learning	LS2	learning/PICTURE_72.jpg
749.299	1.171	1	learning	LS2	learning/PICTURE_74.jpg
753.869	0.948	1	learning	LS2	learning/PICTURE_71.jpg
758.439	0.772	1	learning	LS2	learning/PICTURE_67.jpg
763.009	0.838	1	learning	LS2	learning/PICTURE_74.jpg
767.578	0.87	1	learning	LS2	learning/PICTURE_67.jpg
772.148	0.887	1	learning	LS2	learning/PICTURE_68.jpg
781.238	1.098	1	learning	LS3	learning/PICTURE_71.jpg
785.808	0.987	1	learning	LS3	learning/PICTURE_72.jpg
790.377	1.02	1	learning	LS3	learning/PICTURE_67.jpg
794.947	0.797	1	learning	LS3	learning/PICTURE_71.jpg
799.517	1.245	1	learning	LS3	learning/PICTURE_74.jpg
804.087	0.862	1	learning	LS3	learning/PICTURE_68.jpg
808.656	1.023	1	learning	LS3	learning/PICTURE_67.jpg
813.226	1.072	1	learning	LS3	learning/PICTURE_68.jpg
817.796	0.993	1	learning	LS3	learning/PICTURE_72.jpg
822.366	0.882	1	learning	LS3	learning/PICTURE_74.jpg
831.455	0.966	1	learning	LS4	learning/PICTURE_68.jpg
836.025	0.919	1	learning	LS4	learning/PICTURE_71.jpg
840.595	0.872	1	learning	LS4	learning/PICTURE_74.jpg
845.165	0.984	1	learning	LS4	learning/PICTURE_72.jpg
849.735	0.761	1	learning	LS4	learning/PICTURE_71.jpg
854.304	1.081	1	learning	LS4	learning/PICTURE_67.jpg
858.874	0.938	1	learning	LS4	learning/PICTURE_72.jpg
863.444	0.891	1	learning	LS4	learning/PICTURE_67.jpg
868.014	1.036	1	learning	LS4	learning/PICTURE_74.jpg
872.583	1.116	1	learning	LS4	learning/PICTURE_68.jpg
899.719	1.165	1	learning	LS1	learning/PICTURE_465.jpg
904.288	0.862	1	learning	LS1	learning/PICTURE_379.jpg
908.858	0.895	1	learning	LS1	learning/PICTURE_692.jpg
913.428	1.119	1	learning	LS1	learning/PICTURE_379.jpg
917.998	1.152	1	learning	LS1	learning/PICTURE_465.jpg
922.568	0.994	1	learning	LS1	learning/PICTURE_692.jpg
927.138	0.691	1	learning	LS1	learning/PICTURE_592.jpg
931.707	0.851	1	learning	LS1	learning/PICTURE_640.jpg
936.277	0.98	1	learning	LS1	learning/PICTURE_592.jpg
940.847	0.964	1	learning	LS1	learning/PICTURE_640.jpg
949.936	1.144	0	learning	LS2	learning/PICTURE_465.jpg
954.506	1.065	1	learning	LS2	learning/PICTURE_592.jpg
959.076	1.097	1	learning	LS2	learning/PICTURE_640.jpg
963.646	1.386	0	learning	LS2	learning/PICTURE_465.jpg
968.216	0.988	1	learning	LS2	learning/PICTURE_692.jpg
972.785	2.107	0	learning	LS2	learning/PICTURE_592.jpg
977.355	1.357	1	learning	LS2	learning/PICTURE_379.jpg
981.925	1.118	1	learning	LS2	learning/PICTURE_692.jpg
986.495	1.534	0	learning	LS2	learning/PICTURE_640.jpg
991.064	0.928	1	learning	LS2	learning/PICTURE_379.jpg
1000.154	0.692	1	learning	LS3	learning/PICTURE_465.jpg
1004.724	1.029	1	learning	LS3	learning/PICTURE_640.jpg
1009.294	0.901	1	learning	LS3	learning/PICTURE_592.jpg
1013.864	0.726	1	learning	LS3	learning/PICTURE_692.jpg
1018.433	0.903	1	learning	LS3	learning/PICTURE_465.jpg
1023.003	0.952	1	learning	LS3	learning/PICTURE_640.jpg
1027.573	0.825	1	learning	LS3	learning/PICTURE_379.jpg
1032.143	0.698	1	learning	LS3	learning/PICTURE_692.jpg
1036.712	0.906	1	learning	LS3	learning/PICTURE_379.jpg
1041.282	1.003	1	learning	LS3	learning/PICTURE_592.jpg
1050.372	1.006	1	learning	LS4	learning/PICTURE_640.jpg
1054.941	0.688	1	learning	LS4	learning/PICTURE_592.jpg
1059.511	0.992	1	learning	LS4	learning/PICTURE_465.jpg
1064.081	0.801	1	learning	LS4	learning/PICTURE_692.jpg
1068.651	1.473	1	learning	LS4	learning/PICTURE_640.jpg
1073.221	0.723	1	learning	LS4	learning/PICTURE_379.jpg
1077.791	0.996	1	learning	LS4	learning/PICTURE_692.jpg
1082.36	1.044	1	learning	LS4	learning/PICTURE_465.jpg
1086.93	1.796	1	learning	LS4	learning/PICTURE_592.jpg
1091.5	0.934	1	learning	LS4	learning/PICTURE_379.jpg
1118.635	0.887	1	control	LS1	control/PICTURE_255.jpg
1123.205	0.888	1	control	LS1	control/PICTURE_391.jpg
1127.775	1.081	1	control	LS1	control/PICTURE_368.jpg
1132.344	1.05	1	control	LS1	control/PICTURE_398.jpg
1136.914	0.971	1	control	LS1	control/PICTURE_338.jpg
1141.484	0.876	1	control	LS1	control/PICTURE_391.jpg
1146.054	0.892	1	control	LS1	control/PICTURE_398.jpg
1150.624	1.309	1	control	LS1	control/PICTURE_368.jpg
1155.193	0.814	1	control	LS1	control/PICTURE_255.jpg
1159.763	1.422	1	control	LS1	control/PICTURE_338.jpg
1168.853	0.771	1	control	LS2	control/PICTURE_338.jpg
1173.423	0.964	1	control	LS2	control/PICTURE_255.jpg
1177.992	0.948	1	control	LS2	control/PICTURE_398.jpg
1182.562	1.157	1	control	LS2	control/PICTURE_368.jpg
1187.132	0.95	1	control	LS2	control/PICTURE_255.jpg
1191.702	0.743	1	control	LS2	control/PICTURE_368.jpg
1196.272	0.903	1	control	LS2	control/PICTURE_398.jpg
1200.841	0.808	1	control	LS2	control/PICTURE_391.jpg
1205.411	0.969	1	control	LS2	control/PICTURE_338.jpg
1209.981	1.273	1	control	LS2	control/PICTURE_391.jpg
1219.071	0.845	1	control	LS3	control/PICTURE_551.jpg
1223.64	0.862	1	control	LS3	control/PICTURE_708.jpg
1228.21	0.751	1	control	LS3	control/PICTURE_343.jpg
1232.78	0.928	1	control	LS3	control/PICTURE_19.jpg
1237.35	1.009	1	control	LS3	control/PICTURE_185.jpg
1241.919	0.978	1	control	LS3	control/PICTURE_19.jpg
1246.489	0.883	1	control	LS3	control/PICTURE_185.jpg
1251.059	0.82	1	control	LS3	control/PICTURE_708.jpg
1255.629	0.981	1	control	LS3	control/PICTURE_343.jpg
1260.199	0.933	1	control	LS3	control/PICTURE_551.jpg
1269.288	1.113	1	control	LS4	control/PICTURE_19.jpg
1273.858	1.337	1	control	LS4	control/PICTURE_551.jpg
1278.428	1.018	1	control	LS4	control/PICTURE_19.jpg
1282.997	0.763	1	control	LS4	control/PICTURE_708.jpg
1287.567	0.86	1	control	LS4	control/PICTURE_343.jpg
1292.137	0.989	1	control	LS4	control/PICTURE_708.jpg
1296.707	0.957	1	control	LS4	control/PICTURE_185.jpg
1301.277	1.102	1	control	LS4	control/PICTURE_551.jpg
1305.847	0.975	1	control	LS4	control/PICTURE_343.jpg
1310.416	0.784	1	control	LS4	control/PICTURE_185.jpg
1337.552	0.865	0	learning	LS1	learning/PICTURE_453.jpg
1342.121	0.69	0	learning	LS1	learning/PICTURE_148.jpg
1346.691	0.994	1	learning	LS1	learning/PICTURE_202.jpg
1351.261	1.73	1	learning	LS1	learning/PICTURE_453.jpg
1355.831	0.932	1	learning	LS1	learning/PICTURE_358.jpg
1360.4	0.948	1	learning	LS1	learning/PICTURE_165.jpg
1364.97	0.982	1	learning	LS1	learning/PICTURE_202.jpg
1369.54	0.934	1	learning	LS1	learning/PICTURE_358.jpg
1374.11	1.159	1	learning	LS1	learning/PICTURE_148.jpg
1378.68	0.92	1	learning	LS1	learning/PICTURE_165.jpg
1387.769	0.987	1	learning	LS2	learning/PICTURE_358.jpg
1392.339	0.78	1	learning	LS2	learning/PICTURE_453.jpg
1396.909	0.925	1	learning	LS2	learning/PICTURE_165.jpg
1401.479	0.718	1	learning	LS2	learning/PICTURE_148.jpg
1406.048	0.975	1	learning	LS2	learning/PICTURE_165.jpg
1410.618	0.816	1	learning	LS2	learning/PICTURE_202.jpg
1415.188	1.568	1	learning	LS2	learning/PICTURE_453.jpg
1419.758	0.866	1	learning	LS2	learning/PICTURE_202.jpg
1424.328	1.33	1	learning	LS2	learning/PICTURE_358.jpg
1428.897	1.059	1	learning	LS2	learning/PICTURE_148.jpg
1437.987	1.574	1	learning	LS3	learning/PICTURE_358.jpg
1442.557	1.351	1	learning	LS3	learning/PICTURE_165.jpg
1447.126	0.984	1	learning	LS3	learning/PICTURE_453.jpg
1451.696	1.065	1	learning	LS3	learning/PICTURE_148.jpg
1456.266	1.146	1	learning	LS3	learning/PICTURE_202.jpg
1460.836	1.131	1	learning	LS3	learning/PICTURE_453.jpg
1465.406	1.259	1	learning	LS3	learning/PICTURE_358.jpg
1469.975	1.02	1	learning	LS3	learning/PICTURE_165.jpg
1474.545	0.973	1	learning	LS3	learning/PICTURE_202.jpg
1479.115	0.958	1	learning	LS3	learning/PICTURE_148.jpg
1488.205	1.265	1	learning	LS4	learning/PICTURE_148.jpg
1492.774	0.723	1	learning	LS4	learning/PICTURE_202.jpg
1497.344	0.995	1	learning	LS4	learning/PICTURE_148.jpg
1501.914	1.06	1	learning	LS4	learning/PICTURE_165.jpg
1506.484	0.965	1	learning	LS4	learning/PICTURE_358.jpg
1511.053	0.982	1	learning	LS4	learning/PICTURE_453.jpg
1515.623	1.015	1	learning	LS4	learning/PICTURE_202.jpg
1520.193	0.888	1	learning	LS4	learning/PICTURE_165.jpg
1524.763	1.017	1	learning	LS4	learning/PICTURE_453.jpg
1529.333	0.857	1	learning	LS4	learning/PICTURE_358.jpg
1538.422	2.204	0	learning	LS1	learning/PICTURE_203.jpg
1542.992	0.622	1	learning	LS1	learning/PICTURE_42.jpg
1547.562	0.846	1	learning	LS1	learning/PICTURE_224.jpg
1552.132	1.215	1	learning	LS1	learning/PICTURE_566.jpg
1556.701	0.928	1	learning	LS1	learning/PICTURE_224.jpg
1561.271	0.88	0	learning	LS1	learning/PICTURE_414.jpg
1565.841	0.977	1	learning	LS1	learning/PICTURE_203.jpg
1570.411	1.154	1	learning	LS1	learning/PICTURE_566.jpg
1574.98	1.058	1	learning	LS1	learning/PICTURE_414.jpg
1579.55	0.995	1	learning	LS1	learning/PICTURE_42.jpg
1588.64	0.855	1	learning	LS2	learning/PICTURE_566.jpg
1593.21	0.744	1	learning	LS2	learning/PICTURE_203.jpg
1597.78	0.904	1	learning	LS2	learning/PICTURE_414.jpg
1602.349	0.857	1	learning	LS2	learning/PICTURE_566.jpg
1606.919	1.161	1	learning	LS2	learning/PICTURE_42.jpg
1611.489	1.45	1	learning	LS2	learning/PICTURE_224.jpg
1616.059	0.875	1	learning	LS2	learning/PICTURE_42.jpg
1620.628	0.716	1	learning	LS2	learning/PICTURE_414.jpg
1625.198	0.781	1	learning	LS2	learning/PICTURE_224.jpg
1629.768	0.766	1	learning	LS2	learning/PICTURE_203.jpg
1638.858	1.025	1	learning	LS3	learning/PICTURE_414.jpg
1643.427	0.866	1	learning	LS3	learning/PICTURE_224.jpg
1647.997	0.691	1	learning	LS3	learning/PICTURE_414.jpg
1652.567	0.756	1	learning	LS3	learning/PICTURE_42.jpg
1657.137	0.964	1	learning	LS3	learning/PICTURE_203.jpg
1661.707	0.901	1	learning	LS3	learning/PICTURE_566.jpg
1666.276	0.87	1	learning	LS3	learning/PICTURE_203.jpg
1670.846	0.839	1	learning	LS3	learning/PICTURE_224.jpg
1675.416	0.856	1	learning	LS3	learning/PICTURE_42.jpg
1679.986	0.873	1	learning	LS3	learning/PICTURE_566.jpg
1689.075	0.893	1	learning	LS4	learning/PICTURE_566.jpg
1693.645	0.814	1	learning	LS4	learning/PICTURE_203.jpg
1698.215	0.863	1	learning	LS4	learning/PICTURE_224.jpg
1702.785	1.295	1	learning	LS4	learning/PICTURE_42.jpg
1707.354	1.647	1	learning	LS4	learning/PICTURE_203.jpg
1711.924	1.104	1	learning	LS4	learning/PICTURE_42.jpg
1716.494	1.042	1	learning	LS4	learning/PICTURE_414.jpg
1721.064	1.378	1	learning	LS4	learning/PICTURE_224.jpg
1725.634	0.9	1	learning	LS4	learning/PICTURE_414.jpg
1730.203	1.012	1	learning	LS4	learning/PICTURE_566.jpg
