onset	duration	accuracy_binary	trial_type	learning_stage	stimulus
0.0	1.478	0	study	Phase1	study/STIM_000.jpg
4.616	1.605	1	study	Phase1	study/STIM_000.jpg
8.244	1.356	1	study	Phase1	study/STIM_000.jpg
11.974	0.968	1	study	Phase1	study/STIM_001.jpg
15.791	1.484	1	study	Phase1	study/STIM_001.jpg
20.05	1.222	1	study	Phase1	study/STIM_001.jpg
24.287	1.257	1	study	Phase1	study/STIM_002.jpg
28.61	1.37	1	study	Phase1	study/STIM_002.jpg
32.705	1.581	1	study	Phase1	study/STIM_002.jpg
36.885	0.861	0	study	Phase1	study/STIM_003.jpg
39.913	0.903	1	study	Phase1	study/STIM_003.jpg
44.098	1.07	1	study	Phase1	study/STIM_003.jpg
47.61	1.665	1	study	Phase1	study/STIM_004.jpg
51.341	1.175	1	study	Phase1	study/STIM_004.jpg
55.368	1.575	1	study	Phase1	study/STIM_004.jpg
59.865	1.511	1	study	Phase1	study/STIM_005.jpg
63.378	1.503	1	study	Phase1	study/STIM_005.jpg
68.716	0.814	1	study	Phase1	study/STIM_005.jpg
73.15	1.15	1	study	Phase1	study/STIM_006.jpg
77.141	1.084	1	study	Phase1	study/STIM_006.jpg
81.254	1.224	1	study	Phase1	study/STIM_006.jpg
85.865	1.082	1	study	Phase1	study/STIM_007.jpg
90.006	1.156	1	study	Phase1	study/STIM_007.jpg
94.301	1.328	0	study	Phase1	study/STIM_007.jpg
99.61	1.018	1	study	Phase1	study/STIM_008.jpg
104.067	0.775	1	study	Phase1	study/STIM_008.jpg
108.0	1.495	1	study	Phase1	study/STIM_008.jpg
111.55	1.278	1	study	Phase1	study/STIM_009.jpg
115.345	1.052	1	study	Phase1	study/STIM_009.jpg
120.099	1.483	1	study	Phase1	study/STIM_009.jpg
124.009	1.318	0	study	Phase1	study/STIM_010.jpg
127.751	1.129	1	study	Phase1	study/STIM_010.jpg
130.934	1.493	1	study	Phase1	study/STIM_010.jpg
134.604	1.359	1	study	Phase1	study/STIM_011.jpg
139.332	0.934	1	study	Phase1	study/STIM_011.jpg
143.953	0.989	1	study	Phase1	study/STIM_011.jpg
148.459	1.107	1	study	Phase1	study/STIM_012.jpg
151.582	1.29	1	study	Phase1	study/STIM_012.jpg
156.56	1.263	1	study	Phase1	study/STIM_012.jpg
161.767	1.769	0	study	Phase1	study/STIM_013.jpg
165.856	1.668	1	study	Phase1	study/STIM_013.jpg
171.411	0.78	1	study	Phase1	study/STIM_013.jpg
174.323	1.259	1	study	Phase1	study/STIM_014.jpg
179.314	0.87	0	study	Phase1	study/STIM_014.jpg
182.467	0.846	1	study	Phase1	study/STIM_014.jpg
185.508	0.993	1	study	Phase1	study/STIM_015.jpg
189.216	1.552	1	study	Phase1	study/STIM_015.jpg
193.944	1.228	1	study	Phase1	study/STIM_015.jpg
197.446	1.539	1	study	Phase1	study/STIM_016.jpg
202.033	0.964	1	study	Phase1	study/STIM_016.jpg
206.067	1.149	1	study	Phase1	study/STIM_016.jpg
209.728	1.084	1	study	Phase1	study/STIM_017.jpg
214.295	1.085	0	study	Phase1	study/STIM_017.jpg
217.432	1.027	1	study	Phase1	study/STIM_017.jpg
221.039	1.349	1	study	Phase1	study/STIM_018.jpg
226.317	1.323	1	study	Phase1	study/STIM_018.jpg
231.208	1.057	1	study	Phase1	study/STIM_018.jpg
235.479	1.33	1	study	Phase1	study/STIM_019.jpg
239.193	0.885	1	study	Phase1	study/STIM_019.jpg
244.068	1.384	1	study	Phase1	study/STIM_019.jpg
249.353	1.316	1	study	Phase1	study/STIM_020.jpg
254.638	1.511	1	study	Phase1	study/STIM_020.jpg
260.049	0.904	1	study	Phase1	study/STIM_020.jpg
263.297	1.34	1	study	Phase1	study/STIM_021.jpg
267.307	0.889	1	study	Phase1	study/STIM_021.jpg
271.417	0.888	1	study	Phase1	study/STIM_021.jpg
275.589	0.867	0	study	Phase1	study/STIM_022.jpg
278.72	0.837	1	study	Phase1	study/STIM_022.jpg
281.818	0.843	1	study	Phase1	study/STIM_022.jpg
286.505	1.051	1	study	Phase1	study/STIM_023.jpg
290.117	1.093	1	study	Phase1	study/STIM_023.jpg
294.692	1.59	1	study	Phase1	study/STIM_023.jpg
299.163	0.898	0	study	Phase1	study/STIM_024.jpg
303.744	1.533	1	study	Phase1	study/STIM_024.jpg
308.79	0.827	1	study	Phase1	study/STIM_024.jpg
312.773	0.852	1	study	Phase1	study/STIM_025.jpg
317.092	0.775	1	study	Phase1	study/STIM_025.jpg
321.45	1.534	1	study	Phase1	study/STIM_025.jpg
326.001	1.665	1	study	Phase1	study/STIM_026.jpg
331.375	1.054	1	study	Phase1	study/STIM_026.jpg
335.875	1.175	1	study	Phase1	study/STIM_026.jpg
340.537	1.136	1	study	Phase1	study/STIM_027.jpg
345.518	0.862	0	study	Phase1	study/STIM_027.jpg
349.519	0.765	1	study	Phase1	study/STIM_027.jpg
352.644	1.616	1	study	Phase1	study/STIM_028.jpg
356.621	1.321	1	study	Phase1	study/STIM_028.jpg
360.877	1.179	1	study	Phase1	study/STIM_028.jpg
365.858	1.638	1	study	Phase1	study/STIM_029.jpg
371.209	1.34	1	study	Phase1	study/STIM_029.jpg
376.316	1.494	1	study	Phase1	study/STIM_029.jpg
380.906	0.724	1	test	Phase1	test/STIM_000.jpg
385.148	1.127	1	test	Phase1	test/STIM_000.jpg
389.988	1.145	1	test	Phase1	test/STIM_000.jpg
394.091	1.254	1	test	Phase1	test/STIM_001.jpg
397.61	1.158	1	test	Phase1	test/STIM_001.jpg
400.876	1.077	1	test	Phase1	test/STIM_001.jpg
404.868	0.749	1	test	Phase1	test/STIM_002.jpg
408.472	0.997	1	test	Phase1	test/STIM_002.jpg
412.377	0.999	1	test	Phase1	test/STIM_002.jpg
416.313	0.793	1	test	Phase1	test/STIM_003.jpg
421.006	1.218	1	test	Phase1	test/STIM_003.jpg
425.318	0.774	1	test	Phase1	test/STIM_003.jpg
429.293	1.088	1	test	Phase1	test/STIM_004.jpg
432.734	1.209	1	test	Phase1	test/STIM_004.jpg
437.672	1.021	1	test	Phase1	test/STIM_004.jpg
440.863	0.803	1	test	Phase1	test/STIM_005.jpg
445.59	0.87	1	test	Phase1	test/STIM_005.jpg
449.122	0.679	1	test	Phase1	test/STIM_005.jpg
452.739	1.182	1	test	Phase1	test/STIM_006.jpg
456.12	0.615	0	test	Phase1	test/STIM_006.jpg
459.377	0.876	1	test	Phase1	test/STIM_006.jpg
464.012	0.909	1	test	Phase1	test/STIM_007.jpg
467.181	1.252	1	test	Phase1	test/STIM_007.jpg
471.729	0.975	1	test	Phase1	test/STIM_007.jpg
476.689	0.894	1	test	Phase1	test/STIM_008.jpg
479.785	1.141	1	test	Phase1	test/STIM_008.jpg
483.814	1.255	1	test	Phase1	test/STIM_008.jpg
488.457	0.665	1	test	Phase1	test/STIM_009.jpg
492.939	0.942	1	test	Phase1	test/STIM_009.jpg
496.259	1.007	1	test	Phase1	test/STIM_009.jpg
500.857	1.228	1	test	Phase1	test/STIM_010.jpg
504.939	0.619	1	test	Phase1	test/STIM_010.jpg
508.295	0.997	1	test	Phase1	test/STIM_010.jpg
513.186	0.779	0	test	Phase1	test/STIM_011.jpg
516.281	0.607	1	test	Phase1	test/STIM_011.jpg
519.95	0.652	0	test	Phase1	test/STIM_011.jpg
523.366	0.648	1	test	Phase1	test/STIM_012.jpg
527.001	1.155	1	test	Phase1	test/STIM_012.jpg
530.464	1.05	1	test	Phase1	test/STIM_012.jpg
533.686	0.849	1	test	Phase1	test/STIM_013.jpg
536.944	0.933	1	test	Phase1	test/STIM_013.jpg
541.476	1.007	1	test	Phase1	test/STIM_013.jpg
545.354	1.218	1	test	Phase1	test/STIM_014.jpg
548.739	1.184	1	test	Phase1	test/STIM_014.jpg
552.02	1.219	1	test	Phase1	test/STIM_014.jpg
555.743	1.076	1	test	Phase1	test/STIM_015.jpg
559.6	0.838	1	test	Phase1	test/STIM_015.jpg
562.65	0.788	1	test	Phase1	test/STIM_015.jpg
567.207	1.265	1	test	Phase1	test/STIM_016.jpg
570.701	1.263	1	test	Phase1	test/STIM_016.jpg
575.419	1.248	1	test	Phase1	test/STIM_016.jpg
579.438	1.021	1	test	Phase1	test/STIM_017.jpg
583.078	1.107	1	test	Phase1	test/STIM_017.jpg
587.089	0.975	1	test	Phase1	test/STIM_017.jpg
592.016	1.095	1	test	Phase1	test/STIM_018.jpg
596.633	0.696	1	test	Phase1	test/STIM_018.jpg
600.349	1.073	1	test	Phase1	test/STIM_018.jpg
603.948	1.272	1	test	Phase1	test/STIM_019.jpg
607.543	0.854	1	test	Phase1	test/STIM_019.jpg
611.017	0.734	1	test	Phase1	test/STIM_019.jpg
615.339	1.171	0	test	Phase1	test/STIM_020.jpg
620.275	1.218	1	test	Phase1	test/STIM_020.jpg
624.788	1.127	1	test	Phase1	test/STIM_020.jpg
629.345	1.105	1	test	Phase1	test/STIM_021.jpg
633.41	1.258	1	test	Phase1	test/STIM_021.jpg
636.968	0.659	1	test	Phase1	test/STIM_021.jpg
639.981	1.258	1	test	Phase1	test/STIM_022.jpg
644.917	1.048	1	test	Phase1	test/STIM_022.jpg
648.417	1.276	1	test	Phase1	test/STIM_022.jpg
652.37	1.276	1	test	Phase1	test/STIM_023.jpg
657.027	1.166	1	test	Phase1	test/STIM_023.jpg
661.817	1.081	1	test	Phase1	test/STIM_023.jpg
665.128	1.129	1	test	Phase1	test/STIM_024.jpg
669.117	0.989	1	test	Phase1	test/STIM_024.jpg
673.631	1.189	1	test	Phase1	test/STIM_024.jpg
677.793	1.083	1	test	Phase1	test/STIM_025.jpg
682.11	0.949	1	test	Phase1	test/STIM_025.jpg
685.854	0.773	1	test	Phase1	test/STIM_025.jpg
688.655	1.166	0	test	Phase1	test/STIM_026.jpg
693.354	0.71	1	test	Phase1	test/STIM_026.jpg
697.674	0.673	1	test	Phase1	test/STIM_026.jpg
701.064	1.226	1	test	Phase1	test/STIM_027.jpg
705.755	0.609	1	test	Phase1	test/STIM_027.jpg
708.366	0.615	1	test	Phase1	test/STIM_027.jpg
712.549	0.629	1	test	Phase1	test/STIM_028.jpg
716.099	0.944	1	test	Phase1	test/STIM_028.jpg
719.191	1.124	1	test	Phase1	test/STIM_028.jpg
723.142	0.789	1	test	Phase1	test/STIM_029.jpg
726.349	1.087	1	test	Phase1	test/STIM_029.jpg
730.696	1.09	1	test	Phase1	test/STIM_029.jpg
734.919	1.141	1	study	Phase2	study/STIM_000.jpg
739.623	1.344	1	study	Phase2	study/STIM_000.jpg
743.205	0.678	1	study	Phase2	study/STIM_000.jpg
746.572	1.233	1	study	Phase2	study/STIM_001.jpg
750.757	1.124	1	study	Phase2	study/STIM_001.jpg
754.062	1.021	1	study	Phase2	study/STIM_001.jpg
758.111	1.435	1	study	Phase2	study/STIM_002.jpg
762.889	0.882	1	study	Phase2	study/STIM_002.jpg
766.986	1.182	1	study	Phase2	study/STIM_002.jpg
771.48	1.47	1	study	Phase2	study/STIM_003.jpg
776.734	0.971	1	study	Phase2	study/STIM_003.jpg
779.921	1.32	1	study	Phase2	study/STIM_003.jpg
785.218	1.177	1	study	Phase2	study/STIM_004.jpg
789.742	0.894	1	study	Phase2	study/STIM_004.jpg
793.751	1.237	1	study	Phase2	study/STIM_004.jpg
797.674	1.428	1	study	Phase2	study/STIM_005.jpg
801.379	1.387	1	study	Phase2	study/STIM_005.jpg
805.003	1.27	1	study	Phase2	study/STIM_005.jpg
809.949	0.918	1	study	Phase2	study/STIM_006.jpg
814.624	1.264	1	study	Phase2	study/STIM_006.jpg
818.052	1.224	1	study	Phase2	study/STIM_006.jpg
822.473	0.685	1	study	Phase2	study/STIM_007.jpg
825.432	1.145	1	study	Phase2	study/STIM_007.jpg
828.795	1.016	1	study	Phase2	study/STIM_007.jpg
833.63	0.902	1	study	Phase2	study/STIM_008.jpg
838.459	0.992	1	study	Phase2	study/STIM_008.jpg
841.584	0.927	1	study	Phase2	study/STIM_008.jpg
845.029	0.675	1	study	Phase2	study/STIM_009.jpg
848.186	0.88	1	study	Phase2	study/STIM_009.jpg
852.501	1.173	1	study	Phase2	study/STIM_009.jpg
857.515	0.82	1	study	Phase2	study/STIM_010.jpg
860.618	1.164	1	study	Phase2	study/STIM_010.jpg
865.144	0.624	1	study	Phase2	study/STIM_010.jpg
868.731	1.324	1	study	Phase2	study/STIM_011.jpg
872.483	1.115	1	study	Phase2	study/STIM_011.jpg
876.72	1.049	1	study	Phase2	study/STIM_011.jpg
881.358	1.058	1	study	Phase2	study/STIM_012.jpg
886.18	1.273	1	study	Phase2	study/STIM_012.jpg
891.056	1.132	1	study	Phase2	study/STIM_012.jpg
894.54	1.329	1	study	Phase2	study/STIM_013.jpg
898.76	0.925	1	study	Phase2	study/STIM_013.jpg
902.492	0.602	1	study	Phase2	study/STIM_013.jpg
906.905	0.982	1	study	Phase2	study/STIM_014.jpg
911.347	0.851	0	study	Phase2	study/STIM_014.jpg
915.795	0.598	1	study	Phase2	study/STIM_014.jpg
918.789	1.251	1	study	Phase2	study/STIM_015.jpg
923.45	0.883	1	study	Phase2	study/STIM_015.jpg
927.966	0.921	1	study	Phase2	study/STIM_015.jpg
931.16	0.995	1	study	Phase2	study/STIM_016.jpg
935.417	1.104	1	study	Phase2	study/STIM_016.jpg
939.729	0.859	1	study	Phase2	study/STIM_016.jpg
944.318	0.708	1	study	Phase2	study/STIM_017.jpg
948.982	1.24	0	study	Phase2	study/STIM_017.jpg
954.101	1.292	1	study	Phase2	study/STIM_017.jpg
959.231	0.959	1	study	Phase2	study/STIM_018.jpg
963.073	1.357	1	study	Phase2	study/STIM_018.jpg
967.62	1.264	1	study	Phase2	study/STIM_018.jpg
971.733	1.263	1	study	Phase2	study/STIM_019.jpg
975.293	1.169	1	study	Phase2	study/STIM_019.jpg
979.855	1.182	1	study	Phase2	study/STIM_019.jpg
984.94	1.441	1	study	Phase2	study/STIM_020.jpg
988.651	0.737	1	study	Phase2	study/STIM_020.jpg
992.328	1.248	1	study	Phase2	study/STIM_020.jpg
996.488	1.411	0	study	Phase2	study/STIM_021.jpg
1001.101	0.726	1	study	Phase2	study/STIM_021.jpg
1005.404	0.808	1	study	Phase2	study/STIM_021.jpg
1009.906	1.013	1	study	Phase2	study/STIM_022.jpg
1014.27	0.68	1	study	Phase2	study/STIM_022.jpg
1018.577	1.328	1	study	Phase2	study/STIM_022.jpg
1023.017	1.032	1	study	Phase2	study/STIM_023.jpg
1027.518	0.647	1	study	Phase2	study/STIM_023.jpg
1030.411	0.886	1	study	Phase2	study/STIM_023.jpg
1033.937	1.472	1	study	Phase2	study/STIM_024.jpg
1038.198	0.725	1	study	Phase2	study/STIM_024.jpg
1042.318	0.72	1	study	Phase2	study/STIM_024.jpg
1046.951	1.296	1	study	Phase2	study/STIM_025.jpg
1051.555	0.745	1	study	Phase2	study/STIM_025.jpg
1055.368	0.839	1	study	Phase2	study/STIM_025.jpg
1058.539	1.335	1	study	Phase2	study/STIM_026.jpg
1062.317	1.024	1	study	Phase2	study/STIM_026.jpg
1066.352	0.642	1	study	Phase2	study/STIM_026.jpg
1069.42	1.344	1	study	Phase2	study/STIM_027.jpg
1074.1	1.365	1	study	Phase2	study/STIM_027.jpg
1077.575	1.21	1	study	Phase2	study/STIM_027.jpg
1081.285	0.942	1	study	Phase2	study/STIM_028.jpg
1086.088	0.798	1	study	Phase2	study/STIM_028.jpg
1090.362	1.175	1	study	Phase2	study/STIM_028.jpg
1093.612	0.785	1	study	Phase2	study/STIM_029.jpg
1097.841	1.289	1	study	Phase2	study/STIM_029.jpg
1102.522	1.206	1	study	Phase2	study/STIM_029.jpg
1105.73	1.03	1	test	Phase2	test/STIM_000.jpg
1109.764	1.024	1	test	Phase2	test/STIM_000.jpg
1114.571	1.103	1	test	Phase2	test/STIM_000.jpg
1117.856	0.786	1	test	Phase2	test/STIM_001.jpg
1121.653	1.15	1	test	Phase2	test/STIM_001.jpg
1126.509	0.809	1	test	Phase2	test/STIM_001.jpg
1130.469	1.205	1	test	Phase2	test/STIM_002.jpg
1134.354	0.859	1	test	Phase2	test/STIM_002.jpg
1138.297	1.062	1	test	Phase2	test/STIM_002.jpg
1141.882	1.249	1	test	Phase2	test/STIM_003.jpg
1146.815	1.216	1	test	Phase2	test/STIM_003.jpg
1151.197	1.104	1	test	Phase2	test/STIM_003.jpg
1155.967	1.159	0	test	Phase2	test/STIM_004.jpg
1161.08	0.954	1	test	Phase2	test/STIM_004.jpg
1164.425	1.258	1	test	Phase2	test/STIM_004.jpg
1169.543	0.742	1	test	Phase2	test/STIM_005.jpg
1172.366	0.685	0	test	Phase2	test/STIM_005.jpg
1175.077	1.233	1	test	Phase2	test/STIM_005.jpg
1180.102	0.614	1	test	Phase2	test/STIM_006.jpg
1184.703	0.932	1	test	Phase2	test/STIM_006.jpg
1188.526	0.665	1	test	Phase2	test/STIM_006.jpg
1192.628	0.73	1	test	Phase2	test/STIM_007.jpg
1196.807	1.105	1	test	Phase2	test/STIM_007.jpg
1200.064	1.202	1	test	Phase2	test/STIM_007.jpg
1204.351	1.191	1	test	Phase2	test/STIM_008.jpg
1208.065	1.048	1	test	Phase2	test/STIM_008.jpg
1212.926	1.245	1	test	Phase2	test/STIM_008.jpg
1216.518	1.137	1	test	Phase2	test/STIM_009.jpg
1220.821	1.056	1	test	Phase2	test/STIM_009.jpg
1224.292	1.171	1	test	Phase2	test/STIM_009.jpg
1228.525	1.241	1	test	Phase2	test/STIM_010.jpg
1231.825	0.777	1	test	Phase2	test/STIM_010.jpg
1236.301	0.941	1	test	Phase2	test/STIM_010.jpg
1239.95	1.167	1	test	Phase2	test/STIM_011.jpg
1243.612	1.094	1	test	Phase2	test/STIM_011.jpg
1246.863	1.063	1	test	Phase2	test/STIM_011.jpg
1251.632	1.246	1	test	Phase2	test/STIM_012.jpg
1256.857	1.186	1	test	Phase2	test/STIM_012.jpg
1260.557	0.733	1	test	Phase2	test/STIM_012.jpg
1264.571	0.992	1	test	Phase2	test/STIM_013.jpg
1269.104	0.874	1	test	Phase2	test/STIM_013.jpg
1272.649	0.918	1	test	Phase2	test/STIM_013.jpg
1277.402	1.113	1	test	Phase2	test/STIM_014.jpg
1282.247	0.691	1	test	Phase2	test/STIM_014.jpg
1286.481	0.856	1	test	Phase2	test/STIM_014.jpg
1290.929	1.226	1	test	Phase2	test/STIM_015.jpg
1294.259	0.928	1	test	Phase2	test/STIM_015.jpg
1298.219	1.195	1	test	Phase2	test/STIM_015.jpg
1301.786	0.75	1	test	Phase2	test/STIM_016.jpg
1306.227	0.914	1	test	Phase2	test/STIM_016.jpg
1309.173	1.192	0	test	Phase2	test/STIM_016.jpg
1312.84	0.968	1	test	Phase2	test/STIM_017.jpg
1316.091	1.078	1	test	Phase2	test/STIM_017.jpg
1320.984	1.261	1	test	Phase2	test/STIM_017.jpg
1325.011	1.184	1	test	Phase2	test/STIM_018.jpg
1328.265	0.605	1	test	Phase2	test/STIM_018.jpg
1331.75	1.037	1	test	Phase2	test/STIM_018.jpg
1334.87	1.206	0	test	Phase2	test/STIM_019.jpg
1339.588	0.916	1	test	Phase2	test/STIM_019.jpg
1343.747	1.277	1	test	Phase2	test/STIM_019.jpg
1347.814	1.084	1	test	Phase2	test/STIM_020.jpg
1352.098	0.864	1	test	Phase2	test/STIM_020.jpg
1355.456	0.755	1	test	Phase2	test/STIM_020.jpg
1358.647	1.179	1	test	Phase2	test/STIM_021.jpg
1362.912	0.922	1	test	Phase2	test/STIM_021.jpg
1367.609	0.769	1	test	Phase2	test/STIM_021.jpg
1370.74	0.83	1	test	Phase2	test/STIM_022.jpg
1375.503	0.895	1	test	Phase2	test/STIM_022.jpg
1378.607	0.834	1	test	Phase2	test/STIM_022.jpg
1382.861	0.69	1	test	Phase2	test/STIM_023.jpg
1386.76	1.256	1	test	Phase2	test/STIM_023.jpg
1390.775	1.16	1	test	Phase2	test/STIM_023.jpg
1395.009	0.616	1	test	Phase2	test/STIM_024.jpg
1397.659	0.848	1	test	Phase2	test/STIM_024.jpg
1400.605	0.596	1	test	Phase2	test/STIM_024.jpg
1404.379	0.607	1	test	Phase2	test/STIM_025.jpg
1407.808	0.875	1	test	Phase2	test/STIM_025.jpg
1412.011	0.639	1	test	Phase2	test/STIM_025.jpg
1416.04	0.666	1	test	Phase2	test/STIM_026.jpg
1418.738	1.079	1	test	Phase2	test/STIM_026.jpg
1423.21	1.118	1	test	Phase2	test/STIM_026.jpg
1427.268	0.847	1	test	Phase2	test/STIM_027.jpg
1431.276	1.084	1	test	Phase2	test/STIM_027.jpg
1434.43	1.005	1	test	Phase2	test/STIM_027.jpg
1438.932	1.217	1	test	Phase2	test/STIM_028.jpg
1443.941	1.114	1	test	Phase2	test/STIM_028.jpg
1448.375	1.059	1	test	Phase2	test/STIM_028.jpg
1452.189	0.654	1	test	Phase2	test/STIM_029.jpg
1456.8	0.632	1	test	Phase2	test/STIM_029.jpg
1459.473	0.624	1	test	Phase2	test/STIM_029.jpg
1463.499	0.976	1	study	Phase3	study/STIM_000.jpg
1468.014	0.671	1	study	Phase3	study/STIM_000.jpg
1472.115	1.092	1	study	Phase3	study/STIM_000.jpg
1476.35	0.905	1	study	Phase3	study/STIM_001.jpg
1480.839	0.779	1	study	Phase3	study/STIM_001.jpg
1484.157	1.175	1	study	Phase3	study/STIM_001.jpg
1489.191	0.822	1	study	Phase3	study/STIM_002.jpg
1492.595	0.844	1	study	Phase3	study/STIM_002.jpg
1497.419	0.848	1	study	Phase3	study/STIM_002.jpg
1500.583	0.621	1	study	Phase3	study/STIM_003.jpg
1503.999	1.05	1	study	Phase3	study/STIM_003.jpg
1508.673	0.978	1	study	Phase3	study/STIM_003.jpg
1513.176	0.674	1	study	Phase3	study/STIM_004.jpg
1516.482	0.979	1	study	Phase3	study/STIM_004.jpg
1519.781	0.555	1	study	Phase3	study/STIM_004.jpg
1523.215	0.678	1	study	Phase3	study/STIM_005.jpg
1526.749	0.726	1	study	Phase3	study/STIM_005.jpg
1531.319	1.152	1	study	Phase3	study/STIM_005.jpg
1534.881	1.042	1	study	Phase3	study/STIM_006.jpg
1539.762	0.564	1	study	Phase3	study/STIM_006.jpg
1543.129	0.884	1	study	Phase3	study/STIM_006.jpg
1546.068	0.984	1	study	Phase3	study/STIM_007.jpg
1550.461	0.808	1	study	Phase3	study/STIM_007.jpg
1554.698	0.804	1	study	Phase3	study/STIM_007.jpg
1557.555	0.561	1	study	Phase3	study/STIM_008.jpg
1560.35	1.125	0	study	Phase3	study/STIM_008.jpg
1565.369	0.749	1	study	Phase3	study/STIM_008.jpg
1568.669	0.836	1	study	Phase3	study/STIM_009.jpg
1571.603	0.966	1	study	Phase3	study/STIM_009.jpg
1576.029	1.225	1	study	Phase3	study/STIM_009.jpg
1579.533	0.987	1	study	Phase3	study/STIM_010.jpg
1582.893	1.074	1	study	Phase3	study/STIM_010.jpg
1587.364	0.596	1	study	Phase3	study/STIM_010.jpg
1590.846	0.567	1	study	Phase3	study/STIM_011.jpg
1595.088	0.879	1	study	Phase3	study/STIM_011.jpg
1598.294	0.818	1	study	Phase3	study/STIM_011.jpg
1601.197	0.772	1	study	Phase3	study/STIM_012.jpg
1605.213	0.655	1	study	Phase3	study/STIM_012.jpg
1609.343	0.598	1	study	Phase3	study/STIM_012.jpg
1613.72	1.176	1	study	Phase3	study/STIM_013.jpg
1617.134	0.9	1	study	Phase3	study/STIM_013.jpg
1620.877	0.816	1	study	Phase3	study/STIM_013.jpg
1625.277	0.684	1	study	Phase3	study/STIM_014.jpg
1629.319	0.586	1	study	Phase3	study/STIM_014.jpg
1633.802	0.92	1	study	Phase3	study/STIM_014.jpg
1638.653	1.085	1	study	Phase3	study/STIM_015.jpg
1642.126	0.561	1	study	Phase3	study/STIM_015.jpg
1646.445	1.047	1	study	Phase3	study/STIM_015.jpg
1651.173	1.228	1	study	Phase3	study/STIM_016.jpg
1655.524	0.962	1	study	Phase3	study/STIM_016.jpg
1659.403	1.026	1	study	Phase3	study/STIM_016.jpg
1662.749	0.631	1	study	Phase3	study/STIM_017.jpg
1666.933	0.732	1	study	Phase3	study/STIM_017.jpg
1670.238	0.982	1	study	Phase3	study/STIM_017.jpg
1674.915	1.131	1	study	Phase3	study/STIM_018.jpg
1679.421	1.052	1	study	Phase3	study/STIM_018.jpg
1684.035	0.652	1	study	Phase3	study/STIM_018.jpg
1687.359	0.615	1	study	Phase3	study/STIM_019.jpg
1690.811	0.85	1	study	Phase3	study/STIM_019.jpg
1694.608	0.69	1	study	Phase3	study/STIM_019.jpg
1699.059	1.053	1	study	Phase3	study/STIM_020.jpg
1702.169	0.651	1	study	Phase3	study/STIM_020.jpg
1706.343	0.892	1	study	Phase3	study/STIM_020.jpg
1710.206	1.167	1	study	Phase3	study/STIM_021.jpg
1715.189	1.211	1	study	Phase3	study/STIM_021.jpg
1718.526	0.786	1	study	Phase3	study/STIM_021.jpg
1722.751	0.893	1	study	Phase3	study/STIM_022.jpg
1726.612	0.618	1	study	Phase3	study/STIM_022.jpg
1730.788	0.988	1	study	Phase3	study/STIM_022.jpg
1735.115	0.89	1	study	Phase3	study/STIM_023.jpg
1738.571	0.634	1	study	Phase3	study/STIM_023.jpg
1742.871	1.236	0	study	Phase3	study/STIM_023.jpg
1746.73	0.84	1	study	Phase3	study/STIM_024.jpg
1750.523	0.915	1	study	Phase3	study/STIM_024.jpg
1754.512	1.226	1	study	Phase3	study/STIM_024.jpg
1758.074	0.882	0	study	Phase3	study/STIM_025.jpg
1762.951	0.702	1	study	Phase3	study/STIM_025.jpg
1766.399	1.07	1	study	Phase3	study/STIM_025.jpg
1770.99	0.685	1	study	Phase3	study/STIM_026.jpg
1774.14	1.234	1	study	Phase3	study/STIM_026.jpg
1778.235	1.001	1	study	Phase3	study/STIM_026.jpg
1783.07	0.908	1	study	Phase3	study/STIM_027.jpg
1787.948	0.991	1	study	Phase3	study/STIM_027.jpg
1792.93	0.999	1	study	Phase3	study/STIM_027.jpg
1796.974	0.588	1	study	Phase3	study/STIM_028.jpg
1801.335	0.891	1	study	Phase3	study/STIM_028.jpg
1804.521	1.196	1	study	Phase3	study/STIM_028.jpg
1809.282	0.98	1	study	Phase3	study/STIM_029.jpg
1812.359	0.815	1	study	Phase3	study/STIM_029.jpg
1815.596	1.188	1	study	Phase3	study/STIM_029.jpg
1820.173	1.132	1	test	Phase3	test/STIM_000.jpg
1823.612	0.991	1	test	Phase3	test/STIM_000.jpg
1827.367	1.064	1	test	Phase3	test/STIM_000.jpg
1831.699	0.844	1	test	Phase3	test/STIM_001.jpg
1836.24	0.692	1	test	Phase3	test/STIM_001.jpg
1839.487	1.253	1	test	Phase3	test/STIM_001.jpg
1844.014	0.969	1	test	Phase3	test/STIM_002.jpg
1847.588	0.986	1	test	Phase3	test/STIM_002.jpg
1850.966	0.926	0	test	Phase3	test/STIM_002.jpg
1855.389	0.622	1	test	Phase3	test/STIM_003.jpg
1859.251	0.645	1	test	Phase3	test/STIM_003.jpg
1863.149	0.743	1	test	Phase3	test/STIM_003.jpg
1867.812	1.241	1	test	Phase3	test/STIM_004.jpg
1872.493	1.117	1	test	Phase3	test/STIM_004.jpg
1875.798	0.665	1	test	Phase3	test/STIM_004.jpg
1880.209	0.823	1	test	Phase3	test/STIM_005.jpg
1884.238	0.853	1	test	Phase3	test/STIM_005.jpg
1888.148	0.604	1	test	Phase3	test/STIM_005.jpg
1892.624	1.112	1	test	Phase3	test/STIM_006.jpg
1897.467	0.999	1	test	Phase3	test/STIM_006.jpg
1900.844	0.889	1	test	Phase3	test/STIM_006.jpg
1905.389	1.204	1	test	Phase3	test/STIM_007.jpg
1910.339	1.258	1	test	Phase3	test/STIM_007.jpg
1915.332	1.25	1	test	Phase3	test/STIM_007.jpg
1920.22	1.018	1	test	Phase3	test/STIM_008.jpg
1923.463	1.222	1	test	Phase3	test/STIM_008.jpg
1927.187	1.063	1	test	Phase3	test/STIM_008.jpg
1931.355	0.716	1	test	Phase3	test/STIM_009.jpg
1935.344	0.974	0	test	Phase3	test/STIM_009.jpg
1939.724	1.035	0	test	Phase3	test/STIM_009.jpg
1943.517	0.92	1	test	Phase3	test/STIM_010.jpg
1946.645	0.871	0	test	Phase3	test/STIM_010.jpg
1950.867	0.875	1	test	Phase3	test/STIM_010.jpg
1955.432	1.282	1	test	Phase3	test/STIM_011.jpg
1958.733	1.267	1	test	Phase3	test/STIM_011.jpg
1962.592	0.881	1	test	Phase3	test/STIM_011.jpg
1966.325	1.217	1	test	Phase3	test/STIM_012.jpg
1970.074	1.002	1	test	Phase3	test/STIM_012.jpg
1974.265	0.647	1	test	Phase3	test/STIM_012.jpg
1978.379	0.989	1	test	Phase3	test/STIM_013.jpg
1983.318	1.173	1	test	Phase3	test/STIM_013.jpg
1987.744	0.755	1	test	Phase3	test/STIM_013.jpg
1991.963	0.915	1	test	Phase3	test/STIM_014.jpg
1995.56	1.189	1	test	Phase3	test/STIM_014.jpg
2000.573	0.772	1	test	Phase3	test/STIM_014.jpg
2004.349	0.811	1	test	Phase3	test/STIM_015.jpg
2008.816	0.975	1	test	Phase3	test/STIM_015.jpg
2013.143	0.675	1	test	Phase3	test/STIM_015.jpg
2017.596	0.947	1	test	Phase3	test/STIM_016.jpg
2022.382	0.684	1	test	Phase3	test/STIM_016.jpg
2025.488	1.053	1	test	Phase3	test/STIM_016.jpg
2028.606	1.282	1	test	Phase3	test/STIM_017.jpg
2033.134	1.063	1	test	Phase3	test/STIM_017.jpg
2036.863	0.917	1	test	Phase3	test/STIM_017.jpg
2041.184	1.027	1	test	Phase3	test/STIM_018.jpg
2044.791	0.897	1	test	Phase3	test/STIM_018.jpg
2048.564	1.23	1	test	Phase3	test/STIM_018.jpg
2052.83	0.965	1	test	Phase3	test/STIM_019.jpg
2057.745	1.272	1	test	Phase3	test/STIM_019.jpg
2061.754	1.002	1	test	Phase3	test/STIM_019.jpg
2065.08	1.21	1	test	Phase3	test/STIM_020.jpg
2068.778	0.878	1	test	Phase3	test/STIM_020.jpg
2073.385	0.802	1	test	Phase3	test/STIM_020.jpg
2078.159	0.718	1	test	Phase3	test/STIM_021.jpg
2081.394	0.672	1	test	Phase3	test/STIM_021.jpg
2085.746	0.594	1	test	Phase3	test/STIM_021.jpg
2088.707	1.155	1	test	Phase3	test/STIM_022.jpg
2092.032	0.858	1	test	Phase3	test/STIM_022.jpg
2094.92	0.886	1	test	Phase3	test/STIM_022.jpg
2099.165	0.762	1	test	Phase3	test/STIM_023.jpg
2102.887	1.057	1	test	Phase3	test/STIM_023.jpg
2106.107	1.284	1	test	Phase3	test/STIM_023.jpg
2111.353	1.162	1	test	Phase3	test/STIM_024.jpg
2115.896	1.171	0	test	Phase3	test/STIM_024.jpg
2120.369	0.732	1	test	Phase3	test/STIM_024.jpg
2124.57	0.984	1	test	Phase3	test/STIM_025.jpg
2128.72	0.602	1	test	Phase3	test/STIM_025.jpg
2131.567	1.085	1	test	Phase3	test/STIM_025.jpg
2135.148	1.166	0	test	Phase3	test/STIM_026.jpg
2138.454	1.073	1	test	Phase3	test/STIM_026.jpg
2141.853	0.715	1	test	Phase3	test/STIM_026.jpg
2145.177	0.784	1	test	Phase3	test/STIM_027.jpg
2148.92	1.063	1	test	Phase3	test/STIM_027.jpg
2153.611	1.198	1	test	Phase3	test/STIM_027.jpg
2158.504	1.278	1	test	Phase3	test/STIM_028.jpg
2162.164	0.962	1	test	Phase3	test/STIM_028.jpg
2166.685	0.622	1	test	Phase3	test/STIM_028.jpg
2171.169	1.18	1	test	Phase3	test/STIM_029.jpg
2175.114	0.818	1	test	Phase3	test/STIM_029.jpg
2178.153	0.984	1	test	Phase3	test/STIM_029.jpg
