onset	duration	accuracy	trial_type	learning_stage	stimulus
0.0	0.747	correct	study	Phase1	study/STIM_000.jpg
3.748	1.014	correct	study	Phase1	study/STIM_000.jpg
7.578	0.661	correct	study	Phase1	study/STIM_000.jpg
11.32	1.105	incorrect	study	Phase1	study/STIM_001.jpg
14.63	1.236	correct	study	Phase1	study/STIM_001.jpg
19.874	1.118	correct	study	Phase1	study/STIM_001.jpg
24.592	1.42	correct	study	Phase1	study/STIM_002.jpg
29.613	1.498	correct	study	Phase1	study/STIM_002.jpg
34.873	0.985	correct	study	Phase1	study/STIM_002.jpg
39.216	1.092	incorrect	study	Phase1	study/STIM_003.jpg
42.621	1.316	correct	study	Phase1	study/STIM_003.jpg
46.785	0.757	correct	study	Phase1	study/STIM_003.jpg
49.922	1.576	correct	study	Phase1	study/STIM_004.jpg
53.951	1.222	correct	study	Phase1	study/STIM_004.jpg
58.235	0.66	incorrect	study	Phase1	study/STIM_004.jpg
62.275	1.312	correct	study	Phase1	study/STIM_005.jpg
66.801	1.487	correct	study	Phase1	study/STIM_005.jpg
70.462	1.121	correct	study	Phase1	study/STIM_005.jpg
74.296	1.395	correct	study	Phase1	study/STIM_006.jpg
78.317	1.535	correct	study	Phase1	study/STIM_006.jpg
82.797	0.883	correct	study	Phase1	study/STIM_006.jpg
85.912	1.559	correct	study	Phase1	study/STIM_007.jpg
91.538	1.261	correct	study	Phase1	study/STIM_007.jpg
96.693	1.364	correct	study	Phase1	study/STIM_007.jpg
100.64	0.789	correct	study	Phase1	study/STIM_008.jpg
104.872	1.429	correct	study	Phase1	study/STIM_008.jpg
108.572	1.236	correct	study	Phase1	study/STIM_008.jpg
112.115	1.598	correct	study	Phase1	study/STIM_009.jpg
117.855	0.851	correct	study	Phase1	study/STIM_009.jpg
122.771	1.181	correct	study	Phase1	study/STIM_009.jpg
127.289	1.504	correct	study	Phase1	study/STIM_010.jpg
131.559	0.777	correct	study	Phase1	study/STIM_010.jpg
134.479	0.677	correct	study	Phase1	study/STIM_010.jpg
138.691	1.036	correct	study	Phase1	study/STIM_011.jpg
143.795	0.928	correct	study	Phase1	study/STIM_011.jpg
148.036	0.999	incorrect	study	Phase1	study/STIM_011.jpg
152.706	1.101	correct	study	Phase1	study/STIM_012.jpg
157.215	1.017	correct	study	Phase1	study/STIM_012.jpg
160.515	1.342	correct	study	Phase1	study/STIM_012.jpg
165.532	0.837	correct	study	Phase1	study/STIM_013.jpg
168.677	0.692	correct	study	Phase1	study/STIM_013.jpg
173.214	0.967	incorrect	study	Phase1	study/STIM_013.jpg
178.008	1.027	correct	study	Phase1	study/STIM_014.jpg
182.739	1.186	incorrect	study	Phase1	study/STIM_014.jpg
187.315	1.228	correct	study	Phase1	study/STIM_014.jpg
191.861	1.151	incorrect	study	Phase1	study/STIM_015.jpg
195.201	0.776	correct	study	Phase1	study/STIM_015.jpg
199.023	1.288	correct	study	Phase1	study/STIM_015.jpg
202.868	1.404	correct	study	Phase1	study/STIM_016.jpg
207.199	1.22	correct	study	Phase1	study/STIM_016.jpg
212.396	1.311	correct	study	Phase1	study/STIM_016.jpg
217.85	1.534	incorrect	study	Phase1	study/STIM_017.jpg
223.495	0.723	incorrect	study	Phase1	study/STIM_017.jpg
227.535	1.011	correct	study	Phase1	study/STIM_017.jpg
231.502	1.0	correct	study	Phase1	study/STIM_018.jpg
235.582	0.997	correct	study	Phase1	study/STIM_018.jpg
239.9	1.273	correct	study	Phase1	study/STIM_018.jpg
243.871	1.547	correct	study	Phase1	study/STIM_019.jpg
248.452	1.349	correct	study	Phase1	study/STIM_019.jpg
252.314	1.312	correct	study	Phase1	study/STIM_019.jpg
256.941	0.787	incorrect	study	Phase1	study/STIM_020.jpg
260.456	1.1	correct	study	Phase1	study/STIM_020.jpg
264.052	1.023	correct	study	Phase1	study/STIM_020.jpg
267.845	0.85	correct	study	Phase1	study/STIM_021.jpg
270.932	0.798	correct	study	Phase1	study/STIM_021.jpg
275.638	1.187	correct	study	Phase1	study/STIM_021.jpg
279.496	1.592	correct	study	Phase1	study/STIM_022.jpg
283.292	0.938	correct	study	Phase1	study/STIM_022.jpg
287.271	1.238	correct	study	Phase1	study/STIM_022.jpg
291.057	0.948	correct	study	Phase1	study/STIM_023.jpg
294.113	1.068	incorrect	study	Phase1	study/STIM_023.jpg
299.026	0.982	correct	study	Phase1	study/STIM_023.jpg
303.519	1.105	incorrect	study	Phase1	study/STIM_024.jpg
307.466	1.426	correct	study	Phase1	study/STIM_024.jpg
312.825	0.8	correct	study	Phase1	study/STIM_024.jpg
317.487	1.503	correct	study	Phase1	study/STIM_025.jpg
322.291	0.71	correct	study	Phase1	study/STIM_025.jpg
325.154	0.984	correct	study	Phase1	study/STIM_025.jpg
328.547	1.446	correct	study	Phase1	study/STIM_026.jpg
332.993	1.496	correct	study	Phase1	study/STIM_026.jpg
337.739	1.436	correct	study	Phase1	study/STIM_026.jpg
341.47	0.85	correct	study	Phase1	study/STIM_027.jpg
346.193	0.88	incorrect	study	Phase1	study/STIM_027.jpg
350.458	0.942	correct	study	Phase1	study/STIM_027.jpg
354.204	1.248	correct	study	Phase1	study/STIM_028.jpg
359.125	1.086	incorrect	study	Phase1	study/STIM_028.jpg
364.127	0.925	correct	study	Phase1	study/STIM_028.jpg
368.743	0.833	correct	study	Phase1	study/STIM_029.jpg
371.766	1.027	incorrect	study	Phase1	study/STIM_029.jpg
375.098	1.343	correct	study	Phase1	study/STIM_029.jpg
380.303	0.724	correct	test	Phase1	test/STIM_000.jpg
384.726	1.095	correct	test	Phase1	test/STIM_000.jpg
389.097	1.024	correct	test	Phase1	test/STIM_000.jpg
392.566	0.816	correct	test	Phase1	test/STIM_001.jpg
396.672	0.641	correct	test	Phase1	test/STIM_001.jpg
399.948	0.835	correct	test	Phase1	test/STIM_001.jpg
403.904	0.749	correct	test	Phase1	test/STIM_002.jpg
408.508	1.051	correct	test	Phase1	test/STIM_002.jpg
411.993	0.906	correct	test	Phase1	test/STIM_002.jpg
416.196	0.832	correct	test	Phase1	test/STIM_003.jpg
419.447	1.016	correct	test	Phase1	test/STIM_003.jpg
422.905	0.776	correct	test	Phase1	test/STIM_003.jpg
427.762	1.151	correct	test	Phase1	test/STIM_004.jpg
431.568	0.618	correct	test	Phase1	test/STIM_004.jpg
435.076	1.126	correct	test	Phase1	test/STIM_004.jpg
439.276	1.022	correct	test	Phase1	test/STIM_005.jpg
442.569	0.86	correct	test	Phase1	test/STIM_005.jpg
446.984	0.903	correct	test	Phase1	test/STIM_005.jpg
451.796	1.0	correct	test	Phase1	test/STIM_006.jpg
455.29	0.653	incorrect	test	Phase1	test/STIM_006.jpg
458.267	0.873	correct	test	Phase1	test/STIM_006.jpg
461.835	1.167	correct	test	Phase1	test/STIM_007.jpg
466.657	0.945	correct	test	Phase1	test/STIM_007.jpg
470.109	0.642	correct	test	Phase1	test/STIM_007.jpg
473.538	0.674	correct	test	Phase1	test/STIM_008.jpg
477.929	0.556	correct	test	Phase1	test/STIM_008.jpg
481.393	0.675	correct	test	Phase1	test/STIM_008.jpg
485.231	0.868	correct	test	Phase1	test/STIM_009.jpg
489.894	0.544	correct	test	Phase1	test/STIM_009.jpg
494.245	1.031	correct	test	Phase1	test/STIM_009.jpg
497.934	0.6	correct	test	Phase1	test/STIM_010.jpg
502.443	0.74	correct	test	Phase1	test/STIM_010.jpg
506.351	0.567	correct	test	Phase1	test/STIM_010.jpg
509.706	0.569	incorrect	test	Phase1	test/STIM_011.jpg
513.21	1.073	correct	test	Phase1	test/STIM_011.jpg
517.642	0.868	correct	test	Phase1	test/STIM_011.jpg
520.828	1.09	correct	test	Phase1	test/STIM_012.jpg
524.413	0.588	correct	test	Phase1	test/STIM_012.jpg
528.08	0.713	correct	test	Phase1	test/STIM_012.jpg
532.123	0.96	correct	test	Phase1	test/STIM_013.jpg
535.489	1.156	correct	test	Phase1	test/STIM_013.jpg
540.654	0.631	correct	test	Phase1	test/STIM_013.jpg
544.694	0.676	correct	test	Phase1	test/STIM_014.jpg
548.935	0.937	correct	test	Phase1	test/STIM_014.jpg
553.197	0.92	correct	test	Phase1	test/STIM_014.jpg
557.309	1.142	correct	test	Phase1	test/STIM_015.jpg
562.01	1.062	correct	test	Phase1	test/STIM_015.jpg
567.132	0.97	correct	test	Phase1	test/STIM_015.jpg
571.193	0.546	correct	test	Phase1	test/STIM_016.jpg
575.208	0.864	correct	test	Phase1	test/STIM_016.jpg
578.789	1.126	incorrect	test	Phase1	test/STIM_016.jpg
583.78	0.935	correct	test	Phase1	test/STIM_017.jpg
588.181	1.081	correct	test	Phase1	test/STIM_017.jpg
592.492	0.548	correct	test	Phase1	test/STIM_017.jpg
595.325	0.926	incorrect	test	Phase1	test/STIM_018.jpg
600.294	0.754	correct	test	Phase1	test/STIM_018.jpg
604.698	1.158	correct	test	Phase1	test/STIM_018.jpg
609.549	0.769	correct	test	Phase1	test/STIM_019.jpg
613.485	0.786	correct	test	Phase1	test/STIM_019.jpg
617.335	0.607	correct	test	Phase1	test/STIM_019.jpg
620.155	0.976	incorrect	test	Phase1	test/STIM_020.jpg
623.906	0.655	correct	test	Phase1	test/STIM_020.jpg
626.969	1.042	correct	test	Phase1	test/STIM_020.jpg
630.197	0.762	correct	test	Phase1	test/STIM_021.jpg
634.321	1.084	correct	test	Phase1	test/STIM_021.jpg
638.922	0.577	correct	test	Phase1	test/STIM_021.jpg
642.324	0.879	correct	test	Phase1	test/STIM_022.jpg
647.248	1.129	correct	test	Phase1	test/STIM_022.jpg
650.932	0.98	correct	test	Phase1	test/STIM_022.jpg
655.244	1.035	correct	test	Phase1	test/STIM_023.jpg
659.362	0.968	correct	test	Phase1	test/STIM_023.jpg
664.225	0.742	correct	test	Phase1	test/STIM_023.jpg
668.457	1.117	correct	test	Phase1	test/STIM_024.jpg
672.174	0.833	correct	test	Phase1	test/STIM_024.jpg
676.319	0.88	correct	test	Phase1	test/STIM_024.jpg
680.28	0.673	correct	test	Phase1	test/STIM_025.jpg
683.999	0.799	correct	test	Phase1	test/STIM_025.jpg
687.621	1.138	correct	test	Phase1	test/STIM_025.jpg
692.091	1.018	incorrect	test	Phase1	test/STIM_026.jpg
696.949	1.144	correct	test	Phase1	test/STIM_026.jpg
700.937	0.781	correct	test	Phase1	test/STIM_026.jpg
705.245	1.069	correct	test	Phase1	test/STIM_027.jpg
708.458	0.737	correct	test	Phase1	test/STIM_027.jpg
713.254	0.765	correct	test	Phase1	test/STIM_027.jpg
716.292	0.889	correct	test	Phase1	test/STIM_028.jpg
720.622	0.894	correct	test	Phase1	test/STIM_028.jpg
724.976	0.585	correct	test	Phase1	test/STIM_028.jpg
728.214	0.696	correct	test	Phase1	test/STIM_029.jpg
731.748	0.582	correct	test	Phase1	test/STIM_029.jpg
735.677	0.929	correct	test	Phase1	test/STIM_029.jpg
739.427	0.966	correct	study	Phase2	study/STIM_000.jpg
743.754	1.106	correct	study	Phase2	study/STIM_000.jpg
748.647	0.95	correct	study	Phase2	study/STIM_000.jpg
753.026	1.236	correct	study	Phase2	study/STIM_001.jpg
757.395	0.832	correct	study	Phase2	study/STIM_001.jpg
760.464	0.713	correct	study	Phase2	study/STIM_001.jpg
764.52	0.741	correct	study	Phase2	study/STIM_002.jpg
768.649	0.919	incorrect	study	Phase2	study/STIM_002.jpg
772.421	0.62	correct	study	Phase2	study/STIM_002.jpg
776.818	0.645	correct	study	Phase2	study/STIM_003.jpg
781.025	0.799	correct	study	Phase2	study/STIM_003.jpg
785.567	0.821	correct	study	Phase2	study/STIM_003.jpg
790.323	0.912	correct	study	Phase2	study/STIM_004.jpg
794.559	1.172	correct	study	Phase2	study/STIM_004.jpg
799.134	0.773	correct	study	Phase2	study/STIM_004.jpg
803.36	1.352	correct	study	Phase2	study/STIM_005.jpg
808.202	0.837	correct	study	Phase2	study/STIM_005.jpg
813.007	1.032	correct	study	Phase2	study/STIM_005.jpg
817.185	0.984	correct	study	Phase2	study/STIM_006.jpg
820.307	1.105	correct	study	Phase2	study/STIM_006.jpg
824.163	0.99	correct	study	Phase2	study/STIM_006.jpg
828.728	0.826	correct	study	Phase2	study/STIM_007.jpg
832.276	0.909	correct	study	Phase2	study/STIM_007.jpg
835.403	1.186	correct	study	Phase2	study/STIM_007.jpg
839.606	0.977	correct	study	Phase2	study/STIM_008.jpg
842.928	1.228	correct	study	Phase2	study/STIM_008.jpg
847.673	0.916	correct	study	Phase2	study/STIM_008.jpg
850.996	1.237	correct	study	Phase2	study/STIM_009.jpg
855.928	0.928	correct	study	Phase2	study/STIM_009.jpg
860.515	0.654	correct	study	Phase2	study/STIM_009.jpg
865.185	1.364	correct	study	Phase2	study/STIM_010.jpg
870.197	1.037	correct	study	Phase2	study/STIM_010.jpg
874.567	1.002	correct	study	Phase2	study/STIM_010.jpg
878.335	1.095	correct	study	Phase2	study/STIM_011.jpg
882.41	1.191	correct	study	Phase2	study/STIM_011.jpg
887.694	0.88	correct	study	Phase2	study/STIM_011.jpg
891.539	0.614	correct	study	Phase2	study/STIM_012.jpg
894.342	1.236	incorrect	study	Phase2	study/STIM_012.jpg
898.742	1.15	correct	study	Phase2	study/STIM_012.jpg
902.275	1.142	correct	study	Phase2	study/STIM_013.jpg
907.118	0.635	correct	study	Phase2	study/STIM_013.jpg
909.948	0.856	correct	study	Phase2	study/STIM_013.jpg
914.344	0.814	correct	study	Phase2	study/STIM_014.jpg
917.353	0.824	correct	study	Phase2	study/STIM_014.jpg
921.185	1.118	correct	study	Phase2	study/STIM_014.jpg
925.338	1.079	correct	study	Phase2	study/STIM_015.jpg
930.496	0.942	correct	study	Phase2	study/STIM_015.jpg
934.869	1.111	correct	study	Phase2	study/STIM_015.jpg
939.008	1.336	correct	study	Phase2	study/STIM_016.jpg
942.875	1.295	correct	study	Phase2	study/STIM_016.jpg
947.432	0.887	correct	study	Phase2	study/STIM_016.jpg
951.313	0.881	correct	study	Phase2	study/STIM_017.jpg
955.534	0.888	correct	study	Phase2	study/STIM_017.jpg
959.168	1.097	correct	study	Phase2	study/STIM_017.jpg
963.597	1.356	correct	study	Phase2	study/STIM_018.jpg
967.938	1.093	correct	study	Phase2	study/STIM_018.jpg
971.172	1.018	correct	study	Phase2	study/STIM_018.jpg
975.812	1.002	correct	study	Phase2	study/STIM_019.jpg
980.486	0.768	correct	study	Phase2	study/STIM_019.jpg
983.874	0.712	incorrect	study	Phase2	study/STIM_019.jpg
988.653	0.695	correct	study	Phase2	study/STIM_020.jpg
993.253	0.581	correct	study	Phase2	study/STIM_020.jpg
996.101	0.84	correct	study	Phase2	study/STIM_020.jpg
1000.36	1.365	incorrect	study	Phase2	study/STIM_021.jpg
1005.383	0.913	correct	study	Phase2	study/STIM_021.jpg
1009.466	0.788	correct	study	Phase2	study/STIM_021.jpg
1014.109	1.294	correct	study	Phase2	study/STIM_022.jpg
1019.045	0.978	correct	study	Phase2	study/STIM_022.jpg
1022.464	0.847	correct	study	Phase2	study/STIM_022.jpg
1026.779	1.072	correct	study	Phase2	study/STIM_023.jpg
1030.1	1.183	correct	study	Phase2	study/STIM_023.jpg
1034.533	0.664	correct	study	Phase2	study/STIM_023.jpg
1038.668	1.119	correct	study	Phase2	study/STIM_024.jpg
1042.912	1.124	correct	study	Phase2	study/STIM_024.jpg
1048.056	0.798	correct	study	Phase2	study/STIM_024.jpg
1051.874	1.056	correct	study	Phase2	study/STIM_025.jpg
1055.373	0.877	correct	study	Phase2	study/STIM_025.jpg
1058.485	1.148	correct	study	Phase2	study/STIM_025.jpg
1062.862	1.12	correct	study	Phase2	study/STIM_026.jpg
1066.726	0.752	correct	study	Phase2	study/STIM_026.jpg
1070.774	0.563	correct	study	Phase2	study/STIM_026.jpg
1073.585	0.719	correct	study	Phase2	study/STIM_027.jpg
1076.516	1.249	correct	study	Phase2	study/STIM_027.jpg
1081.654	1.211	correct	study	Phase2	study/STIM_027.jpg
1086.503	1.074	correct	study	Phase2	study/STIM_028.jpg
1091.139	0.966	correct	study	Phase2	study/STIM_028.jpg
1094.909	0.699	incorrect	study	Phase2	study/STIM_028.jpg
1098.507	1.002	incorrect	study	Phase2	study/STIM_029.jpg
1102.171	1.078	correct	study	Phase2	study/STIM_029.jpg
1106.395	1.098	correct	study	Phase2	study/STIM_029.jpg
1111.59	0.784	correct	test	Phase2	test/STIM_000.jpg
1115.341	0.759	correct	test	Phase2	test/STIM_000.jpg
1119.719	0.715	correct	test	Phase2	test/STIM_000.jpg
1123.823	0.672	correct	test	Phase2	test/STIM_001.jpg
1127.724	0.738	correct	test	Phase2	test/STIM_001.jpg
1131.55	0.541	correct	test	Phase2	test/STIM_001.jpg
1134.789	0.908	correct	test	Phase2	test/STIM_002.jpg
1139.225	0.635	correct	test	Phase2	test/STIM_002.jpg
1142.651	0.947	correct	test	Phase2	test/STIM_002.jpg
1145.88	0.73	correct	test	Phase2	test/STIM_003.jpg
1150.43	0.575	correct	test	Phase2	test/STIM_003.jpg
1153.922	0.908	correct	test	Phase2	test/STIM_003.jpg
1158.413	0.746	incorrect	test	Phase2	test/STIM_004.jpg
1162.426	1.094	correct	test	Phase2	test/STIM_004.jpg
1166.587	0.609	correct	test	Phase2	test/STIM_004.jpg
1170.159	0.877	correct	test	Phase2	test/STIM_005.jpg
1174.899	0.632	correct	test	Phase2	test/STIM_005.jpg
1178.932	0.777	correct	test	Phase2	test/STIM_005.jpg
1182.623	0.583	correct	test	Phase2	test/STIM_006.jpg
1186.576	0.851	correct	test	Phase2	test/STIM_006.jpg
1190.723	0.66	correct	test	Phase2	test/STIM_006.jpg
1195.051	0.982	correct	test	Phase2	test/STIM_007.jpg
1198.191	0.952	correct	test	Phase2	test/STIM_007.jpg
1201.481	0.607	correct	test	Phase2	test/STIM_007.jpg
1205.628	1.028	correct	test	Phase2	test/STIM_008.jpg
1208.96	0.756	correct	test	Phase2	test/STIM_008.jpg
1212.263	0.964	correct	test	Phase2	test/STIM_008.jpg
1215.611	0.957	correct	test	Phase2	test/STIM_009.jpg
1220.422	1.037	correct	test	Phase2	test/STIM_009.jpg
1224.255	0.975	correct	test	Phase2	test/STIM_009.jpg
1227.929	0.59	correct	test	Phase2	test/STIM_010.jpg
1230.632	0.674	correct	test	Phase2	test/STIM_010.jpg
1233.631	0.643	correct	test	Phase2	test/STIM_010.jpg
1238.276	0.94	correct	test	Phase2	test/STIM_011.jpg
1242.043	1.004	incorrect	test	Phase2	test/STIM_011.jpg
1246.701	1.018	correct	test	Phase2	test/STIM_011.jpg
1251.234	0.813	correct	test	Phase2	test/STIM_012.jpg
1254.527	0.753	correct	test	Phase2	test/STIM_012.jpg
1257.96	0.835	correct	test	Phase2	test/STIM_012.jpg
1262.843	0.893	correct	test	Phase2	test/STIM_013.jpg
1265.983	0.817	correct	test	Phase2	test/STIM_013.jpg
1269.305	0.655	correct	test	Phase2	test/STIM_013.jpg
1272.102	1.12	correct	test	Phase2	test/STIM_014.jpg
1276.768	0.584	correct	test	Phase2	test/STIM_014.jpg
1279.666	0.562	correct	test	Phase2	test/STIM_014.jpg
1283.84	0.62	correct	test	Phase2	test/STIM_015.jpg
1288.416	0.657	correct	test	Phase2	test/STIM_015.jpg
1293.123	0.794	correct	test	Phase2	test/STIM_015.jpg
1296.694	1.131	correct	test	Phase2	test/STIM_016.jpg
1301.108	0.579	correct	test	Phase2	test/STIM_016.jpg
1305.272	0.909	incorrect	test	Phase2	test/STIM_016.jpg
1309.45	0.542	correct	test	Phase2	test/STIM_017.jpg
1313.314	0.614	correct	test	Phase2	test/STIM_017.jpg
1316.468	1.04	correct	test	Phase2	test/STIM_017.jpg
1321.29	0.656	correct	test	Phase2	test/STIM_018.jpg
1325.076	1.05	correct	test	Phase2	test/STIM_018.jpg
1329.741	1.137	correct	test	Phase2	test/STIM_018.jpg
1334.836	0.604	incorrect	test	Phase2	test/STIM_019.jpg
1338.011	0.701	correct	test	Phase2	test/STIM_019.jpg
1341.849	0.739	correct	test	Phase2	test/STIM_019.jpg
1345.567	0.69	correct	test	Phase2	test/STIM_020.jpg
1349.898	0.764	correct	test	Phase2	test/STIM_020.jpg
1353.02	1.061	correct	test	Phase2	test/STIM_020.jpg
1358.072	1.035	correct	test	Phase2	test/STIM_021.jpg
1361.969	0.757	correct	test	Phase2	test/STIM_021.jpg
1366.105	1.091	correct	test	Phase2	test/STIM_021.jpg
1370.043	1.143	correct	test	Phase2	test/STIM_022.jpg
1374.283	0.628	correct	test	Phase2	test/STIM_022.jpg
1377.738	0.922	correct	test	Phase2	test/STIM_022.jpg
1382.636	0.687	correct	test	Phase2	test/STIM_023.jpg
1386.196	0.693	correct	test	Phase2	test/STIM_023.jpg
1390.842	0.897	correct	test	Phase2	test/STIM_023.jpg
1394.954	1.092	correct	test	Phase2	test/STIM_024.jpg
1398.894	1.002	correct	test	Phase2	test/STIM_024.jpg
1403.923	0.988	correct	test	Phase2	test/STIM_024.jpg
1407.412	1.15	correct	test	Phase2	test/STIM_025.jpg
1411.997	1.056	correct	test	Phase2	test/STIM_025.jpg
1415.913	0.767	correct	test	Phase2	test/STIM_025.jpg
1420.544	1.146	correct	test	Phase2	test/STIM_026.jpg
1425.208	1.076	correct	test	Phase2	test/STIM_026.jpg
1429.22	1.007	correct	test	Phase2	test/STIM_026.jpg
1433.608	0.685	correct	test	Phase2	test/STIM_027.jpg
1436.487	0.893	correct	test	Phase2	test/STIM_027.jpg
1440.118	1.022	correct	test	Phase2	test/STIM_027.jpg
1444.67	0.908	correct	test	Phase2	test/STIM_028.jpg
1448.406	0.95	correct	test	Phase2	test/STIM_028.jpg
1452.615	0.75	correct	test	Phase2	test/STIM_028.jpg
1456.416	0.556	correct	test	Phase2	test/STIM_029.jpg
1460.617	0.938	correct	test	Phase2	test/STIM_029.jpg
1463.691	0.746	correct	test	Phase2	test/STIM_029.jpg
1467.305	0.744	correct	study	Phase3	study/STIM_000.jpg
1470.248	0.683	correct	study	Phase3	study/STIM_000.jpg
1473.534	0.673	correct	study	Phase3	study/STIM_000.jpg
1476.921	1.092	correct	study	Phase3	study/STIM_001.jpg
1480.615	1.043	correct	study	Phase3	study/STIM_001.jpg
1485.087	0.661	correct	study	Phase3	study/STIM_001.jpg
1488.647	0.989	correct	study	Phase3	study/STIM_002.jpg
1493.349	0.648	correct	study	Phase3	study/STIM_002.jpg
1496.217	0.526	correct	study	Phase3	study/STIM_002.jpg
1500.614	0.753	correct	study	Phase3	study/STIM_003.jpg
1503.991	0.942	correct	study	Phase3	study/STIM_003.jpg
1507.068	0.707	correct	study	Phase3	study/STIM_003.jpg
1511.719	0.524	correct	study	Phase3	study/STIM_004.jpg
1514.606	0.598	correct	study	Phase3	study/STIM_004.jpg
1519.046	1.115	correct	study	Phase3	study/STIM_004.jpg
1524.241	1.101	correct	study	Phase3	study/STIM_005.jpg
1528.43	0.539	correct	study	Phase3	study/STIM_005.jpg
1532.652	0.632	correct	study	Phase3	study/STIM_005.jpg
1536.779	1.058	correct	study	Phase3	study/STIM_006.jpg
1540.286	0.594	correct	study	Phase3	study/STIM_006.jpg
1544.385	0.912	correct	study	Phase3	study/STIM_006.jpg
1548.483	0.655	correct	study	Phase3	study/STIM_007.jpg
1551.778	1.117	correct	study	Phase3	study/STIM_007.jpg
1555.271	0.689	correct	study	Phase3	study/STIM_007.jpg
1559.666	1.134	correct	study	Phase3	study/STIM_008.jpg
1564.749	1.078	incorrect	study	Phase3	study/STIM_008.jpg
1569.566	0.775	correct	study	Phase3	study/STIM_008.jpg
1573.206	1.049	correct	study	Phase3	study/STIM_009.jpg
1577.655	0.946	correct	study	Phase3	study/STIM_009.jpg
1581.534	0.672	correct	study	Phase3	study/STIM_009.jpg
1585.583	0.724	correct	study	Phase3	study/STIM_010.jpg
1589.744	0.721	correct	study	Phase3	study/STIM_010.jpg
1593.758	1.06	correct	study	Phase3	study/STIM_010.jpg
1598.664	1.083	correct	study	Phase3	study/STIM_011.jpg
1602.648	0.854	correct	study	Phase3	study/STIM_011.jpg
1607.109	1.065	correct	study	Phase3	study/STIM_011.jpg
1612.271	0.556	correct	study	Phase3	study/STIM_012.jpg
1616.303	0.878	correct	study	Phase3	study/STIM_012.jpg
1620.839	0.679	correct	study	Phase3	study/STIM_012.jpg
1625.563	0.937	correct	study	Phase3	study/STIM_013.jpg
1629.044	0.844	correct	study	Phase3	study/STIM_013.jpg
1633.159	0.605	correct	study	Phase3	study/STIM_013.jpg
1635.85	0.627	correct	study	Phase3	study/STIM_014.jpg
1640.538	0.564	correct	study	Phase3	study/STIM_014.jpg
1643.772	0.763	correct	study	Phase3	study/STIM_014.jpg
1648.105	0.74	correct	study	Phase3	study/STIM_015.jpg
1651.337	0.98	correct	study	Phase3	study/STIM_015.jpg
1655.808	0.513	correct	study	Phase3	study/STIM_015.jpg
1658.64	0.573	correct	study	Phase3	study/STIM_016.jpg
1662.391	0.666	correct	study	Phase3	study/STIM_016.jpg
1666.399	0.596	correct	study	Phase3	study/STIM_016.jpg
1669.598	1.133	correct	study	Phase3	study/STIM_017.jpg
1672.861	0.554	correct	study	Phase3	study/STIM_017.jpg
1676.603	0.798	correct	study	Phase3	study/STIM_017.jpg
1680.124	0.6	correct	study	Phase3	study/STIM_018.jpg
1684.528	0.821	correct	study	Phase3	study/STIM_018.jpg
1688.774	0.538	correct	study	Phase3	study/STIM_018.jpg
1691.593	0.684	correct	study	Phase3	study/STIM_019.jpg
1696.232	1.116	correct	study	Phase3	study/STIM_019.jpg
1700.794	0.742	correct	study	Phase3	study/STIM_019.jpg
1705.332	0.587	correct	study	Phase3	study/STIM_020.jpg
1709.808	0.58	correct	study	Phase3	study/STIM_020.jpg
1714.277	0.883	correct	study	Phase3	study/STIM_020.jpg
1718.5	1.039	correct	study	Phase3	study/STIM_021.jpg
1722.731	1.049	correct	study	Phase3	study/STIM_021.jpg
1727.682	1.005	correct	study	Phase3	study/STIM_021.jpg
1732.675	0.942	correct	study	Phase3	study/STIM_022.jpg
1735.897	0.691	correct	study	Phase3	study/STIM_022.jpg
1739.129	0.944	correct	study	Phase3	study/STIM_022.jpg
1742.351	0.863	correct	study	Phase3	study/STIM_023.jpg
1746.997	1.024	correct	study	Phase3	study/STIM_023.jpg
1751.747	1.073	incorrect	study	Phase3	study/STIM_023.jpg
1756.465	0.813	correct	study	Phase3	study/STIM_024.jpg
1760.199	0.65	correct	study	Phase3	study/STIM_024.jpg
1763.759	0.724	correct	study	Phase3	study/STIM_024.jpg
1766.828	0.772	incorrect	study	Phase3	study/STIM_025.jpg
1770.461	0.996	correct	study	Phase3	study/STIM_025.jpg
1774.399	1.082	correct	study	Phase3	study/STIM_025.jpg
1777.631	0.721	correct	study	Phase3	study/STIM_026.jpg
1780.765	0.659	correct	study	Phase3	study/STIM_026.jpg
1784.134	1.087	correct	study	Phase3	study/STIM_026.jpg
1787.994	0.796	correct	study	Phase3	study/STIM_027.jpg
1791.247	0.57	correct	study	Phase3	study/STIM_027.jpg
1793.91	1.001	correct	study	Phase3	study/STIM_027.jpg
1798.424	0.987	correct	study	Phase3	study/STIM_028.jpg
1801.817	0.852	correct	study	Phase3	study/STIM_028.jpg
1805.468	0.905	correct	study	Phase3	study/STIM_028.jpg
1809.547	0.72	correct	study	Phase3	study/STIM_029.jpg
1813.501	0.764	correct	study	Phase3	study/STIM_029.jpg
1817.218	0.976	correct	study	Phase3	study/STIM_029.jpg
1821.074	0.85	correct	test	Phase3	test/STIM_000.jpg
1824.322	1.087	correct	test	Phase3	test/STIM_000.jpg
1828.829	0.649	correct	test	Phase3	test/STIM_000.jpg
1831.581	0.768	correct	test	Phase3	test/STIM_001.jpg
1834.742	0.546	correct	test	Phase3	test/STIM_001.jpg
1837.428	0.797	correct	test	Phase3	test/STIM_001.jpg
1841.873	1.1	correct	test	Phase3	test/STIM_002.jpg
1846.792	0.747	correct	test	Phase3	test/STIM_002.jpg
1850.228	0.918	incorrect	test	Phase3	test/STIM_002.jpg
1853.851	0.685	correct	test	Phase3	test/STIM_003.jpg
1857.658	1.114	correct	test	Phase3	test/STIM_003.jpg
1861.039	0.591	correct	test	Phase3	test/STIM_003.jpg
1865.357	1.134	correct	test	Phase3	test/STIM_004.jpg
1869.601	0.981	correct	test	Phase3	test/STIM_004.jpg
1873.213	0.662	correct	test	Phase3	test/STIM_004.jpg
1877.503	0.834	correct	test	Phase3	test/STIM_005.jpg
1882.402	0.614	incorrect	test	Phase3	test/STIM_005.jpg
1886.809	0.956	incorrect	test	Phase3	test/STIM_005.jpg
1890.98	0.832	correct	test	Phase3	test/STIM_006.jpg
1893.993	0.904	correct	test	Phase3	test/STIM_006.jpg
1897.73	0.854	correct	test	Phase3	test/STIM_006.jpg
1902.286	0.892	incorrect	test	Phase3	test/STIM_007.jpg
1907.081	0.814	correct	test	Phase3	test/STIM_007.jpg
1910.92	0.696	correct	test	Phase3	test/STIM_007.jpg
1915.202	0.595	correct	test	Phase3	test/STIM_008.jpg
1918.784	0.554	correct	test	Phase3	test/STIM_008.jpg
1923.107	1.054	correct	test	Phase3	test/STIM_008.jpg
1928.184	0.64	correct	test	Phase3	test/STIM_009.jpg
1932.618	0.958	incorrect	test	Phase3	test/STIM_009.jpg
1936.504	0.902	correct	test	Phase3	test/STIM_009.jpg
1941.373	1.153	correct	test	Phase3	test/STIM_010.jpg
1945.837	0.54	correct	test	Phase3	test/STIM_010.jpg
1950.105	0.559	correct	test	Phase3	test/STIM_010.jpg
1952.776	1.142	correct	test	Phase3	test/STIM_011.jpg
1957.998	0.97	correct	test	Phase3	test/STIM_011.jpg
1961.438	0.918	correct	test	Phase3	test/STIM_011.jpg
1965.915	0.906	correct	test	Phase3	test/STIM_012.jpg
1970.298	1.134	correct	test	Phase3	test/STIM_012.jpg
1975.257	1.134	correct	test	Phase3	test/STIM_012.jpg
1979.069	1.169	correct	test	Phase3	test/STIM_013.jpg
1982.496	0.865	correct	test	Phase3	test/STIM_013.jpg
1985.905	0.801	correct	test	Phase3	test/STIM_013.jpg
1990.441	0.748	correct	test	Phase3	test/STIM_014.jpg
1994.25	0.661	correct	test	Phase3	test/STIM_014.jpg
1997.539	0.805	correct	test	Phase3	test/STIM_014.jpg
2001.253	0.602	correct	test	Phase3	test/STIM_015.jpg
2005.171	0.68	correct	test	Phase3	test/STIM_015.jpg
2008.975	0.945	correct	test	Phase3	test/STIM_015.jpg
2013.312	0.573	correct	test	Phase3	test/STIM_016.jpg
2017.535	0.981	correct	test	Phase3	test/STIM_016.jpg
2021.918	0.981	correct	test	Phase3	test/STIM_016.jpg
2025.568	0.921	correct	test	Phase3	test/STIM_017.jpg
2030.076	0.804	correct	test	Phase3	test/STIM_017.jpg
2033.984	0.775	correct	test	Phase3	test/STIM_017.jpg
2037.805	0.673	correct	test	Phase3	test/STIM_018.jpg
2042.449	0.712	correct	test	Phase3	test/STIM_018.jpg
2046.205	1.002	correct	test	Phase3	test/STIM_018.jpg
2049.705	0.953	correct	test	Phase3	test/STIM_019.jpg
2054.033	1.036	correct	test	Phase3	test/STIM_019.jpg
2058.075	0.992	correct	test	Phase3	test/STIM_019.jpg
2062.314	0.875	correct	test	Phase3	test/STIM_020.jpg
2066.755	0.774	correct	test	Phase3	test/STIM_020.jpg
2069.803	0.642	correct	test	Phase3	test/STIM_020.jpg
2074.006	0.735	correct	test	Phase3	test/STIM_021.jpg
2077.964	0.686	correct	test	Phase3	test/STIM_021.jpg
2081.494	0.787	correct	test	Phase3	test/STIM_021.jpg
2084.865	1.018	correct	test	Phase3	test/STIM_022.jpg
2088.397	1.031	correct	test	Phase3	test/STIM_022.jpg
2092.788	1.093	correct	test	Phase3	test/STIM_022.jpg
2097.299	0.965	correct	test	Phase3	test/STIM_023.jpg
2100.833	0.597	incorrect	test	Phase3	test/STIM_023.jpg
2104.705	1.142	incorrect	test	Phase3	test/STIM_023.jpg
2108.753	0.896	correct	test	Phase3	test/STIM_024.jpg
2112.035	0.804	correct	test	Phase3	test/STIM_024.jpg
2115.452	1.065	correct	test	Phase3	test/STIM_024.jpg
2120.228	0.969	correct	test	Phase3	test/STIM_025.jpg
2123.726	0.593	correct	test	Phase3	test/STIM_025.jpg
2128.284	0.945	correct	test	Phase3	test/STIM_025.jpg
2131.397	0.997	correct	test	Phase3	test/STIM_026.jpg
2135.664	0.688	correct	test	Phase3	test/STIM_026.jpg
2139.346	1.079	correct	test	Phase3	test/STIM_026.jpg
2143.863	0.66	correct	test	Phase3	test/STIM_027.jpg
2147.348	1.16	incorrect	test	Phase3	test/STIM_027.jpg
2151.255	0.984	correct	test	Phase3	test/STIM_027.jpg
2154.721	0.56	correct	test	Phase3	test/STIM_028.jpg
2158.672	0.892	correct	test	Phase3	test/STIM_028.jpg
2163.221	1.073	correct	test	Phase3	test/STIM_028.jpg
2166.717	0.942	correct	test	Phase3	test/STIM_029.jpg
2171.119	1.142	correct	test	Phase3	test/STIM_029.jpg
2174.761	1.115	correct	test	Phase3	test/STIM_029.jpg
