onset	duration	response_time_ms	trial_type	learning_stage	stimulus	response_port
0.0	0.747	746.6	study	Phase1	study/STIM_000.jpg	99
3.748	1.014	1014.2	study	Phase1	study/STIM_000.jpg	99
7.578	0.661	660.8	study	Phase1	study/STIM_000.jpg	100
11.32	1.105	1104.8	study	Phase1	study/STIM_001.jpg	100
14.63	1.236	1236.5	study	Phase1	study/STIM_001.jpg	100
19.874	1.118	1117.5	study	Phase1	study/STIM_001.jpg	99
24.592	1.42	1419.5	study	Phase1	study/STIM_002.jpg	100
29.613	1.498	1498.4	study	Phase1	study/STIM_002.jpg	99
34.873	0.985	985.4	study	Phase1	study/STIM_002.jpg	100
39.216	1.092	1092.2	study	Phase1	study/STIM_003.jpg	99
42.621	1.316	1316.4	study	Phase1	study/STIM_003.jpg	99
46.785	0.757	756.7	study	Phase1	study/STIM_003.jpg	99
49.922	1.576	1576.2	study	Phase1	study/STIM_004.jpg	99
53.951	1.222	1222.1	study	Phase1	study/STIM_004.jpg	99
58.235	0.66	659.7	study	Phase1	study/STIM_004.jpg	100
62.275	1.312	1311.8	study	Phase1	study/STIM_005.jpg	100
66.801	1.487	1487.1	study	Phase1	study/STIM_005.jpg	100
70.462	1.121	1120.7	study	Phase1	study/STIM_005.jpg	100
74.296	1.395	1394.8	study	Phase1	study/STIM_006.jpg	100
78.317	1.535	1534.8	study	Phase1	study/STIM_006.jpg	100
82.797	0.883	882.7	study	Phase1	study/STIM_006.jpg	99
85.912	1.559	1558.8	study	Phase1	study/STIM_007.jpg	100
91.538	1.261	1261.4	study	Phase1	study/STIM_007.jpg	99
96.693	1.364	1364.3	study	Phase1	study/STIM_007.jpg	99
100.64	0.789	788.9	study	Phase1	study/STIM_008.jpg	99
104.872	1.429	1429.1	study	Phase1	study/STIM_008.jpg	100
108.572	1.236	1236.1	study	Phase1	study/STIM_008.jpg	99
112.115	1.598	1598.5	study	Phase1	study/STIM_009.jpg	99
117.855	0.851	851.2	study	Phase1	study/STIM_009.jpg	99
122.771	1.181	1181.3	study	Phase1	study/STIM_009.jpg	99
127.289	1.504	1503.9	study	Phase1	study/STIM_010.jpg	99
131.559	0.777	777.0	study	Phase1	study/STIM_010.jpg	100
134.479	0.677	677.2	study	Phase1	study/STIM_010.jpg	99
138.691	1.036	1035.8	study	Phase1	study/STIM_011.jpg	99
143.795	0.928	928.1	study	Phase1	study/STIM_011.jpg	100
148.036	0.999	998.6	study	Phase1	study/STIM_011.jpg	100
152.706	1.101	1101.2	study	Phase1	study/STIM_012.jpg	100
157.215	1.017	1016.9	study	Phase1	study/STIM_012.jpg	100
160.515	1.342	1341.7	study	Phase1	study/STIM_012.jpg	99
165.532	0.837	836.7	study	Phase1	study/STIM_013.jpg	100
168.677	0.692	692.0	study	Phase1	study/STIM_013.jpg	100
173.214	0.967	967.3	study	Phase1	study/STIM_013.jpg	100
178.008	1.027	1026.6	study	Phase1	study/STIM_014.jpg	99
182.739	1.186	1185.6	study	Phase1	study/STIM_014.jpg	99
187.315	1.228	1228.1	study	Phase1	study/STIM_014.jpg	100
191.861	1.151	1150.8	study	Phase1	study/STIM_015.jpg	100
195.201	0.776	775.7	study	Phase1	study/STIM_015.jpg	99
199.023	1.288	1287.8	study	Phase1	study/STIM_015.jpg	99
202.868	1.404	1404.3	study	Phase1	study/STIM_016.jpg	99
207.199	1.22	1219.8	study	Phase1	study/STIM_016.jpg	99
212.396	1.311	1310.8	study	Phase1	study/STIM_016.jpg	99
217.85	1.534	1533.9	study	Phase1	study/STIM_017.jpg	100
223.495	0.723	723.0	study	Phase1	study/STIM_017.jpg	100
227.535	1.011	1010.6	study	Phase1	study/STIM_017.jpg	99
231.502	1.0	1000.4	study	Phase1	study/STIM_018.jpg	99
235.582	0.997	996.8	study	Phase1	study/STIM_018.jpg	100
239.9	1.273	1273.1	study	Phase1	study/STIM_018.jpg	100
243.871	1.547	1547.4	study	Phase1	study/STIM_019.jpg	100
248.452	1.349	1349.2	study	Phase1	study/STIM_019.jpg	99
252.314	1.312	1311.8	study	Phase1	study/STIM_019.jpg	100
256.941	0.787	786.6	study	Phase1	study/STIM_020.jpg	99
260.456	1.1	1099.9	study	Phase1	study/STIM_020.jpg	100
264.052	1.023	1023.3	study	Phase1	study/STIM_020.jpg	99
267.845	0.85	849.8	study	Phase1	study/STIM_021.jpg	100
270.932	0.798	798.0	study	Phase1	study/STIM_021.jpg	99
275.638	1.187	1187.2	study	Phase1	study/STIM_021.jpg	100
279.496	1.592	1591.9	study	Phase1	study/STIM_022.jpg	100
283.292	0.938	937.5	study	Phase1	study/STIM_022.jpg	99
287.271	1.238	1238.1	study	Phase1	study/STIM_022.jpg	100
291.057	0.948	947.7	study	Phase1	study/STIM_023.jpg	99
294.113	1.068	1068.0	study	Phase1	study/STIM_023.jpg	100
299.026	0.982	981.5	study	Phase1	study/STIM_023.jpg	100
303.519	1.105	1104.8	study	Phase1	study/STIM_024.jpg	100
307.466	1.426	1426.0	study	Phase1	study/STIM_024.jpg	100
312.825	0.8	800.2	study	Phase1	study/STIM_024.jpg	99
317.487	1.503	1502.9	study	Phase1	study/STIM_025.jpg	99
322.291	0.71	710.5	study	Phase1	study/STIM_025.jpg	99
325.154	0.984	984.2	study	Phase1	study/STIM_025.jpg	99
328.547	1.446	1445.8	study	Phase1	study/STIM_026.jpg	100
332.993	1.496	1496.1	study	Phase1	study/STIM_026.jpg	99
337.739	1.436	1436.5	study	Phase1	study/STIM_026.jpg	99
341.47	0.85	849.5	study	Phase1	study/STIM_027.jpg	100
346.193	0.88	880.3	study	Phase1	study/STIM_027.jpg	100
350.458	0.942	941.7	study	Phase1	study/STIM_027.jpg	100
354.204	1.248	1247.5	study	Phase1	study/STIM_028.jpg	99
359.125	1.086	1085.7	study	Phase1	study/STIM_028.jpg	100
364.127	0.925	925.0	study	Phase1	study/STIM_028.jpg	99
368.743	0.833	833.3	study	Phase1	study/STIM_029.jpg	99
371.766	1.027	1027.0	study	Phase1	study/STIM_029.jpg	99
375.098	1.343	1343.0	study	Phase1	study/STIM_029.jpg	100
380.303	0.724	724.5	test	Phase1	test/STIM_000.jpg	99
384.726	1.095	1094.8	test	Phase1	test/STIM_000.jpg	99
389.097	1.024	1023.9	test	Phase1	test/STIM_000.jpg	100
392.566	0.816	815.6	test	Phase1	test/STIM_001.jpg	100
396.672	0.641	640.8	test	Phase1	test/STIM_001.jpg	100
399.948	0.835	835.4	test	Phase1	test/STIM_001.jpg	100
403.904	0.749	749.0	test	Phase1	test/STIM_002.jpg	99
408.508	1.051	1050.7	test	Phase1	test/STIM_002.jpg	99
411.993	0.906	905.8	test	Phase1	test/STIM_002.jpg	100
416.196	0.832	832.0	test	Phase1	test/STIM_003.jpg	99
419.447	1.016	1016.2	test	Phase1	test/STIM_003.jpg	100
422.905	0.776	775.7	test	Phase1	test/STIM_003.jpg	100
427.762	1.151	1150.9	test	Phase1	test/STIM_004.jpg	100
431.568	0.618	617.7	test	Phase1	test/STIM_004.jpg	100
435.076	1.126	1125.9	test	Phase1	test/STIM_004.jpg	99
439.276	1.022	1021.5	test	Phase1	test/STIM_005.jpg	99
442.569	0.86	860.0	test	Phase1	test/STIM_005.jpg	100
446.984	0.903	902.6	test	Phase1	test/STIM_005.jpg	99
451.796	1.0	1000.4	test	Phase1	test/STIM_006.jpg	100
455.29	0.653	653.0	test	Phase1	test/STIM_006.jpg	100
458.267	0.873	872.9	test	Phase1	test/STIM_006.jpg	100
461.835	1.167	1166.9	test	Phase1	test/STIM_007.jpg	99
466.657	0.945	945.0	test	Phase1	test/STIM_007.jpg	99
470.109	0.642	642.4	test	Phase1	test/STIM_007.jpg	100
473.538	0.674	674.3	test	Phase1	test/STIM_008.jpg	99
477.929	0.556	555.9	test	Phase1	test/STIM_008.jpg	100
481.393	0.675	674.8	test	Phase1	test/STIM_008.jpg	100
485.231	0.868	867.6	test	Phase1	test/STIM_009.jpg	100
489.894	0.544	544.4	test	Phase1	test/STIM_009.jpg	99
494.245	1.031	1031.4	test	Phase1	test/STIM_009.jpg	99
497.934	0.6	600.4	test	Phase1	test/STIM_010.jpg	100
502.443	0.74	740.0	test	Phase1	test/STIM_010.jpg	99
506.351	0.567	567.3	test	Phase1	test/STIM_010.jpg	100
509.706	0.569	569.4	test	Phase1	test/STIM_011.jpg	99
513.21	1.073	1073.2	test	Phase1	test/STIM_011.jpg	100
517.642	0.868	868.4	test	Phase1	test/STIM_011.jpg	100
520.828	1.09	1090.3	test	Phase1	test/STIM_012.jpg	100
524.413	0.588	587.5	test	Phase1	test/STIM_012.jpg	99
528.08	0.713	712.8	test	Phase1	test/STIM_012.jpg	99
532.123	0.96	959.5	test	Phase1	test/STIM_013.jpg	100
535.489	1.156	1155.6	test	Phase1	test/STIM_013.jpg	100
540.654	0.631	631.3	test	Phase1	test/STIM_013.jpg	100
544.694	0.676	675.8	test	Phase1	test/STIM_014.jpg	100
548.935	0.937	936.9	test	Phase1	test/STIM_014.jpg	100
553.197	0.92	920.5	test	Phase1	test/STIM_014.jpg	100
557.309	1.142	1142.1	test	Phase1	test/STIM_015.jpg	100
562.01	1.062	1062.3	test	Phase1	test/STIM_015.jpg	100
567.132	0.97	969.8	test	Phase1	test/STIM_015.jpg	99
571.193	0.546	546.0	test	Phase1	test/STIM_016.jpg	100
575.208	0.864	864.2	test	Phase1	test/STIM_016.jpg	100
578.789	1.126	1126.3	test	Phase1	test/STIM_016.jpg	100
583.78	0.935	935.3	test	Phase1	test/STIM_017.jpg	99
588.181	1.081	1081.1	test	Phase1	test/STIM_017.jpg	100
592.492	0.548	548.3	test	Phase1	test/STIM_017.jpg	99
595.325	0.926	925.9	test	Phase1	test/STIM_018.jpg	100
600.294	0.754	754.0	test	Phase1	test/STIM_018.jpg	100
604.698	1.158	1158.0	test	Phase1	test/STIM_018.jpg	100
609.549	0.769	769.4	test	Phase1	test/STIM_019.jpg	100
613.485	0.786	785.9	test	Phase1	test/STIM_019.jpg	99
617.335	0.607	606.6	test	Phase1	test/STIM_019.jpg	99
620.155	0.976	976.0	test	Phase1	test/STIM_020.jpg	99
623.906	0.655	655.3	test	Phase1	test/STIM_020.jpg	100
626.969	1.042	1041.9	test	Phase1	test/STIM_020.jpg	99
630.197	0.762	762.2	test	Phase1	test/STIM_021.jpg	100
634.321	1.084	1084.2	test	Phase1	test/STIM_021.jpg	99
638.922	0.577	577.2	test	Phase1	test/STIM_021.jpg	100
642.324	0.879	878.8	test	Phase1	test/STIM_022.jpg	100
647.248	1.129	1128.9	test	Phase1	test/STIM_022.jpg	100
650.932	0.98	980.5	test	Phase1	test/STIM_022.jpg	99
655.244	1.035	1034.7	test	Phase1	test/STIM_023.jpg	100
659.362	0.968	967.8	test	Phase1	test/STIM_023.jpg	100
664.225	0.742	742.1	test	Phase1	test/STIM_023.jpg	99
668.457	1.117	1117.0	test	Phase1	test/STIM_024.jpg	100
672.174	0.833	833.1	test	Phase1	test/STIM_024.jpg	99
676.319	0.88	880.5	test	Phase1	test/STIM_024.jpg	99
680.28	0.673	673.4	test	Phase1	test/STIM_025.jpg	99
683.999	0.799	799.1	test	Phase1	test/STIM_025.jpg	99
687.621	1.138	1138.2	test	Phase1	test/STIM_025.jpg	100
692.091	1.018	1017.9	test	Phase1	test/STIM_026.jpg	100
696.949	1.144	1144.5	test	Phase1	test/STIM_026.jpg	99
700.937	0.781	781.4	test	Phase1	test/STIM_026.jpg	100
705.245	1.069	1068.9	test	Phase1	test/STIM_027.jpg	100
708.458	0.737	737.0	test	Phase1	test/STIM_027.jpg	99
713.254	0.765	765.0	test	Phase1	test/STIM_027.jpg	100
716.292	0.889	889.3	test	Phase1	test/STIM_028.jpg	99
720.622	0.894	893.7	test	Phase1	test/STIM_028.jpg	100
724.976	0.585	585.0	test	Phase1	test/STIM_028.jpg	100
728.214	0.696	695.7	test	Phase1	test/STIM_029.jpg	99
731.748	0.582	581.7	test	Phase1	test/STIM_029.jpg	100
735.677	0.929	929.0	test	Phase1	test/STIM_029.jpg	100
739.427	0.966	966.2	study	Phase2	study/STIM_000.jpg	99
743.754	1.106	1105.8	study	Phase2	study/STIM_000.jpg	99
748.647	0.95	950.2	study	Phase2	study/STIM_000.jpg	100
753.026	1.236	1236.3	study	Phase2	study/STIM_001.jpg	100
757.395	0.832	832.4	study	Phase2	study/STIM_001.jpg	100
760.464	0.713	712.6	study	Phase2	study/STIM_001.jpg	99
764.52	0.741	741.2	study	Phase2	study/STIM_002.jpg	100
768.649	0.919	919.4	study	Phase2	study/STIM_002.jpg	99
772.421	0.62	619.7	study	Phase2	study/STIM_002.jpg	99
776.818	0.645	645.1	study	Phase2	study/STIM_003.jpg	99
781.025	0.799	798.9	study	Phase2	study/STIM_003.jpg	99
785.567	0.821	820.6	study	Phase2	study/STIM_003.jpg	100
790.323	0.912	912.5	study	Phase2	study/STIM_004.jpg	100
794.559	1.172	1172.5	study	Phase2	study/STIM_004.jpg	100
799.134	0.773	772.6	study	Phase2	study/STIM_004.jpg	99
803.36	1.352	1352.2	study	Phase2	study/STIM_005.jpg	99
808.202	0.837	836.7	study	Phase2	study/STIM_005.jpg	100
813.007	1.032	1032.2	study	Phase2	study/STIM_005.jpg	100
817.185	0.984	983.5	study	Phase2	study/STIM_006.jpg	100
820.307	1.105	1105.3	study	Phase2	study/STIM_006.jpg	100
824.163	0.99	989.6	study	Phase2	study/STIM_006.jpg	99
828.728	0.826	826.2	study	Phase2	study/STIM_007.jpg	100
832.276	0.909	909.1	study	Phase2	study/STIM_007.jpg	99
835.403	1.186	1186.4	study	Phase2	study/STIM_007.jpg	99
839.606	0.977	977.1	study	Phase2	study/STIM_008.jpg	100
842.928	1.228	1227.8	study	Phase2	study/STIM_008.jpg	99
847.673	0.916	915.6	study	Phase2	study/STIM_008.jpg	100
850.996	1.237	1236.8	study	Phase2	study/STIM_009.jpg	99
855.928	0.928	927.6	study	Phase2	study/STIM_009.jpg	99
860.515	0.654	653.8	study	Phase2	study/STIM_009.jpg	99
865.185	1.364	1363.9	study	Phase2	study/STIM_010.jpg	100
870.197	1.037	1036.7	study	Phase2	study/STIM_010.jpg	100
874.567	1.002	1001.9	study	Phase2	study/STIM_010.jpg	99
878.335	1.095	1094.9	study	Phase2	study/STIM_011.jpg	99
882.41	1.191	1190.8	study	Phase2	study/STIM_011.jpg	100
887.694	0.88	880.4	study	Phase2	study/STIM_011.jpg	100
891.539	0.614	613.6	study	Phase2	study/STIM_012.jpg	99
894.342	1.236	1236.0	study	Phase2	study/STIM_012.jpg	100
898.742	1.15	1150.4	study	Phase2	study/STIM_012.jpg	99
902.275	1.142	1141.6	study	Phase2	study/STIM_013.jpg	100
907.118	0.635	634.8	study	Phase2	study/STIM_013.jpg	100
909.948	0.856	855.8	study	Phase2	study/STIM_013.jpg	100
914.344	0.814	814.2	study	Phase2	study/STIM_014.jpg	99
917.353	0.824	824.3	study	Phase2	study/STIM_014.jpg	100
921.185	1.118	1117.5	study	Phase2	study/STIM_014.jpg	100
925.338	1.079	1079.1	study	Phase2	study/STIM_015.jpg	100
930.496	0.942	942.5	study	Phase2	study/STIM_015.jpg	100
934.869	1.111	1111.1	study	Phase2	study/STIM_015.jpg	99
939.008	1.336	1336.4	study	Phase2	study/STIM_016.jpg	100
942.875	1.295	1294.9	study	Phase2	study/STIM_016.jpg	99
947.432	0.887	887.2	study	Phase2	study/STIM_016.jpg	99
951.313	0.881	881.3	study	Phase2	study/STIM_017.jpg	99
955.534	0.888	887.8	study	Phase2	study/STIM_017.jpg	100
959.168	1.097	1096.7	study	Phase2	study/STIM_017.jpg	100
963.597	1.356	1355.5	study	Phase2	study/STIM_018.jpg	99
967.938	1.093	1092.8	study	Phase2	study/STIM_018.jpg	99
971.172	1.018	1017.8	study	Phase2	study/STIM_018.jpg	99
975.812	1.002	1001.8	study	Phase2	study/STIM_019.jpg	99
980.486	0.768	768.3	study	Phase2	study/STIM_019.jpg	99
983.874	0.712	711.6	study	Phase2	study/STIM_019.jpg	99
988.653	0.695	694.7	study	Phase2	study/STIM_020.jpg	99
993.253	0.581	580.8	study	Phase2	study/STIM_020.jpg	99
996.101	0.84	840.1	study	Phase2	study/STIM_020.jpg	100
1000.36	1.365	1364.8	study	Phase2	study/STIM_021.jpg	99
1005.383	0.913	913.0	study	Phase2	study/STIM_021.jpg	100
1009.466	0.788	788.3	study	Phase2	study/STIM_021.jpg	100
1014.109	1.294	1293.8	study	Phase2	study/STIM_022.jpg	99
1019.045	0.978	977.8	study	Phase2	study/STIM_022.jpg	100
1022.464	0.847	847.0	study	Phase2	study/STIM_022.jpg	100
1026.779	1.072	1072.3	study	Phase2	study/STIM_023.jpg	100
1030.1	1.183	1183.2	study	Phase2	study/STIM_023.jpg	99
1034.533	0.664	664.4	study	Phase2	study/STIM_023.jpg	100
1038.668	1.119	1118.8	study	Phase2	study/STIM_024.jpg	99
1042.912	1.124	1123.9	study	Phase2	study/STIM_024.jpg	99
1048.056	0.798	798.0	study	Phase2	study/STIM_024.jpg	99
1051.874	1.056	1055.7	study	Phase2	study/STIM_025.jpg	100
1055.373	0.877	877.3	study	Phase2	study/STIM_025.jpg	100
1058.485	1.148	1147.6	study	Phase2	study/STIM_025.jpg	99
1062.862	1.12	1119.6	study	Phase2	study/STIM_026.jpg	99
1066.726	0.752	752.4	study	Phase2	study/STIM_026.jpg	100
1070.774	0.563	563.0	study	Phase2	study/STIM_026.jpg	99
1073.585	0.719	719.1	study	Phase2	study/STIM_027.jpg	99
1076.516	1.249	1248.6	study	Phase2	study/STIM_027.jpg	99
1081.654	1.211	1211.2	study	Phase2	study/STIM_027.jpg	100
1086.503	1.074	1073.9	study	Phase2	study/STIM_028.jpg	99
1091.139	0.966	966.4	study	Phase2	study/STIM_028.jpg	99
1094.909	0.699	699.1	study	Phase2	study/STIM_028.jpg	99
1098.507	1.002	1001.6	study	Phase2	study/STIM_029.jpg	99
1102.171	1.078	1077.9	study	Phase2	study/STIM_029.jpg	100
1106.395	1.098	1097.9	study	Phase2	study/STIM_029.jpg	100
1111.59	0.784	783.8	test	Phase2	test/STIM_000.jpg	100
1115.341	0.759	758.6	test	Phase2	test/STIM_000.jpg	100
1119.719	0.715	714.7	test	Phase2	test/STIM_000.jpg	100
1123.823	0.672	672.3	test	Phase2	test/STIM_001.jpg	100
1127.724	0.738	737.8	test	Phase2	test/STIM_001.jpg	99
1131.55	0.541	541.4	test	Phase2	test/STIM_001.jpg	100
1134.789	0.908	907.7	test	Phase2	test/STIM_002.jpg	99
1139.225	0.635	634.8	test	Phase2	test/STIM_002.jpg	99
1142.651	0.947	946.9	test	Phase2	test/STIM_002.jpg	100
1145.88	0.73	730.1	test	Phase2	test/STIM_003.jpg	99
1150.43	0.575	575.2	test	Phase2	test/STIM_003.jpg	99
1153.922	0.908	908.3	test	Phase2	test/STIM_003.jpg	99
1158.413	0.746	746.3	test	Phase2	test/STIM_004.jpg	100
1162.426	1.094	1094.2	test	Phase2	test/STIM_004.jpg	99
1166.587	0.609	609.1	test	Phase2	test/STIM_004.jpg	99
1170.159	0.877	877.3	test	Phase2	test/STIM_005.jpg	100
1174.899	0.632	631.7	test	Phase2	test/STIM_005.jpg	99
1178.932	0.777	776.9	test	Phase2	test/STIM_005.jpg	99
1182.623	0.583	582.8	test	Phase2	test/STIM_006.jpg	100
1186.576	0.851	850.8	test	Phase2	test/STIM_006.jpg	99
1190.723	0.66	660.2	test	Phase2	test/STIM_006.jpg	99
1195.051	0.982	982.3	test	Phase2	test/STIM_007.jpg	100
1198.191	0.952	951.9	test	Phase2	test/STIM_007.jpg	100
1201.481	0.607	607.2	test	Phase2	test/STIM_007.jpg	99
1205.628	1.028	1027.7	test	Phase2	test/STIM_008.jpg	100
1208.96	0.756	756.5	test	Phase2	test/STIM_008.jpg	100
1212.263	0.964	964.5	test	Phase2	test/STIM_008.jpg	99
1215.611	0.957	957.4	test	Phase2	test/STIM_009.jpg	100
1220.422	1.037	1036.7	test	Phase2	test/STIM_009.jpg	100
1224.255	0.975	975.2	test	Phase2	test/STIM_009.jpg	99
1227.929	0.59	590.4	test	Phase2	test/STIM_010.jpg	99
1230.632	0.674	674.2	test	Phase2	test/STIM_010.jpg	100
1233.631	0.643	642.6	test	Phase2	test/STIM_010.jpg	99
1238.276	0.94	940.4	test	Phase2	test/STIM_011.jpg	99
1242.043	1.004	1004.4	test	Phase2	test/STIM_011.jpg	99
1246.701	1.018	1018.2	test	Phase2	test/STIM_011.jpg	100
1251.234	0.813	812.7	test	Phase2	test/STIM_012.jpg	99
1254.527	0.753	752.6	test	Phase2	test/STIM_012.jpg	99
1257.96	0.835	834.6	test	Phase2	test/STIM_012.jpg	100
1262.843	0.893	893.2	test	Phase2	test/STIM_013.jpg	100
1265.983	0.817	817.0	test	Phase2	test/STIM_013.jpg	99
1269.305	0.655	654.6	test	Phase2	test/STIM_013.jpg	99
1272.102	1.12	1120.1	test	Phase2	test/STIM_014.jpg	99
1276.768	0.584	584.1	test	Phase2	test/STIM_014.jpg	99
1279.666	0.562	561.7	test	Phase2	test/STIM_014.jpg	99
1283.84	0.62	620.2	test	Phase2	test/STIM_015.jpg	99
1288.416	0.657	656.9	test	Phase2	test/STIM_015.jpg	99
1293.123	0.794	793.5	test	Phase2	test/STIM_015.jpg	100
1296.694	1.131	1131.0	test	Phase2	test/STIM_016.jpg	99
1301.108	0.579	578.8	test	Phase2	test/STIM_016.jpg	100
1305.272	0.909	908.8	test	Phase2	test/STIM_016.jpg	100
1309.45	0.542	541.8	test	Phase2	test/STIM_017.jpg	100
1313.314	0.614	613.7	test	Phase2	test/STIM_017.jpg	99
1316.468	1.04	1040.2	test	Phase2	test/STIM_017.jpg	99
1321.29	0.656	656.5	test	Phase2	test/STIM_018.jpg	100
1325.076	1.05	1049.9	test	Phase2	test/STIM_018.jpg	99
1329.741	1.137	1136.7	test	Phase2	test/STIM_018.jpg	99
1334.836	0.604	603.8	test	Phase2	test/STIM_019.jpg	99
1338.011	0.701	701.1	test	Phase2	test/STIM_019.jpg	99
1341.849	0.739	738.9	test	Phase2	test/STIM_019.jpg	99
1345.567	0.69	690.2	test	Phase2	test/STIM_020.jpg	100
1349.898	0.764	764.4	test	Phase2	test/STIM_020.jpg	100
1353.02	1.061	1060.6	test	Phase2	test/STIM_020.jpg	99
1358.072	1.035	1034.7	test	Phase2	test/STIM_021.jpg	100
1361.969	0.757	756.9	test	Phase2	test/STIM_021.jpg	100
1366.105	1.091	1091.2	test	Phase2	test/STIM_021.jpg	99
1370.043	1.143	1142.6	test	Phase2	test/STIM_022.jpg	99
1374.283	0.628	627.6	test	Phase2	test/STIM_022.jpg	100
1377.738	0.922	922.5	test	Phase2	test/STIM_022.jpg	99
1382.636	0.687	686.9	test	Phase2	test/STIM_023.jpg	99
1386.196	0.693	693.2	test	Phase2	test/STIM_023.jpg	99
1390.842	0.897	897.3	test	Phase2	test/STIM_023.jpg	99
1394.954	1.092	1092.4	test	Phase2	test/STIM_024.jpg	99
1398.894	1.002	1002.4	test	Phase2	test/STIM_024.jpg	99
1403.923	0.988	987.5	test	Phase2	test/STIM_024.jpg	100
1407.412	1.15	1149.8	test	Phase2	test/STIM_025.jpg	100
1411.997	1.056	1056.5	test	Phase2	test/STIM_025.jpg	99
1415.913	0.767	767.4	test	Phase2	test/STIM_025.jpg	100
1420.544	1.146	1146.3	test	Phase2	test/STIM_026.jpg	100
1425.208	1.076	1075.6	test	Phase2	test/STIM_026.jpg	99
1429.22	1.007	1006.7	test	Phase2	test/STIM_026.jpg	100
1433.608	0.685	684.7	test	Phase2	test/STIM_027.jpg	99
1436.487	0.893	892.6	test	Phase2	test/STIM_027.jpg	100
1440.118	1.022	1022.3	test	Phase2	test/STIM_027.jpg	100
1444.67	0.908	908.0	test	Phase2	test/STIM_028.jpg	100
1448.406	0.95	950.3	test	Phase2	test/STIM_028.jpg	100
1452.615	0.75	749.5	test	Phase2	test/STIM_028.jpg	99
1456.416	0.556	556.0	test	Phase2	test/STIM_029.jpg	100
1460.617	0.938	938.5	test	Phase2	test/STIM_029.jpg	100
1463.691	0.746	745.8	test	Phase2	test/STIM_029.jpg	100
1467.305	0.744	744.4	study	Phase3	study/STIM_000.jpg	99
1470.248	0.683	683.1	study	Phase3	study/STIM_000.jpg	100
1473.534	0.673	673.0	study	Phase3	study/STIM_000.jpg	100
1476.921	1.092	1091.9	study	Phase3	study/STIM_001.jpg	100
1480.615	1.043	1043.2	study	Phase3	study/STIM_001.jpg	99
1485.087	0.661	661.2	study	Phase3	study/STIM_001.jpg	100
1488.647	0.989	988.8	study	Phase3	study/STIM_002.jpg	99
1493.349	0.648	647.9	study	Phase3	study/STIM_002.jpg	99
1496.217	0.526	525.7	study	Phase3	study/STIM_002.jpg	100
1500.614	0.753	753.3	study	Phase3	study/STIM_003.jpg	99
1503.991	0.942	942.0	study	Phase3	study/STIM_003.jpg	99
1507.068	0.707	706.6	study	Phase3	study/STIM_003.jpg	100
1511.719	0.524	523.6	study	Phase3	study/STIM_004.jpg	100
1514.606	0.598	598.5	study	Phase3	study/STIM_004.jpg	99
1519.046	1.115	1114.8	study	Phase3	study/STIM_004.jpg	100
1524.241	1.101	1100.7	study	Phase3	study/STIM_005.jpg	99
1528.43	0.539	539.2	study	Phase3	study/STIM_005.jpg	99
1532.652	0.632	631.9	study	Phase3	study/STIM_005.jpg	100
1536.779	1.058	1057.6	study	Phase3	study/STIM_006.jpg	99
1540.286	0.594	594.0	study	Phase3	study/STIM_006.jpg	100
1544.385	0.912	912.4	study	Phase3	study/STIM_006.jpg	100
1548.483	0.655	654.7	study	Phase3	study/STIM_007.jpg	99
1551.778	1.117	1116.9	study	Phase3	study/STIM_007.jpg	99
1555.271	0.689	689.4	study	Phase3	study/STIM_007.jpg	100
1559.666	1.134	1133.8	study	Phase3	study/STIM_008.jpg	99
1564.749	1.078	1077.6	study	Phase3	study/STIM_008.jpg	99
1569.566	0.775	774.8	study	Phase3	study/STIM_008.jpg	99
1573.206	1.049	1049.2	study	Phase3	study/STIM_009.jpg	100
1577.655	0.946	946.1	study	Phase3	study/STIM_009.jpg	100
1581.534	0.672	672.1	study	Phase3	study/STIM_009.jpg	100
1585.583	0.724	723.9	study	Phase3	study/STIM_010.jpg	100
1589.744	0.721	720.9	study	Phase3	study/STIM_010.jpg	99
1593.758	1.06	1059.6	study	Phase3	study/STIM_010.jpg	99
1598.664	1.083	1082.8	study	Phase3	study/STIM_011.jpg	99
1602.648	0.854	854.4	study	Phase3	study/STIM_011.jpg	100
1607.109	1.065	1065.2	study	Phase3	study/STIM_011.jpg	99
1612.271	0.556	556.3	study	Phase3	study/STIM_012.jpg	100
1616.303	0.878	878.3	study	Phase3	study/STIM_012.jpg	100
1620.839	0.679	679.3	study	Phase3	study/STIM_012.jpg	100
1625.563	0.937	937.3	study	Phase3	study/STIM_013.jpg	99
1629.044	0.844	843.6	study	Phase3	study/STIM_013.jpg	99
1633.159	0.605	604.6	study	Phase3	study/STIM_013.jpg	100
1635.85	0.627	627.4	study	Phase3	study/STIM_014.jpg	100
1640.538	0.564	564.4	study	Phase3	study/STIM_014.jpg	99
1643.772	0.763	762.6	study	Phase3	study/STIM_014.jpg	99
1648.105	0.74	740.0	study	Phase3	study/STIM_015.jpg	99
1651.337	0.98	980.5	study	Phase3	study/STIM_015.jpg	99
1655.808	0.513	513.0	study	Phase3	study/STIM_015.jpg	99
1658.64	0.573	572.7	study	Phase3	study/STIM_016.jpg	100
1662.391	0.666	665.6	study	Phase3	study/STIM_016.jpg	100
1666.399	0.596	596.1	study	Phase3	study/STIM_016.jpg	100
1669.598	1.133	1133.1	study	Phase3	study/STIM_017.jpg	100
1672.861	0.554	554.3	study	Phase3	study/STIM_017.jpg	100
1676.603	0.798	797.5	study	Phase3	study/STIM_017.jpg	99
1680.124	0.6	600.5	study	Phase3	study/STIM_018.jpg	100
1684.528	0.821	821.4	study	Phase3	study/STIM_018.jpg	100
1688.774	0.538	538.0	study	Phase3	study/STIM_018.jpg	100
1691.593	0.684	684.1	study	Phase3	study/STIM_019.jpg	99
1696.232	1.116	1115.6	study	Phase3	study/STIM_019.jpg	99
1700.794	0.742	742.0	study	Phase3	study/STIM_019.jpg	100
1705.332	0.587	587.3	study	Phase3	study/STIM_020.jpg	99
1709.808	0.58	580.5	study	Phase3	study/STIM_020.jpg	100
1714.277	0.883	883.2	study	Phase3	study/STIM_020.jpg	99
1718.5	1.039	1039.4	study	Phase3	study/STIM_021.jpg	100
1722.731	1.049	1048.8	study	Phase3	study/STIM_021.jpg	99
1727.682	1.005	1005.3	study	Phase3	study/STIM_021.jpg	100
1732.675	0.942	941.5	study	Phase3	study/STIM_022.jpg	100
1735.897	0.691	690.6	study	Phase3	study/STIM_022.jpg	100
1739.129	0.944	944.0	study	Phase3	study/STIM_022.jpg	99
1742.351	0.863	863.2	study	Phase3	study/STIM_023.jpg	100
1746.997	1.024	1024.4	study	Phase3	study/STIM_023.jpg	100
1751.747	1.073	1073.1	study	Phase3	study/STIM_023.jpg	99
1756.465	0.813	812.7	study	Phase3	study/STIM_024.jpg	100
1760.199	0.65	650.5	study	Phase3	study/STIM_024.jpg	99
1763.759	0.724	724.4	study	Phase3	study/STIM_024.jpg	99
1766.828	0.772	772.5	study	Phase3	study/STIM_025.jpg	99
1770.461	0.996	996.0	study	Phase3	study/STIM_025.jpg	99
1774.399	1.082	1081.5	study	Phase3	study/STIM_025.jpg	99
1777.631	0.721	721.3	study	Phase3	study/STIM_026.jpg	99
1780.765	0.659	659.2	study	Phase3	study/STIM_026.jpg	99
1784.134	1.087	1086.9	study	Phase3	study/STIM_026.jpg	99
1787.994	0.796	795.5	study	Phase3	study/STIM_027.jpg	99
1791.247	0.57	570.2	study	Phase3	study/STIM_027.jpg	99
1793.91	1.001	1000.6	study	Phase3	study/STIM_027.jpg	99
1798.424	0.987	987.2	study	Phase3	study/STIM_028.jpg	99
1801.817	0.852	852.2	study	Phase3	study/STIM_028.jpg	100
1805.468	0.905	904.7	study	Phase3	study/STIM_028.jpg	99
1809.547	0.72	719.5	study	Phase3	study/STIM_029.jpg	100
1813.501	0.764	763.8	study	Phase3	study/STIM_029.jpg	100
1817.218	0.976	975.7	study	Phase3	study/STIM_029.jpg	100
1821.074	0.85	849.6	test	Phase3	test/STIM_000.jpg	99
1824.322	1.087	1087.3	test	Phase3	test/STIM_000.jpg	99
1828.829	0.649	648.9	test	Phase3	test/STIM_000.jpg	100
1831.581	0.768	767.6	test	Phase3	test/STIM_001.jpg	100
1834.742	0.546	546.5	test	Phase3	test/STIM_001.jpg	99
1837.428	0.797	797.2	test	Phase3	test/STIM_001.jpg	100
1841.873	1.1	1099.7	test	Phase3	test/STIM_002.jpg	100
1846.792	0.747	747.0	test	Phase3	test/STIM_002.jpg	99
1850.228	0.918	918.1	test	Phase3	test/STIM_002.jpg	100
1853.851	0.685	685.3	test	Phase3	test/STIM_003.jpg	99
1857.658	1.114	1114.4	test	Phase3	test/STIM_003.jpg	99
1861.039	0.591	590.7	test	Phase3	test/STIM_003.jpg	100
1865.357	1.134	1134.4	test	Phase3	test/STIM_004.jpg	99
1869.601	0.981	981.3	test	Phase3	test/STIM_004.jpg	99
1873.213	0.662	661.8	test	Phase3	test/STIM_004.jpg	99
1877.503	0.834	834.2	test	Phase3	test/STIM_005.jpg	99
1882.402	0.614	614.4	test	Phase3	test/STIM_005.jpg	99
1886.809	0.956	955.6	test	Phase3	test/STIM_005.jpg	99
1890.98	0.832	831.6	test	Phase3	test/STIM_006.jpg	100
1893.993	0.904	904.3	test	Phase3	test/STIM_006.jpg	99
1897.73	0.854	853.5	test	Phase3	test/STIM_006.jpg	99
1902.286	0.892	892.3	test	Phase3	test/STIM_007.jpg	99
1907.081	0.814	813.8	test	Phase3	test/STIM_007.jpg	99
1910.92	0.696	696.2	test	Phase3	test/STIM_007.jpg	99
1915.202	0.595	594.8	test	Phase3	test/STIM_008.jpg	99
1918.784	0.554	553.8	test	Phase3	test/STIM_008.jpg	100
1923.107	1.054	1054.5	test	Phase3	test/STIM_008.jpg	100
1928.184	0.64	639.7	test	Phase3	test/STIM_009.jpg	99
1932.618	0.958	958.1	test	Phase3	test/STIM_009.jpg	100
1936.504	0.902	902.1	test	Phase3	test/STIM_009.jpg	99
1941.373	1.153	1153.1	test	Phase3	test/STIM_010.jpg	100
1945.837	0.54	540.2	test	Phase3	test/STIM_010.jpg	100
1950.105	0.559	559.2	test	Phase3	test/STIM_010.jpg	100
1952.776	1.142	1141.5	test	Phase3	test/STIM_011.jpg	99
1957.998	0.97	970.3	test	Phase3	test/STIM_011.jpg	99
1961.438	0.918	917.8	test	Phase3	test/STIM_011.jpg	99
1965.915	0.906	906.5	test	Phase3	test/STIM_012.jpg	100
1970.298	1.134	1134.3	test	Phase3	test/STIM_012.jpg	100
1975.257	1.134	1133.6	test	Phase3	test/STIM_012.jpg	100
1979.069	1.169	1169.0	test	Phase3	test/STIM_013.jpg	99
1982.496	0.865	865.4	test	Phase3	test/STIM_013.jpg	99
1985.905	0.801	800.8	test	Phase3	test/STIM_013.jpg	99
1990.441	0.748	747.9	test	Phase3	test/STIM_014.jpg	100
1994.25	0.661	661.2	test	Phase3	test/STIM_014.jpg	99
1997.539	0.805	804.7	test	Phase3	test/STIM_014.jpg	99
2001.253	0.602	601.9	test	Phase3	test/STIM_015.jpg	99
2005.171	0.68	680.3	test	Phase3	test/STIM_015.jpg	100
2008.975	0.945	944.8	test	Phase3	test/STIM_015.jpg	99
2013.312	0.573	572.7	test	Phase3	test/STIM_016.jpg	100
2017.535	0.981	981.0	test	Phase3	test/STIM_016.jpg	99
2021.918	0.981	980.8	test	Phase3	test/STIM_016.jpg	99
2025.568	0.921	921.2	test	Phase3	test/STIM_017.jpg	100
2030.076	0.804	804.2	test	Phase3	test/STIM_017.jpg	99
2033.984	0.775	774.9	test	Phase3	test/STIM_017.jpg	99
2037.805	0.673	672.6	test	Phase3	test/STIM_018.jpg	100
2042.449	0.712	712.2	test	Phase3	test/STIM_018.jpg	100
2046.205	1.002	1002.2	test	Phase3	test/STIM_018.jpg	100
2049.705	0.953	953.0	test	Phase3	test/STIM_019.jpg	100
2054.033	1.036	1035.8	test	Phase3	test/STIM_019.jpg	99
2058.075	0.992	992.0	test	Phase3	test/STIM_019.jpg	99
2062.314	0.875	874.6	test	Phase3	test/STIM_020.jpg	99
2066.755	0.774	774.1	test	Phase3	test/STIM_020.jpg	100
2069.803	0.642	641.9	test	Phase3	test/STIM_020.jpg	100
2074.006	0.735	735.3	test	Phase3	test/STIM_021.jpg	99
2077.964	0.686	686.2	test	Phase3	test/STIM_021.jpg	99
2081.494	0.787	787.3	test	Phase3	test/STIM_021.jpg	99
2084.865	1.018	1017.5	test	Phase3	test/STIM_022.jpg	99
2088.397	1.031	1031.3	test	Phase3	test/STIM_022.jpg	99
2092.788	1.093	1093.0	test	Phase3	test/STIM_022.jpg	100
2097.299	0.965	965.0	test	Phase3	test/STIM_023.jpg	99
2100.833	0.597	597.2	test	Phase3	test/STIM_023.jpg	100
2104.705	1.142	1142.3	test	Phase3	test/STIM_023.jpg	100
2108.753	0.896	895.8	test	Phase3	test/STIM_024.jpg	100
2112.035	0.804	803.7	test	Phase3	test/STIM_024.jpg	99
2115.452	1.065	1065.3	test	Phase3	test/STIM_024.jpg	99
2120.228	0.969	969.4	test	Phase3	test/STIM_025.jpg	99
2123.726	0.593	593.3	test	Phase3	test/STIM_025.jpg	100
2128.284	0.945	945.4	test	Phase3	test/STIM_025.jpg	99
2131.397	0.997	997.1	test	Phase3	test/STIM_026.jpg	99
2135.664	0.688	688.4	test	Phase3	test/STIM_026.jpg	100
2139.346	1.079	1079.1	test	Phase3	test/STIM_026.jpg	99
2143.863	0.66	659.7	test	Phase3	test/STIM_027.jpg	99
2147.348	1.16	1159.7	test	Phase3	test/STIM_027.jpg	99
2151.255	0.984	983.8	test	Phase3	test/STIM_027.jpg	100
2154.721	0.56	559.9	test	Phase3	test/STIM_028.jpg	99
2158.672	0.892	892.5	test	Phase3	test/STIM_028.jpg	99
2163.221	1.073	1072.8	test	Phase3	test/STIM_028.jpg	100
2166.717	0.942	942.1	test	Phase3	test/STIM_029.jpg	100
2171.119	1.142	1142.5	test	Phase3	test/STIM_029.jpg	100
2174.761	1.115	1115.0	test	Phase3	test/STIM_029.jpg	99
