onset	duration	accuracy	trial_type	learning_stage	stimulus
0.0	0.833	correct	incongruent	Block1	incongruent/STIM_000.jpg
3.619	1.382	correct	incongruent	Block1	incongruent/STIM_000.jpg
7.434	1.048	correct	incongruent	Block1	incongruent/STIM_000.jpg
11.744	0.693	correct	incongruent	Block1	incongruent/STIM_000.jpg
15.046	1.051	correct	incongruent	Block1	incongruent/STIM_000.jpg
19.605	0.687	incorrect	incongruent	Block1	incongruent/STIM_001.jpg
24.32	0.941	correct	incongruent	Block1	incongruent/STIM_001.jpg
28.534	1.065	incorrect	incongruent	Block1	incongruent/STIM_001.jpg
32.888	1.095	correct	incongruent	Block1	incongruent/STIM_001.jpg
37.371	0.628	correct	incongruent	Block1	incongruent/STIM_001.jpg
40.919	0.882	correct	incongruent	Block1	incongruent/STIM_002.jpg
43.981	0.768	correct	incongruent	Block1	incongruent/STIM_002.jpg
48.548	1.13	correct	incongruent	Block1	incongruent/STIM_002.jpg
53.634	0.733	correct	incongruent	Block1	incongruent/STIM_002.jpg
56.985	0.645	correct	incongruent	Block1	incongruent/STIM_002.jpg
59.725	1.016	incorrect	incongruent	Block1	incongruent/STIM_003.jpg
63.05	1.076	correct	incongruent	Block1	incongruent/STIM_003.jpg
66.958	1.245	correct	incongruent	Block1	incongruent/STIM_003.jpg
70.654	0.578	correct	incongruent	Block1	incongruent/STIM_003.jpg
74.621	0.8	correct	incongruent	Block1	incongruent/STIM_003.jpg
78.86	1.187	incorrect	incongruent	Block1	incongruent/STIM_004.jpg
83.032	1.175	correct	incongruent	Block1	incongruent/STIM_004.jpg
88.179	1.098	correct	incongruent	Block1	incongruent/STIM_004.jpg
92.436	1.08	correct	incongruent	Block1	incongruent/STIM_004.jpg
97.547	0.633	correct	incongruent	Block1	incongruent/STIM_004.jpg
100.504	1.158	correct	incongruent	Block1	incongruent/STIM_005.jpg
104.112	0.996	correct	incongruent	Block1	incongruent/STIM_005.jpg
108.787	0.581	correct	incongruent	Block1	incongruent/STIM_005.jpg
112.282	0.705	correct	incongruent	Block1	incongruent/STIM_005.jpg
115.313	0.573	correct	incongruent	Block1	incongruent/STIM_005.jpg
119.657	0.82	correct	incongruent	Block1	incongruent/STIM_006.jpg
123.438	0.996	correct	incongruent	Block1	incongruent/STIM_006.jpg
127.716	0.685	correct	incongruent	Block1	incongruent/STIM_006.jpg
131.459	1.22	correct	incongruent	Block1	incongruent/STIM_006.jpg
135.355	0.889	correct	incongruent	Block1	incongruent/STIM_006.jpg
139.143	1.156	correct	incongruent	Block1	incongruent/STIM_007.jpg
143.825	1.259	correct	incongruent	Block1	incongruent/STIM_007.jpg
147.994	1.079	incorrect	incongruent	Block1	incongruent/STIM_007.jpg
152.324	1.114	correct	incongruent	Block1	incongruent/STIM_007.jpg
157.291	0.782	correct	incongruent	Block1	incongruent/STIM_007.jpg
161.166	0.976	correct	incongruent	Block1	incongruent/STIM_008.jpg
164.541	0.709	correct	incongruent	Block1	incongruent/STIM_008.jpg
168.343	0.938	correct	incongruent	Block1	incongruent/STIM_008.jpg
172.261	1.249	correct	incongruent	Block1	incongruent/STIM_008.jpg
175.967	0.662	correct	incongruent	Block1	incongruent/STIM_008.jpg
179.845	1.056	correct	incongruent	Block1	incongruent/STIM_009.jpg
184.371	1.191	correct	incongruent	Block1	incongruent/STIM_009.jpg
187.753	0.985	correct	incongruent	Block1	incongruent/STIM_009.jpg
191.182	0.975	correct	incongruent	Block1	incongruent/STIM_009.jpg
194.97	0.87	correct	incongruent	Block1	incongruent/STIM_009.jpg
199.388	0.896	incorrect	incongruent	Block1	incongruent/STIM_010.jpg
203.394	1.28	correct	incongruent	Block1	incongruent/STIM_010.jpg
208.186	0.642	correct	incongruent	Block1	incongruent/STIM_010.jpg
212.024	1.092	correct	incongruent	Block1	incongruent/STIM_010.jpg
215.451	0.566	incorrect	incongruent	Block1	incongruent/STIM_010.jpg
219.206	0.916	correct	incongruent	Block1	incongruent/STIM_011.jpg
223.435	1.289	correct	incongruent	Block1	incongruent/STIM_011.jpg
227.48	0.905	correct	incongruent	Block1	incongruent/STIM_011.jpg
231.55	0.984	correct	incongruent	Block1	incongruent/STIM_011.jpg
236.13	0.932	correct	incongruent	Block1	incongruent/STIM_011.jpg
240.955	1.139	correct	incongruent	Block1	incongruent/STIM_012.jpg
244.674	0.958	correct	incongruent	Block1	incongruent/STIM_012.jpg
247.736	1.163	correct	incongruent	Block1	incongruent/STIM_012.jpg
252.958	0.864	correct	incongruent	Block1	incongruent/STIM_012.jpg
257.391	0.971	correct	incongruent	Block1	incongruent/STIM_012.jpg
261.758	1.326	correct	incongruent	Block1	incongruent/STIM_013.jpg
266.969	0.876	correct	incongruent	Block1	incongruent/STIM_013.jpg
270.557	1.068	correct	incongruent	Block1	incongruent/STIM_013.jpg
275.317	0.689	correct	incongruent	Block1	incongruent/STIM_013.jpg
279.113	0.712	correct	incongruent	Block1	incongruent/STIM_013.jpg
282.22	0.815	correct	incongruent	Block1	incongruent/STIM_014.jpg
286.466	0.927	correct	incongruent	Block1	incongruent/STIM_014.jpg
291.012	0.661	correct	incongruent	Block1	incongruent/STIM_014.jpg
295.68	1.019	correct	incongruent	Block1	incongruent/STIM_014.jpg
300.025	0.843	correct	incongruent	Block1	incongruent/STIM_014.jpg
303.923	1.106	correct	incongruent	Block1	incongruent/STIM_015.jpg
307.109	1.025	correct	incongruent	Block1	incongruent/STIM_015.jpg
311.44	0.756	correct	incongruent	Block1	incongruent/STIM_015.jpg
315.245	1.063	correct	incongruent	Block1	incongruent/STIM_015.jpg
319.143	0.841	correct	incongruent	Block1	incongruent/STIM_015.jpg
323.06	0.69	correct	incongruent	Block1	incongruent/STIM_016.jpg
327.194	0.716	correct	incongruent	Block1	incongruent/STIM_016.jpg
330.522	0.75	correct	incongruent	Block1	incongruent/STIM_016.jpg
335.253	1.131	correct	incongruent	Block1	incongruent/STIM_016.jpg
338.73	0.748	correct	incongruent	Block1	incongruent/STIM_016.jpg
342.893	1.212	correct	incongruent	Block1	incongruent/STIM_017.jpg
347.604	0.842	correct	incongruent	Block1	incongruent/STIM_017.jpg
351.896	1.113	correct	incongruent	Block1	incongruent/STIM_017.jpg
356.057	0.924	correct	incongruent	Block1	incongruent/STIM_017.jpg
360.878	0.791	correct	incongruent	Block1	incongruent/STIM_017.jpg
364.119	0.883	correct	incongruent	Block1	incongruent/STIM_018.jpg
368.619	0.91	correct	incongruent	Block1	incongruent/STIM_018.jpg
373.46	1.085	correct	incongruent	Block1	incongruent/STIM_018.jpg
377.742	1.145	correct	incongruent	Block1	incongruent/STIM_018.jpg
381.643	1.027	correct	incongruent	Block1	incongruent/STIM_018.jpg
386.038	1.26	correct	incongruent	Block1	incongruent/STIM_019.jpg
391.168	0.922	correct	incongruent	Block1	incongruent/STIM_019.jpg
395.805	0.676	correct	incongruent	Block1	incongruent/STIM_019.jpg
398.864	1.116	correct	incongruent	Block1	incongruent/STIM_019.jpg
403.371	0.673	correct	incongruent	Block1	incongruent/STIM_019.jpg
407.085	1.264	correct	incongruent	Block1	incongruent/STIM_020.jpg
411.659	0.966	correct	incongruent	Block1	incongruent/STIM_020.jpg
415.317	0.776	correct	incongruent	Block1	incongruent/STIM_020.jpg
419.224	0.617	correct	incongruent	Block1	incongruent/STIM_020.jpg
423.692	0.897	correct	incongruent	Block1	incongruent/STIM_020.jpg
428.46	1.205	correct	incongruent	Block1	incongruent/STIM_021.jpg
433.213	0.7	correct	incongruent	Block1	incongruent/STIM_021.jpg
436.513	0.682	correct	incongruent	Block1	incongruent/STIM_021.jpg
439.749	1.25	correct	incongruent	Block1	incongruent/STIM_021.jpg
445.0	0.943	correct	incongruent	Block1	incongruent/STIM_021.jpg
449.135	0.969	correct	incongruent	Block1	incongruent/STIM_022.jpg
453.94	0.631	correct	incongruent	Block1	incongruent/STIM_022.jpg
457.397	1.037	incorrect	incongruent	Block1	incongruent/STIM_022.jpg
461.032	1.177	incorrect	incongruent	Block1	incongruent/STIM_022.jpg
465.778	1.134	correct	incongruent	Block1	incongruent/STIM_022.jpg
470.831	1.094	correct	incongruent	Block1	incongruent/STIM_023.jpg
475.347	1.139	correct	incongruent	Block1	incongruent/STIM_023.jpg
479.711	0.914	correct	incongruent	Block1	incongruent/STIM_023.jpg
484.72	0.697	correct	incongruent	Block1	incongruent/STIM_023.jpg
488.07	0.656	correct	incongruent	Block1	incongruent/STIM_023.jpg
491.132	0.8	correct	incongruent	Block1	incongruent/STIM_024.jpg
495.756	1.265	correct	incongruent	Block1	incongruent/STIM_024.jpg
499.311	0.776	correct	incongruent	Block1	incongruent/STIM_024.jpg
503.812	0.898	correct	incongruent	Block1	incongruent/STIM_024.jpg
508.54	0.602	correct	incongruent	Block1	incongruent/STIM_024.jpg
511.27	1.113	correct	incongruent	Block1	incongruent/STIM_025.jpg
515.359	0.678	correct	incongruent	Block1	incongruent/STIM_025.jpg
518.379	0.699	correct	incongruent	Block1	incongruent/STIM_025.jpg
522.472	0.814	correct	incongruent	Block1	incongruent/STIM_025.jpg
526.223	0.804	correct	incongruent	Block1	incongruent/STIM_025.jpg
530.097	0.95	correct	incongruent	Block1	incongruent/STIM_026.jpg
533.18	1.129	correct	incongruent	Block1	incongruent/STIM_026.jpg
537.398	1.023	correct	incongruent	Block1	incongruent/STIM_026.jpg
541.266	0.689	correct	incongruent	Block1	incongruent/STIM_026.jpg
545.302	0.737	correct	incongruent	Block1	incongruent/STIM_026.jpg
548.994	1.29	correct	incongruent	Block1	incongruent/STIM_027.jpg
552.36	1.252	correct	incongruent	Block1	incongruent/STIM_027.jpg
555.975	0.889	correct	incongruent	Block1	incongruent/STIM_027.jpg
559.965	0.538	correct	incongruent	Block1	incongruent/STIM_027.jpg
562.781	0.545	incorrect	incongruent	Block1	incongruent/STIM_027.jpg
566.276	0.792	correct	incongruent	Block1	incongruent/STIM_028.jpg
570.47	0.831	incorrect	incongruent	Block1	incongruent/STIM_028.jpg
573.806	1.067	incorrect	incongruent	Block1	incongruent/STIM_028.jpg
578.63	1.162	correct	incongruent	Block1	incongruent/STIM_028.jpg
581.927	1.048	correct	incongruent	Block1	incongruent/STIM_028.jpg
585.286	1.048	correct	incongruent	Block1	incongruent/STIM_029.jpg
589.147	1.12	correct	incongruent	Block1	incongruent/STIM_029.jpg
593.961	1.133	incorrect	incongruent	Block1	incongruent/STIM_029.jpg
597.297	0.771	correct	incongruent	Block1	incongruent/STIM_029.jpg
600.69	1.123	correct	incongruent	Block1	incongruent/STIM_029.jpg
605.132	0.71	correct	congruent	Block1	congruent/STIM_000.jpg
609.689	0.548	correct	congruent	Block1	congruent/STIM_000.jpg
612.542	0.816	correct	congruent	Block1	congruent/STIM_000.jpg
615.817	0.462	correct	congruent	Block1	congruent/STIM_000.jpg
619.169	0.64	correct	congruent	Block1	congruent/STIM_000.jpg
623.183	0.776	correct	congruent	Block1	congruent/STIM_001.jpg
625.955	0.694	correct	congruent	Block1	congruent/STIM_001.jpg
629.036	0.536	incorrect	congruent	Block1	congruent/STIM_001.jpg
632.485	0.709	correct	congruent	Block1	congruent/STIM_001.jpg
637.261	0.751	correct	congruent	Block1	congruent/STIM_001.jpg
641.883	0.728	correct	congruent	Block1	congruent/STIM_002.jpg
646.152	0.753	correct	congruent	Block1	congruent/STIM_002.jpg
650.215	0.743	correct	congruent	Block1	congruent/STIM_002.jpg
653.73	0.826	correct	congruent	Block1	congruent/STIM_002.jpg
657.086	0.75	correct	congruent	Block1	congruent/STIM_002.jpg
661.805	0.732	correct	congruent	Block1	congruent/STIM_003.jpg
664.793	0.542	correct	congruent	Block1	congruent/STIM_003.jpg
668.783	0.699	correct	congruent	Block1	congruent/STIM_003.jpg
672.81	0.632	correct	congruent	Block1	congruent/STIM_003.jpg
677.147	0.52	correct	congruent	Block1	congruent/STIM_003.jpg
679.782	0.858	incorrect	congruent	Block1	congruent/STIM_004.jpg
684.006	0.807	correct	congruent	Block1	congruent/STIM_004.jpg
688.242	0.848	correct	congruent	Block1	congruent/STIM_004.jpg
692.641	0.434	correct	congruent	Block1	congruent/STIM_004.jpg
696.074	0.765	correct	congruent	Block1	congruent/STIM_004.jpg
700.875	0.425	correct	congruent	Block1	congruent/STIM_005.jpg
703.59	0.825	correct	congruent	Block1	congruent/STIM_005.jpg
708.088	0.549	correct	congruent	Block1	congruent/STIM_005.jpg
710.918	0.772	correct	congruent	Block1	congruent/STIM_005.jpg
715.588	0.697	correct	congruent	Block1	congruent/STIM_005.jpg
718.948	0.703	correct	congruent	Block1	congruent/STIM_006.jpg
723.166	0.852	correct	congruent	Block1	congruent/STIM_006.jpg
726.619	0.614	correct	congruent	Block1	congruent/STIM_006.jpg
729.608	0.705	correct	congruent	Block1	congruent/STIM_006.jpg
732.449	0.746	correct	congruent	Block1	congruent/STIM_006.jpg
736.109	0.585	correct	congruent	Block1	congruent/STIM_007.jpg
740.596	0.571	correct	congruent	Block1	congruent/STIM_007.jpg
744.119	0.588	correct	congruent	Block1	congruent/STIM_007.jpg
748.221	0.558	correct	congruent	Block1	congruent/STIM_007.jpg
752.056	0.584	correct	congruent	Block1	congruent/STIM_007.jpg
754.803	0.57	correct	congruent	Block1	congruent/STIM_008.jpg
758.853	0.788	correct	congruent	Block1	congruent/STIM_008.jpg
762.902	0.709	incorrect	congruent	Block1	congruent/STIM_008.jpg
766.39	0.498	correct	congruent	Block1	congruent/STIM_008.jpg
769.086	0.663	correct	congruent	Block1	congruent/STIM_008.jpg
773.327	0.657	correct	congruent	Block1	congruent/STIM_009.jpg
777.759	0.589	incorrect	congruent	Block1	congruent/STIM_009.jpg
782.106	0.648	correct	congruent	Block1	congruent/STIM_009.jpg
785.62	0.578	correct	congruent	Block1	congruent/STIM_009.jpg
789.811	0.624	correct	congruent	Block1	congruent/STIM_009.jpg
793.824	0.766	correct	congruent	Block1	congruent/STIM_010.jpg
798.058	0.528	correct	congruent	Block1	congruent/STIM_010.jpg
802.233	0.49	incorrect	congruent	Block1	congruent/STIM_010.jpg
806.08	0.722	correct	congruent	Block1	congruent/STIM_010.jpg
810.082	0.405	correct	congruent	Block1	congruent/STIM_010.jpg
813.712	0.473	correct	congruent	Block1	congruent/STIM_011.jpg
817.416	0.831	correct	congruent	Block1	congruent/STIM_011.jpg
821.713	0.801	correct	congruent	Block1	congruent/STIM_011.jpg
825.886	0.729	correct	congruent	Block1	congruent/STIM_011.jpg
828.782	0.573	correct	congruent	Block1	congruent/STIM_011.jpg
833.191	0.59	correct	congruent	Block1	congruent/STIM_012.jpg
836.302	0.609	correct	congruent	Block1	congruent/STIM_012.jpg
839.584	0.601	correct	congruent	Block1	congruent/STIM_012.jpg
843.117	0.495	correct	congruent	Block1	congruent/STIM_012.jpg
847.125	0.649	correct	congruent	Block1	congruent/STIM_012.jpg
850.091	0.633	correct	congruent	Block1	congruent/STIM_013.jpg
854.793	0.759	correct	congruent	Block1	congruent/STIM_013.jpg
859.181	0.806	correct	congruent	Block1	congruent/STIM_013.jpg
863.478	0.794	correct	congruent	Block1	congruent/STIM_013.jpg
868.053	0.424	correct	congruent	Block1	congruent/STIM_013.jpg
871.138	0.662	correct	congruent	Block1	congruent/STIM_014.jpg
875.245	0.686	correct	congruent	Block1	congruent/STIM_014.jpg
879.655	0.832	correct	congruent	Block1	congruent/STIM_014.jpg
883.264	0.722	correct	congruent	Block1	congruent/STIM_014.jpg
887.726	0.584	correct	congruent	Block1	congruent/STIM_014.jpg
891.914	0.673	correct	congruent	Block1	congruent/STIM_015.jpg
896.6	0.576	correct	congruent	Block1	congruent/STIM_015.jpg
899.739	0.689	correct	congruent	Block1	congruent/STIM_015.jpg
903.414	0.41	correct	congruent	Block1	congruent/STIM_015.jpg
907.536	0.791	correct	congruent	Block1	congruent/STIM_015.jpg
910.568	0.68	incorrect	congruent	Block1	congruent/STIM_016.jpg
913.662	0.424	correct	congruent	Block1	congruent/STIM_016.jpg
917.804	0.869	correct	congruent	Block1	congruent/STIM_016.jpg
922.489	0.637	correct	congruent	Block1	congruent/STIM_016.jpg
926.228	0.536	correct	congruent	Block1	congruent/STIM_016.jpg
928.74	0.778	correct	congruent	Block1	congruent/STIM_017.jpg
933.316	0.698	correct	congruent	Block1	congruent/STIM_017.jpg
937.731	0.534	correct	congruent	Block1	congruent/STIM_017.jpg
940.931	0.792	correct	congruent	Block1	congruent/STIM_017.jpg
945.553	0.825	incorrect	congruent	Block1	congruent/STIM_017.jpg
948.555	0.53	correct	congruent	Block1	congruent/STIM_018.jpg
951.876	0.685	correct	congruent	Block1	congruent/STIM_018.jpg
955.871	0.791	correct	congruent	Block1	congruent/STIM_018.jpg
959.496	0.611	correct	congruent	Block1	congruent/STIM_018.jpg
962.951	0.773	correct	congruent	Block1	congruent/STIM_018.jpg
966.095	0.626	correct	congruent	Block1	congruent/STIM_019.jpg
970.052	0.678	correct	congruent	Block1	congruent/STIM_019.jpg
973.645	0.731	correct	congruent	Block1	congruent/STIM_019.jpg
977.186	0.574	correct	congruent	Block1	congruent/STIM_019.jpg
980.859	0.62	correct	congruent	Block1	congruent/STIM_019.jpg
983.688	0.734	correct	congruent	Block1	congruent/STIM_020.jpg
987.966	0.519	correct	congruent	Block1	congruent/STIM_020.jpg
992.117	0.578	correct	congruent	Block1	congruent/STIM_020.jpg
995.303	0.558	correct	congruent	Block1	congruent/STIM_020.jpg
998.999	0.685	correct	congruent	Block1	congruent/STIM_020.jpg
1003.046	0.752	correct	congruent	Block1	congruent/STIM_021.jpg
1006.185	0.635	correct	congruent	Block1	congruent/STIM_021.jpg
1009.952	0.606	correct	congruent	Block1	congruent/STIM_021.jpg
1013.64	0.521	correct	congruent	Block1	congruent/STIM_021.jpg
1016.54	0.781	correct	congruent	Block1	congruent/STIM_021.jpg
1020.566	0.557	correct	congruent	Block1	congruent/STIM_022.jpg
1024.884	0.639	correct	congruent	Block1	congruent/STIM_022.jpg
1028.265	0.68	correct	congruent	Block1	congruent/STIM_022.jpg
1032.738	0.569	correct	congruent	Block1	congruent/STIM_022.jpg
1036.76	0.406	correct	congruent	Block1	congruent/STIM_022.jpg
1040.751	0.639	correct	congruent	Block1	congruent/STIM_023.jpg
1043.571	0.598	correct	congruent	Block1	congruent/STIM_023.jpg
1046.928	0.72	correct	congruent	Block1	congruent/STIM_023.jpg
1049.877	0.587	correct	congruent	Block1	congruent/STIM_023.jpg
1054.278	0.547	correct	congruent	Block1	congruent/STIM_023.jpg
1056.914	0.699	correct	congruent	Block1	congruent/STIM_024.jpg
1059.684	0.767	correct	congruent	Block1	congruent/STIM_024.jpg
1063.301	0.468	correct	congruent	Block1	congruent/STIM_024.jpg
1067.607	0.45	correct	congruent	Block1	congruent/STIM_024.jpg
1070.713	0.759	correct	congruent	Block1	congruent/STIM_024.jpg
1073.845	0.86	correct	congruent	Block1	congruent/STIM_025.jpg
1076.706	0.723	correct	congruent	Block1	congruent/STIM_025.jpg
1081.418	0.702	correct	congruent	Block1	congruent/STIM_025.jpg
1084.807	0.748	correct	congruent	Block1	congruent/STIM_025.jpg
1088.609	0.671	correct	congruent	Block1	congruent/STIM_025.jpg
1092.96	0.623	correct	congruent	Block1	congruent/STIM_026.jpg
1095.776	0.709	correct	congruent	Block1	congruent/STIM_026.jpg
1099.321	0.768	correct	congruent	Block1	congruent/STIM_026.jpg
1102.302	0.652	correct	congruent	Block1	congruent/STIM_026.jpg
1106.953	0.577	incorrect	congruent	Block1	congruent/STIM_026.jpg
1109.664	0.807	correct	congruent	Block1	congruent/STIM_027.jpg
1114.051	0.732	correct	congruent	Block1	congruent/STIM_027.jpg
1118.795	0.702	correct	congruent	Block1	congruent/STIM_027.jpg
1121.589	0.614	correct	congruent	Block1	congruent/STIM_027.jpg
1124.832	0.83	correct	congruent	Block1	congruent/STIM_027.jpg
1128.397	0.658	correct	congruent	Block1	congruent/STIM_028.jpg
1131.999	0.772	correct	congruent	Block1	congruent/STIM_028.jpg
1135.255	0.62	incorrect	congruent	Block1	congruent/STIM_028.jpg
1139.744	0.827	correct	congruent	Block1	congruent/STIM_028.jpg
1144.442	0.848	correct	congruent	Block1	congruent/STIM_028.jpg
1148.845	0.662	correct	congruent	Block1	congruent/STIM_029.jpg
1153.33	0.619	correct	congruent	Block1	congruent/STIM_029.jpg
1156.907	0.638	correct	congruent	Block1	congruent/STIM_029.jpg
1161.014	0.777	correct	congruent	Block1	congruent/STIM_029.jpg
1165.698	0.801	correct	congruent	Block1	congruent/STIM_029.jpg
1170.516	0.932	correct	incongruent	Block2	incongruent/STIM_000.jpg
1175.505	1.144	correct	incongruent	Block2	incongruent/STIM_000.jpg
1180.074	0.46	correct	incongruent	Block2	incongruent/STIM_000.jpg
1183.857	0.644	correct	incongruent	Block2	incongruent/STIM_000.jpg
1187.813	0.682	correct	incongruent	Block2	incongruent/STIM_000.jpg
1190.636	0.867	correct	incongruent	Block2	incongruent/STIM_001.jpg
1193.822	0.794	correct	incongruent	Block2	incongruent/STIM_001.jpg
1198.071	0.988	correct	incongruent	Block2	incongruent/STIM_001.jpg
1201.272	0.561	correct	incongruent	Block2	incongruent/STIM_001.jpg
1204.697	0.636	correct	incongruent	Block2	incongruent/STIM_001.jpg
1207.461	0.952	correct	incongruent	Block2	incongruent/STIM_002.jpg
1211.813	1.082	correct	incongruent	Block2	incongruent/STIM_002.jpg
1215.84	0.694	correct	incongruent	Block2	incongruent/STIM_002.jpg
1219.888	0.708	correct	incongruent	Block2	incongruent/STIM_002.jpg
1223.025	0.908	correct	incongruent	Block2	incongruent/STIM_002.jpg
1226.232	0.77	correct	incongruent	Block2	incongruent/STIM_003.jpg
1229.711	0.545	correct	incongruent	Block2	incongruent/STIM_003.jpg
1233.54	1.072	correct	incongruent	Block2	incongruent/STIM_003.jpg
1237.503	0.999	correct	incongruent	Block2	incongruent/STIM_003.jpg
1241.161	0.875	correct	incongruent	Block2	incongruent/STIM_003.jpg
1245.032	0.929	correct	incongruent	Block2	incongruent/STIM_004.jpg
1248.661	0.891	correct	incongruent	Block2	incongruent/STIM_004.jpg
1253.43	0.72	correct	incongruent	Block2	incongruent/STIM_004.jpg
1257.529	0.884	correct	incongruent	Block2	incongruent/STIM_004.jpg
1260.554	0.803	correct	incongruent	Block2	incongruent/STIM_004.jpg
1264.576	1.124	correct	incongruent	Block2	incongruent/STIM_005.jpg
1268.097	1.065	correct	incongruent	Block2	incongruent/STIM_005.jpg
1271.71	0.593	incorrect	incongruent	Block2	incongruent/STIM_005.jpg
1275.902	0.597	correct	incongruent	Block2	incongruent/STIM_005.jpg
1279.401	0.493	correct	incongruent	Block2	incongruent/STIM_005.jpg
1282.677	1.037	correct	incongruent	Block2	incongruent/STIM_006.jpg
1287.54	0.594	correct	incongruent	Block2	incongruent/STIM_006.jpg
1290.529	1.167	correct	incongruent	Block2	incongruent/STIM_006.jpg
1294.695	0.763	correct	incongruent	Block2	incongruent/STIM_006.jpg
1298.982	0.526	incorrect	incongruent	Block2	incongruent/STIM_006.jpg
1303.223	0.608	correct	incongruent	Block2	incongruent/STIM_007.jpg
1307.554	1.168	correct	incongruent	Block2	incongruent/STIM_007.jpg
1311.779	0.927	correct	incongruent	Block2	incongruent/STIM_007.jpg
1315.7	0.665	correct	incongruent	Block2	incongruent/STIM_007.jpg
1319.092	0.805	correct	incongruent	Block2	incongruent/STIM_007.jpg
1321.962	1.172	correct	incongruent	Block2	incongruent/STIM_008.jpg
1325.571	0.861	correct	incongruent	Block2	incongruent/STIM_008.jpg
1328.448	1.019	correct	incongruent	Block2	incongruent/STIM_008.jpg
1332.411	0.96	correct	incongruent	Block2	incongruent/STIM_008.jpg
1336.774	0.862	correct	incongruent	Block2	incongruent/STIM_008.jpg
1341.072	0.542	correct	incongruent	Block2	incongruent/STIM_009.jpg
1344.633	1.069	correct	incongruent	Block2	incongruent/STIM_009.jpg
1348.436	0.909	correct	incongruent	Block2	incongruent/STIM_009.jpg
1352.832	0.575	correct	incongruent	Block2	incongruent/STIM_009.jpg
1355.827	0.462	correct	incongruent	Block2	incongruent/STIM_009.jpg
1359.704	0.9	correct	incongruent	Block2	incongruent/STIM_010.jpg
1363.395	1.141	correct	incongruent	Block2	incongruent/STIM_010.jpg
1366.906	0.66	correct	incongruent	Block2	incongruent/STIM_010.jpg
1370.565	0.702	correct	incongruent	Block2	incongruent/STIM_010.jpg
1373.475	0.729	correct	incongruent	Block2	incongruent/STIM_010.jpg
1377.143	1.089	correct	incongruent	Block2	incongruent/STIM_011.jpg
1381.214	0.595	correct	incongruent	Block2	incongruent/STIM_011.jpg
1384.836	0.565	correct	incongruent	Block2	incongruent/STIM_011.jpg
1388.387	0.716	correct	incongruent	Block2	incongruent/STIM_011.jpg
1391.152	0.947	correct	incongruent	Block2	incongruent/STIM_011.jpg
1394.585	0.779	correct	incongruent	Block2	incongruent/STIM_012.jpg
1399.292	0.603	correct	incongruent	Block2	incongruent/STIM_012.jpg
1402.31	1.005	correct	incongruent	Block2	incongruent/STIM_012.jpg
1407.036	0.56	correct	incongruent	Block2	incongruent/STIM_012.jpg
1411.164	0.664	correct	incongruent	Block2	incongruent/STIM_012.jpg
1414.872	1.053	correct	incongruent	Block2	incongruent/STIM_013.jpg
1419.511	0.613	correct	incongruent	Block2	incongruent/STIM_013.jpg
1423.218	0.689	correct	incongruent	Block2	incongruent/STIM_013.jpg
1427.699	0.631	correct	incongruent	Block2	incongruent/STIM_013.jpg
1430.805	0.691	correct	incongruent	Block2	incongruent/STIM_013.jpg
1434.606	0.704	incorrect	incongruent	Block2	incongruent/STIM_014.jpg
1438.486	1.004	correct	incongruent	Block2	incongruent/STIM_014.jpg
1443.075	0.665	correct	incongruent	Block2	incongruent/STIM_014.jpg
1446.577	0.649	correct	incongruent	Block2	incongruent/STIM_014.jpg
1449.729	0.786	correct	incongruent	Block2	incongruent/STIM_014.jpg
1452.91	0.761	correct	incongruent	Block2	incongruent/STIM_015.jpg
1456.957	0.844	correct	incongruent	Block2	incongruent/STIM_015.jpg
1461.658	0.966	correct	incongruent	Block2	incongruent/STIM_015.jpg
1465.348	0.699	correct	incongruent	Block2	incongruent/STIM_015.jpg
1470.054	0.931	incorrect	incongruent	Block2	incongruent/STIM_015.jpg
1473.791	0.934	correct	incongruent	Block2	incongruent/STIM_016.jpg
1477.82	0.616	correct	incongruent	Block2	incongruent/STIM_016.jpg
1481.533	0.65	correct	incongruent	Block2	incongruent/STIM_016.jpg
1485.817	0.566	incorrect	incongruent	Block2	incongruent/STIM_016.jpg
1489.144	0.821	correct	incongruent	Block2	incongruent/STIM_016.jpg
1492.533	1.261	correct	incongruent	Block2	incongruent/STIM_017.jpg
1497.351	0.75	correct	incongruent	Block2	incongruent/STIM_017.jpg
1501.179	0.933	correct	incongruent	Block2	incongruent/STIM_017.jpg
1506.099	0.733	incorrect	incongruent	Block2	incongruent/STIM_017.jpg
1510.808	0.75	correct	incongruent	Block2	incongruent/STIM_017.jpg
1514.665	1.111	incorrect	incongruent	Block2	incongruent/STIM_018.jpg
1519.419	1.051	correct	incongruent	Block2	incongruent/STIM_018.jpg
1523.852	0.797	correct	incongruent	Block2	incongruent/STIM_018.jpg
1528.012	0.627	correct	incongruent	Block2	incongruent/STIM_018.jpg
1531.408	0.5	correct	incongruent	Block2	incongruent/STIM_018.jpg
1534.393	0.953	incorrect	incongruent	Block2	incongruent/STIM_019.jpg
1538.61	1.047	correct	incongruent	Block2	incongruent/STIM_019.jpg
1542.248	0.686	correct	incongruent	Block2	incongruent/STIM_019.jpg
1546.117	0.528	correct	incongruent	Block2	incongruent/STIM_019.jpg
1549.679	0.375	correct	incongruent	Block2	incongruent/STIM_019.jpg
1553.847	0.716	correct	incongruent	Block2	incongruent/STIM_020.jpg
1558.496	0.613	correct	incongruent	Block2	incongruent/STIM_020.jpg
1562.729	0.772	correct	incongruent	Block2	incongruent/STIM_020.jpg
1567.025	0.778	correct	incongruent	Block2	incongruent/STIM_020.jpg
1570.561	0.909	correct	incongruent	Block2	incongruent/STIM_020.jpg
1575.019	1.084	incorrect	incongruent	Block2	incongruent/STIM_021.jpg
1578.987	0.925	correct	incongruent	Block2	incongruent/STIM_021.jpg
1582.459	0.897	correct	incongruent	Block2	incongruent/STIM_021.jpg
1586.4	0.907	correct	incongruent	Block2	incongruent/STIM_021.jpg
1589.77	0.966	correct	incongruent	Block2	incongruent/STIM_021.jpg
1594.514	0.693	correct	incongruent	Block2	incongruent/STIM_022.jpg
1598.947	0.865	correct	incongruent	Block2	incongruent/STIM_022.jpg
1602.918	0.652	correct	incongruent	Block2	incongruent/STIM_022.jpg
1605.983	0.716	correct	incongruent	Block2	incongruent/STIM_022.jpg
1609.923	0.83	correct	incongruent	Block2	incongruent/STIM_022.jpg
1612.986	0.823	correct	incongruent	Block2	incongruent/STIM_023.jpg
1615.955	0.948	correct	incongruent	Block2	incongruent/STIM_023.jpg
1619.217	1.046	correct	incongruent	Block2	incongruent/STIM_023.jpg
1623.158	0.882	correct	incongruent	Block2	incongruent/STIM_023.jpg
1626.791	0.772	incorrect	incongruent	Block2	incongruent/STIM_023.jpg
1631.415	0.812	correct	incongruent	Block2	incongruent/STIM_024.jpg
1635.098	0.684	correct	incongruent	Block2	incongruent/STIM_024.jpg
1639.688	0.627	correct	incongruent	Block2	incongruent/STIM_024.jpg
1643.782	0.437	correct	incongruent	Block2	incongruent/STIM_024.jpg
1647.78	0.981	correct	incongruent	Block2	incongruent/STIM_024.jpg
1651.112	0.903	incorrect	incongruent	Block2	incongruent/STIM_025.jpg
1655.161	0.589	correct	incongruent	Block2	incongruent/STIM_025.jpg
1658.069	0.959	correct	incongruent	Block2	incongruent/STIM_025.jpg
1662.54	0.609	correct	incongruent	Block2	incongruent/STIM_025.jpg
1665.214	1.03	correct	incongruent	Block2	incongruent/STIM_025.jpg
1669.376	0.885	correct	incongruent	Block2	incongruent/STIM_026.jpg
1672.859	1.005	correct	incongruent	Block2	incongruent/STIM_026.jpg
1677.733	0.869	correct	incongruent	Block2	incongruent/STIM_026.jpg
1682.409	0.725	correct	incongruent	Block2	incongruent/STIM_026.jpg
1685.733	0.986	correct	incongruent	Block2	incongruent/STIM_026.jpg
1689.722	1.028	correct	incongruent	Block2	incongruent/STIM_027.jpg
1694.763	1.05	correct	incongruent	Block2	incongruent/STIM_027.jpg
1698.594	0.899	correct	incongruent	Block2	incongruent/STIM_027.jpg
1702.193	0.682	correct	incongruent	Block2	incongruent/STIM_027.jpg
1705.16	0.924	correct	incongruent	Block2	incongruent/STIM_027.jpg
1708.311	0.935	incorrect	incongruent	Block2	incongruent/STIM_028.jpg
1711.509	0.49	correct	incongruent	Block2	incongruent/STIM_028.jpg
1715.937	0.71	correct	incongruent	Block2	incongruent/STIM_028.jpg
1719.932	0.605	correct	incongruent	Block2	incongruent/STIM_028.jpg
1724.327	0.636	correct	incongruent	Block2	incongruent/STIM_028.jpg
1728.746	0.868	correct	incongruent	Block2	incongruent/STIM_029.jpg
1731.767	0.925	incorrect	incongruent	Block2	incongruent/STIM_029.jpg
1735.235	0.791	correct	incongruent	Block2	incongruent/STIM_029.jpg
1738.557	1.023	correct	incongruent	Block2	incongruent/STIM_029.jpg
1741.847	0.416	correct	incongruent	Block2	incongruent/STIM_029.jpg
1744.387	0.477	correct	congruent	Block2	congruent/STIM_000.jpg
1748.838	0.729	correct	congruent	Block2	congruent/STIM_000.jpg
1753.087	0.788	correct	congruent	Block2	congruent/STIM_000.jpg
1756.32	0.763	correct	congruent	Block2	congruent/STIM_000.jpg
1760.193	0.742	correct	congruent	Block2	congruent/STIM_000.jpg
1763.565	0.731	correct	congruent	Block2	congruent/STIM_001.jpg
1766.64	0.75	correct	congruent	Block2	congruent/STIM_001.jpg
1770.11	0.554	correct	congruent	Block2	congruent/STIM_001.jpg
1773.846	0.529	correct	congruent	Block2	congruent/STIM_001.jpg
1778.141	0.665	correct	congruent	Block2	congruent/STIM_001.jpg
1781.758	0.625	correct	congruent	Block2	congruent/STIM_002.jpg
1786.175	0.903	incorrect	congruent	Block2	congruent/STIM_002.jpg
1789.226	0.525	correct	congruent	Block2	congruent/STIM_002.jpg
1792.536	0.656	correct	congruent	Block2	congruent/STIM_002.jpg
1796.513	0.795	correct	congruent	Block2	congruent/STIM_002.jpg
1800.145	0.536	correct	congruent	Block2	congruent/STIM_003.jpg
1804.473	0.471	correct	congruent	Block2	congruent/STIM_003.jpg
1807.757	0.859	correct	congruent	Block2	congruent/STIM_003.jpg
1812.423	0.617	correct	congruent	Block2	congruent/STIM_003.jpg
1815.753	0.35	correct	congruent	Block2	congruent/STIM_003.jpg
1818.673	0.812	correct	congruent	Block2	congruent/STIM_004.jpg
1823.143	0.558	correct	congruent	Block2	congruent/STIM_004.jpg
1827.102	0.701	correct	congruent	Block2	congruent/STIM_004.jpg
1831.715	0.46	correct	congruent	Block2	congruent/STIM_004.jpg
1834.776	0.693	correct	congruent	Block2	congruent/STIM_004.jpg
1839.238	0.786	correct	congruent	Block2	congruent/STIM_005.jpg
1843.782	0.463	incorrect	congruent	Block2	congruent/STIM_005.jpg
1848.064	0.745	correct	congruent	Block2	congruent/STIM_005.jpg
1852.06	0.776	correct	congruent	Block2	congruent/STIM_005.jpg
1855.091	0.544	correct	congruent	Block2	congruent/STIM_005.jpg
1858.459	0.607	correct	congruent	Block2	congruent/STIM_006.jpg
1861.228	0.563	correct	congruent	Block2	congruent/STIM_006.jpg
1864.837	0.87	correct	congruent	Block2	congruent/STIM_006.jpg
1869.427	0.796	correct	congruent	Block2	congruent/STIM_006.jpg
1873.344	0.695	correct	congruent	Block2	congruent/STIM_006.jpg
1877.005	0.434	correct	congruent	Block2	congruent/STIM_007.jpg
1879.88	0.6	correct	congruent	Block2	congruent/STIM_007.jpg
1883.284	0.875	correct	congruent	Block2	congruent/STIM_007.jpg
1887.242	0.642	correct	congruent	Block2	congruent/STIM_007.jpg
1890.53	0.564	correct	congruent	Block2	congruent/STIM_007.jpg
1893.333	0.722	correct	congruent	Block2	congruent/STIM_008.jpg
1896.581	0.7	correct	congruent	Block2	congruent/STIM_008.jpg
1900.621	0.692	correct	congruent	Block2	congruent/STIM_008.jpg
1904.083	0.639	correct	congruent	Block2	congruent/STIM_008.jpg
1907.482	0.754	correct	congruent	Block2	congruent/STIM_008.jpg
1910.805	0.777	correct	congruent	Block2	congruent/STIM_009.jpg
1913.953	0.818	correct	congruent	Block2	congruent/STIM_009.jpg
1918.59	0.747	correct	congruent	Block2	congruent/STIM_009.jpg
1922.075	0.575	correct	congruent	Block2	congruent/STIM_009.jpg
1926.037	0.518	correct	congruent	Block2	congruent/STIM_009.jpg
1930.066	0.605	correct	congruent	Block2	congruent/STIM_010.jpg
1934.326	0.719	correct	congruent	Block2	congruent/STIM_010.jpg
1938.32	0.779	correct	congruent	Block2	congruent/STIM_010.jpg
1942.492	0.588	correct	congruent	Block2	congruent/STIM_010.jpg
1946.687	0.758	correct	congruent	Block2	congruent/STIM_010.jpg
1951.183	0.744	correct	congruent	Block2	congruent/STIM_011.jpg
1955.02	0.482	correct	congruent	Block2	congruent/STIM_011.jpg
1958.071	0.566	correct	congruent	Block2	congruent/STIM_011.jpg
1961.935	0.609	incorrect	congruent	Block2	congruent/STIM_011.jpg
1965.319	0.599	correct	congruent	Block2	congruent/STIM_011.jpg
1968.322	0.704	correct	congruent	Block2	congruent/STIM_012.jpg
1972.142	0.661	correct	congruent	Block2	congruent/STIM_012.jpg
1976.281	0.771	correct	congruent	Block2	congruent/STIM_012.jpg
1980.135	0.607	correct	congruent	Block2	congruent/STIM_012.jpg
1984.665	0.614	correct	congruent	Block2	congruent/STIM_012.jpg
1988.598	0.724	correct	congruent	Block2	congruent/STIM_013.jpg
1992.646	0.594	correct	congruent	Block2	congruent/STIM_013.jpg
1996.158	0.724	correct	congruent	Block2	congruent/STIM_013.jpg
2000.441	0.809	correct	congruent	Block2	congruent/STIM_013.jpg
2003.543	0.815	correct	congruent	Block2	congruent/STIM_013.jpg
2006.569	0.588	correct	congruent	Block2	congruent/STIM_014.jpg
2010.097	0.75	correct	congruent	Block2	congruent/STIM_014.jpg
2014.275	0.756	correct	congruent	Block2	congruent/STIM_014.jpg
2017.208	0.634	correct	congruent	Block2	congruent/STIM_014.jpg
2020.562	0.695	correct	congruent	Block2	congruent/STIM_014.jpg
2023.517	0.495	correct	congruent	Block2	congruent/STIM_015.jpg
2027.489	0.754	correct	congruent	Block2	congruent/STIM_015.jpg
2031.794	0.76	correct	congruent	Block2	congruent/STIM_015.jpg
2035.735	0.449	correct	congruent	Block2	congruent/STIM_015.jpg
2040.092	0.701	correct	congruent	Block2	congruent/STIM_015.jpg
2043.364	0.627	correct	congruent	Block2	congruent/STIM_016.jpg
2047.157	0.576	correct	congruent	Block2	congruent/STIM_016.jpg
2050.813	0.623	correct	congruent	Block2	congruent/STIM_016.jpg
2054.21	0.578	correct	congruent	Block2	congruent/STIM_016.jpg
2057.653	0.7	correct	congruent	Block2	congruent/STIM_016.jpg
2061.24	0.471	correct	congruent	Block2	congruent/STIM_017.jpg
2064.71	0.747	correct	congruent	Block2	congruent/STIM_017.jpg
2068.224	0.815	correct	congruent	Block2	congruent/STIM_017.jpg
2072.773	0.76	correct	congruent	Block2	congruent/STIM_017.jpg
2075.861	0.449	correct	congruent	Block2	congruent/STIM_017.jpg
2079.712	0.737	correct	congruent	Block2	congruent/STIM_018.jpg
2083.629	0.425	correct	congruent	Block2	congruent/STIM_018.jpg
2087.72	0.619	correct	congruent	Block2	congruent/STIM_018.jpg
2092.115	0.51	correct	congruent	Block2	congruent/STIM_018.jpg
2095.431	0.494	correct	congruent	Block2	congruent/STIM_018.jpg
2099.531	0.492	correct	congruent	Block2	congruent/STIM_019.jpg
2103.952	0.65	incorrect	congruent	Block2	congruent/STIM_019.jpg
2107.983	0.625	incorrect	congruent	Block2	congruent/STIM_019.jpg
2112.368	0.591	correct	congruent	Block2	congruent/STIM_019.jpg
2116.737	0.804	correct	congruent	Block2	congruent/STIM_019.jpg
2120.988	0.521	correct	congruent	Block2	congruent/STIM_020.jpg
2124.146	0.856	correct	congruent	Block2	congruent/STIM_020.jpg
2128.626	0.714	correct	congruent	Block2	congruent/STIM_020.jpg
2132.042	0.491	correct	congruent	Block2	congruent/STIM_020.jpg
2135.705	0.544	correct	congruent	Block2	congruent/STIM_020.jpg
2139.102	0.853	correct	congruent	Block2	congruent/STIM_021.jpg
2142.271	0.467	correct	congruent	Block2	congruent/STIM_021.jpg
2145.602	0.704	correct	congruent	Block2	congruent/STIM_021.jpg
2149.718	0.422	correct	congruent	Block2	congruent/STIM_021.jpg
2153.287	0.709	correct	congruent	Block2	congruent/STIM_021.jpg
2157.648	0.576	correct	congruent	Block2	congruent/STIM_022.jpg
2161.268	0.538	correct	congruent	Block2	congruent/STIM_022.jpg
2164.823	0.626	correct	congruent	Block2	congruent/STIM_022.jpg
2168.213	0.473	correct	congruent	Block2	congruent/STIM_022.jpg
2171.49	0.613	correct	congruent	Block2	congruent/STIM_022.jpg
2174.437	0.742	correct	congruent	Block2	congruent/STIM_023.jpg
2178.357	0.833	correct	congruent	Block2	congruent/STIM_023.jpg
2182.491	0.492	correct	congruent	Block2	congruent/STIM_023.jpg
2186.127	0.679	correct	congruent	Block2	congruent/STIM_023.jpg
2189.026	0.765	correct	congruent	Block2	congruent/STIM_023.jpg
2192.544	0.567	correct	congruent	Block2	congruent/STIM_024.jpg
2195.203	0.706	correct	congruent	Block2	congruent/STIM_024.jpg
2198.301	0.407	correct	congruent	Block2	congruent/STIM_024.jpg
2202.214	0.715	correct	congruent	Block2	congruent/STIM_024.jpg
2206.197	0.567	correct	congruent	Block2	congruent/STIM_024.jpg
2210.553	0.8	correct	congruent	Block2	congruent/STIM_025.jpg
2213.411	0.772	correct	congruent	Block2	congruent/STIM_025.jpg
2217.022	0.684	correct	congruent	Block2	congruent/STIM_025.jpg
2220.273	0.788	correct	congruent	Block2	congruent/STIM_025.jpg
2223.97	0.582	correct	congruent	Block2	congruent/STIM_025.jpg
2227.958	0.812	correct	congruent	Block2	congruent/STIM_026.jpg
2232.583	0.808	correct	congruent	Block2	congruent/STIM_026.jpg
2237.102	0.617	correct	congruent	Block2	congruent/STIM_026.jpg
2240.33	0.792	correct	congruent	Block2	congruent/STIM_026.jpg
2243.561	0.728	correct	congruent	Block2	congruent/STIM_026.jpg
2247.4	0.584	correct	congruent	Block2	congruent/STIM_027.jpg
2250.651	0.765	correct	congruent	Block2	congruent/STIM_027.jpg
2253.808	0.663	correct	congruent	Block2	congruent/STIM_027.jpg
2257.604	0.642	correct	congruent	Block2	congruent/STIM_027.jpg
2261.934	0.794	correct	congruent	Block2	congruent/STIM_027.jpg
2266.591	0.667	correct	congruent	Block2	congruent/STIM_028.jpg
2270.089	0.528	correct	congruent	Block2	congruent/STIM_028.jpg
2274.114	0.819	correct	congruent	Block2	congruent/STIM_028.jpg
2278.685	0.86	correct	congruent	Block2	congruent/STIM_028.jpg
2282.192	0.554	correct	congruent	Block2	congruent/STIM_028.jpg
2285.436	0.63	correct	congruent	Block2	congruent/STIM_029.jpg
2290.092	0.685	correct	congruent	Block2	congruent/STIM_029.jpg
2294.029	0.722	correct	congruent	Block2	congruent/STIM_029.jpg
2297.336	0.576	correct	congruent	Block2	congruent/STIM_029.jpg
2300.784	0.73	correct	congruent	Block2	congruent/STIM_029.jpg
2304.917	0.97	correct	incongruent	Block3	incongruent/STIM_000.jpg
2308.888	0.658	correct	incongruent	Block3	incongruent/STIM_000.jpg
2312.552	0.527	correct	incongruent	Block3	incongruent/STIM_000.jpg
2315.395	0.886	correct	incongruent	Block3	incongruent/STIM_000.jpg
2318.98	0.524	correct	incongruent	Block3	incongruent/STIM_000.jpg
2322.689	0.968	correct	incongruent	Block3	incongruent/STIM_001.jpg
2326.759	0.779	correct	incongruent	Block3	incongruent/STIM_001.jpg
2331.144	0.537	correct	incongruent	Block3	incongruent/STIM_001.jpg
2334.985	0.696	correct	incongruent	Block3	incongruent/STIM_001.jpg
2338.044	0.596	correct	incongruent	Block3	incongruent/STIM_001.jpg
2341.15	0.594	correct	incongruent	Block3	incongruent/STIM_002.jpg
2344.111	0.464	correct	incongruent	Block3	incongruent/STIM_002.jpg
2347.876	0.965	correct	incongruent	Block3	incongruent/STIM_002.jpg
2351.309	0.652	correct	incongruent	Block3	incongruent/STIM_002.jpg
2354.307	0.7	correct	incongruent	Block3	incongruent/STIM_002.jpg
2358.016	0.855	correct	incongruent	Block3	incongruent/STIM_003.jpg
2362.059	0.81	correct	incongruent	Block3	incongruent/STIM_003.jpg
2366.137	0.46	correct	incongruent	Block3	incongruent/STIM_003.jpg
2369.289	0.619	correct	incongruent	Block3	incongruent/STIM_003.jpg
2372.867	0.57	correct	incongruent	Block3	incongruent/STIM_003.jpg
2375.999	0.682	correct	incongruent	Block3	incongruent/STIM_004.jpg
2379.343	0.55	correct	incongruent	Block3	incongruent/STIM_004.jpg
2382.38	0.701	correct	incongruent	Block3	incongruent/STIM_004.jpg
2385.85	0.522	correct	incongruent	Block3	incongruent/STIM_004.jpg
2388.918	0.557	correct	incongruent	Block3	incongruent/STIM_004.jpg
2391.753	0.782	correct	incongruent	Block3	incongruent/STIM_005.jpg
2396.119	0.836	correct	incongruent	Block3	incongruent/STIM_005.jpg
2400.593	0.899	correct	incongruent	Block3	incongruent/STIM_005.jpg
2404.91	0.536	correct	incongruent	Block3	incongruent/STIM_005.jpg
2408.339	0.687	correct	incongruent	Block3	incongruent/STIM_005.jpg
2411.338	0.422	correct	incongruent	Block3	incongruent/STIM_006.jpg
2415.843	0.935	correct	incongruent	Block3	incongruent/STIM_006.jpg
2419.811	0.738	correct	incongruent	Block3	incongruent/STIM_006.jpg
2422.99	0.614	correct	incongruent	Block3	incongruent/STIM_006.jpg
2427.048	0.736	correct	incongruent	Block3	incongruent/STIM_006.jpg
2430.586	0.49	incorrect	incongruent	Block3	incongruent/STIM_007.jpg
2433.867	1.034	correct	incongruent	Block3	incongruent/STIM_007.jpg
2437.81	0.586	correct	incongruent	Block3	incongruent/STIM_007.jpg
2440.717	0.695	correct	incongruent	Block3	incongruent/STIM_007.jpg
2445.248	0.514	correct	incongruent	Block3	incongruent/STIM_007.jpg
2449.008	0.731	correct	incongruent	Block3	incongruent/STIM_008.jpg
2452.423	0.606	correct	incongruent	Block3	incongruent/STIM_008.jpg
2455.285	0.552	correct	incongruent	Block3	incongruent/STIM_008.jpg
2458.528	0.766	correct	incongruent	Block3	incongruent/STIM_008.jpg
2462.98	0.515	correct	incongruent	Block3	incongruent/STIM_008.jpg
2467.197	0.682	correct	incongruent	Block3	incongruent/STIM_009.jpg
2470.743	0.512	correct	incongruent	Block3	incongruent/STIM_009.jpg
2473.846	0.643	correct	incongruent	Block3	incongruent/STIM_009.jpg
2477.305	0.537	correct	incongruent	Block3	incongruent/STIM_009.jpg
2481.052	1.064	correct	incongruent	Block3	incongruent/STIM_009.jpg
2486.05	0.528	correct	incongruent	Block3	incongruent/STIM_010.jpg
2490.242	0.897	correct	incongruent	Block3	incongruent/STIM_010.jpg
2493.253	0.535	correct	incongruent	Block3	incongruent/STIM_010.jpg
2496.097	0.546	correct	incongruent	Block3	incongruent/STIM_010.jpg
2499.876	0.58	correct	incongruent	Block3	incongruent/STIM_010.jpg
2502.932	0.654	correct	incongruent	Block3	incongruent/STIM_011.jpg
2507.526	0.764	correct	incongruent	Block3	incongruent/STIM_011.jpg
2512.024	0.509	correct	incongruent	Block3	incongruent/STIM_011.jpg
2515.743	0.801	correct	incongruent	Block3	incongruent/STIM_011.jpg
2519.968	0.816	correct	incongruent	Block3	incongruent/STIM_011.jpg
2522.894	0.86	correct	incongruent	Block3	incongruent/STIM_012.jpg
2527.226	0.729	correct	incongruent	Block3	incongruent/STIM_012.jpg
2531.1	0.797	correct	incongruent	Block3	incongruent/STIM_012.jpg
2535.315	0.935	incorrect	incongruent	Block3	incongruent/STIM_012.jpg
2539.472	0.596	correct	incongruent	Block3	incongruent/STIM_012.jpg
2542.628	0.58	correct	incongruent	Block3	incongruent/STIM_013.jpg
2546.816	0.886	correct	incongruent	Block3	incongruent/STIM_013.jpg
2549.958	0.546	correct	incongruent	Block3	incongruent/STIM_013.jpg
2552.696	0.804	correct	incongruent	Block3	incongruent/STIM_013.jpg
2556.944	0.612	correct	incongruent	Block3	incongruent/STIM_013.jpg
2560.531	0.823	correct	incongruent	Block3	incongruent/STIM_014.jpg
2563.651	0.875	correct	incongruent	Block3	incongruent/STIM_014.jpg
2568.249	0.538	correct	incongruent	Block3	incongruent/STIM_014.jpg
2572.742	0.763	correct	incongruent	Block3	incongruent/STIM_014.jpg
2577.002	0.673	correct	incongruent	Block3	incongruent/STIM_014.jpg
2580.774	0.546	correct	incongruent	Block3	incongruent/STIM_015.jpg
2583.568	1.013	correct	incongruent	Block3	incongruent/STIM_015.jpg
2588.026	0.618	correct	incongruent	Block3	incongruent/STIM_015.jpg
2592.32	0.865	correct	incongruent	Block3	incongruent/STIM_015.jpg
2595.947	0.477	correct	incongruent	Block3	incongruent/STIM_015.jpg
2599.603	0.943	correct	incongruent	Block3	incongruent/STIM_016.jpg
2602.687	0.55	correct	incongruent	Block3	incongruent/STIM_016.jpg
2606.229	0.778	correct	incongruent	Block3	incongruent/STIM_016.jpg
2610.537	0.621	correct	incongruent	Block3	incongruent/STIM_016.jpg
2613.846	0.563	correct	incongruent	Block3	incongruent/STIM_016.jpg
2618.319	0.774	correct	incongruent	Block3	incongruent/STIM_017.jpg
2622.084	0.725	correct	incongruent	Block3	incongruent/STIM_017.jpg
2626.74	0.786	correct	incongruent	Block3	incongruent/STIM_017.jpg
2630.83	0.858	correct	incongruent	Block3	incongruent/STIM_017.jpg
2633.95	0.75	correct	incongruent	Block3	incongruent/STIM_017.jpg
2638.673	0.596	correct	incongruent	Block3	incongruent/STIM_018.jpg
2641.496	0.943	correct	incongruent	Block3	incongruent/STIM_018.jpg
2646.08	0.624	correct	incongruent	Block3	incongruent/STIM_018.jpg
2648.748	0.818	correct	incongruent	Block3	incongruent/STIM_018.jpg
2651.992	0.929	correct	incongruent	Block3	incongruent/STIM_018.jpg
2656.762	0.921	correct	incongruent	Block3	incongruent/STIM_019.jpg
2659.961	0.724	correct	incongruent	Block3	incongruent/STIM_019.jpg
2664.155	0.945	correct	incongruent	Block3	incongruent/STIM_019.jpg
2667.974	0.96	correct	incongruent	Block3	incongruent/STIM_019.jpg
2671.607	0.942	correct	incongruent	Block3	incongruent/STIM_019.jpg
2675.424	0.673	correct	incongruent	Block3	incongruent/STIM_020.jpg
2678.135	0.461	correct	incongruent	Block3	incongruent/STIM_020.jpg
2681.954	0.608	correct	incongruent	Block3	incongruent/STIM_020.jpg
2685.818	0.769	correct	incongruent	Block3	incongruent/STIM_020.jpg
2689.183	0.792	correct	incongruent	Block3	incongruent/STIM_020.jpg
2692.162	0.963	correct	incongruent	Block3	incongruent/STIM_021.jpg
2696.434	0.432	correct	incongruent	Block3	incongruent/STIM_021.jpg
2699.665	0.51	correct	incongruent	Block3	incongruent/STIM_021.jpg
2702.482	0.752	correct	incongruent	Block3	incongruent/STIM_021.jpg
2706.875	0.709	correct	incongruent	Block3	incongruent/STIM_021.jpg
2711.133	0.765	correct	incongruent	Block3	incongruent/STIM_022.jpg
2714.677	0.491	correct	incongruent	Block3	incongruent/STIM_022.jpg
2717.946	0.849	correct	incongruent	Block3	incongruent/STIM_022.jpg
2721.488	0.856	correct	incongruent	Block3	incongruent/STIM_022.jpg
2724.429	0.804	correct	incongruent	Block3	incongruent/STIM_022.jpg
2729.163	0.666	correct	incongruent	Block3	incongruent/STIM_023.jpg
2733.428	0.667	correct	incongruent	Block3	incongruent/STIM_023.jpg
2736.928	0.918	correct	incongruent	Block3	incongruent/STIM_023.jpg
2741.547	0.935	correct	incongruent	Block3	incongruent/STIM_023.jpg
2745.14	0.838	correct	incongruent	Block3	incongruent/STIM_023.jpg
2749.782	0.754	correct	incongruent	Block3	incongruent/STIM_024.jpg
2753.038	0.954	correct	incongruent	Block3	incongruent/STIM_024.jpg
2757.522	0.795	correct	incongruent	Block3	incongruent/STIM_024.jpg
2761.936	0.93	correct	incongruent	Block3	incongruent/STIM_024.jpg
2766.681	0.932	correct	incongruent	Block3	incongruent/STIM_024.jpg
2771.614	0.386	correct	incongruent	Block3	incongruent/STIM_025.jpg
2774.303	0.68	correct	incongruent	Block3	incongruent/STIM_025.jpg
2778.584	0.589	correct	incongruent	Block3	incongruent/STIM_025.jpg
2782.797	0.723	correct	incongruent	Block3	incongruent/STIM_025.jpg
2787.485	0.614	correct	incongruent	Block3	incongruent/STIM_025.jpg
2791.244	0.445	correct	incongruent	Block3	incongruent/STIM_026.jpg
2795.046	0.44	correct	incongruent	Block3	incongruent/STIM_026.jpg
2799.213	0.54	correct	incongruent	Block3	incongruent/STIM_026.jpg
2802.229	0.634	correct	incongruent	Block3	incongruent/STIM_026.jpg
2806.171	0.541	correct	incongruent	Block3	incongruent/STIM_026.jpg
2810.451	0.463	correct	incongruent	Block3	incongruent/STIM_027.jpg
2813.113	0.767	correct	incongruent	Block3	incongruent/STIM_027.jpg
2817.385	0.898	correct	incongruent	Block3	incongruent/STIM_027.jpg
2822.042	0.942	correct	incongruent	Block3	incongruent/STIM_027.jpg
2825.949	0.976	correct	incongruent	Block3	incongruent/STIM_027.jpg
2829.885	0.606	correct	incongruent	Block3	incongruent/STIM_028.jpg
2834.063	0.807	correct	incongruent	Block3	incongruent/STIM_028.jpg
2838.391	0.825	correct	incongruent	Block3	incongruent/STIM_028.jpg
2841.539	0.579	correct	incongruent	Block3	incongruent/STIM_028.jpg
2845.493	0.895	correct	incongruent	Block3	incongruent/STIM_028.jpg
2850.197	0.489	correct	incongruent	Block3	incongruent/STIM_029.jpg
2854.24	0.863	correct	incongruent	Block3	incongruent/STIM_029.jpg
2858.951	0.69	correct	incongruent	Block3	incongruent/STIM_029.jpg
2863.527	0.592	correct	incongruent	Block3	incongruent/STIM_029.jpg
2868.023	0.756	correct	incongruent	Block3	incongruent/STIM_029.jpg
2870.96	0.567	correct	congruent	Block3	congruent/STIM_000.jpg
2873.989	0.635	correct	congruent	Block3	congruent/STIM_000.jpg
2877.78	0.6	correct	congruent	Block3	congruent/STIM_000.jpg
2880.991	0.72	correct	congruent	Block3	congruent/STIM_000.jpg
2885.346	0.706	correct	congruent	Block3	congruent/STIM_000.jpg
2889.175	0.53	correct	congruent	Block3	congruent/STIM_001.jpg
2893.683	0.803	correct	congruent	Block3	congruent/STIM_001.jpg
2898.039	0.455	correct	congruent	Block3	congruent/STIM_001.jpg
2902.0	0.67	correct	congruent	Block3	congruent/STIM_001.jpg
2906.272	0.497	correct	congruent	Block3	congruent/STIM_001.jpg
2909.493	0.637	correct	congruent	Block3	congruent/STIM_002.jpg
2913.695	0.826	correct	congruent	Block3	congruent/STIM_002.jpg
2918.195	0.742	correct	congruent	Block3	congruent/STIM_002.jpg
2921.313	0.76	correct	congruent	Block3	congruent/STIM_002.jpg
2925.177	0.816	correct	congruent	Block3	congruent/STIM_002.jpg
2928.108	0.775	correct	congruent	Block3	congruent/STIM_003.jpg
2930.944	0.435	incorrect	congruent	Block3	congruent/STIM_003.jpg
2934.339	0.921	correct	congruent	Block3	congruent/STIM_003.jpg
2939.081	0.613	correct	congruent	Block3	congruent/STIM_003.jpg
2943.213	0.74	incorrect	congruent	Block3	congruent/STIM_003.jpg
2946.325	0.634	correct	congruent	Block3	congruent/STIM_004.jpg
2949.202	0.456	correct	congruent	Block3	congruent/STIM_004.jpg
2953.339	0.586	correct	congruent	Block3	congruent/STIM_004.jpg
2956.657	0.758	correct	congruent	Block3	congruent/STIM_004.jpg
2959.525	0.542	correct	congruent	Block3	congruent/STIM_004.jpg
2963.181	0.795	correct	congruent	Block3	congruent/STIM_005.jpg
2967.085	0.825	correct	congruent	Block3	congruent/STIM_005.jpg
2970.609	0.494	correct	congruent	Block3	congruent/STIM_005.jpg
2973.782	0.677	correct	congruent	Block3	congruent/STIM_005.jpg
2977.549	0.497	correct	congruent	Block3	congruent/STIM_005.jpg
2980.681	0.625	correct	congruent	Block3	congruent/STIM_006.jpg
2983.359	0.799	correct	congruent	Block3	congruent/STIM_006.jpg
2988.126	0.509	correct	congruent	Block3	congruent/STIM_006.jpg
2991.772	0.671	correct	congruent	Block3	congruent/STIM_006.jpg
2994.687	0.573	correct	congruent	Block3	congruent/STIM_006.jpg
2998.902	0.707	correct	congruent	Block3	congruent/STIM_007.jpg
3001.78	0.774	correct	congruent	Block3	congruent/STIM_007.jpg
3005.627	0.816	correct	congruent	Block3	congruent/STIM_007.jpg
3009.917	0.477	correct	congruent	Block3	congruent/STIM_007.jpg
3013.299	0.679	correct	congruent	Block3	congruent/STIM_007.jpg
3016.659	0.729	correct	congruent	Block3	congruent/STIM_008.jpg
3019.916	0.846	correct	congruent	Block3	congruent/STIM_008.jpg
3024.432	0.607	correct	congruent	Block3	congruent/STIM_008.jpg
3028.376	0.768	correct	congruent	Block3	congruent/STIM_008.jpg
3031.284	0.526	correct	congruent	Block3	congruent/STIM_008.jpg
3034.289	0.487	correct	congruent	Block3	congruent/STIM_009.jpg
3038.728	0.52	correct	congruent	Block3	congruent/STIM_009.jpg
3042.069	0.576	correct	congruent	Block3	congruent/STIM_009.jpg
3045.627	0.878	correct	congruent	Block3	congruent/STIM_009.jpg
3049.009	0.575	correct	congruent	Block3	congruent/STIM_009.jpg
3053.232	0.765	correct	congruent	Block3	congruent/STIM_010.jpg
3056.717	0.522	correct	congruent	Block3	congruent/STIM_010.jpg
3059.307	0.787	correct	congruent	Block3	congruent/STIM_010.jpg
3062.435	0.73	correct	congruent	Block3	congruent/STIM_010.jpg
3065.419	0.521	correct	congruent	Block3	congruent/STIM_010.jpg
3068.41	0.708	correct	congruent	Block3	congruent/STIM_011.jpg
3072.382	0.506	correct	congruent	Block3	congruent/STIM_011.jpg
3076.999	0.487	correct	congruent	Block3	congruent/STIM_011.jpg
3079.769	0.758	correct	congruent	Block3	congruent/STIM_011.jpg
3083.586	0.72	correct	congruent	Block3	congruent/STIM_011.jpg
3086.826	0.544	correct	congruent	Block3	congruent/STIM_012.jpg
3091.446	0.808	correct	congruent	Block3	congruent/STIM_012.jpg
3095.282	0.69	correct	congruent	Block3	congruent/STIM_012.jpg
3098.082	0.513	correct	congruent	Block3	congruent/STIM_012.jpg
3101.29	0.481	correct	congruent	Block3	congruent/STIM_012.jpg
3104.766	0.76	correct	congruent	Block3	congruent/STIM_013.jpg
3107.82	0.7	correct	congruent	Block3	congruent/STIM_013.jpg
3111.563	0.665	correct	congruent	Block3	congruent/STIM_013.jpg
3115.038	0.512	correct	congruent	Block3	congruent/STIM_013.jpg
3119.594	0.481	correct	congruent	Block3	congruent/STIM_013.jpg
3123.368	0.747	correct	congruent	Block3	congruent/STIM_014.jpg
3126.764	0.649	correct	congruent	Block3	congruent/STIM_014.jpg
3130.493	0.827	correct	congruent	Block3	congruent/STIM_014.jpg
3134.306	0.735	correct	congruent	Block3	congruent/STIM_014.jpg
3137.299	0.753	incorrect	congruent	Block3	congruent/STIM_014.jpg
3141.978	0.643	correct	congruent	Block3	congruent/STIM_015.jpg
3145.067	0.543	correct	congruent	Block3	congruent/STIM_015.jpg
3148.204	0.581	correct	congruent	Block3	congruent/STIM_015.jpg
3152.213	0.66	correct	congruent	Block3	congruent/STIM_015.jpg
3155.671	0.575	correct	congruent	Block3	congruent/STIM_015.jpg
3159.528	0.412	correct	congruent	Block3	congruent/STIM_016.jpg
3162.989	0.516	correct	congruent	Block3	congruent/STIM_016.jpg
3166.646	0.752	correct	congruent	Block3	congruent/STIM_016.jpg
3170.068	0.583	correct	congruent	Block3	congruent/STIM_016.jpg
3174.012	0.757	correct	congruent	Block3	congruent/STIM_016.jpg
3177.718	0.789	correct	congruent	Block3	congruent/STIM_017.jpg
3181.701	0.704	correct	congruent	Block3	congruent/STIM_017.jpg
3185.183	0.636	correct	congruent	Block3	congruent/STIM_017.jpg
3188.426	0.463	correct	congruent	Block3	congruent/STIM_017.jpg
3191.548	0.796	correct	congruent	Block3	congruent/STIM_017.jpg
3194.703	0.741	correct	congruent	Block3	congruent/STIM_018.jpg
3198.118	0.736	correct	congruent	Block3	congruent/STIM_018.jpg
3202.373	0.632	correct	congruent	Block3	congruent/STIM_018.jpg
3205.968	0.854	correct	congruent	Block3	congruent/STIM_018.jpg
3209.868	0.582	correct	congruent	Block3	congruent/STIM_018.jpg
3214.0	0.734	correct	congruent	Block3	congruent/STIM_019.jpg
3217.373	0.564	incorrect	congruent	Block3	congruent/STIM_019.jpg
3221.939	0.805	correct	congruent	Block3	congruent/STIM_019.jpg
3225.293	0.807	correct	congruent	Block3	congruent/STIM_019.jpg
3229.205	0.727	correct	congruent	Block3	congruent/STIM_019.jpg
3232.293	0.513	correct	congruent	Block3	congruent/STIM_020.jpg
3236.166	0.467	correct	congruent	Block3	congruent/STIM_020.jpg
3239.794	0.631	correct	congruent	Block3	congruent/STIM_020.jpg
3244.159	0.581	correct	congruent	Block3	congruent/STIM_020.jpg
3248.268	0.479	correct	congruent	Block3	congruent/STIM_020.jpg
3252.757	0.854	correct	congruent	Block3	congruent/STIM_021.jpg
3255.891	0.483	correct	congruent	Block3	congruent/STIM_021.jpg
3259.946	0.734	incorrect	congruent	Block3	congruent/STIM_021.jpg
3262.822	0.468	correct	congruent	Block3	congruent/STIM_021.jpg
3266.876	0.665	correct	congruent	Block3	congruent/STIM_021.jpg
3271.498	0.615	correct	congruent	Block3	congruent/STIM_022.jpg
3276.068	0.736	correct	congruent	Block3	congruent/STIM_022.jpg
3279.254	0.754	incorrect	congruent	Block3	congruent/STIM_022.jpg
3283.564	0.581	correct	congruent	Block3	congruent/STIM_022.jpg
3287.212	0.599	correct	congruent	Block3	congruent/STIM_022.jpg
3291.826	0.838	correct	congruent	Block3	congruent/STIM_023.jpg
3295.481	0.585	correct	congruent	Block3	congruent/STIM_023.jpg
3299.674	0.722	correct	congruent	Block3	congruent/STIM_023.jpg
3304.471	0.421	correct	congruent	Block3	congruent/STIM_023.jpg
3307.416	0.585	correct	congruent	Block3	congruent/STIM_023.jpg
3310.084	0.768	correct	congruent	Block3	congruent/STIM_024.jpg
3313.28	0.675	correct	congruent	Block3	congruent/STIM_024.jpg
3317.501	0.635	correct	congruent	Block3	congruent/STIM_024.jpg
3321.548	0.666	correct	congruent	Block3	congruent/STIM_024.jpg
3324.233	0.578	correct	congruent	Block3	congruent/STIM_024.jpg
3328.46	0.804	correct	congruent	Block3	congruent/STIM_025.jpg
3331.66	0.478	correct	congruent	Block3	congruent/STIM_025.jpg
3336.09	0.842	correct	congruent	Block3	congruent/STIM_025.jpg
3340.237	0.565	correct	congruent	Block3	congruent/STIM_025.jpg
3342.891	0.852	correct	congruent	Block3	congruent/STIM_025.jpg
3345.998	0.664	correct	congruent	Block3	congruent/STIM_026.jpg
3348.674	0.635	correct	congruent	Block3	congruent/STIM_026.jpg
3353.17	0.886	correct	congruent	Block3	congruent/STIM_026.jpg
3356.293	0.731	correct	congruent	Block3	congruent/STIM_026.jpg
3360.92	0.398	correct	congruent	Block3	congruent/STIM_026.jpg
3363.688	0.85	correct	congruent	Block3	congruent/STIM_027.jpg
3367.203	0.534	correct	congruent	Block3	congruent/STIM_027.jpg
3370.292	0.833	incorrect	congruent	Block3	congruent/STIM_027.jpg
3373.495	0.68	correct	congruent	Block3	congruent/STIM_027.jpg
3377.889	0.697	correct	congruent	Block3	congruent/STIM_027.jpg
3381.886	0.638	correct	congruent	Block3	congruent/STIM_028.jpg
3385.278	0.524	correct	congruent	Block3	congruent/STIM_028.jpg
3388.04	0.9	correct	congruent	Block3	congruent/STIM_028.jpg
3392.29	0.81	correct	congruent	Block3	congruent/STIM_028.jpg
3396.952	0.595	correct	congruent	Block3	congruent/STIM_028.jpg
3400.568	0.647	correct	congruent	Block3	congruent/STIM_029.jpg
3404.857	0.717	correct	congruent	Block3	congruent/STIM_029.jpg
3408.161	0.491	correct	congruent	Block3	congruent/STIM_029.jpg
3411.775	0.435	correct	congruent	Block3	congruent/STIM_029.jpg
3414.992	0.6	correct	congruent	Block3	congruent/STIM_029.jpg
