onset	duration	response_time_ms	trial_type	learning_stage	stimulus	response_port
0.0	0.963	963.4	incongruent	Block1	incongruent/STIM_000.jpg	99
3.89	1.033	1032.6	incongruent	Block1	incongruent/STIM_000.jpg	100
8.123	0.668	668.4	incongruent	Block1	incongruent/STIM_000.jpg	99
11.322	0.782	782.0	incongruent	Block1	incongruent/STIM_000.jpg	100
14.792	0.822	821.6	incongruent	Block1	incongruent/STIM_000.jpg	99
18.082	0.555	554.6	incongruent	Block1	incongruent/STIM_001.jpg	100
22.597	1.046	1045.7	incongruent	Block1	incongruent/STIM_001.jpg	100
26.637	0.944	944.1	incongruent	Block1	incongruent/STIM_001.jpg	99
30.071	0.555	555.0	incongruent	Block1	incongruent/STIM_001.jpg	100
33.623	0.843	842.6	incongruent	Block1	incongruent/STIM_001.jpg	100
37.694	1.127	1126.8	incongruent	Block1	incongruent/STIM_002.jpg	100
41.066	0.936	936.1	incongruent	Block1	incongruent/STIM_002.jpg	99
44.756	0.892	891.8	incongruent	Block1	incongruent/STIM_002.jpg	100
48.491	0.481	481.0	incongruent	Block1	incongruent/STIM_002.jpg	100
52.283	0.821	820.6	incongruent	Block1	incongruent/STIM_002.jpg	99
55.372	1.033	1033.1	incongruent	Block1	incongruent/STIM_003.jpg	99
59.537	0.641	641.4	incongruent	Block1	incongruent/STIM_003.jpg	99
63.499	0.607	607.2	incongruent	Block1	incongruent/STIM_003.jpg	99
66.959	0.747	747.1	incongruent	Block1	incongruent/STIM_003.jpg	99
71.52	0.89	889.8	incongruent	Block1	incongruent/STIM_003.jpg	99
75.68	0.695	694.8	incongruent	Block1	incongruent/STIM_004.jpg	100
78.915	0.566	566.1	incongruent	Block1	incongruent/STIM_004.jpg	100
81.786	0.504	504.0	incongruent	Block1	incongruent/STIM_004.jpg	100
84.905	0.805	804.6	incongruent	Block1	incongruent/STIM_004.jpg	99
88.753	0.447	446.6	incongruent	Block1	incongruent/STIM_004.jpg	100
93.129	1.174	1174.4	incongruent	Block1	incongruent/STIM_005.jpg	100
96.681	0.764	764.3	incongruent	Block1	incongruent/STIM_005.jpg	100
100.321	0.688	687.7	incongruent	Block1	incongruent/STIM_005.jpg	100
104.938	0.592	592.2	incongruent	Block1	incongruent/STIM_005.jpg	100
109.261	0.452	451.8	incongruent	Block1	incongruent/STIM_005.jpg	99
113.276	1.045	1044.6	incongruent	Block1	incongruent/STIM_006.jpg	100
116.783	1.079	1079.1	incongruent	Block1	incongruent/STIM_006.jpg	100
121.268	1.006	1005.6	incongruent	Block1	incongruent/STIM_006.jpg	100
126.038	0.872	872.4	incongruent	Block1	incongruent/STIM_006.jpg	99
129.332	0.579	578.8	incongruent	Block1	incongruent/STIM_006.jpg	100
133.83	0.799	798.8	incongruent	Block1	incongruent/STIM_007.jpg	100
137.354	0.706	706.2	incongruent	Block1	incongruent/STIM_007.jpg	99
140.304	0.774	774.3	incongruent	Block1	incongruent/STIM_007.jpg	99
143.542	0.641	640.8	incongruent	Block1	incongruent/STIM_007.jpg	99
146.99	0.526	526.2	incongruent	Block1	incongruent/STIM_007.jpg	99
151.506	0.812	812.5	incongruent	Block1	incongruent/STIM_008.jpg	99
155.419	0.689	688.7	incongruent	Block1	incongruent/STIM_008.jpg	99
159.03	1.055	1055.1	incongruent	Block1	incongruent/STIM_008.jpg	100
163.101	0.803	803.2	incongruent	Block1	incongruent/STIM_008.jpg	100
167.393	0.566	565.6	incongruent	Block1	incongruent/STIM_008.jpg	100
171.096	0.885	884.8	incongruent	Block1	incongruent/STIM_009.jpg	99
174.593	1.019	1018.9	incongruent	Block1	incongruent/STIM_009.jpg	100
178.147	0.92	920.3	incongruent	Block1	incongruent/STIM_009.jpg	99
182.801	0.506	506.0	incongruent	Block1	incongruent/STIM_009.jpg	100
185.738	0.621	620.8	incongruent	Block1	incongruent/STIM_009.jpg	99
189.476	0.562	562.3	incongruent	Block1	incongruent/STIM_010.jpg	100
193.201	0.695	695.4	incongruent	Block1	incongruent/STIM_010.jpg	100
195.943	0.595	595.2	incongruent	Block1	incongruent/STIM_010.jpg	99
200.006	0.871	871.1	incongruent	Block1	incongruent/STIM_010.jpg	99
204.085	0.788	787.9	incongruent	Block1	incongruent/STIM_010.jpg	100
208.463	0.68	680.2	incongruent	Block1	incongruent/STIM_011.jpg	99
212.518	0.855	854.8	incongruent	Block1	incongruent/STIM_011.jpg	100
215.632	1.031	1030.6	incongruent	Block1	incongruent/STIM_011.jpg	100
219.632	0.479	479.0	incongruent	Block1	incongruent/STIM_011.jpg	100
223.032	0.492	491.7	incongruent	Block1	incongruent/STIM_011.jpg	100
225.661	0.611	611.0	incongruent	Block1	incongruent/STIM_012.jpg	100
228.629	0.632	632.0	incongruent	Block1	incongruent/STIM_012.jpg	99
231.878	0.519	519.4	incongruent	Block1	incongruent/STIM_012.jpg	100
234.539	0.764	763.9	incongruent	Block1	incongruent/STIM_012.jpg	99
239.022	0.513	513.2	incongruent	Block1	incongruent/STIM_012.jpg	100
243.379	0.555	555.4	incongruent	Block1	incongruent/STIM_013.jpg	99
247.01	0.526	525.5	incongruent	Block1	incongruent/STIM_013.jpg	100
251.099	0.865	864.6	incongruent	Block1	incongruent/STIM_013.jpg	99
254.749	0.918	917.8	incongruent	Block1	incongruent/STIM_013.jpg	99
258.571	0.524	523.8	incongruent	Block1	incongruent/STIM_013.jpg	100
261.778	0.763	762.8	incongruent	Block1	incongruent/STIM_014.jpg	99
266.118	0.968	967.9	incongruent	Block1	incongruent/STIM_014.jpg	99
269.414	0.607	607.4	incongruent	Block1	incongruent/STIM_014.jpg	100
273.67	0.632	632.4	incongruent	Block1	incongruent/STIM_014.jpg	100
277.124	0.922	921.8	incongruent	Block1	incongruent/STIM_014.jpg	99
282.038	0.684	683.9	incongruent	Block1	incongruent/STIM_015.jpg	100
286.337	1.066	1065.5	incongruent	Block1	incongruent/STIM_015.jpg	100
291.042	1.014	1014.0	incongruent	Block1	incongruent/STIM_015.jpg	100
294.836	0.972	971.5	incongruent	Block1	incongruent/STIM_015.jpg	100
298.767	0.789	789.1	incongruent	Block1	incongruent/STIM_015.jpg	100
303.36	1.059	1058.7	incongruent	Block1	incongruent/STIM_016.jpg	99
306.504	0.959	959.4	incongruent	Block1	incongruent/STIM_016.jpg	99
309.896	0.819	818.6	incongruent	Block1	incongruent/STIM_016.jpg	100
314.097	0.7	700.4	incongruent	Block1	incongruent/STIM_016.jpg	99
316.974	0.678	677.8	incongruent	Block1	incongruent/STIM_016.jpg	99
321.332	1.159	1159.4	incongruent	Block1	incongruent/STIM_017.jpg	100
325.092	0.585	584.9	incongruent	Block1	incongruent/STIM_017.jpg	99
328.58	0.774	774.1	incongruent	Block1	incongruent/STIM_017.jpg	100
333.072	0.875	875.0	incongruent	Block1	incongruent/STIM_017.jpg	99
337.581	0.561	561.4	incongruent	Block1	incongruent/STIM_017.jpg	99
340.79	0.586	585.6	incongruent	Block1	incongruent/STIM_018.jpg	99
343.826	0.97	970.0	incongruent	Block1	incongruent/STIM_018.jpg	99
347.258	0.785	785.3	incongruent	Block1	incongruent/STIM_018.jpg	100
351.742	0.949	948.8	incongruent	Block1	incongruent/STIM_018.jpg	99
355.409	0.685	684.8	incongruent	Block1	incongruent/STIM_018.jpg	99
359.02	0.821	821.4	incongruent	Block1	incongruent/STIM_019.jpg	100
362.966	0.535	535.4	incongruent	Block1	incongruent/STIM_019.jpg	100
366.789	0.673	672.6	incongruent	Block1	incongruent/STIM_019.jpg	100
370.685	0.818	818.3	incongruent	Block1	incongruent/STIM_019.jpg	99
375.455	0.85	849.6	incongruent	Block1	incongruent/STIM_019.jpg	99
378.919	1.153	1152.8	incongruent	Block1	incongruent/STIM_020.jpg	99
383.875	1.044	1044.3	incongruent	Block1	incongruent/STIM_020.jpg	100
388.385	0.822	821.8	incongruent	Block1	incongruent/STIM_020.jpg	100
391.572	0.892	892.4	incongruent	Block1	incongruent/STIM_020.jpg	100
394.883	0.835	835.0	incongruent	Block1	incongruent/STIM_020.jpg	99
399.301	1.094	1093.7	incongruent	Block1	incongruent/STIM_021.jpg	99
403.022	0.973	972.6	incongruent	Block1	incongruent/STIM_021.jpg	99
406.698	0.627	627.3	incongruent	Block1	incongruent/STIM_021.jpg	99
410.571	0.865	865.1	incongruent	Block1	incongruent/STIM_021.jpg	99
414.915	0.876	876.3	incongruent	Block1	incongruent/STIM_021.jpg	100
418.219	0.734	733.6	incongruent	Block1	incongruent/STIM_022.jpg	100
421.119	0.775	775.0	incongruent	Block1	incongruent/STIM_022.jpg	100
424.535	0.914	914.4	incongruent	Block1	incongruent/STIM_022.jpg	100
427.917	0.746	745.9	incongruent	Block1	incongruent/STIM_022.jpg	100
431.617	0.707	706.9	incongruent	Block1	incongruent/STIM_022.jpg	99
434.921	0.561	560.6	incongruent	Block1	incongruent/STIM_023.jpg	100
439.179	0.666	666.5	incongruent	Block1	incongruent/STIM_023.jpg	99
443.732	0.613	613.0	incongruent	Block1	incongruent/STIM_023.jpg	100
446.608	0.578	578.2	incongruent	Block1	incongruent/STIM_023.jpg	99
450.79	0.854	853.8	incongruent	Block1	incongruent/STIM_023.jpg	99
454.736	0.877	877.4	incongruent	Block1	incongruent/STIM_024.jpg	100
458.72	0.76	759.9	incongruent	Block1	incongruent/STIM_024.jpg	100
462.823	0.584	583.9	incongruent	Block1	incongruent/STIM_024.jpg	100
467.185	0.712	712.4	incongruent	Block1	incongruent/STIM_024.jpg	100
469.988	0.668	667.9	incongruent	Block1	incongruent/STIM_024.jpg	99
473.129	0.93	929.9	incongruent	Block1	incongruent/STIM_025.jpg	100
477.425	0.881	880.9	incongruent	Block1	incongruent/STIM_025.jpg	100
481.931	0.947	946.6	incongruent	Block1	incongruent/STIM_025.jpg	100
486.652	0.552	551.9	incongruent	Block1	incongruent/STIM_025.jpg	100
490.063	0.64	640.0	incongruent	Block1	incongruent/STIM_025.jpg	100
493.84	0.831	831.4	incongruent	Block1	incongruent/STIM_026.jpg	99
498.028	0.623	622.7	incongruent	Block1	incongruent/STIM_026.jpg	99
501.209	0.722	721.9	incongruent	Block1	incongruent/STIM_026.jpg	99
504.316	0.926	926.2	incongruent	Block1	incongruent/STIM_026.jpg	99
508.306	0.9	900.4	incongruent	Block1	incongruent/STIM_026.jpg	100
511.785	1.083	1082.9	incongruent	Block1	incongruent/STIM_027.jpg	100
516.142	0.536	535.5	incongruent	Block1	incongruent/STIM_027.jpg	100
520.263	1.01	1009.5	incongruent	Block1	incongruent/STIM_027.jpg	99
524.047	0.618	618.5	incongruent	Block1	incongruent/STIM_027.jpg	99
527.804	0.468	468.2	incongruent	Block1	incongruent/STIM_027.jpg	100
530.615	0.834	833.5	incongruent	Block1	incongruent/STIM_028.jpg	100
534.749	0.677	676.8	incongruent	Block1	incongruent/STIM_028.jpg	99
538.757	0.632	632.1	incongruent	Block1	incongruent/STIM_028.jpg	99
541.789	0.832	832.1	incongruent	Block1	incongruent/STIM_028.jpg	99
545.767	0.842	842.4	incongruent	Block1	incongruent/STIM_028.jpg	100
549.308	0.974	973.7	incongruent	Block1	incongruent/STIM_029.jpg	99
552.597	1.1	1100.3	incongruent	Block1	incongruent/STIM_029.jpg	99
556.92	0.534	533.9	incongruent	Block1	incongruent/STIM_029.jpg	99
560.674	0.99	989.9	incongruent	Block1	incongruent/STIM_029.jpg	99
564.579	0.635	634.8	incongruent	Block1	incongruent/STIM_029.jpg	99
568.835	0.604	603.9	congruent	Block1	congruent/STIM_000.jpg	99
572.532	0.553	552.6	congruent	Block1	congruent/STIM_000.jpg	100
575.292	0.58	580.1	congruent	Block1	congruent/STIM_000.jpg	100
579.187	0.608	607.9	congruent	Block1	congruent/STIM_000.jpg	99
583.028	0.593	593.4	congruent	Block1	congruent/STIM_000.jpg	99
586.572	0.415	414.7	congruent	Block1	congruent/STIM_001.jpg	100
590.838	0.427	426.9	congruent	Block1	congruent/STIM_001.jpg	99
593.978	0.622	622.2	congruent	Block1	congruent/STIM_001.jpg	100
597.665	0.651	650.6	congruent	Block1	congruent/STIM_001.jpg	99
600.971	0.688	687.7	congruent	Block1	congruent/STIM_001.jpg	100
604.496	0.673	673.0	congruent	Block1	congruent/STIM_002.jpg	100
608.066	0.398	398.2	congruent	Block1	congruent/STIM_002.jpg	99
610.681	0.419	419.0	congruent	Block1	congruent/STIM_002.jpg	100
614.79	0.588	588.5	congruent	Block1	congruent/STIM_002.jpg	99
618.912	0.665	665.1	congruent	Block1	congruent/STIM_002.jpg	99
623.486	0.641	640.7	congruent	Block1	congruent/STIM_003.jpg	99
626.158	0.653	652.8	congruent	Block1	congruent/STIM_003.jpg	100
630.452	0.533	533.2	congruent	Block1	congruent/STIM_003.jpg	99
634.25	0.474	474.4	congruent	Block1	congruent/STIM_003.jpg	100
637.12	0.682	682.0	congruent	Block1	congruent/STIM_003.jpg	99
640.345	0.579	579.0	congruent	Block1	congruent/STIM_004.jpg	100
644.737	0.533	533.4	congruent	Block1	congruent/STIM_004.jpg	99
647.675	0.553	553.4	congruent	Block1	congruent/STIM_004.jpg	100
652.031	0.512	512.2	congruent	Block1	congruent/STIM_004.jpg	100
654.782	0.701	701.2	congruent	Block1	congruent/STIM_004.jpg	99
657.607	0.519	518.7	congruent	Block1	congruent/STIM_005.jpg	99
660.676	0.51	509.9	congruent	Block1	congruent/STIM_005.jpg	100
664.055	0.626	625.8	congruent	Block1	congruent/STIM_005.jpg	99
668.456	0.623	622.7	congruent	Block1	congruent/STIM_005.jpg	99
673.021	0.429	429.2	congruent	Block1	congruent/STIM_005.jpg	100
675.885	0.42	419.6	congruent	Block1	congruent/STIM_006.jpg	99
679.753	0.523	523.1	congruent	Block1	congruent/STIM_006.jpg	99
682.613	0.64	640.3	congruent	Block1	congruent/STIM_006.jpg	99
686.897	0.667	667.2	congruent	Block1	congruent/STIM_006.jpg	99
689.701	0.617	617.2	congruent	Block1	congruent/STIM_006.jpg	100
692.854	0.685	685.4	congruent	Block1	congruent/STIM_007.jpg	99
696.536	0.555	555.0	congruent	Block1	congruent/STIM_007.jpg	99
700.606	0.7	700.0	congruent	Block1	congruent/STIM_007.jpg	99
704.033	0.668	668.1	congruent	Block1	congruent/STIM_007.jpg	99
707.423	0.522	522.4	congruent	Block1	congruent/STIM_007.jpg	100
711.935	0.481	481.3	congruent	Block1	congruent/STIM_008.jpg	99
715.365	0.68	680.1	congruent	Block1	congruent/STIM_008.jpg	99
719.475	0.401	401.0	congruent	Block1	congruent/STIM_008.jpg	100
721.959	0.502	501.6	congruent	Block1	congruent/STIM_008.jpg	99
725.388	0.473	472.9	congruent	Block1	congruent/STIM_008.jpg	100
728.731	0.404	404.4	congruent	Block1	congruent/STIM_009.jpg	100
732.156	0.696	696.2	congruent	Block1	congruent/STIM_009.jpg	100
735.143	0.397	397.1	congruent	Block1	congruent/STIM_009.jpg	99
737.797	0.552	552.2	congruent	Block1	congruent/STIM_009.jpg	100
740.905	0.433	432.8	congruent	Block1	congruent/STIM_009.jpg	99
744.073	0.589	589.4	congruent	Block1	congruent/STIM_010.jpg	99
748.131	0.58	579.9	congruent	Block1	congruent/STIM_010.jpg	100
752.215	0.587	586.8	congruent	Block1	congruent/STIM_010.jpg	100
755.746	0.606	606.1	congruent	Block1	congruent/STIM_010.jpg	99
760.08	0.544	543.6	congruent	Block1	congruent/STIM_010.jpg	99
764.081	0.686	686.2	congruent	Block1	congruent/STIM_011.jpg	99
767.533	0.623	622.8	congruent	Block1	congruent/STIM_011.jpg	99
771.926	0.7	700.0	congruent	Block1	congruent/STIM_011.jpg	99
776.543	0.414	414.3	congruent	Block1	congruent/STIM_011.jpg	100
780.883	0.585	584.7	congruent	Block1	congruent/STIM_011.jpg	99
784.135	0.404	404.5	congruent	Block1	congruent/STIM_012.jpg	100
787.928	0.4	399.5	congruent	Block1	congruent/STIM_012.jpg	99
791.834	0.687	687.2	congruent	Block1	congruent/STIM_012.jpg	100
794.907	0.396	395.5	congruent	Block1	congruent/STIM_012.jpg	100
797.638	0.688	688.5	congruent	Block1	congruent/STIM_012.jpg	100
800.517	0.4	399.7	congruent	Block1	congruent/STIM_013.jpg	99
804.227	0.691	690.9	congruent	Block1	congruent/STIM_013.jpg	100
808.788	0.554	553.5	congruent	Block1	congruent/STIM_013.jpg	100
812.029	0.446	446.2	congruent	Block1	congruent/STIM_013.jpg	99
815.397	0.454	454.5	congruent	Block1	congruent/STIM_013.jpg	100
819.287	0.562	562.3	congruent	Block1	congruent/STIM_014.jpg	100
822.348	0.628	628.1	congruent	Block1	congruent/STIM_014.jpg	99
825.031	0.472	471.5	congruent	Block1	congruent/STIM_014.jpg	99
829.056	0.401	400.7	congruent	Block1	congruent/STIM_014.jpg	100
833.374	0.64	639.6	congruent	Block1	congruent/STIM_014.jpg	99
837.809	0.511	511.3	congruent	Block1	congruent/STIM_015.jpg	99
841.51	0.558	557.7	congruent	Block1	congruent/STIM_015.jpg	99
845.959	0.443	443.0	congruent	Block1	congruent/STIM_015.jpg	100
849.527	0.606	605.6	congruent	Block1	congruent/STIM_015.jpg	99
853.568	0.674	673.8	congruent	Block1	congruent/STIM_015.jpg	100
857.897	0.459	459.0	congruent	Block1	congruent/STIM_016.jpg	100
861.332	0.53	530.4	congruent	Block1	congruent/STIM_016.jpg	100
865.554	0.442	441.9	congruent	Block1	congruent/STIM_016.jpg	100
869.383	0.661	661.0	congruent	Block1	congruent/STIM_016.jpg	100
873.0	0.516	516.5	congruent	Block1	congruent/STIM_016.jpg	99
877.079	0.659	659.1	congruent	Block1	congruent/STIM_017.jpg	99
880.712	0.475	475.1	congruent	Block1	congruent/STIM_017.jpg	99
883.684	0.49	490.2	congruent	Block1	congruent/STIM_017.jpg	100
886.594	0.428	428.2	congruent	Block1	congruent/STIM_017.jpg	99
890.083	0.478	478.4	congruent	Block1	congruent/STIM_017.jpg	99
893.094	0.672	671.5	congruent	Block1	congruent/STIM_018.jpg	100
896.265	0.47	470.3	congruent	Block1	congruent/STIM_018.jpg	100
898.903	0.529	529.2	congruent	Block1	congruent/STIM_018.jpg	100
903.245	0.565	565.3	congruent	Block1	congruent/STIM_018.jpg	99
907.025	0.513	513.1	congruent	Block1	congruent/STIM_018.jpg	100
910.355	0.63	629.8	congruent	Block1	congruent/STIM_019.jpg	100
913.957	0.416	415.9	congruent	Block1	congruent/STIM_019.jpg	99
916.795	0.677	677.3	congruent	Block1	congruent/STIM_019.jpg	99
920.65	0.549	548.7	congruent	Block1	congruent/STIM_019.jpg	99
923.83	0.501	501.2	congruent	Block1	congruent/STIM_019.jpg	100
927.78	0.422	421.7	congruent	Block1	congruent/STIM_020.jpg	99
931.213	0.554	553.5	congruent	Block1	congruent/STIM_020.jpg	100
935.252	0.552	551.7	congruent	Block1	congruent/STIM_020.jpg	99
939.4	0.58	579.7	congruent	Block1	congruent/STIM_020.jpg	100
943.421	0.509	509.1	congruent	Block1	congruent/STIM_020.jpg	100
947.244	0.41	409.7	congruent	Block1	congruent/STIM_021.jpg	99
951.428	0.512	512.2	congruent	Block1	congruent/STIM_021.jpg	100
954.491	0.644	644.4	congruent	Block1	congruent/STIM_021.jpg	100
957.378	0.585	585.4	congruent	Block1	congruent/STIM_021.jpg	99
961.822	0.672	672.2	congruent	Block1	congruent/STIM_021.jpg	100
965.472	0.682	682.5	congruent	Block1	congruent/STIM_022.jpg	100
969.544	0.565	564.9	congruent	Block1	congruent/STIM_022.jpg	100
973.481	0.517	517.3	congruent	Block1	congruent/STIM_022.jpg	99
976.255	0.516	515.7	congruent	Block1	congruent/STIM_022.jpg	99
980.311	0.67	670.2	congruent	Block1	congruent/STIM_022.jpg	99
984.571	0.423	423.1	congruent	Block1	congruent/STIM_023.jpg	99
987.115	0.487	487.1	congruent	Block1	congruent/STIM_023.jpg	99
990.058	0.466	466.1	congruent	Block1	congruent/STIM_023.jpg	99
993.088	0.581	581.2	congruent	Block1	congruent/STIM_023.jpg	100
995.904	0.521	521.2	congruent	Block1	congruent/STIM_023.jpg	100
998.801	0.681	680.8	congruent	Block1	congruent/STIM_024.jpg	99
1002.644	0.646	646.5	congruent	Block1	congruent/STIM_024.jpg	99
1005.576	0.7	699.6	congruent	Block1	congruent/STIM_024.jpg	99
1008.853	0.4	399.5	congruent	Block1	congruent/STIM_024.jpg	99
1013.099	0.557	556.7	congruent	Block1	congruent/STIM_024.jpg	99
1017.114	0.562	562.4	congruent	Block1	congruent/STIM_025.jpg	100
1020.324	0.458	457.6	congruent	Block1	congruent/STIM_025.jpg	100
1023.131	0.651	650.7	congruent	Block1	congruent/STIM_025.jpg	99
1027.138	0.624	624.1	congruent	Block1	congruent/STIM_025.jpg	100
1030.064	0.407	406.7	congruent	Block1	congruent/STIM_025.jpg	99
1033.38	0.61	610.4	congruent	Block1	congruent/STIM_026.jpg	100
1036.309	0.61	610.3	congruent	Block1	congruent/STIM_026.jpg	99
1040.467	0.681	680.8	congruent	Block1	congruent/STIM_026.jpg	100
1043.513	0.653	652.7	congruent	Block1	congruent/STIM_026.jpg	100
1047.55	0.572	571.8	congruent	Block1	congruent/STIM_026.jpg	99
1050.15	0.578	577.6	congruent	Block1	congruent/STIM_027.jpg	99
1054.208	0.598	598.0	congruent	Block1	congruent/STIM_027.jpg	99
1057.574	0.664	663.8	congruent	Block1	congruent/STIM_027.jpg	99
1061.194	0.513	513.1	congruent	Block1	congruent/STIM_027.jpg	100
1063.967	0.404	403.9	congruent	Block1	congruent/STIM_027.jpg	100
1068.087	0.396	395.5	congruent	Block1	congruent/STIM_028.jpg	99
1070.692	0.398	398.3	congruent	Block1	congruent/STIM_028.jpg	99
1074.148	0.596	595.5	congruent	Block1	congruent/STIM_028.jpg	100
1078.414	0.432	431.7	congruent	Block1	congruent/STIM_028.jpg	100
1082.733	0.686	686.1	congruent	Block1	congruent/STIM_028.jpg	100
1085.758	0.597	597.2	congruent	Block1	congruent/STIM_029.jpg	100
1088.394	0.41	410.4	congruent	Block1	congruent/STIM_029.jpg	100
1091.633	0.438	438.2	congruent	Block1	congruent/STIM_029.jpg	99
1095.726	0.506	506.0	congruent	Block1	congruent/STIM_029.jpg	100
1099.912	0.627	627.1	congruent	Block1	congruent/STIM_029.jpg	100
1102.785	0.872	871.5	incongruent	Block2	incongruent/STIM_000.jpg	100
1106.888	0.571	570.8	incongruent	Block2	incongruent/STIM_000.jpg	99
1110.134	0.788	787.8	incongruent	Block2	incongruent/STIM_000.jpg	99
1113.183	0.712	712.2	incongruent	Block2	incongruent/STIM_000.jpg	100
1116.814	0.396	396.2	incongruent	Block2	incongruent/STIM_000.jpg	99
1121.167	0.73	730.5	incongruent	Block2	incongruent/STIM_001.jpg	100
1125.43	0.75	749.5	incongruent	Block2	incongruent/STIM_001.jpg	100
1129.942	0.626	626.0	incongruent	Block2	incongruent/STIM_001.jpg	100
1132.582	0.814	814.5	incongruent	Block2	incongruent/STIM_001.jpg	100
1135.518	0.531	530.9	incongruent	Block2	incongruent/STIM_001.jpg	99
1139.266	0.82	819.5	incongruent	Block2	incongruent/STIM_002.jpg	99
1143.05	0.491	491.2	incongruent	Block2	incongruent/STIM_002.jpg	99
1147.184	0.552	551.9	incongruent	Block2	incongruent/STIM_002.jpg	99
1150.2	0.554	554.3	incongruent	Block2	incongruent/STIM_002.jpg	99
1153.685	0.537	537.4	incongruent	Block2	incongruent/STIM_002.jpg	99
1156.676	0.827	827.2	incongruent	Block2	incongruent/STIM_003.jpg	100
1160.519	0.868	867.8	incongruent	Block2	incongruent/STIM_003.jpg	99
1163.518	0.711	711.4	incongruent	Block2	incongruent/STIM_003.jpg	99
1167.72	0.547	547.2	incongruent	Block2	incongruent/STIM_003.jpg	100
1172.138	0.782	781.5	incongruent	Block2	incongruent/STIM_003.jpg	100
1176.767	0.59	589.9	incongruent	Block2	incongruent/STIM_004.jpg	100
1179.404	0.553	552.6	incongruent	Block2	incongruent/STIM_004.jpg	100
1182.133	0.795	795.3	incongruent	Block2	incongruent/STIM_004.jpg	100
1186.026	0.749	748.6	incongruent	Block2	incongruent/STIM_004.jpg	100
1188.841	0.81	809.8	incongruent	Block2	incongruent/STIM_004.jpg	100
1192.476	0.599	598.9	incongruent	Block2	incongruent/STIM_005.jpg	99
1197.009	0.487	487.4	incongruent	Block2	incongruent/STIM_005.jpg	99
1200.761	0.517	516.6	incongruent	Block2	incongruent/STIM_005.jpg	99
1203.37	0.602	602.5	incongruent	Block2	incongruent/STIM_005.jpg	100
1207.29	0.822	822.4	incongruent	Block2	incongruent/STIM_005.jpg	100
1211.289	0.609	609.4	incongruent	Block2	incongruent/STIM_006.jpg	100
1215.091	0.869	869.3	incongruent	Block2	incongruent/STIM_006.jpg	100
1218.067	0.832	832.5	incongruent	Block2	incongruent/STIM_006.jpg	99
1221.823	0.613	613.2	incongruent	Block2	incongruent/STIM_006.jpg	99
1226.234	0.503	502.6	incongruent	Block2	incongruent/STIM_006.jpg	100
1230.475	0.608	608.5	incongruent	Block2	incongruent/STIM_007.jpg	100
1233.829	0.81	809.8	incongruent	Block2	incongruent/STIM_007.jpg	100
1236.727	0.574	574.5	incongruent	Block2	incongruent/STIM_007.jpg	100
1241.251	0.822	822.1	incongruent	Block2	incongruent/STIM_007.jpg	100
1246.069	0.484	484.2	incongruent	Block2	incongruent/STIM_007.jpg	100
1250.155	0.607	607.2	incongruent	Block2	incongruent/STIM_008.jpg	100
1253.606	0.901	900.6	incongruent	Block2	incongruent/STIM_008.jpg	99
1258.112	0.751	751.2	incongruent	Block2	incongruent/STIM_008.jpg	100
1262.095	0.453	453.1	incongruent	Block2	incongruent/STIM_008.jpg	99
1265.874	0.745	744.8	incongruent	Block2	incongruent/STIM_008.jpg	100
1269.348	0.815	815.4	incongruent	Block2	incongruent/STIM_009.jpg	99
1273.244	0.637	637.3	incongruent	Block2	incongruent/STIM_009.jpg	99
1277.178	0.861	861.2	incongruent	Block2	incongruent/STIM_009.jpg	99
1280.22	0.809	809.3	incongruent	Block2	incongruent/STIM_009.jpg	99
1284.62	0.669	668.7	incongruent	Block2	incongruent/STIM_009.jpg	99
1287.603	0.646	646.3	incongruent	Block2	incongruent/STIM_010.jpg	100
1291.232	0.91	910.4	incongruent	Block2	incongruent/STIM_010.jpg	99
1295.039	0.692	692.5	incongruent	Block2	incongruent/STIM_010.jpg	99
1297.884	0.618	617.9	incongruent	Block2	incongruent/STIM_010.jpg	99
1300.823	0.482	482.0	incongruent	Block2	incongruent/STIM_010.jpg	99
1304.147	0.848	847.6	incongruent	Block2	incongruent/STIM_011.jpg	100
1307.237	0.559	558.9	incongruent	Block2	incongruent/STIM_011.jpg	100
1310.586	0.661	661.2	incongruent	Block2	incongruent/STIM_011.jpg	99
1313.455	0.582	581.7	incongruent	Block2	incongruent/STIM_011.jpg	99
1316.125	0.511	511.4	incongruent	Block2	incongruent/STIM_011.jpg	99
1318.894	0.481	481.0	incongruent	Block2	incongruent/STIM_012.jpg	100
1322.771	0.669	669.4	incongruent	Block2	incongruent/STIM_012.jpg	100
1325.845	0.495	494.9	incongruent	Block2	incongruent/STIM_012.jpg	99
1328.462	0.547	547.1	incongruent	Block2	incongruent/STIM_012.jpg	99
1331.428	0.682	682.4	incongruent	Block2	incongruent/STIM_012.jpg	100
1334.599	0.832	831.7	incongruent	Block2	incongruent/STIM_013.jpg	100
1339.355	0.442	442.3	incongruent	Block2	incongruent/STIM_013.jpg	100
1343.286	0.833	833.3	incongruent	Block2	incongruent/STIM_013.jpg	100
1347.568	0.392	392.1	incongruent	Block2	incongruent/STIM_013.jpg	99
1350.734	0.581	580.6	incongruent	Block2	incongruent/STIM_013.jpg	100
1354.529	0.934	934.0	incongruent	Block2	incongruent/STIM_014.jpg	99
1358.922	0.765	765.2	incongruent	Block2	incongruent/STIM_014.jpg	100
1361.798	0.823	823.4	incongruent	Block2	incongruent/STIM_014.jpg	99
1365.489	0.765	764.7	incongruent	Block2	incongruent/STIM_014.jpg	100
1368.982	0.769	768.9	incongruent	Block2	incongruent/STIM_014.jpg	99
1372.285	0.752	752.4	incongruent	Block2	incongruent/STIM_015.jpg	99
1375.791	0.76	760.3	incongruent	Block2	incongruent/STIM_015.jpg	99
1379.584	0.471	471.3	incongruent	Block2	incongruent/STIM_015.jpg	100
1382.504	0.79	790.4	incongruent	Block2	incongruent/STIM_015.jpg	99
1386.673	0.44	440.3	incongruent	Block2	incongruent/STIM_015.jpg	100
1389.354	0.627	626.9	incongruent	Block2	incongruent/STIM_016.jpg	99
1392.276	0.807	807.2	incongruent	Block2	incongruent/STIM_016.jpg	99
1395.285	0.515	514.9	incongruent	Block2	incongruent/STIM_016.jpg	100
1399.777	0.461	461.2	incongruent	Block2	incongruent/STIM_016.jpg	100
1402.663	0.798	798.5	incongruent	Block2	incongruent/STIM_016.jpg	100
1405.92	0.674	673.5	incongruent	Block2	incongruent/STIM_017.jpg	100
1410.432	0.463	463.0	incongruent	Block2	incongruent/STIM_017.jpg	99
1413.595	0.731	731.1	incongruent	Block2	incongruent/STIM_017.jpg	99
1417.696	0.788	788.0	incongruent	Block2	incongruent/STIM_017.jpg	99
1422.021	0.572	572.5	incongruent	Block2	incongruent/STIM_017.jpg	100
1426.214	0.986	985.6	incongruent	Block2	incongruent/STIM_018.jpg	99
1430.83	0.841	840.6	incongruent	Block2	incongruent/STIM_018.jpg	99
1435.182	0.829	828.6	incongruent	Block2	incongruent/STIM_018.jpg	99
1439.496	0.444	443.9	incongruent	Block2	incongruent/STIM_018.jpg	100
1442.445	0.499	498.8	incongruent	Block2	incongruent/STIM_018.jpg	99
1446.537	0.515	515.4	incongruent	Block2	incongruent/STIM_019.jpg	100
1450.148	0.64	639.9	incongruent	Block2	incongruent/STIM_019.jpg	100
1453.71	0.734	733.7	incongruent	Block2	incongruent/STIM_019.jpg	99
1457.937	0.778	778.1	incongruent	Block2	incongruent/STIM_019.jpg	99
1461.126	0.41	409.6	incongruent	Block2	incongruent/STIM_019.jpg	100
1463.548	0.791	791.3	incongruent	Block2	incongruent/STIM_020.jpg	99
1467.901	0.79	789.7	incongruent	Block2	incongruent/STIM_020.jpg	99
1472.193	0.87	869.6	incongruent	Block2	incongruent/STIM_020.jpg	100
1476.39	0.608	608.5	incongruent	Block2	incongruent/STIM_020.jpg	99
1480.687	0.555	555.1	incongruent	Block2	incongruent/STIM_020.jpg	100
1484.08	0.744	743.8	incongruent	Block2	incongruent/STIM_021.jpg	100
1487.121	0.921	920.8	incongruent	Block2	incongruent/STIM_021.jpg	100
1490.16	0.803	802.6	incongruent	Block2	incongruent/STIM_021.jpg	99
1494.467	0.482	481.7	incongruent	Block2	incongruent/STIM_021.jpg	99
1497.361	0.546	546.4	incongruent	Block2	incongruent/STIM_021.jpg	99
1500.485	0.638	637.6	incongruent	Block2	incongruent/STIM_022.jpg	99
1504.199	0.941	940.9	incongruent	Block2	incongruent/STIM_022.jpg	100
1507.985	0.598	598.0	incongruent	Block2	incongruent/STIM_022.jpg	100
1511.338	0.724	724.0	incongruent	Block2	incongruent/STIM_022.jpg	99
1514.142	0.401	400.7	incongruent	Block2	incongruent/STIM_022.jpg	100
1518.163	0.96	960.3	incongruent	Block2	incongruent/STIM_023.jpg	99
1522.752	0.891	890.6	incongruent	Block2	incongruent/STIM_023.jpg	100
1527.468	0.688	687.9	incongruent	Block2	incongruent/STIM_023.jpg	100
1530.826	0.578	578.1	incongruent	Block2	incongruent/STIM_023.jpg	99
1534.543	0.583	582.8	incongruent	Block2	incongruent/STIM_023.jpg	99
1538.811	0.95	950.5	incongruent	Block2	incongruent/STIM_024.jpg	99
1542.875	0.52	519.8	incongruent	Block2	incongruent/STIM_024.jpg	100
1546.101	0.467	466.9	incongruent	Block2	incongruent/STIM_024.jpg	99
1549.727	0.665	665.2	incongruent	Block2	incongruent/STIM_024.jpg	100
1554.34	0.394	393.5	incongruent	Block2	incongruent/STIM_024.jpg	100
1556.838	0.477	477.1	incongruent	Block2	incongruent/STIM_025.jpg	100
1560.735	0.812	811.9	incongruent	Block2	incongruent/STIM_025.jpg	100
1564.728	0.459	459.4	incongruent	Block2	incongruent/STIM_025.jpg	100
1568.202	0.47	469.7	incongruent	Block2	incongruent/STIM_025.jpg	99
1571.779	0.662	661.9	incongruent	Block2	incongruent/STIM_025.jpg	99
1575.386	0.741	741.3	incongruent	Block2	incongruent/STIM_026.jpg	100
1579.006	0.812	812.2	incongruent	Block2	incongruent/STIM_026.jpg	99
1582.728	0.674	674.1	incongruent	Block2	incongruent/STIM_026.jpg	99
1585.447	0.598	597.6	incongruent	Block2	incongruent/STIM_026.jpg	100
1588.587	0.491	491.3	incongruent	Block2	incongruent/STIM_026.jpg	100
1591.87	0.704	704.3	incongruent	Block2	incongruent/STIM_027.jpg	100
1595.533	0.53	530.3	incongruent	Block2	incongruent/STIM_027.jpg	100
1599.987	0.71	710.4	incongruent	Block2	incongruent/STIM_027.jpg	100
1603.786	0.733	732.8	incongruent	Block2	incongruent/STIM_027.jpg	99
1607.42	0.774	773.6	incongruent	Block2	incongruent/STIM_027.jpg	99
1611.808	0.486	486.3	incongruent	Block2	incongruent/STIM_028.jpg	99
1615.378	0.448	447.8	incongruent	Block2	incongruent/STIM_028.jpg	100
1618.543	0.648	648.4	incongruent	Block2	incongruent/STIM_028.jpg	99
1623.082	0.462	462.1	incongruent	Block2	incongruent/STIM_028.jpg	100
1627.307	0.517	517.0	incongruent	Block2	incongruent/STIM_028.jpg	99
1629.888	0.471	471.3	incongruent	Block2	incongruent/STIM_029.jpg	99
1632.688	0.72	719.6	incongruent	Block2	incongruent/STIM_029.jpg	99
1636.13	0.503	503.2	incongruent	Block2	incongruent/STIM_029.jpg	100
1640.042	0.769	768.7	incongruent	Block2	incongruent/STIM_029.jpg	99
1643.992	0.535	534.7	incongruent	Block2	incongruent/STIM_029.jpg	99
1648.074	0.701	701.3	congruent	Block2	congruent/STIM_000.jpg	100
1652.581	0.465	465.1	congruent	Block2	congruent/STIM_000.jpg	100
1656.526	0.59	590.3	congruent	Block2	congruent/STIM_000.jpg	100
1659.636	0.634	633.7	congruent	Block2	congruent/STIM_000.jpg	100
1663.455	0.598	598.3	congruent	Block2	congruent/STIM_000.jpg	100
1667.967	0.502	501.8	congruent	Block2	congruent/STIM_001.jpg	100
1672.233	0.7	699.6	congruent	Block2	congruent/STIM_001.jpg	99
1676.39	0.597	597.4	congruent	Block2	congruent/STIM_001.jpg	99
1680.171	0.476	475.6	congruent	Block2	congruent/STIM_001.jpg	100
1682.694	0.43	429.9	congruent	Block2	congruent/STIM_001.jpg	100
1685.199	0.643	643.3	congruent	Block2	congruent/STIM_002.jpg	100
1689.024	0.434	434.2	congruent	Block2	congruent/STIM_002.jpg	99
1691.683	0.589	589.0	congruent	Block2	congruent/STIM_002.jpg	99
1694.534	0.674	673.5	congruent	Block2	congruent/STIM_002.jpg	99
1697.355	0.398	398.2	congruent	Block2	congruent/STIM_002.jpg	100
1700.628	0.486	486.2	congruent	Block2	congruent/STIM_003.jpg	100
1705.068	0.605	604.7	congruent	Block2	congruent/STIM_003.jpg	100
1708.785	0.404	403.6	congruent	Block2	congruent/STIM_003.jpg	99
1712.937	0.472	472.3	congruent	Block2	congruent/STIM_003.jpg	100
1716.748	0.575	575.1	congruent	Block2	congruent/STIM_003.jpg	100
1721.03	0.583	583.0	congruent	Block2	congruent/STIM_004.jpg	99
1724.875	0.41	410.2	congruent	Block2	congruent/STIM_004.jpg	100
1728.753	0.673	672.8	congruent	Block2	congruent/STIM_004.jpg	100
1731.614	0.527	527.0	congruent	Block2	congruent/STIM_004.jpg	100
1735.749	0.7	700.2	congruent	Block2	congruent/STIM_004.jpg	99
1739.76	0.597	597.4	congruent	Block2	congruent/STIM_005.jpg	99
1744.269	0.407	407.2	congruent	Block2	congruent/STIM_005.jpg	100
1747.776	0.631	631.2	congruent	Block2	congruent/STIM_005.jpg	99
1750.712	0.542	542.3	congruent	Block2	congruent/STIM_005.jpg	99
1753.645	0.697	697.4	congruent	Block2	congruent/STIM_005.jpg	100
1757.601	0.615	615.4	congruent	Block2	congruent/STIM_006.jpg	100
1761.944	0.609	609.1	congruent	Block2	congruent/STIM_006.jpg	100
1765.931	0.613	613.3	congruent	Block2	congruent/STIM_006.jpg	99
1769.43	0.464	464.2	congruent	Block2	congruent/STIM_006.jpg	99
1773.617	0.588	587.9	congruent	Block2	congruent/STIM_006.jpg	99
1777.006	0.423	422.8	congruent	Block2	congruent/STIM_007.jpg	100
1780.588	0.576	575.6	congruent	Block2	congruent/STIM_007.jpg	100
1783.975	0.614	613.6	congruent	Block2	congruent/STIM_007.jpg	99
1787.873	0.53	529.7	congruent	Block2	congruent/STIM_007.jpg	99
1792.058	0.564	563.9	congruent	Block2	congruent/STIM_007.jpg	99
1795.596	0.704	703.5	congruent	Block2	congruent/STIM_008.jpg	100
1799.727	0.57	570.1	congruent	Block2	congruent/STIM_008.jpg	100
1802.791	0.705	704.8	congruent	Block2	congruent/STIM_008.jpg	100
1806.244	0.424	423.6	congruent	Block2	congruent/STIM_008.jpg	100
1809.712	0.634	633.7	congruent	Block2	congruent/STIM_008.jpg	99
1813.809	0.598	597.7	congruent	Block2	congruent/STIM_009.jpg	99
1818.244	0.625	624.8	congruent	Block2	congruent/STIM_009.jpg	99
1821.562	0.696	695.6	congruent	Block2	congruent/STIM_009.jpg	99
1824.814	0.683	683.3	congruent	Block2	congruent/STIM_009.jpg	99
1828.833	0.602	601.9	congruent	Block2	congruent/STIM_009.jpg	99
1831.595	0.621	621.0	congruent	Block2	congruent/STIM_010.jpg	99
1835.242	0.52	520.5	congruent	Block2	congruent/STIM_010.jpg	100
1839.565	0.564	564.0	congruent	Block2	congruent/STIM_010.jpg	100
1843.991	0.607	607.4	congruent	Block2	congruent/STIM_010.jpg	99
1848.187	0.57	570.0	congruent	Block2	congruent/STIM_010.jpg	100
1851.312	0.506	505.8	congruent	Block2	congruent/STIM_011.jpg	100
1853.997	0.699	698.9	congruent	Block2	congruent/STIM_011.jpg	99
1857.799	0.494	493.7	congruent	Block2	congruent/STIM_011.jpg	100
1862.077	0.473	472.6	congruent	Block2	congruent/STIM_011.jpg	100
1865.25	0.625	625.1	congruent	Block2	congruent/STIM_011.jpg	99
1868.274	0.628	627.9	congruent	Block2	congruent/STIM_012.jpg	99
1871.806	0.582	581.8	congruent	Block2	congruent/STIM_012.jpg	100
1874.881	0.603	603.0	congruent	Block2	congruent/STIM_012.jpg	99
1878.887	0.412	411.6	congruent	Block2	congruent/STIM_012.jpg	100
1882.626	0.548	548.1	congruent	Block2	congruent/STIM_012.jpg	100
1886.378	0.667	666.9	congruent	Block2	congruent/STIM_013.jpg	99
1889.531	0.632	632.2	congruent	Block2	congruent/STIM_013.jpg	100
1893.968	0.49	490.3	congruent	Block2	congruent/STIM_013.jpg	100
1897.277	0.508	507.6	congruent	Block2	congruent/STIM_013.jpg	99
1901.296	0.646	645.7	congruent	Block2	congruent/STIM_013.jpg	99
1904.007	0.593	592.8	congruent	Block2	congruent/STIM_014.jpg	99
1907.694	0.633	633.1	congruent	Block2	congruent/STIM_014.jpg	99
1911.765	0.604	603.5	congruent	Block2	congruent/STIM_014.jpg	100
1914.711	0.481	480.6	congruent	Block2	congruent/STIM_014.jpg	99
1918.345	0.661	660.8	congruent	Block2	congruent/STIM_014.jpg	100
1922.965	0.4	400.0	congruent	Block2	congruent/STIM_015.jpg	99
1926.695	0.485	485.4	congruent	Block2	congruent/STIM_015.jpg	99
1929.525	0.656	656.0	congruent	Block2	congruent/STIM_015.jpg	100
1933.935	0.4	400.4	congruent	Block2	congruent/STIM_015.jpg	99
1937.507	0.594	594.0	congruent	Block2	congruent/STIM_015.jpg	100
1941.38	0.486	486.0	congruent	Block2	congruent/STIM_016.jpg	99
1944.761	0.621	621.1	congruent	Block2	congruent/STIM_016.jpg	99
1948.511	0.678	678.0	congruent	Block2	congruent/STIM_016.jpg	99
1951.617	0.655	654.7	congruent	Block2	congruent/STIM_016.jpg	100
1955.532	0.624	623.9	congruent	Block2	congruent/STIM_016.jpg	100
1958.999	0.421	421.3	congruent	Block2	congruent/STIM_017.jpg	99
1962.542	0.698	698.4	congruent	Block2	congruent/STIM_017.jpg	99
1965.69	0.648	648.1	congruent	Block2	congruent/STIM_017.jpg	99
1969.839	0.703	703.3	congruent	Block2	congruent/STIM_017.jpg	100
1972.915	0.644	643.7	congruent	Block2	congruent/STIM_017.jpg	99
1975.616	0.438	438.0	congruent	Block2	congruent/STIM_018.jpg	100
1979.739	0.54	540.3	congruent	Block2	congruent/STIM_018.jpg	100
1984.279	0.631	631.4	congruent	Block2	congruent/STIM_018.jpg	100
1987.27	0.545	545.0	congruent	Block2	congruent/STIM_018.jpg	100
1990.11	0.618	617.7	congruent	Block2	congruent/STIM_018.jpg	99
1993.698	0.693	693.3	congruent	Block2	congruent/STIM_019.jpg	99
1996.865	0.688	688.4	congruent	Block2	congruent/STIM_019.jpg	100
2000.314	0.478	478.1	congruent	Block2	congruent/STIM_019.jpg	100
2003.825	0.513	512.6	congruent	Block2	congruent/STIM_019.jpg	100
2007.495	0.633	632.7	congruent	Block2	congruent/STIM_019.jpg	99
2010.338	0.612	612.3	congruent	Block2	congruent/STIM_020.jpg	99
2013.992	0.428	427.7	congruent	Block2	congruent/STIM_020.jpg	99
2017.632	0.436	435.9	congruent	Block2	congruent/STIM_020.jpg	99
2020.117	0.505	504.9	congruent	Block2	congruent/STIM_020.jpg	100
2023.43	0.464	463.5	congruent	Block2	congruent/STIM_020.jpg	99
2027.715	0.527	526.6	congruent	Block2	congruent/STIM_021.jpg	100
2031.463	0.667	666.9	congruent	Block2	congruent/STIM_021.jpg	99
2034.535	0.399	398.7	congruent	Block2	congruent/STIM_021.jpg	100
2038.245	0.612	611.7	congruent	Block2	congruent/STIM_021.jpg	100
2040.908	0.447	446.7	congruent	Block2	congruent/STIM_021.jpg	100
2043.493	0.423	423.4	congruent	Block2	congruent/STIM_022.jpg	99
2046.635	0.657	657.2	congruent	Block2	congruent/STIM_022.jpg	99
2050.787	0.702	701.7	congruent	Block2	congruent/STIM_022.jpg	99
2054.209	0.658	658.2	congruent	Block2	congruent/STIM_022.jpg	99
2058.487	0.437	437.2	congruent	Block2	congruent/STIM_022.jpg	100
2062.564	0.672	671.7	congruent	Block2	congruent/STIM_023.jpg	100
2066.531	0.519	518.9	congruent	Block2	congruent/STIM_023.jpg	99
2070.955	0.613	612.7	congruent	Block2	congruent/STIM_023.jpg	100
2075.51	0.558	557.9	congruent	Block2	congruent/STIM_023.jpg	100
2078.581	0.456	455.9	congruent	Block2	congruent/STIM_023.jpg	99
2082.159	0.686	686.2	congruent	Block2	congruent/STIM_024.jpg	99
2086.557	0.574	574.1	congruent	Block2	congruent/STIM_024.jpg	100
2090.743	0.424	423.7	congruent	Block2	congruent/STIM_024.jpg	100
2094.782	0.554	553.7	congruent	Block2	congruent/STIM_024.jpg	100
2099.292	0.438	438.2	congruent	Block2	congruent/STIM_024.jpg	99
2102.446	0.499	499.2	congruent	Block2	congruent/STIM_025.jpg	99
2104.96	0.488	488.5	congruent	Block2	congruent/STIM_025.jpg	100
2108.389	0.688	687.8	congruent	Block2	congruent/STIM_025.jpg	100
2112.659	0.458	458.4	congruent	Block2	congruent/STIM_025.jpg	99
2115.326	0.661	661.3	congruent	Block2	congruent/STIM_025.jpg	100
2119.047	0.641	640.9	congruent	Block2	congruent/STIM_026.jpg	100
2122.455	0.644	643.5	congruent	Block2	congruent/STIM_026.jpg	100
2125.482	0.553	552.8	congruent	Block2	congruent/STIM_026.jpg	100
2128.955	0.69	690.1	congruent	Block2	congruent/STIM_026.jpg	99
2133.217	0.653	653.3	congruent	Block2	congruent/STIM_026.jpg	99
2136.0	0.621	620.6	congruent	Block2	congruent/STIM_027.jpg	99
2139.805	0.609	609.1	congruent	Block2	congruent/STIM_027.jpg	100
2143.743	0.565	564.7	congruent	Block2	congruent/STIM_027.jpg	100
2147.749	0.476	476.4	congruent	Block2	congruent/STIM_027.jpg	100
2151.676	0.404	403.8	congruent	Block2	congruent/STIM_027.jpg	100
2155.623	0.551	551.2	congruent	Block2	congruent/STIM_028.jpg	100
2159.733	0.457	457.1	congruent	Block2	congruent/STIM_028.jpg	100
2163.661	0.672	672.5	congruent	Block2	congruent/STIM_028.jpg	100
2167.268	0.627	626.9	congruent	Block2	congruent/STIM_028.jpg	99
2171.889	0.518	517.9	congruent	Block2	congruent/STIM_028.jpg	99
2175.961	0.402	402.5	congruent	Block2	congruent/STIM_029.jpg	100
2179.249	0.556	556.1	congruent	Block2	congruent/STIM_029.jpg	100
2182.266	0.598	598.2	congruent	Block2	congruent/STIM_029.jpg	99
2185.729	0.545	545.1	congruent	Block2	congruent/STIM_029.jpg	99
2189.189	0.507	507.3	congruent	Block2	congruent/STIM_029.jpg	99
2193.548	0.4	399.8	incongruent	Block3	incongruent/STIM_000.jpg	99
2197.119	0.795	794.7	incongruent	Block3	incongruent/STIM_000.jpg	100
2201.499	0.784	784.3	incongruent	Block3	incongruent/STIM_000.jpg	100
2205.665	0.697	697.2	incongruent	Block3	incongruent/STIM_000.jpg	99
2209.778	0.796	795.5	incongruent	Block3	incongruent/STIM_000.jpg	99
2212.592	0.534	533.6	incongruent	Block3	incongruent/STIM_001.jpg	100
2215.275	0.771	770.9	incongruent	Block3	incongruent/STIM_001.jpg	100
2218.962	0.388	388.4	incongruent	Block3	incongruent/STIM_001.jpg	99
2222.185	0.714	714.0	incongruent	Block3	incongruent/STIM_001.jpg	100
2226.804	0.772	771.7	incongruent	Block3	incongruent/STIM_001.jpg	100
2231.341	0.729	729.0	incongruent	Block3	incongruent/STIM_002.jpg	99
2235.794	0.806	806.3	incongruent	Block3	incongruent/STIM_002.jpg	100
2239.391	0.68	680.5	incongruent	Block3	incongruent/STIM_002.jpg	99
2243.093	0.653	652.7	incongruent	Block3	incongruent/STIM_002.jpg	99
2246.635	0.613	613.3	incongruent	Block3	incongruent/STIM_002.jpg	100
2250.677	0.814	813.5	incongruent	Block3	incongruent/STIM_003.jpg	99
2254.64	0.666	666.2	incongruent	Block3	incongruent/STIM_003.jpg	100
2259.019	0.557	557.0	incongruent	Block3	incongruent/STIM_003.jpg	100
2262.416	0.416	416.0	incongruent	Block3	incongruent/STIM_003.jpg	100
2266.41	0.451	450.9	incongruent	Block3	incongruent/STIM_003.jpg	99
2269.841	0.772	772.5	incongruent	Block3	incongruent/STIM_004.jpg	100
2273.791	0.577	577.3	incongruent	Block3	incongruent/STIM_004.jpg	100
2276.595	0.526	526.5	incongruent	Block3	incongruent/STIM_004.jpg	99
2280.327	0.716	716.5	incongruent	Block3	incongruent/STIM_004.jpg	99
2284.573	0.433	433.4	incongruent	Block3	incongruent/STIM_004.jpg	100
2288.125	0.794	793.7	incongruent	Block3	incongruent/STIM_005.jpg	100
2291.535	0.773	772.7	incongruent	Block3	incongruent/STIM_005.jpg	100
2294.591	0.67	669.8	incongruent	Block3	incongruent/STIM_005.jpg	100
2299.075	0.697	697.4	incongruent	Block3	incongruent/STIM_005.jpg	99
2302.424	0.801	800.6	incongruent	Block3	incongruent/STIM_005.jpg	99
2305.355	0.592	592.4	incongruent	Block3	incongruent/STIM_006.jpg	99
2308.338	0.552	551.6	incongruent	Block3	incongruent/STIM_006.jpg	99
2311.382	0.606	605.8	incongruent	Block3	incongruent/STIM_006.jpg	100
2315.65	0.499	499.1	incongruent	Block3	incongruent/STIM_006.jpg	99
2318.831	0.393	392.9	incongruent	Block3	incongruent/STIM_006.jpg	99
2322.422	0.721	721.3	incongruent	Block3	incongruent/STIM_007.jpg	99
2326.886	0.455	455.0	incongruent	Block3	incongruent/STIM_007.jpg	100
2330.002	0.822	822.0	incongruent	Block3	incongruent/STIM_007.jpg	99
2334.438	0.604	603.5	incongruent	Block3	incongruent/STIM_007.jpg	99
2337.768	0.661	660.9	incongruent	Block3	incongruent/STIM_007.jpg	99
2342.399	0.655	654.6	incongruent	Block3	incongruent/STIM_008.jpg	99
2345.484	0.584	583.8	incongruent	Block3	incongruent/STIM_008.jpg	99
2348.348	0.62	620.5	incongruent	Block3	incongruent/STIM_008.jpg	100
2350.978	0.41	410.2	incongruent	Block3	incongruent/STIM_008.jpg	99
2354.559	0.572	572.0	incongruent	Block3	incongruent/STIM_008.jpg	99
2358.144	0.776	776.3	incongruent	Block3	incongruent/STIM_009.jpg	100
2362.517	0.765	764.8	incongruent	Block3	incongruent/STIM_009.jpg	99
2366.233	0.462	461.6	incongruent	Block3	incongruent/STIM_009.jpg	99
2368.753	0.499	499.2	incongruent	Block3	incongruent/STIM_009.jpg	100
2373.023	0.797	796.8	incongruent	Block3	incongruent/STIM_009.jpg	100
2377.335	0.476	475.8	incongruent	Block3	incongruent/STIM_010.jpg	100
2381.117	0.813	812.8	incongruent	Block3	incongruent/STIM_010.jpg	100
2385.922	0.613	613.4	incongruent	Block3	incongruent/STIM_010.jpg	100
2390.038	0.594	594.0	incongruent	Block3	incongruent/STIM_010.jpg	99
2393.618	0.41	409.6	incongruent	Block3	incongruent/STIM_010.jpg	99
2396.298	0.503	503.0	incongruent	Block3	incongruent/STIM_011.jpg	100
2399.832	0.783	783.4	incongruent	Block3	incongruent/STIM_011.jpg	100
2403.904	0.676	676.4	incongruent	Block3	incongruent/STIM_011.jpg	100
2407.407	0.612	611.7	incongruent	Block3	incongruent/STIM_011.jpg	99
2411.644	0.622	622.0	incongruent	Block3	incongruent/STIM_011.jpg	100
2414.278	0.758	758.0	incongruent	Block3	incongruent/STIM_012.jpg	99
2418.839	0.772	772.1	incongruent	Block3	incongruent/STIM_012.jpg	100
2422.714	0.716	716.4	incongruent	Block3	incongruent/STIM_012.jpg	99
2426.999	0.644	644.3	incongruent	Block3	incongruent/STIM_012.jpg	99
2431.414	0.663	662.6	incongruent	Block3	incongruent/STIM_012.jpg	99
2435.907	0.75	749.8	incongruent	Block3	incongruent/STIM_013.jpg	99
2440.425	0.589	589.1	incongruent	Block3	incongruent/STIM_013.jpg	99
2444.392	0.599	598.8	incongruent	Block3	incongruent/STIM_013.jpg	100
2447.189	0.58	580.2	incongruent	Block3	incongruent/STIM_013.jpg	100
2449.926	0.584	584.5	incongruent	Block3	incongruent/STIM_013.jpg	100
2454.341	0.536	535.7	incongruent	Block3	incongruent/STIM_014.jpg	100
2457.736	0.821	820.6	incongruent	Block3	incongruent/STIM_014.jpg	100
2460.72	0.478	478.3	incongruent	Block3	incongruent/STIM_014.jpg	100
2463.637	0.562	561.5	incongruent	Block3	incongruent/STIM_014.jpg	100
2467.304	0.478	478.0	incongruent	Block3	incongruent/STIM_014.jpg	100
2470.143	0.807	807.1	incongruent	Block3	incongruent/STIM_015.jpg	99
2474.587	0.734	733.8	incongruent	Block3	incongruent/STIM_015.jpg	100
2479.005	0.422	422.3	incongruent	Block3	incongruent/STIM_015.jpg	99
2483.402	0.468	468.3	incongruent	Block3	incongruent/STIM_015.jpg	100
2486.67	0.544	544.2	incongruent	Block3	incongruent/STIM_015.jpg	100
2490.353	0.613	613.0	incongruent	Block3	incongruent/STIM_016.jpg	99
2493.456	0.433	433.2	incongruent	Block3	incongruent/STIM_016.jpg	100
2495.893	0.783	783.3	incongruent	Block3	incongruent/STIM_016.jpg	99
2498.968	0.435	434.8	incongruent	Block3	incongruent/STIM_016.jpg	100
2502.733	0.761	761.0	incongruent	Block3	incongruent/STIM_016.jpg	99
2507.26	0.475	474.7	incongruent	Block3	incongruent/STIM_017.jpg	99
2510.814	0.56	560.1	incongruent	Block3	incongruent/STIM_017.jpg	100
2513.4	0.412	412.2	incongruent	Block3	incongruent/STIM_017.jpg	100
2517.054	0.551	550.8	incongruent	Block3	incongruent/STIM_017.jpg	99
2520.762	0.532	532.0	incongruent	Block3	incongruent/STIM_017.jpg	100
2524.993	0.592	592.3	incongruent	Block3	incongruent/STIM_018.jpg	100
2529.098	0.6	600.3	incongruent	Block3	incongruent/STIM_018.jpg	99
2533.294	0.774	773.7	incongruent	Block3	incongruent/STIM_018.jpg	100
2537.35	0.707	706.9	incongruent	Block3	incongruent/STIM_018.jpg	99
2541.422	0.445	444.7	incongruent	Block3	incongruent/STIM_018.jpg	100
2544.421	0.45	449.8	incongruent	Block3	incongruent/STIM_019.jpg	100
2548.18	0.819	819.0	incongruent	Block3	incongruent/STIM_019.jpg	100
2551.545	0.788	788.1	incongruent	Block3	incongruent/STIM_019.jpg	99
2555.419	0.766	766.5	incongruent	Block3	incongruent/STIM_019.jpg	100
2560.048	0.66	659.8	incongruent	Block3	incongruent/STIM_019.jpg	100
2564.077	0.638	638.5	incongruent	Block3	incongruent/STIM_020.jpg	100
2567.744	0.673	673.1	incongruent	Block3	incongruent/STIM_020.jpg	100
2572.396	0.774	773.6	incongruent	Block3	incongruent/STIM_020.jpg	99
2576.526	0.687	687.4	incongruent	Block3	incongruent/STIM_020.jpg	100
2581.181	0.444	443.6	incongruent	Block3	incongruent/STIM_020.jpg	99
2585.161	0.726	725.6	incongruent	Block3	incongruent/STIM_021.jpg	99
2588.341	0.391	390.8	incongruent	Block3	incongruent/STIM_021.jpg	99
2591.801	0.516	516.4	incongruent	Block3	incongruent/STIM_021.jpg	99
2594.451	0.76	760.4	incongruent	Block3	incongruent/STIM_021.jpg	99
2597.407	0.514	513.6	incongruent	Block3	incongruent/STIM_021.jpg	99
2601.646	0.417	417.0	incongruent	Block3	incongruent/STIM_022.jpg	99
2604.387	0.465	464.7	incongruent	Block3	incongruent/STIM_022.jpg	100
2608.599	0.704	703.8	incongruent	Block3	incongruent/STIM_022.jpg	99
2611.817	0.545	545.0	incongruent	Block3	incongruent/STIM_022.jpg	99
2615.584	0.586	586.5	incongruent	Block3	incongruent/STIM_022.jpg	100
2618.711	0.72	719.6	incongruent	Block3	incongruent/STIM_023.jpg	100
2622.687	0.613	613.4	incongruent	Block3	incongruent/STIM_023.jpg	99
2626.335	0.696	695.7	incongruent	Block3	incongruent/STIM_023.jpg	100
2630.664	0.415	414.6	incongruent	Block3	incongruent/STIM_023.jpg	100
2633.254	0.515	515.3	incongruent	Block3	incongruent/STIM_023.jpg	99
2636.307	0.65	649.5	incongruent	Block3	incongruent/STIM_024.jpg	100
2639.902	0.752	752.4	incongruent	Block3	incongruent/STIM_024.jpg	100
2642.689	0.473	473.0	incongruent	Block3	incongruent/STIM_024.jpg	100
2645.652	0.529	529.0	incongruent	Block3	incongruent/STIM_024.jpg	100
2648.25	0.644	644.0	incongruent	Block3	incongruent/STIM_024.jpg	99
2652.587	0.411	410.6	incongruent	Block3	incongruent/STIM_025.jpg	99
2656.844	0.538	538.5	incongruent	Block3	incongruent/STIM_025.jpg	100
2660.785	0.747	746.6	incongruent	Block3	incongruent/STIM_025.jpg	99
2663.986	0.637	637.4	incongruent	Block3	incongruent/STIM_025.jpg	99
2668.405	0.498	497.9	incongruent	Block3	incongruent/STIM_025.jpg	99
2672.76	0.685	684.7	incongruent	Block3	incongruent/STIM_026.jpg	99
2677.331	0.406	406.5	incongruent	Block3	incongruent/STIM_026.jpg	100
2680.34	0.668	667.6	incongruent	Block3	incongruent/STIM_026.jpg	99
2684.495	0.772	772.3	incongruent	Block3	incongruent/STIM_026.jpg	99
2687.461	0.394	394.5	incongruent	Block3	incongruent/STIM_026.jpg	99
2690.199	0.479	478.7	incongruent	Block3	incongruent/STIM_027.jpg	100
2693.831	0.478	477.7	incongruent	Block3	incongruent/STIM_027.jpg	99
2697.413	0.415	415.0	incongruent	Block3	incongruent/STIM_027.jpg	99
2701.82	0.762	762.0	incongruent	Block3	incongruent/STIM_027.jpg	99
2705.712	0.732	732.2	incongruent	Block3	incongruent/STIM_027.jpg	100
2710.309	0.654	654.1	incongruent	Block3	incongruent/STIM_028.jpg	100
2713.593	0.67	669.5	incongruent	Block3	incongruent/STIM_028.jpg	100
2717.894	0.423	423.0	incongruent	Block3	incongruent/STIM_028.jpg	100
2722.091	0.765	765.1	incongruent	Block3	incongruent/STIM_028.jpg	99
2725.537	0.668	667.7	incongruent	Block3	incongruent/STIM_028.jpg	100
2729.786	0.64	639.6	incongruent	Block3	incongruent/STIM_029.jpg	99
2732.852	0.506	506.0	incongruent	Block3	incongruent/STIM_029.jpg	100
2737.066	0.534	533.9	incongruent	Block3	incongruent/STIM_029.jpg	100
2741.576	0.509	509.2	incongruent	Block3	incongruent/STIM_029.jpg	99
2745.541	0.795	795.2	incongruent	Block3	incongruent/STIM_029.jpg	100
2749.135	0.405	405.1	congruent	Block3	congruent/STIM_000.jpg	100
2752.94	0.483	482.6	congruent	Block3	congruent/STIM_000.jpg	100
2757.391	0.611	611.1	congruent	Block3	congruent/STIM_000.jpg	100
2760.634	0.556	556.0	congruent	Block3	congruent/STIM_000.jpg	99
2764.255	0.497	497.3	congruent	Block3	congruent/STIM_000.jpg	99
2767.483	0.514	514.4	congruent	Block3	congruent/STIM_001.jpg	99
2771.364	0.532	531.6	congruent	Block3	congruent/STIM_001.jpg	99
2775.808	0.442	442.0	congruent	Block3	congruent/STIM_001.jpg	99
2778.705	0.42	420.0	congruent	Block3	congruent/STIM_001.jpg	100
2781.128	0.608	608.1	congruent	Block3	congruent/STIM_001.jpg	100
2783.89	0.538	537.5	congruent	Block3	congruent/STIM_002.jpg	100
2787.938	0.534	534.2	congruent	Block3	congruent/STIM_002.jpg	99
2791.769	0.56	559.8	congruent	Block3	congruent/STIM_002.jpg	100
2794.381	0.554	553.8	congruent	Block3	congruent/STIM_002.jpg	99
2797.018	0.46	460.4	congruent	Block3	congruent/STIM_002.jpg	99
2800.039	0.597	597.3	congruent	Block3	congruent/STIM_003.jpg	99
2803.319	0.672	672.5	congruent	Block3	congruent/STIM_003.jpg	100
2807.986	0.505	505.3	congruent	Block3	congruent/STIM_003.jpg	100
2811.517	0.399	398.7	congruent	Block3	congruent/STIM_003.jpg	99
2814.278	0.444	444.0	congruent	Block3	congruent/STIM_003.jpg	99
2817.113	0.673	673.1	congruent	Block3	congruent/STIM_004.jpg	100
2821.639	0.648	647.8	congruent	Block3	congruent/STIM_004.jpg	100
2824.783	0.519	519.0	congruent	Block3	congruent/STIM_004.jpg	99
2828.774	0.658	658.5	congruent	Block3	congruent/STIM_004.jpg	99
2832.169	0.513	512.6	congruent	Block3	congruent/STIM_004.jpg	99
2836.204	0.614	614.1	congruent	Block3	congruent/STIM_005.jpg	99
2840.791	0.695	694.8	congruent	Block3	congruent/STIM_005.jpg	100
2845.449	0.664	663.6	congruent	Block3	congruent/STIM_005.jpg	99
2849.167	0.61	610.2	congruent	Block3	congruent/STIM_005.jpg	99
2853.328	0.559	558.9	congruent	Block3	congruent/STIM_005.jpg	99
2857.833	0.606	605.9	congruent	Block3	congruent/STIM_006.jpg	99
2860.759	0.558	557.9	congruent	Block3	congruent/STIM_006.jpg	100
2864.877	0.406	406.3	congruent	Block3	congruent/STIM_006.jpg	99
2868.544	0.521	520.8	congruent	Block3	congruent/STIM_006.jpg	99
2872.804	0.424	424.2	congruent	Block3	congruent/STIM_006.jpg	100
2875.989	0.504	504.0	congruent	Block3	congruent/STIM_007.jpg	100
2879.237	0.433	433.0	congruent	Block3	congruent/STIM_007.jpg	100
2882.553	0.473	472.9	congruent	Block3	congruent/STIM_007.jpg	99
2886.646	0.575	575.1	congruent	Block3	congruent/STIM_007.jpg	100
2891.176	0.514	514.3	congruent	Block3	congruent/STIM_007.jpg	99
2894.936	0.626	625.7	congruent	Block3	congruent/STIM_008.jpg	99
2899.345	0.41	409.7	congruent	Block3	congruent/STIM_008.jpg	99
2903.606	0.435	435.0	congruent	Block3	congruent/STIM_008.jpg	99
2906.286	0.594	594.2	congruent	Block3	congruent/STIM_008.jpg	99
2909.868	0.594	594.3	congruent	Block3	congruent/STIM_008.jpg	100
2913.516	0.511	510.7	congruent	Block3	congruent/STIM_009.jpg	99
2917.309	0.438	438.2	congruent	Block3	congruent/STIM_009.jpg	100
2920.766	0.547	547.2	congruent	Block3	congruent/STIM_009.jpg	99
2923.733	0.427	427.4	congruent	Block3	congruent/STIM_009.jpg	100
2928.14	0.631	630.8	congruent	Block3	congruent/STIM_009.jpg	99
2932.277	0.607	606.6	congruent	Block3	congruent/STIM_010.jpg	100
2934.896	0.456	455.6	congruent	Block3	congruent/STIM_010.jpg	100
2938.489	0.425	424.9	congruent	Block3	congruent/STIM_010.jpg	100
2941.922	0.44	440.1	congruent	Block3	congruent/STIM_010.jpg	100
2945.687	0.428	427.9	congruent	Block3	congruent/STIM_010.jpg	99
2948.513	0.477	476.8	congruent	Block3	congruent/STIM_011.jpg	100
2952.866	0.5	500.2	congruent	Block3	congruent/STIM_011.jpg	99
2957.255	0.656	656.4	congruent	Block3	congruent/STIM_011.jpg	100
2960.121	0.507	507.0	congruent	Block3	congruent/STIM_011.jpg	99
2963.955	0.633	632.7	congruent	Block3	congruent/STIM_011.jpg	100
2967.181	0.679	679.4	congruent	Block3	congruent/STIM_012.jpg	99
2971.344	0.577	576.9	congruent	Block3	congruent/STIM_012.jpg	99
2974.875	0.521	520.9	congruent	Block3	congruent/STIM_012.jpg	100
2979.111	0.544	543.8	congruent	Block3	congruent/STIM_012.jpg	99
2982.276	0.495	495.0	congruent	Block3	congruent/STIM_012.jpg	100
2986.713	0.548	547.9	congruent	Block3	congruent/STIM_013.jpg	99
2990.383	0.53	530.0	congruent	Block3	congruent/STIM_013.jpg	99
2994.048	0.444	443.8	congruent	Block3	congruent/STIM_013.jpg	99
2996.784	0.598	598.4	congruent	Block3	congruent/STIM_013.jpg	100
3000.094	0.598	597.6	congruent	Block3	congruent/STIM_013.jpg	100
3003.455	0.55	549.7	congruent	Block3	congruent/STIM_014.jpg	99
3006.471	0.507	507.5	congruent	Block3	congruent/STIM_014.jpg	99
3009.611	0.45	450.1	congruent	Block3	congruent/STIM_014.jpg	100
3012.889	0.504	504.2	congruent	Block3	congruent/STIM_014.jpg	99
3015.792	0.535	535.2	congruent	Block3	congruent/STIM_014.jpg	100
3019.714	0.659	659.1	congruent	Block3	congruent/STIM_015.jpg	99
3022.632	0.67	669.8	congruent	Block3	congruent/STIM_015.jpg	100
3025.732	0.538	538.3	congruent	Block3	congruent/STIM_015.jpg	99
3028.408	0.561	560.8	congruent	Block3	congruent/STIM_015.jpg	100
3032.826	0.557	557.4	congruent	Block3	congruent/STIM_015.jpg	99
3036.584	0.662	661.6	congruent	Block3	congruent/STIM_016.jpg	99
3041.09	0.544	543.7	congruent	Block3	congruent/STIM_016.jpg	99
3044.9	0.43	430.2	congruent	Block3	congruent/STIM_016.jpg	100
3048.797	0.56	560.0	congruent	Block3	congruent/STIM_016.jpg	100
3051.889	0.481	480.9	congruent	Block3	congruent/STIM_016.jpg	100
3054.684	0.623	623.4	congruent	Block3	congruent/STIM_017.jpg	100
3057.317	0.583	583.0	congruent	Block3	congruent/STIM_017.jpg	100
3061.661	0.399	398.9	congruent	Block3	congruent/STIM_017.jpg	99
3064.902	0.489	488.7	congruent	Block3	congruent/STIM_017.jpg	100
3068.447	0.493	492.7	congruent	Block3	congruent/STIM_017.jpg	99
3071.538	0.395	395.4	congruent	Block3	congruent/STIM_018.jpg	99
3074.194	0.528	527.9	congruent	Block3	congruent/STIM_018.jpg	99
3077.527	0.542	542.4	congruent	Block3	congruent/STIM_018.jpg	100
3080.615	0.514	514.1	congruent	Block3	congruent/STIM_018.jpg	99
3083.73	0.564	563.5	congruent	Block3	congruent/STIM_018.jpg	99
3088.158	0.491	490.7	congruent	Block3	congruent/STIM_019.jpg	99
3092.545	0.545	544.9	congruent	Block3	congruent/STIM_019.jpg	100
3096.265	0.668	667.8	congruent	Block3	congruent/STIM_019.jpg	99
3100.542	0.402	402.3	congruent	Block3	congruent/STIM_019.jpg	99
3104.621	0.546	546.2	congruent	Block3	congruent/STIM_019.jpg	99
3107.885	0.528	527.9	congruent	Block3	congruent/STIM_020.jpg	99
3111.362	0.649	649.3	congruent	Block3	congruent/STIM_020.jpg	99
3115.45	0.697	697.4	congruent	Block3	congruent/STIM_020.jpg	99
3119.855	0.472	471.6	congruent	Block3	congruent/STIM_020.jpg	100
3123.868	0.398	398.0	congruent	Block3	congruent/STIM_020.jpg	99
3128.188	0.652	651.6	congruent	Block3	congruent/STIM_021.jpg	100
3131.372	0.469	469.2	congruent	Block3	congruent/STIM_021.jpg	99
3133.89	0.578	577.8	congruent	Block3	congruent/STIM_021.jpg	100
3138.348	0.576	576.2	congruent	Block3	congruent/STIM_021.jpg	99
3142.739	0.593	593.2	congruent	Block3	congruent/STIM_021.jpg	99
3146.715	0.637	637.4	congruent	Block3	congruent/STIM_022.jpg	99
3150.348	0.59	590.4	congruent	Block3	congruent/STIM_022.jpg	100
3153.367	0.517	517.0	congruent	Block3	congruent/STIM_022.jpg	99
3156.925	0.563	563.3	congruent	Block3	congruent/STIM_022.jpg	99
3159.881	0.467	466.6	congruent	Block3	congruent/STIM_022.jpg	99
3163.503	0.651	650.8	congruent	Block3	congruent/STIM_023.jpg	99
3167.045	0.672	672.0	congruent	Block3	congruent/STIM_023.jpg	99
3171.087	0.472	472.5	congruent	Block3	congruent/STIM_023.jpg	100
3175.148	0.452	451.9	congruent	Block3	congruent/STIM_023.jpg	100
3177.631	0.439	439.4	congruent	Block3	congruent/STIM_023.jpg	100
3181.377	0.668	668.4	congruent	Block3	congruent/STIM_024.jpg	100
3185.556	0.512	511.8	congruent	Block3	congruent/STIM_024.jpg	100
3188.229	0.412	411.9	congruent	Block3	congruent/STIM_024.jpg	100
3192.039	0.498	498.2	congruent	Block3	congruent/STIM_024.jpg	100
3195.785	0.477	476.6	congruent	Block3	congruent/STIM_024.jpg	99
3199.099	0.595	595.2	congruent	Block3	congruent/STIM_025.jpg	100
3202.821	0.548	547.5	congruent	Block3	congruent/STIM_025.jpg	99
3206.258	0.558	557.5	congruent	Block3	congruent/STIM_025.jpg	100
3210.184	0.488	488.2	congruent	Block3	congruent/STIM_025.jpg	100
3213.585	0.626	625.9	congruent	Block3	congruent/STIM_025.jpg	99
3216.757	0.654	653.8	congruent	Block3	congruent/STIM_026.jpg	100
3219.979	0.606	606.1	congruent	Block3	congruent/STIM_026.jpg	100
3224.179	0.568	567.9	congruent	Block3	congruent/STIM_026.jpg	99
3227.3	0.556	556.3	congruent	Block3	congruent/STIM_026.jpg	99
3230.608	0.409	408.8	congruent	Block3	congruent/STIM_026.jpg	99
3233.498	0.495	495.1	congruent	Block3	congruent/STIM_027.jpg	100
3237.597	0.41	409.8	congruent	Block3	congruent/STIM_027.jpg	99
3241.278	0.411	410.6	congruent	Block3	congruent/STIM_027.jpg	99
3244.718	0.545	545.2	congruent	Block3	congruent/STIM_027.jpg	100
3247.551	0.398	398.5	congruent	Block3	congruent/STIM_027.jpg	100
3250.798	0.654	654.2	congruent	Block3	congruent/STIM_028.jpg	100
3254.305	0.621	620.7	congruent	Block3	congruent/STIM_028.jpg	99
3257.655	0.6	600.1	congruent	Block3	congruent/STIM_028.jpg	99
3260.735	0.674	674.1	congruent	Block3	congruent/STIM_028.jpg	100
3263.982	0.615	614.7	congruent	Block3	congruent/STIM_028.jpg	100
3268.039	0.672	672.5	congruent	Block3	congruent/STIM_029.jpg	100
3270.737	0.511	511.3	congruent	Block3	congruent/STIM_029.jpg	99
3274.818	0.493	493.2	congruent	Block3	congruent/STIM_029.jpg	99
3279.142	0.666	666.0	congruent	Block3	congruent/STIM_029.jpg	100
3282.4	0.396	396.1	congruent	Block3	congruent/STIM_029.jpg	99
