onset	duration	accuracy_binary	trial_type	learning_stage	stimulus
0.0	0.963	1	incongruent	Block1	incongruent/STIM_000.jpg
3.89	1.033	1	incongruent	Block1	incongruent/STIM_000.jpg
8.123	0.668	0	incongruent	Block1	incongruent/STIM_000.jpg
11.322	0.782	1	incongruent	Block1	incongruent/STIM_000.jpg
14.792	0.822	1	incongruent	Block1	incongruent/STIM_000.jpg
18.082	0.555	1	incongruent	Block1	incongruent/STIM_001.jpg
22.597	1.046	1	incongruent	Block1	incongruent/STIM_001.jpg
26.637	0.944	0	incongruent	Block1	incongruent/STIM_001.jpg
30.071	0.555	1	incongruent	Block1	incongruent/STIM_001.jpg
33.623	0.843	1	incongruent	Block1	incongruent/STIM_001.jpg
37.694	1.127	1	incongruent	Block1	incongruent/STIM_002.jpg
41.066	0.936	1	incongruent	Block1	incongruent/STIM_002.jpg
44.756	0.892	1	incongruent	Block1	incongruent/STIM_002.jpg
48.491	0.481	1	incongruent	Block1	incongruent/STIM_002.jpg
52.283	0.821	1	incongruent	Block1	incongruent/STIM_002.jpg
55.372	1.033	0	incongruent	Block1	incongruent/STIM_003.jpg
59.537	0.641	1	incongruent	Block1	incongruent/STIM_003.jpg
63.499	0.607	1	incongruent	Block1	incongruent/STIM_003.jpg
66.959	0.747	1	incongruent	Block1	incongruent/STIM_003.jpg
71.52	0.89	1	incongruent	Block1	incongruent/STIM_003.jpg
75.68	0.695	0	incongruent	Block1	incongruent/STIM_004.jpg
78.915	0.566	1	incongruent	Block1	incongruent/STIM_004.jpg
81.786	0.504	1	incongruent	Block1	incongruent/STIM_004.jpg
84.905	0.805	1	incongruent	Block1	incongruent/STIM_004.jpg
88.753	0.447	1	incongruent	Block1	incongruent/STIM_004.jpg
93.129	1.174	1	incongruent	Block1	incongruent/STIM_005.jpg
96.681	0.764	1	incongruent	Block1	incongruent/STIM_005.jpg
100.321	0.688	1	incongruent	Block1	incongruent/STIM_005.jpg
104.938	0.592	1	incongruent	Block1	incongruent/STIM_005.jpg
109.261	0.452	1	incongruent	Block1	incongruent/STIM_005.jpg
113.276	1.045	1	incongruent	Block1	incongruent/STIM_006.jpg
116.783	1.079	1	incongruent	Block1	incongruent/STIM_006.jpg
121.268	1.006	1	incongruent	Block1	incongruent/STIM_006.jpg
126.038	0.872	1	incongruent	Block1	incongruent/STIM_006.jpg
129.332	0.579	1	incongruent	Block1	incongruent/STIM_006.jpg
133.83	0.799	1	incongruent	Block1	incongruent/STIM_007.jpg
137.354	0.706	1	incongruent	Block1	incongruent/STIM_007.jpg
140.304	0.774	0	incongruent	Block1	incongruent/STIM_007.jpg
143.542	0.641	1	incongruent	Block1	incongruent/STIM_007.jpg
146.99	0.526	1	incongruent	Block1	incongruent/STIM_007.jpg
151.506	0.812	1	incongruent	Block1	incongruent/STIM_008.jpg
155.419	0.689	1	incongruent	Block1	incongruent/STIM_008.jpg
159.03	1.055	1	incongruent	Block1	incongruent/STIM_008.jpg
163.101	0.803	1	incongruent	Block1	incongruent/STIM_008.jpg
167.393	0.566	1	incongruent	Block1	incongruent/STIM_008.jpg
171.096	0.885	1	incongruent	Block1	incongruent/STIM_009.jpg
174.593	1.019	1	incongruent	Block1	incongruent/STIM_009.jpg
178.147	0.92	1	incongruent	Block1	incongruent/STIM_009.jpg
182.801	0.506	1	incongruent	Block1	incongruent/STIM_009.jpg
185.738	0.621	1	incongruent	Block1	incongruent/STIM_009.jpg
189.476	0.562	1	incongruent	Block1	incongruent/STIM_010.jpg
193.201	0.695	1	incongruent	Block1	incongruent/STIM_010.jpg
195.943	0.595	1	incongruent	Block1	incongruent/STIM_010.jpg
200.006	0.871	1	incongruent	Block1	incongruent/STIM_010.jpg
204.085	0.788	1	incongruent	Block1	incongruent/STIM_010.jpg
208.463	0.68	1	incongruent	Block1	incongruent/STIM_011.jpg
212.518	0.855	1	incongruent	Block1	incongruent/STIM_011.jpg
215.632	1.031	1	incongruent	Block1	incongruent/STIM_011.jpg
219.632	0.479	1	incongruent	Block1	incongruent/STIM_011.jpg
223.032	0.492	1	incongruent	Block1	incongruent/STIM_011.jpg
225.661	0.611	1	incongruent	Block1	incongruent/STIM_012.jpg
228.629	0.632	1	incongruent	Block1	incongruent/STIM_012.jpg
231.878	0.519	1	incongruent	Block1	incongruent/STIM_012.jpg
234.539	0.764	1	incongruent	Block1	incongruent/STIM_012.jpg
239.022	0.513	1	incongruent	Block1	incongruent/STIM_012.jpg
243.379	0.555	1	incongruent	Block1	incongruent/STIM_013.jpg
247.01	0.526	1	incongruent	Block1	incongruent/STIM_013.jpg
251.099	0.865	1	incongruent	Block1	incongruent/STIM_013.jpg
254.749	0.918	1	incongruent	Block1	incongruent/STIM_013.jpg
258.571	0.524	1	incongruent	Block1	incongruent/STIM_013.jpg
261.778	0.763	1	incongruent	Block1	incongruent/STIM_014.jpg
266.118	0.968	1	incongruent	Block1	incongruent/STIM_014.jpg
269.414	0.607	1	incongruent	Block1	incongruent/STIM_014.jpg
273.67	0.632	1	incongruent	Block1	incongruent/STIM_014.jpg
277.124	0.922	1	incongruent	Block1	incongruent/STIM_014.jpg
282.038	0.684	1	incongruent	Block1	incongruent/STIM_015.jpg
286.337	1.066	1	incongruent	Block1	incongruent/STIM_015.jpg
291.042	1.014	1	incongruent	Block1	incongruent/STIM_015.jpg
294.836	0.972	1	incongruent	Block1	incongruent/STIM_015.jpg
298.767	0.789	1	incongruent	Block1	incongruent/STIM_015.jpg
303.36	1.059	1	incongruent	Block1	incongruent/STIM_016.jpg
306.504	0.959	1	incongruent	Block1	incongruent/STIM_016.jpg
309.896	0.819	1	incongruent	Block1	incongruent/STIM_016.jpg
314.097	0.7	1	incongruent	Block1	incongruent/STIM_016.jpg
316.974	0.678	1	incongruent	Block1	incongruent/STIM_016.jpg
321.332	1.159	1	incongruent	Block1	incongruent/STIM_017.jpg
325.092	0.585	1	incongruent	Block1	incongruent/STIM_017.jpg
328.58	0.774	1	incongruent	Block1	incongruent/STIM_017.jpg
333.072	0.875	1	incongruent	Block1	incongruent/STIM_017.jpg
337.581	0.561	1	incongruent	Block1	incongruent/STIM_017.jpg
340.79	0.586	1	incongruent	Block1	incongruent/STIM_018.jpg
343.826	0.97	1	incongruent	Block1	incongruent/STIM_018.jpg
347.258	0.785	1	incongruent	Block1	incongruent/STIM_018.jpg
351.742	0.949	1	incongruent	Block1	incongruent/STIM_018.jpg
355.409	0.685	1	incongruent	Block1	incongruent/STIM_018.jpg
359.02	0.821	0	incongruent	Block1	incongruent/STIM_019.jpg
362.966	0.535	1	incongruent	Block1	incongruent/STIM_019.jpg
366.789	0.673	1	incongruent	Block1	incongruent/STIM_019.jpg
370.685	0.818	1	incongruent	Block1	incongruent/STIM_019.jpg
375.455	0.85	1	incongruent	Block1	incongruent/STIM_019.jpg
378.919	1.153	1	incongruent	Block1	incongruent/STIM_020.jpg
383.875	1.044	1	incongruent	Block1	incongruent/STIM_020.jpg
388.385	0.822	1	incongruent	Block1	incongruent/STIM_020.jpg
391.572	0.892	1	incongruent	Block1	incongruent/STIM_020.jpg
394.883	0.835	1	incongruent	Block1	incongruent/STIM_020.jpg
399.301	1.094	1	incongruent	Block1	incongruent/STIM_021.jpg
403.022	0.973	1	incongruent	Block1	incongruent/STIM_021.jpg
406.698	0.627	1	incongruent	Block1	incongruent/STIM_021.jpg
410.571	0.865	1	incongruent	Block1	incongruent/STIM_021.jpg
414.915	0.876	1	incongruent	Block1	incongruent/STIM_021.jpg
418.219	0.734	1	incongruent	Block1	incongruent/STIM_022.jpg
421.119	0.775	1	incongruent	Block1	incongruent/STIM_022.jpg
424.535	0.914	0	incongruent	Block1	incongruent/STIM_022.jpg
427.917	0.746	0	incongruent	Block1	incongruent/STIM_022.jpg
431.617	0.707	1	incongruent	Block1	incongruent/STIM_022.jpg
434.921	0.561	1	incongruent	Block1	incongruent/STIM_023.jpg
439.179	0.666	1	incongruent	Block1	incongruent/STIM_023.jpg
443.732	0.613	1	incongruent	Block1	incongruent/STIM_023.jpg
446.608	0.578	1	incongruent	Block1	incongruent/STIM_023.jpg
450.79	0.854	1	incongruent	Block1	incongruent/STIM_023.jpg
454.736	0.877	1	incongruent	Block1	incongruent/STIM_024.jpg
458.72	0.76	1	incongruent	Block1	incongruent/STIM_024.jpg
462.823	0.584	1	incongruent	Block1	incongruent/STIM_024.jpg
467.185	0.712	1	incongruent	Block1	incongruent/STIM_024.jpg
469.988	0.668	1	incongruent	Block1	incongruent/STIM_024.jpg
473.129	0.93	1	incongruent	Block1	incongruent/STIM_025.jpg
477.425	0.881	1	incongruent	Block1	incongruent/STIM_025.jpg
481.931	0.947	1	incongruent	Block1	incongruent/STIM_025.jpg
486.652	0.552	1	incongruent	Block1	incongruent/STIM_025.jpg
490.063	0.64	1	incongruent	Block1	incongruent/STIM_025.jpg
493.84	0.831	1	incongruent	Block1	incongruent/STIM_026.jpg
498.028	0.623	1	incongruent	Block1	incongruent/STIM_026.jpg
501.209	0.722	1	incongruent	Block1	incongruent/STIM_026.jpg
504.316	0.926	1	incongruent	Block1	incongruent/STIM_026.jpg
508.306	0.9	1	incongruent	Block1	incongruent/STIM_026.jpg
511.785	1.083	1	incongruent	Block1	incongruent/STIM_027.jpg
516.142	0.536	1	incongruent	Block1	incongruent/STIM_027.jpg
520.263	1.01	1	incongruent	Block1	incongruent/STIM_027.jpg
524.047	0.618	1	incongruent	Block1	incongruent/STIM_027.jpg
527.804	0.468	1	incongruent	Block1	incongruent/STIM_027.jpg
530.615	0.834	1	incongruent	Block1	incongruent/STIM_028.jpg
534.749	0.677	1	incongruent	Block1	incongruent/STIM_028.jpg
538.757	0.632	1	incongruent	Block1	incongruent/STIM_028.jpg
541.789	0.832	1	incongruent	Block1	incongruent/STIM_028.jpg
545.767	0.842	1	incongruent	Block1	incongruent/STIM_028.jpg
549.308	0.974	1	incongruent	Block1	incongruent/STIM_029.jpg
552.597	1.1	1	incongruent	Block1	incongruent/STIM_029.jpg
556.92	0.534	0	incongruent	Block1	incongruent/STIM_029.jpg
560.674	0.99	1	incongruent	Block1	incongruent/STIM_029.jpg
564.579	0.635	1	incongruent	Block1	incongruent/STIM_029.jpg
568.835	0.604	1	congruent	Block1	congruent/STIM_000.jpg
572.532	0.553	1	congruent	Block1	congruent/STIM_000.jpg
575.292	0.58	0	congruent	Block1	congruent/STIM_000.jpg
579.187	0.608	1	congruent	Block1	congruent/STIM_000.jpg
583.028	0.593	1	congruent	Block1	congruent/STIM_000.jpg
586.572	0.415	1	congruent	Block1	congruent/STIM_001.jpg
590.838	0.427	1	congruent	Block1	congruent/STIM_001.jpg
593.978	0.622	1	congruent	Block1	congruent/STIM_001.jpg
597.665	0.651	1	congruent	Block1	congruent/STIM_001.jpg
600.971	0.688	1	congruent	Block1	congruent/STIM_001.jpg
604.496	0.673	1	congruent	Block1	congruent/STIM_002.jpg
608.066	0.398	1	congruent	Block1	congruent/STIM_002.jpg
610.681	0.419	1	congruent	Block1	congruent/STIM_002.jpg
614.79	0.588	1	congruent	Block1	congruent/STIM_002.jpg
618.912	0.665	1	congruent	Block1	congruent/STIM_002.jpg
623.486	0.641	1	congruent	Block1	congruent/STIM_003.jpg
626.158	0.653	1	congruent	Block1	congruent/STIM_003.jpg
630.452	0.533	1	congruent	Block1	congruent/STIM_003.jpg
634.25	0.474	1	congruent	Block1	congruent/STIM_003.jpg
637.12	0.682	1	congruent	Block1	congruent/STIM_003.jpg
640.345	0.579	1	congruent	Block1	congruent/STIM_004.jpg
644.737	0.533	1	congruent	Block1	congruent/STIM_004.jpg
647.675	0.553	1	congruent	Block1	congruent/STIM_004.jpg
652.031	0.512	1	congruent	Block1	congruent/STIM_004.jpg
654.782	0.701	1	congruent	Block1	congruent/STIM_004.jpg
657.607	0.519	1	congruent	Block1	congruent/STIM_005.jpg
660.676	0.51	1	congruent	Block1	congruent/STIM_005.jpg
664.055	0.626	1	congruent	Block1	congruent/STIM_005.jpg
668.456	0.623	1	congruent	Block1	congruent/STIM_005.jpg
673.021	0.429	1	congruent	Block1	congruent/STIM_005.jpg
675.885	0.42	1	congruent	Block1	congruent/STIM_006.jpg
679.753	0.523	1	congruent	Block1	congruent/STIM_006.jpg
682.613	0.64	1	congruent	Block1	congruent/STIM_006.jpg
686.897	0.667	1	congruent	Block1	congruent/STIM_006.jpg
689.701	0.617	1	congruent	Block1	congruent/STIM_006.jpg
692.854	0.685	1	congruent	Block1	congruent/STIM_007.jpg
696.536	0.555	1	congruent	Block1	congruent/STIM_007.jpg
700.606	0.7	1	congruent	Block1	congruent/STIM_007.jpg
704.033	0.668	1	congruent	Block1	congruent/STIM_007.jpg
707.423	0.522	1	congruent	Block1	congruent/STIM_007.jpg
711.935	0.481	1	congruent	Block1	congruent/STIM_008.jpg
715.365	0.68	1	congruent	Block1	congruent/STIM_008.jpg
719.475	0.401	1	congruent	Block1	congruent/STIM_008.jpg
721.959	0.502	1	congruent	Block1	congruent/STIM_008.jpg
725.388	0.473	1	congruent	Block1	congruent/STIM_008.jpg
728.731	0.404	1	congruent	Block1	congruent/STIM_009.jpg
732.156	0.696	1	congruent	Block1	congruent/STIM_009.jpg
735.143	0.397	1	congruent	Block1	congruent/STIM_009.jpg
737.797	0.552	1	congruent	Block1	congruent/STIM_009.jpg
740.905	0.433	1	congruent	Block1	congruent/STIM_009.jpg
744.073	0.589	1	congruent	Block1	congruent/STIM_010.jpg
748.131	0.58	1	congruent	Block1	congruent/STIM_010.jpg
752.215	0.587	1	congruent	Block1	congruent/STIM_010.jpg
755.746	0.606	1	congruent	Block1	congruent/STIM_010.jpg
760.08	0.544	1	congruent	Block1	congruent/STIM_010.jpg
764.081	0.686	1	congruent	Block1	congruent/STIM_011.jpg
767.533	0.623	1	congruent	Block1	congruent/STIM_011.jpg
771.926	0.7	1	congruent	Block1	congruent/STIM_011.jpg
776.543	0.414	1	congruent	Block1	congruent/STIM_011.jpg
780.883	0.585	1	congruent	Block1	congruent/STIM_011.jpg
784.135	0.404	1	congruent	Block1	congruent/STIM_012.jpg
787.928	0.4	1	congruent	Block1	congruent/STIM_012.jpg
791.834	0.687	1	congruent	Block1	congruent/STIM_012.jpg
794.907	0.396	1	congruent	Block1	congruent/STIM_012.jpg
797.638	0.688	1	congruent	Block1	congruent/STIM_012.jpg
800.517	0.4	1	congruent	Block1	congruent/STIM_013.jpg
804.227	0.691	1	congruent	Block1	congruent/STIM_013.jpg
808.788	0.554	1	congruent	Block1	congruent/STIM_013.jpg
812.029	0.446	1	congruent	Block1	congruent/STIM_013.jpg
815.397	0.454	1	congruent	Block1	congruent/STIM_013.jpg
819.287	0.562	1	congruent	Block1	congruent/STIM_014.jpg
822.348	0.628	1	congruent	Block1	congruent/STIM_014.jpg
825.031	0.472	1	congruent	Block1	congruent/STIM_014.jpg
829.056	0.401	1	congruent	Block1	congruent/STIM_014.jpg
833.374	0.64	1	congruent	Block1	congruent/STIM_014.jpg
837.809	0.511	1	congruent	Block1	congruent/STIM_015.jpg
841.51	0.558	1	congruent	Block1	congruent/STIM_015.jpg
845.959	0.443	1	congruent	Block1	congruent/STIM_015.jpg
849.527	0.606	1	congruent	Block1	congruent/STIM_015.jpg
853.568	0.674	1	congruent	Block1	congruent/STIM_015.jpg
857.897	0.459	1	congruent	Block1	congruent/STIM_016.jpg
861.332	0.53	1	congruent	Block1	congruent/STIM_016.jpg
865.554	0.442	1	congruent	Block1	congruent/STIM_016.jpg
869.383	0.661	1	congruent	Block1	congruent/STIM_016.jpg
873.0	0.516	1	congruent	Block1	congruent/STIM_016.jpg
877.079	0.659	1	congruent	Block1	congruent/STIM_017.jpg
880.712	0.475	1	congruent	Block1	congruent/STIM_017.jpg
883.684	0.49	1	congruent	Block1	congruent/STIM_017.jpg
886.594	0.428	1	congruent	Block1	congruent/STIM_017.jpg
890.083	0.478	0	congruent	Block1	congruent/STIM_017.jpg
893.094	0.672	1	congruent	Block1	congruent/STIM_018.jpg
896.265	0.47	1	congruent	Block1	congruent/STIM_018.jpg
898.903	0.529	1	congruent	Block1	congruent/STIM_018.jpg
903.245	0.565	1	congruent	Block1	congruent/STIM_018.jpg
907.025	0.513	1	congruent	Block1	congruent/STIM_018.jpg
910.355	0.63	1	congruent	Block1	congruent/STIM_019.jpg
913.957	0.416	1	congruent	Block1	congruent/STIM_019.jpg
916.795	0.677	1	congruent	Block1	congruent/STIM_019.jpg
920.65	0.549	1	congruent	Block1	congruent/STIM_019.jpg
923.83	0.501	1	congruent	Block1	congruent/STIM_019.jpg
927.78	0.422	1	congruent	Block1	congruent/STIM_020.jpg
931.213	0.554	1	congruent	Block1	congruent/STIM_020.jpg
935.252	0.552	1	congruent	Block1	congruent/STIM_020.jpg
939.4	0.58	1	congruent	Block1	congruent/STIM_020.jpg
943.421	0.509	1	congruent	Block1	congruent/STIM_020.jpg
947.244	0.41	1	congruent	Block1	congruent/STIM_021.jpg
951.428	0.512	1	congruent	Block1	congruent/STIM_021.jpg
954.491	0.644	1	congruent	Block1	congruent/STIM_021.jpg
957.378	0.585	1	congruent	Block1	congruent/STIM_021.jpg
961.822	0.672	1	congruent	Block1	congruent/STIM_021.jpg
965.472	0.682	1	congruent	Block1	congruent/STIM_022.jpg
969.544	0.565	1	congruent	Block1	congruent/STIM_022.jpg
973.481	0.517	1	congruent	Block1	congruent/STIM_022.jpg
976.255	0.516	1	congruent	Block1	congruent/STIM_022.jpg
980.311	0.67	1	congruent	Block1	congruent/STIM_022.jpg
984.571	0.423	1	congruent	Block1	congruent/STIM_023.jpg
987.115	0.487	1	congruent	Block1	congruent/STIM_023.jpg
990.058	0.466	1	congruent	Block1	congruent/STIM_023.jpg
993.088	0.581	1	congruent	Block1	congruent/STIM_023.jpg
995.904	0.521	1	congruent	Block1	congruent/STIM_023.jpg
998.801	0.681	1	congruent	Block1	congruent/STIM_024.jpg
1002.644	0.646	1	congruent	Block1	congruent/STIM_024.jpg
1005.576	0.7	1	congruent	Block1	congruent/STIM_024.jpg
1008.853	0.4	1	congruent	Block1	congruent/STIM_024.jpg
1013.099	0.557	1	congruent	Block1	congruent/STIM_024.jpg
1017.114	0.562	1	congruent	Block1	congruent/STIM_025.jpg
1020.324	0.458	1	congruent	Block1	congruent/STIM_025.jpg
1023.131	0.651	1	congruent	Block1	congruent/STIM_025.jpg
1027.138	0.624	1	congruent	Block1	congruent/STIM_025.jpg
1030.064	0.407	1	congruent	Block1	congruent/STIM_025.jpg
1033.38	0.61	1	congruent	Block1	congruent/STIM_026.jpg
1036.309	0.61	1	congruent	Block1	congruent/STIM_026.jpg
1040.467	0.681	1	congruent	Block1	congruent/STIM_026.jpg
1043.513	0.653	1	congruent	Block1	congruent/STIM_026.jpg
1047.55	0.572	0	congruent	Block1	congruent/STIM_026.jpg
1050.15	0.578	1	congruent	Block1	congruent/STIM_027.jpg
1054.208	0.598	1	congruent	Block1	congruent/STIM_027.jpg
1057.574	0.664	1	congruent	Block1	congruent/STIM_027.jpg
1061.194	0.513	1	congruent	Block1	congruent/STIM_027.jpg
1063.967	0.404	1	congruent	Block1	congruent/STIM_027.jpg
1068.087	0.396	1	congruent	Block1	congruent/STIM_028.jpg
1070.692	0.398	1	congruent	Block1	congruent/STIM_028.jpg
1074.148	0.596	0	congruent	Block1	congruent/STIM_028.jpg
1078.414	0.432	1	congruent	Block1	congruent/STIM_028.jpg
1082.733	0.686	1	congruent	Block1	congruent/STIM_028.jpg
1085.758	0.597	1	congruent	Block1	congruent/STIM_029.jpg
1088.394	0.41	1	congruent	Block1	congruent/STIM_029.jpg
1091.633	0.438	1	congruent	Block1	congruent/STIM_029.jpg
1095.726	0.506	1	congruent	Block1	congruent/STIM_029.jpg
1099.912	0.627	1	congruent	Block1	congruent/STIM_029.jpg
1102.785	0.872	1	incongruent	Block2	incongruent/STIM_000.jpg
1106.888	0.571	1	incongruent	Block2	incongruent/STIM_000.jpg
1110.134	0.788	1	incongruent	Block2	incongruent/STIM_000.jpg
1113.183	0.712	1	incongruent	Block2	incongruent/STIM_000.jpg
1116.814	0.396	1	incongruent	Block2	incongruent/STIM_000.jpg
1121.167	0.73	1	incongruent	Block2	incongruent/STIM_001.jpg
1125.43	0.75	1	incongruent	Block2	incongruent/STIM_001.jpg
1129.942	0.626	1	incongruent	Block2	incongruent/STIM_001.jpg
1132.582	0.814	1	incongruent	Block2	incongruent/STIM_001.jpg
1135.518	0.531	1	incongruent	Block2	incongruent/STIM_001.jpg
1139.266	0.82	1	incongruent	Block2	incongruent/STIM_002.jpg
1143.05	0.491	1	incongruent	Block2	incongruent/STIM_002.jpg
1147.184	0.552	1	incongruent	Block2	incongruent/STIM_002.jpg
1150.2	0.554	1	incongruent	Block2	incongruent/STIM_002.jpg
1153.685	0.537	1	incongruent	Block2	incongruent/STIM_002.jpg
1156.676	0.827	1	incongruent	Block2	incongruent/STIM_003.jpg
1160.519	0.868	1	incongruent	Block2	incongruent/STIM_003.jpg
1163.518	0.711	1	incongruent	Block2	incongruent/STIM_003.jpg
1167.72	0.547	1	incongruent	Block2	incongruent/STIM_003.jpg
1172.138	0.782	1	incongruent	Block2	incongruent/STIM_003.jpg
1176.767	0.59	1	incongruent	Block2	incongruent/STIM_004.jpg
1179.404	0.553	1	incongruent	Block2	incongruent/STIM_004.jpg
1182.133	0.795	1	incongruent	Block2	incongruent/STIM_004.jpg
1186.026	0.749	1	incongruent	Block2	incongruent/STIM_004.jpg
1188.841	0.81	1	incongruent	Block2	incongruent/STIM_004.jpg
1192.476	0.599	1	incongruent	Block2	incongruent/STIM_005.jpg
1197.009	0.487	1	incongruent	Block2	incongruent/STIM_005.jpg
1200.761	0.517	0	incongruent	Block2	incongruent/STIM_005.jpg
1203.37	0.602	1	incongruent	Block2	incongruent/STIM_005.jpg
1207.29	0.822	1	incongruent	Block2	incongruent/STIM_005.jpg
1211.289	0.609	1	incongruent	Block2	incongruent/STIM_006.jpg
1215.091	0.869	1	incongruent	Block2	incongruent/STIM_006.jpg
1218.067	0.832	1	incongruent	Block2	incongruent/STIM_006.jpg
1221.823	0.613	1	incongruent	Block2	incongruent/STIM_006.jpg
1226.234	0.503	0	incongruent	Block2	incongruent/STIM_006.jpg
1230.475	0.608	1	incongruent	Block2	incongruent/STIM_007.jpg
1233.829	0.81	1	incongruent	Block2	incongruent/STIM_007.jpg
1236.727	0.574	1	incongruent	Block2	incongruent/STIM_007.jpg
1241.251	0.822	1	incongruent	Block2	incongruent/STIM_007.jpg
1246.069	0.484	1	incongruent	Block2	incongruent/STIM_007.jpg
1250.155	0.607	1	incongruent	Block2	incongruent/STIM_008.jpg
1253.606	0.901	1	incongruent	Block2	incongruent/STIM_008.jpg
1258.112	0.751	1	incongruent	Block2	incongruent/STIM_008.jpg
1262.095	0.453	1	incongruent	Block2	incongruent/STIM_008.jpg
1265.874	0.745	1	incongruent	Block2	incongruent/STIM_008.jpg
1269.348	0.815	1	incongruent	Block2	incongruent/STIM_009.jpg
1273.244	0.637	1	incongruent	Block2	incongruent/STIM_009.jpg
1277.178	0.861	1	incongruent	Block2	incongruent/STIM_009.jpg
1280.22	0.809	1	incongruent	Block2	incongruent/STIM_009.jpg
1284.62	0.669	1	incongruent	Block2	incongruent/STIM_009.jpg
1287.603	0.646	1	incongruent	Block2	incongruent/STIM_010.jpg
1291.232	0.91	1	incongruent	Block2	incongruent/STIM_010.jpg
1295.039	0.692	1	incongruent	Block2	incongruent/STIM_010.jpg
1297.884	0.618	1	incongruent	Block2	incongruent/STIM_010.jpg
1300.823	0.482	1	incongruent	Block2	incongruent/STIM_010.jpg
1304.147	0.848	1	incongruent	Block2	incongruent/STIM_011.jpg
1307.237	0.559	1	incongruent	Block2	incongruent/STIM_011.jpg
1310.586	0.661	1	incongruent	Block2	incongruent/STIM_011.jpg
1313.455	0.582	1	incongruent	Block2	incongruent/STIM_011.jpg
1316.125	0.511	1	incongruent	Block2	incongruent/STIM_011.jpg
1318.894	0.481	1	incongruent	Block2	incongruent/STIM_012.jpg
1322.771	0.669	1	incongruent	Block2	incongruent/STIM_012.jpg
1325.845	0.495	1	incongruent	Block2	incongruent/STIM_012.jpg
1328.462	0.547	1	incongruent	Block2	incongruent/STIM_012.jpg
1331.428	0.682	1	incongruent	Block2	incongruent/STIM_012.jpg
1334.599	0.832	1	incongruent	Block2	incongruent/STIM_013.jpg
1339.355	0.442	1	incongruent	Block2	incongruent/STIM_013.jpg
1343.286	0.833	1	incongruent	Block2	incongruent/STIM_013.jpg
1347.568	0.392	1	incongruent	Block2	incongruent/STIM_013.jpg
1350.734	0.581	1	incongruent	Block2	incongruent/STIM_013.jpg
1354.529	0.934	1	incongruent	Block2	incongruent/STIM_014.jpg
1358.922	0.765	1	incongruent	Block2	incongruent/STIM_014.jpg
1361.798	0.823	1	incongruent	Block2	incongruent/STIM_014.jpg
1365.489	0.765	1	incongruent	Block2	incongruent/STIM_014.jpg
1368.982	0.769	1	incongruent	Block2	incongruent/STIM_014.jpg
1372.285	0.752	1	incongruent	Block2	incongruent/STIM_015.jpg
1375.791	0.76	1	incongruent	Block2	incongruent/STIM_015.jpg
1379.584	0.471	1	incongruent	Block2	incongruent/STIM_015.jpg
1382.504	0.79	1	incongruent	Block2	incongruent/STIM_015.jpg
1386.673	0.44	0	incongruent	Block2	incongruent/STIM_015.jpg
1389.354	0.627	1	incongruent	Block2	incongruent/STIM_016.jpg
1392.276	0.807	1	incongruent	Block2	incongruent/STIM_016.jpg
1395.285	0.515	1	incongruent	Block2	incongruent/STIM_016.jpg
1399.777	0.461	1	incongruent	Block2	incongruent/STIM_016.jpg
1402.663	0.798	1	incongruent	Block2	incongruent/STIM_016.jpg
1405.92	0.674	1	incongruent	Block2	incongruent/STIM_017.jpg
1410.432	0.463	1	incongruent	Block2	incongruent/STIM_017.jpg
1413.595	0.731	1	incongruent	Block2	incongruent/STIM_017.jpg
1417.696	0.788	1	incongruent	Block2	incongruent/STIM_017.jpg
1422.021	0.572	1	incongruent	Block2	incongruent/STIM_017.jpg
1426.214	0.986	0	incongruent	Block2	incongruent/STIM_018.jpg
1430.83	0.841	1	incongruent	Block2	incongruent/STIM_018.jpg
1435.182	0.829	1	incongruent	Block2	incongruent/STIM_018.jpg
1439.496	0.444	1	incongruent	Block2	incongruent/STIM_018.jpg
1442.445	0.499	1	incongruent	Block2	incongruent/STIM_018.jpg
1446.537	0.515	0	incongruent	Block2	incongruent/STIM_019.jpg
1450.148	0.64	1	incongruent	Block2	incongruent/STIM_019.jpg
1453.71	0.734	1	incongruent	Block2	incongruent/STIM_019.jpg
1457.937	0.778	1	incongruent	Block2	incongruent/STIM_019.jpg
1461.126	0.41	1	incongruent	Block2	incongruent/STIM_019.jpg
1463.548	0.791	1	incongruent	Block2	incongruent/STIM_020.jpg
1467.901	0.79	1	incongruent	Block2	incongruent/STIM_020.jpg
1472.193	0.87	1	incongruent	Block2	incongruent/STIM_020.jpg
1476.39	0.608	1	incongruent	Block2	incongruent/STIM_020.jpg
1480.687	0.555	1	incongruent	Block2	incongruent/STIM_020.jpg
1484.08	0.744	0	incongruent	Block2	incongruent/STIM_021.jpg
1487.121	0.921	1	incongruent	Block2	incongruent/STIM_021.jpg
1490.16	0.803	1	incongruent	Block2	incongruent/STIM_021.jpg
1494.467	0.482	1	incongruent	Block2	incongruent/STIM_021.jpg
1497.361	0.546	1	incongruent	Block2	incongruent/STIM_021.jpg
1500.485	0.638	1	incongruent	Block2	incongruent/STIM_022.jpg
1504.199	0.941	1	incongruent	Block2	incongruent/STIM_022.jpg
1507.985	0.598	1	incongruent	Block2	incongruent/STIM_022.jpg
1511.338	0.724	1	incongruent	Block2	incongruent/STIM_022.jpg
1514.142	0.401	1	incongruent	Block2	incongruent/STIM_022.jpg
1518.163	0.96	1	incongruent	Block2	incongruent/STIM_023.jpg
1522.752	0.891	1	incongruent	Block2	incongruent/STIM_023.jpg
1527.468	0.688	1	incongruent	Block2	incongruent/STIM_023.jpg
1530.826	0.578	1	incongruent	Block2	incongruent/STIM_023.jpg
1534.543	0.583	0	incongruent	Block2	incongruent/STIM_023.jpg
1538.811	0.95	1	incongruent	Block2	incongruent/STIM_024.jpg
1542.875	0.52	1	incongruent	Block2	incongruent/STIM_024.jpg
1546.101	0.467	1	incongruent	Block2	incongruent/STIM_024.jpg
1549.727	0.665	1	incongruent	Block2	incongruent/STIM_024.jpg
1554.34	0.394	1	incongruent	Block2	incongruent/STIM_024.jpg
1556.838	0.477	0	incongruent	Block2	incongruent/STIM_025.jpg
1560.735	0.812	1	incongruent	Block2	incongruent/STIM_025.jpg
1564.728	0.459	1	incongruent	Block2	incongruent/STIM_025.jpg
1568.202	0.47	1	incongruent	Block2	incongruent/STIM_025.jpg
1571.779	0.662	1	incongruent	Block2	incongruent/STIM_025.jpg
1575.386	0.741	1	incongruent	Block2	incongruent/STIM_026.jpg
1579.006	0.812	1	incongruent	Block2	incongruent/STIM_026.jpg
1582.728	0.674	1	incongruent	Block2	incongruent/STIM_026.jpg
1585.447	0.598	1	incongruent	Block2	incongruent/STIM_026.jpg
1588.587	0.491	1	incongruent	Block2	incongruent/STIM_026.jpg
1591.87	0.704	1	incongruent	Block2	incongruent/STIM_027.jpg
1595.533	0.53	1	incongruent	Block2	incongruent/STIM_027.jpg
1599.987	0.71	1	incongruent	Block2	incongruent/STIM_027.jpg
1603.786	0.733	1	incongruent	Block2	incongruent/STIM_027.jpg
1607.42	0.774	1	incongruent	Block2	incongruent/STIM_027.jpg
1611.808	0.486	1	incongruent	Block2	incongruent/STIM_028.jpg
1615.378	0.448	1	incongruent	Block2	incongruent/STIM_028.jpg
1618.543	0.648	1	incongruent	Block2	incongruent/STIM_028.jpg
1623.082	0.462	1	incongruent	Block2	incongruent/STIM_028.jpg
1627.307	0.517	1	incongruent	Block2	incongruent/STIM_028.jpg
1629.888	0.471	1	incongruent	Block2	incongruent/STIM_029.jpg
1632.688	0.72	0	incongruent	Block2	incongruent/STIM_029.jpg
1636.13	0.503	1	incongruent	Block2	incongruent/STIM_029.jpg
1640.042	0.769	1	incongruent	Block2	incongruent/STIM_029.jpg
1643.992	0.535	1	incongruent	Block2	incongruent/STIM_029.jpg
1648.074	0.701	1	congruent	Block2	congruent/STIM_000.jpg
1652.581	0.465	1	congruent	Block2	congruent/STIM_000.jpg
1656.526	0.59	1	congruent	Block2	congruent/STIM_000.jpg
1659.636	0.634	1	congruent	Block2	congruent/STIM_000.jpg
1663.455	0.598	1	congruent	Block2	congruent/STIM_000.jpg
1667.967	0.502	1	congruent	Block2	congruent/STIM_001.jpg
1672.233	0.7	1	congruent	Block2	congruent/STIM_001.jpg
1676.39	0.597	1	congruent	Block2	congruent/STIM_001.jpg
1680.171	0.476	1	congruent	Block2	congruent/STIM_001.jpg
1682.694	0.43	1	congruent	Block2	congruent/STIM_001.jpg
1685.199	0.643	1	congruent	Block2	congruent/STIM_002.jpg
1689.024	0.434	1	congruent	Block2	congruent/STIM_002.jpg
1691.683	0.589	1	congruent	Block2	congruent/STIM_002.jpg
1694.534	0.674	1	congruent	Block2	congruent/STIM_002.jpg
1697.355	0.398	1	congruent	Block2	congruent/STIM_002.jpg
1700.628	0.486	1	congruent	Block2	congruent/STIM_003.jpg
1705.068	0.605	1	congruent	Block2	congruent/STIM_003.jpg
1708.785	0.404	1	congruent	Block2	congruent/STIM_003.jpg
1712.937	0.472	1	congruent	Block2	congruent/STIM_003.jpg
1716.748	0.575	1	congruent	Block2	congruent/STIM_003.jpg
1721.03	0.583	1	congruent	Block2	congruent/STIM_004.jpg
1724.875	0.41	1	congruent	Block2	congruent/STIM_004.jpg
1728.753	0.673	1	congruent	Block2	congruent/STIM_004.jpg
1731.614	0.527	1	congruent	Block2	congruent/STIM_004.jpg
1735.749	0.7	1	congruent	Block2	congruent/STIM_004.jpg
1739.76	0.597	1	congruent	Block2	congruent/STIM_005.jpg
1744.269	0.407	0	congruent	Block2	congruent/STIM_005.jpg
1747.776	0.631	1	congruent	Block2	congruent/STIM_005.jpg
1750.712	0.542	1	congruent	Block2	congruent/STIM_005.jpg
1753.645	0.697	1	congruent	Block2	congruent/STIM_005.jpg
1757.601	0.615	1	congruent	Block2	congruent/STIM_006.jpg
1761.944	0.609	1	congruent	Block2	congruent/STIM_006.jpg
1765.931	0.613	1	congruent	Block2	congruent/STIM_006.jpg
1769.43	0.464	1	congruent	Block2	congruent/STIM_006.jpg
1773.617	0.588	1	congruent	Block2	congruent/STIM_006.jpg
1777.006	0.423	1	congruent	Block2	congruent/STIM_007.jpg
1780.588	0.576	1	congruent	Block2	congruent/STIM_007.jpg
1783.975	0.614	1	congruent	Block2	congruent/STIM_007.jpg
1787.873	0.53	1	congruent	Block2	congruent/STIM_007.jpg
1792.058	0.564	1	congruent	Block2	congruent/STIM_007.jpg
1795.596	0.704	1	congruent	Block2	congruent/STIM_008.jpg
1799.727	0.57	1	congruent	Block2	congruent/STIM_008.jpg
1802.791	0.705	1	congruent	Block2	congruent/STIM_008.jpg
1806.244	0.424	1	congruent	Block2	congruent/STIM_008.jpg
1809.712	0.634	1	congruent	Block2	congruent/STIM_008.jpg
1813.809	0.598	1	congruent	Block2	congruent/STIM_009.jpg
1818.244	0.625	1	congruent	Block2	congruent/STIM_009.jpg
1821.562	0.696	1	congruent	Block2	congruent/STIM_009.jpg
1824.814	0.683	1	congruent	Block2	congruent/STIM_009.jpg
1828.833	0.602	1	congruent	Block2	congruent/STIM_009.jpg
1831.595	0.621	1	congruent	Block2	congruent/STIM_010.jpg
1835.242	0.52	1	congruent	Block2	congruent/STIM_010.jpg
1839.565	0.564	1	congruent	Block2	congruent/STIM_010.jpg
1843.991	0.607	1	congruent	Block2	congruent/STIM_010.jpg
1848.187	0.57	1	congruent	Block2	congruent/STIM_010.jpg
1851.312	0.506	1	congruent	Block2	congruent/STIM_011.jpg
1853.997	0.699	1	congruent	Block2	congruent/STIM_011.jpg
1857.799	0.494	1	congruent	Block2	congruent/STIM_011.jpg
1862.077	0.473	1	congruent	Block2	congruent/STIM_011.jpg
1865.25	0.625	1	congruent	Block2	congruent/STIM_011.jpg
1868.274	0.628	1	congruent	Block2	congruent/STIM_012.jpg
1871.806	0.582	1	congruent	Block2	congruent/STIM_012.jpg
1874.881	0.603	1	congruent	Block2	congruent/STIM_012.jpg
1878.887	0.412	1	congruent	Block2	congruent/STIM_012.jpg
1882.626	0.548	1	congruent	Block2	congruent/STIM_012.jpg
1886.378	0.667	1	congruent	Block2	congruent/STIM_013.jpg
1889.531	0.632	1	congruent	Block2	congruent/STIM_013.jpg
1893.968	0.49	1	congruent	Block2	congruent/STIM_013.jpg
1897.277	0.508	1	congruent	Block2	congruent/STIM_013.jpg
1901.296	0.646	1	congruent	Block2	congruent/STIM_013.jpg
1904.007	0.593	1	congruent	Block2	congruent/STIM_014.jpg
1907.694	0.633	1	congruent	Block2	congruent/STIM_014.jpg
1911.765	0.604	1	congruent	Block2	congruent/STIM_014.jpg
1914.711	0.481	1	congruent	Block2	congruent/STIM_014.jpg
1918.345	0.661	1	congruent	Block2	congruent/STIM_014.jpg
1922.965	0.4	1	congruent	Block2	congruent/STIM_015.jpg
1926.695	0.485	1	congruent	Block2	congruent/STIM_015.jpg
1929.525	0.656	1	congruent	Block2	congruent/STIM_015.jpg
1933.935	0.4	1	congruent	Block2	congruent/STIM_015.jpg
1937.507	0.594	1	congruent	Block2	congruent/STIM_015.jpg
1941.38	0.486	1	congruent	Block2	congruent/STIM_016.jpg
1944.761	0.621	1	congruent	Block2	congruent/STIM_016.jpg
1948.511	0.678	1	congruent	Block2	congruent/STIM_016.jpg
1951.617	0.655	1	congruent	Block2	congruent/STIM_016.jpg
1955.532	0.624	1	congruent	Block2	congruent/STIM_016.jpg
1958.999	0.421	1	congruent	Block2	congruent/STIM_017.jpg
1962.542	0.698	1	congruent	Block2	congruent/STIM_017.jpg
1965.69	0.648	1	congruent	Block2	congruent/STIM_017.jpg
1969.839	0.703	1	congruent	Block2	congruent/STIM_017.jpg
1972.915	0.644	1	congruent	Block2	congruent/STIM_017.jpg
1975.616	0.438	1	congruent	Block2	congruent/STIM_018.jpg
1979.739	0.54	1	congruent	Block2	congruent/STIM_018.jpg
1984.279	0.631	1	congruent	Block2	congruent/STIM_018.jpg
1987.27	0.545	1	congruent	Block2	congruent/STIM_018.jpg
1990.11	0.618	1	congruent	Block2	congruent/STIM_018.jpg
1993.698	0.693	1	congruent	Block2	congruent/STIM_019.jpg
1996.865	0.688	0	congruent	Block2	congruent/STIM_019.jpg
2000.314	0.478	1	congruent	Block2	congruent/STIM_019.jpg
2003.825	0.513	1	congruent	Block2	congruent/STIM_019.jpg
2007.495	0.633	1	congruent	Block2	congruent/STIM_019.jpg
2010.338	0.612	1	congruent	Block2	congruent/STIM_020.jpg
2013.992	0.428	1	congruent	Block2	congruent/STIM_020.jpg
2017.632	0.436	1	congruent	Block2	congruent/STIM_020.jpg
2020.117	0.505	1	congruent	Block2	congruent/STIM_020.jpg
2023.43	0.464	1	congruent	Block2	congruent/STIM_020.jpg
2027.715	0.527	1	congruent	Block2	congruent/STIM_021.jpg
2031.463	0.667	1	congruent	Block2	congruent/STIM_021.jpg
2034.535	0.399	1	congruent	Block2	congruent/STIM_021.jpg
2038.245	0.612	1	congruent	Block2	congruent/STIM_021.jpg
2040.908	0.447	1	congruent	Block2	congruent/STIM_021.jpg
2043.493	0.423	1	congruent	Block2	congruent/STIM_022.jpg
2046.635	0.657	1	congruent	Block2	congruent/STIM_022.jpg
2050.787	0.702	1	congruent	Block2	congruent/STIM_022.jpg
2054.209	0.658	1	congruent	Block2	congruent/STIM_022.jpg
2058.487	0.437	1	congruent	Block2	congruent/STIM_022.jpg
2062.564	0.672	1	congruent	Block2	congruent/STIM_023.jpg
2066.531	0.519	1	congruent	Block2	congruent/STIM_023.jpg
2070.955	0.613	1	congruent	Block2	congruent/STIM_023.jpg
2075.51	0.558	1	congruent	Block2	congruent/STIM_023.jpg
2078.581	0.456	1	congruent	Block2	congruent/STIM_023.jpg
2082.159	0.686	1	congruent	Block2	congruent/STIM_024.jpg
2086.557	0.574	1	congruent	Block2	congruent/STIM_024.jpg
2090.743	0.424	1	congruent	Block2	congruent/STIM_024.jpg
2094.782	0.554	1	congruent	Block2	congruent/STIM_024.jpg
2099.292	0.438	1	congruent	Block2	congruent/STIM_024.jpg
2102.446	0.499	1	congruent	Block2	congruent/STIM_025.jpg
2104.96	0.488	1	congruent	Block2	congruent/STIM_025.jpg
2108.389	0.688	1	congruent	Block2	congruent/STIM_025.jpg
2112.659	0.458	1	congruent	Block2	congruent/STIM_025.jpg
2115.326	0.661	1	congruent	Block2	congruent/STIM_025.jpg
2119.047	0.641	1	congruent	Block2	congruent/STIM_026.jpg
2122.455	0.644	1	congruent	Block2	congruent/STIM_026.jpg
2125.482	0.553	1	congruent	Block2	congruent/STIM_026.jpg
2128.955	0.69	1	congruent	Block2	congruent/STIM_026.jpg
2133.217	0.653	1	congruent	Block2	congruent/STIM_026.jpg
2136.0	0.621	1	congruent	Block2	congruent/STIM_027.jpg
2139.805	0.609	1	congruent	Block2	congruent/STIM_027.jpg
2143.743	0.565	1	congruent	Block2	congruent/STIM_027.jpg
2147.749	0.476	1	congruent	Block2	congruent/STIM_027.jpg
2151.676	0.404	1	congruent	Block2	congruent/STIM_027.jpg
2155.623	0.551	1	congruent	Block2	congruent/STIM_028.jpg
2159.733	0.457	1	congruent	Block2	congruent/STIM_028.jpg
2163.661	0.672	1	congruent	Block2	congruent/STIM_028.jpg
2167.268	0.627	1	congruent	Block2	congruent/STIM_028.jpg
2171.889	0.518	1	congruent	Block2	congruent/STIM_028.jpg
2175.961	0.402	1	congruent	Block2	congruent/STIM_029.jpg
2179.249	0.556	1	congruent	Block2	congruent/STIM_029.jpg
2182.266	0.598	1	congruent	Block2	congruent/STIM_029.jpg
2185.729	0.545	1	congruent	Block2	congruent/STIM_029.jpg
2189.189	0.507	1	congruent	Block2	congruent/STIM_029.jpg
2193.548	0.4	1	incongruent	Block3	incongruent/STIM_000.jpg
2197.119	0.795	1	incongruent	Block3	incongruent/STIM_000.jpg
2201.499	0.784	1	incongruent	Block3	incongruent/STIM_000.jpg
2205.665	0.697	1	incongruent	Block3	incongruent/STIM_000.jpg
2209.778	0.796	1	incongruent	Block3	incongruent/STIM_000.jpg
2212.592	0.534	1	incongruent	Block3	incongruent/STIM_001.jpg
2215.275	0.771	1	incongruent	Block3	incongruent/STIM_001.jpg
2218.962	0.388	1	incongruent	Block3	incongruent/STIM_001.jpg
2222.185	0.714	1	incongruent	Block3	incongruent/STIM_001.jpg
2226.804	0.772	1	incongruent	Block3	incongruent/STIM_001.jpg
2231.341	0.729	1	incongruent	Block3	incongruent/STIM_002.jpg
2235.794	0.806	1	incongruent	Block3	incongruent/STIM_002.jpg
2239.391	0.68	1	incongruent	Block3	incongruent/STIM_002.jpg
2243.093	0.653	1	incongruent	Block3	incongruent/STIM_002.jpg
2246.635	0.613	1	incongruent	Block3	incongruent/STIM_002.jpg
2250.677	0.814	1	incongruent	Block3	incongruent/STIM_003.jpg
2254.64	0.666	1	incongruent	Block3	incongruent/STIM_003.jpg
2259.019	0.557	1	incongruent	Block3	incongruent/STIM_003.jpg
2262.416	0.416	1	incongruent	Block3	incongruent/STIM_003.jpg
2266.41	0.451	1	incongruent	Block3	incongruent/STIM_003.jpg
2269.841	0.772	1	incongruent	Block3	incongruent/STIM_004.jpg
2273.791	0.577	1	incongruent	Block3	incongruent/STIM_004.jpg
2276.595	0.526	1	incongruent	Block3	incongruent/STIM_004.jpg
2280.327	0.716	1	incongruent	Block3	incongruent/STIM_004.jpg
2284.573	0.433	1	incongruent	Block3	incongruent/STIM_004.jpg
2288.125	0.794	1	incongruent	Block3	incongruent/STIM_005.jpg
2291.535	0.773	1	incongruent	Block3	incongruent/STIM_005.jpg
2294.591	0.67	1	incongruent	Block3	incongruent/STIM_005.jpg
2299.075	0.697	1	incongruent	Block3	incongruent/STIM_005.jpg
2302.424	0.801	1	incongruent	Block3	incongruent/STIM_005.jpg
2305.355	0.592	1	incongruent	Block3	incongruent/STIM_006.jpg
2308.338	0.552	1	incongruent	Block3	incongruent/STIM_006.jpg
2311.382	0.606	1	incongruent	Block3	incongruent/STIM_006.jpg
2315.65	0.499	1	incongruent	Block3	incongruent/STIM_006.jpg
2318.831	0.393	1	incongruent	Block3	incongruent/STIM_006.jpg
2322.422	0.721	0	incongruent	Block3	incongruent/STIM_007.jpg
2326.886	0.455	1	incongruent	Block3	incongruent/STIM_007.jpg
2330.002	0.822	1	incongruent	Block3	incongruent/STIM_007.jpg
2334.438	0.604	1	incongruent	Block3	incongruent/STIM_007.jpg
2337.768	0.661	1	incongruent	Block3	incongruent/STIM_007.jpg
2342.399	0.655	1	incongruent	Block3	incongruent/STIM_008.jpg
2345.484	0.584	1	incongruent	Block3	incongruent/STIM_008.jpg
2348.348	0.62	1	incongruent	Block3	incongruent/STIM_008.jpg
2350.978	0.41	1	incongruent	Block3	incongruent/STIM_008.jpg
2354.559	0.572	1	incongruent	Block3	incongruent/STIM_008.jpg
2358.144	0.776	1	incongruent	Block3	incongruent/STIM_009.jpg
2362.517	0.765	1	incongruent	Block3	incongruent/STIM_009.jpg
2366.233	0.462	1	incongruent	Block3	incongruent/STIM_009.jpg
2368.753	0.499	1	incongruent	Block3	incongruent/STIM_009.jpg
2373.023	0.797	1	incongruent	Block3	incongruent/STIM_009.jpg
2377.335	0.476	1	incongruent	Block3	incongruent/STIM_010.jpg
2381.117	0.813	1	incongruent	Block3	incongruent/STIM_010.jpg
2385.922	0.613	1	incongruent	Block3	incongruent/STIM_010.jpg
2390.038	0.594	1	incongruent	Block3	incongruent/STIM_010.jpg
2393.618	0.41	1	incongruent	Block3	incongruent/STIM_010.jpg
2396.298	0.503	1	incongruent	Block3	incongruent/STIM_011.jpg
2399.832	0.783	1	incongruent	Block3	incongruent/STIM_011.jpg
2403.904	0.676	1	incongruent	Block3	incongruent/STIM_011.jpg
2407.407	0.612	1	incongruent	Block3	incongruent/STIM_011.jpg
2411.644	0.622	1	incongruent	Block3	incongruent/STIM_011.jpg
2414.278	0.758	1	incongruent	Block3	incongruent/STIM_012.jpg
2418.839	0.772	1	incongruent	Block3	incongruent/STIM_012.jpg
2422.714	0.716	1	incongruent	Block3	incongruent/STIM_012.jpg
2426.999	0.644	0	incongruent	Block3	incongruent/STIM_012.jpg
2431.414	0.663	1	incongruent	Block3	incongruent/STIM_012.jpg
2435.907	0.75	1	incongruent	Block3	incongruent/STIM_013.jpg
2440.425	0.589	1	incongruent	Block3	incongruent/STIM_013.jpg
2444.392	0.599	1	incongruent	Block3	incongruent/STIM_013.jpg
2447.189	0.58	1	incongruent	Block3	incongruent/STIM_013.jpg
2449.926	0.584	1	incongruent	Block3	incongruent/STIM_013.jpg
2454.341	0.536	1	incongruent	Block3	incongruent/STIM_014.jpg
2457.736	0.821	1	incongruent	Block3	incongruent/STIM_014.jpg
2460.72	0.478	1	incongruent	Block3	incongruent/STIM_014.jpg
2463.637	0.562	1	incongruent	Block3	incongruent/STIM_014.jpg
2467.304	0.478	1	incongruent	Block3	incongruent/STIM_014.jpg
2470.143	0.807	1	incongruent	Block3	incongruent/STIM_015.jpg
2474.587	0.734	1	incongruent	Block3	incongruent/STIM_015.jpg
2479.005	0.422	1	incongruent	Block3	incongruent/STIM_015.jpg
2483.402	0.468	1	incongruent	Block3	incongruent/STIM_015.jpg
2486.67	0.544	1	incongruent	Block3	incongruent/STIM_015.jpg
2490.353	0.613	1	incongruent	Block3	incongruent/STIM_016.jpg
2493.456	0.433	1	incongruent	Block3	incongruent/STIM_016.jpg
2495.893	0.783	1	incongruent	Block3	incongruent/STIM_016.jpg
2498.968	0.435	1	incongruent	Block3	incongruent/STIM_016.jpg
2502.733	0.761	1	incongruent	Block3	incongruent/STIM_016.jpg
2507.26	0.475	1	incongruent	Block3	incongruent/STIM_017.jpg
2510.814	0.56	1	incongruent	Block3	incongruent/STIM_017.jpg
2513.4	0.412	1	incongruent	Block3	incongruent/STIM_017.jpg
2517.054	0.551	1	incongruent	Block3	incongruent/STIM_017.jpg
2520.762	0.532	1	incongruent	Block3	incongruent/STIM_017.jpg
2524.993	0.592	1	incongruent	Block3	incongruent/STIM_018.jpg
2529.098	0.6	1	incongruent	Block3	incongruent/STIM_018.jpg
2533.294	0.774	1	incongruent	Block3	incongruent/STIM_018.jpg
2537.35	0.707	1	incongruent	Block3	incongruent/STIM_018.jpg
2541.422	0.445	1	incongruent	Block3	incongruent/STIM_018.jpg
2544.421	0.45	1	incongruent	Block3	incongruent/STIM_019.jpg
2548.18	0.819	1	incongruent	Block3	incongruent/STIM_019.jpg
2551.545	0.788	1	incongruent	Block3	incongruent/STIM_019.jpg
2555.419	0.766	1	incongruent	Block3	incongruent/STIM_019.jpg
2560.048	0.66	1	incongruent	Block3	incongruent/STIM_019.jpg
2564.077	0.638	1	incongruent	Block3	incongruent/STIM_020.jpg
2567.744	0.673	1	incongruent	Block3	incongruent/STIM_020.jpg
2572.396	0.774	1	incongruent	Block3	incongruent/STIM_020.jpg
2576.526	0.687	1	incongruent	Block3	incongruent/STIM_020.jpg
2581.181	0.444	1	incongruent	Block3	incongruent/STIM_020.jpg
2585.161	0.726	1	incongruent	Block3	incongruent/STIM_021.jpg
2588.341	0.391	1	incongruent	Block3	incongruent/STIM_021.jpg
2591.801	0.516	1	incongruent	Block3	incongruent/STIM_021.jpg
2594.451	0.76	1	incongruent	Block3	incongruent/STIM_021.jpg
2597.407	0.514	1	incongruent	Block3	incongruent/STIM_021.jpg
2601.646	0.417	1	incongruent	Block3	incongruent/STIM_022.jpg
2604.387	0.465	1	incongruent	Block3	incongruent/STIM_022.jpg
2608.599	0.704	1	incongruent	Block3	incongruent/STIM_022.jpg
2611.817	0.545	1	incongruent	Block3	incongruent/STIM_022.jpg
2615.584	0.586	1	incongruent	Block3	incongruent/STIM_022.jpg
2618.711	0.72	1	incongruent	Block3	incongruent/STIM_023.jpg
2622.687	0.613	1	incongruent	Block3	incongruent/STIM_023.jpg
2626.335	0.696	1	incongruent	Block3	incongruent/STIM_023.jpg
2630.664	0.415	1	incongruent	Block3	incongruent/STIM_023.jpg
2633.254	0.515	1	incongruent	Block3	incongruent/STIM_023.jpg
2636.307	0.65	1	incongruent	Block3	incongruent/STIM_024.jpg
2639.902	0.752	1	incongruent	Block3	incongruent/STIM_024.jpg
2642.689	0.473	1	incongruent	Block3	incongruent/STIM_024.jpg
2645.652	0.529	1	incongruent	Block3	incongruent/STIM_024.jpg
2648.25	0.644	1	incongruent	Block3	incongruent/STIM_024.jpg
2652.587	0.411	1	incongruent	Block3	incongruent/STIM_025.jpg
2656.844	0.538	1	incongruent	Block3	incongruent/STIM_025.jpg
2660.785	0.747	1	incongruent	Block3	incongruent/STIM_025.jpg
2663.986	0.637	1	incongruent	Block3	incongruent/STIM_025.jpg
2668.405	0.498	1	incongruent	Block3	incongruent/STIM_025.jpg
2672.76	0.685	1	incongruent	Block3	incongruent/STIM_026.jpg
2677.331	0.406	1	incongruent	Block3	incongruent/STIM_026.jpg
2680.34	0.668	1	incongruent	Block3	incongruent/STIM_026.jpg
2684.495	0.772	1	incongruent	Block3	incongruent/STIM_026.jpg
2687.461	0.394	1	incongruent	Block3	incongruent/STIM_026.jpg
2690.199	0.479	1	incongruent	Block3	incongruent/STIM_027.jpg
2693.831	0.478	1	incongruent	Block3	incongruent/STIM_027.jpg
2697.413	0.415	1	incongruent	Block3	incongruent/STIM_027.jpg
2701.82	0.762	1	incongruent	Block3	incongruent/STIM_027.jpg
2705.712	0.732	1	incongruent	Block3	incongruent/STIM_027.jpg
2710.309	0.654	1	incongruent	Block3	incongruent/STIM_028.jpg
2713.593	0.67	1	incongruent	Block3	incongruent/STIM_028.jpg
2717.894	0.423	1	incongruent	Block3	incongruent/STIM_028.jpg
2722.091	0.765	1	incongruent	Block3	incongruent/STIM_028.jpg
2725.537	0.668	1	incongruent	Block3	incongruent/STIM_028.jpg
2729.786	0.64	1	incongruent	Block3	incongruent/STIM_029.jpg
2732.852	0.506	1	incongruent	Block3	incongruent/STIM_029.jpg
2737.066	0.534	1	incongruent	Block3	incongruent/STIM_029.jpg
2741.576	0.509	1	incongruent	Block3	incongruent/STIM_029.jpg
2745.541	0.795	1	incongruent	Block3	incongruent/STIM_029.jpg
2749.135	0.405	1	congruent	Block3	congruent/STIM_000.jpg
2752.94	0.483	1	congruent	Block3	congruent/STIM_000.jpg
2757.391	0.611	1	congruent	Block3	congruent/STIM_000.jpg
2760.634	0.556	1	congruent	Block3	congruent/STIM_000.jpg
2764.255	0.497	1	congruent	Block3	congruent/STIM_000.jpg
2767.483	0.514	1	congruent	Block3	congruent/STIM_001.jpg
2771.364	0.532	1	congruent	Block3	congruent/STIM_001.jpg
2775.808	0.442	1	congruent	Block3	congruent/STIM_001.jpg
2778.705	0.42	1	congruent	Block3	congruent/STIM_001.jpg
2781.128	0.608	1	congruent	Block3	congruent/STIM_001.jpg
2783.89	0.538	1	congruent	Block3	congruent/STIM_002.jpg
2787.938	0.534	1	congruent	Block3	congruent/STIM_002.jpg
2791.769	0.56	1	congruent	Block3	congruent/STIM_002.jpg
2794.381	0.554	1	congruent	Block3	congruent/STIM_002.jpg
2797.018	0.46	1	congruent	Block3	congruent/STIM_002.jpg
2800.039	0.597	1	congruent	Block3	congruent/STIM_003.jpg
2803.319	0.672	0	congruent	Block3	congruent/STIM_003.jpg
2807.986	0.505	1	congruent	Block3	congruent/STIM_003.jpg
2811.517	0.399	1	congruent	Block3	congruent/STIM_003.jpg
2814.278	0.444	1	congruent	Block3	congruent/STIM_003.jpg
2817.113	0.673	1	congruent	Block3	congruent/STIM_004.jpg
2821.639	0.648	1	congruent	Block3	congruent/STIM_004.jpg
2824.783	0.519	1	congruent	Block3	congruent/STIM_004.jpg
2828.774	0.658	1	congruent	Block3	congruent/STIM_004.jpg
2832.169	0.513	1	congruent	Block3	congruent/STIM_004.jpg
2836.204	0.614	1	congruent	Block3	congruent/STIM_005.jpg
2840.791	0.695	1	congruent	Block3	congruent/STIM_005.jpg
2845.449	0.664	1	congruent	Block3	congruent/STIM_005.jpg
2849.167	0.61	1	congruent	Block3	congruent/STIM_005.jpg
2853.328	0.559	1	congruent	Block3	congruent/STIM_005.jpg
2857.833	0.606	1	congruent	Block3	congruent/STIM_006.jpg
2860.759	0.558	1	congruent	Block3	congruent/STIM_006.jpg
2864.877	0.406	1	congruent	Block3	congruent/STIM_006.jpg
2868.544	0.521	1	congruent	Block3	congruent/STIM_006.jpg
2872.804	0.424	1	congruent	Block3	congruent/STIM_006.jpg
2875.989	0.504	1	congruent	Block3	congruent/STIM_007.jpg
2879.237	0.433	1	congruent	Block3	congruent/STIM_007.jpg
2882.553	0.473	1	congruent	Block3	congruent/STIM_007.jpg
2886.646	0.575	1	congruent	Block3	congruent/STIM_007.jpg
2891.176	0.514	1	congruent	Block3	congruent/STIM_007.jpg
2894.936	0.626	1	congruent	Block3	congruent/STIM_008.jpg
2899.345	0.41	1	congruent	Block3	congruent/STIM_008.jpg
2903.606	0.435	1	congruent	Block3	congruent/STIM_008.jpg
2906.286	0.594	1	congruent	Block3	congruent/STIM_008.jpg
2909.868	0.594	1	congruent	Block3	congruent/STIM_008.jpg
2913.516	0.511	1	congruent	Block3	congruent/STIM_009.jpg
2917.309	0.438	1	congruent	Block3	congruent/STIM_009.jpg
2920.766	0.547	1	congruent	Block3	congruent/STIM_009.jpg
2923.733	0.427	1	congruent	Block3	congruent/STIM_009.jpg
2928.14	0.631	1	congruent	Block3	congruent/STIM_009.jpg
2932.277	0.607	1	congruent	Block3	congruent/STIM_010.jpg
2934.896	0.456	1	congruent	Block3	congruent/STIM_010.jpg
2938.489	0.425	1	congruent	Block3	congruent/STIM_010.jpg
2941.922	0.44	1	congruent	Block3	congruent/STIM_010.jpg
2945.687	0.428	1	congruent	Block3	congruent/STIM_010.jpg
2948.513	0.477	1	congruent	Block3	congruent/STIM_011.jpg
2952.866	0.5	1	congruent	Block3	congruent/STIM_011.jpg
2957.255	0.656	1	congruent	Block3	congruent/STIM_011.jpg
2960.121	0.507	1	congruent	Block3	congruent/STIM_011.jpg
2963.955	0.633	1	congruent	Block3	congruent/STIM_011.jpg
2967.181	0.679	1	congruent	Block3	congruent/STIM_012.jpg
2971.344	0.577	1	congruent	Block3	congruent/STIM_012.jpg
2974.875	0.521	1	congruent	Block3	congruent/STIM_012.jpg
2979.111	0.544	1	congruent	Block3	congruent/STIM_012.jpg
2982.276	0.495	1	congruent	Block3	congruent/STIM_012.jpg
2986.713	0.548	1	congruent	Block3	congruent/STIM_013.jpg
2990.383	0.53	1	congruent	Block3	congruent/STIM_013.jpg
2994.048	0.444	1	congruent	Block3	congruent/STIM_013.jpg
2996.784	0.598	1	congruent	Block3	congruent/STIM_013.jpg
3000.094	0.598	1	congruent	Block3	congruent/STIM_013.jpg
3003.455	0.55	1	congruent	Block3	congruent/STIM_014.jpg
3006.471	0.507	1	congruent	Block3	congruent/STIM_014.jpg
3009.611	0.45	1	congruent	Block3	congruent/STIM_014.jpg
3012.889	0.504	1	congruent	Block3	congruent/STIM_014.jpg
3015.792	0.535	0	congruent	Block3	congruent/STIM_014.jpg
3019.714	0.659	1	congruent	Block3	congruent/STIM_015.jpg
3022.632	0.67	1	congruent	Block3	congruent/STIM_015.jpg
3025.732	0.538	1	congruent	Block3	congruent/STIM_015.jpg
3028.408	0.561	1	congruent	Block3	congruent/STIM_015.jpg
3032.826	0.557	1	congruent	Block3	congruent/STIM_015.jpg
3036.584	0.662	1	congruent	Block3	congruent/STIM_016.jpg
3041.09	0.544	1	congruent	Block3	congruent/STIM_016.jpg
3044.9	0.43	1	congruent	Block3	congruent/STIM_016.jpg
3048.797	0.56	1	congruent	Block3	congruent/STIM_016.jpg
3051.889	0.481	1	congruent	Block3	congruent/STIM_016.jpg
3054.684	0.623	1	congruent	Block3	congruent/STIM_017.jpg
3057.317	0.583	1	congruent	Block3	congruent/STIM_017.jpg
3061.661	0.399	1	congruent	Block3	congruent/STIM_017.jpg
3064.902	0.489	1	congruent	Block3	congruent/STIM_017.jpg
3068.447	0.493	1	congruent	Block3	congruent/STIM_017.jpg
3071.538	0.395	1	congruent	Block3	congruent/STIM_018.jpg
3074.194	0.528	1	congruent	Block3	congruent/STIM_018.jpg
3077.527	0.542	1	congruent	Block3	congruent/STIM_018.jpg
3080.615	0.514	1	congruent	Block3	congruent/STIM_018.jpg
3083.73	0.564	1	congruent	Block3	congruent/STIM_018.jpg
3088.158	0.491	1	congruent	Block3	congruent/STIM_019.jpg
3092.545	0.545	0	congruent	Block3	congruent/STIM_019.jpg
3096.265	0.668	1	congruent	Block3	congruent/STIM_019.jpg
3100.542	0.402	1	congruent	Block3	congruent/STIM_019.jpg
3104.621	0.546	1	congruent	Block3	congruent/STIM_019.jpg
3107.885	0.528	1	congruent	Block3	congruent/STIM_020.jpg
3111.362	0.649	1	congruent	Block3	congruent/STIM_020.jpg
3115.45	0.697	1	congruent	Block3	congruent/STIM_020.jpg
3119.855	0.472	1	congruent	Block3	congruent/STIM_020.jpg
3123.868	0.398	1	congruent	Block3	congruent/STIM_020.jpg
3128.188	0.652	1	congruent	Block3	congruent/STIM_021.jpg
3131.372	0.469	1	congruent	Block3	congruent/STIM_021.jpg
3133.89	0.578	0	congruent	Block3	congruent/STIM_021.jpg
3138.348	0.576	1	congruent	Block3	congruent/STIM_021.jpg
3142.739	0.593	1	congruent	Block3	congruent/STIM_021.jpg
3146.715	0.637	1	congruent	Block3	congruent/STIM_022.jpg
3150.348	0.59	1	congruent	Block3	congruent/STIM_022.jpg
3153.367	0.517	0	congruent	Block3	congruent/STIM_022.jpg
3156.925	0.563	1	congruent	Block3	congruent/STIM_022.jpg
3159.881	0.467	1	congruent	Block3	congruent/STIM_022.jpg
3163.503	0.651	1	congruent	Block3	congruent/STIM_023.jpg
3167.045	0.672	1	congruent	Block3	congruent/STIM_023.jpg
3171.087	0.472	1	congruent	Block3	congruent/STIM_023.jpg
3175.148	0.452	1	congruent	Block3	congruent/STIM_023.jpg
3177.631	0.439	1	congruent	Block3	congruent/STIM_023.jpg
3181.377	0.668	1	congruent	Block3	congruent/STIM_024.jpg
3185.556	0.512	1	congruent	Block3	congruent/STIM_024.jpg
3188.229	0.412	1	congruent	Block3	congruent/STIM_024.jpg
3192.039	0.498	1	congruent	Block3	congruent/STIM_024.jpg
3195.785	0.477	1	congruent	Block3	congruent/STIM_024.jpg
3199.099	0.595	1	congruent	Block3	congruent/STIM_025.jpg
3202.821	0.548	1	congruent	Block3	congruent/STIM_025.jpg
3206.258	0.558	1	congruent	Block3	congruent/STIM_025.jpg
3210.184	0.488	1	congruent	Block3	congruent/STIM_025.jpg
3213.585	0.626	1	congruent	Block3	congruent/STIM_025.jpg
3216.757	0.654	1	congruent	Block3	congruent/STIM_026.jpg
3219.979	0.606	1	congruent	Block3	congruent/STIM_026.jpg
3224.179	0.568	1	congruent	Block3	congruent/STIM_026.jpg
3227.3	0.556	1	congruent	Block3	congruent/STIM_026.jpg
3230.608	0.409	1	congruent	Block3	congruent/STIM_026.jpg
3233.498	0.495	1	congruent	Block3	congruent/STIM_027.jpg
3237.597	0.41	1	congruent	Block3	congruent/STIM_027.jpg
3241.278	0.411	0	congruent	Block3	congruent/STIM_027.jpg
3244.718	0.545	1	congruent	Block3	congruent/STIM_027.jpg
3247.551	0.398	1	congruent	Block3	congruent/STIM_027.jpg
3250.798	0.654	1	congruent	Block3	congruent/STIM_028.jpg
3254.305	0.621	1	congruent	Block3	congruent/STIM_028.jpg
3257.655	0.6	1	congruent	Block3	congruent/STIM_028.jpg
3260.735	0.674	1	congruent	Block3	congruent/STIM_028.jpg
3263.982	0.615	1	congruent	Block3	congruent/STIM_028.jpg
3268.039	0.672	1	congruent	Block3	congruent/STIM_029.jpg
3270.737	0.511	1	congruent	Block3	congruent/STIM_029.jpg
3274.818	0.493	1	congruent	Block3	congruent/STIM_029.jpg
3279.142	0.666	1	congruent	Block3	congruent/STIM_029.jpg
3282.4	0.396	1	congruent	Block3	congruent/STIM_029.jpg
