onset	duration	response_time_ms	trial_type	learning_stage	stimulus	response_port
0.0	0.833	832.9	incongruent	Block1	incongruent/STIM_000.jpg	99
3.619	1.382	1381.6	incongruent	Block1	incongruent/STIM_000.jpg	100
7.434	1.048	1048.1	incongruent	Block1	incongruent/STIM_000.jpg	99
11.744	0.693	692.6	incongruent	Block1	incongruent/STIM_000.jpg	100
15.046	1.051	1051.4	incongruent	Block1	incongruent/STIM_000.jpg	99
19.605	0.687	687.3	incongruent	Block1	incongruent/STIM_001.jpg	100
24.32	0.941	940.6	incongruent	Block1	incongruent/STIM_001.jpg	100
28.534	1.065	1064.7	incongruent	Block1	incongruent/STIM_001.jpg	99
32.888	1.095	1094.8	incongruent	Block1	incongruent/STIM_001.jpg	100
37.371	0.628	627.9	incongruent	Block1	incongruent/STIM_001.jpg	100
40.919	0.882	882.3	incongruent	Block1	incongruent/STIM_002.jpg	100
43.981	0.768	768.4	incongruent	Block1	incongruent/STIM_002.jpg	99
48.548	1.13	1129.5	incongruent	Block1	incongruent/STIM_002.jpg	100
53.634	0.733	733.4	incongruent	Block1	incongruent/STIM_002.jpg	100
56.985	0.645	645.2	incongruent	Block1	incongruent/STIM_002.jpg	99
59.725	1.016	1015.7	incongruent	Block1	incongruent/STIM_003.jpg	99
63.05	1.076	1076.2	incongruent	Block1	incongruent/STIM_003.jpg	99
66.958	1.245	1244.9	incongruent	Block1	incongruent/STIM_003.jpg	99
70.654	0.578	577.9	incongruent	Block1	incongruent/STIM_003.jpg	99
74.621	0.8	799.9	incongruent	Block1	incongruent/STIM_003.jpg	99
78.86	1.187	1186.8	incongruent	Block1	incongruent/STIM_004.jpg	100
83.032	1.175	1175.0	incongruent	Block1	incongruent/STIM_004.jpg	100
88.179	1.098	1098.5	incongruent	Block1	incongruent/STIM_004.jpg	100
92.436	1.08	1080.4	incongruent	Block1	incongruent/STIM_004.jpg	99
97.547	0.633	632.8	incongruent	Block1	incongruent/STIM_004.jpg	100
100.504	1.158	1157.6	incongruent	Block1	incongruent/STIM_005.jpg	100
104.112	0.996	996.3	incongruent	Block1	incongruent/STIM_005.jpg	100
108.787	0.581	581.4	incongruent	Block1	incongruent/STIM_005.jpg	100
112.282	0.705	705.4	incongruent	Block1	incongruent/STIM_005.jpg	100
115.313	0.573	572.7	incongruent	Block1	incongruent/STIM_005.jpg	99
119.657	0.82	820.0	incongruent	Block1	incongruent/STIM_006.jpg	100
123.438	0.996	995.9	incongruent	Block1	incongruent/STIM_006.jpg	100
127.716	0.685	684.6	incongruent	Block1	incongruent/STIM_006.jpg	100
131.459	1.22	1219.7	incongruent	Block1	incongruent/STIM_006.jpg	99
135.355	0.889	889.4	incongruent	Block1	incongruent/STIM_006.jpg	100
139.143	1.156	1156.2	incongruent	Block1	incongruent/STIM_007.jpg	100
143.825	1.259	1258.7	incongruent	Block1	incongruent/STIM_007.jpg	99
147.994	1.079	1079.4	incongruent	Block1	incongruent/STIM_007.jpg	99
152.324	1.114	1113.8	incongruent	Block1	incongruent/STIM_007.jpg	99
157.291	0.782	782.0	incongruent	Block1	incongruent/STIM_007.jpg	99
161.166	0.976	976.3	incongruent	Block1	incongruent/STIM_008.jpg	99
164.541	0.709	708.7	incongruent	Block1	incongruent/STIM_008.jpg	99
168.343	0.938	938.4	incongruent	Block1	incongruent/STIM_008.jpg	100
172.261	1.249	1249.2	incongruent	Block1	incongruent/STIM_008.jpg	100
175.967	0.662	661.7	incongruent	Block1	incongruent/STIM_008.jpg	100
179.845	1.056	1056.5	incongruent	Block1	incongruent/STIM_009.jpg	99
184.371	1.191	1190.6	incongruent	Block1	incongruent/STIM_009.jpg	100
187.753	0.985	984.6	incongruent	Block1	incongruent/STIM_009.jpg	99
191.182	0.975	974.6	incongruent	Block1	incongruent/STIM_009.jpg	100
194.97	0.87	869.7	incongruent	Block1	incongruent/STIM_009.jpg	99
199.388	0.896	895.9	incongruent	Block1	incongruent/STIM_010.jpg	100
203.394	1.28	1280.2	incongruent	Block1	incongruent/STIM_010.jpg	100
208.186	0.642	641.9	incongruent	Block1	incongruent/STIM_010.jpg	99
212.024	1.092	1091.9	incongruent	Block1	incongruent/STIM_010.jpg	99
215.451	0.566	566.1	incongruent	Block1	incongruent/STIM_010.jpg	100
219.206	0.916	916.5	incongruent	Block1	incongruent/STIM_011.jpg	99
223.435	1.289	1289.0	incongruent	Block1	incongruent/STIM_011.jpg	100
227.48	0.905	905.3	incongruent	Block1	incongruent/STIM_011.jpg	100
231.55	0.984	983.7	incongruent	Block1	incongruent/STIM_011.jpg	100
236.13	0.932	932.0	incongruent	Block1	incongruent/STIM_011.jpg	100
240.955	1.139	1138.6	incongruent	Block1	incongruent/STIM_012.jpg	100
244.674	0.958	958.4	incongruent	Block1	incongruent/STIM_012.jpg	99
247.736	1.163	1163.4	incongruent	Block1	incongruent/STIM_012.jpg	100
252.958	0.864	863.7	incongruent	Block1	incongruent/STIM_012.jpg	99
257.391	0.971	971.1	incongruent	Block1	incongruent/STIM_012.jpg	100
261.758	1.326	1325.8	incongruent	Block1	incongruent/STIM_013.jpg	99
266.969	0.876	875.5	incongruent	Block1	incongruent/STIM_013.jpg	100
270.557	1.068	1067.5	incongruent	Block1	incongruent/STIM_013.jpg	99
275.317	0.689	688.6	incongruent	Block1	incongruent/STIM_013.jpg	99
279.113	0.712	711.7	incongruent	Block1	incongruent/STIM_013.jpg	100
282.22	0.815	814.7	incongruent	Block1	incongruent/STIM_014.jpg	99
286.466	0.927	927.0	incongruent	Block1	incongruent/STIM_014.jpg	99
291.012	0.661	660.7	incongruent	Block1	incongruent/STIM_014.jpg	100
295.68	1.019	1019.0	incongruent	Block1	incongruent/STIM_014.jpg	100
300.025	0.843	842.9	incongruent	Block1	incongruent/STIM_014.jpg	99
303.923	1.106	1106.3	incongruent	Block1	incongruent/STIM_015.jpg	100
307.109	1.025	1024.6	incongruent	Block1	incongruent/STIM_015.jpg	100
311.44	0.756	755.9	incongruent	Block1	incongruent/STIM_015.jpg	100
315.245	1.063	1063.4	incongruent	Block1	incongruent/STIM_015.jpg	100
319.143	0.841	840.6	incongruent	Block1	incongruent/STIM_015.jpg	100
323.06	0.69	689.8	incongruent	Block1	incongruent/STIM_016.jpg	99
327.194	0.716	716.2	incongruent	Block1	incongruent/STIM_016.jpg	99
330.522	0.75	750.0	incongruent	Block1	incongruent/STIM_016.jpg	100
335.253	1.131	1131.2	incongruent	Block1	incongruent/STIM_016.jpg	99
338.73	0.748	748.0	incongruent	Block1	incongruent/STIM_016.jpg	99
342.893	1.212	1211.6	incongruent	Block1	incongruent/STIM_017.jpg	100
347.604	0.842	842.5	incongruent	Block1	incongruent/STIM_017.jpg	99
351.896	1.113	1113.1	incongruent	Block1	incongruent/STIM_017.jpg	100
356.057	0.924	924.1	incongruent	Block1	incongruent/STIM_017.jpg	99
360.878	0.791	790.6	incongruent	Block1	incongruent/STIM_017.jpg	99
364.119	0.883	883.4	incongruent	Block1	incongruent/STIM_018.jpg	99
368.619	0.91	909.8	incongruent	Block1	incongruent/STIM_018.jpg	99
373.46	1.085	1084.8	incongruent	Block1	incongruent/STIM_018.jpg	100
377.742	1.145	1144.8	incongruent	Block1	incongruent/STIM_018.jpg	99
381.643	1.027	1027.1	incongruent	Block1	incongruent/STIM_018.jpg	99
386.038	1.26	1260.2	incongruent	Block1	incongruent/STIM_019.jpg	100
391.168	0.922	921.5	incongruent	Block1	incongruent/STIM_019.jpg	100
395.805	0.676	676.5	incongruent	Block1	incongruent/STIM_019.jpg	100
398.864	1.116	1116.5	incongruent	Block1	incongruent/STIM_019.jpg	99
403.371	0.673	673.1	incongruent	Block1	incongruent/STIM_019.jpg	99
407.085	1.264	1263.9	incongruent	Block1	incongruent/STIM_020.jpg	99
411.659	0.966	965.9	incongruent	Block1	incongruent/STIM_020.jpg	100
415.317	0.776	776.3	incongruent	Block1	incongruent/STIM_020.jpg	100
419.224	0.617	617.3	incongruent	Block1	incongruent/STIM_020.jpg	100
423.692	0.897	897.4	incongruent	Block1	incongruent/STIM_020.jpg	99
428.46	1.205	1204.7	incongruent	Block1	incongruent/STIM_021.jpg	99
433.213	0.7	700.0	incongruent	Block1	incongruent/STIM_021.jpg	99
436.513	0.682	681.7	incongruent	Block1	incongruent/STIM_021.jpg	99
439.749	1.25	1250.1	incongruent	Block1	incongruent/STIM_021.jpg	99
445.0	0.943	943.4	incongruent	Block1	incongruent/STIM_021.jpg	100
449.135	0.969	969.1	incongruent	Block1	incongruent/STIM_022.jpg	100
453.94	0.631	630.7	incongruent	Block1	incongruent/STIM_022.jpg	100
457.397	1.037	1037.3	incongruent	Block1	incongruent/STIM_022.jpg	100
461.032	1.177	1176.7	incongruent	Block1	incongruent/STIM_022.jpg	100
465.778	1.134	1133.5	incongruent	Block1	incongruent/STIM_022.jpg	99
470.831	1.094	1094.1	incongruent	Block1	incongruent/STIM_023.jpg	100
475.347	1.139	1139.1	incongruent	Block1	incongruent/STIM_023.jpg	99
479.711	0.914	914.2	incongruent	Block1	incongruent/STIM_023.jpg	100
484.72	0.697	697.4	incongruent	Block1	incongruent/STIM_023.jpg	99
488.07	0.656	655.7	incongruent	Block1	incongruent/STIM_023.jpg	99
491.132	0.8	800.4	incongruent	Block1	incongruent/STIM_024.jpg	100
495.756	1.265	1264.7	incongruent	Block1	incongruent/STIM_024.jpg	100
499.311	0.776	776.1	incongruent	Block1	incongruent/STIM_024.jpg	100
503.812	0.898	898.3	incongruent	Block1	incongruent/STIM_024.jpg	100
508.54	0.602	602.3	incongruent	Block1	incongruent/STIM_024.jpg	99
511.27	1.113	1113.1	incongruent	Block1	incongruent/STIM_025.jpg	100
515.359	0.678	677.7	incongruent	Block1	incongruent/STIM_025.jpg	100
518.379	0.699	698.7	incongruent	Block1	incongruent/STIM_025.jpg	100
522.472	0.814	814.5	incongruent	Block1	incongruent/STIM_025.jpg	100
526.223	0.804	803.9	incongruent	Block1	incongruent/STIM_025.jpg	100
530.097	0.95	950.1	incongruent	Block1	incongruent/STIM_026.jpg	99
533.18	1.129	1128.7	incongruent	Block1	incongruent/STIM_026.jpg	99
537.398	1.023	1022.6	incongruent	Block1	incongruent/STIM_026.jpg	99
541.266	0.689	689.3	incongruent	Block1	incongruent/STIM_026.jpg	99
545.302	0.737	737.0	incongruent	Block1	incongruent/STIM_026.jpg	100
548.994	1.29	1290.0	incongruent	Block1	incongruent/STIM_027.jpg	100
552.36	1.252	1252.2	incongruent	Block1	incongruent/STIM_027.jpg	100
555.975	0.889	888.7	incongruent	Block1	incongruent/STIM_027.jpg	99
559.965	0.538	537.6	incongruent	Block1	incongruent/STIM_027.jpg	99
562.781	0.545	545.4	incongruent	Block1	incongruent/STIM_027.jpg	100
566.276	0.792	791.7	incongruent	Block1	incongruent/STIM_028.jpg	100
570.47	0.831	830.6	incongruent	Block1	incongruent/STIM_028.jpg	99
573.806	1.067	1067.0	incongruent	Block1	incongruent/STIM_028.jpg	99
578.63	1.162	1162.1	incongruent	Block1	incongruent/STIM_028.jpg	99
581.927	1.048	1047.8	incongruent	Block1	incongruent/STIM_028.jpg	100
585.286	1.048	1047.7	incongruent	Block1	incongruent/STIM_029.jpg	99
589.147	1.12	1119.9	incongruent	Block1	incongruent/STIM_029.jpg	99
593.961	1.133	1133.1	incongruent	Block1	incongruent/STIM_029.jpg	99
597.297	0.771	770.6	incongruent	Block1	incongruent/STIM_029.jpg	99
600.69	1.123	1122.6	incongruent	Block1	incongruent/STIM_029.jpg	99
605.132	0.71	709.9	congruent	Block1	congruent/STIM_000.jpg	99
609.689	0.548	548.2	congruent	Block1	congruent/STIM_000.jpg	100
612.542	0.816	816.0	congruent	Block1	congruent/STIM_000.jpg	100
615.817	0.462	461.6	congruent	Block1	congruent/STIM_000.jpg	99
619.169	0.64	640.1	congruent	Block1	congruent/STIM_000.jpg	99
623.183	0.776	775.6	congruent	Block1	congruent/STIM_001.jpg	100
625.955	0.694	693.7	congruent	Block1	congruent/STIM_001.jpg	99
629.036	0.536	535.5	congruent	Block1	congruent/STIM_001.jpg	100
632.485	0.709	709.3	congruent	Block1	congruent/STIM_001.jpg	99
637.261	0.751	751.2	congruent	Block1	congruent/STIM_001.jpg	100
641.883	0.728	727.9	congruent	Block1	congruent/STIM_002.jpg	100
646.152	0.753	753.0	congruent	Block1	congruent/STIM_002.jpg	99
650.215	0.743	742.9	congruent	Block1	congruent/STIM_002.jpg	100
653.73	0.826	826.5	congruent	Block1	congruent/STIM_002.jpg	99
657.086	0.75	750.5	congruent	Block1	congruent/STIM_002.jpg	99
661.805	0.732	732.1	congruent	Block1	congruent/STIM_003.jpg	99
664.793	0.542	542.3	congruent	Block1	congruent/STIM_003.jpg	100
668.783	0.699	698.8	congruent	Block1	congruent/STIM_003.jpg	99
672.81	0.632	632.0	congruent	Block1	congruent/STIM_003.jpg	100
677.147	0.52	520.3	congruent	Block1	congruent/STIM_003.jpg	99
679.782	0.858	858.5	congruent	Block1	congruent/STIM_004.jpg	100
684.006	0.807	806.7	congruent	Block1	congruent/STIM_004.jpg	99
688.242	0.848	848.4	congruent	Block1	congruent/STIM_004.jpg	100
692.641	0.434	433.7	congruent	Block1	congruent/STIM_004.jpg	100
696.074	0.765	764.7	congruent	Block1	congruent/STIM_004.jpg	99
700.875	0.425	425.0	congruent	Block1	congruent/STIM_005.jpg	99
703.59	0.825	824.6	congruent	Block1	congruent/STIM_005.jpg	100
708.088	0.549	548.9	congruent	Block1	congruent/STIM_005.jpg	99
710.918	0.772	771.9	congruent	Block1	congruent/STIM_005.jpg	99
715.588	0.697	697.2	congruent	Block1	congruent/STIM_005.jpg	100
718.948	0.703	702.8	congruent	Block1	congruent/STIM_006.jpg	99
723.166	0.852	851.5	congruent	Block1	congruent/STIM_006.jpg	99
726.619	0.614	614.4	congruent	Block1	congruent/STIM_006.jpg	99
729.608	0.705	705.4	congruent	Block1	congruent/STIM_006.jpg	99
732.449	0.746	746.5	congruent	Block1	congruent/STIM_006.jpg	100
736.109	0.585	584.8	congruent	Block1	congruent/STIM_007.jpg	99
740.596	0.571	570.9	congruent	Block1	congruent/STIM_007.jpg	99
744.119	0.588	588.0	congruent	Block1	congruent/STIM_007.jpg	99
748.221	0.558	557.9	congruent	Block1	congruent/STIM_007.jpg	99
752.056	0.584	583.9	congruent	Block1	congruent/STIM_007.jpg	100
754.803	0.57	570.0	congruent	Block1	congruent/STIM_008.jpg	99
758.853	0.788	788.5	congruent	Block1	congruent/STIM_008.jpg	99
762.902	0.709	709.3	congruent	Block1	congruent/STIM_008.jpg	100
766.39	0.498	498.1	congruent	Block1	congruent/STIM_008.jpg	99
769.086	0.663	663.2	congruent	Block1	congruent/STIM_008.jpg	100
773.327	0.657	656.9	congruent	Block1	congruent/STIM_009.jpg	100
777.759	0.589	589.0	congruent	Block1	congruent/STIM_009.jpg	100
782.106	0.648	648.3	congruent	Block1	congruent/STIM_009.jpg	99
785.62	0.578	577.9	congruent	Block1	congruent/STIM_009.jpg	100
789.811	0.624	624.5	congruent	Block1	congruent/STIM_009.jpg	99
793.824	0.766	765.8	congruent	Block1	congruent/STIM_010.jpg	99
798.058	0.528	527.9	congruent	Block1	congruent/STIM_010.jpg	100
802.233	0.49	490.4	congruent	Block1	congruent/STIM_010.jpg	100
806.08	0.722	722.4	congruent	Block1	congruent/STIM_010.jpg	99
810.082	0.405	405.3	congruent	Block1	congruent/STIM_010.jpg	99
813.712	0.473	473.1	congruent	Block1	congruent/STIM_011.jpg	99
817.416	0.831	830.6	congruent	Block1	congruent/STIM_011.jpg	99
821.713	0.801	800.9	congruent	Block1	congruent/STIM_011.jpg	99
825.886	0.729	729.4	congruent	Block1	congruent/STIM_011.jpg	100
828.782	0.573	573.0	congruent	Block1	congruent/STIM_011.jpg	99
833.191	0.59	590.3	congruent	Block1	congruent/STIM_012.jpg	100
836.302	0.609	608.8	congruent	Block1	congruent/STIM_012.jpg	99
839.584	0.601	600.6	congruent	Block1	congruent/STIM_012.jpg	100
843.117	0.495	494.8	congruent	Block1	congruent/STIM_012.jpg	100
847.125	0.649	648.7	congruent	Block1	congruent/STIM_012.jpg	100
850.091	0.633	633.4	congruent	Block1	congruent/STIM_013.jpg	99
854.793	0.759	759.3	congruent	Block1	congruent/STIM_013.jpg	100
859.181	0.806	805.5	congruent	Block1	congruent/STIM_013.jpg	100
863.478	0.794	794.3	congruent	Block1	congruent/STIM_013.jpg	99
868.053	0.424	423.8	congruent	Block1	congruent/STIM_013.jpg	100
871.138	0.662	661.5	congruent	Block1	congruent/STIM_014.jpg	100
875.245	0.686	685.5	congruent	Block1	congruent/STIM_014.jpg	99
879.655	0.832	832.2	congruent	Block1	congruent/STIM_014.jpg	99
883.264	0.722	722.0	congruent	Block1	congruent/STIM_014.jpg	100
887.726	0.584	584.2	congruent	Block1	congruent/STIM_014.jpg	99
891.914	0.673	673.2	congruent	Block1	congruent/STIM_015.jpg	99
896.6	0.576	575.6	congruent	Block1	congruent/STIM_015.jpg	99
899.739	0.689	689.0	congruent	Block1	congruent/STIM_015.jpg	100
903.414	0.41	409.7	congruent	Block1	congruent/STIM_015.jpg	99
907.536	0.791	790.7	congruent	Block1	congruent/STIM_015.jpg	100
910.568	0.68	680.1	congruent	Block1	congruent/STIM_016.jpg	100
913.662	0.424	423.6	congruent	Block1	congruent/STIM_016.jpg	100
917.804	0.869	869.1	congruent	Block1	congruent/STIM_016.jpg	100
922.489	0.637	637.2	congruent	Block1	congruent/STIM_016.jpg	100
926.228	0.536	536.2	congruent	Block1	congruent/STIM_016.jpg	99
928.74	0.778	778.2	congruent	Block1	congruent/STIM_017.jpg	99
933.316	0.698	697.9	congruent	Block1	congruent/STIM_017.jpg	99
937.731	0.534	533.6	congruent	Block1	congruent/STIM_017.jpg	100
940.931	0.792	791.5	congruent	Block1	congruent/STIM_017.jpg	99
945.553	0.825	825.4	congruent	Block1	congruent/STIM_017.jpg	99
948.555	0.53	529.7	congruent	Block1	congruent/STIM_018.jpg	100
951.876	0.685	685.1	congruent	Block1	congruent/STIM_018.jpg	100
955.871	0.791	791.3	congruent	Block1	congruent/STIM_018.jpg	100
959.496	0.611	610.8	congruent	Block1	congruent/STIM_018.jpg	99
962.951	0.773	772.7	congruent	Block1	congruent/STIM_018.jpg	100
966.095	0.626	625.6	congruent	Block1	congruent/STIM_019.jpg	100
970.052	0.678	678.2	congruent	Block1	congruent/STIM_019.jpg	99
973.645	0.731	731.4	congruent	Block1	congruent/STIM_019.jpg	99
977.186	0.574	574.0	congruent	Block1	congruent/STIM_019.jpg	99
980.859	0.62	620.4	congruent	Block1	congruent/STIM_019.jpg	100
983.688	0.734	733.5	congruent	Block1	congruent/STIM_020.jpg	99
987.966	0.519	519.4	congruent	Block1	congruent/STIM_020.jpg	100
992.117	0.578	577.7	congruent	Block1	congruent/STIM_020.jpg	99
995.303	0.558	557.9	congruent	Block1	congruent/STIM_020.jpg	100
998.999	0.685	685.4	congruent	Block1	congruent/STIM_020.jpg	100
1003.046	0.752	752.5	congruent	Block1	congruent/STIM_021.jpg	99
1006.185	0.635	635.3	congruent	Block1	congruent/STIM_021.jpg	100
1009.952	0.606	606.4	congruent	Block1	congruent/STIM_021.jpg	100
1013.64	0.521	521.3	congruent	Block1	congruent/STIM_021.jpg	99
1016.54	0.781	780.9	congruent	Block1	congruent/STIM_021.jpg	100
1020.566	0.557	556.7	congruent	Block1	congruent/STIM_022.jpg	100
1024.884	0.639	639.2	congruent	Block1	congruent/STIM_022.jpg	100
1028.265	0.68	679.6	congruent	Block1	congruent/STIM_022.jpg	99
1032.738	0.569	569.3	congruent	Block1	congruent/STIM_022.jpg	99
1036.76	0.406	405.7	congruent	Block1	congruent/STIM_022.jpg	99
1040.751	0.639	639.2	congruent	Block1	congruent/STIM_023.jpg	99
1043.571	0.598	597.7	congruent	Block1	congruent/STIM_023.jpg	99
1046.928	0.72	720.3	congruent	Block1	congruent/STIM_023.jpg	99
1049.877	0.587	587.2	congruent	Block1	congruent/STIM_023.jpg	100
1054.278	0.547	547.0	congruent	Block1	congruent/STIM_023.jpg	100
1056.914	0.699	699.2	congruent	Block1	congruent/STIM_024.jpg	99
1059.684	0.767	766.8	congruent	Block1	congruent/STIM_024.jpg	99
1063.301	0.468	468.5	congruent	Block1	congruent/STIM_024.jpg	99
1067.607	0.45	450.2	congruent	Block1	congruent/STIM_024.jpg	99
1070.713	0.759	759.4	congruent	Block1	congruent/STIM_024.jpg	99
1073.845	0.86	860.0	congruent	Block1	congruent/STIM_025.jpg	100
1076.706	0.723	723.4	congruent	Block1	congruent/STIM_025.jpg	100
1081.418	0.702	701.8	congruent	Block1	congruent/STIM_025.jpg	99
1084.807	0.748	747.6	congruent	Block1	congruent/STIM_025.jpg	100
1088.609	0.671	671.4	congruent	Block1	congruent/STIM_025.jpg	99
1092.96	0.623	623.2	congruent	Block1	congruent/STIM_026.jpg	100
1095.776	0.709	708.8	congruent	Block1	congruent/STIM_026.jpg	99
1099.321	0.768	768.4	congruent	Block1	congruent/STIM_026.jpg	100
1102.302	0.652	651.5	congruent	Block1	congruent/STIM_026.jpg	100
1106.953	0.577	576.7	congruent	Block1	congruent/STIM_026.jpg	99
1109.664	0.807	806.6	congruent	Block1	congruent/STIM_027.jpg	99
1114.051	0.732	731.8	congruent	Block1	congruent/STIM_027.jpg	99
1118.795	0.702	702.3	congruent	Block1	congruent/STIM_027.jpg	99
1121.589	0.614	613.9	congruent	Block1	congruent/STIM_027.jpg	100
1124.832	0.83	829.8	congruent	Block1	congruent/STIM_027.jpg	100
1128.397	0.658	658.2	congruent	Block1	congruent/STIM_028.jpg	99
1131.999	0.772	772.2	congruent	Block1	congruent/STIM_028.jpg	99
1135.255	0.62	620.2	congruent	Block1	congruent/STIM_028.jpg	100
1139.744	0.827	827.0	congruent	Block1	congruent/STIM_028.jpg	100
1144.442	0.848	847.9	congruent	Block1	congruent/STIM_028.jpg	100
1148.845	0.662	662.4	congruent	Block1	congruent/STIM_029.jpg	100
1153.33	0.619	619.3	congruent	Block1	congruent/STIM_029.jpg	100
1156.907	0.638	637.6	congruent	Block1	congruent/STIM_029.jpg	99
1161.014	0.777	776.9	congruent	Block1	congruent/STIM_029.jpg	100
1165.698	0.801	801.1	congruent	Block1	congruent/STIM_029.jpg	100
1170.516	0.932	932.3	incongruent	Block2	incongruent/STIM_000.jpg	100
1175.505	1.144	1144.5	incongruent	Block2	incongruent/STIM_000.jpg	99
1180.074	0.46	460.1	incongruent	Block2	incongruent/STIM_000.jpg	99
1183.857	0.644	644.2	incongruent	Block2	incongruent/STIM_000.jpg	100
1187.813	0.682	682.5	incongruent	Block2	incongruent/STIM_000.jpg	99
1190.636	0.867	866.6	incongruent	Block2	incongruent/STIM_001.jpg	100
1193.822	0.794	794.0	incongruent	Block2	incongruent/STIM_001.jpg	100
1198.071	0.988	988.0	incongruent	Block2	incongruent/STIM_001.jpg	100
1201.272	0.561	560.9	incongruent	Block2	incongruent/STIM_001.jpg	100
1204.697	0.636	636.3	incongruent	Block2	incongruent/STIM_001.jpg	99
1207.461	0.952	951.7	incongruent	Block2	incongruent/STIM_002.jpg	99
1211.813	1.082	1081.5	incongruent	Block2	incongruent/STIM_002.jpg	99
1215.84	0.694	694.2	incongruent	Block2	incongruent/STIM_002.jpg	99
1219.888	0.708	707.6	incongruent	Block2	incongruent/STIM_002.jpg	99
1223.025	0.908	908.4	incongruent	Block2	incongruent/STIM_002.jpg	99
1226.232	0.77	769.5	incongruent	Block2	incongruent/STIM_003.jpg	100
1229.711	0.545	545.1	incongruent	Block2	incongruent/STIM_003.jpg	99
1233.54	1.072	1072.4	incongruent	Block2	incongruent/STIM_003.jpg	99
1237.503	0.999	998.7	incongruent	Block2	incongruent/STIM_003.jpg	100
1241.161	0.875	875.3	incongruent	Block2	incongruent/STIM_003.jpg	100
1245.032	0.929	929.1	incongruent	Block2	incongruent/STIM_004.jpg	100
1248.661	0.891	890.9	incongruent	Block2	incongruent/STIM_004.jpg	100
1253.43	0.72	719.9	incongruent	Block2	incongruent/STIM_004.jpg	100
1257.529	0.884	884.2	incongruent	Block2	incongruent/STIM_004.jpg	100
1260.554	0.803	802.8	incongruent	Block2	incongruent/STIM_004.jpg	100
1264.576	1.124	1124.3	incongruent	Block2	incongruent/STIM_005.jpg	99
1268.097	1.065	1065.0	incongruent	Block2	incongruent/STIM_005.jpg	99
1271.71	0.593	593.2	incongruent	Block2	incongruent/STIM_005.jpg	99
1275.902	0.597	597.2	incongruent	Block2	incongruent/STIM_005.jpg	100
1279.401	0.493	493.4	incongruent	Block2	incongruent/STIM_005.jpg	100
1282.677	1.037	1036.8	incongruent	Block2	incongruent/STIM_006.jpg	100
1287.54	0.594	594.1	incongruent	Block2	incongruent/STIM_006.jpg	100
1290.529	1.167	1166.6	incongruent	Block2	incongruent/STIM_006.jpg	99
1294.695	0.763	762.7	incongruent	Block2	incongruent/STIM_006.jpg	99
1298.982	0.526	525.8	incongruent	Block2	incongruent/STIM_006.jpg	100
1303.223	0.608	608.3	incongruent	Block2	incongruent/STIM_007.jpg	100
1307.554	1.168	1168.2	incongruent	Block2	incongruent/STIM_007.jpg	100
1311.779	0.927	927.0	incongruent	Block2	incongruent/STIM_007.jpg	100
1315.7	0.665	664.7	incongruent	Block2	incongruent/STIM_007.jpg	100
1319.092	0.805	804.7	incongruent	Block2	incongruent/STIM_007.jpg	100
1321.962	1.172	1172.4	incongruent	Block2	incongruent/STIM_008.jpg	100
1325.571	0.861	860.6	incongruent	Block2	incongruent/STIM_008.jpg	99
1328.448	1.019	1019.2	incongruent	Block2	incongruent/STIM_008.jpg	100
1332.411	0.96	959.9	incongruent	Block2	incongruent/STIM_008.jpg	99
1336.774	0.862	862.1	incongruent	Block2	incongruent/STIM_008.jpg	100
1341.072	0.542	541.8	incongruent	Block2	incongruent/STIM_009.jpg	99
1344.633	1.069	1068.6	incongruent	Block2	incongruent/STIM_009.jpg	99
1348.436	0.909	908.8	incongruent	Block2	incongruent/STIM_009.jpg	99
1352.832	0.575	575.2	incongruent	Block2	incongruent/STIM_009.jpg	99
1355.827	0.462	462.2	incongruent	Block2	incongruent/STIM_009.jpg	99
1359.704	0.9	900.0	incongruent	Block2	incongruent/STIM_010.jpg	100
1363.395	1.141	1140.7	incongruent	Block2	incongruent/STIM_010.jpg	99
1366.906	0.66	660.4	incongruent	Block2	incongruent/STIM_010.jpg	99
1370.565	0.702	702.3	incongruent	Block2	incongruent/STIM_010.jpg	99
1373.475	0.729	729.3	incongruent	Block2	incongruent/STIM_010.jpg	99
1377.143	1.089	1089.4	incongruent	Block2	incongruent/STIM_011.jpg	100
1381.214	0.595	594.6	incongruent	Block2	incongruent/STIM_011.jpg	100
1384.836	0.565	564.7	incongruent	Block2	incongruent/STIM_011.jpg	99
1388.387	0.716	716.5	incongruent	Block2	incongruent/STIM_011.jpg	99
1391.152	0.947	946.7	incongruent	Block2	incongruent/STIM_011.jpg	99
1394.585	0.779	778.8	incongruent	Block2	incongruent/STIM_012.jpg	100
1399.292	0.603	603.4	incongruent	Block2	incongruent/STIM_012.jpg	100
1402.31	1.005	1005.1	incongruent	Block2	incongruent/STIM_012.jpg	99
1407.036	0.56	560.4	incongruent	Block2	incongruent/STIM_012.jpg	99
1411.164	0.664	663.6	incongruent	Block2	incongruent/STIM_012.jpg	100
1414.872	1.053	1053.3	incongruent	Block2	incongruent/STIM_013.jpg	100
1419.511	0.613	613.0	incongruent	Block2	incongruent/STIM_013.jpg	100
1423.218	0.689	689.1	incongruent	Block2	incongruent/STIM_013.jpg	100
1427.699	0.631	630.9	incongruent	Block2	incongruent/STIM_013.jpg	99
1430.805	0.691	691.2	incongruent	Block2	incongruent/STIM_013.jpg	100
1434.606	0.704	704.0	incongruent	Block2	incongruent/STIM_014.jpg	99
1438.486	1.004	1003.5	incongruent	Block2	incongruent/STIM_014.jpg	100
1443.075	0.665	664.7	incongruent	Block2	incongruent/STIM_014.jpg	99
1446.577	0.649	649.1	incongruent	Block2	incongruent/STIM_014.jpg	100
1449.729	0.786	785.9	incongruent	Block2	incongruent/STIM_014.jpg	99
1452.91	0.761	760.7	incongruent	Block2	incongruent/STIM_015.jpg	99
1456.957	0.844	844.0	incongruent	Block2	incongruent/STIM_015.jpg	99
1461.658	0.966	966.5	incongruent	Block2	incongruent/STIM_015.jpg	100
1465.348	0.699	698.7	incongruent	Block2	incongruent/STIM_015.jpg	99
1470.054	0.931	930.7	incongruent	Block2	incongruent/STIM_015.jpg	100
1473.791	0.934	934.2	incongruent	Block2	incongruent/STIM_016.jpg	99
1477.82	0.616	616.4	incongruent	Block2	incongruent/STIM_016.jpg	99
1481.533	0.65	649.9	incongruent	Block2	incongruent/STIM_016.jpg	100
1485.817	0.566	565.8	incongruent	Block2	incongruent/STIM_016.jpg	100
1489.144	0.821	821.4	incongruent	Block2	incongruent/STIM_016.jpg	100
1492.533	1.261	1261.4	incongruent	Block2	incongruent/STIM_017.jpg	100
1497.351	0.75	749.5	incongruent	Block2	incongruent/STIM_017.jpg	99
1501.179	0.933	933.3	incongruent	Block2	incongruent/STIM_017.jpg	99
1506.099	0.733	732.9	incongruent	Block2	incongruent/STIM_017.jpg	99
1510.808	0.75	750.2	incongruent	Block2	incongruent/STIM_017.jpg	100
1514.665	1.111	1110.6	incongruent	Block2	incongruent/STIM_018.jpg	99
1519.419	1.051	1050.9	incongruent	Block2	incongruent/STIM_018.jpg	99
1523.852	0.797	797.3	incongruent	Block2	incongruent/STIM_018.jpg	99
1528.012	0.627	627.4	incongruent	Block2	incongruent/STIM_018.jpg	100
1531.408	0.5	500.5	incongruent	Block2	incongruent/STIM_018.jpg	99
1534.393	0.953	953.3	incongruent	Block2	incongruent/STIM_019.jpg	100
1538.61	1.047	1047.0	incongruent	Block2	incongruent/STIM_019.jpg	100
1542.248	0.686	686.5	incongruent	Block2	incongruent/STIM_019.jpg	99
1546.117	0.528	528.4	incongruent	Block2	incongruent/STIM_019.jpg	99
1549.679	0.375	375.1	incongruent	Block2	incongruent/STIM_019.jpg	100
1553.847	0.716	715.9	incongruent	Block2	incongruent/STIM_020.jpg	99
1558.496	0.613	613.3	incongruent	Block2	incongruent/STIM_020.jpg	99
1562.729	0.772	771.5	incongruent	Block2	incongruent/STIM_020.jpg	100
1567.025	0.778	778.4	incongruent	Block2	incongruent/STIM_020.jpg	99
1570.561	0.909	909.4	incongruent	Block2	incongruent/STIM_020.jpg	100
1575.019	1.084	1084.0	incongruent	Block2	incongruent/STIM_021.jpg	100
1578.987	0.925	925.1	incongruent	Block2	incongruent/STIM_021.jpg	100
1582.459	0.897	897.3	incongruent	Block2	incongruent/STIM_021.jpg	99
1586.4	0.907	906.6	incongruent	Block2	incongruent/STIM_021.jpg	99
1589.77	0.966	966.2	incongruent	Block2	incongruent/STIM_021.jpg	99
1594.514	0.693	692.7	incongruent	Block2	incongruent/STIM_022.jpg	99
1598.947	0.865	864.6	incongruent	Block2	incongruent/STIM_022.jpg	100
1602.918	0.652	651.9	incongruent	Block2	incongruent/STIM_022.jpg	100
1605.983	0.716	715.5	incongruent	Block2	incongruent/STIM_022.jpg	99
1609.923	0.83	829.5	incongruent	Block2	incongruent/STIM_022.jpg	100
1612.986	0.823	822.8	incongruent	Block2	incongruent/STIM_023.jpg	99
1615.955	0.948	947.6	incongruent	Block2	incongruent/STIM_023.jpg	100
1619.217	1.046	1046.2	incongruent	Block2	incongruent/STIM_023.jpg	100
1623.158	0.882	881.9	incongruent	Block2	incongruent/STIM_023.jpg	99
1626.791	0.772	772.0	incongruent	Block2	incongruent/STIM_023.jpg	99
1631.415	0.812	812.1	incongruent	Block2	incongruent/STIM_024.jpg	99
1635.098	0.684	684.3	incongruent	Block2	incongruent/STIM_024.jpg	100
1639.688	0.627	627.0	incongruent	Block2	incongruent/STIM_024.jpg	99
1643.782	0.437	436.8	incongruent	Block2	incongruent/STIM_024.jpg	100
1647.78	0.981	981.3	incongruent	Block2	incongruent/STIM_024.jpg	100
1651.112	0.903	902.9	incongruent	Block2	incongruent/STIM_025.jpg	100
1655.161	0.589	589.4	incongruent	Block2	incongruent/STIM_025.jpg	100
1658.069	0.959	959.1	incongruent	Block2	incongruent/STIM_025.jpg	100
1662.54	0.609	608.9	incongruent	Block2	incongruent/STIM_025.jpg	99
1665.214	1.03	1029.5	incongruent	Block2	incongruent/STIM_025.jpg	99
1669.376	0.885	885.0	incongruent	Block2	incongruent/STIM_026.jpg	100
1672.859	1.005	1005.4	incongruent	Block2	incongruent/STIM_026.jpg	99
1677.733	0.869	868.9	incongruent	Block2	incongruent/STIM_026.jpg	99
1682.409	0.725	724.8	incongruent	Block2	incongruent/STIM_026.jpg	100
1685.733	0.986	986.3	incongruent	Block2	incongruent/STIM_026.jpg	100
1689.722	1.028	1027.5	incongruent	Block2	incongruent/STIM_027.jpg	100
1694.763	1.05	1049.8	incongruent	Block2	incongruent/STIM_027.jpg	100
1698.594	0.899	898.8	incongruent	Block2	incongruent/STIM_027.jpg	100
1702.193	0.682	682.0	incongruent	Block2	incongruent/STIM_027.jpg	99
1705.16	0.924	924.1	incongruent	Block2	incongruent/STIM_027.jpg	99
1708.311	0.935	934.9	incongruent	Block2	incongruent/STIM_028.jpg	99
1711.509	0.49	490.5	incongruent	Block2	incongruent/STIM_028.jpg	100
1715.937	0.71	710.4	incongruent	Block2	incongruent/STIM_028.jpg	99
1719.932	0.605	604.7	incongruent	Block2	incongruent/STIM_028.jpg	100
1724.327	0.636	635.7	incongruent	Block2	incongruent/STIM_028.jpg	99
1728.746	0.868	867.7	incongruent	Block2	incongruent/STIM_029.jpg	99
1731.767	0.925	924.9	incongruent	Block2	incongruent/STIM_029.jpg	99
1735.235	0.791	791.0	incongruent	Block2	incongruent/STIM_029.jpg	100
1738.557	1.023	1023.4	incongruent	Block2	incongruent/STIM_029.jpg	99
1741.847	0.416	416.1	incongruent	Block2	incongruent/STIM_029.jpg	99
1744.387	0.477	477.1	congruent	Block2	congruent/STIM_000.jpg	100
1748.838	0.729	728.7	congruent	Block2	congruent/STIM_000.jpg	100
1753.087	0.788	787.6	congruent	Block2	congruent/STIM_000.jpg	100
1756.32	0.763	762.8	congruent	Block2	congruent/STIM_000.jpg	100
1760.193	0.742	742.3	congruent	Block2	congruent/STIM_000.jpg	100
1763.565	0.731	731.2	congruent	Block2	congruent/STIM_001.jpg	100
1766.64	0.75	749.5	congruent	Block2	congruent/STIM_001.jpg	99
1770.11	0.554	554.4	congruent	Block2	congruent/STIM_001.jpg	99
1773.846	0.529	529.2	congruent	Block2	congruent/STIM_001.jpg	100
1778.141	0.665	665.1	congruent	Block2	congruent/STIM_001.jpg	100
1781.758	0.625	625.2	congruent	Block2	congruent/STIM_002.jpg	100
1786.175	0.903	902.6	congruent	Block2	congruent/STIM_002.jpg	99
1789.226	0.525	524.6	congruent	Block2	congruent/STIM_002.jpg	99
1792.536	0.656	656.2	congruent	Block2	congruent/STIM_002.jpg	99
1796.513	0.795	795.2	congruent	Block2	congruent/STIM_002.jpg	100
1800.145	0.536	535.5	congruent	Block2	congruent/STIM_003.jpg	100
1804.473	0.471	471.0	congruent	Block2	congruent/STIM_003.jpg	100
1807.757	0.859	858.9	congruent	Block2	congruent/STIM_003.jpg	99
1812.423	0.617	617.2	congruent	Block2	congruent/STIM_003.jpg	100
1815.753	0.35	349.8	congruent	Block2	congruent/STIM_003.jpg	100
1818.673	0.812	811.9	congruent	Block2	congruent/STIM_004.jpg	99
1823.143	0.558	557.9	congruent	Block2	congruent/STIM_004.jpg	100
1827.102	0.701	700.8	congruent	Block2	congruent/STIM_004.jpg	100
1831.715	0.46	460.5	congruent	Block2	congruent/STIM_004.jpg	100
1834.776	0.693	692.6	congruent	Block2	congruent/STIM_004.jpg	99
1839.238	0.786	785.6	congruent	Block2	congruent/STIM_005.jpg	99
1843.782	0.463	463.0	congruent	Block2	congruent/STIM_005.jpg	100
1848.064	0.745	745.0	congruent	Block2	congruent/STIM_005.jpg	99
1852.06	0.776	775.9	congruent	Block2	congruent/STIM_005.jpg	99
1855.091	0.544	544.3	congruent	Block2	congruent/STIM_005.jpg	100
1858.459	0.607	606.8	congruent	Block2	congruent/STIM_006.jpg	100
1861.228	0.563	563.0	congruent	Block2	congruent/STIM_006.jpg	100
1864.837	0.87	870.0	congruent	Block2	congruent/STIM_006.jpg	99
1869.427	0.796	795.9	congruent	Block2	congruent/STIM_006.jpg	99
1873.344	0.695	695.3	congruent	Block2	congruent/STIM_006.jpg	99
1877.005	0.434	434.1	congruent	Block2	congruent/STIM_007.jpg	100
1879.88	0.6	600.3	congruent	Block2	congruent/STIM_007.jpg	100
1883.284	0.875	874.8	congruent	Block2	congruent/STIM_007.jpg	99
1887.242	0.642	642.5	congruent	Block2	congruent/STIM_007.jpg	99
1890.53	0.564	563.8	congruent	Block2	congruent/STIM_007.jpg	99
1893.333	0.722	721.8	congruent	Block2	congruent/STIM_008.jpg	100
1896.581	0.7	699.6	congruent	Block2	congruent/STIM_008.jpg	100
1900.621	0.692	692.2	congruent	Block2	congruent/STIM_008.jpg	100
1904.083	0.639	639.1	congruent	Block2	congruent/STIM_008.jpg	100
1907.482	0.754	753.5	congruent	Block2	congruent/STIM_008.jpg	99
1910.805	0.777	777.4	congruent	Block2	congruent/STIM_009.jpg	99
1913.953	0.818	818.2	congruent	Block2	congruent/STIM_009.jpg	99
1918.59	0.747	747.3	congruent	Block2	congruent/STIM_009.jpg	99
1922.075	0.575	575.2	congruent	Block2	congruent/STIM_009.jpg	99
1926.037	0.518	517.9	congruent	Block2	congruent/STIM_009.jpg	99
1930.066	0.605	605.3	congruent	Block2	congruent/STIM_010.jpg	99
1934.326	0.719	718.9	congruent	Block2	congruent/STIM_010.jpg	100
1938.32	0.779	778.9	congruent	Block2	congruent/STIM_010.jpg	100
1942.492	0.588	587.9	congruent	Block2	congruent/STIM_010.jpg	99
1946.687	0.758	758.2	congruent	Block2	congruent/STIM_010.jpg	100
1951.183	0.744	743.7	congruent	Block2	congruent/STIM_011.jpg	100
1955.02	0.482	481.8	congruent	Block2	congruent/STIM_011.jpg	99
1958.071	0.566	565.8	congruent	Block2	congruent/STIM_011.jpg	100
1961.935	0.609	608.9	congruent	Block2	congruent/STIM_011.jpg	100
1965.319	0.599	598.6	congruent	Block2	congruent/STIM_011.jpg	99
1968.322	0.704	704.3	congruent	Block2	congruent/STIM_012.jpg	99
1972.142	0.661	661.2	congruent	Block2	congruent/STIM_012.jpg	100
1976.281	0.771	771.2	congruent	Block2	congruent/STIM_012.jpg	99
1980.135	0.607	607.3	congruent	Block2	congruent/STIM_012.jpg	100
1984.665	0.614	614.5	congruent	Block2	congruent/STIM_012.jpg	100
1988.598	0.724	724.0	congruent	Block2	congruent/STIM_013.jpg	99
1992.646	0.594	594.2	congruent	Block2	congruent/STIM_013.jpg	100
1996.158	0.724	723.5	congruent	Block2	congruent/STIM_013.jpg	100
2000.441	0.809	808.8	congruent	Block2	congruent/STIM_013.jpg	99
2003.543	0.815	815.2	congruent	Block2	congruent/STIM_013.jpg	99
2006.569	0.588	588.0	congruent	Block2	congruent/STIM_014.jpg	99
2010.097	0.75	749.7	congruent	Block2	congruent/STIM_014.jpg	99
2014.275	0.756	755.8	congruent	Block2	congruent/STIM_014.jpg	100
2017.208	0.634	633.9	congruent	Block2	congruent/STIM_014.jpg	99
2020.562	0.695	695.4	congruent	Block2	congruent/STIM_014.jpg	100
2023.517	0.495	495.0	congruent	Block2	congruent/STIM_015.jpg	99
2027.489	0.754	754.0	congruent	Block2	congruent/STIM_015.jpg	99
2031.794	0.76	760.4	congruent	Block2	congruent/STIM_015.jpg	100
2035.735	0.449	448.7	congruent	Block2	congruent/STIM_015.jpg	99
2040.092	0.701	701.0	congruent	Block2	congruent/STIM_015.jpg	100
2043.364	0.627	626.6	congruent	Block2	congruent/STIM_016.jpg	99
2047.157	0.576	576.4	congruent	Block2	congruent/STIM_016.jpg	99
2050.813	0.623	622.7	congruent	Block2	congruent/STIM_016.jpg	99
2054.21	0.578	578.5	congruent	Block2	congruent/STIM_016.jpg	100
2057.653	0.7	699.5	congruent	Block2	congruent/STIM_016.jpg	100
2061.24	0.471	471.3	congruent	Block2	congruent/STIM_017.jpg	99
2064.71	0.747	747.0	congruent	Block2	congruent/STIM_017.jpg	99
2068.224	0.815	814.8	congruent	Block2	congruent/STIM_017.jpg	99
2072.773	0.76	760.2	congruent	Block2	congruent/STIM_017.jpg	100
2075.861	0.449	449.0	congruent	Block2	congruent/STIM_017.jpg	99
2079.712	0.737	737.0	congruent	Block2	congruent/STIM_018.jpg	100
2083.629	0.425	424.6	congruent	Block2	congruent/STIM_018.jpg	100
2087.72	0.619	618.6	congruent	Block2	congruent/STIM_018.jpg	100
2092.115	0.51	509.6	congruent	Block2	congruent/STIM_018.jpg	100
2095.431	0.494	493.9	congruent	Block2	congruent/STIM_018.jpg	99
2099.531	0.492	491.8	congruent	Block2	congruent/STIM_019.jpg	99
2103.952	0.65	649.5	congruent	Block2	congruent/STIM_019.jpg	100
2107.983	0.625	624.8	congruent	Block2	congruent/STIM_019.jpg	100
2112.368	0.591	590.7	congruent	Block2	congruent/STIM_019.jpg	100
2116.737	0.804	804.2	congruent	Block2	congruent/STIM_019.jpg	99
2120.988	0.521	520.6	congruent	Block2	congruent/STIM_020.jpg	99
2124.146	0.856	855.5	congruent	Block2	congruent/STIM_020.jpg	99
2128.626	0.714	713.8	congruent	Block2	congruent/STIM_020.jpg	99
2132.042	0.491	491.0	congruent	Block2	congruent/STIM_020.jpg	100
2135.705	0.544	543.8	congruent	Block2	congruent/STIM_020.jpg	99
2139.102	0.853	852.6	congruent	Block2	congruent/STIM_021.jpg	100
2142.271	0.467	467.1	congruent	Block2	congruent/STIM_021.jpg	99
2145.602	0.704	703.7	congruent	Block2	congruent/STIM_021.jpg	100
2149.718	0.422	421.8	congruent	Block2	congruent/STIM_021.jpg	100
2153.287	0.709	708.7	congruent	Block2	congruent/STIM_021.jpg	100
2157.648	0.576	575.6	congruent	Block2	congruent/STIM_022.jpg	99
2161.268	0.538	537.6	congruent	Block2	congruent/STIM_022.jpg	99
2164.823	0.626	626.5	congruent	Block2	congruent/STIM_022.jpg	99
2168.213	0.473	473.3	congruent	Block2	congruent/STIM_022.jpg	99
2171.49	0.613	613.1	congruent	Block2	congruent/STIM_022.jpg	100
2174.437	0.742	742.3	congruent	Block2	congruent/STIM_023.jpg	100
2178.357	0.833	832.7	congruent	Block2	congruent/STIM_023.jpg	99
2182.491	0.492	492.2	congruent	Block2	congruent/STIM_023.jpg	100
2186.127	0.679	678.6	congruent	Block2	congruent/STIM_023.jpg	100
2189.026	0.765	764.9	congruent	Block2	congruent/STIM_023.jpg	99
2192.544	0.567	567.2	congruent	Block2	congruent/STIM_024.jpg	99
2195.203	0.706	705.5	congruent	Block2	congruent/STIM_024.jpg	100
2198.301	0.407	406.9	congruent	Block2	congruent/STIM_024.jpg	100
2202.214	0.715	715.4	congruent	Block2	congruent/STIM_024.jpg	100
2206.197	0.567	567.1	congruent	Block2	congruent/STIM_024.jpg	99
2210.553	0.8	799.9	congruent	Block2	congruent/STIM_025.jpg	99
2213.411	0.772	772.5	congruent	Block2	congruent/STIM_025.jpg	100
2217.022	0.684	684.5	congruent	Block2	congruent/STIM_025.jpg	100
2220.273	0.788	788.1	congruent	Block2	congruent/STIM_025.jpg	99
2223.97	0.582	582.4	congruent	Block2	congruent/STIM_025.jpg	100
2227.958	0.812	812.2	congruent	Block2	congruent/STIM_026.jpg	100
2232.583	0.808	807.8	congruent	Block2	congruent/STIM_026.jpg	100
2237.102	0.617	617.1	congruent	Block2	congruent/STIM_026.jpg	100
2240.33	0.792	792.2	congruent	Block2	congruent/STIM_026.jpg	99
2243.561	0.728	728.4	congruent	Block2	congruent/STIM_026.jpg	99
2247.4	0.584	584.3	congruent	Block2	congruent/STIM_027.jpg	99
2250.651	0.765	764.9	congruent	Block2	congruent/STIM_027.jpg	100
2253.808	0.663	663.3	congruent	Block2	congruent/STIM_027.jpg	100
2257.604	0.642	642.1	congruent	Block2	congruent/STIM_027.jpg	100
2261.934	0.794	793.7	congruent	Block2	congruent/STIM_027.jpg	100
2266.591	0.667	666.8	congruent	Block2	congruent/STIM_028.jpg	100
2270.089	0.528	527.7	congruent	Block2	congruent/STIM_028.jpg	100
2274.114	0.819	819.3	congruent	Block2	congruent/STIM_028.jpg	100
2278.685	0.86	860.4	congruent	Block2	congruent/STIM_028.jpg	99
2282.192	0.554	553.7	congruent	Block2	congruent/STIM_028.jpg	99
2285.436	0.63	630.2	congruent	Block2	congruent/STIM_029.jpg	100
2290.092	0.685	685.1	congruent	Block2	congruent/STIM_029.jpg	100
2294.029	0.722	721.5	congruent	Block2	congruent/STIM_029.jpg	99
2297.336	0.576	576.3	congruent	Block2	congruent/STIM_029.jpg	99
2300.784	0.73	729.8	congruent	Block2	congruent/STIM_029.jpg	99
2304.917	0.97	969.8	incongruent	Block3	incongruent/STIM_000.jpg	99
2308.888	0.658	658.0	incongruent	Block3	incongruent/STIM_000.jpg	100
2312.552	0.527	527.4	incongruent	Block3	incongruent/STIM_000.jpg	100
2315.395	0.886	886.1	incongruent	Block3	incongruent/STIM_000.jpg	99
2318.98	0.524	523.5	incongruent	Block3	incongruent/STIM_000.jpg	99
2322.689	0.968	967.8	incongruent	Block3	incongruent/STIM_001.jpg	100
2326.759	0.779	778.7	incongruent	Block3	incongruent/STIM_001.jpg	100
2331.144	0.537	536.6	incongruent	Block3	incongruent/STIM_001.jpg	99
2334.985	0.696	695.6	incongruent	Block3	incongruent/STIM_001.jpg	100
2338.044	0.596	595.9	incongruent	Block3	incongruent/STIM_001.jpg	100
2341.15	0.594	593.6	incongruent	Block3	incongruent/STIM_002.jpg	99
2344.111	0.464	464.5	incongruent	Block3	incongruent/STIM_002.jpg	100
2347.876	0.965	965.3	incongruent	Block3	incongruent/STIM_002.jpg	99
2351.309	0.652	651.7	incongruent	Block3	incongruent/STIM_002.jpg	99
2354.307	0.7	700.3	incongruent	Block3	incongruent/STIM_002.jpg	100
2358.016	0.855	855.3	incongruent	Block3	incongruent/STIM_003.jpg	99
2362.059	0.81	810.3	incongruent	Block3	incongruent/STIM_003.jpg	100
2366.137	0.46	459.9	incongruent	Block3	incongruent/STIM_003.jpg	100
2369.289	0.619	619.1	incongruent	Block3	incongruent/STIM_003.jpg	100
2372.867	0.57	569.9	incongruent	Block3	incongruent/STIM_003.jpg	99
2375.999	0.682	682.2	incongruent	Block3	incongruent/STIM_004.jpg	100
2379.343	0.55	549.7	incongruent	Block3	incongruent/STIM_004.jpg	100
2382.38	0.701	700.8	incongruent	Block3	incongruent/STIM_004.jpg	99
2385.85	0.522	522.1	incongruent	Block3	incongruent/STIM_004.jpg	99
2388.918	0.557	557.3	incongruent	Block3	incongruent/STIM_004.jpg	100
2391.753	0.782	781.9	incongruent	Block3	incongruent/STIM_005.jpg	100
2396.119	0.836	836.5	incongruent	Block3	incongruent/STIM_005.jpg	100
2400.593	0.899	899.1	incongruent	Block3	incongruent/STIM_005.jpg	100
2404.91	0.536	536.0	incongruent	Block3	incongruent/STIM_005.jpg	99
2408.339	0.687	687.4	incongruent	Block3	incongruent/STIM_005.jpg	99
2411.338	0.422	421.7	incongruent	Block3	incongruent/STIM_006.jpg	99
2415.843	0.935	934.6	incongruent	Block3	incongruent/STIM_006.jpg	99
2419.811	0.738	737.8	incongruent	Block3	incongruent/STIM_006.jpg	100
2422.99	0.614	613.7	incongruent	Block3	incongruent/STIM_006.jpg	99
2427.048	0.736	736.5	incongruent	Block3	incongruent/STIM_006.jpg	99
2430.586	0.49	489.7	incongruent	Block3	incongruent/STIM_007.jpg	99
2433.867	1.034	1033.8	incongruent	Block3	incongruent/STIM_007.jpg	100
2437.81	0.586	585.9	incongruent	Block3	incongruent/STIM_007.jpg	99
2440.717	0.695	695.1	incongruent	Block3	incongruent/STIM_007.jpg	99
2445.248	0.514	513.8	incongruent	Block3	incongruent/STIM_007.jpg	99
2449.008	0.731	731.3	incongruent	Block3	incongruent/STIM_008.jpg	99
2452.423	0.606	606.5	incongruent	Block3	incongruent/STIM_008.jpg	99
2455.285	0.552	551.9	incongruent	Block3	incongruent/STIM_008.jpg	100
2458.528	0.766	765.6	incongruent	Block3	incongruent/STIM_008.jpg	99
2462.98	0.515	514.6	incongruent	Block3	incongruent/STIM_008.jpg	99
2467.197	0.682	682.0	incongruent	Block3	incongruent/STIM_009.jpg	100
2470.743	0.512	512.1	incongruent	Block3	incongruent/STIM_009.jpg	99
2473.846	0.643	643.4	incongruent	Block3	incongruent/STIM_009.jpg	99
2477.305	0.537	537.4	incongruent	Block3	incongruent/STIM_009.jpg	100
2481.052	1.064	1063.5	incongruent	Block3	incongruent/STIM_009.jpg	100
2486.05	0.528	527.7	incongruent	Block3	incongruent/STIM_010.jpg	100
2490.242	0.897	897.1	incongruent	Block3	incongruent/STIM_010.jpg	100
2493.253	0.535	535.2	incongruent	Block3	incongruent/STIM_010.jpg	100
2496.097	0.546	545.7	incongruent	Block3	incongruent/STIM_010.jpg	99
2499.876	0.58	580.4	incongruent	Block3	incongruent/STIM_010.jpg	99
2502.932	0.654	653.9	incongruent	Block3	incongruent/STIM_011.jpg	100
2507.526	0.764	763.5	incongruent	Block3	incongruent/STIM_011.jpg	100
2512.024	0.509	508.7	incongruent	Block3	incongruent/STIM_011.jpg	100
2515.743	0.801	801.4	incongruent	Block3	incongruent/STIM_011.jpg	99
2519.968	0.816	815.6	incongruent	Block3	incongruent/STIM_011.jpg	100
2522.894	0.86	860.3	incongruent	Block3	incongruent/STIM_012.jpg	99
2527.226	0.729	729.3	incongruent	Block3	incongruent/STIM_012.jpg	100
2531.1	0.797	796.6	incongruent	Block3	incongruent/STIM_012.jpg	99
2535.315	0.935	934.6	incongruent	Block3	incongruent/STIM_012.jpg	99
2539.472	0.596	595.8	incongruent	Block3	incongruent/STIM_012.jpg	99
2542.628	0.58	580.1	incongruent	Block3	incongruent/STIM_013.jpg	99
2546.816	0.886	886.0	incongruent	Block3	incongruent/STIM_013.jpg	99
2549.958	0.546	546.3	incongruent	Block3	incongruent/STIM_013.jpg	100
2552.696	0.804	803.6	incongruent	Block3	incongruent/STIM_013.jpg	100
2556.944	0.612	611.7	incongruent	Block3	incongruent/STIM_013.jpg	100
2560.531	0.823	823.0	incongruent	Block3	incongruent/STIM_014.jpg	100
2563.651	0.875	874.8	incongruent	Block3	incongruent/STIM_014.jpg	100
2568.249	0.538	538.3	incongruent	Block3	incongruent/STIM_014.jpg	100
2572.742	0.763	763.1	incongruent	Block3	incongruent/STIM_014.jpg	100
2577.002	0.673	673.2	incongruent	Block3	incongruent/STIM_014.jpg	100
2580.774	0.546	546.1	incongruent	Block3	incongruent/STIM_015.jpg	99
2583.568	1.013	1012.6	incongruent	Block3	incongruent/STIM_015.jpg	100
2588.026	0.618	617.7	incongruent	Block3	incongruent/STIM_015.jpg	99
2592.32	0.865	865.3	incongruent	Block3	incongruent/STIM_015.jpg	100
2595.947	0.477	477.4	incongruent	Block3	incongruent/STIM_015.jpg	100
2599.603	0.943	942.6	incongruent	Block3	incongruent/STIM_016.jpg	99
2602.687	0.55	550.5	incongruent	Block3	incongruent/STIM_016.jpg	100
2606.229	0.778	777.5	incongruent	Block3	incongruent/STIM_016.jpg	99
2610.537	0.621	620.6	incongruent	Block3	incongruent/STIM_016.jpg	100
2613.846	0.563	563.0	incongruent	Block3	incongruent/STIM_016.jpg	99
2618.319	0.774	773.9	incongruent	Block3	incongruent/STIM_017.jpg	99
2622.084	0.725	724.6	incongruent	Block3	incongruent/STIM_017.jpg	100
2626.74	0.786	785.6	incongruent	Block3	incongruent/STIM_017.jpg	100
2630.83	0.858	857.7	incongruent	Block3	incongruent/STIM_017.jpg	99
2633.95	0.75	749.7	incongruent	Block3	incongruent/STIM_017.jpg	100
2638.673	0.596	596.3	incongruent	Block3	incongruent/STIM_018.jpg	100
2641.496	0.943	942.7	incongruent	Block3	incongruent/STIM_018.jpg	99
2646.08	0.624	624.4	incongruent	Block3	incongruent/STIM_018.jpg	100
2648.748	0.818	818.5	incongruent	Block3	incongruent/STIM_018.jpg	99
2651.992	0.929	929.2	incongruent	Block3	incongruent/STIM_018.jpg	100
2656.762	0.921	921.2	incongruent	Block3	incongruent/STIM_019.jpg	100
2659.961	0.724	724.2	incongruent	Block3	incongruent/STIM_019.jpg	100
2664.155	0.945	945.3	incongruent	Block3	incongruent/STIM_019.jpg	99
2667.974	0.96	960.1	incongruent	Block3	incongruent/STIM_019.jpg	100
2671.607	0.942	942.2	incongruent	Block3	incongruent/STIM_019.jpg	100
2675.424	0.673	673.0	incongruent	Block3	incongruent/STIM_020.jpg	100
2678.135	0.461	460.6	incongruent	Block3	incongruent/STIM_020.jpg	100
2681.954	0.608	607.7	incongruent	Block3	incongruent/STIM_020.jpg	99
2685.818	0.769	769.3	incongruent	Block3	incongruent/STIM_020.jpg	100
2689.183	0.792	791.9	incongruent	Block3	incongruent/STIM_020.jpg	99
2692.162	0.963	963.0	incongruent	Block3	incongruent/STIM_021.jpg	99
2696.434	0.432	432.1	incongruent	Block3	incongruent/STIM_021.jpg	99
2699.665	0.51	509.9	incongruent	Block3	incongruent/STIM_021.jpg	99
2702.482	0.752	752.1	incongruent	Block3	incongruent/STIM_021.jpg	99
2706.875	0.709	709.1	incongruent	Block3	incongruent/STIM_021.jpg	99
2711.133	0.765	764.8	incongruent	Block3	incongruent/STIM_022.jpg	99
2714.677	0.491	490.7	incongruent	Block3	incongruent/STIM_022.jpg	100
2717.946	0.849	848.8	incongruent	Block3	incongruent/STIM_022.jpg	99
2721.488	0.856	855.6	incongruent	Block3	incongruent/STIM_022.jpg	99
2724.429	0.804	804.3	incongruent	Block3	incongruent/STIM_022.jpg	100
2729.163	0.666	665.6	incongruent	Block3	incongruent/STIM_023.jpg	100
2733.428	0.667	666.8	incongruent	Block3	incongruent/STIM_023.jpg	99
2736.928	0.918	917.5	incongruent	Block3	incongruent/STIM_023.jpg	100
2741.547	0.935	934.9	incongruent	Block3	incongruent/STIM_023.jpg	100
2745.14	0.838	837.7	incongruent	Block3	incongruent/STIM_023.jpg	99
2749.782	0.754	753.9	incongruent	Block3	incongruent/STIM_024.jpg	100
2753.038	0.954	954.2	incongruent	Block3	incongruent/STIM_024.jpg	100
2757.522	0.795	795.2	incongruent	Block3	incongruent/STIM_024.jpg	100
2761.936	0.93	930.4	incongruent	Block3	incongruent/STIM_024.jpg	100
2766.681	0.932	931.6	incongruent	Block3	incongruent/STIM_024.jpg	99
2771.614	0.386	385.6	incongruent	Block3	incongruent/STIM_025.jpg	99
2774.303	0.68	680.3	incongruent	Block3	incongruent/STIM_025.jpg	100
2778.584	0.589	589.1	incongruent	Block3	incongruent/STIM_025.jpg	99
2782.797	0.723	722.6	incongruent	Block3	incongruent/STIM_025.jpg	99
2787.485	0.614	613.6	incongruent	Block3	incongruent/STIM_025.jpg	99
2791.244	0.445	444.7	incongruent	Block3	incongruent/STIM_026.jpg	99
2795.046	0.44	439.7	incongruent	Block3	incongruent/STIM_026.jpg	100
2799.213	0.54	539.9	incongruent	Block3	incongruent/STIM_026.jpg	99
2802.229	0.634	633.9	incongruent	Block3	incongruent/STIM_026.jpg	99
2806.171	0.541	541.2	incongruent	Block3	incongruent/STIM_026.jpg	99
2810.451	0.463	462.9	incongruent	Block3	incongruent/STIM_027.jpg	100
2813.113	0.767	767.2	incongruent	Block3	incongruent/STIM_027.jpg	99
2817.385	0.898	897.5	incongruent	Block3	incongruent/STIM_027.jpg	99
2822.042	0.942	941.8	incongruent	Block3	incongruent/STIM_027.jpg	99
2825.949	0.976	975.7	incongruent	Block3	incongruent/STIM_027.jpg	100
2829.885	0.606	606.5	incongruent	Block3	incongruent/STIM_028.jpg	100
2834.063	0.807	807.4	incongruent	Block3	incongruent/STIM_028.jpg	100
2838.391	0.825	825.0	incongruent	Block3	incongruent/STIM_028.jpg	100
2841.539	0.579	579.4	incongruent	Block3	incongruent/STIM_028.jpg	99
2845.493	0.895	894.9	incongruent	Block3	incongruent/STIM_028.jpg	100
2850.197	0.489	489.2	incongruent	Block3	incongruent/STIM_029.jpg	99
2854.24	0.863	863.2	incongruent	Block3	incongruent/STIM_029.jpg	100
2858.951	0.69	689.9	incongruent	Block3	incongruent/STIM_029.jpg	100
2863.527	0.592	592.5	incongruent	Block3	incongruent/STIM_029.jpg	99
2868.023	0.756	756.0	incongruent	Block3	incongruent/STIM_029.jpg	100
2870.96	0.567	567.1	congruent	Block3	congruent/STIM_000.jpg	100
2873.989	0.635	635.4	congruent	Block3	congruent/STIM_000.jpg	100
2877.78	0.6	599.8	congruent	Block3	congruent/STIM_000.jpg	100
2880.991	0.72	719.8	congruent	Block3	congruent/STIM_000.jpg	99
2885.346	0.706	705.5	congruent	Block3	congruent/STIM_000.jpg	99
2889.175	0.53	530.3	congruent	Block3	congruent/STIM_001.jpg	99
2893.683	0.803	803.0	congruent	Block3	congruent/STIM_001.jpg	99
2898.039	0.455	455.2	congruent	Block3	congruent/STIM_001.jpg	99
2902.0	0.67	670.2	congruent	Block3	congruent/STIM_001.jpg	100
2906.272	0.497	497.0	congruent	Block3	congruent/STIM_001.jpg	100
2909.493	0.637	637.3	congruent	Block3	congruent/STIM_002.jpg	100
2913.695	0.826	825.5	congruent	Block3	congruent/STIM_002.jpg	99
2918.195	0.742	741.7	congruent	Block3	congruent/STIM_002.jpg	100
2921.313	0.76	760.0	congruent	Block3	congruent/STIM_002.jpg	99
2925.177	0.816	816.4	congruent	Block3	congruent/STIM_002.jpg	99
2928.108	0.775	775.2	congruent	Block3	congruent/STIM_003.jpg	99
2930.944	0.435	434.9	congruent	Block3	congruent/STIM_003.jpg	100
2934.339	0.921	920.6	congruent	Block3	congruent/STIM_003.jpg	100
2939.081	0.613	613.2	congruent	Block3	congruent/STIM_003.jpg	99
2943.213	0.74	739.7	congruent	Block3	congruent/STIM_003.jpg	99
2946.325	0.634	634.2	congruent	Block3	congruent/STIM_004.jpg	100
2949.202	0.456	455.9	congruent	Block3	congruent/STIM_004.jpg	100
2953.339	0.586	586.2	congruent	Block3	congruent/STIM_004.jpg	99
2956.657	0.758	758.4	congruent	Block3	congruent/STIM_004.jpg	99
2959.525	0.542	542.3	congruent	Block3	congruent/STIM_004.jpg	99
2963.181	0.795	795.0	congruent	Block3	congruent/STIM_005.jpg	99
2967.085	0.825	824.7	congruent	Block3	congruent/STIM_005.jpg	100
2970.609	0.494	493.9	congruent	Block3	congruent/STIM_005.jpg	99
2973.782	0.677	677.4	congruent	Block3	congruent/STIM_005.jpg	99
2977.549	0.497	497.3	congruent	Block3	congruent/STIM_005.jpg	99
2980.681	0.625	625.1	congruent	Block3	congruent/STIM_006.jpg	99
2983.359	0.799	798.8	congruent	Block3	congruent/STIM_006.jpg	100
2988.126	0.509	509.2	congruent	Block3	congruent/STIM_006.jpg	99
2991.772	0.671	671.4	congruent	Block3	congruent/STIM_006.jpg	99
2994.687	0.573	573.2	congruent	Block3	congruent/STIM_006.jpg	100
2998.902	0.707	706.8	congruent	Block3	congruent/STIM_007.jpg	100
3001.78	0.774	774.4	congruent	Block3	congruent/STIM_007.jpg	100
3005.627	0.816	815.8	congruent	Block3	congruent/STIM_007.jpg	99
3009.917	0.477	476.7	congruent	Block3	congruent/STIM_007.jpg	100
3013.299	0.679	679.3	congruent	Block3	congruent/STIM_007.jpg	99
3016.659	0.729	729.0	congruent	Block3	congruent/STIM_008.jpg	99
3019.916	0.846	845.8	congruent	Block3	congruent/STIM_008.jpg	99
3024.432	0.607	607.4	congruent	Block3	congruent/STIM_008.jpg	99
3028.376	0.768	768.4	congruent	Block3	congruent/STIM_008.jpg	99
3031.284	0.526	526.1	congruent	Block3	congruent/STIM_008.jpg	100
3034.289	0.487	486.6	congruent	Block3	congruent/STIM_009.jpg	99
3038.728	0.52	520.5	congruent	Block3	congruent/STIM_009.jpg	100
3042.069	0.576	575.9	congruent	Block3	congruent/STIM_009.jpg	99
3045.627	0.878	878.2	congruent	Block3	congruent/STIM_009.jpg	100
3049.009	0.575	575.3	congruent	Block3	congruent/STIM_009.jpg	99
3053.232	0.765	765.3	congruent	Block3	congruent/STIM_010.jpg	100
3056.717	0.522	521.7	congruent	Block3	congruent/STIM_010.jpg	100
3059.307	0.787	787.0	congruent	Block3	congruent/STIM_010.jpg	100
3062.435	0.73	730.5	congruent	Block3	congruent/STIM_010.jpg	100
3065.419	0.521	520.8	congruent	Block3	congruent/STIM_010.jpg	99
3068.41	0.708	708.0	congruent	Block3	congruent/STIM_011.jpg	100
3072.382	0.506	506.3	congruent	Block3	congruent/STIM_011.jpg	99
3076.999	0.487	486.9	congruent	Block3	congruent/STIM_011.jpg	100
3079.769	0.758	757.7	congruent	Block3	congruent/STIM_011.jpg	99
3083.586	0.72	719.5	congruent	Block3	congruent/STIM_011.jpg	100
3086.826	0.544	544.4	congruent	Block3	congruent/STIM_012.jpg	99
3091.446	0.808	807.8	congruent	Block3	congruent/STIM_012.jpg	99
3095.282	0.69	690.5	congruent	Block3	congruent/STIM_012.jpg	100
3098.082	0.513	512.6	congruent	Block3	congruent/STIM_012.jpg	99
3101.29	0.481	481.2	congruent	Block3	congruent/STIM_012.jpg	100
3104.766	0.76	760.0	congruent	Block3	congruent/STIM_013.jpg	99
3107.82	0.7	699.5	congruent	Block3	congruent/STIM_013.jpg	99
3111.563	0.665	664.7	congruent	Block3	congruent/STIM_013.jpg	99
3115.038	0.512	511.8	congruent	Block3	congruent/STIM_013.jpg	100
3119.594	0.481	481.2	congruent	Block3	congruent/STIM_013.jpg	100
3123.368	0.747	746.9	congruent	Block3	congruent/STIM_014.jpg	99
3126.764	0.649	649.2	congruent	Block3	congruent/STIM_014.jpg	99
3130.493	0.827	827.1	congruent	Block3	congruent/STIM_014.jpg	100
3134.306	0.735	734.9	congruent	Block3	congruent/STIM_014.jpg	99
3137.299	0.753	753.0	congruent	Block3	congruent/STIM_014.jpg	100
3141.978	0.643	643.4	congruent	Block3	congruent/STIM_015.jpg	99
3145.067	0.543	542.9	congruent	Block3	congruent/STIM_015.jpg	100
3148.204	0.581	581.3	congruent	Block3	congruent/STIM_015.jpg	99
3152.213	0.66	659.8	congruent	Block3	congruent/STIM_015.jpg	100
3155.671	0.575	574.8	congruent	Block3	congruent/STIM_015.jpg	99
3159.528	0.412	412.5	congruent	Block3	congruent/STIM_016.jpg	99
3162.989	0.516	516.3	congruent	Block3	congruent/STIM_016.jpg	99
3166.646	0.752	752.4	congruent	Block3	congruent/STIM_016.jpg	100
3170.068	0.583	583.2	congruent	Block3	congruent/STIM_016.jpg	100
3174.012	0.757	756.7	congruent	Block3	congruent/STIM_016.jpg	100
3177.718	0.789	789.4	congruent	Block3	congruent/STIM_017.jpg	100
3181.701	0.704	704.4	congruent	Block3	congruent/STIM_017.jpg	100
3185.183	0.636	636.2	congruent	Block3	congruent/STIM_017.jpg	99
3188.426	0.463	462.9	congruent	Block3	congruent/STIM_017.jpg	100
3191.548	0.796	795.8	congruent	Block3	congruent/STIM_017.jpg	99
3194.703	0.741	741.4	congruent	Block3	congruent/STIM_018.jpg	99
3198.118	0.736	736.0	congruent	Block3	congruent/STIM_018.jpg	99
3202.373	0.632	631.9	congruent	Block3	congruent/STIM_018.jpg	100
3205.968	0.854	853.6	congruent	Block3	congruent/STIM_018.jpg	99
3209.868	0.582	582.3	congruent	Block3	congruent/STIM_018.jpg	99
3214.0	0.734	733.6	congruent	Block3	congruent/STIM_019.jpg	99
3217.373	0.564	563.6	congruent	Block3	congruent/STIM_019.jpg	100
3221.939	0.805	805.4	congruent	Block3	congruent/STIM_019.jpg	99
3225.293	0.807	807.1	congruent	Block3	congruent/STIM_019.jpg	99
3229.205	0.727	727.4	congruent	Block3	congruent/STIM_019.jpg	99
3232.293	0.513	512.6	congruent	Block3	congruent/STIM_020.jpg	99
3236.166	0.467	467.3	congruent	Block3	congruent/STIM_020.jpg	99
3239.794	0.631	630.8	congruent	Block3	congruent/STIM_020.jpg	99
3244.159	0.581	580.7	congruent	Block3	congruent/STIM_020.jpg	100
3248.268	0.479	479.4	congruent	Block3	congruent/STIM_020.jpg	99
3252.757	0.854	854.1	congruent	Block3	congruent/STIM_021.jpg	100
3255.891	0.483	483.1	congruent	Block3	congruent/STIM_021.jpg	99
3259.946	0.734	733.7	congruent	Block3	congruent/STIM_021.jpg	100
3262.822	0.468	468.3	congruent	Block3	congruent/STIM_021.jpg	99
3266.876	0.665	665.3	congruent	Block3	congruent/STIM_021.jpg	99
3271.498	0.615	615.1	congruent	Block3	congruent/STIM_022.jpg	99
3276.068	0.736	736.0	congruent	Block3	congruent/STIM_022.jpg	100
3279.254	0.754	754.2	congruent	Block3	congruent/STIM_022.jpg	99
3283.564	0.581	580.8	congruent	Block3	congruent/STIM_022.jpg	99
3287.212	0.599	598.7	congruent	Block3	congruent/STIM_022.jpg	99
3291.826	0.838	837.6	congruent	Block3	congruent/STIM_023.jpg	99
3295.481	0.585	584.8	congruent	Block3	congruent/STIM_023.jpg	99
3299.674	0.722	721.7	congruent	Block3	congruent/STIM_023.jpg	100
3304.471	0.421	420.6	congruent	Block3	congruent/STIM_023.jpg	100
3307.416	0.585	585.3	congruent	Block3	congruent/STIM_023.jpg	100
3310.084	0.768	768.3	congruent	Block3	congruent/STIM_024.jpg	100
3313.28	0.675	674.9	congruent	Block3	congruent/STIM_024.jpg	100
3317.501	0.635	635.3	congruent	Block3	congruent/STIM_024.jpg	100
3321.548	0.666	666.5	congruent	Block3	congruent/STIM_024.jpg	100
3324.233	0.578	578.0	congruent	Block3	congruent/STIM_024.jpg	99
3328.46	0.804	803.9	congruent	Block3	congruent/STIM_025.jpg	100
3331.66	0.478	478.0	congruent	Block3	congruent/STIM_025.jpg	99
3336.09	0.842	842.4	congruent	Block3	congruent/STIM_025.jpg	100
3340.237	0.565	564.7	congruent	Block3	congruent/STIM_025.jpg	100
3342.891	0.852	852.1	congruent	Block3	congruent/STIM_025.jpg	99
3345.998	0.664	663.5	congruent	Block3	congruent/STIM_026.jpg	100
3348.674	0.635	634.7	congruent	Block3	congruent/STIM_026.jpg	100
3353.17	0.886	886.0	congruent	Block3	congruent/STIM_026.jpg	99
3356.293	0.731	731.1	congruent	Block3	congruent/STIM_026.jpg	99
3360.92	0.398	397.5	congruent	Block3	congruent/STIM_026.jpg	99
3363.688	0.85	850.4	congruent	Block3	congruent/STIM_027.jpg	100
3367.203	0.534	533.6	congruent	Block3	congruent/STIM_027.jpg	99
3370.292	0.833	832.6	congruent	Block3	congruent/STIM_027.jpg	99
3373.495	0.68	679.5	congruent	Block3	congruent/STIM_027.jpg	100
3377.889	0.697	696.6	congruent	Block3	congruent/STIM_027.jpg	100
3381.886	0.638	637.7	congruent	Block3	congruent/STIM_028.jpg	100
3385.278	0.524	524.3	congruent	Block3	congruent/STIM_028.jpg	99
3388.04	0.9	900.5	congruent	Block3	congruent/STIM_028.jpg	99
3392.29	0.81	810.5	congruent	Block3	congruent/STIM_028.jpg	100
3396.952	0.595	595.0	congruent	Block3	congruent/STIM_028.jpg	100
3400.568	0.647	646.8	congruent	Block3	congruent/STIM_029.jpg	100
3404.857	0.717	716.6	congruent	Block3	congruent/STIM_029.jpg	99
3408.161	0.491	491.2	congruent	Block3	congruent/STIM_029.jpg	99
3411.775	0.435	435.2	congruent	Block3	congruent/STIM_029.jpg	100
3414.992	0.6	599.7	congruent	Block3	congruent/STIM_029.jpg	99
