onset	duration	response_time_ms	trial_type	learning_stage	stimulus	coherence	response_port
0.000	15.363	15363.0	learning	LS1	PICTURE_405.jpg	i	n/a
15.363	14.248	14248.0	learning	LS1	PICTURE_462.jpg	c	n/a
29.611	15.059	15059.0	learning	LS1	PICTURE_400.jpg	i	n/a
44.670	15.547	15547.0	learning	LS1	PICTURE_462.jpg	i	n/a
60.217	15.875	15875.0	learning	LS1	PICTURE_405.jpg	c	n/a
76.092	15.883	15883.0	learning	LS1	PICTURE_402.jpg	c	n/a
91.975	13.813	13813.0	learning	LS1	PICTURE_400.jpg	c	n/a
105.788	13.982	13982.0	learning	LS1	PICTURE_21.jpg	c	n/a
119.770	19.105	19105.0	learning	LS1	PICTURE_402.jpg	i	n/a
138.875	11.601	11601.0	learning	LS1	PICTURE_21.jpg	i	n/a
150.476	12.759	12759.0	learning	LS2	PICTURE_402.jpg	c	n/a
163.235	16.764	16764.0	learning	LS2	PICTURE_400.jpg	i	n/a
179.999	8.625	8625.0	learning	LS2	PICTURE_405.jpg	c	n/a
188.624	9.113	9113.0	learning	LS2	PICTURE_462.jpg	i	n/a
197.737	8.644	8644.0	learning	LS2	PICTURE_21.jpg	i	n/a
206.381	8.651	8651.0	learning	LS2	PICTURE_462.jpg	c	n/a
215.032	11.532	11532.0	learning	LS2	PICTURE_402.jpg	i	n/a
226.564	11.861	11861.0	learning	LS2	PICTURE_405.jpg	i	n/a
238.425	8.037	8037.0	learning	LS2	PICTURE_21.jpg	c	n/a
246.462	20.508	20508.0	learning	LS2	PICTURE_400.jpg	c	n/a
266.970	8.394	8394.0	learning	LS3	PICTURE_21.jpg	i	n/a
275.364	7.123	7123.0	learning	LS3	PICTURE_400.jpg	c	n/a
282.487	11.927	11927.0	learning	LS3	PICTURE_402.jpg	c	n/a
294.414	8.418	8418.0	learning	LS3	PICTURE_21.jpg	c	n/a
302.832	7.308	7308.0	learning	LS3	PICTURE_462.jpg	c	n/a
310.140	7.158	7158.0	learning	LS3	PICTURE_405.jpg	i	n/a
317.298	8.443	8443.0	learning	LS3	PICTURE_462.jpg	i	n/a
325.741	8.452	8452.0	learning	LS3	PICTURE_400.jpg	i	n/a
334.193	9.743	9743.0	learning	LS3	PICTURE_402.jpg	i	n/a
343.936	9.431	9431.0	learning	LS3	PICTURE_405.jpg	c	n/a
353.367	8.991	8991.0	learning	LS4	PICTURE_462.jpg	i	n/a
362.358	9.955	9955.0	learning	LS4	PICTURE_402.jpg	c	n/a
372.313	9.155	9155.0	learning	LS4	PICTURE_400.jpg	i	n/a
381.468	7.726	7726.0	learning	LS4	PICTURE_405.jpg	i	n/a
389.194	8.694	8694.0	learning	LS4	PICTURE_21.jpg	i	n/a
397.888	10.141	10141.0	learning	LS4	PICTURE_402.jpg	i	n/a
408.029	9.510	9510.0	learning	LS4	PICTURE_400.jpg	c	n/a
417.539	10.316	10316.0	learning	LS4	PICTURE_405.jpg	c	n/a
427.855	8.886	8886.0	learning	LS4	PICTURE_21.jpg	c	n/a
436.741	8.893	8893.0	learning	LS4	PICTURE_462.jpg	c	n/a
445.634	11.135	11135.0	learning	LS1	PICTURE_599.jpg	i	n/a
456.769	8.746	8746.0	learning	LS1	PICTURE_610.jpg	c	n/a
465.515	9.713	9713.0	learning	LS1	PICTURE_43.jpg	c	n/a
475.228	15.473	15473.0	learning	LS1	PICTURE_741.jpg	c	n/a
490.701	9.720	9720.0	learning	LS1	PICTURE_247.jpg	i	n/a
500.421	11.164	11164.0	learning	LS1	PICTURE_741.jpg	i	n/a
511.585	16.924	16924.0	learning	LS1	PICTURE_247.jpg	c	n/a
528.509	18.210	18210.0	learning	LS1	PICTURE_599.jpg	c	n/a
546.719	11.506	11506.0	learning	LS1	PICTURE_610.jpg	i	n/a
558.225	9.436	9436.0	learning	LS1	PICTURE_43.jpg	i	n/a
567.661	9.472	9472.0	learning	LS2	PICTURE_247.jpg	i	n/a
577.133	9.804	9804.0	learning	LS2	PICTURE_599.jpg	c	n/a
586.937	7.731	7731.0	learning	LS2	PICTURE_43.jpg	c	n/a
594.668	9.814	9814.0	learning	LS2	PICTURE_741.jpg	i	n/a
604.482	14.457	14457.0	learning	LS2	PICTURE_610.jpg	c	n/a
618.939	10.309	10309.0	learning	LS2	PICTURE_599.jpg	i	n/a
629.248	13.994	13994.0	learning	LS2	PICTURE_741.jpg	c	n/a
643.242	8.569	8569.0	learning	LS2	PICTURE_247.jpg	c	n/a
651.811	8.255	8255.0	learning	LS2	PICTURE_610.jpg	i	n/a
660.066	9.382	9382.0	learning	LS2	PICTURE_43.jpg	i	n/a
669.448	8.778	8778.0	learning	LS3	PICTURE_247.jpg	i	n/a
678.226	8.467	8467.0	learning	LS3	PICTURE_610.jpg	i	n/a
686.693	7.193	7193.0	learning	LS3	PICTURE_247.jpg	c	n/a
693.886	8.478	8478.0	learning	LS3	PICTURE_43.jpg	i	n/a
702.364	8.486	8486.0	learning	LS3	PICTURE_741.jpg	i	n/a
710.850	10.729	10729.0	learning	LS3	PICTURE_599.jpg	c	n/a
721.579	8.181	8181.0	learning	LS3	PICTURE_43.jpg	c	n/a
729.760	11.542	11542.0	learning	LS3	PICTURE_610.jpg	c	n/a
741.302	8.196	8196.0	learning	LS3	PICTURE_599.jpg	i	n/a
749.498	8.044	8044.0	learning	LS3	PICTURE_741.jpg	c	n/a
757.542	7.763	7763.0	learning	LS4	PICTURE_741.jpg	i	n/a
765.305	8.088	8088.0	learning	LS4	PICTURE_599.jpg	c	n/a
773.393	7.137	7137.0	learning	LS4	PICTURE_610.jpg	c	n/a
780.530	7.143	7143.0	learning	LS4	PICTURE_247.jpg	i	n/a
787.673	8.266	8266.0	learning	LS4	PICTURE_610.jpg	i	n/a
795.939	7.792	7792.0	learning	LS4	PICTURE_43.jpg	c	n/a
803.731	8.597	8597.0	learning	LS4	PICTURE_741.jpg	c	n/a
812.328	8.286	8286.0	learning	LS4	PICTURE_43.jpg	i	n/a
820.614	8.775	8775.0	learning	LS4	PICTURE_599.jpg	i	n/a
829.389	16.293	16293.0	learning	LS4	PICTURE_247.jpg	c	n/a
845.682	14.683	14683.0	control	LS1	PICTURE_718.jpg	i	n/a
860.365	8.294	8294.0	control	LS1	PICTURE_430.jpg	c	n/a
868.659	8.294	8294.0	control	LS1	PICTURE_292.jpg	c	n/a
876.953	9.093	9093.0	control	LS1	PICTURE_2.jpg	i	n/a
886.046	9.413	9413.0	control	LS1	PICTURE_286.jpg	c	n/a
895.459	7.983	7983.0	control	LS1	PICTURE_718.jpg	c	n/a
903.442	8.946	8946.0	control	LS1	PICTURE_430.jpg	i	n/a
912.388	9.113	9113.0	control	LS1	PICTURE_2.jpg	c	n/a
921.501	9.123	9123.0	control	LS1	PICTURE_292.jpg	i	n/a
930.624	9.930	9930.0	control	LS1	PICTURE_286.jpg	i	n/a
940.554	8.531	8531.0	control	LS2	PICTURE_718.jpg	c	n/a
949.085	8.697	8697.0	control	LS2	PICTURE_2.jpg	i	n/a
957.782	9.662	9662.0	control	LS2	PICTURE_718.jpg	i	n/a
967.444	12.070	12070.0	control	LS2	PICTURE_2.jpg	c	n/a
979.514	9.201	9201.0	control	LS2	PICTURE_292.jpg	c	n/a
988.715	7.769	7769.0	control	LS2	PICTURE_286.jpg	c	n/a
996.484	7.618	7618.0	control	LS2	PICTURE_430.jpg	c	n/a
1004.102	8.582	8582.0	control	LS2	PICTURE_286.jpg	i	n/a
1012.684	8.272	8272.0	control	LS2	PICTURE_430.jpg	i	n/a
1020.956	7.481	7481.0	control	LS2	PICTURE_292.jpg	i	n/a
1028.437	9.753	9753.0	control	LS3	PICTURE_645.jpg	c	n/a
1038.190	11.199	11199.0	control	LS3	PICTURE_98.jpg	i	n/a
1049.389	11.201	11201.0	control	LS3	PICTURE_134.jpg	i	n/a
1060.590	9.451	9451.0	control	LS3	PICTURE_733.jpg	i	n/a
1070.041	9.776	9776.0	control	LS3	PICTURE_731.jpg	c	n/a
1079.817	7.698	7698.0	control	LS3	PICTURE_134.jpg	c	n/a
1087.515	14.414	14414.0	control	LS3	PICTURE_733.jpg	c	n/a
1101.929	10.588	10588.0	control	LS3	PICTURE_98.jpg	c	n/a
1112.517	9.320	9320.0	control	LS3	PICTURE_731.jpg	i	n/a
1121.837	8.846	8846.0	control	LS3	PICTURE_645.jpg	i	n/a
1130.683	8.725	8725.0	control	LS4	PICTURE_731.jpg	i	n/a
1139.408	6.974	6974.0	control	LS4	PICTURE_733.jpg	c	n/a
1146.382	7.622	7622.0	control	LS4	PICTURE_134.jpg	c	n/a
1154.004	13.702	13702.0	control	LS4	PICTURE_645.jpg	i	n/a
1167.706	10.666	10666.0	control	LS4	PICTURE_134.jpg	i	n/a
1178.372	10.515	10515.0	control	LS4	PICTURE_645.jpg	c	n/a
1188.887	7.804	7804.0	control	LS4	PICTURE_98.jpg	c	n/a
1196.691	8.451	8451.0	control	LS4	PICTURE_731.jpg	c	n/a
1205.142	15.170	15170.0	control	LS4	PICTURE_98.jpg	i	n/a
1220.312	12.460	12460.0	control	LS4	PICTURE_733.jpg	i	n/a
1232.772	9.589	9589.0	learning	LS1	PICTURE_23.jpg	i	n/a
1242.361	8.957	8957.0	learning	LS1	PICTURE_297.jpg	i	n/a
1251.318	10.564	10564.0	learning	LS1	PICTURE_746.jpg	c	n/a
1261.882	11.846	11846.0	learning	LS1	PICTURE_235.jpg	i	n/a
1273.728	13.934	13934.0	learning	LS1	PICTURE_297.jpg	c	n/a
1287.662	7.069	7069.0	learning	LS1	PICTURE_23.jpg	c	n/a
1294.731	13.631	13631.0	learning	LS1	PICTURE_720.jpg	i	n/a
1308.362	13.639	13639.0	learning	LS1	PICTURE_235.jpg	c	n/a
1322.001	14.606	14606.0	learning	LS1	PICTURE_720.jpg	c	n/a
1336.607	18.285	18285.0	learning	LS1	PICTURE_746.jpg	i	n/a
1354.892	15.927	15927.0	learning	LS2	PICTURE_235.jpg	i	n/a
1370.819	8.584	8584.0	learning	LS2	PICTURE_720.jpg	i	n/a
1379.403	8.433	8433.0	learning	LS2	PICTURE_297.jpg	c	n/a
1387.836	11.955	11955.0	learning	LS2	PICTURE_235.jpg	c	n/a
1399.791	7.968	7968.0	learning	LS2	PICTURE_746.jpg	c	n/a
1407.759	7.016	7016.0	learning	LS2	PICTURE_23.jpg	i	n/a
1414.775	10.703	10703.0	learning	LS2	PICTURE_746.jpg	i	n/a
1425.478	11.192	11192.0	learning	LS2	PICTURE_720.jpg	c	n/a
1436.670	10.236	10236.0	learning	LS2	PICTURE_23.jpg	c	n/a
1446.906	9.926	9926.0	learning	LS2	PICTURE_297.jpg	i	n/a
1456.832	9.486	9486.0	learning	LS3	PICTURE_720.jpg	i	n/a
1466.318	9.333	9333.0	learning	LS3	PICTURE_297.jpg	i	n/a
1475.651	15.569	15569.0	learning	LS3	PICTURE_235.jpg	c	n/a
1491.220	8.867	8867.0	learning	LS3	PICTURE_746.jpg	c	n/a
1500.087	8.076	8076.0	learning	LS3	PICTURE_23.jpg	i	n/a
1508.163	18.791	18791.0	learning	LS3	PICTURE_720.jpg	c	n/a
1526.954	9.370	9370.0	learning	LS3	PICTURE_235.jpg	i	n/a
1536.324	11.454	11454.0	learning	LS3	PICTURE_297.jpg	c	n/a
1547.778	9.065	9065.0	learning	LS3	PICTURE_746.jpg	i	n/a
1556.843	7.316	7316.0	learning	LS3	PICTURE_23.jpg	c	n/a
1564.159	8.148	8148.0	learning	LS4	PICTURE_297.jpg	c	n/a
1572.307	8.160	8160.0	learning	LS4	PICTURE_23.jpg	c	n/a
1580.467	6.884	6884.0	learning	LS4	PICTURE_720.jpg	i	n/a
1587.351	8.811	8811.0	learning	LS4	PICTURE_746.jpg	c	n/a
1596.162	10.097	10097.0	learning	LS4	PICTURE_720.jpg	c	n/a
1606.259	8.505	8505.0	learning	LS4	PICTURE_235.jpg	c	n/a
1614.764	8.515	8515.0	learning	LS4	PICTURE_297.jpg	i	n/a
1623.279	7.886	7886.0	learning	LS4	PICTURE_23.jpg	i	n/a
1631.165	9.172	9172.0	learning	LS4	PICTURE_235.jpg	i	n/a
1640.337	10.621	10621.0	learning	LS4	PICTURE_746.jpg	i	n/a
1650.958	11.587	11587.0	learning	LS1	PICTURE_576.jpg	c	n/a
1662.545	9.987	9987.0	learning	LS1	PICTURE_605.jpg	i	n/a
1672.532	10.953	10953.0	learning	LS1	PICTURE_52.jpg	i	n/a
1683.485	11.282	11282.0	learning	LS1	PICTURE_594.jpg	c	n/a
1694.767	13.368	13368.0	learning	LS1	PICTURE_52.jpg	c	n/a
1708.135	10.818	10818.0	learning	LS1	PICTURE_594.jpg	i	n/a
1718.953	16.579	16579.0	learning	LS1	PICTURE_581.jpg	i	n/a
1735.532	11.154	11154.0	learning	LS1	PICTURE_576.jpg	i	n/a
1746.686	11.482	11482.0	learning	LS1	PICTURE_581.jpg	c	n/a
1758.168	11.655	11655.0	learning	LS1	PICTURE_605.jpg	c	n/a
1769.823	11.374	11374.0	learning	LS2	PICTURE_576.jpg	i	n/a
1781.197	10.581	10581.0	learning	LS2	PICTURE_594.jpg	i	n/a
1791.778	9.310	9310.0	learning	LS2	PICTURE_581.jpg	c	n/a
1801.088	9.478	9478.0	learning	LS2	PICTURE_52.jpg	i	n/a
1810.566	10.921	10921.0	learning	LS2	PICTURE_581.jpg	i	n/a
1821.487	9.651	9651.0	learning	LS2	PICTURE_52.jpg	c	n/a
1831.138	8.218	8218.0	learning	LS2	PICTURE_576.jpg	c	n/a
1839.356	9.503	9503.0	learning	LS2	PICTURE_605.jpg	i	n/a
1848.859	10.791	10791.0	learning	LS2	PICTURE_594.jpg	c	n/a
1859.650	8.718	8718.0	learning	LS2	PICTURE_605.jpg	c	n/a
1868.368	12.431	12431.0	learning	LS3	PICTURE_605.jpg	i	n/a
1880.799	8.282	8282.0	learning	LS3	PICTURE_576.jpg	i	n/a
1889.081	11.485	11485.0	learning	LS3	PICTURE_581.jpg	c	n/a
1900.566	8.456	8456.0	learning	LS3	PICTURE_594.jpg	c	n/a
1909.022	9.739	9739.0	learning	LS3	PICTURE_52.jpg	i	n/a
1918.761	8.632	8632.0	learning	LS3	PICTURE_594.jpg	i	n/a
1927.393	8.318	8318.0	learning	LS3	PICTURE_52.jpg	c	n/a
1935.711	9.443	9443.0	learning	LS3	PICTURE_581.jpg	i	n/a
1945.154	10.092	10092.0	learning	LS3	PICTURE_576.jpg	c	n/a
1955.246	12.019	12019.0	learning	LS3	PICTURE_605.jpg	c	n/a
1967.265	8.854	8854.0	learning	LS4	PICTURE_605.jpg	i	n/a
1976.119	8.224	8224.0	learning	LS4	PICTURE_52.jpg	i	n/a
1984.343	6.792	6792.0	learning	LS4	PICTURE_576.jpg	i	n/a
1991.135	7.920	7920.0	learning	LS4	PICTURE_581.jpg	c	n/a
1999.055	8.084	8084.0	learning	LS4	PICTURE_594.jpg	c	n/a
2007.139	8.732	8732.0	learning	LS4	PICTURE_581.jpg	i	n/a
2015.871	8.260	8260.0	learning	LS4	PICTURE_594.jpg	i	n/a
2024.131	10.983	10983.0	learning	LS4	PICTURE_576.jpg	c	n/a
2035.114	9.710	9710.0	learning	LS4	PICTURE_52.jpg	c	n/a
2044.824	8.279	8279.0	learning	LS4	PICTURE_605.jpg	c	n/a
2053.103	10.515	10515.0	learning	LS1	PICTURE_703.jpg	c	n/a
2063.618	8.759	8759.0	learning	LS1	PICTURE_220.jpg	i	n/a
2072.377	15.953	15953.0	learning	LS1	PICTURE_216.jpg	i	n/a
2088.330	13.565	13565.0	learning	LS1	PICTURE_53.jpg	i	n/a
2101.895	20.125	20125.0	learning	LS1	PICTURE_220.jpg	c	n/a
2122.020	10.856	10856.0	learning	LS1	PICTURE_53.jpg	c	n/a
2132.876	12.783	12783.0	learning	LS1	PICTURE_695.jpg	c	n/a
2145.659	15.028	15028.0	learning	LS1	PICTURE_703.jpg	i	n/a
2160.687	10.400	10400.0	learning	LS1	PICTURE_695.jpg	i	n/a
2171.087	20.157	20157.0	learning	LS1	PICTURE_216.jpg	c	n/a
2191.244	8.849	8849.0	learning	LS2	PICTURE_53.jpg	i	n/a
2200.093	8.853	8853.0	learning	LS2	PICTURE_703.jpg	c	n/a
2208.946	9.983	9983.0	learning	LS2	PICTURE_216.jpg	c	n/a
2218.929	8.390	8390.0	learning	LS2	PICTURE_220.jpg	c	n/a
2227.319	11.277	11277.0	learning	LS2	PICTURE_695.jpg	c	n/a
2238.596	19.594	19594.0	learning	LS2	PICTURE_220.jpg	i	n/a
2258.190	7.776	7776.0	learning	LS2	PICTURE_695.jpg	i	n/a
2265.966	9.221	9221.0	learning	LS2	PICTURE_216.jpg	i	n/a
2275.187	8.907	8907.0	learning	LS2	PICTURE_703.jpg	i	n/a
2284.094	9.236	9236.0	learning	LS2	PICTURE_53.jpg	c	n/a
2293.330	10.553	10553.0	learning	LS3	PICTURE_216.jpg	i	n/a
2303.883	9.283	9283.0	learning	LS3	PICTURE_220.jpg	i	n/a
2313.166	8.490	8490.0	learning	LS3	PICTURE_53.jpg	i	n/a
2321.656	9.614	9614.0	learning	LS3	PICTURE_695.jpg	c	n/a
2331.270	8.662	8662.0	learning	LS3	PICTURE_216.jpg	c	n/a
2339.932	7.228	7228.0	learning	LS3	PICTURE_220.jpg	c	n/a
2347.160	10.114	10114.0	learning	LS3	PICTURE_703.jpg	i	n/a
2357.274	7.726	7726.0	learning	LS3	PICTURE_53.jpg	c	n/a
2365.000	8.373	8373.0	learning	LS3	PICTURE_695.jpg	i	n/a
2373.373	8.219	8219.0	learning	LS3	PICTURE_703.jpg	c	n/a
2381.592	9.053	9053.0	learning	LS4	PICTURE_703.jpg	i	n/a
2390.645	9.059	9059.0	learning	LS4	PICTURE_53.jpg	c	n/a
2399.704	7.948	7948.0	learning	LS4	PICTURE_216.jpg	c	n/a
2407.652	6.199	6199.0	learning	LS4	PICTURE_220.jpg	c	n/a
2413.851	7.646	7646.0	learning	LS4	PICTURE_695.jpg	c	n/a
2421.497	8.128	8128.0	learning	LS4	PICTURE_220.jpg	i	n/a
2429.625	9.416	9416.0	learning	LS4	PICTURE_216.jpg	i	n/a
2439.041	8.783	8783.0	learning	LS4	PICTURE_695.jpg	i	n/a
2447.824	11.189	11189.0	learning	LS4	PICTURE_703.jpg	c	n/a
2459.013	8.638	8638.0	learning	LS4	PICTURE_53.jpg	i	n/a
2467.651	9.911	9911.0	control	LS1	PICTURE_418.jpg	c	n/a
2477.562	11.032	11032.0	control	LS1	PICTURE_498.jpg	c	n/a
2488.594	8.004	8004.0	control	LS1	PICTURE_350.jpg	c	n/a
2496.598	9.292	9292.0	control	LS1	PICTURE_549.jpg	c	n/a
2505.890	7.214	7214.0	control	LS1	PICTURE_485.jpg	c	n/a
2513.104	9.457	9457.0	control	LS1	PICTURE_350.jpg	i	n/a
2522.561	7.706	7706.0	control	LS1	PICTURE_549.jpg	i	n/a
2530.267	7.714	7714.0	control	LS1	PICTURE_498.jpg	i	n/a
2537.981	10.758	10758.0	control	LS1	PICTURE_485.jpg	i	n/a
2548.739	11.085	11085.0	control	LS1	PICTURE_418.jpg	i	n/a
2559.824	15.918	15918.0	control	LS2	PICTURE_485.jpg	c	n/a
2575.742	6.977	6977.0	control	LS2	PICTURE_498.jpg	c	n/a
2582.719	12.258	12258.0	control	LS2	PICTURE_549.jpg	c	n/a
2594.977	8.754	8754.0	control	LS2	PICTURE_418.jpg	i	n/a
2603.731	12.598	12598.0	control	LS2	PICTURE_350.jpg	c	n/a
2616.329	10.050	10050.0	control	LS2	PICTURE_418.jpg	c	n/a
2626.379	10.535	10535.0	control	LS2	PICTURE_485.jpg	i	n/a
2636.914	8.469	8469.0	control	LS2	PICTURE_549.jpg	i	n/a
2645.383	11.036	11036.0	control	LS2	PICTURE_498.jpg	i	n/a
2656.419	8.166	8166.0	control	LS2	PICTURE_350.jpg	i	n/a
2664.585	9.477	9477.0	control	LS3	PICTURE_314.jpg	c	n/a
2674.062	6.603	6603.0	control	LS3	PICTURE_552.jpg	c	n/a
2680.665	7.884	7884.0	control	LS3	PICTURE_388.jpg	c	n/a
2688.549	10.769	10769.0	control	LS3	PICTURE_663.jpg	c	n/a
2699.318	9.180	9180.0	control	LS3	PICTURE_314.jpg	i	n/a
2708.498	10.299	10299.0	control	LS3	PICTURE_476.jpg	c	n/a
2718.797	9.664	9664.0	control	LS3	PICTURE_552.jpg	i	n/a
2728.461	11.747	11747.0	control	LS3	PICTURE_663.jpg	i	n/a
2740.208	11.118	11118.0	control	LS3	PICTURE_476.jpg	i	n/a
2751.326	13.204	13204.0	control	LS3	PICTURE_388.jpg	i	n/a
2764.530	9.089	9089.0	control	LS4	PICTURE_552.jpg	i	n/a
2773.619	8.935	8935.0	control	LS4	PICTURE_476.jpg	c	n/a
2782.554	7.983	7983.0	control	LS4	PICTURE_314.jpg	i	n/a
2790.537	11.508	11508.0	control	LS4	PICTURE_388.jpg	i	n/a
2802.045	8.478	8478.0	control	LS4	PICTURE_663.jpg	c	n/a
2810.523	6.567	6567.0	control	LS4	PICTURE_314.jpg	c	n/a
2817.090	8.173	8173.0	control	LS4	PICTURE_663.jpg	i	n/a
2825.263	14.733	14733.0	control	LS4	PICTURE_476.jpg	i	n/a
2839.996	7.068	7068.0	control	LS4	PICTURE_388.jpg	c	n/a
2847.064	6.916	6916.0	control	LS4	PICTURE_552.jpg	c	n/a
2853.980	9.829	9829.0	learning	LS1	PICTURE_15.jpg	c	n/a
2863.809	12.076	12076.0	learning	LS1	PICTURE_508.jpg	c	n/a
2875.885	11.118	11118.0	learning	LS1	PICTURE_488.jpg	c	n/a
2887.003	9.045	9045.0	learning	LS1	PICTURE_480.jpg	i	n/a
2896.048	8.726	8726.0	learning	LS1	PICTURE_95.jpg	c	n/a
2904.774	11.289	11289.0	learning	LS1	PICTURE_508.jpg	i	n/a
2916.063	8.584	8584.0	learning	LS1	PICTURE_488.jpg	i	n/a
2924.647	10.352	10352.0	learning	LS1	PICTURE_95.jpg	i	n/a
2934.999	10.198	10198.0	learning	LS1	PICTURE_15.jpg	i	n/a
2945.197	13.719	13719.0	learning	LS1	PICTURE_480.jpg	c	n/a
2958.916	8.963	8963.0	learning	LS2	PICTURE_488.jpg	i	n/a
2967.879	16.963	16963.0	learning	LS2	PICTURE_15.jpg	i	n/a
2984.842	9.938	9938.0	learning	LS2	PICTURE_488.jpg	c	n/a
2994.780	12.825	12825.0	learning	LS2	PICTURE_95.jpg	c	n/a
3007.605	13.952	13952.0	learning	LS2	PICTURE_480.jpg	c	n/a
3021.557	13.162	13162.0	learning	LS2	PICTURE_508.jpg	c	n/a
3034.719	8.218	8218.0	learning	LS2	PICTURE_15.jpg	c	n/a
3042.937	9.506	9506.0	learning	LS2	PICTURE_508.jpg	i	n/a
3052.443	9.834	9834.0	learning	LS2	PICTURE_95.jpg	i	n/a
3062.277	9.204	9204.0	learning	LS2	PICTURE_480.jpg	i	n/a
3071.481	8.765	8765.0	learning	LS3	PICTURE_95.jpg	i	n/a
3080.246	7.977	7977.0	learning	LS3	PICTURE_488.jpg	i	n/a
3088.223	7.987	7987.0	learning	LS3	PICTURE_480.jpg	i	n/a
3096.210	9.756	9756.0	learning	LS3	PICTURE_15.jpg	i	n/a
3105.966	9.125	9125.0	learning	LS3	PICTURE_95.jpg	c	n/a
3115.091	9.936	9936.0	learning	LS3	PICTURE_488.jpg	c	n/a
3125.027	10.907	10907.0	learning	LS3	PICTURE_508.jpg	i	n/a
3135.934	7.078	7078.0	learning	LS3	PICTURE_15.jpg	c	n/a
3143.012	10.764	10764.0	learning	LS3	PICTURE_508.jpg	c	n/a
3153.776	12.214	12214.0	learning	LS3	PICTURE_480.jpg	c	n/a
3165.990	8.894	8894.0	learning	LS4	PICTURE_508.jpg	i	n/a
3174.884	8.105	8105.0	learning	LS4	PICTURE_488.jpg	c	n/a
3182.989	8.593	8593.0	learning	LS4	PICTURE_95.jpg	i	n/a
3191.582	6.843	6843.0	learning	LS4	PICTURE_480.jpg	c	n/a
3198.425	7.970	7970.0	learning	LS4	PICTURE_508.jpg	c	n/a
3206.395	7.819	7819.0	learning	LS4	PICTURE_95.jpg	c	n/a
3214.214	14.223	14223.0	learning	LS4	PICTURE_480.jpg	i	n/a
3228.437	7.519	7519.0	learning	LS4	PICTURE_15.jpg	c	n/a
3235.956	10.243	10243.0	learning	LS4	PICTURE_488.jpg	i	n/a
3246.199	8.329	8329.0	learning	LS4	PICTURE_15.jpg	i	n/a
