onset	duration	accuracy	trial_type	learning_stage	stimulus
0.0	2.021	incorrect	generate	Run1	generate/STIM_000.jpg
4.837	1.784	correct	generate	Run1	generate/STIM_000.jpg
10.352	2.146	correct	generate	Run1	generate/STIM_000.jpg
14.735	1.978	correct	generate	Run1	generate/STIM_000.jpg
19.844	1.736	incorrect	generate	Run1	generate/STIM_000.jpg
24.169	2.013	correct	generate	Run1	generate/STIM_001.jpg
29.85	1.809	correct	generate	Run1	generate/STIM_001.jpg
35.423	2.564	correct	generate	Run1	generate/STIM_001.jpg
40.842	1.391	correct	generate	Run1	generate/STIM_001.jpg
45.344	1.314	correct	generate	Run1	generate/STIM_001.jpg
49.28	1.799	correct	generate	Run1	generate/STIM_002.jpg
53.401	2.354	correct	generate	Run1	generate/STIM_002.jpg
58.627	2.709	correct	generate	Run1	generate/STIM_002.jpg
64.885	1.892	incorrect	generate	Run1	generate/STIM_002.jpg
69.328	1.765	correct	generate	Run1	generate/STIM_002.jpg
73.797	2.368	correct	generate	Run1	generate/STIM_003.jpg
78.175	2.393	correct	generate	Run1	generate/STIM_003.jpg
83.477	1.593	correct	generate	Run1	generate/STIM_003.jpg
88.098	2.65	correct	generate	Run1	generate/STIM_003.jpg
94.175	1.441	incorrect	generate	Run1	generate/STIM_003.jpg
98.426	1.692	correct	generate	Run1	generate/STIM_004.jpg
102.284	1.65	incorrect	generate	Run1	generate/STIM_004.jpg
107.046	2.853	incorrect	generate	Run1	generate/STIM_004.jpg
112.624	2.396	correct	generate	Run1	generate/STIM_004.jpg
117.668	1.589	incorrect	generate	Run1	generate/STIM_004.jpg
121.491	2.719	correct	generate	Run1	generate/STIM_005.jpg
126.354	3.033	incorrect	generate	Run1	generate/STIM_005.jpg
132.507	1.553	correct	generate	Run1	generate/STIM_005.jpg
137.736	2.42	correct	generate	Run1	generate/STIM_005.jpg
142.438	1.968	correct	generate	Run1	generate/STIM_005.jpg
147.87	2.703	correct	generate	Run1	generate/STIM_006.jpg
152.576	2.781	correct	generate	Run1	generate/STIM_006.jpg
157.926	2.451	correct	generate	Run1	generate/STIM_006.jpg
163.545	1.127	incorrect	generate	Run1	generate/STIM_006.jpg
166.618	1.729	correct	generate	Run1	generate/STIM_006.jpg
170.393	1.45	correct	generate	Run1	generate/STIM_007.jpg
174.056	2.279	correct	generate	Run1	generate/STIM_007.jpg
178.398	2.539	correct	generate	Run1	generate/STIM_007.jpg
182.835	1.574	correct	generate	Run1	generate/STIM_007.jpg
187.6	2.363	correct	generate	Run1	generate/STIM_007.jpg
192.146	2.853	incorrect	generate	Run1	generate/STIM_008.jpg
197.013	2.422	correct	generate	Run1	generate/STIM_008.jpg
202.437	1.599	correct	generate	Run1	generate/STIM_008.jpg
206.256	1.351	incorrect	generate	Run1	generate/STIM_008.jpg
210.861	1.68	correct	generate	Run1	generate/STIM_008.jpg
216.41	2.462	correct	generate	Run1	generate/STIM_009.jpg
221.829	2.205	correct	generate	Run1	generate/STIM_009.jpg
227.833	2.66	correct	generate	Run1	generate/STIM_009.jpg
233.469	1.922	correct	generate	Run1	generate/STIM_009.jpg
238.113	1.86	correct	generate	Run1	generate/STIM_009.jpg
242.578	2.34	correct	generate	Run1	generate/STIM_010.jpg
247.426	1.656	correct	generate	Run1	generate/STIM_010.jpg
252.171	1.787	incorrect	generate	Run1	generate/STIM_010.jpg
256.75	1.247	correct	generate	Run1	generate/STIM_010.jpg
261.209	1.824	correct	generate	Run1	generate/STIM_010.jpg
265.794	2.349	correct	generate	Run1	generate/STIM_011.jpg
271.794	1.276	correct	generate	Run1	generate/STIM_011.jpg
276.344	1.57	correct	generate	Run1	generate/STIM_011.jpg
280.434	2.703	correct	generate	Run1	generate/STIM_011.jpg
286.319	2.244	correct	generate	Run1	generate/STIM_011.jpg
292.251	1.994	correct	generate	Run1	generate/STIM_012.jpg
296.835	2.797	incorrect	generate	Run1	generate/STIM_012.jpg
303.191	1.961	correct	generate	Run1	generate/STIM_012.jpg
307.396	2.113	correct	generate	Run1	generate/STIM_012.jpg
312.733	2.655	correct	generate	Run1	generate/STIM_012.jpg
318.184	1.426	correct	generate	Run1	generate/STIM_013.jpg
321.879	2.008	incorrect	generate	Run1	generate/STIM_013.jpg
325.956	2.271	incorrect	generate	Run1	generate/STIM_013.jpg
331.045	1.84	correct	generate	Run1	generate/STIM_013.jpg
335.574	1.523	correct	generate	Run1	generate/STIM_013.jpg
339.593	3.189	correct	generate	Run1	generate/STIM_014.jpg
346.313	1.753	correct	generate	Run1	generate/STIM_014.jpg
350.04	2.196	correct	generate	Run1	generate/STIM_014.jpg
355.05	1.73	correct	generate	Run1	generate/STIM_014.jpg
359.209	1.784	correct	generate	Run1	generate/STIM_014.jpg
363.15	1.406	correct	generate	Run1	generate/STIM_015.jpg
367.075	1.954	correct	generate	Run1	generate/STIM_015.jpg
372.273	1.918	correct	generate	Run1	generate/STIM_015.jpg
376.119	2.0	correct	generate	Run1	generate/STIM_015.jpg
380.553	1.945	correct	generate	Run1	generate/STIM_015.jpg
386.284	2.442	correct	generate	Run1	generate/STIM_016.jpg
391.482	2.265	correct	generate	Run1	generate/STIM_016.jpg
396.705	1.373	correct	generate	Run1	generate/STIM_016.jpg
401.652	1.89	correct	generate	Run1	generate/STIM_016.jpg
406.161	1.645	correct	generate	Run1	generate/STIM_016.jpg
410.889	1.715	incorrect	generate	Run1	generate/STIM_017.jpg
416.478	1.978	correct	generate	Run1	generate/STIM_017.jpg
422.257	2.699	correct	generate	Run1	generate/STIM_017.jpg
428.256	1.705	incorrect	generate	Run1	generate/STIM_017.jpg
433.739	2.579	correct	generate	Run1	generate/STIM_017.jpg
440.053	2.72	correct	generate	Run1	generate/STIM_018.jpg
444.995	1.885	correct	generate	Run1	generate/STIM_018.jpg
449.423	1.943	correct	generate	Run1	generate/STIM_018.jpg
454.09	2.285	correct	generate	Run1	generate/STIM_018.jpg
459.402	2.213	correct	generate	Run1	generate/STIM_018.jpg
465.02	2.802	correct	generate	Run1	generate/STIM_019.jpg
469.693	3.047	incorrect	generate	Run1	generate/STIM_019.jpg
474.959	1.924	correct	generate	Run1	generate/STIM_019.jpg
480.499	1.215	correct	generate	Run1	generate/STIM_019.jpg
485.133	1.276	incorrect	generate	Run1	generate/STIM_019.jpg
489.337	2.923	correct	generate	Run1	generate/STIM_020.jpg
495.205	2.633	correct	generate	Run1	generate/STIM_020.jpg
501.494	1.221	correct	generate	Run1	generate/STIM_020.jpg
505.84	2.39	correct	generate	Run1	generate/STIM_020.jpg
511.139	1.737	correct	generate	Run1	generate/STIM_020.jpg
515.498	2.473	correct	generate	Run1	generate/STIM_021.jpg
520.079	2.908	correct	generate	Run1	generate/STIM_021.jpg
525.285	1.368	correct	generate	Run1	generate/STIM_021.jpg
530.066	1.558	correct	generate	Run1	generate/STIM_021.jpg
534.598	1.691	correct	generate	Run1	generate/STIM_021.jpg
539.896	2.099	correct	generate	Run1	generate/STIM_022.jpg
544.517	2.241	incorrect	generate	Run1	generate/STIM_022.jpg
550.127	1.448	correct	generate	Run1	generate/STIM_022.jpg
553.842	1.526	correct	generate	Run1	generate/STIM_022.jpg
558.315	1.491	correct	generate	Run1	generate/STIM_022.jpg
563.441	2.613	correct	generate	Run1	generate/STIM_023.jpg
568.402	1.689	incorrect	generate	Run1	generate/STIM_023.jpg
572.457	1.639	correct	generate	Run1	generate/STIM_023.jpg
577.116	2.851	correct	generate	Run1	generate/STIM_023.jpg
583.458	1.388	correct	generate	Run1	generate/STIM_023.jpg
588.525	2.226	correct	generate	Run1	generate/STIM_024.jpg
594.305	3.115	correct	generate	Run1	generate/STIM_024.jpg
599.262	2.463	incorrect	generate	Run1	generate/STIM_024.jpg
603.725	2.081	correct	generate	Run1	generate/STIM_024.jpg
608.961	1.107	correct	generate	Run1	generate/STIM_024.jpg
613.275	0.733	correct	repeat	Run1	repeat/STIM_000.jpg
617.494	0.856	correct	repeat	Run1	repeat/STIM_000.jpg
622.092	1.067	correct	repeat	Run1	repeat/STIM_000.jpg
626.68	1.01	correct	repeat	Run1	repeat/STIM_000.jpg
630.686	0.636	correct	repeat	Run1	repeat/STIM_000.jpg
634.833	0.971	correct	repeat	Run1	repeat/STIM_001.jpg
638.195	1.087	correct	repeat	Run1	repeat/STIM_001.jpg
642.186	0.816	correct	repeat	Run1	repeat/STIM_001.jpg
645.363	1.02	correct	repeat	Run1	repeat/STIM_001.jpg
649.064	0.7	correct	repeat	Run1	repeat/STIM_001.jpg
653.217	0.804	correct	repeat	Run1	repeat/STIM_002.jpg
656.775	1.043	correct	repeat	Run1	repeat/STIM_002.jpg
660.675	0.989	correct	repeat	Run1	repeat/STIM_002.jpg
663.757	0.676	correct	repeat	Run1	repeat/STIM_002.jpg
667.132	0.716	correct	repeat	Run1	repeat/STIM_002.jpg
670.329	1.061	correct	repeat	Run1	repeat/STIM_003.jpg
673.517	1.066	correct	repeat	Run1	repeat/STIM_003.jpg
676.893	0.962	correct	repeat	Run1	repeat/STIM_003.jpg
679.909	0.787	correct	repeat	Run1	repeat/STIM_003.jpg
683.955	0.624	correct	repeat	Run1	repeat/STIM_003.jpg
688.35	0.772	correct	repeat	Run1	repeat/STIM_004.jpg
692.584	0.808	correct	repeat	Run1	repeat/STIM_004.jpg
695.484	0.961	correct	repeat	Run1	repeat/STIM_004.jpg
699.212	1.012	correct	repeat	Run1	repeat/STIM_004.jpg
703.01	0.778	correct	repeat	Run1	repeat/STIM_004.jpg
705.931	0.691	correct	repeat	Run1	repeat/STIM_005.jpg
710.455	0.577	correct	repeat	Run1	repeat/STIM_005.jpg
713.831	1.136	correct	repeat	Run1	repeat/STIM_005.jpg
718.181	1.029	correct	repeat	Run1	repeat/STIM_005.jpg
721.775	0.893	correct	repeat	Run1	repeat/STIM_005.jpg
726.467	0.686	correct	repeat	Run1	repeat/STIM_006.jpg
729.683	0.73	correct	repeat	Run1	repeat/STIM_006.jpg
733.447	0.638	correct	repeat	Run1	repeat/STIM_006.jpg
736.216	0.743	correct	repeat	Run1	repeat/STIM_006.jpg
740.677	0.85	correct	repeat	Run1	repeat/STIM_006.jpg
745.135	0.56	correct	repeat	Run1	repeat/STIM_007.jpg
747.73	0.938	correct	repeat	Run1	repeat/STIM_007.jpg
750.734	0.919	correct	repeat	Run1	repeat/STIM_007.jpg
754.629	0.783	correct	repeat	Run1	repeat/STIM_007.jpg
757.612	0.932	correct	repeat	Run1	repeat/STIM_007.jpg
760.808	0.787	correct	repeat	Run1	repeat/STIM_008.jpg
764.875	0.646	correct	repeat	Run1	repeat/STIM_008.jpg
769.327	0.82	correct	repeat	Run1	repeat/STIM_008.jpg
774.022	0.936	correct	repeat	Run1	repeat/STIM_008.jpg
778.625	0.712	correct	repeat	Run1	repeat/STIM_008.jpg
781.359	0.974	correct	repeat	Run1	repeat/STIM_009.jpg
784.478	1.025	correct	repeat	Run1	repeat/STIM_009.jpg
788.548	0.733	correct	repeat	Run1	repeat/STIM_009.jpg
792.678	1.117	correct	repeat	Run1	repeat/STIM_009.jpg
796.775	0.945	correct	repeat	Run1	repeat/STIM_009.jpg
801.438	0.626	correct	repeat	Run1	repeat/STIM_010.jpg
805.307	0.813	correct	repeat	Run1	repeat/STIM_010.jpg
809.204	1.03	correct	repeat	Run1	repeat/STIM_010.jpg
813.939	0.997	correct	repeat	Run1	repeat/STIM_010.jpg
818.67	1.0	correct	repeat	Run1	repeat/STIM_010.jpg
823.545	0.92	correct	repeat	Run1	repeat/STIM_011.jpg
827.884	0.685	correct	repeat	Run1	repeat/STIM_011.jpg
832.513	0.976	correct	repeat	Run1	repeat/STIM_011.jpg
835.666	1.039	correct	repeat	Run1	repeat/STIM_011.jpg
839.582	1.099	correct	repeat	Run1	repeat/STIM_011.jpg
843.0	1.012	correct	repeat	Run1	repeat/STIM_012.jpg
846.239	0.916	correct	repeat	Run1	repeat/STIM_012.jpg
849.59	0.578	correct	repeat	Run1	repeat/STIM_012.jpg
853.27	0.733	correct	repeat	Run1	repeat/STIM_012.jpg
856.587	0.882	correct	repeat	Run1	repeat/STIM_012.jpg
860.982	0.688	correct	repeat	Run1	repeat/STIM_013.jpg
865.295	0.593	correct	repeat	Run1	repeat/STIM_013.jpg
868.511	0.932	correct	repeat	Run1	repeat/STIM_013.jpg
872.325	0.827	correct	repeat	Run1	repeat/STIM_013.jpg
876.874	0.88	correct	repeat	Run1	repeat/STIM_013.jpg
879.722	0.894	correct	repeat	Run1	repeat/STIM_014.jpg
883.11	0.895	correct	repeat	Run1	repeat/STIM_014.jpg
887.361	0.929	correct	repeat	Run1	repeat/STIM_014.jpg
891.168	0.76	correct	repeat	Run1	repeat/STIM_014.jpg
895.695	1.046	correct	repeat	Run1	repeat/STIM_014.jpg
898.701	2.4	incorrect	generate	Run2	generate/STIM_000.jpg
903.938	1.319	correct	generate	Run2	generate/STIM_000.jpg
907.912	2.086	correct	generate	Run2	generate/STIM_000.jpg
913.114	1.32	correct	generate	Run2	generate/STIM_000.jpg
917.042	2.282	correct	generate	Run2	generate/STIM_000.jpg
921.365	1.877	incorrect	generate	Run2	generate/STIM_001.jpg
925.596	1.815	correct	generate	Run2	generate/STIM_001.jpg
930.484	2.164	correct	generate	Run2	generate/STIM_001.jpg
936.472	1.492	correct	generate	Run2	generate/STIM_001.jpg
940.201	1.138	incorrect	generate	Run2	generate/STIM_001.jpg
944.816	1.717	correct	generate	Run2	generate/STIM_002.jpg
948.651	2.352	correct	generate	Run2	generate/STIM_002.jpg
954.665	1.76	correct	generate	Run2	generate/STIM_002.jpg
959.877	1.413	correct	generate	Run2	generate/STIM_002.jpg
963.902	1.313	correct	generate	Run2	generate/STIM_002.jpg
967.763	2.76	correct	generate	Run2	generate/STIM_003.jpg
972.338	1.165	correct	generate	Run2	generate/STIM_003.jpg
976.111	1.519	incorrect	generate	Run2	generate/STIM_003.jpg
981.427	2.293	incorrect	generate	Run2	generate/STIM_003.jpg
986.114	1.196	correct	generate	Run2	generate/STIM_003.jpg
990.03	2.684	correct	generate	Run2	generate/STIM_004.jpg
995.05	2.583	correct	generate	Run2	generate/STIM_004.jpg
1000.607	1.807	correct	generate	Run2	generate/STIM_004.jpg
1005.926	1.052	correct	generate	Run2	generate/STIM_004.jpg
1010.149	1.39	correct	generate	Run2	generate/STIM_004.jpg
1014.383	1.8	correct	generate	Run2	generate/STIM_005.jpg
1018.388	2.136	correct	generate	Run2	generate/STIM_005.jpg
1022.476	2.204	correct	generate	Run2	generate/STIM_005.jpg
1027.897	1.173	incorrect	generate	Run2	generate/STIM_005.jpg
1031.755	2.155	correct	generate	Run2	generate/STIM_005.jpg
1036.485	2.413	correct	generate	Run2	generate/STIM_006.jpg
1042.135	2.214	correct	generate	Run2	generate/STIM_006.jpg
1047.564	1.449	correct	generate	Run2	generate/STIM_006.jpg
1050.97	1.751	correct	generate	Run2	generate/STIM_006.jpg
1055.259	1.215	correct	generate	Run2	generate/STIM_006.jpg
1058.455	1.267	correct	generate	Run2	generate/STIM_007.jpg
1063.028	1.938	correct	generate	Run2	generate/STIM_007.jpg
1067.721	1.176	correct	generate	Run2	generate/STIM_007.jpg
1071.794	2.09	correct	generate	Run2	generate/STIM_007.jpg
1076.002	1.393	correct	generate	Run2	generate/STIM_007.jpg
1079.579	1.997	correct	generate	Run2	generate/STIM_008.jpg
1083.947	1.493	correct	generate	Run2	generate/STIM_008.jpg
1087.434	1.286	correct	generate	Run2	generate/STIM_008.jpg
1090.729	2.134	correct	generate	Run2	generate/STIM_008.jpg
1095.553	0.974	correct	generate	Run2	generate/STIM_008.jpg
1099.688	1.283	correct	generate	Run2	generate/STIM_009.jpg
1104.801	1.99	incorrect	generate	Run2	generate/STIM_009.jpg
1109.332	1.263	correct	generate	Run2	generate/STIM_009.jpg
1114.145	0.966	correct	generate	Run2	generate/STIM_009.jpg
1118.361	2.047	correct	generate	Run2	generate/STIM_009.jpg
1124.178	1.509	correct	generate	Run2	generate/STIM_010.jpg
1129.413	1.266	correct	generate	Run2	generate/STIM_010.jpg
1134.388	1.742	correct	generate	Run2	generate/STIM_010.jpg
1138.954	1.054	correct	generate	Run2	generate/STIM_010.jpg
1142.689	1.887	correct	generate	Run2	generate/STIM_010.jpg
1147.604	1.828	correct	generate	Run2	generate/STIM_011.jpg
1153.01	2.097	incorrect	generate	Run2	generate/STIM_011.jpg
1158.612	2.05	incorrect	generate	Run2	generate/STIM_011.jpg
1164.054	1.887	incorrect	generate	Run2	generate/STIM_011.jpg
1168.339	0.98	correct	generate	Run2	generate/STIM_011.jpg
1171.774	1.345	correct	generate	Run2	generate/STIM_012.jpg
1176.074	1.678	correct	generate	Run2	generate/STIM_012.jpg
1181.374	1.868	incorrect	generate	Run2	generate/STIM_012.jpg
1185.225	1.531	incorrect	generate	Run2	generate/STIM_012.jpg
1189.371	1.376	correct	generate	Run2	generate/STIM_012.jpg
1193.909	2.41	incorrect	generate	Run2	generate/STIM_013.jpg
1199.304	2.669	correct	generate	Run2	generate/STIM_013.jpg
1204.588	2.397	correct	generate	Run2	generate/STIM_013.jpg
1210.362	1.763	correct	generate	Run2	generate/STIM_013.jpg
1214.249	1.496	correct	generate	Run2	generate/STIM_013.jpg
1219.208	2.855	correct	generate	Run2	generate/STIM_014.jpg
1225.297	2.515	correct	generate	Run2	generate/STIM_014.jpg
1229.574	1.014	correct	generate	Run2	generate/STIM_014.jpg
1233.809	0.957	correct	generate	Run2	generate/STIM_014.jpg
1238.459	1.25	incorrect	generate	Run2	generate/STIM_014.jpg
1242.847	1.501	incorrect	generate	Run2	generate/STIM_015.jpg
1247.682	2.151	correct	generate	Run2	generate/STIM_015.jpg
1253.38	1.414	correct	generate	Run2	generate/STIM_015.jpg
1258.186	0.91	correct	generate	Run2	generate/STIM_015.jpg
1261.608	1.463	correct	generate	Run2	generate/STIM_015.jpg
1265.32	2.47	correct	generate	Run2	generate/STIM_016.jpg
1269.918	1.413	correct	generate	Run2	generate/STIM_016.jpg
1274.199	1.495	correct	generate	Run2	generate/STIM_016.jpg
1279.323	0.974	correct	generate	Run2	generate/STIM_016.jpg
1282.645	1.943	correct	generate	Run2	generate/STIM_016.jpg
1287.169	1.286	correct	generate	Run2	generate/STIM_017.jpg
1291.766	2.212	correct	generate	Run2	generate/STIM_017.jpg
1297.082	2.219	incorrect	generate	Run2	generate/STIM_017.jpg
1302.87	1.253	correct	generate	Run2	generate/STIM_017.jpg
1307.996	2.21	correct	generate	Run2	generate/STIM_017.jpg
1312.412	1.505	correct	generate	Run2	generate/STIM_018.jpg
1316.46	1.983	correct	generate	Run2	generate/STIM_018.jpg
1321.746	2.192	correct	generate	Run2	generate/STIM_018.jpg
1326.231	1.088	correct	generate	Run2	generate/STIM_018.jpg
1329.387	1.616	correct	generate	Run2	generate/STIM_018.jpg
1333.829	2.615	correct	generate	Run2	generate/STIM_019.jpg
1340.025	2.021	incorrect	generate	Run2	generate/STIM_019.jpg
1344.524	1.364	correct	generate	Run2	generate/STIM_019.jpg
1348.379	1.247	correct	generate	Run2	generate/STIM_019.jpg
1353.011	2.239	correct	generate	Run2	generate/STIM_019.jpg
1358.735	1.091	correct	generate	Run2	generate/STIM_020.jpg
1363.229	2.294	correct	generate	Run2	generate/STIM_020.jpg
1368.377	1.87	correct	generate	Run2	generate/STIM_020.jpg
1373.106	1.869	incorrect	generate	Run2	generate/STIM_020.jpg
1378.375	2.262	correct	generate	Run2	generate/STIM_020.jpg
1383.797	1.502	correct	generate	Run2	generate/STIM_021.jpg
1388.978	1.982	correct	generate	Run2	generate/STIM_021.jpg
1394.098	2.097	correct	generate	Run2	generate/STIM_021.jpg
1398.399	1.943	correct	generate	Run2	generate/STIM_021.jpg
1403.501	1.636	correct	generate	Run2	generate/STIM_021.jpg
1407.972	1.637	incorrect	generate	Run2	generate/STIM_022.jpg
1413.076	1.161	correct	generate	Run2	generate/STIM_022.jpg
1416.625	2.254	correct	generate	Run2	generate/STIM_022.jpg
1421.52	1.469	correct	generate	Run2	generate/STIM_022.jpg
1426.248	1.55	correct	generate	Run2	generate/STIM_022.jpg
1430.179	2.392	correct	generate	Run2	generate/STIM_023.jpg
1434.72	2.438	correct	generate	Run2	generate/STIM_023.jpg
1439.785	2.352	correct	generate	Run2	generate/STIM_023.jpg
1444.542	0.944	correct	generate	Run2	generate/STIM_023.jpg
1449.121	1.05	incorrect	generate	Run2	generate/STIM_023.jpg
1452.416	2.012	correct	generate	Run2	generate/STIM_024.jpg
1457.932	1.402	incorrect	generate	Run2	generate/STIM_024.jpg
1462.271	1.372	correct	generate	Run2	generate/STIM_024.jpg
1466.521	1.704	correct	generate	Run2	generate/STIM_024.jpg
1470.733	2.262	correct	generate	Run2	generate/STIM_024.jpg
1475.467	1.051	correct	repeat	Run2	repeat/STIM_000.jpg
1479.978	0.905	correct	repeat	Run2	repeat/STIM_000.jpg
1483.648	0.533	correct	repeat	Run2	repeat/STIM_000.jpg
1487.437	0.78	correct	repeat	Run2	repeat/STIM_000.jpg
1491.541	0.905	correct	repeat	Run2	repeat/STIM_000.jpg
1495.311	0.739	correct	repeat	Run2	repeat/STIM_001.jpg
1499.085	0.911	correct	repeat	Run2	repeat/STIM_001.jpg
1502.555	0.777	correct	repeat	Run2	repeat/STIM_001.jpg
1505.582	0.911	correct	repeat	Run2	repeat/STIM_001.jpg
1510.104	0.55	correct	repeat	Run2	repeat/STIM_001.jpg
1513.217	0.588	correct	repeat	Run2	repeat/STIM_002.jpg
1515.941	1.042	correct	repeat	Run2	repeat/STIM_002.jpg
1520.155	0.616	correct	repeat	Run2	repeat/STIM_002.jpg
1523.029	1.086	correct	repeat	Run2	repeat/STIM_002.jpg
1526.903	0.786	incorrect	repeat	Run2	repeat/STIM_002.jpg
1531.23	0.574	correct	repeat	Run2	repeat/STIM_003.jpg
1534.472	0.571	correct	repeat	Run2	repeat/STIM_003.jpg
1538.198	0.694	correct	repeat	Run2	repeat/STIM_003.jpg
1542.659	0.784	correct	repeat	Run2	repeat/STIM_003.jpg
1546.96	0.871	correct	repeat	Run2	repeat/STIM_003.jpg
1550.715	0.547	correct	repeat	Run2	repeat/STIM_004.jpg
1553.399	0.606	incorrect	repeat	Run2	repeat/STIM_004.jpg
1557.424	0.632	correct	repeat	Run2	repeat/STIM_004.jpg
1561.282	0.887	correct	repeat	Run2	repeat/STIM_004.jpg
1565.94	0.53	correct	repeat	Run2	repeat/STIM_004.jpg
1569.883	0.575	correct	repeat	Run2	repeat/STIM_005.jpg
1573.973	0.977	correct	repeat	Run2	repeat/STIM_005.jpg
1578.381	0.799	correct	repeat	Run2	repeat/STIM_005.jpg
1583.027	1.148	correct	repeat	Run2	repeat/STIM_005.jpg
1586.668	0.714	incorrect	repeat	Run2	repeat/STIM_005.jpg
1589.794	1.08	correct	repeat	Run2	repeat/STIM_006.jpg
1592.808	1.074	incorrect	repeat	Run2	repeat/STIM_006.jpg
1597.283	0.961	correct	repeat	Run2	repeat/STIM_006.jpg
1601.739	0.709	correct	repeat	Run2	repeat/STIM_006.jpg
1604.729	0.892	correct	repeat	Run2	repeat/STIM_006.jpg
1608.652	0.561	correct	repeat	Run2	repeat/STIM_007.jpg
1611.231	1.066	correct	repeat	Run2	repeat/STIM_007.jpg
1615.838	1.03	correct	repeat	Run2	repeat/STIM_007.jpg
1620.594	0.596	correct	repeat	Run2	repeat/STIM_007.jpg
1624.093	0.837	correct	repeat	Run2	repeat/STIM_007.jpg
1626.993	1.067	correct	repeat	Run2	repeat/STIM_008.jpg
1631.933	0.781	incorrect	repeat	Run2	repeat/STIM_008.jpg
1635.418	0.793	correct	repeat	Run2	repeat/STIM_008.jpg
1639.84	0.884	correct	repeat	Run2	repeat/STIM_008.jpg
1644.515	0.678	correct	repeat	Run2	repeat/STIM_008.jpg
1648.249	1.174	correct	repeat	Run2	repeat/STIM_009.jpg
1652.365	0.832	correct	repeat	Run2	repeat/STIM_009.jpg
1655.071	0.961	correct	repeat	Run2	repeat/STIM_009.jpg
1659.32	1.056	correct	repeat	Run2	repeat/STIM_009.jpg
1663.256	0.933	correct	repeat	Run2	repeat/STIM_009.jpg
1666.154	1.022	correct	repeat	Run2	repeat/STIM_010.jpg
1670.32	0.593	correct	repeat	Run2	repeat/STIM_010.jpg
1673.923	0.9	correct	repeat	Run2	repeat/STIM_010.jpg
1677.825	0.669	correct	repeat	Run2	repeat/STIM_010.jpg
1680.461	0.674	correct	repeat	Run2	repeat/STIM_010.jpg
1684.701	0.689	correct	repeat	Run2	repeat/STIM_011.jpg
1688.715	0.933	correct	repeat	Run2	repeat/STIM_011.jpg
1693.147	1.07	correct	repeat	Run2	repeat/STIM_011.jpg
1697.135	1.025	correct	repeat	Run2	repeat/STIM_011.jpg
1701.168	1.047	correct	repeat	Run2	repeat/STIM_011.jpg
1704.874	0.964	correct	repeat	Run2	repeat/STIM_012.jpg
1708.756	0.903	correct	repeat	Run2	repeat/STIM_012.jpg
1713.549	1.056	correct	repeat	Run2	repeat/STIM_012.jpg
1717.282	1.067	correct	repeat	Run2	repeat/STIM_012.jpg
1721.751	0.555	correct	repeat	Run2	repeat/STIM_012.jpg
1724.421	0.743	correct	repeat	Run2	repeat/STIM_013.jpg
1728.972	0.762	correct	repeat	Run2	repeat/STIM_013.jpg
1733.5	0.86	correct	repeat	Run2	repeat/STIM_013.jpg
1738.133	1.107	correct	repeat	Run2	repeat/STIM_013.jpg
1742.572	0.658	correct	repeat	Run2	repeat/STIM_013.jpg
1746.072	1.041	correct	repeat	Run2	repeat/STIM_014.jpg
1750.514	0.679	correct	repeat	Run2	repeat/STIM_014.jpg
1754.272	0.662	correct	repeat	Run2	repeat/STIM_014.jpg
1757.63	0.874	correct	repeat	Run2	repeat/STIM_014.jpg
1761.54	0.575	correct	repeat	Run2	repeat/STIM_014.jpg
1765.114	1.849	correct	generate	Run3	generate/STIM_000.jpg
1770.52	1.728	correct	generate	Run3	generate/STIM_000.jpg
1774.847	1.74	incorrect	generate	Run3	generate/STIM_000.jpg
1779.791	2.147	correct	generate	Run3	generate/STIM_000.jpg
1784.567	1.425	correct	generate	Run3	generate/STIM_000.jpg
1788.5	2.204	correct	generate	Run3	generate/STIM_001.jpg
1792.906	1.012	correct	generate	Run3	generate/STIM_001.jpg
1796.035	1.296	correct	generate	Run3	generate/STIM_001.jpg
1799.88	1.486	correct	generate	Run3	generate/STIM_001.jpg
1804.414	1.1	correct	generate	Run3	generate/STIM_001.jpg
1808.768	1.202	incorrect	generate	Run3	generate/STIM_002.jpg
1812.017	1.435	incorrect	generate	Run3	generate/STIM_002.jpg
1815.874	1.999	correct	generate	Run3	generate/STIM_002.jpg
1821.001	1.81	correct	generate	Run3	generate/STIM_002.jpg
1825.769	0.956	correct	generate	Run3	generate/STIM_002.jpg
1829.769	1.901	correct	generate	Run3	generate/STIM_003.jpg
1834.926	2.255	correct	generate	Run3	generate/STIM_003.jpg
1840.445	2.217	incorrect	generate	Run3	generate/STIM_003.jpg
1845.662	1.718	correct	generate	Run3	generate/STIM_003.jpg
1850.105	1.103	incorrect	generate	Run3	generate/STIM_003.jpg
1854.718	2.043	correct	generate	Run3	generate/STIM_004.jpg
1858.905	1.837	correct	generate	Run3	generate/STIM_004.jpg
1863.007	0.975	correct	generate	Run3	generate/STIM_004.jpg
1867.118	1.882	correct	generate	Run3	generate/STIM_004.jpg
1872.7	1.417	correct	generate	Run3	generate/STIM_004.jpg
1876.687	1.54	correct	generate	Run3	generate/STIM_005.jpg
1881.932	2.272	correct	generate	Run3	generate/STIM_005.jpg
1886.799	1.348	correct	generate	Run3	generate/STIM_005.jpg
1890.318	1.071	correct	generate	Run3	generate/STIM_005.jpg
1894.822	2.202	correct	generate	Run3	generate/STIM_005.jpg
1899.706	1.029	correct	generate	Run3	generate/STIM_006.jpg
1904.544	1.444	correct	generate	Run3	generate/STIM_006.jpg
1909.061	1.947	correct	generate	Run3	generate/STIM_006.jpg
1914.021	1.252	correct	generate	Run3	generate/STIM_006.jpg
1918.831	1.39	correct	generate	Run3	generate/STIM_006.jpg
1923.696	1.913	incorrect	generate	Run3	generate/STIM_007.jpg
1927.699	1.629	correct	generate	Run3	generate/STIM_007.jpg
1931.535	2.231	correct	generate	Run3	generate/STIM_007.jpg
1937.148	1.353	correct	generate	Run3	generate/STIM_007.jpg
1942.231	1.093	correct	generate	Run3	generate/STIM_007.jpg
1946.911	1.462	correct	generate	Run3	generate/STIM_008.jpg
1951.991	1.547	correct	generate	Run3	generate/STIM_008.jpg
1955.66	2.064	correct	generate	Run3	generate/STIM_008.jpg
1960.202	1.921	correct	generate	Run3	generate/STIM_008.jpg
1964.631	1.554	correct	generate	Run3	generate/STIM_008.jpg
1969.176	0.954	correct	generate	Run3	generate/STIM_009.jpg
1972.545	1.802	correct	generate	Run3	generate/STIM_009.jpg
1977.509	1.322	correct	generate	Run3	generate/STIM_009.jpg
1982.076	1.186	correct	generate	Run3	generate/STIM_009.jpg
1985.423	1.907	correct	generate	Run3	generate/STIM_009.jpg
1990.05	2.332	correct	generate	Run3	generate/STIM_010.jpg
1995.769	1.359	correct	generate	Run3	generate/STIM_010.jpg
1999.956	2.012	correct	generate	Run3	generate/STIM_010.jpg
2003.971	1.773	correct	generate	Run3	generate/STIM_010.jpg
2009.475	1.628	correct	generate	Run3	generate/STIM_010.jpg
2013.567	2.056	correct	generate	Run3	generate/STIM_011.jpg
2018.225	2.288	correct	generate	Run3	generate/STIM_011.jpg
2023.606	2.007	incorrect	generate	Run3	generate/STIM_011.jpg
2028.551	1.401	correct	generate	Run3	generate/STIM_011.jpg
2033.255	0.965	correct	generate	Run3	generate/STIM_011.jpg
2037.869	1.836	correct	generate	Run3	generate/STIM_012.jpg
2041.887	1.937	correct	generate	Run3	generate/STIM_012.jpg
2046.153	1.242	correct	generate	Run3	generate/STIM_012.jpg
2050.321	1.284	correct	generate	Run3	generate/STIM_012.jpg
2054.262	1.106	correct	generate	Run3	generate/STIM_012.jpg
2058.915	1.21	correct	generate	Run3	generate/STIM_013.jpg
2062.601	1.83	correct	generate	Run3	generate/STIM_013.jpg
2067.816	2.131	correct	generate	Run3	generate/STIM_013.jpg
2072.391	1.216	correct	generate	Run3	generate/STIM_013.jpg
2075.669	1.393	correct	generate	Run3	generate/STIM_013.jpg
2080.323	1.169	correct	generate	Run3	generate/STIM_014.jpg
2084.692	1.483	correct	generate	Run3	generate/STIM_014.jpg
2089.024	2.268	correct	generate	Run3	generate/STIM_014.jpg
2094.11	0.98	correct	generate	Run3	generate/STIM_014.jpg
2098.773	2.169	correct	generate	Run3	generate/STIM_014.jpg
2103.311	2.018	correct	generate	Run3	generate/STIM_015.jpg
2108.773	1.876	correct	generate	Run3	generate/STIM_015.jpg
2113.1	1.56	correct	generate	Run3	generate/STIM_015.jpg
2117.041	1.233	correct	generate	Run3	generate/STIM_015.jpg
2120.466	1.348	correct	generate	Run3	generate/STIM_015.jpg
2123.723	1.071	correct	generate	Run3	generate/STIM_016.jpg
2128.604	2.136	correct	generate	Run3	generate/STIM_016.jpg
2133.413	1.925	correct	generate	Run3	generate/STIM_016.jpg
2138.814	1.947	correct	generate	Run3	generate/STIM_016.jpg
2143.139	1.775	correct	generate	Run3	generate/STIM_016.jpg
2147.768	1.502	correct	generate	Run3	generate/STIM_017.jpg
2152.558	1.455	correct	generate	Run3	generate/STIM_017.jpg
2156.173	1.193	correct	generate	Run3	generate/STIM_017.jpg
2159.936	1.723	correct	generate	Run3	generate/STIM_017.jpg
2163.764	2.331	correct	generate	Run3	generate/STIM_017.jpg
2168.75	0.995	correct	generate	Run3	generate/STIM_018.jpg
2172.434	1.806	correct	generate	Run3	generate/STIM_018.jpg
2177.689	1.847	correct	generate	Run3	generate/STIM_018.jpg
2182.28	2.232	correct	generate	Run3	generate/STIM_018.jpg
2186.984	1.867	correct	generate	Run3	generate/STIM_018.jpg
2191.427	1.071	correct	generate	Run3	generate/STIM_019.jpg
2194.529	1.484	correct	generate	Run3	generate/STIM_019.jpg
2197.963	2.029	correct	generate	Run3	generate/STIM_019.jpg
2203.161	1.747	correct	generate	Run3	generate/STIM_019.jpg
2207.882	1.312	correct	generate	Run3	generate/STIM_019.jpg
2212.082	2.074	correct	generate	Run3	generate/STIM_020.jpg
2216.451	1.174	incorrect	generate	Run3	generate/STIM_020.jpg
2220.095	2.028	correct	generate	Run3	generate/STIM_020.jpg
2224.228	1.539	correct	generate	Run3	generate/STIM_020.jpg
2228.679	1.978	correct	generate	Run3	generate/STIM_020.jpg
2234.39	1.428	correct	generate	Run3	generate/STIM_021.jpg
2238.172	1.825	correct	generate	Run3	generate/STIM_021.jpg
2243.387	2.172	correct	generate	Run3	generate/STIM_021.jpg
2248.943	2.218	incorrect	generate	Run3	generate/STIM_021.jpg
2253.559	2.163	correct	generate	Run3	generate/STIM_021.jpg
2258.227	2.053	incorrect	generate	Run3	generate/STIM_022.jpg
2262.827	2.316	correct	generate	Run3	generate/STIM_022.jpg
2268.551	1.349	correct	generate	Run3	generate/STIM_022.jpg
2273.131	1.783	correct	generate	Run3	generate/STIM_022.jpg
2278.121	2.063	correct	generate	Run3	generate/STIM_022.jpg
2283.382	1.558	correct	generate	Run3	generate/STIM_023.jpg
2287.965	1.393	correct	generate	Run3	generate/STIM_023.jpg
2291.598	1.948	incorrect	generate	Run3	generate/STIM_023.jpg
2297.072	1.325	correct	generate	Run3	generate/STIM_023.jpg
2301.191	1.447	correct	generate	Run3	generate/STIM_023.jpg
2305.511	2.164	incorrect	generate	Run3	generate/STIM_024.jpg
2309.529	2.083	correct	generate	Run3	generate/STIM_024.jpg
2314.471	1.387	correct	generate	Run3	generate/STIM_024.jpg
2319.581	2.165	incorrect	generate	Run3	generate/STIM_024.jpg
2323.532	2.11	correct	generate	Run3	generate/STIM_024.jpg
2328.968	0.61	correct	repeat	Run3	repeat/STIM_000.jpg
2332.216	0.499	correct	repeat	Run3	repeat/STIM_000.jpg
2334.916	0.614	correct	repeat	Run3	repeat/STIM_000.jpg
2338.942	0.728	correct	repeat	Run3	repeat/STIM_000.jpg
2343.389	0.815	correct	repeat	Run3	repeat/STIM_000.jpg
2347.2	0.651	correct	repeat	Run3	repeat/STIM_001.jpg
2350.637	0.949	correct	repeat	Run3	repeat/STIM_001.jpg
2355.184	0.536	correct	repeat	Run3	repeat/STIM_001.jpg
2358.716	0.959	correct	repeat	Run3	repeat/STIM_001.jpg
2363.439	0.492	incorrect	repeat	Run3	repeat/STIM_001.jpg
2367.17	0.969	correct	repeat	Run3	repeat/STIM_002.jpg
2370.504	0.752	correct	repeat	Run3	repeat/STIM_002.jpg
2373.36	0.964	correct	repeat	Run3	repeat/STIM_002.jpg
2376.927	0.739	correct	repeat	Run3	repeat/STIM_002.jpg
2381.091	0.848	correct	repeat	Run3	repeat/STIM_002.jpg
2384.841	0.734	correct	repeat	Run3	repeat/STIM_003.jpg
2387.969	0.663	correct	repeat	Run3	repeat/STIM_003.jpg
2392.055	0.874	correct	repeat	Run3	repeat/STIM_003.jpg
2395.208	0.711	correct	repeat	Run3	repeat/STIM_003.jpg
2399.398	0.931	correct	repeat	Run3	repeat/STIM_003.jpg
2403.721	0.743	correct	repeat	Run3	repeat/STIM_004.jpg
2408.041	0.714	correct	repeat	Run3	repeat/STIM_004.jpg
2412.284	0.809	incorrect	repeat	Run3	repeat/STIM_004.jpg
2416.704	0.592	correct	repeat	Run3	repeat/STIM_004.jpg
2419.686	0.526	correct	repeat	Run3	repeat/STIM_004.jpg
2422.91	0.986	correct	repeat	Run3	repeat/STIM_005.jpg
2427.448	1.053	incorrect	repeat	Run3	repeat/STIM_005.jpg
2432.261	0.895	correct	repeat	Run3	repeat/STIM_005.jpg
2435.735	0.822	correct	repeat	Run3	repeat/STIM_005.jpg
2439.087	1.029	correct	repeat	Run3	repeat/STIM_005.jpg
2443.855	1.102	correct	repeat	Run3	repeat/STIM_006.jpg
2447.115	0.463	correct	repeat	Run3	repeat/STIM_006.jpg
2451.436	0.935	correct	repeat	Run3	repeat/STIM_006.jpg
2456.061	0.728	correct	repeat	Run3	repeat/STIM_006.jpg
2459.264	1.043	correct	repeat	Run3	repeat/STIM_006.jpg
2463.304	0.849	correct	repeat	Run3	repeat/STIM_007.jpg
2466.127	1.03	correct	repeat	Run3	repeat/STIM_007.jpg
2469.92	0.824	correct	repeat	Run3	repeat/STIM_007.jpg
2472.928	0.601	incorrect	repeat	Run3	repeat/STIM_007.jpg
2476.342	0.754	correct	repeat	Run3	repeat/STIM_007.jpg
2480.644	0.843	correct	repeat	Run3	repeat/STIM_008.jpg
2483.705	1.004	correct	repeat	Run3	repeat/STIM_008.jpg
2487.172	0.832	correct	repeat	Run3	repeat/STIM_008.jpg
2491.25	0.759	correct	repeat	Run3	repeat/STIM_008.jpg
2495.489	0.671	correct	repeat	Run3	repeat/STIM_008.jpg
2498.309	0.937	correct	repeat	Run3	repeat/STIM_009.jpg
2501.43	0.791	correct	repeat	Run3	repeat/STIM_009.jpg
2505.134	0.758	correct	repeat	Run3	repeat/STIM_009.jpg
2508.69	0.744	correct	repeat	Run3	repeat/STIM_009.jpg
2511.837	0.869	correct	repeat	Run3	repeat/STIM_009.jpg
2516.413	0.907	correct	repeat	Run3	repeat/STIM_010.jpg
2520.566	0.814	correct	repeat	Run3	repeat/STIM_010.jpg
2523.471	0.59	correct	repeat	Run3	repeat/STIM_010.jpg
2527.076	0.968	incorrect	repeat	Run3	repeat/STIM_010.jpg
2531.249	1.025	correct	repeat	Run3	repeat/STIM_010.jpg
2535.909	0.653	correct	repeat	Run3	repeat/STIM_011.jpg
2540.435	0.947	correct	repeat	Run3	repeat/STIM_011.jpg
2543.679	0.672	correct	repeat	Run3	repeat/STIM_011.jpg
2546.425	0.825	correct	repeat	Run3	repeat/STIM_011.jpg
2549.212	0.903	correct	repeat	Run3	repeat/STIM_011.jpg
2552.664	0.704	correct	repeat	Run3	repeat/STIM_012.jpg
2556.086	0.924	correct	repeat	Run3	repeat/STIM_012.jpg
2560.759	1.024	correct	repeat	Run3	repeat/STIM_012.jpg
2564.282	0.605	correct	repeat	Run3	repeat/STIM_012.jpg
2568.106	0.712	correct	repeat	Run3	repeat/STIM_012.jpg
2571.71	1.023	incorrect	repeat	Run3	repeat/STIM_013.jpg
2574.723	1.092	correct	repeat	Run3	repeat/STIM_013.jpg
2577.879	1.002	correct	repeat	Run3	repeat/STIM_013.jpg
2581.116	0.633	correct	repeat	Run3	repeat/STIM_013.jpg
2584.812	0.914	correct	repeat	Run3	repeat/STIM_013.jpg
2589.532	0.726	correct	repeat	Run3	repeat/STIM_014.jpg
2592.609	1.111	correct	repeat	Run3	repeat/STIM_014.jpg
2597.357	0.794	correct	repeat	Run3	repeat/STIM_014.jpg
2601.344	0.766	correct	repeat	Run3	repeat/STIM_014.jpg
2604.723	0.564	correct	repeat	Run3	repeat/STIM_014.jpg
2607.459	1.71	correct	generate	Run4	generate/STIM_000.jpg
2611.327	1.426	correct	generate	Run4	generate/STIM_000.jpg
2616.565	1.502	correct	generate	Run4	generate/STIM_000.jpg
2621.172	1.863	correct	generate	Run4	generate/STIM_000.jpg
2626.298	1.513	correct	generate	Run4	generate/STIM_000.jpg
2630.425	1.958	correct	generate	Run4	generate/STIM_001.jpg
2634.744	0.921	correct	generate	Run4	generate/STIM_001.jpg
2638.241	1.799	correct	generate	Run4	generate/STIM_001.jpg
2642.04	2.07	correct	generate	Run4	generate/STIM_001.jpg
2646.94	1.117	correct	generate	Run4	generate/STIM_001.jpg
2651.307	1.873	correct	generate	Run4	generate/STIM_002.jpg
2656.073	0.912	correct	generate	Run4	generate/STIM_002.jpg
2660.553	1.201	correct	generate	Run4	generate/STIM_002.jpg
2664.312	1.327	correct	generate	Run4	generate/STIM_002.jpg
2667.937	1.689	correct	generate	Run4	generate/STIM_002.jpg
2672.233	0.979	correct	generate	Run4	generate/STIM_003.jpg
2676.849	0.922	correct	generate	Run4	generate/STIM_003.jpg
2680.939	1.604	correct	generate	Run4	generate/STIM_003.jpg
2686.188	0.946	correct	generate	Run4	generate/STIM_003.jpg
2689.376	1.495	correct	generate	Run4	generate/STIM_003.jpg
2693.528	2.137	correct	generate	Run4	generate/STIM_004.jpg
2698.871	1.6	incorrect	generate	Run4	generate/STIM_004.jpg
2702.707	1.907	correct	generate	Run4	generate/STIM_004.jpg
2708.39	1.471	correct	generate	Run4	generate/STIM_004.jpg
2711.788	1.249	correct	generate	Run4	generate/STIM_004.jpg
2715.777	1.067	correct	generate	Run4	generate/STIM_005.jpg
2719.331	1.689	correct	generate	Run4	generate/STIM_005.jpg
2723.912	1.973	correct	generate	Run4	generate/STIM_005.jpg
2728.039	1.437	correct	generate	Run4	generate/STIM_005.jpg
2732.138	1.071	correct	generate	Run4	generate/STIM_005.jpg
2735.413	1.904	correct	generate	Run4	generate/STIM_006.jpg
2740.723	1.822	correct	generate	Run4	generate/STIM_006.jpg
2745.23	2.207	correct	generate	Run4	generate/STIM_006.jpg
2751.141	1.33	correct	generate	Run4	generate/STIM_006.jpg
2755.34	2.251	correct	generate	Run4	generate/STIM_006.jpg
2759.905	2.107	correct	generate	Run4	generate/STIM_007.jpg
2764.45	0.954	correct	generate	Run4	generate/STIM_007.jpg
2767.46	1.033	correct	generate	Run4	generate/STIM_007.jpg
2771.358	2.114	correct	generate	Run4	generate/STIM_007.jpg
2776.172	1.152	correct	generate	Run4	generate/STIM_007.jpg
2779.667	1.434	correct	generate	Run4	generate/STIM_008.jpg
2783.953	2.074	correct	generate	Run4	generate/STIM_008.jpg
2789.458	1.345	correct	generate	Run4	generate/STIM_008.jpg
2793.933	2.248	correct	generate	Run4	generate/STIM_008.jpg
2799.563	2.068	correct	generate	Run4	generate/STIM_008.jpg
2804.706	0.935	correct	generate	Run4	generate/STIM_009.jpg
2807.856	2.116	correct	generate	Run4	generate/STIM_009.jpg
2812.766	1.765	correct	generate	Run4	generate/STIM_009.jpg
2816.487	1.052	correct	generate	Run4	generate/STIM_009.jpg
2820.633	1.63	correct	generate	Run4	generate/STIM_009.jpg
2824.906	2.158	correct	generate	Run4	generate/STIM_010.jpg
2829.884	1.495	correct	generate	Run4	generate/STIM_010.jpg
2834.38	1.773	correct	generate	Run4	generate/STIM_010.jpg
2839.325	1.659	correct	generate	Run4	generate/STIM_010.jpg
2842.867	1.177	correct	generate	Run4	generate/STIM_010.jpg
2847.018	1.716	correct	generate	Run4	generate/STIM_011.jpg
2851.909	2.292	correct	generate	Run4	generate/STIM_011.jpg
2856.292	1.165	correct	generate	Run4	generate/STIM_011.jpg
2860.692	1.82	correct	generate	Run4	generate/STIM_011.jpg
2865.809	1.803	correct	generate	Run4	generate/STIM_011.jpg
2870.021	1.025	correct	generate	Run4	generate/STIM_012.jpg
2874.875	0.971	correct	generate	Run4	generate/STIM_012.jpg
2879.086	1.335	correct	generate	Run4	generate/STIM_012.jpg
2882.464	1.406	correct	generate	Run4	generate/STIM_012.jpg
2886.046	2.228	correct	generate	Run4	generate/STIM_012.jpg
2890.87	1.127	correct	generate	Run4	generate/STIM_013.jpg
2894.887	1.036	correct	generate	Run4	generate/STIM_013.jpg
2898.039	2.237	correct	generate	Run4	generate/STIM_013.jpg
2903.66	0.995	correct	generate	Run4	generate/STIM_013.jpg
2906.706	1.207	correct	generate	Run4	generate/STIM_013.jpg
2910.979	2.281	correct	generate	Run4	generate/STIM_014.jpg
2915.843	1.608	correct	generate	Run4	generate/STIM_014.jpg
2919.713	1.138	correct	generate	Run4	generate/STIM_014.jpg
2923.548	1.198	correct	generate	Run4	generate/STIM_014.jpg
2926.769	1.968	correct	generate	Run4	generate/STIM_014.jpg
2931.267	1.942	correct	generate	Run4	generate/STIM_015.jpg
2936.398	0.994	correct	generate	Run4	generate/STIM_015.jpg
2939.857	1.038	correct	generate	Run4	generate/STIM_015.jpg
2943.408	2.116	correct	generate	Run4	generate/STIM_015.jpg
2948.314	1.786	correct	generate	Run4	generate/STIM_015.jpg
2953.695	2.357	correct	generate	Run4	generate/STIM_016.jpg
2957.875	1.271	correct	generate	Run4	generate/STIM_016.jpg
2961.751	1.071	correct	generate	Run4	generate/STIM_016.jpg
2964.755	2.197	correct	generate	Run4	generate/STIM_016.jpg
2968.864	0.977	correct	generate	Run4	generate/STIM_016.jpg
2971.811	1.174	correct	generate	Run4	generate/STIM_017.jpg
2975.165	1.268	correct	generate	Run4	generate/STIM_017.jpg
2979.681	1.082	correct	generate	Run4	generate/STIM_017.jpg
2984.694	2.154	correct	generate	Run4	generate/STIM_017.jpg
2990.604	2.025	correct	generate	Run4	generate/STIM_017.jpg
2996.331	1.216	correct	generate	Run4	generate/STIM_018.jpg
2999.58	1.622	correct	generate	Run4	generate/STIM_018.jpg
3004.123	1.484	correct	generate	Run4	generate/STIM_018.jpg
3009.107	2.164	correct	generate	Run4	generate/STIM_018.jpg
3014.711	1.674	correct	generate	Run4	generate/STIM_018.jpg
3020.179	1.272	correct	generate	Run4	generate/STIM_019.jpg
3024.419	1.69	correct	generate	Run4	generate/STIM_019.jpg
3029.401	1.582	correct	generate	Run4	generate/STIM_019.jpg
3033.547	1.279	correct	generate	Run4	generate/STIM_019.jpg
3037.126	1.199	correct	generate	Run4	generate/STIM_019.jpg
3040.96	2.242	correct	generate	Run4	generate/STIM_020.jpg
3045.554	1.722	correct	generate	Run4	generate/STIM_020.jpg
3049.307	2.169	correct	generate	Run4	generate/STIM_020.jpg
3054.387	1.211	correct	generate	Run4	generate/STIM_020.jpg
3058.282	2.171	correct	generate	Run4	generate/STIM_020.jpg
3063.153	1.381	correct	generate	Run4	generate/STIM_021.jpg
3068.242	1.574	correct	generate	Run4	generate/STIM_021.jpg
3073.216	1.516	correct	generate	Run4	generate/STIM_021.jpg
3078.368	1.229	correct	generate	Run4	generate/STIM_021.jpg
3082.909	2.198	correct	generate	Run4	generate/STIM_021.jpg
3088.492	1.737	correct	generate	Run4	generate/STIM_022.jpg
3092.452	1.041	correct	generate	Run4	generate/STIM_022.jpg
3096.31	1.209	correct	generate	Run4	generate/STIM_022.jpg
3100.572	1.444	correct	generate	Run4	generate/STIM_022.jpg
3105.518	1.496	correct	generate	Run4	generate/STIM_022.jpg
3109.13	1.989	correct	generate	Run4	generate/STIM_023.jpg
3114.461	2.159	correct	generate	Run4	generate/STIM_023.jpg
3119.311	1.829	correct	generate	Run4	generate/STIM_023.jpg
3123.908	2.257	correct	generate	Run4	generate/STIM_023.jpg
3129.59	1.225	correct	generate	Run4	generate/STIM_023.jpg
3133.161	2.224	correct	generate	Run4	generate/STIM_024.jpg
3138.933	1.579	correct	generate	Run4	generate/STIM_024.jpg
3143.066	2.068	correct	generate	Run4	generate/STIM_024.jpg
3148.332	1.269	correct	generate	Run4	generate/STIM_024.jpg
3151.506	1.003	correct	generate	Run4	generate/STIM_024.jpg
3154.917	0.904	correct	repeat	Run4	repeat/STIM_000.jpg
3157.728	1.093	correct	repeat	Run4	repeat/STIM_000.jpg
3161.089	0.959	correct	repeat	Run4	repeat/STIM_000.jpg
3164.306	0.839	correct	repeat	Run4	repeat/STIM_000.jpg
3168.617	1.044	correct	repeat	Run4	repeat/STIM_000.jpg
3172.535	0.892	correct	repeat	Run4	repeat/STIM_001.jpg
3177.34	0.74	correct	repeat	Run4	repeat/STIM_001.jpg
3180.79	0.811	correct	repeat	Run4	repeat/STIM_001.jpg
3185.086	0.817	correct	repeat	Run4	repeat/STIM_001.jpg
3189.303	0.876	correct	repeat	Run4	repeat/STIM_001.jpg
3192.913	0.844	correct	repeat	Run4	repeat/STIM_002.jpg
3197.583	0.595	correct	repeat	Run4	repeat/STIM_002.jpg
3201.135	0.756	correct	repeat	Run4	repeat/STIM_002.jpg
3204.285	0.61	correct	repeat	Run4	repeat/STIM_002.jpg
3208.246	0.532	correct	repeat	Run4	repeat/STIM_002.jpg
3212.344	0.712	correct	repeat	Run4	repeat/STIM_003.jpg
3216.328	0.689	correct	repeat	Run4	repeat/STIM_003.jpg
3220.892	0.791	correct	repeat	Run4	repeat/STIM_003.jpg
3224.731	1.012	correct	repeat	Run4	repeat/STIM_003.jpg
3228.218	0.771	incorrect	repeat	Run4	repeat/STIM_003.jpg
3231.926	1.061	correct	repeat	Run4	repeat/STIM_004.jpg
3236.076	0.636	correct	repeat	Run4	repeat/STIM_004.jpg
3238.946	0.692	correct	repeat	Run4	repeat/STIM_004.jpg
3243.462	0.873	correct	repeat	Run4	repeat/STIM_004.jpg
3246.764	0.807	correct	repeat	Run4	repeat/STIM_004.jpg
3250.491	0.746	correct	repeat	Run4	repeat/STIM_005.jpg
3254.488	0.436	correct	repeat	Run4	repeat/STIM_005.jpg
3258.656	1.006	correct	repeat	Run4	repeat/STIM_005.jpg
3262.684	0.806	correct	repeat	Run4	repeat/STIM_005.jpg
3266.767	0.728	correct	repeat	Run4	repeat/STIM_005.jpg
3270.957	0.918	correct	repeat	Run4	repeat/STIM_006.jpg
3274.734	0.959	correct	repeat	Run4	repeat/STIM_006.jpg
3279.012	0.609	correct	repeat	Run4	repeat/STIM_006.jpg
3282.929	0.865	correct	repeat	Run4	repeat/STIM_006.jpg
3286.893	0.819	correct	repeat	Run4	repeat/STIM_006.jpg
3290.615	0.867	correct	repeat	Run4	repeat/STIM_007.jpg
3294.058	1.03	correct	repeat	Run4	repeat/STIM_007.jpg
3298.368	0.824	correct	repeat	Run4	repeat/STIM_007.jpg
3301.355	0.715	correct	repeat	Run4	repeat/STIM_007.jpg
3304.385	0.91	correct	repeat	Run4	repeat/STIM_007.jpg
3307.445	0.99	correct	repeat	Run4	repeat/STIM_008.jpg
3311.572	0.998	correct	repeat	Run4	repeat/STIM_008.jpg
3315.893	0.808	correct	repeat	Run4	repeat/STIM_008.jpg
3320.335	0.811	correct	repeat	Run4	repeat/STIM_008.jpg
3323.642	1.086	correct	repeat	Run4	repeat/STIM_008.jpg
3328.099	0.578	correct	repeat	Run4	repeat/STIM_009.jpg
3332.433	0.767	correct	repeat	Run4	repeat/STIM_009.jpg
3336.292	0.765	correct	repeat	Run4	repeat/STIM_009.jpg
3340.196	0.842	correct	repeat	Run4	repeat/STIM_009.jpg
3344.927	0.628	correct	repeat	Run4	repeat/STIM_009.jpg
3349.51	1.117	correct	repeat	Run4	repeat/STIM_010.jpg
3352.786	0.811	correct	repeat	Run4	repeat/STIM_010.jpg
3355.494	1.016	correct	repeat	Run4	repeat/STIM_010.jpg
3359.696	0.958	correct	repeat	Run4	repeat/STIM_010.jpg
3363.145	0.958	correct	repeat	Run4	repeat/STIM_010.jpg
3366.128	0.596	correct	repeat	Run4	repeat/STIM_011.jpg
3370.022	0.733	correct	repeat	Run4	repeat/STIM_011.jpg
3372.737	0.677	correct	repeat	Run4	repeat/STIM_011.jpg
3376.133	0.981	correct	repeat	Run4	repeat/STIM_011.jpg
3380.405	1.02	correct	repeat	Run4	repeat/STIM_011.jpg
3385.155	0.964	correct	repeat	Run4	repeat/STIM_012.jpg
3388.15	0.978	correct	repeat	Run4	repeat/STIM_012.jpg
3391.348	0.716	correct	repeat	Run4	repeat/STIM_012.jpg
3395.724	0.959	correct	repeat	Run4	repeat/STIM_012.jpg
3399.168	0.734	correct	repeat	Run4	repeat/STIM_012.jpg
3401.866	0.597	correct	repeat	Run4	repeat/STIM_013.jpg
3406.234	0.608	correct	repeat	Run4	repeat/STIM_013.jpg
3410.529	1.032	correct	repeat	Run4	repeat/STIM_013.jpg
3414.877	0.806	correct	repeat	Run4	repeat/STIM_013.jpg
3418.622	0.986	correct	repeat	Run4	repeat/STIM_013.jpg
3422.98	0.87	correct	repeat	Run4	repeat/STIM_014.jpg
3426.552	0.836	correct	repeat	Run4	repeat/STIM_014.jpg
3430.947	0.991	correct	repeat	Run4	repeat/STIM_014.jpg
3435.662	0.798	correct	repeat	Run4	repeat/STIM_014.jpg
3439.9	0.787	correct	repeat	Run4	repeat/STIM_014.jpg
