onset	duration	response_time_ms	trial_type	learning_stage	stimulus	response_port
0.0	2.021	2020.5	generate	Run1	generate/STIM_000.jpg	100
4.837	1.784	1783.7	generate	Run1	generate/STIM_000.jpg	99
10.352	2.146	2146.5	generate	Run1	generate/STIM_000.jpg	100
14.735	1.978	1978.2	generate	Run1	generate/STIM_000.jpg	100
19.844	1.736	1736.5	generate	Run1	generate/STIM_000.jpg	99
24.169	2.013	2013.4	generate	Run1	generate/STIM_001.jpg	99
29.85	1.809	1809.4	generate	Run1	generate/STIM_001.jpg	100
35.423	2.564	2564.4	generate	Run1	generate/STIM_001.jpg	100
40.842	1.391	1391.0	generate	Run1	generate/STIM_001.jpg	100
45.344	1.314	1313.7	generate	Run1	generate/STIM_001.jpg	100
49.28	1.799	1798.7	generate	Run1	generate/STIM_002.jpg	100
53.401	2.354	2354.0	generate	Run1	generate/STIM_002.jpg	100
58.627	2.709	2709.3	generate	Run1	generate/STIM_002.jpg	100
64.885	1.892	1892.1	generate	Run1	generate/STIM_002.jpg	99
69.328	1.765	1764.6	generate	Run1	generate/STIM_002.jpg	99
73.797	2.368	2367.7	generate	Run1	generate/STIM_003.jpg	99
78.175	2.393	2392.6	generate	Run1	generate/STIM_003.jpg	100
83.477	1.593	1593.4	generate	Run1	generate/STIM_003.jpg	99
88.098	2.65	2649.7	generate	Run1	generate/STIM_003.jpg	99
94.175	1.441	1440.8	generate	Run1	generate/STIM_003.jpg	99
98.426	1.692	1692.1	generate	Run1	generate/STIM_004.jpg	99
102.284	1.65	1650.5	generate	Run1	generate/STIM_004.jpg	100
107.046	2.853	2852.8	generate	Run1	generate/STIM_004.jpg	100
112.624	2.396	2395.5	generate	Run1	generate/STIM_004.jpg	100
117.668	1.589	1588.7	generate	Run1	generate/STIM_004.jpg	99
121.491	2.719	2719.4	generate	Run1	generate/STIM_005.jpg	100
126.354	3.033	3033.2	generate	Run1	generate/STIM_005.jpg	99
132.507	1.553	1553.0	generate	Run1	generate/STIM_005.jpg	99
137.736	2.42	2420.3	generate	Run1	generate/STIM_005.jpg	99
142.438	1.968	1968.4	generate	Run1	generate/STIM_005.jpg	99
147.87	2.703	2702.9	generate	Run1	generate/STIM_006.jpg	99
152.576	2.781	2781.0	generate	Run1	generate/STIM_006.jpg	100
157.926	2.451	2450.9	generate	Run1	generate/STIM_006.jpg	100
163.545	1.127	1127.3	generate	Run1	generate/STIM_006.jpg	99
166.618	1.729	1728.7	generate	Run1	generate/STIM_006.jpg	100
170.393	1.45	1449.7	generate	Run1	generate/STIM_007.jpg	99
174.056	2.279	2279.1	generate	Run1	generate/STIM_007.jpg	100
178.398	2.539	2539.4	generate	Run1	generate/STIM_007.jpg	99
182.835	1.574	1574.3	generate	Run1	generate/STIM_007.jpg	99
187.6	2.363	2363.2	generate	Run1	generate/STIM_007.jpg	100
192.146	2.853	2853.4	generate	Run1	generate/STIM_008.jpg	99
197.013	2.422	2422.4	generate	Run1	generate/STIM_008.jpg	100
202.437	1.599	1599.1	generate	Run1	generate/STIM_008.jpg	100
206.256	1.351	1350.9	generate	Run1	generate/STIM_008.jpg	100
210.861	1.68	1680.4	generate	Run1	generate/STIM_008.jpg	99
216.41	2.462	2462.4	generate	Run1	generate/STIM_009.jpg	100
221.829	2.205	2205.3	generate	Run1	generate/STIM_009.jpg	100
227.833	2.66	2660.3	generate	Run1	generate/STIM_009.jpg	99
233.469	1.922	1922.4	generate	Run1	generate/STIM_009.jpg	99
238.113	1.86	1860.0	generate	Run1	generate/STIM_009.jpg	99
242.578	2.34	2340.5	generate	Run1	generate/STIM_010.jpg	100
247.426	1.656	1656.4	generate	Run1	generate/STIM_010.jpg	100
252.171	1.787	1787.1	generate	Run1	generate/STIM_010.jpg	100
256.75	1.247	1247.0	generate	Run1	generate/STIM_010.jpg	99
261.209	1.824	1824.2	generate	Run1	generate/STIM_010.jpg	100
265.794	2.349	2349.0	generate	Run1	generate/STIM_011.jpg	100
271.794	1.276	1275.7	generate	Run1	generate/STIM_011.jpg	100
276.344	1.57	1570.4	generate	Run1	generate/STIM_011.jpg	99
280.434	2.703	2703.3	generate	Run1	generate/STIM_011.jpg	100
286.319	2.244	2243.9	generate	Run1	generate/STIM_011.jpg	99
292.251	1.994	1993.6	generate	Run1	generate/STIM_012.jpg	99
296.835	2.797	2797.3	generate	Run1	generate/STIM_012.jpg	100
303.191	1.961	1960.6	generate	Run1	generate/STIM_012.jpg	99
307.396	2.113	2113.4	generate	Run1	generate/STIM_012.jpg	99
312.733	2.655	2655.0	generate	Run1	generate/STIM_012.jpg	99
318.184	1.426	1425.7	generate	Run1	generate/STIM_013.jpg	100
321.879	2.008	2008.1	generate	Run1	generate/STIM_013.jpg	100
325.956	2.271	2271.0	generate	Run1	generate/STIM_013.jpg	99
331.045	1.84	1840.3	generate	Run1	generate/STIM_013.jpg	99
335.574	1.523	1522.8	generate	Run1	generate/STIM_013.jpg	100
339.593	3.189	3189.0	generate	Run1	generate/STIM_014.jpg	100
346.313	1.753	1753.1	generate	Run1	generate/STIM_014.jpg	99
350.04	2.196	2196.0	generate	Run1	generate/STIM_014.jpg	99
355.05	1.73	1730.1	generate	Run1	generate/STIM_014.jpg	99
359.209	1.784	1783.5	generate	Run1	generate/STIM_014.jpg	99
363.15	1.406	1406.2	generate	Run1	generate/STIM_015.jpg	99
367.075	1.954	1953.9	generate	Run1	generate/STIM_015.jpg	99
372.273	1.918	1917.5	generate	Run1	generate/STIM_015.jpg	100
376.119	2.0	2000.1	generate	Run1	generate/STIM_015.jpg	100
380.553	1.945	1945.1	generate	Run1	generate/STIM_015.jpg	99
386.284	2.442	2442.3	generate	Run1	generate/STIM_016.jpg	100
391.482	2.265	2265.1	generate	Run1	generate/STIM_016.jpg	99
396.705	1.373	1372.8	generate	Run1	generate/STIM_016.jpg	99
401.652	1.89	1889.5	generate	Run1	generate/STIM_016.jpg	99
406.161	1.645	1644.8	generate	Run1	generate/STIM_016.jpg	100
410.889	1.715	1714.9	generate	Run1	generate/STIM_017.jpg	99
416.478	1.978	1978.1	generate	Run1	generate/STIM_017.jpg	99
422.257	2.699	2698.6	generate	Run1	generate/STIM_017.jpg	100
428.256	1.705	1705.3	generate	Run1	generate/STIM_017.jpg	99
433.739	2.579	2578.8	generate	Run1	generate/STIM_017.jpg	99
440.053	2.72	2719.8	generate	Run1	generate/STIM_018.jpg	100
444.995	1.885	1884.6	generate	Run1	generate/STIM_018.jpg	100
449.423	1.943	1943.3	generate	Run1	generate/STIM_018.jpg	99
454.09	2.285	2285.3	generate	Run1	generate/STIM_018.jpg	99
459.402	2.213	2213.1	generate	Run1	generate/STIM_018.jpg	99
465.02	2.802	2801.7	generate	Run1	generate/STIM_019.jpg	99
469.693	3.047	3046.9	generate	Run1	generate/STIM_019.jpg	100
474.959	1.924	1924.3	generate	Run1	generate/STIM_019.jpg	99
480.499	1.215	1214.6	generate	Run1	generate/STIM_019.jpg	99
485.133	1.276	1276.3	generate	Run1	generate/STIM_019.jpg	100
489.337	2.923	2923.2	generate	Run1	generate/STIM_020.jpg	99
495.205	2.633	2633.0	generate	Run1	generate/STIM_020.jpg	99
501.494	1.221	1221.3	generate	Run1	generate/STIM_020.jpg	100
505.84	2.39	2390.3	generate	Run1	generate/STIM_020.jpg	100
511.139	1.737	1736.8	generate	Run1	generate/STIM_020.jpg	100
515.498	2.473	2472.6	generate	Run1	generate/STIM_021.jpg	99
520.079	2.908	2908.2	generate	Run1	generate/STIM_021.jpg	99
525.285	1.368	1368.2	generate	Run1	generate/STIM_021.jpg	99
530.066	1.558	1557.8	generate	Run1	generate/STIM_021.jpg	100
534.598	1.691	1691.1	generate	Run1	generate/STIM_021.jpg	99
539.896	2.099	2099.0	generate	Run1	generate/STIM_022.jpg	100
544.517	2.241	2241.4	generate	Run1	generate/STIM_022.jpg	100
550.127	1.448	1448.0	generate	Run1	generate/STIM_022.jpg	100
553.842	1.526	1526.2	generate	Run1	generate/STIM_022.jpg	100
558.315	1.491	1490.8	generate	Run1	generate/STIM_022.jpg	100
563.441	2.613	2612.7	generate	Run1	generate/STIM_023.jpg	100
568.402	1.689	1688.8	generate	Run1	generate/STIM_023.jpg	99
572.457	1.639	1638.8	generate	Run1	generate/STIM_023.jpg	100
577.116	2.851	2851.2	generate	Run1	generate/STIM_023.jpg	100
583.458	1.388	1388.0	generate	Run1	generate/STIM_023.jpg	100
588.525	2.226	2226.2	generate	Run1	generate/STIM_024.jpg	100
594.305	3.115	3114.9	generate	Run1	generate/STIM_024.jpg	99
599.262	2.463	2463.3	generate	Run1	generate/STIM_024.jpg	99
603.725	2.081	2081.3	generate	Run1	generate/STIM_024.jpg	99
608.961	1.107	1107.2	generate	Run1	generate/STIM_024.jpg	100
613.275	0.733	733.2	repeat	Run1	repeat/STIM_000.jpg	100
617.494	0.856	855.6	repeat	Run1	repeat/STIM_000.jpg	99
622.092	1.067	1067.3	repeat	Run1	repeat/STIM_000.jpg	99
626.68	1.01	1010.5	repeat	Run1	repeat/STIM_000.jpg	100
630.686	0.636	636.1	repeat	Run1	repeat/STIM_000.jpg	100
634.833	0.971	971.4	repeat	Run1	repeat/STIM_001.jpg	99
638.195	1.087	1087.0	repeat	Run1	repeat/STIM_001.jpg	100
642.186	0.816	816.5	repeat	Run1	repeat/STIM_001.jpg	100
645.363	1.02	1019.6	repeat	Run1	repeat/STIM_001.jpg	100
649.064	0.7	699.7	repeat	Run1	repeat/STIM_001.jpg	100
653.217	0.804	804.5	repeat	Run1	repeat/STIM_002.jpg	99
656.775	1.043	1043.2	repeat	Run1	repeat/STIM_002.jpg	100
660.675	0.989	988.7	repeat	Run1	repeat/STIM_002.jpg	100
663.757	0.676	676.5	repeat	Run1	repeat/STIM_002.jpg	100
667.132	0.716	716.1	repeat	Run1	repeat/STIM_002.jpg	100
670.329	1.061	1061.1	repeat	Run1	repeat/STIM_003.jpg	99
673.517	1.066	1066.2	repeat	Run1	repeat/STIM_003.jpg	100
676.893	0.962	962.2	repeat	Run1	repeat/STIM_003.jpg	99
679.909	0.787	787.2	repeat	Run1	repeat/STIM_003.jpg	100
683.955	0.624	623.8	repeat	Run1	repeat/STIM_003.jpg	99
688.35	0.772	771.6	repeat	Run1	repeat/STIM_004.jpg	99
692.584	0.808	808.0	repeat	Run1	repeat/STIM_004.jpg	99
695.484	0.961	960.6	repeat	Run1	repeat/STIM_004.jpg	100
699.212	1.012	1012.0	repeat	Run1	repeat/STIM_004.jpg	100
703.01	0.778	778.3	repeat	Run1	repeat/STIM_004.jpg	100
705.931	0.691	690.6	repeat	Run1	repeat/STIM_005.jpg	99
710.455	0.577	576.8	repeat	Run1	repeat/STIM_005.jpg	100
713.831	1.136	1136.4	repeat	Run1	repeat/STIM_005.jpg	99
718.181	1.029	1028.6	repeat	Run1	repeat/STIM_005.jpg	100
721.775	0.893	893.2	repeat	Run1	repeat/STIM_005.jpg	100
726.467	0.686	686.3	repeat	Run1	repeat/STIM_006.jpg	100
729.683	0.73	730.0	repeat	Run1	repeat/STIM_006.jpg	100
733.447	0.638	637.9	repeat	Run1	repeat/STIM_006.jpg	99
736.216	0.743	743.4	repeat	Run1	repeat/STIM_006.jpg	100
740.677	0.85	849.6	repeat	Run1	repeat/STIM_006.jpg	100
745.135	0.56	559.6	repeat	Run1	repeat/STIM_007.jpg	99
747.73	0.938	937.6	repeat	Run1	repeat/STIM_007.jpg	100
750.734	0.919	919.0	repeat	Run1	repeat/STIM_007.jpg	99
754.629	0.783	782.9	repeat	Run1	repeat/STIM_007.jpg	99
757.612	0.932	932.2	repeat	Run1	repeat/STIM_007.jpg	100
760.808	0.787	786.8	repeat	Run1	repeat/STIM_008.jpg	99
764.875	0.646	646.0	repeat	Run1	repeat/STIM_008.jpg	99
769.327	0.82	820.2	repeat	Run1	repeat/STIM_008.jpg	99
774.022	0.936	936.1	repeat	Run1	repeat/STIM_008.jpg	100
778.625	0.712	711.9	repeat	Run1	repeat/STIM_008.jpg	100
781.359	0.974	974.5	repeat	Run1	repeat/STIM_009.jpg	99
784.478	1.025	1024.9	repeat	Run1	repeat/STIM_009.jpg	100
788.548	0.733	733.4	repeat	Run1	repeat/STIM_009.jpg	100
792.678	1.117	1117.4	repeat	Run1	repeat/STIM_009.jpg	100
796.775	0.945	944.9	repeat	Run1	repeat/STIM_009.jpg	100
801.438	0.626	626.4	repeat	Run1	repeat/STIM_010.jpg	100
805.307	0.813	813.2	repeat	Run1	repeat/STIM_010.jpg	99
809.204	1.03	1029.9	repeat	Run1	repeat/STIM_010.jpg	100
813.939	0.997	996.8	repeat	Run1	repeat/STIM_010.jpg	100
818.67	1.0	1000.3	repeat	Run1	repeat/STIM_010.jpg	100
823.545	0.92	919.6	repeat	Run1	repeat/STIM_011.jpg	100
827.884	0.685	685.0	repeat	Run1	repeat/STIM_011.jpg	99
832.513	0.976	975.5	repeat	Run1	repeat/STIM_011.jpg	99
835.666	1.039	1039.4	repeat	Run1	repeat/STIM_011.jpg	99
839.582	1.099	1099.4	repeat	Run1	repeat/STIM_011.jpg	99
843.0	1.012	1012.2	repeat	Run1	repeat/STIM_012.jpg	99
846.239	0.916	916.1	repeat	Run1	repeat/STIM_012.jpg	100
849.59	0.578	578.0	repeat	Run1	repeat/STIM_012.jpg	100
853.27	0.733	733.3	repeat	Run1	repeat/STIM_012.jpg	100
856.587	0.882	881.6	repeat	Run1	repeat/STIM_012.jpg	99
860.982	0.688	687.9	repeat	Run1	repeat/STIM_013.jpg	99
865.295	0.593	592.6	repeat	Run1	repeat/STIM_013.jpg	100
868.511	0.932	932.4	repeat	Run1	repeat/STIM_013.jpg	99
872.325	0.827	826.7	repeat	Run1	repeat/STIM_013.jpg	99
876.874	0.88	880.1	repeat	Run1	repeat/STIM_013.jpg	100
879.722	0.894	894.3	repeat	Run1	repeat/STIM_014.jpg	100
883.11	0.895	895.2	repeat	Run1	repeat/STIM_014.jpg	99
887.361	0.929	929.1	repeat	Run1	repeat/STIM_014.jpg	99
891.168	0.76	760.3	repeat	Run1	repeat/STIM_014.jpg	100
895.695	1.046	1046.5	repeat	Run1	repeat/STIM_014.jpg	100
898.701	2.4	2400.3	generate	Run2	generate/STIM_000.jpg	99
903.938	1.319	1318.7	generate	Run2	generate/STIM_000.jpg	100
907.912	2.086	2086.1	generate	Run2	generate/STIM_000.jpg	100
913.114	1.32	1320.0	generate	Run2	generate/STIM_000.jpg	100
917.042	2.282	2281.6	generate	Run2	generate/STIM_000.jpg	100
921.365	1.877	1876.9	generate	Run2	generate/STIM_001.jpg	99
925.596	1.815	1814.7	generate	Run2	generate/STIM_001.jpg	99
930.484	2.164	2164.5	generate	Run2	generate/STIM_001.jpg	100
936.472	1.492	1492.0	generate	Run2	generate/STIM_001.jpg	99
940.201	1.138	1137.7	generate	Run2	generate/STIM_001.jpg	99
944.816	1.717	1716.9	generate	Run2	generate/STIM_002.jpg	99
948.651	2.352	2352.2	generate	Run2	generate/STIM_002.jpg	100
954.665	1.76	1759.8	generate	Run2	generate/STIM_002.jpg	100
959.877	1.413	1412.9	generate	Run2	generate/STIM_002.jpg	100
963.902	1.313	1312.6	generate	Run2	generate/STIM_002.jpg	100
967.763	2.76	2760.2	generate	Run2	generate/STIM_003.jpg	99
972.338	1.165	1165.2	generate	Run2	generate/STIM_003.jpg	99
976.111	1.519	1519.4	generate	Run2	generate/STIM_003.jpg	99
981.427	2.293	2293.4	generate	Run2	generate/STIM_003.jpg	99
986.114	1.196	1196.1	generate	Run2	generate/STIM_003.jpg	100
990.03	2.684	2683.6	generate	Run2	generate/STIM_004.jpg	99
995.05	2.583	2582.8	generate	Run2	generate/STIM_004.jpg	99
1000.607	1.807	1807.1	generate	Run2	generate/STIM_004.jpg	99
1005.926	1.052	1051.6	generate	Run2	generate/STIM_004.jpg	99
1010.149	1.39	1390.5	generate	Run2	generate/STIM_004.jpg	99
1014.383	1.8	1800.5	generate	Run2	generate/STIM_005.jpg	100
1018.388	2.136	2135.7	generate	Run2	generate/STIM_005.jpg	99
1022.476	2.204	2204.0	generate	Run2	generate/STIM_005.jpg	100
1027.897	1.173	1173.2	generate	Run2	generate/STIM_005.jpg	99
1031.755	2.155	2154.7	generate	Run2	generate/STIM_005.jpg	100
1036.485	2.413	2412.7	generate	Run2	generate/STIM_006.jpg	100
1042.135	2.214	2214.2	generate	Run2	generate/STIM_006.jpg	100
1047.564	1.449	1449.1	generate	Run2	generate/STIM_006.jpg	100
1050.97	1.751	1751.1	generate	Run2	generate/STIM_006.jpg	99
1055.259	1.215	1215.2	generate	Run2	generate/STIM_006.jpg	99
1058.455	1.267	1267.2	generate	Run2	generate/STIM_007.jpg	100
1063.028	1.938	1937.5	generate	Run2	generate/STIM_007.jpg	99
1067.721	1.176	1175.7	generate	Run2	generate/STIM_007.jpg	99
1071.794	2.09	2089.7	generate	Run2	generate/STIM_007.jpg	99
1076.002	1.393	1393.4	generate	Run2	generate/STIM_007.jpg	99
1079.579	1.997	1997.2	generate	Run2	generate/STIM_008.jpg	99
1083.947	1.493	1493.2	generate	Run2	generate/STIM_008.jpg	100
1087.434	1.286	1285.6	generate	Run2	generate/STIM_008.jpg	100
1090.729	2.134	2133.9	generate	Run2	generate/STIM_008.jpg	100
1095.553	0.974	974.2	generate	Run2	generate/STIM_008.jpg	100
1099.688	1.283	1282.6	generate	Run2	generate/STIM_009.jpg	100
1104.801	1.99	1990.0	generate	Run2	generate/STIM_009.jpg	99
1109.332	1.263	1263.1	generate	Run2	generate/STIM_009.jpg	99
1114.145	0.966	965.8	generate	Run2	generate/STIM_009.jpg	100
1118.361	2.047	2046.9	generate	Run2	generate/STIM_009.jpg	99
1124.178	1.509	1508.9	generate	Run2	generate/STIM_010.jpg	99
1129.413	1.266	1266.3	generate	Run2	generate/STIM_010.jpg	100
1134.388	1.742	1742.0	generate	Run2	generate/STIM_010.jpg	100
1138.954	1.054	1054.1	generate	Run2	generate/STIM_010.jpg	100
1142.689	1.887	1887.4	generate	Run2	generate/STIM_010.jpg	100
1147.604	1.828	1827.8	generate	Run2	generate/STIM_011.jpg	100
1153.01	2.097	2096.6	generate	Run2	generate/STIM_011.jpg	100
1158.612	2.05	2050.0	generate	Run2	generate/STIM_011.jpg	100
1164.054	1.887	1886.9	generate	Run2	generate/STIM_011.jpg	100
1168.339	0.98	980.5	generate	Run2	generate/STIM_011.jpg	99
1171.774	1.345	1344.7	generate	Run2	generate/STIM_012.jpg	100
1176.074	1.678	1677.5	generate	Run2	generate/STIM_012.jpg	100
1181.374	1.868	1867.9	generate	Run2	generate/STIM_012.jpg	100
1185.225	1.531	1531.4	generate	Run2	generate/STIM_012.jpg	100
1189.371	1.376	1375.9	generate	Run2	generate/STIM_012.jpg	99
1193.909	2.41	2409.8	generate	Run2	generate/STIM_013.jpg	99
1199.304	2.669	2669.2	generate	Run2	generate/STIM_013.jpg	100
1204.588	2.397	2397.0	generate	Run2	generate/STIM_013.jpg	100
1210.362	1.763	1762.6	generate	Run2	generate/STIM_013.jpg	99
1214.249	1.496	1496.0	generate	Run2	generate/STIM_013.jpg	100
1219.208	2.855	2854.8	generate	Run2	generate/STIM_014.jpg	100
1225.297	2.515	2514.9	generate	Run2	generate/STIM_014.jpg	100
1229.574	1.014	1013.6	generate	Run2	generate/STIM_014.jpg	100
1233.809	0.957	956.8	generate	Run2	generate/STIM_014.jpg	100
1238.459	1.25	1249.5	generate	Run2	generate/STIM_014.jpg	100
1242.847	1.501	1500.7	generate	Run2	generate/STIM_015.jpg	100
1247.682	2.151	2150.8	generate	Run2	generate/STIM_015.jpg	100
1253.38	1.414	1414.1	generate	Run2	generate/STIM_015.jpg	100
1258.186	0.91	909.7	generate	Run2	generate/STIM_015.jpg	100
1261.608	1.463	1463.3	generate	Run2	generate/STIM_015.jpg	99
1265.32	2.47	2470.4	generate	Run2	generate/STIM_016.jpg	100
1269.918	1.413	1413.0	generate	Run2	generate/STIM_016.jpg	99
1274.199	1.495	1495.4	generate	Run2	generate/STIM_016.jpg	100
1279.323	0.974	974.4	generate	Run2	generate/STIM_016.jpg	100
1282.645	1.943	1943.0	generate	Run2	generate/STIM_016.jpg	100
1287.169	1.286	1286.5	generate	Run2	generate/STIM_017.jpg	100
1291.766	2.212	2211.8	generate	Run2	generate/STIM_017.jpg	100
1297.082	2.219	2219.2	generate	Run2	generate/STIM_017.jpg	99
1302.87	1.253	1253.0	generate	Run2	generate/STIM_017.jpg	100
1307.996	2.21	2210.5	generate	Run2	generate/STIM_017.jpg	100
1312.412	1.505	1505.3	generate	Run2	generate/STIM_018.jpg	100
1316.46	1.983	1982.8	generate	Run2	generate/STIM_018.jpg	99
1321.746	2.192	2191.7	generate	Run2	generate/STIM_018.jpg	99
1326.231	1.088	1087.7	generate	Run2	generate/STIM_018.jpg	100
1329.387	1.616	1615.8	generate	Run2	generate/STIM_018.jpg	99
1333.829	2.615	2615.1	generate	Run2	generate/STIM_019.jpg	100
1340.025	2.021	2020.7	generate	Run2	generate/STIM_019.jpg	99
1344.524	1.364	1363.7	generate	Run2	generate/STIM_019.jpg	99
1348.379	1.247	1247.4	generate	Run2	generate/STIM_019.jpg	99
1353.011	2.239	2238.7	generate	Run2	generate/STIM_019.jpg	100
1358.735	1.091	1091.1	generate	Run2	generate/STIM_020.jpg	99
1363.229	2.294	2293.9	generate	Run2	generate/STIM_020.jpg	99
1368.377	1.87	1869.9	generate	Run2	generate/STIM_020.jpg	100
1373.106	1.869	1868.6	generate	Run2	generate/STIM_020.jpg	99
1378.375	2.262	2262.0	generate	Run2	generate/STIM_020.jpg	99
1383.797	1.502	1502.5	generate	Run2	generate/STIM_021.jpg	100
1388.978	1.982	1981.6	generate	Run2	generate/STIM_021.jpg	99
1394.098	2.097	2096.6	generate	Run2	generate/STIM_021.jpg	99
1398.399	1.943	1942.6	generate	Run2	generate/STIM_021.jpg	100
1403.501	1.636	1636.3	generate	Run2	generate/STIM_021.jpg	99
1407.972	1.637	1636.7	generate	Run2	generate/STIM_022.jpg	99
1413.076	1.161	1161.4	generate	Run2	generate/STIM_022.jpg	100
1416.625	2.254	2254.3	generate	Run2	generate/STIM_022.jpg	99
1421.52	1.469	1468.6	generate	Run2	generate/STIM_022.jpg	99
1426.248	1.55	1549.8	generate	Run2	generate/STIM_022.jpg	100
1430.179	2.392	2391.6	generate	Run2	generate/STIM_023.jpg	99
1434.72	2.438	2438.3	generate	Run2	generate/STIM_023.jpg	100
1439.785	2.352	2352.4	generate	Run2	generate/STIM_023.jpg	100
1444.542	0.944	944.4	generate	Run2	generate/STIM_023.jpg	99
1449.121	1.05	1050.0	generate	Run2	generate/STIM_023.jpg	99
1452.416	2.012	2012.0	generate	Run2	generate/STIM_024.jpg	99
1457.932	1.402	1401.7	generate	Run2	generate/STIM_024.jpg	100
1462.271	1.372	1371.7	generate	Run2	generate/STIM_024.jpg	99
1466.521	1.704	1704.1	generate	Run2	generate/STIM_024.jpg	99
1470.733	2.262	2261.5	generate	Run2	generate/STIM_024.jpg	100
1475.467	1.051	1050.7	repeat	Run2	repeat/STIM_000.jpg	100
1479.978	0.905	905.2	repeat	Run2	repeat/STIM_000.jpg	99
1483.648	0.533	533.1	repeat	Run2	repeat/STIM_000.jpg	100
1487.437	0.78	780.5	repeat	Run2	repeat/STIM_000.jpg	99
1491.541	0.905	904.7	repeat	Run2	repeat/STIM_000.jpg	100
1495.311	0.739	739.3	repeat	Run2	repeat/STIM_001.jpg	99
1499.085	0.911	910.9	repeat	Run2	repeat/STIM_001.jpg	100
1502.555	0.777	777.1	repeat	Run2	repeat/STIM_001.jpg	100
1505.582	0.911	910.8	repeat	Run2	repeat/STIM_001.jpg	100
1510.104	0.55	550.1	repeat	Run2	repeat/STIM_001.jpg	100
1513.217	0.588	588.5	repeat	Run2	repeat/STIM_002.jpg	100
1515.941	1.042	1041.6	repeat	Run2	repeat/STIM_002.jpg	100
1520.155	0.616	616.4	repeat	Run2	repeat/STIM_002.jpg	99
1523.029	1.086	1086.4	repeat	Run2	repeat/STIM_002.jpg	100
1526.903	0.786	785.5	repeat	Run2	repeat/STIM_002.jpg	100
1531.23	0.574	573.6	repeat	Run2	repeat/STIM_003.jpg	99
1534.472	0.571	571.2	repeat	Run2	repeat/STIM_003.jpg	99
1538.198	0.694	694.3	repeat	Run2	repeat/STIM_003.jpg	100
1542.659	0.784	784.3	repeat	Run2	repeat/STIM_003.jpg	100
1546.96	0.871	871.0	repeat	Run2	repeat/STIM_003.jpg	99
1550.715	0.547	546.8	repeat	Run2	repeat/STIM_004.jpg	99
1553.399	0.606	606.4	repeat	Run2	repeat/STIM_004.jpg	100
1557.424	0.632	632.2	repeat	Run2	repeat/STIM_004.jpg	100
1561.282	0.887	886.8	repeat	Run2	repeat/STIM_004.jpg	100
1565.94	0.53	529.8	repeat	Run2	repeat/STIM_004.jpg	100
1569.883	0.575	574.7	repeat	Run2	repeat/STIM_005.jpg	99
1573.973	0.977	976.9	repeat	Run2	repeat/STIM_005.jpg	100
1578.381	0.799	798.7	repeat	Run2	repeat/STIM_005.jpg	100
1583.027	1.148	1148.2	repeat	Run2	repeat/STIM_005.jpg	100
1586.668	0.714	714.4	repeat	Run2	repeat/STIM_005.jpg	100
1589.794	1.08	1080.5	repeat	Run2	repeat/STIM_006.jpg	100
1592.808	1.074	1074.1	repeat	Run2	repeat/STIM_006.jpg	100
1597.283	0.961	960.7	repeat	Run2	repeat/STIM_006.jpg	100
1601.739	0.709	709.1	repeat	Run2	repeat/STIM_006.jpg	99
1604.729	0.892	891.9	repeat	Run2	repeat/STIM_006.jpg	99
1608.652	0.561	561.0	repeat	Run2	repeat/STIM_007.jpg	100
1611.231	1.066	1065.9	repeat	Run2	repeat/STIM_007.jpg	99
1615.838	1.03	1029.9	repeat	Run2	repeat/STIM_007.jpg	99
1620.594	0.596	596.3	repeat	Run2	repeat/STIM_007.jpg	99
1624.093	0.837	836.7	repeat	Run2	repeat/STIM_007.jpg	100
1626.993	1.067	1066.8	repeat	Run2	repeat/STIM_008.jpg	100
1631.933	0.781	781.0	repeat	Run2	repeat/STIM_008.jpg	100
1635.418	0.793	792.9	repeat	Run2	repeat/STIM_008.jpg	100
1639.84	0.884	884.3	repeat	Run2	repeat/STIM_008.jpg	100
1644.515	0.678	677.7	repeat	Run2	repeat/STIM_008.jpg	100
1648.249	1.174	1173.5	repeat	Run2	repeat/STIM_009.jpg	99
1652.365	0.832	832.3	repeat	Run2	repeat/STIM_009.jpg	99
1655.071	0.961	961.1	repeat	Run2	repeat/STIM_009.jpg	99
1659.32	1.056	1056.4	repeat	Run2	repeat/STIM_009.jpg	100
1663.256	0.933	932.9	repeat	Run2	repeat/STIM_009.jpg	100
1666.154	1.022	1021.7	repeat	Run2	repeat/STIM_010.jpg	100
1670.32	0.593	592.7	repeat	Run2	repeat/STIM_010.jpg	99
1673.923	0.9	899.9	repeat	Run2	repeat/STIM_010.jpg	99
1677.825	0.669	668.6	repeat	Run2	repeat/STIM_010.jpg	99
1680.461	0.674	674.0	repeat	Run2	repeat/STIM_010.jpg	99
1684.701	0.689	689.4	repeat	Run2	repeat/STIM_011.jpg	100
1688.715	0.933	933.1	repeat	Run2	repeat/STIM_011.jpg	99
1693.147	1.07	1070.1	repeat	Run2	repeat/STIM_011.jpg	100
1697.135	1.025	1025.2	repeat	Run2	repeat/STIM_011.jpg	99
1701.168	1.047	1047.4	repeat	Run2	repeat/STIM_011.jpg	100
1704.874	0.964	964.4	repeat	Run2	repeat/STIM_012.jpg	100
1708.756	0.903	902.8	repeat	Run2	repeat/STIM_012.jpg	99
1713.549	1.056	1056.4	repeat	Run2	repeat/STIM_012.jpg	100
1717.282	1.067	1066.6	repeat	Run2	repeat/STIM_012.jpg	100
1721.751	0.555	555.1	repeat	Run2	repeat/STIM_012.jpg	99
1724.421	0.743	742.6	repeat	Run2	repeat/STIM_013.jpg	99
1728.972	0.762	761.7	repeat	Run2	repeat/STIM_013.jpg	100
1733.5	0.86	860.5	repeat	Run2	repeat/STIM_013.jpg	99
1738.133	1.107	1107.1	repeat	Run2	repeat/STIM_013.jpg	100
1742.572	0.658	657.6	repeat	Run2	repeat/STIM_013.jpg	100
1746.072	1.041	1041.4	repeat	Run2	repeat/STIM_014.jpg	100
1750.514	0.679	678.6	repeat	Run2	repeat/STIM_014.jpg	100
1754.272	0.662	661.7	repeat	Run2	repeat/STIM_014.jpg	100
1757.63	0.874	873.8	repeat	Run2	repeat/STIM_014.jpg	99
1761.54	0.575	575.4	repeat	Run2	repeat/STIM_014.jpg	100
1765.114	1.849	1849.4	generate	Run3	generate/STIM_000.jpg	99
1770.52	1.728	1727.9	generate	Run3	generate/STIM_000.jpg	99
1774.847	1.74	1739.7	generate	Run3	generate/STIM_000.jpg	100
1779.791	2.147	2146.8	generate	Run3	generate/STIM_000.jpg	99
1784.567	1.425	1425.2	generate	Run3	generate/STIM_000.jpg	100
1788.5	2.204	2204.5	generate	Run3	generate/STIM_001.jpg	99
1792.906	1.012	1011.7	generate	Run3	generate/STIM_001.jpg	100
1796.035	1.296	1295.6	generate	Run3	generate/STIM_001.jpg	99
1799.88	1.486	1486.4	generate	Run3	generate/STIM_001.jpg	100
1804.414	1.1	1099.5	generate	Run3	generate/STIM_001.jpg	99
1808.768	1.202	1202.5	generate	Run3	generate/STIM_002.jpg	100
1812.017	1.435	1435.0	generate	Run3	generate/STIM_002.jpg	100
1815.874	1.999	1999.2	generate	Run3	generate/STIM_002.jpg	99
1821.001	1.81	1810.1	generate	Run3	generate/STIM_002.jpg	100
1825.769	0.956	956.3	generate	Run3	generate/STIM_002.jpg	99
1829.769	1.901	1900.6	generate	Run3	generate/STIM_003.jpg	99
1834.926	2.255	2255.2	generate	Run3	generate/STIM_003.jpg	100
1840.445	2.217	2216.9	generate	Run3	generate/STIM_003.jpg	99
1845.662	1.718	1717.6	generate	Run3	generate/STIM_003.jpg	100
1850.105	1.103	1103.4	generate	Run3	generate/STIM_003.jpg	99
1854.718	2.043	2042.7	generate	Run3	generate/STIM_004.jpg	99
1858.905	1.837	1837.1	generate	Run3	generate/STIM_004.jpg	100
1863.007	0.975	975.1	generate	Run3	generate/STIM_004.jpg	99
1867.118	1.882	1881.7	generate	Run3	generate/STIM_004.jpg	99
1872.7	1.417	1417.0	generate	Run3	generate/STIM_004.jpg	99
1876.687	1.54	1540.3	generate	Run3	generate/STIM_005.jpg	99
1881.932	2.272	2271.6	generate	Run3	generate/STIM_005.jpg	99
1886.799	1.348	1348.1	generate	Run3	generate/STIM_005.jpg	100
1890.318	1.071	1070.7	generate	Run3	generate/STIM_005.jpg	99
1894.822	2.202	2201.7	generate	Run3	generate/STIM_005.jpg	100
1899.706	1.029	1029.2	generate	Run3	generate/STIM_006.jpg	99
1904.544	1.444	1443.5	generate	Run3	generate/STIM_006.jpg	99
1909.061	1.947	1947.2	generate	Run3	generate/STIM_006.jpg	100
1914.021	1.252	1251.8	generate	Run3	generate/STIM_006.jpg	100
1918.831	1.39	1390.1	generate	Run3	generate/STIM_006.jpg	100
1923.696	1.913	1912.7	generate	Run3	generate/STIM_007.jpg	99
1927.699	1.629	1629.2	generate	Run3	generate/STIM_007.jpg	99
1931.535	2.231	2230.9	generate	Run3	generate/STIM_007.jpg	99
1937.148	1.353	1352.7	generate	Run3	generate/STIM_007.jpg	100
1942.231	1.093	1093.3	generate	Run3	generate/STIM_007.jpg	100
1946.911	1.462	1462.1	generate	Run3	generate/STIM_008.jpg	99
1951.991	1.547	1546.7	generate	Run3	generate/STIM_008.jpg	99
1955.66	2.064	2063.6	generate	Run3	generate/STIM_008.jpg	99
1960.202	1.921	1921.3	generate	Run3	generate/STIM_008.jpg	99
1964.631	1.554	1554.4	generate	Run3	generate/STIM_008.jpg	100
1969.176	0.954	953.7	generate	Run3	generate/STIM_009.jpg	99
1972.545	1.802	1801.5	generate	Run3	generate/STIM_009.jpg	99
1977.509	1.322	1322.2	generate	Run3	generate/STIM_009.jpg	100
1982.076	1.186	1186.3	generate	Run3	generate/STIM_009.jpg	99
1985.423	1.907	1907.0	generate	Run3	generate/STIM_009.jpg	99
1990.05	2.332	2332.1	generate	Run3	generate/STIM_010.jpg	100
1995.769	1.359	1359.0	generate	Run3	generate/STIM_010.jpg	100
1999.956	2.012	2012.0	generate	Run3	generate/STIM_010.jpg	99
2003.971	1.773	1773.3	generate	Run3	generate/STIM_010.jpg	100
2009.475	1.628	1628.2	generate	Run3	generate/STIM_010.jpg	99
2013.567	2.056	2056.5	generate	Run3	generate/STIM_011.jpg	100
2018.225	2.288	2288.2	generate	Run3	generate/STIM_011.jpg	100
2023.606	2.007	2006.6	generate	Run3	generate/STIM_011.jpg	100
2028.551	1.401	1400.9	generate	Run3	generate/STIM_011.jpg	99
2033.255	0.965	965.4	generate	Run3	generate/STIM_011.jpg	99
2037.869	1.836	1836.0	generate	Run3	generate/STIM_012.jpg	99
2041.887	1.937	1936.9	generate	Run3	generate/STIM_012.jpg	100
2046.153	1.242	1241.5	generate	Run3	generate/STIM_012.jpg	99
2050.321	1.284	1283.5	generate	Run3	generate/STIM_012.jpg	100
2054.262	1.106	1105.9	generate	Run3	generate/STIM_012.jpg	100
2058.915	1.21	1210.2	generate	Run3	generate/STIM_013.jpg	100
2062.601	1.83	1829.6	generate	Run3	generate/STIM_013.jpg	99
2067.816	2.131	2131.3	generate	Run3	generate/STIM_013.jpg	100
2072.391	1.216	1216.4	generate	Run3	generate/STIM_013.jpg	100
2075.669	1.393	1393.4	generate	Run3	generate/STIM_013.jpg	100
2080.323	1.169	1169.1	generate	Run3	generate/STIM_014.jpg	99
2084.692	1.483	1482.6	generate	Run3	generate/STIM_014.jpg	99
2089.024	2.268	2268.3	generate	Run3	generate/STIM_014.jpg	99
2094.11	0.98	979.9	generate	Run3	generate/STIM_014.jpg	99
2098.773	2.169	2169.3	generate	Run3	generate/STIM_014.jpg	99
2103.311	2.018	2017.7	generate	Run3	generate/STIM_015.jpg	99
2108.773	1.876	1875.8	generate	Run3	generate/STIM_015.jpg	100
2113.1	1.56	1560.0	generate	Run3	generate/STIM_015.jpg	100
2117.041	1.233	1233.1	generate	Run3	generate/STIM_015.jpg	99
2120.466	1.348	1348.3	generate	Run3	generate/STIM_015.jpg	99
2123.723	1.071	1071.4	generate	Run3	generate/STIM_016.jpg	99
2128.604	2.136	2136.1	generate	Run3	generate/STIM_016.jpg	99
2133.413	1.925	1924.7	generate	Run3	generate/STIM_016.jpg	100
2138.814	1.947	1946.9	generate	Run3	generate/STIM_016.jpg	100
2143.139	1.775	1774.8	generate	Run3	generate/STIM_016.jpg	99
2147.768	1.502	1502.3	generate	Run3	generate/STIM_017.jpg	99
2152.558	1.455	1454.6	generate	Run3	generate/STIM_017.jpg	99
2156.173	1.193	1193.1	generate	Run3	generate/STIM_017.jpg	99
2159.936	1.723	1723.4	generate	Run3	generate/STIM_017.jpg	100
2163.764	2.331	2331.4	generate	Run3	generate/STIM_017.jpg	99
2168.75	0.995	995.3	generate	Run3	generate/STIM_018.jpg	100
2172.434	1.806	1806.3	generate	Run3	generate/STIM_018.jpg	100
2177.689	1.847	1847.3	generate	Run3	generate/STIM_018.jpg	100
2182.28	2.232	2232.5	generate	Run3	generate/STIM_018.jpg	99
2186.984	1.867	1866.7	generate	Run3	generate/STIM_018.jpg	99
2191.427	1.071	1071.3	generate	Run3	generate/STIM_019.jpg	100
2194.529	1.484	1484.0	generate	Run3	generate/STIM_019.jpg	100
2197.963	2.029	2029.1	generate	Run3	generate/STIM_019.jpg	100
2203.161	1.747	1747.3	generate	Run3	generate/STIM_019.jpg	99
2207.882	1.312	1312.0	generate	Run3	generate/STIM_019.jpg	100
2212.082	2.074	2073.6	generate	Run3	generate/STIM_020.jpg	99
2216.451	1.174	1174.2	generate	Run3	generate/STIM_020.jpg	100
2220.095	2.028	2028.1	generate	Run3	generate/STIM_020.jpg	99
2224.228	1.539	1539.4	generate	Run3	generate/STIM_020.jpg	99
2228.679	1.978	1978.5	generate	Run3	generate/STIM_020.jpg	100
2234.39	1.428	1428.1	generate	Run3	generate/STIM_021.jpg	100
2238.172	1.825	1824.6	generate	Run3	generate/STIM_021.jpg	100
2243.387	2.172	2172.5	generate	Run3	generate/STIM_021.jpg	100
2248.943	2.218	2218.1	generate	Run3	generate/STIM_021.jpg	100
2253.559	2.163	2163.2	generate	Run3	generate/STIM_021.jpg	100
2258.227	2.053	2053.1	generate	Run3	generate/STIM_022.jpg	99
2262.827	2.316	2316.3	generate	Run3	generate/STIM_022.jpg	99
2268.551	1.349	1348.9	generate	Run3	generate/STIM_022.jpg	99
2273.131	1.783	1782.7	generate	Run3	generate/STIM_022.jpg	100
2278.121	2.063	2063.2	generate	Run3	generate/STIM_022.jpg	100
2283.382	1.558	1557.5	generate	Run3	generate/STIM_023.jpg	100
2287.965	1.393	1392.8	generate	Run3	generate/STIM_023.jpg	99
2291.598	1.948	1947.8	generate	Run3	generate/STIM_023.jpg	100
2297.072	1.325	1325.4	generate	Run3	generate/STIM_023.jpg	100
2301.191	1.447	1446.9	generate	Run3	generate/STIM_023.jpg	99
2305.511	2.164	2163.5	generate	Run3	generate/STIM_024.jpg	100
2309.529	2.083	2082.9	generate	Run3	generate/STIM_024.jpg	99
2314.471	1.387	1387.4	generate	Run3	generate/STIM_024.jpg	100
2319.581	2.165	2165.3	generate	Run3	generate/STIM_024.jpg	99
2323.532	2.11	2109.9	generate	Run3	generate/STIM_024.jpg	99
2328.968	0.61	609.7	repeat	Run3	repeat/STIM_000.jpg	100
2332.216	0.499	499.3	repeat	Run3	repeat/STIM_000.jpg	100
2334.916	0.614	613.9	repeat	Run3	repeat/STIM_000.jpg	99
2338.942	0.728	727.7	repeat	Run3	repeat/STIM_000.jpg	99
2343.389	0.815	814.9	repeat	Run3	repeat/STIM_000.jpg	100
2347.2	0.651	651.4	repeat	Run3	repeat/STIM_001.jpg	99
2350.637	0.949	949.4	repeat	Run3	repeat/STIM_001.jpg	99
2355.184	0.536	536.4	repeat	Run3	repeat/STIM_001.jpg	100
2358.716	0.959	958.8	repeat	Run3	repeat/STIM_001.jpg	100
2363.439	0.492	491.9	repeat	Run3	repeat/STIM_001.jpg	99
2367.17	0.969	968.7	repeat	Run3	repeat/STIM_002.jpg	100
2370.504	0.752	751.6	repeat	Run3	repeat/STIM_002.jpg	99
2373.36	0.964	964.3	repeat	Run3	repeat/STIM_002.jpg	100
2376.927	0.739	738.8	repeat	Run3	repeat/STIM_002.jpg	99
2381.091	0.848	847.5	repeat	Run3	repeat/STIM_002.jpg	99
2384.841	0.734	733.9	repeat	Run3	repeat/STIM_003.jpg	100
2387.969	0.663	662.9	repeat	Run3	repeat/STIM_003.jpg	99
2392.055	0.874	873.8	repeat	Run3	repeat/STIM_003.jpg	99
2395.208	0.711	710.6	repeat	Run3	repeat/STIM_003.jpg	100
2399.398	0.931	931.3	repeat	Run3	repeat/STIM_003.jpg	99
2403.721	0.743	742.8	repeat	Run3	repeat/STIM_004.jpg	99
2408.041	0.714	713.8	repeat	Run3	repeat/STIM_004.jpg	99
2412.284	0.809	808.9	repeat	Run3	repeat/STIM_004.jpg	100
2416.704	0.592	592.1	repeat	Run3	repeat/STIM_004.jpg	100
2419.686	0.526	525.6	repeat	Run3	repeat/STIM_004.jpg	99
2422.91	0.986	986.1	repeat	Run3	repeat/STIM_005.jpg	99
2427.448	1.053	1052.9	repeat	Run3	repeat/STIM_005.jpg	100
2432.261	0.895	895.2	repeat	Run3	repeat/STIM_005.jpg	100
2435.735	0.822	822.4	repeat	Run3	repeat/STIM_005.jpg	99
2439.087	1.029	1028.7	repeat	Run3	repeat/STIM_005.jpg	100
2443.855	1.102	1102.4	repeat	Run3	repeat/STIM_006.jpg	99
2447.115	0.463	463.4	repeat	Run3	repeat/STIM_006.jpg	99
2451.436	0.935	934.8	repeat	Run3	repeat/STIM_006.jpg	99
2456.061	0.728	727.6	repeat	Run3	repeat/STIM_006.jpg	100
2459.264	1.043	1043.2	repeat	Run3	repeat/STIM_006.jpg	100
2463.304	0.849	849.3	repeat	Run3	repeat/STIM_007.jpg	99
2466.127	1.03	1029.7	repeat	Run3	repeat/STIM_007.jpg	99
2469.92	0.824	824.4	repeat	Run3	repeat/STIM_007.jpg	100
2472.928	0.601	600.6	repeat	Run3	repeat/STIM_007.jpg	99
2476.342	0.754	753.7	repeat	Run3	repeat/STIM_007.jpg	100
2480.644	0.843	843.3	repeat	Run3	repeat/STIM_008.jpg	100
2483.705	1.004	1004.4	repeat	Run3	repeat/STIM_008.jpg	99
2487.172	0.832	832.2	repeat	Run3	repeat/STIM_008.jpg	99
2491.25	0.759	759.2	repeat	Run3	repeat/STIM_008.jpg	99
2495.489	0.671	671.0	repeat	Run3	repeat/STIM_008.jpg	100
2498.309	0.937	936.8	repeat	Run3	repeat/STIM_009.jpg	100
2501.43	0.791	790.6	repeat	Run3	repeat/STIM_009.jpg	99
2505.134	0.758	758.4	repeat	Run3	repeat/STIM_009.jpg	99
2508.69	0.744	744.4	repeat	Run3	repeat/STIM_009.jpg	100
2511.837	0.869	869.0	repeat	Run3	repeat/STIM_009.jpg	99
2516.413	0.907	906.6	repeat	Run3	repeat/STIM_010.jpg	100
2520.566	0.814	814.5	repeat	Run3	repeat/STIM_010.jpg	99
2523.471	0.59	590.1	repeat	Run3	repeat/STIM_010.jpg	99
2527.076	0.968	967.8	repeat	Run3	repeat/STIM_010.jpg	99
2531.249	1.025	1025.0	repeat	Run3	repeat/STIM_010.jpg	99
2535.909	0.653	653.0	repeat	Run3	repeat/STIM_011.jpg	99
2540.435	0.947	947.0	repeat	Run3	repeat/STIM_011.jpg	99
2543.679	0.672	672.2	repeat	Run3	repeat/STIM_011.jpg	100
2546.425	0.825	824.8	repeat	Run3	repeat/STIM_011.jpg	100
2549.212	0.903	903.0	repeat	Run3	repeat/STIM_011.jpg	100
2552.664	0.704	704.2	repeat	Run3	repeat/STIM_012.jpg	100
2556.086	0.924	923.5	repeat	Run3	repeat/STIM_012.jpg	100
2560.759	1.024	1023.5	repeat	Run3	repeat/STIM_012.jpg	99
2564.282	0.605	604.6	repeat	Run3	repeat/STIM_012.jpg	100
2568.106	0.712	712.0	repeat	Run3	repeat/STIM_012.jpg	100
2571.71	1.023	1023.0	repeat	Run3	repeat/STIM_013.jpg	100
2574.723	1.092	1091.7	repeat	Run3	repeat/STIM_013.jpg	100
2577.879	1.002	1001.5	repeat	Run3	repeat/STIM_013.jpg	100
2581.116	0.633	632.6	repeat	Run3	repeat/STIM_013.jpg	100
2584.812	0.914	913.9	repeat	Run3	repeat/STIM_013.jpg	99
2589.532	0.726	726.1	repeat	Run3	repeat/STIM_014.jpg	99
2592.609	1.111	1111.2	repeat	Run3	repeat/STIM_014.jpg	99
2597.357	0.794	793.8	repeat	Run3	repeat/STIM_014.jpg	99
2601.344	0.766	766.2	repeat	Run3	repeat/STIM_014.jpg	100
2604.723	0.564	564.2	repeat	Run3	repeat/STIM_014.jpg	99
2607.459	1.71	1709.5	generate	Run4	generate/STIM_000.jpg	99
2611.327	1.426	1426.0	generate	Run4	generate/STIM_000.jpg	100
2616.565	1.502	1501.5	generate	Run4	generate/STIM_000.jpg	100
2621.172	1.863	1862.6	generate	Run4	generate/STIM_000.jpg	99
2626.298	1.513	1513.1	generate	Run4	generate/STIM_000.jpg	100
2630.425	1.958	1957.7	generate	Run4	generate/STIM_001.jpg	100
2634.744	0.921	921.4	generate	Run4	generate/STIM_001.jpg	99
2638.241	1.799	1798.8	generate	Run4	generate/STIM_001.jpg	99
2642.04	2.07	2069.6	generate	Run4	generate/STIM_001.jpg	100
2646.94	1.117	1117.2	generate	Run4	generate/STIM_001.jpg	99
2651.307	1.873	1872.6	generate	Run4	generate/STIM_002.jpg	99
2656.073	0.912	911.5	generate	Run4	generate/STIM_002.jpg	100
2660.553	1.201	1200.9	generate	Run4	generate/STIM_002.jpg	100
2664.312	1.327	1326.9	generate	Run4	generate/STIM_002.jpg	100
2667.937	1.689	1689.2	generate	Run4	generate/STIM_002.jpg	99
2672.233	0.979	979.2	generate	Run4	generate/STIM_003.jpg	99
2676.849	0.922	921.9	generate	Run4	generate/STIM_003.jpg	100
2680.939	1.604	1604.2	generate	Run4	generate/STIM_003.jpg	99
2686.188	0.946	946.3	generate	Run4	generate/STIM_003.jpg	99
2689.376	1.495	1494.8	generate	Run4	generate/STIM_003.jpg	100
2693.528	2.137	2137.4	generate	Run4	generate/STIM_004.jpg	99
2698.871	1.6	1600.1	generate	Run4	generate/STIM_004.jpg	99
2702.707	1.907	1907.0	generate	Run4	generate/STIM_004.jpg	100
2708.39	1.471	1471.2	generate	Run4	generate/STIM_004.jpg	100
2711.788	1.249	1249.3	generate	Run4	generate/STIM_004.jpg	100
2715.777	1.067	1067.3	generate	Run4	generate/STIM_005.jpg	100
2719.331	1.689	1689.1	generate	Run4	generate/STIM_005.jpg	100
2723.912	1.973	1972.7	generate	Run4	generate/STIM_005.jpg	99
2728.039	1.437	1437.0	generate	Run4	generate/STIM_005.jpg	100
2732.138	1.071	1070.8	generate	Run4	generate/STIM_005.jpg	99
2735.413	1.904	1903.9	generate	Run4	generate/STIM_006.jpg	99
2740.723	1.822	1822.5	generate	Run4	generate/STIM_006.jpg	99
2745.23	2.207	2207.3	generate	Run4	generate/STIM_006.jpg	99
2751.141	1.33	1329.7	generate	Run4	generate/STIM_006.jpg	99
2755.34	2.251	2250.9	generate	Run4	generate/STIM_006.jpg	100
2759.905	2.107	2107.4	generate	Run4	generate/STIM_007.jpg	99
2764.45	0.954	954.3	generate	Run4	generate/STIM_007.jpg	100
2767.46	1.033	1033.4	generate	Run4	generate/STIM_007.jpg	100
2771.358	2.114	2114.3	generate	Run4	generate/STIM_007.jpg	100
2776.172	1.152	1152.5	generate	Run4	generate/STIM_007.jpg	100
2779.667	1.434	1434.2	generate	Run4	generate/STIM_008.jpg	100
2783.953	2.074	2074.4	generate	Run4	generate/STIM_008.jpg	100
2789.458	1.345	1344.7	generate	Run4	generate/STIM_008.jpg	99
2793.933	2.248	2248.1	generate	Run4	generate/STIM_008.jpg	100
2799.563	2.068	2067.5	generate	Run4	generate/STIM_008.jpg	100
2804.706	0.935	934.7	generate	Run4	generate/STIM_009.jpg	99
2807.856	2.116	2116.2	generate	Run4	generate/STIM_009.jpg	100
2812.766	1.765	1765.0	generate	Run4	generate/STIM_009.jpg	99
2816.487	1.052	1051.6	generate	Run4	generate/STIM_009.jpg	100
2820.633	1.63	1630.3	generate	Run4	generate/STIM_009.jpg	100
2824.906	2.158	2158.3	generate	Run4	generate/STIM_010.jpg	100
2829.884	1.495	1495.2	generate	Run4	generate/STIM_010.jpg	99
2834.38	1.773	1772.7	generate	Run4	generate/STIM_010.jpg	100
2839.325	1.659	1658.6	generate	Run4	generate/STIM_010.jpg	99
2842.867	1.177	1177.1	generate	Run4	generate/STIM_010.jpg	99
2847.018	1.716	1715.9	generate	Run4	generate/STIM_011.jpg	100
2851.909	2.292	2292.0	generate	Run4	generate/STIM_011.jpg	99
2856.292	1.165	1164.6	generate	Run4	generate/STIM_011.jpg	99
2860.692	1.82	1820.1	generate	Run4	generate/STIM_011.jpg	100
2865.809	1.803	1802.8	generate	Run4	generate/STIM_011.jpg	100
2870.021	1.025	1024.7	generate	Run4	generate/STIM_012.jpg	99
2874.875	0.971	971.4	generate	Run4	generate/STIM_012.jpg	99
2879.086	1.335	1335.0	generate	Run4	generate/STIM_012.jpg	100
2882.464	1.406	1406.3	generate	Run4	generate/STIM_012.jpg	99
2886.046	2.228	2228.0	generate	Run4	generate/STIM_012.jpg	100
2890.87	1.127	1127.1	generate	Run4	generate/STIM_013.jpg	100
2894.887	1.036	1036.2	generate	Run4	generate/STIM_013.jpg	99
2898.039	2.237	2236.7	generate	Run4	generate/STIM_013.jpg	100
2903.66	0.995	994.7	generate	Run4	generate/STIM_013.jpg	100
2906.706	1.207	1207.3	generate	Run4	generate/STIM_013.jpg	99
2910.979	2.281	2280.6	generate	Run4	generate/STIM_014.jpg	99
2915.843	1.608	1608.0	generate	Run4	generate/STIM_014.jpg	99
2919.713	1.138	1137.9	generate	Run4	generate/STIM_014.jpg	99
2923.548	1.198	1198.5	generate	Run4	generate/STIM_014.jpg	99
2926.769	1.968	1968.5	generate	Run4	generate/STIM_014.jpg	100
2931.267	1.942	1942.2	generate	Run4	generate/STIM_015.jpg	100
2936.398	0.994	994.5	generate	Run4	generate/STIM_015.jpg	99
2939.857	1.038	1037.7	generate	Run4	generate/STIM_015.jpg	100
2943.408	2.116	2115.6	generate	Run4	generate/STIM_015.jpg	100
2948.314	1.786	1786.3	generate	Run4	generate/STIM_015.jpg	100
2953.695	2.357	2357.2	generate	Run4	generate/STIM_016.jpg	100
2957.875	1.271	1270.6	generate	Run4	generate/STIM_016.jpg	100
2961.751	1.071	1071.4	generate	Run4	generate/STIM_016.jpg	99
2964.755	2.197	2197.0	generate	Run4	generate/STIM_016.jpg	99
2968.864	0.977	977.2	generate	Run4	generate/STIM_016.jpg	99
2971.811	1.174	1173.7	generate	Run4	generate/STIM_017.jpg	99
2975.165	1.268	1267.8	generate	Run4	generate/STIM_017.jpg	100
2979.681	1.082	1082.2	generate	Run4	generate/STIM_017.jpg	100
2984.694	2.154	2154.0	generate	Run4	generate/STIM_017.jpg	100
2990.604	2.025	2025.1	generate	Run4	generate/STIM_017.jpg	99
2996.331	1.216	1216.1	generate	Run4	generate/STIM_018.jpg	99
2999.58	1.622	1621.8	generate	Run4	generate/STIM_018.jpg	99
3004.123	1.484	1484.4	generate	Run4	generate/STIM_018.jpg	100
3009.107	2.164	2164.3	generate	Run4	generate/STIM_018.jpg	99
3014.711	1.674	1673.8	generate	Run4	generate/STIM_018.jpg	100
3020.179	1.272	1271.8	generate	Run4	generate/STIM_019.jpg	100
3024.419	1.69	1689.8	generate	Run4	generate/STIM_019.jpg	100
3029.401	1.582	1582.4	generate	Run4	generate/STIM_019.jpg	100
3033.547	1.279	1278.6	generate	Run4	generate/STIM_019.jpg	100
3037.126	1.199	1198.6	generate	Run4	generate/STIM_019.jpg	100
3040.96	2.242	2241.8	generate	Run4	generate/STIM_020.jpg	100
3045.554	1.722	1722.3	generate	Run4	generate/STIM_020.jpg	99
3049.307	2.169	2169.0	generate	Run4	generate/STIM_020.jpg	99
3054.387	1.211	1210.7	generate	Run4	generate/STIM_020.jpg	99
3058.282	2.171	2171.3	generate	Run4	generate/STIM_020.jpg	100
3063.153	1.381	1381.1	generate	Run4	generate/STIM_021.jpg	99
3068.242	1.574	1573.7	generate	Run4	generate/STIM_021.jpg	99
3073.216	1.516	1515.6	generate	Run4	generate/STIM_021.jpg	99
3078.368	1.229	1229.3	generate	Run4	generate/STIM_021.jpg	99
3082.909	2.198	2197.8	generate	Run4	generate/STIM_021.jpg	100
3088.492	1.737	1737.0	generate	Run4	generate/STIM_022.jpg	100
3092.452	1.041	1041.3	generate	Run4	generate/STIM_022.jpg	100
3096.31	1.209	1208.9	generate	Run4	generate/STIM_022.jpg	99
3100.572	1.444	1444.5	generate	Run4	generate/STIM_022.jpg	99
3105.518	1.496	1496.2	generate	Run4	generate/STIM_022.jpg	100
3109.13	1.989	1988.7	generate	Run4	generate/STIM_023.jpg	99
3114.461	2.159	2159.4	generate	Run4	generate/STIM_023.jpg	100
3119.311	1.829	1828.7	generate	Run4	generate/STIM_023.jpg	99
3123.908	2.257	2256.8	generate	Run4	generate/STIM_023.jpg	100
3129.59	1.225	1225.4	generate	Run4	generate/STIM_023.jpg	100
3133.161	2.224	2224.3	generate	Run4	generate/STIM_024.jpg	99
3138.933	1.579	1578.7	generate	Run4	generate/STIM_024.jpg	99
3143.066	2.068	2068.5	generate	Run4	generate/STIM_024.jpg	99
3148.332	1.269	1268.9	generate	Run4	generate/STIM_024.jpg	99
3151.506	1.003	1003.4	generate	Run4	generate/STIM_024.jpg	100
3154.917	0.904	903.8	repeat	Run4	repeat/STIM_000.jpg	100
3157.728	1.093	1093.2	repeat	Run4	repeat/STIM_000.jpg	99
3161.089	0.959	958.6	repeat	Run4	repeat/STIM_000.jpg	100
3164.306	0.839	839.1	repeat	Run4	repeat/STIM_000.jpg	99
3168.617	1.044	1043.8	repeat	Run4	repeat/STIM_000.jpg	100
3172.535	0.892	891.8	repeat	Run4	repeat/STIM_001.jpg	99
3177.34	0.74	740.2	repeat	Run4	repeat/STIM_001.jpg	100
3180.79	0.811	810.7	repeat	Run4	repeat/STIM_001.jpg	100
3185.086	0.817	817.0	repeat	Run4	repeat/STIM_001.jpg	100
3189.303	0.876	876.0	repeat	Run4	repeat/STIM_001.jpg	99
3192.913	0.844	844.2	repeat	Run4	repeat/STIM_002.jpg	100
3197.583	0.595	594.9	repeat	Run4	repeat/STIM_002.jpg	99
3201.135	0.756	755.9	repeat	Run4	repeat/STIM_002.jpg	100
3204.285	0.61	610.4	repeat	Run4	repeat/STIM_002.jpg	99
3208.246	0.532	531.6	repeat	Run4	repeat/STIM_002.jpg	99
3212.344	0.712	712.3	repeat	Run4	repeat/STIM_003.jpg	100
3216.328	0.689	688.7	repeat	Run4	repeat/STIM_003.jpg	99
3220.892	0.791	791.2	repeat	Run4	repeat/STIM_003.jpg	99
3224.731	1.012	1012.2	repeat	Run4	repeat/STIM_003.jpg	100
3228.218	0.771	771.2	repeat	Run4	repeat/STIM_003.jpg	100
3231.926	1.061	1061.3	repeat	Run4	repeat/STIM_004.jpg	100
3236.076	0.636	636.2	repeat	Run4	repeat/STIM_004.jpg	99
3238.946	0.692	691.8	repeat	Run4	repeat/STIM_004.jpg	100
3243.462	0.873	872.9	repeat	Run4	repeat/STIM_004.jpg	100
3246.764	0.807	807.1	repeat	Run4	repeat/STIM_004.jpg	99
3250.491	0.746	745.9	repeat	Run4	repeat/STIM_005.jpg	99
3254.488	0.436	436.3	repeat	Run4	repeat/STIM_005.jpg	100
3258.656	1.006	1005.7	repeat	Run4	repeat/STIM_005.jpg	100
3262.684	0.806	806.2	repeat	Run4	repeat/STIM_005.jpg	99
3266.767	0.728	727.8	repeat	Run4	repeat/STIM_005.jpg	99
3270.957	0.918	918.4	repeat	Run4	repeat/STIM_006.jpg	99
3274.734	0.959	958.9	repeat	Run4	repeat/STIM_006.jpg	100
3279.012	0.609	609.3	repeat	Run4	repeat/STIM_006.jpg	99
3282.929	0.865	865.2	repeat	Run4	repeat/STIM_006.jpg	100
3286.893	0.819	818.6	repeat	Run4	repeat/STIM_006.jpg	100
3290.615	0.867	866.7	repeat	Run4	repeat/STIM_007.jpg	100
3294.058	1.03	1029.5	repeat	Run4	repeat/STIM_007.jpg	99
3298.368	0.824	823.5	repeat	Run4	repeat/STIM_007.jpg	100
3301.355	0.715	715.4	repeat	Run4	repeat/STIM_007.jpg	99
3304.385	0.91	910.2	repeat	Run4	repeat/STIM_007.jpg	99
3307.445	0.99	990.3	repeat	Run4	repeat/STIM_008.jpg	100
3311.572	0.998	997.7	repeat	Run4	repeat/STIM_008.jpg	100
3315.893	0.808	807.6	repeat	Run4	repeat/STIM_008.jpg	99
3320.335	0.811	811.1	repeat	Run4	repeat/STIM_008.jpg	100
3323.642	1.086	1085.7	repeat	Run4	repeat/STIM_008.jpg	100
3328.099	0.578	578.2	repeat	Run4	repeat/STIM_009.jpg	99
3332.433	0.767	767.2	repeat	Run4	repeat/STIM_009.jpg	100
3336.292	0.765	765.2	repeat	Run4	repeat/STIM_009.jpg	99
3340.196	0.842	842.4	repeat	Run4	repeat/STIM_009.jpg	99
3344.927	0.628	627.7	repeat	Run4	repeat/STIM_009.jpg	100
3349.51	1.117	1116.8	repeat	Run4	repeat/STIM_010.jpg	99
3352.786	0.811	810.9	repeat	Run4	repeat/STIM_010.jpg	99
3355.494	1.016	1016.1	repeat	Run4	repeat/STIM_010.jpg	100
3359.696	0.958	958.3	repeat	Run4	repeat/STIM_010.jpg	100
3363.145	0.958	957.8	repeat	Run4	repeat/STIM_010.jpg	100
3366.128	0.596	596.1	repeat	Run4	repeat/STIM_011.jpg	99
3370.022	0.733	733.3	repeat	Run4	repeat/STIM_011.jpg	100
3372.737	0.677	676.7	repeat	Run4	repeat/STIM_011.jpg	99
3376.133	0.981	980.6	repeat	Run4	repeat/STIM_011.jpg	100
3380.405	1.02	1020.0	repeat	Run4	repeat/STIM_011.jpg	99
3385.155	0.964	963.5	repeat	Run4	repeat/STIM_012.jpg	99
3388.15	0.978	978.0	repeat	Run4	repeat/STIM_012.jpg	100
3391.348	0.716	715.5	repeat	Run4	repeat/STIM_012.jpg	100
3395.724	0.959	959.3	repeat	Run4	repeat/STIM_012.jpg	99
3399.168	0.734	734.1	repeat	Run4	repeat/STIM_012.jpg	100
3401.866	0.597	596.7	repeat	Run4	repeat/STIM_013.jpg	99
3406.234	0.608	608.4	repeat	Run4	repeat/STIM_013.jpg	100
3410.529	1.032	1032.3	repeat	Run4	repeat/STIM_013.jpg	100
3414.877	0.806	806.3	repeat	Run4	repeat/STIM_013.jpg	99
3418.622	0.986	986.5	repeat	Run4	repeat/STIM_013.jpg	100
3422.98	0.87	869.9	repeat	Run4	repeat/STIM_014.jpg	99
3426.552	0.836	835.9	repeat	Run4	repeat/STIM_014.jpg	99
3430.947	0.991	991.0	repeat	Run4	repeat/STIM_014.jpg	99
3435.662	0.798	797.6	repeat	Run4	repeat/STIM_014.jpg	100
3439.9	0.787	787.2	repeat	Run4	repeat/STIM_014.jpg	100
