onset	duration	accuracy_binary	trial_type	learning_stage	stimulus
0.0	2.021	0	generate	Run1	generate/STIM_000.jpg
4.837	1.784	1	generate	Run1	generate/STIM_000.jpg
10.352	2.146	1	generate	Run1	generate/STIM_000.jpg
14.735	1.978	1	generate	Run1	generate/STIM_000.jpg
19.844	1.736	0	generate	Run1	generate/STIM_000.jpg
24.169	2.013	1	generate	Run1	generate/STIM_001.jpg
29.85	1.809	1	generate	Run1	generate/STIM_001.jpg
35.423	2.564	1	generate	Run1	generate/STIM_001.jpg
40.842	1.391	1	generate	Run1	generate/STIM_001.jpg
45.344	1.314	1	generate	Run1	generate/STIM_001.jpg
49.28	1.799	1	generate	Run1	generate/STIM_002.jpg
53.401	2.354	1	generate	Run1	generate/STIM_002.jpg
58.627	2.709	1	generate	Run1	generate/STIM_002.jpg
64.885	1.892	0	generate	Run1	generate/STIM_002.jpg
69.328	1.765	1	generate	Run1	generate/STIM_002.jpg
73.797	2.368	1	generate	Run1	generate/STIM_003.jpg
78.175	2.393	1	generate	Run1	generate/STIM_003.jpg
83.477	1.593	1	generate	Run1	generate/STIM_003.jpg
88.098	2.65	1	generate	Run1	generate/STIM_003.jpg
94.175	1.441	0	generate	Run1	generate/STIM_003.jpg
98.426	1.692	1	generate	Run1	generate/STIM_004.jpg
102.284	1.65	0	generate	Run1	generate/STIM_004.jpg
107.046	2.853	0	generate	Run1	generate/STIM_004.jpg
112.624	2.396	1	generate	Run1	generate/STIM_004.jpg
117.668	1.589	0	generate	Run1	generate/STIM_004.jpg
121.491	2.719	1	generate	Run1	generate/STIM_005.jpg
126.354	3.033	0	generate	Run1	generate/STIM_005.jpg
132.507	1.553	1	generate	Run1	generate/STIM_005.jpg
137.736	2.42	1	generate	Run1	generate/STIM_005.jpg
142.438	1.968	1	generate	Run1	generate/STIM_005.jpg
147.87	2.703	1	generate	Run1	generate/STIM_006.jpg
152.576	2.781	1	generate	Run1	generate/STIM_006.jpg
157.926	2.451	1	generate	Run1	generate/STIM_006.jpg
163.545	1.127	0	generate	Run1	generate/STIM_006.jpg
166.618	1.729	1	generate	Run1	generate/STIM_006.jpg
170.393	1.45	1	generate	Run1	generate/STIM_007.jpg
174.056	2.279	1	generate	Run1	generate/STIM_007.jpg
178.398	2.539	1	generate	Run1	generate/STIM_007.jpg
182.835	1.574	1	generate	Run1	generate/STIM_007.jpg
187.6	2.363	1	generate	Run1	generate/STIM_007.jpg
192.146	2.853	0	generate	Run1	generate/STIM_008.jpg
197.013	2.422	1	generate	Run1	generate/STIM_008.jpg
202.437	1.599	1	generate	Run1	generate/STIM_008.jpg
206.256	1.351	0	generate	Run1	generate/STIM_008.jpg
210.861	1.68	1	generate	Run1	generate/STIM_008.jpg
216.41	2.462	1	generate	Run1	generate/STIM_009.jpg
221.829	2.205	1	generate	Run1	generate/STIM_009.jpg
227.833	2.66	1	generate	Run1	generate/STIM_009.jpg
233.469	1.922	1	generate	Run1	generate/STIM_009.jpg
238.113	1.86	1	generate	Run1	generate/STIM_009.jpg
242.578	2.34	1	generate	Run1	generate/STIM_010.jpg
247.426	1.656	1	generate	Run1	generate/STIM_010.jpg
252.171	1.787	0	generate	Run1	generate/STIM_010.jpg
256.75	1.247	1	generate	Run1	generate/STIM_010.jpg
261.209	1.824	1	generate	Run1	generate/STIM_010.jpg
265.794	2.349	1	generate	Run1	generate/STIM_011.jpg
271.794	1.276	1	generate	Run1	generate/STIM_011.jpg
276.344	1.57	1	generate	Run1	generate/STIM_011.jpg
280.434	2.703	1	generate	Run1	generate/STIM_011.jpg
286.319	2.244	1	generate	Run1	generate/STIM_011.jpg
292.251	1.994	1	generate	Run1	generate/STIM_012.jpg
296.835	2.797	0	generate	Run1	generate/STIM_012.jpg
303.191	1.961	1	generate	Run1	generate/STIM_012.jpg
307.396	2.113	1	generate	Run1	generate/STIM_012.jpg
312.733	2.655	1	generate	Run1	generate/STIM_012.jpg
318.184	1.426	1	generate	Run1	generate/STIM_013.jpg
321.879	2.008	0	generate	Run1	generate/STIM_013.jpg
325.956	2.271	0	generate	Run1	generate/STIM_013.jpg
331.045	1.84	1	generate	Run1	generate/STIM_013.jpg
335.574	1.523	1	generate	Run1	generate/STIM_013.jpg
339.593	3.189	1	generate	Run1	generate/STIM_014.jpg
346.313	1.753	1	generate	Run1	generate/STIM_014.jpg
350.04	2.196	1	generate	Run1	generate/STIM_014.jpg
355.05	1.73	1	generate	Run1	generate/STIM_014.jpg
359.209	1.784	1	generate	Run1	generate/STIM_014.jpg
363.15	1.406	1	generate	Run1	generate/STIM_015.jpg
367.075	1.954	1	generate	Run1	generate/STIM_015.jpg
372.273	1.918	1	generate	Run1	generate/STIM_015.jpg
376.119	2.0	1	generate	Run1	generate/STIM_015.jpg
380.553	1.945	1	generate	Run1	generate/STIM_015.jpg
386.284	2.442	1	generate	Run1	generate/STIM_016.jpg
391.482	2.265	1	generate	Run1	generate/STIM_016.jpg
396.705	1.373	1	generate	Run1	generate/STIM_016.jpg
401.652	1.89	1	generate	Run1	generate/STIM_016.jpg
406.161	1.645	1	generate	Run1	generate/STIM_016.jpg
410.889	1.715	0	generate	Run1	generate/STIM_017.jpg
416.478	1.978	1	generate	Run1	generate/STIM_017.jpg
422.257	2.699	1	generate	Run1	generate/STIM_017.jpg
428.256	1.705	0	generate	Run1	generate/STIM_017.jpg
433.739	2.579	1	generate	Run1	generate/STIM_017.jpg
440.053	2.72	1	generate	Run1	generate/STIM_018.jpg
444.995	1.885	1	generate	Run1	generate/STIM_018.jpg
449.423	1.943	1	generate	Run1	generate/STIM_018.jpg
454.09	2.285	1	generate	Run1	generate/STIM_018.jpg
459.402	2.213	1	generate	Run1	generate/STIM_018.jpg
465.02	2.802	1	generate	Run1	generate/STIM_019.jpg
469.693	3.047	0	generate	Run1	generate/STIM_019.jpg
474.959	1.924	1	generate	Run1	generate/STIM_019.jpg
480.499	1.215	1	generate	Run1	generate/STIM_019.jpg
485.133	1.276	0	generate	Run1	generate/STIM_019.jpg
489.337	2.923	1	generate	Run1	generate/STIM_020.jpg
495.205	2.633	1	generate	Run1	generate/STIM_020.jpg
501.494	1.221	1	generate	Run1	generate/STIM_020.jpg
505.84	2.39	1	generate	Run1	generate/STIM_020.jpg
511.139	1.737	1	generate	Run1	generate/STIM_020.jpg
515.498	2.473	1	generate	Run1	generate/STIM_021.jpg
520.079	2.908	1	generate	Run1	generate/STIM_021.jpg
525.285	1.368	1	generate	Run1	generate/STIM_021.jpg
530.066	1.558	1	generate	Run1	generate/STIM_021.jpg
534.598	1.691	1	generate	Run1	generate/STIM_021.jpg
539.896	2.099	1	generate	Run1	generate/STIM_022.jpg
544.517	2.241	0	generate	Run1	generate/STIM_022.jpg
550.127	1.448	1	generate	Run1	generate/STIM_022.jpg
553.842	1.526	1	generate	Run1	generate/STIM_022.jpg
558.315	1.491	1	generate	Run1	generate/STIM_022.jpg
563.441	2.613	1	generate	Run1	generate/STIM_023.jpg
568.402	1.689	0	generate	Run1	generate/STIM_023.jpg
572.457	1.639	1	generate	Run1	generate/STIM_023.jpg
577.116	2.851	1	generate	Run1	generate/STIM_023.jpg
583.458	1.388	1	generate	Run1	generate/STIM_023.jpg
588.525	2.226	1	generate	Run1	generate/STIM_024.jpg
594.305	3.115	1	generate	Run1	generate/STIM_024.jpg
599.262	2.463	0	generate	Run1	generate/STIM_024.jpg
603.725	2.081	1	generate	Run1	generate/STIM_024.jpg
608.961	1.107	1	generate	Run1	generate/STIM_024.jpg
613.275	0.733	1	repeat	Run1	repeat/STIM_000.jpg
617.494	0.856	1	repeat	Run1	repeat/STIM_000.jpg
622.092	1.067	1	repeat	Run1	repeat/STIM_000.jpg
626.68	1.01	1	repeat	Run1	repeat/STIM_000.jpg
630.686	0.636	1	repeat	Run1	repeat/STIM_000.jpg
634.833	0.971	1	repeat	Run1	repeat/STIM_001.jpg
638.195	1.087	1	repeat	Run1	repeat/STIM_001.jpg
642.186	0.816	1	repeat	Run1	repeat/STIM_001.jpg
645.363	1.02	1	repeat	Run1	repeat/STIM_001.jpg
649.064	0.7	1	repeat	Run1	repeat/STIM_001.jpg
653.217	0.804	1	repeat	Run1	repeat/STIM_002.jpg
656.775	1.043	1	repeat	Run1	repeat/STIM_002.jpg
660.675	0.989	1	repeat	Run1	repeat/STIM_002.jpg
663.757	0.676	1	repeat	Run1	repeat/STIM_002.jpg
667.132	0.716	1	repeat	Run1	repeat/STIM_002.jpg
670.329	1.061	1	repeat	Run1	repeat/STIM_003.jpg
673.517	1.066	1	repeat	Run1	repeat/STIM_003.jpg
676.893	0.962	1	repeat	Run1	repeat/STIM_003.jpg
679.909	0.787	1	repeat	Run1	repeat/STIM_003.jpg
683.955	0.624	1	repeat	Run1	repeat/STIM_003.jpg
688.35	0.772	1	repeat	Run1	repeat/STIM_004.jpg
692.584	0.808	1	repeat	Run1	repeat/STIM_004.jpg
695.484	0.961	1	repeat	Run1	repeat/STIM_004.jpg
699.212	1.012	1	repeat	Run1	repeat/STIM_004.jpg
703.01	0.778	1	repeat	Run1	repeat/STIM_004.jpg
705.931	0.691	1	repeat	Run1	repeat/STIM_005.jpg
710.455	0.577	1	repeat	Run1	repeat/STIM_005.jpg
713.831	1.136	1	repeat	Run1	repeat/STIM_005.jpg
718.181	1.029	1	repeat	Run1	repeat/STIM_005.jpg
721.775	0.893	1	repeat	Run1	repeat/STIM_005.jpg
726.467	0.686	1	repeat	Run1	repeat/STIM_006.jpg
729.683	0.73	1	repeat	Run1	repeat/STIM_006.jpg
733.447	0.638	1	repeat	Run1	repeat/STIM_006.jpg
736.216	0.743	1	repeat	Run1	repeat/STIM_006.jpg
740.677	0.85	1	repeat	Run1	repeat/STIM_006.jpg
745.135	0.56	1	repeat	Run1	repeat/STIM_007.jpg
747.73	0.938	1	repeat	Run1	repeat/STIM_007.jpg
750.734	0.919	1	repeat	Run1	repeat/STIM_007.jpg
754.629	0.783	1	repeat	Run1	repeat/STIM_007.jpg
757.612	0.932	1	repeat	Run1	repeat/STIM_007.jpg
760.808	0.787	1	repeat	Run1	repeat/STIM_008.jpg
764.875	0.646	1	repeat	Run1	repeat/STIM_008.jpg
769.327	0.82	1	repeat	Run1	repeat/STIM_008.jpg
774.022	0.936	1	repeat	Run1	repeat/STIM_008.jpg
778.625	0.712	1	repeat	Run1	repeat/STIM_008.jpg
781.359	0.974	1	repeat	Run1	repeat/STIM_009.jpg
784.478	1.025	1	repeat	Run1	repeat/STIM_009.jpg
788.548	0.733	1	repeat	Run1	repeat/STIM_009.jpg
792.678	1.117	1	repeat	Run1	repeat/STIM_009.jpg
796.775	0.945	1	repeat	Run1	repeat/STIM_009.jpg
801.438	0.626	1	repeat	Run1	repeat/STIM_010.jpg
805.307	0.813	1	repeat	Run1	repeat/STIM_010.jpg
809.204	1.03	1	repeat	Run1	repeat/STIM_010.jpg
813.939	0.997	1	repeat	Run1	repeat/STIM_010.jpg
818.67	1.0	1	repeat	Run1	repeat/STIM_010.jpg
823.545	0.92	1	repeat	Run1	repeat/STIM_011.jpg
827.884	0.685	1	repeat	Run1	repeat/STIM_011.jpg
832.513	0.976	1	repeat	Run1	repeat/STIM_011.jpg
835.666	1.039	1	repeat	Run1	repeat/STIM_011.jpg
839.582	1.099	1	repeat	Run1	repeat/STIM_011.jpg
843.0	1.012	1	repeat	Run1	repeat/STIM_012.jpg
846.239	0.916	1	repeat	Run1	repeat/STIM_012.jpg
849.59	0.578	1	repeat	Run1	repeat/STIM_012.jpg
853.27	0.733	1	repeat	Run1	repeat/STIM_012.jpg
856.587	0.882	1	repeat	Run1	repeat/STIM_012.jpg
860.982	0.688	1	repeat	Run1	repeat/STIM_013.jpg
865.295	0.593	1	repeat	Run1	repeat/STIM_013.jpg
868.511	0.932	1	repeat	Run1	repeat/STIM_013.jpg
872.325	0.827	1	repeat	Run1	repeat/STIM_013.jpg
876.874	0.88	1	repeat	Run1	repeat/STIM_013.jpg
879.722	0.894	1	repeat	Run1	repeat/STIM_014.jpg
883.11	0.895	1	repeat	Run1	repeat/STIM_014.jpg
887.361	0.929	1	repeat	Run1	repeat/STIM_014.jpg
891.168	0.76	1	repeat	Run1	repeat/STIM_014.jpg
895.695	1.046	1	repeat	Run1	repeat/STIM_014.jpg
898.701	2.4	0	generate	Run2	generate/STIM_000.jpg
903.938	1.319	1	generate	Run2	generate/STIM_000.jpg
907.912	2.086	1	generate	Run2	generate/STIM_000.jpg
913.114	1.32	1	generate	Run2	generate/STIM_000.jpg
917.042	2.282	1	generate	Run2	generate/STIM_000.jpg
921.365	1.877	0	generate	Run2	generate/STIM_001.jpg
925.596	1.815	1	generate	Run2	generate/STIM_001.jpg
930.484	2.164	1	generate	Run2	generate/STIM_001.jpg
936.472	1.492	1	generate	Run2	generate/STIM_001.jpg
940.201	1.138	0	generate	Run2	generate/STIM_001.jpg
944.816	1.717	1	generate	Run2	generate/STIM_002.jpg
948.651	2.352	1	generate	Run2	generate/STIM_002.jpg
954.665	1.76	1	generate	Run2	generate/STIM_002.jpg
959.877	1.413	1	generate	Run2	generate/STIM_002.jpg
963.902	1.313	1	generate	Run2	generate/STIM_002.jpg
967.763	2.76	1	generate	Run2	generate/STIM_003.jpg
972.338	1.165	1	generate	Run2	generate/STIM_003.jpg
976.111	1.519	0	generate	Run2	generate/STIM_003.jpg
981.427	2.293	0	generate	Run2	generate/STIM_003.jpg
986.114	1.196	1	generate	Run2	generate/STIM_003.jpg
990.03	2.684	1	generate	Run2	generate/STIM_004.jpg
995.05	2.583	1	generate	Run2	generate/STIM_004.jpg
1000.607	1.807	1	generate	Run2	generate/STIM_004.jpg
1005.926	1.052	1	generate	Run2	generate/STIM_004.jpg
1010.149	1.39	1	generate	Run2	generate/STIM_004.jpg
1014.383	1.8	1	generate	Run2	generate/STIM_005.jpg
1018.388	2.136	1	generate	Run2	generate/STIM_005.jpg
1022.476	2.204	1	generate	Run2	generate/STIM_005.jpg
1027.897	1.173	0	generate	Run2	generate/STIM_005.jpg
1031.755	2.155	1	generate	Run2	generate/STIM_005.jpg
1036.485	2.413	1	generate	Run2	generate/STIM_006.jpg
1042.135	2.214	1	generate	Run2	generate/STIM_006.jpg
1047.564	1.449	1	generate	Run2	generate/STIM_006.jpg
1050.97	1.751	1	generate	Run2	generate/STIM_006.jpg
1055.259	1.215	1	generate	Run2	generate/STIM_006.jpg
1058.455	1.267	1	generate	Run2	generate/STIM_007.jpg
1063.028	1.938	1	generate	Run2	generate/STIM_007.jpg
1067.721	1.176	1	generate	Run2	generate/STIM_007.jpg
1071.794	2.09	1	generate	Run2	generate/STIM_007.jpg
1076.002	1.393	1	generate	Run2	generate/STIM_007.jpg
1079.579	1.997	1	generate	Run2	generate/STIM_008.jpg
1083.947	1.493	1	generate	Run2	generate/STIM_008.jpg
1087.434	1.286	1	generate	Run2	generate/STIM_008.jpg
1090.729	2.134	1	generate	Run2	generate/STIM_008.jpg
1095.553	0.974	1	generate	Run2	generate/STIM_008.jpg
1099.688	1.283	1	generate	Run2	generate/STIM_009.jpg
1104.801	1.99	0	generate	Run2	generate/STIM_009.jpg
1109.332	1.263	1	generate	Run2	generate/STIM_009.jpg
1114.145	0.966	1	generate	Run2	generate/STIM_009.jpg
1118.361	2.047	1	generate	Run2	generate/STIM_009.jpg
1124.178	1.509	1	generate	Run2	generate/STIM_010.jpg
1129.413	1.266	1	generate	Run2	generate/STIM_010.jpg
1134.388	1.742	1	generate	Run2	generate/STIM_010.jpg
1138.954	1.054	1	generate	Run2	generate/STIM_010.jpg
1142.689	1.887	1	generate	Run2	generate/STIM_010.jpg
1147.604	1.828	1	generate	Run2	generate/STIM_011.jpg
1153.01	2.097	0	generate	Run2	generate/STIM_011.jpg
1158.612	2.05	0	generate	Run2	generate/STIM_011.jpg
1164.054	1.887	0	generate	Run2	generate/STIM_011.jpg
1168.339	0.98	1	generate	Run2	generate/STIM_011.jpg
1171.774	1.345	1	generate	Run2	generate/STIM_012.jpg
1176.074	1.678	1	generate	Run2	generate/STIM_012.jpg
1181.374	1.868	0	generate	Run2	generate/STIM_012.jpg
1185.225	1.531	0	generate	Run2	generate/STIM_012.jpg
1189.371	1.376	1	generate	Run2	generate/STIM_012.jpg
1193.909	2.41	0	generate	Run2	generate/STIM_013.jpg
1199.304	2.669	1	generate	Run2	generate/STIM_013.jpg
1204.588	2.397	1	generate	Run2	generate/STIM_013.jpg
1210.362	1.763	1	generate	Run2	generate/STIM_013.jpg
1214.249	1.496	1	generate	Run2	generate/STIM_013.jpg
1219.208	2.855	1	generate	Run2	generate/STIM_014.jpg
1225.297	2.515	1	generate	Run2	generate/STIM_014.jpg
1229.574	1.014	1	generate	Run2	generate/STIM_014.jpg
1233.809	0.957	1	generate	Run2	generate/STIM_014.jpg
1238.459	1.25	0	generate	Run2	generate/STIM_014.jpg
1242.847	1.501	0	generate	Run2	generate/STIM_015.jpg
1247.682	2.151	1	generate	Run2	generate/STIM_015.jpg
1253.38	1.414	1	generate	Run2	generate/STIM_015.jpg
1258.186	0.91	1	generate	Run2	generate/STIM_015.jpg
1261.608	1.463	1	generate	Run2	generate/STIM_015.jpg
1265.32	2.47	1	generate	Run2	generate/STIM_016.jpg
1269.918	1.413	1	generate	Run2	generate/STIM_016.jpg
1274.199	1.495	1	generate	Run2	generate/STIM_016.jpg
1279.323	0.974	1	generate	Run2	generate/STIM_016.jpg
1282.645	1.943	1	generate	Run2	generate/STIM_016.jpg
1287.169	1.286	1	generate	Run2	generate/STIM_017.jpg
1291.766	2.212	1	generate	Run2	generate/STIM_017.jpg
1297.082	2.219	0	generate	Run2	generate/STIM_017.jpg
1302.87	1.253	1	generate	Run2	generate/STIM_017.jpg
1307.996	2.21	1	generate	Run2	generate/STIM_017.jpg
1312.412	1.505	1	generate	Run2	generate/STIM_018.jpg
1316.46	1.983	1	generate	Run2	generate/STIM_018.jpg
1321.746	2.192	1	generate	Run2	generate/STIM_018.jpg
1326.231	1.088	1	generate	Run2	generate/STIM_018.jpg
1329.387	1.616	1	generate	Run2	generate/STIM_018.jpg
1333.829	2.615	1	generate	Run2	generate/STIM_019.jpg
1340.025	2.021	0	generate	Run2	generate/STIM_019.jpg
1344.524	1.364	1	generate	Run2	generate/STIM_019.jpg
1348.379	1.247	1	generate	Run2	generate/STIM_019.jpg
1353.011	2.239	1	generate	Run2	generate/STIM_019.jpg
1358.735	1.091	1	generate	Run2	generate/STIM_020.jpg
1363.229	2.294	1	generate	Run2	generate/STIM_020.jpg
1368.377	1.87	1	generate	Run2	generate/STIM_020.jpg
1373.106	1.869	0	generate	Run2	generate/STIM_020.jpg
1378.375	2.262	1	generate	Run2	generate/STIM_020.jpg
1383.797	1.502	1	generate	Run2	generate/STIM_021.jpg
1388.978	1.982	1	generate	Run2	generate/STIM_021.jpg
1394.098	2.097	1	generate	Run2	generate/STIM_021.jpg
1398.399	1.943	1	generate	Run2	generate/STIM_021.jpg
1403.501	1.636	1	generate	Run2	generate/STIM_021.jpg
1407.972	1.637	0	generate	Run2	generate/STIM_022.jpg
1413.076	1.161	1	generate	Run2	generate/STIM_022.jpg
1416.625	2.254	1	generate	Run2	generate/STIM_022.jpg
1421.52	1.469	1	generate	Run2	generate/STIM_022.jpg
1426.248	1.55	1	generate	Run2	generate/STIM_022.jpg
1430.179	2.392	1	generate	Run2	generate/STIM_023.jpg
1434.72	2.438	1	generate	Run2	generate/STIM_023.jpg
1439.785	2.352	1	generate	Run2	generate/STIM_023.jpg
1444.542	0.944	1	generate	Run2	generate/STIM_023.jpg
1449.121	1.05	0	generate	Run2	generate/STIM_023.jpg
1452.416	2.012	1	generate	Run2	generate/STIM_024.jpg
1457.932	1.402	0	generate	Run2	generate/STIM_024.jpg
1462.271	1.372	1	generate	Run2	generate/STIM_024.jpg
1466.521	1.704	1	generate	Run2	generate/STIM_024.jpg
1470.733	2.262	1	generate	Run2	generate/STIM_024.jpg
1475.467	1.051	1	repeat	Run2	repeat/STIM_000.jpg
1479.978	0.905	1	repeat	Run2	repeat/STIM_000.jpg
1483.648	0.533	1	repeat	Run2	repeat/STIM_000.jpg
1487.437	0.78	1	repeat	Run2	repeat/STIM_000.jpg
1491.541	0.905	1	repeat	Run2	repeat/STIM_000.jpg
1495.311	0.739	1	repeat	Run2	repeat/STIM_001.jpg
1499.085	0.911	1	repeat	Run2	repeat/STIM_001.jpg
1502.555	0.777	1	repeat	Run2	repeat/STIM_001.jpg
1505.582	0.911	1	repeat	Run2	repeat/STIM_001.jpg
1510.104	0.55	1	repeat	Run2	repeat/STIM_001.jpg
1513.217	0.588	1	repeat	Run2	repeat/STIM_002.jpg
1515.941	1.042	1	repeat	Run2	repeat/STIM_002.jpg
1520.155	0.616	1	repeat	Run2	repeat/STIM_002.jpg
1523.029	1.086	1	repeat	Run2	repeat/STIM_002.jpg
1526.903	0.786	0	repeat	Run2	repeat/STIM_002.jpg
1531.23	0.574	1	repeat	Run2	repeat/STIM_003.jpg
1534.472	0.571	1	repeat	Run2	repeat/STIM_003.jpg
1538.198	0.694	1	repeat	Run2	repeat/STIM_003.jpg
1542.659	0.784	1	repeat	Run2	repeat/STIM_003.jpg
1546.96	0.871	1	repeat	Run2	repeat/STIM_003.jpg
1550.715	0.547	1	repeat	Run2	repeat/STIM_004.jpg
1553.399	0.606	0	repeat	Run2	repeat/STIM_004.jpg
1557.424	0.632	1	repeat	Run2	repeat/STIM_004.jpg
1561.282	0.887	1	repeat	Run2	repeat/STIM_004.jpg
1565.94	0.53	1	repeat	Run2	repeat/STIM_004.jpg
1569.883	0.575	1	repeat	Run2	repeat/STIM_005.jpg
1573.973	0.977	1	repeat	Run2	repeat/STIM_005.jpg
1578.381	0.799	1	repeat	Run2	repeat/STIM_005.jpg
1583.027	1.148	1	repeat	Run2	repeat/STIM_005.jpg
1586.668	0.714	0	repeat	Run2	repeat/STIM_005.jpg
1589.794	1.08	1	repeat	Run2	repeat/STIM_006.jpg
1592.808	1.074	0	repeat	Run2	repeat/STIM_006.jpg
1597.283	0.961	1	repeat	Run2	repeat/STIM_006.jpg
1601.739	0.709	1	repeat	Run2	repeat/STIM_006.jpg
1604.729	0.892	1	repeat	Run2	repeat/STIM_006.jpg
1608.652	0.561	1	repeat	Run2	repeat/STIM_007.jpg
1611.231	1.066	1	repeat	Run2	repeat/STIM_007.jpg
1615.838	1.03	1	repeat	Run2	repeat/STIM_007.jpg
1620.594	0.596	1	repeat	Run2	repeat/STIM_007.jpg
1624.093	0.837	1	repeat	Run2	repeat/STIM_007.jpg
1626.993	1.067	1	repeat	Run2	repeat/STIM_008.jpg
1631.933	0.781	0	repeat	Run2	repeat/STIM_008.jpg
1635.418	0.793	1	repeat	Run2	repeat/STIM_008.jpg
1639.84	0.884	1	repeat	Run2	repeat/STIM_008.jpg
1644.515	0.678	1	repeat	Run2	repeat/STIM_008.jpg
1648.249	1.174	1	repeat	Run2	repeat/STIM_009.jpg
1652.365	0.832	1	repeat	Run2	repeat/STIM_009.jpg
1655.071	0.961	1	repeat	Run2	repeat/STIM_009.jpg
1659.32	1.056	1	repeat	Run2	repeat/STIM_009.jpg
1663.256	0.933	1	repeat	Run2	repeat/STIM_009.jpg
1666.154	1.022	1	repeat	Run2	repeat/STIM_010.jpg
1670.32	0.593	1	repeat	Run2	repeat/STIM_010.jpg
1673.923	0.9	1	repeat	Run2	repeat/STIM_010.jpg
1677.825	0.669	1	repeat	Run2	repeat/STIM_010.jpg
1680.461	0.674	1	repeat	Run2	repeat/STIM_010.jpg
1684.701	0.689	1	repeat	Run2	repeat/STIM_011.jpg
1688.715	0.933	1	repeat	Run2	repeat/STIM_011.jpg
1693.147	1.07	1	repeat	Run2	repeat/STIM_011.jpg
1697.135	1.025	1	repeat	Run2	repeat/STIM_011.jpg
1701.168	1.047	1	repeat	Run2	repeat/STIM_011.jpg
1704.874	0.964	1	repeat	Run2	repeat/STIM_012.jpg
1708.756	0.903	1	repeat	Run2	repeat/STIM_012.jpg
1713.549	1.056	1	repeat	Run2	repeat/STIM_012.jpg
1717.282	1.067	1	repeat	Run2	repeat/STIM_012.jpg
1721.751	0.555	1	repeat	Run2	repeat/STIM_012.jpg
1724.421	0.743	1	repeat	Run2	repeat/STIM_013.jpg
1728.972	0.762	1	repeat	Run2	repeat/STIM_013.jpg
1733.5	0.86	1	repeat	Run2	repeat/STIM_013.jpg
1738.133	1.107	1	repeat	Run2	repeat/STIM_013.jpg
1742.572	0.658	1	repeat	Run2	repeat/STIM_013.jpg
1746.072	1.041	1	repeat	Run2	repeat/STIM_014.jpg
1750.514	0.679	1	repeat	Run2	repeat/STIM_014.jpg
1754.272	0.662	1	repeat	Run2	repeat/STIM_014.jpg
1757.63	0.874	1	repeat	Run2	repeat/STIM_014.jpg
1761.54	0.575	1	repeat	Run2	repeat/STIM_014.jpg
1765.114	1.849	1	generate	Run3	generate/STIM_000.jpg
1770.52	1.728	1	generate	Run3	generate/STIM_000.jpg
1774.847	1.74	0	generate	Run3	generate/STIM_000.jpg
1779.791	2.147	1	generate	Run3	generate/STIM_000.jpg
1784.567	1.425	1	generate	Run3	generate/STIM_000.jpg
1788.5	2.204	1	generate	Run3	generate/STIM_001.jpg
1792.906	1.012	1	generate	Run3	generate/STIM_001.jpg
1796.035	1.296	1	generate	Run3	generate/STIM_001.jpg
1799.88	1.486	1	generate	Run3	generate/STIM_001.jpg
1804.414	1.1	1	generate	Run3	generate/STIM_001.jpg
1808.768	1.202	0	generate	Run3	generate/STIM_002.jpg
1812.017	1.435	0	generate	Run3	generate/STIM_002.jpg
1815.874	1.999	1	generate	Run3	generate/STIM_002.jpg
1821.001	1.81	1	generate	Run3	generate/STIM_002.jpg
1825.769	0.956	1	generate	Run3	generate/STIM_002.jpg
1829.769	1.901	1	generate	Run3	generate/STIM_003.jpg
1834.926	2.255	1	generate	Run3	generate/STIM_003.jpg
1840.445	2.217	0	generate	Run3	generate/STIM_003.jpg
1845.662	1.718	1	generate	Run3	generate/STIM_003.jpg
1850.105	1.103	0	generate	Run3	generate/STIM_003.jpg
1854.718	2.043	1	generate	Run3	generate/STIM_004.jpg
1858.905	1.837	1	generate	Run3	generate/STIM_004.jpg
1863.007	0.975	1	generate	Run3	generate/STIM_004.jpg
1867.118	1.882	1	generate	Run3	generate/STIM_004.jpg
1872.7	1.417	1	generate	Run3	generate/STIM_004.jpg
1876.687	1.54	1	generate	Run3	generate/STIM_005.jpg
1881.932	2.272	1	generate	Run3	generate/STIM_005.jpg
1886.799	1.348	1	generate	Run3	generate/STIM_005.jpg
1890.318	1.071	1	generate	Run3	generate/STIM_005.jpg
1894.822	2.202	1	generate	Run3	generate/STIM_005.jpg
1899.706	1.029	1	generate	Run3	generate/STIM_006.jpg
1904.544	1.444	1	generate	Run3	generate/STIM_006.jpg
1909.061	1.947	1	generate	Run3	generate/STIM_006.jpg
1914.021	1.252	1	generate	Run3	generate/STIM_006.jpg
1918.831	1.39	1	generate	Run3	generate/STIM_006.jpg
1923.696	1.913	0	generate	Run3	generate/STIM_007.jpg
1927.699	1.629	1	generate	Run3	generate/STIM_007.jpg
1931.535	2.231	1	generate	Run3	generate/STIM_007.jpg
1937.148	1.353	1	generate	Run3	generate/STIM_007.jpg
1942.231	1.093	1	generate	Run3	generate/STIM_007.jpg
1946.911	1.462	1	generate	Run3	generate/STIM_008.jpg
1951.991	1.547	1	generate	Run3	generate/STIM_008.jpg
1955.66	2.064	1	generate	Run3	generate/STIM_008.jpg
1960.202	1.921	1	generate	Run3	generate/STIM_008.jpg
1964.631	1.554	1	generate	Run3	generate/STIM_008.jpg
1969.176	0.954	1	generate	Run3	generate/STIM_009.jpg
1972.545	1.802	1	generate	Run3	generate/STIM_009.jpg
1977.509	1.322	1	generate	Run3	generate/STIM_009.jpg
1982.076	1.186	1	generate	Run3	generate/STIM_009.jpg
1985.423	1.907	1	generate	Run3	generate/STIM_009.jpg
1990.05	2.332	1	generate	Run3	generate/STIM_010.jpg
1995.769	1.359	1	generate	Run3	generate/STIM_010.jpg
1999.956	2.012	1	generate	Run3	generate/STIM_010.jpg
2003.971	1.773	1	generate	Run3	generate/STIM_010.jpg
2009.475	1.628	1	generate	Run3	generate/STIM_010.jpg
2013.567	2.056	1	generate	Run3	generate/STIM_011.jpg
2018.225	2.288	1	generate	Run3	generate/STIM_011.jpg
2023.606	2.007	0	generate	Run3	generate/STIM_011.jpg
2028.551	1.401	1	generate	Run3	generate/STIM_011.jpg
2033.255	0.965	1	generate	Run3	generate/STIM_011.jpg
2037.869	1.836	1	generate	Run3	generate/STIM_012.jpg
2041.887	1.937	1	generate	Run3	generate/STIM_012.jpg
2046.153	1.242	1	generate	Run3	generate/STIM_012.jpg
2050.321	1.284	1	generate	Run3	generate/STIM_012.jpg
2054.262	1.106	1	generate	Run3	generate/STIM_012.jpg
2058.915	1.21	1	generate	Run3	generate/STIM_013.jpg
2062.601	1.83	1	generate	Run3	generate/STIM_013.jpg
2067.816	2.131	1	generate	Run3	generate/STIM_013.jpg
2072.391	1.216	1	generate	Run3	generate/STIM_013.jpg
2075.669	1.393	1	generate	Run3	generate/STIM_013.jpg
2080.323	1.169	1	generate	Run3	generate/STIM_014.jpg
2084.692	1.483	1	generate	Run3	generate/STIM_014.jpg
2089.024	2.268	1	generate	Run3	generate/STIM_014.jpg
2094.11	0.98	1	generate	Run3	generate/STIM_014.jpg
2098.773	2.169	1	generate	Run3	generate/STIM_014.jpg
2103.311	2.018	1	generate	Run3	generate/STIM_015.jpg
2108.773	1.876	1	generate	Run3	generate/STIM_015.jpg
2113.1	1.56	1	generate	Run3	generate/STIM_015.jpg
2117.041	1.233	1	generate	Run3	generate/STIM_015.jpg
2120.466	1.348	1	generate	Run3	generate/STIM_015.jpg
2123.723	1.071	1	generate	Run3	generate/STIM_016.jpg
2128.604	2.136	1	generate	Run3	generate/STIM_016.jpg
2133.413	1.925	1	generate	Run3	generate/STIM_016.jpg
2138.814	1.947	1	generate	Run3	generate/STIM_016.jpg
2143.139	1.775	1	generate	Run3	generate/STIM_016.jpg
2147.768	1.502	1	generate	Run3	generate/STIM_017.jpg
2152.558	1.455	1	generate	Run3	generate/STIM_017.jpg
2156.173	1.193	1	generate	Run3	generate/STIM_017.jpg
2159.936	1.723	1	generate	Run3	generate/STIM_017.jpg
2163.764	2.331	1	generate	Run3	generate/STIM_017.jpg
2168.75	0.995	1	generate	Run3	generate/STIM_018.jpg
2172.434	1.806	1	generate	Run3	generate/STIM_018.jpg
2177.689	1.847	1	generate	Run3	generate/STIM_018.jpg
2182.28	2.232	1	generate	Run3	generate/STIM_018.jpg
2186.984	1.867	1	generate	Run3	generate/STIM_018.jpg
2191.427	1.071	1	generate	Run3	generate/STIM_019.jpg
2194.529	1.484	1	generate	Run3	generate/STIM_019.jpg
2197.963	2.029	1	generate	Run3	generate/STIM_019.jpg
2203.161	1.747	1	generate	Run3	generate/STIM_019.jpg
2207.882	1.312	1	generate	Run3	generate/STIM_019.jpg
2212.082	2.074	1	generate	Run3	generate/STIM_020.jpg
2216.451	1.174	0	generate	Run3	generate/STIM_020.jpg
2220.095	2.028	1	generate	Run3	generate/STIM_020.jpg
2224.228	1.539	1	generate	Run3	generate/STIM_020.jpg
2228.679	1.978	1	generate	Run3	generate/STIM_020.jpg
2234.39	1.428	1	generate	Run3	generate/STIM_021.jpg
2238.172	1.825	1	generate	Run3	generate/STIM_021.jpg
2243.387	2.172	1	generate	Run3	generate/STIM_021.jpg
2248.943	2.218	0	generate	Run3	generate/STIM_021.jpg
2253.559	2.163	1	generate	Run3	generate/STIM_021.jpg
2258.227	2.053	0	generate	Run3	generate/STIM_022.jpg
2262.827	2.316	1	generate	Run3	generate/STIM_022.jpg
2268.551	1.349	1	generate	Run3	generate/STIM_022.jpg
2273.131	1.783	1	generate	Run3	generate/STIM_022.jpg
2278.121	2.063	1	generate	Run3	generate/STIM_022.jpg
2283.382	1.558	1	generate	Run3	generate/STIM_023.jpg
2287.965	1.393	1	generate	Run3	generate/STIM_023.jpg
2291.598	1.948	0	generate	Run3	generate/STIM_023.jpg
2297.072	1.325	1	generate	Run3	generate/STIM_023.jpg
2301.191	1.447	1	generate	Run3	generate/STIM_023.jpg
2305.511	2.164	0	generate	Run3	generate/STIM_024.jpg
2309.529	2.083	1	generate	Run3	generate/STIM_024.jpg
2314.471	1.387	1	generate	Run3	generate/STIM_024.jpg
2319.581	2.165	0	generate	Run3	generate/STIM_024.jpg
2323.532	2.11	1	generate	Run3	generate/STIM_024.jpg
2328.968	0.61	1	repeat	Run3	repeat/STIM_000.jpg
2332.216	0.499	1	repeat	Run3	repeat/STIM_000.jpg
2334.916	0.614	1	repeat	Run3	repeat/STIM_000.jpg
2338.942	0.728	1	repeat	Run3	repeat/STIM_000.jpg
2343.389	0.815	1	repeat	Run3	repeat/STIM_000.jpg
2347.2	0.651	1	repeat	Run3	repeat/STIM_001.jpg
2350.637	0.949	1	repeat	Run3	repeat/STIM_001.jpg
2355.184	0.536	1	repeat	Run3	repeat/STIM_001.jpg
2358.716	0.959	1	repeat	Run3	repeat/STIM_001.jpg
2363.439	0.492	0	repeat	Run3	repeat/STIM_001.jpg
2367.17	0.969	1	repeat	Run3	repeat/STIM_002.jpg
2370.504	0.752	1	repeat	Run3	repeat/STIM_002.jpg
2373.36	0.964	1	repeat	Run3	repeat/STIM_002.jpg
2376.927	0.739	1	repeat	Run3	repeat/STIM_002.jpg
2381.091	0.848	1	repeat	Run3	repeat/STIM_002.jpg
2384.841	0.734	1	repeat	Run3	repeat/STIM_003.jpg
2387.969	0.663	1	repeat	Run3	repeat/STIM_003.jpg
2392.055	0.874	1	repeat	Run3	repeat/STIM_003.jpg
2395.208	0.711	1	repeat	Run3	repeat/STIM_003.jpg
2399.398	0.931	1	repeat	Run3	repeat/STIM_003.jpg
2403.721	0.743	1	repeat	Run3	repeat/STIM_004.jpg
2408.041	0.714	1	repeat	Run3	repeat/STIM_004.jpg
2412.284	0.809	0	repeat	Run3	repeat/STIM_004.jpg
2416.704	0.592	1	repeat	Run3	repeat/STIM_004.jpg
2419.686	0.526	1	repeat	Run3	repeat/STIM_004.jpg
2422.91	0.986	1	repeat	Run3	repeat/STIM_005.jpg
2427.448	1.053	0	repeat	Run3	repeat/STIM_005.jpg
2432.261	0.895	1	repeat	Run3	repeat/STIM_005.jpg
2435.735	0.822	1	repeat	Run3	repeat/STIM_005.jpg
2439.087	1.029	1	repeat	Run3	repeat/STIM_005.jpg
2443.855	1.102	1	repeat	Run3	repeat/STIM_006.jpg
2447.115	0.463	1	repeat	Run3	repeat/STIM_006.jpg
2451.436	0.935	1	repeat	Run3	repeat/STIM_006.jpg
2456.061	0.728	1	repeat	Run3	repeat/STIM_006.jpg
2459.264	1.043	1	repeat	Run3	repeat/STIM_006.jpg
2463.304	0.849	1	repeat	Run3	repeat/STIM_007.jpg
2466.127	1.03	1	repeat	Run3	repeat/STIM_007.jpg
2469.92	0.824	1	repeat	Run3	repeat/STIM_007.jpg
2472.928	0.601	0	repeat	Run3	repeat/STIM_007.jpg
2476.342	0.754	1	repeat	Run3	repeat/STIM_007.jpg
2480.644	0.843	1	repeat	Run3	repeat/STIM_008.jpg
2483.705	1.004	1	repeat	Run3	repeat/STIM_008.jpg
2487.172	0.832	1	repeat	Run3	repeat/STIM_008.jpg
2491.25	0.759	1	repeat	Run3	repeat/STIM_008.jpg
2495.489	0.671	1	repeat	Run3	repeat/STIM_008.jpg
2498.309	0.937	1	repeat	Run3	repeat/STIM_009.jpg
2501.43	0.791	1	repeat	Run3	repeat/STIM_009.jpg
2505.134	0.758	1	repeat	Run3	repeat/STIM_009.jpg
2508.69	0.744	1	repeat	Run3	repeat/STIM_009.jpg
2511.837	0.869	1	repeat	Run3	repeat/STIM_009.jpg
2516.413	0.907	1	repeat	Run3	repeat/STIM_010.jpg
2520.566	0.814	1	repeat	Run3	repeat/STIM_010.jpg
2523.471	0.59	1	repeat	Run3	repeat/STIM_010.jpg
2527.076	0.968	0	repeat	Run3	repeat/STIM_010.jpg
2531.249	1.025	1	repeat	Run3	repeat/STIM_010.jpg
2535.909	0.653	1	repeat	Run3	repeat/STIM_011.jpg
2540.435	0.947	1	repeat	Run3	repeat/STIM_011.jpg
2543.679	0.672	1	repeat	Run3	repeat/STIM_011.jpg
2546.425	0.825	1	repeat	Run3	repeat/STIM_011.jpg
2549.212	0.903	1	repeat	Run3	repeat/STIM_011.jpg
2552.664	0.704	1	repeat	Run3	repeat/STIM_012.jpg
2556.086	0.924	1	repeat	Run3	repeat/STIM_012.jpg
2560.759	1.024	1	repeat	Run3	repeat/STIM_012.jpg
2564.282	0.605	1	repeat	Run3	repeat/STIM_012.jpg
2568.106	0.712	1	repeat	Run3	repeat/STIM_012.jpg
2571.71	1.023	0	repeat	Run3	repeat/STIM_013.jpg
2574.723	1.092	1	repeat	Run3	repeat/STIM_013.jpg
2577.879	1.002	1	repeat	Run3	repeat/STIM_013.jpg
2581.116	0.633	1	repeat	Run3	repeat/STIM_013.jpg
2584.812	0.914	1	repeat	Run3	repeat/STIM_013.jpg
2589.532	0.726	1	repeat	Run3	repeat/STIM_014.jpg
2592.609	1.111	1	repeat	Run3	repeat/STIM_014.jpg
2597.357	0.794	1	repeat	Run3	repeat/STIM_014.jpg
2601.344	0.766	1	repeat	Run3	repeat/STIM_014.jpg
2604.723	0.564	1	repeat	Run3	repeat/STIM_014.jpg
2607.459	1.71	1	generate	Run4	generate/STIM_000.jpg
2611.327	1.426	1	generate	Run4	generate/STIM_000.jpg
2616.565	1.502	1	generate	Run4	generate/STIM_000.jpg
2621.172	1.863	1	generate	Run4	generate/STIM_000.jpg
2626.298	1.513	1	generate	Run4	generate/STIM_000.jpg
2630.425	1.958	1	generate	Run4	generate/STIM_001.jpg
2634.744	0.921	1	generate	Run4	generate/STIM_001.jpg
2638.241	1.799	1	generate	Run4	generate/STIM_001.jpg
2642.04	2.07	1	generate	Run4	generate/STIM_001.jpg
2646.94	1.117	1	generate	Run4	generate/STIM_001.jpg
2651.307	1.873	1	generate	Run4	generate/STIM_002.jpg
2656.073	0.912	1	generate	Run4	generate/STIM_002.jpg
2660.553	1.201	1	generate	Run4	generate/STIM_002.jpg
2664.312	1.327	1	generate	Run4	generate/STIM_002.jpg
2667.937	1.689	1	generate	Run4	generate/STIM_002.jpg
2672.233	0.979	1	generate	Run4	generate/STIM_003.jpg
2676.849	0.922	1	generate	Run4	generate/STIM_003.jpg
2680.939	1.604	1	generate	Run4	generate/STIM_003.jpg
2686.188	0.946	1	generate	Run4	generate/STIM_003.jpg
2689.376	1.495	1	generate	Run4	generate/STIM_003.jpg
2693.528	2.137	1	generate	Run4	generate/STIM_004.jpg
2698.871	1.6	0	generate	Run4	generate/STIM_004.jpg
2702.707	1.907	1	generate	Run4	generate/STIM_004.jpg
2708.39	1.471	1	generate	Run4	generate/STIM_004.jpg
2711.788	1.249	1	generate	Run4	generate/STIM_004.jpg
2715.777	1.067	1	generate	Run4	generate/STIM_005.jpg
2719.331	1.689	1	generate	Run4	generate/STIM_005.jpg
2723.912	1.973	1	generate	Run4	generate/STIM_005.jpg
2728.039	1.437	1	generate	Run4	generate/STIM_005.jpg
2732.138	1.071	1	generate	Run4	generate/STIM_005.jpg
2735.413	1.904	1	generate	Run4	generate/STIM_006.jpg
2740.723	1.822	1	generate	Run4	generate/STIM_006.jpg
2745.23	2.207	1	generate	Run4	generate/STIM_006.jpg
2751.141	1.33	1	generate	Run4	generate/STIM_006.jpg
2755.34	2.251	1	generate	Run4	generate/STIM_006.jpg
2759.905	2.107	1	generate	Run4	generate/STIM_007.jpg
2764.45	0.954	1	generate	Run4	generate/STIM_007.jpg
2767.46	1.033	1	generate	Run4	generate/STIM_007.jpg
2771.358	2.114	1	generate	Run4	generate/STIM_007.jpg
2776.172	1.152	1	generate	Run4	generate/STIM_007.jpg
2779.667	1.434	1	generate	Run4	generate/STIM_008.jpg
2783.953	2.074	1	generate	Run4	generate/STIM_008.jpg
2789.458	1.345	1	generate	Run4	generate/STIM_008.jpg
2793.933	2.248	1	generate	Run4	generate/STIM_008.jpg
2799.563	2.068	1	generate	Run4	generate/STIM_008.jpg
2804.706	0.935	1	generate	Run4	generate/STIM_009.jpg
2807.856	2.116	1	generate	Run4	generate/STIM_009.jpg
2812.766	1.765	1	generate	Run4	generate/STIM_009.jpg
2816.487	1.052	1	generate	Run4	generate/STIM_009.jpg
2820.633	1.63	1	generate	Run4	generate/STIM_009.jpg
2824.906	2.158	1	generate	Run4	generate/STIM_010.jpg
2829.884	1.495	1	generate	Run4	generate/STIM_010.jpg
2834.38	1.773	1	generate	Run4	generate/STIM_010.jpg
2839.325	1.659	1	generate	Run4	generate/STIM_010.jpg
2842.867	1.177	1	generate	Run4	generate/STIM_010.jpg
2847.018	1.716	1	generate	Run4	generate/STIM_011.jpg
2851.909	2.292	1	generate	Run4	generate/STIM_011.jpg
2856.292	1.165	1	generate	Run4	generate/STIM_011.jpg
2860.692	1.82	1	generate	Run4	generate/STIM_011.jpg
2865.809	1.803	1	generate	Run4	generate/STIM_011.jpg
2870.021	1.025	1	generate	Run4	generate/STIM_012.jpg
2874.875	0.971	1	generate	Run4	generate/STIM_012.jpg
2879.086	1.335	1	generate	Run4	generate/STIM_012.jpg
2882.464	1.406	1	generate	Run4	generate/STIM_012.jpg
2886.046	2.228	1	generate	Run4	generate/STIM_012.jpg
2890.87	1.127	1	generate	Run4	generate/STIM_013.jpg
2894.887	1.036	1	generate	Run4	generate/STIM_013.jpg
2898.039	2.237	1	generate	Run4	generate/STIM_013.jpg
2903.66	0.995	1	generate	Run4	generate/STIM_013.jpg
2906.706	1.207	1	generate	Run4	generate/STIM_013.jpg
2910.979	2.281	1	generate	Run4	generate/STIM_014.jpg
2915.843	1.608	1	generate	Run4	generate/STIM_014.jpg
2919.713	1.138	1	generate	Run4	generate/STIM_014.jpg
2923.548	1.198	1	generate	Run4	generate/STIM_014.jpg
2926.769	1.968	1	generate	Run4	generate/STIM_014.jpg
2931.267	1.942	1	generate	Run4	generate/STIM_015.jpg
2936.398	0.994	1	generate	Run4	generate/STIM_015.jpg
2939.857	1.038	1	generate	Run4	generate/STIM_015.jpg
2943.408	2.116	1	generate	Run4	generate/STIM_015.jpg
2948.314	1.786	1	generate	Run4	generate/STIM_015.jpg
2953.695	2.357	1	generate	Run4	generate/STIM_016.jpg
2957.875	1.271	1	generate	Run4	generate/STIM_016.jpg
2961.751	1.071	1	generate	Run4	generate/STIM_016.jpg
2964.755	2.197	1	generate	Run4	generate/STIM_016.jpg
2968.864	0.977	1	generate	Run4	generate/STIM_016.jpg
2971.811	1.174	1	generate	Run4	generate/STIM_017.jpg
2975.165	1.268	1	generate	Run4	generate/STIM_017.jpg
2979.681	1.082	1	generate	Run4	generate/STIM_017.jpg
2984.694	2.154	1	generate	Run4	generate/STIM_017.jpg
2990.604	2.025	1	generate	Run4	generate/STIM_017.jpg
2996.331	1.216	1	generate	Run4	generate/STIM_018.jpg
2999.58	1.622	1	generate	Run4	generate/STIM_018.jpg
3004.123	1.484	1	generate	Run4	generate/STIM_018.jpg
3009.107	2.164	1	generate	Run4	generate/STIM_018.jpg
3014.711	1.674	1	generate	Run4	generate/STIM_018.jpg
3020.179	1.272	1	generate	Run4	generate/STIM_019.jpg
3024.419	1.69	1	generate	Run4	generate/STIM_019.jpg
3029.401	1.582	1	generate	Run4	generate/STIM_019.jpg
3033.547	1.279	1	generate	Run4	generate/STIM_019.jpg
3037.126	1.199	1	generate	Run4	generate/STIM_019.jpg
3040.96	2.242	1	generate	Run4	generate/STIM_020.jpg
3045.554	1.722	1	generate	Run4	generate/STIM_020.jpg
3049.307	2.169	1	generate	Run4	generate/STIM_020.jpg
3054.387	1.211	1	generate	Run4	generate/STIM_020.jpg
3058.282	2.171	1	generate	Run4	generate/STIM_020.jpg
3063.153	1.381	1	generate	Run4	generate/STIM_021.jpg
3068.242	1.574	1	generate	Run4	generate/STIM_021.jpg
3073.216	1.516	1	generate	Run4	generate/STIM_021.jpg
3078.368	1.229	1	generate	Run4	generate/STIM_021.jpg
3082.909	2.198	1	generate	Run4	generate/STIM_021.jpg
3088.492	1.737	1	generate	Run4	generate/STIM_022.jpg
3092.452	1.041	1	generate	Run4	generate/STIM_022.jpg
3096.31	1.209	1	generate	Run4	generate/STIM_022.jpg
3100.572	1.444	1	generate	Run4	generate/STIM_022.jpg
3105.518	1.496	1	generate	Run4	generate/STIM_022.jpg
3109.13	1.989	1	generate	Run4	generate/STIM_023.jpg
3114.461	2.159	1	generate	Run4	generate/STIM_023.jpg
3119.311	1.829	1	generate	Run4	generate/STIM_023.jpg
3123.908	2.257	1	generate	Run4	generate/STIM_023.jpg
3129.59	1.225	1	generate	Run4	generate/STIM_023.jpg
3133.161	2.224	1	generate	Run4	generate/STIM_024.jpg
3138.933	1.579	1	generate	Run4	generate/STIM_024.jpg
3143.066	2.068	1	generate	Run4	generate/STIM_024.jpg
3148.332	1.269	1	generate	Run4	generate/STIM_024.jpg
3151.506	1.003	1	generate	Run4	generate/STIM_024.jpg
3154.917	0.904	1	repeat	Run4	repeat/STIM_000.jpg
3157.728	1.093	1	repeat	Run4	repeat/STIM_000.jpg
3161.089	0.959	1	repeat	Run4	repeat/STIM_000.jpg
3164.306	0.839	1	repeat	Run4	repeat/STIM_000.jpg
3168.617	1.044	1	repeat	Run4	repeat/STIM_000.jpg
3172.535	0.892	1	repeat	Run4	repeat/STIM_001.jpg
3177.34	0.74	1	repeat	Run4	repeat/STIM_001.jpg
3180.79	0.811	1	repeat	Run4	repeat/STIM_001.jpg
3185.086	0.817	1	repeat	Run4	repeat/STIM_001.jpg
3189.303	0.876	1	repeat	Run4	repeat/STIM_001.jpg
3192.913	0.844	1	repeat	Run4	repeat/STIM_002.jpg
3197.583	0.595	1	repeat	Run4	repeat/STIM_002.jpg
3201.135	0.756	1	repeat	Run4	repeat/STIM_002.jpg
3204.285	0.61	1	repeat	Run4	repeat/STIM_002.jpg
3208.246	0.532	1	repeat	Run4	repeat/STIM_002.jpg
3212.344	0.712	1	repeat	Run4	repeat/STIM_003.jpg
3216.328	0.689	1	repeat	Run4	repeat/STIM_003.jpg
3220.892	0.791	1	repeat	Run4	repeat/STIM_003.jpg
3224.731	1.012	1	repeat	Run4	repeat/STIM_003.jpg
3228.218	0.771	0	repeat	Run4	repeat/STIM_003.jpg
3231.926	1.061	1	repeat	Run4	repeat/STIM_004.jpg
3236.076	0.636	1	repeat	Run4	repeat/STIM_004.jpg
3238.946	0.692	1	repeat	Run4	repeat/STIM_004.jpg
3243.462	0.873	1	repeat	Run4	repeat/STIM_004.jpg
3246.764	0.807	1	repeat	Run4	repeat/STIM_004.jpg
3250.491	0.746	1	repeat	Run4	repeat/STIM_005.jpg
3254.488	0.436	1	repeat	Run4	repeat/STIM_005.jpg
3258.656	1.006	1	repeat	Run4	repeat/STIM_005.jpg
3262.684	0.806	1	repeat	Run4	repeat/STIM_005.jpg
3266.767	0.728	1	repeat	Run4	repeat/STIM_005.jpg
3270.957	0.918	1	repeat	Run4	repeat/STIM_006.jpg
3274.734	0.959	1	repeat	Run4	repeat/STIM_006.jpg
3279.012	0.609	1	repeat	Run4	repeat/STIM_006.jpg
3282.929	0.865	1	repeat	Run4	repeat/STIM_006.jpg
3286.893	0.819	1	repeat	Run4	repeat/STIM_006.jpg
3290.615	0.867	1	repeat	Run4	repeat/STIM_007.jpg
3294.058	1.03	1	repeat	Run4	repeat/STIM_007.jpg
3298.368	0.824	1	repeat	Run4	repeat/STIM_007.jpg
3301.355	0.715	1	repeat	Run4	repeat/STIM_007.jpg
3304.385	0.91	1	repeat	Run4	repeat/STIM_007.jpg
3307.445	0.99	1	repeat	Run4	repeat/STIM_008.jpg
3311.572	0.998	1	repeat	Run4	repeat/STIM_008.jpg
3315.893	0.808	1	repeat	Run4	repeat/STIM_008.jpg
3320.335	0.811	1	repeat	Run4	repeat/STIM_008.jpg
3323.642	1.086	1	repeat	Run4	repeat/STIM_008.jpg
3328.099	0.578	1	repeat	Run4	repeat/STIM_009.jpg
3332.433	0.767	1	repeat	Run4	repeat/STIM_009.jpg
3336.292	0.765	1	repeat	Run4	repeat/STIM_009.jpg
3340.196	0.842	1	repeat	Run4	repeat/STIM_009.jpg
3344.927	0.628	1	repeat	Run4	repeat/STIM_009.jpg
3349.51	1.117	1	repeat	Run4	repeat/STIM_010.jpg
3352.786	0.811	1	repeat	Run4	repeat/STIM_010.jpg
3355.494	1.016	1	repeat	Run4	repeat/STIM_010.jpg
3359.696	0.958	1	repeat	Run4	repeat/STIM_010.jpg
3363.145	0.958	1	repeat	Run4	repeat/STIM_010.jpg
3366.128	0.596	1	repeat	Run4	repeat/STIM_011.jpg
3370.022	0.733	1	repeat	Run4	repeat/STIM_011.jpg
3372.737	0.677	1	repeat	Run4	repeat/STIM_011.jpg
3376.133	0.981	1	repeat	Run4	repeat/STIM_011.jpg
3380.405	1.02	1	repeat	Run4	repeat/STIM_011.jpg
3385.155	0.964	1	repeat	Run4	repeat/STIM_012.jpg
3388.15	0.978	1	repeat	Run4	repeat/STIM_012.jpg
3391.348	0.716	1	repeat	Run4	repeat/STIM_012.jpg
3395.724	0.959	1	repeat	Run4	repeat/STIM_012.jpg
3399.168	0.734	1	repeat	Run4	repeat/STIM_012.jpg
3401.866	0.597	1	repeat	Run4	repeat/STIM_013.jpg
3406.234	0.608	1	repeat	Run4	repeat/STIM_013.jpg
3410.529	1.032	1	repeat	Run4	repeat/STIM_013.jpg
3414.877	0.806	1	repeat	Run4	repeat/STIM_013.jpg
3418.622	0.986	1	repeat	Run4	repeat/STIM_013.jpg
3422.98	0.87	1	repeat	Run4	repeat/STIM_014.jpg
3426.552	0.836	1	repeat	Run4	repeat/STIM_014.jpg
3430.947	0.991	1	repeat	Run4	repeat/STIM_014.jpg
3435.662	0.798	1	repeat	Run4	repeat/STIM_014.jpg
3439.9	0.787	1	repeat	Run4	repeat/STIM_014.jpg
