onset	duration	response_time_ms	trial_type	learning_stage	stimulus	response_port
0.0	3.738	3738.5	generate	Run1	generate/STIM_000.jpg	100
6.628	3.239	3239.4	generate	Run1	generate/STIM_000.jpg	99
12.874	3.378	3377.6	generate	Run1	generate/STIM_000.jpg	100
19.786	2.484	2484.4	generate	Run1	generate/STIM_000.jpg	100
25.692	2.331	2331.4	generate	Run1	generate/STIM_000.jpg	99
30.558	1.832	1831.7	generate	Run1	generate/STIM_001.jpg	99
34.838	1.642	1642.2	generate	Run1	generate/STIM_001.jpg	100
39.155	2.626	2625.6	generate	Run1	generate/STIM_001.jpg	100
44.25	2.14	2140.4	generate	Run1	generate/STIM_001.jpg	100
49.783	2.508	2508.5	generate	Run1	generate/STIM_001.jpg	100
56.199	2.66	2660.3	generate	Run1	generate/STIM_002.jpg	100
62.821	1.543	1542.8	generate	Run1	generate/STIM_002.jpg	100
67.977	2.508	2507.5	generate	Run1	generate/STIM_002.jpg	100
74.393	2.526	2526.4	generate	Run1	generate/STIM_002.jpg	99
79.284	2.032	2032.4	generate	Run1	generate/STIM_002.jpg	99
83.514	3.664	3664.5	generate	Run1	generate/STIM_003.jpg	99
90.952	2.178	2178.0	generate	Run1	generate/STIM_003.jpg	100
96.886	1.9	1900.1	generate	Run1	generate/STIM_003.jpg	99
101.201	2.449	2448.7	generate	Run1	generate/STIM_003.jpg	99
105.879	2.137	2137.3	generate	Run1	generate/STIM_003.jpg	99
110.5	3.143	3142.7	generate	Run1	generate/STIM_004.jpg	99
116.137	2.306	2306.3	generate	Run1	generate/STIM_004.jpg	100
122.027	2.533	2532.8	generate	Run1	generate/STIM_004.jpg	100
127.355	2.82	2819.8	generate	Run1	generate/STIM_004.jpg	100
133.808	1.746	1745.9	generate	Run1	generate/STIM_004.jpg	99
138.811	1.8	1799.6	generate	Run1	generate/STIM_005.jpg	100
143.517	2.258	2257.7	generate	Run1	generate/STIM_005.jpg	99
148.223	2.87	2870.4	generate	Run1	generate/STIM_005.jpg	99
154.682	1.996	1995.6	generate	Run1	generate/STIM_005.jpg	99
160.409	2.609	2609.4	generate	Run1	generate/STIM_005.jpg	99
166.019	2.524	2523.5	generate	Run1	generate/STIM_006.jpg	99
170.866	3.485	3485.0	generate	Run1	generate/STIM_006.jpg	100
176.753	1.962	1962.4	generate	Run1	generate/STIM_006.jpg	100
182.628	2.67	2669.8	generate	Run1	generate/STIM_006.jpg	99
188.144	2.5	2499.8	generate	Run1	generate/STIM_006.jpg	100
194.498	2.413	2413.2	generate	Run1	generate/STIM_007.jpg	99
200.579	1.726	1725.6	generate	Run1	generate/STIM_007.jpg	100
205.297	2.648	2648.2	generate	Run1	generate/STIM_007.jpg	99
210.319	1.454	1453.8	generate	Run1	generate/STIM_007.jpg	99
215.202	2.154	2154.0	generate	Run1	generate/STIM_007.jpg	100
219.416	3.51	3510.0	generate	Run1	generate/STIM_008.jpg	99
226.919	1.664	1663.9	generate	Run1	generate/STIM_008.jpg	100
230.601	3.249	3248.7	generate	Run1	generate/STIM_008.jpg	100
236.81	2.201	2200.8	generate	Run1	generate/STIM_008.jpg	100
242.709	1.399	1398.9	generate	Run1	generate/STIM_008.jpg	99
247.293	1.595	1594.7	generate	Run1	generate/STIM_009.jpg	100
251.457	1.812	1812.2	generate	Run1	generate/STIM_009.jpg	100
257.019	1.588	1587.8	generate	Run1	generate/STIM_009.jpg	99
262.25	1.76	1760.2	generate	Run1	generate/STIM_009.jpg	99
267.957	1.363	1363.2	generate	Run1	generate/STIM_009.jpg	99
271.809	1.613	1613.1	generate	Run1	generate/STIM_010.jpg	100
277.289	1.817	1816.7	generate	Run1	generate/STIM_010.jpg	100
281.365	1.527	1527.2	generate	Run1	generate/STIM_010.jpg	100
286.401	2.627	2627.2	generate	Run1	generate/STIM_010.jpg	99
292.537	1.207	1206.7	generate	Run1	generate/STIM_010.jpg	100
297.208	2.731	2731.4	generate	Run1	generate/STIM_011.jpg	100
302.283	2.308	2308.2	generate	Run1	generate/STIM_011.jpg	100
307.684	1.456	1456.5	generate	Run1	generate/STIM_011.jpg	99
312.348	1.713	1712.6	generate	Run1	generate/STIM_011.jpg	100
317.568	2.297	2297.4	generate	Run1	generate/STIM_011.jpg	99
323.464	3.63	3630.1	generate	Run1	generate/STIM_012.jpg	99
329.48	2.321	2321.3	generate	Run1	generate/STIM_012.jpg	100
334.827	1.633	1633.4	generate	Run1	generate/STIM_012.jpg	99
340.199	2.125	2125.3	generate	Run1	generate/STIM_012.jpg	99
344.57	2.786	2786.5	generate	Run1	generate/STIM_012.jpg	99
350.681	3.341	3340.9	generate	Run1	generate/STIM_013.jpg	100
356.801	1.769	1769.1	generate	Run1	generate/STIM_013.jpg	100
361.38	1.912	1912.4	generate	Run1	generate/STIM_013.jpg	99
366.346	3.034	3034.0	generate	Run1	generate/STIM_013.jpg	99
373.171	2.428	2428.3	generate	Run1	generate/STIM_013.jpg	100
378.192	2.624	2624.0	generate	Run1	generate/STIM_014.jpg	100
383.475	1.53	1530.0	generate	Run1	generate/STIM_014.jpg	99
388.353	3.247	3246.6	generate	Run1	generate/STIM_014.jpg	99
395.35	2.7	2700.4	generate	Run1	generate/STIM_014.jpg	99
400.109	1.403	1403.0	generate	Run1	generate/STIM_014.jpg	99
405.258	2.524	2524.5	generate	Run1	generate/STIM_015.jpg	99
410.761	3.302	3302.5	generate	Run1	generate/STIM_015.jpg	99
416.572	3.136	3136.1	generate	Run1	generate/STIM_015.jpg	100
423.012	1.868	1867.5	generate	Run1	generate/STIM_015.jpg	100
428.671	1.463	1463.3	generate	Run1	generate/STIM_015.jpg	99
432.2	2.761	2761.3	generate	Run1	generate/STIM_016.jpg	100
437.942	3.517	3516.8	generate	Run1	generate/STIM_016.jpg	99
443.802	3.138	3137.9	generate	Run1	generate/STIM_016.jpg	99
450.168	2.263	2262.8	generate	Run1	generate/STIM_016.jpg	99
455.855	2.244	2243.6	generate	Run1	generate/STIM_016.jpg	100
460.982	3.063	3063.4	generate	Run1	generate/STIM_017.jpg	99
467.714	3.487	3486.6	generate	Run1	generate/STIM_017.jpg	99
473.434	2.957	2956.8	generate	Run1	generate/STIM_017.jpg	100
478.8	3.076	3075.6	generate	Run1	generate/STIM_017.jpg	99
483.922	2.354	2353.6	generate	Run1	generate/STIM_017.jpg	99
489.768	3.062	3062.1	generate	Run1	generate/STIM_018.jpg	100
495.688	1.996	1995.5	generate	Run1	generate/STIM_018.jpg	100
500.833	1.551	1551.3	generate	Run1	generate/STIM_018.jpg	99
505.032	2.256	2256.0	generate	Run1	generate/STIM_018.jpg	99
509.868	2.273	2272.8	generate	Run1	generate/STIM_018.jpg	99
515.229	3.213	3212.9	generate	Run1	generate/STIM_019.jpg	99
522.214	2.826	2825.8	generate	Run1	generate/STIM_019.jpg	100
527.82	2.184	2183.7	generate	Run1	generate/STIM_019.jpg	99
533.226	2.12	2120.5	generate	Run1	generate/STIM_019.jpg	99
537.512	2.413	2413.3	generate	Run1	generate/STIM_019.jpg	100
542.264	2.952	2952.2	generate	Run1	generate/STIM_020.jpg	99
548.789	1.652	1652.4	generate	Run1	generate/STIM_020.jpg	99
553.216	1.822	1821.6	generate	Run1	generate/STIM_020.jpg	100
558.676	2.952	2952.0	generate	Run1	generate/STIM_020.jpg	100
564.28	1.449	1449.4	generate	Run1	generate/STIM_020.jpg	100
569.143	1.614	1613.6	generate	Run1	generate/STIM_021.jpg	99
573.247	2.652	2652.2	generate	Run1	generate/STIM_021.jpg	99
578.668	2.303	2303.1	generate	Run1	generate/STIM_021.jpg	99
584.267	3.095	3095.4	generate	Run1	generate/STIM_021.jpg	100
591.331	1.514	1514.4	generate	Run1	generate/STIM_021.jpg	99
595.812	3.583	3583.1	generate	Run1	generate/STIM_022.jpg	100
602.36	2.427	2426.8	generate	Run1	generate/STIM_022.jpg	100
608.125	3.01	3010.1	generate	Run1	generate/STIM_022.jpg	100
614.815	2.43	2430.5	generate	Run1	generate/STIM_022.jpg	100
620.76	2.367	2367.2	generate	Run1	generate/STIM_022.jpg	100
625.589	1.922	1921.8	generate	Run1	generate/STIM_023.jpg	100
629.551	1.554	1553.6	generate	Run1	generate/STIM_023.jpg	99
634.646	1.384	1384.0	generate	Run1	generate/STIM_023.jpg	100
639.197	2.178	2178.1	generate	Run1	generate/STIM_023.jpg	100
644.551	2.571	2570.7	generate	Run1	generate/STIM_023.jpg	100
649.427	2.486	2486.1	generate	Run1	generate/STIM_024.jpg	100
655.451	3.053	3052.9	generate	Run1	generate/STIM_024.jpg	99
660.827	2.02	2019.6	generate	Run1	generate/STIM_024.jpg	99
666.822	1.861	1860.8	generate	Run1	generate/STIM_024.jpg	99
672.035	2.156	2155.5	generate	Run1	generate/STIM_024.jpg	100
677.507	0.992	992.5	repeat	Run1	repeat/STIM_000.jpg	100
681.367	1.193	1192.9	repeat	Run1	repeat/STIM_000.jpg	99
684.83	0.831	831.1	repeat	Run1	repeat/STIM_000.jpg	99
688.433	1.076	1075.8	repeat	Run1	repeat/STIM_000.jpg	100
693.023	0.637	636.6	repeat	Run1	repeat/STIM_000.jpg	100
697.195	0.679	679.1	repeat	Run1	repeat/STIM_001.jpg	99
701.069	1.234	1233.5	repeat	Run1	repeat/STIM_001.jpg	100
705.342	0.941	940.8	repeat	Run1	repeat/STIM_001.jpg	100
709.394	0.874	874.5	repeat	Run1	repeat/STIM_001.jpg	100
713.176	1.071	1071.4	repeat	Run1	repeat/STIM_001.jpg	100
716.345	0.979	978.6	repeat	Run1	repeat/STIM_002.jpg	99
721.285	0.801	801.0	repeat	Run1	repeat/STIM_002.jpg	100
725.811	1.199	1199.4	repeat	Run1	repeat/STIM_002.jpg	100
729.712	0.701	700.7	repeat	Run1	repeat/STIM_002.jpg	100
733.555	0.669	669.2	repeat	Run1	repeat/STIM_002.jpg	100
736.755	0.71	710.3	repeat	Run1	repeat/STIM_003.jpg	99
741.464	0.634	633.8	repeat	Run1	repeat/STIM_003.jpg	100
745.186	1.164	1164.4	repeat	Run1	repeat/STIM_003.jpg	99
749.121	1.111	1110.8	repeat	Run1	repeat/STIM_003.jpg	100
754.151	1.067	1067.2	repeat	Run1	repeat/STIM_003.jpg	99
758.495	1.098	1098.2	repeat	Run1	repeat/STIM_004.jpg	99
763.152	0.708	708.3	repeat	Run1	repeat/STIM_004.jpg	99
767.268	0.733	732.8	repeat	Run1	repeat/STIM_004.jpg	100
771.849	0.817	817.3	repeat	Run1	repeat/STIM_004.jpg	100
774.975	1.156	1156.1	repeat	Run1	repeat/STIM_004.jpg	100
778.181	1.178	1177.9	repeat	Run1	repeat/STIM_005.jpg	99
782.54	0.743	742.7	repeat	Run1	repeat/STIM_005.jpg	100
787.187	0.97	969.5	repeat	Run1	repeat/STIM_005.jpg	99
791.872	1.131	1131.0	repeat	Run1	repeat/STIM_005.jpg	100
795.63	1.165	1165.2	repeat	Run1	repeat/STIM_005.jpg	100
800.281	1.151	1151.0	repeat	Run1	repeat/STIM_006.jpg	100
804.257	1.162	1161.8	repeat	Run1	repeat/STIM_006.jpg	100
808.991	0.986	986.1	repeat	Run1	repeat/STIM_006.jpg	99
813.053	0.726	725.9	repeat	Run1	repeat/STIM_006.jpg	100
817.329	1.248	1248.4	repeat	Run1	repeat/STIM_006.jpg	100
822.319	0.975	975.1	repeat	Run1	repeat/STIM_007.jpg	99
825.498	0.798	798.5	repeat	Run1	repeat/STIM_007.jpg	100
829.091	1.152	1152.1	repeat	Run1	repeat/STIM_007.jpg	99
832.598	0.703	703.4	repeat	Run1	repeat/STIM_007.jpg	99
836.524	1.204	1204.2	repeat	Run1	repeat/STIM_007.jpg	100
840.92	0.986	985.9	repeat	Run1	repeat/STIM_008.jpg	99
845.584	0.758	757.7	repeat	Run1	repeat/STIM_008.jpg	99
848.898	1.159	1159.3	repeat	Run1	repeat/STIM_008.jpg	99
852.437	0.89	890.3	repeat	Run1	repeat/STIM_008.jpg	100
857.06	1.248	1247.5	repeat	Run1	repeat/STIM_008.jpg	100
861.135	0.689	688.8	repeat	Run1	repeat/STIM_009.jpg	99
865.794	0.868	868.0	repeat	Run1	repeat/STIM_009.jpg	100
869.933	0.684	683.5	repeat	Run1	repeat/STIM_009.jpg	100
874.226	1.062	1061.9	repeat	Run1	repeat/STIM_009.jpg	100
877.919	1.082	1082.5	repeat	Run1	repeat/STIM_009.jpg	100
882.388	1.218	1217.6	repeat	Run1	repeat/STIM_010.jpg	100
887.322	0.684	683.6	repeat	Run1	repeat/STIM_010.jpg	99
891.155	0.927	926.6	repeat	Run1	repeat/STIM_010.jpg	100
894.449	0.685	685.0	repeat	Run1	repeat/STIM_010.jpg	100
898.729	0.953	953.0	repeat	Run1	repeat/STIM_010.jpg	100
902.123	0.668	667.9	repeat	Run1	repeat/STIM_011.jpg	100
906.061	1.096	1096.5	repeat	Run1	repeat/STIM_011.jpg	99
910.298	0.63	629.9	repeat	Run1	repeat/STIM_011.jpg	99
913.203	0.698	698.1	repeat	Run1	repeat/STIM_011.jpg	99
916.552	0.884	883.8	repeat	Run1	repeat/STIM_011.jpg	99
920.998	1.046	1045.7	repeat	Run1	repeat/STIM_012.jpg	99
924.517	1.042	1042.3	repeat	Run1	repeat/STIM_012.jpg	100
929.08	0.987	987.0	repeat	Run1	repeat/STIM_012.jpg	100
932.891	0.731	730.9	repeat	Run1	repeat/STIM_012.jpg	100
935.845	0.64	640.4	repeat	Run1	repeat/STIM_012.jpg	99
938.626	0.817	816.6	repeat	Run1	repeat/STIM_013.jpg	99
942.395	0.894	894.5	repeat	Run1	repeat/STIM_013.jpg	100
946.169	0.875	874.6	repeat	Run1	repeat/STIM_013.jpg	99
950.981	1.154	1154.2	repeat	Run1	repeat/STIM_013.jpg	99
955.858	0.779	778.8	repeat	Run1	repeat/STIM_013.jpg	100
960.566	0.86	859.5	repeat	Run1	repeat/STIM_014.jpg	100
965.418	1.176	1175.6	repeat	Run1	repeat/STIM_014.jpg	99
968.829	1.122	1122.4	repeat	Run1	repeat/STIM_014.jpg	99
972.25	0.852	851.9	repeat	Run1	repeat/STIM_014.jpg	100
976.478	0.723	722.8	repeat	Run1	repeat/STIM_014.jpg	100
979.785	3.11	3110.4	generate	Run2	generate/STIM_000.jpg	99
985.57	2.628	2627.6	generate	Run2	generate/STIM_000.jpg	100
991.544	2.485	2484.8	generate	Run2	generate/STIM_000.jpg	100
997.108	1.248	1247.7	generate	Run2	generate/STIM_000.jpg	100
1001.144	1.805	1804.7	generate	Run2	generate/STIM_000.jpg	100
1006.15	2.307	2306.8	generate	Run2	generate/STIM_001.jpg	99
1012.127	2.512	2511.9	generate	Run2	generate/STIM_001.jpg	99
1016.826	1.575	1574.6	generate	Run2	generate/STIM_001.jpg	100
1021.929	2.309	2308.6	generate	Run2	generate/STIM_001.jpg	99
1027.526	2.182	2182.3	generate	Run2	generate/STIM_001.jpg	99
1032.602	2.808	2808.3	generate	Run2	generate/STIM_002.jpg	99
1037.778	2.415	2415.4	generate	Run2	generate/STIM_002.jpg	100
1043.794	2.062	2062.2	generate	Run2	generate/STIM_002.jpg	100
1048.617	1.731	1731.4	generate	Run2	generate/STIM_002.jpg	100
1052.763	1.666	1666.0	generate	Run2	generate/STIM_002.jpg	100
1057.103	2.919	2918.6	generate	Run2	generate/STIM_003.jpg	99
1062.323	2.103	2102.8	generate	Run2	generate/STIM_003.jpg	99
1066.516	1.591	1590.9	generate	Run2	generate/STIM_003.jpg	99
1071.157	1.331	1330.7	generate	Run2	generate/STIM_003.jpg	99
1076.034	2.109	2108.9	generate	Run2	generate/STIM_003.jpg	100
1081.776	2.965	2965.1	generate	Run2	generate/STIM_004.jpg	99
1086.937	1.836	1836.4	generate	Run2	generate/STIM_004.jpg	99
1092.45	2.649	2648.8	generate	Run2	generate/STIM_004.jpg	99
1097.149	1.434	1434.5	generate	Run2	generate/STIM_004.jpg	99
1101.688	2.604	2603.7	generate	Run2	generate/STIM_004.jpg	99
1108.214	2.943	2942.7	generate	Run2	generate/STIM_005.jpg	100
1114.05	1.919	1918.9	generate	Run2	generate/STIM_005.jpg	99
1118.849	1.703	1703.2	generate	Run2	generate/STIM_005.jpg	100
1123.266	1.903	1903.2	generate	Run2	generate/STIM_005.jpg	99
1128.223	1.87	1869.7	generate	Run2	generate/STIM_005.jpg	100
1133.829	2.255	2255.2	generate	Run2	generate/STIM_006.jpg	100
1139.726	1.852	1852.5	generate	Run2	generate/STIM_006.jpg	100
1143.628	2.124	2124.2	generate	Run2	generate/STIM_006.jpg	100
1148.334	2.626	2626.3	generate	Run2	generate/STIM_006.jpg	99
1153.19	2.383	2383.2	generate	Run2	generate/STIM_006.jpg	99
1159.061	2.452	2451.6	generate	Run2	generate/STIM_007.jpg	100
1165.458	2.076	2075.5	generate	Run2	generate/STIM_007.jpg	99
1170.879	1.73	1729.6	generate	Run2	generate/STIM_007.jpg	99
1174.875	1.082	1082.1	generate	Run2	generate/STIM_007.jpg	99
1178.846	1.268	1267.9	generate	Run2	generate/STIM_007.jpg	99
1183.999	2.888	2888.5	generate	Run2	generate/STIM_008.jpg	99
1189.748	2.552	2551.5	generate	Run2	generate/STIM_008.jpg	100
1195.946	2.344	2343.6	generate	Run2	generate/STIM_008.jpg	100
1201.586	1.086	1085.8	generate	Run2	generate/STIM_008.jpg	100
1204.715	2.085	2084.8	generate	Run2	generate/STIM_008.jpg	100
1209.038	3.01	3010.1	generate	Run2	generate/STIM_009.jpg	100
1215.535	1.623	1622.7	generate	Run2	generate/STIM_009.jpg	99
1221.082	2.012	2012.0	generate	Run2	generate/STIM_009.jpg	99
1226.73	2.45	2449.8	generate	Run2	generate/STIM_009.jpg	100
1231.959	1.364	1363.6	generate	Run2	generate/STIM_009.jpg	99
1236.539	1.902	1902.2	generate	Run2	generate/STIM_010.jpg	99
1240.905	2.205	2204.6	generate	Run2	generate/STIM_010.jpg	100
1245.514	2.613	2612.6	generate	Run2	generate/STIM_010.jpg	100
1251.905	1.494	1494.3	generate	Run2	generate/STIM_010.jpg	100
1256.136	2.466	2466.3	generate	Run2	generate/STIM_010.jpg	100
1262.047	2.206	2206.3	generate	Run2	generate/STIM_011.jpg	100
1267.236	2.177	2177.3	generate	Run2	generate/STIM_011.jpg	100
1272.045	2.354	2353.6	generate	Run2	generate/STIM_011.jpg	100
1278.198	1.71	1710.4	generate	Run2	generate/STIM_011.jpg	100
1283.444	2.026	2026.1	generate	Run2	generate/STIM_011.jpg	99
1289.362	1.434	1434.2	generate	Run2	generate/STIM_012.jpg	100
1293.073	2.369	2368.6	generate	Run2	generate/STIM_012.jpg	100
1297.733	2.502	2501.9	generate	Run2	generate/STIM_012.jpg	100
1303.258	1.898	1898.3	generate	Run2	generate/STIM_012.jpg	100
1309.107	2.345	2344.8	generate	Run2	generate/STIM_012.jpg	99
1314.582	1.864	1864.0	generate	Run2	generate/STIM_013.jpg	99
1319.961	2.916	2915.8	generate	Run2	generate/STIM_013.jpg	100
1326.69	1.164	1163.8	generate	Run2	generate/STIM_013.jpg	100
1331.024	2.471	2471.0	generate	Run2	generate/STIM_013.jpg	99
1336.68	1.792	1792.4	generate	Run2	generate/STIM_013.jpg	100
1341.197	1.765	1764.6	generate	Run2	generate/STIM_014.jpg	100
1345.714	2.698	2697.6	generate	Run2	generate/STIM_014.jpg	100
1352.147	1.759	1758.6	generate	Run2	generate/STIM_014.jpg	100
1357.276	2.186	2185.9	generate	Run2	generate/STIM_014.jpg	100
1363.183	1.2	1200.5	generate	Run2	generate/STIM_014.jpg	100
1368.166	2.316	2316.0	generate	Run2	generate/STIM_015.jpg	100
1372.644	1.938	1937.7	generate	Run2	generate/STIM_015.jpg	100
1378.53	1.486	1486.0	generate	Run2	generate/STIM_015.jpg	100
1383.432	2.073	2073.3	generate	Run2	generate/STIM_015.jpg	100
1387.542	1.964	1964.1	generate	Run2	generate/STIM_015.jpg	99
1392.097	2.371	2371.1	generate	Run2	generate/STIM_016.jpg	100
1397.922	2.377	2376.7	generate	Run2	generate/STIM_016.jpg	99
1403.901	1.137	1137.0	generate	Run2	generate/STIM_016.jpg	100
1407.054	2.599	2599.2	generate	Run2	generate/STIM_016.jpg	100
1412.568	1.736	1735.5	generate	Run2	generate/STIM_016.jpg	100
1417.092	2.05	2050.1	generate	Run2	generate/STIM_017.jpg	100
1422.962	2.645	2645.3	generate	Run2	generate/STIM_017.jpg	100
1428.053	1.753	1752.6	generate	Run2	generate/STIM_017.jpg	99
1431.938	2.424	2424.3	generate	Run2	generate/STIM_017.jpg	100
1437.115	1.532	1531.8	generate	Run2	generate/STIM_017.jpg	100
1442.035	2.467	2467.2	generate	Run2	generate/STIM_018.jpg	100
1446.754	2.918	2918.0	generate	Run2	generate/STIM_018.jpg	99
1452.403	2.175	2174.9	generate	Run2	generate/STIM_018.jpg	99
1456.887	2.586	2585.6	generate	Run2	generate/STIM_018.jpg	100
1461.796	1.31	1309.8	generate	Run2	generate/STIM_018.jpg	99
1466.739	1.862	1861.9	generate	Run2	generate/STIM_019.jpg	100
1471.038	1.582	1581.5	generate	Run2	generate/STIM_019.jpg	99
1476.314	2.41	2409.6	generate	Run2	generate/STIM_019.jpg	99
1482.234	1.816	1815.8	generate	Run2	generate/STIM_019.jpg	99
1487.979	1.653	1653.2	generate	Run2	generate/STIM_019.jpg	100
1492.975	1.734	1733.9	generate	Run2	generate/STIM_020.jpg	99
1498.001	2.374	2373.6	generate	Run2	generate/STIM_020.jpg	99
1502.929	1.292	1292.0	generate	Run2	generate/STIM_020.jpg	100
1506.407	1.378	1378.4	generate	Run2	generate/STIM_020.jpg	99
1510.76	2.096	2096.2	generate	Run2	generate/STIM_020.jpg	99
1514.922	2.184	2184.2	generate	Run2	generate/STIM_021.jpg	100
1519.471	1.395	1395.0	generate	Run2	generate/STIM_021.jpg	99
1524.829	1.784	1784.1	generate	Run2	generate/STIM_021.jpg	99
1529.736	1.495	1494.9	generate	Run2	generate/STIM_021.jpg	100
1534.098	2.168	2168.3	generate	Run2	generate/STIM_021.jpg	99
1538.711	2.618	2617.5	generate	Run2	generate/STIM_022.jpg	99
1544.308	1.538	1538.2	generate	Run2	generate/STIM_022.jpg	100
1549.323	1.937	1937.0	generate	Run2	generate/STIM_022.jpg	99
1554.914	1.489	1488.9	generate	Run2	generate/STIM_022.jpg	99
1559.733	2.615	2615.3	generate	Run2	generate/STIM_022.jpg	100
1565.533	2.047	2047.3	generate	Run2	generate/STIM_023.jpg	99
1570.664	1.23	1229.9	generate	Run2	generate/STIM_023.jpg	100
1574.689	1.367	1367.3	generate	Run2	generate/STIM_023.jpg	100
1579.523	1.794	1794.3	generate	Run2	generate/STIM_023.jpg	99
1584.722	1.309	1309.1	generate	Run2	generate/STIM_023.jpg	99
1589.982	2.531	2530.7	generate	Run2	generate/STIM_024.jpg	99
1596.174	1.326	1326.0	generate	Run2	generate/STIM_024.jpg	100
1600.133	2.092	2092.5	generate	Run2	generate/STIM_024.jpg	99
1605.449	1.667	1666.6	generate	Run2	generate/STIM_024.jpg	99
1610.331	1.482	1481.9	generate	Run2	generate/STIM_024.jpg	100
1614.388	0.673	673.1	repeat	Run2	repeat/STIM_000.jpg	100
1617.698	0.87	870.0	repeat	Run2	repeat/STIM_000.jpg	99
1622.156	0.631	630.6	repeat	Run2	repeat/STIM_000.jpg	100
1624.848	1.083	1083.1	repeat	Run2	repeat/STIM_000.jpg	99
1629.296	1.021	1020.9	repeat	Run2	repeat/STIM_000.jpg	100
1633.435	1.186	1186.1	repeat	Run2	repeat/STIM_001.jpg	99
1637.805	0.884	884.5	repeat	Run2	repeat/STIM_001.jpg	100
1641.371	0.894	893.5	repeat	Run2	repeat/STIM_001.jpg	100
1644.453	0.669	668.8	repeat	Run2	repeat/STIM_001.jpg	100
1648.545	0.707	707.1	repeat	Run2	repeat/STIM_001.jpg	100
1652.11	0.642	642.3	repeat	Run2	repeat/STIM_002.jpg	100
1655.38	0.814	813.9	repeat	Run2	repeat/STIM_002.jpg	100
1659.888	0.627	626.8	repeat	Run2	repeat/STIM_002.jpg	99
1663.809	1.001	1001.3	repeat	Run2	repeat/STIM_002.jpg	100
1667.783	1.018	1018.1	repeat	Run2	repeat/STIM_002.jpg	100
1672.15	0.773	772.7	repeat	Run2	repeat/STIM_003.jpg	99
1675.883	0.682	681.7	repeat	Run2	repeat/STIM_003.jpg	99
1679.378	1.106	1105.7	repeat	Run2	repeat/STIM_003.jpg	100
1683.116	1.077	1076.7	repeat	Run2	repeat/STIM_003.jpg	100
1687.395	0.71	710.3	repeat	Run2	repeat/STIM_003.jpg	99
1690.255	0.963	962.8	repeat	Run2	repeat/STIM_004.jpg	99
1695.076	1.074	1074.1	repeat	Run2	repeat/STIM_004.jpg	100
1698.799	0.962	961.7	repeat	Run2	repeat/STIM_004.jpg	100
1702.875	0.934	934.2	repeat	Run2	repeat/STIM_004.jpg	100
1706.23	0.858	858.1	repeat	Run2	repeat/STIM_004.jpg	100
1709.399	1.047	1047.4	repeat	Run2	repeat/STIM_005.jpg	99
1713.382	1.201	1200.9	repeat	Run2	repeat/STIM_005.jpg	100
1717.227	0.936	935.6	repeat	Run2	repeat/STIM_005.jpg	100
1720.737	0.655	654.8	repeat	Run2	repeat/STIM_005.jpg	100
1723.621	0.64	640.2	repeat	Run2	repeat/STIM_005.jpg	100
1726.794	1.153	1153.2	repeat	Run2	repeat/STIM_006.jpg	100
1730.673	1.024	1024.2	repeat	Run2	repeat/STIM_006.jpg	100
1734.836	1.109	1108.6	repeat	Run2	repeat/STIM_006.jpg	100
1737.976	0.656	655.7	repeat	Run2	repeat/STIM_006.jpg	99
1740.681	0.838	837.6	repeat	Run2	repeat/STIM_006.jpg	99
1745.252	0.933	932.7	repeat	Run2	repeat/STIM_007.jpg	100
1749.868	1.156	1156.4	repeat	Run2	repeat/STIM_007.jpg	99
1754.216	1.208	1208.2	repeat	Run2	repeat/STIM_007.jpg	99
1758.957	1.1	1099.6	repeat	Run2	repeat/STIM_007.jpg	99
1762.766	0.995	995.2	repeat	Run2	repeat/STIM_007.jpg	100
1766.757	0.914	914.4	repeat	Run2	repeat/STIM_008.jpg	100
1770.342	0.679	679.0	repeat	Run2	repeat/STIM_008.jpg	100
1773.104	1.092	1091.9	repeat	Run2	repeat/STIM_008.jpg	100
1776.451	0.967	967.1	repeat	Run2	repeat/STIM_008.jpg	100
1780.736	0.857	857.4	repeat	Run2	repeat/STIM_008.jpg	100
1784.288	1.0	999.8	repeat	Run2	repeat/STIM_009.jpg	99
1787.457	1.156	1156.3	repeat	Run2	repeat/STIM_009.jpg	99
1791.972	1.225	1224.8	repeat	Run2	repeat/STIM_009.jpg	99
1795.559	1.03	1030.5	repeat	Run2	repeat/STIM_009.jpg	100
1799.259	0.88	879.7	repeat	Run2	repeat/STIM_009.jpg	100
1802.349	0.944	943.9	repeat	Run2	repeat/STIM_010.jpg	100
1806.867	0.65	650.0	repeat	Run2	repeat/STIM_010.jpg	99
1811.122	1.124	1123.7	repeat	Run2	repeat/STIM_010.jpg	99
1814.809	0.697	696.6	repeat	Run2	repeat/STIM_010.jpg	99
1817.517	1.09	1090.4	repeat	Run2	repeat/STIM_010.jpg	99
1821.831	0.644	643.7	repeat	Run2	repeat/STIM_011.jpg	100
1825.313	0.705	704.6	repeat	Run2	repeat/STIM_011.jpg	99
1829.388	1.158	1158.4	repeat	Run2	repeat/STIM_011.jpg	100
1833.738	1.045	1045.2	repeat	Run2	repeat/STIM_011.jpg	99
1838.0	1.044	1043.6	repeat	Run2	repeat/STIM_011.jpg	100
1842.804	1.13	1130.0	repeat	Run2	repeat/STIM_012.jpg	100
1846.166	0.921	920.7	repeat	Run2	repeat/STIM_012.jpg	99
1850.711	0.941	941.3	repeat	Run2	repeat/STIM_012.jpg	100
1853.681	1.065	1065.2	repeat	Run2	repeat/STIM_012.jpg	100
1856.895	1.172	1171.9	repeat	Run2	repeat/STIM_012.jpg	99
1860.341	0.978	977.7	repeat	Run2	repeat/STIM_013.jpg	99
1864.058	1.172	1172.5	repeat	Run2	repeat/STIM_013.jpg	100
1868.32	1.111	1110.8	repeat	Run2	repeat/STIM_013.jpg	99
1872.441	0.892	892.1	repeat	Run2	repeat/STIM_013.jpg	100
1876.772	1.152	1152.0	repeat	Run2	repeat/STIM_013.jpg	100
1880.64	1.247	1247.3	repeat	Run2	repeat/STIM_014.jpg	100
1884.493	1.115	1114.6	repeat	Run2	repeat/STIM_014.jpg	100
1889.577	0.727	726.9	repeat	Run2	repeat/STIM_014.jpg	100
1892.403	0.946	946.1	repeat	Run2	repeat/STIM_014.jpg	99
1895.409	0.646	646.1	repeat	Run2	repeat/STIM_014.jpg	100
1899.517	1.071	1071.1	generate	Run3	generate/STIM_000.jpg	99
1903.724	1.89	1889.8	generate	Run3	generate/STIM_000.jpg	99
1908.239	2.06	2059.7	generate	Run3	generate/STIM_000.jpg	100
1912.646	2.559	2559.3	generate	Run3	generate/STIM_000.jpg	99
1917.657	1.809	1808.9	generate	Run3	generate/STIM_000.jpg	100
1921.858	1.062	1062.0	generate	Run3	generate/STIM_001.jpg	99
1924.99	1.702	1702.2	generate	Run3	generate/STIM_001.jpg	100
1930.152	1.261	1261.0	generate	Run3	generate/STIM_001.jpg	99
1933.722	2.051	2050.7	generate	Run3	generate/STIM_001.jpg	100
1937.916	1.295	1295.1	generate	Run3	generate/STIM_001.jpg	99
1941.393	1.952	1952.1	generate	Run3	generate/STIM_002.jpg	100
1945.462	1.402	1402.3	generate	Run3	generate/STIM_002.jpg	100
1950.703	1.202	1201.7	generate	Run3	generate/STIM_002.jpg	99
1955.192	1.695	1695.2	generate	Run3	generate/STIM_002.jpg	100
1960.514	1.971	1971.4	generate	Run3	generate/STIM_002.jpg	99
1964.562	2.573	2573.3	generate	Run3	generate/STIM_003.jpg	99
1969.839	2.482	2482.4	generate	Run3	generate/STIM_003.jpg	100
1974.523	1.98	1980.5	generate	Run3	generate/STIM_003.jpg	99
1978.99	1.072	1071.8	generate	Run3	generate/STIM_003.jpg	100
1982.631	2.517	2517.3	generate	Run3	generate/STIM_003.jpg	99
1988.855	1.187	1186.9	generate	Run3	generate/STIM_004.jpg	99
1992.658	2.145	2145.4	generate	Run3	generate/STIM_004.jpg	100
1997.744	1.604	1604.3	generate	Run3	generate/STIM_004.jpg	99
2002.617	1.253	1253.1	generate	Run3	generate/STIM_004.jpg	99
2007.116	1.874	1873.7	generate	Run3	generate/STIM_004.jpg	99
2011.126	2.623	2623.4	generate	Run3	generate/STIM_005.jpg	99
2017.636	2.16	2160.4	generate	Run3	generate/STIM_005.jpg	99
2023.292	1.431	1430.6	generate	Run3	generate/STIM_005.jpg	100
2027.989	1.973	1973.0	generate	Run3	generate/STIM_005.jpg	99
2031.981	2.149	2149.2	generate	Run3	generate/STIM_005.jpg	100
2036.456	2.054	2054.3	generate	Run3	generate/STIM_006.jpg	99
2041.457	1.093	1093.0	generate	Run3	generate/STIM_006.jpg	99
2045.732	2.501	2500.6	generate	Run3	generate/STIM_006.jpg	100
2050.71	1.307	1307.3	generate	Run3	generate/STIM_006.jpg	100
2054.928	2.264	2263.7	generate	Run3	generate/STIM_006.jpg	100
2060.549	2.619	2618.8	generate	Run3	generate/STIM_007.jpg	99
2066.57	1.636	1635.6	generate	Run3	generate/STIM_007.jpg	99
2071.204	1.713	1712.8	generate	Run3	generate/STIM_007.jpg	99
2075.823	2.427	2426.6	generate	Run3	generate/STIM_007.jpg	100
2080.675	1.708	1708.3	generate	Run3	generate/STIM_007.jpg	100
2085.181	2.107	2106.9	generate	Run3	generate/STIM_008.jpg	99
2089.905	2.287	2286.7	generate	Run3	generate/STIM_008.jpg	99
2094.2	2.371	2370.9	generate	Run3	generate/STIM_008.jpg	99
2099.7	1.63	1630.3	generate	Run3	generate/STIM_008.jpg	99
2104.122	1.579	1579.2	generate	Run3	generate/STIM_008.jpg	100
2107.974	1.43	1430.0	generate	Run3	generate/STIM_009.jpg	99
2112.079	1.39	1390.3	generate	Run3	generate/STIM_009.jpg	99
2117.374	1.101	1101.3	generate	Run3	generate/STIM_009.jpg	100
2122.094	1.113	1113.0	generate	Run3	generate/STIM_009.jpg	99
2125.631	1.69	1689.6	generate	Run3	generate/STIM_009.jpg	99
2130.084	1.908	1907.6	generate	Run3	generate/STIM_010.jpg	100
2134.833	1.832	1831.5	generate	Run3	generate/STIM_010.jpg	100
2139.856	1.765	1765.4	generate	Run3	generate/STIM_010.jpg	99
2144.532	1.743	1742.9	generate	Run3	generate/STIM_010.jpg	100
2149.831	2.421	2421.2	generate	Run3	generate/STIM_010.jpg	99
2155.882	1.192	1191.5	generate	Run3	generate/STIM_011.jpg	100
2159.661	2.406	2405.9	generate	Run3	generate/STIM_011.jpg	100
2165.436	1.444	1443.9	generate	Run3	generate/STIM_011.jpg	100
2170.088	1.941	1941.3	generate	Run3	generate/STIM_011.jpg	99
2174.509	2.5	2500.2	generate	Run3	generate/STIM_011.jpg	99
2179.162	1.913	1913.1	generate	Run3	generate/STIM_012.jpg	99
2184.14	2.436	2436.5	generate	Run3	generate/STIM_012.jpg	100
2188.777	1.654	1654.3	generate	Run3	generate/STIM_012.jpg	99
2194.354	2.446	2446.1	generate	Run3	generate/STIM_012.jpg	100
2199.113	2.092	2092.4	generate	Run3	generate/STIM_012.jpg	100
2204.537	1.633	1633.2	generate	Run3	generate/STIM_013.jpg	100
2210.058	1.94	1940.1	generate	Run3	generate/STIM_013.jpg	99
2214.994	1.752	1751.6	generate	Run3	generate/STIM_013.jpg	100
2219.797	2.348	2348.5	generate	Run3	generate/STIM_013.jpg	100
2225.039	2.38	2379.8	generate	Run3	generate/STIM_013.jpg	100
2229.911	1.773	1773.1	generate	Run3	generate/STIM_014.jpg	99
2233.955	1.904	1904.4	generate	Run3	generate/STIM_014.jpg	99
2238.502	2.202	2202.5	generate	Run3	generate/STIM_014.jpg	99
2243.344	1.095	1095.4	generate	Run3	generate/STIM_014.jpg	99
2248.341	2.109	2109.0	generate	Run3	generate/STIM_014.jpg	99
2252.839	1.64	1639.7	generate	Run3	generate/STIM_015.jpg	99
2257.5	2.31	2310.0	generate	Run3	generate/STIM_015.jpg	100
2262.146	2.421	2421.3	generate	Run3	generate/STIM_015.jpg	100
2268.298	1.748	1748.4	generate	Run3	generate/STIM_015.jpg	99
2272.87	1.134	1133.8	generate	Run3	generate/STIM_015.jpg	99
2277.012	2.61	2609.8	generate	Run3	generate/STIM_016.jpg	99
2281.971	1.278	1278.2	generate	Run3	generate/STIM_016.jpg	99
2285.49	1.317	1316.7	generate	Run3	generate/STIM_016.jpg	100
2290.737	1.779	1779.0	generate	Run3	generate/STIM_016.jpg	100
2296.157	1.296	1295.6	generate	Run3	generate/STIM_016.jpg	99
2300.016	2.056	2055.9	generate	Run3	generate/STIM_017.jpg	99
2304.585	1.288	1287.5	generate	Run3	generate/STIM_017.jpg	99
2309.334	1.074	1073.6	generate	Run3	generate/STIM_017.jpg	99
2313.061	1.969	1968.7	generate	Run3	generate/STIM_017.jpg	100
2318.318	2.508	2507.6	generate	Run3	generate/STIM_017.jpg	99
2324.783	1.606	1606.2	generate	Run3	generate/STIM_018.jpg	100
2328.932	1.81	1809.5	generate	Run3	generate/STIM_018.jpg	100
2333.102	2.108	2108.4	generate	Run3	generate/STIM_018.jpg	100
2337.781	1.361	1361.1	generate	Run3	generate/STIM_018.jpg	99
2341.885	1.08	1079.5	generate	Run3	generate/STIM_018.jpg	99
2346.891	2.606	2606.0	generate	Run3	generate/STIM_019.jpg	100
2351.618	2.1	2100.1	generate	Run3	generate/STIM_019.jpg	100
2356.77	1.966	1965.6	generate	Run3	generate/STIM_019.jpg	100
2361.976	1.234	1233.5	generate	Run3	generate/STIM_019.jpg	99
2366.053	1.398	1398.5	generate	Run3	generate/STIM_019.jpg	100
2371.434	1.058	1058.0	generate	Run3	generate/STIM_020.jpg	99
2374.99	1.141	1141.1	generate	Run3	generate/STIM_020.jpg	100
2378.614	2.088	2087.8	generate	Run3	generate/STIM_020.jpg	99
2383.192	1.798	1798.1	generate	Run3	generate/STIM_020.jpg	99
2388.229	1.875	1875.1	generate	Run3	generate/STIM_020.jpg	100
2393.102	1.468	1467.9	generate	Run3	generate/STIM_021.jpg	100
2398.076	2.553	2552.9	generate	Run3	generate/STIM_021.jpg	100
2403.57	2.128	2128.4	generate	Run3	generate/STIM_021.jpg	100
2408.451	2.606	2606.5	generate	Run3	generate/STIM_021.jpg	100
2414.323	2.512	2511.5	generate	Run3	generate/STIM_021.jpg	100
2419.719	2.142	2142.5	generate	Run3	generate/STIM_022.jpg	99
2425.668	1.89	1889.8	generate	Run3	generate/STIM_022.jpg	99
2431.31	2.302	2302.2	generate	Run3	generate/STIM_022.jpg	99
2436.428	2.48	2479.5	generate	Run3	generate/STIM_022.jpg	100
2441.238	1.957	1956.6	generate	Run3	generate/STIM_022.jpg	100
2446.498	1.55	1549.7	generate	Run3	generate/STIM_023.jpg	100
2451.887	2.412	2411.7	generate	Run3	generate/STIM_023.jpg	99
2458.166	1.195	1195.1	generate	Run3	generate/STIM_023.jpg	100
2461.655	2.57	2570.3	generate	Run3	generate/STIM_023.jpg	100
2466.686	1.656	1656.1	generate	Run3	generate/STIM_023.jpg	99
2470.739	2.077	2077.2	generate	Run3	generate/STIM_024.jpg	100
2476.08	2.452	2451.9	generate	Run3	generate/STIM_024.jpg	99
2482.32	1.228	1228.1	generate	Run3	generate/STIM_024.jpg	100
2485.837	1.514	1513.9	generate	Run3	generate/STIM_024.jpg	99
2491.133	1.349	1349.0	generate	Run3	generate/STIM_024.jpg	99
2495.913	0.639	639.0	repeat	Run3	repeat/STIM_000.jpg	100
2498.937	0.682	682.4	repeat	Run3	repeat/STIM_000.jpg	100
2502.583	0.962	961.8	repeat	Run3	repeat/STIM_000.jpg	99
2506.23	1.224	1224.0	repeat	Run3	repeat/STIM_000.jpg	99
2510.509	0.648	648.1	repeat	Run3	repeat/STIM_000.jpg	100
2513.819	0.937	937.4	repeat	Run3	repeat/STIM_001.jpg	99
2518.007	0.652	651.5	repeat	Run3	repeat/STIM_001.jpg	99
2521.335	0.719	719.0	repeat	Run3	repeat/STIM_001.jpg	100
2524.077	0.832	831.6	repeat	Run3	repeat/STIM_001.jpg	100
2527.443	0.855	855.1	repeat	Run3	repeat/STIM_001.jpg	99
2531.708	0.66	660.3	repeat	Run3	repeat/STIM_002.jpg	100
2535.872	1.165	1165.3	repeat	Run3	repeat/STIM_002.jpg	99
2539.357	0.734	734.1	repeat	Run3	repeat/STIM_002.jpg	100
2542.385	1.226	1226.4	repeat	Run3	repeat/STIM_002.jpg	99
2546.52	1.041	1040.8	repeat	Run3	repeat/STIM_002.jpg	99
2551.242	0.946	945.9	repeat	Run3	repeat/STIM_003.jpg	100
2554.332	0.837	837.1	repeat	Run3	repeat/STIM_003.jpg	99
2558.901	0.863	863.0	repeat	Run3	repeat/STIM_003.jpg	99
2563.584	0.999	999.3	repeat	Run3	repeat/STIM_003.jpg	100
2566.9	1.09	1090.0	repeat	Run3	repeat/STIM_003.jpg	99
2571.875	0.729	729.0	repeat	Run3	repeat/STIM_004.jpg	99
2575.798	1.16	1159.8	repeat	Run3	repeat/STIM_004.jpg	99
2580.152	0.783	783.3	repeat	Run3	repeat/STIM_004.jpg	100
2583.349	0.634	634.1	repeat	Run3	repeat/STIM_004.jpg	100
2586.36	1.059	1058.8	repeat	Run3	repeat/STIM_004.jpg	99
2590.89	1.215	1215.4	repeat	Run3	repeat/STIM_005.jpg	99
2595.897	0.853	853.0	repeat	Run3	repeat/STIM_005.jpg	100
2600.736	0.639	638.6	repeat	Run3	repeat/STIM_005.jpg	100
2604.022	0.962	961.8	repeat	Run3	repeat/STIM_005.jpg	99
2608.277	0.956	956.0	repeat	Run3	repeat/STIM_005.jpg	100
2611.946	0.677	677.2	repeat	Run3	repeat/STIM_006.jpg	99
2614.696	0.802	801.7	repeat	Run3	repeat/STIM_006.jpg	99
2618.655	0.806	806.5	repeat	Run3	repeat/STIM_006.jpg	99
2622.239	0.928	927.6	repeat	Run3	repeat/STIM_006.jpg	100
2626.333	0.985	984.9	repeat	Run3	repeat/STIM_006.jpg	100
2629.517	1.167	1167.4	repeat	Run3	repeat/STIM_007.jpg	99
2633.812	0.754	754.5	repeat	Run3	repeat/STIM_007.jpg	99
2637.902	0.853	852.6	repeat	Run3	repeat/STIM_007.jpg	100
2641.249	1.119	1119.0	repeat	Run3	repeat/STIM_007.jpg	99
2644.457	1.113	1113.2	repeat	Run3	repeat/STIM_007.jpg	100
2648.897	0.722	722.1	repeat	Run3	repeat/STIM_008.jpg	100
2652.204	1.12	1120.3	repeat	Run3	repeat/STIM_008.jpg	99
2657.087	1.004	1004.4	repeat	Run3	repeat/STIM_008.jpg	99
2660.804	1.168	1167.6	repeat	Run3	repeat/STIM_008.jpg	99
2664.181	1.238	1238.4	repeat	Run3	repeat/STIM_008.jpg	100
2668.358	1.245	1245.4	repeat	Run3	repeat/STIM_009.jpg	100
2673.112	1.083	1083.3	repeat	Run3	repeat/STIM_009.jpg	99
2677.71	1.01	1009.7	repeat	Run3	repeat/STIM_009.jpg	99
2681.701	0.948	947.5	repeat	Run3	repeat/STIM_009.jpg	100
2686.122	1.148	1148.3	repeat	Run3	repeat/STIM_009.jpg	99
2690.661	1.095	1095.1	repeat	Run3	repeat/STIM_010.jpg	100
2695.703	0.857	857.1	repeat	Run3	repeat/STIM_010.jpg	99
2699.913	0.914	914.3	repeat	Run3	repeat/STIM_010.jpg	99
2703.673	0.894	894.3	repeat	Run3	repeat/STIM_010.jpg	99
2707.967	0.966	966.2	repeat	Run3	repeat/STIM_010.jpg	99
2711.366	1.178	1177.8	repeat	Run3	repeat/STIM_011.jpg	99
2716.155	0.949	949.1	repeat	Run3	repeat/STIM_011.jpg	99
2720.128	1.205	1204.6	repeat	Run3	repeat/STIM_011.jpg	100
2724.016	0.882	882.4	repeat	Run3	repeat/STIM_011.jpg	100
2727.482	0.764	764.2	repeat	Run3	repeat/STIM_011.jpg	100
2730.692	0.835	835.2	repeat	Run3	repeat/STIM_012.jpg	100
2733.552	0.842	842.2	repeat	Run3	repeat/STIM_012.jpg	100
2737.095	0.918	918.1	repeat	Run3	repeat/STIM_012.jpg	99
2740.052	1.187	1187.1	repeat	Run3	repeat/STIM_012.jpg	100
2744.204	1.162	1162.1	repeat	Run3	repeat/STIM_012.jpg	100
2748.95	0.792	791.9	repeat	Run3	repeat/STIM_013.jpg	100
2753.043	1.187	1186.6	repeat	Run3	repeat/STIM_013.jpg	100
2757.752	1.13	1129.9	repeat	Run3	repeat/STIM_013.jpg	100
2761.681	0.941	941.3	repeat	Run3	repeat/STIM_013.jpg	100
2764.974	1.159	1159.3	repeat	Run3	repeat/STIM_013.jpg	99
2770.125	1.115	1115.1	repeat	Run3	repeat/STIM_014.jpg	99
2774.884	1.145	1144.7	repeat	Run3	repeat/STIM_014.jpg	99
2779.737	1.084	1083.6	repeat	Run3	repeat/STIM_014.jpg	99
2783.827	0.687	687.1	repeat	Run3	repeat/STIM_014.jpg	100
2787.426	0.896	896.5	repeat	Run3	repeat/STIM_014.jpg	99
2791.161	2.284	2283.7	generate	Run4	generate/STIM_000.jpg	99
2795.46	1.649	1649.3	generate	Run4	generate/STIM_000.jpg	100
2799.269	1.787	1786.7	generate	Run4	generate/STIM_000.jpg	100
2803.896	2.427	2426.7	generate	Run4	generate/STIM_000.jpg	99
2809.04	1.172	1172.1	generate	Run4	generate/STIM_000.jpg	100
2812.447	1.76	1760.3	generate	Run4	generate/STIM_001.jpg	100
2817.607	1.81	1810.5	generate	Run4	generate/STIM_001.jpg	99
2822.285	2.108	2108.0	generate	Run4	generate/STIM_001.jpg	99
2828.02	1.668	1667.7	generate	Run4	generate/STIM_001.jpg	100
2833.003	2.119	2119.4	generate	Run4	generate/STIM_001.jpg	99
2838.194	2.011	2010.8	generate	Run4	generate/STIM_002.jpg	99
2843.28	1.31	1309.8	generate	Run4	generate/STIM_002.jpg	100
2847.611	1.725	1724.7	generate	Run4	generate/STIM_002.jpg	100
2852.423	1.308	1307.6	generate	Run4	generate/STIM_002.jpg	100
2856.417	1.622	1621.6	generate	Run4	generate/STIM_002.jpg	99
2860.936	1.51	1510.4	generate	Run4	generate/STIM_003.jpg	99
2864.582	2.443	2442.6	generate	Run4	generate/STIM_003.jpg	100
2869.568	1.316	1316.1	generate	Run4	generate/STIM_003.jpg	99
2873.865	1.185	1185.0	generate	Run4	generate/STIM_003.jpg	99
2878.697	1.874	1874.3	generate	Run4	generate/STIM_003.jpg	100
2883.202	2.121	2121.0	generate	Run4	generate/STIM_004.jpg	99
2889.198	1.399	1398.6	generate	Run4	generate/STIM_004.jpg	99
2892.756	2.551	2551.0	generate	Run4	generate/STIM_004.jpg	100
2898.29	1.484	1484.4	generate	Run4	generate/STIM_004.jpg	100
2903.126	1.654	1653.7	generate	Run4	generate/STIM_004.jpg	100
2907.165	2.507	2507.3	generate	Run4	generate/STIM_005.jpg	100
2912.122	2.154	2154.4	generate	Run4	generate/STIM_005.jpg	100
2917.497	2.539	2539.0	generate	Run4	generate/STIM_005.jpg	99
2922.051	1.35	1350.3	generate	Run4	generate/STIM_005.jpg	100
2925.952	2.025	2025.2	generate	Run4	generate/STIM_005.jpg	99
2930.012	1.068	1068.2	generate	Run4	generate/STIM_006.jpg	99
2934.664	1.932	1932.4	generate	Run4	generate/STIM_006.jpg	99
2940.479	1.869	1868.7	generate	Run4	generate/STIM_006.jpg	99
2945.253	1.664	1664.4	generate	Run4	generate/STIM_006.jpg	99
2949.923	2.059	2058.8	generate	Run4	generate/STIM_006.jpg	100
2955.223	1.918	1918.3	generate	Run4	generate/STIM_007.jpg	99
2960.096	1.302	1301.6	generate	Run4	generate/STIM_007.jpg	100
2965.083	2.505	2504.6	generate	Run4	generate/STIM_007.jpg	100
2971.202	1.413	1412.9	generate	Run4	generate/STIM_007.jpg	100
2975.834	1.792	1792.1	generate	Run4	generate/STIM_007.jpg	100
2980.704	2.164	2164.2	generate	Run4	generate/STIM_008.jpg	100
2986.536	2.623	2623.4	generate	Run4	generate/STIM_008.jpg	100
2992.295	1.079	1078.8	generate	Run4	generate/STIM_008.jpg	99
2997.278	1.698	1698.3	generate	Run4	generate/STIM_008.jpg	100
3001.306	1.952	1952.4	generate	Run4	generate/STIM_008.jpg	100
3005.476	1.113	1112.8	generate	Run4	generate/STIM_009.jpg	99
3008.637	1.68	1680.3	generate	Run4	generate/STIM_009.jpg	100
3013.465	2.105	2104.6	generate	Run4	generate/STIM_009.jpg	99
3017.967	1.329	1329.2	generate	Run4	generate/STIM_009.jpg	100
3021.737	2.564	2564.1	generate	Run4	generate/STIM_009.jpg	100
3026.709	2.607	2607.4	generate	Run4	generate/STIM_010.jpg	100
3033.008	1.276	1276.1	generate	Run4	generate/STIM_010.jpg	99
3038.229	1.317	1317.3	generate	Run4	generate/STIM_010.jpg	100
3041.787	2.104	2104.2	generate	Run4	generate/STIM_010.jpg	99
3046.216	1.095	1095.3	generate	Run4	generate/STIM_010.jpg	99
3050.554	1.462	1462.4	generate	Run4	generate/STIM_011.jpg	100
3054.331	2.027	2027.2	generate	Run4	generate/STIM_011.jpg	99
3058.985	2.297	2296.6	generate	Run4	generate/STIM_011.jpg	99
3063.769	2.416	2415.8	generate	Run4	generate/STIM_011.jpg	100
3068.619	1.905	1905.1	generate	Run4	generate/STIM_011.jpg	100
3072.618	1.104	1104.3	generate	Run4	generate/STIM_012.jpg	99
3076.654	1.454	1454.0	generate	Run4	generate/STIM_012.jpg	99
3081.461	2.43	2429.8	generate	Run4	generate/STIM_012.jpg	100
3086.135	1.725	1725.1	generate	Run4	generate/STIM_012.jpg	99
3090.254	2.583	2582.9	generate	Run4	generate/STIM_012.jpg	100
3095.667	1.923	1922.9	generate	Run4	generate/STIM_013.jpg	100
3100.936	2.03	2029.8	generate	Run4	generate/STIM_013.jpg	99
3105.551	1.177	1176.8	generate	Run4	generate/STIM_013.jpg	100
3109.268	1.294	1294.1	generate	Run4	generate/STIM_013.jpg	100
3113.037	2.544	2543.8	generate	Run4	generate/STIM_013.jpg	99
3118.976	2.326	2326.5	generate	Run4	generate/STIM_014.jpg	99
3124.709	1.119	1118.8	generate	Run4	generate/STIM_014.jpg	99
3128.654	2.404	2404.2	generate	Run4	generate/STIM_014.jpg	99
3133.289	2.403	2402.7	generate	Run4	generate/STIM_014.jpg	99
3138.549	1.514	1513.9	generate	Run4	generate/STIM_014.jpg	100
3142.094	2.13	2130.5	generate	Run4	generate/STIM_015.jpg	100
3147.211	1.229	1228.8	generate	Run4	generate/STIM_015.jpg	99
3151.09	1.697	1697.4	generate	Run4	generate/STIM_015.jpg	100
3156.607	2.033	2032.9	generate	Run4	generate/STIM_015.jpg	100
3162.124	2.533	2533.1	generate	Run4	generate/STIM_015.jpg	100
3167.726	1.187	1187.0	generate	Run4	generate/STIM_016.jpg	100
3172.883	1.296	1295.5	generate	Run4	generate/STIM_016.jpg	100
3177.323	2.096	2096.5	generate	Run4	generate/STIM_016.jpg	99
3181.878	2.331	2330.6	generate	Run4	generate/STIM_016.jpg	99
3186.391	1.22	1220.2	generate	Run4	generate/STIM_016.jpg	99
3190.32	1.387	1387.1	generate	Run4	generate/STIM_017.jpg	99
3194.378	2.102	2101.8	generate	Run4	generate/STIM_017.jpg	100
3200.023	1.188	1187.9	generate	Run4	generate/STIM_017.jpg	100
3204.825	1.817	1817.3	generate	Run4	generate/STIM_017.jpg	100
3209.184	2.627	2627.4	generate	Run4	generate/STIM_017.jpg	99
3214.994	1.702	1701.9	generate	Run4	generate/STIM_018.jpg	99
3220.307	2.61	2609.5	generate	Run4	generate/STIM_018.jpg	99
3224.921	1.144	1144.4	generate	Run4	generate/STIM_018.jpg	100
3228.716	2.057	2056.9	generate	Run4	generate/STIM_018.jpg	99
3232.991	1.618	1617.5	generate	Run4	generate/STIM_018.jpg	100
3236.703	1.956	1955.8	generate	Run4	generate/STIM_019.jpg	100
3242.548	2.344	2343.6	generate	Run4	generate/STIM_019.jpg	100
3248.215	2.584	2584.4	generate	Run4	generate/STIM_019.jpg	100
3253.364	2.181	2181.2	generate	Run4	generate/STIM_019.jpg	100
3257.573	2.585	2584.9	generate	Run4	generate/STIM_019.jpg	100
3262.726	1.823	1823.1	generate	Run4	generate/STIM_020.jpg	100
3267.537	1.665	1665.2	generate	Run4	generate/STIM_020.jpg	99
3272.843	2.385	2385.1	generate	Run4	generate/STIM_020.jpg	99
3278.986	1.541	1540.7	generate	Run4	generate/STIM_020.jpg	99
3283.217	2.171	2171.3	generate	Run4	generate/STIM_020.jpg	100
3288.048	2.016	2016.0	generate	Run4	generate/STIM_021.jpg	99
3292.516	2.191	2191.2	generate	Run4	generate/STIM_021.jpg	99
3298.457	2.437	2437.2	generate	Run4	generate/STIM_021.jpg	99
3304.03	1.111	1111.3	generate	Run4	generate/STIM_021.jpg	99
3308.143	2.504	2503.7	generate	Run4	generate/STIM_021.jpg	100
3313.394	1.086	1086.5	generate	Run4	generate/STIM_022.jpg	100
3316.762	2.12	2119.9	generate	Run4	generate/STIM_022.jpg	100
3322.437	1.976	1975.7	generate	Run4	generate/STIM_022.jpg	99
3326.85	1.829	1829.3	generate	Run4	generate/STIM_022.jpg	99
3330.902	1.809	1809.3	generate	Run4	generate/STIM_022.jpg	100
3335.275	2.216	2216.3	generate	Run4	generate/STIM_023.jpg	99
3339.599	2.317	2317.0	generate	Run4	generate/STIM_023.jpg	100
3344.392	2.041	2041.3	generate	Run4	generate/STIM_023.jpg	99
3348.797	1.698	1698.1	generate	Run4	generate/STIM_023.jpg	100
3354.482	2.41	2410.5	generate	Run4	generate/STIM_023.jpg	100
3359.899	2.434	2434.0	generate	Run4	generate/STIM_024.jpg	99
3365.16	1.199	1199.1	generate	Run4	generate/STIM_024.jpg	99
3369.017	1.839	1838.6	generate	Run4	generate/STIM_024.jpg	99
3374.845	1.67	1669.8	generate	Run4	generate/STIM_024.jpg	99
3379.589	2.552	2551.9	generate	Run4	generate/STIM_024.jpg	100
3385.821	0.892	891.6	repeat	Run4	repeat/STIM_000.jpg	100
3389.424	1.149	1148.9	repeat	Run4	repeat/STIM_000.jpg	99
3394.538	0.845	845.1	repeat	Run4	repeat/STIM_000.jpg	100
3399.301	1.04	1039.5	repeat	Run4	repeat/STIM_000.jpg	99
3404.184	1.119	1118.7	repeat	Run4	repeat/STIM_000.jpg	100
3408.238	0.872	871.5	repeat	Run4	repeat/STIM_001.jpg	99
3411.419	1.195	1194.9	repeat	Run4	repeat/STIM_001.jpg	100
3414.957	0.652	651.8	repeat	Run4	repeat/STIM_001.jpg	100
3417.867	0.805	804.8	repeat	Run4	repeat/STIM_001.jpg	100
3422.12	0.861	860.7	repeat	Run4	repeat/STIM_001.jpg	99
3426.112	0.839	838.7	repeat	Run4	repeat/STIM_002.jpg	100
3429.367	0.879	878.8	repeat	Run4	repeat/STIM_002.jpg	99
3433.249	1.063	1062.7	repeat	Run4	repeat/STIM_002.jpg	100
3436.791	0.88	880.3	repeat	Run4	repeat/STIM_002.jpg	99
3440.847	0.915	914.6	repeat	Run4	repeat/STIM_002.jpg	99
3444.89	0.932	931.9	repeat	Run4	repeat/STIM_003.jpg	100
3448.833	0.842	841.6	repeat	Run4	repeat/STIM_003.jpg	99
3453.32	1.246	1245.6	repeat	Run4	repeat/STIM_003.jpg	99
3456.663	0.839	838.7	repeat	Run4	repeat/STIM_003.jpg	100
3459.624	1.246	1246.4	repeat	Run4	repeat/STIM_003.jpg	100
3463.9	0.879	878.9	repeat	Run4	repeat/STIM_004.jpg	100
3467.822	0.94	940.5	repeat	Run4	repeat/STIM_004.jpg	99
3471.185	1.138	1138.5	repeat	Run4	repeat/STIM_004.jpg	100
3474.459	0.941	941.0	repeat	Run4	repeat/STIM_004.jpg	100
3478.437	1.096	1096.1	repeat	Run4	repeat/STIM_004.jpg	99
3481.655	0.784	783.5	repeat	Run4	repeat/STIM_005.jpg	99
3485.314	0.879	878.7	repeat	Run4	repeat/STIM_005.jpg	100
3488.376	0.764	764.5	repeat	Run4	repeat/STIM_005.jpg	100
3491.766	1.106	1105.7	repeat	Run4	repeat/STIM_005.jpg	99
3495.848	0.651	650.8	repeat	Run4	repeat/STIM_005.jpg	99
3498.585	0.725	725.0	repeat	Run4	repeat/STIM_006.jpg	99
3502.684	0.906	906.5	repeat	Run4	repeat/STIM_006.jpg	100
3507.36	0.719	719.0	repeat	Run4	repeat/STIM_006.jpg	99
3511.274	1.052	1052.2	repeat	Run4	repeat/STIM_006.jpg	100
3515.616	1.092	1092.0	repeat	Run4	repeat/STIM_006.jpg	100
3519.421	1.217	1217.4	repeat	Run4	repeat/STIM_007.jpg	100
3523.345	0.654	653.8	repeat	Run4	repeat/STIM_007.jpg	99
3526.362	1.215	1214.6	repeat	Run4	repeat/STIM_007.jpg	100
3531.135	1.063	1063.3	repeat	Run4	repeat/STIM_007.jpg	99
3534.561	1.232	1231.5	repeat	Run4	repeat/STIM_007.jpg	99
3538.974	0.903	903.4	repeat	Run4	repeat/STIM_008.jpg	100
3543.031	0.758	757.5	repeat	Run4	repeat/STIM_008.jpg	100
3546.883	0.64	639.7	repeat	Run4	repeat/STIM_008.jpg	99
3551.244	0.888	888.3	repeat	Run4	repeat/STIM_008.jpg	100
3554.552	0.853	853.3	repeat	Run4	repeat/STIM_008.jpg	100
3557.658	1.199	1199.2	repeat	Run4	repeat/STIM_009.jpg	99
3562.523	0.873	872.8	repeat	Run4	repeat/STIM_009.jpg	100
3566.669	1.199	1199.2	repeat	Run4	repeat/STIM_009.jpg	99
3571.764	1.145	1144.9	repeat	Run4	repeat/STIM_009.jpg	99
3575.804	1.178	1178.1	repeat	Run4	repeat/STIM_009.jpg	100
3579.522	1.24	1240.2	repeat	Run4	repeat/STIM_010.jpg	99
3584.121	0.796	796.2	repeat	Run4	repeat/STIM_010.jpg	99
3587.714	0.702	701.8	repeat	Run4	repeat/STIM_010.jpg	100
3590.842	1.158	1158.1	repeat	Run4	repeat/STIM_010.jpg	100
3594.004	0.76	760.4	repeat	Run4	repeat/STIM_010.jpg	100
3598.735	0.801	800.8	repeat	Run4	repeat/STIM_011.jpg	99
3602.258	0.739	739.4	repeat	Run4	repeat/STIM_011.jpg	100
3605.482	0.792	792.0	repeat	Run4	repeat/STIM_011.jpg	99
3608.397	0.918	917.7	repeat	Run4	repeat/STIM_011.jpg	100
3613.212	0.997	997.4	repeat	Run4	repeat/STIM_011.jpg	99
3616.718	0.817	817.1	repeat	Run4	repeat/STIM_012.jpg	99
3619.689	0.652	651.7	repeat	Run4	repeat/STIM_012.jpg	100
3623.695	0.635	635.3	repeat	Run4	repeat/STIM_012.jpg	100
3627.811	1.032	1031.6	repeat	Run4	repeat/STIM_012.jpg	99
3631.355	1.017	1017.0	repeat	Run4	repeat/STIM_012.jpg	100
3634.951	0.792	791.6	repeat	Run4	repeat/STIM_013.jpg	99
3638.457	0.917	916.7	repeat	Run4	repeat/STIM_013.jpg	100
3643.136	0.833	833.2	repeat	Run4	repeat/STIM_013.jpg	100
3646.791	1.007	1006.6	repeat	Run4	repeat/STIM_013.jpg	99
3650.058	0.795	794.7	repeat	Run4	repeat/STIM_013.jpg	100
3654.453	0.728	727.7	repeat	Run4	repeat/STIM_014.jpg	99
3658.04	0.908	908.2	repeat	Run4	repeat/STIM_014.jpg	99
3661.921	1.123	1123.3	repeat	Run4	repeat/STIM_014.jpg	99
3666.038	0.807	807.3	repeat	Run4	repeat/STIM_014.jpg	100
3669.858	1.083	1082.7	repeat	Run4	repeat/STIM_014.jpg	100
