onset	duration	accuracy_binary	trial_type	learning_stage	stimulus
0.0	3.738	1	generate	Run1	generate/STIM_000.jpg
6.628	3.239	1	generate	Run1	generate/STIM_000.jpg
12.874	3.378	1	generate	Run1	generate/STIM_000.jpg
19.786	2.484	1	generate	Run1	generate/STIM_000.jpg
25.692	2.331	0	generate	Run1	generate/STIM_000.jpg
30.558	1.832	1	generate	Run1	generate/STIM_001.jpg
34.838	1.642	1	generate	Run1	generate/STIM_001.jpg
39.155	2.626	1	generate	Run1	generate/STIM_001.jpg
44.25	2.14	1	generate	Run1	generate/STIM_001.jpg
49.783	2.508	1	generate	Run1	generate/STIM_001.jpg
56.199	2.66	1	generate	Run1	generate/STIM_002.jpg
62.821	1.543	1	generate	Run1	generate/STIM_002.jpg
67.977	2.508	1	generate	Run1	generate/STIM_002.jpg
74.393	2.526	1	generate	Run1	generate/STIM_002.jpg
79.284	2.032	1	generate	Run1	generate/STIM_002.jpg
83.514	3.664	1	generate	Run1	generate/STIM_003.jpg
90.952	2.178	1	generate	Run1	generate/STIM_003.jpg
96.886	1.9	1	generate	Run1	generate/STIM_003.jpg
101.201	2.449	1	generate	Run1	generate/STIM_003.jpg
105.879	2.137	1	generate	Run1	generate/STIM_003.jpg
110.5	3.143	1	generate	Run1	generate/STIM_004.jpg
116.137	2.306	0	generate	Run1	generate/STIM_004.jpg
122.027	2.533	1	generate	Run1	generate/STIM_004.jpg
127.355	2.82	1	generate	Run1	generate/STIM_004.jpg
133.808	1.746	1	generate	Run1	generate/STIM_004.jpg
138.811	1.8	1	generate	Run1	generate/STIM_005.jpg
143.517	2.258	0	generate	Run1	generate/STIM_005.jpg
148.223	2.87	1	generate	Run1	generate/STIM_005.jpg
154.682	1.996	1	generate	Run1	generate/STIM_005.jpg
160.409	2.609	1	generate	Run1	generate/STIM_005.jpg
166.019	2.524	1	generate	Run1	generate/STIM_006.jpg
170.866	3.485	1	generate	Run1	generate/STIM_006.jpg
176.753	1.962	1	generate	Run1	generate/STIM_006.jpg
182.628	2.67	1	generate	Run1	generate/STIM_006.jpg
188.144	2.5	1	generate	Run1	generate/STIM_006.jpg
194.498	2.413	1	generate	Run1	generate/STIM_007.jpg
200.579	1.726	1	generate	Run1	generate/STIM_007.jpg
205.297	2.648	1	generate	Run1	generate/STIM_007.jpg
210.319	1.454	1	generate	Run1	generate/STIM_007.jpg
215.202	2.154	1	generate	Run1	generate/STIM_007.jpg
219.416	3.51	1	generate	Run1	generate/STIM_008.jpg
226.919	1.664	1	generate	Run1	generate/STIM_008.jpg
230.601	3.249	1	generate	Run1	generate/STIM_008.jpg
236.81	2.201	1	generate	Run1	generate/STIM_008.jpg
242.709	1.399	1	generate	Run1	generate/STIM_008.jpg
247.293	1.595	1	generate	Run1	generate/STIM_009.jpg
251.457	1.812	1	generate	Run1	generate/STIM_009.jpg
257.019	1.588	1	generate	Run1	generate/STIM_009.jpg
262.25	1.76	1	generate	Run1	generate/STIM_009.jpg
267.957	1.363	1	generate	Run1	generate/STIM_009.jpg
271.809	1.613	1	generate	Run1	generate/STIM_010.jpg
277.289	1.817	1	generate	Run1	generate/STIM_010.jpg
281.365	1.527	1	generate	Run1	generate/STIM_010.jpg
286.401	2.627	1	generate	Run1	generate/STIM_010.jpg
292.537	1.207	1	generate	Run1	generate/STIM_010.jpg
297.208	2.731	1	generate	Run1	generate/STIM_011.jpg
302.283	2.308	1	generate	Run1	generate/STIM_011.jpg
307.684	1.456	1	generate	Run1	generate/STIM_011.jpg
312.348	1.713	1	generate	Run1	generate/STIM_011.jpg
317.568	2.297	1	generate	Run1	generate/STIM_011.jpg
323.464	3.63	1	generate	Run1	generate/STIM_012.jpg
329.48	2.321	1	generate	Run1	generate/STIM_012.jpg
334.827	1.633	1	generate	Run1	generate/STIM_012.jpg
340.199	2.125	1	generate	Run1	generate/STIM_012.jpg
344.57	2.786	1	generate	Run1	generate/STIM_012.jpg
350.681	3.341	1	generate	Run1	generate/STIM_013.jpg
356.801	1.769	1	generate	Run1	generate/STIM_013.jpg
361.38	1.912	0	generate	Run1	generate/STIM_013.jpg
366.346	3.034	1	generate	Run1	generate/STIM_013.jpg
373.171	2.428	1	generate	Run1	generate/STIM_013.jpg
378.192	2.624	1	generate	Run1	generate/STIM_014.jpg
383.475	1.53	1	generate	Run1	generate/STIM_014.jpg
388.353	3.247	1	generate	Run1	generate/STIM_014.jpg
395.35	2.7	1	generate	Run1	generate/STIM_014.jpg
400.109	1.403	1	generate	Run1	generate/STIM_014.jpg
405.258	2.524	1	generate	Run1	generate/STIM_015.jpg
410.761	3.302	1	generate	Run1	generate/STIM_015.jpg
416.572	3.136	1	generate	Run1	generate/STIM_015.jpg
423.012	1.868	1	generate	Run1	generate/STIM_015.jpg
428.671	1.463	1	generate	Run1	generate/STIM_015.jpg
432.2	2.761	1	generate	Run1	generate/STIM_016.jpg
437.942	3.517	1	generate	Run1	generate/STIM_016.jpg
443.802	3.138	1	generate	Run1	generate/STIM_016.jpg
450.168	2.263	1	generate	Run1	generate/STIM_016.jpg
455.855	2.244	1	generate	Run1	generate/STIM_016.jpg
460.982	3.063	1	generate	Run1	generate/STIM_017.jpg
467.714	3.487	1	generate	Run1	generate/STIM_017.jpg
473.434	2.957	1	generate	Run1	generate/STIM_017.jpg
478.8	3.076	1	generate	Run1	generate/STIM_017.jpg
483.922	2.354	1	generate	Run1	generate/STIM_017.jpg
489.768	3.062	1	generate	Run1	generate/STIM_018.jpg
495.688	1.996	1	generate	Run1	generate/STIM_018.jpg
500.833	1.551	1	generate	Run1	generate/STIM_018.jpg
505.032	2.256	1	generate	Run1	generate/STIM_018.jpg
509.868	2.273	1	generate	Run1	generate/STIM_018.jpg
515.229	3.213	1	generate	Run1	generate/STIM_019.jpg
522.214	2.826	0	generate	Run1	generate/STIM_019.jpg
527.82	2.184	1	generate	Run1	generate/STIM_019.jpg
533.226	2.12	1	generate	Run1	generate/STIM_019.jpg
537.512	2.413	1	generate	Run1	generate/STIM_019.jpg
542.264	2.952	1	generate	Run1	generate/STIM_020.jpg
548.789	1.652	1	generate	Run1	generate/STIM_020.jpg
553.216	1.822	1	generate	Run1	generate/STIM_020.jpg
558.676	2.952	1	generate	Run1	generate/STIM_020.jpg
564.28	1.449	1	generate	Run1	generate/STIM_020.jpg
569.143	1.614	1	generate	Run1	generate/STIM_021.jpg
573.247	2.652	1	generate	Run1	generate/STIM_021.jpg
578.668	2.303	1	generate	Run1	generate/STIM_021.jpg
584.267	3.095	1	generate	Run1	generate/STIM_021.jpg
591.331	1.514	1	generate	Run1	generate/STIM_021.jpg
595.812	3.583	1	generate	Run1	generate/STIM_022.jpg
602.36	2.427	1	generate	Run1	generate/STIM_022.jpg
608.125	3.01	1	generate	Run1	generate/STIM_022.jpg
614.815	2.43	1	generate	Run1	generate/STIM_022.jpg
620.76	2.367	1	generate	Run1	generate/STIM_022.jpg
625.589	1.922	1	generate	Run1	generate/STIM_023.jpg
629.551	1.554	0	generate	Run1	generate/STIM_023.jpg
634.646	1.384	1	generate	Run1	generate/STIM_023.jpg
639.197	2.178	1	generate	Run1	generate/STIM_023.jpg
644.551	2.571	1	generate	Run1	generate/STIM_023.jpg
649.427	2.486	1	generate	Run1	generate/STIM_024.jpg
655.451	3.053	1	generate	Run1	generate/STIM_024.jpg
660.827	2.02	1	generate	Run1	generate/STIM_024.jpg
666.822	1.861	1	generate	Run1	generate/STIM_024.jpg
672.035	2.156	1	generate	Run1	generate/STIM_024.jpg
677.507	0.992	1	repeat	Run1	repeat/STIM_000.jpg
681.367	1.193	1	repeat	Run1	repeat/STIM_000.jpg
684.83	0.831	1	repeat	Run1	repeat/STIM_000.jpg
688.433	1.076	1	repeat	Run1	repeat/STIM_000.jpg
693.023	0.637	1	repeat	Run1	repeat/STIM_000.jpg
697.195	0.679	1	repeat	Run1	repeat/STIM_001.jpg
701.069	1.234	1	repeat	Run1	repeat/STIM_001.jpg
705.342	0.941	1	repeat	Run1	repeat/STIM_001.jpg
709.394	0.874	1	repeat	Run1	repeat/STIM_001.jpg
713.176	1.071	1	repeat	Run1	repeat/STIM_001.jpg
716.345	0.979	1	repeat	Run1	repeat/STIM_002.jpg
721.285	0.801	1	repeat	Run1	repeat/STIM_002.jpg
725.811	1.199	1	repeat	Run1	repeat/STIM_002.jpg
729.712	0.701	1	repeat	Run1	repeat/STIM_002.jpg
733.555	0.669	1	repeat	Run1	repeat/STIM_002.jpg
736.755	0.71	1	repeat	Run1	repeat/STIM_003.jpg
741.464	0.634	1	repeat	Run1	repeat/STIM_003.jpg
745.186	1.164	1	repeat	Run1	repeat/STIM_003.jpg
749.121	1.111	1	repeat	Run1	repeat/STIM_003.jpg
754.151	1.067	1	repeat	Run1	repeat/STIM_003.jpg
758.495	1.098	1	repeat	Run1	repeat/STIM_004.jpg
763.152	0.708	1	repeat	Run1	repeat/STIM_004.jpg
767.268	0.733	1	repeat	Run1	repeat/STIM_004.jpg
771.849	0.817	1	repeat	Run1	repeat/STIM_004.jpg
774.975	1.156	1	repeat	Run1	repeat/STIM_004.jpg
778.181	1.178	1	repeat	Run1	repeat/STIM_005.jpg
782.54	0.743	1	repeat	Run1	repeat/STIM_005.jpg
787.187	0.97	1	repeat	Run1	repeat/STIM_005.jpg
791.872	1.131	1	repeat	Run1	repeat/STIM_005.jpg
795.63	1.165	1	repeat	Run1	repeat/STIM_005.jpg
800.281	1.151	1	repeat	Run1	repeat/STIM_006.jpg
804.257	1.162	1	repeat	Run1	repeat/STIM_006.jpg
808.991	0.986	1	repeat	Run1	repeat/STIM_006.jpg
813.053	0.726	1	repeat	Run1	repeat/STIM_006.jpg
817.329	1.248	1	repeat	Run1	repeat/STIM_006.jpg
822.319	0.975	1	repeat	Run1	repeat/STIM_007.jpg
825.498	0.798	1	repeat	Run1	repeat/STIM_007.jpg
829.091	1.152	1	repeat	Run1	repeat/STIM_007.jpg
832.598	0.703	1	repeat	Run1	repeat/STIM_007.jpg
836.524	1.204	1	repeat	Run1	repeat/STIM_007.jpg
840.92	0.986	1	repeat	Run1	repeat/STIM_008.jpg
845.584	0.758	1	repeat	Run1	repeat/STIM_008.jpg
848.898	1.159	1	repeat	Run1	repeat/STIM_008.jpg
852.437	0.89	1	repeat	Run1	repeat/STIM_008.jpg
857.06	1.248	1	repeat	Run1	repeat/STIM_008.jpg
861.135	0.689	1	repeat	Run1	repeat/STIM_009.jpg
865.794	0.868	1	repeat	Run1	repeat/STIM_009.jpg
869.933	0.684	1	repeat	Run1	repeat/STIM_009.jpg
874.226	1.062	1	repeat	Run1	repeat/STIM_009.jpg
877.919	1.082	1	repeat	Run1	repeat/STIM_009.jpg
882.388	1.218	1	repeat	Run1	repeat/STIM_010.jpg
887.322	0.684	1	repeat	Run1	repeat/STIM_010.jpg
891.155	0.927	1	repeat	Run1	repeat/STIM_010.jpg
894.449	0.685	1	repeat	Run1	repeat/STIM_010.jpg
898.729	0.953	1	repeat	Run1	repeat/STIM_010.jpg
902.123	0.668	1	repeat	Run1	repeat/STIM_011.jpg
906.061	1.096	1	repeat	Run1	repeat/STIM_011.jpg
910.298	0.63	1	repeat	Run1	repeat/STIM_011.jpg
913.203	0.698	1	repeat	Run1	repeat/STIM_011.jpg
916.552	0.884	1	repeat	Run1	repeat/STIM_011.jpg
920.998	1.046	1	repeat	Run1	repeat/STIM_012.jpg
924.517	1.042	1	repeat	Run1	repeat/STIM_012.jpg
929.08	0.987	1	repeat	Run1	repeat/STIM_012.jpg
932.891	0.731	1	repeat	Run1	repeat/STIM_012.jpg
935.845	0.64	1	repeat	Run1	repeat/STIM_012.jpg
938.626	0.817	1	repeat	Run1	repeat/STIM_013.jpg
942.395	0.894	1	repeat	Run1	repeat/STIM_013.jpg
946.169	0.875	1	repeat	Run1	repeat/STIM_013.jpg
950.981	1.154	1	repeat	Run1	repeat/STIM_013.jpg
955.858	0.779	1	repeat	Run1	repeat/STIM_013.jpg
960.566	0.86	1	repeat	Run1	repeat/STIM_014.jpg
965.418	1.176	1	repeat	Run1	repeat/STIM_014.jpg
968.829	1.122	1	repeat	Run1	repeat/STIM_014.jpg
972.25	0.852	1	repeat	Run1	repeat/STIM_014.jpg
976.478	0.723	1	repeat	Run1	repeat/STIM_014.jpg
979.785	3.11	1	generate	Run2	generate/STIM_000.jpg
985.57	2.628	1	generate	Run2	generate/STIM_000.jpg
991.544	2.485	1	generate	Run2	generate/STIM_000.jpg
997.108	1.248	1	generate	Run2	generate/STIM_000.jpg
1001.144	1.805	1	generate	Run2	generate/STIM_000.jpg
1006.15	2.307	0	generate	Run2	generate/STIM_001.jpg
1012.127	2.512	1	generate	Run2	generate/STIM_001.jpg
1016.826	1.575	1	generate	Run2	generate/STIM_001.jpg
1021.929	2.309	1	generate	Run2	generate/STIM_001.jpg
1027.526	2.182	1	generate	Run2	generate/STIM_001.jpg
1032.602	2.808	1	generate	Run2	generate/STIM_002.jpg
1037.778	2.415	1	generate	Run2	generate/STIM_002.jpg
1043.794	2.062	1	generate	Run2	generate/STIM_002.jpg
1048.617	1.731	1	generate	Run2	generate/STIM_002.jpg
1052.763	1.666	1	generate	Run2	generate/STIM_002.jpg
1057.103	2.919	0	generate	Run2	generate/STIM_003.jpg
1062.323	2.103	1	generate	Run2	generate/STIM_003.jpg
1066.516	1.591	1	generate	Run2	generate/STIM_003.jpg
1071.157	1.331	1	generate	Run2	generate/STIM_003.jpg
1076.034	2.109	1	generate	Run2	generate/STIM_003.jpg
1081.776	2.965	1	generate	Run2	generate/STIM_004.jpg
1086.937	1.836	1	generate	Run2	generate/STIM_004.jpg
1092.45	2.649	1	generate	Run2	generate/STIM_004.jpg
1097.149	1.434	1	generate	Run2	generate/STIM_004.jpg
1101.688	2.604	1	generate	Run2	generate/STIM_004.jpg
1108.214	2.943	1	generate	Run2	generate/STIM_005.jpg
1114.05	1.919	1	generate	Run2	generate/STIM_005.jpg
1118.849	1.703	1	generate	Run2	generate/STIM_005.jpg
1123.266	1.903	0	generate	Run2	generate/STIM_005.jpg
1128.223	1.87	1	generate	Run2	generate/STIM_005.jpg
1133.829	2.255	1	generate	Run2	generate/STIM_006.jpg
1139.726	1.852	1	generate	Run2	generate/STIM_006.jpg
1143.628	2.124	1	generate	Run2	generate/STIM_006.jpg
1148.334	2.626	1	generate	Run2	generate/STIM_006.jpg
1153.19	2.383	1	generate	Run2	generate/STIM_006.jpg
1159.061	2.452	1	generate	Run2	generate/STIM_007.jpg
1165.458	2.076	1	generate	Run2	generate/STIM_007.jpg
1170.879	1.73	1	generate	Run2	generate/STIM_007.jpg
1174.875	1.082	1	generate	Run2	generate/STIM_007.jpg
1178.846	1.268	1	generate	Run2	generate/STIM_007.jpg
1183.999	2.888	1	generate	Run2	generate/STIM_008.jpg
1189.748	2.552	1	generate	Run2	generate/STIM_008.jpg
1195.946	2.344	1	generate	Run2	generate/STIM_008.jpg
1201.586	1.086	1	generate	Run2	generate/STIM_008.jpg
1204.715	2.085	1	generate	Run2	generate/STIM_008.jpg
1209.038	3.01	1	generate	Run2	generate/STIM_009.jpg
1215.535	1.623	1	generate	Run2	generate/STIM_009.jpg
1221.082	2.012	1	generate	Run2	generate/STIM_009.jpg
1226.73	2.45	1	generate	Run2	generate/STIM_009.jpg
1231.959	1.364	1	generate	Run2	generate/STIM_009.jpg
1236.539	1.902	1	generate	Run2	generate/STIM_010.jpg
1240.905	2.205	1	generate	Run2	generate/STIM_010.jpg
1245.514	2.613	1	generate	Run2	generate/STIM_010.jpg
1251.905	1.494	1	generate	Run2	generate/STIM_010.jpg
1256.136	2.466	1	generate	Run2	generate/STIM_010.jpg
1262.047	2.206	1	generate	Run2	generate/STIM_011.jpg
1267.236	2.177	1	generate	Run2	generate/STIM_011.jpg
1272.045	2.354	0	generate	Run2	generate/STIM_011.jpg
1278.198	1.71	1	generate	Run2	generate/STIM_011.jpg
1283.444	2.026	1	generate	Run2	generate/STIM_011.jpg
1289.362	1.434	1	generate	Run2	generate/STIM_012.jpg
1293.073	2.369	1	generate	Run2	generate/STIM_012.jpg
1297.733	2.502	1	generate	Run2	generate/STIM_012.jpg
1303.258	1.898	1	generate	Run2	generate/STIM_012.jpg
1309.107	2.345	1	generate	Run2	generate/STIM_012.jpg
1314.582	1.864	1	generate	Run2	generate/STIM_013.jpg
1319.961	2.916	1	generate	Run2	generate/STIM_013.jpg
1326.69	1.164	1	generate	Run2	generate/STIM_013.jpg
1331.024	2.471	1	generate	Run2	generate/STIM_013.jpg
1336.68	1.792	1	generate	Run2	generate/STIM_013.jpg
1341.197	1.765	1	generate	Run2	generate/STIM_014.jpg
1345.714	2.698	1	generate	Run2	generate/STIM_014.jpg
1352.147	1.759	1	generate	Run2	generate/STIM_014.jpg
1357.276	2.186	1	generate	Run2	generate/STIM_014.jpg
1363.183	1.2	0	generate	Run2	generate/STIM_014.jpg
1368.166	2.316	1	generate	Run2	generate/STIM_015.jpg
1372.644	1.938	1	generate	Run2	generate/STIM_015.jpg
1378.53	1.486	1	generate	Run2	generate/STIM_015.jpg
1383.432	2.073	1	generate	Run2	generate/STIM_015.jpg
1387.542	1.964	1	generate	Run2	generate/STIM_015.jpg
1392.097	2.371	1	generate	Run2	generate/STIM_016.jpg
1397.922	2.377	1	generate	Run2	generate/STIM_016.jpg
1403.901	1.137	1	generate	Run2	generate/STIM_016.jpg
1407.054	2.599	1	generate	Run2	generate/STIM_016.jpg
1412.568	1.736	1	generate	Run2	generate/STIM_016.jpg
1417.092	2.05	1	generate	Run2	generate/STIM_017.jpg
1422.962	2.645	1	generate	Run2	generate/STIM_017.jpg
1428.053	1.753	0	generate	Run2	generate/STIM_017.jpg
1431.938	2.424	1	generate	Run2	generate/STIM_017.jpg
1437.115	1.532	1	generate	Run2	generate/STIM_017.jpg
1442.035	2.467	1	generate	Run2	generate/STIM_018.jpg
1446.754	2.918	1	generate	Run2	generate/STIM_018.jpg
1452.403	2.175	1	generate	Run2	generate/STIM_018.jpg
1456.887	2.586	1	generate	Run2	generate/STIM_018.jpg
1461.796	1.31	1	generate	Run2	generate/STIM_018.jpg
1466.739	1.862	1	generate	Run2	generate/STIM_019.jpg
1471.038	1.582	1	generate	Run2	generate/STIM_019.jpg
1476.314	2.41	1	generate	Run2	generate/STIM_019.jpg
1482.234	1.816	1	generate	Run2	generate/STIM_019.jpg
1487.979	1.653	1	generate	Run2	generate/STIM_019.jpg
1492.975	1.734	1	generate	Run2	generate/STIM_020.jpg
1498.001	2.374	1	generate	Run2	generate/STIM_020.jpg
1502.929	1.292	1	generate	Run2	generate/STIM_020.jpg
1506.407	1.378	1	generate	Run2	generate/STIM_020.jpg
1510.76	2.096	1	generate	Run2	generate/STIM_020.jpg
1514.922	2.184	1	generate	Run2	generate/STIM_021.jpg
1519.471	1.395	1	generate	Run2	generate/STIM_021.jpg
1524.829	1.784	1	generate	Run2	generate/STIM_021.jpg
1529.736	1.495	1	generate	Run2	generate/STIM_021.jpg
1534.098	2.168	1	generate	Run2	generate/STIM_021.jpg
1538.711	2.618	0	generate	Run2	generate/STIM_022.jpg
1544.308	1.538	1	generate	Run2	generate/STIM_022.jpg
1549.323	1.937	1	generate	Run2	generate/STIM_022.jpg
1554.914	1.489	1	generate	Run2	generate/STIM_022.jpg
1559.733	2.615	1	generate	Run2	generate/STIM_022.jpg
1565.533	2.047	1	generate	Run2	generate/STIM_023.jpg
1570.664	1.23	1	generate	Run2	generate/STIM_023.jpg
1574.689	1.367	1	generate	Run2	generate/STIM_023.jpg
1579.523	1.794	1	generate	Run2	generate/STIM_023.jpg
1584.722	1.309	1	generate	Run2	generate/STIM_023.jpg
1589.982	2.531	1	generate	Run2	generate/STIM_024.jpg
1596.174	1.326	0	generate	Run2	generate/STIM_024.jpg
1600.133	2.092	1	generate	Run2	generate/STIM_024.jpg
1605.449	1.667	1	generate	Run2	generate/STIM_024.jpg
1610.331	1.482	1	generate	Run2	generate/STIM_024.jpg
1614.388	0.673	1	repeat	Run2	repeat/STIM_000.jpg
1617.698	0.87	1	repeat	Run2	repeat/STIM_000.jpg
1622.156	0.631	1	repeat	Run2	repeat/STIM_000.jpg
1624.848	1.083	1	repeat	Run2	repeat/STIM_000.jpg
1629.296	1.021	1	repeat	Run2	repeat/STIM_000.jpg
1633.435	1.186	1	repeat	Run2	repeat/STIM_001.jpg
1637.805	0.884	1	repeat	Run2	repeat/STIM_001.jpg
1641.371	0.894	1	repeat	Run2	repeat/STIM_001.jpg
1644.453	0.669	1	repeat	Run2	repeat/STIM_001.jpg
1648.545	0.707	1	repeat	Run2	repeat/STIM_001.jpg
1652.11	0.642	1	repeat	Run2	repeat/STIM_002.jpg
1655.38	0.814	1	repeat	Run2	repeat/STIM_002.jpg
1659.888	0.627	1	repeat	Run2	repeat/STIM_002.jpg
1663.809	1.001	1	repeat	Run2	repeat/STIM_002.jpg
1667.783	1.018	1	repeat	Run2	repeat/STIM_002.jpg
1672.15	0.773	1	repeat	Run2	repeat/STIM_003.jpg
1675.883	0.682	1	repeat	Run2	repeat/STIM_003.jpg
1679.378	1.106	1	repeat	Run2	repeat/STIM_003.jpg
1683.116	1.077	1	repeat	Run2	repeat/STIM_003.jpg
1687.395	0.71	1	repeat	Run2	repeat/STIM_003.jpg
1690.255	0.963	1	repeat	Run2	repeat/STIM_004.jpg
1695.076	1.074	1	repeat	Run2	repeat/STIM_004.jpg
1698.799	0.962	1	repeat	Run2	repeat/STIM_004.jpg
1702.875	0.934	1	repeat	Run2	repeat/STIM_004.jpg
1706.23	0.858	1	repeat	Run2	repeat/STIM_004.jpg
1709.399	1.047	1	repeat	Run2	repeat/STIM_005.jpg
1713.382	1.201	1	repeat	Run2	repeat/STIM_005.jpg
1717.227	0.936	1	repeat	Run2	repeat/STIM_005.jpg
1720.737	0.655	1	repeat	Run2	repeat/STIM_005.jpg
1723.621	0.64	0	repeat	Run2	repeat/STIM_005.jpg
1726.794	1.153	1	repeat	Run2	repeat/STIM_006.jpg
1730.673	1.024	1	repeat	Run2	repeat/STIM_006.jpg
1734.836	1.109	1	repeat	Run2	repeat/STIM_006.jpg
1737.976	0.656	1	repeat	Run2	repeat/STIM_006.jpg
1740.681	0.838	1	repeat	Run2	repeat/STIM_006.jpg
1745.252	0.933	1	repeat	Run2	repeat/STIM_007.jpg
1749.868	1.156	1	repeat	Run2	repeat/STIM_007.jpg
1754.216	1.208	1	repeat	Run2	repeat/STIM_007.jpg
1758.957	1.1	1	repeat	Run2	repeat/STIM_007.jpg
1762.766	0.995	1	repeat	Run2	repeat/STIM_007.jpg
1766.757	0.914	1	repeat	Run2	repeat/STIM_008.jpg
1770.342	0.679	1	repeat	Run2	repeat/STIM_008.jpg
1773.104	1.092	1	repeat	Run2	repeat/STIM_008.jpg
1776.451	0.967	1	repeat	Run2	repeat/STIM_008.jpg
1780.736	0.857	1	repeat	Run2	repeat/STIM_008.jpg
1784.288	1.0	1	repeat	Run2	repeat/STIM_009.jpg
1787.457	1.156	1	repeat	Run2	repeat/STIM_009.jpg
1791.972	1.225	1	repeat	Run2	repeat/STIM_009.jpg
1795.559	1.03	1	repeat	Run2	repeat/STIM_009.jpg
1799.259	0.88	1	repeat	Run2	repeat/STIM_009.jpg
1802.349	0.944	1	repeat	Run2	repeat/STIM_010.jpg
1806.867	0.65	1	repeat	Run2	repeat/STIM_010.jpg
1811.122	1.124	1	repeat	Run2	repeat/STIM_010.jpg
1814.809	0.697	1	repeat	Run2	repeat/STIM_010.jpg
1817.517	1.09	1	repeat	Run2	repeat/STIM_010.jpg
1821.831	0.644	1	repeat	Run2	repeat/STIM_011.jpg
1825.313	0.705	1	repeat	Run2	repeat/STIM_011.jpg
1829.388	1.158	1	repeat	Run2	repeat/STIM_011.jpg
1833.738	1.045	1	repeat	Run2	repeat/STIM_011.jpg
1838.0	1.044	1	repeat	Run2	repeat/STIM_011.jpg
1842.804	1.13	1	repeat	Run2	repeat/STIM_012.jpg
1846.166	0.921	1	repeat	Run2	repeat/STIM_012.jpg
1850.711	0.941	1	repeat	Run2	repeat/STIM_012.jpg
1853.681	1.065	1	repeat	Run2	repeat/STIM_012.jpg
1856.895	1.172	1	repeat	Run2	repeat/STIM_012.jpg
1860.341	0.978	1	repeat	Run2	repeat/STIM_013.jpg
1864.058	1.172	1	repeat	Run2	repeat/STIM_013.jpg
1868.32	1.111	1	repeat	Run2	repeat/STIM_013.jpg
1872.441	0.892	1	repeat	Run2	repeat/STIM_013.jpg
1876.772	1.152	1	repeat	Run2	repeat/STIM_013.jpg
1880.64	1.247	1	repeat	Run2	repeat/STIM_014.jpg
1884.493	1.115	1	repeat	Run2	repeat/STIM_014.jpg
1889.577	0.727	1	repeat	Run2	repeat/STIM_014.jpg
1892.403	0.946	1	repeat	Run2	repeat/STIM_014.jpg
1895.409	0.646	1	repeat	Run2	repeat/STIM_014.jpg
1899.517	1.071	1	generate	Run3	generate/STIM_000.jpg
1903.724	1.89	1	generate	Run3	generate/STIM_000.jpg
1908.239	2.06	0	generate	Run3	generate/STIM_000.jpg
1912.646	2.559	1	generate	Run3	generate/STIM_000.jpg
1917.657	1.809	1	generate	Run3	generate/STIM_000.jpg
1921.858	1.062	1	generate	Run3	generate/STIM_001.jpg
1924.99	1.702	1	generate	Run3	generate/STIM_001.jpg
1930.152	1.261	1	generate	Run3	generate/STIM_001.jpg
1933.722	2.051	1	generate	Run3	generate/STIM_001.jpg
1937.916	1.295	1	generate	Run3	generate/STIM_001.jpg
1941.393	1.952	1	generate	Run3	generate/STIM_002.jpg
1945.462	1.402	1	generate	Run3	generate/STIM_002.jpg
1950.703	1.202	1	generate	Run3	generate/STIM_002.jpg
1955.192	1.695	1	generate	Run3	generate/STIM_002.jpg
1960.514	1.971	1	generate	Run3	generate/STIM_002.jpg
1964.562	2.573	1	generate	Run3	generate/STIM_003.jpg
1969.839	2.482	1	generate	Run3	generate/STIM_003.jpg
1974.523	1.98	0	generate	Run3	generate/STIM_003.jpg
1978.99	1.072	1	generate	Run3	generate/STIM_003.jpg
1982.631	2.517	0	generate	Run3	generate/STIM_003.jpg
1988.855	1.187	1	generate	Run3	generate/STIM_004.jpg
1992.658	2.145	1	generate	Run3	generate/STIM_004.jpg
1997.744	1.604	1	generate	Run3	generate/STIM_004.jpg
2002.617	1.253	1	generate	Run3	generate/STIM_004.jpg
2007.116	1.874	1	generate	Run3	generate/STIM_004.jpg
2011.126	2.623	1	generate	Run3	generate/STIM_005.jpg
2017.636	2.16	1	generate	Run3	generate/STIM_005.jpg
2023.292	1.431	1	generate	Run3	generate/STIM_005.jpg
2027.989	1.973	1	generate	Run3	generate/STIM_005.jpg
2031.981	2.149	1	generate	Run3	generate/STIM_005.jpg
2036.456	2.054	1	generate	Run3	generate/STIM_006.jpg
2041.457	1.093	1	generate	Run3	generate/STIM_006.jpg
2045.732	2.501	1	generate	Run3	generate/STIM_006.jpg
2050.71	1.307	1	generate	Run3	generate/STIM_006.jpg
2054.928	2.264	1	generate	Run3	generate/STIM_006.jpg
2060.549	2.619	1	generate	Run3	generate/STIM_007.jpg
2066.57	1.636	1	generate	Run3	generate/STIM_007.jpg
2071.204	1.713	1	generate	Run3	generate/STIM_007.jpg
2075.823	2.427	1	generate	Run3	generate/STIM_007.jpg
2080.675	1.708	1	generate	Run3	generate/STIM_007.jpg
2085.181	2.107	1	generate	Run3	generate/STIM_008.jpg
2089.905	2.287	1	generate	Run3	generate/STIM_008.jpg
2094.2	2.371	1	generate	Run3	generate/STIM_008.jpg
2099.7	1.63	1	generate	Run3	generate/STIM_008.jpg
2104.122	1.579	1	generate	Run3	generate/STIM_008.jpg
2107.974	1.43	1	generate	Run3	generate/STIM_009.jpg
2112.079	1.39	1	generate	Run3	generate/STIM_009.jpg
2117.374	1.101	1	generate	Run3	generate/STIM_009.jpg
2122.094	1.113	1	generate	Run3	generate/STIM_009.jpg
2125.631	1.69	1	generate	Run3	generate/STIM_009.jpg
2130.084	1.908	1	generate	Run3	generate/STIM_010.jpg
2134.833	1.832	1	generate	Run3	generate/STIM_010.jpg
2139.856	1.765	1	generate	Run3	generate/STIM_010.jpg
2144.532	1.743	1	generate	Run3	generate/STIM_010.jpg
2149.831	2.421	1	generate	Run3	generate/STIM_010.jpg
2155.882	1.192	1	generate	Run3	generate/STIM_011.jpg
2159.661	2.406	1	generate	Run3	generate/STIM_011.jpg
2165.436	1.444	1	generate	Run3	generate/STIM_011.jpg
2170.088	1.941	1	generate	Run3	generate/STIM_011.jpg
2174.509	2.5	1	generate	Run3	generate/STIM_011.jpg
2179.162	1.913	1	generate	Run3	generate/STIM_012.jpg
2184.14	2.436	1	generate	Run3	generate/STIM_012.jpg
2188.777	1.654	1	generate	Run3	generate/STIM_012.jpg
2194.354	2.446	1	generate	Run3	generate/STIM_012.jpg
2199.113	2.092	1	generate	Run3	generate/STIM_012.jpg
2204.537	1.633	1	generate	Run3	generate/STIM_013.jpg
2210.058	1.94	1	generate	Run3	generate/STIM_013.jpg
2214.994	1.752	1	generate	Run3	generate/STIM_013.jpg
2219.797	2.348	1	generate	Run3	generate/STIM_013.jpg
2225.039	2.38	1	generate	Run3	generate/STIM_013.jpg
2229.911	1.773	1	generate	Run3	generate/STIM_014.jpg
2233.955	1.904	1	generate	Run3	generate/STIM_014.jpg
2238.502	2.202	1	generate	Run3	generate/STIM_014.jpg
2243.344	1.095	1	generate	Run3	generate/STIM_014.jpg
2248.341	2.109	1	generate	Run3	generate/STIM_014.jpg
2252.839	1.64	1	generate	Run3	generate/STIM_015.jpg
2257.5	2.31	1	generate	Run3	generate/STIM_015.jpg
2262.146	2.421	1	generate	Run3	generate/STIM_015.jpg
2268.298	1.748	1	generate	Run3	generate/STIM_015.jpg
2272.87	1.134	1	generate	Run3	generate/STIM_015.jpg
2277.012	2.61	1	generate	Run3	generate/STIM_016.jpg
2281.971	1.278	1	generate	Run3	generate/STIM_016.jpg
2285.49	1.317	1	generate	Run3	generate/STIM_016.jpg
2290.737	1.779	1	generate	Run3	generate/STIM_016.jpg
2296.157	1.296	1	generate	Run3	generate/STIM_016.jpg
2300.016	2.056	1	generate	Run3	generate/STIM_017.jpg
2304.585	1.288	1	generate	Run3	generate/STIM_017.jpg
2309.334	1.074	1	generate	Run3	generate/STIM_017.jpg
2313.061	1.969	1	generate	Run3	generate/STIM_017.jpg
2318.318	2.508	1	generate	Run3	generate/STIM_017.jpg
2324.783	1.606	1	generate	Run3	generate/STIM_018.jpg
2328.932	1.81	1	generate	Run3	generate/STIM_018.jpg
2333.102	2.108	1	generate	Run3	generate/STIM_018.jpg
2337.781	1.361	1	generate	Run3	generate/STIM_018.jpg
2341.885	1.08	1	generate	Run3	generate/STIM_018.jpg
2346.891	2.606	1	generate	Run3	generate/STIM_019.jpg
2351.618	2.1	1	generate	Run3	generate/STIM_019.jpg
2356.77	1.966	1	generate	Run3	generate/STIM_019.jpg
2361.976	1.234	1	generate	Run3	generate/STIM_019.jpg
2366.053	1.398	1	generate	Run3	generate/STIM_019.jpg
2371.434	1.058	1	generate	Run3	generate/STIM_020.jpg
2374.99	1.141	1	generate	Run3	generate/STIM_020.jpg
2378.614	2.088	1	generate	Run3	generate/STIM_020.jpg
2383.192	1.798	1	generate	Run3	generate/STIM_020.jpg
2388.229	1.875	1	generate	Run3	generate/STIM_020.jpg
2393.102	1.468	1	generate	Run3	generate/STIM_021.jpg
2398.076	2.553	1	generate	Run3	generate/STIM_021.jpg
2403.57	2.128	1	generate	Run3	generate/STIM_021.jpg
2408.451	2.606	0	generate	Run3	generate/STIM_021.jpg
2414.323	2.512	1	generate	Run3	generate/STIM_021.jpg
2419.719	2.142	1	generate	Run3	generate/STIM_022.jpg
2425.668	1.89	1	generate	Run3	generate/STIM_022.jpg
2431.31	2.302	1	generate	Run3	generate/STIM_022.jpg
2436.428	2.48	1	generate	Run3	generate/STIM_022.jpg
2441.238	1.957	1	generate	Run3	generate/STIM_022.jpg
2446.498	1.55	1	generate	Run3	generate/STIM_023.jpg
2451.887	2.412	1	generate	Run3	generate/STIM_023.jpg
2458.166	1.195	1	generate	Run3	generate/STIM_023.jpg
2461.655	2.57	1	generate	Run3	generate/STIM_023.jpg
2466.686	1.656	1	generate	Run3	generate/STIM_023.jpg
2470.739	2.077	1	generate	Run3	generate/STIM_024.jpg
2476.08	2.452	1	generate	Run3	generate/STIM_024.jpg
2482.32	1.228	1	generate	Run3	generate/STIM_024.jpg
2485.837	1.514	1	generate	Run3	generate/STIM_024.jpg
2491.133	1.349	1	generate	Run3	generate/STIM_024.jpg
2495.913	0.639	1	repeat	Run3	repeat/STIM_000.jpg
2498.937	0.682	1	repeat	Run3	repeat/STIM_000.jpg
2502.583	0.962	1	repeat	Run3	repeat/STIM_000.jpg
2506.23	1.224	1	repeat	Run3	repeat/STIM_000.jpg
2510.509	0.648	1	repeat	Run3	repeat/STIM_000.jpg
2513.819	0.937	1	repeat	Run3	repeat/STIM_001.jpg
2518.007	0.652	1	repeat	Run3	repeat/STIM_001.jpg
2521.335	0.719	1	repeat	Run3	repeat/STIM_001.jpg
2524.077	0.832	1	repeat	Run3	repeat/STIM_001.jpg
2527.443	0.855	1	repeat	Run3	repeat/STIM_001.jpg
2531.708	0.66	1	repeat	Run3	repeat/STIM_002.jpg
2535.872	1.165	1	repeat	Run3	repeat/STIM_002.jpg
2539.357	0.734	1	repeat	Run3	repeat/STIM_002.jpg
2542.385	1.226	1	repeat	Run3	repeat/STIM_002.jpg
2546.52	1.041	1	repeat	Run3	repeat/STIM_002.jpg
2551.242	0.946	1	repeat	Run3	repeat/STIM_003.jpg
2554.332	0.837	1	repeat	Run3	repeat/STIM_003.jpg
2558.901	0.863	1	repeat	Run3	repeat/STIM_003.jpg
2563.584	0.999	1	repeat	Run3	repeat/STIM_003.jpg
2566.9	1.09	1	repeat	Run3	repeat/STIM_003.jpg
2571.875	0.729	1	repeat	Run3	repeat/STIM_004.jpg
2575.798	1.16	1	repeat	Run3	repeat/STIM_004.jpg
2580.152	0.783	0	repeat	Run3	repeat/STIM_004.jpg
2583.349	0.634	1	repeat	Run3	repeat/STIM_004.jpg
2586.36	1.059	1	repeat	Run3	repeat/STIM_004.jpg
2590.89	1.215	1	repeat	Run3	repeat/STIM_005.jpg
2595.897	0.853	1	repeat	Run3	repeat/STIM_005.jpg
2600.736	0.639	1	repeat	Run3	repeat/STIM_005.jpg
2604.022	0.962	1	repeat	Run3	repeat/STIM_005.jpg
2608.277	0.956	1	repeat	Run3	repeat/STIM_005.jpg
2611.946	0.677	1	repeat	Run3	repeat/STIM_006.jpg
2614.696	0.802	1	repeat	Run3	repeat/STIM_006.jpg
2618.655	0.806	1	repeat	Run3	repeat/STIM_006.jpg
2622.239	0.928	1	repeat	Run3	repeat/STIM_006.jpg
2626.333	0.985	1	repeat	Run3	repeat/STIM_006.jpg
2629.517	1.167	1	repeat	Run3	repeat/STIM_007.jpg
2633.812	0.754	1	repeat	Run3	repeat/STIM_007.jpg
2637.902	0.853	1	repeat	Run3	repeat/STIM_007.jpg
2641.249	1.119	0	repeat	Run3	repeat/STIM_007.jpg
2644.457	1.113	1	repeat	Run3	repeat/STIM_007.jpg
2648.897	0.722	1	repeat	Run3	repeat/STIM_008.jpg
2652.204	1.12	1	repeat	Run3	repeat/STIM_008.jpg
2657.087	1.004	1	repeat	Run3	repeat/STIM_008.jpg
2660.804	1.168	1	repeat	Run3	repeat/STIM_008.jpg
2664.181	1.238	1	repeat	Run3	repeat/STIM_008.jpg
2668.358	1.245	1	repeat	Run3	repeat/STIM_009.jpg
2673.112	1.083	1	repeat	Run3	repeat/STIM_009.jpg
2677.71	1.01	1	repeat	Run3	repeat/STIM_009.jpg
2681.701	0.948	1	repeat	Run3	repeat/STIM_009.jpg
2686.122	1.148	1	repeat	Run3	repeat/STIM_009.jpg
2690.661	1.095	1	repeat	Run3	repeat/STIM_010.jpg
2695.703	0.857	1	repeat	Run3	repeat/STIM_010.jpg
2699.913	0.914	1	repeat	Run3	repeat/STIM_010.jpg
2703.673	0.894	1	repeat	Run3	repeat/STIM_010.jpg
2707.967	0.966	1	repeat	Run3	repeat/STIM_010.jpg
2711.366	1.178	1	repeat	Run3	repeat/STIM_011.jpg
2716.155	0.949	1	repeat	Run3	repeat/STIM_011.jpg
2720.128	1.205	1	repeat	Run3	repeat/STIM_011.jpg
2724.016	0.882	1	repeat	Run3	repeat/STIM_011.jpg
2727.482	0.764	1	repeat	Run3	repeat/STIM_011.jpg
2730.692	0.835	1	repeat	Run3	repeat/STIM_012.jpg
2733.552	0.842	1	repeat	Run3	repeat/STIM_012.jpg
2737.095	0.918	1	repeat	Run3	repeat/STIM_012.jpg
2740.052	1.187	1	repeat	Run3	repeat/STIM_012.jpg
2744.204	1.162	1	repeat	Run3	repeat/STIM_012.jpg
2748.95	0.792	1	repeat	Run3	repeat/STIM_013.jpg
2753.043	1.187	1	repeat	Run3	repeat/STIM_013.jpg
2757.752	1.13	1	repeat	Run3	repeat/STIM_013.jpg
2761.681	0.941	1	repeat	Run3	repeat/STIM_013.jpg
2764.974	1.159	1	repeat	Run3	repeat/STIM_013.jpg
2770.125	1.115	1	repeat	Run3	repeat/STIM_014.jpg
2774.884	1.145	1	repeat	Run3	repeat/STIM_014.jpg
2779.737	1.084	1	repeat	Run3	repeat/STIM_014.jpg
2783.827	0.687	1	repeat	Run3	repeat/STIM_014.jpg
2787.426	0.896	1	repeat	Run3	repeat/STIM_014.jpg
2791.161	2.284	1	generate	Run4	generate/STIM_000.jpg
2795.46	1.649	1	generate	Run4	generate/STIM_000.jpg
2799.269	1.787	1	generate	Run4	generate/STIM_000.jpg
2803.896	2.427	1	generate	Run4	generate/STIM_000.jpg
2809.04	1.172	1	generate	Run4	generate/STIM_000.jpg
2812.447	1.76	1	generate	Run4	generate/STIM_001.jpg
2817.607	1.81	1	generate	Run4	generate/STIM_001.jpg
2822.285	2.108	1	generate	Run4	generate/STIM_001.jpg
2828.02	1.668	1	generate	Run4	generate/STIM_001.jpg
2833.003	2.119	1	generate	Run4	generate/STIM_001.jpg
2838.194	2.011	1	generate	Run4	generate/STIM_002.jpg
2843.28	1.31	1	generate	Run4	generate/STIM_002.jpg
2847.611	1.725	1	generate	Run4	generate/STIM_002.jpg
2852.423	1.308	1	generate	Run4	generate/STIM_002.jpg
2856.417	1.622	1	generate	Run4	generate/STIM_002.jpg
2860.936	1.51	1	generate	Run4	generate/STIM_003.jpg
2864.582	2.443	1	generate	Run4	generate/STIM_003.jpg
2869.568	1.316	1	generate	Run4	generate/STIM_003.jpg
2873.865	1.185	1	generate	Run4	generate/STIM_003.jpg
2878.697	1.874	1	generate	Run4	generate/STIM_003.jpg
2883.202	2.121	1	generate	Run4	generate/STIM_004.jpg
2889.198	1.399	0	generate	Run4	generate/STIM_004.jpg
2892.756	2.551	1	generate	Run4	generate/STIM_004.jpg
2898.29	1.484	1	generate	Run4	generate/STIM_004.jpg
2903.126	1.654	1	generate	Run4	generate/STIM_004.jpg
2907.165	2.507	1	generate	Run4	generate/STIM_005.jpg
2912.122	2.154	1	generate	Run4	generate/STIM_005.jpg
2917.497	2.539	1	generate	Run4	generate/STIM_005.jpg
2922.051	1.35	1	generate	Run4	generate/STIM_005.jpg
2925.952	2.025	1	generate	Run4	generate/STIM_005.jpg
2930.012	1.068	1	generate	Run4	generate/STIM_006.jpg
2934.664	1.932	1	generate	Run4	generate/STIM_006.jpg
2940.479	1.869	1	generate	Run4	generate/STIM_006.jpg
2945.253	1.664	1	generate	Run4	generate/STIM_006.jpg
2949.923	2.059	1	generate	Run4	generate/STIM_006.jpg
2955.223	1.918	1	generate	Run4	generate/STIM_007.jpg
2960.096	1.302	1	generate	Run4	generate/STIM_007.jpg
2965.083	2.505	1	generate	Run4	generate/STIM_007.jpg
2971.202	1.413	1	generate	Run4	generate/STIM_007.jpg
2975.834	1.792	1	generate	Run4	generate/STIM_007.jpg
2980.704	2.164	1	generate	Run4	generate/STIM_008.jpg
2986.536	2.623	1	generate	Run4	generate/STIM_008.jpg
2992.295	1.079	1	generate	Run4	generate/STIM_008.jpg
2997.278	1.698	1	generate	Run4	generate/STIM_008.jpg
3001.306	1.952	1	generate	Run4	generate/STIM_008.jpg
3005.476	1.113	1	generate	Run4	generate/STIM_009.jpg
3008.637	1.68	1	generate	Run4	generate/STIM_009.jpg
3013.465	2.105	1	generate	Run4	generate/STIM_009.jpg
3017.967	1.329	1	generate	Run4	generate/STIM_009.jpg
3021.737	2.564	1	generate	Run4	generate/STIM_009.jpg
3026.709	2.607	1	generate	Run4	generate/STIM_010.jpg
3033.008	1.276	1	generate	Run4	generate/STIM_010.jpg
3038.229	1.317	1	generate	Run4	generate/STIM_010.jpg
3041.787	2.104	1	generate	Run4	generate/STIM_010.jpg
3046.216	1.095	1	generate	Run4	generate/STIM_010.jpg
3050.554	1.462	1	generate	Run4	generate/STIM_011.jpg
3054.331	2.027	1	generate	Run4	generate/STIM_011.jpg
3058.985	2.297	1	generate	Run4	generate/STIM_011.jpg
3063.769	2.416	1	generate	Run4	generate/STIM_011.jpg
3068.619	1.905	1	generate	Run4	generate/STIM_011.jpg
3072.618	1.104	1	generate	Run4	generate/STIM_012.jpg
3076.654	1.454	1	generate	Run4	generate/STIM_012.jpg
3081.461	2.43	1	generate	Run4	generate/STIM_012.jpg
3086.135	1.725	1	generate	Run4	generate/STIM_012.jpg
3090.254	2.583	1	generate	Run4	generate/STIM_012.jpg
3095.667	1.923	1	generate	Run4	generate/STIM_013.jpg
3100.936	2.03	1	generate	Run4	generate/STIM_013.jpg
3105.551	1.177	1	generate	Run4	generate/STIM_013.jpg
3109.268	1.294	1	generate	Run4	generate/STIM_013.jpg
3113.037	2.544	1	generate	Run4	generate/STIM_013.jpg
3118.976	2.326	1	generate	Run4	generate/STIM_014.jpg
3124.709	1.119	1	generate	Run4	generate/STIM_014.jpg
3128.654	2.404	1	generate	Run4	generate/STIM_014.jpg
3133.289	2.403	1	generate	Run4	generate/STIM_014.jpg
3138.549	1.514	1	generate	Run4	generate/STIM_014.jpg
3142.094	2.13	1	generate	Run4	generate/STIM_015.jpg
3147.211	1.229	1	generate	Run4	generate/STIM_015.jpg
3151.09	1.697	1	generate	Run4	generate/STIM_015.jpg
3156.607	2.033	1	generate	Run4	generate/STIM_015.jpg
3162.124	2.533	1	generate	Run4	generate/STIM_015.jpg
3167.726	1.187	1	generate	Run4	generate/STIM_016.jpg
3172.883	1.296	1	generate	Run4	generate/STIM_016.jpg
3177.323	2.096	1	generate	Run4	generate/STIM_016.jpg
3181.878	2.331	1	generate	Run4	generate/STIM_016.jpg
3186.391	1.22	1	generate	Run4	generate/STIM_016.jpg
3190.32	1.387	1	generate	Run4	generate/STIM_017.jpg
3194.378	2.102	1	generate	Run4	generate/STIM_017.jpg
3200.023	1.188	1	generate	Run4	generate/STIM_017.jpg
3204.825	1.817	1	generate	Run4	generate/STIM_017.jpg
3209.184	2.627	1	generate	Run4	generate/STIM_017.jpg
3214.994	1.702	1	generate	Run4	generate/STIM_018.jpg
3220.307	2.61	1	generate	Run4	generate/STIM_018.jpg
3224.921	1.144	1	generate	Run4	generate/STIM_018.jpg
3228.716	2.057	1	generate	Run4	generate/STIM_018.jpg
3232.991	1.618	1	generate	Run4	generate/STIM_018.jpg
3236.703	1.956	1	generate	Run4	generate/STIM_019.jpg
3242.548	2.344	1	generate	Run4	generate/STIM_019.jpg
3248.215	2.584	1	generate	Run4	generate/STIM_019.jpg
3253.364	2.181	1	generate	Run4	generate/STIM_019.jpg
3257.573	2.585	1	generate	Run4	generate/STIM_019.jpg
3262.726	1.823	1	generate	Run4	generate/STIM_020.jpg
3267.537	1.665	1	generate	Run4	generate/STIM_020.jpg
3272.843	2.385	1	generate	Run4	generate/STIM_020.jpg
3278.986	1.541	1	generate	Run4	generate/STIM_020.jpg
3283.217	2.171	1	generate	Run4	generate/STIM_020.jpg
3288.048	2.016	1	generate	Run4	generate/STIM_021.jpg
3292.516	2.191	1	generate	Run4	generate/STIM_021.jpg
3298.457	2.437	1	generate	Run4	generate/STIM_021.jpg
3304.03	1.111	1	generate	Run4	generate/STIM_021.jpg
3308.143	2.504	1	generate	Run4	generate/STIM_021.jpg
3313.394	1.086	1	generate	Run4	generate/STIM_022.jpg
3316.762	2.12	1	generate	Run4	generate/STIM_022.jpg
3322.437	1.976	1	generate	Run4	generate/STIM_022.jpg
3326.85	1.829	1	generate	Run4	generate/STIM_022.jpg
3330.902	1.809	1	generate	Run4	generate/STIM_022.jpg
3335.275	2.216	1	generate	Run4	generate/STIM_023.jpg
3339.599	2.317	1	generate	Run4	generate/STIM_023.jpg
3344.392	2.041	1	generate	Run4	generate/STIM_023.jpg
3348.797	1.698	1	generate	Run4	generate/STIM_023.jpg
3354.482	2.41	1	generate	Run4	generate/STIM_023.jpg
3359.899	2.434	1	generate	Run4	generate/STIM_024.jpg
3365.16	1.199	1	generate	Run4	generate/STIM_024.jpg
3369.017	1.839	1	generate	Run4	generate/STIM_024.jpg
3374.845	1.67	1	generate	Run4	generate/STIM_024.jpg
3379.589	2.552	1	generate	Run4	generate/STIM_024.jpg
3385.821	0.892	1	repeat	Run4	repeat/STIM_000.jpg
3389.424	1.149	1	repeat	Run4	repeat/STIM_000.jpg
3394.538	0.845	1	repeat	Run4	repeat/STIM_000.jpg
3399.301	1.04	1	repeat	Run4	repeat/STIM_000.jpg
3404.184	1.119	1	repeat	Run4	repeat/STIM_000.jpg
3408.238	0.872	1	repeat	Run4	repeat/STIM_001.jpg
3411.419	1.195	1	repeat	Run4	repeat/STIM_001.jpg
3414.957	0.652	1	repeat	Run4	repeat/STIM_001.jpg
3417.867	0.805	1	repeat	Run4	repeat/STIM_001.jpg
3422.12	0.861	1	repeat	Run4	repeat/STIM_001.jpg
3426.112	0.839	1	repeat	Run4	repeat/STIM_002.jpg
3429.367	0.879	1	repeat	Run4	repeat/STIM_002.jpg
3433.249	1.063	1	repeat	Run4	repeat/STIM_002.jpg
3436.791	0.88	1	repeat	Run4	repeat/STIM_002.jpg
3440.847	0.915	1	repeat	Run4	repeat/STIM_002.jpg
3444.89	0.932	1	repeat	Run4	repeat/STIM_003.jpg
3448.833	0.842	1	repeat	Run4	repeat/STIM_003.jpg
3453.32	1.246	1	repeat	Run4	repeat/STIM_003.jpg
3456.663	0.839	1	repeat	Run4	repeat/STIM_003.jpg
3459.624	1.246	0	repeat	Run4	repeat/STIM_003.jpg
3463.9	0.879	1	repeat	Run4	repeat/STIM_004.jpg
3467.822	0.94	1	repeat	Run4	repeat/STIM_004.jpg
3471.185	1.138	1	repeat	Run4	repeat/STIM_004.jpg
3474.459	0.941	1	repeat	Run4	repeat/STIM_004.jpg
3478.437	1.096	1	repeat	Run4	repeat/STIM_004.jpg
3481.655	0.784	1	repeat	Run4	repeat/STIM_005.jpg
3485.314	0.879	1	repeat	Run4	repeat/STIM_005.jpg
3488.376	0.764	1	repeat	Run4	repeat/STIM_005.jpg
3491.766	1.106	1	repeat	Run4	repeat/STIM_005.jpg
3495.848	0.651	1	repeat	Run4	repeat/STIM_005.jpg
3498.585	0.725	1	repeat	Run4	repeat/STIM_006.jpg
3502.684	0.906	1	repeat	Run4	repeat/STIM_006.jpg
3507.36	0.719	1	repeat	Run4	repeat/STIM_006.jpg
3511.274	1.052	1	repeat	Run4	repeat/STIM_006.jpg
3515.616	1.092	1	repeat	Run4	repeat/STIM_006.jpg
3519.421	1.217	1	repeat	Run4	repeat/STIM_007.jpg
3523.345	0.654	1	repeat	Run4	repeat/STIM_007.jpg
3526.362	1.215	1	repeat	Run4	repeat/STIM_007.jpg
3531.135	1.063	1	repeat	Run4	repeat/STIM_007.jpg
3534.561	1.232	1	repeat	Run4	repeat/STIM_007.jpg
3538.974	0.903	1	repeat	Run4	repeat/STIM_008.jpg
3543.031	0.758	1	repeat	Run4	repeat/STIM_008.jpg
3546.883	0.64	1	repeat	Run4	repeat/STIM_008.jpg
3551.244	0.888	1	repeat	Run4	repeat/STIM_008.jpg
3554.552	0.853	1	repeat	Run4	repeat/STIM_008.jpg
3557.658	1.199	1	repeat	Run4	repeat/STIM_009.jpg
3562.523	0.873	1	repeat	Run4	repeat/STIM_009.jpg
3566.669	1.199	1	repeat	Run4	repeat/STIM_009.jpg
3571.764	1.145	1	repeat	Run4	repeat/STIM_009.jpg
3575.804	1.178	1	repeat	Run4	repeat/STIM_009.jpg
3579.522	1.24	1	repeat	Run4	repeat/STIM_010.jpg
3584.121	0.796	1	repeat	Run4	repeat/STIM_010.jpg
3587.714	0.702	1	repeat	Run4	repeat/STIM_010.jpg
3590.842	1.158	1	repeat	Run4	repeat/STIM_010.jpg
3594.004	0.76	1	repeat	Run4	repeat/STIM_010.jpg
3598.735	0.801	1	repeat	Run4	repeat/STIM_011.jpg
3602.258	0.739	1	repeat	Run4	repeat/STIM_011.jpg
3605.482	0.792	1	repeat	Run4	repeat/STIM_011.jpg
3608.397	0.918	1	repeat	Run4	repeat/STIM_011.jpg
3613.212	0.997	1	repeat	Run4	repeat/STIM_011.jpg
3616.718	0.817	1	repeat	Run4	repeat/STIM_012.jpg
3619.689	0.652	1	repeat	Run4	repeat/STIM_012.jpg
3623.695	0.635	1	repeat	Run4	repeat/STIM_012.jpg
3627.811	1.032	1	repeat	Run4	repeat/STIM_012.jpg
3631.355	1.017	1	repeat	Run4	repeat/STIM_012.jpg
3634.951	0.792	1	repeat	Run4	repeat/STIM_013.jpg
3638.457	0.917	1	repeat	Run4	repeat/STIM_013.jpg
3643.136	0.833	1	repeat	Run4	repeat/STIM_013.jpg
3646.791	1.007	1	repeat	Run4	repeat/STIM_013.jpg
3650.058	0.795	1	repeat	Run4	repeat/STIM_013.jpg
3654.453	0.728	1	repeat	Run4	repeat/STIM_014.jpg
3658.04	0.908	1	repeat	Run4	repeat/STIM_014.jpg
3661.921	1.123	1	repeat	Run4	repeat/STIM_014.jpg
3666.038	0.807	1	repeat	Run4	repeat/STIM_014.jpg
3669.858	1.083	1	repeat	Run4	repeat/STIM_014.jpg
