onset	duration	accuracy_binary	trial_type	learning_stage	stimulus
0.0	2.399	1	generate	Run1	generate/STIM_000.jpg
4.977	1.44	1	generate	Run1	generate/STIM_000.jpg
8.583	2.238	1	generate	Run1	generate/STIM_000.jpg
13.589	2.352	0	generate	Run1	generate/STIM_000.jpg
19.171	1.38	1	generate	Run1	generate/STIM_000.jpg
23.955	2.949	1	generate	Run1	generate/STIM_001.jpg
30.866	1.538	1	generate	Run1	generate/STIM_001.jpg
34.981	2.079	1	generate	Run1	generate/STIM_001.jpg
39.169	1.413	1	generate	Run1	generate/STIM_001.jpg
44.411	1.233	1	generate	Run1	generate/STIM_001.jpg
48.587	2.834	0	generate	Run1	generate/STIM_002.jpg
54.918	2.709	1	generate	Run1	generate/STIM_002.jpg
59.66	1.632	1	generate	Run1	generate/STIM_002.jpg
64.345	1.177	0	generate	Run1	generate/STIM_002.jpg
67.566	2.264	1	generate	Run1	generate/STIM_002.jpg
72.806	1.391	0	generate	Run1	generate/STIM_003.jpg
77.303	1.982	0	generate	Run1	generate/STIM_003.jpg
82.965	2.748	1	generate	Run1	generate/STIM_003.jpg
89.673	1.909	0	generate	Run1	generate/STIM_003.jpg
95.078	1.475	1	generate	Run1	generate/STIM_003.jpg
99.793	1.832	1	generate	Run1	generate/STIM_004.jpg
105.409	2.76	1	generate	Run1	generate/STIM_004.jpg
110.993	1.764	0	generate	Run1	generate/STIM_004.jpg
116.584	2.608	1	generate	Run1	generate/STIM_004.jpg
122.568	1.942	0	generate	Run1	generate/STIM_004.jpg
127.742	2.296	0	generate	Run1	generate/STIM_005.jpg
133.568	2.158	1	generate	Run1	generate/STIM_005.jpg
138.129	1.28	1	generate	Run1	generate/STIM_005.jpg
142.779	2.21	1	generate	Run1	generate/STIM_005.jpg
147.939	1.709	0	generate	Run1	generate/STIM_005.jpg
153.062	2.419	0	generate	Run1	generate/STIM_006.jpg
157.752	1.42	1	generate	Run1	generate/STIM_006.jpg
162.326	2.429	1	generate	Run1	generate/STIM_006.jpg
167.372	2.169	1	generate	Run1	generate/STIM_006.jpg
172.236	1.725	1	generate	Run1	generate/STIM_006.jpg
176.032	1.434	1	generate	Run1	generate/STIM_007.jpg
180.41	2.944	0	generate	Run1	generate/STIM_007.jpg
186.122	2.858	1	generate	Run1	generate/STIM_007.jpg
192.194	1.178	1	generate	Run1	generate/STIM_007.jpg
196.99	1.915	0	generate	Run1	generate/STIM_007.jpg
202.015	2.131	1	generate	Run1	generate/STIM_008.jpg
206.897	1.785	1	generate	Run1	generate/STIM_008.jpg
210.934	1.822	1	generate	Run1	generate/STIM_008.jpg
215.607	2.137	1	generate	Run1	generate/STIM_008.jpg
219.872	1.9	1	generate	Run1	generate/STIM_008.jpg
224.623	3.091	1	generate	Run1	generate/STIM_009.jpg
231.138	2.671	1	generate	Run1	generate/STIM_009.jpg
236.987	1.998	1	generate	Run1	generate/STIM_009.jpg
242.519	1.362	0	generate	Run1	generate/STIM_009.jpg
247.551	2.554	0	generate	Run1	generate/STIM_009.jpg
253.715	1.384	0	generate	Run1	generate/STIM_010.jpg
257.742	1.268	1	generate	Run1	generate/STIM_010.jpg
262.181	2.409	1	generate	Run1	generate/STIM_010.jpg
267.045	2.028	1	generate	Run1	generate/STIM_010.jpg
272.421	1.523	1	generate	Run1	generate/STIM_010.jpg
276.268	1.358	1	generate	Run1	generate/STIM_011.jpg
280.706	1.387	1	generate	Run1	generate/STIM_011.jpg
285.146	1.615	1	generate	Run1	generate/STIM_011.jpg
290.252	1.484	1	generate	Run1	generate/STIM_011.jpg
295.613	1.626	0	generate	Run1	generate/STIM_011.jpg
301.053	1.958	0	generate	Run1	generate/STIM_012.jpg
306.811	2.26	1	generate	Run1	generate/STIM_012.jpg
312.833	1.792	1	generate	Run1	generate/STIM_012.jpg
317.968	2.685	1	generate	Run1	generate/STIM_012.jpg
323.125	1.691	1	generate	Run1	generate/STIM_012.jpg
328.331	3.121	0	generate	Run1	generate/STIM_013.jpg
334.477	1.707	1	generate	Run1	generate/STIM_013.jpg
338.296	1.291	0	generate	Run1	generate/STIM_013.jpg
342.157	1.864	1	generate	Run1	generate/STIM_013.jpg
346.849	1.371	1	generate	Run1	generate/STIM_013.jpg
351.254	1.303	1	generate	Run1	generate/STIM_014.jpg
355.513	1.472	1	generate	Run1	generate/STIM_014.jpg
359.367	1.5	0	generate	Run1	generate/STIM_014.jpg
363.599	2.649	1	generate	Run1	generate/STIM_014.jpg
369.395	1.869	0	generate	Run1	generate/STIM_014.jpg
373.972	2.792	1	generate	Run1	generate/STIM_015.jpg
380.408	3.054	0	generate	Run1	generate/STIM_015.jpg
386.216	1.88	1	generate	Run1	generate/STIM_015.jpg
390.393	1.857	1	generate	Run1	generate/STIM_015.jpg
395.261	1.608	0	generate	Run1	generate/STIM_015.jpg
400.02	2.365	0	generate	Run1	generate/STIM_016.jpg
404.84	2.998	1	generate	Run1	generate/STIM_016.jpg
410.653	2.589	1	generate	Run1	generate/STIM_016.jpg
417.161	2.045	0	generate	Run1	generate/STIM_016.jpg
422.947	1.309	0	generate	Run1	generate/STIM_016.jpg
428.031	2.829	0	generate	Run1	generate/STIM_017.jpg
434.071	1.542	1	generate	Run1	generate/STIM_017.jpg
439.134	2.28	1	generate	Run1	generate/STIM_017.jpg
443.558	2.159	0	generate	Run1	generate/STIM_017.jpg
448.634	1.808	1	generate	Run1	generate/STIM_017.jpg
452.868	1.609	1	generate	Run1	generate/STIM_018.jpg
457.11	2.298	0	generate	Run1	generate/STIM_018.jpg
461.927	2.33	1	generate	Run1	generate/STIM_018.jpg
467.385	2.385	0	generate	Run1	generate/STIM_018.jpg
471.901	1.04	1	generate	Run1	generate/STIM_018.jpg
475.06	2.513	1	generate	Run1	generate/STIM_019.jpg
480.55	2.953	1	generate	Run1	generate/STIM_019.jpg
486.226	2.89	1	generate	Run1	generate/STIM_019.jpg
492.288	2.453	0	generate	Run1	generate/STIM_019.jpg
498.657	1.038	1	generate	Run1	generate/STIM_019.jpg
503.3	2.878	0	generate	Run1	generate/STIM_020.jpg
508.457	2.957	1	generate	Run1	generate/STIM_020.jpg
515.197	2.012	1	generate	Run1	generate/STIM_020.jpg
519.527	1.826	1	generate	Run1	generate/STIM_020.jpg
523.482	1.467	1	generate	Run1	generate/STIM_020.jpg
527.943	1.443	0	generate	Run1	generate/STIM_021.jpg
532.342	2.323	1	generate	Run1	generate/STIM_021.jpg
538.278	2.749	0	generate	Run1	generate/STIM_021.jpg
543.27	2.189	1	generate	Run1	generate/STIM_021.jpg
549.322	1.474	1	generate	Run1	generate/STIM_021.jpg
553.459	1.316	1	generate	Run1	generate/STIM_022.jpg
556.982	2.638	1	generate	Run1	generate/STIM_022.jpg
561.807	1.841	1	generate	Run1	generate/STIM_022.jpg
567.552	2.18	0	generate	Run1	generate/STIM_022.jpg
572.86	1.783	0	generate	Run1	generate/STIM_022.jpg
576.679	3.014	0	generate	Run1	generate/STIM_023.jpg
581.779	2.914	1	generate	Run1	generate/STIM_023.jpg
588.093	1.531	1	generate	Run1	generate/STIM_023.jpg
592.982	1.989	1	generate	Run1	generate/STIM_023.jpg
597.773	1.204	0	generate	Run1	generate/STIM_023.jpg
601.369	2.83	1	generate	Run1	generate/STIM_024.jpg
607.237	3.057	1	generate	Run1	generate/STIM_024.jpg
614.068	2.59	0	generate	Run1	generate/STIM_024.jpg
620.384	1.812	0	generate	Run1	generate/STIM_024.jpg
626.083	1.836	1	generate	Run1	generate/STIM_024.jpg
631.492	0.584	1	repeat	Run1	repeat/STIM_000.jpg
634.649	0.54	1	repeat	Run1	repeat/STIM_000.jpg
638.257	0.589	1	repeat	Run1	repeat/STIM_000.jpg
641.839	0.734	1	repeat	Run1	repeat/STIM_000.jpg
646.137	0.913	1	repeat	Run1	repeat/STIM_000.jpg
650.574	0.792	1	repeat	Run1	repeat/STIM_001.jpg
654.268	0.774	0	repeat	Run1	repeat/STIM_001.jpg
658.334	0.572	1	repeat	Run1	repeat/STIM_001.jpg
662.286	0.745	1	repeat	Run1	repeat/STIM_001.jpg
665.042	0.748	1	repeat	Run1	repeat/STIM_001.jpg
669.182	0.59	0	repeat	Run1	repeat/STIM_002.jpg
673.419	0.806	1	repeat	Run1	repeat/STIM_002.jpg
676.783	0.764	1	repeat	Run1	repeat/STIM_002.jpg
680.875	1.004	1	repeat	Run1	repeat/STIM_002.jpg
685.638	0.768	1	repeat	Run1	repeat/STIM_002.jpg
690.293	0.932	1	repeat	Run1	repeat/STIM_003.jpg
693.943	0.734	1	repeat	Run1	repeat/STIM_003.jpg
698.199	0.582	1	repeat	Run1	repeat/STIM_003.jpg
702.384	0.786	1	repeat	Run1	repeat/STIM_003.jpg
706.59	0.738	1	repeat	Run1	repeat/STIM_003.jpg
710.219	1.06	1	repeat	Run1	repeat/STIM_004.jpg
714.112	1.013	1	repeat	Run1	repeat/STIM_004.jpg
718.944	0.678	1	repeat	Run1	repeat/STIM_004.jpg
723.236	0.844	1	repeat	Run1	repeat/STIM_004.jpg
727.866	0.672	1	repeat	Run1	repeat/STIM_004.jpg
731.039	0.721	0	repeat	Run1	repeat/STIM_005.jpg
734.495	0.776	1	repeat	Run1	repeat/STIM_005.jpg
737.748	0.577	1	repeat	Run1	repeat/STIM_005.jpg
741.652	0.84	1	repeat	Run1	repeat/STIM_005.jpg
745.418	0.95	0	repeat	Run1	repeat/STIM_005.jpg
749.165	0.838	1	repeat	Run1	repeat/STIM_006.jpg
752.822	0.794	1	repeat	Run1	repeat/STIM_006.jpg
757.239	0.652	1	repeat	Run1	repeat/STIM_006.jpg
761.025	0.636	1	repeat	Run1	repeat/STIM_006.jpg
764.367	0.936	1	repeat	Run1	repeat/STIM_006.jpg
769.175	0.857	1	repeat	Run1	repeat/STIM_007.jpg
773.672	0.622	1	repeat	Run1	repeat/STIM_007.jpg
776.465	0.683	1	repeat	Run1	repeat/STIM_007.jpg
780.796	0.891	1	repeat	Run1	repeat/STIM_007.jpg
783.856	0.555	1	repeat	Run1	repeat/STIM_007.jpg
787.659	1.071	1	repeat	Run1	repeat/STIM_008.jpg
791.454	0.606	1	repeat	Run1	repeat/STIM_008.jpg
794.185	0.589	1	repeat	Run1	repeat/STIM_008.jpg
798.647	0.608	1	repeat	Run1	repeat/STIM_008.jpg
801.839	0.868	1	repeat	Run1	repeat/STIM_008.jpg
805.766	0.888	1	repeat	Run1	repeat/STIM_009.jpg
809.735	0.774	1	repeat	Run1	repeat/STIM_009.jpg
813.529	0.647	1	repeat	Run1	repeat/STIM_009.jpg
816.389	0.854	1	repeat	Run1	repeat/STIM_009.jpg
820.18	0.823	1	repeat	Run1	repeat/STIM_009.jpg
823.96	0.552	1	repeat	Run1	repeat/STIM_010.jpg
827.155	0.831	1	repeat	Run1	repeat/STIM_010.jpg
831.759	0.835	1	repeat	Run1	repeat/STIM_010.jpg
836.259	0.903	1	repeat	Run1	repeat/STIM_010.jpg
840.895	0.723	1	repeat	Run1	repeat/STIM_010.jpg
844.496	0.937	0	repeat	Run1	repeat/STIM_011.jpg
848.721	0.746	1	repeat	Run1	repeat/STIM_011.jpg
852.235	0.937	1	repeat	Run1	repeat/STIM_011.jpg
856.799	0.79	1	repeat	Run1	repeat/STIM_011.jpg
861.143	1.014	1	repeat	Run1	repeat/STIM_011.jpg
864.381	1.018	0	repeat	Run1	repeat/STIM_012.jpg
869.363	0.814	1	repeat	Run1	repeat/STIM_012.jpg
873.212	0.7	1	repeat	Run1	repeat/STIM_012.jpg
876.938	0.8	1	repeat	Run1	repeat/STIM_012.jpg
880.69	0.728	1	repeat	Run1	repeat/STIM_012.jpg
883.817	0.803	1	repeat	Run1	repeat/STIM_013.jpg
886.666	1.073	1	repeat	Run1	repeat/STIM_013.jpg
890.482	0.852	1	repeat	Run1	repeat/STIM_013.jpg
893.9	0.992	1	repeat	Run1	repeat/STIM_013.jpg
897.12	0.797	1	repeat	Run1	repeat/STIM_013.jpg
901.648	0.572	1	repeat	Run1	repeat/STIM_014.jpg
905.575	0.831	1	repeat	Run1	repeat/STIM_014.jpg
910.381	0.737	1	repeat	Run1	repeat/STIM_014.jpg
913.546	1.066	1	repeat	Run1	repeat/STIM_014.jpg
918.301	1.069	1	repeat	Run1	repeat/STIM_014.jpg
922.986	1.789	1	generate	Run2	generate/STIM_000.jpg
927.01	2.165	1	generate	Run2	generate/STIM_000.jpg
931.497	2.206	1	generate	Run2	generate/STIM_000.jpg
937.09	2.194	0	generate	Run2	generate/STIM_000.jpg
941.849	1.772	1	generate	Run2	generate/STIM_000.jpg
947.412	1.562	1	generate	Run2	generate/STIM_001.jpg
951.257	1.57	0	generate	Run2	generate/STIM_001.jpg
955.442	1.187	1	generate	Run2	generate/STIM_001.jpg
959.643	2.164	1	generate	Run2	generate/STIM_001.jpg
964.009	2.005	1	generate	Run2	generate/STIM_001.jpg
968.906	2.552	1	generate	Run2	generate/STIM_002.jpg
975.086	1.713	1	generate	Run2	generate/STIM_002.jpg
980.044	2.191	0	generate	Run2	generate/STIM_002.jpg
984.812	1.928	0	generate	Run2	generate/STIM_002.jpg
990.252	1.715	1	generate	Run2	generate/STIM_002.jpg
995.862	2.674	1	generate	Run2	generate/STIM_003.jpg
1001.627	1.208	1	generate	Run2	generate/STIM_003.jpg
1005.572	2.413	0	generate	Run2	generate/STIM_003.jpg
1011.668	0.911	0	generate	Run2	generate/STIM_003.jpg
1015.419	1.756	0	generate	Run2	generate/STIM_003.jpg
1019.993	1.221	1	generate	Run2	generate/STIM_004.jpg
1024.385	2.404	1	generate	Run2	generate/STIM_004.jpg
1029.334	1.539	1	generate	Run2	generate/STIM_004.jpg
1033.735	1.202	1	generate	Run2	generate/STIM_004.jpg
1038.36	1.084	0	generate	Run2	generate/STIM_004.jpg
1041.549	2.349	1	generate	Run2	generate/STIM_005.jpg
1047.422	2.205	1	generate	Run2	generate/STIM_005.jpg
1053.426	1.584	1	generate	Run2	generate/STIM_005.jpg
1058.568	2.246	1	generate	Run2	generate/STIM_005.jpg
1064.228	1.938	1	generate	Run2	generate/STIM_005.jpg
1069.23	1.315	0	generate	Run2	generate/STIM_006.jpg
1072.574	1.236	1	generate	Run2	generate/STIM_006.jpg
1077.097	1.263	1	generate	Run2	generate/STIM_006.jpg
1081.081	1.97	1	generate	Run2	generate/STIM_006.jpg
1086.867	1.104	1	generate	Run2	generate/STIM_006.jpg
1090.269	1.915	1	generate	Run2	generate/STIM_007.jpg
1094.266	1.079	1	generate	Run2	generate/STIM_007.jpg
1098.032	2.142	1	generate	Run2	generate/STIM_007.jpg
1102.592	1.67	1	generate	Run2	generate/STIM_007.jpg
1106.87	1.143	0	generate	Run2	generate/STIM_007.jpg
1110.904	2.684	1	generate	Run2	generate/STIM_008.jpg
1115.808	1.249	1	generate	Run2	generate/STIM_008.jpg
1119.239	2.148	1	generate	Run2	generate/STIM_008.jpg
1124.968	1.157	1	generate	Run2	generate/STIM_008.jpg
1129.262	1.58	1	generate	Run2	generate/STIM_008.jpg
1133.967	1.841	0	generate	Run2	generate/STIM_009.jpg
1139.639	1.035	1	generate	Run2	generate/STIM_009.jpg
1142.783	1.441	1	generate	Run2	generate/STIM_009.jpg
1147.818	1.464	1	generate	Run2	generate/STIM_009.jpg
1152.71	0.97	1	generate	Run2	generate/STIM_009.jpg
1156.658	1.727	1	generate	Run2	generate/STIM_010.jpg
1161.678	1.666	0	generate	Run2	generate/STIM_010.jpg
1166.787	1.864	0	generate	Run2	generate/STIM_010.jpg
1171.483	1.636	1	generate	Run2	generate/STIM_010.jpg
1175.37	1.033	1	generate	Run2	generate/STIM_010.jpg
1179.616	1.605	1	generate	Run2	generate/STIM_011.jpg
1184.213	1.284	0	generate	Run2	generate/STIM_011.jpg
1188.037	2.136	1	generate	Run2	generate/STIM_011.jpg
1192.566	1.456	1	generate	Run2	generate/STIM_011.jpg
1196.88	1.149	1	generate	Run2	generate/STIM_011.jpg
1201.434	2.371	0	generate	Run2	generate/STIM_012.jpg
1207.323	2.568	1	generate	Run2	generate/STIM_012.jpg
1212.237	1.115	1	generate	Run2	generate/STIM_012.jpg
1215.865	1.951	1	generate	Run2	generate/STIM_012.jpg
1219.818	1.054	0	generate	Run2	generate/STIM_012.jpg
1224.289	1.634	1	generate	Run2	generate/STIM_013.jpg
1229.383	1.209	1	generate	Run2	generate/STIM_013.jpg
1233.767	0.999	0	generate	Run2	generate/STIM_013.jpg
1238.697	1.4	0	generate	Run2	generate/STIM_013.jpg
1243.663	1.528	1	generate	Run2	generate/STIM_013.jpg
1247.512	2.722	1	generate	Run2	generate/STIM_014.jpg
1252.973	1.416	1	generate	Run2	generate/STIM_014.jpg
1256.785	1.243	1	generate	Run2	generate/STIM_014.jpg
1260.409	1.588	1	generate	Run2	generate/STIM_014.jpg
1265.348	1.456	0	generate	Run2	generate/STIM_014.jpg
1269.457	1.973	1	generate	Run2	generate/STIM_015.jpg
1275.045	1.727	1	generate	Run2	generate/STIM_015.jpg
1280.427	1.507	1	generate	Run2	generate/STIM_015.jpg
1283.95	1.021	1	generate	Run2	generate/STIM_015.jpg
1288.05	1.392	1	generate	Run2	generate/STIM_015.jpg
1293.189	1.504	1	generate	Run2	generate/STIM_016.jpg
1296.728	1.359	1	generate	Run2	generate/STIM_016.jpg
1300.346	2.2	1	generate	Run2	generate/STIM_016.jpg
1304.985	2.219	1	generate	Run2	generate/STIM_016.jpg
1310.616	0.949	0	generate	Run2	generate/STIM_016.jpg
1315.004	1.122	0	generate	Run2	generate/STIM_017.jpg
1318.284	1.69	1	generate	Run2	generate/STIM_017.jpg
1323.888	1.968	1	generate	Run2	generate/STIM_017.jpg
1328.592	1.768	1	generate	Run2	generate/STIM_017.jpg
1332.55	1.631	1	generate	Run2	generate/STIM_017.jpg
1337.409	1.707	1	generate	Run2	generate/STIM_018.jpg
1342.629	1.222	1	generate	Run2	generate/STIM_018.jpg
1346.998	1.371	1	generate	Run2	generate/STIM_018.jpg
1351.949	1.843	1	generate	Run2	generate/STIM_018.jpg
1356.237	2.047	1	generate	Run2	generate/STIM_018.jpg
1362.176	2.395	1	generate	Run2	generate/STIM_019.jpg
1368.36	2.441	0	generate	Run2	generate/STIM_019.jpg
1372.922	1.009	1	generate	Run2	generate/STIM_019.jpg
1376.598	1.87	1	generate	Run2	generate/STIM_019.jpg
1380.546	0.945	1	generate	Run2	generate/STIM_019.jpg
1385.063	2.235	0	generate	Run2	generate/STIM_020.jpg
1389.725	2.484	0	generate	Run2	generate/STIM_020.jpg
1394.625	1.456	1	generate	Run2	generate/STIM_020.jpg
1398.434	1.653	0	generate	Run2	generate/STIM_020.jpg
1402.715	1.607	1	generate	Run2	generate/STIM_020.jpg
1406.694	1.424	1	generate	Run2	generate/STIM_021.jpg
1411.131	1.356	1	generate	Run2	generate/STIM_021.jpg
1416.436	1.625	1	generate	Run2	generate/STIM_021.jpg
1422.057	2.251	1	generate	Run2	generate/STIM_021.jpg
1427.765	1.819	1	generate	Run2	generate/STIM_021.jpg
1432.693	1.1	0	generate	Run2	generate/STIM_022.jpg
1436.963	2.309	1	generate	Run2	generate/STIM_022.jpg
1441.637	1.718	1	generate	Run2	generate/STIM_022.jpg
1445.786	1.579	1	generate	Run2	generate/STIM_022.jpg
1449.599	1.676	1	generate	Run2	generate/STIM_022.jpg
1454.633	2.16	1	generate	Run2	generate/STIM_023.jpg
1460.208	2.36	0	generate	Run2	generate/STIM_023.jpg
1465.312	1.662	1	generate	Run2	generate/STIM_023.jpg
1470.105	1.062	1	generate	Run2	generate/STIM_023.jpg
1473.272	1.907	1	generate	Run2	generate/STIM_023.jpg
1478.65	1.269	1	generate	Run2	generate/STIM_024.jpg
1483.915	1.941	0	generate	Run2	generate/STIM_024.jpg
1488.797	1.833	1	generate	Run2	generate/STIM_024.jpg
1493.899	2.0	1	generate	Run2	generate/STIM_024.jpg
1498.248	2.143	1	generate	Run2	generate/STIM_024.jpg
1502.95	1.019	1	repeat	Run2	repeat/STIM_000.jpg
1506.865	0.554	0	repeat	Run2	repeat/STIM_000.jpg
1510.463	0.867	1	repeat	Run2	repeat/STIM_000.jpg
1513.951	0.658	1	repeat	Run2	repeat/STIM_000.jpg
1517.104	0.652	0	repeat	Run2	repeat/STIM_000.jpg
1520.161	0.84	0	repeat	Run2	repeat/STIM_001.jpg
1523.529	0.941	1	repeat	Run2	repeat/STIM_001.jpg
1527.662	0.57	1	repeat	Run2	repeat/STIM_001.jpg
1531.545	0.997	1	repeat	Run2	repeat/STIM_001.jpg
1536.202	0.587	1	repeat	Run2	repeat/STIM_001.jpg
1540.57	0.802	1	repeat	Run2	repeat/STIM_002.jpg
1543.755	0.693	0	repeat	Run2	repeat/STIM_002.jpg
1547.97	1.018	0	repeat	Run2	repeat/STIM_002.jpg
1551.308	0.709	1	repeat	Run2	repeat/STIM_002.jpg
1554.558	0.734	1	repeat	Run2	repeat/STIM_002.jpg
1558.308	0.762	0	repeat	Run2	repeat/STIM_003.jpg
1562.297	0.986	1	repeat	Run2	repeat/STIM_003.jpg
1566.452	0.564	1	repeat	Run2	repeat/STIM_003.jpg
1569.413	0.775	1	repeat	Run2	repeat/STIM_003.jpg
1573.326	0.623	0	repeat	Run2	repeat/STIM_003.jpg
1577.649	0.958	1	repeat	Run2	repeat/STIM_004.jpg
1580.987	0.61	1	repeat	Run2	repeat/STIM_004.jpg
1584.174	0.652	1	repeat	Run2	repeat/STIM_004.jpg
1587.718	0.662	0	repeat	Run2	repeat/STIM_004.jpg
1591.003	0.763	1	repeat	Run2	repeat/STIM_004.jpg
1595.417	0.769	0	repeat	Run2	repeat/STIM_005.jpg
1598.319	0.713	1	repeat	Run2	repeat/STIM_005.jpg
1602.412	0.698	0	repeat	Run2	repeat/STIM_005.jpg
1605.837	0.724	1	repeat	Run2	repeat/STIM_005.jpg
1609.106	0.662	1	repeat	Run2	repeat/STIM_005.jpg
1613.545	0.947	1	repeat	Run2	repeat/STIM_006.jpg
1616.675	0.687	1	repeat	Run2	repeat/STIM_006.jpg
1620.903	0.841	1	repeat	Run2	repeat/STIM_006.jpg
1624.772	0.711	1	repeat	Run2	repeat/STIM_006.jpg
1628.391	1.012	1	repeat	Run2	repeat/STIM_006.jpg
1633.365	0.93	1	repeat	Run2	repeat/STIM_007.jpg
1637.161	0.983	1	repeat	Run2	repeat/STIM_007.jpg
1641.643	0.654	1	repeat	Run2	repeat/STIM_007.jpg
1645.425	0.925	1	repeat	Run2	repeat/STIM_007.jpg
1649.747	1.01	1	repeat	Run2	repeat/STIM_007.jpg
1654.211	0.665	1	repeat	Run2	repeat/STIM_008.jpg
1657.766	0.628	1	repeat	Run2	repeat/STIM_008.jpg
1660.84	0.561	1	repeat	Run2	repeat/STIM_008.jpg
1665.273	0.907	1	repeat	Run2	repeat/STIM_008.jpg
1669.58	0.577	1	repeat	Run2	repeat/STIM_008.jpg
1673.15	0.568	1	repeat	Run2	repeat/STIM_009.jpg
1676.84	1.067	1	repeat	Run2	repeat/STIM_009.jpg
1680.445	0.537	1	repeat	Run2	repeat/STIM_009.jpg
1683.693	0.737	1	repeat	Run2	repeat/STIM_009.jpg
1686.645	0.69	1	repeat	Run2	repeat/STIM_009.jpg
1689.564	0.603	1	repeat	Run2	repeat/STIM_010.jpg
1693.639	0.666	1	repeat	Run2	repeat/STIM_010.jpg
1697.663	1.067	1	repeat	Run2	repeat/STIM_010.jpg
1701.323	0.781	1	repeat	Run2	repeat/STIM_010.jpg
1705.821	0.956	1	repeat	Run2	repeat/STIM_010.jpg
1710.357	0.691	1	repeat	Run2	repeat/STIM_011.jpg
1714.969	0.739	1	repeat	Run2	repeat/STIM_011.jpg
1718.266	0.769	1	repeat	Run2	repeat/STIM_011.jpg
1721.61	0.777	1	repeat	Run2	repeat/STIM_011.jpg
1724.93	0.948	1	repeat	Run2	repeat/STIM_011.jpg
1728.729	0.938	1	repeat	Run2	repeat/STIM_012.jpg
1732.606	0.98	0	repeat	Run2	repeat/STIM_012.jpg
1736.23	0.745	1	repeat	Run2	repeat/STIM_012.jpg
1740.403	0.809	0	repeat	Run2	repeat/STIM_012.jpg
1743.618	0.794	1	repeat	Run2	repeat/STIM_012.jpg
1747.788	0.992	1	repeat	Run2	repeat/STIM_013.jpg
1750.875	0.947	1	repeat	Run2	repeat/STIM_013.jpg
1754.266	0.72	1	repeat	Run2	repeat/STIM_013.jpg
1757.01	0.7	1	repeat	Run2	repeat/STIM_013.jpg
1761.443	1.0	1	repeat	Run2	repeat/STIM_013.jpg
1765.742	0.77	1	repeat	Run2	repeat/STIM_014.jpg
1769.791	0.772	1	repeat	Run2	repeat/STIM_014.jpg
1773.799	0.917	1	repeat	Run2	repeat/STIM_014.jpg
1777.455	0.963	1	repeat	Run2	repeat/STIM_014.jpg
1782.382	0.976	1	repeat	Run2	repeat/STIM_014.jpg
1786.574	1.631	1	generate	Run3	generate/STIM_000.jpg
1791.958	1.428	0	generate	Run3	generate/STIM_000.jpg
1797.205	1.57	1	generate	Run3	generate/STIM_000.jpg
1801.613	1.79	1	generate	Run3	generate/STIM_000.jpg
1807.012	1.424	0	generate	Run3	generate/STIM_000.jpg
1810.654	1.485	1	generate	Run3	generate/STIM_001.jpg
1815.916	2.056	1	generate	Run3	generate/STIM_001.jpg
1821.13	1.173	1	generate	Run3	generate/STIM_001.jpg
1825.293	1.386	1	generate	Run3	generate/STIM_001.jpg
1830.363	1.845	1	generate	Run3	generate/STIM_001.jpg
1834.986	1.954	1	generate	Run3	generate/STIM_002.jpg
1840.09	1.484	1	generate	Run3	generate/STIM_002.jpg
1844.638	1.324	1	generate	Run3	generate/STIM_002.jpg
1848.97	2.1	1	generate	Run3	generate/STIM_002.jpg
1854.42	1.31	1	generate	Run3	generate/STIM_002.jpg
1858.537	1.336	1	generate	Run3	generate/STIM_003.jpg
1863.461	1.798	1	generate	Run3	generate/STIM_003.jpg
1867.705	1.67	1	generate	Run3	generate/STIM_003.jpg
1871.465	1.031	1	generate	Run3	generate/STIM_003.jpg
1874.507	2.217	1	generate	Run3	generate/STIM_003.jpg
1880.435	1.105	1	generate	Run3	generate/STIM_004.jpg
1883.571	1.132	1	generate	Run3	generate/STIM_004.jpg
1887.65	1.898	1	generate	Run3	generate/STIM_004.jpg
1893.451	2.038	0	generate	Run3	generate/STIM_004.jpg
1898.447	1.434	1	generate	Run3	generate/STIM_004.jpg
1902.795	1.732	1	generate	Run3	generate/STIM_005.jpg
1907.978	1.216	1	generate	Run3	generate/STIM_005.jpg
1912.251	2.162	1	generate	Run3	generate/STIM_005.jpg
1916.658	0.913	1	generate	Run3	generate/STIM_005.jpg
1921.271	1.394	1	generate	Run3	generate/STIM_005.jpg
1926.651	1.336	1	generate	Run3	generate/STIM_006.jpg
1930.401	1.97	1	generate	Run3	generate/STIM_006.jpg
1935.777	1.493	1	generate	Run3	generate/STIM_006.jpg
1939.384	1.78	1	generate	Run3	generate/STIM_006.jpg
1944.943	0.916	1	generate	Run3	generate/STIM_006.jpg
1949.659	2.216	1	generate	Run3	generate/STIM_007.jpg
1955.452	1.159	0	generate	Run3	generate/STIM_007.jpg
1959.847	1.536	1	generate	Run3	generate/STIM_007.jpg
1964.783	1.393	1	generate	Run3	generate/STIM_007.jpg
1969.598	0.995	1	generate	Run3	generate/STIM_007.jpg
1972.785	1.92	0	generate	Run3	generate/STIM_008.jpg
1977.513	2.115	0	generate	Run3	generate/STIM_008.jpg
1982.596	1.628	1	generate	Run3	generate/STIM_008.jpg
1987.553	1.478	0	generate	Run3	generate/STIM_008.jpg
1991.938	1.243	1	generate	Run3	generate/STIM_008.jpg
1996.542	2.124	1	generate	Run3	generate/STIM_009.jpg
2000.924	0.999	1	generate	Run3	generate/STIM_009.jpg
2005.746	2.004	1	generate	Run3	generate/STIM_009.jpg
2011.543	1.331	1	generate	Run3	generate/STIM_009.jpg
2016.406	1.389	1	generate	Run3	generate/STIM_009.jpg
2019.97	2.148	1	generate	Run3	generate/STIM_010.jpg
2024.282	1.202	1	generate	Run3	generate/STIM_010.jpg
2029.329	1.066	1	generate	Run3	generate/STIM_010.jpg
2033.508	1.983	0	generate	Run3	generate/STIM_010.jpg
2039.428	1.866	1	generate	Run3	generate/STIM_010.jpg
2044.338	2.195	1	generate	Run3	generate/STIM_011.jpg
2049.089	2.007	1	generate	Run3	generate/STIM_011.jpg
2054.059	1.431	1	generate	Run3	generate/STIM_011.jpg
2057.886	0.916	1	generate	Run3	generate/STIM_011.jpg
2061.579	1.357	1	generate	Run3	generate/STIM_011.jpg
2066.242	1.946	1	generate	Run3	generate/STIM_012.jpg
2071.436	1.847	1	generate	Run3	generate/STIM_012.jpg
2076.816	1.533	1	generate	Run3	generate/STIM_012.jpg
2080.86	0.91	1	generate	Run3	generate/STIM_012.jpg
2084.495	1.018	1	generate	Run3	generate/STIM_012.jpg
2089.321	1.466	1	generate	Run3	generate/STIM_013.jpg
2093.15	2.227	1	generate	Run3	generate/STIM_013.jpg
2097.897	2.073	1	generate	Run3	generate/STIM_013.jpg
2102.504	1.264	1	generate	Run3	generate/STIM_013.jpg
2107.171	1.623	1	generate	Run3	generate/STIM_013.jpg
2111.264	1.986	1	generate	Run3	generate/STIM_014.jpg
2115.53	1.619	0	generate	Run3	generate/STIM_014.jpg
2120.864	1.646	1	generate	Run3	generate/STIM_014.jpg
2125.845	2.11	1	generate	Run3	generate/STIM_014.jpg
2130.336	1.534	1	generate	Run3	generate/STIM_014.jpg
2135.783	1.447	1	generate	Run3	generate/STIM_015.jpg
2140.392	1.248	1	generate	Run3	generate/STIM_015.jpg
2143.888	1.437	1	generate	Run3	generate/STIM_015.jpg
2148.46	1.761	1	generate	Run3	generate/STIM_015.jpg
2152.309	2.002	1	generate	Run3	generate/STIM_015.jpg
2156.576	2.24	1	generate	Run3	generate/STIM_016.jpg
2162.632	1.391	0	generate	Run3	generate/STIM_016.jpg
2166.85	1.626	1	generate	Run3	generate/STIM_016.jpg
2171.154	2.206	1	generate	Run3	generate/STIM_016.jpg
2176.822	2.145	1	generate	Run3	generate/STIM_016.jpg
2181.452	1.354	1	generate	Run3	generate/STIM_017.jpg
2186.049	2.159	1	generate	Run3	generate/STIM_017.jpg
2191.787	1.572	1	generate	Run3	generate/STIM_017.jpg
2196.776	1.099	1	generate	Run3	generate/STIM_017.jpg
2199.998	1.554	1	generate	Run3	generate/STIM_017.jpg
2205.323	1.708	1	generate	Run3	generate/STIM_018.jpg
2210.558	1.312	1	generate	Run3	generate/STIM_018.jpg
2215.759	1.502	1	generate	Run3	generate/STIM_018.jpg
2219.543	1.405	1	generate	Run3	generate/STIM_018.jpg
2224.779	1.179	1	generate	Run3	generate/STIM_018.jpg
2229.811	1.832	0	generate	Run3	generate/STIM_019.jpg
2234.621	1.158	1	generate	Run3	generate/STIM_019.jpg
2239.049	1.634	1	generate	Run3	generate/STIM_019.jpg
2244.047	1.852	0	generate	Run3	generate/STIM_019.jpg
2249.012	0.982	1	generate	Run3	generate/STIM_019.jpg
2252.689	1.545	1	generate	Run3	generate/STIM_020.jpg
2258.113	1.515	1	generate	Run3	generate/STIM_020.jpg
2263.33	1.848	0	generate	Run3	generate/STIM_020.jpg
2268.414	1.255	1	generate	Run3	generate/STIM_020.jpg
2271.786	2.121	0	generate	Run3	generate/STIM_020.jpg
2276.124	2.117	1	generate	Run3	generate/STIM_021.jpg
2280.898	1.467	0	generate	Run3	generate/STIM_021.jpg
2284.377	1.196	1	generate	Run3	generate/STIM_021.jpg
2287.918	1.405	1	generate	Run3	generate/STIM_021.jpg
2292.524	2.25	1	generate	Run3	generate/STIM_021.jpg
2297.376	1.536	1	generate	Run3	generate/STIM_022.jpg
2302.269	1.477	1	generate	Run3	generate/STIM_022.jpg
2307.291	1.955	1	generate	Run3	generate/STIM_022.jpg
2313.039	1.778	1	generate	Run3	generate/STIM_022.jpg
2317.678	1.553	1	generate	Run3	generate/STIM_022.jpg
2321.902	2.172	1	generate	Run3	generate/STIM_023.jpg
2326.298	2.153	1	generate	Run3	generate/STIM_023.jpg
2331.447	0.912	1	generate	Run3	generate/STIM_023.jpg
2336.198	1.909	1	generate	Run3	generate/STIM_023.jpg
2341.06	2.025	1	generate	Run3	generate/STIM_023.jpg
2346.883	1.227	1	generate	Run3	generate/STIM_024.jpg
2351.09	1.887	1	generate	Run3	generate/STIM_024.jpg
2356.712	2.209	1	generate	Run3	generate/STIM_024.jpg
2362.561	1.594	1	generate	Run3	generate/STIM_024.jpg
2368.041	1.995	1	generate	Run3	generate/STIM_024.jpg
2373.188	0.601	1	repeat	Run3	repeat/STIM_000.jpg
2376.764	0.57	1	repeat	Run3	repeat/STIM_000.jpg
2379.522	0.875	1	repeat	Run3	repeat/STIM_000.jpg
2382.914	0.567	1	repeat	Run3	repeat/STIM_000.jpg
2386.805	0.987	1	repeat	Run3	repeat/STIM_000.jpg
2390.881	0.639	0	repeat	Run3	repeat/STIM_001.jpg
2394.159	0.659	1	repeat	Run3	repeat/STIM_001.jpg
2397.647	0.969	1	repeat	Run3	repeat/STIM_001.jpg
2402.237	0.538	1	repeat	Run3	repeat/STIM_001.jpg
2405.516	0.555	1	repeat	Run3	repeat/STIM_001.jpg
2409.444	0.563	1	repeat	Run3	repeat/STIM_002.jpg
2413.25	0.612	1	repeat	Run3	repeat/STIM_002.jpg
2417.315	1.064	1	repeat	Run3	repeat/STIM_002.jpg
2421.783	0.645	1	repeat	Run3	repeat/STIM_002.jpg
2426.333	0.991	1	repeat	Run3	repeat/STIM_002.jpg
2430.245	0.771	1	repeat	Run3	repeat/STIM_003.jpg
2433.395	0.78	1	repeat	Run3	repeat/STIM_003.jpg
2437.342	0.985	1	repeat	Run3	repeat/STIM_003.jpg
2441.647	1.054	1	repeat	Run3	repeat/STIM_003.jpg
2445.199	0.537	1	repeat	Run3	repeat/STIM_003.jpg
2448.581	0.738	1	repeat	Run3	repeat/STIM_004.jpg
2451.651	1.028	1	repeat	Run3	repeat/STIM_004.jpg
2456.675	0.958	1	repeat	Run3	repeat/STIM_004.jpg
2460.212	0.951	1	repeat	Run3	repeat/STIM_004.jpg
2464.713	0.693	1	repeat	Run3	repeat/STIM_004.jpg
2469.355	0.834	1	repeat	Run3	repeat/STIM_005.jpg
2473.557	0.648	1	repeat	Run3	repeat/STIM_005.jpg
2476.798	0.638	1	repeat	Run3	repeat/STIM_005.jpg
2480.76	0.571	1	repeat	Run3	repeat/STIM_005.jpg
2484.968	0.873	1	repeat	Run3	repeat/STIM_005.jpg
2489.135	0.574	1	repeat	Run3	repeat/STIM_006.jpg
2492.476	0.578	1	repeat	Run3	repeat/STIM_006.jpg
2496.325	0.782	1	repeat	Run3	repeat/STIM_006.jpg
2500.555	0.573	1	repeat	Run3	repeat/STIM_006.jpg
2504.174	0.691	1	repeat	Run3	repeat/STIM_006.jpg
2506.995	0.704	1	repeat	Run3	repeat/STIM_007.jpg
2511.179	0.62	1	repeat	Run3	repeat/STIM_007.jpg
2514.174	0.891	0	repeat	Run3	repeat/STIM_007.jpg
2517.761	0.611	1	repeat	Run3	repeat/STIM_007.jpg
2521.196	0.685	1	repeat	Run3	repeat/STIM_007.jpg
2524.114	0.736	1	repeat	Run3	repeat/STIM_008.jpg
2527.361	0.957	1	repeat	Run3	repeat/STIM_008.jpg
2531.493	0.929	1	repeat	Run3	repeat/STIM_008.jpg
2534.655	0.941	1	repeat	Run3	repeat/STIM_008.jpg
2538.54	0.778	0	repeat	Run3	repeat/STIM_008.jpg
2541.954	0.541	1	repeat	Run3	repeat/STIM_009.jpg
2546.088	0.715	1	repeat	Run3	repeat/STIM_009.jpg
2549.145	0.541	1	repeat	Run3	repeat/STIM_009.jpg
2553.617	0.635	1	repeat	Run3	repeat/STIM_009.jpg
2558.054	1.02	1	repeat	Run3	repeat/STIM_009.jpg
2561.242	0.58	0	repeat	Run3	repeat/STIM_010.jpg
2564.875	0.942	1	repeat	Run3	repeat/STIM_010.jpg
2569.454	0.636	1	repeat	Run3	repeat/STIM_010.jpg
2573.994	0.977	1	repeat	Run3	repeat/STIM_010.jpg
2578.658	0.76	1	repeat	Run3	repeat/STIM_010.jpg
2583.343	0.885	1	repeat	Run3	repeat/STIM_011.jpg
2586.867	0.882	1	repeat	Run3	repeat/STIM_011.jpg
2590.363	0.57	1	repeat	Run3	repeat/STIM_011.jpg
2593.331	0.88	1	repeat	Run3	repeat/STIM_011.jpg
2597.127	0.905	1	repeat	Run3	repeat/STIM_011.jpg
2600.366	0.706	0	repeat	Run3	repeat/STIM_012.jpg
2603.957	0.628	1	repeat	Run3	repeat/STIM_012.jpg
2607.508	0.724	1	repeat	Run3	repeat/STIM_012.jpg
2610.873	0.756	0	repeat	Run3	repeat/STIM_012.jpg
2614.242	0.575	1	repeat	Run3	repeat/STIM_012.jpg
2618.115	1.047	1	repeat	Run3	repeat/STIM_013.jpg
2622.102	0.985	1	repeat	Run3	repeat/STIM_013.jpg
2625.159	0.627	1	repeat	Run3	repeat/STIM_013.jpg
2629.13	0.748	1	repeat	Run3	repeat/STIM_013.jpg
2633.122	0.641	1	repeat	Run3	repeat/STIM_013.jpg
2637.684	0.919	1	repeat	Run3	repeat/STIM_014.jpg
2641.429	0.557	1	repeat	Run3	repeat/STIM_014.jpg
2645.548	0.79	1	repeat	Run3	repeat/STIM_014.jpg
2648.374	0.653	1	repeat	Run3	repeat/STIM_014.jpg
2651.661	0.744	1	repeat	Run3	repeat/STIM_014.jpg
2654.855	0.91	1	generate	Run4	generate/STIM_000.jpg
2659.563	1.123	1	generate	Run4	generate/STIM_000.jpg
2664.64	1.498	1	generate	Run4	generate/STIM_000.jpg
2669.192	1.332	1	generate	Run4	generate/STIM_000.jpg
2674.216	2.196	1	generate	Run4	generate/STIM_000.jpg
2678.844	1.735	1	generate	Run4	generate/STIM_001.jpg
2682.713	1.218	1	generate	Run4	generate/STIM_001.jpg
2686.606	0.917	1	generate	Run4	generate/STIM_001.jpg
2690.247	1.349	1	generate	Run4	generate/STIM_001.jpg
2694.49	1.709	1	generate	Run4	generate/STIM_001.jpg
2698.671	1.835	1	generate	Run4	generate/STIM_002.jpg
2703.172	1.488	0	generate	Run4	generate/STIM_002.jpg
2707.935	1.801	0	generate	Run4	generate/STIM_002.jpg
2712.441	2.003	1	generate	Run4	generate/STIM_002.jpg
2717.53	0.973	1	generate	Run4	generate/STIM_002.jpg
2720.79	1.054	1	generate	Run4	generate/STIM_003.jpg
2724.512	1.348	1	generate	Run4	generate/STIM_003.jpg
2729.522	2.127	1	generate	Run4	generate/STIM_003.jpg
2734.105	1.954	1	generate	Run4	generate/STIM_003.jpg
2738.537	2.009	1	generate	Run4	generate/STIM_003.jpg
2743.216	1.543	1	generate	Run4	generate/STIM_004.jpg
2748.443	1.287	1	generate	Run4	generate/STIM_004.jpg
2753.546	1.12	1	generate	Run4	generate/STIM_004.jpg
2758.179	2.21	1	generate	Run4	generate/STIM_004.jpg
2763.068	1.848	1	generate	Run4	generate/STIM_004.jpg
2767.91	1.032	1	generate	Run4	generate/STIM_005.jpg
2771.509	1.377	1	generate	Run4	generate/STIM_005.jpg
2776.366	2.062	1	generate	Run4	generate/STIM_005.jpg
2781.739	2.053	1	generate	Run4	generate/STIM_005.jpg
2787.538	2.2	1	generate	Run4	generate/STIM_005.jpg
2792.918	1.671	1	generate	Run4	generate/STIM_006.jpg
2797.0	1.312	1	generate	Run4	generate/STIM_006.jpg
2800.817	1.876	1	generate	Run4	generate/STIM_006.jpg
2806.578	2.241	1	generate	Run4	generate/STIM_006.jpg
2811.347	1.305	1	generate	Run4	generate/STIM_006.jpg
2814.947	0.914	1	generate	Run4	generate/STIM_007.jpg
2818.5	1.494	1	generate	Run4	generate/STIM_007.jpg
2823.553	1.998	1	generate	Run4	generate/STIM_007.jpg
2827.968	1.408	1	generate	Run4	generate/STIM_007.jpg
2832.241	2.198	1	generate	Run4	generate/STIM_007.jpg
2836.692	0.918	1	generate	Run4	generate/STIM_008.jpg
2839.763	1.169	1	generate	Run4	generate/STIM_008.jpg
2844.395	1.29	1	generate	Run4	generate/STIM_008.jpg
2847.905	1.405	1	generate	Run4	generate/STIM_008.jpg
2853.241	1.938	1	generate	Run4	generate/STIM_008.jpg
2857.317	1.088	1	generate	Run4	generate/STIM_009.jpg
2861.647	2.142	0	generate	Run4	generate/STIM_009.jpg
2865.937	2.027	1	generate	Run4	generate/STIM_009.jpg
2871.254	1.717	1	generate	Run4	generate/STIM_009.jpg
2875.233	1.843	1	generate	Run4	generate/STIM_009.jpg
2879.134	1.203	1	generate	Run4	generate/STIM_010.jpg
2883.751	1.026	1	generate	Run4	generate/STIM_010.jpg
2888.606	1.824	1	generate	Run4	generate/STIM_010.jpg
2893.591	1.38	1	generate	Run4	generate/STIM_010.jpg
2898.139	1.11	1	generate	Run4	generate/STIM_010.jpg
2902.475	1.66	1	generate	Run4	generate/STIM_011.jpg
2906.827	1.438	1	generate	Run4	generate/STIM_011.jpg
2911.259	1.582	1	generate	Run4	generate/STIM_011.jpg
2915.789	2.058	1	generate	Run4	generate/STIM_011.jpg
2921.762	1.727	1	generate	Run4	generate/STIM_011.jpg
2926.223	1.586	1	generate	Run4	generate/STIM_012.jpg
2931.285	1.155	1	generate	Run4	generate/STIM_012.jpg
2935.942	1.194	1	generate	Run4	generate/STIM_012.jpg
2940.952	1.083	1	generate	Run4	generate/STIM_012.jpg
2944.646	1.866	1	generate	Run4	generate/STIM_012.jpg
2949.342	1.827	1	generate	Run4	generate/STIM_013.jpg
2955.059	2.18	1	generate	Run4	generate/STIM_013.jpg
2960.52	1.32	1	generate	Run4	generate/STIM_013.jpg
2963.948	2.039	1	generate	Run4	generate/STIM_013.jpg
2969.815	1.497	1	generate	Run4	generate/STIM_013.jpg
2975.017	1.708	1	generate	Run4	generate/STIM_014.jpg
2980.571	1.661	1	generate	Run4	generate/STIM_014.jpg
2984.917	1.267	1	generate	Run4	generate/STIM_014.jpg
2989.066	1.576	1	generate	Run4	generate/STIM_014.jpg
2992.948	0.982	1	generate	Run4	generate/STIM_014.jpg
2997.416	1.461	1	generate	Run4	generate/STIM_015.jpg
3001.759	2.044	1	generate	Run4	generate/STIM_015.jpg
3006.083	1.197	0	generate	Run4	generate/STIM_015.jpg
3010.317	1.743	1	generate	Run4	generate/STIM_015.jpg
3015.141	2.068	1	generate	Run4	generate/STIM_015.jpg
3019.631	1.38	1	generate	Run4	generate/STIM_016.jpg
3024.426	1.221	1	generate	Run4	generate/STIM_016.jpg
3028.887	1.164	1	generate	Run4	generate/STIM_016.jpg
3033.804	1.093	1	generate	Run4	generate/STIM_016.jpg
3038.227	1.706	1	generate	Run4	generate/STIM_016.jpg
3042.591	1.012	0	generate	Run4	generate/STIM_017.jpg
3045.69	2.107	1	generate	Run4	generate/STIM_017.jpg
3050.441	1.764	1	generate	Run4	generate/STIM_017.jpg
3055.678	1.02	1	generate	Run4	generate/STIM_017.jpg
3059.453	1.425	1	generate	Run4	generate/STIM_017.jpg
3064.842	1.979	1	generate	Run4	generate/STIM_018.jpg
3069.921	1.695	1	generate	Run4	generate/STIM_018.jpg
3075.173	1.759	1	generate	Run4	generate/STIM_018.jpg
3079.468	1.073	1	generate	Run4	generate/STIM_018.jpg
3084.039	1.146	1	generate	Run4	generate/STIM_018.jpg
3087.793	1.713	1	generate	Run4	generate/STIM_019.jpg
3093.329	1.386	1	generate	Run4	generate/STIM_019.jpg
3096.895	2.098	1	generate	Run4	generate/STIM_019.jpg
3102.535	1.088	1	generate	Run4	generate/STIM_019.jpg
3106.1	0.958	1	generate	Run4	generate/STIM_019.jpg
3110.691	1.928	1	generate	Run4	generate/STIM_020.jpg
3115.69	0.966	1	generate	Run4	generate/STIM_020.jpg
3120.462	1.458	1	generate	Run4	generate/STIM_020.jpg
3125.016	2.135	1	generate	Run4	generate/STIM_020.jpg
3130.05	1.17	1	generate	Run4	generate/STIM_020.jpg
3133.997	1.744	1	generate	Run4	generate/STIM_021.jpg
3137.768	1.335	0	generate	Run4	generate/STIM_021.jpg
3141.359	1.921	1	generate	Run4	generate/STIM_021.jpg
3145.938	2.103	1	generate	Run4	generate/STIM_021.jpg
3151.881	0.922	1	generate	Run4	generate/STIM_021.jpg
3155.955	1.879	1	generate	Run4	generate/STIM_022.jpg
3160.222	1.742	1	generate	Run4	generate/STIM_022.jpg
3165.499	2.108	1	generate	Run4	generate/STIM_022.jpg
3170.974	1.529	1	generate	Run4	generate/STIM_022.jpg
3176.303	2.186	1	generate	Run4	generate/STIM_022.jpg
3180.615	1.114	1	generate	Run4	generate/STIM_023.jpg
3184.487	1.272	1	generate	Run4	generate/STIM_023.jpg
3187.771	1.93	1	generate	Run4	generate/STIM_023.jpg
3192.382	1.137	1	generate	Run4	generate/STIM_023.jpg
3197.419	2.226	1	generate	Run4	generate/STIM_023.jpg
3201.707	0.967	1	generate	Run4	generate/STIM_024.jpg
3205.749	2.157	1	generate	Run4	generate/STIM_024.jpg
3211.705	1.418	1	generate	Run4	generate/STIM_024.jpg
3215.592	1.496	1	generate	Run4	generate/STIM_024.jpg
3220.723	1.795	1	generate	Run4	generate/STIM_024.jpg
3226.144	0.967	1	repeat	Run4	repeat/STIM_000.jpg
3230.091	1.061	1	repeat	Run4	repeat/STIM_000.jpg
3233.697	0.955	1	repeat	Run4	repeat/STIM_000.jpg
3237.131	0.948	1	repeat	Run4	repeat/STIM_000.jpg
3241.701	0.874	0	repeat	Run4	repeat/STIM_000.jpg
3246.03	0.95	1	repeat	Run4	repeat/STIM_001.jpg
3250.046	0.879	1	repeat	Run4	repeat/STIM_001.jpg
3253.164	0.609	1	repeat	Run4	repeat/STIM_001.jpg
3256.837	0.596	0	repeat	Run4	repeat/STIM_001.jpg
3261.299	1.069	0	repeat	Run4	repeat/STIM_001.jpg
3265.234	1.013	1	repeat	Run4	repeat/STIM_002.jpg
3268.702	0.968	1	repeat	Run4	repeat/STIM_002.jpg
3272.879	0.612	1	repeat	Run4	repeat/STIM_002.jpg
3277.434	0.698	1	repeat	Run4	repeat/STIM_002.jpg
3280.141	1.066	1	repeat	Run4	repeat/STIM_002.jpg
3284.406	1.06	0	repeat	Run4	repeat/STIM_003.jpg
3288.259	1.016	1	repeat	Run4	repeat/STIM_003.jpg
3292.238	0.705	1	repeat	Run4	repeat/STIM_003.jpg
3295.142	0.874	1	repeat	Run4	repeat/STIM_003.jpg
3298.733	0.812	1	repeat	Run4	repeat/STIM_003.jpg
3302.849	0.685	1	repeat	Run4	repeat/STIM_004.jpg
3306.176	0.75	1	repeat	Run4	repeat/STIM_004.jpg
3310.214	0.668	1	repeat	Run4	repeat/STIM_004.jpg
3314.313	0.959	1	repeat	Run4	repeat/STIM_004.jpg
3318.11	0.607	1	repeat	Run4	repeat/STIM_004.jpg
3322.422	0.561	1	repeat	Run4	repeat/STIM_005.jpg
3326.682	1.028	1	repeat	Run4	repeat/STIM_005.jpg
3331.538	0.802	1	repeat	Run4	repeat/STIM_005.jpg
3334.934	1.063	1	repeat	Run4	repeat/STIM_005.jpg
3339.258	0.977	1	repeat	Run4	repeat/STIM_005.jpg
3342.802	0.541	1	repeat	Run4	repeat/STIM_006.jpg
3346.771	1.066	1	repeat	Run4	repeat/STIM_006.jpg
3349.844	0.88	1	repeat	Run4	repeat/STIM_006.jpg
3353.221	0.7	1	repeat	Run4	repeat/STIM_006.jpg
3356.157	0.94	1	repeat	Run4	repeat/STIM_006.jpg
3359.305	0.669	1	repeat	Run4	repeat/STIM_007.jpg
3363.859	0.861	0	repeat	Run4	repeat/STIM_007.jpg
3367.59	0.978	1	repeat	Run4	repeat/STIM_007.jpg
3372.182	0.902	1	repeat	Run4	repeat/STIM_007.jpg
3376.788	0.876	1	repeat	Run4	repeat/STIM_007.jpg
3381.631	1.057	1	repeat	Run4	repeat/STIM_008.jpg
3386.444	0.658	1	repeat	Run4	repeat/STIM_008.jpg
3390.339	0.734	1	repeat	Run4	repeat/STIM_008.jpg
3393.895	0.913	1	repeat	Run4	repeat/STIM_008.jpg
3397.224	1.048	1	repeat	Run4	repeat/STIM_008.jpg
3400.453	0.564	1	repeat	Run4	repeat/STIM_009.jpg
3403.877	0.74	1	repeat	Run4	repeat/STIM_009.jpg
3408.45	0.984	1	repeat	Run4	repeat/STIM_009.jpg
3411.505	0.628	1	repeat	Run4	repeat/STIM_009.jpg
3414.274	0.616	1	repeat	Run4	repeat/STIM_009.jpg
3418.534	1.068	1	repeat	Run4	repeat/STIM_010.jpg
3422.404	0.611	1	repeat	Run4	repeat/STIM_010.jpg
3425.306	0.896	1	repeat	Run4	repeat/STIM_010.jpg
3429.304	0.627	1	repeat	Run4	repeat/STIM_010.jpg
3433.032	0.992	1	repeat	Run4	repeat/STIM_010.jpg
3437.444	0.667	1	repeat	Run4	repeat/STIM_011.jpg
3441.265	1.048	0	repeat	Run4	repeat/STIM_011.jpg
3445.974	0.866	1	repeat	Run4	repeat/STIM_011.jpg
3450.525	0.794	0	repeat	Run4	repeat/STIM_011.jpg
3454.357	0.885	1	repeat	Run4	repeat/STIM_011.jpg
3459.201	1.006	1	repeat	Run4	repeat/STIM_012.jpg
3464.158	0.756	1	repeat	Run4	repeat/STIM_012.jpg
3467.996	0.839	1	repeat	Run4	repeat/STIM_012.jpg
3471.317	0.831	1	repeat	Run4	repeat/STIM_012.jpg
3474.504	0.706	1	repeat	Run4	repeat/STIM_012.jpg
3478.175	0.756	1	repeat	Run4	repeat/STIM_013.jpg
3481.944	0.624	1	repeat	Run4	repeat/STIM_013.jpg
3485.659	0.737	1	repeat	Run4	repeat/STIM_013.jpg
3488.588	1.035	1	repeat	Run4	repeat/STIM_013.jpg
3492.717	0.982	1	repeat	Run4	repeat/STIM_013.jpg
3495.98	0.73	1	repeat	Run4	repeat/STIM_014.jpg
3500.295	0.895	1	repeat	Run4	repeat/STIM_014.jpg
3503.198	1.002	1	repeat	Run4	repeat/STIM_014.jpg
3507.756	0.671	1	repeat	Run4	repeat/STIM_014.jpg
3512.301	0.781	1	repeat	Run4	repeat/STIM_014.jpg
