onset	duration	response_time_ms	trial_type	learning_stage	stimulus	response_port
0.0	2.399	2399.1	generate	Run1	generate/STIM_000.jpg	99
4.977	1.44	1439.8	generate	Run1	generate/STIM_000.jpg	99
8.583	2.238	2238.3	generate	Run1	generate/STIM_000.jpg	99
13.589	2.352	2352.4	generate	Run1	generate/STIM_000.jpg	100
19.171	1.38	1380.4	generate	Run1	generate/STIM_000.jpg	99
23.955	2.949	2949.4	generate	Run1	generate/STIM_001.jpg	100
30.866	1.538	1538.1	generate	Run1	generate/STIM_001.jpg	100
34.981	2.079	2079.4	generate	Run1	generate/STIM_001.jpg	100
39.169	1.413	1413.4	generate	Run1	generate/STIM_001.jpg	100
44.411	1.233	1233.0	generate	Run1	generate/STIM_001.jpg	100
48.587	2.834	2833.7	generate	Run1	generate/STIM_002.jpg	99
54.918	2.709	2709.4	generate	Run1	generate/STIM_002.jpg	99
59.66	1.632	1632.5	generate	Run1	generate/STIM_002.jpg	99
64.345	1.177	1177.3	generate	Run1	generate/STIM_002.jpg	100
67.566	2.264	2263.8	generate	Run1	generate/STIM_002.jpg	99
72.806	1.391	1390.6	generate	Run1	generate/STIM_003.jpg	99
77.303	1.982	1981.5	generate	Run1	generate/STIM_003.jpg	100
82.965	2.748	2748.4	generate	Run1	generate/STIM_003.jpg	99
89.673	1.909	1908.6	generate	Run1	generate/STIM_003.jpg	99
95.078	1.475	1475.2	generate	Run1	generate/STIM_003.jpg	100
99.793	1.832	1832.0	generate	Run1	generate/STIM_004.jpg	100
105.409	2.76	2759.6	generate	Run1	generate/STIM_004.jpg	99
110.993	1.764	1764.4	generate	Run1	generate/STIM_004.jpg	99
116.584	2.608	2607.6	generate	Run1	generate/STIM_004.jpg	100
122.568	1.942	1941.6	generate	Run1	generate/STIM_004.jpg	99
127.742	2.296	2296.2	generate	Run1	generate/STIM_005.jpg	99
133.568	2.158	2158.4	generate	Run1	generate/STIM_005.jpg	99
138.129	1.28	1279.7	generate	Run1	generate/STIM_005.jpg	99
142.779	2.21	2210.0	generate	Run1	generate/STIM_005.jpg	99
147.939	1.709	1709.4	generate	Run1	generate/STIM_005.jpg	100
153.062	2.419	2419.0	generate	Run1	generate/STIM_006.jpg	99
157.752	1.42	1420.1	generate	Run1	generate/STIM_006.jpg	99
162.326	2.429	2429.4	generate	Run1	generate/STIM_006.jpg	99
167.372	2.169	2168.9	generate	Run1	generate/STIM_006.jpg	100
172.236	1.725	1725.3	generate	Run1	generate/STIM_006.jpg	100
176.032	1.434	1434.3	generate	Run1	generate/STIM_007.jpg	99
180.41	2.944	2944.5	generate	Run1	generate/STIM_007.jpg	100
186.122	2.858	2858.0	generate	Run1	generate/STIM_007.jpg	100
192.194	1.178	1178.1	generate	Run1	generate/STIM_007.jpg	99
196.99	1.915	1914.6	generate	Run1	generate/STIM_007.jpg	100
202.015	2.131	2130.8	generate	Run1	generate/STIM_008.jpg	100
206.897	1.785	1785.2	generate	Run1	generate/STIM_008.jpg	100
210.934	1.822	1822.5	generate	Run1	generate/STIM_008.jpg	99
215.607	2.137	2136.7	generate	Run1	generate/STIM_008.jpg	99
219.872	1.9	1899.9	generate	Run1	generate/STIM_008.jpg	100
224.623	3.091	3090.8	generate	Run1	generate/STIM_009.jpg	99
231.138	2.671	2671.0	generate	Run1	generate/STIM_009.jpg	99
236.987	1.998	1997.8	generate	Run1	generate/STIM_009.jpg	100
242.519	1.362	1362.1	generate	Run1	generate/STIM_009.jpg	100
247.551	2.554	2553.8	generate	Run1	generate/STIM_009.jpg	99
253.715	1.384	1383.6	generate	Run1	generate/STIM_010.jpg	100
257.742	1.268	1267.9	generate	Run1	generate/STIM_010.jpg	100
262.181	2.409	2409.2	generate	Run1	generate/STIM_010.jpg	100
267.045	2.028	2028.4	generate	Run1	generate/STIM_010.jpg	99
272.421	1.523	1522.9	generate	Run1	generate/STIM_010.jpg	100
276.268	1.358	1357.8	generate	Run1	generate/STIM_011.jpg	100
280.706	1.387	1386.9	generate	Run1	generate/STIM_011.jpg	100
285.146	1.615	1614.8	generate	Run1	generate/STIM_011.jpg	100
290.252	1.484	1484.4	generate	Run1	generate/STIM_011.jpg	100
295.613	1.626	1625.9	generate	Run1	generate/STIM_011.jpg	99
301.053	1.958	1958.4	generate	Run1	generate/STIM_012.jpg	100
306.811	2.26	2260.0	generate	Run1	generate/STIM_012.jpg	100
312.833	1.792	1792.0	generate	Run1	generate/STIM_012.jpg	99
317.968	2.685	2685.4	generate	Run1	generate/STIM_012.jpg	99
323.125	1.691	1690.8	generate	Run1	generate/STIM_012.jpg	99
328.331	3.121	3120.9	generate	Run1	generate/STIM_013.jpg	99
334.477	1.707	1706.8	generate	Run1	generate/STIM_013.jpg	100
338.296	1.291	1291.0	generate	Run1	generate/STIM_013.jpg	100
342.157	1.864	1864.2	generate	Run1	generate/STIM_013.jpg	100
346.849	1.371	1371.1	generate	Run1	generate/STIM_013.jpg	100
351.254	1.303	1302.6	generate	Run1	generate/STIM_014.jpg	100
355.513	1.472	1471.8	generate	Run1	generate/STIM_014.jpg	100
359.367	1.5	1499.7	generate	Run1	generate/STIM_014.jpg	99
363.599	2.649	2649.2	generate	Run1	generate/STIM_014.jpg	100
369.395	1.869	1868.6	generate	Run1	generate/STIM_014.jpg	100
373.972	2.792	2791.5	generate	Run1	generate/STIM_015.jpg	99
380.408	3.054	3054.0	generate	Run1	generate/STIM_015.jpg	99
386.216	1.88	1879.7	generate	Run1	generate/STIM_015.jpg	99
390.393	1.857	1857.3	generate	Run1	generate/STIM_015.jpg	99
395.261	1.608	1608.5	generate	Run1	generate/STIM_015.jpg	99
400.02	2.365	2365.2	generate	Run1	generate/STIM_016.jpg	99
404.84	2.998	2997.9	generate	Run1	generate/STIM_016.jpg	99
410.653	2.589	2589.0	generate	Run1	generate/STIM_016.jpg	99
417.161	2.045	2045.2	generate	Run1	generate/STIM_016.jpg	99
422.947	1.309	1308.7	generate	Run1	generate/STIM_016.jpg	100
428.031	2.829	2829.1	generate	Run1	generate/STIM_017.jpg	100
434.071	1.542	1541.9	generate	Run1	generate/STIM_017.jpg	100
439.134	2.28	2280.1	generate	Run1	generate/STIM_017.jpg	100
443.558	2.159	2158.8	generate	Run1	generate/STIM_017.jpg	99
448.634	1.808	1808.0	generate	Run1	generate/STIM_017.jpg	99
452.868	1.609	1608.7	generate	Run1	generate/STIM_018.jpg	99
457.11	2.298	2298.2	generate	Run1	generate/STIM_018.jpg	100
461.927	2.33	2330.2	generate	Run1	generate/STIM_018.jpg	100
467.385	2.385	2385.1	generate	Run1	generate/STIM_018.jpg	99
471.901	1.04	1040.0	generate	Run1	generate/STIM_018.jpg	99
475.06	2.513	2513.2	generate	Run1	generate/STIM_019.jpg	100
480.55	2.953	2953.1	generate	Run1	generate/STIM_019.jpg	100
486.226	2.89	2890.4	generate	Run1	generate/STIM_019.jpg	99
492.288	2.453	2452.7	generate	Run1	generate/STIM_019.jpg	100
498.657	1.038	1038.5	generate	Run1	generate/STIM_019.jpg	100
503.3	2.878	2878.2	generate	Run1	generate/STIM_020.jpg	99
508.457	2.957	2956.9	generate	Run1	generate/STIM_020.jpg	99
515.197	2.012	2011.6	generate	Run1	generate/STIM_020.jpg	99
519.527	1.826	1826.2	generate	Run1	generate/STIM_020.jpg	99
523.482	1.467	1466.7	generate	Run1	generate/STIM_020.jpg	99
527.943	1.443	1442.6	generate	Run1	generate/STIM_021.jpg	100
532.342	2.323	2323.4	generate	Run1	generate/STIM_021.jpg	100
538.278	2.749	2749.1	generate	Run1	generate/STIM_021.jpg	100
543.27	2.189	2188.8	generate	Run1	generate/STIM_021.jpg	99
549.322	1.474	1474.4	generate	Run1	generate/STIM_021.jpg	100
553.459	1.316	1315.7	generate	Run1	generate/STIM_022.jpg	100
556.982	2.638	2637.8	generate	Run1	generate/STIM_022.jpg	99
561.807	1.841	1841.1	generate	Run1	generate/STIM_022.jpg	99
567.552	2.18	2180.5	generate	Run1	generate/STIM_022.jpg	100
572.86	1.783	1783.3	generate	Run1	generate/STIM_022.jpg	100
576.679	3.014	3013.6	generate	Run1	generate/STIM_023.jpg	100
581.779	2.914	2914.1	generate	Run1	generate/STIM_023.jpg	99
588.093	1.531	1530.6	generate	Run1	generate/STIM_023.jpg	100
592.982	1.989	1989.0	generate	Run1	generate/STIM_023.jpg	99
597.773	1.204	1204.4	generate	Run1	generate/STIM_023.jpg	100
601.369	2.83	2830.3	generate	Run1	generate/STIM_024.jpg	100
607.237	3.057	3057.4	generate	Run1	generate/STIM_024.jpg	100
614.068	2.59	2590.2	generate	Run1	generate/STIM_024.jpg	100
620.384	1.812	1811.9	generate	Run1	generate/STIM_024.jpg	99
626.083	1.836	1835.9	generate	Run1	generate/STIM_024.jpg	100
631.492	0.584	583.5	repeat	Run1	repeat/STIM_000.jpg	99
634.649	0.54	539.5	repeat	Run1	repeat/STIM_000.jpg	99
638.257	0.589	589.1	repeat	Run1	repeat/STIM_000.jpg	99
641.839	0.734	734.0	repeat	Run1	repeat/STIM_000.jpg	99
646.137	0.913	912.8	repeat	Run1	repeat/STIM_000.jpg	99
650.574	0.792	791.9	repeat	Run1	repeat/STIM_001.jpg	100
654.268	0.774	773.8	repeat	Run1	repeat/STIM_001.jpg	100
658.334	0.572	572.4	repeat	Run1	repeat/STIM_001.jpg	100
662.286	0.745	744.6	repeat	Run1	repeat/STIM_001.jpg	100
665.042	0.748	748.5	repeat	Run1	repeat/STIM_001.jpg	100
669.182	0.59	590.5	repeat	Run1	repeat/STIM_002.jpg	100
673.419	0.806	805.6	repeat	Run1	repeat/STIM_002.jpg	100
676.783	0.764	763.8	repeat	Run1	repeat/STIM_002.jpg	100
680.875	1.004	1003.8	repeat	Run1	repeat/STIM_002.jpg	99
685.638	0.768	767.5	repeat	Run1	repeat/STIM_002.jpg	99
690.293	0.932	932.4	repeat	Run1	repeat/STIM_003.jpg	99
693.943	0.734	734.2	repeat	Run1	repeat/STIM_003.jpg	99
698.199	0.582	582.4	repeat	Run1	repeat/STIM_003.jpg	100
702.384	0.786	786.0	repeat	Run1	repeat/STIM_003.jpg	99
706.59	0.738	738.3	repeat	Run1	repeat/STIM_003.jpg	99
710.219	1.06	1059.8	repeat	Run1	repeat/STIM_004.jpg	100
714.112	1.013	1012.6	repeat	Run1	repeat/STIM_004.jpg	99
718.944	0.678	678.1	repeat	Run1	repeat/STIM_004.jpg	100
723.236	0.844	844.1	repeat	Run1	repeat/STIM_004.jpg	100
727.866	0.672	672.4	repeat	Run1	repeat/STIM_004.jpg	100
731.039	0.721	720.7	repeat	Run1	repeat/STIM_005.jpg	100
734.495	0.776	776.2	repeat	Run1	repeat/STIM_005.jpg	99
737.748	0.577	577.0	repeat	Run1	repeat/STIM_005.jpg	100
741.652	0.84	840.1	repeat	Run1	repeat/STIM_005.jpg	99
745.418	0.95	950.4	repeat	Run1	repeat/STIM_005.jpg	100
749.165	0.838	838.5	repeat	Run1	repeat/STIM_006.jpg	99
752.822	0.794	793.9	repeat	Run1	repeat/STIM_006.jpg	100
757.239	0.652	651.5	repeat	Run1	repeat/STIM_006.jpg	99
761.025	0.636	636.4	repeat	Run1	repeat/STIM_006.jpg	100
764.367	0.936	935.5	repeat	Run1	repeat/STIM_006.jpg	99
769.175	0.857	856.9	repeat	Run1	repeat/STIM_007.jpg	99
773.672	0.622	621.8	repeat	Run1	repeat/STIM_007.jpg	100
776.465	0.683	682.8	repeat	Run1	repeat/STIM_007.jpg	100
780.796	0.891	890.7	repeat	Run1	repeat/STIM_007.jpg	100
783.856	0.555	554.6	repeat	Run1	repeat/STIM_007.jpg	100
787.659	1.071	1070.6	repeat	Run1	repeat/STIM_008.jpg	100
791.454	0.606	605.8	repeat	Run1	repeat/STIM_008.jpg	99
794.185	0.589	589.3	repeat	Run1	repeat/STIM_008.jpg	100
798.647	0.608	608.0	repeat	Run1	repeat/STIM_008.jpg	99
801.839	0.868	868.4	repeat	Run1	repeat/STIM_008.jpg	99
805.766	0.888	887.7	repeat	Run1	repeat/STIM_009.jpg	99
809.735	0.774	774.0	repeat	Run1	repeat/STIM_009.jpg	99
813.529	0.647	647.4	repeat	Run1	repeat/STIM_009.jpg	100
816.389	0.854	854.3	repeat	Run1	repeat/STIM_009.jpg	100
820.18	0.823	823.1	repeat	Run1	repeat/STIM_009.jpg	100
823.96	0.552	552.5	repeat	Run1	repeat/STIM_010.jpg	100
827.155	0.831	830.6	repeat	Run1	repeat/STIM_010.jpg	100
831.759	0.835	835.4	repeat	Run1	repeat/STIM_010.jpg	99
836.259	0.903	903.3	repeat	Run1	repeat/STIM_010.jpg	100
840.895	0.723	723.4	repeat	Run1	repeat/STIM_010.jpg	99
844.496	0.937	936.8	repeat	Run1	repeat/STIM_011.jpg	100
848.721	0.746	745.5	repeat	Run1	repeat/STIM_011.jpg	100
852.235	0.937	937.1	repeat	Run1	repeat/STIM_011.jpg	99
856.799	0.79	789.5	repeat	Run1	repeat/STIM_011.jpg	100
861.143	1.014	1014.0	repeat	Run1	repeat/STIM_011.jpg	99
864.381	1.018	1017.6	repeat	Run1	repeat/STIM_012.jpg	99
869.363	0.814	813.7	repeat	Run1	repeat/STIM_012.jpg	100
873.212	0.7	700.2	repeat	Run1	repeat/STIM_012.jpg	100
876.938	0.8	799.7	repeat	Run1	repeat/STIM_012.jpg	99
880.69	0.728	727.9	repeat	Run1	repeat/STIM_012.jpg	100
883.817	0.803	803.1	repeat	Run1	repeat/STIM_013.jpg	100
886.666	1.073	1072.7	repeat	Run1	repeat/STIM_013.jpg	99
890.482	0.852	851.9	repeat	Run1	repeat/STIM_013.jpg	100
893.9	0.992	992.2	repeat	Run1	repeat/STIM_013.jpg	100
897.12	0.797	796.9	repeat	Run1	repeat/STIM_013.jpg	99
901.648	0.572	571.8	repeat	Run1	repeat/STIM_014.jpg	99
905.575	0.831	830.6	repeat	Run1	repeat/STIM_014.jpg	100
910.381	0.737	736.8	repeat	Run1	repeat/STIM_014.jpg	100
913.546	1.066	1066.4	repeat	Run1	repeat/STIM_014.jpg	100
918.301	1.069	1069.3	repeat	Run1	repeat/STIM_014.jpg	100
922.986	1.789	1788.7	generate	Run2	generate/STIM_000.jpg	99
927.01	2.165	2164.9	generate	Run2	generate/STIM_000.jpg	100
931.497	2.206	2206.0	generate	Run2	generate/STIM_000.jpg	99
937.09	2.194	2194.2	generate	Run2	generate/STIM_000.jpg	100
941.849	1.772	1771.5	generate	Run2	generate/STIM_000.jpg	100
947.412	1.562	1561.5	generate	Run2	generate/STIM_001.jpg	100
951.257	1.57	1569.5	generate	Run2	generate/STIM_001.jpg	99
955.442	1.187	1187.2	generate	Run2	generate/STIM_001.jpg	100
959.643	2.164	2163.7	generate	Run2	generate/STIM_001.jpg	99
964.009	2.005	2005.1	generate	Run2	generate/STIM_001.jpg	99
968.906	2.552	2551.7	generate	Run2	generate/STIM_002.jpg	99
975.086	1.713	1712.8	generate	Run2	generate/STIM_002.jpg	100
980.044	2.191	2191.3	generate	Run2	generate/STIM_002.jpg	99
984.812	1.928	1927.9	generate	Run2	generate/STIM_002.jpg	99
990.252	1.715	1714.8	generate	Run2	generate/STIM_002.jpg	99
995.862	2.674	2673.5	generate	Run2	generate/STIM_003.jpg	100
1001.627	1.208	1207.8	generate	Run2	generate/STIM_003.jpg	100
1005.572	2.413	2413.4	generate	Run2	generate/STIM_003.jpg	100
1011.668	0.911	910.6	generate	Run2	generate/STIM_003.jpg	99
1015.419	1.756	1755.8	generate	Run2	generate/STIM_003.jpg	100
1019.993	1.221	1221.0	generate	Run2	generate/STIM_004.jpg	100
1024.385	2.404	2403.6	generate	Run2	generate/STIM_004.jpg	99
1029.334	1.539	1538.6	generate	Run2	generate/STIM_004.jpg	100
1033.735	1.202	1202.3	generate	Run2	generate/STIM_004.jpg	99
1038.36	1.084	1083.5	generate	Run2	generate/STIM_004.jpg	99
1041.549	2.349	2349.4	generate	Run2	generate/STIM_005.jpg	100
1047.422	2.205	2205.1	generate	Run2	generate/STIM_005.jpg	99
1053.426	1.584	1584.1	generate	Run2	generate/STIM_005.jpg	100
1058.568	2.246	2246.5	generate	Run2	generate/STIM_005.jpg	100
1064.228	1.938	1938.5	generate	Run2	generate/STIM_005.jpg	99
1069.23	1.315	1314.7	generate	Run2	generate/STIM_006.jpg	99
1072.574	1.236	1236.3	generate	Run2	generate/STIM_006.jpg	99
1077.097	1.263	1262.7	generate	Run2	generate/STIM_006.jpg	99
1081.081	1.97	1970.5	generate	Run2	generate/STIM_006.jpg	100
1086.867	1.104	1104.4	generate	Run2	generate/STIM_006.jpg	99
1090.269	1.915	1915.0	generate	Run2	generate/STIM_007.jpg	99
1094.266	1.079	1079.1	generate	Run2	generate/STIM_007.jpg	99
1098.032	2.142	2142.1	generate	Run2	generate/STIM_007.jpg	100
1102.592	1.67	1670.2	generate	Run2	generate/STIM_007.jpg	100
1106.87	1.143	1142.8	generate	Run2	generate/STIM_007.jpg	100
1110.904	2.684	2684.1	generate	Run2	generate/STIM_008.jpg	100
1115.808	1.249	1249.3	generate	Run2	generate/STIM_008.jpg	100
1119.239	2.148	2148.0	generate	Run2	generate/STIM_008.jpg	99
1124.968	1.157	1157.3	generate	Run2	generate/STIM_008.jpg	99
1129.262	1.58	1579.6	generate	Run2	generate/STIM_008.jpg	100
1133.967	1.841	1840.9	generate	Run2	generate/STIM_009.jpg	99
1139.639	1.035	1035.4	generate	Run2	generate/STIM_009.jpg	99
1142.783	1.441	1440.7	generate	Run2	generate/STIM_009.jpg	99
1147.818	1.464	1464.1	generate	Run2	generate/STIM_009.jpg	99
1152.71	0.97	970.5	generate	Run2	generate/STIM_009.jpg	100
1156.658	1.727	1727.3	generate	Run2	generate/STIM_010.jpg	99
1161.678	1.666	1666.0	generate	Run2	generate/STIM_010.jpg	99
1166.787	1.864	1863.5	generate	Run2	generate/STIM_010.jpg	99
1171.483	1.636	1636.2	generate	Run2	generate/STIM_010.jpg	100
1175.37	1.033	1033.2	generate	Run2	generate/STIM_010.jpg	100
1179.616	1.605	1605.2	generate	Run2	generate/STIM_011.jpg	99
1184.213	1.284	1283.8	generate	Run2	generate/STIM_011.jpg	100
1188.037	2.136	2136.5	generate	Run2	generate/STIM_011.jpg	100
1192.566	1.456	1455.9	generate	Run2	generate/STIM_011.jpg	99
1196.88	1.149	1148.8	generate	Run2	generate/STIM_011.jpg	100
1201.434	2.371	2371.3	generate	Run2	generate/STIM_012.jpg	100
1207.323	2.568	2567.9	generate	Run2	generate/STIM_012.jpg	99
1212.237	1.115	1115.3	generate	Run2	generate/STIM_012.jpg	99
1215.865	1.951	1951.0	generate	Run2	generate/STIM_012.jpg	100
1219.818	1.054	1053.7	generate	Run2	generate/STIM_012.jpg	99
1224.289	1.634	1633.9	generate	Run2	generate/STIM_013.jpg	100
1229.383	1.209	1209.4	generate	Run2	generate/STIM_013.jpg	99
1233.767	0.999	998.9	generate	Run2	generate/STIM_013.jpg	99
1238.697	1.4	1399.7	generate	Run2	generate/STIM_013.jpg	100
1243.663	1.528	1528.1	generate	Run2	generate/STIM_013.jpg	99
1247.512	2.722	2722.1	generate	Run2	generate/STIM_014.jpg	100
1252.973	1.416	1415.6	generate	Run2	generate/STIM_014.jpg	100
1256.785	1.243	1243.3	generate	Run2	generate/STIM_014.jpg	99
1260.409	1.588	1588.4	generate	Run2	generate/STIM_014.jpg	99
1265.348	1.456	1455.8	generate	Run2	generate/STIM_014.jpg	100
1269.457	1.973	1972.9	generate	Run2	generate/STIM_015.jpg	100
1275.045	1.727	1727.3	generate	Run2	generate/STIM_015.jpg	100
1280.427	1.507	1507.4	generate	Run2	generate/STIM_015.jpg	99
1283.95	1.021	1021.1	generate	Run2	generate/STIM_015.jpg	99
1288.05	1.392	1392.2	generate	Run2	generate/STIM_015.jpg	99
1293.189	1.504	1503.9	generate	Run2	generate/STIM_016.jpg	100
1296.728	1.359	1358.9	generate	Run2	generate/STIM_016.jpg	99
1300.346	2.2	2199.5	generate	Run2	generate/STIM_016.jpg	100
1304.985	2.219	2218.6	generate	Run2	generate/STIM_016.jpg	100
1310.616	0.949	949.2	generate	Run2	generate/STIM_016.jpg	99
1315.004	1.122	1122.5	generate	Run2	generate/STIM_017.jpg	99
1318.284	1.69	1690.2	generate	Run2	generate/STIM_017.jpg	99
1323.888	1.968	1967.5	generate	Run2	generate/STIM_017.jpg	99
1328.592	1.768	1767.8	generate	Run2	generate/STIM_017.jpg	100
1332.55	1.631	1631.1	generate	Run2	generate/STIM_017.jpg	99
1337.409	1.707	1707.2	generate	Run2	generate/STIM_018.jpg	100
1342.629	1.222	1222.0	generate	Run2	generate/STIM_018.jpg	100
1346.998	1.371	1370.9	generate	Run2	generate/STIM_018.jpg	99
1351.949	1.843	1843.2	generate	Run2	generate/STIM_018.jpg	99
1356.237	2.047	2046.8	generate	Run2	generate/STIM_018.jpg	100
1362.176	2.395	2395.1	generate	Run2	generate/STIM_019.jpg	99
1368.36	2.441	2441.1	generate	Run2	generate/STIM_019.jpg	99
1372.922	1.009	1008.9	generate	Run2	generate/STIM_019.jpg	99
1376.598	1.87	1869.9	generate	Run2	generate/STIM_019.jpg	100
1380.546	0.945	945.0	generate	Run2	generate/STIM_019.jpg	99
1385.063	2.235	2235.1	generate	Run2	generate/STIM_020.jpg	99
1389.725	2.484	2484.1	generate	Run2	generate/STIM_020.jpg	99
1394.625	1.456	1455.5	generate	Run2	generate/STIM_020.jpg	99
1398.434	1.653	1652.7	generate	Run2	generate/STIM_020.jpg	99
1402.715	1.607	1606.8	generate	Run2	generate/STIM_020.jpg	100
1406.694	1.424	1424.0	generate	Run2	generate/STIM_021.jpg	100
1411.131	1.356	1355.6	generate	Run2	generate/STIM_021.jpg	100
1416.436	1.625	1625.1	generate	Run2	generate/STIM_021.jpg	99
1422.057	2.251	2250.6	generate	Run2	generate/STIM_021.jpg	100
1427.765	1.819	1819.0	generate	Run2	generate/STIM_021.jpg	100
1432.693	1.1	1099.9	generate	Run2	generate/STIM_022.jpg	99
1436.963	2.309	2308.6	generate	Run2	generate/STIM_022.jpg	99
1441.637	1.718	1717.8	generate	Run2	generate/STIM_022.jpg	100
1445.786	1.579	1578.6	generate	Run2	generate/STIM_022.jpg	100
1449.599	1.676	1676.0	generate	Run2	generate/STIM_022.jpg	99
1454.633	2.16	2159.7	generate	Run2	generate/STIM_023.jpg	99
1460.208	2.36	2359.8	generate	Run2	generate/STIM_023.jpg	99
1465.312	1.662	1661.5	generate	Run2	generate/STIM_023.jpg	99
1470.105	1.062	1062.1	generate	Run2	generate/STIM_023.jpg	99
1473.272	1.907	1907.4	generate	Run2	generate/STIM_023.jpg	100
1478.65	1.269	1268.6	generate	Run2	generate/STIM_024.jpg	99
1483.915	1.941	1941.4	generate	Run2	generate/STIM_024.jpg	100
1488.797	1.833	1832.6	generate	Run2	generate/STIM_024.jpg	100
1493.899	2.0	1999.9	generate	Run2	generate/STIM_024.jpg	100
1498.248	2.143	2142.7	generate	Run2	generate/STIM_024.jpg	99
1502.95	1.019	1018.9	repeat	Run2	repeat/STIM_000.jpg	100
1506.865	0.554	553.5	repeat	Run2	repeat/STIM_000.jpg	100
1510.463	0.867	867.3	repeat	Run2	repeat/STIM_000.jpg	100
1513.951	0.658	657.5	repeat	Run2	repeat/STIM_000.jpg	100
1517.104	0.652	652.3	repeat	Run2	repeat/STIM_000.jpg	99
1520.161	0.84	839.8	repeat	Run2	repeat/STIM_001.jpg	100
1523.529	0.941	941.4	repeat	Run2	repeat/STIM_001.jpg	100
1527.662	0.57	570.0	repeat	Run2	repeat/STIM_001.jpg	100
1531.545	0.997	997.0	repeat	Run2	repeat/STIM_001.jpg	100
1536.202	0.587	587.4	repeat	Run2	repeat/STIM_001.jpg	99
1540.57	0.802	801.7	repeat	Run2	repeat/STIM_002.jpg	99
1543.755	0.693	693.1	repeat	Run2	repeat/STIM_002.jpg	99
1547.97	1.018	1017.6	repeat	Run2	repeat/STIM_002.jpg	100
1551.308	0.709	708.8	repeat	Run2	repeat/STIM_002.jpg	99
1554.558	0.734	734.1	repeat	Run2	repeat/STIM_002.jpg	100
1558.308	0.762	762.3	repeat	Run2	repeat/STIM_003.jpg	99
1562.297	0.986	986.5	repeat	Run2	repeat/STIM_003.jpg	99
1566.452	0.564	564.4	repeat	Run2	repeat/STIM_003.jpg	100
1569.413	0.775	775.4	repeat	Run2	repeat/STIM_003.jpg	99
1573.326	0.623	623.1	repeat	Run2	repeat/STIM_003.jpg	99
1577.649	0.958	958.4	repeat	Run2	repeat/STIM_004.jpg	100
1580.987	0.61	610.1	repeat	Run2	repeat/STIM_004.jpg	100
1584.174	0.652	652.2	repeat	Run2	repeat/STIM_004.jpg	99
1587.718	0.662	661.7	repeat	Run2	repeat/STIM_004.jpg	99
1591.003	0.763	763.1	repeat	Run2	repeat/STIM_004.jpg	99
1595.417	0.769	769.2	repeat	Run2	repeat/STIM_005.jpg	99
1598.319	0.713	713.3	repeat	Run2	repeat/STIM_005.jpg	99
1602.412	0.698	697.8	repeat	Run2	repeat/STIM_005.jpg	99
1605.837	0.724	724.1	repeat	Run2	repeat/STIM_005.jpg	99
1609.106	0.662	661.5	repeat	Run2	repeat/STIM_005.jpg	99
1613.545	0.947	946.6	repeat	Run2	repeat/STIM_006.jpg	100
1616.675	0.687	687.0	repeat	Run2	repeat/STIM_006.jpg	99
1620.903	0.841	841.1	repeat	Run2	repeat/STIM_006.jpg	99
1624.772	0.711	711.0	repeat	Run2	repeat/STIM_006.jpg	99
1628.391	1.012	1012.0	repeat	Run2	repeat/STIM_006.jpg	100
1633.365	0.93	929.7	repeat	Run2	repeat/STIM_007.jpg	99
1637.161	0.983	982.7	repeat	Run2	repeat/STIM_007.jpg	100
1641.643	0.654	653.7	repeat	Run2	repeat/STIM_007.jpg	100
1645.425	0.925	924.8	repeat	Run2	repeat/STIM_007.jpg	100
1649.747	1.01	1010.4	repeat	Run2	repeat/STIM_007.jpg	100
1654.211	0.665	665.1	repeat	Run2	repeat/STIM_008.jpg	100
1657.766	0.628	627.6	repeat	Run2	repeat/STIM_008.jpg	99
1660.84	0.561	561.3	repeat	Run2	repeat/STIM_008.jpg	100
1665.273	0.907	906.6	repeat	Run2	repeat/STIM_008.jpg	100
1669.58	0.577	577.3	repeat	Run2	repeat/STIM_008.jpg	99
1673.15	0.568	567.8	repeat	Run2	repeat/STIM_009.jpg	100
1676.84	1.067	1066.8	repeat	Run2	repeat/STIM_009.jpg	99
1680.445	0.537	536.6	repeat	Run2	repeat/STIM_009.jpg	100
1683.693	0.737	736.6	repeat	Run2	repeat/STIM_009.jpg	99
1686.645	0.69	689.9	repeat	Run2	repeat/STIM_009.jpg	100
1689.564	0.603	602.7	repeat	Run2	repeat/STIM_010.jpg	100
1693.639	0.666	665.9	repeat	Run2	repeat/STIM_010.jpg	100
1697.663	1.067	1066.7	repeat	Run2	repeat/STIM_010.jpg	99
1701.323	0.781	781.2	repeat	Run2	repeat/STIM_010.jpg	100
1705.821	0.956	955.8	repeat	Run2	repeat/STIM_010.jpg	99
1710.357	0.691	690.7	repeat	Run2	repeat/STIM_011.jpg	99
1714.969	0.739	738.7	repeat	Run2	repeat/STIM_011.jpg	99
1718.266	0.769	768.8	repeat	Run2	repeat/STIM_011.jpg	99
1721.61	0.777	777.0	repeat	Run2	repeat/STIM_011.jpg	99
1724.93	0.948	947.9	repeat	Run2	repeat/STIM_011.jpg	99
1728.729	0.938	937.7	repeat	Run2	repeat/STIM_012.jpg	99
1732.606	0.98	979.7	repeat	Run2	repeat/STIM_012.jpg	99
1736.23	0.745	745.1	repeat	Run2	repeat/STIM_012.jpg	100
1740.403	0.809	808.7	repeat	Run2	repeat/STIM_012.jpg	99
1743.618	0.794	793.9	repeat	Run2	repeat/STIM_012.jpg	99
1747.788	0.992	992.5	repeat	Run2	repeat/STIM_013.jpg	100
1750.875	0.947	947.2	repeat	Run2	repeat/STIM_013.jpg	100
1754.266	0.72	720.1	repeat	Run2	repeat/STIM_013.jpg	99
1757.01	0.7	699.8	repeat	Run2	repeat/STIM_013.jpg	100
1761.443	1.0	1000.0	repeat	Run2	repeat/STIM_013.jpg	99
1765.742	0.77	770.2	repeat	Run2	repeat/STIM_014.jpg	99
1769.791	0.772	771.6	repeat	Run2	repeat/STIM_014.jpg	100
1773.799	0.917	916.9	repeat	Run2	repeat/STIM_014.jpg	99
1777.455	0.963	962.6	repeat	Run2	repeat/STIM_014.jpg	99
1782.382	0.976	976.5	repeat	Run2	repeat/STIM_014.jpg	99
1786.574	1.631	1630.8	generate	Run3	generate/STIM_000.jpg	100
1791.958	1.428	1428.5	generate	Run3	generate/STIM_000.jpg	100
1797.205	1.57	1570.3	generate	Run3	generate/STIM_000.jpg	100
1801.613	1.79	1790.3	generate	Run3	generate/STIM_000.jpg	100
1807.012	1.424	1423.6	generate	Run3	generate/STIM_000.jpg	100
1810.654	1.485	1485.4	generate	Run3	generate/STIM_001.jpg	100
1815.916	2.056	2056.1	generate	Run3	generate/STIM_001.jpg	100
1821.13	1.173	1173.2	generate	Run3	generate/STIM_001.jpg	100
1825.293	1.386	1386.1	generate	Run3	generate/STIM_001.jpg	100
1830.363	1.845	1845.3	generate	Run3	generate/STIM_001.jpg	100
1834.986	1.954	1953.7	generate	Run3	generate/STIM_002.jpg	99
1840.09	1.484	1484.1	generate	Run3	generate/STIM_002.jpg	99
1844.638	1.324	1324.5	generate	Run3	generate/STIM_002.jpg	100
1848.97	2.1	2100.1	generate	Run3	generate/STIM_002.jpg	99
1854.42	1.31	1309.8	generate	Run3	generate/STIM_002.jpg	100
1858.537	1.336	1335.6	generate	Run3	generate/STIM_003.jpg	100
1863.461	1.798	1798.4	generate	Run3	generate/STIM_003.jpg	99
1867.705	1.67	1669.5	generate	Run3	generate/STIM_003.jpg	100
1871.465	1.031	1031.3	generate	Run3	generate/STIM_003.jpg	99
1874.507	2.217	2217.1	generate	Run3	generate/STIM_003.jpg	100
1880.435	1.105	1105.2	generate	Run3	generate/STIM_004.jpg	99
1883.571	1.132	1131.8	generate	Run3	generate/STIM_004.jpg	99
1887.65	1.898	1898.4	generate	Run3	generate/STIM_004.jpg	99
1893.451	2.038	2038.1	generate	Run3	generate/STIM_004.jpg	99
1898.447	1.434	1433.8	generate	Run3	generate/STIM_004.jpg	99
1902.795	1.732	1731.6	generate	Run3	generate/STIM_005.jpg	99
1907.978	1.216	1215.9	generate	Run3	generate/STIM_005.jpg	99
1912.251	2.162	2161.8	generate	Run3	generate/STIM_005.jpg	100
1916.658	0.913	912.7	generate	Run3	generate/STIM_005.jpg	99
1921.271	1.394	1393.9	generate	Run3	generate/STIM_005.jpg	100
1926.651	1.336	1335.9	generate	Run3	generate/STIM_006.jpg	99
1930.401	1.97	1969.7	generate	Run3	generate/STIM_006.jpg	100
1935.777	1.493	1492.7	generate	Run3	generate/STIM_006.jpg	100
1939.384	1.78	1779.8	generate	Run3	generate/STIM_006.jpg	99
1944.943	0.916	916.2	generate	Run3	generate/STIM_006.jpg	100
1949.659	2.216	2216.3	generate	Run3	generate/STIM_007.jpg	100
1955.452	1.159	1158.9	generate	Run3	generate/STIM_007.jpg	99
1959.847	1.536	1536.0	generate	Run3	generate/STIM_007.jpg	100
1964.783	1.393	1392.8	generate	Run3	generate/STIM_007.jpg	100
1969.598	0.995	994.6	generate	Run3	generate/STIM_007.jpg	100
1972.785	1.92	1920.0	generate	Run3	generate/STIM_008.jpg	100
1977.513	2.115	2115.4	generate	Run3	generate/STIM_008.jpg	100
1982.596	1.628	1628.1	generate	Run3	generate/STIM_008.jpg	99
1987.553	1.478	1477.9	generate	Run3	generate/STIM_008.jpg	99
1991.938	1.243	1243.0	generate	Run3	generate/STIM_008.jpg	99
1996.542	2.124	2123.8	generate	Run3	generate/STIM_009.jpg	100
2000.924	0.999	999.3	generate	Run3	generate/STIM_009.jpg	100
2005.746	2.004	2004.1	generate	Run3	generate/STIM_009.jpg	100
2011.543	1.331	1331.0	generate	Run3	generate/STIM_009.jpg	100
2016.406	1.389	1389.2	generate	Run3	generate/STIM_009.jpg	100
2019.97	2.148	2148.2	generate	Run3	generate/STIM_010.jpg	99
2024.282	1.202	1201.8	generate	Run3	generate/STIM_010.jpg	100
2029.329	1.066	1065.9	generate	Run3	generate/STIM_010.jpg	100
2033.508	1.983	1982.8	generate	Run3	generate/STIM_010.jpg	100
2039.428	1.866	1865.6	generate	Run3	generate/STIM_010.jpg	100
2044.338	2.195	2194.7	generate	Run3	generate/STIM_011.jpg	100
2049.089	2.007	2006.9	generate	Run3	generate/STIM_011.jpg	100
2054.059	1.431	1430.7	generate	Run3	generate/STIM_011.jpg	100
2057.886	0.916	915.7	generate	Run3	generate/STIM_011.jpg	99
2061.579	1.357	1356.7	generate	Run3	generate/STIM_011.jpg	99
2066.242	1.946	1946.2	generate	Run3	generate/STIM_012.jpg	99
2071.436	1.847	1847.0	generate	Run3	generate/STIM_012.jpg	100
2076.816	1.533	1533.3	generate	Run3	generate/STIM_012.jpg	99
2080.86	0.91	910.4	generate	Run3	generate/STIM_012.jpg	99
2084.495	1.018	1017.7	generate	Run3	generate/STIM_012.jpg	100
2089.321	1.466	1466.3	generate	Run3	generate/STIM_013.jpg	100
2093.15	2.227	2226.8	generate	Run3	generate/STIM_013.jpg	99
2097.897	2.073	2073.4	generate	Run3	generate/STIM_013.jpg	99
2102.504	1.264	1264.1	generate	Run3	generate/STIM_013.jpg	99
2107.171	1.623	1622.6	generate	Run3	generate/STIM_013.jpg	100
2111.264	1.986	1986.3	generate	Run3	generate/STIM_014.jpg	100
2115.53	1.619	1618.7	generate	Run3	generate/STIM_014.jpg	100
2120.864	1.646	1645.6	generate	Run3	generate/STIM_014.jpg	100
2125.845	2.11	2110.0	generate	Run3	generate/STIM_014.jpg	99
2130.336	1.534	1533.8	generate	Run3	generate/STIM_014.jpg	99
2135.783	1.447	1447.3	generate	Run3	generate/STIM_015.jpg	100
2140.392	1.248	1247.9	generate	Run3	generate/STIM_015.jpg	100
2143.888	1.437	1436.7	generate	Run3	generate/STIM_015.jpg	100
2148.46	1.761	1760.9	generate	Run3	generate/STIM_015.jpg	100
2152.309	2.002	2001.8	generate	Run3	generate/STIM_015.jpg	100
2156.576	2.24	2239.6	generate	Run3	generate/STIM_016.jpg	100
2162.632	1.391	1391.2	generate	Run3	generate/STIM_016.jpg	100
2166.85	1.626	1626.2	generate	Run3	generate/STIM_016.jpg	99
2171.154	2.206	2205.5	generate	Run3	generate/STIM_016.jpg	99
2176.822	2.145	2144.8	generate	Run3	generate/STIM_016.jpg	99
2181.452	1.354	1354.0	generate	Run3	generate/STIM_017.jpg	99
2186.049	2.159	2159.1	generate	Run3	generate/STIM_017.jpg	100
2191.787	1.572	1571.6	generate	Run3	generate/STIM_017.jpg	100
2196.776	1.099	1099.4	generate	Run3	generate/STIM_017.jpg	100
2199.998	1.554	1554.0	generate	Run3	generate/STIM_017.jpg	99
2205.323	1.708	1708.4	generate	Run3	generate/STIM_018.jpg	100
2210.558	1.312	1312.0	generate	Run3	generate/STIM_018.jpg	99
2215.759	1.502	1502.3	generate	Run3	generate/STIM_018.jpg	99
2219.543	1.405	1405.4	generate	Run3	generate/STIM_018.jpg	100
2224.779	1.179	1178.9	generate	Run3	generate/STIM_018.jpg	99
2229.811	1.832	1831.6	generate	Run3	generate/STIM_019.jpg	100
2234.621	1.158	1158.5	generate	Run3	generate/STIM_019.jpg	99
2239.049	1.634	1634.5	generate	Run3	generate/STIM_019.jpg	99
2244.047	1.852	1852.5	generate	Run3	generate/STIM_019.jpg	99
2249.012	0.982	982.0	generate	Run3	generate/STIM_019.jpg	99
2252.689	1.545	1545.3	generate	Run3	generate/STIM_020.jpg	99
2258.113	1.515	1515.3	generate	Run3	generate/STIM_020.jpg	100
2263.33	1.848	1847.7	generate	Run3	generate/STIM_020.jpg	99
2268.414	1.255	1255.4	generate	Run3	generate/STIM_020.jpg	100
2271.786	2.121	2120.9	generate	Run3	generate/STIM_020.jpg	100
2276.124	2.117	2117.3	generate	Run3	generate/STIM_021.jpg	100
2280.898	1.467	1467.0	generate	Run3	generate/STIM_021.jpg	100
2284.377	1.196	1195.5	generate	Run3	generate/STIM_021.jpg	99
2287.918	1.405	1405.2	generate	Run3	generate/STIM_021.jpg	100
2292.524	2.25	2250.1	generate	Run3	generate/STIM_021.jpg	100
2297.376	1.536	1535.9	generate	Run3	generate/STIM_022.jpg	100
2302.269	1.477	1476.8	generate	Run3	generate/STIM_022.jpg	100
2307.291	1.955	1954.8	generate	Run3	generate/STIM_022.jpg	99
2313.039	1.778	1777.9	generate	Run3	generate/STIM_022.jpg	99
2317.678	1.553	1553.1	generate	Run3	generate/STIM_022.jpg	99
2321.902	2.172	2171.8	generate	Run3	generate/STIM_023.jpg	100
2326.298	2.153	2153.0	generate	Run3	generate/STIM_023.jpg	100
2331.447	0.912	911.6	generate	Run3	generate/STIM_023.jpg	100
2336.198	1.909	1909.3	generate	Run3	generate/STIM_023.jpg	100
2341.06	2.025	2025.2	generate	Run3	generate/STIM_023.jpg	100
2346.883	1.227	1226.9	generate	Run3	generate/STIM_024.jpg	99
2351.09	1.887	1886.7	generate	Run3	generate/STIM_024.jpg	99
2356.712	2.209	2208.9	generate	Run3	generate/STIM_024.jpg	100
2362.561	1.594	1593.5	generate	Run3	generate/STIM_024.jpg	99
2368.041	1.995	1994.9	generate	Run3	generate/STIM_024.jpg	99
2373.188	0.601	601.1	repeat	Run3	repeat/STIM_000.jpg	100
2376.764	0.57	570.1	repeat	Run3	repeat/STIM_000.jpg	100
2379.522	0.875	875.4	repeat	Run3	repeat/STIM_000.jpg	100
2382.914	0.567	567.1	repeat	Run3	repeat/STIM_000.jpg	100
2386.805	0.987	986.6	repeat	Run3	repeat/STIM_000.jpg	100
2390.881	0.639	639.0	repeat	Run3	repeat/STIM_001.jpg	100
2394.159	0.659	658.8	repeat	Run3	repeat/STIM_001.jpg	100
2397.647	0.969	968.8	repeat	Run3	repeat/STIM_001.jpg	99
2402.237	0.538	537.5	repeat	Run3	repeat/STIM_001.jpg	99
2405.516	0.555	555.3	repeat	Run3	repeat/STIM_001.jpg	100
2409.444	0.563	562.6	repeat	Run3	repeat/STIM_002.jpg	99
2413.25	0.612	611.5	repeat	Run3	repeat/STIM_002.jpg	99
2417.315	1.064	1063.9	repeat	Run3	repeat/STIM_002.jpg	99
2421.783	0.645	644.6	repeat	Run3	repeat/STIM_002.jpg	99
2426.333	0.991	991.2	repeat	Run3	repeat/STIM_002.jpg	100
2430.245	0.771	770.7	repeat	Run3	repeat/STIM_003.jpg	100
2433.395	0.78	780.3	repeat	Run3	repeat/STIM_003.jpg	99
2437.342	0.985	984.9	repeat	Run3	repeat/STIM_003.jpg	99
2441.647	1.054	1053.5	repeat	Run3	repeat/STIM_003.jpg	100
2445.199	0.537	537.1	repeat	Run3	repeat/STIM_003.jpg	100
2448.581	0.738	738.2	repeat	Run3	repeat/STIM_004.jpg	100
2451.651	1.028	1028.5	repeat	Run3	repeat/STIM_004.jpg	100
2456.675	0.958	957.5	repeat	Run3	repeat/STIM_004.jpg	99
2460.212	0.951	951.3	repeat	Run3	repeat/STIM_004.jpg	100
2464.713	0.693	692.8	repeat	Run3	repeat/STIM_004.jpg	100
2469.355	0.834	834.0	repeat	Run3	repeat/STIM_005.jpg	99
2473.557	0.648	647.5	repeat	Run3	repeat/STIM_005.jpg	100
2476.798	0.638	638.0	repeat	Run3	repeat/STIM_005.jpg	99
2480.76	0.571	570.8	repeat	Run3	repeat/STIM_005.jpg	99
2484.968	0.873	872.6	repeat	Run3	repeat/STIM_005.jpg	100
2489.135	0.574	574.2	repeat	Run3	repeat/STIM_006.jpg	99
2492.476	0.578	577.7	repeat	Run3	repeat/STIM_006.jpg	100
2496.325	0.782	782.4	repeat	Run3	repeat/STIM_006.jpg	99
2500.555	0.573	573.0	repeat	Run3	repeat/STIM_006.jpg	100
2504.174	0.691	691.3	repeat	Run3	repeat/STIM_006.jpg	99
2506.995	0.704	703.6	repeat	Run3	repeat/STIM_007.jpg	99
2511.179	0.62	620.5	repeat	Run3	repeat/STIM_007.jpg	99
2514.174	0.891	891.2	repeat	Run3	repeat/STIM_007.jpg	99
2517.761	0.611	610.8	repeat	Run3	repeat/STIM_007.jpg	100
2521.196	0.685	685.0	repeat	Run3	repeat/STIM_007.jpg	100
2524.114	0.736	735.8	repeat	Run3	repeat/STIM_008.jpg	100
2527.361	0.957	956.9	repeat	Run3	repeat/STIM_008.jpg	100
2531.493	0.929	929.3	repeat	Run3	repeat/STIM_008.jpg	100
2534.655	0.941	940.6	repeat	Run3	repeat/STIM_008.jpg	99
2538.54	0.778	777.9	repeat	Run3	repeat/STIM_008.jpg	100
2541.954	0.541	541.0	repeat	Run3	repeat/STIM_009.jpg	100
2546.088	0.715	715.4	repeat	Run3	repeat/STIM_009.jpg	99
2549.145	0.541	540.9	repeat	Run3	repeat/STIM_009.jpg	100
2553.617	0.635	635.3	repeat	Run3	repeat/STIM_009.jpg	100
2558.054	1.02	1020.2	repeat	Run3	repeat/STIM_009.jpg	99
2561.242	0.58	579.7	repeat	Run3	repeat/STIM_010.jpg	100
2564.875	0.942	942.0	repeat	Run3	repeat/STIM_010.jpg	99
2569.454	0.636	636.4	repeat	Run3	repeat/STIM_010.jpg	100
2573.994	0.977	977.1	repeat	Run3	repeat/STIM_010.jpg	100
2578.658	0.76	759.7	repeat	Run3	repeat/STIM_010.jpg	100
2583.343	0.885	884.7	repeat	Run3	repeat/STIM_011.jpg	99
2586.867	0.882	881.7	repeat	Run3	repeat/STIM_011.jpg	99
2590.363	0.57	569.7	repeat	Run3	repeat/STIM_011.jpg	100
2593.331	0.88	880.5	repeat	Run3	repeat/STIM_011.jpg	99
2597.127	0.905	905.4	repeat	Run3	repeat/STIM_011.jpg	100
2600.366	0.706	706.2	repeat	Run3	repeat/STIM_012.jpg	100
2603.957	0.628	628.5	repeat	Run3	repeat/STIM_012.jpg	99
2607.508	0.724	724.2	repeat	Run3	repeat/STIM_012.jpg	100
2610.873	0.756	756.5	repeat	Run3	repeat/STIM_012.jpg	100
2614.242	0.575	574.6	repeat	Run3	repeat/STIM_012.jpg	100
2618.115	1.047	1046.6	repeat	Run3	repeat/STIM_013.jpg	100
2622.102	0.985	984.7	repeat	Run3	repeat/STIM_013.jpg	99
2625.159	0.627	627.3	repeat	Run3	repeat/STIM_013.jpg	100
2629.13	0.748	748.3	repeat	Run3	repeat/STIM_013.jpg	99
2633.122	0.641	641.4	repeat	Run3	repeat/STIM_013.jpg	99
2637.684	0.919	918.7	repeat	Run3	repeat/STIM_014.jpg	100
2641.429	0.557	557.3	repeat	Run3	repeat/STIM_014.jpg	99
2645.548	0.79	789.8	repeat	Run3	repeat/STIM_014.jpg	100
2648.374	0.653	652.8	repeat	Run3	repeat/STIM_014.jpg	100
2651.661	0.744	743.5	repeat	Run3	repeat/STIM_014.jpg	100
2654.855	0.91	910.0	generate	Run4	generate/STIM_000.jpg	99
2659.563	1.123	1122.6	generate	Run4	generate/STIM_000.jpg	99
2664.64	1.498	1498.3	generate	Run4	generate/STIM_000.jpg	100
2669.192	1.332	1332.0	generate	Run4	generate/STIM_000.jpg	100
2674.216	2.196	2195.7	generate	Run4	generate/STIM_000.jpg	99
2678.844	1.735	1734.8	generate	Run4	generate/STIM_001.jpg	99
2682.713	1.218	1218.5	generate	Run4	generate/STIM_001.jpg	99
2686.606	0.917	917.4	generate	Run4	generate/STIM_001.jpg	100
2690.247	1.349	1348.8	generate	Run4	generate/STIM_001.jpg	100
2694.49	1.709	1709.4	generate	Run4	generate/STIM_001.jpg	99
2698.671	1.835	1835.3	generate	Run4	generate/STIM_002.jpg	100
2703.172	1.488	1487.5	generate	Run4	generate/STIM_002.jpg	100
2707.935	1.801	1800.9	generate	Run4	generate/STIM_002.jpg	99
2712.441	2.003	2002.8	generate	Run4	generate/STIM_002.jpg	100
2717.53	0.973	972.7	generate	Run4	generate/STIM_002.jpg	100
2720.79	1.054	1053.5	generate	Run4	generate/STIM_003.jpg	100
2724.512	1.348	1347.5	generate	Run4	generate/STIM_003.jpg	100
2729.522	2.127	2127.4	generate	Run4	generate/STIM_003.jpg	100
2734.105	1.954	1954.1	generate	Run4	generate/STIM_003.jpg	100
2738.537	2.009	2009.0	generate	Run4	generate/STIM_003.jpg	100
2743.216	1.543	1543.2	generate	Run4	generate/STIM_004.jpg	99
2748.443	1.287	1287.4	generate	Run4	generate/STIM_004.jpg	100
2753.546	1.12	1120.0	generate	Run4	generate/STIM_004.jpg	99
2758.179	2.21	2210.5	generate	Run4	generate/STIM_004.jpg	100
2763.068	1.848	1847.9	generate	Run4	generate/STIM_004.jpg	99
2767.91	1.032	1032.3	generate	Run4	generate/STIM_005.jpg	100
2771.509	1.377	1377.3	generate	Run4	generate/STIM_005.jpg	99
2776.366	2.062	2062.5	generate	Run4	generate/STIM_005.jpg	100
2781.739	2.053	2053.2	generate	Run4	generate/STIM_005.jpg	100
2787.538	2.2	2200.0	generate	Run4	generate/STIM_005.jpg	99
2792.918	1.671	1671.3	generate	Run4	generate/STIM_006.jpg	100
2797.0	1.312	1311.8	generate	Run4	generate/STIM_006.jpg	99
2800.817	1.876	1875.5	generate	Run4	generate/STIM_006.jpg	99
2806.578	2.241	2241.2	generate	Run4	generate/STIM_006.jpg	100
2811.347	1.305	1304.6	generate	Run4	generate/STIM_006.jpg	100
2814.947	0.914	914.1	generate	Run4	generate/STIM_007.jpg	100
2818.5	1.494	1494.1	generate	Run4	generate/STIM_007.jpg	99
2823.553	1.998	1997.9	generate	Run4	generate/STIM_007.jpg	99
2827.968	1.408	1408.5	generate	Run4	generate/STIM_007.jpg	100
2832.241	2.198	2198.1	generate	Run4	generate/STIM_007.jpg	99
2836.692	0.918	918.1	generate	Run4	generate/STIM_008.jpg	100
2839.763	1.169	1169.4	generate	Run4	generate/STIM_008.jpg	99
2844.395	1.29	1289.8	generate	Run4	generate/STIM_008.jpg	99
2847.905	1.405	1404.7	generate	Run4	generate/STIM_008.jpg	99
2853.241	1.938	1937.7	generate	Run4	generate/STIM_008.jpg	99
2857.317	1.088	1087.8	generate	Run4	generate/STIM_009.jpg	100
2861.647	2.142	2142.3	generate	Run4	generate/STIM_009.jpg	99
2865.937	2.027	2026.7	generate	Run4	generate/STIM_009.jpg	99
2871.254	1.717	1717.0	generate	Run4	generate/STIM_009.jpg	99
2875.233	1.843	1843.0	generate	Run4	generate/STIM_009.jpg	100
2879.134	1.203	1203.2	generate	Run4	generate/STIM_010.jpg	100
2883.751	1.026	1026.1	generate	Run4	generate/STIM_010.jpg	100
2888.606	1.824	1823.7	generate	Run4	generate/STIM_010.jpg	100
2893.591	1.38	1379.7	generate	Run4	generate/STIM_010.jpg	99
2898.139	1.11	1109.8	generate	Run4	generate/STIM_010.jpg	99
2902.475	1.66	1659.9	generate	Run4	generate/STIM_011.jpg	99
2906.827	1.438	1437.7	generate	Run4	generate/STIM_011.jpg	100
2911.259	1.582	1582.1	generate	Run4	generate/STIM_011.jpg	100
2915.789	2.058	2057.6	generate	Run4	generate/STIM_011.jpg	100
2921.762	1.727	1726.6	generate	Run4	generate/STIM_011.jpg	99
2926.223	1.586	1586.3	generate	Run4	generate/STIM_012.jpg	99
2931.285	1.155	1155.0	generate	Run4	generate/STIM_012.jpg	99
2935.942	1.194	1193.8	generate	Run4	generate/STIM_012.jpg	100
2940.952	1.083	1082.7	generate	Run4	generate/STIM_012.jpg	99
2944.646	1.866	1865.6	generate	Run4	generate/STIM_012.jpg	99
2949.342	1.827	1826.8	generate	Run4	generate/STIM_013.jpg	100
2955.059	2.18	2179.6	generate	Run4	generate/STIM_013.jpg	100
2960.52	1.32	1320.5	generate	Run4	generate/STIM_013.jpg	99
2963.948	2.039	2039.0	generate	Run4	generate/STIM_013.jpg	100
2969.815	1.497	1497.0	generate	Run4	generate/STIM_013.jpg	100
2975.017	1.708	1708.1	generate	Run4	generate/STIM_014.jpg	99
2980.571	1.661	1660.8	generate	Run4	generate/STIM_014.jpg	100
2984.917	1.267	1267.3	generate	Run4	generate/STIM_014.jpg	100
2989.066	1.576	1576.5	generate	Run4	generate/STIM_014.jpg	99
2992.948	0.982	982.0	generate	Run4	generate/STIM_014.jpg	100
2997.416	1.461	1461.4	generate	Run4	generate/STIM_015.jpg	100
3001.759	2.044	2043.6	generate	Run4	generate/STIM_015.jpg	99
3006.083	1.197	1196.7	generate	Run4	generate/STIM_015.jpg	100
3010.317	1.743	1742.6	generate	Run4	generate/STIM_015.jpg	99
3015.141	2.068	2068.0	generate	Run4	generate/STIM_015.jpg	100
3019.631	1.38	1379.8	generate	Run4	generate/STIM_016.jpg	100
3024.426	1.221	1221.4	generate	Run4	generate/STIM_016.jpg	99
3028.887	1.164	1164.2	generate	Run4	generate/STIM_016.jpg	99
3033.804	1.093	1092.6	generate	Run4	generate/STIM_016.jpg	100
3038.227	1.706	1706.4	generate	Run4	generate/STIM_016.jpg	100
3042.591	1.012	1012.3	generate	Run4	generate/STIM_017.jpg	100
3045.69	2.107	2106.8	generate	Run4	generate/STIM_017.jpg	99
3050.441	1.764	1763.8	generate	Run4	generate/STIM_017.jpg	99
3055.678	1.02	1019.8	generate	Run4	generate/STIM_017.jpg	99
3059.453	1.425	1424.8	generate	Run4	generate/STIM_017.jpg	99
3064.842	1.979	1979.1	generate	Run4	generate/STIM_018.jpg	100
3069.921	1.695	1695.2	generate	Run4	generate/STIM_018.jpg	99
3075.173	1.759	1758.8	generate	Run4	generate/STIM_018.jpg	99
3079.468	1.073	1072.9	generate	Run4	generate/STIM_018.jpg	100
3084.039	1.146	1146.1	generate	Run4	generate/STIM_018.jpg	99
3087.793	1.713	1712.7	generate	Run4	generate/STIM_019.jpg	100
3093.329	1.386	1386.1	generate	Run4	generate/STIM_019.jpg	99
3096.895	2.098	2098.3	generate	Run4	generate/STIM_019.jpg	99
3102.535	1.088	1088.4	generate	Run4	generate/STIM_019.jpg	99
3106.1	0.958	957.5	generate	Run4	generate/STIM_019.jpg	99
3110.691	1.928	1928.3	generate	Run4	generate/STIM_020.jpg	100
3115.69	0.966	965.5	generate	Run4	generate/STIM_020.jpg	100
3120.462	1.458	1458.1	generate	Run4	generate/STIM_020.jpg	100
3125.016	2.135	2135.0	generate	Run4	generate/STIM_020.jpg	99
3130.05	1.17	1170.1	generate	Run4	generate/STIM_020.jpg	100
3133.997	1.744	1743.7	generate	Run4	generate/STIM_021.jpg	100
3137.768	1.335	1334.9	generate	Run4	generate/STIM_021.jpg	99
3141.359	1.921	1920.8	generate	Run4	generate/STIM_021.jpg	100
3145.938	2.103	2103.4	generate	Run4	generate/STIM_021.jpg	100
3151.881	0.922	921.5	generate	Run4	generate/STIM_021.jpg	100
3155.955	1.879	1879.0	generate	Run4	generate/STIM_022.jpg	100
3160.222	1.742	1741.5	generate	Run4	generate/STIM_022.jpg	99
3165.499	2.108	2108.3	generate	Run4	generate/STIM_022.jpg	100
3170.974	1.529	1528.6	generate	Run4	generate/STIM_022.jpg	100
3176.303	2.186	2185.5	generate	Run4	generate/STIM_022.jpg	100
3180.615	1.114	1113.5	generate	Run4	generate/STIM_023.jpg	100
3184.487	1.272	1271.9	generate	Run4	generate/STIM_023.jpg	99
3187.771	1.93	1930.3	generate	Run4	generate/STIM_023.jpg	99
3192.382	1.137	1136.8	generate	Run4	generate/STIM_023.jpg	100
3197.419	2.226	2225.6	generate	Run4	generate/STIM_023.jpg	100
3201.707	0.967	966.6	generate	Run4	generate/STIM_024.jpg	100
3205.749	2.157	2157.3	generate	Run4	generate/STIM_024.jpg	100
3211.705	1.418	1418.4	generate	Run4	generate/STIM_024.jpg	99
3215.592	1.496	1496.0	generate	Run4	generate/STIM_024.jpg	100
3220.723	1.795	1794.8	generate	Run4	generate/STIM_024.jpg	99
3226.144	0.967	967.0	repeat	Run4	repeat/STIM_000.jpg	99
3230.091	1.061	1061.3	repeat	Run4	repeat/STIM_000.jpg	99
3233.697	0.955	955.1	repeat	Run4	repeat/STIM_000.jpg	99
3237.131	0.948	947.6	repeat	Run4	repeat/STIM_000.jpg	99
3241.701	0.874	873.9	repeat	Run4	repeat/STIM_000.jpg	100
3246.03	0.95	950.5	repeat	Run4	repeat/STIM_001.jpg	99
3250.046	0.879	879.4	repeat	Run4	repeat/STIM_001.jpg	99
3253.164	0.609	609.4	repeat	Run4	repeat/STIM_001.jpg	99
3256.837	0.596	596.0	repeat	Run4	repeat/STIM_001.jpg	100
3261.299	1.069	1069.3	repeat	Run4	repeat/STIM_001.jpg	99
3265.234	1.013	1012.9	repeat	Run4	repeat/STIM_002.jpg	100
3268.702	0.968	968.2	repeat	Run4	repeat/STIM_002.jpg	99
3272.879	0.612	611.6	repeat	Run4	repeat/STIM_002.jpg	100
3277.434	0.698	697.5	repeat	Run4	repeat/STIM_002.jpg	99
3280.141	1.066	1066.1	repeat	Run4	repeat/STIM_002.jpg	100
3284.406	1.06	1060.5	repeat	Run4	repeat/STIM_003.jpg	99
3288.259	1.016	1015.9	repeat	Run4	repeat/STIM_003.jpg	99
3292.238	0.705	705.0	repeat	Run4	repeat/STIM_003.jpg	100
3295.142	0.874	874.3	repeat	Run4	repeat/STIM_003.jpg	99
3298.733	0.812	811.8	repeat	Run4	repeat/STIM_003.jpg	99
3302.849	0.685	685.1	repeat	Run4	repeat/STIM_004.jpg	100
3306.176	0.75	750.5	repeat	Run4	repeat/STIM_004.jpg	100
3310.214	0.668	668.0	repeat	Run4	repeat/STIM_004.jpg	100
3314.313	0.959	958.9	repeat	Run4	repeat/STIM_004.jpg	100
3318.11	0.607	607.3	repeat	Run4	repeat/STIM_004.jpg	99
3322.422	0.561	561.1	repeat	Run4	repeat/STIM_005.jpg	99
3326.682	1.028	1027.8	repeat	Run4	repeat/STIM_005.jpg	100
3331.538	0.802	802.1	repeat	Run4	repeat/STIM_005.jpg	100
3334.934	1.063	1063.4	repeat	Run4	repeat/STIM_005.jpg	99
3339.258	0.977	977.3	repeat	Run4	repeat/STIM_005.jpg	99
3342.802	0.541	541.1	repeat	Run4	repeat/STIM_006.jpg	100
3346.771	1.066	1066.1	repeat	Run4	repeat/STIM_006.jpg	100
3349.844	0.88	880.4	repeat	Run4	repeat/STIM_006.jpg	99
3353.221	0.7	699.6	repeat	Run4	repeat/STIM_006.jpg	100
3356.157	0.94	940.4	repeat	Run4	repeat/STIM_006.jpg	99
3359.305	0.669	669.2	repeat	Run4	repeat/STIM_007.jpg	100
3363.859	0.861	860.9	repeat	Run4	repeat/STIM_007.jpg	99
3367.59	0.978	978.5	repeat	Run4	repeat/STIM_007.jpg	99
3372.182	0.902	902.1	repeat	Run4	repeat/STIM_007.jpg	100
3376.788	0.876	875.5	repeat	Run4	repeat/STIM_007.jpg	100
3381.631	1.057	1057.0	repeat	Run4	repeat/STIM_008.jpg	100
3386.444	0.658	658.0	repeat	Run4	repeat/STIM_008.jpg	100
3390.339	0.734	734.4	repeat	Run4	repeat/STIM_008.jpg	100
3393.895	0.913	912.6	repeat	Run4	repeat/STIM_008.jpg	100
3397.224	1.048	1048.0	repeat	Run4	repeat/STIM_008.jpg	99
3400.453	0.564	563.7	repeat	Run4	repeat/STIM_009.jpg	99
3403.877	0.74	739.8	repeat	Run4	repeat/STIM_009.jpg	100
3408.45	0.984	983.9	repeat	Run4	repeat/STIM_009.jpg	100
3411.505	0.628	628.3	repeat	Run4	repeat/STIM_009.jpg	100
3414.274	0.616	615.8	repeat	Run4	repeat/STIM_009.jpg	100
3418.534	1.068	1067.8	repeat	Run4	repeat/STIM_010.jpg	99
3422.404	0.611	611.0	repeat	Run4	repeat/STIM_010.jpg	100
3425.306	0.896	896.0	repeat	Run4	repeat/STIM_010.jpg	100
3429.304	0.627	626.8	repeat	Run4	repeat/STIM_010.jpg	99
3433.032	0.992	992.5	repeat	Run4	repeat/STIM_010.jpg	100
3437.444	0.667	667.0	repeat	Run4	repeat/STIM_011.jpg	100
3441.265	1.048	1048.3	repeat	Run4	repeat/STIM_011.jpg	99
3445.974	0.866	865.7	repeat	Run4	repeat/STIM_011.jpg	99
3450.525	0.794	793.8	repeat	Run4	repeat/STIM_011.jpg	99
3454.357	0.885	884.9	repeat	Run4	repeat/STIM_011.jpg	99
3459.201	1.006	1006.0	repeat	Run4	repeat/STIM_012.jpg	99
3464.158	0.756	756.4	repeat	Run4	repeat/STIM_012.jpg	99
3467.996	0.839	839.3	repeat	Run4	repeat/STIM_012.jpg	100
3471.317	0.831	831.4	repeat	Run4	repeat/STIM_012.jpg	99
3474.504	0.706	705.6	repeat	Run4	repeat/STIM_012.jpg	99
3478.175	0.756	756.3	repeat	Run4	repeat/STIM_013.jpg	99
3481.944	0.624	623.9	repeat	Run4	repeat/STIM_013.jpg	100
3485.659	0.737	736.7	repeat	Run4	repeat/STIM_013.jpg	99
3488.588	1.035	1035.3	repeat	Run4	repeat/STIM_013.jpg	100
3492.717	0.982	982.1	repeat	Run4	repeat/STIM_013.jpg	99
3495.98	0.73	729.6	repeat	Run4	repeat/STIM_014.jpg	99
3500.295	0.895	895.1	repeat	Run4	repeat/STIM_014.jpg	100
3503.198	1.002	1002.5	repeat	Run4	repeat/STIM_014.jpg	100
3507.756	0.671	670.9	repeat	Run4	repeat/STIM_014.jpg	99
3512.301	0.781	781.0	repeat	Run4	repeat/STIM_014.jpg	100
