onset	duration	accuracy_binary	trial_type	learning_stage	stimulus
0.0	1.995	1	generate	Run1	generate/STIM_000.jpg
5.473	1.861	0	generate	Run1	generate/STIM_000.jpg
10.116	2.154	1	generate	Run1	generate/STIM_000.jpg
16.154	1.908	0	generate	Run1	generate/STIM_000.jpg
20.281	1.952	1	generate	Run1	generate/STIM_000.jpg
25.893	2.531	1	generate	Run1	generate/STIM_001.jpg
31.951	1.374	1	generate	Run1	generate/STIM_001.jpg
36.488	1.791	1	generate	Run1	generate/STIM_001.jpg
40.483	1.317	1	generate	Run1	generate/STIM_001.jpg
45.706	1.848	1	generate	Run1	generate/STIM_001.jpg
49.762	1.182	0	generate	Run1	generate/STIM_002.jpg
53.134	1.65	1	generate	Run1	generate/STIM_002.jpg
57.775	2.248	1	generate	Run1	generate/STIM_002.jpg
64.108	2.1	0	generate	Run1	generate/STIM_002.jpg
70.384	1.273	1	generate	Run1	generate/STIM_002.jpg
74.076	1.328	0	generate	Run1	generate/STIM_003.jpg
78.859	1.44	1	generate	Run1	generate/STIM_003.jpg
82.607	2.403	1	generate	Run1	generate/STIM_003.jpg
87.31	1.738	0	generate	Run1	generate/STIM_003.jpg
91.289	0.946	1	generate	Run1	generate/STIM_003.jpg
95.423	2.706	1	generate	Run1	generate/STIM_004.jpg
100.473	1.408	1	generate	Run1	generate/STIM_004.jpg
105.699	2.006	0	generate	Run1	generate/STIM_004.jpg
111.799	1.149	0	generate	Run1	generate/STIM_004.jpg
115.314	1.004	1	generate	Run1	generate/STIM_004.jpg
120.183	1.466	1	generate	Run1	generate/STIM_005.jpg
125.743	1.454	1	generate	Run1	generate/STIM_005.jpg
131.077	2.064	1	generate	Run1	generate/STIM_005.jpg
136.639	1.187	1	generate	Run1	generate/STIM_005.jpg
140.674	0.965	0	generate	Run1	generate/STIM_005.jpg
145.021	2.225	0	generate	Run1	generate/STIM_006.jpg
149.813	2.007	1	generate	Run1	generate/STIM_006.jpg
155.67	1.514	1	generate	Run1	generate/STIM_006.jpg
159.443	1.94	1	generate	Run1	generate/STIM_006.jpg
164.899	0.889	1	generate	Run1	generate/STIM_006.jpg
169.314	2.05	1	generate	Run1	generate/STIM_007.jpg
175.463	1.983	0	generate	Run1	generate/STIM_007.jpg
179.936	2.294	1	generate	Run1	generate/STIM_007.jpg
184.851	1.146	1	generate	Run1	generate/STIM_007.jpg
189.141	1.649	1	generate	Run1	generate/STIM_007.jpg
194.392	1.586	1	generate	Run1	generate/STIM_008.jpg
198.667	1.357	1	generate	Run1	generate/STIM_008.jpg
204.104	1.401	1	generate	Run1	generate/STIM_008.jpg
207.799	1.503	1	generate	Run1	generate/STIM_008.jpg
212.861	1.647	1	generate	Run1	generate/STIM_008.jpg
218.072	2.71	1	generate	Run1	generate/STIM_009.jpg
224.038	2.056	1	generate	Run1	generate/STIM_009.jpg
229.025	1.662	1	generate	Run1	generate/STIM_009.jpg
234.598	2.196	0	generate	Run1	generate/STIM_009.jpg
239.6	2.085	1	generate	Run1	generate/STIM_009.jpg
244.316	1.403	1	generate	Run1	generate/STIM_010.jpg
249.77	1.797	1	generate	Run1	generate/STIM_010.jpg
255.352	1.542	1	generate	Run1	generate/STIM_010.jpg
260.004	1.433	1	generate	Run1	generate/STIM_010.jpg
264.911	1.147	1	generate	Run1	generate/STIM_010.jpg
269.036	1.121	1	generate	Run1	generate/STIM_011.jpg
273.657	1.965	1	generate	Run1	generate/STIM_011.jpg
278.364	2.001	1	generate	Run1	generate/STIM_011.jpg
284.269	1.777	1	generate	Run1	generate/STIM_011.jpg
288.833	0.949	1	generate	Run1	generate/STIM_011.jpg
293.093	1.869	0	generate	Run1	generate/STIM_012.jpg
298.774	1.41	1	generate	Run1	generate/STIM_012.jpg
303.325	1.144	1	generate	Run1	generate/STIM_012.jpg
307.832	2.099	1	generate	Run1	generate/STIM_012.jpg
313.674	1.726	1	generate	Run1	generate/STIM_012.jpg
318.423	1.751	0	generate	Run1	generate/STIM_013.jpg
323.552	1.707	1	generate	Run1	generate/STIM_013.jpg
328.174	1.842	0	generate	Run1	generate/STIM_013.jpg
334.194	1.229	1	generate	Run1	generate/STIM_013.jpg
338.163	2.088	1	generate	Run1	generate/STIM_013.jpg
343.05	1.322	1	generate	Run1	generate/STIM_014.jpg
347.376	2.342	1	generate	Run1	generate/STIM_014.jpg
353.08	1.638	0	generate	Run1	generate/STIM_014.jpg
357.915	1.16	1	generate	Run1	generate/STIM_014.jpg
363.167	1.682	1	generate	Run1	generate/STIM_014.jpg
368.981	1.988	1	generate	Run1	generate/STIM_015.jpg
374.905	1.905	1	generate	Run1	generate/STIM_015.jpg
379.736	1.834	1	generate	Run1	generate/STIM_015.jpg
384.285	1.236	1	generate	Run1	generate/STIM_015.jpg
387.832	1.393	0	generate	Run1	generate/STIM_015.jpg
392.952	2.29	1	generate	Run1	generate/STIM_016.jpg
398.605	1.191	1	generate	Run1	generate/STIM_016.jpg
402.973	1.072	1	generate	Run1	generate/STIM_016.jpg
407.951	1.939	0	generate	Run1	generate/STIM_016.jpg
413.783	1.121	0	generate	Run1	generate/STIM_016.jpg
418.97	2.264	0	generate	Run1	generate/STIM_017.jpg
424.382	1.695	1	generate	Run1	generate/STIM_017.jpg
429.463	2.117	1	generate	Run1	generate/STIM_017.jpg
434.209	1.236	0	generate	Run1	generate/STIM_017.jpg
438.044	0.896	1	generate	Run1	generate/STIM_017.jpg
442.843	1.944	1	generate	Run1	generate/STIM_018.jpg
448.092	2.039	0	generate	Run1	generate/STIM_018.jpg
453.521	1.398	1	generate	Run1	generate/STIM_018.jpg
457.887	1.127	0	generate	Run1	generate/STIM_018.jpg
463.046	2.084	1	generate	Run1	generate/STIM_018.jpg
468.005	1.536	1	generate	Run1	generate/STIM_019.jpg
472.2	1.358	1	generate	Run1	generate/STIM_019.jpg
476.875	1.392	0	generate	Run1	generate/STIM_019.jpg
482.098	1.928	0	generate	Run1	generate/STIM_019.jpg
486.269	1.938	1	generate	Run1	generate/STIM_019.jpg
491.021	1.873	0	generate	Run1	generate/STIM_020.jpg
495.353	1.902	1	generate	Run1	generate/STIM_020.jpg
500.105	1.545	1	generate	Run1	generate/STIM_020.jpg
505.002	1.217	1	generate	Run1	generate/STIM_020.jpg
509.221	0.886	1	generate	Run1	generate/STIM_020.jpg
512.334	2.02	0	generate	Run1	generate/STIM_021.jpg
516.963	2.162	1	generate	Run1	generate/STIM_021.jpg
522.11	2.039	1	generate	Run1	generate/STIM_021.jpg
527.262	2.101	1	generate	Run1	generate/STIM_021.jpg
532.306	1.257	1	generate	Run1	generate/STIM_021.jpg
537.478	1.862	1	generate	Run1	generate/STIM_022.jpg
542.803	2.173	1	generate	Run1	generate/STIM_022.jpg
548.135	2.121	1	generate	Run1	generate/STIM_022.jpg
552.712	1.342	0	generate	Run1	generate/STIM_022.jpg
557.338	1.652	0	generate	Run1	generate/STIM_022.jpg
562.149	1.717	1	generate	Run1	generate/STIM_023.jpg
567.152	1.805	1	generate	Run1	generate/STIM_023.jpg
572.306	1.318	1	generate	Run1	generate/STIM_023.jpg
576.441	1.624	1	generate	Run1	generate/STIM_023.jpg
581.88	1.253	0	generate	Run1	generate/STIM_023.jpg
586.369	1.253	1	generate	Run1	generate/STIM_024.jpg
590.685	1.876	1	generate	Run1	generate/STIM_024.jpg
596.726	1.396	1	generate	Run1	generate/STIM_024.jpg
600.456	1.741	1	generate	Run1	generate/STIM_024.jpg
604.808	1.174	1	generate	Run1	generate/STIM_024.jpg
608.68	0.553	1	repeat	Run1	repeat/STIM_000.jpg
612.531	0.557	1	repeat	Run1	repeat/STIM_000.jpg
615.794	0.614	1	repeat	Run1	repeat/STIM_000.jpg
620.082	0.654	1	repeat	Run1	repeat/STIM_000.jpg
624.018	0.675	1	repeat	Run1	repeat/STIM_000.jpg
628.472	0.473	1	repeat	Run1	repeat/STIM_001.jpg
632.538	0.88	0	repeat	Run1	repeat/STIM_001.jpg
636.472	0.559	1	repeat	Run1	repeat/STIM_001.jpg
639.513	0.686	1	repeat	Run1	repeat/STIM_001.jpg
643.726	0.897	1	repeat	Run1	repeat/STIM_001.jpg
647.439	0.517	1	repeat	Run1	repeat/STIM_002.jpg
651.199	0.891	1	repeat	Run1	repeat/STIM_002.jpg
654.954	0.584	1	repeat	Run1	repeat/STIM_002.jpg
658.112	0.524	1	repeat	Run1	repeat/STIM_002.jpg
661.035	0.808	1	repeat	Run1	repeat/STIM_002.jpg
664.007	0.584	1	repeat	Run1	repeat/STIM_003.jpg
667.061	0.89	1	repeat	Run1	repeat/STIM_003.jpg
670.678	0.831	1	repeat	Run1	repeat/STIM_003.jpg
675.275	0.672	1	repeat	Run1	repeat/STIM_003.jpg
679.1	0.899	1	repeat	Run1	repeat/STIM_003.jpg
682.461	0.52	1	repeat	Run1	repeat/STIM_004.jpg
686.933	0.687	1	repeat	Run1	repeat/STIM_004.jpg
690.096	0.898	1	repeat	Run1	repeat/STIM_004.jpg
694.123	0.634	1	repeat	Run1	repeat/STIM_004.jpg
698.486	0.591	1	repeat	Run1	repeat/STIM_004.jpg
701.17	0.765	1	repeat	Run1	repeat/STIM_005.jpg
704.119	0.614	1	repeat	Run1	repeat/STIM_005.jpg
707.347	0.667	0	repeat	Run1	repeat/STIM_005.jpg
711.649	0.616	1	repeat	Run1	repeat/STIM_005.jpg
715.035	0.71	0	repeat	Run1	repeat/STIM_005.jpg
718.02	0.499	1	repeat	Run1	repeat/STIM_006.jpg
720.887	0.594	1	repeat	Run1	repeat/STIM_006.jpg
724.204	0.822	1	repeat	Run1	repeat/STIM_006.jpg
727.885	0.522	1	repeat	Run1	repeat/STIM_006.jpg
732.181	0.906	1	repeat	Run1	repeat/STIM_006.jpg
735.888	0.492	1	repeat	Run1	repeat/STIM_007.jpg
738.824	0.491	1	repeat	Run1	repeat/STIM_007.jpg
742.014	0.773	1	repeat	Run1	repeat/STIM_007.jpg
745.389	0.74	1	repeat	Run1	repeat/STIM_007.jpg
748.955	0.492	1	repeat	Run1	repeat/STIM_007.jpg
751.781	0.835	1	repeat	Run1	repeat/STIM_008.jpg
756.049	0.735	1	repeat	Run1	repeat/STIM_008.jpg
760.22	0.588	1	repeat	Run1	repeat/STIM_008.jpg
763.178	0.855	1	repeat	Run1	repeat/STIM_008.jpg
767.358	0.685	1	repeat	Run1	repeat/STIM_008.jpg
771.231	0.902	1	repeat	Run1	repeat/STIM_009.jpg
774.934	0.901	1	repeat	Run1	repeat/STIM_009.jpg
779.889	0.783	1	repeat	Run1	repeat/STIM_009.jpg
783.393	0.718	1	repeat	Run1	repeat/STIM_009.jpg
788.051	0.881	1	repeat	Run1	repeat/STIM_009.jpg
791.162	0.817	1	repeat	Run1	repeat/STIM_010.jpg
794.201	0.578	1	repeat	Run1	repeat/STIM_010.jpg
797.528	0.809	1	repeat	Run1	repeat/STIM_010.jpg
801.414	0.512	1	repeat	Run1	repeat/STIM_010.jpg
805.918	0.778	1	repeat	Run1	repeat/STIM_010.jpg
810.409	0.72	1	repeat	Run1	repeat/STIM_011.jpg
815.054	0.771	1	repeat	Run1	repeat/STIM_011.jpg
818.711	0.842	1	repeat	Run1	repeat/STIM_011.jpg
823.087	0.617	1	repeat	Run1	repeat/STIM_011.jpg
826.63	0.758	1	repeat	Run1	repeat/STIM_011.jpg
831.193	0.829	1	repeat	Run1	repeat/STIM_012.jpg
835.515	0.896	1	repeat	Run1	repeat/STIM_012.jpg
840.198	0.828	1	repeat	Run1	repeat/STIM_012.jpg
844.368	0.719	1	repeat	Run1	repeat/STIM_012.jpg
848.485	0.574	1	repeat	Run1	repeat/STIM_012.jpg
852.962	0.611	1	repeat	Run1	repeat/STIM_013.jpg
857.238	0.838	1	repeat	Run1	repeat/STIM_013.jpg
861.794	0.774	1	repeat	Run1	repeat/STIM_013.jpg
864.99	0.801	1	repeat	Run1	repeat/STIM_013.jpg
868.535	0.619	1	repeat	Run1	repeat/STIM_013.jpg
872.252	0.516	1	repeat	Run1	repeat/STIM_014.jpg
875.961	0.858	1	repeat	Run1	repeat/STIM_014.jpg
879.124	0.819	1	repeat	Run1	repeat/STIM_014.jpg
883.714	0.581	1	repeat	Run1	repeat/STIM_014.jpg
886.81	0.624	1	repeat	Run1	repeat/STIM_014.jpg
890.843	1.821	1	generate	Run2	generate/STIM_000.jpg
895.21	1.591	1	generate	Run2	generate/STIM_000.jpg
898.963	1.435	1	generate	Run2	generate/STIM_000.jpg
902.702	1.748	0	generate	Run2	generate/STIM_000.jpg
907.233	1.801	1	generate	Run2	generate/STIM_000.jpg
911.937	1.119	1	generate	Run2	generate/STIM_001.jpg
916.23	2.022	1	generate	Run2	generate/STIM_001.jpg
921.626	1.343	1	generate	Run2	generate/STIM_001.jpg
925.214	1.606	1	generate	Run2	generate/STIM_001.jpg
929.96	1.292	1	generate	Run2	generate/STIM_001.jpg
934.838	1.345	1	generate	Run2	generate/STIM_002.jpg
938.548	1.512	1	generate	Run2	generate/STIM_002.jpg
942.82	0.86	0	generate	Run2	generate/STIM_002.jpg
946.536	0.952	0	generate	Run2	generate/STIM_002.jpg
950.808	0.928	1	generate	Run2	generate/STIM_002.jpg
953.947	2.076	1	generate	Run2	generate/STIM_003.jpg
959.872	1.869	1	generate	Run2	generate/STIM_003.jpg
964.87	1.708	1	generate	Run2	generate/STIM_003.jpg
969.895	1.076	0	generate	Run2	generate/STIM_003.jpg
973.546	0.865	0	generate	Run2	generate/STIM_003.jpg
977.196	1.388	1	generate	Run2	generate/STIM_004.jpg
981.834	0.975	1	generate	Run2	generate/STIM_004.jpg
986.541	1.094	1	generate	Run2	generate/STIM_004.jpg
991.098	1.56	1	generate	Run2	generate/STIM_004.jpg
996.634	1.257	1	generate	Run2	generate/STIM_004.jpg
1000.951	2.061	1	generate	Run2	generate/STIM_005.jpg
1006.328	1.025	1	generate	Run2	generate/STIM_005.jpg
1010.517	1.399	1	generate	Run2	generate/STIM_005.jpg
1014.537	1.023	1	generate	Run2	generate/STIM_005.jpg
1019.334	1.013	0	generate	Run2	generate/STIM_005.jpg
1024.389	2.237	0	generate	Run2	generate/STIM_006.jpg
1029.448	1.577	1	generate	Run2	generate/STIM_006.jpg
1033.417	0.916	0	generate	Run2	generate/STIM_006.jpg
1036.867	1.735	1	generate	Run2	generate/STIM_006.jpg
1042.211	1.223	1	generate	Run2	generate/STIM_006.jpg
1046.349	2.071	1	generate	Run2	generate/STIM_007.jpg
1051.951	2.045	1	generate	Run2	generate/STIM_007.jpg
1056.961	1.234	1	generate	Run2	generate/STIM_007.jpg
1061.554	1.622	1	generate	Run2	generate/STIM_007.jpg
1065.537	1.711	1	generate	Run2	generate/STIM_007.jpg
1071.133	0.948	1	generate	Run2	generate/STIM_008.jpg
1074.505	2.153	1	generate	Run2	generate/STIM_008.jpg
1079.426	1.568	1	generate	Run2	generate/STIM_008.jpg
1084.291	1.109	1	generate	Run2	generate/STIM_008.jpg
1089.274	1.101	1	generate	Run2	generate/STIM_008.jpg
1094.136	1.484	0	generate	Run2	generate/STIM_009.jpg
1098.815	0.887	1	generate	Run2	generate/STIM_009.jpg
1102.769	1.344	1	generate	Run2	generate/STIM_009.jpg
1107.701	1.639	1	generate	Run2	generate/STIM_009.jpg
1112.868	1.216	1	generate	Run2	generate/STIM_009.jpg
1117.851	1.316	1	generate	Run2	generate/STIM_010.jpg
1123.018	1.744	0	generate	Run2	generate/STIM_010.jpg
1128.9	2.033	0	generate	Run2	generate/STIM_010.jpg
1134.94	1.05	1	generate	Run2	generate/STIM_010.jpg
1138.669	1.891	1	generate	Run2	generate/STIM_010.jpg
1142.899	1.723	1	generate	Run2	generate/STIM_011.jpg
1148.33	1.756	0	generate	Run2	generate/STIM_011.jpg
1153.246	1.914	1	generate	Run2	generate/STIM_011.jpg
1159.147	1.122	1	generate	Run2	generate/STIM_011.jpg
1163.08	1.875	1	generate	Run2	generate/STIM_011.jpg
1167.991	2.144	0	generate	Run2	generate/STIM_012.jpg
1174.017	1.537	1	generate	Run2	generate/STIM_012.jpg
1179.436	1.994	1	generate	Run2	generate/STIM_012.jpg
1185.244	0.852	1	generate	Run2	generate/STIM_012.jpg
1189.757	1.042	0	generate	Run2	generate/STIM_012.jpg
1192.991	2.305	1	generate	Run2	generate/STIM_013.jpg
1199.155	1.807	1	generate	Run2	generate/STIM_013.jpg
1205.104	1.357	1	generate	Run2	generate/STIM_013.jpg
1209.795	1.692	1	generate	Run2	generate/STIM_013.jpg
1214.066	1.885	1	generate	Run2	generate/STIM_013.jpg
1218.233	2.247	1	generate	Run2	generate/STIM_014.jpg
1224.244	1.148	1	generate	Run2	generate/STIM_014.jpg
1227.601	1.165	1	generate	Run2	generate/STIM_014.jpg
1230.903	1.638	1	generate	Run2	generate/STIM_014.jpg
1234.857	1.163	0	generate	Run2	generate/STIM_014.jpg
1239.718	1.192	1	generate	Run2	generate/STIM_015.jpg
1243.264	1.278	1	generate	Run2	generate/STIM_015.jpg
1246.818	1.514	1	generate	Run2	generate/STIM_015.jpg
1251.804	1.087	1	generate	Run2	generate/STIM_015.jpg
1255.309	1.067	1	generate	Run2	generate/STIM_015.jpg
1259.676	1.623	1	generate	Run2	generate/STIM_016.jpg
1264.031	1.271	1	generate	Run2	generate/STIM_016.jpg
1267.757	1.792	1	generate	Run2	generate/STIM_016.jpg
1271.82	1.645	1	generate	Run2	generate/STIM_016.jpg
1277.168	1.714	0	generate	Run2	generate/STIM_016.jpg
1281.852	1.717	0	generate	Run2	generate/STIM_017.jpg
1287.331	1.359	1	generate	Run2	generate/STIM_017.jpg
1291.788	0.946	1	generate	Run2	generate/STIM_017.jpg
1295.642	1.842	1	generate	Run2	generate/STIM_017.jpg
1301.344	1.22	0	generate	Run2	generate/STIM_017.jpg
1305.197	1.618	1	generate	Run2	generate/STIM_018.jpg
1310.459	1.54	1	generate	Run2	generate/STIM_018.jpg
1315.817	0.987	1	generate	Run2	generate/STIM_018.jpg
1320.495	1.562	1	generate	Run2	generate/STIM_018.jpg
1325.236	1.218	1	generate	Run2	generate/STIM_018.jpg
1330.119	1.602	1	generate	Run2	generate/STIM_019.jpg
1335.601	1.575	0	generate	Run2	generate/STIM_019.jpg
1341.167	1.785	1	generate	Run2	generate/STIM_019.jpg
1345.375	1.293	1	generate	Run2	generate/STIM_019.jpg
1349.329	1.34	1	generate	Run2	generate/STIM_019.jpg
1352.96	1.313	1	generate	Run2	generate/STIM_020.jpg
1358.146	2.094	0	generate	Run2	generate/STIM_020.jpg
1363.975	1.462	1	generate	Run2	generate/STIM_020.jpg
1367.863	1.35	1	generate	Run2	generate/STIM_020.jpg
1373.057	1.385	1	generate	Run2	generate/STIM_020.jpg
1377.772	1.867	1	generate	Run2	generate/STIM_021.jpg
1382.589	2.145	1	generate	Run2	generate/STIM_021.jpg
1388.047	1.414	1	generate	Run2	generate/STIM_021.jpg
1392.166	1.014	1	generate	Run2	generate/STIM_021.jpg
1396.997	1.286	1	generate	Run2	generate/STIM_021.jpg
1400.616	1.085	1	generate	Run2	generate/STIM_022.jpg
1404.916	1.056	1	generate	Run2	generate/STIM_022.jpg
1409.907	1.683	1	generate	Run2	generate/STIM_022.jpg
1414.672	0.828	1	generate	Run2	generate/STIM_022.jpg
1419.316	1.619	1	generate	Run2	generate/STIM_022.jpg
1424.136	2.244	1	generate	Run2	generate/STIM_023.jpg
1428.621	2.012	0	generate	Run2	generate/STIM_023.jpg
1433.84	1.745	1	generate	Run2	generate/STIM_023.jpg
1437.995	1.21	1	generate	Run2	generate/STIM_023.jpg
1442.586	1.79	1	generate	Run2	generate/STIM_023.jpg
1447.596	1.965	1	generate	Run2	generate/STIM_024.jpg
1453.454	1.077	1	generate	Run2	generate/STIM_024.jpg
1458.241	1.468	1	generate	Run2	generate/STIM_024.jpg
1462.49	1.111	1	generate	Run2	generate/STIM_024.jpg
1466.93	1.751	1	generate	Run2	generate/STIM_024.jpg
1472.302	0.498	1	repeat	Run2	repeat/STIM_000.jpg
1476.105	0.7	1	repeat	Run2	repeat/STIM_000.jpg
1479.241	0.826	1	repeat	Run2	repeat/STIM_000.jpg
1483.694	0.469	1	repeat	Run2	repeat/STIM_000.jpg
1486.439	0.664	0	repeat	Run2	repeat/STIM_000.jpg
1490.515	0.644	0	repeat	Run2	repeat/STIM_001.jpg
1494.98	0.474	1	repeat	Run2	repeat/STIM_001.jpg
1498.142	0.619	1	repeat	Run2	repeat/STIM_001.jpg
1500.894	0.671	1	repeat	Run2	repeat/STIM_001.jpg
1505.48	0.61	1	repeat	Run2	repeat/STIM_001.jpg
1508.841	0.482	1	repeat	Run2	repeat/STIM_002.jpg
1512.538	0.585	0	repeat	Run2	repeat/STIM_002.jpg
1516.94	0.772	1	repeat	Run2	repeat/STIM_002.jpg
1520.112	0.687	1	repeat	Run2	repeat/STIM_002.jpg
1524.493	0.587	1	repeat	Run2	repeat/STIM_002.jpg
1527.143	0.457	0	repeat	Run2	repeat/STIM_003.jpg
1530.991	0.681	1	repeat	Run2	repeat/STIM_003.jpg
1535.611	0.56	1	repeat	Run2	repeat/STIM_003.jpg
1538.796	0.718	1	repeat	Run2	repeat/STIM_003.jpg
1543.572	0.62	1	repeat	Run2	repeat/STIM_003.jpg
1548.131	0.9	1	repeat	Run2	repeat/STIM_004.jpg
1552.082	0.564	1	repeat	Run2	repeat/STIM_004.jpg
1555.401	0.847	1	repeat	Run2	repeat/STIM_004.jpg
1558.38	0.696	0	repeat	Run2	repeat/STIM_004.jpg
1561.665	0.644	1	repeat	Run2	repeat/STIM_004.jpg
1565.405	0.53	0	repeat	Run2	repeat/STIM_005.jpg
1568.985	0.584	1	repeat	Run2	repeat/STIM_005.jpg
1573.192	0.694	1	repeat	Run2	repeat/STIM_005.jpg
1576.97	0.893	1	repeat	Run2	repeat/STIM_005.jpg
1581.721	0.66	1	repeat	Run2	repeat/STIM_005.jpg
1584.818	0.638	1	repeat	Run2	repeat/STIM_006.jpg
1588.335	0.566	1	repeat	Run2	repeat/STIM_006.jpg
1591.532	0.527	1	repeat	Run2	repeat/STIM_006.jpg
1594.321	0.572	1	repeat	Run2	repeat/STIM_006.jpg
1597.293	0.567	1	repeat	Run2	repeat/STIM_006.jpg
1600.688	0.78	1	repeat	Run2	repeat/STIM_007.jpg
1604.429	0.556	1	repeat	Run2	repeat/STIM_007.jpg
1607.785	0.785	1	repeat	Run2	repeat/STIM_007.jpg
1610.883	0.642	1	repeat	Run2	repeat/STIM_007.jpg
1614.34	0.738	1	repeat	Run2	repeat/STIM_007.jpg
1618.833	0.903	1	repeat	Run2	repeat/STIM_008.jpg
1623.118	0.756	1	repeat	Run2	repeat/STIM_008.jpg
1627.461	0.768	1	repeat	Run2	repeat/STIM_008.jpg
1630.405	0.587	1	repeat	Run2	repeat/STIM_008.jpg
1634.056	0.779	1	repeat	Run2	repeat/STIM_008.jpg
1638.629	0.675	1	repeat	Run2	repeat/STIM_009.jpg
1642.921	0.73	1	repeat	Run2	repeat/STIM_009.jpg
1646.966	0.876	1	repeat	Run2	repeat/STIM_009.jpg
1651.712	0.527	1	repeat	Run2	repeat/STIM_009.jpg
1655.054	0.586	1	repeat	Run2	repeat/STIM_009.jpg
1658.431	0.774	1	repeat	Run2	repeat/STIM_010.jpg
1661.579	0.89	1	repeat	Run2	repeat/STIM_010.jpg
1665.842	0.471	1	repeat	Run2	repeat/STIM_010.jpg
1670.207	0.548	1	repeat	Run2	repeat/STIM_010.jpg
1673.199	0.811	1	repeat	Run2	repeat/STIM_010.jpg
1677.917	0.617	1	repeat	Run2	repeat/STIM_011.jpg
1681.965	0.909	1	repeat	Run2	repeat/STIM_011.jpg
1686.549	0.552	1	repeat	Run2	repeat/STIM_011.jpg
1690.429	0.705	1	repeat	Run2	repeat/STIM_011.jpg
1694.446	0.877	1	repeat	Run2	repeat/STIM_011.jpg
1699.053	0.517	1	repeat	Run2	repeat/STIM_012.jpg
1702.23	0.57	0	repeat	Run2	repeat/STIM_012.jpg
1706.027	0.786	1	repeat	Run2	repeat/STIM_012.jpg
1710.324	0.455	1	repeat	Run2	repeat/STIM_012.jpg
1713.403	0.684	1	repeat	Run2	repeat/STIM_012.jpg
1718.089	0.492	1	repeat	Run2	repeat/STIM_013.jpg
1720.752	0.672	1	repeat	Run2	repeat/STIM_013.jpg
1724.222	0.614	1	repeat	Run2	repeat/STIM_013.jpg
1727.628	0.478	1	repeat	Run2	repeat/STIM_013.jpg
1731.086	0.809	1	repeat	Run2	repeat/STIM_013.jpg
1734.315	0.582	1	repeat	Run2	repeat/STIM_014.jpg
1738.747	0.845	1	repeat	Run2	repeat/STIM_014.jpg
1742.805	0.845	1	repeat	Run2	repeat/STIM_014.jpg
1746.548	0.814	1	repeat	Run2	repeat/STIM_014.jpg
1750.147	0.627	1	repeat	Run2	repeat/STIM_014.jpg
1753.571	0.882	1	generate	Run3	generate/STIM_000.jpg
1757.53	1.185	0	generate	Run3	generate/STIM_000.jpg
1761.001	1.668	0	generate	Run3	generate/STIM_000.jpg
1765.154	1.853	1	generate	Run3	generate/STIM_000.jpg
1770.887	1.386	0	generate	Run3	generate/STIM_000.jpg
1775.042	1.096	1	generate	Run3	generate/STIM_001.jpg
1778.652	1.846	1	generate	Run3	generate/STIM_001.jpg
1782.745	1.631	1	generate	Run3	generate/STIM_001.jpg
1787.928	1.178	1	generate	Run3	generate/STIM_001.jpg
1792.831	0.856	1	generate	Run3	generate/STIM_001.jpg
1797.685	0.823	1	generate	Run3	generate/STIM_002.jpg
1800.803	1.641	1	generate	Run3	generate/STIM_002.jpg
1806.372	1.521	1	generate	Run3	generate/STIM_002.jpg
1811.823	1.778	1	generate	Run3	generate/STIM_002.jpg
1816.442	1.402	1	generate	Run3	generate/STIM_002.jpg
1820.019	1.327	1	generate	Run3	generate/STIM_003.jpg
1824.702	0.931	1	generate	Run3	generate/STIM_003.jpg
1828.005	1.869	1	generate	Run3	generate/STIM_003.jpg
1833.965	1.539	1	generate	Run3	generate/STIM_003.jpg
1839.148	1.884	1	generate	Run3	generate/STIM_003.jpg
1844.721	1.207	1	generate	Run3	generate/STIM_004.jpg
1848.228	1.609	1	generate	Run3	generate/STIM_004.jpg
1852.228	1.132	1	generate	Run3	generate/STIM_004.jpg
1855.782	1.25	1	generate	Run3	generate/STIM_004.jpg
1859.335	1.752	1	generate	Run3	generate/STIM_004.jpg
1863.311	1.527	1	generate	Run3	generate/STIM_005.jpg
1868.356	1.599	1	generate	Run3	generate/STIM_005.jpg
1873.091	1.851	1	generate	Run3	generate/STIM_005.jpg
1877.231	1.331	1	generate	Run3	generate/STIM_005.jpg
1882.039	0.996	1	generate	Run3	generate/STIM_005.jpg
1885.347	1.221	1	generate	Run3	generate/STIM_006.jpg
1890.248	1.768	1	generate	Run3	generate/STIM_006.jpg
1895.73	1.763	1	generate	Run3	generate/STIM_006.jpg
1901.643	1.037	1	generate	Run3	generate/STIM_006.jpg
1906.203	1.642	1	generate	Run3	generate/STIM_006.jpg
1911.484	1.189	1	generate	Run3	generate/STIM_007.jpg
1915.44	1.549	1	generate	Run3	generate/STIM_007.jpg
1920.078	1.429	1	generate	Run3	generate/STIM_007.jpg
1925.108	1.002	1	generate	Run3	generate/STIM_007.jpg
1929.889	1.596	1	generate	Run3	generate/STIM_007.jpg
1934.31	1.876	0	generate	Run3	generate/STIM_008.jpg
1938.627	1.631	0	generate	Run3	generate/STIM_008.jpg
1943.647	1.789	1	generate	Run3	generate/STIM_008.jpg
1948.879	1.599	0	generate	Run3	generate/STIM_008.jpg
1952.691	0.796	1	generate	Run3	generate/STIM_008.jpg
1955.664	1.118	1	generate	Run3	generate/STIM_009.jpg
1959.76	1.515	1	generate	Run3	generate/STIM_009.jpg
1964.897	1.687	1	generate	Run3	generate/STIM_009.jpg
1970.016	1.152	1	generate	Run3	generate/STIM_009.jpg
1973.366	0.897	1	generate	Run3	generate/STIM_009.jpg
1976.815	1.46	1	generate	Run3	generate/STIM_010.jpg
1981.798	1.075	1	generate	Run3	generate/STIM_010.jpg
1986.939	1.178	1	generate	Run3	generate/STIM_010.jpg
1991.244	1.22	0	generate	Run3	generate/STIM_010.jpg
1995.951	1.728	1	generate	Run3	generate/STIM_010.jpg
2000.897	1.331	1	generate	Run3	generate/STIM_011.jpg
2006.196	1.417	1	generate	Run3	generate/STIM_011.jpg
2010.254	1.044	1	generate	Run3	generate/STIM_011.jpg
2014.8	1.013	1	generate	Run3	generate/STIM_011.jpg
2019.013	1.166	1	generate	Run3	generate/STIM_011.jpg
2022.313	1.36	1	generate	Run3	generate/STIM_012.jpg
2027.541	1.553	1	generate	Run3	generate/STIM_012.jpg
2033.152	0.886	1	generate	Run3	generate/STIM_012.jpg
2037.587	1.189	1	generate	Run3	generate/STIM_012.jpg
2042.817	1.435	1	generate	Run3	generate/STIM_012.jpg
2048.261	1.822	1	generate	Run3	generate/STIM_013.jpg
2054.221	1.898	1	generate	Run3	generate/STIM_013.jpg
2059.886	1.827	1	generate	Run3	generate/STIM_013.jpg
2065.117	1.693	1	generate	Run3	generate/STIM_013.jpg
2069.999	1.584	1	generate	Run3	generate/STIM_013.jpg
2075.584	1.124	1	generate	Run3	generate/STIM_014.jpg
2079.206	1.364	0	generate	Run3	generate/STIM_014.jpg
2082.731	1.018	1	generate	Run3	generate/STIM_014.jpg
2087.748	1.239	1	generate	Run3	generate/STIM_014.jpg
2091.353	1.291	1	generate	Run3	generate/STIM_014.jpg
2096.435	1.59	1	generate	Run3	generate/STIM_015.jpg
2101.9	1.424	1	generate	Run3	generate/STIM_015.jpg
2107.311	1.34	0	generate	Run3	generate/STIM_015.jpg
2112.617	1.337	1	generate	Run3	generate/STIM_015.jpg
2117.051	1.419	1	generate	Run3	generate/STIM_015.jpg
2121.435	0.97	1	generate	Run3	generate/STIM_016.jpg
2125.674	0.876	0	generate	Run3	generate/STIM_016.jpg
2129.249	1.067	1	generate	Run3	generate/STIM_016.jpg
2132.923	1.138	1	generate	Run3	generate/STIM_016.jpg
2137.335	1.083	1	generate	Run3	generate/STIM_016.jpg
2141.252	1.511	1	generate	Run3	generate/STIM_017.jpg
2146.763	0.874	1	generate	Run3	generate/STIM_017.jpg
2150.697	0.877	1	generate	Run3	generate/STIM_017.jpg
2154.948	1.767	1	generate	Run3	generate/STIM_017.jpg
2159.155	1.603	1	generate	Run3	generate/STIM_017.jpg
2163.708	0.951	1	generate	Run3	generate/STIM_018.jpg
2166.921	1.812	1	generate	Run3	generate/STIM_018.jpg
2171.262	1.231	1	generate	Run3	generate/STIM_018.jpg
2174.945	0.897	1	generate	Run3	generate/STIM_018.jpg
2179.82	0.911	1	generate	Run3	generate/STIM_018.jpg
2183.191	1.297	0	generate	Run3	generate/STIM_019.jpg
2187.672	1.235	1	generate	Run3	generate/STIM_019.jpg
2191.697	0.783	1	generate	Run3	generate/STIM_019.jpg
2195.447	1.593	0	generate	Run3	generate/STIM_019.jpg
2200.767	0.971	1	generate	Run3	generate/STIM_019.jpg
2204.578	1.534	1	generate	Run3	generate/STIM_020.jpg
2208.529	1.406	1	generate	Run3	generate/STIM_020.jpg
2213.477	1.773	0	generate	Run3	generate/STIM_020.jpg
2218.835	1.03	1	generate	Run3	generate/STIM_020.jpg
2223.932	1.685	1	generate	Run3	generate/STIM_020.jpg
2229.406	0.949	1	generate	Run3	generate/STIM_021.jpg
2233.341	0.85	0	generate	Run3	generate/STIM_021.jpg
2236.549	1.476	1	generate	Run3	generate/STIM_021.jpg
2241.078	1.526	1	generate	Run3	generate/STIM_021.jpg
2244.977	1.694	1	generate	Run3	generate/STIM_021.jpg
2250.303	0.783	1	generate	Run3	generate/STIM_022.jpg
2254.003	1.19	1	generate	Run3	generate/STIM_022.jpg
2258.035	1.441	1	generate	Run3	generate/STIM_022.jpg
2263.213	1.904	1	generate	Run3	generate/STIM_022.jpg
2267.327	1.372	1	generate	Run3	generate/STIM_022.jpg
2271.662	1.227	1	generate	Run3	generate/STIM_023.jpg
2276.545	1.247	1	generate	Run3	generate/STIM_023.jpg
2280.854	1.117	1	generate	Run3	generate/STIM_023.jpg
2284.695	0.837	1	generate	Run3	generate/STIM_023.jpg
2288.045	1.009	1	generate	Run3	generate/STIM_023.jpg
2291.38	0.828	0	generate	Run3	generate/STIM_024.jpg
2294.95	1.618	1	generate	Run3	generate/STIM_024.jpg
2300.583	1.395	1	generate	Run3	generate/STIM_024.jpg
2304.954	0.826	1	generate	Run3	generate/STIM_024.jpg
2309.075	1.189	1	generate	Run3	generate/STIM_024.jpg
2313.714	0.746	1	repeat	Run3	repeat/STIM_000.jpg
2318.373	0.689	1	repeat	Run3	repeat/STIM_000.jpg
2322.095	0.903	1	repeat	Run3	repeat/STIM_000.jpg
2326.048	0.776	1	repeat	Run3	repeat/STIM_000.jpg
2330.129	0.8	1	repeat	Run3	repeat/STIM_000.jpg
2334.16	0.708	0	repeat	Run3	repeat/STIM_001.jpg
2337.132	0.728	1	repeat	Run3	repeat/STIM_001.jpg
2340.728	0.733	1	repeat	Run3	repeat/STIM_001.jpg
2345.279	0.5	1	repeat	Run3	repeat/STIM_001.jpg
2349.317	0.469	1	repeat	Run3	repeat/STIM_001.jpg
2352.459	0.886	1	repeat	Run3	repeat/STIM_002.jpg
2355.697	0.817	1	repeat	Run3	repeat/STIM_002.jpg
2359.921	0.853	1	repeat	Run3	repeat/STIM_002.jpg
2363.563	0.688	1	repeat	Run3	repeat/STIM_002.jpg
2368.169	0.721	1	repeat	Run3	repeat/STIM_002.jpg
2372.716	0.573	1	repeat	Run3	repeat/STIM_003.jpg
2375.533	0.774	1	repeat	Run3	repeat/STIM_003.jpg
2379.795	0.538	1	repeat	Run3	repeat/STIM_003.jpg
2383.49	0.548	1	repeat	Run3	repeat/STIM_003.jpg
2386.204	0.692	1	repeat	Run3	repeat/STIM_003.jpg
2390.07	0.619	1	repeat	Run3	repeat/STIM_004.jpg
2393.459	0.525	1	repeat	Run3	repeat/STIM_004.jpg
2397.053	0.805	1	repeat	Run3	repeat/STIM_004.jpg
2400.077	0.714	1	repeat	Run3	repeat/STIM_004.jpg
2403.246	0.899	1	repeat	Run3	repeat/STIM_004.jpg
2406.481	0.528	1	repeat	Run3	repeat/STIM_005.jpg
2409.278	0.736	1	repeat	Run3	repeat/STIM_005.jpg
2413.75	0.614	1	repeat	Run3	repeat/STIM_005.jpg
2417.859	0.538	1	repeat	Run3	repeat/STIM_005.jpg
2420.517	0.642	1	repeat	Run3	repeat/STIM_005.jpg
2425.106	0.882	1	repeat	Run3	repeat/STIM_006.jpg
2429.749	0.479	1	repeat	Run3	repeat/STIM_006.jpg
2432.964	0.574	1	repeat	Run3	repeat/STIM_006.jpg
2437.184	0.66	1	repeat	Run3	repeat/STIM_006.jpg
2440.574	0.462	1	repeat	Run3	repeat/STIM_006.jpg
2444.336	0.555	1	repeat	Run3	repeat/STIM_007.jpg
2448.833	0.548	0	repeat	Run3	repeat/STIM_007.jpg
2452.657	0.898	0	repeat	Run3	repeat/STIM_007.jpg
2457.091	0.467	1	repeat	Run3	repeat/STIM_007.jpg
2460.68	0.782	1	repeat	Run3	repeat/STIM_007.jpg
2464.311	0.768	1	repeat	Run3	repeat/STIM_008.jpg
2467.447	0.53	1	repeat	Run3	repeat/STIM_008.jpg
2470.704	0.52	1	repeat	Run3	repeat/STIM_008.jpg
2473.876	0.654	1	repeat	Run3	repeat/STIM_008.jpg
2477.104	0.801	1	repeat	Run3	repeat/STIM_008.jpg
2480.552	0.653	1	repeat	Run3	repeat/STIM_009.jpg
2483.629	0.585	1	repeat	Run3	repeat/STIM_009.jpg
2486.828	0.705	1	repeat	Run3	repeat/STIM_009.jpg
2489.938	0.906	1	repeat	Run3	repeat/STIM_009.jpg
2494.622	0.852	1	repeat	Run3	repeat/STIM_009.jpg
2498.435	0.556	1	repeat	Run3	repeat/STIM_010.jpg
2502.627	0.712	1	repeat	Run3	repeat/STIM_010.jpg
2507.058	0.459	1	repeat	Run3	repeat/STIM_010.jpg
2510.378	0.46	1	repeat	Run3	repeat/STIM_010.jpg
2514.679	0.857	1	repeat	Run3	repeat/STIM_010.jpg
2518.474	0.64	1	repeat	Run3	repeat/STIM_011.jpg
2521.35	0.539	1	repeat	Run3	repeat/STIM_011.jpg
2524.019	0.634	1	repeat	Run3	repeat/STIM_011.jpg
2527.674	0.632	1	repeat	Run3	repeat/STIM_011.jpg
2530.871	0.902	1	repeat	Run3	repeat/STIM_011.jpg
2535.258	0.494	1	repeat	Run3	repeat/STIM_012.jpg
2538.809	0.763	1	repeat	Run3	repeat/STIM_012.jpg
2542.419	0.546	1	repeat	Run3	repeat/STIM_012.jpg
2545.686	0.558	1	repeat	Run3	repeat/STIM_012.jpg
2550.065	0.647	1	repeat	Run3	repeat/STIM_012.jpg
2554.101	0.639	1	repeat	Run3	repeat/STIM_013.jpg
2556.997	0.646	1	repeat	Run3	repeat/STIM_013.jpg
2561.45	0.554	1	repeat	Run3	repeat/STIM_013.jpg
2565.79	0.607	1	repeat	Run3	repeat/STIM_013.jpg
2570.226	0.61	1	repeat	Run3	repeat/STIM_013.jpg
2574.682	0.758	1	repeat	Run3	repeat/STIM_014.jpg
2578.541	0.532	1	repeat	Run3	repeat/STIM_014.jpg
2581.911	0.773	1	repeat	Run3	repeat/STIM_014.jpg
2584.843	0.811	1	repeat	Run3	repeat/STIM_014.jpg
2589.164	0.75	1	repeat	Run3	repeat/STIM_014.jpg
2593.597	1.285	1	generate	Run4	generate/STIM_000.jpg
2597.579	1.663	1	generate	Run4	generate/STIM_000.jpg
2601.724	1.118	1	generate	Run4	generate/STIM_000.jpg
2605.074	1.177	1	generate	Run4	generate/STIM_000.jpg
2609.724	1.198	1	generate	Run4	generate/STIM_000.jpg
2613.626	1.491	1	generate	Run4	generate/STIM_001.jpg
2619.096	0.913	1	generate	Run4	generate/STIM_001.jpg
2623.871	0.776	1	generate	Run4	generate/STIM_001.jpg
2627.554	1.86	1	generate	Run4	generate/STIM_001.jpg
2632.941	1.443	1	generate	Run4	generate/STIM_001.jpg
2637.41	1.031	1	generate	Run4	generate/STIM_002.jpg
2642.303	1.611	0	generate	Run4	generate/STIM_002.jpg
2646.386	0.966	1	generate	Run4	generate/STIM_002.jpg
2651.274	0.843	1	generate	Run4	generate/STIM_002.jpg
2656.175	1.376	1	generate	Run4	generate/STIM_002.jpg
2660.624	0.808	1	generate	Run4	generate/STIM_003.jpg
2665.29	1.555	1	generate	Run4	generate/STIM_003.jpg
2670.567	1.437	1	generate	Run4	generate/STIM_003.jpg
2675.829	0.822	1	generate	Run4	generate/STIM_003.jpg
2680.644	1.486	1	generate	Run4	generate/STIM_003.jpg
2685.788	1.284	1	generate	Run4	generate/STIM_004.jpg
2690.613	1.579	1	generate	Run4	generate/STIM_004.jpg
2694.876	1.308	1	generate	Run4	generate/STIM_004.jpg
2698.972	1.327	1	generate	Run4	generate/STIM_004.jpg
2704.301	1.63	1	generate	Run4	generate/STIM_004.jpg
2709.932	1.169	1	generate	Run4	generate/STIM_005.jpg
2714.428	1.614	1	generate	Run4	generate/STIM_005.jpg
2719.986	1.216	1	generate	Run4	generate/STIM_005.jpg
2725.004	0.939	1	generate	Run4	generate/STIM_005.jpg
2729.784	1.67	1	generate	Run4	generate/STIM_005.jpg
2735.039	1.78	1	generate	Run4	generate/STIM_006.jpg
2740.188	1.088	1	generate	Run4	generate/STIM_006.jpg
2745.09	0.765	1	generate	Run4	generate/STIM_006.jpg
2749.255	1.489	1	generate	Run4	generate/STIM_006.jpg
2754.205	1.794	1	generate	Run4	generate/STIM_006.jpg
2760.151	0.819	1	generate	Run4	generate/STIM_007.jpg
2764.804	1.201	1	generate	Run4	generate/STIM_007.jpg
2768.455	1.484	1	generate	Run4	generate/STIM_007.jpg
2772.231	1.608	1	generate	Run4	generate/STIM_007.jpg
2776.464	0.978	1	generate	Run4	generate/STIM_007.jpg
2781.237	0.996	1	generate	Run4	generate/STIM_008.jpg
2785.305	0.825	1	generate	Run4	generate/STIM_008.jpg
2788.759	1.497	1	generate	Run4	generate/STIM_008.jpg
2793.004	1.354	1	generate	Run4	generate/STIM_008.jpg
2798.491	1.05	1	generate	Run4	generate/STIM_008.jpg
2801.751	1.474	1	generate	Run4	generate/STIM_009.jpg
2807.031	1.032	1	generate	Run4	generate/STIM_009.jpg
2810.194	1.072	1	generate	Run4	generate/STIM_009.jpg
2814.54	0.779	1	generate	Run4	generate/STIM_009.jpg
2819.18	1.772	1	generate	Run4	generate/STIM_009.jpg
2823.655	1.378	1	generate	Run4	generate/STIM_010.jpg
2827.763	1.269	1	generate	Run4	generate/STIM_010.jpg
2832.204	1.277	1	generate	Run4	generate/STIM_010.jpg
2837.382	1.106	1	generate	Run4	generate/STIM_010.jpg
2841.973	0.902	1	generate	Run4	generate/STIM_010.jpg
2845.528	1.383	1	generate	Run4	generate/STIM_011.jpg
2850.246	0.935	1	generate	Run4	generate/STIM_011.jpg
2855.02	1.406	1	generate	Run4	generate/STIM_011.jpg
2859.703	1.318	1	generate	Run4	generate/STIM_011.jpg
2863.615	1.286	1	generate	Run4	generate/STIM_011.jpg
2868.957	1.267	1	generate	Run4	generate/STIM_012.jpg
2873.444	1.784	1	generate	Run4	generate/STIM_012.jpg
2878.089	1.688	1	generate	Run4	generate/STIM_012.jpg
2882.163	0.979	1	generate	Run4	generate/STIM_012.jpg
2886.657	1.434	1	generate	Run4	generate/STIM_012.jpg
2891.908	1.622	1	generate	Run4	generate/STIM_013.jpg
2896.931	1.223	1	generate	Run4	generate/STIM_013.jpg
2901.86	1.908	1	generate	Run4	generate/STIM_013.jpg
2907.833	0.849	1	generate	Run4	generate/STIM_013.jpg
2912.012	1.522	1	generate	Run4	generate/STIM_013.jpg
2917.623	0.77	1	generate	Run4	generate/STIM_014.jpg
2920.956	1.068	1	generate	Run4	generate/STIM_014.jpg
2925.105	1.523	1	generate	Run4	generate/STIM_014.jpg
2928.906	1.344	1	generate	Run4	generate/STIM_014.jpg
2932.977	1.39	1	generate	Run4	generate/STIM_014.jpg
2938.302	1.688	1	generate	Run4	generate/STIM_015.jpg
2943.899	1.139	1	generate	Run4	generate/STIM_015.jpg
2948.919	1.335	1	generate	Run4	generate/STIM_015.jpg
2952.781	1.721	1	generate	Run4	generate/STIM_015.jpg
2957.938	1.142	1	generate	Run4	generate/STIM_015.jpg
2962.254	1.562	1	generate	Run4	generate/STIM_016.jpg
2966.583	1.584	1	generate	Run4	generate/STIM_016.jpg
2970.404	0.897	1	generate	Run4	generate/STIM_016.jpg
2973.928	1.632	1	generate	Run4	generate/STIM_016.jpg
2979.684	1.032	1	generate	Run4	generate/STIM_016.jpg
2984.096	1.379	1	generate	Run4	generate/STIM_017.jpg
2987.69	1.524	1	generate	Run4	generate/STIM_017.jpg
2992.531	1.203	1	generate	Run4	generate/STIM_017.jpg
2996.704	1.033	0	generate	Run4	generate/STIM_017.jpg
3001.555	1.534	1	generate	Run4	generate/STIM_017.jpg
3005.317	1.215	1	generate	Run4	generate/STIM_018.jpg
3009.126	1.658	1	generate	Run4	generate/STIM_018.jpg
3014.331	0.921	1	generate	Run4	generate/STIM_018.jpg
3017.71	0.905	1	generate	Run4	generate/STIM_018.jpg
3020.877	1.876	1	generate	Run4	generate/STIM_018.jpg
3025.48	0.927	1	generate	Run4	generate/STIM_019.jpg
3030.225	1.07	1	generate	Run4	generate/STIM_019.jpg
3035.188	0.792	1	generate	Run4	generate/STIM_019.jpg
3039.275	1.1	1	generate	Run4	generate/STIM_019.jpg
3042.979	1.478	1	generate	Run4	generate/STIM_019.jpg
3047.852	1.889	1	generate	Run4	generate/STIM_020.jpg
3053.164	1.532	1	generate	Run4	generate/STIM_020.jpg
3058.769	1.381	1	generate	Run4	generate/STIM_020.jpg
3063.847	1.537	1	generate	Run4	generate/STIM_020.jpg
3067.583	1.889	1	generate	Run4	generate/STIM_020.jpg
3073.361	1.423	1	generate	Run4	generate/STIM_021.jpg
3077.356	1.514	1	generate	Run4	generate/STIM_021.jpg
3082.84	1.257	1	generate	Run4	generate/STIM_021.jpg
3086.94	0.786	1	generate	Run4	generate/STIM_021.jpg
3090.858	1.624	1	generate	Run4	generate/STIM_021.jpg
3095.395	0.99	1	generate	Run4	generate/STIM_022.jpg
3098.696	1.303	1	generate	Run4	generate/STIM_022.jpg
3102.382	1.572	1	generate	Run4	generate/STIM_022.jpg
3107.262	1.446	1	generate	Run4	generate/STIM_022.jpg
3111.118	1.248	1	generate	Run4	generate/STIM_022.jpg
3116.09	1.293	1	generate	Run4	generate/STIM_023.jpg
3119.585	0.978	1	generate	Run4	generate/STIM_023.jpg
3123.763	1.555	1	generate	Run4	generate/STIM_023.jpg
3129.261	0.826	1	generate	Run4	generate/STIM_023.jpg
3132.178	1.393	1	generate	Run4	generate/STIM_023.jpg
3137.447	0.944	1	generate	Run4	generate/STIM_024.jpg
3141.74	1.579	1	generate	Run4	generate/STIM_024.jpg
3146.171	1.607	1	generate	Run4	generate/STIM_024.jpg
3151.269	0.93	1	generate	Run4	generate/STIM_024.jpg
3156.048	1.569	1	generate	Run4	generate/STIM_024.jpg
3160.184	0.792	1	repeat	Run4	repeat/STIM_000.jpg
3164.125	0.564	1	repeat	Run4	repeat/STIM_000.jpg
3167.161	0.86	1	repeat	Run4	repeat/STIM_000.jpg
3170.596	0.873	1	repeat	Run4	repeat/STIM_000.jpg
3174.397	0.691	0	repeat	Run4	repeat/STIM_000.jpg
3178.567	0.545	1	repeat	Run4	repeat/STIM_001.jpg
3182.137	0.599	1	repeat	Run4	repeat/STIM_001.jpg
3185.227	0.489	1	repeat	Run4	repeat/STIM_001.jpg
3188.281	0.536	1	repeat	Run4	repeat/STIM_001.jpg
3192.324	0.556	0	repeat	Run4	repeat/STIM_001.jpg
3196.574	0.719	1	repeat	Run4	repeat/STIM_002.jpg
3200.363	0.487	1	repeat	Run4	repeat/STIM_002.jpg
3204.268	0.721	1	repeat	Run4	repeat/STIM_002.jpg
3208.709	0.461	1	repeat	Run4	repeat/STIM_002.jpg
3212.991	0.641	1	repeat	Run4	repeat/STIM_002.jpg
3216.519	0.505	1	repeat	Run4	repeat/STIM_003.jpg
3220.223	0.613	1	repeat	Run4	repeat/STIM_003.jpg
3223.677	0.637	1	repeat	Run4	repeat/STIM_003.jpg
3228.038	0.535	1	repeat	Run4	repeat/STIM_003.jpg
3232.588	0.843	1	repeat	Run4	repeat/STIM_003.jpg
3235.775	0.834	1	repeat	Run4	repeat/STIM_004.jpg
3240.206	0.546	1	repeat	Run4	repeat/STIM_004.jpg
3243.465	0.761	1	repeat	Run4	repeat/STIM_004.jpg
3247.537	0.792	1	repeat	Run4	repeat/STIM_004.jpg
3251.543	0.685	1	repeat	Run4	repeat/STIM_004.jpg
3254.683	0.622	1	repeat	Run4	repeat/STIM_005.jpg
3258.747	0.751	1	repeat	Run4	repeat/STIM_005.jpg
3261.776	0.673	1	repeat	Run4	repeat/STIM_005.jpg
3266.508	0.579	1	repeat	Run4	repeat/STIM_005.jpg
3269.263	0.908	1	repeat	Run4	repeat/STIM_005.jpg
3273.165	0.472	1	repeat	Run4	repeat/STIM_006.jpg
3276.359	0.558	1	repeat	Run4	repeat/STIM_006.jpg
3279.136	0.891	1	repeat	Run4	repeat/STIM_006.jpg
3283.456	0.655	1	repeat	Run4	repeat/STIM_006.jpg
3286.891	0.526	1	repeat	Run4	repeat/STIM_006.jpg
3291.164	0.477	1	repeat	Run4	repeat/STIM_007.jpg
3293.694	0.838	0	repeat	Run4	repeat/STIM_007.jpg
3297.588	0.614	1	repeat	Run4	repeat/STIM_007.jpg
3300.927	0.814	1	repeat	Run4	repeat/STIM_007.jpg
3304.193	0.552	1	repeat	Run4	repeat/STIM_007.jpg
3308.083	0.696	1	repeat	Run4	repeat/STIM_008.jpg
3311.013	0.618	1	repeat	Run4	repeat/STIM_008.jpg
3314.103	0.509	1	repeat	Run4	repeat/STIM_008.jpg
3317.057	0.602	1	repeat	Run4	repeat/STIM_008.jpg
3321.396	0.488	1	repeat	Run4	repeat/STIM_008.jpg
3325.181	0.664	1	repeat	Run4	repeat/STIM_009.jpg
3329.184	0.614	1	repeat	Run4	repeat/STIM_009.jpg
3332.597	0.591	1	repeat	Run4	repeat/STIM_009.jpg
3335.839	0.662	1	repeat	Run4	repeat/STIM_009.jpg
3339.653	0.76	1	repeat	Run4	repeat/STIM_009.jpg
3343.817	0.662	1	repeat	Run4	repeat/STIM_010.jpg
3346.691	0.703	1	repeat	Run4	repeat/STIM_010.jpg
3349.959	0.496	1	repeat	Run4	repeat/STIM_010.jpg
3354.121	0.697	1	repeat	Run4	repeat/STIM_010.jpg
3357.102	0.681	1	repeat	Run4	repeat/STIM_010.jpg
3361.709	0.773	1	repeat	Run4	repeat/STIM_011.jpg
3366.513	0.596	0	repeat	Run4	repeat/STIM_011.jpg
3369.774	0.722	1	repeat	Run4	repeat/STIM_011.jpg
3374.453	0.456	0	repeat	Run4	repeat/STIM_011.jpg
3377.281	0.602	1	repeat	Run4	repeat/STIM_011.jpg
3380.614	0.741	1	repeat	Run4	repeat/STIM_012.jpg
3385.027	0.733	1	repeat	Run4	repeat/STIM_012.jpg
3388.052	0.489	1	repeat	Run4	repeat/STIM_012.jpg
3390.821	0.562	1	repeat	Run4	repeat/STIM_012.jpg
3395.08	0.832	1	repeat	Run4	repeat/STIM_012.jpg
3398.36	0.489	1	repeat	Run4	repeat/STIM_013.jpg
3402.481	0.873	1	repeat	Run4	repeat/STIM_013.jpg
3405.554	0.878	1	repeat	Run4	repeat/STIM_013.jpg
3410.512	0.684	1	repeat	Run4	repeat/STIM_013.jpg
3415.025	0.731	1	repeat	Run4	repeat/STIM_013.jpg
3418.171	0.908	1	repeat	Run4	repeat/STIM_014.jpg
3422.019	0.793	1	repeat	Run4	repeat/STIM_014.jpg
3426.655	0.894	1	repeat	Run4	repeat/STIM_014.jpg
3431.618	0.85	1	repeat	Run4	repeat/STIM_014.jpg
3435.944	0.509	1	repeat	Run4	repeat/STIM_014.jpg
