onset	duration	accuracy	trial_type	learning_stage	stimulus
0.0	1.752	incorrect	regulate	Run1	regulate/STIM_000.jpg
5.182	1.54	incorrect	regulate	Run1	regulate/STIM_000.jpg
8.704	2.418	correct	regulate	Run1	regulate/STIM_000.jpg
14.547	1.956	correct	regulate	Run1	regulate/STIM_000.jpg
18.579	2.384	correct	regulate	Run1	regulate/STIM_001.jpg
23.631	1.804	incorrect	regulate	Run1	regulate/STIM_001.jpg
28.983	1.66	correct	regulate	Run1	regulate/STIM_001.jpg
33.299	2.686	correct	regulate	Run1	regulate/STIM_001.jpg
38.288	1.82	correct	regulate	Run1	regulate/STIM_002.jpg
43.109	1.908	correct	regulate	Run1	regulate/STIM_002.jpg
47.075	1.733	correct	regulate	Run1	regulate/STIM_002.jpg
52.182	1.951	correct	regulate	Run1	regulate/STIM_002.jpg
56.583	2.112	correct	regulate	Run1	regulate/STIM_003.jpg
61.115	3.038	correct	regulate	Run1	regulate/STIM_003.jpg
67.057	3.008	incorrect	regulate	Run1	regulate/STIM_003.jpg
73.238	2.402	correct	regulate	Run1	regulate/STIM_003.jpg
79.381	2.106	correct	regulate	Run1	regulate/STIM_004.jpg
84.542	3.548	correct	regulate	Run1	regulate/STIM_004.jpg
91.096	3.108	correct	regulate	Run1	regulate/STIM_004.jpg
96.863	1.926	correct	regulate	Run1	regulate/STIM_004.jpg
100.906	3.389	correct	regulate	Run1	regulate/STIM_005.jpg
106.862	3.46	correct	regulate	Run1	regulate/STIM_005.jpg
112.608	1.657	correct	regulate	Run1	regulate/STIM_005.jpg
117.177	1.681	correct	regulate	Run1	regulate/STIM_005.jpg
122.191	2.086	correct	regulate	Run1	regulate/STIM_006.jpg
126.392	2.248	correct	regulate	Run1	regulate/STIM_006.jpg
132.086	2.474	incorrect	regulate	Run1	regulate/STIM_006.jpg
137.322	1.837	correct	regulate	Run1	regulate/STIM_006.jpg
142.071	2.977	incorrect	regulate	Run1	regulate/STIM_007.jpg
147.497	2.899	correct	regulate	Run1	regulate/STIM_007.jpg
153.148	2.521	correct	regulate	Run1	regulate/STIM_007.jpg
159.194	2.07	correct	regulate	Run1	regulate/STIM_007.jpg
163.231	3.584	correct	regulate	Run1	regulate/STIM_008.jpg
169.71	2.901	correct	regulate	Run1	regulate/STIM_008.jpg
175.042	1.553	incorrect	regulate	Run1	regulate/STIM_008.jpg
179.108	2.762	correct	regulate	Run1	regulate/STIM_008.jpg
185.137	2.974	correct	regulate	Run1	regulate/STIM_009.jpg
191.502	1.596	correct	regulate	Run1	regulate/STIM_009.jpg
196.652	1.688	correct	regulate	Run1	regulate/STIM_009.jpg
202.025	1.913	correct	regulate	Run1	regulate/STIM_009.jpg
207.04	2.168	correct	regulate	Run1	regulate/STIM_010.jpg
212.637	3.326	incorrect	regulate	Run1	regulate/STIM_010.jpg
217.998	1.925	correct	regulate	Run1	regulate/STIM_010.jpg
222.183	2.095	correct	regulate	Run1	regulate/STIM_010.jpg
226.273	2.282	correct	regulate	Run1	regulate/STIM_011.jpg
231.802	2.789	correct	regulate	Run1	regulate/STIM_011.jpg
236.413	2.989	incorrect	regulate	Run1	regulate/STIM_011.jpg
242.723	2.298	incorrect	regulate	Run1	regulate/STIM_011.jpg
247.725	1.938	incorrect	regulate	Run1	regulate/STIM_012.jpg
253.201	3.467	incorrect	regulate	Run1	regulate/STIM_012.jpg
258.75	1.932	incorrect	regulate	Run1	regulate/STIM_012.jpg
262.888	2.842	incorrect	regulate	Run1	regulate/STIM_012.jpg
269.346	2.38	incorrect	regulate	Run1	regulate/STIM_013.jpg
275.354	2.84	correct	regulate	Run1	regulate/STIM_013.jpg
280.041	1.655	correct	regulate	Run1	regulate/STIM_013.jpg
284.045	2.587	incorrect	regulate	Run1	regulate/STIM_013.jpg
289.262	3.208	correct	regulate	Run1	regulate/STIM_014.jpg
294.467	3.133	correct	regulate	Run1	regulate/STIM_014.jpg
300.33	2.099	incorrect	regulate	Run1	regulate/STIM_014.jpg
306.151	1.924	correct	regulate	Run1	regulate/STIM_014.jpg
310.387	2.828	correct	regulate	Run1	regulate/STIM_015.jpg
316.373	2.786	incorrect	regulate	Run1	regulate/STIM_015.jpg
322.267	2.91	correct	regulate	Run1	regulate/STIM_015.jpg
327.369	1.761	correct	regulate	Run1	regulate/STIM_015.jpg
331.719	2.687	correct	regulate	Run1	regulate/STIM_016.jpg
336.554	3.528	incorrect	regulate	Run1	regulate/STIM_016.jpg
343.554	2.523	correct	regulate	Run1	regulate/STIM_016.jpg
349.034	1.782	correct	regulate	Run1	regulate/STIM_016.jpg
353.508	2.502	correct	regulate	Run1	regulate/STIM_017.jpg
358.502	2.933	incorrect	regulate	Run1	regulate/STIM_017.jpg
364.843	2.348	correct	regulate	Run1	regulate/STIM_017.jpg
371.009	1.824	correct	regulate	Run1	regulate/STIM_017.jpg
375.035	1.813	correct	regulate	Run1	regulate/STIM_018.jpg
379.857	2.194	correct	regulate	Run1	regulate/STIM_018.jpg
385.275	1.661	correct	regulate	Run1	regulate/STIM_018.jpg
389.394	1.768	correct	regulate	Run1	regulate/STIM_018.jpg
393.226	2.102	correct	regulate	Run1	regulate/STIM_019.jpg
397.524	3.424	correct	regulate	Run1	regulate/STIM_019.jpg
403.455	2.244	incorrect	regulate	Run1	regulate/STIM_019.jpg
408.3	1.611	correct	regulate	Run1	regulate/STIM_019.jpg
413.578	3.239	correct	regulate	Run1	regulate/STIM_020.jpg
419.601	3.157	correct	regulate	Run1	regulate/STIM_020.jpg
424.797	2.367	correct	regulate	Run1	regulate/STIM_020.jpg
430.094	2.236	correct	regulate	Run1	regulate/STIM_020.jpg
434.252	2.719	correct	regulate	Run1	regulate/STIM_021.jpg
439.763	2.181	correct	regulate	Run1	regulate/STIM_021.jpg
445.287	1.811	incorrect	regulate	Run1	regulate/STIM_021.jpg
449.989	2.382	correct	regulate	Run1	regulate/STIM_021.jpg
455.225	1.829	correct	regulate	Run1	regulate/STIM_022.jpg
459.324	3.048	correct	regulate	Run1	regulate/STIM_022.jpg
465.188	3.121	correct	regulate	Run1	regulate/STIM_022.jpg
471.747	1.921	correct	regulate	Run1	regulate/STIM_022.jpg
476.35	3.736	incorrect	regulate	Run1	regulate/STIM_023.jpg
482.023	3.271	correct	regulate	Run1	regulate/STIM_023.jpg
488.052	3.292	correct	regulate	Run1	regulate/STIM_023.jpg
494.339	2.917	correct	regulate	Run1	regulate/STIM_023.jpg
499.538	1.887	correct	regulate	Run1	regulate/STIM_024.jpg
504.977	2.205	correct	regulate	Run1	regulate/STIM_024.jpg
509.71	2.954	correct	regulate	Run1	regulate/STIM_024.jpg
515.035	2.36	correct	regulate	Run1	regulate/STIM_024.jpg
520.906	3.119	correct	regulate	Run1	regulate/STIM_025.jpg
527.778	2.265	correct	regulate	Run1	regulate/STIM_025.jpg
532.635	1.761	correct	regulate	Run1	regulate/STIM_025.jpg
536.532	1.936	correct	regulate	Run1	regulate/STIM_025.jpg
541.486	3.183	correct	regulate	Run1	regulate/STIM_026.jpg
547.992	1.984	incorrect	regulate	Run1	regulate/STIM_026.jpg
553.71	2.235	correct	regulate	Run1	regulate/STIM_026.jpg
558.271	2.942	correct	regulate	Run1	regulate/STIM_026.jpg
564.409	3.733	incorrect	regulate	Run1	regulate/STIM_027.jpg
571.044	2.971	correct	regulate	Run1	regulate/STIM_027.jpg
575.886	2.387	correct	regulate	Run1	regulate/STIM_027.jpg
580.17	1.988	correct	regulate	Run1	regulate/STIM_027.jpg
585.594	3.714	correct	regulate	Run1	regulate/STIM_028.jpg
591.552	1.66	correct	regulate	Run1	regulate/STIM_028.jpg
595.816	1.964	correct	regulate	Run1	regulate/STIM_028.jpg
601.481	2.764	correct	regulate	Run1	regulate/STIM_028.jpg
607.51	3.03	correct	regulate	Run1	regulate/STIM_029.jpg
613.552	1.802	incorrect	regulate	Run1	regulate/STIM_029.jpg
618.785	1.79	incorrect	regulate	Run1	regulate/STIM_029.jpg
622.556	2.759	correct	regulate	Run1	regulate/STIM_029.jpg
627.393	1.281	correct	observe	Run1	observe/STIM_000.jpg
631.682	1.15	incorrect	observe	Run1	observe/STIM_000.jpg
635.562	1.49	correct	observe	Run1	observe/STIM_000.jpg
640.172	1.197	correct	observe	Run1	observe/STIM_000.jpg
644.916	1.329	correct	observe	Run1	observe/STIM_001.jpg
648.534	1.397	correct	observe	Run1	observe/STIM_001.jpg
652.901	0.953	correct	observe	Run1	observe/STIM_001.jpg
656.53	1.674	correct	observe	Run1	observe/STIM_001.jpg
661.501	1.627	correct	observe	Run1	observe/STIM_002.jpg
665.359	1.409	incorrect	observe	Run1	observe/STIM_002.jpg
670.395	1.048	correct	observe	Run1	observe/STIM_002.jpg
675.313	0.946	correct	observe	Run1	observe/STIM_002.jpg
678.227	1.01	correct	observe	Run1	observe/STIM_003.jpg
682.481	1.485	correct	observe	Run1	observe/STIM_003.jpg
686.207	0.867	correct	observe	Run1	observe/STIM_003.jpg
689.664	0.865	correct	observe	Run1	observe/STIM_003.jpg
693.337	1.009	correct	observe	Run1	observe/STIM_004.jpg
696.501	1.548	correct	observe	Run1	observe/STIM_004.jpg
701.12	1.539	correct	observe	Run1	observe/STIM_004.jpg
705.923	1.331	correct	observe	Run1	observe/STIM_004.jpg
711.137	1.202	correct	observe	Run1	observe/STIM_005.jpg
715.097	1.528	correct	observe	Run1	observe/STIM_005.jpg
719.35	1.105	incorrect	observe	Run1	observe/STIM_005.jpg
722.735	0.997	correct	observe	Run1	observe/STIM_005.jpg
725.723	1.454	correct	observe	Run1	observe/STIM_006.jpg
730.724	1.084	correct	observe	Run1	observe/STIM_006.jpg
734.268	1.565	correct	observe	Run1	observe/STIM_006.jpg
738.76	1.479	correct	observe	Run1	observe/STIM_006.jpg
744.064	1.251	correct	observe	Run1	observe/STIM_007.jpg
748.601	1.423	correct	observe	Run1	observe/STIM_007.jpg
753.697	1.552	correct	observe	Run1	observe/STIM_007.jpg
757.905	1.109	correct	observe	Run1	observe/STIM_007.jpg
761.571	1.618	correct	observe	Run1	observe/STIM_008.jpg
765.675	0.944	correct	observe	Run1	observe/STIM_008.jpg
770.184	1.03	incorrect	observe	Run1	observe/STIM_008.jpg
773.686	1.423	correct	observe	Run1	observe/STIM_008.jpg
778.957	1.158	correct	observe	Run1	observe/STIM_009.jpg
783.184	1.291	correct	observe	Run1	observe/STIM_009.jpg
787.69	1.223	correct	observe	Run1	observe/STIM_009.jpg
792.721	1.233	correct	observe	Run1	observe/STIM_009.jpg
796.37	1.15	correct	observe	Run1	observe/STIM_010.jpg
799.525	1.074	correct	observe	Run1	observe/STIM_010.jpg
802.962	1.009	correct	observe	Run1	observe/STIM_010.jpg
807.266	1.679	correct	observe	Run1	observe/STIM_010.jpg
811.844	0.905	correct	observe	Run1	observe/STIM_011.jpg
815.239	0.975	incorrect	observe	Run1	observe/STIM_011.jpg
819.635	1.652	correct	observe	Run1	observe/STIM_011.jpg
824.511	1.375	incorrect	observe	Run1	observe/STIM_011.jpg
827.907	1.198	correct	observe	Run1	observe/STIM_012.jpg
832.903	1.656	correct	observe	Run1	observe/STIM_012.jpg
837.601	0.864	correct	observe	Run1	observe/STIM_012.jpg
841.241	0.871	correct	observe	Run1	observe/STIM_012.jpg
845.956	1.6	incorrect	observe	Run1	observe/STIM_013.jpg
849.678	1.57	correct	observe	Run1	observe/STIM_013.jpg
853.813	1.008	correct	observe	Run1	observe/STIM_013.jpg
858.663	1.18	incorrect	observe	Run1	observe/STIM_013.jpg
863.452	0.888	correct	observe	Run1	observe/STIM_014.jpg
867.519	1.519	correct	observe	Run1	observe/STIM_014.jpg
872.428	1.069	incorrect	observe	Run1	observe/STIM_014.jpg
876.858	1.464	correct	observe	Run1	observe/STIM_014.jpg
880.703	1.089	correct	observe	Run1	observe/STIM_015.jpg
885.443	1.054	correct	observe	Run1	observe/STIM_015.jpg
889.857	1.108	correct	observe	Run1	observe/STIM_015.jpg
893.004	1.618	correct	observe	Run1	observe/STIM_015.jpg
897.796	1.408	correct	observe	Run1	observe/STIM_016.jpg
902.66	1.163	correct	observe	Run1	observe/STIM_016.jpg
907.719	1.258	correct	observe	Run1	observe/STIM_016.jpg
912.674	1.143	incorrect	observe	Run1	observe/STIM_016.jpg
917.27	1.243	correct	observe	Run1	observe/STIM_017.jpg
922.182	1.095	correct	observe	Run1	observe/STIM_017.jpg
926.595	1.622	incorrect	observe	Run1	observe/STIM_017.jpg
931.22	1.578	correct	observe	Run1	observe/STIM_017.jpg
935.347	1.195	correct	observe	Run1	observe/STIM_018.jpg
939.797	1.311	correct	observe	Run1	observe/STIM_018.jpg
943.742	1.154	correct	observe	Run1	observe/STIM_018.jpg
948.583	1.691	correct	observe	Run1	observe/STIM_018.jpg
953.664	1.12	correct	observe	Run1	observe/STIM_019.jpg
958.273	1.178	correct	observe	Run1	observe/STIM_019.jpg
962.848	1.251	correct	observe	Run1	observe/STIM_019.jpg
966.099	1.059	correct	observe	Run1	observe/STIM_019.jpg
970.259	1.975	correct	regulate	Run2	regulate/STIM_000.jpg
976.017	1.335	correct	regulate	Run2	regulate/STIM_000.jpg
980.519	2.098	correct	regulate	Run2	regulate/STIM_000.jpg
984.653	2.522	correct	regulate	Run2	regulate/STIM_000.jpg
990.899	3.04	correct	regulate	Run2	regulate/STIM_001.jpg
997.474	2.552	correct	regulate	Run2	regulate/STIM_001.jpg
1002.326	1.8	correct	regulate	Run2	regulate/STIM_001.jpg
1007.228	1.192	correct	regulate	Run2	regulate/STIM_001.jpg
1010.416	2.739	correct	regulate	Run2	regulate/STIM_002.jpg
1016.952	2.316	correct	regulate	Run2	regulate/STIM_002.jpg
1021.542	1.355	correct	regulate	Run2	regulate/STIM_002.jpg
1025.47	2.146	correct	regulate	Run2	regulate/STIM_002.jpg
1029.632	2.875	correct	regulate	Run2	regulate/STIM_003.jpg
1034.534	2.37	correct	regulate	Run2	regulate/STIM_003.jpg
1039.122	2.255	correct	regulate	Run2	regulate/STIM_003.jpg
1044.353	2.127	correct	regulate	Run2	regulate/STIM_003.jpg
1049.888	2.082	correct	regulate	Run2	regulate/STIM_004.jpg
1055.683	1.959	correct	regulate	Run2	regulate/STIM_004.jpg
1060.978	2.374	correct	regulate	Run2	regulate/STIM_004.jpg
1066.984	1.847	incorrect	regulate	Run2	regulate/STIM_004.jpg
1070.983	2.512	correct	regulate	Run2	regulate/STIM_005.jpg
1077.207	2.975	correct	regulate	Run2	regulate/STIM_005.jpg
1082.694	1.908	incorrect	regulate	Run2	regulate/STIM_005.jpg
1086.943	2.136	correct	regulate	Run2	regulate/STIM_005.jpg
1092.849	2.8	correct	regulate	Run2	regulate/STIM_006.jpg
1099.075	2.12	correct	regulate	Run2	regulate/STIM_006.jpg
1103.899	2.085	correct	regulate	Run2	regulate/STIM_006.jpg
1109.317	2.246	correct	regulate	Run2	regulate/STIM_006.jpg
1114.336	2.755	incorrect	regulate	Run2	regulate/STIM_007.jpg
1119.356	2.932	incorrect	regulate	Run2	regulate/STIM_007.jpg
1125.371	1.753	correct	regulate	Run2	regulate/STIM_007.jpg
1130.943	2.474	correct	regulate	Run2	regulate/STIM_007.jpg
1137.247	2.524	correct	regulate	Run2	regulate/STIM_008.jpg
1142.858	1.787	correct	regulate	Run2	regulate/STIM_008.jpg
1147.219	1.453	correct	regulate	Run2	regulate/STIM_008.jpg
1151.634	1.233	correct	regulate	Run2	regulate/STIM_008.jpg
1155.872	1.8	correct	regulate	Run2	regulate/STIM_009.jpg
1160.683	1.952	correct	regulate	Run2	regulate/STIM_009.jpg
1164.514	2.634	correct	regulate	Run2	regulate/STIM_009.jpg
1169.235	1.73	correct	regulate	Run2	regulate/STIM_009.jpg
1173.903	2.062	correct	regulate	Run2	regulate/STIM_010.jpg
1178.346	1.931	correct	regulate	Run2	regulate/STIM_010.jpg
1182.915	1.393	correct	regulate	Run2	regulate/STIM_010.jpg
1186.876	1.798	correct	regulate	Run2	regulate/STIM_010.jpg
1191.936	1.837	correct	regulate	Run2	regulate/STIM_011.jpg
1197.494	2.013	correct	regulate	Run2	regulate/STIM_011.jpg
1202.699	2.105	correct	regulate	Run2	regulate/STIM_011.jpg
1207.326	2.14	correct	regulate	Run2	regulate/STIM_011.jpg
1213.028	2.466	correct	regulate	Run2	regulate/STIM_012.jpg
1218.739	2.286	correct	regulate	Run2	regulate/STIM_012.jpg
1223.911	2.689	correct	regulate	Run2	regulate/STIM_012.jpg
1229.29	1.634	correct	regulate	Run2	regulate/STIM_012.jpg
1234.738	2.163	correct	regulate	Run2	regulate/STIM_013.jpg
1240.353	2.939	correct	regulate	Run2	regulate/STIM_013.jpg
1245.474	1.986	correct	regulate	Run2	regulate/STIM_013.jpg
1249.463	2.136	correct	regulate	Run2	regulate/STIM_013.jpg
1254.738	1.641	correct	regulate	Run2	regulate/STIM_014.jpg
1259.383	2.168	correct	regulate	Run2	regulate/STIM_014.jpg
1264.755	1.906	incorrect	regulate	Run2	regulate/STIM_014.jpg
1268.864	1.986	incorrect	regulate	Run2	regulate/STIM_014.jpg
1273.835	1.417	correct	regulate	Run2	regulate/STIM_015.jpg
1279.025	2.944	correct	regulate	Run2	regulate/STIM_015.jpg
1285.198	2.234	correct	regulate	Run2	regulate/STIM_015.jpg
1290.898	2.117	correct	regulate	Run2	regulate/STIM_015.jpg
1295.679	1.66	correct	regulate	Run2	regulate/STIM_016.jpg
1300.014	1.901	correct	regulate	Run2	regulate/STIM_016.jpg
1304.453	1.627	correct	regulate	Run2	regulate/STIM_016.jpg
1309.186	1.686	correct	regulate	Run2	regulate/STIM_016.jpg
1313.27	2.465	correct	regulate	Run2	regulate/STIM_017.jpg
1318.692	2.449	correct	regulate	Run2	regulate/STIM_017.jpg
1323.554	2.283	correct	regulate	Run2	regulate/STIM_017.jpg
1328.484	2.357	correct	regulate	Run2	regulate/STIM_017.jpg
1332.804	3.132	incorrect	regulate	Run2	regulate/STIM_018.jpg
1339.147	2.143	correct	regulate	Run2	regulate/STIM_018.jpg
1344.375	1.914	incorrect	regulate	Run2	regulate/STIM_018.jpg
1348.744	2.574	correct	regulate	Run2	regulate/STIM_018.jpg
1353.387	3.139	correct	regulate	Run2	regulate/STIM_019.jpg
1359.384	2.198	correct	regulate	Run2	regulate/STIM_019.jpg
1364.375	1.898	incorrect	regulate	Run2	regulate/STIM_019.jpg
1369.891	2.492	correct	regulate	Run2	regulate/STIM_019.jpg
1375.779	1.568	correct	regulate	Run2	regulate/STIM_020.jpg
1379.662	2.069	correct	regulate	Run2	regulate/STIM_020.jpg
1385.005	1.721	incorrect	regulate	Run2	regulate/STIM_020.jpg
1389.392	2.279	correct	regulate	Run2	regulate/STIM_020.jpg
1395.102	2.74	correct	regulate	Run2	regulate/STIM_021.jpg
1401.439	2.604	correct	regulate	Run2	regulate/STIM_021.jpg
1406.244	1.412	correct	regulate	Run2	regulate/STIM_021.jpg
1411.332	1.833	correct	regulate	Run2	regulate/STIM_021.jpg
1415.711	1.84	correct	regulate	Run2	regulate/STIM_022.jpg
1420.587	1.465	incorrect	regulate	Run2	regulate/STIM_022.jpg
1425.024	1.768	correct	regulate	Run2	regulate/STIM_022.jpg
1428.878	1.353	correct	regulate	Run2	regulate/STIM_022.jpg
1433.183	2.26	correct	regulate	Run2	regulate/STIM_023.jpg
1438.419	2.138	correct	regulate	Run2	regulate/STIM_023.jpg
1443.146	1.238	correct	regulate	Run2	regulate/STIM_023.jpg
1446.873	2.0	correct	regulate	Run2	regulate/STIM_023.jpg
1452.43	2.914	incorrect	regulate	Run2	regulate/STIM_024.jpg
1459.107	2.806	incorrect	regulate	Run2	regulate/STIM_024.jpg
1464.861	2.273	correct	regulate	Run2	regulate/STIM_024.jpg
1470.735	1.694	correct	regulate	Run2	regulate/STIM_024.jpg
1475.486	2.864	incorrect	regulate	Run2	regulate/STIM_025.jpg
1481.103	2.937	correct	regulate	Run2	regulate/STIM_025.jpg
1486.855	1.338	correct	regulate	Run2	regulate/STIM_025.jpg
1491.501	1.156	correct	regulate	Run2	regulate/STIM_025.jpg
1494.976	3.135	correct	regulate	Run2	regulate/STIM_026.jpg
1501.63	2.39	correct	regulate	Run2	regulate/STIM_026.jpg
1507.091	2.779	correct	regulate	Run2	regulate/STIM_026.jpg
1512.901	1.647	correct	regulate	Run2	regulate/STIM_026.jpg
1516.88	2.771	correct	regulate	Run2	regulate/STIM_027.jpg
1522.685	2.777	correct	regulate	Run2	regulate/STIM_027.jpg
1527.35	1.635	correct	regulate	Run2	regulate/STIM_027.jpg
1531.545	1.906	correct	regulate	Run2	regulate/STIM_027.jpg
1536.649	1.837	correct	regulate	Run2	regulate/STIM_028.jpg
1540.747	2.36	correct	regulate	Run2	regulate/STIM_028.jpg
1545.57	2.241	correct	regulate	Run2	regulate/STIM_028.jpg
1551.138	2.622	correct	regulate	Run2	regulate/STIM_028.jpg
1556.767	3.041	correct	regulate	Run2	regulate/STIM_029.jpg
1562.7	1.638	correct	regulate	Run2	regulate/STIM_029.jpg
1567.627	1.638	correct	regulate	Run2	regulate/STIM_029.jpg
1572.23	1.489	correct	regulate	Run2	regulate/STIM_029.jpg
1577.537	1.329	correct	observe	Run2	observe/STIM_000.jpg
1582.728	1.061	correct	observe	Run2	observe/STIM_000.jpg
1586.555	1.245	correct	observe	Run2	observe/STIM_000.jpg
1590.074	0.918	correct	observe	Run2	observe/STIM_000.jpg
1594.412	1.071	incorrect	observe	Run2	observe/STIM_001.jpg
1598.506	0.919	correct	observe	Run2	observe/STIM_001.jpg
1602.299	1.114	correct	observe	Run2	observe/STIM_001.jpg
1606.931	1.157	correct	observe	Run2	observe/STIM_001.jpg
1611.464	1.073	correct	observe	Run2	observe/STIM_002.jpg
1615.797	1.13	correct	observe	Run2	observe/STIM_002.jpg
1619.936	1.449	correct	observe	Run2	observe/STIM_002.jpg
1624.101	1.545	correct	observe	Run2	observe/STIM_002.jpg
1628.567	1.642	correct	observe	Run2	observe/STIM_003.jpg
1633.595	1.183	correct	observe	Run2	observe/STIM_003.jpg
1636.77	1.02	correct	observe	Run2	observe/STIM_003.jpg
1641.084	1.462	correct	observe	Run2	observe/STIM_003.jpg
1646.25	1.475	correct	observe	Run2	observe/STIM_004.jpg
1651.393	1.06	correct	observe	Run2	observe/STIM_004.jpg
1656.363	0.963	correct	observe	Run2	observe/STIM_004.jpg
1661.229	1.177	correct	observe	Run2	observe/STIM_004.jpg
1664.619	1.363	correct	observe	Run2	observe/STIM_005.jpg
1668.713	1.681	correct	observe	Run2	observe/STIM_005.jpg
1672.554	1.695	correct	observe	Run2	observe/STIM_005.jpg
1677.195	1.623	correct	observe	Run2	observe/STIM_005.jpg
1681.04	0.925	correct	observe	Run2	observe/STIM_006.jpg
1684.422	1.649	incorrect	observe	Run2	observe/STIM_006.jpg
1689.136	1.18	correct	observe	Run2	observe/STIM_006.jpg
1692.411	1.354	correct	observe	Run2	observe/STIM_006.jpg
1696.691	1.583	incorrect	observe	Run2	observe/STIM_007.jpg
1700.49	0.881	correct	observe	Run2	observe/STIM_007.jpg
1703.586	0.979	correct	observe	Run2	observe/STIM_007.jpg
1707.319	1.128	correct	observe	Run2	observe/STIM_007.jpg
1710.794	1.006	correct	observe	Run2	observe/STIM_008.jpg
1715.476	1.436	correct	observe	Run2	observe/STIM_008.jpg
1719.383	1.324	correct	observe	Run2	observe/STIM_008.jpg
1724.118	1.07	correct	observe	Run2	observe/STIM_008.jpg
1728.241	0.925	correct	observe	Run2	observe/STIM_009.jpg
1732.182	1.577	correct	observe	Run2	observe/STIM_009.jpg
1736.159	1.203	correct	observe	Run2	observe/STIM_009.jpg
1740.484	1.384	correct	observe	Run2	observe/STIM_009.jpg
1744.473	1.028	correct	observe	Run2	observe/STIM_010.jpg
1747.666	1.28	incorrect	observe	Run2	observe/STIM_010.jpg
1752.644	0.949	correct	observe	Run2	observe/STIM_010.jpg
1756.65	1.22	correct	observe	Run2	observe/STIM_010.jpg
1760.836	0.89	correct	observe	Run2	observe/STIM_011.jpg
1765.321	1.177	correct	observe	Run2	observe/STIM_011.jpg
1770.348	1.223	correct	observe	Run2	observe/STIM_011.jpg
1774.642	1.492	incorrect	observe	Run2	observe/STIM_011.jpg
1778.692	1.595	correct	observe	Run2	observe/STIM_012.jpg
1783.561	1.529	correct	observe	Run2	observe/STIM_012.jpg
1788.298	1.56	correct	observe	Run2	observe/STIM_012.jpg
1792.634	1.252	correct	observe	Run2	observe/STIM_012.jpg
1795.832	1.141	correct	observe	Run2	observe/STIM_013.jpg
1799.032	1.157	correct	observe	Run2	observe/STIM_013.jpg
1802.91	1.293	correct	observe	Run2	observe/STIM_013.jpg
1806.562	0.87	correct	observe	Run2	observe/STIM_013.jpg
1811.259	0.978	correct	observe	Run2	observe/STIM_014.jpg
1815.182	1.084	correct	observe	Run2	observe/STIM_014.jpg
1818.864	1.074	correct	observe	Run2	observe/STIM_014.jpg
1823.575	1.279	correct	observe	Run2	observe/STIM_014.jpg
1826.963	1.437	correct	observe	Run2	observe/STIM_015.jpg
1831.505	1.404	incorrect	observe	Run2	observe/STIM_015.jpg
1835.079	1.097	correct	observe	Run2	observe/STIM_015.jpg
1839.551	1.165	incorrect	observe	Run2	observe/STIM_015.jpg
1844.411	1.168	correct	observe	Run2	observe/STIM_016.jpg
1847.726	1.23	correct	observe	Run2	observe/STIM_016.jpg
1851.883	0.923	incorrect	observe	Run2	observe/STIM_016.jpg
1855.481	1.6	correct	observe	Run2	observe/STIM_016.jpg
1860.072	1.575	correct	observe	Run2	observe/STIM_017.jpg
1865.232	1.109	correct	observe	Run2	observe/STIM_017.jpg
1868.637	1.189	correct	observe	Run2	observe/STIM_017.jpg
1871.966	1.652	correct	observe	Run2	observe/STIM_017.jpg
1877.291	1.598	correct	observe	Run2	observe/STIM_018.jpg
1882.732	0.96	correct	observe	Run2	observe/STIM_018.jpg
1886.627	0.98	correct	observe	Run2	observe/STIM_018.jpg
1890.71	0.89	correct	observe	Run2	observe/STIM_018.jpg
1894.331	1.306	correct	observe	Run2	observe/STIM_019.jpg
1898.73	1.208	correct	observe	Run2	observe/STIM_019.jpg
1903.734	1.597	correct	observe	Run2	observe/STIM_019.jpg
1908.686	1.055	incorrect	observe	Run2	observe/STIM_019.jpg
1912.34	1.926	correct	regulate	Run3	regulate/STIM_000.jpg
1917.112	2.215	correct	regulate	Run3	regulate/STIM_000.jpg
1922.938	1.28	correct	regulate	Run3	regulate/STIM_000.jpg
1927.798	2.065	correct	regulate	Run3	regulate/STIM_000.jpg
1933.682	1.345	incorrect	regulate	Run3	regulate/STIM_001.jpg
1937.659	1.353	correct	regulate	Run3	regulate/STIM_001.jpg
1941.98	2.229	correct	regulate	Run3	regulate/STIM_001.jpg
1947.629	1.287	correct	regulate	Run3	regulate/STIM_001.jpg
1952.742	1.969	correct	regulate	Run3	regulate/STIM_002.jpg
1956.744	2.22	correct	regulate	Run3	regulate/STIM_002.jpg
1962.329	2.485	correct	regulate	Run3	regulate/STIM_002.jpg
1967.536	1.71	correct	regulate	Run3	regulate/STIM_002.jpg
1972.073	1.946	correct	regulate	Run3	regulate/STIM_003.jpg
1976.45	2.444	correct	regulate	Run3	regulate/STIM_003.jpg
1982.4	2.612	correct	regulate	Run3	regulate/STIM_003.jpg
1988.135	2.185	correct	regulate	Run3	regulate/STIM_003.jpg
1992.984	1.929	incorrect	regulate	Run3	regulate/STIM_004.jpg
1998.78	1.234	correct	regulate	Run3	regulate/STIM_004.jpg
2003.618	2.122	correct	regulate	Run3	regulate/STIM_004.jpg
2008.557	2.546	correct	regulate	Run3	regulate/STIM_004.jpg
2014.419	1.692	correct	regulate	Run3	regulate/STIM_005.jpg
2019.586	2.138	correct	regulate	Run3	regulate/STIM_005.jpg
2023.911	2.139	correct	regulate	Run3	regulate/STIM_005.jpg
2029.381	1.497	correct	regulate	Run3	regulate/STIM_005.jpg
2032.827	1.397	correct	regulate	Run3	regulate/STIM_006.jpg
2036.963	1.99	correct	regulate	Run3	regulate/STIM_006.jpg
2041.702	1.59	correct	regulate	Run3	regulate/STIM_006.jpg
2045.445	1.659	correct	regulate	Run3	regulate/STIM_006.jpg
2050.616	1.469	correct	regulate	Run3	regulate/STIM_007.jpg
2054.897	2.419	correct	regulate	Run3	regulate/STIM_007.jpg
2060.916	2.38	correct	regulate	Run3	regulate/STIM_007.jpg
2066.316	1.165	correct	regulate	Run3	regulate/STIM_007.jpg
2069.699	1.274	incorrect	regulate	Run3	regulate/STIM_008.jpg
2073.133	2.289	correct	regulate	Run3	regulate/STIM_008.jpg
2078.205	2.235	correct	regulate	Run3	regulate/STIM_008.jpg
2083.695	1.188	correct	regulate	Run3	regulate/STIM_008.jpg
2087.725	1.411	incorrect	regulate	Run3	regulate/STIM_009.jpg
2091.683	1.806	correct	regulate	Run3	regulate/STIM_009.jpg
2095.747	2.035	correct	regulate	Run3	regulate/STIM_009.jpg
2101.019	2.606	correct	regulate	Run3	regulate/STIM_009.jpg
2106.631	2.314	correct	regulate	Run3	regulate/STIM_010.jpg
2111.186	1.157	incorrect	regulate	Run3	regulate/STIM_010.jpg
2116.011	1.14	correct	regulate	Run3	regulate/STIM_010.jpg
2120.525	1.372	correct	regulate	Run3	regulate/STIM_010.jpg
2124.27	2.582	incorrect	regulate	Run3	regulate/STIM_011.jpg
2129.228	1.634	correct	regulate	Run3	regulate/STIM_011.jpg
2134.508	2.155	correct	regulate	Run3	regulate/STIM_011.jpg
2140.098	2.288	correct	regulate	Run3	regulate/STIM_011.jpg
2144.929	2.195	correct	regulate	Run3	regulate/STIM_012.jpg
2149.122	1.461	incorrect	regulate	Run3	regulate/STIM_012.jpg
2153.269	1.697	correct	regulate	Run3	regulate/STIM_012.jpg
2158.808	2.456	correct	regulate	Run3	regulate/STIM_012.jpg
2163.261	1.807	correct	regulate	Run3	regulate/STIM_013.jpg
2167.44	1.329	correct	regulate	Run3	regulate/STIM_013.jpg
2171.056	2.042	correct	regulate	Run3	regulate/STIM_013.jpg
2176.389	1.591	correct	regulate	Run3	regulate/STIM_013.jpg
2181.049	2.534	correct	regulate	Run3	regulate/STIM_014.jpg
2186.298	1.285	correct	regulate	Run3	regulate/STIM_014.jpg
2190.205	1.788	correct	regulate	Run3	regulate/STIM_014.jpg
2195.517	1.853	correct	regulate	Run3	regulate/STIM_014.jpg
2199.602	2.51	incorrect	regulate	Run3	regulate/STIM_015.jpg
2204.128	1.842	correct	regulate	Run3	regulate/STIM_015.jpg
2209.838	1.242	correct	regulate	Run3	regulate/STIM_015.jpg
2214.866	1.305	incorrect	regulate	Run3	regulate/STIM_015.jpg
2218.499	2.581	correct	regulate	Run3	regulate/STIM_016.jpg
2224.871	1.334	correct	regulate	Run3	regulate/STIM_016.jpg
2229.502	2.564	correct	regulate	Run3	regulate/STIM_016.jpg
2234.932	1.897	correct	regulate	Run3	regulate/STIM_016.jpg
2238.723	1.307	correct	regulate	Run3	regulate/STIM_017.jpg
2243.808	1.362	correct	regulate	Run3	regulate/STIM_017.jpg
2248.361	1.665	correct	regulate	Run3	regulate/STIM_017.jpg
2253.08	1.716	correct	regulate	Run3	regulate/STIM_017.jpg
2257.925	2.521	correct	regulate	Run3	regulate/STIM_018.jpg
2263.36	1.522	correct	regulate	Run3	regulate/STIM_018.jpg
2267.286	1.69	correct	regulate	Run3	regulate/STIM_018.jpg
2271.567	1.387	correct	regulate	Run3	regulate/STIM_018.jpg
2276.265	1.594	correct	regulate	Run3	regulate/STIM_019.jpg
2280.327	1.181	correct	regulate	Run3	regulate/STIM_019.jpg
2284.544	1.788	correct	regulate	Run3	regulate/STIM_019.jpg
2290.139	1.398	correct	regulate	Run3	regulate/STIM_019.jpg
2293.858	2.106	correct	regulate	Run3	regulate/STIM_020.jpg
2298.21	2.553	correct	regulate	Run3	regulate/STIM_020.jpg
2302.807	2.597	correct	regulate	Run3	regulate/STIM_020.jpg
2308.534	1.555	correct	regulate	Run3	regulate/STIM_020.jpg
2312.003	2.366	correct	regulate	Run3	regulate/STIM_021.jpg
2317.034	2.18	correct	regulate	Run3	regulate/STIM_021.jpg
2321.389	2.279	correct	regulate	Run3	regulate/STIM_021.jpg
2327.505	2.038	correct	regulate	Run3	regulate/STIM_021.jpg
2333.042	1.347	incorrect	regulate	Run3	regulate/STIM_022.jpg
2336.829	1.229	correct	regulate	Run3	regulate/STIM_022.jpg
2340.715	1.805	correct	regulate	Run3	regulate/STIM_022.jpg
2344.662	1.676	correct	regulate	Run3	regulate/STIM_022.jpg
2349.424	2.002	correct	regulate	Run3	regulate/STIM_023.jpg
2353.596	2.33	correct	regulate	Run3	regulate/STIM_023.jpg
2358.672	2.587	correct	regulate	Run3	regulate/STIM_023.jpg
2363.863	1.455	correct	regulate	Run3	regulate/STIM_023.jpg
2369.199	2.479	correct	regulate	Run3	regulate/STIM_024.jpg
2375.162	1.847	correct	regulate	Run3	regulate/STIM_024.jpg
2380.716	1.517	correct	regulate	Run3	regulate/STIM_024.jpg
2384.263	1.584	correct	regulate	Run3	regulate/STIM_024.jpg
2388.095	1.995	correct	regulate	Run3	regulate/STIM_025.jpg
2392.254	1.65	correct	regulate	Run3	regulate/STIM_025.jpg
2397.664	2.536	correct	regulate	Run3	regulate/STIM_025.jpg
2402.99	2.347	correct	regulate	Run3	regulate/STIM_025.jpg
2408.556	1.189	correct	regulate	Run3	regulate/STIM_026.jpg
2413.56	2.164	correct	regulate	Run3	regulate/STIM_026.jpg
2417.892	1.252	correct	regulate	Run3	regulate/STIM_026.jpg
2421.531	2.485	correct	regulate	Run3	regulate/STIM_026.jpg
2427.462	1.744	correct	regulate	Run3	regulate/STIM_027.jpg
2432.367	1.905	correct	regulate	Run3	regulate/STIM_027.jpg
2437.52	1.404	correct	regulate	Run3	regulate/STIM_027.jpg
2441.778	1.992	incorrect	regulate	Run3	regulate/STIM_027.jpg
2446.036	2.507	correct	regulate	Run3	regulate/STIM_028.jpg
2451.159	1.372	correct	regulate	Run3	regulate/STIM_028.jpg
2455.451	1.183	correct	regulate	Run3	regulate/STIM_028.jpg
2458.609	2.257	correct	regulate	Run3	regulate/STIM_028.jpg
2463.51	2.048	correct	regulate	Run3	regulate/STIM_029.jpg
2468.992	2.184	incorrect	regulate	Run3	regulate/STIM_029.jpg
2474.917	1.196	correct	regulate	Run3	regulate/STIM_029.jpg
2479.179	1.633	correct	regulate	Run3	regulate/STIM_029.jpg
2482.754	1.706	correct	observe	Run3	observe/STIM_000.jpg
2488.161	0.931	correct	observe	Run3	observe/STIM_000.jpg
2491.301	0.909	incorrect	observe	Run3	observe/STIM_000.jpg
2495.525	1.423	correct	observe	Run3	observe/STIM_000.jpg
2500.386	1.029	correct	observe	Run3	observe/STIM_001.jpg
2503.997	0.86	correct	observe	Run3	observe/STIM_001.jpg
2507.92	0.914	incorrect	observe	Run3	observe/STIM_001.jpg
2511.125	1.318	correct	observe	Run3	observe/STIM_001.jpg
2514.692	1.298	correct	observe	Run3	observe/STIM_002.jpg
2517.944	1.158	correct	observe	Run3	observe/STIM_002.jpg
2522.388	1.117	correct	observe	Run3	observe/STIM_002.jpg
2526.939	1.019	incorrect	observe	Run3	observe/STIM_002.jpg
2531.5	1.318	correct	observe	Run3	observe/STIM_003.jpg
2535.436	0.934	correct	observe	Run3	observe/STIM_003.jpg
2539.439	0.874	correct	observe	Run3	observe/STIM_003.jpg
2542.383	1.135	correct	observe	Run3	observe/STIM_003.jpg
2545.753	1.209	correct	observe	Run3	observe/STIM_004.jpg
2549.185	0.942	correct	observe	Run3	observe/STIM_004.jpg
2552.745	1.266	incorrect	observe	Run3	observe/STIM_004.jpg
2557.543	1.686	correct	observe	Run3	observe/STIM_004.jpg
2561.725	1.041	correct	observe	Run3	observe/STIM_005.jpg
2565.629	1.306	correct	observe	Run3	observe/STIM_005.jpg
2569.378	1.615	correct	observe	Run3	observe/STIM_005.jpg
2573.12	1.584	correct	observe	Run3	observe/STIM_005.jpg
2578.531	1.31	correct	observe	Run3	observe/STIM_006.jpg
2583.203	1.224	correct	observe	Run3	observe/STIM_006.jpg
2587.443	1.256	correct	observe	Run3	observe/STIM_006.jpg
2591.839	1.28	incorrect	observe	Run3	observe/STIM_006.jpg
2597.025	1.197	correct	observe	Run3	observe/STIM_007.jpg
2601.897	0.901	correct	observe	Run3	observe/STIM_007.jpg
2605.425	1.379	correct	observe	Run3	observe/STIM_007.jpg
2608.936	0.903	correct	observe	Run3	observe/STIM_007.jpg
2613.187	0.96	correct	observe	Run3	observe/STIM_008.jpg
2617.014	1.345	correct	observe	Run3	observe/STIM_008.jpg
2620.452	0.993	correct	observe	Run3	observe/STIM_008.jpg
2624.066	0.899	incorrect	observe	Run3	observe/STIM_008.jpg
2626.911	1.597	incorrect	observe	Run3	observe/STIM_009.jpg
2631.322	0.879	correct	observe	Run3	observe/STIM_009.jpg
2636.134	1.113	correct	observe	Run3	observe/STIM_009.jpg
2640.103	0.863	correct	observe	Run3	observe/STIM_009.jpg
2643.715	1.678	correct	observe	Run3	observe/STIM_010.jpg
2648.847	1.699	correct	observe	Run3	observe/STIM_010.jpg
2653.783	1.408	correct	observe	Run3	observe/STIM_010.jpg
2658.638	1.615	correct	observe	Run3	observe/STIM_010.jpg
2662.305	1.154	correct	observe	Run3	observe/STIM_011.jpg
2666.338	1.427	incorrect	observe	Run3	observe/STIM_011.jpg
2671.195	1.712	correct	observe	Run3	observe/STIM_011.jpg
2675.476	1.068	correct	observe	Run3	observe/STIM_011.jpg
2680.036	1.378	correct	observe	Run3	observe/STIM_012.jpg
2683.937	1.486	correct	observe	Run3	observe/STIM_012.jpg
2688.234	1.223	correct	observe	Run3	observe/STIM_012.jpg
2691.969	1.066	correct	observe	Run3	observe/STIM_012.jpg
2696.751	1.598	correct	observe	Run3	observe/STIM_013.jpg
2700.621	1.509	incorrect	observe	Run3	observe/STIM_013.jpg
2705.958	1.635	correct	observe	Run3	observe/STIM_013.jpg
2709.79	1.574	correct	observe	Run3	observe/STIM_013.jpg
2715.001	1.473	correct	observe	Run3	observe/STIM_014.jpg
2719.821	1.346	correct	observe	Run3	observe/STIM_014.jpg
2724.039	1.594	correct	observe	Run3	observe/STIM_014.jpg
2727.903	1.045	correct	observe	Run3	observe/STIM_014.jpg
2732.74	1.526	correct	observe	Run3	observe/STIM_015.jpg
2737.377	1.1	correct	observe	Run3	observe/STIM_015.jpg
2742.132	1.464	correct	observe	Run3	observe/STIM_015.jpg
2747.432	1.013	incorrect	observe	Run3	observe/STIM_015.jpg
2751.656	1.33	correct	observe	Run3	observe/STIM_016.jpg
2755.819	1.481	correct	observe	Run3	observe/STIM_016.jpg
2760.394	1.074	correct	observe	Run3	observe/STIM_016.jpg
2764.208	1.137	correct	observe	Run3	observe/STIM_016.jpg
2769.22	1.28	correct	observe	Run3	observe/STIM_017.jpg
2773.579	1.166	incorrect	observe	Run3	observe/STIM_017.jpg
2777.944	1.097	incorrect	observe	Run3	observe/STIM_017.jpg
2781.251	1.094	correct	observe	Run3	observe/STIM_017.jpg
2785.437	1.133	correct	observe	Run3	observe/STIM_018.jpg
2789.087	1.365	correct	observe	Run3	observe/STIM_018.jpg
2793.623	1.016	correct	observe	Run3	observe/STIM_018.jpg
2798.478	1.122	correct	observe	Run3	observe/STIM_018.jpg
2802.077	1.378	correct	observe	Run3	observe/STIM_019.jpg
2806.757	1.518	correct	observe	Run3	observe/STIM_019.jpg
2811.316	1.225	correct	observe	Run3	observe/STIM_019.jpg
2815.109	1.259	incorrect	observe	Run3	observe/STIM_019.jpg
