onset	duration	accuracy	trial_type	learning_stage	stimulus
0.0	1.703	incorrect	regulate	Run1	regulate/STIM_000.jpg
5.542	2.667	incorrect	regulate	Run1	regulate/STIM_000.jpg
11.605	1.682	correct	regulate	Run1	regulate/STIM_000.jpg
16.304	1.762	correct	regulate	Run1	regulate/STIM_000.jpg
21.686	2.937	correct	regulate	Run1	regulate/STIM_001.jpg
27.14	1.85	incorrect	regulate	Run1	regulate/STIM_001.jpg
31.254	1.993	correct	regulate	Run1	regulate/STIM_001.jpg
35.999	2.51	correct	regulate	Run1	regulate/STIM_001.jpg
40.998	1.474	correct	regulate	Run1	regulate/STIM_002.jpg
44.498	1.883	correct	regulate	Run1	regulate/STIM_002.jpg
49.049	2.082	correct	regulate	Run1	regulate/STIM_002.jpg
54.452	1.202	correct	regulate	Run1	regulate/STIM_002.jpg
59.386	3.069	correct	regulate	Run1	regulate/STIM_003.jpg
65.657	1.766	correct	regulate	Run1	regulate/STIM_003.jpg
70.602	1.38	incorrect	regulate	Run1	regulate/STIM_003.jpg
75.279	1.773	correct	regulate	Run1	regulate/STIM_003.jpg
79.348	1.542	correct	regulate	Run1	regulate/STIM_004.jpg
83.045	2.792	correct	regulate	Run1	regulate/STIM_004.jpg
88.08	1.441	correct	regulate	Run1	regulate/STIM_004.jpg
93.268	2.086	incorrect	regulate	Run1	regulate/STIM_004.jpg
98.74	1.382	correct	regulate	Run1	regulate/STIM_005.jpg
103.056	1.711	correct	regulate	Run1	regulate/STIM_005.jpg
107.358	2.043	correct	regulate	Run1	regulate/STIM_005.jpg
112.195	1.261	incorrect	regulate	Run1	regulate/STIM_005.jpg
117.42	1.713	correct	regulate	Run1	regulate/STIM_006.jpg
122.732	2.373	correct	regulate	Run1	regulate/STIM_006.jpg
128.803	2.567	incorrect	regulate	Run1	regulate/STIM_006.jpg
135.364	2.362	correct	regulate	Run1	regulate/STIM_006.jpg
141.294	2.984	incorrect	regulate	Run1	regulate/STIM_007.jpg
147.96	2.257	correct	regulate	Run1	regulate/STIM_007.jpg
154.173	1.694	correct	regulate	Run1	regulate/STIM_007.jpg
159.85	2.53	correct	regulate	Run1	regulate/STIM_007.jpg
165.382	1.439	correct	regulate	Run1	regulate/STIM_008.jpg
170.053	1.842	correct	regulate	Run1	regulate/STIM_008.jpg
174.673	1.708	incorrect	regulate	Run1	regulate/STIM_008.jpg
179.28	2.015	correct	regulate	Run1	regulate/STIM_008.jpg
184.469	2.616	correct	regulate	Run1	regulate/STIM_009.jpg
189.208	2.893	correct	regulate	Run1	regulate/STIM_009.jpg
195.831	2.61	correct	regulate	Run1	regulate/STIM_009.jpg
201.303	2.521	correct	regulate	Run1	regulate/STIM_009.jpg
206.311	2.257	incorrect	regulate	Run1	regulate/STIM_010.jpg
212.201	2.858	incorrect	regulate	Run1	regulate/STIM_010.jpg
218.103	2.029	correct	regulate	Run1	regulate/STIM_010.jpg
222.398	2.561	correct	regulate	Run1	regulate/STIM_010.jpg
228.397	1.601	correct	regulate	Run1	regulate/STIM_011.jpg
232.679	1.336	correct	regulate	Run1	regulate/STIM_011.jpg
236.627	1.379	incorrect	regulate	Run1	regulate/STIM_011.jpg
241.297	1.284	incorrect	regulate	Run1	regulate/STIM_011.jpg
245.978	2.819	correct	regulate	Run1	regulate/STIM_012.jpg
250.848	1.91	incorrect	regulate	Run1	regulate/STIM_012.jpg
256.624	2.013	incorrect	regulate	Run1	regulate/STIM_012.jpg
261.353	1.897	incorrect	regulate	Run1	regulate/STIM_012.jpg
267.051	2.081	correct	regulate	Run1	regulate/STIM_013.jpg
271.424	2.738	correct	regulate	Run1	regulate/STIM_013.jpg
276.568	1.688	correct	regulate	Run1	regulate/STIM_013.jpg
281.018	2.147	incorrect	regulate	Run1	regulate/STIM_013.jpg
286.293	1.712	correct	regulate	Run1	regulate/STIM_014.jpg
290.889	2.075	correct	regulate	Run1	regulate/STIM_014.jpg
295.045	2.027	incorrect	regulate	Run1	regulate/STIM_014.jpg
299.705	2.543	correct	regulate	Run1	regulate/STIM_014.jpg
305.707	2.19	correct	regulate	Run1	regulate/STIM_015.jpg
311.774	2.108	correct	regulate	Run1	regulate/STIM_015.jpg
317.84	2.464	correct	regulate	Run1	regulate/STIM_015.jpg
322.614	1.838	correct	regulate	Run1	regulate/STIM_015.jpg
328.323	1.629	correct	regulate	Run1	regulate/STIM_016.jpg
333.539	2.49	correct	regulate	Run1	regulate/STIM_016.jpg
339.132	1.997	correct	regulate	Run1	regulate/STIM_016.jpg
343.161	1.372	incorrect	regulate	Run1	regulate/STIM_016.jpg
346.933	1.437	correct	regulate	Run1	regulate/STIM_017.jpg
351.606	2.641	incorrect	regulate	Run1	regulate/STIM_017.jpg
356.355	1.616	incorrect	regulate	Run1	regulate/STIM_017.jpg
361.239	2.53	correct	regulate	Run1	regulate/STIM_017.jpg
367.139	2.059	correct	regulate	Run1	regulate/STIM_018.jpg
372.299	2.358	correct	regulate	Run1	regulate/STIM_018.jpg
378.0	2.805	correct	regulate	Run1	regulate/STIM_018.jpg
383.169	1.803	correct	regulate	Run1	regulate/STIM_018.jpg
387.435	1.862	correct	regulate	Run1	regulate/STIM_019.jpg
392.063	1.961	correct	regulate	Run1	regulate/STIM_019.jpg
397.518	1.924	correct	regulate	Run1	regulate/STIM_019.jpg
401.783	1.649	correct	regulate	Run1	regulate/STIM_019.jpg
405.491	1.669	correct	regulate	Run1	regulate/STIM_020.jpg
410.721	2.987	incorrect	regulate	Run1	regulate/STIM_020.jpg
417.113	2.071	correct	regulate	Run1	regulate/STIM_020.jpg
422.207	2.071	correct	regulate	Run1	regulate/STIM_020.jpg
428.068	3.141	correct	regulate	Run1	regulate/STIM_021.jpg
433.892	2.155	correct	regulate	Run1	regulate/STIM_021.jpg
438.398	1.551	incorrect	regulate	Run1	regulate/STIM_021.jpg
442.935	2.6	correct	regulate	Run1	regulate/STIM_021.jpg
448.852	2.022	correct	regulate	Run1	regulate/STIM_022.jpg
454.131	2.025	correct	regulate	Run1	regulate/STIM_022.jpg
458.397	2.351	correct	regulate	Run1	regulate/STIM_022.jpg
463.666	2.189	correct	regulate	Run1	regulate/STIM_022.jpg
468.555	1.58	incorrect	regulate	Run1	regulate/STIM_023.jpg
473.637	2.579	correct	regulate	Run1	regulate/STIM_023.jpg
478.65	2.594	correct	regulate	Run1	regulate/STIM_023.jpg
484.89	2.63	correct	regulate	Run1	regulate/STIM_023.jpg
490.626	1.457	correct	regulate	Run1	regulate/STIM_024.jpg
495.592	2.996	incorrect	regulate	Run1	regulate/STIM_024.jpg
502.264	1.62	correct	regulate	Run1	regulate/STIM_024.jpg
507.17	2.54	correct	regulate	Run1	regulate/STIM_024.jpg
512.831	1.877	correct	regulate	Run1	regulate/STIM_025.jpg
516.746	2.477	correct	regulate	Run1	regulate/STIM_025.jpg
521.578	1.601	correct	regulate	Run1	regulate/STIM_025.jpg
526.754	1.818	correct	regulate	Run1	regulate/STIM_025.jpg
532.484	1.917	correct	regulate	Run1	regulate/STIM_026.jpg
537.932	1.624	incorrect	regulate	Run1	regulate/STIM_026.jpg
543.249	1.253	correct	regulate	Run1	regulate/STIM_026.jpg
547.827	1.95	correct	regulate	Run1	regulate/STIM_026.jpg
552.616	2.4	incorrect	regulate	Run1	regulate/STIM_027.jpg
557.323	1.452	correct	regulate	Run1	regulate/STIM_027.jpg
562.307	1.47	correct	regulate	Run1	regulate/STIM_027.jpg
567.027	1.166	correct	regulate	Run1	regulate/STIM_027.jpg
570.445	2.274	correct	regulate	Run1	regulate/STIM_028.jpg
575.618	1.607	correct	regulate	Run1	regulate/STIM_028.jpg
580.809	1.743	correct	regulate	Run1	regulate/STIM_028.jpg
585.367	1.928	correct	regulate	Run1	regulate/STIM_028.jpg
589.58	2.366	correct	regulate	Run1	regulate/STIM_029.jpg
595.945	1.359	incorrect	regulate	Run1	regulate/STIM_029.jpg
601.102	2.005	incorrect	regulate	Run1	regulate/STIM_029.jpg
605.574	1.85	correct	regulate	Run1	regulate/STIM_029.jpg
610.402	1.109	correct	observe	Run1	observe/STIM_000.jpg
613.986	0.761	correct	observe	Run1	observe/STIM_000.jpg
618.513	0.735	correct	observe	Run1	observe/STIM_000.jpg
622.516	1.298	correct	observe	Run1	observe/STIM_000.jpg
626.95	0.794	correct	observe	Run1	observe/STIM_001.jpg
630.09	1.208	correct	observe	Run1	observe/STIM_001.jpg
634.53	0.76	correct	observe	Run1	observe/STIM_001.jpg
638.89	1.239	correct	observe	Run1	observe/STIM_001.jpg
643.684	0.888	correct	observe	Run1	observe/STIM_002.jpg
647.208	1.369	incorrect	observe	Run1	observe/STIM_002.jpg
650.66	1.329	correct	observe	Run1	observe/STIM_002.jpg
654.386	1.086	correct	observe	Run1	observe/STIM_002.jpg
658.411	1.222	correct	observe	Run1	observe/STIM_003.jpg
661.735	1.308	correct	observe	Run1	observe/STIM_003.jpg
665.281	1.004	correct	observe	Run1	observe/STIM_003.jpg
668.55	0.899	correct	observe	Run1	observe/STIM_003.jpg
672.123	1.4	correct	observe	Run1	observe/STIM_004.jpg
675.911	0.795	correct	observe	Run1	observe/STIM_004.jpg
679.062	1.022	correct	observe	Run1	observe/STIM_004.jpg
682.286	0.868	correct	observe	Run1	observe/STIM_004.jpg
686.64	0.942	correct	observe	Run1	observe/STIM_005.jpg
689.664	1.409	correct	observe	Run1	observe/STIM_005.jpg
694.442	0.898	incorrect	observe	Run1	observe/STIM_005.jpg
698.635	1.198	correct	observe	Run1	observe/STIM_005.jpg
702.432	1.448	correct	observe	Run1	observe/STIM_006.jpg
707.439	1.054	correct	observe	Run1	observe/STIM_006.jpg
710.564	1.358	correct	observe	Run1	observe/STIM_006.jpg
714.29	1.079	correct	observe	Run1	observe/STIM_006.jpg
717.867	1.188	correct	observe	Run1	observe/STIM_007.jpg
722.0	0.897	correct	observe	Run1	observe/STIM_007.jpg
726.026	0.938	correct	observe	Run1	observe/STIM_007.jpg
728.978	1.411	correct	observe	Run1	observe/STIM_007.jpg
733.403	1.428	correct	observe	Run1	observe/STIM_008.jpg
737.466	1.178	correct	observe	Run1	observe/STIM_008.jpg
742.107	0.905	incorrect	observe	Run1	observe/STIM_008.jpg
745.791	0.753	correct	observe	Run1	observe/STIM_008.jpg
750.101	1.124	correct	observe	Run1	observe/STIM_009.jpg
753.489	1.066	correct	observe	Run1	observe/STIM_009.jpg
757.852	1.212	correct	observe	Run1	observe/STIM_009.jpg
762.241	1.183	correct	observe	Run1	observe/STIM_009.jpg
767.111	1.41	correct	observe	Run1	observe/STIM_010.jpg
770.649	1.034	correct	observe	Run1	observe/STIM_010.jpg
775.361	0.894	correct	observe	Run1	observe/STIM_010.jpg
779.753	1.41	correct	observe	Run1	observe/STIM_010.jpg
783.374	1.217	correct	observe	Run1	observe/STIM_011.jpg
788.49	1.05	incorrect	observe	Run1	observe/STIM_011.jpg
791.839	1.091	correct	observe	Run1	observe/STIM_011.jpg
795.62	0.935	incorrect	observe	Run1	observe/STIM_011.jpg
798.56	1.283	correct	observe	Run1	observe/STIM_012.jpg
801.906	0.742	correct	observe	Run1	observe/STIM_012.jpg
804.932	0.995	correct	observe	Run1	observe/STIM_012.jpg
809.467	0.953	correct	observe	Run1	observe/STIM_012.jpg
812.826	0.867	incorrect	observe	Run1	observe/STIM_013.jpg
817.291	0.94	correct	observe	Run1	observe/STIM_013.jpg
821.996	1.146	correct	observe	Run1	observe/STIM_013.jpg
826.977	1.003	incorrect	observe	Run1	observe/STIM_013.jpg
830.362	0.921	correct	observe	Run1	observe/STIM_014.jpg
835.194	1.197	correct	observe	Run1	observe/STIM_014.jpg
839.839	1.314	incorrect	observe	Run1	observe/STIM_014.jpg
843.986	1.447	correct	observe	Run1	observe/STIM_014.jpg
848.919	1.154	correct	observe	Run1	observe/STIM_015.jpg
853.84	1.156	incorrect	observe	Run1	observe/STIM_015.jpg
857.102	1.223	correct	observe	Run1	observe/STIM_015.jpg
861.337	0.802	correct	observe	Run1	observe/STIM_015.jpg
865.193	1.126	correct	observe	Run1	observe/STIM_016.jpg
869.589	1.019	correct	observe	Run1	observe/STIM_016.jpg
874.333	1.108	correct	observe	Run1	observe/STIM_016.jpg
878.44	1.275	incorrect	observe	Run1	observe/STIM_016.jpg
882.819	1.065	correct	observe	Run1	observe/STIM_017.jpg
887.817	1.24	correct	observe	Run1	observe/STIM_017.jpg
892.364	1.202	incorrect	observe	Run1	observe/STIM_017.jpg
895.818	0.856	correct	observe	Run1	observe/STIM_017.jpg
900.228	0.984	correct	observe	Run1	observe/STIM_018.jpg
904.079	1.402	correct	observe	Run1	observe/STIM_018.jpg
907.881	1.32	correct	observe	Run1	observe/STIM_018.jpg
911.333	0.758	correct	observe	Run1	observe/STIM_018.jpg
916.006	1.275	correct	observe	Run1	observe/STIM_019.jpg
919.622	1.127	correct	observe	Run1	observe/STIM_019.jpg
922.904	0.889	correct	observe	Run1	observe/STIM_019.jpg
926.66	0.842	correct	observe	Run1	observe/STIM_019.jpg
930.956	2.417	correct	regulate	Run2	regulate/STIM_000.jpg
935.754	2.339	correct	regulate	Run2	regulate/STIM_000.jpg
940.509	1.426	incorrect	regulate	Run2	regulate/STIM_000.jpg
944.229	2.213	correct	regulate	Run2	regulate/STIM_000.jpg
949.58	1.973	correct	regulate	Run2	regulate/STIM_001.jpg
955.494	1.269	correct	regulate	Run2	regulate/STIM_001.jpg
960.164	2.028	correct	regulate	Run2	regulate/STIM_001.jpg
965.014	1.164	correct	regulate	Run2	regulate/STIM_001.jpg
969.204	2.364	correct	regulate	Run2	regulate/STIM_002.jpg
974.394	1.95	correct	regulate	Run2	regulate/STIM_002.jpg
978.427	1.827	correct	regulate	Run2	regulate/STIM_002.jpg
982.472	1.709	correct	regulate	Run2	regulate/STIM_002.jpg
987.281	1.956	correct	regulate	Run2	regulate/STIM_003.jpg
992.497	2.481	correct	regulate	Run2	regulate/STIM_003.jpg
997.166	1.055	correct	regulate	Run2	regulate/STIM_003.jpg
1001.605	0.986	correct	regulate	Run2	regulate/STIM_003.jpg
1005.18	1.866	incorrect	regulate	Run2	regulate/STIM_004.jpg
1010.173	1.238	correct	regulate	Run2	regulate/STIM_004.jpg
1014.975	1.556	correct	regulate	Run2	regulate/STIM_004.jpg
1020.464	2.066	correct	regulate	Run2	regulate/STIM_004.jpg
1024.901	1.719	correct	regulate	Run2	regulate/STIM_005.jpg
1029.593	1.194	correct	regulate	Run2	regulate/STIM_005.jpg
1033.467	1.103	incorrect	regulate	Run2	regulate/STIM_005.jpg
1037.464	1.927	correct	regulate	Run2	regulate/STIM_005.jpg
1041.655	1.718	correct	regulate	Run2	regulate/STIM_006.jpg
1047.309	2.278	correct	regulate	Run2	regulate/STIM_006.jpg
1052.381	1.479	correct	regulate	Run2	regulate/STIM_006.jpg
1056.773	1.171	correct	regulate	Run2	regulate/STIM_006.jpg
1061.782	2.372	incorrect	regulate	Run2	regulate/STIM_007.jpg
1067.974	1.127	incorrect	regulate	Run2	regulate/STIM_007.jpg
1072.342	1.907	correct	regulate	Run2	regulate/STIM_007.jpg
1077.408	1.038	correct	regulate	Run2	regulate/STIM_007.jpg
1081.514	1.6	correct	regulate	Run2	regulate/STIM_008.jpg
1087.036	1.316	correct	regulate	Run2	regulate/STIM_008.jpg
1091.513	2.014	correct	regulate	Run2	regulate/STIM_008.jpg
1097.016	1.763	correct	regulate	Run2	regulate/STIM_008.jpg
1102.615	2.061	correct	regulate	Run2	regulate/STIM_009.jpg
1106.967	1.181	correct	regulate	Run2	regulate/STIM_009.jpg
1111.062	2.204	correct	regulate	Run2	regulate/STIM_009.jpg
1117.117	1.046	correct	regulate	Run2	regulate/STIM_009.jpg
1120.888	1.864	correct	regulate	Run2	regulate/STIM_010.jpg
1125.739	2.345	correct	regulate	Run2	regulate/STIM_010.jpg
1130.687	1.643	incorrect	regulate	Run2	regulate/STIM_010.jpg
1136.251	1.658	correct	regulate	Run2	regulate/STIM_010.jpg
1140.623	2.38	correct	regulate	Run2	regulate/STIM_011.jpg
1145.381	1.816	correct	regulate	Run2	regulate/STIM_011.jpg
1149.669	2.277	incorrect	regulate	Run2	regulate/STIM_011.jpg
1154.457	2.157	correct	regulate	Run2	regulate/STIM_011.jpg
1160.537	1.824	correct	regulate	Run2	regulate/STIM_012.jpg
1164.65	2.429	correct	regulate	Run2	regulate/STIM_012.jpg
1170.63	1.497	correct	regulate	Run2	regulate/STIM_012.jpg
1174.496	2.129	correct	regulate	Run2	regulate/STIM_012.jpg
1180.076	1.38	correct	regulate	Run2	regulate/STIM_013.jpg
1184.254	1.678	correct	regulate	Run2	regulate/STIM_013.jpg
1189.103	1.976	correct	regulate	Run2	regulate/STIM_013.jpg
1193.394	2.133	correct	regulate	Run2	regulate/STIM_013.jpg
1199.211	1.744	correct	regulate	Run2	regulate/STIM_014.jpg
1204.763	1.384	correct	regulate	Run2	regulate/STIM_014.jpg
1209.641	2.196	incorrect	regulate	Run2	regulate/STIM_014.jpg
1214.674	1.725	incorrect	regulate	Run2	regulate/STIM_014.jpg
1218.858	1.326	correct	regulate	Run2	regulate/STIM_015.jpg
1223.41	1.322	correct	regulate	Run2	regulate/STIM_015.jpg
1227.862	1.214	correct	regulate	Run2	regulate/STIM_015.jpg
1231.522	1.073	correct	regulate	Run2	regulate/STIM_015.jpg
1236.305	1.71	correct	regulate	Run2	regulate/STIM_016.jpg
1241.073	2.26	correct	regulate	Run2	regulate/STIM_016.jpg
1245.983	2.303	correct	regulate	Run2	regulate/STIM_016.jpg
1251.517	1.846	correct	regulate	Run2	regulate/STIM_016.jpg
1255.657	1.464	correct	regulate	Run2	regulate/STIM_017.jpg
1259.352	2.116	correct	regulate	Run2	regulate/STIM_017.jpg
1264.631	1.656	correct	regulate	Run2	regulate/STIM_017.jpg
1269.556	1.146	correct	regulate	Run2	regulate/STIM_017.jpg
1274.374	1.257	incorrect	regulate	Run2	regulate/STIM_018.jpg
1278.546	1.512	correct	regulate	Run2	regulate/STIM_018.jpg
1283.345	1.699	incorrect	regulate	Run2	regulate/STIM_018.jpg
1288.082	1.874	correct	regulate	Run2	regulate/STIM_018.jpg
1293.694	1.554	correct	regulate	Run2	regulate/STIM_019.jpg
1298.801	1.515	correct	regulate	Run2	regulate/STIM_019.jpg
1302.544	1.132	incorrect	regulate	Run2	regulate/STIM_019.jpg
1306.802	2.103	correct	regulate	Run2	regulate/STIM_019.jpg
1311.47	1.361	correct	regulate	Run2	regulate/STIM_020.jpg
1315.451	1.419	correct	regulate	Run2	regulate/STIM_020.jpg
1320.507	1.835	correct	regulate	Run2	regulate/STIM_020.jpg
1325.418	0.981	correct	regulate	Run2	regulate/STIM_020.jpg
1330.176	2.214	correct	regulate	Run2	regulate/STIM_021.jpg
1335.79	2.303	correct	regulate	Run2	regulate/STIM_021.jpg
1340.538	1.66	correct	regulate	Run2	regulate/STIM_021.jpg
1344.974	1.968	correct	regulate	Run2	regulate/STIM_021.jpg
1349.25	2.469	correct	regulate	Run2	regulate/STIM_022.jpg
1354.021	2.472	correct	regulate	Run2	regulate/STIM_022.jpg
1359.097	1.174	correct	regulate	Run2	regulate/STIM_022.jpg
1363.268	1.224	correct	regulate	Run2	regulate/STIM_022.jpg
1367.823	2.145	correct	regulate	Run2	regulate/STIM_023.jpg
1373.83	1.187	correct	regulate	Run2	regulate/STIM_023.jpg
1378.754	1.91	incorrect	regulate	Run2	regulate/STIM_023.jpg
1384.092	1.09	correct	regulate	Run2	regulate/STIM_023.jpg
1387.25	1.848	incorrect	regulate	Run2	regulate/STIM_024.jpg
1392.593	2.065	correct	regulate	Run2	regulate/STIM_024.jpg
1398.316	1.29	correct	regulate	Run2	regulate/STIM_024.jpg
1403.068	1.842	correct	regulate	Run2	regulate/STIM_024.jpg
1408.193	1.983	incorrect	regulate	Run2	regulate/STIM_025.jpg
1412.94	2.238	correct	regulate	Run2	regulate/STIM_025.jpg
1418.583	1.659	correct	regulate	Run2	regulate/STIM_025.jpg
1423.471	1.027	correct	regulate	Run2	regulate/STIM_025.jpg
1427.917	1.45	correct	regulate	Run2	regulate/STIM_026.jpg
1432.792	1.474	correct	regulate	Run2	regulate/STIM_026.jpg
1438.208	1.408	incorrect	regulate	Run2	regulate/STIM_026.jpg
1443.579	1.571	correct	regulate	Run2	regulate/STIM_026.jpg
1447.467	1.666	correct	regulate	Run2	regulate/STIM_027.jpg
1451.875	1.247	correct	regulate	Run2	regulate/STIM_027.jpg
1456.458	1.573	correct	regulate	Run2	regulate/STIM_027.jpg
1461.387	0.976	correct	regulate	Run2	regulate/STIM_027.jpg
1464.423	1.969	incorrect	regulate	Run2	regulate/STIM_028.jpg
1469.087	1.494	correct	regulate	Run2	regulate/STIM_028.jpg
1472.853	1.27	correct	regulate	Run2	regulate/STIM_028.jpg
1477.818	1.954	correct	regulate	Run2	regulate/STIM_028.jpg
1482.413	2.596	correct	regulate	Run2	regulate/STIM_029.jpg
1488.745	1.177	correct	regulate	Run2	regulate/STIM_029.jpg
1491.99	1.356	correct	regulate	Run2	regulate/STIM_029.jpg
1496.339	2.054	correct	regulate	Run2	regulate/STIM_029.jpg
1500.406	1.079	correct	observe	Run2	observe/STIM_000.jpg
1504.139	1.055	correct	observe	Run2	observe/STIM_000.jpg
1507.626	0.768	correct	observe	Run2	observe/STIM_000.jpg
1512.187	0.859	correct	observe	Run2	observe/STIM_000.jpg
1515.987	1.262	incorrect	observe	Run2	observe/STIM_001.jpg
1520.711	0.735	correct	observe	Run2	observe/STIM_001.jpg
1524.406	0.81	correct	observe	Run2	observe/STIM_001.jpg
1527.867	1.312	correct	observe	Run2	observe/STIM_001.jpg
1532.551	1.424	correct	observe	Run2	observe/STIM_002.jpg
1536.746	0.758	correct	observe	Run2	observe/STIM_002.jpg
1539.991	0.857	correct	observe	Run2	observe/STIM_002.jpg
1542.874	0.924	correct	observe	Run2	observe/STIM_002.jpg
1547.047	0.9	correct	observe	Run2	observe/STIM_003.jpg
1551.211	0.778	correct	observe	Run2	observe/STIM_003.jpg
1555.85	1.366	correct	observe	Run2	observe/STIM_003.jpg
1561.062	0.812	correct	observe	Run2	observe/STIM_003.jpg
1565.598	0.757	correct	observe	Run2	observe/STIM_004.jpg
1569.111	1.128	correct	observe	Run2	observe/STIM_004.jpg
1573.776	1.319	correct	observe	Run2	observe/STIM_004.jpg
1577.228	1.153	correct	observe	Run2	observe/STIM_004.jpg
1580.814	1.407	correct	observe	Run2	observe/STIM_005.jpg
1585.317	0.81	correct	observe	Run2	observe/STIM_005.jpg
1589.285	1.417	correct	observe	Run2	observe/STIM_005.jpg
1593.07	1.133	correct	observe	Run2	observe/STIM_005.jpg
1597.634	1.34	correct	observe	Run2	observe/STIM_006.jpg
1602.1	1.34	incorrect	observe	Run2	observe/STIM_006.jpg
1606.742	0.868	correct	observe	Run2	observe/STIM_006.jpg
1610.156	0.749	correct	observe	Run2	observe/STIM_006.jpg
1613.032	1.239	incorrect	observe	Run2	observe/STIM_007.jpg
1616.783	0.968	correct	observe	Run2	observe/STIM_007.jpg
1621.35	1.361	correct	observe	Run2	observe/STIM_007.jpg
1625.41	0.863	correct	observe	Run2	observe/STIM_007.jpg
1629.097	0.744	correct	observe	Run2	observe/STIM_008.jpg
1633.406	1.117	correct	observe	Run2	observe/STIM_008.jpg
1638.296	0.908	correct	observe	Run2	observe/STIM_008.jpg
1642.915	1.346	incorrect	observe	Run2	observe/STIM_008.jpg
1647.384	1.27	incorrect	observe	Run2	observe/STIM_009.jpg
1652.591	1.081	correct	observe	Run2	observe/STIM_009.jpg
1655.781	1.118	correct	observe	Run2	observe/STIM_009.jpg
1659.875	1.053	correct	observe	Run2	observe/STIM_009.jpg
1664.394	1.332	correct	observe	Run2	observe/STIM_010.jpg
1667.97	0.737	incorrect	observe	Run2	observe/STIM_010.jpg
1671.994	1.101	correct	observe	Run2	observe/STIM_010.jpg
1676.49	1.272	correct	observe	Run2	observe/STIM_010.jpg
1679.866	0.809	incorrect	observe	Run2	observe/STIM_011.jpg
1683.789	0.932	correct	observe	Run2	observe/STIM_011.jpg
1686.842	1.128	correct	observe	Run2	observe/STIM_011.jpg
1691.377	1.26	incorrect	observe	Run2	observe/STIM_011.jpg
1695.726	1.18	correct	observe	Run2	observe/STIM_012.jpg
1699.26	1.435	correct	observe	Run2	observe/STIM_012.jpg
1703.287	0.796	correct	observe	Run2	observe/STIM_012.jpg
1706.549	1.03	correct	observe	Run2	observe/STIM_012.jpg
1710.339	0.957	correct	observe	Run2	observe/STIM_013.jpg
1713.838	1.097	correct	observe	Run2	observe/STIM_013.jpg
1718.048	1.07	incorrect	observe	Run2	observe/STIM_013.jpg
1722.046	1.167	correct	observe	Run2	observe/STIM_013.jpg
1726.637	0.971	correct	observe	Run2	observe/STIM_014.jpg
1729.801	1.171	correct	observe	Run2	observe/STIM_014.jpg
1733.898	1.274	correct	observe	Run2	observe/STIM_014.jpg
1737.565	1.184	correct	observe	Run2	observe/STIM_014.jpg
1742.317	1.374	correct	observe	Run2	observe/STIM_015.jpg
1746.995	1.16	incorrect	observe	Run2	observe/STIM_015.jpg
1750.674	0.812	correct	observe	Run2	observe/STIM_015.jpg
1754.965	0.932	incorrect	observe	Run2	observe/STIM_015.jpg
1758.414	1.366	correct	observe	Run2	observe/STIM_016.jpg
1763.358	0.893	correct	observe	Run2	observe/STIM_016.jpg
1768.12	0.822	incorrect	observe	Run2	observe/STIM_016.jpg
1771.059	1.123	correct	observe	Run2	observe/STIM_016.jpg
1774.702	0.933	correct	observe	Run2	observe/STIM_017.jpg
1779.236	0.819	correct	observe	Run2	observe/STIM_017.jpg
1782.699	0.735	correct	observe	Run2	observe/STIM_017.jpg
1785.707	0.908	correct	observe	Run2	observe/STIM_017.jpg
1789.979	0.912	correct	observe	Run2	observe/STIM_018.jpg
1794.646	0.94	correct	observe	Run2	observe/STIM_018.jpg
1798.969	0.956	correct	observe	Run2	observe/STIM_018.jpg
1802.956	1.158	correct	observe	Run2	observe/STIM_018.jpg
1806.62	0.9	correct	observe	Run2	observe/STIM_019.jpg
1810.58	1.313	correct	observe	Run2	observe/STIM_019.jpg
1814.639	1.432	incorrect	observe	Run2	observe/STIM_019.jpg
1818.952	0.862	incorrect	observe	Run2	observe/STIM_019.jpg
1823.215	1.769	correct	regulate	Run3	regulate/STIM_000.jpg
1827.055	1.76	correct	regulate	Run3	regulate/STIM_000.jpg
1832.748	1.782	correct	regulate	Run3	regulate/STIM_000.jpg
1838.33	1.519	correct	regulate	Run3	regulate/STIM_000.jpg
1842.272	1.596	incorrect	regulate	Run3	regulate/STIM_001.jpg
1845.975	1.691	correct	regulate	Run3	regulate/STIM_001.jpg
1850.43	1.084	correct	regulate	Run3	regulate/STIM_001.jpg
1854.869	2.096	correct	regulate	Run3	regulate/STIM_001.jpg
1859.74	1.509	correct	regulate	Run3	regulate/STIM_002.jpg
1864.04	2.179	correct	regulate	Run3	regulate/STIM_002.jpg
1868.407	1.54	correct	regulate	Run3	regulate/STIM_002.jpg
1873.76	1.912	correct	regulate	Run3	regulate/STIM_002.jpg
1878.117	1.38	correct	regulate	Run3	regulate/STIM_003.jpg
1881.514	1.123	correct	regulate	Run3	regulate/STIM_003.jpg
1884.86	2.102	correct	regulate	Run3	regulate/STIM_003.jpg
1890.945	2.192	correct	regulate	Run3	regulate/STIM_003.jpg
1896.118	1.558	incorrect	regulate	Run3	regulate/STIM_004.jpg
1901.553	1.507	correct	regulate	Run3	regulate/STIM_004.jpg
1905.197	1.283	correct	regulate	Run3	regulate/STIM_004.jpg
1909.231	1.225	correct	regulate	Run3	regulate/STIM_004.jpg
1914.449	2.103	correct	regulate	Run3	regulate/STIM_005.jpg
1920.054	1.737	correct	regulate	Run3	regulate/STIM_005.jpg
1924.31	1.188	correct	regulate	Run3	regulate/STIM_005.jpg
1929.402	1.33	correct	regulate	Run3	regulate/STIM_005.jpg
1933.364	2.048	correct	regulate	Run3	regulate/STIM_006.jpg
1938.282	2.053	correct	regulate	Run3	regulate/STIM_006.jpg
1942.641	1.944	correct	regulate	Run3	regulate/STIM_006.jpg
1947.359	1.523	correct	regulate	Run3	regulate/STIM_006.jpg
1952.332	1.771	correct	regulate	Run3	regulate/STIM_007.jpg
1957.173	1.382	correct	regulate	Run3	regulate/STIM_007.jpg
1961.372	1.708	correct	regulate	Run3	regulate/STIM_007.jpg
1966.974	0.955	correct	regulate	Run3	regulate/STIM_007.jpg
1970.779	1.953	incorrect	regulate	Run3	regulate/STIM_008.jpg
1975.665	1.526	correct	regulate	Run3	regulate/STIM_008.jpg
1979.541	1.595	correct	regulate	Run3	regulate/STIM_008.jpg
1983.444	1.574	correct	regulate	Run3	regulate/STIM_008.jpg
1987.019	1.604	incorrect	regulate	Run3	regulate/STIM_009.jpg
1990.704	1.01	correct	regulate	Run3	regulate/STIM_009.jpg
1994.862	1.929	correct	regulate	Run3	regulate/STIM_009.jpg
1999.476	1.748	correct	regulate	Run3	regulate/STIM_009.jpg
2004.899	0.981	correct	regulate	Run3	regulate/STIM_010.jpg
2008.257	1.915	incorrect	regulate	Run3	regulate/STIM_010.jpg
2012.597	1.683	correct	regulate	Run3	regulate/STIM_010.jpg
2017.262	1.034	correct	regulate	Run3	regulate/STIM_010.jpg
2021.036	2.215	incorrect	regulate	Run3	regulate/STIM_011.jpg
2026.141	1.784	correct	regulate	Run3	regulate/STIM_011.jpg
2030.026	1.166	correct	regulate	Run3	regulate/STIM_011.jpg
2034.25	1.821	correct	regulate	Run3	regulate/STIM_011.jpg
2038.51	1.99	correct	regulate	Run3	regulate/STIM_012.jpg
2043.048	1.159	incorrect	regulate	Run3	regulate/STIM_012.jpg
2047.335	1.658	correct	regulate	Run3	regulate/STIM_012.jpg
2051.443	1.942	correct	regulate	Run3	regulate/STIM_012.jpg
2056.032	1.776	incorrect	regulate	Run3	regulate/STIM_013.jpg
2059.977	2.145	correct	regulate	Run3	regulate/STIM_013.jpg
2065.548	2.065	correct	regulate	Run3	regulate/STIM_013.jpg
2071.47	2.057	correct	regulate	Run3	regulate/STIM_013.jpg
2077.324	1.747	incorrect	regulate	Run3	regulate/STIM_014.jpg
2081.171	1.569	correct	regulate	Run3	regulate/STIM_014.jpg
2085.484	1.188	correct	regulate	Run3	regulate/STIM_014.jpg
2088.827	1.048	correct	regulate	Run3	regulate/STIM_014.jpg
2092.869	1.518	correct	regulate	Run3	regulate/STIM_015.jpg
2097.469	1.326	correct	regulate	Run3	regulate/STIM_015.jpg
2101.125	1.046	correct	regulate	Run3	regulate/STIM_015.jpg
2105.783	1.608	incorrect	regulate	Run3	regulate/STIM_015.jpg
2109.507	1.241	correct	regulate	Run3	regulate/STIM_016.jpg
2114.201	1.628	correct	regulate	Run3	regulate/STIM_016.jpg
2118.514	1.749	correct	regulate	Run3	regulate/STIM_016.jpg
2123.185	1.001	correct	regulate	Run3	regulate/STIM_016.jpg
2127.181	1.648	correct	regulate	Run3	regulate/STIM_017.jpg
2132.526	1.38	correct	regulate	Run3	regulate/STIM_017.jpg
2137.707	1.247	correct	regulate	Run3	regulate/STIM_017.jpg
2141.546	2.188	correct	regulate	Run3	regulate/STIM_017.jpg
2147.205	1.317	correct	regulate	Run3	regulate/STIM_018.jpg
2151.191	1.094	correct	regulate	Run3	regulate/STIM_018.jpg
2155.022	1.902	correct	regulate	Run3	regulate/STIM_018.jpg
2160.062	1.853	correct	regulate	Run3	regulate/STIM_018.jpg
2164.096	2.203	correct	regulate	Run3	regulate/STIM_019.jpg
2169.198	1.643	correct	regulate	Run3	regulate/STIM_019.jpg
2173.262	2.199	correct	regulate	Run3	regulate/STIM_019.jpg
2177.801	1.621	correct	regulate	Run3	regulate/STIM_019.jpg
2182.053	1.465	correct	regulate	Run3	regulate/STIM_020.jpg
2186.073	1.69	correct	regulate	Run3	regulate/STIM_020.jpg
2189.817	2.155	correct	regulate	Run3	regulate/STIM_020.jpg
2195.023	1.172	correct	regulate	Run3	regulate/STIM_020.jpg
2199.305	1.866	correct	regulate	Run3	regulate/STIM_021.jpg
2203.38	1.71	correct	regulate	Run3	regulate/STIM_021.jpg
2207.813	1.771	incorrect	regulate	Run3	regulate/STIM_021.jpg
2212.25	1.481	correct	regulate	Run3	regulate/STIM_021.jpg
2217.418	1.523	correct	regulate	Run3	regulate/STIM_022.jpg
2222.206	2.138	correct	regulate	Run3	regulate/STIM_022.jpg
2228.3	2.004	correct	regulate	Run3	regulate/STIM_022.jpg
2233.235	1.496	correct	regulate	Run3	regulate/STIM_022.jpg
2237.016	2.001	correct	regulate	Run3	regulate/STIM_023.jpg
2242.869	2.066	correct	regulate	Run3	regulate/STIM_023.jpg
2247.891	1.419	correct	regulate	Run3	regulate/STIM_023.jpg
2253.16	1.719	correct	regulate	Run3	regulate/STIM_023.jpg
2257.263	1.032	correct	regulate	Run3	regulate/STIM_024.jpg
2260.868	1.61	correct	regulate	Run3	regulate/STIM_024.jpg
2265.636	1.342	correct	regulate	Run3	regulate/STIM_024.jpg
2270.349	2.003	correct	regulate	Run3	regulate/STIM_024.jpg
2275.8	2.187	correct	regulate	Run3	regulate/STIM_025.jpg
2281.856	1.428	correct	regulate	Run3	regulate/STIM_025.jpg
2286.482	0.979	correct	regulate	Run3	regulate/STIM_025.jpg
2291.44	1.998	correct	regulate	Run3	regulate/STIM_025.jpg
2296.214	1.027	correct	regulate	Run3	regulate/STIM_026.jpg
2299.417	1.732	correct	regulate	Run3	regulate/STIM_026.jpg
2303.902	0.998	correct	regulate	Run3	regulate/STIM_026.jpg
2307.6	1.86	correct	regulate	Run3	regulate/STIM_026.jpg
2312.331	1.059	correct	regulate	Run3	regulate/STIM_027.jpg
2316.521	1.366	correct	regulate	Run3	regulate/STIM_027.jpg
2320.749	0.979	correct	regulate	Run3	regulate/STIM_027.jpg
2324.557	2.124	incorrect	regulate	Run3	regulate/STIM_027.jpg
2330.588	2.074	correct	regulate	Run3	regulate/STIM_028.jpg
2335.311	1.492	correct	regulate	Run3	regulate/STIM_028.jpg
2339.464	1.394	correct	regulate	Run3	regulate/STIM_028.jpg
2343.733	2.082	correct	regulate	Run3	regulate/STIM_028.jpg
2348.375	2.176	correct	regulate	Run3	regulate/STIM_029.jpg
2352.582	1.987	incorrect	regulate	Run3	regulate/STIM_029.jpg
2358.42	1.63	correct	regulate	Run3	regulate/STIM_029.jpg
2362.221	0.962	incorrect	regulate	Run3	regulate/STIM_029.jpg
2365.552	0.945	correct	observe	Run3	observe/STIM_000.jpg
2370.084	1.244	correct	observe	Run3	observe/STIM_000.jpg
2373.346	0.838	incorrect	observe	Run3	observe/STIM_000.jpg
2376.329	1.352	correct	observe	Run3	observe/STIM_000.jpg
2380.291	1.184	correct	observe	Run3	observe/STIM_001.jpg
2385.219	1.333	correct	observe	Run3	observe/STIM_001.jpg
2389.582	1.245	incorrect	observe	Run3	observe/STIM_001.jpg
2394.732	0.852	correct	observe	Run3	observe/STIM_001.jpg
2398.582	0.823	correct	observe	Run3	observe/STIM_002.jpg
2403.115	0.967	correct	observe	Run3	observe/STIM_002.jpg
2407.984	0.894	correct	observe	Run3	observe/STIM_002.jpg
2411.802	0.879	incorrect	observe	Run3	observe/STIM_002.jpg
2415.536	1.164	correct	observe	Run3	observe/STIM_003.jpg
2420.638	0.893	correct	observe	Run3	observe/STIM_003.jpg
2423.567	1.061	correct	observe	Run3	observe/STIM_003.jpg
2427.277	0.897	correct	observe	Run3	observe/STIM_003.jpg
2430.581	1.112	correct	observe	Run3	observe/STIM_004.jpg
2433.917	0.99	correct	observe	Run3	observe/STIM_004.jpg
2437.353	1.233	incorrect	observe	Run3	observe/STIM_004.jpg
2442.001	1.381	correct	observe	Run3	observe/STIM_004.jpg
2445.856	1.052	correct	observe	Run3	observe/STIM_005.jpg
2450.544	1.085	correct	observe	Run3	observe/STIM_005.jpg
2455.589	1.428	correct	observe	Run3	observe/STIM_005.jpg
2459.943	0.929	correct	observe	Run3	observe/STIM_005.jpg
2464.473	1.408	incorrect	observe	Run3	observe/STIM_006.jpg
2469.3	1.087	correct	observe	Run3	observe/STIM_006.jpg
2473.295	0.746	correct	observe	Run3	observe/STIM_006.jpg
2476.347	0.959	correct	observe	Run3	observe/STIM_006.jpg
2479.369	1.006	correct	observe	Run3	observe/STIM_007.jpg
2482.952	0.824	correct	observe	Run3	observe/STIM_007.jpg
2487.649	1.153	incorrect	observe	Run3	observe/STIM_007.jpg
2492.015	1.284	correct	observe	Run3	observe/STIM_007.jpg
2495.915	1.33	correct	observe	Run3	observe/STIM_008.jpg
2499.68	0.918	correct	observe	Run3	observe/STIM_008.jpg
2503.827	1.38	correct	observe	Run3	observe/STIM_008.jpg
2508.5	1.16	incorrect	observe	Run3	observe/STIM_008.jpg
2512.576	0.754	incorrect	observe	Run3	observe/STIM_009.jpg
2517.168	1.142	correct	observe	Run3	observe/STIM_009.jpg
2521.466	0.999	correct	observe	Run3	observe/STIM_009.jpg
2526.152	0.745	correct	observe	Run3	observe/STIM_009.jpg
2530.411	1.312	correct	observe	Run3	observe/STIM_010.jpg
2534.843	0.825	correct	observe	Run3	observe/STIM_010.jpg
2539.057	1.021	correct	observe	Run3	observe/STIM_010.jpg
2542.315	1.275	correct	observe	Run3	observe/STIM_010.jpg
2547.536	0.857	correct	observe	Run3	observe/STIM_011.jpg
2552.2	1.309	incorrect	observe	Run3	observe/STIM_011.jpg
2556.206	0.952	correct	observe	Run3	observe/STIM_011.jpg
2559.713	1.361	correct	observe	Run3	observe/STIM_011.jpg
2563.724	0.91	correct	observe	Run3	observe/STIM_012.jpg
2567.345	1.088	correct	observe	Run3	observe/STIM_012.jpg
2571.792	0.796	correct	observe	Run3	observe/STIM_012.jpg
2576.193	0.802	correct	observe	Run3	observe/STIM_012.jpg
2579.357	1.434	correct	observe	Run3	observe/STIM_013.jpg
2584.706	1.207	incorrect	observe	Run3	observe/STIM_013.jpg
2588.184	1.345	correct	observe	Run3	observe/STIM_013.jpg
2592.263	1.414	correct	observe	Run3	observe/STIM_013.jpg
2596.591	1.298	correct	observe	Run3	observe/STIM_014.jpg
2601.66	1.231	correct	observe	Run3	observe/STIM_014.jpg
2605.017	1.169	correct	observe	Run3	observe/STIM_014.jpg
2609.085	1.421	correct	observe	Run3	observe/STIM_014.jpg
2613.854	1.162	correct	observe	Run3	observe/STIM_015.jpg
2618.188	0.784	correct	observe	Run3	observe/STIM_015.jpg
2621.755	1.062	correct	observe	Run3	observe/STIM_015.jpg
2626.343	1.412	incorrect	observe	Run3	observe/STIM_015.jpg
2631.481	1.072	correct	observe	Run3	observe/STIM_016.jpg
2635.642	0.756	correct	observe	Run3	observe/STIM_016.jpg
2640.311	1.022	correct	observe	Run3	observe/STIM_016.jpg
2643.39	1.16	correct	observe	Run3	observe/STIM_016.jpg
2648.354	0.775	correct	observe	Run3	observe/STIM_017.jpg
2653.042	1.131	incorrect	observe	Run3	observe/STIM_017.jpg
2656.61	0.789	incorrect	observe	Run3	observe/STIM_017.jpg
2661.181	1.077	correct	observe	Run3	observe/STIM_017.jpg
2664.358	1.435	correct	observe	Run3	observe/STIM_018.jpg
2669.036	1.372	correct	observe	Run3	observe/STIM_018.jpg
2672.891	0.738	correct	observe	Run3	observe/STIM_018.jpg
2676.622	1.284	correct	observe	Run3	observe/STIM_018.jpg
2680.182	0.897	correct	observe	Run3	observe/STIM_019.jpg
2684.853	0.947	correct	observe	Run3	observe/STIM_019.jpg
2688.974	0.79	correct	observe	Run3	observe/STIM_019.jpg
2692.168	0.919	incorrect	observe	Run3	observe/STIM_019.jpg
