onset	duration	accuracy_binary	trial_type	learning_stage	stimulus
0.0	2.045	0	navigation	Trial1	navigation/STIM_000.jpg
4.425	4.053	1	navigation	Trial1	navigation/STIM_000.jpg
11.455	2.06	1	navigation	Trial1	navigation/STIM_000.jpg
16.596	3.145	1	navigation	Trial1	navigation/STIM_000.jpg
22.849	3.403	1	navigation	Trial1	navigation/STIM_000.jpg
29.93	1.324	1	navigation	Trial1	navigation/STIM_000.jpg
33.934	2.57	1	navigation	Trial1	navigation/STIM_001.jpg
38.896	3.736	0	navigation	Trial1	navigation/STIM_001.jpg
45.903	3.177	0	navigation	Trial1	navigation/STIM_001.jpg
52.032	1.517	1	navigation	Trial1	navigation/STIM_001.jpg
56.378	3.115	1	navigation	Trial1	navigation/STIM_001.jpg
62.177	1.39	0	navigation	Trial1	navigation/STIM_001.jpg
66.163	3.68	1	navigation	Trial1	navigation/STIM_002.jpg
73.051	3.37	1	navigation	Trial1	navigation/STIM_002.jpg
79.105	1.907	1	navigation	Trial1	navigation/STIM_002.jpg
83.377	3.501	1	navigation	Trial1	navigation/STIM_002.jpg
89.43	1.917	0	navigation	Trial1	navigation/STIM_002.jpg
93.808	1.73	1	navigation	Trial1	navigation/STIM_002.jpg
98.338	1.998	0	navigation	Trial1	navigation/STIM_003.jpg
103.152	1.685	1	navigation	Trial1	navigation/STIM_003.jpg
106.892	2.22	1	navigation	Trial1	navigation/STIM_003.jpg
112.525	3.523	1	navigation	Trial1	navigation/STIM_003.jpg
118.236	2.118	1	navigation	Trial1	navigation/STIM_003.jpg
122.392	2.113	1	navigation	Trial1	navigation/STIM_003.jpg
126.662	2.229	1	navigation	Trial1	navigation/STIM_004.jpg
132.714	2.273	1	navigation	Trial1	navigation/STIM_004.jpg
138.903	2.344	0	navigation	Trial1	navigation/STIM_004.jpg
145.0	2.229	1	navigation	Trial1	navigation/STIM_004.jpg
151.191	3.328	1	navigation	Trial1	navigation/STIM_004.jpg
157.771	3.15	0	navigation	Trial1	navigation/STIM_004.jpg
163.411	3.233	1	navigation	Trial1	navigation/STIM_005.jpg
170.258	2.105	1	navigation	Trial1	navigation/STIM_005.jpg
176.043	2.17	1	navigation	Trial1	navigation/STIM_005.jpg
180.928	2.463	1	navigation	Trial1	navigation/STIM_005.jpg
186.141	1.89	1	navigation	Trial1	navigation/STIM_005.jpg
190.753	1.839	0	navigation	Trial1	navigation/STIM_005.jpg
196.351	3.238	0	navigation	Trial1	navigation/STIM_006.jpg
202.013	4.058	1	navigation	Trial1	navigation/STIM_006.jpg
208.777	3.006	1	navigation	Trial1	navigation/STIM_006.jpg
214.722	3.629	1	navigation	Trial1	navigation/STIM_006.jpg
222.248	3.313	1	navigation	Trial1	navigation/STIM_006.jpg
228.786	2.115	1	navigation	Trial1	navigation/STIM_006.jpg
234.765	3.044	1	navigation	Trial1	navigation/STIM_007.jpg
241.55	3.586	1	navigation	Trial1	navigation/STIM_007.jpg
248.677	2.826	1	navigation	Trial1	navigation/STIM_007.jpg
254.226	2.921	1	navigation	Trial1	navigation/STIM_007.jpg
259.744	2.448	1	navigation	Trial1	navigation/STIM_007.jpg
265.584	1.604	1	navigation	Trial1	navigation/STIM_007.jpg
269.335	3.374	1	navigation	Trial1	navigation/STIM_008.jpg
275.061	3.396	1	navigation	Trial1	navigation/STIM_008.jpg
280.967	3.853	1	navigation	Trial1	navigation/STIM_008.jpg
287.117	3.334	0	navigation	Trial1	navigation/STIM_008.jpg
293.125	3.439	1	navigation	Trial1	navigation/STIM_008.jpg
298.792	2.182	1	navigation	Trial1	navigation/STIM_008.jpg
303.6	2.114	1	navigation	Trial1	navigation/STIM_009.jpg
308.762	2.991	0	navigation	Trial1	navigation/STIM_009.jpg
314.778	3.303	1	navigation	Trial1	navigation/STIM_009.jpg
320.659	2.123	1	navigation	Trial1	navigation/STIM_009.jpg
326.346	3.45	0	navigation	Trial1	navigation/STIM_009.jpg
331.798	2.009	1	navigation	Trial1	navigation/STIM_009.jpg
336.808	2.366	0	navigation	Trial1	navigation/STIM_010.jpg
342.206	2.473	1	navigation	Trial1	navigation/STIM_010.jpg
347.144	2.302	0	navigation	Trial1	navigation/STIM_010.jpg
353.339	2.498	1	navigation	Trial1	navigation/STIM_010.jpg
359.257	1.646	0	navigation	Trial1	navigation/STIM_010.jpg
364.609	1.368	1	navigation	Trial1	navigation/STIM_010.jpg
369.807	3.291	0	navigation	Trial1	navigation/STIM_011.jpg
376.211	3.986	1	navigation	Trial1	navigation/STIM_011.jpg
382.343	2.404	1	navigation	Trial1	navigation/STIM_011.jpg
387.834	1.957	1	navigation	Trial1	navigation/STIM_011.jpg
393.578	3.022	1	navigation	Trial1	navigation/STIM_011.jpg
400.376	2.933	1	navigation	Trial1	navigation/STIM_011.jpg
407.246	1.014	1	pointing	Trial1	pointing/STIM_000.jpg
411.881	1.073	1	pointing	Trial1	pointing/STIM_000.jpg
416.563	1.215	1	pointing	Trial1	pointing/STIM_000.jpg
420.564	0.812	1	pointing	Trial1	pointing/STIM_000.jpg
423.5	1.299	1	pointing	Trial1	pointing/STIM_000.jpg
426.901	0.747	1	pointing	Trial1	pointing/STIM_000.jpg
430.527	1.015	1	pointing	Trial1	pointing/STIM_001.jpg
433.917	0.852	1	pointing	Trial1	pointing/STIM_001.jpg
437.929	1.184	1	pointing	Trial1	pointing/STIM_001.jpg
442.794	1.258	1	pointing	Trial1	pointing/STIM_001.jpg
447.258	0.84	1	pointing	Trial1	pointing/STIM_001.jpg
450.974	1.062	1	pointing	Trial1	pointing/STIM_001.jpg
455.403	0.885	0	pointing	Trial1	pointing/STIM_002.jpg
459.581	0.848	1	pointing	Trial1	pointing/STIM_002.jpg
464.314	1.214	0	pointing	Trial1	pointing/STIM_002.jpg
469.051	1.218	1	pointing	Trial1	pointing/STIM_002.jpg
473.293	1.312	1	pointing	Trial1	pointing/STIM_002.jpg
476.895	0.914	1	pointing	Trial1	pointing/STIM_002.jpg
479.835	0.959	1	pointing	Trial1	pointing/STIM_003.jpg
483.622	1.245	1	pointing	Trial1	pointing/STIM_003.jpg
488.41	1.302	1	pointing	Trial1	pointing/STIM_003.jpg
492.396	1.06	0	pointing	Trial1	pointing/STIM_003.jpg
495.612	0.806	1	pointing	Trial1	pointing/STIM_003.jpg
499.98	1.266	1	pointing	Trial1	pointing/STIM_003.jpg
504.182	0.987	1	pointing	Trial1	pointing/STIM_004.jpg
508.77	1.162	1	pointing	Trial1	pointing/STIM_004.jpg
512.687	1.008	1	pointing	Trial1	pointing/STIM_004.jpg
517.347	0.818	1	pointing	Trial1	pointing/STIM_004.jpg
521.807	1.235	1	pointing	Trial1	pointing/STIM_004.jpg
526.959	1.047	1	pointing	Trial1	pointing/STIM_004.jpg
530.013	0.932	1	pointing	Trial1	pointing/STIM_005.jpg
534.131	1.182	1	pointing	Trial1	pointing/STIM_005.jpg
537.8	1.137	1	pointing	Trial1	pointing/STIM_005.jpg
542.154	1.304	1	pointing	Trial1	pointing/STIM_005.jpg
545.754	1.181	1	pointing	Trial1	pointing/STIM_005.jpg
550.467	1.282	1	pointing	Trial1	pointing/STIM_005.jpg
554.837	0.868	0	pointing	Trial1	pointing/STIM_006.jpg
557.969	0.947	1	pointing	Trial1	pointing/STIM_006.jpg
562.697	0.887	1	pointing	Trial1	pointing/STIM_006.jpg
567.508	0.928	1	pointing	Trial1	pointing/STIM_006.jpg
571.385	0.716	1	pointing	Trial1	pointing/STIM_006.jpg
574.292	1.219	1	pointing	Trial1	pointing/STIM_006.jpg
577.658	1.158	1	pointing	Trial1	pointing/STIM_007.jpg
581.952	1.137	1	pointing	Trial1	pointing/STIM_007.jpg
585.73	1.297	0	pointing	Trial1	pointing/STIM_007.jpg
589.83	0.802	1	pointing	Trial1	pointing/STIM_007.jpg
593.568	0.8	1	pointing	Trial1	pointing/STIM_007.jpg
597.581	0.973	1	pointing	Trial1	pointing/STIM_007.jpg
600.727	0.792	1	pointing	Trial1	pointing/STIM_008.jpg
603.94	0.821	1	pointing	Trial1	pointing/STIM_008.jpg
608.455	0.774	1	pointing	Trial1	pointing/STIM_008.jpg
612.192	1.201	1	pointing	Trial1	pointing/STIM_008.jpg
615.673	1.273	1	pointing	Trial1	pointing/STIM_008.jpg
620.571	1.082	1	pointing	Trial1	pointing/STIM_008.jpg
625.069	0.797	1	pointing	Trial1	pointing/STIM_009.jpg
629.014	0.753	1	pointing	Trial1	pointing/STIM_009.jpg
632.605	0.891	1	pointing	Trial1	pointing/STIM_009.jpg
636.331	1.104	1	pointing	Trial1	pointing/STIM_009.jpg
641.345	0.769	1	pointing	Trial1	pointing/STIM_009.jpg
644.405	0.839	1	pointing	Trial1	pointing/STIM_009.jpg
648.423	0.831	1	pointing	Trial1	pointing/STIM_010.jpg
652.511	0.905	0	pointing	Trial1	pointing/STIM_010.jpg
656.358	0.769	0	pointing	Trial1	pointing/STIM_010.jpg
660.956	1.14	1	pointing	Trial1	pointing/STIM_010.jpg
665.493	1.131	1	pointing	Trial1	pointing/STIM_010.jpg
669.115	1.287	0	pointing	Trial1	pointing/STIM_010.jpg
673.161	0.908	1	pointing	Trial1	pointing/STIM_011.jpg
677.712	1.139	1	pointing	Trial1	pointing/STIM_011.jpg
682.556	1.034	1	pointing	Trial1	pointing/STIM_011.jpg
687.44	0.844	0	pointing	Trial1	pointing/STIM_011.jpg
690.769	1.25	1	pointing	Trial1	pointing/STIM_011.jpg
694.635	0.707	1	pointing	Trial1	pointing/STIM_011.jpg
698.755	1.922	1	navigation	Trial2	navigation/STIM_000.jpg
703.52	3.013	0	navigation	Trial2	navigation/STIM_000.jpg
708.866	2.672	1	navigation	Trial2	navigation/STIM_000.jpg
714.459	1.692	1	navigation	Trial2	navigation/STIM_000.jpg
719.713	3.057	1	navigation	Trial2	navigation/STIM_000.jpg
726.371	2.761	1	navigation	Trial2	navigation/STIM_000.jpg
731.471	3.209	1	navigation	Trial2	navigation/STIM_001.jpg
737.001	3.446	1	navigation	Trial2	navigation/STIM_001.jpg
743.724	2.88	1	navigation	Trial2	navigation/STIM_001.jpg
749.686	2.244	1	navigation	Trial2	navigation/STIM_001.jpg
755.767	1.926	1	navigation	Trial2	navigation/STIM_001.jpg
760.397	3.062	1	navigation	Trial2	navigation/STIM_001.jpg
766.615	2.291	0	navigation	Trial2	navigation/STIM_002.jpg
772.648	2.078	1	navigation	Trial2	navigation/STIM_002.jpg
778.503	3.297	1	navigation	Trial2	navigation/STIM_002.jpg
784.869	2.616	1	navigation	Trial2	navigation/STIM_002.jpg
790.84	1.694	1	navigation	Trial2	navigation/STIM_002.jpg
796.061	2.123	1	navigation	Trial2	navigation/STIM_002.jpg
800.383	2.919	1	navigation	Trial2	navigation/STIM_003.jpg
806.673	1.69	1	navigation	Trial2	navigation/STIM_003.jpg
811.91	2.059	1	navigation	Trial2	navigation/STIM_003.jpg
816.547	1.408	1	navigation	Trial2	navigation/STIM_003.jpg
820.672	2.049	1	navigation	Trial2	navigation/STIM_003.jpg
824.915	1.419	1	navigation	Trial2	navigation/STIM_003.jpg
829.423	3.677	0	navigation	Trial2	navigation/STIM_004.jpg
836.265	1.892	1	navigation	Trial2	navigation/STIM_004.jpg
842.016	1.744	1	navigation	Trial2	navigation/STIM_004.jpg
846.131	2.8	1	navigation	Trial2	navigation/STIM_004.jpg
851.478	1.582	1	navigation	Trial2	navigation/STIM_004.jpg
856.455	1.686	1	navigation	Trial2	navigation/STIM_004.jpg
860.213	2.079	1	navigation	Trial2	navigation/STIM_005.jpg
865.38	1.458	0	navigation	Trial2	navigation/STIM_005.jpg
870.363	2.704	1	navigation	Trial2	navigation/STIM_005.jpg
875.797	2.709	0	navigation	Trial2	navigation/STIM_005.jpg
880.973	2.343	1	navigation	Trial2	navigation/STIM_005.jpg
885.481	1.279	1	navigation	Trial2	navigation/STIM_005.jpg
890.465	2.781	1	navigation	Trial2	navigation/STIM_006.jpg
895.697	1.842	0	navigation	Trial2	navigation/STIM_006.jpg
900.518	2.614	1	navigation	Trial2	navigation/STIM_006.jpg
905.414	2.892	0	navigation	Trial2	navigation/STIM_006.jpg
911.494	2.213	1	navigation	Trial2	navigation/STIM_006.jpg
916.985	2.09	0	navigation	Trial2	navigation/STIM_006.jpg
921.249	1.512	1	navigation	Trial2	navigation/STIM_007.jpg
926.42	1.865	1	navigation	Trial2	navigation/STIM_007.jpg
930.41	3.114	1	navigation	Trial2	navigation/STIM_007.jpg
937.405	1.319	1	navigation	Trial2	navigation/STIM_007.jpg
942.07	2.564	1	navigation	Trial2	navigation/STIM_007.jpg
946.786	2.174	1	navigation	Trial2	navigation/STIM_007.jpg
951.759	1.852	0	navigation	Trial2	navigation/STIM_008.jpg
956.552	3.031	1	navigation	Trial2	navigation/STIM_008.jpg
962.414	2.735	0	navigation	Trial2	navigation/STIM_008.jpg
967.44	3.031	1	navigation	Trial2	navigation/STIM_008.jpg
973.116	3.057	0	navigation	Trial2	navigation/STIM_008.jpg
978.33	1.836	1	navigation	Trial2	navigation/STIM_008.jpg
983.419	1.775	0	navigation	Trial2	navigation/STIM_009.jpg
987.875	2.924	1	navigation	Trial2	navigation/STIM_009.jpg
994.076	1.794	1	navigation	Trial2	navigation/STIM_009.jpg
998.73	1.352	1	navigation	Trial2	navigation/STIM_009.jpg
1002.691	1.82	1	navigation	Trial2	navigation/STIM_009.jpg
1007.768	1.613	1	navigation	Trial2	navigation/STIM_009.jpg
1011.789	1.695	1	navigation	Trial2	navigation/STIM_010.jpg
1016.991	1.672	0	navigation	Trial2	navigation/STIM_010.jpg
1022.663	2.671	1	navigation	Trial2	navigation/STIM_010.jpg
1029.265	1.993	1	navigation	Trial2	navigation/STIM_010.jpg
1034.009	2.734	1	navigation	Trial2	navigation/STIM_010.jpg
1040.708	1.407	1	navigation	Trial2	navigation/STIM_010.jpg
1045.721	2.189	1	navigation	Trial2	navigation/STIM_011.jpg
1051.47	2.7	1	navigation	Trial2	navigation/STIM_011.jpg
1056.95	1.451	1	navigation	Trial2	navigation/STIM_011.jpg
1062.126	2.288	1	navigation	Trial2	navigation/STIM_011.jpg
1067.54	1.915	1	navigation	Trial2	navigation/STIM_011.jpg
1071.585	2.608	1	navigation	Trial2	navigation/STIM_011.jpg
1077.596	0.743	1	pointing	Trial2	pointing/STIM_000.jpg
1080.486	1.257	1	pointing	Trial2	pointing/STIM_000.jpg
1084.05	1.02	1	pointing	Trial2	pointing/STIM_000.jpg
1087.754	0.928	1	pointing	Trial2	pointing/STIM_000.jpg
1091.568	0.843	1	pointing	Trial2	pointing/STIM_000.jpg
1094.642	1.31	0	pointing	Trial2	pointing/STIM_000.jpg
1098.923	1.295	1	pointing	Trial2	pointing/STIM_001.jpg
1103.138	1.144	1	pointing	Trial2	pointing/STIM_001.jpg
1107.622	0.808	1	pointing	Trial2	pointing/STIM_001.jpg
1112.074	1.058	1	pointing	Trial2	pointing/STIM_001.jpg
1115.203	0.764	1	pointing	Trial2	pointing/STIM_001.jpg
1119.167	0.708	1	pointing	Trial2	pointing/STIM_001.jpg
1122.753	1.106	1	pointing	Trial2	pointing/STIM_002.jpg
1126.593	0.786	1	pointing	Trial2	pointing/STIM_002.jpg
1130.314	0.794	1	pointing	Trial2	pointing/STIM_002.jpg
1134.957	0.921	0	pointing	Trial2	pointing/STIM_002.jpg
1138.662	0.769	1	pointing	Trial2	pointing/STIM_002.jpg
1143.237	1.163	1	pointing	Trial2	pointing/STIM_002.jpg
1146.819	1.25	1	pointing	Trial2	pointing/STIM_003.jpg
1151.064	0.835	1	pointing	Trial2	pointing/STIM_003.jpg
1154.324	1.25	0	pointing	Trial2	pointing/STIM_003.jpg
1158.715	0.746	1	pointing	Trial2	pointing/STIM_003.jpg
1162.257	1.105	1	pointing	Trial2	pointing/STIM_003.jpg
1165.56	0.726	1	pointing	Trial2	pointing/STIM_003.jpg
1169.89	0.709	1	pointing	Trial2	pointing/STIM_004.jpg
1173.507	0.787	1	pointing	Trial2	pointing/STIM_004.jpg
1177.21	0.981	1	pointing	Trial2	pointing/STIM_004.jpg
1181.274	1.03	1	pointing	Trial2	pointing/STIM_004.jpg
1184.747	1.214	1	pointing	Trial2	pointing/STIM_004.jpg
1188.236	1.126	1	pointing	Trial2	pointing/STIM_004.jpg
1192.976	1.303	1	pointing	Trial2	pointing/STIM_005.jpg
1196.711	1.206	1	pointing	Trial2	pointing/STIM_005.jpg
1200.709	0.884	0	pointing	Trial2	pointing/STIM_005.jpg
1205.466	0.823	1	pointing	Trial2	pointing/STIM_005.jpg
1209.496	1.159	1	pointing	Trial2	pointing/STIM_005.jpg
1214.541	1.084	1	pointing	Trial2	pointing/STIM_005.jpg
1217.821	1.01	1	pointing	Trial2	pointing/STIM_006.jpg
1221.593	0.817	0	pointing	Trial2	pointing/STIM_006.jpg
1224.713	0.763	0	pointing	Trial2	pointing/STIM_006.jpg
1229.07	1.277	1	pointing	Trial2	pointing/STIM_006.jpg
1232.738	1.316	1	pointing	Trial2	pointing/STIM_006.jpg
1236.648	1.299	1	pointing	Trial2	pointing/STIM_006.jpg
1241.667	1.24	1	pointing	Trial2	pointing/STIM_007.jpg
1245.22	1.098	1	pointing	Trial2	pointing/STIM_007.jpg
1250.094	1.104	1	pointing	Trial2	pointing/STIM_007.jpg
1254.625	1.279	1	pointing	Trial2	pointing/STIM_007.jpg
1258.19	0.718	1	pointing	Trial2	pointing/STIM_007.jpg
1261.07	0.914	1	pointing	Trial2	pointing/STIM_007.jpg
1264.818	1.163	1	pointing	Trial2	pointing/STIM_008.jpg
1269.531	1.14	0	pointing	Trial2	pointing/STIM_008.jpg
1274.448	0.748	1	pointing	Trial2	pointing/STIM_008.jpg
1278.81	0.924	1	pointing	Trial2	pointing/STIM_008.jpg
1282.65	1.215	1	pointing	Trial2	pointing/STIM_008.jpg
1287.463	1.243	1	pointing	Trial2	pointing/STIM_008.jpg
1292.4	1.104	1	pointing	Trial2	pointing/STIM_009.jpg
1295.92	0.99	1	pointing	Trial2	pointing/STIM_009.jpg
1299.713	1.291	1	pointing	Trial2	pointing/STIM_009.jpg
1304.212	0.941	1	pointing	Trial2	pointing/STIM_009.jpg
1309.106	1.18	1	pointing	Trial2	pointing/STIM_009.jpg
1313.352	0.874	1	pointing	Trial2	pointing/STIM_009.jpg
1318.042	1.008	1	pointing	Trial2	pointing/STIM_010.jpg
1322.86	1.309	1	pointing	Trial2	pointing/STIM_010.jpg
1328.102	0.926	0	pointing	Trial2	pointing/STIM_010.jpg
1331.565	1.304	0	pointing	Trial2	pointing/STIM_010.jpg
1336.286	1.184	1	pointing	Trial2	pointing/STIM_010.jpg
1339.929	0.996	1	pointing	Trial2	pointing/STIM_010.jpg
1344.361	1.302	1	pointing	Trial2	pointing/STIM_011.jpg
1348.792	0.814	1	pointing	Trial2	pointing/STIM_011.jpg
1352.663	1.003	1	pointing	Trial2	pointing/STIM_011.jpg
1356.519	1.263	1	pointing	Trial2	pointing/STIM_011.jpg
1361.169	0.745	1	pointing	Trial2	pointing/STIM_011.jpg
1365.094	0.773	1	pointing	Trial2	pointing/STIM_011.jpg
1369.207	1.949	0	navigation	Trial3	navigation/STIM_000.jpg
1373.896	2.369	1	navigation	Trial3	navigation/STIM_000.jpg
1378.294	1.723	1	navigation	Trial3	navigation/STIM_000.jpg
1382.145	1.677	1	navigation	Trial3	navigation/STIM_000.jpg
1387.624	2.872	1	navigation	Trial3	navigation/STIM_000.jpg
1393.765	2.404	1	navigation	Trial3	navigation/STIM_000.jpg
1398.845	1.716	0	navigation	Trial3	navigation/STIM_001.jpg
1403.188	2.189	1	navigation	Trial3	navigation/STIM_001.jpg
1409.336	1.452	1	navigation	Trial3	navigation/STIM_001.jpg
1413.189	2.396	1	navigation	Trial3	navigation/STIM_001.jpg
1417.811	1.592	1	navigation	Trial3	navigation/STIM_001.jpg
1422.499	1.328	1	navigation	Trial3	navigation/STIM_001.jpg
1427.102	1.308	0	navigation	Trial3	navigation/STIM_002.jpg
1431.79	1.395	1	navigation	Trial3	navigation/STIM_002.jpg
1435.786	1.51	1	navigation	Trial3	navigation/STIM_002.jpg
1439.991	1.238	1	navigation	Trial3	navigation/STIM_002.jpg
1444.126	2.051	1	navigation	Trial3	navigation/STIM_002.jpg
1449.238	1.69	1	navigation	Trial3	navigation/STIM_002.jpg
1454.89	2.649	0	navigation	Trial3	navigation/STIM_003.jpg
1459.83	1.634	1	navigation	Trial3	navigation/STIM_003.jpg
1463.74	1.533	1	navigation	Trial3	navigation/STIM_003.jpg
1468.912	2.083	1	navigation	Trial3	navigation/STIM_003.jpg
1474.832	2.905	1	navigation	Trial3	navigation/STIM_003.jpg
1480.136	1.4	1	navigation	Trial3	navigation/STIM_003.jpg
1485.499	1.443	1	navigation	Trial3	navigation/STIM_004.jpg
1489.702	2.791	1	navigation	Trial3	navigation/STIM_004.jpg
1494.607	1.365	1	navigation	Trial3	navigation/STIM_004.jpg
1499.682	2.346	1	navigation	Trial3	navigation/STIM_004.jpg
1504.101	1.932	1	navigation	Trial3	navigation/STIM_004.jpg
1508.608	2.187	1	navigation	Trial3	navigation/STIM_004.jpg
1513.302	1.47	0	navigation	Trial3	navigation/STIM_005.jpg
1518.145	1.879	1	navigation	Trial3	navigation/STIM_005.jpg
1523.74	2.792	1	navigation	Trial3	navigation/STIM_005.jpg
1530.109	2.828	1	navigation	Trial3	navigation/STIM_005.jpg
1535.401	2.938	1	navigation	Trial3	navigation/STIM_005.jpg
1540.732	2.874	1	navigation	Trial3	navigation/STIM_005.jpg
1547.555	1.671	0	navigation	Trial3	navigation/STIM_006.jpg
1552.886	2.378	1	navigation	Trial3	navigation/STIM_006.jpg
1558.472	1.459	1	navigation	Trial3	navigation/STIM_006.jpg
1563.317	1.448	1	navigation	Trial3	navigation/STIM_006.jpg
1567.921	2.14	1	navigation	Trial3	navigation/STIM_006.jpg
1573.774	2.276	1	navigation	Trial3	navigation/STIM_006.jpg
1578.258	1.897	1	navigation	Trial3	navigation/STIM_007.jpg
1583.551	2.245	1	navigation	Trial3	navigation/STIM_007.jpg
1589.744	2.948	1	navigation	Trial3	navigation/STIM_007.jpg
1595.35	2.124	1	navigation	Trial3	navigation/STIM_007.jpg
1600.015	2.893	1	navigation	Trial3	navigation/STIM_007.jpg
1604.973	2.832	1	navigation	Trial3	navigation/STIM_007.jpg
1611.419	2.363	0	navigation	Trial3	navigation/STIM_008.jpg
1616.952	2.761	1	navigation	Trial3	navigation/STIM_008.jpg
1623.245	2.654	1	navigation	Trial3	navigation/STIM_008.jpg
1629.454	1.87	1	navigation	Trial3	navigation/STIM_008.jpg
1634.078	2.402	1	navigation	Trial3	navigation/STIM_008.jpg
1639.168	1.624	1	navigation	Trial3	navigation/STIM_008.jpg
1643.726	2.313	1	navigation	Trial3	navigation/STIM_009.jpg
1648.275	2.611	1	navigation	Trial3	navigation/STIM_009.jpg
1654.767	2.628	1	navigation	Trial3	navigation/STIM_009.jpg
1660.444	2.757	1	navigation	Trial3	navigation/STIM_009.jpg
1666.357	1.364	1	navigation	Trial3	navigation/STIM_009.jpg
1671.671	2.237	1	navigation	Trial3	navigation/STIM_009.jpg
1677.839	2.414	1	navigation	Trial3	navigation/STIM_010.jpg
1682.815	2.437	1	navigation	Trial3	navigation/STIM_010.jpg
1687.741	3.012	1	navigation	Trial3	navigation/STIM_010.jpg
1693.782	2.049	1	navigation	Trial3	navigation/STIM_010.jpg
1698.529	2.072	1	navigation	Trial3	navigation/STIM_010.jpg
1702.835	1.814	1	navigation	Trial3	navigation/STIM_010.jpg
1707.979	1.6	1	navigation	Trial3	navigation/STIM_011.jpg
1712.351	2.982	0	navigation	Trial3	navigation/STIM_011.jpg
1717.788	2.482	1	navigation	Trial3	navigation/STIM_011.jpg
1722.849	2.972	0	navigation	Trial3	navigation/STIM_011.jpg
1729.562	2.344	1	navigation	Trial3	navigation/STIM_011.jpg
1735.198	1.548	0	navigation	Trial3	navigation/STIM_011.jpg
1740.04	1.245	1	pointing	Trial3	pointing/STIM_000.jpg
1743.502	0.926	1	pointing	Trial3	pointing/STIM_000.jpg
1746.608	1.097	1	pointing	Trial3	pointing/STIM_000.jpg
1750.807	1.092	1	pointing	Trial3	pointing/STIM_000.jpg
1753.977	1.196	1	pointing	Trial3	pointing/STIM_000.jpg
1757.46	1.256	1	pointing	Trial3	pointing/STIM_000.jpg
1762.486	1.262	1	pointing	Trial3	pointing/STIM_001.jpg
1766.622	1.301	1	pointing	Trial3	pointing/STIM_001.jpg
1770.915	0.949	0	pointing	Trial3	pointing/STIM_001.jpg
1774.335	0.808	1	pointing	Trial3	pointing/STIM_001.jpg
1777.272	0.707	1	pointing	Trial3	pointing/STIM_001.jpg
1781.941	0.743	1	pointing	Trial3	pointing/STIM_001.jpg
1786.165	0.947	1	pointing	Trial3	pointing/STIM_002.jpg
1790.042	0.827	1	pointing	Trial3	pointing/STIM_002.jpg
1793.156	0.946	1	pointing	Trial3	pointing/STIM_002.jpg
1797.05	0.917	1	pointing	Trial3	pointing/STIM_002.jpg
1801.938	1.153	1	pointing	Trial3	pointing/STIM_002.jpg
1806.472	1.322	1	pointing	Trial3	pointing/STIM_002.jpg
1810.289	0.963	1	pointing	Trial3	pointing/STIM_003.jpg
1814.213	1.241	0	pointing	Trial3	pointing/STIM_003.jpg
1818.113	1.014	1	pointing	Trial3	pointing/STIM_003.jpg
1823.054	0.971	1	pointing	Trial3	pointing/STIM_003.jpg
1827.353	0.952	0	pointing	Trial3	pointing/STIM_003.jpg
1830.515	1.039	1	pointing	Trial3	pointing/STIM_003.jpg
1834.727	1.236	1	pointing	Trial3	pointing/STIM_004.jpg
1838.931	1.04	1	pointing	Trial3	pointing/STIM_004.jpg
1843.938	0.805	1	pointing	Trial3	pointing/STIM_004.jpg
1847.808	1.296	1	pointing	Trial3	pointing/STIM_004.jpg
1852.088	1.131	1	pointing	Trial3	pointing/STIM_004.jpg
1856.612	0.938	1	pointing	Trial3	pointing/STIM_004.jpg
1860.672	1.23	1	pointing	Trial3	pointing/STIM_005.jpg
1864.221	1.219	1	pointing	Trial3	pointing/STIM_005.jpg
1869.199	1.112	1	pointing	Trial3	pointing/STIM_005.jpg
1873.611	0.84	1	pointing	Trial3	pointing/STIM_005.jpg
1876.533	1.234	1	pointing	Trial3	pointing/STIM_005.jpg
1880.461	1.212	1	pointing	Trial3	pointing/STIM_005.jpg
1884.217	0.799	1	pointing	Trial3	pointing/STIM_006.jpg
1887.113	0.98	1	pointing	Trial3	pointing/STIM_006.jpg
1890.727	1.1	0	pointing	Trial3	pointing/STIM_006.jpg
1895.046	1.106	0	pointing	Trial3	pointing/STIM_006.jpg
1899.443	1.077	1	pointing	Trial3	pointing/STIM_006.jpg
1902.88	0.931	1	pointing	Trial3	pointing/STIM_006.jpg
1906.083	0.796	0	pointing	Trial3	pointing/STIM_007.jpg
1909.409	0.722	0	pointing	Trial3	pointing/STIM_007.jpg
1912.969	0.764	1	pointing	Trial3	pointing/STIM_007.jpg
1917.689	1.305	0	pointing	Trial3	pointing/STIM_007.jpg
1921.487	0.927	1	pointing	Trial3	pointing/STIM_007.jpg
1924.473	1.309	1	pointing	Trial3	pointing/STIM_007.jpg
1928.452	0.778	1	pointing	Trial3	pointing/STIM_008.jpg
1932.857	0.79	0	pointing	Trial3	pointing/STIM_008.jpg
1937.063	0.823	1	pointing	Trial3	pointing/STIM_008.jpg
1940.035	1.315	1	pointing	Trial3	pointing/STIM_008.jpg
1944.033	1.258	0	pointing	Trial3	pointing/STIM_008.jpg
1947.636	1.012	1	pointing	Trial3	pointing/STIM_008.jpg
1950.713	0.797	1	pointing	Trial3	pointing/STIM_009.jpg
1954.413	0.948	1	pointing	Trial3	pointing/STIM_009.jpg
1957.381	0.867	1	pointing	Trial3	pointing/STIM_009.jpg
1961.746	0.722	1	pointing	Trial3	pointing/STIM_009.jpg
1965.787	0.976	1	pointing	Trial3	pointing/STIM_009.jpg
1970.704	1.138	1	pointing	Trial3	pointing/STIM_009.jpg
1975.262	0.883	1	pointing	Trial3	pointing/STIM_010.jpg
1978.306	0.924	1	pointing	Trial3	pointing/STIM_010.jpg
1982.634	0.915	1	pointing	Trial3	pointing/STIM_010.jpg
1987.251	1.228	0	pointing	Trial3	pointing/STIM_010.jpg
1991.983	0.843	1	pointing	Trial3	pointing/STIM_010.jpg
1996.756	0.85	1	pointing	Trial3	pointing/STIM_010.jpg
2000.933	0.842	1	pointing	Trial3	pointing/STIM_011.jpg
2004.994	1.126	1	pointing	Trial3	pointing/STIM_011.jpg
2008.9	1.052	1	pointing	Trial3	pointing/STIM_011.jpg
2013.612	1.125	1	pointing	Trial3	pointing/STIM_011.jpg
2017.703	0.817	1	pointing	Trial3	pointing/STIM_011.jpg
2021.872	0.974	1	pointing	Trial3	pointing/STIM_011.jpg
