onset	duration	response_time_ms	trial_type	learning_stage	stimulus	response_port
0.0	3.777	3777.3	navigation	Trial1	navigation/STIM_000.jpg	99
7.437	3.428	3428.4	navigation	Trial1	navigation/STIM_000.jpg	100
14.811	2.827	2826.9	navigation	Trial1	navigation/STIM_000.jpg	99
20.219	3.484	3484.0	navigation	Trial1	navigation/STIM_000.jpg	99
27.411	3.495	3494.9	navigation	Trial1	navigation/STIM_000.jpg	99
35.257	2.672	2672.2	navigation	Trial1	navigation/STIM_000.jpg	100
41.47	4.057	4057.3	navigation	Trial1	navigation/STIM_001.jpg	100
48.934	1.847	1846.8	navigation	Trial1	navigation/STIM_001.jpg	100
53.868	3.357	3357.4	navigation	Trial1	navigation/STIM_001.jpg	99
59.907	2.662	2662.3	navigation	Trial1	navigation/STIM_001.jpg	100
66.886	3.298	3298.4	navigation	Trial1	navigation/STIM_001.jpg	99
73.264	2.867	2866.9	navigation	Trial1	navigation/STIM_001.jpg	100
79.142	4.387	4387.3	navigation	Trial1	navigation/STIM_002.jpg	99
86.253	3.59	3590.5	navigation	Trial1	navigation/STIM_002.jpg	99
93.25	2.164	2163.5	navigation	Trial1	navigation/STIM_002.jpg	99
97.795	2.826	2826.1	navigation	Trial1	navigation/STIM_002.jpg	99
104.369	1.642	1642.3	navigation	Trial1	navigation/STIM_002.jpg	100
109.778	2.304	2303.9	navigation	Trial1	navigation/STIM_002.jpg	100
115.325	4.348	4348.0	navigation	Trial1	navigation/STIM_003.jpg	100
123.96	1.732	1732.4	navigation	Trial1	navigation/STIM_003.jpg	99
128.041	3.763	3762.6	navigation	Trial1	navigation/STIM_003.jpg	99
135.99	1.515	1514.9	navigation	Trial1	navigation/STIM_003.jpg	99
141.63	1.588	1587.5	navigation	Trial1	navigation/STIM_003.jpg	99
145.573	2.24	2240.3	navigation	Trial1	navigation/STIM_003.jpg	99
150.863	3.069	3069.2	navigation	Trial1	navigation/STIM_004.jpg	100
157.633	3.63	3629.9	navigation	Trial1	navigation/STIM_004.jpg	99
164.051	2.98	2980.4	navigation	Trial1	navigation/STIM_004.jpg	100
170.981	1.791	1791.4	navigation	Trial1	navigation/STIM_004.jpg	100
176.799	2.213	2212.6	navigation	Trial1	navigation/STIM_004.jpg	100
181.532	1.871	1871.4	navigation	Trial1	navigation/STIM_004.jpg	99
186.384	2.916	2915.6	navigation	Trial1	navigation/STIM_005.jpg	99
192.604	4.098	4098.0	navigation	Trial1	navigation/STIM_005.jpg	99
200.981	2.727	2727.3	navigation	Trial1	navigation/STIM_005.jpg	100
206.404	2.886	2886.5	navigation	Trial1	navigation/STIM_005.jpg	99
213.192	3.4	3400.4	navigation	Trial1	navigation/STIM_005.jpg	99
220.264	3.141	3140.9	navigation	Trial1	navigation/STIM_005.jpg	100
227.631	2.446	2446.3	navigation	Trial1	navigation/STIM_006.jpg	99
232.409	3.728	3727.8	navigation	Trial1	navigation/STIM_006.jpg	100
238.87	2.613	2612.7	navigation	Trial1	navigation/STIM_006.jpg	99
245.278	2.117	2116.6	navigation	Trial1	navigation/STIM_006.jpg	99
250.261	1.482	1482.2	navigation	Trial1	navigation/STIM_006.jpg	99
255.638	2.401	2400.6	navigation	Trial1	navigation/STIM_006.jpg	100
262.084	4.015	4015.3	navigation	Trial1	navigation/STIM_007.jpg	100
270.58	2.685	2685.0	navigation	Trial1	navigation/STIM_007.jpg	99
276.215	1.881	1881.0	navigation	Trial1	navigation/STIM_007.jpg	99
280.388	3.349	3349.2	navigation	Trial1	navigation/STIM_007.jpg	99
287.315	2.845	2844.6	navigation	Trial1	navigation/STIM_007.jpg	99
294.416	2.464	2464.4	navigation	Trial1	navigation/STIM_007.jpg	99
300.554	2.185	2184.6	navigation	Trial1	navigation/STIM_008.jpg	100
305.966	3.849	3848.8	navigation	Trial1	navigation/STIM_008.jpg	99
314.284	3.039	3039.0	navigation	Trial1	navigation/STIM_008.jpg	99
320.069	2.594	2594.1	navigation	Trial1	navigation/STIM_008.jpg	100
326.821	2.27	2269.6	navigation	Trial1	navigation/STIM_008.jpg	100
332.909	3.301	3301.3	navigation	Trial1	navigation/STIM_008.jpg	99
338.938	2.657	2657.1	navigation	Trial1	navigation/STIM_009.jpg	99
344.71	4.034	4034.3	navigation	Trial1	navigation/STIM_009.jpg	99
352.411	3.788	3788.3	navigation	Trial1	navigation/STIM_009.jpg	100
359.828	3.539	3539.4	navigation	Trial1	navigation/STIM_009.jpg	99
365.987	1.834	1834.2	navigation	Trial1	navigation/STIM_009.jpg	100
370.734	2.369	2368.8	navigation	Trial1	navigation/STIM_009.jpg	100
376.374	3.297	3296.7	navigation	Trial1	navigation/STIM_010.jpg	100
382.657	3.129	3128.9	navigation	Trial1	navigation/STIM_010.jpg	100
388.29	3.431	3430.9	navigation	Trial1	navigation/STIM_010.jpg	99
396.154	3.104	3103.6	navigation	Trial1	navigation/STIM_010.jpg	100
402.265	1.436	1435.5	navigation	Trial1	navigation/STIM_010.jpg	100
407.025	2.938	2937.9	navigation	Trial1	navigation/STIM_010.jpg	99
412.545	4.014	4013.6	navigation	Trial1	navigation/STIM_011.jpg	100
420.89	2.376	2376.0	navigation	Trial1	navigation/STIM_011.jpg	100
426.484	1.65	1649.5	navigation	Trial1	navigation/STIM_011.jpg	100
431.165	2.713	2713.3	navigation	Trial1	navigation/STIM_011.jpg	100
437.795	2.014	2014.3	navigation	Trial1	navigation/STIM_011.jpg	100
442.397	1.79	1790.2	navigation	Trial1	navigation/STIM_011.jpg	99
448.233	0.732	732.5	pointing	Trial1	pointing/STIM_000.jpg	100
451.115	1.267	1267.3	pointing	Trial1	pointing/STIM_000.jpg	99
456.47	0.926	925.7	pointing	Trial1	pointing/STIM_000.jpg	99
459.867	1.312	1312.0	pointing	Trial1	pointing/STIM_000.jpg	100
464.814	0.893	893.1	pointing	Trial1	pointing/STIM_000.jpg	99
469.144	0.773	772.9	pointing	Trial1	pointing/STIM_000.jpg	100
472.625	1.309	1309.1	pointing	Trial1	pointing/STIM_001.jpg	99
477.632	0.756	756.3	pointing	Trial1	pointing/STIM_001.jpg	99
482.013	1.173	1172.7	pointing	Trial1	pointing/STIM_001.jpg	99
487.153	0.837	837.1	pointing	Trial1	pointing/STIM_001.jpg	99
491.058	1.022	1022.5	pointing	Trial1	pointing/STIM_001.jpg	99
495.334	0.777	777.0	pointing	Trial1	pointing/STIM_001.jpg	99
500.112	0.711	711.4	pointing	Trial1	pointing/STIM_002.jpg	99
504.886	1.165	1165.4	pointing	Trial1	pointing/STIM_002.jpg	100
508.343	1.225	1225.3	pointing	Trial1	pointing/STIM_002.jpg	100
513.156	1.21	1210.3	pointing	Trial1	pointing/STIM_002.jpg	99
518.032	0.729	729.4	pointing	Trial1	pointing/STIM_002.jpg	100
521.91	1.202	1201.6	pointing	Trial1	pointing/STIM_002.jpg	99
526.921	0.951	951.3	pointing	Trial1	pointing/STIM_003.jpg	99
531.52	0.788	787.6	pointing	Trial1	pointing/STIM_003.jpg	99
535.965	0.765	765.1	pointing	Trial1	pointing/STIM_003.jpg	99
539.865	1.077	1076.6	pointing	Trial1	pointing/STIM_003.jpg	100
543.764	1.011	1011.0	pointing	Trial1	pointing/STIM_003.jpg	100
547.152	1.041	1041.2	pointing	Trial1	pointing/STIM_003.jpg	100
551.623	1.324	1323.9	pointing	Trial1	pointing/STIM_004.jpg	99
556.698	1.131	1131.3	pointing	Trial1	pointing/STIM_004.jpg	99
560.887	1.063	1062.9	pointing	Trial1	pointing/STIM_004.jpg	100
565.388	1.15	1149.9	pointing	Trial1	pointing/STIM_004.jpg	100
569.644	0.751	750.6	pointing	Trial1	pointing/STIM_004.jpg	100
574.429	1.093	1092.9	pointing	Trial1	pointing/STIM_004.jpg	99
578.042	1.022	1022.2	pointing	Trial1	pointing/STIM_005.jpg	99
582.538	1.046	1046.1	pointing	Trial1	pointing/STIM_005.jpg	100
586.043	1.207	1206.7	pointing	Trial1	pointing/STIM_005.jpg	100
590.732	1.158	1158.0	pointing	Trial1	pointing/STIM_005.jpg	99
595.599	0.791	790.7	pointing	Trial1	pointing/STIM_005.jpg	99
599.759	1.225	1224.9	pointing	Trial1	pointing/STIM_005.jpg	99
603.801	0.866	866.1	pointing	Trial1	pointing/STIM_006.jpg	100
608.554	1.052	1051.5	pointing	Trial1	pointing/STIM_006.jpg	100
612.11	1.303	1303.4	pointing	Trial1	pointing/STIM_006.jpg	99
616.402	1.242	1242.1	pointing	Trial1	pointing/STIM_006.jpg	99
620.772	1.188	1187.6	pointing	Trial1	pointing/STIM_006.jpg	100
624.941	1.244	1243.9	pointing	Trial1	pointing/STIM_006.jpg	100
629.22	0.944	944.2	pointing	Trial1	pointing/STIM_007.jpg	99
632.969	1.202	1201.5	pointing	Trial1	pointing/STIM_007.jpg	99
636.512	0.885	884.9	pointing	Trial1	pointing/STIM_007.jpg	100
640.501	1.062	1061.9	pointing	Trial1	pointing/STIM_007.jpg	99
644.678	0.715	715.1	pointing	Trial1	pointing/STIM_007.jpg	100
649.304	1.165	1164.9	pointing	Trial1	pointing/STIM_007.jpg	100
652.968	1.058	1058.0	pointing	Trial1	pointing/STIM_008.jpg	99
656.678	1.258	1258.5	pointing	Trial1	pointing/STIM_008.jpg	99
660.683	1.324	1324.4	pointing	Trial1	pointing/STIM_008.jpg	100
664.902	1.309	1309.4	pointing	Trial1	pointing/STIM_008.jpg	100
669.682	1.016	1016.4	pointing	Trial1	pointing/STIM_008.jpg	100
673.039	0.834	834.0	pointing	Trial1	pointing/STIM_008.jpg	99
676.747	0.733	733.4	pointing	Trial1	pointing/STIM_009.jpg	100
680.732	1.308	1307.6	pointing	Trial1	pointing/STIM_009.jpg	100
684.499	1.059	1058.9	pointing	Trial1	pointing/STIM_009.jpg	100
688.034	1.18	1180.1	pointing	Trial1	pointing/STIM_009.jpg	99
693.217	0.783	782.7	pointing	Trial1	pointing/STIM_009.jpg	100
697.54	1.093	1093.4	pointing	Trial1	pointing/STIM_009.jpg	100
701.756	0.763	763.0	pointing	Trial1	pointing/STIM_010.jpg	100
705.482	0.812	811.7	pointing	Trial1	pointing/STIM_010.jpg	100
708.868	0.876	876.2	pointing	Trial1	pointing/STIM_010.jpg	99
712.275	1.187	1186.9	pointing	Trial1	pointing/STIM_010.jpg	99
716.586	0.905	904.8	pointing	Trial1	pointing/STIM_010.jpg	99
721.119	1.006	1005.8	pointing	Trial1	pointing/STIM_010.jpg	100
725.588	1.284	1283.6	pointing	Trial1	pointing/STIM_011.jpg	99
729.141	0.709	708.8	pointing	Trial1	pointing/STIM_011.jpg	100
732.454	0.756	756.2	pointing	Trial1	pointing/STIM_011.jpg	100
735.377	0.792	792.2	pointing	Trial1	pointing/STIM_011.jpg	99
738.667	0.988	987.6	pointing	Trial1	pointing/STIM_011.jpg	99
743.119	0.838	838.1	pointing	Trial1	pointing/STIM_011.jpg	100
746.86	2.78	2780.1	navigation	Trial2	navigation/STIM_000.jpg	99
752.655	2.739	2738.7	navigation	Trial2	navigation/STIM_000.jpg	99
759.61	2.095	2094.7	navigation	Trial2	navigation/STIM_000.jpg	99
765.786	2.502	2502.4	navigation	Trial2	navigation/STIM_000.jpg	100
770.719	1.528	1527.5	navigation	Trial2	navigation/STIM_000.jpg	100
774.752	1.607	1606.8	navigation	Trial2	navigation/STIM_000.jpg	99
780.276	3.364	3364.3	navigation	Trial2	navigation/STIM_001.jpg	100
787.662	1.946	1946.3	navigation	Trial2	navigation/STIM_001.jpg	99
791.893	1.718	1718.3	navigation	Trial2	navigation/STIM_001.jpg	100
797.532	2.234	2233.7	navigation	Trial2	navigation/STIM_001.jpg	100
803.718	2.347	2346.6	navigation	Trial2	navigation/STIM_001.jpg	100
810.162	1.578	1578.2	navigation	Trial2	navigation/STIM_001.jpg	100
814.029	3.586	3585.5	navigation	Trial2	navigation/STIM_002.jpg	99
821.959	3.296	3295.7	navigation	Trial2	navigation/STIM_002.jpg	100
827.885	2.405	2405.3	navigation	Trial2	navigation/STIM_002.jpg	99
833.803	2.759	2758.9	navigation	Trial2	navigation/STIM_002.jpg	100
840.451	1.714	1713.5	navigation	Trial2	navigation/STIM_002.jpg	99
846.182	3.01	3009.8	navigation	Trial2	navigation/STIM_002.jpg	99
852.717	3.615	3615.2	navigation	Trial2	navigation/STIM_003.jpg	99
859.383	2.346	2345.5	navigation	Trial2	navigation/STIM_003.jpg	99
864.723	2.383	2382.7	navigation	Trial2	navigation/STIM_003.jpg	99
870.652	2.403	2402.6	navigation	Trial2	navigation/STIM_003.jpg	100
876.741	2.93	2929.5	navigation	Trial2	navigation/STIM_003.jpg	99
883.018	2.609	2609.3	navigation	Trial2	navigation/STIM_003.jpg	100
889.22	3.25	3250.0	navigation	Trial2	navigation/STIM_004.jpg	100
896.125	2.99	2989.5	navigation	Trial2	navigation/STIM_004.jpg	100
901.755	3.012	3011.9	navigation	Trial2	navigation/STIM_004.jpg	100
908.739	1.883	1882.7	navigation	Trial2	navigation/STIM_004.jpg	100
914.137	1.966	1965.8	navigation	Trial2	navigation/STIM_004.jpg	99
918.973	1.262	1262.1	navigation	Trial2	navigation/STIM_004.jpg	99
924.059	3.145	3145.1	navigation	Trial2	navigation/STIM_005.jpg	99
929.864	3.348	3348.5	navigation	Trial2	navigation/STIM_005.jpg	100
935.858	2.625	2625.4	navigation	Trial2	navigation/STIM_005.jpg	99
941.757	2.089	2089.0	navigation	Trial2	navigation/STIM_005.jpg	99
947.938	1.562	1562.1	navigation	Trial2	navigation/STIM_005.jpg	99
953.293	1.9	1900.1	navigation	Trial2	navigation/STIM_005.jpg	100
958.385	2.853	2853.3	navigation	Trial2	navigation/STIM_006.jpg	100
965.126	1.462	1461.6	navigation	Trial2	navigation/STIM_006.jpg	100
970.059	2.4	2400.5	navigation	Trial2	navigation/STIM_006.jpg	100
975.948	2.029	2029.1	navigation	Trial2	navigation/STIM_006.jpg	99
981.401	1.913	1913.0	navigation	Trial2	navigation/STIM_006.jpg	100
986.84	2.272	2272.5	navigation	Trial2	navigation/STIM_006.jpg	99
991.666	2.039	2038.6	navigation	Trial2	navigation/STIM_007.jpg	99
996.185	1.688	1688.2	navigation	Trial2	navigation/STIM_007.jpg	100
1000.638	1.886	1886.1	navigation	Trial2	navigation/STIM_007.jpg	100
1006.7	1.884	1883.8	navigation	Trial2	navigation/STIM_007.jpg	100
1011.367	2.968	2968.2	navigation	Trial2	navigation/STIM_007.jpg	99
1017.658	2.457	2456.8	navigation	Trial2	navigation/STIM_007.jpg	100
1024.218	2.596	2595.6	navigation	Trial2	navigation/STIM_008.jpg	99
1030.218	2.208	2208.0	navigation	Trial2	navigation/STIM_008.jpg	99
1035.437	1.786	1786.2	navigation	Trial2	navigation/STIM_008.jpg	100
1040.675	2.261	2261.0	navigation	Trial2	navigation/STIM_008.jpg	99
1045.495	2.018	2018.2	navigation	Trial2	navigation/STIM_008.jpg	99
1049.958	1.299	1299.3	navigation	Trial2	navigation/STIM_008.jpg	100
1053.976	1.609	1608.8	navigation	Trial2	navigation/STIM_009.jpg	99
1058.028	3.459	3458.7	navigation	Trial2	navigation/STIM_009.jpg	100
1064.556	2.018	2017.6	navigation	Trial2	navigation/STIM_009.jpg	100
1070.192	3.016	3015.9	navigation	Trial2	navigation/STIM_009.jpg	100
1076.991	1.369	1369.3	navigation	Trial2	navigation/STIM_009.jpg	100
1082.246	1.574	1573.5	navigation	Trial2	navigation/STIM_009.jpg	100
1086.252	3.26	3259.8	navigation	Trial2	navigation/STIM_010.jpg	99
1092.35	1.807	1807.3	navigation	Trial2	navigation/STIM_010.jpg	99
1098.126	3.056	3055.8	navigation	Trial2	navigation/STIM_010.jpg	99
1105.507	2.926	2926.1	navigation	Trial2	navigation/STIM_010.jpg	99
1112.491	1.858	1858.4	navigation	Trial2	navigation/STIM_010.jpg	99
1118.429	1.236	1236.4	navigation	Trial2	navigation/STIM_010.jpg	100
1122.413	1.719	1718.6	navigation	Trial2	navigation/STIM_011.jpg	100
1127.41	2.132	2131.6	navigation	Trial2	navigation/STIM_011.jpg	99
1132.654	1.598	1597.9	navigation	Trial2	navigation/STIM_011.jpg	100
1137.894	2.771	2770.7	navigation	Trial2	navigation/STIM_011.jpg	100
1143.782	1.927	1927.1	navigation	Trial2	navigation/STIM_011.jpg	99
1148.624	1.478	1478.5	navigation	Trial2	navigation/STIM_011.jpg	100
1153.585	1.188	1188.4	pointing	Trial2	pointing/STIM_000.jpg	99
1157.515	0.893	892.6	pointing	Trial2	pointing/STIM_000.jpg	100
1161.669	1.136	1136.0	pointing	Trial2	pointing/STIM_000.jpg	99
1166.345	0.804	804.0	pointing	Trial2	pointing/STIM_000.jpg	99
1170.826	1.108	1107.8	pointing	Trial2	pointing/STIM_000.jpg	100
1174.936	1.021	1020.8	pointing	Trial2	pointing/STIM_000.jpg	99
1178.441	1.198	1198.4	pointing	Trial2	pointing/STIM_001.jpg	100
1182.486	1.28	1280.4	pointing	Trial2	pointing/STIM_001.jpg	99
1187.878	1.159	1158.8	pointing	Trial2	pointing/STIM_001.jpg	100
1192.184	0.727	727.4	pointing	Trial2	pointing/STIM_001.jpg	100
1196.882	0.916	915.8	pointing	Trial2	pointing/STIM_001.jpg	99
1201.042	0.911	910.7	pointing	Trial2	pointing/STIM_001.jpg	100
1205.507	0.957	956.9	pointing	Trial2	pointing/STIM_002.jpg	100
1210.458	0.895	894.9	pointing	Trial2	pointing/STIM_002.jpg	99
1214.721	0.936	935.7	pointing	Trial2	pointing/STIM_002.jpg	99
1219.693	0.802	801.5	pointing	Trial2	pointing/STIM_002.jpg	100
1224.183	0.837	837.4	pointing	Trial2	pointing/STIM_002.jpg	100
1228.038	1.05	1049.5	pointing	Trial2	pointing/STIM_002.jpg	99
1232.988	1.291	1291.2	pointing	Trial2	pointing/STIM_003.jpg	99
1236.594	0.907	906.8	pointing	Trial2	pointing/STIM_003.jpg	99
1239.693	1.151	1150.8	pointing	Trial2	pointing/STIM_003.jpg	99
1243.545	0.791	790.6	pointing	Trial2	pointing/STIM_003.jpg	100
1247.195	1.277	1277.2	pointing	Trial2	pointing/STIM_003.jpg	99
1250.668	1.136	1135.5	pointing	Trial2	pointing/STIM_003.jpg	99
1254.88	0.952	952.1	pointing	Trial2	pointing/STIM_004.jpg	100
1258.357	1.237	1236.8	pointing	Trial2	pointing/STIM_004.jpg	99
1263.012	0.996	995.6	pointing	Trial2	pointing/STIM_004.jpg	99
1267.692	0.877	877.1	pointing	Trial2	pointing/STIM_004.jpg	99
1271.747	1.081	1080.9	pointing	Trial2	pointing/STIM_004.jpg	100
1275.852	0.753	753.1	pointing	Trial2	pointing/STIM_004.jpg	100
1279.022	1.033	1033.2	pointing	Trial2	pointing/STIM_005.jpg	99
1284.025	1.256	1256.1	pointing	Trial2	pointing/STIM_005.jpg	99
1288.929	1.124	1124.5	pointing	Trial2	pointing/STIM_005.jpg	100
1292.735	1.167	1166.6	pointing	Trial2	pointing/STIM_005.jpg	99
1296.905	0.886	886.1	pointing	Trial2	pointing/STIM_005.jpg	99
1301.378	0.726	725.7	pointing	Trial2	pointing/STIM_005.jpg	100
1306.184	0.824	823.7	pointing	Trial2	pointing/STIM_006.jpg	99
1311.034	0.941	940.7	pointing	Trial2	pointing/STIM_006.jpg	100
1315.918	1.161	1160.8	pointing	Trial2	pointing/STIM_006.jpg	99
1320.898	1.071	1071.2	pointing	Trial2	pointing/STIM_006.jpg	99
1325.898	0.801	801.1	pointing	Trial2	pointing/STIM_006.jpg	99
1330.639	0.712	712.1	pointing	Trial2	pointing/STIM_006.jpg	99
1335.289	0.783	783.0	pointing	Trial2	pointing/STIM_007.jpg	100
1339.231	0.763	763.1	pointing	Trial2	pointing/STIM_007.jpg	100
1344.054	1.074	1074.3	pointing	Trial2	pointing/STIM_007.jpg	100
1349.051	1.143	1142.6	pointing	Trial2	pointing/STIM_007.jpg	100
1353.748	0.929	928.7	pointing	Trial2	pointing/STIM_007.jpg	99
1358.269	1.038	1038.2	pointing	Trial2	pointing/STIM_007.jpg	99
1362.562	0.893	893.3	pointing	Trial2	pointing/STIM_008.jpg	100
1367.495	0.925	925.4	pointing	Trial2	pointing/STIM_008.jpg	100
1372.317	1.039	1039.1	pointing	Trial2	pointing/STIM_008.jpg	99
1375.775	1.014	1014.4	pointing	Trial2	pointing/STIM_008.jpg	99
1380.677	0.849	849.4	pointing	Trial2	pointing/STIM_008.jpg	100
1384.367	0.818	818.4	pointing	Trial2	pointing/STIM_008.jpg	99
1388.744	1.096	1095.6	pointing	Trial2	pointing/STIM_009.jpg	99
1393.002	0.789	788.9	pointing	Trial2	pointing/STIM_009.jpg	100
1396.694	1.186	1186.5	pointing	Trial2	pointing/STIM_009.jpg	99
1401.801	0.782	782.5	pointing	Trial2	pointing/STIM_009.jpg	100
1404.921	0.775	775.4	pointing	Trial2	pointing/STIM_009.jpg	99
1408.111	1.223	1223.1	pointing	Trial2	pointing/STIM_009.jpg	99
1412.819	1.323	1322.6	pointing	Trial2	pointing/STIM_010.jpg	100
1416.354	1.028	1028.0	pointing	Trial2	pointing/STIM_010.jpg	99
1419.782	1.286	1286.3	pointing	Trial2	pointing/STIM_010.jpg	99
1424.298	1.036	1035.9	pointing	Trial2	pointing/STIM_010.jpg	99
1428.272	0.953	953.4	pointing	Trial2	pointing/STIM_010.jpg	99
1431.435	0.961	961.1	pointing	Trial2	pointing/STIM_010.jpg	100
1436.212	0.743	742.6	pointing	Trial2	pointing/STIM_011.jpg	100
1439.453	0.878	877.6	pointing	Trial2	pointing/STIM_011.jpg	99
1444.196	1.044	1044.4	pointing	Trial2	pointing/STIM_011.jpg	100
1448.379	1.217	1217.2	pointing	Trial2	pointing/STIM_011.jpg	99
1452.655	1.321	1321.2	pointing	Trial2	pointing/STIM_011.jpg	99
1458.042	0.794	793.8	pointing	Trial2	pointing/STIM_011.jpg	99
1462.754	2.155	2154.8	navigation	Trial3	navigation/STIM_000.jpg	99
1467.842	2.531	2531.2	navigation	Trial3	navigation/STIM_000.jpg	100
1473.426	1.841	1841.2	navigation	Trial3	navigation/STIM_000.jpg	100
1478.786	2.516	2515.9	navigation	Trial3	navigation/STIM_000.jpg	99
1484.371	3.048	3047.5	navigation	Trial3	navigation/STIM_000.jpg	99
1490.567	2.218	2218.1	navigation	Trial3	navigation/STIM_000.jpg	100
1496.876	1.66	1660.1	navigation	Trial3	navigation/STIM_001.jpg	100
1502.529	2.341	2340.6	navigation	Trial3	navigation/STIM_001.jpg	100
1507.816	2.948	2948.5	navigation	Trial3	navigation/STIM_001.jpg	100
1514.98	3.072	3072.1	navigation	Trial3	navigation/STIM_001.jpg	99
1522.137	2.472	2472.2	navigation	Trial3	navigation/STIM_001.jpg	99
1527.939	2.577	2576.6	navigation	Trial3	navigation/STIM_001.jpg	100
1534.851	1.95	1950.5	navigation	Trial3	navigation/STIM_002.jpg	100
1539.628	1.944	1943.6	navigation	Trial3	navigation/STIM_002.jpg	99
1545.359	2.522	2522.2	navigation	Trial3	navigation/STIM_002.jpg	99
1550.911	2.726	2725.9	navigation	Trial3	navigation/STIM_002.jpg	99
1557.036	1.617	1616.8	navigation	Trial3	navigation/STIM_002.jpg	100
1562.152	2.336	2335.6	navigation	Trial3	navigation/STIM_002.jpg	100
1566.846	2.416	2415.6	navigation	Trial3	navigation/STIM_003.jpg	99
1572.223	2.181	2181.3	navigation	Trial3	navigation/STIM_003.jpg	99
1577.054	2.642	2641.9	navigation	Trial3	navigation/STIM_003.jpg	100
1583.383	1.779	1778.8	navigation	Trial3	navigation/STIM_003.jpg	99
1587.731	2.615	2615.4	navigation	Trial3	navigation/STIM_003.jpg	99
1594.198	1.501	1500.9	navigation	Trial3	navigation/STIM_003.jpg	99
1599.613	1.657	1657.2	navigation	Trial3	navigation/STIM_004.jpg	100
1604.876	3.087	3086.7	navigation	Trial3	navigation/STIM_004.jpg	99
1611.092	1.561	1561.3	navigation	Trial3	navigation/STIM_004.jpg	100
1616.423	3.024	3023.7	navigation	Trial3	navigation/STIM_004.jpg	100
1621.881	2.022	2021.6	navigation	Trial3	navigation/STIM_004.jpg	100
1627.361	2.979	2979.0	navigation	Trial3	navigation/STIM_004.jpg	100
1632.763	1.948	1947.9	navigation	Trial3	navigation/STIM_005.jpg	99
1637.965	1.988	1988.3	navigation	Trial3	navigation/STIM_005.jpg	99
1642.784	2.697	2697.2	navigation	Trial3	navigation/STIM_005.jpg	99
1648.056	3.08	3080.3	navigation	Trial3	navigation/STIM_005.jpg	99
1653.788	1.656	1655.6	navigation	Trial3	navigation/STIM_005.jpg	100
1658.889	1.313	1312.6	navigation	Trial3	navigation/STIM_005.jpg	100
1663.009	2.293	2292.9	navigation	Trial3	navigation/STIM_006.jpg	100
1669.595	1.803	1802.7	navigation	Trial3	navigation/STIM_006.jpg	100
1674.922	2.589	2588.8	navigation	Trial3	navigation/STIM_006.jpg	100
1681.692	2.232	2232.0	navigation	Trial3	navigation/STIM_006.jpg	100
1686.575	2.334	2333.6	navigation	Trial3	navigation/STIM_006.jpg	99
1692.772	2.101	2100.9	navigation	Trial3	navigation/STIM_006.jpg	99
1697.565	2.72	2719.9	navigation	Trial3	navigation/STIM_007.jpg	100
1702.847	2.227	2227.4	navigation	Trial3	navigation/STIM_007.jpg	100
1708.752	2.526	2525.5	navigation	Trial3	navigation/STIM_007.jpg	100
1714.156	2.312	2312.4	navigation	Trial3	navigation/STIM_007.jpg	100
1719.473	2.908	2908.1	navigation	Trial3	navigation/STIM_007.jpg	99
1725.763	1.661	1660.9	navigation	Trial3	navigation/STIM_007.jpg	100
1731.335	2.814	2813.6	navigation	Trial3	navigation/STIM_008.jpg	100
1736.602	2.957	2956.9	navigation	Trial3	navigation/STIM_008.jpg	99
1742.175	1.858	1858.2	navigation	Trial3	navigation/STIM_008.jpg	100
1746.536	2.913	2913.0	navigation	Trial3	navigation/STIM_008.jpg	100
1753.691	1.783	1783.3	navigation	Trial3	navigation/STIM_008.jpg	99
1758.796	2.106	2105.7	navigation	Trial3	navigation/STIM_008.jpg	100
1764.451	2.062	2062.1	navigation	Trial3	navigation/STIM_009.jpg	99
1769.698	1.752	1752.2	navigation	Trial3	navigation/STIM_009.jpg	99
1774.563	1.506	1505.9	navigation	Trial3	navigation/STIM_009.jpg	99
1780.214	1.713	1713.0	navigation	Trial3	navigation/STIM_009.jpg	100
1784.531	2.277	2277.1	navigation	Trial3	navigation/STIM_009.jpg	100
1789.401	2.534	2534.4	navigation	Trial3	navigation/STIM_009.jpg	100
1794.305	1.774	1773.6	navigation	Trial3	navigation/STIM_010.jpg	99
1799.329	2.61	2610.1	navigation	Trial3	navigation/STIM_010.jpg	99
1804.954	1.926	1926.3	navigation	Trial3	navigation/STIM_010.jpg	100
1811.067	2.462	2462.4	navigation	Trial3	navigation/STIM_010.jpg	99
1816.257	1.759	1759.4	navigation	Trial3	navigation/STIM_010.jpg	99
1821.063	1.492	1492.5	navigation	Trial3	navigation/STIM_010.jpg	99
1824.95	1.362	1361.8	navigation	Trial3	navigation/STIM_011.jpg	100
1828.729	2.119	2118.7	navigation	Trial3	navigation/STIM_011.jpg	100
1834.324	1.462	1461.7	navigation	Trial3	navigation/STIM_011.jpg	99
1838.837	2.144	2144.2	navigation	Trial3	navigation/STIM_011.jpg	100
1844.79	2.83	2829.5	navigation	Trial3	navigation/STIM_011.jpg	99
1850.292	3.09	3089.7	navigation	Trial3	navigation/STIM_011.jpg	99
1857.138	0.9	899.7	pointing	Trial3	pointing/STIM_000.jpg	100
1860.72	0.951	950.6	pointing	Trial3	pointing/STIM_000.jpg	100
1864.767	1.19	1190.2	pointing	Trial3	pointing/STIM_000.jpg	99
1868.278	1.218	1218.5	pointing	Trial3	pointing/STIM_000.jpg	99
1871.765	0.9	899.9	pointing	Trial3	pointing/STIM_000.jpg	100
1875.507	1.295	1294.8	pointing	Trial3	pointing/STIM_000.jpg	99
1880.878	1.313	1312.9	pointing	Trial3	pointing/STIM_001.jpg	99
1886.2	1.019	1019.4	pointing	Trial3	pointing/STIM_001.jpg	99
1890.131	1.22	1220.1	pointing	Trial3	pointing/STIM_001.jpg	99
1893.774	1.242	1242.3	pointing	Trial3	pointing/STIM_001.jpg	100
1897.961	1.19	1189.8	pointing	Trial3	pointing/STIM_001.jpg	100
1902.143	1.145	1144.8	pointing	Trial3	pointing/STIM_001.jpg	100
1906.404	1.085	1085.2	pointing	Trial3	pointing/STIM_002.jpg	99
1909.87	0.715	714.7	pointing	Trial3	pointing/STIM_002.jpg	99
1912.709	0.968	967.8	pointing	Trial3	pointing/STIM_002.jpg	99
1917.215	1.231	1230.7	pointing	Trial3	pointing/STIM_002.jpg	99
1921.999	0.876	875.7	pointing	Trial3	pointing/STIM_002.jpg	100
1926.483	0.984	984.4	pointing	Trial3	pointing/STIM_002.jpg	99
1929.61	0.927	927.1	pointing	Trial3	pointing/STIM_003.jpg	99
1934.351	0.886	886.4	pointing	Trial3	pointing/STIM_003.jpg	99
1937.721	1.126	1125.7	pointing	Trial3	pointing/STIM_003.jpg	99
1941.33	1.016	1016.0	pointing	Trial3	pointing/STIM_003.jpg	99
1945.267	1.291	1291.0	pointing	Trial3	pointing/STIM_003.jpg	99
1950.637	0.948	948.3	pointing	Trial3	pointing/STIM_003.jpg	99
1955.667	0.774	773.8	pointing	Trial3	pointing/STIM_004.jpg	100
1959.589	1.189	1189.3	pointing	Trial3	pointing/STIM_004.jpg	100
1964.717	1.068	1067.8	pointing	Trial3	pointing/STIM_004.jpg	100
1969.716	1.025	1024.9	pointing	Trial3	pointing/STIM_004.jpg	99
1973.627	1.146	1145.9	pointing	Trial3	pointing/STIM_004.jpg	100
1978.521	1.277	1277.3	pointing	Trial3	pointing/STIM_004.jpg	99
1983.783	0.831	830.6	pointing	Trial3	pointing/STIM_005.jpg	100
1987.057	0.973	973.0	pointing	Trial3	pointing/STIM_005.jpg	100
1990.422	1.123	1122.6	pointing	Trial3	pointing/STIM_005.jpg	99
1995.381	0.905	904.6	pointing	Trial3	pointing/STIM_005.jpg	99
1998.795	1.056	1055.5	pointing	Trial3	pointing/STIM_005.jpg	100
2002.963	0.738	738.1	pointing	Trial3	pointing/STIM_005.jpg	99
2007.214	0.794	793.6	pointing	Trial3	pointing/STIM_006.jpg	99
2011.629	0.996	996.4	pointing	Trial3	pointing/STIM_006.jpg	100
2016.572	0.746	745.9	pointing	Trial3	pointing/STIM_006.jpg	100
2020.219	1.046	1046.4	pointing	Trial3	pointing/STIM_006.jpg	99
2024.242	1.017	1017.3	pointing	Trial3	pointing/STIM_006.jpg	99
2029.332	1.212	1212.2	pointing	Trial3	pointing/STIM_006.jpg	99
2033.783	1.269	1269.2	pointing	Trial3	pointing/STIM_007.jpg	100
2039.115	0.791	791.2	pointing	Trial3	pointing/STIM_007.jpg	99
2043.46	1.067	1066.8	pointing	Trial3	pointing/STIM_007.jpg	100
2048.293	1.274	1274.4	pointing	Trial3	pointing/STIM_007.jpg	100
2052.976	1.237	1236.6	pointing	Trial3	pointing/STIM_007.jpg	100
2056.898	1.171	1171.1	pointing	Trial3	pointing/STIM_007.jpg	99
2061.549	0.855	855.2	pointing	Trial3	pointing/STIM_008.jpg	99
2064.962	1.321	1321.4	pointing	Trial3	pointing/STIM_008.jpg	99
2068.764	1.246	1246.5	pointing	Trial3	pointing/STIM_008.jpg	100
2072.56	0.948	948.1	pointing	Trial3	pointing/STIM_008.jpg	100
2076.564	0.769	768.7	pointing	Trial3	pointing/STIM_008.jpg	99
2081.115	0.978	977.6	pointing	Trial3	pointing/STIM_008.jpg	100
2084.265	1.226	1225.9	pointing	Trial3	pointing/STIM_009.jpg	99
2088.763	0.911	910.6	pointing	Trial3	pointing/STIM_009.jpg	99
2093.06	1.314	1314.0	pointing	Trial3	pointing/STIM_009.jpg	99
2097.695	1.074	1073.7	pointing	Trial3	pointing/STIM_009.jpg	100
2101.052	0.843	843.0	pointing	Trial3	pointing/STIM_009.jpg	100
2105.667	0.984	983.5	pointing	Trial3	pointing/STIM_009.jpg	100
2109.1	1.31	1309.6	pointing	Trial3	pointing/STIM_010.jpg	99
2113.301	0.956	956.1	pointing	Trial3	pointing/STIM_010.jpg	100
2118.027	0.791	791.3	pointing	Trial3	pointing/STIM_010.jpg	99
2121.226	0.729	729.4	pointing	Trial3	pointing/STIM_010.jpg	99
2124.484	0.731	731.2	pointing	Trial3	pointing/STIM_010.jpg	100
2127.352	0.861	861.3	pointing	Trial3	pointing/STIM_010.jpg	99
2131.18	1.092	1092.1	pointing	Trial3	pointing/STIM_011.jpg	100
2136.073	1.32	1319.5	pointing	Trial3	pointing/STIM_011.jpg	100
2140.037	1.235	1235.2	pointing	Trial3	pointing/STIM_011.jpg	100
2143.552	0.83	830.0	pointing	Trial3	pointing/STIM_011.jpg	100
2147.206	0.732	732.3	pointing	Trial3	pointing/STIM_011.jpg	99
2151.64	1.296	1295.5	pointing	Trial3	pointing/STIM_011.jpg	100
