onset	duration	accuracy	trial_type	learning_stage	stimulus
0.0	3.777	correct	navigation	Trial1	navigation/STIM_000.jpg
7.437	3.428	correct	navigation	Trial1	navigation/STIM_000.jpg
14.811	2.827	correct	navigation	Trial1	navigation/STIM_000.jpg
20.219	3.484	correct	navigation	Trial1	navigation/STIM_000.jpg
27.411	3.495	correct	navigation	Trial1	navigation/STIM_000.jpg
35.257	2.672	correct	navigation	Trial1	navigation/STIM_000.jpg
41.47	4.057	correct	navigation	Trial1	navigation/STIM_001.jpg
48.934	1.847	incorrect	navigation	Trial1	navigation/STIM_001.jpg
53.868	3.357	incorrect	navigation	Trial1	navigation/STIM_001.jpg
59.907	2.662	correct	navigation	Trial1	navigation/STIM_001.jpg
66.886	3.298	correct	navigation	Trial1	navigation/STIM_001.jpg
73.264	2.867	incorrect	navigation	Trial1	navigation/STIM_001.jpg
79.142	4.387	correct	navigation	Trial1	navigation/STIM_002.jpg
86.253	3.59	correct	navigation	Trial1	navigation/STIM_002.jpg
93.25	2.164	correct	navigation	Trial1	navigation/STIM_002.jpg
97.795	2.826	correct	navigation	Trial1	navigation/STIM_002.jpg
104.369	1.642	correct	navigation	Trial1	navigation/STIM_002.jpg
109.778	2.304	correct	navigation	Trial1	navigation/STIM_002.jpg
115.325	4.348	correct	navigation	Trial1	navigation/STIM_003.jpg
123.96	1.732	correct	navigation	Trial1	navigation/STIM_003.jpg
128.041	3.763	correct	navigation	Trial1	navigation/STIM_003.jpg
135.99	1.515	correct	navigation	Trial1	navigation/STIM_003.jpg
141.63	1.588	correct	navigation	Trial1	navigation/STIM_003.jpg
145.573	2.24	incorrect	navigation	Trial1	navigation/STIM_003.jpg
150.863	3.069	correct	navigation	Trial1	navigation/STIM_004.jpg
157.633	3.63	correct	navigation	Trial1	navigation/STIM_004.jpg
164.051	2.98	incorrect	navigation	Trial1	navigation/STIM_004.jpg
170.981	1.791	correct	navigation	Trial1	navigation/STIM_004.jpg
176.799	2.213	correct	navigation	Trial1	navigation/STIM_004.jpg
181.532	1.871	incorrect	navigation	Trial1	navigation/STIM_004.jpg
186.384	2.916	correct	navigation	Trial1	navigation/STIM_005.jpg
192.604	4.098	correct	navigation	Trial1	navigation/STIM_005.jpg
200.981	2.727	correct	navigation	Trial1	navigation/STIM_005.jpg
206.404	2.886	correct	navigation	Trial1	navigation/STIM_005.jpg
213.192	3.4	correct	navigation	Trial1	navigation/STIM_005.jpg
220.264	3.141	incorrect	navigation	Trial1	navigation/STIM_005.jpg
227.631	2.446	incorrect	navigation	Trial1	navigation/STIM_006.jpg
232.409	3.728	correct	navigation	Trial1	navigation/STIM_006.jpg
238.87	2.613	correct	navigation	Trial1	navigation/STIM_006.jpg
245.278	2.117	correct	navigation	Trial1	navigation/STIM_006.jpg
250.261	1.482	correct	navigation	Trial1	navigation/STIM_006.jpg
255.638	2.401	correct	navigation	Trial1	navigation/STIM_006.jpg
262.084	4.015	correct	navigation	Trial1	navigation/STIM_007.jpg
270.58	2.685	correct	navigation	Trial1	navigation/STIM_007.jpg
276.215	1.881	correct	navigation	Trial1	navigation/STIM_007.jpg
280.388	3.349	incorrect	navigation	Trial1	navigation/STIM_007.jpg
287.315	2.845	correct	navigation	Trial1	navigation/STIM_007.jpg
294.416	2.464	correct	navigation	Trial1	navigation/STIM_007.jpg
300.554	2.185	correct	navigation	Trial1	navigation/STIM_008.jpg
305.966	3.849	correct	navigation	Trial1	navigation/STIM_008.jpg
314.284	3.039	correct	navigation	Trial1	navigation/STIM_008.jpg
320.069	2.594	correct	navigation	Trial1	navigation/STIM_008.jpg
326.821	2.27	correct	navigation	Trial1	navigation/STIM_008.jpg
332.909	3.301	correct	navigation	Trial1	navigation/STIM_008.jpg
338.938	2.657	correct	navigation	Trial1	navigation/STIM_009.jpg
344.71	4.034	incorrect	navigation	Trial1	navigation/STIM_009.jpg
352.411	3.788	correct	navigation	Trial1	navigation/STIM_009.jpg
359.828	3.539	correct	navigation	Trial1	navigation/STIM_009.jpg
365.987	1.834	incorrect	navigation	Trial1	navigation/STIM_009.jpg
370.734	2.369	correct	navigation	Trial1	navigation/STIM_009.jpg
376.374	3.297	incorrect	navigation	Trial1	navigation/STIM_010.jpg
382.657	3.129	correct	navigation	Trial1	navigation/STIM_010.jpg
388.29	3.431	incorrect	navigation	Trial1	navigation/STIM_010.jpg
396.154	3.104	correct	navigation	Trial1	navigation/STIM_010.jpg
402.265	1.436	incorrect	navigation	Trial1	navigation/STIM_010.jpg
407.025	2.938	correct	navigation	Trial1	navigation/STIM_010.jpg
412.545	4.014	incorrect	navigation	Trial1	navigation/STIM_011.jpg
420.89	2.376	correct	navigation	Trial1	navigation/STIM_011.jpg
426.484	1.65	correct	navigation	Trial1	navigation/STIM_011.jpg
431.165	2.713	correct	navigation	Trial1	navigation/STIM_011.jpg
437.795	2.014	correct	navigation	Trial1	navigation/STIM_011.jpg
442.397	1.79	correct	navigation	Trial1	navigation/STIM_011.jpg
448.233	0.732	correct	pointing	Trial1	pointing/STIM_000.jpg
451.115	1.267	correct	pointing	Trial1	pointing/STIM_000.jpg
456.47	0.926	correct	pointing	Trial1	pointing/STIM_000.jpg
459.867	1.312	correct	pointing	Trial1	pointing/STIM_000.jpg
464.814	0.893	correct	pointing	Trial1	pointing/STIM_000.jpg
469.144	0.773	correct	pointing	Trial1	pointing/STIM_000.jpg
472.625	1.309	correct	pointing	Trial1	pointing/STIM_001.jpg
477.632	0.756	correct	pointing	Trial1	pointing/STIM_001.jpg
482.013	1.173	correct	pointing	Trial1	pointing/STIM_001.jpg
487.153	0.837	correct	pointing	Trial1	pointing/STIM_001.jpg
491.058	1.022	correct	pointing	Trial1	pointing/STIM_001.jpg
495.334	0.777	correct	pointing	Trial1	pointing/STIM_001.jpg
500.112	0.711	correct	pointing	Trial1	pointing/STIM_002.jpg
504.886	1.165	correct	pointing	Trial1	pointing/STIM_002.jpg
508.343	1.225	incorrect	pointing	Trial1	pointing/STIM_002.jpg
513.156	1.21	correct	pointing	Trial1	pointing/STIM_002.jpg
518.032	0.729	correct	pointing	Trial1	pointing/STIM_002.jpg
521.91	1.202	correct	pointing	Trial1	pointing/STIM_002.jpg
526.921	0.951	correct	pointing	Trial1	pointing/STIM_003.jpg
531.52	0.788	correct	pointing	Trial1	pointing/STIM_003.jpg
535.965	0.765	correct	pointing	Trial1	pointing/STIM_003.jpg
539.865	1.077	correct	pointing	Trial1	pointing/STIM_003.jpg
543.764	1.011	correct	pointing	Trial1	pointing/STIM_003.jpg
547.152	1.041	correct	pointing	Trial1	pointing/STIM_003.jpg
551.623	1.324	correct	pointing	Trial1	pointing/STIM_004.jpg
556.698	1.131	correct	pointing	Trial1	pointing/STIM_004.jpg
560.887	1.063	correct	pointing	Trial1	pointing/STIM_004.jpg
565.388	1.15	correct	pointing	Trial1	pointing/STIM_004.jpg
569.644	0.751	correct	pointing	Trial1	pointing/STIM_004.jpg
574.429	1.093	correct	pointing	Trial1	pointing/STIM_004.jpg
578.042	1.022	correct	pointing	Trial1	pointing/STIM_005.jpg
582.538	1.046	correct	pointing	Trial1	pointing/STIM_005.jpg
586.043	1.207	correct	pointing	Trial1	pointing/STIM_005.jpg
590.732	1.158	correct	pointing	Trial1	pointing/STIM_005.jpg
595.599	0.791	correct	pointing	Trial1	pointing/STIM_005.jpg
599.759	1.225	correct	pointing	Trial1	pointing/STIM_005.jpg
603.801	0.866	incorrect	pointing	Trial1	pointing/STIM_006.jpg
608.554	1.052	correct	pointing	Trial1	pointing/STIM_006.jpg
612.11	1.303	correct	pointing	Trial1	pointing/STIM_006.jpg
616.402	1.242	correct	pointing	Trial1	pointing/STIM_006.jpg
620.772	1.188	correct	pointing	Trial1	pointing/STIM_006.jpg
624.941	1.244	correct	pointing	Trial1	pointing/STIM_006.jpg
629.22	0.944	correct	pointing	Trial1	pointing/STIM_007.jpg
632.969	1.202	correct	pointing	Trial1	pointing/STIM_007.jpg
636.512	0.885	incorrect	pointing	Trial1	pointing/STIM_007.jpg
640.501	1.062	correct	pointing	Trial1	pointing/STIM_007.jpg
644.678	0.715	correct	pointing	Trial1	pointing/STIM_007.jpg
649.304	1.165	correct	pointing	Trial1	pointing/STIM_007.jpg
652.968	1.058	correct	pointing	Trial1	pointing/STIM_008.jpg
656.678	1.258	correct	pointing	Trial1	pointing/STIM_008.jpg
660.683	1.324	correct	pointing	Trial1	pointing/STIM_008.jpg
664.902	1.309	correct	pointing	Trial1	pointing/STIM_008.jpg
669.682	1.016	correct	pointing	Trial1	pointing/STIM_008.jpg
673.039	0.834	correct	pointing	Trial1	pointing/STIM_008.jpg
676.747	0.733	correct	pointing	Trial1	pointing/STIM_009.jpg
680.732	1.308	correct	pointing	Trial1	pointing/STIM_009.jpg
684.499	1.059	correct	pointing	Trial1	pointing/STIM_009.jpg
688.034	1.18	correct	pointing	Trial1	pointing/STIM_009.jpg
693.217	0.783	correct	pointing	Trial1	pointing/STIM_009.jpg
697.54	1.093	correct	pointing	Trial1	pointing/STIM_009.jpg
701.756	0.763	correct	pointing	Trial1	pointing/STIM_010.jpg
705.482	0.812	correct	pointing	Trial1	pointing/STIM_010.jpg
708.868	0.876	incorrect	pointing	Trial1	pointing/STIM_010.jpg
712.275	1.187	correct	pointing	Trial1	pointing/STIM_010.jpg
716.586	0.905	correct	pointing	Trial1	pointing/STIM_010.jpg
721.119	1.006	correct	pointing	Trial1	pointing/STIM_010.jpg
725.588	1.284	correct	pointing	Trial1	pointing/STIM_011.jpg
729.141	0.709	correct	pointing	Trial1	pointing/STIM_011.jpg
732.454	0.756	correct	pointing	Trial1	pointing/STIM_011.jpg
735.377	0.792	correct	pointing	Trial1	pointing/STIM_011.jpg
738.667	0.988	correct	pointing	Trial1	pointing/STIM_011.jpg
743.119	0.838	correct	pointing	Trial1	pointing/STIM_011.jpg
746.86	2.78	correct	navigation	Trial2	navigation/STIM_000.jpg
752.655	2.739	incorrect	navigation	Trial2	navigation/STIM_000.jpg
759.61	2.095	correct	navigation	Trial2	navigation/STIM_000.jpg
765.786	2.502	correct	navigation	Trial2	navigation/STIM_000.jpg
770.719	1.528	correct	navigation	Trial2	navigation/STIM_000.jpg
774.752	1.607	correct	navigation	Trial2	navigation/STIM_000.jpg
780.276	3.364	correct	navigation	Trial2	navigation/STIM_001.jpg
787.662	1.946	correct	navigation	Trial2	navigation/STIM_001.jpg
791.893	1.718	correct	navigation	Trial2	navigation/STIM_001.jpg
797.532	2.234	correct	navigation	Trial2	navigation/STIM_001.jpg
803.718	2.347	correct	navigation	Trial2	navigation/STIM_001.jpg
810.162	1.578	correct	navigation	Trial2	navigation/STIM_001.jpg
814.029	3.586	incorrect	navigation	Trial2	navigation/STIM_002.jpg
821.959	3.296	correct	navigation	Trial2	navigation/STIM_002.jpg
827.885	2.405	correct	navigation	Trial2	navigation/STIM_002.jpg
833.803	2.759	correct	navigation	Trial2	navigation/STIM_002.jpg
840.451	1.714	correct	navigation	Trial2	navigation/STIM_002.jpg
846.182	3.01	correct	navigation	Trial2	navigation/STIM_002.jpg
852.717	3.615	correct	navigation	Trial2	navigation/STIM_003.jpg
859.383	2.346	correct	navigation	Trial2	navigation/STIM_003.jpg
864.723	2.383	correct	navigation	Trial2	navigation/STIM_003.jpg
870.652	2.403	correct	navigation	Trial2	navigation/STIM_003.jpg
876.741	2.93	correct	navigation	Trial2	navigation/STIM_003.jpg
883.018	2.609	correct	navigation	Trial2	navigation/STIM_003.jpg
889.22	3.25	incorrect	navigation	Trial2	navigation/STIM_004.jpg
896.125	2.99	incorrect	navigation	Trial2	navigation/STIM_004.jpg
901.755	3.012	correct	navigation	Trial2	navigation/STIM_004.jpg
908.739	1.883	correct	navigation	Trial2	navigation/STIM_004.jpg
914.137	1.966	correct	navigation	Trial2	navigation/STIM_004.jpg
918.973	1.262	correct	navigation	Trial2	navigation/STIM_004.jpg
924.059	3.145	correct	navigation	Trial2	navigation/STIM_005.jpg
929.864	3.348	incorrect	navigation	Trial2	navigation/STIM_005.jpg
935.858	2.625	correct	navigation	Trial2	navigation/STIM_005.jpg
941.757	2.089	correct	navigation	Trial2	navigation/STIM_005.jpg
947.938	1.562	correct	navigation	Trial2	navigation/STIM_005.jpg
953.293	1.9	correct	navigation	Trial2	navigation/STIM_005.jpg
958.385	2.853	incorrect	navigation	Trial2	navigation/STIM_006.jpg
965.126	1.462	incorrect	navigation	Trial2	navigation/STIM_006.jpg
970.059	2.4	correct	navigation	Trial2	navigation/STIM_006.jpg
975.948	2.029	incorrect	navigation	Trial2	navigation/STIM_006.jpg
981.401	1.913	correct	navigation	Trial2	navigation/STIM_006.jpg
986.84	2.272	incorrect	navigation	Trial2	navigation/STIM_006.jpg
991.666	2.039	correct	navigation	Trial2	navigation/STIM_007.jpg
996.185	1.688	correct	navigation	Trial2	navigation/STIM_007.jpg
1000.638	1.886	correct	navigation	Trial2	navigation/STIM_007.jpg
1006.7	1.884	correct	navigation	Trial2	navigation/STIM_007.jpg
1011.367	2.968	correct	navigation	Trial2	navigation/STIM_007.jpg
1017.658	2.457	correct	navigation	Trial2	navigation/STIM_007.jpg
1024.218	2.596	incorrect	navigation	Trial2	navigation/STIM_008.jpg
1030.218	2.208	correct	navigation	Trial2	navigation/STIM_008.jpg
1035.437	1.786	incorrect	navigation	Trial2	navigation/STIM_008.jpg
1040.675	2.261	correct	navigation	Trial2	navigation/STIM_008.jpg
1045.495	2.018	incorrect	navigation	Trial2	navigation/STIM_008.jpg
1049.958	1.299	correct	navigation	Trial2	navigation/STIM_008.jpg
1053.976	1.609	incorrect	navigation	Trial2	navigation/STIM_009.jpg
1058.028	3.459	correct	navigation	Trial2	navigation/STIM_009.jpg
1064.556	2.018	correct	navigation	Trial2	navigation/STIM_009.jpg
1070.192	3.016	correct	navigation	Trial2	navigation/STIM_009.jpg
1076.991	1.369	correct	navigation	Trial2	navigation/STIM_009.jpg
1082.246	1.574	correct	navigation	Trial2	navigation/STIM_009.jpg
1086.252	3.26	correct	navigation	Trial2	navigation/STIM_010.jpg
1092.35	1.807	incorrect	navigation	Trial2	navigation/STIM_010.jpg
1098.126	3.056	correct	navigation	Trial2	navigation/STIM_010.jpg
1105.507	2.926	correct	navigation	Trial2	navigation/STIM_010.jpg
1112.491	1.858	correct	navigation	Trial2	navigation/STIM_010.jpg
1118.429	1.236	correct	navigation	Trial2	navigation/STIM_010.jpg
1122.413	1.719	correct	navigation	Trial2	navigation/STIM_011.jpg
1127.41	2.132	correct	navigation	Trial2	navigation/STIM_011.jpg
1132.654	1.598	correct	navigation	Trial2	navigation/STIM_011.jpg
1137.894	2.771	correct	navigation	Trial2	navigation/STIM_011.jpg
1143.782	1.927	correct	navigation	Trial2	navigation/STIM_011.jpg
1148.624	1.478	correct	navigation	Trial2	navigation/STIM_011.jpg
1153.585	1.188	correct	pointing	Trial2	pointing/STIM_000.jpg
1157.515	0.893	correct	pointing	Trial2	pointing/STIM_000.jpg
1161.669	1.136	correct	pointing	Trial2	pointing/STIM_000.jpg
1166.345	0.804	correct	pointing	Trial2	pointing/STIM_000.jpg
1170.826	1.108	correct	pointing	Trial2	pointing/STIM_000.jpg
1174.936	1.021	incorrect	pointing	Trial2	pointing/STIM_000.jpg
1178.441	1.198	correct	pointing	Trial2	pointing/STIM_001.jpg
1182.486	1.28	correct	pointing	Trial2	pointing/STIM_001.jpg
1187.878	1.159	correct	pointing	Trial2	pointing/STIM_001.jpg
1192.184	0.727	correct	pointing	Trial2	pointing/STIM_001.jpg
1196.882	0.916	correct	pointing	Trial2	pointing/STIM_001.jpg
1201.042	0.911	correct	pointing	Trial2	pointing/STIM_001.jpg
1205.507	0.957	correct	pointing	Trial2	pointing/STIM_002.jpg
1210.458	0.895	correct	pointing	Trial2	pointing/STIM_002.jpg
1214.721	0.936	correct	pointing	Trial2	pointing/STIM_002.jpg
1219.693	0.802	incorrect	pointing	Trial2	pointing/STIM_002.jpg
1224.183	0.837	correct	pointing	Trial2	pointing/STIM_002.jpg
1228.038	1.05	correct	pointing	Trial2	pointing/STIM_002.jpg
1232.988	1.291	correct	pointing	Trial2	pointing/STIM_003.jpg
1236.594	0.907	correct	pointing	Trial2	pointing/STIM_003.jpg
1239.693	1.151	correct	pointing	Trial2	pointing/STIM_003.jpg
1243.545	0.791	correct	pointing	Trial2	pointing/STIM_003.jpg
1247.195	1.277	correct	pointing	Trial2	pointing/STIM_003.jpg
1250.668	1.136	correct	pointing	Trial2	pointing/STIM_003.jpg
1254.88	0.952	correct	pointing	Trial2	pointing/STIM_004.jpg
1258.357	1.237	correct	pointing	Trial2	pointing/STIM_004.jpg
1263.012	0.996	correct	pointing	Trial2	pointing/STIM_004.jpg
1267.692	0.877	correct	pointing	Trial2	pointing/STIM_004.jpg
1271.747	1.081	incorrect	pointing	Trial2	pointing/STIM_004.jpg
1275.852	0.753	correct	pointing	Trial2	pointing/STIM_004.jpg
1279.022	1.033	correct	pointing	Trial2	pointing/STIM_005.jpg
1284.025	1.256	correct	pointing	Trial2	pointing/STIM_005.jpg
1288.929	1.124	correct	pointing	Trial2	pointing/STIM_005.jpg
1292.735	1.167	correct	pointing	Trial2	pointing/STIM_005.jpg
1296.905	0.886	correct	pointing	Trial2	pointing/STIM_005.jpg
1301.378	0.726	correct	pointing	Trial2	pointing/STIM_005.jpg
1306.184	0.824	correct	pointing	Trial2	pointing/STIM_006.jpg
1311.034	0.941	incorrect	pointing	Trial2	pointing/STIM_006.jpg
1315.918	1.161	correct	pointing	Trial2	pointing/STIM_006.jpg
1320.898	1.071	correct	pointing	Trial2	pointing/STIM_006.jpg
1325.898	0.801	correct	pointing	Trial2	pointing/STIM_006.jpg
1330.639	0.712	correct	pointing	Trial2	pointing/STIM_006.jpg
1335.289	0.783	correct	pointing	Trial2	pointing/STIM_007.jpg
1339.231	0.763	correct	pointing	Trial2	pointing/STIM_007.jpg
1344.054	1.074	correct	pointing	Trial2	pointing/STIM_007.jpg
1349.051	1.143	correct	pointing	Trial2	pointing/STIM_007.jpg
1353.748	0.929	correct	pointing	Trial2	pointing/STIM_007.jpg
1358.269	1.038	correct	pointing	Trial2	pointing/STIM_007.jpg
1362.562	0.893	correct	pointing	Trial2	pointing/STIM_008.jpg
1367.495	0.925	incorrect	pointing	Trial2	pointing/STIM_008.jpg
1372.317	1.039	correct	pointing	Trial2	pointing/STIM_008.jpg
1375.775	1.014	correct	pointing	Trial2	pointing/STIM_008.jpg
1380.677	0.849	correct	pointing	Trial2	pointing/STIM_008.jpg
1384.367	0.818	correct	pointing	Trial2	pointing/STIM_008.jpg
1388.744	1.096	correct	pointing	Trial2	pointing/STIM_009.jpg
1393.002	0.789	correct	pointing	Trial2	pointing/STIM_009.jpg
1396.694	1.186	correct	pointing	Trial2	pointing/STIM_009.jpg
1401.801	0.782	correct	pointing	Trial2	pointing/STIM_009.jpg
1404.921	0.775	correct	pointing	Trial2	pointing/STIM_009.jpg
1408.111	1.223	correct	pointing	Trial2	pointing/STIM_009.jpg
1412.819	1.323	correct	pointing	Trial2	pointing/STIM_010.jpg
1416.354	1.028	correct	pointing	Trial2	pointing/STIM_010.jpg
1419.782	1.286	correct	pointing	Trial2	pointing/STIM_010.jpg
1424.298	1.036	correct	pointing	Trial2	pointing/STIM_010.jpg
1428.272	0.953	correct	pointing	Trial2	pointing/STIM_010.jpg
1431.435	0.961	correct	pointing	Trial2	pointing/STIM_010.jpg
1436.212	0.743	correct	pointing	Trial2	pointing/STIM_011.jpg
1439.453	0.878	correct	pointing	Trial2	pointing/STIM_011.jpg
1444.196	1.044	correct	pointing	Trial2	pointing/STIM_011.jpg
1448.379	1.217	correct	pointing	Trial2	pointing/STIM_011.jpg
1452.655	1.321	correct	pointing	Trial2	pointing/STIM_011.jpg
1458.042	0.794	correct	pointing	Trial2	pointing/STIM_011.jpg
1462.754	2.155	incorrect	navigation	Trial3	navigation/STIM_000.jpg
1467.842	2.531	correct	navigation	Trial3	navigation/STIM_000.jpg
1473.426	1.841	correct	navigation	Trial3	navigation/STIM_000.jpg
1478.786	2.516	correct	navigation	Trial3	navigation/STIM_000.jpg
1484.371	3.048	correct	navigation	Trial3	navigation/STIM_000.jpg
1490.567	2.218	correct	navigation	Trial3	navigation/STIM_000.jpg
1496.876	1.66	correct	navigation	Trial3	navigation/STIM_001.jpg
1502.529	2.341	correct	navigation	Trial3	navigation/STIM_001.jpg
1507.816	2.948	correct	navigation	Trial3	navigation/STIM_001.jpg
1514.98	3.072	correct	navigation	Trial3	navigation/STIM_001.jpg
1522.137	2.472	correct	navigation	Trial3	navigation/STIM_001.jpg
1527.939	2.577	correct	navigation	Trial3	navigation/STIM_001.jpg
1534.851	1.95	correct	navigation	Trial3	navigation/STIM_002.jpg
1539.628	1.944	correct	navigation	Trial3	navigation/STIM_002.jpg
1545.359	2.522	correct	navigation	Trial3	navigation/STIM_002.jpg
1550.911	2.726	correct	navigation	Trial3	navigation/STIM_002.jpg
1557.036	1.617	correct	navigation	Trial3	navigation/STIM_002.jpg
1562.152	2.336	correct	navigation	Trial3	navigation/STIM_002.jpg
1566.846	2.416	correct	navigation	Trial3	navigation/STIM_003.jpg
1572.223	2.181	correct	navigation	Trial3	navigation/STIM_003.jpg
1577.054	2.642	correct	navigation	Trial3	navigation/STIM_003.jpg
1583.383	1.779	correct	navigation	Trial3	navigation/STIM_003.jpg
1587.731	2.615	correct	navigation	Trial3	navigation/STIM_003.jpg
1594.198	1.501	correct	navigation	Trial3	navigation/STIM_003.jpg
1599.613	1.657	correct	navigation	Trial3	navigation/STIM_004.jpg
1604.876	3.087	correct	navigation	Trial3	navigation/STIM_004.jpg
1611.092	1.561	correct	navigation	Trial3	navigation/STIM_004.jpg
1616.423	3.024	correct	navigation	Trial3	navigation/STIM_004.jpg
1621.881	2.022	correct	navigation	Trial3	navigation/STIM_004.jpg
1627.361	2.979	correct	navigation	Trial3	navigation/STIM_004.jpg
1632.763	1.948	incorrect	navigation	Trial3	navigation/STIM_005.jpg
1637.965	1.988	correct	navigation	Trial3	navigation/STIM_005.jpg
1642.784	2.697	correct	navigation	Trial3	navigation/STIM_005.jpg
1648.056	3.08	correct	navigation	Trial3	navigation/STIM_005.jpg
1653.788	1.656	correct	navigation	Trial3	navigation/STIM_005.jpg
1658.889	1.313	correct	navigation	Trial3	navigation/STIM_005.jpg
1663.009	2.293	incorrect	navigation	Trial3	navigation/STIM_006.jpg
1669.595	1.803	correct	navigation	Trial3	navigation/STIM_006.jpg
1674.922	2.589	correct	navigation	Trial3	navigation/STIM_006.jpg
1681.692	2.232	correct	navigation	Trial3	navigation/STIM_006.jpg
1686.575	2.334	correct	navigation	Trial3	navigation/STIM_006.jpg
1692.772	2.101	correct	navigation	Trial3	navigation/STIM_006.jpg
1697.565	2.72	correct	navigation	Trial3	navigation/STIM_007.jpg
1702.847	2.227	correct	navigation	Trial3	navigation/STIM_007.jpg
1708.752	2.526	correct	navigation	Trial3	navigation/STIM_007.jpg
1714.156	2.312	correct	navigation	Trial3	navigation/STIM_007.jpg
1719.473	2.908	correct	navigation	Trial3	navigation/STIM_007.jpg
1725.763	1.661	correct	navigation	Trial3	navigation/STIM_007.jpg
1731.335	2.814	correct	navigation	Trial3	navigation/STIM_008.jpg
1736.602	2.957	correct	navigation	Trial3	navigation/STIM_008.jpg
1742.175	1.858	correct	navigation	Trial3	navigation/STIM_008.jpg
1746.536	2.913	correct	navigation	Trial3	navigation/STIM_008.jpg
1753.691	1.783	correct	navigation	Trial3	navigation/STIM_008.jpg
1758.796	2.106	correct	navigation	Trial3	navigation/STIM_008.jpg
1764.451	2.062	correct	navigation	Trial3	navigation/STIM_009.jpg
1769.698	1.752	correct	navigation	Trial3	navigation/STIM_009.jpg
1774.563	1.506	correct	navigation	Trial3	navigation/STIM_009.jpg
1780.214	1.713	correct	navigation	Trial3	navigation/STIM_009.jpg
1784.531	2.277	correct	navigation	Trial3	navigation/STIM_009.jpg
1789.401	2.534	correct	navigation	Trial3	navigation/STIM_009.jpg
1794.305	1.774	correct	navigation	Trial3	navigation/STIM_010.jpg
1799.329	2.61	correct	navigation	Trial3	navigation/STIM_010.jpg
1804.954	1.926	correct	navigation	Trial3	navigation/STIM_010.jpg
1811.067	2.462	correct	navigation	Trial3	navigation/STIM_010.jpg
1816.257	1.759	correct	navigation	Trial3	navigation/STIM_010.jpg
1821.063	1.492	correct	navigation	Trial3	navigation/STIM_010.jpg
1824.95	1.362	correct	navigation	Trial3	navigation/STIM_011.jpg
1828.729	2.119	correct	navigation	Trial3	navigation/STIM_011.jpg
1834.324	1.462	correct	navigation	Trial3	navigation/STIM_011.jpg
1838.837	2.144	incorrect	navigation	Trial3	navigation/STIM_011.jpg
1844.79	2.83	correct	navigation	Trial3	navigation/STIM_011.jpg
1850.292	3.09	correct	navigation	Trial3	navigation/STIM_011.jpg
1857.138	0.9	correct	pointing	Trial3	pointing/STIM_000.jpg
1860.72	0.951	correct	pointing	Trial3	pointing/STIM_000.jpg
1864.767	1.19	correct	pointing	Trial3	pointing/STIM_000.jpg
1868.278	1.218	correct	pointing	Trial3	pointing/STIM_000.jpg
1871.765	0.9	correct	pointing	Trial3	pointing/STIM_000.jpg
1875.507	1.295	correct	pointing	Trial3	pointing/STIM_000.jpg
1880.878	1.313	correct	pointing	Trial3	pointing/STIM_001.jpg
1886.2	1.019	correct	pointing	Trial3	pointing/STIM_001.jpg
1890.131	1.22	incorrect	pointing	Trial3	pointing/STIM_001.jpg
1893.774	1.242	correct	pointing	Trial3	pointing/STIM_001.jpg
1897.961	1.19	correct	pointing	Trial3	pointing/STIM_001.jpg
1902.143	1.145	correct	pointing	Trial3	pointing/STIM_001.jpg
1906.404	1.085	correct	pointing	Trial3	pointing/STIM_002.jpg
1909.87	0.715	correct	pointing	Trial3	pointing/STIM_002.jpg
1912.709	0.968	correct	pointing	Trial3	pointing/STIM_002.jpg
1917.215	1.231	correct	pointing	Trial3	pointing/STIM_002.jpg
1921.999	0.876	correct	pointing	Trial3	pointing/STIM_002.jpg
1926.483	0.984	correct	pointing	Trial3	pointing/STIM_002.jpg
1929.61	0.927	correct	pointing	Trial3	pointing/STIM_003.jpg
1934.351	0.886	incorrect	pointing	Trial3	pointing/STIM_003.jpg
1937.721	1.126	correct	pointing	Trial3	pointing/STIM_003.jpg
1941.33	1.016	correct	pointing	Trial3	pointing/STIM_003.jpg
1945.267	1.291	correct	pointing	Trial3	pointing/STIM_003.jpg
1950.637	0.948	correct	pointing	Trial3	pointing/STIM_003.jpg
1955.667	0.774	correct	pointing	Trial3	pointing/STIM_004.jpg
1959.589	1.189	correct	pointing	Trial3	pointing/STIM_004.jpg
1964.717	1.068	correct	pointing	Trial3	pointing/STIM_004.jpg
1969.716	1.025	correct	pointing	Trial3	pointing/STIM_004.jpg
1973.627	1.146	correct	pointing	Trial3	pointing/STIM_004.jpg
1978.521	1.277	correct	pointing	Trial3	pointing/STIM_004.jpg
1983.783	0.831	correct	pointing	Trial3	pointing/STIM_005.jpg
1987.057	0.973	correct	pointing	Trial3	pointing/STIM_005.jpg
1990.422	1.123	correct	pointing	Trial3	pointing/STIM_005.jpg
1995.381	0.905	correct	pointing	Trial3	pointing/STIM_005.jpg
1998.795	1.056	correct	pointing	Trial3	pointing/STIM_005.jpg
2002.963	0.738	correct	pointing	Trial3	pointing/STIM_005.jpg
2007.214	0.794	correct	pointing	Trial3	pointing/STIM_006.jpg
2011.629	0.996	incorrect	pointing	Trial3	pointing/STIM_006.jpg
2016.572	0.746	incorrect	pointing	Trial3	pointing/STIM_006.jpg
2020.219	1.046	incorrect	pointing	Trial3	pointing/STIM_006.jpg
2024.242	1.017	correct	pointing	Trial3	pointing/STIM_006.jpg
2029.332	1.212	correct	pointing	Trial3	pointing/STIM_006.jpg
2033.783	1.269	correct	pointing	Trial3	pointing/STIM_007.jpg
2039.115	0.791	incorrect	pointing	Trial3	pointing/STIM_007.jpg
2043.46	1.067	correct	pointing	Trial3	pointing/STIM_007.jpg
2048.293	1.274	correct	pointing	Trial3	pointing/STIM_007.jpg
2052.976	1.237	correct	pointing	Trial3	pointing/STIM_007.jpg
2056.898	1.171	correct	pointing	Trial3	pointing/STIM_007.jpg
2061.549	0.855	correct	pointing	Trial3	pointing/STIM_008.jpg
2064.962	1.321	incorrect	pointing	Trial3	pointing/STIM_008.jpg
2068.764	1.246	correct	pointing	Trial3	pointing/STIM_008.jpg
2072.56	0.948	correct	pointing	Trial3	pointing/STIM_008.jpg
2076.564	0.769	incorrect	pointing	Trial3	pointing/STIM_008.jpg
2081.115	0.978	correct	pointing	Trial3	pointing/STIM_008.jpg
2084.265	1.226	correct	pointing	Trial3	pointing/STIM_009.jpg
2088.763	0.911	correct	pointing	Trial3	pointing/STIM_009.jpg
2093.06	1.314	correct	pointing	Trial3	pointing/STIM_009.jpg
2097.695	1.074	correct	pointing	Trial3	pointing/STIM_009.jpg
2101.052	0.843	correct	pointing	Trial3	pointing/STIM_009.jpg
2105.667	0.984	correct	pointing	Trial3	pointing/STIM_009.jpg
2109.1	1.31	correct	pointing	Trial3	pointing/STIM_010.jpg
2113.301	0.956	correct	pointing	Trial3	pointing/STIM_010.jpg
2118.027	0.791	correct	pointing	Trial3	pointing/STIM_010.jpg
2121.226	0.729	incorrect	pointing	Trial3	pointing/STIM_010.jpg
2124.484	0.731	correct	pointing	Trial3	pointing/STIM_010.jpg
2127.352	0.861	correct	pointing	Trial3	pointing/STIM_010.jpg
2131.18	1.092	correct	pointing	Trial3	pointing/STIM_011.jpg
2136.073	1.32	correct	pointing	Trial3	pointing/STIM_011.jpg
2140.037	1.235	correct	pointing	Trial3	pointing/STIM_011.jpg
2143.552	0.83	correct	pointing	Trial3	pointing/STIM_011.jpg
2147.206	0.732	correct	pointing	Trial3	pointing/STIM_011.jpg
2151.64	1.296	correct	pointing	Trial3	pointing/STIM_011.jpg
