onset	duration	response_time_ms	trial_type	learning_stage	stimulus	response_port
0.0	4.659	4659.4	navigation	Trial1	navigation/STIM_000.jpg	100
7.734	2.68	2680.5	navigation	Trial1	navigation/STIM_000.jpg	100
14.351	2.295	2295.3	navigation	Trial1	navigation/STIM_000.jpg	100
19.571	3.362	3361.8	navigation	Trial1	navigation/STIM_000.jpg	99
27.043	2.651	2651.2	navigation	Trial1	navigation/STIM_000.jpg	99
32.349	2.264	2264.4	navigation	Trial1	navigation/STIM_000.jpg	99
38.712	4.69	4689.5	navigation	Trial1	navigation/STIM_001.jpg	100
46.108	4.039	4039.0	navigation	Trial1	navigation/STIM_001.jpg	99
53.288	2.905	2905.3	navigation	Trial1	navigation/STIM_001.jpg	99
59.635	3.652	3652.3	navigation	Trial1	navigation/STIM_001.jpg	99
67.311	2.128	2128.0	navigation	Trial1	navigation/STIM_001.jpg	100
72.388	1.569	1568.6	navigation	Trial1	navigation/STIM_001.jpg	100
77.019	2.785	2785.4	navigation	Trial1	navigation/STIM_002.jpg	99
83.67	4.254	4253.6	navigation	Trial1	navigation/STIM_002.jpg	99
90.365	2.759	2758.8	navigation	Trial1	navigation/STIM_002.jpg	99
97.153	2.662	2661.6	navigation	Trial1	navigation/STIM_002.jpg	100
102.003	2.937	2937.1	navigation	Trial1	navigation/STIM_002.jpg	100
108.177	3.471	3470.6	navigation	Trial1	navigation/STIM_002.jpg	100
113.902	3.876	3875.6	navigation	Trial1	navigation/STIM_003.jpg	100
121.664	1.972	1971.5	navigation	Trial1	navigation/STIM_003.jpg	99
127.485	3.322	3322.4	navigation	Trial1	navigation/STIM_003.jpg	99
134.34	2.854	2853.7	navigation	Trial1	navigation/STIM_003.jpg	99
139.882	3.1	3100.1	navigation	Trial1	navigation/STIM_003.jpg	100
147.123	2.244	2243.8	navigation	Trial1	navigation/STIM_003.jpg	100
153.352	2.935	2934.6	navigation	Trial1	navigation/STIM_004.jpg	100
160.248	4.346	4346.2	navigation	Trial1	navigation/STIM_004.jpg	100
167.338	3.656	3655.8	navigation	Trial1	navigation/STIM_004.jpg	99
173.582	2.486	2486.1	navigation	Trial1	navigation/STIM_004.jpg	99
179.656	2.233	2233.3	navigation	Trial1	navigation/STIM_004.jpg	100
184.853	2.863	2863.3	navigation	Trial1	navigation/STIM_004.jpg	99
190.133	3.085	3084.6	navigation	Trial1	navigation/STIM_005.jpg	99
197.272	4.188	4188.2	navigation	Trial1	navigation/STIM_005.jpg	99
204.009	2.781	2781.3	navigation	Trial1	navigation/STIM_005.jpg	100
210.922	1.969	1968.6	navigation	Trial1	navigation/STIM_005.jpg	100
216.639	2.454	2453.5	navigation	Trial1	navigation/STIM_005.jpg	99
222.39	1.971	1970.8	navigation	Trial1	navigation/STIM_005.jpg	100
228.068	4.731	4731.4	navigation	Trial1	navigation/STIM_006.jpg	100
235.692	2.188	2188.4	navigation	Trial1	navigation/STIM_006.jpg	99
241.236	3.192	3191.5	navigation	Trial1	navigation/STIM_006.jpg	99
247.629	2.209	2209.2	navigation	Trial1	navigation/STIM_006.jpg	100
252.393	3.209	3209.4	navigation	Trial1	navigation/STIM_006.jpg	99
258.072	1.894	1893.5	navigation	Trial1	navigation/STIM_006.jpg	100
262.881	3.618	3618.0	navigation	Trial1	navigation/STIM_007.jpg	100
269.538	2.302	2302.1	navigation	Trial1	navigation/STIM_007.jpg	99
274.679	2.193	2192.8	navigation	Trial1	navigation/STIM_007.jpg	100
279.76	2.275	2275.3	navigation	Trial1	navigation/STIM_007.jpg	99
285.947	3.753	3752.7	navigation	Trial1	navigation/STIM_007.jpg	99
292.952	2.0	2000.0	navigation	Trial1	navigation/STIM_007.jpg	99
297.263	3.818	3818.1	navigation	Trial1	navigation/STIM_008.jpg	100
304.366	2.794	2793.7	navigation	Trial1	navigation/STIM_008.jpg	100
309.974	3.765	3764.7	navigation	Trial1	navigation/STIM_008.jpg	100
316.741	2.135	2134.8	navigation	Trial1	navigation/STIM_008.jpg	99
322.362	3.284	3284.1	navigation	Trial1	navigation/STIM_008.jpg	99
328.666	2.009	2008.5	navigation	Trial1	navigation/STIM_008.jpg	100
333.794	2.408	2408.4	navigation	Trial1	navigation/STIM_009.jpg	100
338.424	2.805	2804.9	navigation	Trial1	navigation/STIM_009.jpg	99
343.659	3.859	3859.4	navigation	Trial1	navigation/STIM_009.jpg	99
351.704	3.499	3498.6	navigation	Trial1	navigation/STIM_009.jpg	99
358.842	3.66	3659.9	navigation	Trial1	navigation/STIM_009.jpg	99
365.262	1.591	1590.8	navigation	Trial1	navigation/STIM_009.jpg	100
369.399	2.118	2118.4	navigation	Trial1	navigation/STIM_010.jpg	100
374.881	3.11	3110.2	navigation	Trial1	navigation/STIM_010.jpg	100
380.262	2.494	2494.2	navigation	Trial1	navigation/STIM_010.jpg	99
385.027	3.507	3507.4	navigation	Trial1	navigation/STIM_010.jpg	99
392.283	3.011	3011.0	navigation	Trial1	navigation/STIM_010.jpg	100
397.5	3.141	3141.0	navigation	Trial1	navigation/STIM_010.jpg	99
403.939	3.931	3931.4	navigation	Trial1	navigation/STIM_011.jpg	99
410.545	3.548	3547.7	navigation	Trial1	navigation/STIM_011.jpg	99
416.392	3.946	3946.2	navigation	Trial1	navigation/STIM_011.jpg	99
423.117	3.324	3324.2	navigation	Trial1	navigation/STIM_011.jpg	99
428.925	1.628	1628.3	navigation	Trial1	navigation/STIM_011.jpg	99
433.812	3.316	3315.9	navigation	Trial1	navigation/STIM_011.jpg	100
440.708	0.918	917.8	pointing	Trial1	pointing/STIM_000.jpg	99
445.16	1.179	1179.1	pointing	Trial1	pointing/STIM_000.jpg	99
450.115	1.392	1391.6	pointing	Trial1	pointing/STIM_000.jpg	99
453.855	0.856	856.0	pointing	Trial1	pointing/STIM_000.jpg	100
457.5	1.278	1278.3	pointing	Trial1	pointing/STIM_000.jpg	99
461.796	1.271	1271.0	pointing	Trial1	pointing/STIM_000.jpg	99
466.853	1.291	1291.3	pointing	Trial1	pointing/STIM_001.jpg	100
471.524	0.884	884.3	pointing	Trial1	pointing/STIM_001.jpg	100
475.273	1.034	1033.6	pointing	Trial1	pointing/STIM_001.jpg	99
478.599	1.282	1282.5	pointing	Trial1	pointing/STIM_001.jpg	99
482.116	0.928	927.6	pointing	Trial1	pointing/STIM_001.jpg	99
485.917	1.31	1309.9	pointing	Trial1	pointing/STIM_001.jpg	100
491.156	0.947	946.9	pointing	Trial1	pointing/STIM_002.jpg	99
495.498	1.284	1284.0	pointing	Trial1	pointing/STIM_002.jpg	100
499.56	1.007	1006.8	pointing	Trial1	pointing/STIM_002.jpg	99
504.248	1.23	1230.5	pointing	Trial1	pointing/STIM_002.jpg	99
509.423	1.132	1131.5	pointing	Trial1	pointing/STIM_002.jpg	99
513.678	1.321	1320.9	pointing	Trial1	pointing/STIM_002.jpg	100
518.707	1.049	1048.8	pointing	Trial1	pointing/STIM_003.jpg	100
523.579	1.134	1134.5	pointing	Trial1	pointing/STIM_003.jpg	99
527.839	1.121	1121.4	pointing	Trial1	pointing/STIM_003.jpg	99
532.802	1.026	1025.8	pointing	Trial1	pointing/STIM_003.jpg	99
536.824	0.877	876.9	pointing	Trial1	pointing/STIM_003.jpg	99
541.349	1.071	1071.1	pointing	Trial1	pointing/STIM_003.jpg	99
544.885	1.248	1248.0	pointing	Trial1	pointing/STIM_004.jpg	100
548.846	1.15	1149.6	pointing	Trial1	pointing/STIM_004.jpg	100
553.282	1.026	1026.1	pointing	Trial1	pointing/STIM_004.jpg	99
556.881	0.815	814.6	pointing	Trial1	pointing/STIM_004.jpg	99
560.404	1.126	1126.2	pointing	Trial1	pointing/STIM_004.jpg	100
564.883	1.01	1009.5	pointing	Trial1	pointing/STIM_004.jpg	100
568.564	0.977	976.6	pointing	Trial1	pointing/STIM_005.jpg	99
571.674	1.318	1317.8	pointing	Trial1	pointing/STIM_005.jpg	99
575.714	0.82	819.8	pointing	Trial1	pointing/STIM_005.jpg	99
578.83	1.232	1231.7	pointing	Trial1	pointing/STIM_005.jpg	100
583.612	0.913	912.8	pointing	Trial1	pointing/STIM_005.jpg	100
587.641	0.888	887.8	pointing	Trial1	pointing/STIM_005.jpg	99
590.604	1.393	1392.6	pointing	Trial1	pointing/STIM_006.jpg	99
594.794	1.137	1136.9	pointing	Trial1	pointing/STIM_006.jpg	99
599.779	0.819	819.1	pointing	Trial1	pointing/STIM_006.jpg	100
604.02	0.965	964.7	pointing	Trial1	pointing/STIM_006.jpg	100
607.569	0.826	825.5	pointing	Trial1	pointing/STIM_006.jpg	100
610.958	0.84	840.1	pointing	Trial1	pointing/STIM_006.jpg	100
614.824	1.057	1057.1	pointing	Trial1	pointing/STIM_007.jpg	99
618.378	1.26	1259.7	pointing	Trial1	pointing/STIM_007.jpg	99
622.515	1.056	1056.4	pointing	Trial1	pointing/STIM_007.jpg	99
627.582	1.341	1341.3	pointing	Trial1	pointing/STIM_007.jpg	99
632.758	1.119	1119.2	pointing	Trial1	pointing/STIM_007.jpg	99
637.033	0.769	768.8	pointing	Trial1	pointing/STIM_007.jpg	99
640.717	1.379	1379.1	pointing	Trial1	pointing/STIM_008.jpg	99
644.337	1.067	1067.0	pointing	Trial1	pointing/STIM_008.jpg	100
648.841	1.067	1066.8	pointing	Trial1	pointing/STIM_008.jpg	100
652.467	1.23	1229.6	pointing	Trial1	pointing/STIM_008.jpg	100
656.304	1.365	1365.4	pointing	Trial1	pointing/STIM_008.jpg	99
660.128	0.992	992.3	pointing	Trial1	pointing/STIM_008.jpg	100
663.405	0.763	763.2	pointing	Trial1	pointing/STIM_009.jpg	100
666.214	1.192	1192.0	pointing	Trial1	pointing/STIM_009.jpg	99
670.052	1.281	1280.9	pointing	Trial1	pointing/STIM_009.jpg	100
673.522	1.231	1231.3	pointing	Trial1	pointing/STIM_009.jpg	99
678.616	0.766	765.6	pointing	Trial1	pointing/STIM_009.jpg	100
681.905	1.356	1355.9	pointing	Trial1	pointing/STIM_009.jpg	99
686.65	1.031	1031.3	pointing	Trial1	pointing/STIM_010.jpg	99
690.73	1.346	1346.1	pointing	Trial1	pointing/STIM_010.jpg	100
695.314	1.039	1039.4	pointing	Trial1	pointing/STIM_010.jpg	100
698.551	1.251	1250.7	pointing	Trial1	pointing/STIM_010.jpg	99
702.235	1.164	1163.8	pointing	Trial1	pointing/STIM_010.jpg	100
706.918	0.856	856.3	pointing	Trial1	pointing/STIM_010.jpg	100
710.08	0.883	883.3	pointing	Trial1	pointing/STIM_011.jpg	99
713.77	0.944	944.0	pointing	Trial1	pointing/STIM_011.jpg	100
717.844	1.229	1228.9	pointing	Trial1	pointing/STIM_011.jpg	99
721.355	1.357	1357.0	pointing	Trial1	pointing/STIM_011.jpg	100
725.725	0.932	931.8	pointing	Trial1	pointing/STIM_011.jpg	99
730.395	1.367	1367.1	pointing	Trial1	pointing/STIM_011.jpg	99
735.309	1.658	1657.9	navigation	Trial2	navigation/STIM_000.jpg	99
739.163	3.458	3457.9	navigation	Trial2	navigation/STIM_000.jpg	99
746.319	1.721	1721.2	navigation	Trial2	navigation/STIM_000.jpg	99
751.869	2.122	2121.5	navigation	Trial2	navigation/STIM_000.jpg	100
757.644	1.65	1649.7	navigation	Trial2	navigation/STIM_000.jpg	99
762.58	1.859	1859.1	navigation	Trial2	navigation/STIM_000.jpg	100
766.603	4.011	4010.9	navigation	Trial2	navigation/STIM_001.jpg	99
773.13	3.557	3557.3	navigation	Trial2	navigation/STIM_001.jpg	100
779.372	3.519	3518.8	navigation	Trial2	navigation/STIM_001.jpg	99
785.777	3.243	3243.1	navigation	Trial2	navigation/STIM_001.jpg	100
792.547	1.593	1592.7	navigation	Trial2	navigation/STIM_001.jpg	100
797.481	2.128	2127.8	navigation	Trial2	navigation/STIM_001.jpg	99
803.15	1.954	1954.1	navigation	Trial2	navigation/STIM_002.jpg	99
808.282	3.352	3351.6	navigation	Trial2	navigation/STIM_002.jpg	100
815.241	2.042	2041.8	navigation	Trial2	navigation/STIM_002.jpg	99
819.832	2.934	2934.5	navigation	Trial2	navigation/STIM_002.jpg	99
826.251	2.22	2220.2	navigation	Trial2	navigation/STIM_002.jpg	100
831.023	3.055	3054.8	navigation	Trial2	navigation/STIM_002.jpg	100
837.366	3.134	3133.5	navigation	Trial2	navigation/STIM_003.jpg	99
844.651	1.918	1917.5	navigation	Trial2	navigation/STIM_003.jpg	99
848.688	2.759	2758.8	navigation	Trial2	navigation/STIM_003.jpg	100
853.905	1.97	1970.1	navigation	Trial2	navigation/STIM_003.jpg	100
858.87	2.23	2230.2	navigation	Trial2	navigation/STIM_003.jpg	99
865.044	1.523	1522.6	navigation	Trial2	navigation/STIM_003.jpg	99
870.15	3.441	3440.7	navigation	Trial2	navigation/STIM_004.jpg	100
876.468	1.825	1825.0	navigation	Trial2	navigation/STIM_004.jpg	100
881.993	2.312	2312.2	navigation	Trial2	navigation/STIM_004.jpg	100
887.401	1.619	1619.3	navigation	Trial2	navigation/STIM_004.jpg	100
891.134	2.167	2167.1	navigation	Trial2	navigation/STIM_004.jpg	100
896.56	1.834	1834.1	navigation	Trial2	navigation/STIM_004.jpg	99
902.195	3.09	3089.6	navigation	Trial2	navigation/STIM_005.jpg	99
908.33	2.507	2507.2	navigation	Trial2	navigation/STIM_005.jpg	99
913.404	3.178	3178.5	navigation	Trial2	navigation/STIM_005.jpg	99
919.629	1.733	1733.2	navigation	Trial2	navigation/STIM_005.jpg	100
924.166	2.928	2928.2	navigation	Trial2	navigation/STIM_005.jpg	99
929.698	2.924	2923.7	navigation	Trial2	navigation/STIM_005.jpg	99
935.181	1.924	1923.7	navigation	Trial2	navigation/STIM_006.jpg	99
939.458	2.247	2247.0	navigation	Trial2	navigation/STIM_006.jpg	100
944.201	1.572	1571.8	navigation	Trial2	navigation/STIM_006.jpg	100
949.33	1.359	1359.3	navigation	Trial2	navigation/STIM_006.jpg	99
952.844	1.841	1841.0	navigation	Trial2	navigation/STIM_006.jpg	100
958.648	3.289	3289.0	navigation	Trial2	navigation/STIM_006.jpg	99
964.536	2.086	2085.8	navigation	Trial2	navigation/STIM_007.jpg	100
969.473	3.165	3165.0	navigation	Trial2	navigation/STIM_007.jpg	99
975.287	3.524	3523.6	navigation	Trial2	navigation/STIM_007.jpg	99
982.896	2.106	2106.4	navigation	Trial2	navigation/STIM_007.jpg	99
988.898	3.246	3246.0	navigation	Trial2	navigation/STIM_007.jpg	100
994.43	1.906	1905.7	navigation	Trial2	navigation/STIM_007.jpg	99
1000.24	3.441	3440.7	navigation	Trial2	navigation/STIM_008.jpg	100
1006.38	3.032	3032.3	navigation	Trial2	navigation/STIM_008.jpg	100
1012.911	3.407	3406.8	navigation	Trial2	navigation/STIM_008.jpg	99
1019.947	3.043	3042.6	navigation	Trial2	navigation/STIM_008.jpg	99
1027.01	2.465	2464.7	navigation	Trial2	navigation/STIM_008.jpg	99
1033.601	2.202	2201.6	navigation	Trial2	navigation/STIM_008.jpg	100
1039.178	1.806	1806.1	navigation	Trial2	navigation/STIM_009.jpg	99
1044.031	1.866	1866.5	navigation	Trial2	navigation/STIM_009.jpg	99
1049.381	1.772	1771.9	navigation	Trial2	navigation/STIM_009.jpg	100
1053.611	2.597	2597.1	navigation	Trial2	navigation/STIM_009.jpg	100
1059.06	1.36	1360.3	navigation	Trial2	navigation/STIM_009.jpg	100
1064.179	1.967	1967.1	navigation	Trial2	navigation/STIM_009.jpg	99
1069.286	2.578	2577.8	navigation	Trial2	navigation/STIM_010.jpg	99
1075.312	1.548	1547.6	navigation	Trial2	navigation/STIM_010.jpg	99
1079.069	2.909	2909.0	navigation	Trial2	navigation/STIM_010.jpg	100
1085.488	2.183	2182.9	navigation	Trial2	navigation/STIM_010.jpg	100
1090.801	3.054	3054.3	navigation	Trial2	navigation/STIM_010.jpg	100
1097.693	2.682	2682.5	navigation	Trial2	navigation/STIM_010.jpg	99
1104.22	3.694	3694.5	navigation	Trial2	navigation/STIM_011.jpg	99
1110.995	2.172	2171.7	navigation	Trial2	navigation/STIM_011.jpg	99
1116.032	1.468	1467.8	navigation	Trial2	navigation/STIM_011.jpg	100
1120.888	1.639	1639.3	navigation	Trial2	navigation/STIM_011.jpg	99
1125.449	2.872	2871.7	navigation	Trial2	navigation/STIM_011.jpg	99
1131.063	1.392	1392.1	navigation	Trial2	navigation/STIM_011.jpg	100
1135.98	1.228	1228.2	pointing	Trial2	pointing/STIM_000.jpg	99
1140.838	1.317	1316.6	pointing	Trial2	pointing/STIM_000.jpg	99
1145.335	0.866	865.8	pointing	Trial2	pointing/STIM_000.jpg	100
1148.861	1.072	1071.5	pointing	Trial2	pointing/STIM_000.jpg	100
1152.996	1.035	1035.3	pointing	Trial2	pointing/STIM_000.jpg	100
1157.7	0.759	758.6	pointing	Trial2	pointing/STIM_000.jpg	100
1161.275	0.807	807.4	pointing	Trial2	pointing/STIM_001.jpg	100
1164.547	0.931	930.7	pointing	Trial2	pointing/STIM_001.jpg	100
1168.834	1.176	1176.1	pointing	Trial2	pointing/STIM_001.jpg	100
1173.871	0.843	842.9	pointing	Trial2	pointing/STIM_001.jpg	99
1178.633	1.394	1393.5	pointing	Trial2	pointing/STIM_001.jpg	100
1182.413	1.193	1193.2	pointing	Trial2	pointing/STIM_001.jpg	100
1186.865	1.288	1287.6	pointing	Trial2	pointing/STIM_002.jpg	100
1191.764	1.137	1136.8	pointing	Trial2	pointing/STIM_002.jpg	99
1196.109	1.329	1329.4	pointing	Trial2	pointing/STIM_002.jpg	100
1199.713	1.075	1075.4	pointing	Trial2	pointing/STIM_002.jpg	100
1203.25	1.171	1171.0	pointing	Trial2	pointing/STIM_002.jpg	99
1206.612	0.874	873.5	pointing	Trial2	pointing/STIM_002.jpg	99
1210.982	0.857	857.4	pointing	Trial2	pointing/STIM_003.jpg	100
1215.154	1.091	1091.3	pointing	Trial2	pointing/STIM_003.jpg	99
1219.348	1.025	1025.2	pointing	Trial2	pointing/STIM_003.jpg	99
1222.878	0.978	978.2	pointing	Trial2	pointing/STIM_003.jpg	100
1226.642	1.028	1027.5	pointing	Trial2	pointing/STIM_003.jpg	99
1231.481	1.05	1050.2	pointing	Trial2	pointing/STIM_003.jpg	99
1234.899	1.049	1049.1	pointing	Trial2	pointing/STIM_004.jpg	99
1239.057	0.899	899.1	pointing	Trial2	pointing/STIM_004.jpg	100
1242.153	1.049	1048.8	pointing	Trial2	pointing/STIM_004.jpg	100
1245.624	1.392	1392.1	pointing	Trial2	pointing/STIM_004.jpg	99
1249.735	1.196	1196.4	pointing	Trial2	pointing/STIM_004.jpg	100
1254.19	1.049	1049.0	pointing	Trial2	pointing/STIM_004.jpg	100
1258.97	1.046	1045.8	pointing	Trial2	pointing/STIM_005.jpg	100
1262.32	1.214	1213.9	pointing	Trial2	pointing/STIM_005.jpg	100
1267.485	1.173	1173.1	pointing	Trial2	pointing/STIM_005.jpg	99
1270.887	1.082	1082.1	pointing	Trial2	pointing/STIM_005.jpg	99
1275.658	0.767	767.2	pointing	Trial2	pointing/STIM_005.jpg	99
1278.974	1.347	1347.2	pointing	Trial2	pointing/STIM_005.jpg	99
1284.085	1.224	1223.6	pointing	Trial2	pointing/STIM_006.jpg	100
1287.75	1.111	1111.2	pointing	Trial2	pointing/STIM_006.jpg	100
1292.101	1.09	1090.5	pointing	Trial2	pointing/STIM_006.jpg	99
1295.333	1.351	1351.0	pointing	Trial2	pointing/STIM_006.jpg	100
1300.679	0.8	800.5	pointing	Trial2	pointing/STIM_006.jpg	100
1305.383	0.978	978.3	pointing	Trial2	pointing/STIM_006.jpg	99
1310.261	1.252	1251.8	pointing	Trial2	pointing/STIM_007.jpg	100
1313.972	1.058	1058.1	pointing	Trial2	pointing/STIM_007.jpg	99
1317.522	1.09	1090.5	pointing	Trial2	pointing/STIM_007.jpg	99
1321.188	0.892	891.7	pointing	Trial2	pointing/STIM_007.jpg	100
1324.884	1.272	1272.5	pointing	Trial2	pointing/STIM_007.jpg	100
1328.321	1.198	1198.3	pointing	Trial2	pointing/STIM_007.jpg	100
1332.938	1.344	1344.5	pointing	Trial2	pointing/STIM_008.jpg	99
1338.312	1.224	1224.4	pointing	Trial2	pointing/STIM_008.jpg	99
1343.102	0.856	855.5	pointing	Trial2	pointing/STIM_008.jpg	100
1347.473	1.398	1398.1	pointing	Trial2	pointing/STIM_008.jpg	100
1351.245	1.289	1288.8	pointing	Trial2	pointing/STIM_008.jpg	100
1356.064	1.279	1278.7	pointing	Trial2	pointing/STIM_008.jpg	100
1360.104	0.825	825.0	pointing	Trial2	pointing/STIM_009.jpg	100
1364.674	1.332	1332.4	pointing	Trial2	pointing/STIM_009.jpg	100
1369.057	0.82	820.1	pointing	Trial2	pointing/STIM_009.jpg	99
1372.916	1.329	1328.7	pointing	Trial2	pointing/STIM_009.jpg	99
1377.206	1.115	1115.2	pointing	Trial2	pointing/STIM_009.jpg	99
1380.533	0.852	851.8	pointing	Trial2	pointing/STIM_009.jpg	100
1384.461	1.355	1355.1	pointing	Trial2	pointing/STIM_010.jpg	100
1388.957	1.255	1255.2	pointing	Trial2	pointing/STIM_010.jpg	99
1393.539	1.379	1379.0	pointing	Trial2	pointing/STIM_010.jpg	99
1397.261	0.897	897.3	pointing	Trial2	pointing/STIM_010.jpg	100
1401.732	0.788	787.9	pointing	Trial2	pointing/STIM_010.jpg	99
1406.46	1.068	1068.4	pointing	Trial2	pointing/STIM_010.jpg	100
1411.259	1.414	1413.6	pointing	Trial2	pointing/STIM_011.jpg	99
1416.194	1.408	1408.0	pointing	Trial2	pointing/STIM_011.jpg	99
1420.348	1.077	1076.9	pointing	Trial2	pointing/STIM_011.jpg	99
1425.263	1.189	1188.9	pointing	Trial2	pointing/STIM_011.jpg	100
1430.447	0.852	851.9	pointing	Trial2	pointing/STIM_011.jpg	100
1435.305	0.942	942.2	pointing	Trial2	pointing/STIM_011.jpg	100
1438.568	3.11	3109.7	navigation	Trial3	navigation/STIM_000.jpg	99
1444.12	1.61	1610.3	navigation	Trial3	navigation/STIM_000.jpg	100
1448.116	2.1	2100.4	navigation	Trial3	navigation/STIM_000.jpg	100
1452.95	2.066	2066.0	navigation	Trial3	navigation/STIM_000.jpg	100
1457.335	3.246	3245.9	navigation	Trial3	navigation/STIM_000.jpg	99
1463.714	1.609	1608.6	navigation	Trial3	navigation/STIM_000.jpg	99
1469.063	3.059	3059.1	navigation	Trial3	navigation/STIM_001.jpg	99
1475.812	2.235	2235.3	navigation	Trial3	navigation/STIM_001.jpg	99
1480.993	3.09	3089.8	navigation	Trial3	navigation/STIM_001.jpg	99
1487.121	1.885	1884.6	navigation	Trial3	navigation/STIM_001.jpg	100
1492.347	2.623	2622.8	navigation	Trial3	navigation/STIM_001.jpg	100
1498.768	3.182	3182.0	navigation	Trial3	navigation/STIM_001.jpg	99
1506.031	2.05	2049.8	navigation	Trial3	navigation/STIM_002.jpg	99
1511.282	1.512	1512.4	navigation	Trial3	navigation/STIM_002.jpg	99
1515.791	1.906	1905.5	navigation	Trial3	navigation/STIM_002.jpg	100
1521.124	3.312	3312.5	navigation	Trial3	navigation/STIM_002.jpg	99
1526.824	1.835	1834.9	navigation	Trial3	navigation/STIM_002.jpg	100
1532.529	2.365	2364.6	navigation	Trial3	navigation/STIM_002.jpg	100
1538.843	2.386	2386.1	navigation	Trial3	navigation/STIM_003.jpg	100
1544.727	1.558	1557.9	navigation	Trial3	navigation/STIM_003.jpg	99
1549.097	3.035	3035.0	navigation	Trial3	navigation/STIM_003.jpg	100
1555.877	1.384	1383.6	navigation	Trial3	navigation/STIM_003.jpg	99
1560.363	2.121	2121.4	navigation	Trial3	navigation/STIM_003.jpg	99
1565.305	1.657	1657.3	navigation	Trial3	navigation/STIM_003.jpg	100
1569.645	2.782	2782.3	navigation	Trial3	navigation/STIM_004.jpg	100
1575.113	2.261	2261.3	navigation	Trial3	navigation/STIM_004.jpg	100
1579.81	2.653	2652.7	navigation	Trial3	navigation/STIM_004.jpg	99
1586.001	2.681	2680.6	navigation	Trial3	navigation/STIM_004.jpg	99
1591.773	3.111	3110.7	navigation	Trial3	navigation/STIM_004.jpg	100
1598.406	3.104	3103.9	navigation	Trial3	navigation/STIM_004.jpg	100
1604.341	1.538	1537.5	navigation	Trial3	navigation/STIM_005.jpg	100
1608.151	3.262	3262.2	navigation	Trial3	navigation/STIM_005.jpg	99
1615.213	1.567	1567.4	navigation	Trial3	navigation/STIM_005.jpg	100
1619.095	2.375	2374.8	navigation	Trial3	navigation/STIM_005.jpg	99
1625.327	3.291	3291.3	navigation	Trial3	navigation/STIM_005.jpg	99
1630.919	2.396	2396.4	navigation	Trial3	navigation/STIM_005.jpg	100
1636.659	2.26	2260.1	navigation	Trial3	navigation/STIM_006.jpg	99
1641.332	3.029	3029.3	navigation	Trial3	navigation/STIM_006.jpg	99
1646.61	2.663	2662.8	navigation	Trial3	navigation/STIM_006.jpg	99
1652.413	2.392	2391.8	navigation	Trial3	navigation/STIM_006.jpg	100
1657.613	1.598	1598.5	navigation	Trial3	navigation/STIM_006.jpg	100
1662.62	2.603	2603.0	navigation	Trial3	navigation/STIM_006.jpg	100
1668.802	1.451	1450.9	navigation	Trial3	navigation/STIM_007.jpg	100
1673.663	1.348	1347.8	navigation	Trial3	navigation/STIM_007.jpg	99
1678.474	2.235	2235.3	navigation	Trial3	navigation/STIM_007.jpg	100
1684.713	1.333	1332.8	navigation	Trial3	navigation/STIM_007.jpg	100
1689.45	2.396	2396.2	navigation	Trial3	navigation/STIM_007.jpg	100
1695.026	1.468	1468.2	navigation	Trial3	navigation/STIM_007.jpg	100
1700.085	1.408	1408.2	navigation	Trial3	navigation/STIM_008.jpg	100
1705.185	2.734	2733.5	navigation	Trial3	navigation/STIM_008.jpg	99
1710.157	2.353	2353.0	navigation	Trial3	navigation/STIM_008.jpg	100
1716.617	1.36	1359.5	navigation	Trial3	navigation/STIM_008.jpg	99
1721.639	1.905	1905.1	navigation	Trial3	navigation/STIM_008.jpg	99
1726.567	2.156	2156.4	navigation	Trial3	navigation/STIM_008.jpg	100
1731.189	1.925	1925.1	navigation	Trial3	navigation/STIM_009.jpg	100
1735.54	3.057	3057.0	navigation	Trial3	navigation/STIM_009.jpg	100
1742.37	2.398	2397.8	navigation	Trial3	navigation/STIM_009.jpg	99
1748.558	2.865	2865.3	navigation	Trial3	navigation/STIM_009.jpg	99
1755.108	2.91	2910.0	navigation	Trial3	navigation/STIM_009.jpg	100
1761.227	1.625	1625.1	navigation	Trial3	navigation/STIM_009.jpg	100
1765.568	2.41	2409.5	navigation	Trial3	navigation/STIM_010.jpg	99
1771.75	2.209	2209.0	navigation	Trial3	navigation/STIM_010.jpg	99
1778.016	1.58	1580.5	navigation	Trial3	navigation/STIM_010.jpg	99
1782.267	2.542	2541.6	navigation	Trial3	navigation/STIM_010.jpg	100
1788.097	2.926	2925.6	navigation	Trial3	navigation/STIM_010.jpg	99
1794.056	3.103	3102.7	navigation	Trial3	navigation/STIM_010.jpg	100
1799.368	2.347	2346.9	navigation	Trial3	navigation/STIM_011.jpg	99
1805.745	2.542	2541.5	navigation	Trial3	navigation/STIM_011.jpg	99
1812.0	2.645	2644.8	navigation	Trial3	navigation/STIM_011.jpg	100
1818.133	1.462	1461.5	navigation	Trial3	navigation/STIM_011.jpg	100
1822.172	3.156	3155.8	navigation	Trial3	navigation/STIM_011.jpg	99
1828.688	2.479	2479.2	navigation	Trial3	navigation/STIM_011.jpg	99
1833.801	1.35	1349.5	pointing	Trial3	pointing/STIM_000.jpg	99
1838.687	1.299	1298.7	pointing	Trial3	pointing/STIM_000.jpg	99
1842.521	0.954	954.2	pointing	Trial3	pointing/STIM_000.jpg	100
1846.892	1.013	1013.4	pointing	Trial3	pointing/STIM_000.jpg	100
1850.9	0.927	926.7	pointing	Trial3	pointing/STIM_000.jpg	99
1855.81	1.292	1291.7	pointing	Trial3	pointing/STIM_000.jpg	100
1859.878	1.053	1053.0	pointing	Trial3	pointing/STIM_001.jpg	99
1863.554	1.057	1057.0	pointing	Trial3	pointing/STIM_001.jpg	99
1868.421	1.318	1317.7	pointing	Trial3	pointing/STIM_001.jpg	100
1873.694	1.023	1023.0	pointing	Trial3	pointing/STIM_001.jpg	100
1877.585	1.047	1047.2	pointing	Trial3	pointing/STIM_001.jpg	99
1881.202	1.042	1042.2	pointing	Trial3	pointing/STIM_001.jpg	100
1884.51	0.807	807.0	pointing	Trial3	pointing/STIM_002.jpg	99
1888.214	1.204	1203.8	pointing	Trial3	pointing/STIM_002.jpg	99
1892.009	1.334	1334.2	pointing	Trial3	pointing/STIM_002.jpg	99
1897.379	1.255	1254.7	pointing	Trial3	pointing/STIM_002.jpg	99
1901.975	1.029	1028.7	pointing	Trial3	pointing/STIM_002.jpg	100
1905.579	0.969	969.3	pointing	Trial3	pointing/STIM_002.jpg	100
1910.433	1.396	1396.5	pointing	Trial3	pointing/STIM_003.jpg	100
1915.899	1.16	1159.5	pointing	Trial3	pointing/STIM_003.jpg	100
1919.226	1.018	1017.8	pointing	Trial3	pointing/STIM_003.jpg	100
1923.023	0.788	788.4	pointing	Trial3	pointing/STIM_003.jpg	100
1926.778	0.935	934.6	pointing	Trial3	pointing/STIM_003.jpg	100
1930.837	1.327	1327.3	pointing	Trial3	pointing/STIM_003.jpg	99
1934.466	1.198	1197.7	pointing	Trial3	pointing/STIM_004.jpg	99
1939.356	1.304	1304.0	pointing	Trial3	pointing/STIM_004.jpg	99
1944.038	1.332	1331.5	pointing	Trial3	pointing/STIM_004.jpg	100
1948.375	0.969	968.9	pointing	Trial3	pointing/STIM_004.jpg	99
1951.647	1.098	1098.5	pointing	Trial3	pointing/STIM_004.jpg	100
1956.141	0.954	953.9	pointing	Trial3	pointing/STIM_004.jpg	99
1960.724	1.131	1131.4	pointing	Trial3	pointing/STIM_005.jpg	99
1964.409	1.274	1273.6	pointing	Trial3	pointing/STIM_005.jpg	100
1969.544	1.045	1044.8	pointing	Trial3	pointing/STIM_005.jpg	100
1973.897	1.184	1183.7	pointing	Trial3	pointing/STIM_005.jpg	100
1978.407	1.204	1204.5	pointing	Trial3	pointing/STIM_005.jpg	100
1982.416	1.245	1245.1	pointing	Trial3	pointing/STIM_005.jpg	99
1987.148	0.952	951.6	pointing	Trial3	pointing/STIM_006.jpg	99
1992.008	1.017	1016.6	pointing	Trial3	pointing/STIM_006.jpg	99
1995.511	0.937	936.8	pointing	Trial3	pointing/STIM_006.jpg	99
1999.503	1.088	1087.8	pointing	Trial3	pointing/STIM_006.jpg	100
2004.621	0.826	826.1	pointing	Trial3	pointing/STIM_006.jpg	99
2008.565	1.305	1304.9	pointing	Trial3	pointing/STIM_006.jpg	99
2013.261	1.174	1174.2	pointing	Trial3	pointing/STIM_007.jpg	100
2017.85	1.05	1049.9	pointing	Trial3	pointing/STIM_007.jpg	100
2021.997	0.923	922.6	pointing	Trial3	pointing/STIM_007.jpg	99
2026.829	0.918	918.2	pointing	Trial3	pointing/STIM_007.jpg	100
2030.08	1.29	1289.7	pointing	Trial3	pointing/STIM_007.jpg	99
2034.603	1.17	1170.1	pointing	Trial3	pointing/STIM_007.jpg	99
2037.861	1.362	1361.6	pointing	Trial3	pointing/STIM_008.jpg	99
2042.49	1.26	1259.6	pointing	Trial3	pointing/STIM_008.jpg	100
2047.071	1.022	1021.9	pointing	Trial3	pointing/STIM_008.jpg	100
2050.902	0.903	902.8	pointing	Trial3	pointing/STIM_008.jpg	100
2054.869	1.115	1114.9	pointing	Trial3	pointing/STIM_008.jpg	99
2058.138	0.906	906.3	pointing	Trial3	pointing/STIM_008.jpg	99
2061.952	1.2	1200.4	pointing	Trial3	pointing/STIM_009.jpg	100
2065.363	1.118	1118.2	pointing	Trial3	pointing/STIM_009.jpg	99
2069.971	0.824	824.3	pointing	Trial3	pointing/STIM_009.jpg	100
2072.887	1.319	1319.0	pointing	Trial3	pointing/STIM_009.jpg	100
2077.644	0.818	817.9	pointing	Trial3	pointing/STIM_009.jpg	99
2081.773	1.302	1302.3	pointing	Trial3	pointing/STIM_009.jpg	100
2085.767	1.328	1328.4	pointing	Trial3	pointing/STIM_010.jpg	99
2090.793	1.029	1028.9	pointing	Trial3	pointing/STIM_010.jpg	100
2094.976	1.08	1079.5	pointing	Trial3	pointing/STIM_010.jpg	100
2099.136	1.119	1118.9	pointing	Trial3	pointing/STIM_010.jpg	99
2103.254	1.36	1360.4	pointing	Trial3	pointing/STIM_010.jpg	99
2107.593	0.993	992.6	pointing	Trial3	pointing/STIM_010.jpg	99
2112.55	1.089	1088.7	pointing	Trial3	pointing/STIM_011.jpg	100
2117.334	1.342	1342.0	pointing	Trial3	pointing/STIM_011.jpg	100
2121.547	1.024	1023.8	pointing	Trial3	pointing/STIM_011.jpg	99
2126.256	1.05	1050.5	pointing	Trial3	pointing/STIM_011.jpg	100
2131.19	1.347	1347.4	pointing	Trial3	pointing/STIM_011.jpg	99
2135.36	0.965	964.8	pointing	Trial3	pointing/STIM_011.jpg	100
