onset	duration	accuracy_binary	trial_type	learning_stage	stimulus
0.0	4.156	0	navigation	Trial1	navigation/STIM_000.jpg
6.217	4.822	1	navigation	Trial1	navigation/STIM_000.jpg
13.632	2.986	1	navigation	Trial1	navigation/STIM_000.jpg
19.66	2.492	1	navigation	Trial1	navigation/STIM_000.jpg
25.701	2.471	1	navigation	Trial1	navigation/STIM_000.jpg
30.259	2.758	1	navigation	Trial1	navigation/STIM_000.jpg
36.483	3.696	0	navigation	Trial1	navigation/STIM_001.jpg
44.086	3.97	0	navigation	Trial1	navigation/STIM_001.jpg
51.709	4.342	1	navigation	Trial1	navigation/STIM_001.jpg
58.069	3.894	1	navigation	Trial1	navigation/STIM_001.jpg
64.58	3.636	0	navigation	Trial1	navigation/STIM_001.jpg
70.507	3.895	1	navigation	Trial1	navigation/STIM_001.jpg
77.278	3.957	0	navigation	Trial1	navigation/STIM_002.jpg
84.794	4.755	1	navigation	Trial1	navigation/STIM_002.jpg
93.205	4.142	0	navigation	Trial1	navigation/STIM_002.jpg
100.872	3.495	1	navigation	Trial1	navigation/STIM_002.jpg
107.573	3.116	1	navigation	Trial1	navigation/STIM_002.jpg
114.494	3.876	1	navigation	Trial1	navigation/STIM_002.jpg
121.736	5.261	1	navigation	Trial1	navigation/STIM_003.jpg
130.486	4.457	1	navigation	Trial1	navigation/STIM_003.jpg
138.055	4.392	1	navigation	Trial1	navigation/STIM_003.jpg
145.012	2.209	1	navigation	Trial1	navigation/STIM_003.jpg
150.022	2.126	1	navigation	Trial1	navigation/STIM_003.jpg
154.935	1.894	1	navigation	Trial1	navigation/STIM_003.jpg
159.079	3.387	1	navigation	Trial1	navigation/STIM_004.jpg
164.701	2.963	1	navigation	Trial1	navigation/STIM_004.jpg
171.553	3.738	0	navigation	Trial1	navigation/STIM_004.jpg
177.863	2.445	1	navigation	Trial1	navigation/STIM_004.jpg
183.811	3.789	1	navigation	Trial1	navigation/STIM_004.jpg
190.639	3.479	1	navigation	Trial1	navigation/STIM_004.jpg
197.277	4.924	0	navigation	Trial1	navigation/STIM_005.jpg
205.536	2.901	1	navigation	Trial1	navigation/STIM_005.jpg
211.845	3.78	0	navigation	Trial1	navigation/STIM_005.jpg
217.966	1.876	0	navigation	Trial1	navigation/STIM_005.jpg
222.062	2.874	0	navigation	Trial1	navigation/STIM_005.jpg
228.782	3.896	1	navigation	Trial1	navigation/STIM_005.jpg
234.953	2.594	0	navigation	Trial1	navigation/STIM_006.jpg
239.8	3.452	0	navigation	Trial1	navigation/STIM_006.jpg
247.111	4.184	1	navigation	Trial1	navigation/STIM_006.jpg
254.326	2.098	1	navigation	Trial1	navigation/STIM_006.jpg
259.964	3.284	1	navigation	Trial1	navigation/STIM_006.jpg
265.405	2.449	0	navigation	Trial1	navigation/STIM_006.jpg
271.685	3.304	0	navigation	Trial1	navigation/STIM_007.jpg
277.798	4.0	0	navigation	Trial1	navigation/STIM_007.jpg
284.292	2.651	1	navigation	Trial1	navigation/STIM_007.jpg
289.548	3.196	1	navigation	Trial1	navigation/STIM_007.jpg
294.778	3.096	1	navigation	Trial1	navigation/STIM_007.jpg
300.39	2.417	0	navigation	Trial1	navigation/STIM_007.jpg
305.182	4.928	1	navigation	Trial1	navigation/STIM_008.jpg
313.225	3.131	1	navigation	Trial1	navigation/STIM_008.jpg
318.876	2.437	1	navigation	Trial1	navigation/STIM_008.jpg
323.705	3.859	1	navigation	Trial1	navigation/STIM_008.jpg
330.982	3.613	1	navigation	Trial1	navigation/STIM_008.jpg
337.694	2.153	1	navigation	Trial1	navigation/STIM_008.jpg
342.021	3.288	0	navigation	Trial1	navigation/STIM_009.jpg
347.587	2.595	0	navigation	Trial1	navigation/STIM_009.jpg
354.123	4.114	1	navigation	Trial1	navigation/STIM_009.jpg
361.095	3.937	1	navigation	Trial1	navigation/STIM_009.jpg
367.832	2.457	1	navigation	Trial1	navigation/STIM_009.jpg
372.983	2.162	1	navigation	Trial1	navigation/STIM_009.jpg
378.977	3.375	1	navigation	Trial1	navigation/STIM_010.jpg
385.264	3.7	1	navigation	Trial1	navigation/STIM_010.jpg
392.419	2.451	0	navigation	Trial1	navigation/STIM_010.jpg
398.211	4.152	1	navigation	Trial1	navigation/STIM_010.jpg
405.214	1.891	1	navigation	Trial1	navigation/STIM_010.jpg
409.726	3.996	1	navigation	Trial1	navigation/STIM_010.jpg
417.277	3.31	0	navigation	Trial1	navigation/STIM_011.jpg
423.551	4.369	0	navigation	Trial1	navigation/STIM_011.jpg
430.039	2.323	1	navigation	Trial1	navigation/STIM_011.jpg
435.802	4.221	0	navigation	Trial1	navigation/STIM_011.jpg
443.563	3.972	1	navigation	Trial1	navigation/STIM_011.jpg
451.33	3.426	1	navigation	Trial1	navigation/STIM_011.jpg
457.791	0.921	1	pointing	Trial1	pointing/STIM_000.jpg
461.92	1.479	1	pointing	Trial1	pointing/STIM_000.jpg
465.789	1.198	1	pointing	Trial1	pointing/STIM_000.jpg
470.97	1.445	1	pointing	Trial1	pointing/STIM_000.jpg
475.031	0.92	1	pointing	Trial1	pointing/STIM_000.jpg
479.574	1.295	0	pointing	Trial1	pointing/STIM_000.jpg
484.833	1.246	1	pointing	Trial1	pointing/STIM_001.jpg
489.829	0.899	1	pointing	Trial1	pointing/STIM_001.jpg
494.612	1.373	1	pointing	Trial1	pointing/STIM_001.jpg
498.099	1.536	1	pointing	Trial1	pointing/STIM_001.jpg
502.616	1.247	1	pointing	Trial1	pointing/STIM_001.jpg
506.564	1.414	1	pointing	Trial1	pointing/STIM_001.jpg
511.455	0.963	1	pointing	Trial1	pointing/STIM_002.jpg
515.358	0.869	1	pointing	Trial1	pointing/STIM_002.jpg
519.47	1.317	1	pointing	Trial1	pointing/STIM_002.jpg
524.211	0.989	1	pointing	Trial1	pointing/STIM_002.jpg
529.101	0.946	1	pointing	Trial1	pointing/STIM_002.jpg
533.337	1.299	1	pointing	Trial1	pointing/STIM_002.jpg
537.834	1.469	1	pointing	Trial1	pointing/STIM_003.jpg
542.955	1.398	0	pointing	Trial1	pointing/STIM_003.jpg
546.728	1.212	1	pointing	Trial1	pointing/STIM_003.jpg
551.271	1.012	1	pointing	Trial1	pointing/STIM_003.jpg
555.723	0.946	1	pointing	Trial1	pointing/STIM_003.jpg
559.946	1.128	1	pointing	Trial1	pointing/STIM_003.jpg
563.12	1.252	1	pointing	Trial1	pointing/STIM_004.jpg
566.84	1.28	1	pointing	Trial1	pointing/STIM_004.jpg
570.557	0.938	1	pointing	Trial1	pointing/STIM_004.jpg
575.368	1.193	0	pointing	Trial1	pointing/STIM_004.jpg
580.048	1.395	1	pointing	Trial1	pointing/STIM_004.jpg
584.856	1.543	1	pointing	Trial1	pointing/STIM_004.jpg
590.37	1.558	1	pointing	Trial1	pointing/STIM_005.jpg
594.94	0.981	1	pointing	Trial1	pointing/STIM_005.jpg
598.684	1.405	1	pointing	Trial1	pointing/STIM_005.jpg
603.726	1.177	1	pointing	Trial1	pointing/STIM_005.jpg
608.417	1.426	1	pointing	Trial1	pointing/STIM_005.jpg
612.721	1.065	1	pointing	Trial1	pointing/STIM_005.jpg
615.88	1.43	1	pointing	Trial1	pointing/STIM_006.jpg
619.809	1.185	1	pointing	Trial1	pointing/STIM_006.jpg
623.597	1.619	1	pointing	Trial1	pointing/STIM_006.jpg
628.032	0.946	1	pointing	Trial1	pointing/STIM_006.jpg
631.563	1.239	1	pointing	Trial1	pointing/STIM_006.jpg
636.796	1.602	1	pointing	Trial1	pointing/STIM_006.jpg
640.427	1.063	1	pointing	Trial1	pointing/STIM_007.jpg
643.84	1.61	1	pointing	Trial1	pointing/STIM_007.jpg
648.554	1.321	1	pointing	Trial1	pointing/STIM_007.jpg
652.714	1.079	1	pointing	Trial1	pointing/STIM_007.jpg
657.685	1.27	1	pointing	Trial1	pointing/STIM_007.jpg
661.75	1.002	1	pointing	Trial1	pointing/STIM_007.jpg
665.998	1.492	1	pointing	Trial1	pointing/STIM_008.jpg
670.949	1.032	1	pointing	Trial1	pointing/STIM_008.jpg
675.15	1.497	1	pointing	Trial1	pointing/STIM_008.jpg
679.59	1.192	1	pointing	Trial1	pointing/STIM_008.jpg
683.93	1.401	1	pointing	Trial1	pointing/STIM_008.jpg
689.059	1.1	1	pointing	Trial1	pointing/STIM_008.jpg
693.868	1.222	1	pointing	Trial1	pointing/STIM_009.jpg
697.509	0.977	1	pointing	Trial1	pointing/STIM_009.jpg
700.636	0.94	1	pointing	Trial1	pointing/STIM_009.jpg
703.749	1.289	1	pointing	Trial1	pointing/STIM_009.jpg
708.332	1.192	1	pointing	Trial1	pointing/STIM_009.jpg
712.383	0.88	1	pointing	Trial1	pointing/STIM_009.jpg
716.709	0.953	1	pointing	Trial1	pointing/STIM_010.jpg
720.635	1.402	1	pointing	Trial1	pointing/STIM_010.jpg
725.209	1.345	1	pointing	Trial1	pointing/STIM_010.jpg
730.185	1.462	1	pointing	Trial1	pointing/STIM_010.jpg
735.044	1.269	1	pointing	Trial1	pointing/STIM_010.jpg
740.059	0.96	1	pointing	Trial1	pointing/STIM_010.jpg
743.89	1.066	1	pointing	Trial1	pointing/STIM_011.jpg
748.63	0.932	1	pointing	Trial1	pointing/STIM_011.jpg
752.871	1.613	1	pointing	Trial1	pointing/STIM_011.jpg
756.976	1.201	1	pointing	Trial1	pointing/STIM_011.jpg
762.115	1.513	0	pointing	Trial1	pointing/STIM_011.jpg
767.556	1.494	1	pointing	Trial1	pointing/STIM_011.jpg
772.909	3.258	0	navigation	Trial2	navigation/STIM_000.jpg
778.486	2.038	0	navigation	Trial2	navigation/STIM_000.jpg
782.793	2.004	1	navigation	Trial2	navigation/STIM_000.jpg
787.91	3.337	1	navigation	Trial2	navigation/STIM_000.jpg
794.64	1.61	0	navigation	Trial2	navigation/STIM_000.jpg
799.415	3.434	1	navigation	Trial2	navigation/STIM_000.jpg
805.126	2.288	1	navigation	Trial2	navigation/STIM_001.jpg
809.543	2.433	1	navigation	Trial2	navigation/STIM_001.jpg
815.758	3.58	1	navigation	Trial2	navigation/STIM_001.jpg
822.614	1.908	1	navigation	Trial2	navigation/STIM_001.jpg
827.769	2.81	1	navigation	Trial2	navigation/STIM_001.jpg
834.058	2.027	1	navigation	Trial2	navigation/STIM_001.jpg
839.231	3.782	1	navigation	Trial2	navigation/STIM_002.jpg
845.27	2.342	1	navigation	Trial2	navigation/STIM_002.jpg
851.199	2.901	0	navigation	Trial2	navigation/STIM_002.jpg
856.436	1.615	0	navigation	Trial2	navigation/STIM_002.jpg
861.185	2.172	0	navigation	Trial2	navigation/STIM_002.jpg
865.887	3.638	1	navigation	Trial2	navigation/STIM_002.jpg
872.995	4.303	0	navigation	Trial2	navigation/STIM_003.jpg
881.244	4.276	1	navigation	Trial2	navigation/STIM_003.jpg
889.233	2.624	1	navigation	Trial2	navigation/STIM_003.jpg
894.743	3.137	1	navigation	Trial2	navigation/STIM_003.jpg
901.726	3.112	0	navigation	Trial2	navigation/STIM_003.jpg
907.168	2.876	1	navigation	Trial2	navigation/STIM_003.jpg
912.33	3.953	1	navigation	Trial2	navigation/STIM_004.jpg
919.005	2.77	0	navigation	Trial2	navigation/STIM_004.jpg
924.942	1.765	0	navigation	Trial2	navigation/STIM_004.jpg
929.209	1.976	0	navigation	Trial2	navigation/STIM_004.jpg
934.786	2.721	0	navigation	Trial2	navigation/STIM_004.jpg
940.073	1.742	1	navigation	Trial2	navigation/STIM_004.jpg
945.216	4.248	1	navigation	Trial2	navigation/STIM_005.jpg
952.697	2.315	1	navigation	Trial2	navigation/STIM_005.jpg
958.43	2.096	1	navigation	Trial2	navigation/STIM_005.jpg
964.031	1.695	1	navigation	Trial2	navigation/STIM_005.jpg
968.493	2.381	1	navigation	Trial2	navigation/STIM_005.jpg
974.398	3.654	1	navigation	Trial2	navigation/STIM_005.jpg
980.714	2.375	1	navigation	Trial2	navigation/STIM_006.jpg
985.643	4.1	1	navigation	Trial2	navigation/STIM_006.jpg
991.892	2.038	1	navigation	Trial2	navigation/STIM_006.jpg
996.591	2.598	1	navigation	Trial2	navigation/STIM_006.jpg
1002.682	2.378	1	navigation	Trial2	navigation/STIM_006.jpg
1008.899	1.773	0	navigation	Trial2	navigation/STIM_006.jpg
1012.706	3.017	1	navigation	Trial2	navigation/STIM_007.jpg
1019.157	4.304	0	navigation	Trial2	navigation/STIM_007.jpg
1027.348	3.291	1	navigation	Trial2	navigation/STIM_007.jpg
1034.572	3.687	1	navigation	Trial2	navigation/STIM_007.jpg
1040.361	2.189	1	navigation	Trial2	navigation/STIM_007.jpg
1045.067	2.814	1	navigation	Trial2	navigation/STIM_007.jpg
1050.69	2.716	1	navigation	Trial2	navigation/STIM_008.jpg
1055.413	3.868	1	navigation	Trial2	navigation/STIM_008.jpg
1061.599	3.671	0	navigation	Trial2	navigation/STIM_008.jpg
1067.407	3.193	1	navigation	Trial2	navigation/STIM_008.jpg
1074.378	2.917	1	navigation	Trial2	navigation/STIM_008.jpg
1079.824	2.913	1	navigation	Trial2	navigation/STIM_008.jpg
1086.164	2.122	0	navigation	Trial2	navigation/STIM_009.jpg
1091.896	2.397	0	navigation	Trial2	navigation/STIM_009.jpg
1097.287	1.726	0	navigation	Trial2	navigation/STIM_009.jpg
1102.985	2.248	1	navigation	Trial2	navigation/STIM_009.jpg
1108.141	2.819	1	navigation	Trial2	navigation/STIM_009.jpg
1114.863	2.635	1	navigation	Trial2	navigation/STIM_009.jpg
1121.198	1.924	1	navigation	Trial2	navigation/STIM_010.jpg
1125.609	2.408	1	navigation	Trial2	navigation/STIM_010.jpg
1130.154	3.244	1	navigation	Trial2	navigation/STIM_010.jpg
1135.62	3.122	0	navigation	Trial2	navigation/STIM_010.jpg
1141.121	3.464	1	navigation	Trial2	navigation/STIM_010.jpg
1146.776	3.327	1	navigation	Trial2	navigation/STIM_010.jpg
1153.136	2.317	1	navigation	Trial2	navigation/STIM_011.jpg
1158.002	2.307	1	navigation	Trial2	navigation/STIM_011.jpg
1163.779	1.925	1	navigation	Trial2	navigation/STIM_011.jpg
1169.026	2.125	1	navigation	Trial2	navigation/STIM_011.jpg
1173.975	2.059	1	navigation	Trial2	navigation/STIM_011.jpg
1179.028	3.596	1	navigation	Trial2	navigation/STIM_011.jpg
1184.936	0.96	1	pointing	Trial2	pointing/STIM_000.jpg
1189.743	0.957	1	pointing	Trial2	pointing/STIM_000.jpg
1193.832	1.016	1	pointing	Trial2	pointing/STIM_000.jpg
1198.758	1.209	1	pointing	Trial2	pointing/STIM_000.jpg
1203.186	1.256	1	pointing	Trial2	pointing/STIM_000.jpg
1207.916	1.536	1	pointing	Trial2	pointing/STIM_000.jpg
1213.161	1.012	1	pointing	Trial2	pointing/STIM_001.jpg
1216.697	0.906	1	pointing	Trial2	pointing/STIM_001.jpg
1221.525	1.013	1	pointing	Trial2	pointing/STIM_001.jpg
1225.959	1.06	1	pointing	Trial2	pointing/STIM_001.jpg
1230.99	1.17	1	pointing	Trial2	pointing/STIM_001.jpg
1235.994	1.449	1	pointing	Trial2	pointing/STIM_001.jpg
1240.834	0.996	1	pointing	Trial2	pointing/STIM_002.jpg
1244.263	1.34	1	pointing	Trial2	pointing/STIM_002.jpg
1249.569	0.882	1	pointing	Trial2	pointing/STIM_002.jpg
1252.534	0.932	1	pointing	Trial2	pointing/STIM_002.jpg
1255.903	0.966	1	pointing	Trial2	pointing/STIM_002.jpg
1260.28	1.526	1	pointing	Trial2	pointing/STIM_002.jpg
1264.456	1.576	1	pointing	Trial2	pointing/STIM_003.jpg
1269.837	1.138	1	pointing	Trial2	pointing/STIM_003.jpg
1273.306	1.075	1	pointing	Trial2	pointing/STIM_003.jpg
1277.886	1.124	1	pointing	Trial2	pointing/STIM_003.jpg
1282.369	1.315	1	pointing	Trial2	pointing/STIM_003.jpg
1287.29	1.134	1	pointing	Trial2	pointing/STIM_003.jpg
1291.259	1.322	1	pointing	Trial2	pointing/STIM_004.jpg
1295.633	0.984	1	pointing	Trial2	pointing/STIM_004.jpg
1300.409	1.269	1	pointing	Trial2	pointing/STIM_004.jpg
1305.211	1.016	1	pointing	Trial2	pointing/STIM_004.jpg
1308.678	1.293	1	pointing	Trial2	pointing/STIM_004.jpg
1312.87	1.268	1	pointing	Trial2	pointing/STIM_004.jpg
1316.729	0.92	1	pointing	Trial2	pointing/STIM_005.jpg
1319.653	1.108	1	pointing	Trial2	pointing/STIM_005.jpg
1322.786	0.882	1	pointing	Trial2	pointing/STIM_005.jpg
1326.971	1.286	1	pointing	Trial2	pointing/STIM_005.jpg
1331.194	1.359	0	pointing	Trial2	pointing/STIM_005.jpg
1334.729	0.935	1	pointing	Trial2	pointing/STIM_005.jpg
1339.045	1.459	1	pointing	Trial2	pointing/STIM_006.jpg
1344.363	1.502	1	pointing	Trial2	pointing/STIM_006.jpg
1348.283	0.974	1	pointing	Trial2	pointing/STIM_006.jpg
1352.812	1.404	1	pointing	Trial2	pointing/STIM_006.jpg
1357.621	1.16	1	pointing	Trial2	pointing/STIM_006.jpg
1361.768	1.215	1	pointing	Trial2	pointing/STIM_006.jpg
1365.878	1.474	1	pointing	Trial2	pointing/STIM_007.jpg
1369.469	1.192	1	pointing	Trial2	pointing/STIM_007.jpg
1373.184	1.432	0	pointing	Trial2	pointing/STIM_007.jpg
1378.529	1.255	1	pointing	Trial2	pointing/STIM_007.jpg
1382.481	1.57	1	pointing	Trial2	pointing/STIM_007.jpg
1387.137	1.556	1	pointing	Trial2	pointing/STIM_007.jpg
1390.99	0.943	1	pointing	Trial2	pointing/STIM_008.jpg
1394.117	1.521	1	pointing	Trial2	pointing/STIM_008.jpg
1398.941	0.976	1	pointing	Trial2	pointing/STIM_008.jpg
1402.314	1.45	1	pointing	Trial2	pointing/STIM_008.jpg
1407.037	1.382	1	pointing	Trial2	pointing/STIM_008.jpg
1411.29	1.225	1	pointing	Trial2	pointing/STIM_008.jpg
1416.233	1.507	1	pointing	Trial2	pointing/STIM_009.jpg
1420.401	1.532	1	pointing	Trial2	pointing/STIM_009.jpg
1424.211	1.356	1	pointing	Trial2	pointing/STIM_009.jpg
1428.324	1.102	1	pointing	Trial2	pointing/STIM_009.jpg
1433.267	1.209	1	pointing	Trial2	pointing/STIM_009.jpg
1437.405	1.418	1	pointing	Trial2	pointing/STIM_009.jpg
1442.274	1.131	1	pointing	Trial2	pointing/STIM_010.jpg
1445.985	1.03	1	pointing	Trial2	pointing/STIM_010.jpg
1450.862	1.484	1	pointing	Trial2	pointing/STIM_010.jpg
1455.403	1.366	1	pointing	Trial2	pointing/STIM_010.jpg
1459.906	0.978	1	pointing	Trial2	pointing/STIM_010.jpg
1464.427	1.422	1	pointing	Trial2	pointing/STIM_010.jpg
1469.265	0.994	1	pointing	Trial2	pointing/STIM_011.jpg
1473.582	1.57	1	pointing	Trial2	pointing/STIM_011.jpg
1477.511	1.242	1	pointing	Trial2	pointing/STIM_011.jpg
1482.21	1.206	1	pointing	Trial2	pointing/STIM_011.jpg
1486.877	1.527	1	pointing	Trial2	pointing/STIM_011.jpg
1490.803	1.44	1	pointing	Trial2	pointing/STIM_011.jpg
1496.074	3.621	1	navigation	Trial3	navigation/STIM_000.jpg
1503.691	3.028	1	navigation	Trial3	navigation/STIM_000.jpg
1509.923	2.072	1	navigation	Trial3	navigation/STIM_000.jpg
1514.705	1.539	1	navigation	Trial3	navigation/STIM_000.jpg
1518.99	2.753	1	navigation	Trial3	navigation/STIM_000.jpg
1523.984	2.891	1	navigation	Trial3	navigation/STIM_000.jpg
1529.104	2.773	1	navigation	Trial3	navigation/STIM_001.jpg
1534.609	3.063	1	navigation	Trial3	navigation/STIM_001.jpg
1540.56	1.563	1	navigation	Trial3	navigation/STIM_001.jpg
1546.085	2.932	1	navigation	Trial3	navigation/STIM_001.jpg
1551.718	1.883	1	navigation	Trial3	navigation/STIM_001.jpg
1556.02	1.679	1	navigation	Trial3	navigation/STIM_001.jpg
1561.409	3.162	1	navigation	Trial3	navigation/STIM_002.jpg
1567.843	2.081	1	navigation	Trial3	navigation/STIM_002.jpg
1573.905	2.508	1	navigation	Trial3	navigation/STIM_002.jpg
1579.887	2.772	1	navigation	Trial3	navigation/STIM_002.jpg
1585.837	3.243	1	navigation	Trial3	navigation/STIM_002.jpg
1591.366	3.252	0	navigation	Trial3	navigation/STIM_002.jpg
1598.567	3.401	1	navigation	Trial3	navigation/STIM_003.jpg
1604.571	1.529	1	navigation	Trial3	navigation/STIM_003.jpg
1609.025	1.913	0	navigation	Trial3	navigation/STIM_003.jpg
1613.295	3.109	1	navigation	Trial3	navigation/STIM_003.jpg
1620.011	3.233	1	navigation	Trial3	navigation/STIM_003.jpg
1627.166	1.967	1	navigation	Trial3	navigation/STIM_003.jpg
1632.006	1.861	1	navigation	Trial3	navigation/STIM_004.jpg
1636.487	3.065	1	navigation	Trial3	navigation/STIM_004.jpg
1643.465	1.635	1	navigation	Trial3	navigation/STIM_004.jpg
1648.775	3.618	1	navigation	Trial3	navigation/STIM_004.jpg
1654.749	2.045	1	navigation	Trial3	navigation/STIM_004.jpg
1660.664	2.184	1	navigation	Trial3	navigation/STIM_004.jpg
1666.507	3.676	1	navigation	Trial3	navigation/STIM_005.jpg
1674.085	2.102	1	navigation	Trial3	navigation/STIM_005.jpg
1679.893	3.546	1	navigation	Trial3	navigation/STIM_005.jpg
1687.102	2.538	1	navigation	Trial3	navigation/STIM_005.jpg
1693.024	2.494	1	navigation	Trial3	navigation/STIM_005.jpg
1698.374	3.609	1	navigation	Trial3	navigation/STIM_005.jpg
1705.186	2.727	1	navigation	Trial3	navigation/STIM_006.jpg
1711.361	3.706	1	navigation	Trial3	navigation/STIM_006.jpg
1717.602	1.549	1	navigation	Trial3	navigation/STIM_006.jpg
1722.433	2.313	1	navigation	Trial3	navigation/STIM_006.jpg
1727.958	2.012	1	navigation	Trial3	navigation/STIM_006.jpg
1733.713	2.046	1	navigation	Trial3	navigation/STIM_006.jpg
1739.269	1.68	1	navigation	Trial3	navigation/STIM_007.jpg
1743.26	2.44	1	navigation	Trial3	navigation/STIM_007.jpg
1748.269	3.128	1	navigation	Trial3	navigation/STIM_007.jpg
1753.801	1.727	1	navigation	Trial3	navigation/STIM_007.jpg
1757.574	2.148	1	navigation	Trial3	navigation/STIM_007.jpg
1763.678	3.232	1	navigation	Trial3	navigation/STIM_007.jpg
1770.247	3.575	0	navigation	Trial3	navigation/STIM_008.jpg
1776.11	2.151	1	navigation	Trial3	navigation/STIM_008.jpg
1781.588	3.697	1	navigation	Trial3	navigation/STIM_008.jpg
1787.905	2.767	1	navigation	Trial3	navigation/STIM_008.jpg
1793.92	2.834	1	navigation	Trial3	navigation/STIM_008.jpg
1799.489	2.861	1	navigation	Trial3	navigation/STIM_008.jpg
1804.401	2.586	1	navigation	Trial3	navigation/STIM_009.jpg
1809.714	2.626	1	navigation	Trial3	navigation/STIM_009.jpg
1816.027	3.431	1	navigation	Trial3	navigation/STIM_009.jpg
1823.373	2.445	1	navigation	Trial3	navigation/STIM_009.jpg
1829.636	1.785	1	navigation	Trial3	navigation/STIM_009.jpg
1833.754	1.595	1	navigation	Trial3	navigation/STIM_009.jpg
1837.52	1.647	1	navigation	Trial3	navigation/STIM_010.jpg
1841.405	3.565	1	navigation	Trial3	navigation/STIM_010.jpg
1847.471	3.286	1	navigation	Trial3	navigation/STIM_010.jpg
1853.617	2.696	1	navigation	Trial3	navigation/STIM_010.jpg
1859.201	2.691	1	navigation	Trial3	navigation/STIM_010.jpg
1864.956	2.398	1	navigation	Trial3	navigation/STIM_010.jpg
1869.597	2.746	1	navigation	Trial3	navigation/STIM_011.jpg
1875.66	3.637	0	navigation	Trial3	navigation/STIM_011.jpg
1881.761	2.559	0	navigation	Trial3	navigation/STIM_011.jpg
1887.832	2.406	1	navigation	Trial3	navigation/STIM_011.jpg
1893.536	2.565	1	navigation	Trial3	navigation/STIM_011.jpg
1899.017	3.121	1	navigation	Trial3	navigation/STIM_011.jpg
1905.838	0.943	1	pointing	Trial3	pointing/STIM_000.jpg
1910.153	1.141	1	pointing	Trial3	pointing/STIM_000.jpg
1913.81	1.015	1	pointing	Trial3	pointing/STIM_000.jpg
1917.616	1.024	1	pointing	Trial3	pointing/STIM_000.jpg
1920.677	1.302	1	pointing	Trial3	pointing/STIM_000.jpg
1924.63	0.913	1	pointing	Trial3	pointing/STIM_000.jpg
1928.646	1.299	1	pointing	Trial3	pointing/STIM_001.jpg
1933.321	1.004	1	pointing	Trial3	pointing/STIM_001.jpg
1936.431	1.04	1	pointing	Trial3	pointing/STIM_001.jpg
1939.752	0.908	1	pointing	Trial3	pointing/STIM_001.jpg
1944.354	1.265	1	pointing	Trial3	pointing/STIM_001.jpg
1947.919	0.991	1	pointing	Trial3	pointing/STIM_001.jpg
1952.844	1.399	1	pointing	Trial3	pointing/STIM_002.jpg
1957.338	1.342	1	pointing	Trial3	pointing/STIM_002.jpg
1960.858	0.949	1	pointing	Trial3	pointing/STIM_002.jpg
1964.75	0.873	1	pointing	Trial3	pointing/STIM_002.jpg
1968.293	0.914	1	pointing	Trial3	pointing/STIM_002.jpg
1971.405	1.504	1	pointing	Trial3	pointing/STIM_002.jpg
1976.868	0.961	1	pointing	Trial3	pointing/STIM_003.jpg
1981.562	1.355	1	pointing	Trial3	pointing/STIM_003.jpg
1986.233	1.303	1	pointing	Trial3	pointing/STIM_003.jpg
1990.024	1.147	1	pointing	Trial3	pointing/STIM_003.jpg
1994.464	0.898	1	pointing	Trial3	pointing/STIM_003.jpg
1999.136	1.154	1	pointing	Trial3	pointing/STIM_003.jpg
2003.293	1.121	1	pointing	Trial3	pointing/STIM_004.jpg
2007.288	1.408	1	pointing	Trial3	pointing/STIM_004.jpg
2012.444	1.183	1	pointing	Trial3	pointing/STIM_004.jpg
2016.963	1.22	1	pointing	Trial3	pointing/STIM_004.jpg
2020.606	1.09	1	pointing	Trial3	pointing/STIM_004.jpg
2024.585	1.481	1	pointing	Trial3	pointing/STIM_004.jpg
2029.478	1.303	1	pointing	Trial3	pointing/STIM_005.jpg
2033.168	0.93	1	pointing	Trial3	pointing/STIM_005.jpg
2037.905	0.978	1	pointing	Trial3	pointing/STIM_005.jpg
2042.326	1.017	1	pointing	Trial3	pointing/STIM_005.jpg
2045.357	1.423	1	pointing	Trial3	pointing/STIM_005.jpg
2050.525	1.472	1	pointing	Trial3	pointing/STIM_005.jpg
2054.417	1.414	1	pointing	Trial3	pointing/STIM_006.jpg
2058.319	1.477	1	pointing	Trial3	pointing/STIM_006.jpg
2061.803	1.328	1	pointing	Trial3	pointing/STIM_006.jpg
2066.278	1.348	1	pointing	Trial3	pointing/STIM_006.jpg
2070.264	1.269	1	pointing	Trial3	pointing/STIM_006.jpg
2075.484	0.933	0	pointing	Trial3	pointing/STIM_006.jpg
2078.533	1.251	1	pointing	Trial3	pointing/STIM_007.jpg
2083.261	1.106	1	pointing	Trial3	pointing/STIM_007.jpg
2087.616	1.498	1	pointing	Trial3	pointing/STIM_007.jpg
2092.951	0.897	1	pointing	Trial3	pointing/STIM_007.jpg
2096.13	1.216	1	pointing	Trial3	pointing/STIM_007.jpg
2099.683	1.617	1	pointing	Trial3	pointing/STIM_007.jpg
2103.547	0.977	1	pointing	Trial3	pointing/STIM_008.jpg
2108.096	1.129	1	pointing	Trial3	pointing/STIM_008.jpg
2112.633	0.885	1	pointing	Trial3	pointing/STIM_008.jpg
2117.363	1.006	1	pointing	Trial3	pointing/STIM_008.jpg
2120.583	1.588	1	pointing	Trial3	pointing/STIM_008.jpg
2125.021	1.137	1	pointing	Trial3	pointing/STIM_008.jpg
2129.431	1.094	1	pointing	Trial3	pointing/STIM_009.jpg
2134.475	1.384	1	pointing	Trial3	pointing/STIM_009.jpg
2139.071	0.904	0	pointing	Trial3	pointing/STIM_009.jpg
2142.351	0.932	1	pointing	Trial3	pointing/STIM_009.jpg
2145.844	1.336	1	pointing	Trial3	pointing/STIM_009.jpg
2149.843	1.607	0	pointing	Trial3	pointing/STIM_009.jpg
2154.823	0.883	1	pointing	Trial3	pointing/STIM_010.jpg
2159.086	1.546	1	pointing	Trial3	pointing/STIM_010.jpg
2164.378	1.624	1	pointing	Trial3	pointing/STIM_010.jpg
2169.318	1.087	1	pointing	Trial3	pointing/STIM_010.jpg
2173.049	1.29	1	pointing	Trial3	pointing/STIM_010.jpg
2176.775	1.261	1	pointing	Trial3	pointing/STIM_010.jpg
2181.63	1.184	1	pointing	Trial3	pointing/STIM_011.jpg
2185.213	1.227	1	pointing	Trial3	pointing/STIM_011.jpg
2189.768	1.437	1	pointing	Trial3	pointing/STIM_011.jpg
2193.69	1.619	1	pointing	Trial3	pointing/STIM_011.jpg
2198.365	1.417	1	pointing	Trial3	pointing/STIM_011.jpg
2203.704	1.15	1	pointing	Trial3	pointing/STIM_011.jpg
