onset	duration	response_time_ms	trial_type	learning_stage	stimulus	response_port
0.0	2.416	2415.9	generate	Run1	generate/STIM_000.jpg	99
4.839	1.481	1481.4	generate	Run1	generate/STIM_000.jpg	99
9.972	1.239	1239.2	generate	Run1	generate/STIM_000.jpg	99
14.801	1.075	1074.9	generate	Run1	generate/STIM_000.jpg	99
18.945	1.466	1466.2	generate	Run1	generate/STIM_000.jpg	100
22.467	2.684	2683.6	generate	Run1	generate/STIM_001.jpg	100
27.746	1.496	1495.6	generate	Run1	generate/STIM_001.jpg	99
32.088	1.062	1061.9	generate	Run1	generate/STIM_001.jpg	99
36.414	1.749	1748.7	generate	Run1	generate/STIM_001.jpg	99
40.233	1.327	1327.0	generate	Run1	generate/STIM_001.jpg	99
43.841	2.361	2361.2	generate	Run1	generate/STIM_002.jpg	100
48.56	2.382	2381.7	generate	Run1	generate/STIM_002.jpg	99
54.04	1.79	1790.0	generate	Run1	generate/STIM_002.jpg	99
59.468	2.046	2046.5	generate	Run1	generate/STIM_002.jpg	100
64.901	1.63	1629.9	generate	Run1	generate/STIM_002.jpg	100
70.47	1.98	1980.3	generate	Run1	generate/STIM_003.jpg	99
75.639	1.844	1843.9	generate	Run1	generate/STIM_003.jpg	100
79.522	2.555	2555.0	generate	Run1	generate/STIM_003.jpg	100
84.215	1.169	1168.6	generate	Run1	generate/STIM_003.jpg	100
88.037	1.547	1547.1	generate	Run1	generate/STIM_003.jpg	100
92.855	1.289	1288.8	generate	Run1	generate/STIM_004.jpg	99
97.905	2.68	2680.5	generate	Run1	generate/STIM_004.jpg	100
102.693	1.754	1754.5	generate	Run1	generate/STIM_004.jpg	99
106.976	1.945	1945.2	generate	Run1	generate/STIM_004.jpg	99
112.852	1.706	1705.9	generate	Run1	generate/STIM_004.jpg	100
116.569	1.316	1316.2	generate	Run1	generate/STIM_005.jpg	99
121.563	1.305	1305.0	generate	Run1	generate/STIM_005.jpg	99
125.654	2.692	2691.7	generate	Run1	generate/STIM_005.jpg	99
131.607	1.181	1181.3	generate	Run1	generate/STIM_005.jpg	100
136.554	2.252	2251.8	generate	Run1	generate/STIM_005.jpg	99
140.953	1.654	1653.5	generate	Run1	generate/STIM_006.jpg	99
145.46	2.18	2180.1	generate	Run1	generate/STIM_006.jpg	100
150.016	2.134	2134.4	generate	Run1	generate/STIM_006.jpg	100
154.21	1.694	1694.4	generate	Run1	generate/STIM_006.jpg	100
159.041	1.905	1904.6	generate	Run1	generate/STIM_006.jpg	99
164.144	1.396	1395.6	generate	Run1	generate/STIM_007.jpg	99
168.87	2.693	2692.8	generate	Run1	generate/STIM_007.jpg	99
174.482	1.346	1345.6	generate	Run1	generate/STIM_007.jpg	99
178.024	2.37	2370.2	generate	Run1	generate/STIM_007.jpg	99
182.695	2.04	2040.0	generate	Run1	generate/STIM_007.jpg	99
188.003	2.678	2677.5	generate	Run1	generate/STIM_008.jpg	99
194.48	2.05	2049.5	generate	Run1	generate/STIM_008.jpg	99
199.307	2.182	2182.5	generate	Run1	generate/STIM_008.jpg	99
205.193	1.333	1332.7	generate	Run1	generate/STIM_008.jpg	100
209.235	1.703	1702.6	generate	Run1	generate/STIM_008.jpg	99
214.821	2.22	2219.8	generate	Run1	generate/STIM_009.jpg	100
219.489	2.474	2474.4	generate	Run1	generate/STIM_009.jpg	100
225.703	2.339	2338.7	generate	Run1	generate/STIM_009.jpg	100
230.634	2.421	2420.9	generate	Run1	generate/STIM_009.jpg	100
235.592	1.362	1362.0	generate	Run1	generate/STIM_009.jpg	100
240.61	2.3	2299.7	generate	Run1	generate/STIM_010.jpg	100
246.045	2.712	2712.1	generate	Run1	generate/STIM_010.jpg	99
251.726	2.396	2395.8	generate	Run1	generate/STIM_010.jpg	100
257.299	2.141	2141.0	generate	Run1	generate/STIM_010.jpg	100
262.9	2.198	2197.9	generate	Run1	generate/STIM_010.jpg	100
268.821	2.28	2280.1	generate	Run1	generate/STIM_011.jpg	99
273.762	2.242	2242.4	generate	Run1	generate/STIM_011.jpg	99
279.666	2.081	2080.8	generate	Run1	generate/STIM_011.jpg	100
285.152	2.082	2082.1	generate	Run1	generate/STIM_011.jpg	99
290.791	1.735	1734.9	generate	Run1	generate/STIM_011.jpg	100
296.26	2.252	2252.0	generate	Run1	generate/STIM_012.jpg	99
302.344	2.274	2273.7	generate	Run1	generate/STIM_012.jpg	99
307.058	1.526	1525.6	generate	Run1	generate/STIM_012.jpg	99
312.299	1.968	1968.4	generate	Run1	generate/STIM_012.jpg	100
317.68	2.161	2160.8	generate	Run1	generate/STIM_012.jpg	99
323.008	3.024	3024.3	generate	Run1	generate/STIM_013.jpg	100
329.994	2.312	2312.5	generate	Run1	generate/STIM_013.jpg	99
335.844	2.777	2777.3	generate	Run1	generate/STIM_013.jpg	99
342.028	1.918	1917.7	generate	Run1	generate/STIM_013.jpg	99
346.998	2.034	2034.3	generate	Run1	generate/STIM_013.jpg	99
351.351	1.485	1485.0	generate	Run1	generate/STIM_014.jpg	99
356.501	2.136	2135.7	generate	Run1	generate/STIM_014.jpg	99
362.26	1.946	1946.4	generate	Run1	generate/STIM_014.jpg	100
367.441	1.081	1080.7	generate	Run1	generate/STIM_014.jpg	99
370.675	1.332	1331.6	generate	Run1	generate/STIM_014.jpg	100
374.058	3.027	3027.1	generate	Run1	generate/STIM_015.jpg	99
380.902	2.812	2812.4	generate	Run1	generate/STIM_015.jpg	100
385.929	1.956	1955.9	generate	Run1	generate/STIM_015.jpg	99
391.355	2.144	2144.5	generate	Run1	generate/STIM_015.jpg	100
397.4	1.376	1375.8	generate	Run1	generate/STIM_015.jpg	100
401.401	2.27	2270.0	generate	Run1	generate/STIM_016.jpg	99
407.112	2.116	2116.2	generate	Run1	generate/STIM_016.jpg	100
412.597	2.768	2767.7	generate	Run1	generate/STIM_016.jpg	100
418.354	1.449	1449.0	generate	Run1	generate/STIM_016.jpg	100
423.678	1.877	1877.3	generate	Run1	generate/STIM_016.jpg	99
429.132	1.579	1578.7	generate	Run1	generate/STIM_017.jpg	99
433.933	2.61	2609.7	generate	Run1	generate/STIM_017.jpg	99
440.422	1.243	1242.6	generate	Run1	generate/STIM_017.jpg	99
443.968	2.492	2491.5	generate	Run1	generate/STIM_017.jpg	99
448.902	1.889	1888.9	generate	Run1	generate/STIM_017.jpg	100
454.018	2.364	2363.6	generate	Run1	generate/STIM_018.jpg	100
459.519	2.249	2249.3	generate	Run1	generate/STIM_018.jpg	100
464.126	2.136	2136.2	generate	Run1	generate/STIM_018.jpg	100
468.371	1.753	1752.7	generate	Run1	generate/STIM_018.jpg	99
472.991	1.067	1067.3	generate	Run1	generate/STIM_018.jpg	99
476.82	1.394	1393.7	generate	Run1	generate/STIM_019.jpg	99
481.007	1.378	1378.0	generate	Run1	generate/STIM_019.jpg	99
486.337	2.449	2449.0	generate	Run1	generate/STIM_019.jpg	99
491.667	1.715	1714.8	generate	Run1	generate/STIM_019.jpg	99
495.543	1.812	1811.6	generate	Run1	generate/STIM_019.jpg	99
499.858	1.363	1362.9	generate	Run1	generate/STIM_020.jpg	100
503.32	2.137	2137.0	generate	Run1	generate/STIM_020.jpg	100
509.198	1.89	1890.5	generate	Run1	generate/STIM_020.jpg	99
513.839	2.524	2524.5	generate	Run1	generate/STIM_020.jpg	100
519.591	1.639	1639.0	generate	Run1	generate/STIM_020.jpg	99
524.803	1.902	1901.5	generate	Run1	generate/STIM_021.jpg	99
528.745	1.132	1132.3	generate	Run1	generate/STIM_021.jpg	99
533.59	2.394	2393.7	generate	Run1	generate/STIM_021.jpg	100
538.95	1.458	1458.2	generate	Run1	generate/STIM_021.jpg	100
543.542	1.754	1753.6	generate	Run1	generate/STIM_021.jpg	100
547.996	1.603	1603.4	generate	Run1	generate/STIM_022.jpg	99
552.349	1.467	1467.4	generate	Run1	generate/STIM_022.jpg	99
556.47	2.173	2173.0	generate	Run1	generate/STIM_022.jpg	99
561.662	1.48	1479.5	generate	Run1	generate/STIM_022.jpg	99
566.019	1.196	1196.3	generate	Run1	generate/STIM_022.jpg	99
569.646	2.739	2739.0	generate	Run1	generate/STIM_023.jpg	99
574.558	2.779	2779.2	generate	Run1	generate/STIM_023.jpg	100
580.433	1.176	1176.0	generate	Run1	generate/STIM_023.jpg	100
583.806	2.41	2410.4	generate	Run1	generate/STIM_023.jpg	99
588.981	2.21	2210.2	generate	Run1	generate/STIM_023.jpg	100
594.554	3.127	3127.0	generate	Run1	generate/STIM_024.jpg	100
599.995	2.015	2015.2	generate	Run1	generate/STIM_024.jpg	100
604.765	1.594	1593.7	generate	Run1	generate/STIM_024.jpg	99
608.611	1.542	1541.5	generate	Run1	generate/STIM_024.jpg	99
613.241	1.267	1266.6	generate	Run1	generate/STIM_024.jpg	100
618.105	0.796	796.4	repeat	Run1	repeat/STIM_000.jpg	100
621.558	0.697	697.0	repeat	Run1	repeat/STIM_000.jpg	99
624.918	0.97	970.5	repeat	Run1	repeat/STIM_000.jpg	100
629.293	0.586	585.5	repeat	Run1	repeat/STIM_000.jpg	99
633.517	0.819	818.7	repeat	Run1	repeat/STIM_000.jpg	99
636.666	0.43	430.2	repeat	Run1	repeat/STIM_001.jpg	100
639.773	0.635	634.7	repeat	Run1	repeat/STIM_001.jpg	100
644.126	0.69	689.8	repeat	Run1	repeat/STIM_001.jpg	99
648.215	0.606	605.6	repeat	Run1	repeat/STIM_001.jpg	99
651.535	0.838	838.0	repeat	Run1	repeat/STIM_001.jpg	100
654.366	0.496	496.1	repeat	Run1	repeat/STIM_002.jpg	100
656.97	0.557	556.7	repeat	Run1	repeat/STIM_002.jpg	100
661.161	0.908	907.8	repeat	Run1	repeat/STIM_002.jpg	99
664.65	0.982	982.2	repeat	Run1	repeat/STIM_002.jpg	99
667.92	1.006	1006.2	repeat	Run1	repeat/STIM_002.jpg	100
672.318	0.815	814.8	repeat	Run1	repeat/STIM_003.jpg	100
676.489	0.693	693.0	repeat	Run1	repeat/STIM_003.jpg	100
679.688	0.838	837.8	repeat	Run1	repeat/STIM_003.jpg	99
683.807	0.57	570.1	repeat	Run1	repeat/STIM_003.jpg	99
686.727	0.592	591.8	repeat	Run1	repeat/STIM_003.jpg	100
689.72	0.759	759.4	repeat	Run1	repeat/STIM_004.jpg	100
693.341	1.025	1025.1	repeat	Run1	repeat/STIM_004.jpg	100
697.209	0.61	609.7	repeat	Run1	repeat/STIM_004.jpg	100
700.076	0.712	711.7	repeat	Run1	repeat/STIM_004.jpg	99
703.159	0.49	489.8	repeat	Run1	repeat/STIM_004.jpg	99
705.961	0.729	729.1	repeat	Run1	repeat/STIM_005.jpg	99
710.54	0.562	561.7	repeat	Run1	repeat/STIM_005.jpg	99
714.313	0.81	810.3	repeat	Run1	repeat/STIM_005.jpg	100
718.509	0.832	831.5	repeat	Run1	repeat/STIM_005.jpg	99
722.295	0.92	920.0	repeat	Run1	repeat/STIM_005.jpg	100
725.543	0.648	648.0	repeat	Run1	repeat/STIM_006.jpg	100
729.518	0.816	816.1	repeat	Run1	repeat/STIM_006.jpg	100
733.125	0.893	892.6	repeat	Run1	repeat/STIM_006.jpg	99
736.599	0.714	714.0	repeat	Run1	repeat/STIM_006.jpg	99
739.46	0.6	600.1	repeat	Run1	repeat/STIM_006.jpg	99
742.286	0.716	716.3	repeat	Run1	repeat/STIM_007.jpg	99
745.374	0.85	850.1	repeat	Run1	repeat/STIM_007.jpg	99
748.826	0.741	740.7	repeat	Run1	repeat/STIM_007.jpg	100
753.402	0.829	828.8	repeat	Run1	repeat/STIM_007.jpg	100
757.284	0.795	795.2	repeat	Run1	repeat/STIM_007.jpg	100
760.9	0.606	606.3	repeat	Run1	repeat/STIM_008.jpg	99
764.679	0.854	854.0	repeat	Run1	repeat/STIM_008.jpg	100
767.615	0.622	621.7	repeat	Run1	repeat/STIM_008.jpg	100
770.273	0.8	800.0	repeat	Run1	repeat/STIM_008.jpg	100
774.73	1.01	1009.6	repeat	Run1	repeat/STIM_008.jpg	100
778.453	0.683	683.2	repeat	Run1	repeat/STIM_009.jpg	100
782.549	0.66	660.1	repeat	Run1	repeat/STIM_009.jpg	100
785.766	0.912	912.1	repeat	Run1	repeat/STIM_009.jpg	99
790.196	0.847	846.7	repeat	Run1	repeat/STIM_009.jpg	99
794.046	0.913	913.2	repeat	Run1	repeat/STIM_009.jpg	100
798.59	0.801	801.0	repeat	Run1	repeat/STIM_010.jpg	100
802.481	0.596	595.5	repeat	Run1	repeat/STIM_010.jpg	100
806.287	0.779	778.8	repeat	Run1	repeat/STIM_010.jpg	100
809.962	0.777	777.2	repeat	Run1	repeat/STIM_010.jpg	100
814.672	0.562	561.9	repeat	Run1	repeat/STIM_010.jpg	100
818.128	0.575	574.7	repeat	Run1	repeat/STIM_011.jpg	100
822.434	0.874	873.7	repeat	Run1	repeat/STIM_011.jpg	99
826.992	0.825	824.6	repeat	Run1	repeat/STIM_011.jpg	100
830.794	0.751	751.3	repeat	Run1	repeat/STIM_011.jpg	99
833.952	0.529	528.8	repeat	Run1	repeat/STIM_011.jpg	100
837.482	0.737	737.3	repeat	Run1	repeat/STIM_012.jpg	100
841.43	0.689	689.1	repeat	Run1	repeat/STIM_012.jpg	99
845.636	0.604	604.3	repeat	Run1	repeat/STIM_012.jpg	100
850.045	0.74	739.7	repeat	Run1	repeat/STIM_012.jpg	99
852.973	0.74	740.1	repeat	Run1	repeat/STIM_012.jpg	100
856.614	1.122	1121.8	repeat	Run1	repeat/STIM_013.jpg	99
861.154	0.636	636.1	repeat	Run1	repeat/STIM_013.jpg	99
864.705	1.042	1042.4	repeat	Run1	repeat/STIM_013.jpg	99
868.984	0.744	744.3	repeat	Run1	repeat/STIM_013.jpg	99
873.127	0.843	842.9	repeat	Run1	repeat/STIM_013.jpg	100
875.968	1.03	1030.3	repeat	Run1	repeat/STIM_014.jpg	100
879.313	0.899	899.4	repeat	Run1	repeat/STIM_014.jpg	99
882.677	0.654	653.8	repeat	Run1	repeat/STIM_014.jpg	99
886.108	0.996	996.5	repeat	Run1	repeat/STIM_014.jpg	100
890.59	0.718	717.9	repeat	Run1	repeat/STIM_014.jpg	100
894.226	1.467	1467.2	generate	Run2	generate/STIM_000.jpg	99
899.096	1.465	1465.4	generate	Run2	generate/STIM_000.jpg	99
903.364	1.472	1471.5	generate	Run2	generate/STIM_000.jpg	100
908.215	1.648	1648.5	generate	Run2	generate/STIM_000.jpg	99
913.33	1.457	1457.1	generate	Run2	generate/STIM_000.jpg	99
918.225	1.32	1320.2	generate	Run2	generate/STIM_001.jpg	100
921.733	2.37	2370.3	generate	Run2	generate/STIM_001.jpg	100
927.603	2.195	2194.6	generate	Run2	generate/STIM_001.jpg	100
933.281	1.569	1568.8	generate	Run2	generate/STIM_001.jpg	99
938.611	1.374	1373.5	generate	Run2	generate/STIM_001.jpg	99
942.283	2.523	2523.3	generate	Run2	generate/STIM_002.jpg	99
947.535	2.405	2404.9	generate	Run2	generate/STIM_002.jpg	100
953.624	1.788	1788.5	generate	Run2	generate/STIM_002.jpg	100
958.689	2.103	2102.7	generate	Run2	generate/STIM_002.jpg	100
963.195	1.834	1834.1	generate	Run2	generate/STIM_002.jpg	100
968.441	1.821	1821.2	generate	Run2	generate/STIM_003.jpg	99
974.162	2.278	2277.6	generate	Run2	generate/STIM_003.jpg	100
978.531	1.407	1407.2	generate	Run2	generate/STIM_003.jpg	100
982.022	2.153	2153.2	generate	Run2	generate/STIM_003.jpg	99
986.4	1.66	1659.7	generate	Run2	generate/STIM_003.jpg	99
991.912	1.1	1099.5	generate	Run2	generate/STIM_004.jpg	100
995.108	1.181	1180.7	generate	Run2	generate/STIM_004.jpg	99
999.883	1.817	1816.9	generate	Run2	generate/STIM_004.jpg	99
1005.422	1.428	1427.6	generate	Run2	generate/STIM_004.jpg	100
1010.199	1.904	1904.5	generate	Run2	generate/STIM_004.jpg	99
1014.387	1.367	1367.3	generate	Run2	generate/STIM_005.jpg	99
1018.74	2.165	2165.2	generate	Run2	generate/STIM_005.jpg	100
1024.775	1.509	1508.7	generate	Run2	generate/STIM_005.jpg	100
1029.043	1.233	1233.3	generate	Run2	generate/STIM_005.jpg	99
1034.061	0.949	949.4	generate	Run2	generate/STIM_005.jpg	99
1037.38	2.242	2241.9	generate	Run2	generate/STIM_006.jpg	100
1043.52	2.209	2209.1	generate	Run2	generate/STIM_006.jpg	100
1048.34	2.037	2036.9	generate	Run2	generate/STIM_006.jpg	99
1052.797	1.958	1957.8	generate	Run2	generate/STIM_006.jpg	99
1057.177	1.686	1685.8	generate	Run2	generate/STIM_006.jpg	99
1061.785	2.351	2351.2	generate	Run2	generate/STIM_007.jpg	100
1066.741	1.091	1091.0	generate	Run2	generate/STIM_007.jpg	100
1070.79	1.042	1042.4	generate	Run2	generate/STIM_007.jpg	100
1075.311	1.803	1803.2	generate	Run2	generate/STIM_007.jpg	99
1080.482	1.637	1636.9	generate	Run2	generate/STIM_007.jpg	99
1084.717	1.703	1702.9	generate	Run2	generate/STIM_008.jpg	99
1089.211	1.013	1012.6	generate	Run2	generate/STIM_008.jpg	99
1092.817	1.745	1744.9	generate	Run2	generate/STIM_008.jpg	99
1096.952	1.08	1080.4	generate	Run2	generate/STIM_008.jpg	99
1101.402	1.118	1118.0	generate	Run2	generate/STIM_008.jpg	99
1106.473	2.582	2581.5	generate	Run2	generate/STIM_009.jpg	100
1111.774	1.738	1737.5	generate	Run2	generate/STIM_009.jpg	100
1115.511	1.124	1123.9	generate	Run2	generate/STIM_009.jpg	100
1120.174	1.866	1865.8	generate	Run2	generate/STIM_009.jpg	99
1125.011	1.464	1463.6	generate	Run2	generate/STIM_009.jpg	99
1129.583	1.748	1747.7	generate	Run2	generate/STIM_010.jpg	99
1133.972	1.116	1116.1	generate	Run2	generate/STIM_010.jpg	99
1138.074	1.239	1239.1	generate	Run2	generate/STIM_010.jpg	99
1142.044	0.955	954.9	generate	Run2	generate/STIM_010.jpg	100
1145.38	0.953	953.1	generate	Run2	generate/STIM_010.jpg	99
1149.527	1.916	1916.3	generate	Run2	generate/STIM_011.jpg	99
1153.837	2.109	2109.4	generate	Run2	generate/STIM_011.jpg	99
1159.506	1.552	1551.8	generate	Run2	generate/STIM_011.jpg	100
1164.965	2.04	2040.2	generate	Run2	generate/STIM_011.jpg	99
1170.681	1.105	1105.2	generate	Run2	generate/STIM_011.jpg	100
1173.769	1.186	1186.2	generate	Run2	generate/STIM_012.jpg	100
1178.219	1.117	1117.4	generate	Run2	generate/STIM_012.jpg	100
1182.32	1.944	1943.5	generate	Run2	generate/STIM_012.jpg	99
1187.318	0.99	989.5	generate	Run2	generate/STIM_012.jpg	100
1191.495	1.314	1313.5	generate	Run2	generate/STIM_012.jpg	99
1195.607	1.693	1692.9	generate	Run2	generate/STIM_013.jpg	100
1200.793	1.738	1738.4	generate	Run2	generate/STIM_013.jpg	99
1206.352	2.288	2287.6	generate	Run2	generate/STIM_013.jpg	100
1210.937	1.422	1421.6	generate	Run2	generate/STIM_013.jpg	100
1215.618	1.806	1805.8	generate	Run2	generate/STIM_013.jpg	99
1221.35	2.305	2305.3	generate	Run2	generate/STIM_014.jpg	100
1226.104	1.435	1435.3	generate	Run2	generate/STIM_014.jpg	99
1229.779	1.737	1737.4	generate	Run2	generate/STIM_014.jpg	99
1234.824	1.714	1714.0	generate	Run2	generate/STIM_014.jpg	99
1238.792	1.551	1550.9	generate	Run2	generate/STIM_014.jpg	100
1244.321	2.041	2041.4	generate	Run2	generate/STIM_015.jpg	99
1249.677	2.21	2209.8	generate	Run2	generate/STIM_015.jpg	100
1254.774	1.97	1970.5	generate	Run2	generate/STIM_015.jpg	99
1259.088	1.235	1234.7	generate	Run2	generate/STIM_015.jpg	100
1263.989	2.019	2018.8	generate	Run2	generate/STIM_015.jpg	99
1268.876	1.078	1078.5	generate	Run2	generate/STIM_016.jpg	100
1272.678	2.328	2328.5	generate	Run2	generate/STIM_016.jpg	100
1277.37	1.326	1326.3	generate	Run2	generate/STIM_016.jpg	99
1282.04	1.339	1339.2	generate	Run2	generate/STIM_016.jpg	99
1286.167	1.61	1609.5	generate	Run2	generate/STIM_016.jpg	100
1290.065	2.575	2574.9	generate	Run2	generate/STIM_017.jpg	100
1294.818	1.713	1713.2	generate	Run2	generate/STIM_017.jpg	100
1299.45	1.497	1496.6	generate	Run2	generate/STIM_017.jpg	100
1303.59	1.034	1033.7	generate	Run2	generate/STIM_017.jpg	100
1307.69	1.334	1333.6	generate	Run2	generate/STIM_017.jpg	100
1311.956	1.475	1474.7	generate	Run2	generate/STIM_018.jpg	100
1316.472	1.873	1872.9	generate	Run2	generate/STIM_018.jpg	100
1321.447	2.328	2327.8	generate	Run2	generate/STIM_018.jpg	99
1326.896	1.153	1152.8	generate	Run2	generate/STIM_018.jpg	99
1331.153	1.266	1266.5	generate	Run2	generate/STIM_018.jpg	100
1334.945	2.229	2228.6	generate	Run2	generate/STIM_019.jpg	100
1339.582	2.124	2123.6	generate	Run2	generate/STIM_019.jpg	99
1345.151	1.64	1639.7	generate	Run2	generate/STIM_019.jpg	100
1350.377	2.187	2187.2	generate	Run2	generate/STIM_019.jpg	99
1355.798	1.807	1807.1	generate	Run2	generate/STIM_019.jpg	99
1361.04	1.29	1289.6	generate	Run2	generate/STIM_020.jpg	100
1365.051	1.746	1745.9	generate	Run2	generate/STIM_020.jpg	100
1368.876	1.936	1936.2	generate	Run2	generate/STIM_020.jpg	100
1374.06	1.558	1558.0	generate	Run2	generate/STIM_020.jpg	99
1378.292	1.658	1657.9	generate	Run2	generate/STIM_020.jpg	100
1383.611	1.496	1495.6	generate	Run2	generate/STIM_021.jpg	100
1388.953	2.171	2170.6	generate	Run2	generate/STIM_021.jpg	99
1393.365	2.117	2117.1	generate	Run2	generate/STIM_021.jpg	99
1398.824	1.806	1806.2	generate	Run2	generate/STIM_021.jpg	99
1404.557	1.485	1484.7	generate	Run2	generate/STIM_021.jpg	100
1409.198	2.328	2327.6	generate	Run2	generate/STIM_022.jpg	100
1414.129	2.091	2091.4	generate	Run2	generate/STIM_022.jpg	100
1418.47	2.196	2195.9	generate	Run2	generate/STIM_022.jpg	99
1424.461	1.92	1920.0	generate	Run2	generate/STIM_022.jpg	99
1430.154	1.516	1516.5	generate	Run2	generate/STIM_022.jpg	99
1435.357	1.384	1383.5	generate	Run2	generate/STIM_023.jpg	99
1439.794	1.324	1323.7	generate	Run2	generate/STIM_023.jpg	100
1444.292	1.861	1861.1	generate	Run2	generate/STIM_023.jpg	99
1449.936	1.554	1553.9	generate	Run2	generate/STIM_023.jpg	100
1454.439	1.418	1418.1	generate	Run2	generate/STIM_023.jpg	99
1457.999	1.512	1511.7	generate	Run2	generate/STIM_024.jpg	99
1463.059	0.958	958.4	generate	Run2	generate/STIM_024.jpg	100
1466.806	1.489	1489.4	generate	Run2	generate/STIM_024.jpg	100
1471.433	0.9	900.4	generate	Run2	generate/STIM_024.jpg	99
1476.108	1.712	1712.2	generate	Run2	generate/STIM_024.jpg	99
1480.336	0.703	703.2	repeat	Run2	repeat/STIM_000.jpg	100
1483.859	1.012	1011.8	repeat	Run2	repeat/STIM_000.jpg	100
1488.613	0.833	832.7	repeat	Run2	repeat/STIM_000.jpg	100
1492.374	0.89	889.7	repeat	Run2	repeat/STIM_000.jpg	100
1495.27	0.573	572.7	repeat	Run2	repeat/STIM_000.jpg	99
1499.321	0.885	885.3	repeat	Run2	repeat/STIM_001.jpg	100
1502.762	0.889	888.8	repeat	Run2	repeat/STIM_001.jpg	99
1507.485	0.753	752.6	repeat	Run2	repeat/STIM_001.jpg	100
1512.204	0.637	636.9	repeat	Run2	repeat/STIM_001.jpg	99
1516.232	0.82	819.7	repeat	Run2	repeat/STIM_001.jpg	100
1519.078	0.7	699.8	repeat	Run2	repeat/STIM_002.jpg	99
1523.198	0.734	733.9	repeat	Run2	repeat/STIM_002.jpg	99
1527.701	0.668	668.3	repeat	Run2	repeat/STIM_002.jpg	100
1530.703	0.632	632.4	repeat	Run2	repeat/STIM_002.jpg	99
1534.401	0.914	913.9	repeat	Run2	repeat/STIM_002.jpg	99
1538.535	0.776	775.7	repeat	Run2	repeat/STIM_003.jpg	99
1542.409	0.56	559.7	repeat	Run2	repeat/STIM_003.jpg	100
1545.508	0.63	629.7	repeat	Run2	repeat/STIM_003.jpg	99
1548.627	0.8	799.9	repeat	Run2	repeat/STIM_003.jpg	100
1552.829	0.804	804.3	repeat	Run2	repeat/STIM_003.jpg	100
1555.89	0.977	977.1	repeat	Run2	repeat/STIM_004.jpg	99
1560.461	0.835	834.6	repeat	Run2	repeat/STIM_004.jpg	100
1563.459	0.554	554.1	repeat	Run2	repeat/STIM_004.jpg	100
1567.473	0.54	539.5	repeat	Run2	repeat/STIM_004.jpg	99
1570.224	0.815	814.8	repeat	Run2	repeat/STIM_004.jpg	99
1574.313	0.76	760.1	repeat	Run2	repeat/STIM_005.jpg	100
1578.024	0.973	972.8	repeat	Run2	repeat/STIM_005.jpg	99
1581.834	0.861	861.4	repeat	Run2	repeat/STIM_005.jpg	100
1585.282	0.906	905.6	repeat	Run2	repeat/STIM_005.jpg	99
1588.418	0.718	717.9	repeat	Run2	repeat/STIM_005.jpg	99
1592.917	0.761	761.3	repeat	Run2	repeat/STIM_006.jpg	100
1596.098	0.673	673.3	repeat	Run2	repeat/STIM_006.jpg	99
1599.053	0.648	647.8	repeat	Run2	repeat/STIM_006.jpg	100
1601.864	0.538	538.5	repeat	Run2	repeat/STIM_006.jpg	100
1606.19	0.51	510.2	repeat	Run2	repeat/STIM_006.jpg	99
1610.634	0.643	643.1	repeat	Run2	repeat/STIM_007.jpg	99
1614.95	0.953	952.9	repeat	Run2	repeat/STIM_007.jpg	99
1619.344	0.648	648.0	repeat	Run2	repeat/STIM_007.jpg	100
1622.1	0.539	539.2	repeat	Run2	repeat/STIM_007.jpg	100
1625.136	0.707	707.4	repeat	Run2	repeat/STIM_007.jpg	100
1629.501	0.667	666.8	repeat	Run2	repeat/STIM_008.jpg	99
1633.22	0.769	769.3	repeat	Run2	repeat/STIM_008.jpg	99
1637.386	0.675	675.0	repeat	Run2	repeat/STIM_008.jpg	100
1640.999	0.56	560.3	repeat	Run2	repeat/STIM_008.jpg	99
1645.366	0.774	773.9	repeat	Run2	repeat/STIM_008.jpg	100
1649.106	0.841	841.2	repeat	Run2	repeat/STIM_009.jpg	100
1652.278	0.818	818.5	repeat	Run2	repeat/STIM_009.jpg	100
1656.627	0.584	584.4	repeat	Run2	repeat/STIM_009.jpg	100
1660.398	1.03	1029.9	repeat	Run2	repeat/STIM_009.jpg	100
1663.65	0.696	696.5	repeat	Run2	repeat/STIM_009.jpg	99
1667.938	0.664	664.3	repeat	Run2	repeat/STIM_010.jpg	99
1672.315	0.789	788.8	repeat	Run2	repeat/STIM_010.jpg	99
1676.429	0.984	983.8	repeat	Run2	repeat/STIM_010.jpg	100
1680.044	0.583	583.4	repeat	Run2	repeat/STIM_010.jpg	100
1683.637	0.738	737.9	repeat	Run2	repeat/STIM_010.jpg	100
1687.366	0.594	594.4	repeat	Run2	repeat/STIM_011.jpg	99
1690.158	0.682	681.5	repeat	Run2	repeat/STIM_011.jpg	99
1694.648	0.852	852.3	repeat	Run2	repeat/STIM_011.jpg	99
1698.687	1.052	1052.3	repeat	Run2	repeat/STIM_011.jpg	99
1702.472	0.622	621.7	repeat	Run2	repeat/STIM_011.jpg	99
1705.295	0.996	996.4	repeat	Run2	repeat/STIM_012.jpg	100
1710.084	0.751	751.4	repeat	Run2	repeat/STIM_012.jpg	100
1713.944	0.599	599.3	repeat	Run2	repeat/STIM_012.jpg	100
1716.535	0.767	767.2	repeat	Run2	repeat/STIM_012.jpg	100
1720.065	0.856	856.0	repeat	Run2	repeat/STIM_012.jpg	99
1723.318	0.691	691.2	repeat	Run2	repeat/STIM_013.jpg	100
1727.212	0.74	740.5	repeat	Run2	repeat/STIM_013.jpg	100
1731.338	0.668	668.0	repeat	Run2	repeat/STIM_013.jpg	100
1734.837	0.714	714.2	repeat	Run2	repeat/STIM_013.jpg	99
1737.934	0.68	680.1	repeat	Run2	repeat/STIM_013.jpg	100
1741.866	0.701	701.4	repeat	Run2	repeat/STIM_014.jpg	99
1745.502	0.748	748.4	repeat	Run2	repeat/STIM_014.jpg	100
1749.843	1.068	1067.5	repeat	Run2	repeat/STIM_014.jpg	100
1753.979	0.87	870.1	repeat	Run2	repeat/STIM_014.jpg	99
1756.872	0.869	869.4	repeat	Run2	repeat/STIM_014.jpg	100
1759.808	1.402	1402.2	generate	Run3	generate/STIM_000.jpg	100
1764.109	1.121	1120.9	generate	Run3	generate/STIM_000.jpg	99
1767.811	1.394	1393.5	generate	Run3	generate/STIM_000.jpg	99
1772.992	1.181	1181.4	generate	Run3	generate/STIM_000.jpg	100
1777.256	2.079	2078.6	generate	Run3	generate/STIM_000.jpg	100
1782.616	1.56	1560.2	generate	Run3	generate/STIM_001.jpg	99
1787.318	1.516	1515.7	generate	Run3	generate/STIM_001.jpg	99
1792.279	1.239	1238.7	generate	Run3	generate/STIM_001.jpg	99
1796.532	2.139	2138.8	generate	Run3	generate/STIM_001.jpg	100
1800.871	1.497	1497.1	generate	Run3	generate/STIM_001.jpg	100
1804.727	1.757	1757.0	generate	Run3	generate/STIM_002.jpg	99
1809.086	1.9	1899.8	generate	Run3	generate/STIM_002.jpg	99
1814.527	0.972	972.0	generate	Run3	generate/STIM_002.jpg	100
1817.916	0.999	999.2	generate	Run3	generate/STIM_002.jpg	100
1822.507	1.501	1501.0	generate	Run3	generate/STIM_002.jpg	99
1826.809	1.97	1970.1	generate	Run3	generate/STIM_003.jpg	100
1831.402	1.101	1100.9	generate	Run3	generate/STIM_003.jpg	99
1835.545	1.606	1605.6	generate	Run3	generate/STIM_003.jpg	99
1840.344	2.025	2024.7	generate	Run3	generate/STIM_003.jpg	100
1845.687	1.996	1996.2	generate	Run3	generate/STIM_003.jpg	99
1849.874	2.166	2165.7	generate	Run3	generate/STIM_004.jpg	100
1855.145	1.469	1468.9	generate	Run3	generate/STIM_004.jpg	100
1858.997	1.291	1290.7	generate	Run3	generate/STIM_004.jpg	99
1863.143	1.308	1307.7	generate	Run3	generate/STIM_004.jpg	100
1867.571	1.274	1274.4	generate	Run3	generate/STIM_004.jpg	100
1871.461	1.701	1700.9	generate	Run3	generate/STIM_005.jpg	99
1876.045	2.174	2174.2	generate	Run3	generate/STIM_005.jpg	99
1880.973	1.586	1585.7	generate	Run3	generate/STIM_005.jpg	99
1886.49	1.79	1789.5	generate	Run3	generate/STIM_005.jpg	100
1890.438	1.838	1838.5	generate	Run3	generate/STIM_005.jpg	99
1894.394	1.141	1141.2	generate	Run3	generate/STIM_006.jpg	99
1897.944	1.879	1878.6	generate	Run3	generate/STIM_006.jpg	99
1902.674	2.001	2000.8	generate	Run3	generate/STIM_006.jpg	99
1908.618	1.285	1284.6	generate	Run3	generate/STIM_006.jpg	100
1913.796	0.899	898.7	generate	Run3	generate/STIM_006.jpg	99
1917.36	1.264	1264.4	generate	Run3	generate/STIM_007.jpg	99
1922.587	1.147	1147.4	generate	Run3	generate/STIM_007.jpg	100
1926.261	1.269	1268.7	generate	Run3	generate/STIM_007.jpg	99
1930.824	1.427	1427.3	generate	Run3	generate/STIM_007.jpg	100
1934.818	2.03	2030.1	generate	Run3	generate/STIM_007.jpg	100
1939.685	0.977	977.0	generate	Run3	generate/STIM_008.jpg	100
1942.89	1.598	1598.0	generate	Run3	generate/STIM_008.jpg	99
1947.4	1.51	1510.0	generate	Run3	generate/STIM_008.jpg	99
1952.794	2.126	2125.6	generate	Run3	generate/STIM_008.jpg	100
1956.955	0.945	944.7	generate	Run3	generate/STIM_008.jpg	99
1960.333	1.688	1687.7	generate	Run3	generate/STIM_009.jpg	100
1965.573	1.232	1231.5	generate	Run3	generate/STIM_009.jpg	100
1969.778	2.132	2131.7	generate	Run3	generate/STIM_009.jpg	99
1974.402	1.298	1298.1	generate	Run3	generate/STIM_009.jpg	100
1978.244	0.989	989.0	generate	Run3	generate/STIM_009.jpg	99
1981.985	1.146	1146.5	generate	Run3	generate/STIM_010.jpg	99
1986.739	1.184	1183.5	generate	Run3	generate/STIM_010.jpg	99
1990.745	1.539	1539.2	generate	Run3	generate/STIM_010.jpg	100
1994.521	1.002	1002.3	generate	Run3	generate/STIM_010.jpg	100
1997.906	1.809	1808.8	generate	Run3	generate/STIM_010.jpg	100
2003.411	1.115	1114.8	generate	Run3	generate/STIM_011.jpg	99
2007.618	1.304	1303.9	generate	Run3	generate/STIM_011.jpg	99
2011.438	1.859	1859.4	generate	Run3	generate/STIM_011.jpg	99
2015.49	0.882	882.0	generate	Run3	generate/STIM_011.jpg	99
2018.651	1.818	1817.8	generate	Run3	generate/STIM_011.jpg	100
2024.212	0.956	955.9	generate	Run3	generate/STIM_012.jpg	100
2028.83	0.897	897.1	generate	Run3	generate/STIM_012.jpg	100
2032.884	1.965	1964.7	generate	Run3	generate/STIM_012.jpg	100
2037.301	1.271	1271.0	generate	Run3	generate/STIM_012.jpg	99
2041.308	1.7	1699.6	generate	Run3	generate/STIM_012.jpg	99
2046.475	1.509	1508.8	generate	Run3	generate/STIM_013.jpg	100
2050.309	1.187	1187.1	generate	Run3	generate/STIM_013.jpg	99
2053.702	1.285	1284.9	generate	Run3	generate/STIM_013.jpg	99
2058.881	1.834	1834.3	generate	Run3	generate/STIM_013.jpg	99
2064.595	1.712	1711.7	generate	Run3	generate/STIM_013.jpg	99
2068.561	1.698	1698.3	generate	Run3	generate/STIM_014.jpg	100
2072.953	1.24	1240.4	generate	Run3	generate/STIM_014.jpg	100
2076.881	1.271	1270.8	generate	Run3	generate/STIM_014.jpg	99
2081.399	1.86	1859.7	generate	Run3	generate/STIM_014.jpg	100
2086.298	0.917	917.2	generate	Run3	generate/STIM_014.jpg	100
2090.816	1.735	1734.7	generate	Run3	generate/STIM_015.jpg	100
2096.043	2.065	2065.0	generate	Run3	generate/STIM_015.jpg	99
2101.141	0.98	979.7	generate	Run3	generate/STIM_015.jpg	100
2104.407	1.494	1493.5	generate	Run3	generate/STIM_015.jpg	99
2108.61	1.957	1956.9	generate	Run3	generate/STIM_015.jpg	100
2113.203	1.27	1270.0	generate	Run3	generate/STIM_016.jpg	100
2117.968	1.725	1724.6	generate	Run3	generate/STIM_016.jpg	99
2122.132	1.98	1980.4	generate	Run3	generate/STIM_016.jpg	99
2127.041	1.342	1341.9	generate	Run3	generate/STIM_016.jpg	99
2131.356	1.666	1666.2	generate	Run3	generate/STIM_016.jpg	99
2135.1	1.154	1153.9	generate	Run3	generate/STIM_017.jpg	100
2139.97	1.778	1778.5	generate	Run3	generate/STIM_017.jpg	100
2144.297	1.116	1115.9	generate	Run3	generate/STIM_017.jpg	100
2148.042	1.851	1850.8	generate	Run3	generate/STIM_017.jpg	100
2153.024	1.992	1992.5	generate	Run3	generate/STIM_017.jpg	100
2157.348	1.956	1955.7	generate	Run3	generate/STIM_018.jpg	100
2162.949	2.016	2016.3	generate	Run3	generate/STIM_018.jpg	100
2168.537	0.863	863.4	generate	Run3	generate/STIM_018.jpg	100
2172.029	1.567	1567.0	generate	Run3	generate/STIM_018.jpg	99
2177.35	1.005	1005.0	generate	Run3	generate/STIM_018.jpg	99
2180.596	0.858	858.4	generate	Run3	generate/STIM_019.jpg	100
2184.945	1.829	1829.1	generate	Run3	generate/STIM_019.jpg	100
2189.011	1.534	1533.9	generate	Run3	generate/STIM_019.jpg	99
2193.894	1.487	1487.2	generate	Run3	generate/STIM_019.jpg	99
2199.091	1.351	1351.2	generate	Run3	generate/STIM_019.jpg	100
2203.17	2.179	2179.2	generate	Run3	generate/STIM_020.jpg	99
2208.371	2.078	2077.7	generate	Run3	generate/STIM_020.jpg	100
2212.893	1.344	1344.0	generate	Run3	generate/STIM_020.jpg	100
2217.975	1.715	1714.8	generate	Run3	generate/STIM_020.jpg	100
2222.88	1.975	1975.1	generate	Run3	generate/STIM_020.jpg	99
2227.291	1.135	1135.0	generate	Run3	generate/STIM_021.jpg	100
2230.651	1.042	1041.6	generate	Run3	generate/STIM_021.jpg	99
2234.338	1.395	1394.9	generate	Run3	generate/STIM_021.jpg	100
2239.714	2.023	2023.5	generate	Run3	generate/STIM_021.jpg	100
2244.93	0.884	883.9	generate	Run3	generate/STIM_021.jpg	99
2248.491	1.748	1747.5	generate	Run3	generate/STIM_022.jpg	99
2253.919	0.823	823.4	generate	Run3	generate/STIM_022.jpg	100
2257.118	1.223	1222.7	generate	Run3	generate/STIM_022.jpg	99
2260.811	1.786	1786.4	generate	Run3	generate/STIM_022.jpg	99
2265.13	1.01	1009.8	generate	Run3	generate/STIM_022.jpg	100
2269.169	1.252	1252.1	generate	Run3	generate/STIM_023.jpg	100
2272.459	1.142	1142.4	generate	Run3	generate/STIM_023.jpg	100
2275.674	2.042	2042.1	generate	Run3	generate/STIM_023.jpg	100
2280.153	2.056	2056.1	generate	Run3	generate/STIM_023.jpg	99
2284.801	1.482	1481.6	generate	Run3	generate/STIM_023.jpg	100
2290.24	0.967	967.0	generate	Run3	generate/STIM_024.jpg	100
2294.954	0.91	910.4	generate	Run3	generate/STIM_024.jpg	99
2297.934	1.797	1796.8	generate	Run3	generate/STIM_024.jpg	100
2301.964	1.945	1945.3	generate	Run3	generate/STIM_024.jpg	99
2307.02	1.641	1641.1	generate	Run3	generate/STIM_024.jpg	99
2311.371	0.601	600.9	repeat	Run3	repeat/STIM_000.jpg	100
2314.285	0.806	805.8	repeat	Run3	repeat/STIM_000.jpg	99
2317.7	0.43	429.9	repeat	Run3	repeat/STIM_000.jpg	100
2320.512	0.944	943.5	repeat	Run3	repeat/STIM_000.jpg	100
2324.993	0.664	664.1	repeat	Run3	repeat/STIM_000.jpg	99
2327.97	0.892	891.6	repeat	Run3	repeat/STIM_001.jpg	99
2332.556	0.843	843.1	repeat	Run3	repeat/STIM_001.jpg	100
2335.914	0.616	616.5	repeat	Run3	repeat/STIM_001.jpg	100
2340.001	0.7	699.5	repeat	Run3	repeat/STIM_001.jpg	99
2344.194	0.933	932.9	repeat	Run3	repeat/STIM_001.jpg	100
2347.92	0.903	903.1	repeat	Run3	repeat/STIM_002.jpg	99
2352.257	1.037	1036.7	repeat	Run3	repeat/STIM_002.jpg	100
2356.165	0.969	968.8	repeat	Run3	repeat/STIM_002.jpg	100
2360.411	0.584	584.1	repeat	Run3	repeat/STIM_002.jpg	99
2364.55	0.829	829.0	repeat	Run3	repeat/STIM_002.jpg	100
2367.877	0.529	528.9	repeat	Run3	repeat/STIM_003.jpg	100
2371.876	0.915	915.0	repeat	Run3	repeat/STIM_003.jpg	99
2376.65	0.863	862.8	repeat	Run3	repeat/STIM_003.jpg	99
2379.585	0.718	717.8	repeat	Run3	repeat/STIM_003.jpg	100
2383.342	0.724	724.3	repeat	Run3	repeat/STIM_003.jpg	99
2387.315	1.005	1004.8	repeat	Run3	repeat/STIM_004.jpg	100
2390.971	0.955	955.4	repeat	Run3	repeat/STIM_004.jpg	100
2395.769	0.958	958.2	repeat	Run3	repeat/STIM_004.jpg	100
2399.147	0.95	949.7	repeat	Run3	repeat/STIM_004.jpg	100
2403.465	0.622	622.0	repeat	Run3	repeat/STIM_004.jpg	99
2406.532	0.707	706.7	repeat	Run3	repeat/STIM_005.jpg	99
2411.172	0.749	748.9	repeat	Run3	repeat/STIM_005.jpg	99
2414.993	0.578	578.1	repeat	Run3	repeat/STIM_005.jpg	99
2418.404	0.592	591.7	repeat	Run3	repeat/STIM_005.jpg	100
2421.903	0.889	889.2	repeat	Run3	repeat/STIM_005.jpg	100
2425.512	0.598	597.6	repeat	Run3	repeat/STIM_006.jpg	100
2429.285	0.895	894.7	repeat	Run3	repeat/STIM_006.jpg	99
2433.684	0.857	857.3	repeat	Run3	repeat/STIM_006.jpg	99
2437.456	0.953	953.2	repeat	Run3	repeat/STIM_006.jpg	100
2442.127	0.911	911.0	repeat	Run3	repeat/STIM_006.jpg	100
2446.352	0.777	776.9	repeat	Run3	repeat/STIM_007.jpg	100
2450.883	0.939	939.1	repeat	Run3	repeat/STIM_007.jpg	99
2454.717	0.938	938.2	repeat	Run3	repeat/STIM_007.jpg	100
2457.972	0.495	494.8	repeat	Run3	repeat/STIM_007.jpg	99
2461.226	0.859	859.2	repeat	Run3	repeat/STIM_007.jpg	99
2465.128	0.966	965.7	repeat	Run3	repeat/STIM_008.jpg	99
2468.429	0.903	903.3	repeat	Run3	repeat/STIM_008.jpg	100
2472.074	0.668	667.7	repeat	Run3	repeat/STIM_008.jpg	99
2476.417	0.524	523.9	repeat	Run3	repeat/STIM_008.jpg	99
2479.691	0.616	616.1	repeat	Run3	repeat/STIM_008.jpg	99
2482.428	0.66	660.1	repeat	Run3	repeat/STIM_009.jpg	99
2486.985	0.671	671.0	repeat	Run3	repeat/STIM_009.jpg	100
2490.246	0.635	635.1	repeat	Run3	repeat/STIM_009.jpg	99
2494.449	0.812	812.4	repeat	Run3	repeat/STIM_009.jpg	100
2498.784	0.486	486.1	repeat	Run3	repeat/STIM_009.jpg	99
2502.378	0.658	658.1	repeat	Run3	repeat/STIM_010.jpg	100
2506.273	0.762	762.5	repeat	Run3	repeat/STIM_010.jpg	99
2510.626	0.893	893.1	repeat	Run3	repeat/STIM_010.jpg	99
2514.339	0.968	967.7	repeat	Run3	repeat/STIM_010.jpg	100
2517.701	0.713	712.8	repeat	Run3	repeat/STIM_010.jpg	99
2521.07	0.696	696.0	repeat	Run3	repeat/STIM_011.jpg	100
2524.725	0.62	620.4	repeat	Run3	repeat/STIM_011.jpg	99
2529.197	0.857	857.1	repeat	Run3	repeat/STIM_011.jpg	99
2533.606	1.028	1027.7	repeat	Run3	repeat/STIM_011.jpg	99
2537.41	0.621	621.4	repeat	Run3	repeat/STIM_011.jpg	100
2541.941	0.896	895.7	repeat	Run3	repeat/STIM_012.jpg	99
2546.769	0.647	647.3	repeat	Run3	repeat/STIM_012.jpg	100
2549.774	0.907	906.7	repeat	Run3	repeat/STIM_012.jpg	99
2552.885	0.951	951.1	repeat	Run3	repeat/STIM_012.jpg	99
2556.492	0.857	856.8	repeat	Run3	repeat/STIM_012.jpg	100
2560.361	0.516	516.0	repeat	Run3	repeat/STIM_013.jpg	100
2563.197	0.866	865.9	repeat	Run3	repeat/STIM_013.jpg	100
2567.208	0.631	631.1	repeat	Run3	repeat/STIM_013.jpg	99
2569.974	0.82	819.5	repeat	Run3	repeat/STIM_013.jpg	100
2574.647	0.527	527.2	repeat	Run3	repeat/STIM_013.jpg	99
2577.586	0.487	487.0	repeat	Run3	repeat/STIM_014.jpg	99
2580.748	1.042	1041.8	repeat	Run3	repeat/STIM_014.jpg	99
2585.203	0.706	706.0	repeat	Run3	repeat/STIM_014.jpg	99
2588.462	0.79	790.1	repeat	Run3	repeat/STIM_014.jpg	99
2592.804	0.998	998.3	repeat	Run3	repeat/STIM_014.jpg	99
2596.561	1.856	1856.3	generate	Run4	generate/STIM_000.jpg	99
2602.128	1.926	1926.2	generate	Run4	generate/STIM_000.jpg	100
2607.744	1.88	1880.2	generate	Run4	generate/STIM_000.jpg	99
2611.852	0.944	943.9	generate	Run4	generate/STIM_000.jpg	99
2616.194	1.742	1741.5	generate	Run4	generate/STIM_000.jpg	99
2621.444	1.683	1682.6	generate	Run4	generate/STIM_001.jpg	100
2626.946	1.028	1027.7	generate	Run4	generate/STIM_001.jpg	100
2630.568	2.112	2112.5	generate	Run4	generate/STIM_001.jpg	100
2634.651	2.106	2106.5	generate	Run4	generate/STIM_001.jpg	99
2640.663	1.293	1292.6	generate	Run4	generate/STIM_001.jpg	99
2645.427	1.568	1567.5	generate	Run4	generate/STIM_002.jpg	99
2649.179	1.832	1832.0	generate	Run4	generate/STIM_002.jpg	100
2654.037	1.01	1009.7	generate	Run4	generate/STIM_002.jpg	99
2658.063	1.132	1132.4	generate	Run4	generate/STIM_002.jpg	100
2663.064	1.685	1684.7	generate	Run4	generate/STIM_002.jpg	99
2667.876	1.623	1622.6	generate	Run4	generate/STIM_003.jpg	99
2672.805	2.099	2098.8	generate	Run4	generate/STIM_003.jpg	100
2678.769	1.819	1819.1	generate	Run4	generate/STIM_003.jpg	99
2684.524	1.813	1812.7	generate	Run4	generate/STIM_003.jpg	100
2689.723	2.188	2188.0	generate	Run4	generate/STIM_003.jpg	100
2695.214	0.917	917.2	generate	Run4	generate/STIM_004.jpg	99
2699.181	2.062	2062.0	generate	Run4	generate/STIM_004.jpg	99
2703.603	1.708	1708.2	generate	Run4	generate/STIM_004.jpg	99
2708.406	1.061	1061.4	generate	Run4	generate/STIM_004.jpg	100
2712.545	1.23	1229.8	generate	Run4	generate/STIM_004.jpg	100
2716.482	1.882	1881.7	generate	Run4	generate/STIM_005.jpg	99
2721.671	1.523	1523.3	generate	Run4	generate/STIM_005.jpg	99
2726.869	1.251	1250.7	generate	Run4	generate/STIM_005.jpg	100
2731.412	1.068	1067.7	generate	Run4	generate/STIM_005.jpg	100
2734.449	0.964	963.5	generate	Run4	generate/STIM_005.jpg	99
2738.275	1.363	1362.7	generate	Run4	generate/STIM_006.jpg	100
2742.945	0.911	910.6	generate	Run4	generate/STIM_006.jpg	99
2746.572	1.165	1164.6	generate	Run4	generate/STIM_006.jpg	99
2750.061	1.267	1267.2	generate	Run4	generate/STIM_006.jpg	99
2754.589	1.68	1680.5	generate	Run4	generate/STIM_006.jpg	99
2760.076	2.096	2096.5	generate	Run4	generate/STIM_007.jpg	99
2765.302	1.288	1287.7	generate	Run4	generate/STIM_007.jpg	99
2769.21	1.76	1759.9	generate	Run4	generate/STIM_007.jpg	99
2772.962	1.442	1442.3	generate	Run4	generate/STIM_007.jpg	100
2778.033	1.707	1706.8	generate	Run4	generate/STIM_007.jpg	100
2781.884	1.26	1260.2	generate	Run4	generate/STIM_008.jpg	99
2785.699	1.218	1218.1	generate	Run4	generate/STIM_008.jpg	99
2789.715	1.582	1581.5	generate	Run4	generate/STIM_008.jpg	100
2794.075	2.09	2089.7	generate	Run4	generate/STIM_008.jpg	99
2798.988	1.718	1718.2	generate	Run4	generate/STIM_008.jpg	99
2803.781	1.783	1783.4	generate	Run4	generate/STIM_009.jpg	100
2808.536	1.77	1770.1	generate	Run4	generate/STIM_009.jpg	99
2813.891	1.274	1273.8	generate	Run4	generate/STIM_009.jpg	99
2817.532	1.481	1481.4	generate	Run4	generate/STIM_009.jpg	100
2821.666	1.117	1117.4	generate	Run4	generate/STIM_009.jpg	100
2825.344	1.558	1557.8	generate	Run4	generate/STIM_010.jpg	100
2829.392	2.137	2136.9	generate	Run4	generate/STIM_010.jpg	99
2834.061	1.034	1034.1	generate	Run4	generate/STIM_010.jpg	99
2839.013	2.163	2163.2	generate	Run4	generate/STIM_010.jpg	100
2843.652	1.406	1405.7	generate	Run4	generate/STIM_010.jpg	100
2848.746	1.085	1085.3	generate	Run4	generate/STIM_011.jpg	100
2852.61	1.249	1249.3	generate	Run4	generate/STIM_011.jpg	99
2856.763	1.833	1833.1	generate	Run4	generate/STIM_011.jpg	99
2861.861	1.024	1023.8	generate	Run4	generate/STIM_011.jpg	100
2866.699	1.037	1036.8	generate	Run4	generate/STIM_011.jpg	100
2870.776	1.753	1753.2	generate	Run4	generate/STIM_012.jpg	100
2875.224	1.85	1849.8	generate	Run4	generate/STIM_012.jpg	99
2880.175	1.642	1641.9	generate	Run4	generate/STIM_012.jpg	100
2883.878	1.734	1734.2	generate	Run4	generate/STIM_012.jpg	99
2888.392	1.167	1167.2	generate	Run4	generate/STIM_012.jpg	100
2892.98	2.09	2090.3	generate	Run4	generate/STIM_013.jpg	100
2898.778	1.891	1891.2	generate	Run4	generate/STIM_013.jpg	100
2904.139	1.247	1246.6	generate	Run4	generate/STIM_013.jpg	100
2908.69	1.679	1679.2	generate	Run4	generate/STIM_013.jpg	100
2913.926	1.402	1401.5	generate	Run4	generate/STIM_013.jpg	100
2917.426	1.147	1146.7	generate	Run4	generate/STIM_014.jpg	100
2921.358	1.214	1214.0	generate	Run4	generate/STIM_014.jpg	99
2925.491	1.318	1317.8	generate	Run4	generate/STIM_014.jpg	99
2930.448	1.408	1407.5	generate	Run4	generate/STIM_014.jpg	100
2935.595	0.986	985.5	generate	Run4	generate/STIM_014.jpg	100
2938.534	1.515	1514.6	generate	Run4	generate/STIM_015.jpg	100
2942.21	1.739	1739.3	generate	Run4	generate/STIM_015.jpg	99
2946.789	2.069	2069.1	generate	Run4	generate/STIM_015.jpg	100
2951.906	1.912	1912.4	generate	Run4	generate/STIM_015.jpg	100
2956.348	1.3	1300.4	generate	Run4	generate/STIM_015.jpg	100
2961.44	1.509	1509.2	generate	Run4	generate/STIM_016.jpg	100
2965.039	2.102	2102.4	generate	Run4	generate/STIM_016.jpg	99
2970.202	1.138	1138.3	generate	Run4	generate/STIM_016.jpg	99
2973.918	1.187	1187.4	generate	Run4	generate/STIM_016.jpg	100
2977.099	1.132	1132.2	generate	Run4	generate/STIM_016.jpg	100
2981.374	2.172	2171.6	generate	Run4	generate/STIM_017.jpg	99
2986.718	1.233	1232.9	generate	Run4	generate/STIM_017.jpg	100
2991.557	1.508	1508.1	generate	Run4	generate/STIM_017.jpg	99
2996.6	1.79	1790.2	generate	Run4	generate/STIM_017.jpg	100
3002.355	1.758	1758.1	generate	Run4	generate/STIM_017.jpg	99
3007.909	1.227	1226.8	generate	Run4	generate/STIM_018.jpg	99
3011.315	0.965	965.1	generate	Run4	generate/STIM_018.jpg	99
3015.963	1.86	1860.0	generate	Run4	generate/STIM_018.jpg	100
3021.555	1.616	1616.3	generate	Run4	generate/STIM_018.jpg	100
3025.475	0.824	824.0	generate	Run4	generate/STIM_018.jpg	100
3029.192	1.318	1317.7	generate	Run4	generate/STIM_019.jpg	100
3032.864	1.358	1357.9	generate	Run4	generate/STIM_019.jpg	100
3036.915	1.23	1230.3	generate	Run4	generate/STIM_019.jpg	99
3040.566	0.92	920.4	generate	Run4	generate/STIM_019.jpg	100
3043.629	1.868	1868.2	generate	Run4	generate/STIM_019.jpg	99
3048.757	1.038	1037.6	generate	Run4	generate/STIM_020.jpg	100
3053.012	1.616	1616.5	generate	Run4	generate/STIM_020.jpg	100
3058.108	1.774	1774.1	generate	Run4	generate/STIM_020.jpg	100
3062.396	1.254	1254.1	generate	Run4	generate/STIM_020.jpg	99
3066.748	1.066	1065.5	generate	Run4	generate/STIM_020.jpg	100
3071.057	1.859	1859.0	generate	Run4	generate/STIM_021.jpg	99
3074.941	0.989	989.1	generate	Run4	generate/STIM_021.jpg	99
3078.139	1.906	1906.3	generate	Run4	generate/STIM_021.jpg	99
3083.531	1.654	1653.6	generate	Run4	generate/STIM_021.jpg	99
3088.209	1.559	1559.4	generate	Run4	generate/STIM_021.jpg	99
3091.745	2.053	2053.1	generate	Run4	generate/STIM_022.jpg	100
3095.844	1.848	1848.3	generate	Run4	generate/STIM_022.jpg	100
3100.1	2.113	2112.8	generate	Run4	generate/STIM_022.jpg	99
3106.115	1.645	1645.0	generate	Run4	generate/STIM_022.jpg	99
3110.997	2.009	2009.2	generate	Run4	generate/STIM_022.jpg	99
3115.936	0.868	868.3	generate	Run4	generate/STIM_023.jpg	100
3119.019	2.087	2087.4	generate	Run4	generate/STIM_023.jpg	100
3123.231	1.004	1004.4	generate	Run4	generate/STIM_023.jpg	99
3127.904	1.999	1998.6	generate	Run4	generate/STIM_023.jpg	99
3133.318	0.913	913.3	generate	Run4	generate/STIM_023.jpg	100
3136.437	1.171	1170.9	generate	Run4	generate/STIM_024.jpg	100
3140.425	1.113	1112.9	generate	Run4	generate/STIM_024.jpg	100
3145.399	2.062	2061.8	generate	Run4	generate/STIM_024.jpg	100
3150.869	1.547	1547.2	generate	Run4	generate/STIM_024.jpg	100
3155.5	1.129	1128.8	generate	Run4	generate/STIM_024.jpg	100
3160.21	0.792	791.7	repeat	Run4	repeat/STIM_000.jpg	100
3163.986	0.902	901.6	repeat	Run4	repeat/STIM_000.jpg	99
3167.281	0.522	522.5	repeat	Run4	repeat/STIM_000.jpg	100
3170.657	0.83	830.2	repeat	Run4	repeat/STIM_000.jpg	100
3174.824	0.619	619.0	repeat	Run4	repeat/STIM_000.jpg	99
3178.804	0.601	601.1	repeat	Run4	repeat/STIM_001.jpg	99
3182.429	0.755	755.3	repeat	Run4	repeat/STIM_001.jpg	100
3185.178	0.879	879.1	repeat	Run4	repeat/STIM_001.jpg	99
3189.703	0.868	867.9	repeat	Run4	repeat/STIM_001.jpg	99
3192.72	0.916	916.5	repeat	Run4	repeat/STIM_001.jpg	99
3196.605	0.939	939.1	repeat	Run4	repeat/STIM_002.jpg	100
3200.141	1.039	1038.9	repeat	Run4	repeat/STIM_002.jpg	100
3203.444	0.746	746.1	repeat	Run4	repeat/STIM_002.jpg	100
3206.536	0.917	916.8	repeat	Run4	repeat/STIM_002.jpg	100
3210.148	0.576	575.8	repeat	Run4	repeat/STIM_002.jpg	99
3213.763	0.584	583.8	repeat	Run4	repeat/STIM_003.jpg	99
3217.405	1.021	1020.8	repeat	Run4	repeat/STIM_003.jpg	100
3220.488	0.915	915.3	repeat	Run4	repeat/STIM_003.jpg	99
3224.732	0.742	742.4	repeat	Run4	repeat/STIM_003.jpg	99
3227.44	0.644	643.6	repeat	Run4	repeat/STIM_003.jpg	99
3231.175	0.808	808.2	repeat	Run4	repeat/STIM_004.jpg	100
3234.136	0.485	484.6	repeat	Run4	repeat/STIM_004.jpg	100
3237.523	0.596	595.8	repeat	Run4	repeat/STIM_004.jpg	100
3241.912	0.884	884.1	repeat	Run4	repeat/STIM_004.jpg	100
3246.494	0.91	909.7	repeat	Run4	repeat/STIM_004.jpg	99
3249.653	0.736	736.3	repeat	Run4	repeat/STIM_005.jpg	100
3252.71	0.744	743.6	repeat	Run4	repeat/STIM_005.jpg	99
3256.598	0.71	709.7	repeat	Run4	repeat/STIM_005.jpg	100
3259.66	0.573	573.3	repeat	Run4	repeat/STIM_005.jpg	99
3263.455	0.927	927.4	repeat	Run4	repeat/STIM_005.jpg	99
3267.203	0.752	752.0	repeat	Run4	repeat/STIM_006.jpg	99
3270.458	0.859	858.7	repeat	Run4	repeat/STIM_006.jpg	100
3275.077	0.486	486.4	repeat	Run4	repeat/STIM_006.jpg	99
3277.736	0.646	646.2	repeat	Run4	repeat/STIM_006.jpg	99
3281.308	0.613	612.6	repeat	Run4	repeat/STIM_006.jpg	100
3285.052	0.502	501.7	repeat	Run4	repeat/STIM_007.jpg	99
3289.559	0.745	744.7	repeat	Run4	repeat/STIM_007.jpg	100
3292.43	0.573	572.9	repeat	Run4	repeat/STIM_007.jpg	99
3296.863	0.805	804.6	repeat	Run4	repeat/STIM_007.jpg	100
3301.636	0.903	902.7	repeat	Run4	repeat/STIM_007.jpg	100
3305.098	0.606	606.1	repeat	Run4	repeat/STIM_008.jpg	100
3307.952	0.881	881.4	repeat	Run4	repeat/STIM_008.jpg	99
3312.709	0.851	851.3	repeat	Run4	repeat/STIM_008.jpg	99
3316.723	0.76	760.2	repeat	Run4	repeat/STIM_008.jpg	99
3320.868	0.597	596.6	repeat	Run4	repeat/STIM_008.jpg	100
3324.132	0.99	989.7	repeat	Run4	repeat/STIM_009.jpg	100
3327.456	0.54	540.0	repeat	Run4	repeat/STIM_009.jpg	99
3331.029	0.946	946.5	repeat	Run4	repeat/STIM_009.jpg	99
3334.278	0.508	507.9	repeat	Run4	repeat/STIM_009.jpg	99
3337.422	0.624	623.9	repeat	Run4	repeat/STIM_009.jpg	100
3340.623	0.943	942.6	repeat	Run4	repeat/STIM_010.jpg	100
3343.718	0.826	826.2	repeat	Run4	repeat/STIM_010.jpg	100
3348.371	0.959	959.3	repeat	Run4	repeat/STIM_010.jpg	99
3351.865	0.585	584.9	repeat	Run4	repeat/STIM_010.jpg	99
3355.272	0.769	768.7	repeat	Run4	repeat/STIM_010.jpg	99
3359.545	0.541	540.6	repeat	Run4	repeat/STIM_011.jpg	99
3363.195	1.018	1018.1	repeat	Run4	repeat/STIM_011.jpg	100
3367.838	0.896	896.1	repeat	Run4	repeat/STIM_011.jpg	100
3370.641	0.698	697.9	repeat	Run4	repeat/STIM_011.jpg	100
3374.308	0.568	568.3	repeat	Run4	repeat/STIM_011.jpg	99
3378.515	1.013	1013.2	repeat	Run4	repeat/STIM_012.jpg	99
3381.522	0.738	738.1	repeat	Run4	repeat/STIM_012.jpg	99
3384.765	0.901	900.6	repeat	Run4	repeat/STIM_012.jpg	100
3389.422	0.579	579.0	repeat	Run4	repeat/STIM_012.jpg	100
3392.174	0.54	540.3	repeat	Run4	repeat/STIM_012.jpg	99
3395.865	0.618	618.1	repeat	Run4	repeat/STIM_013.jpg	99
3398.846	0.631	631.4	repeat	Run4	repeat/STIM_013.jpg	99
3401.543	0.773	772.6	repeat	Run4	repeat/STIM_013.jpg	100
3405.579	0.727	727.2	repeat	Run4	repeat/STIM_013.jpg	100
3409.384	0.796	796.1	repeat	Run4	repeat/STIM_013.jpg	100
3413.305	0.733	732.8	repeat	Run4	repeat/STIM_014.jpg	99
3417.108	0.631	630.9	repeat	Run4	repeat/STIM_014.jpg	100
3420.962	1.014	1014.3	repeat	Run4	repeat/STIM_014.jpg	100
3425.114	0.903	903.4	repeat	Run4	repeat/STIM_014.jpg	99
3429.794	0.635	635.1	repeat	Run4	repeat/STIM_014.jpg	99
