onset	duration	accuracy_binary	trial_type	learning_stage	stimulus
0.0	1.8	1	generate	Run1	generate/STIM_000.jpg
5.609	1.605	1	generate	Run1	generate/STIM_000.jpg
11.015	2.132	1	generate	Run1	generate/STIM_000.jpg
15.402	1.748	1	generate	Run1	generate/STIM_000.jpg
19.453	1.314	1	generate	Run1	generate/STIM_000.jpg
24.368	3.022	1	generate	Run1	generate/STIM_001.jpg
30.234	2.042	1	generate	Run1	generate/STIM_001.jpg
34.855	1.96	0	generate	Run1	generate/STIM_001.jpg
38.847	2.468	1	generate	Run1	generate/STIM_001.jpg
44.076	1.938	1	generate	Run1	generate/STIM_001.jpg
48.212	1.544	0	generate	Run1	generate/STIM_002.jpg
52.778	1.432	1	generate	Run1	generate/STIM_002.jpg
56.871	2.229	1	generate	Run1	generate/STIM_002.jpg
61.898	1.791	1	generate	Run1	generate/STIM_002.jpg
66.764	1.903	1	generate	Run1	generate/STIM_002.jpg
71.928	2.48	1	generate	Run1	generate/STIM_003.jpg
78.381	1.537	0	generate	Run1	generate/STIM_003.jpg
83.474	1.263	1	generate	Run1	generate/STIM_003.jpg
88.639	1.152	1	generate	Run1	generate/STIM_003.jpg
93.665	2.173	1	generate	Run1	generate/STIM_003.jpg
98.89	2.416	1	generate	Run1	generate/STIM_004.jpg
103.386	2.439	1	generate	Run1	generate/STIM_004.jpg
108.425	2.192	1	generate	Run1	generate/STIM_004.jpg
114.034	2.157	1	generate	Run1	generate/STIM_004.jpg
119.608	1.879	0	generate	Run1	generate/STIM_004.jpg
124.922	3.295	1	generate	Run1	generate/STIM_005.jpg
130.717	3.131	0	generate	Run1	generate/STIM_005.jpg
137.359	2.928	1	generate	Run1	generate/STIM_005.jpg
142.57	1.366	1	generate	Run1	generate/STIM_005.jpg
146.905	1.821	0	generate	Run1	generate/STIM_005.jpg
152.349	2.806	1	generate	Run1	generate/STIM_006.jpg
157.766	1.82	1	generate	Run1	generate/STIM_006.jpg
161.882	1.39	1	generate	Run1	generate/STIM_006.jpg
166.311	2.65	1	generate	Run1	generate/STIM_006.jpg
171.102	2.446	1	generate	Run1	generate/STIM_006.jpg
177.022	2.815	1	generate	Run1	generate/STIM_007.jpg
183.692	1.481	1	generate	Run1	generate/STIM_007.jpg
188.815	1.42	1	generate	Run1	generate/STIM_007.jpg
193.236	1.578	1	generate	Run1	generate/STIM_007.jpg
197.655	1.885	0	generate	Run1	generate/STIM_007.jpg
202.834	2.995	1	generate	Run1	generate/STIM_008.jpg
209.14	3.114	1	generate	Run1	generate/STIM_008.jpg
215.287	2.722	1	generate	Run1	generate/STIM_008.jpg
221.398	2.394	1	generate	Run1	generate/STIM_008.jpg
226.1	1.845	1	generate	Run1	generate/STIM_008.jpg
231.313	2.945	1	generate	Run1	generate/STIM_009.jpg
238.128	1.323	1	generate	Run1	generate/STIM_009.jpg
243.047	1.954	1	generate	Run1	generate/STIM_009.jpg
247.165	2.314	0	generate	Run1	generate/STIM_009.jpg
251.501	2.338	1	generate	Run1	generate/STIM_009.jpg
257.34	2.25	1	generate	Run1	generate/STIM_010.jpg
262.547	1.811	1	generate	Run1	generate/STIM_010.jpg
267.418	1.272	1	generate	Run1	generate/STIM_010.jpg
272.623	1.283	1	generate	Run1	generate/STIM_010.jpg
276.158	2.427	0	generate	Run1	generate/STIM_010.jpg
281.099	2.452	1	generate	Run1	generate/STIM_011.jpg
286.165	1.662	1	generate	Run1	generate/STIM_011.jpg
290.21	2.531	1	generate	Run1	generate/STIM_011.jpg
296.653	2.56	1	generate	Run1	generate/STIM_011.jpg
302.567	1.844	1	generate	Run1	generate/STIM_011.jpg
308.295	1.653	1	generate	Run1	generate/STIM_012.jpg
313.781	1.739	1	generate	Run1	generate/STIM_012.jpg
319.424	2.15	1	generate	Run1	generate/STIM_012.jpg
324.497	1.424	1	generate	Run1	generate/STIM_012.jpg
329.233	2.139	1	generate	Run1	generate/STIM_012.jpg
334.915	1.87	1	generate	Run1	generate/STIM_013.jpg
340.644	2.342	1	generate	Run1	generate/STIM_013.jpg
345.857	2.103	1	generate	Run1	generate/STIM_013.jpg
350.708	1.404	1	generate	Run1	generate/STIM_013.jpg
355.426	1.598	1	generate	Run1	generate/STIM_013.jpg
359.718	2.29	1	generate	Run1	generate/STIM_014.jpg
364.097	2.596	1	generate	Run1	generate/STIM_014.jpg
370.404	1.85	1	generate	Run1	generate/STIM_014.jpg
374.342	1.844	1	generate	Run1	generate/STIM_014.jpg
379.662	2.14	1	generate	Run1	generate/STIM_014.jpg
384.99	2.165	1	generate	Run1	generate/STIM_015.jpg
389.601	2.531	0	generate	Run1	generate/STIM_015.jpg
395.318	1.427	0	generate	Run1	generate/STIM_015.jpg
400.431	1.345	1	generate	Run1	generate/STIM_015.jpg
404.583	2.19	1	generate	Run1	generate/STIM_015.jpg
409.683	1.361	1	generate	Run1	generate/STIM_016.jpg
414.299	2.081	1	generate	Run1	generate/STIM_016.jpg
419.253	1.92	1	generate	Run1	generate/STIM_016.jpg
423.653	1.574	1	generate	Run1	generate/STIM_016.jpg
428.305	1.367	1	generate	Run1	generate/STIM_016.jpg
431.936	1.569	1	generate	Run1	generate/STIM_017.jpg
436.164	1.676	1	generate	Run1	generate/STIM_017.jpg
440.959	1.736	1	generate	Run1	generate/STIM_017.jpg
445.433	2.668	1	generate	Run1	generate/STIM_017.jpg
451.745	1.858	0	generate	Run1	generate/STIM_017.jpg
457.263	3.313	1	generate	Run1	generate/STIM_018.jpg
463.797	2.744	1	generate	Run1	generate/STIM_018.jpg
469.969	2.64	1	generate	Run1	generate/STIM_018.jpg
476.259	2.738	1	generate	Run1	generate/STIM_018.jpg
482.348	1.577	1	generate	Run1	generate/STIM_018.jpg
486.676	3.283	1	generate	Run1	generate/STIM_019.jpg
493.549	1.508	1	generate	Run1	generate/STIM_019.jpg
498.472	2.266	1	generate	Run1	generate/STIM_019.jpg
503.635	1.142	1	generate	Run1	generate/STIM_019.jpg
507.83	1.409	1	generate	Run1	generate/STIM_019.jpg
511.334	2.616	1	generate	Run1	generate/STIM_020.jpg
516.367	2.556	0	generate	Run1	generate/STIM_020.jpg
521.994	2.423	1	generate	Run1	generate/STIM_020.jpg
527.35	2.574	1	generate	Run1	generate/STIM_020.jpg
532.733	2.02	1	generate	Run1	generate/STIM_020.jpg
538.257	2.322	1	generate	Run1	generate/STIM_021.jpg
544.316	1.927	1	generate	Run1	generate/STIM_021.jpg
549.878	2.372	1	generate	Run1	generate/STIM_021.jpg
556.028	1.305	1	generate	Run1	generate/STIM_021.jpg
560.267	1.284	1	generate	Run1	generate/STIM_021.jpg
564.422	2.484	1	generate	Run1	generate/STIM_022.jpg
569.843	1.667	1	generate	Run1	generate/STIM_022.jpg
573.8	2.705	1	generate	Run1	generate/STIM_022.jpg
579.232	2.557	1	generate	Run1	generate/STIM_022.jpg
585.281	2.375	1	generate	Run1	generate/STIM_022.jpg
590.171	2.327	1	generate	Run1	generate/STIM_023.jpg
595.803	1.983	1	generate	Run1	generate/STIM_023.jpg
600.011	2.564	1	generate	Run1	generate/STIM_023.jpg
606.002	1.148	1	generate	Run1	generate/STIM_023.jpg
609.21	2.316	1	generate	Run1	generate/STIM_023.jpg
614.391	2.101	1	generate	Run1	generate/STIM_024.jpg
620.026	2.828	1	generate	Run1	generate/STIM_024.jpg
625.726	1.462	1	generate	Run1	generate/STIM_024.jpg
629.542	2.377	1	generate	Run1	generate/STIM_024.jpg
635.505	2.095	1	generate	Run1	generate/STIM_024.jpg
641.228	0.709	1	repeat	Run1	repeat/STIM_000.jpg
645.484	0.607	1	repeat	Run1	repeat/STIM_000.jpg
649.796	0.83	1	repeat	Run1	repeat/STIM_000.jpg
654.041	1.016	1	repeat	Run1	repeat/STIM_000.jpg
657.101	1.02	1	repeat	Run1	repeat/STIM_000.jpg
660.298	0.796	1	repeat	Run1	repeat/STIM_001.jpg
663.461	0.896	1	repeat	Run1	repeat/STIM_001.jpg
668.06	0.999	1	repeat	Run1	repeat/STIM_001.jpg
671.719	0.922	1	repeat	Run1	repeat/STIM_001.jpg
676.317	0.728	1	repeat	Run1	repeat/STIM_001.jpg
679.508	0.59	1	repeat	Run1	repeat/STIM_002.jpg
683.507	0.985	1	repeat	Run1	repeat/STIM_002.jpg
686.565	0.599	1	repeat	Run1	repeat/STIM_002.jpg
689.978	0.961	1	repeat	Run1	repeat/STIM_002.jpg
693.999	0.715	1	repeat	Run1	repeat/STIM_002.jpg
698.022	0.738	1	repeat	Run1	repeat/STIM_003.jpg
702.158	0.824	1	repeat	Run1	repeat/STIM_003.jpg
706.916	1.031	1	repeat	Run1	repeat/STIM_003.jpg
710.961	1.069	0	repeat	Run1	repeat/STIM_003.jpg
714.287	0.64	1	repeat	Run1	repeat/STIM_003.jpg
717.648	0.859	1	repeat	Run1	repeat/STIM_004.jpg
722.037	0.58	1	repeat	Run1	repeat/STIM_004.jpg
724.706	0.796	1	repeat	Run1	repeat/STIM_004.jpg
729.401	0.863	1	repeat	Run1	repeat/STIM_004.jpg
733.113	0.651	1	repeat	Run1	repeat/STIM_004.jpg
735.936	0.775	1	repeat	Run1	repeat/STIM_005.jpg
740.11	0.74	1	repeat	Run1	repeat/STIM_005.jpg
744.57	1.004	1	repeat	Run1	repeat/STIM_005.jpg
748.754	0.683	1	repeat	Run1	repeat/STIM_005.jpg
753.05	0.668	1	repeat	Run1	repeat/STIM_005.jpg
757.125	0.691	1	repeat	Run1	repeat/STIM_006.jpg
760.398	0.704	1	repeat	Run1	repeat/STIM_006.jpg
764.787	0.986	1	repeat	Run1	repeat/STIM_006.jpg
768.621	0.983	1	repeat	Run1	repeat/STIM_006.jpg
772.208	0.993	1	repeat	Run1	repeat/STIM_006.jpg
775.337	0.68	1	repeat	Run1	repeat/STIM_007.jpg
779.519	0.751	1	repeat	Run1	repeat/STIM_007.jpg
783.803	0.942	1	repeat	Run1	repeat/STIM_007.jpg
787.453	0.696	1	repeat	Run1	repeat/STIM_007.jpg
790.177	0.972	1	repeat	Run1	repeat/STIM_007.jpg
793.313	0.686	1	repeat	Run1	repeat/STIM_008.jpg
797.817	0.649	1	repeat	Run1	repeat/STIM_008.jpg
802.203	1.043	1	repeat	Run1	repeat/STIM_008.jpg
806.66	0.577	1	repeat	Run1	repeat/STIM_008.jpg
810.756	0.799	1	repeat	Run1	repeat/STIM_008.jpg
814.798	0.791	1	repeat	Run1	repeat/STIM_009.jpg
817.921	0.656	1	repeat	Run1	repeat/STIM_009.jpg
821.04	0.933	1	repeat	Run1	repeat/STIM_009.jpg
825.831	0.856	1	repeat	Run1	repeat/STIM_009.jpg
829.87	0.695	1	repeat	Run1	repeat/STIM_009.jpg
833.002	0.778	1	repeat	Run1	repeat/STIM_010.jpg
836.311	0.774	1	repeat	Run1	repeat/STIM_010.jpg
840.422	0.922	1	repeat	Run1	repeat/STIM_010.jpg
844.043	0.954	1	repeat	Run1	repeat/STIM_010.jpg
847.427	0.703	1	repeat	Run1	repeat/STIM_010.jpg
850.885	0.706	1	repeat	Run1	repeat/STIM_011.jpg
854.933	0.643	1	repeat	Run1	repeat/STIM_011.jpg
859.213	0.77	1	repeat	Run1	repeat/STIM_011.jpg
863.221	0.754	1	repeat	Run1	repeat/STIM_011.jpg
866.948	1.101	1	repeat	Run1	repeat/STIM_011.jpg
871.843	1.071	1	repeat	Run1	repeat/STIM_012.jpg
876.841	0.685	1	repeat	Run1	repeat/STIM_012.jpg
879.641	0.693	1	repeat	Run1	repeat/STIM_012.jpg
883.462	1.073	1	repeat	Run1	repeat/STIM_012.jpg
886.671	0.68	1	repeat	Run1	repeat/STIM_012.jpg
890.615	0.913	1	repeat	Run1	repeat/STIM_013.jpg
894.459	0.788	1	repeat	Run1	repeat/STIM_013.jpg
898.076	0.772	1	repeat	Run1	repeat/STIM_013.jpg
901.307	0.911	1	repeat	Run1	repeat/STIM_013.jpg
905.506	0.589	1	repeat	Run1	repeat/STIM_013.jpg
908.637	0.968	1	repeat	Run1	repeat/STIM_014.jpg
912.016	0.927	1	repeat	Run1	repeat/STIM_014.jpg
916.547	0.728	1	repeat	Run1	repeat/STIM_014.jpg
919.353	0.825	1	repeat	Run1	repeat/STIM_014.jpg
922.873	0.626	1	repeat	Run1	repeat/STIM_014.jpg
925.783	1.643	1	generate	Run2	generate/STIM_000.jpg
930.405	2.469	1	generate	Run2	generate/STIM_000.jpg
936.449	2.357	1	generate	Run2	generate/STIM_000.jpg
941.848	2.343	1	generate	Run2	generate/STIM_000.jpg
947.65	1.892	1	generate	Run2	generate/STIM_000.jpg
951.579	1.27	1	generate	Run2	generate/STIM_001.jpg
955.188	2.145	0	generate	Run2	generate/STIM_001.jpg
959.761	1.758	1	generate	Run2	generate/STIM_001.jpg
965.126	1.161	0	generate	Run2	generate/STIM_001.jpg
968.711	1.604	1	generate	Run2	generate/STIM_001.jpg
973.227	2.732	1	generate	Run2	generate/STIM_002.jpg
978.155	2.49	1	generate	Run2	generate/STIM_002.jpg
984.006	1.418	1	generate	Run2	generate/STIM_002.jpg
988.438	1.149	1	generate	Run2	generate/STIM_002.jpg
991.775	1.856	1	generate	Run2	generate/STIM_002.jpg
995.732	1.798	1	generate	Run2	generate/STIM_003.jpg
1000.242	1.364	1	generate	Run2	generate/STIM_003.jpg
1005.442	2.33	1	generate	Run2	generate/STIM_003.jpg
1010.823	2.335	1	generate	Run2	generate/STIM_003.jpg
1016.778	2.322	1	generate	Run2	generate/STIM_003.jpg
1021.88	2.258	1	generate	Run2	generate/STIM_004.jpg
1027.756	1.667	1	generate	Run2	generate/STIM_004.jpg
1031.76	1.854	1	generate	Run2	generate/STIM_004.jpg
1037.024	1.667	1	generate	Run2	generate/STIM_004.jpg
1040.76	1.405	1	generate	Run2	generate/STIM_004.jpg
1045.076	1.668	1	generate	Run2	generate/STIM_005.jpg
1049.257	2.141	1	generate	Run2	generate/STIM_005.jpg
1055.087	1.646	1	generate	Run2	generate/STIM_005.jpg
1059.921	2.293	1	generate	Run2	generate/STIM_005.jpg
1065.851	1.839	1	generate	Run2	generate/STIM_005.jpg
1070.486	2.777	1	generate	Run2	generate/STIM_006.jpg
1076.008	1.46	1	generate	Run2	generate/STIM_006.jpg
1079.473	1.904	1	generate	Run2	generate/STIM_006.jpg
1084.445	2.0	1	generate	Run2	generate/STIM_006.jpg
1089.243	2.204	1	generate	Run2	generate/STIM_006.jpg
1094.068	1.168	1	generate	Run2	generate/STIM_007.jpg
1098.1	1.173	1	generate	Run2	generate/STIM_007.jpg
1102.741	1.488	1	generate	Run2	generate/STIM_007.jpg
1106.577	1.87	1	generate	Run2	generate/STIM_007.jpg
1111.612	1.71	1	generate	Run2	generate/STIM_007.jpg
1115.842	2.822	1	generate	Run2	generate/STIM_008.jpg
1122.099	1.227	1	generate	Run2	generate/STIM_008.jpg
1125.508	2.07	1	generate	Run2	generate/STIM_008.jpg
1131.318	1.005	1	generate	Run2	generate/STIM_008.jpg
1136.282	1.346	1	generate	Run2	generate/STIM_008.jpg
1139.651	1.84	1	generate	Run2	generate/STIM_009.jpg
1143.858	2.289	1	generate	Run2	generate/STIM_009.jpg
1148.343	1.497	1	generate	Run2	generate/STIM_009.jpg
1153.597	1.105	1	generate	Run2	generate/STIM_009.jpg
1156.727	1.073	1	generate	Run2	generate/STIM_009.jpg
1161.73	2.315	1	generate	Run2	generate/STIM_010.jpg
1166.528	2.048	1	generate	Run2	generate/STIM_010.jpg
1170.975	1.14	0	generate	Run2	generate/STIM_010.jpg
1174.845	1.5	1	generate	Run2	generate/STIM_010.jpg
1179.224	1.557	1	generate	Run2	generate/STIM_010.jpg
1184.328	2.197	1	generate	Run2	generate/STIM_011.jpg
1190.471	1.724	1	generate	Run2	generate/STIM_011.jpg
1194.229	2.202	1	generate	Run2	generate/STIM_011.jpg
1198.676	1.946	1	generate	Run2	generate/STIM_011.jpg
1203.781	1.388	1	generate	Run2	generate/STIM_011.jpg
1207.609	1.444	1	generate	Run2	generate/STIM_012.jpg
1212.027	2.096	1	generate	Run2	generate/STIM_012.jpg
1217.79	1.29	0	generate	Run2	generate/STIM_012.jpg
1221.684	1.648	1	generate	Run2	generate/STIM_012.jpg
1226.95	1.786	1	generate	Run2	generate/STIM_012.jpg
1232.548	1.731	1	generate	Run2	generate/STIM_013.jpg
1237.948	1.13	1	generate	Run2	generate/STIM_013.jpg
1241.416	1.879	1	generate	Run2	generate/STIM_013.jpg
1246.016	1.349	1	generate	Run2	generate/STIM_013.jpg
1251.075	1.662	1	generate	Run2	generate/STIM_013.jpg
1255.213	1.505	0	generate	Run2	generate/STIM_014.jpg
1260.623	2.051	1	generate	Run2	generate/STIM_014.jpg
1265.258	2.498	1	generate	Run2	generate/STIM_014.jpg
1271.311	2.301	1	generate	Run2	generate/STIM_014.jpg
1275.959	1.065	1	generate	Run2	generate/STIM_014.jpg
1279.031	2.018	1	generate	Run2	generate/STIM_015.jpg
1284.866	2.156	1	generate	Run2	generate/STIM_015.jpg
1290.306	1.421	1	generate	Run2	generate/STIM_015.jpg
1294.855	1.145	1	generate	Run2	generate/STIM_015.jpg
1299.541	1.524	1	generate	Run2	generate/STIM_015.jpg
1303.914	2.484	1	generate	Run2	generate/STIM_016.jpg
1308.976	1.199	1	generate	Run2	generate/STIM_016.jpg
1313.811	1.087	1	generate	Run2	generate/STIM_016.jpg
1318.563	2.135	1	generate	Run2	generate/STIM_016.jpg
1324.311	2.124	1	generate	Run2	generate/STIM_016.jpg
1329.573	2.816	1	generate	Run2	generate/STIM_017.jpg
1334.714	1.533	1	generate	Run2	generate/STIM_017.jpg
1339.323	2.43	1	generate	Run2	generate/STIM_017.jpg
1345.678	1.273	1	generate	Run2	generate/STIM_017.jpg
1350.915	1.346	0	generate	Run2	generate/STIM_017.jpg
1356.206	1.519	1	generate	Run2	generate/STIM_018.jpg
1360.487	1.274	1	generate	Run2	generate/STIM_018.jpg
1364.381	1.525	1	generate	Run2	generate/STIM_018.jpg
1368.376	1.468	1	generate	Run2	generate/STIM_018.jpg
1372.34	1.473	1	generate	Run2	generate/STIM_018.jpg
1375.998	1.949	1	generate	Run2	generate/STIM_019.jpg
1381.015	1.13	1	generate	Run2	generate/STIM_019.jpg
1384.797	2.193	1	generate	Run2	generate/STIM_019.jpg
1390.175	1.474	1	generate	Run2	generate/STIM_019.jpg
1394.319	1.388	1	generate	Run2	generate/STIM_019.jpg
1398.831	2.366	1	generate	Run2	generate/STIM_020.jpg
1403.418	1.872	1	generate	Run2	generate/STIM_020.jpg
1407.94	1.743	1	generate	Run2	generate/STIM_020.jpg
1412.58	1.288	1	generate	Run2	generate/STIM_020.jpg
1417.735	1.643	1	generate	Run2	generate/STIM_020.jpg
1422.715	2.084	0	generate	Run2	generate/STIM_021.jpg
1428.195	2.62	1	generate	Run2	generate/STIM_021.jpg
1434.695	2.228	1	generate	Run2	generate/STIM_021.jpg
1439.507	2.205	1	generate	Run2	generate/STIM_021.jpg
1444.886	1.674	1	generate	Run2	generate/STIM_021.jpg
1449.637	2.366	1	generate	Run2	generate/STIM_022.jpg
1454.618	1.628	1	generate	Run2	generate/STIM_022.jpg
1458.823	2.454	1	generate	Run2	generate/STIM_022.jpg
1463.426	2.247	1	generate	Run2	generate/STIM_022.jpg
1468.638	1.079	1	generate	Run2	generate/STIM_022.jpg
1473.691	2.302	1	generate	Run2	generate/STIM_023.jpg
1478.795	1.422	1	generate	Run2	generate/STIM_023.jpg
1482.643	2.185	1	generate	Run2	generate/STIM_023.jpg
1487.776	1.416	1	generate	Run2	generate/STIM_023.jpg
1492.941	2.179	1	generate	Run2	generate/STIM_023.jpg
1498.315	1.451	1	generate	Run2	generate/STIM_024.jpg
1501.945	1.472	1	generate	Run2	generate/STIM_024.jpg
1506.154	2.105	1	generate	Run2	generate/STIM_024.jpg
1510.476	2.19	1	generate	Run2	generate/STIM_024.jpg
1515.818	2.133	1	generate	Run2	generate/STIM_024.jpg
1520.977	0.953	0	repeat	Run2	repeat/STIM_000.jpg
1525.155	0.775	1	repeat	Run2	repeat/STIM_000.jpg
1529.007	0.696	1	repeat	Run2	repeat/STIM_000.jpg
1533.163	0.873	1	repeat	Run2	repeat/STIM_000.jpg
1537.044	0.681	1	repeat	Run2	repeat/STIM_000.jpg
1540.188	1.03	1	repeat	Run2	repeat/STIM_001.jpg
1545.124	0.982	1	repeat	Run2	repeat/STIM_001.jpg
1550.019	0.71	1	repeat	Run2	repeat/STIM_001.jpg
1553.597	0.89	1	repeat	Run2	repeat/STIM_001.jpg
1557.566	0.708	1	repeat	Run2	repeat/STIM_001.jpg
1560.443	1.028	1	repeat	Run2	repeat/STIM_002.jpg
1564.774	1.084	1	repeat	Run2	repeat/STIM_002.jpg
1568.147	1.112	1	repeat	Run2	repeat/STIM_002.jpg
1572.513	0.671	1	repeat	Run2	repeat/STIM_002.jpg
1575.402	0.899	1	repeat	Run2	repeat/STIM_002.jpg
1578.492	0.584	1	repeat	Run2	repeat/STIM_003.jpg
1582.263	0.835	1	repeat	Run2	repeat/STIM_003.jpg
1585.647	0.634	1	repeat	Run2	repeat/STIM_003.jpg
1588.751	1.046	1	repeat	Run2	repeat/STIM_003.jpg
1592.53	0.979	1	repeat	Run2	repeat/STIM_003.jpg
1597.208	0.695	1	repeat	Run2	repeat/STIM_004.jpg
1600.723	0.597	1	repeat	Run2	repeat/STIM_004.jpg
1605.169	1.041	1	repeat	Run2	repeat/STIM_004.jpg
1609.534	0.815	1	repeat	Run2	repeat/STIM_004.jpg
1613.883	1.087	1	repeat	Run2	repeat/STIM_004.jpg
1618.724	0.769	1	repeat	Run2	repeat/STIM_005.jpg
1622.469	0.946	1	repeat	Run2	repeat/STIM_005.jpg
1626.532	0.7	1	repeat	Run2	repeat/STIM_005.jpg
1631.071	0.914	1	repeat	Run2	repeat/STIM_005.jpg
1635.875	1.046	1	repeat	Run2	repeat/STIM_005.jpg
1639.021	0.747	1	repeat	Run2	repeat/STIM_006.jpg
1643.301	0.957	1	repeat	Run2	repeat/STIM_006.jpg
1647.251	0.711	1	repeat	Run2	repeat/STIM_006.jpg
1650.94	0.983	1	repeat	Run2	repeat/STIM_006.jpg
1654.682	0.679	1	repeat	Run2	repeat/STIM_006.jpg
1658.888	1.085	1	repeat	Run2	repeat/STIM_007.jpg
1663.049	0.936	1	repeat	Run2	repeat/STIM_007.jpg
1667.527	0.731	1	repeat	Run2	repeat/STIM_007.jpg
1670.332	1.046	1	repeat	Run2	repeat/STIM_007.jpg
1673.909	1.106	1	repeat	Run2	repeat/STIM_007.jpg
1677.641	0.619	0	repeat	Run2	repeat/STIM_008.jpg
1680.796	1.065	1	repeat	Run2	repeat/STIM_008.jpg
1685.76	0.804	1	repeat	Run2	repeat/STIM_008.jpg
1689.773	1.055	1	repeat	Run2	repeat/STIM_008.jpg
1694.411	0.687	1	repeat	Run2	repeat/STIM_008.jpg
1698.893	0.825	1	repeat	Run2	repeat/STIM_009.jpg
1702.888	0.878	1	repeat	Run2	repeat/STIM_009.jpg
1706.238	0.684	1	repeat	Run2	repeat/STIM_009.jpg
1709.981	0.693	1	repeat	Run2	repeat/STIM_009.jpg
1713.407	1.072	1	repeat	Run2	repeat/STIM_009.jpg
1716.928	0.72	1	repeat	Run2	repeat/STIM_010.jpg
1721.434	0.583	1	repeat	Run2	repeat/STIM_010.jpg
1725.66	1.048	1	repeat	Run2	repeat/STIM_010.jpg
1729.953	1.105	1	repeat	Run2	repeat/STIM_010.jpg
1733.233	1.102	1	repeat	Run2	repeat/STIM_010.jpg
1737.284	0.908	1	repeat	Run2	repeat/STIM_011.jpg
1741.18	0.688	1	repeat	Run2	repeat/STIM_011.jpg
1744.938	0.706	1	repeat	Run2	repeat/STIM_011.jpg
1749.511	0.885	1	repeat	Run2	repeat/STIM_011.jpg
1752.734	1.024	1	repeat	Run2	repeat/STIM_011.jpg
1757.649	0.69	1	repeat	Run2	repeat/STIM_012.jpg
1760.351	0.686	1	repeat	Run2	repeat/STIM_012.jpg
1764.859	0.875	1	repeat	Run2	repeat/STIM_012.jpg
1768.222	0.917	1	repeat	Run2	repeat/STIM_012.jpg
1771.265	0.765	1	repeat	Run2	repeat/STIM_012.jpg
1775.893	0.75	1	repeat	Run2	repeat/STIM_013.jpg
1779.599	0.981	1	repeat	Run2	repeat/STIM_013.jpg
1782.822	0.789	1	repeat	Run2	repeat/STIM_013.jpg
1787.264	0.824	1	repeat	Run2	repeat/STIM_013.jpg
1791.903	0.921	0	repeat	Run2	repeat/STIM_013.jpg
1794.893	0.61	1	repeat	Run2	repeat/STIM_014.jpg
1798.536	0.706	1	repeat	Run2	repeat/STIM_014.jpg
1802.069	1.079	1	repeat	Run2	repeat/STIM_014.jpg
1805.204	0.794	1	repeat	Run2	repeat/STIM_014.jpg
1809.818	0.86	1	repeat	Run2	repeat/STIM_014.jpg
1814.586	1.025	1	generate	Run3	generate/STIM_000.jpg
1817.964	1.764	1	generate	Run3	generate/STIM_000.jpg
1822.211	1.287	1	generate	Run3	generate/STIM_000.jpg
1826.897	1.534	1	generate	Run3	generate/STIM_000.jpg
1831.865	1.426	1	generate	Run3	generate/STIM_000.jpg
1836.873	1.776	1	generate	Run3	generate/STIM_001.jpg
1841.32	1.787	1	generate	Run3	generate/STIM_001.jpg
1846.177	1.407	1	generate	Run3	generate/STIM_001.jpg
1850.716	2.143	1	generate	Run3	generate/STIM_001.jpg
1856.415	1.795	1	generate	Run3	generate/STIM_001.jpg
1860.705	1.405	1	generate	Run3	generate/STIM_002.jpg
1865.531	1.73	1	generate	Run3	generate/STIM_002.jpg
1870.335	0.946	1	generate	Run3	generate/STIM_002.jpg
1875.269	1.979	1	generate	Run3	generate/STIM_002.jpg
1881.009	1.495	1	generate	Run3	generate/STIM_002.jpg
1885.167	1.949	1	generate	Run3	generate/STIM_003.jpg
1890.612	1.842	0	generate	Run3	generate/STIM_003.jpg
1896.212	1.163	1	generate	Run3	generate/STIM_003.jpg
1901.203	1.562	1	generate	Run3	generate/STIM_003.jpg
1906.255	0.997	1	generate	Run3	generate/STIM_003.jpg
1910.251	1.045	1	generate	Run3	generate/STIM_004.jpg
1914.281	2.138	1	generate	Run3	generate/STIM_004.jpg
1918.782	1.796	1	generate	Run3	generate/STIM_004.jpg
1924.332	1.286	1	generate	Run3	generate/STIM_004.jpg
1928.834	1.457	1	generate	Run3	generate/STIM_004.jpg
1933.864	2.304	1	generate	Run3	generate/STIM_005.jpg
1939.563	1.296	1	generate	Run3	generate/STIM_005.jpg
1944.595	1.917	1	generate	Run3	generate/STIM_005.jpg
1948.705	1.206	1	generate	Run3	generate/STIM_005.jpg
1952.575	2.032	1	generate	Run3	generate/STIM_005.jpg
1956.839	2.229	1	generate	Run3	generate/STIM_006.jpg
1962.717	1.927	1	generate	Run3	generate/STIM_006.jpg
1966.668	2.001	1	generate	Run3	generate/STIM_006.jpg
1971.52	1.278	1	generate	Run3	generate/STIM_006.jpg
1975.828	1.341	1	generate	Run3	generate/STIM_006.jpg
1980.39	2.141	1	generate	Run3	generate/STIM_007.jpg
1984.677	1.705	1	generate	Run3	generate/STIM_007.jpg
1989.103	1.608	1	generate	Run3	generate/STIM_007.jpg
1993.431	2.045	1	generate	Run3	generate/STIM_007.jpg
1999.051	1.757	1	generate	Run3	generate/STIM_007.jpg
2003.457	2.112	1	generate	Run3	generate/STIM_008.jpg
2008.647	1.053	1	generate	Run3	generate/STIM_008.jpg
2012.205	1.19	1	generate	Run3	generate/STIM_008.jpg
2017.091	1.802	1	generate	Run3	generate/STIM_008.jpg
2021.336	1.826	1	generate	Run3	generate/STIM_008.jpg
2026.153	1.608	1	generate	Run3	generate/STIM_009.jpg
2031.756	2.092	1	generate	Run3	generate/STIM_009.jpg
2037.649	2.241	1	generate	Run3	generate/STIM_009.jpg
2042.521	1.541	1	generate	Run3	generate/STIM_009.jpg
2047.778	1.531	1	generate	Run3	generate/STIM_009.jpg
2051.527	1.752	1	generate	Run3	generate/STIM_010.jpg
2056.343	1.484	1	generate	Run3	generate/STIM_010.jpg
2060.691	1.9	1	generate	Run3	generate/STIM_010.jpg
2065.774	1.218	1	generate	Run3	generate/STIM_010.jpg
2070.605	2.033	1	generate	Run3	generate/STIM_010.jpg
2076.515	1.896	1	generate	Run3	generate/STIM_011.jpg
2081.995	1.858	1	generate	Run3	generate/STIM_011.jpg
2087.395	1.365	1	generate	Run3	generate/STIM_011.jpg
2090.784	2.148	1	generate	Run3	generate/STIM_011.jpg
2096.598	2.19	1	generate	Run3	generate/STIM_011.jpg
2102.365	1.895	1	generate	Run3	generate/STIM_012.jpg
2107.348	1.827	1	generate	Run3	generate/STIM_012.jpg
2112.497	1.584	1	generate	Run3	generate/STIM_012.jpg
2116.927	1.662	1	generate	Run3	generate/STIM_012.jpg
2121.714	1.968	1	generate	Run3	generate/STIM_012.jpg
2126.428	1.016	1	generate	Run3	generate/STIM_013.jpg
2130.905	1.585	1	generate	Run3	generate/STIM_013.jpg
2134.685	0.984	1	generate	Run3	generate/STIM_013.jpg
2137.886	2.098	1	generate	Run3	generate/STIM_013.jpg
2142.983	2.336	1	generate	Run3	generate/STIM_013.jpg
2148.268	2.101	1	generate	Run3	generate/STIM_014.jpg
2152.62	0.976	1	generate	Run3	generate/STIM_014.jpg
2157.43	1.647	1	generate	Run3	generate/STIM_014.jpg
2161.588	1.778	1	generate	Run3	generate/STIM_014.jpg
2166.885	2.144	1	generate	Run3	generate/STIM_014.jpg
2172.894	2.237	1	generate	Run3	generate/STIM_015.jpg
2178.01	1.109	1	generate	Run3	generate/STIM_015.jpg
2182.96	1.301	1	generate	Run3	generate/STIM_015.jpg
2188.167	2.266	1	generate	Run3	generate/STIM_015.jpg
2192.919	2.275	1	generate	Run3	generate/STIM_015.jpg
2198.593	1.776	1	generate	Run3	generate/STIM_016.jpg
2203.774	1.731	1	generate	Run3	generate/STIM_016.jpg
2208.174	1.474	1	generate	Run3	generate/STIM_016.jpg
2212.937	1.359	1	generate	Run3	generate/STIM_016.jpg
2216.524	1.309	1	generate	Run3	generate/STIM_016.jpg
2220.302	1.06	1	generate	Run3	generate/STIM_017.jpg
2224.24	1.04	1	generate	Run3	generate/STIM_017.jpg
2228.998	2.074	1	generate	Run3	generate/STIM_017.jpg
2233.521	1.267	1	generate	Run3	generate/STIM_017.jpg
2236.824	1.176	1	generate	Run3	generate/STIM_017.jpg
2241.462	1.129	1	generate	Run3	generate/STIM_018.jpg
2245.84	2.033	1	generate	Run3	generate/STIM_018.jpg
2251.501	2.258	1	generate	Run3	generate/STIM_018.jpg
2256.779	1.166	1	generate	Run3	generate/STIM_018.jpg
2261.581	1.819	1	generate	Run3	generate/STIM_018.jpg
2267.279	1.908	1	generate	Run3	generate/STIM_019.jpg
2272.096	2.089	1	generate	Run3	generate/STIM_019.jpg
2277.6	1.426	1	generate	Run3	generate/STIM_019.jpg
2281.035	1.268	1	generate	Run3	generate/STIM_019.jpg
2285.099	1.0	1	generate	Run3	generate/STIM_019.jpg
2288.137	2.128	1	generate	Run3	generate/STIM_020.jpg
2292.361	1.18	1	generate	Run3	generate/STIM_020.jpg
2295.606	1.078	1	generate	Run3	generate/STIM_020.jpg
2299.695	1.966	1	generate	Run3	generate/STIM_020.jpg
2304.867	1.903	1	generate	Run3	generate/STIM_020.jpg
2309.982	1.266	1	generate	Run3	generate/STIM_021.jpg
2314.107	2.118	1	generate	Run3	generate/STIM_021.jpg
2319.687	1.924	1	generate	Run3	generate/STIM_021.jpg
2325.571	1.053	1	generate	Run3	generate/STIM_021.jpg
2330.605	1.965	1	generate	Run3	generate/STIM_021.jpg
2336.008	1.418	1	generate	Run3	generate/STIM_022.jpg
2339.952	1.486	1	generate	Run3	generate/STIM_022.jpg
2344.056	1.781	1	generate	Run3	generate/STIM_022.jpg
2348.919	2.011	1	generate	Run3	generate/STIM_022.jpg
2354.115	1.805	1	generate	Run3	generate/STIM_022.jpg
2358.662	2.142	1	generate	Run3	generate/STIM_023.jpg
2363.037	2.263	1	generate	Run3	generate/STIM_023.jpg
2368.22	2.066	1	generate	Run3	generate/STIM_023.jpg
2373.482	1.172	1	generate	Run3	generate/STIM_023.jpg
2377.692	2.325	1	generate	Run3	generate/STIM_023.jpg
2383.377	1.102	1	generate	Run3	generate/STIM_024.jpg
2387.151	2.089	1	generate	Run3	generate/STIM_024.jpg
2392.998	1.453	1	generate	Run3	generate/STIM_024.jpg
2396.686	1.218	1	generate	Run3	generate/STIM_024.jpg
2400.497	0.95	1	generate	Run3	generate/STIM_024.jpg
2403.546	0.735	1	repeat	Run3	repeat/STIM_000.jpg
2407.035	0.844	1	repeat	Run3	repeat/STIM_000.jpg
2410.607	0.636	1	repeat	Run3	repeat/STIM_000.jpg
2413.787	1.099	1	repeat	Run3	repeat/STIM_000.jpg
2418.304	0.952	0	repeat	Run3	repeat/STIM_000.jpg
2423.156	0.633	1	repeat	Run3	repeat/STIM_001.jpg
2426.231	0.942	1	repeat	Run3	repeat/STIM_001.jpg
2431.003	0.768	1	repeat	Run3	repeat/STIM_001.jpg
2435.285	0.6	1	repeat	Run3	repeat/STIM_001.jpg
2439.608	0.944	1	repeat	Run3	repeat/STIM_001.jpg
2444.53	0.939	1	repeat	Run3	repeat/STIM_002.jpg
2448.213	1.073	1	repeat	Run3	repeat/STIM_002.jpg
2451.808	1.017	1	repeat	Run3	repeat/STIM_002.jpg
2456.446	1.05	1	repeat	Run3	repeat/STIM_002.jpg
2461.434	0.627	1	repeat	Run3	repeat/STIM_002.jpg
2465.494	1.043	1	repeat	Run3	repeat/STIM_003.jpg
2469.298	1.018	1	repeat	Run3	repeat/STIM_003.jpg
2472.885	0.826	1	repeat	Run3	repeat/STIM_003.jpg
2476.037	1.032	1	repeat	Run3	repeat/STIM_003.jpg
2480.482	0.696	1	repeat	Run3	repeat/STIM_003.jpg
2484.536	0.973	1	repeat	Run3	repeat/STIM_004.jpg
2487.999	0.64	1	repeat	Run3	repeat/STIM_004.jpg
2491.843	0.647	1	repeat	Run3	repeat/STIM_004.jpg
2495.184	1.012	1	repeat	Run3	repeat/STIM_004.jpg
2499.4	1.112	1	repeat	Run3	repeat/STIM_004.jpg
2502.548	0.761	1	repeat	Run3	repeat/STIM_005.jpg
2506.379	0.947	1	repeat	Run3	repeat/STIM_005.jpg
2511.094	0.578	1	repeat	Run3	repeat/STIM_005.jpg
2515.583	0.919	1	repeat	Run3	repeat/STIM_005.jpg
2520.175	0.571	1	repeat	Run3	repeat/STIM_005.jpg
2522.948	0.581	1	repeat	Run3	repeat/STIM_006.jpg
2526.162	0.669	1	repeat	Run3	repeat/STIM_006.jpg
2530.738	0.733	1	repeat	Run3	repeat/STIM_006.jpg
2534.548	1.102	1	repeat	Run3	repeat/STIM_006.jpg
2538.805	0.637	1	repeat	Run3	repeat/STIM_006.jpg
2542.974	0.972	1	repeat	Run3	repeat/STIM_007.jpg
2547.004	0.898	1	repeat	Run3	repeat/STIM_007.jpg
2550.773	0.829	1	repeat	Run3	repeat/STIM_007.jpg
2554.148	0.891	1	repeat	Run3	repeat/STIM_007.jpg
2557.61	0.737	1	repeat	Run3	repeat/STIM_007.jpg
2560.556	0.957	1	repeat	Run3	repeat/STIM_008.jpg
2565.038	0.777	0	repeat	Run3	repeat/STIM_008.jpg
2569.3	0.904	1	repeat	Run3	repeat/STIM_008.jpg
2572.427	0.669	1	repeat	Run3	repeat/STIM_008.jpg
2575.306	0.651	1	repeat	Run3	repeat/STIM_008.jpg
2579.298	0.849	1	repeat	Run3	repeat/STIM_009.jpg
2583.312	0.618	1	repeat	Run3	repeat/STIM_009.jpg
2587.666	1.089	1	repeat	Run3	repeat/STIM_009.jpg
2591.285	0.563	1	repeat	Run3	repeat/STIM_009.jpg
2594.428	0.983	1	repeat	Run3	repeat/STIM_009.jpg
2597.55	1.081	1	repeat	Run3	repeat/STIM_010.jpg
2601.499	0.648	1	repeat	Run3	repeat/STIM_010.jpg
2605.907	0.678	1	repeat	Run3	repeat/STIM_010.jpg
2610.51	0.801	1	repeat	Run3	repeat/STIM_010.jpg
2614.697	1.047	1	repeat	Run3	repeat/STIM_010.jpg
2618.368	1.088	1	repeat	Run3	repeat/STIM_011.jpg
2621.484	0.772	1	repeat	Run3	repeat/STIM_011.jpg
2626.148	0.73	1	repeat	Run3	repeat/STIM_011.jpg
2629.96	0.583	0	repeat	Run3	repeat/STIM_011.jpg
2634.351	0.679	1	repeat	Run3	repeat/STIM_011.jpg
2638.41	0.67	1	repeat	Run3	repeat/STIM_012.jpg
2641.427	1.088	1	repeat	Run3	repeat/STIM_012.jpg
2644.666	0.669	1	repeat	Run3	repeat/STIM_012.jpg
2647.544	1.0	1	repeat	Run3	repeat/STIM_012.jpg
2651.113	0.63	1	repeat	Run3	repeat/STIM_012.jpg
2654.909	0.957	1	repeat	Run3	repeat/STIM_013.jpg
2659.532	1.054	1	repeat	Run3	repeat/STIM_013.jpg
2663.929	0.95	1	repeat	Run3	repeat/STIM_013.jpg
2668.132	0.664	1	repeat	Run3	repeat/STIM_013.jpg
2671.815	0.837	1	repeat	Run3	repeat/STIM_013.jpg
2674.922	1.022	1	repeat	Run3	repeat/STIM_014.jpg
2678.92	0.673	1	repeat	Run3	repeat/STIM_014.jpg
2681.754	0.848	1	repeat	Run3	repeat/STIM_014.jpg
2686.466	0.7	1	repeat	Run3	repeat/STIM_014.jpg
2689.606	0.784	1	repeat	Run3	repeat/STIM_014.jpg
2692.902	1.182	1	generate	Run4	generate/STIM_000.jpg
2697.813	1.284	1	generate	Run4	generate/STIM_000.jpg
2702.434	2.346	1	generate	Run4	generate/STIM_000.jpg
2707.045	1.17	1	generate	Run4	generate/STIM_000.jpg
2711.318	1.03	1	generate	Run4	generate/STIM_000.jpg
2715.748	2.11	1	generate	Run4	generate/STIM_001.jpg
2721.141	1.168	1	generate	Run4	generate/STIM_001.jpg
2724.507	1.427	1	generate	Run4	generate/STIM_001.jpg
2728.189	2.325	1	generate	Run4	generate/STIM_001.jpg
2732.845	1.693	1	generate	Run4	generate/STIM_001.jpg
2736.814	1.948	1	generate	Run4	generate/STIM_002.jpg
2740.835	1.792	1	generate	Run4	generate/STIM_002.jpg
2744.826	1.962	1	generate	Run4	generate/STIM_002.jpg
2749.662	2.2	1	generate	Run4	generate/STIM_002.jpg
2753.945	1.306	1	generate	Run4	generate/STIM_002.jpg
2757.697	1.047	1	generate	Run4	generate/STIM_003.jpg
2760.897	1.173	1	generate	Run4	generate/STIM_003.jpg
2764.472	1.396	1	generate	Run4	generate/STIM_003.jpg
2768.489	1.751	1	generate	Run4	generate/STIM_003.jpg
2773.864	2.015	1	generate	Run4	generate/STIM_003.jpg
2779.57	2.097	1	generate	Run4	generate/STIM_004.jpg
2784.043	1.949	1	generate	Run4	generate/STIM_004.jpg
2789.601	0.994	1	generate	Run4	generate/STIM_004.jpg
2793.052	1.683	1	generate	Run4	generate/STIM_004.jpg
2797.903	2.35	1	generate	Run4	generate/STIM_004.jpg
2802.86	2.215	1	generate	Run4	generate/STIM_005.jpg
2809.021	2.035	1	generate	Run4	generate/STIM_005.jpg
2814.204	1.136	1	generate	Run4	generate/STIM_005.jpg
2818.777	2.011	1	generate	Run4	generate/STIM_005.jpg
2823.653	1.959	1	generate	Run4	generate/STIM_005.jpg
2828.621	1.793	1	generate	Run4	generate/STIM_006.jpg
2834.398	1.843	1	generate	Run4	generate/STIM_006.jpg
2839.194	1.416	1	generate	Run4	generate/STIM_006.jpg
2842.826	1.15	1	generate	Run4	generate/STIM_006.jpg
2847.775	2.274	1	generate	Run4	generate/STIM_006.jpg
2852.697	1.845	1	generate	Run4	generate/STIM_007.jpg
2857.578	2.035	1	generate	Run4	generate/STIM_007.jpg
2861.962	1.923	1	generate	Run4	generate/STIM_007.jpg
2866.956	1.02	1	generate	Run4	generate/STIM_007.jpg
2870.827	1.416	1	generate	Run4	generate/STIM_007.jpg
2874.273	1.722	1	generate	Run4	generate/STIM_008.jpg
2878.767	1.894	1	generate	Run4	generate/STIM_008.jpg
2883.704	2.302	1	generate	Run4	generate/STIM_008.jpg
2889.308	0.991	1	generate	Run4	generate/STIM_008.jpg
2893.91	1.581	1	generate	Run4	generate/STIM_008.jpg
2897.915	1.646	1	generate	Run4	generate/STIM_009.jpg
2902.713	1.32	1	generate	Run4	generate/STIM_009.jpg
2907.648	1.207	1	generate	Run4	generate/STIM_009.jpg
2911.073	1.035	1	generate	Run4	generate/STIM_009.jpg
2915.808	2.084	1	generate	Run4	generate/STIM_009.jpg
2921.275	2.276	1	generate	Run4	generate/STIM_010.jpg
2926.231	2.061	1	generate	Run4	generate/STIM_010.jpg
2930.746	1.084	1	generate	Run4	generate/STIM_010.jpg
2934.558	1.113	1	generate	Run4	generate/STIM_010.jpg
2938.427	1.93	1	generate	Run4	generate/STIM_010.jpg
2943.728	1.548	1	generate	Run4	generate/STIM_011.jpg
2947.453	1.757	1	generate	Run4	generate/STIM_011.jpg
2951.842	1.072	1	generate	Run4	generate/STIM_011.jpg
2956.859	1.222	1	generate	Run4	generate/STIM_011.jpg
2960.72	2.277	1	generate	Run4	generate/STIM_011.jpg
2966.159	1.395	1	generate	Run4	generate/STIM_012.jpg
2971.547	1.556	1	generate	Run4	generate/STIM_012.jpg
2975.551	1.826	1	generate	Run4	generate/STIM_012.jpg
2980.788	1.589	1	generate	Run4	generate/STIM_012.jpg
2985.094	1.431	1	generate	Run4	generate/STIM_012.jpg
2989.305	1.485	1	generate	Run4	generate/STIM_013.jpg
2992.948	1.204	1	generate	Run4	generate/STIM_013.jpg
2997.617	1.742	1	generate	Run4	generate/STIM_013.jpg
3002.625	1.518	1	generate	Run4	generate/STIM_013.jpg
3007.667	1.42	1	generate	Run4	generate/STIM_013.jpg
3012.55	1.619	1	generate	Run4	generate/STIM_014.jpg
3016.78	1.2	1	generate	Run4	generate/STIM_014.jpg
3020.365	2.315	1	generate	Run4	generate/STIM_014.jpg
3026.289	1.442	1	generate	Run4	generate/STIM_014.jpg
3030.76	1.24	1	generate	Run4	generate/STIM_014.jpg
3035.595	1.49	1	generate	Run4	generate/STIM_015.jpg
3040.013	2.138	1	generate	Run4	generate/STIM_015.jpg
3046.071	2.205	1	generate	Run4	generate/STIM_015.jpg
3051.317	1.862	1	generate	Run4	generate/STIM_015.jpg
3056.565	0.984	1	generate	Run4	generate/STIM_015.jpg
3059.713	2.173	1	generate	Run4	generate/STIM_016.jpg
3065.795	1.507	1	generate	Run4	generate/STIM_016.jpg
3069.558	2.284	1	generate	Run4	generate/STIM_016.jpg
3074.055	1.729	1	generate	Run4	generate/STIM_016.jpg
3078.589	1.553	1	generate	Run4	generate/STIM_016.jpg
3083.858	1.058	1	generate	Run4	generate/STIM_017.jpg
3088.748	1.6	1	generate	Run4	generate/STIM_017.jpg
3092.773	1.202	1	generate	Run4	generate/STIM_017.jpg
3097.857	0.995	1	generate	Run4	generate/STIM_017.jpg
3101.747	0.943	1	generate	Run4	generate/STIM_017.jpg
3104.882	2.293	1	generate	Run4	generate/STIM_018.jpg
3109.528	1.943	1	generate	Run4	generate/STIM_018.jpg
3114.159	1.961	1	generate	Run4	generate/STIM_018.jpg
3118.229	1.861	1	generate	Run4	generate/STIM_018.jpg
3123.453	1.497	1	generate	Run4	generate/STIM_018.jpg
3127.054	1.027	1	generate	Run4	generate/STIM_019.jpg
3131.66	1.256	1	generate	Run4	generate/STIM_019.jpg
3134.94	0.992	1	generate	Run4	generate/STIM_019.jpg
3139.339	1.364	1	generate	Run4	generate/STIM_019.jpg
3144.135	1.596	1	generate	Run4	generate/STIM_019.jpg
3148.974	1.114	1	generate	Run4	generate/STIM_020.jpg
3152.294	1.213	1	generate	Run4	generate/STIM_020.jpg
3155.986	2.196	1	generate	Run4	generate/STIM_020.jpg
3160.885	1.214	1	generate	Run4	generate/STIM_020.jpg
3165.314	1.978	1	generate	Run4	generate/STIM_020.jpg
3170.109	1.434	1	generate	Run4	generate/STIM_021.jpg
3175.25	1.908	1	generate	Run4	generate/STIM_021.jpg
3180.016	1.199	1	generate	Run4	generate/STIM_021.jpg
3184.533	1.068	1	generate	Run4	generate/STIM_021.jpg
3188.146	1.597	1	generate	Run4	generate/STIM_021.jpg
3192.169	1.85	1	generate	Run4	generate/STIM_022.jpg
3197.759	1.219	1	generate	Run4	generate/STIM_022.jpg
3202.898	1.625	1	generate	Run4	generate/STIM_022.jpg
3206.891	2.04	1	generate	Run4	generate/STIM_022.jpg
3212.224	2.187	1	generate	Run4	generate/STIM_022.jpg
3217.415	2.033	1	generate	Run4	generate/STIM_023.jpg
3222.691	2.308	1	generate	Run4	generate/STIM_023.jpg
3227.817	1.54	1	generate	Run4	generate/STIM_023.jpg
3231.746	1.607	1	generate	Run4	generate/STIM_023.jpg
3236.787	1.555	1	generate	Run4	generate/STIM_023.jpg
3241.419	2.06	1	generate	Run4	generate/STIM_024.jpg
3246.479	2.165	1	generate	Run4	generate/STIM_024.jpg
3252.141	2.157	1	generate	Run4	generate/STIM_024.jpg
3256.617	1.676	1	generate	Run4	generate/STIM_024.jpg
3260.437	1.996	1	generate	Run4	generate/STIM_024.jpg
3264.443	1.08	1	repeat	Run4	repeat/STIM_000.jpg
3268.993	0.668	1	repeat	Run4	repeat/STIM_000.jpg
3272.943	0.825	1	repeat	Run4	repeat/STIM_000.jpg
3276.714	1.052	1	repeat	Run4	repeat/STIM_000.jpg
3281.697	0.735	1	repeat	Run4	repeat/STIM_000.jpg
3284.914	0.773	1	repeat	Run4	repeat/STIM_001.jpg
3288.509	1.028	0	repeat	Run4	repeat/STIM_001.jpg
3292.3	1.02	1	repeat	Run4	repeat/STIM_001.jpg
3295.702	0.8	1	repeat	Run4	repeat/STIM_001.jpg
3300.339	0.688	1	repeat	Run4	repeat/STIM_001.jpg
3303.085	1.006	1	repeat	Run4	repeat/STIM_002.jpg
3307.752	0.821	1	repeat	Run4	repeat/STIM_002.jpg
3311.762	0.662	1	repeat	Run4	repeat/STIM_002.jpg
3315.007	0.948	1	repeat	Run4	repeat/STIM_002.jpg
3318.481	0.911	1	repeat	Run4	repeat/STIM_002.jpg
3323.102	1.092	1	repeat	Run4	repeat/STIM_003.jpg
3326.392	0.568	0	repeat	Run4	repeat/STIM_003.jpg
3330.843	0.78	1	repeat	Run4	repeat/STIM_003.jpg
3334.951	0.798	0	repeat	Run4	repeat/STIM_003.jpg
3339.427	0.814	1	repeat	Run4	repeat/STIM_003.jpg
3343.119	0.708	1	repeat	Run4	repeat/STIM_004.jpg
3346.724	1.018	1	repeat	Run4	repeat/STIM_004.jpg
3351.03	1.03	1	repeat	Run4	repeat/STIM_004.jpg
3355.828	1.102	1	repeat	Run4	repeat/STIM_004.jpg
3359.927	0.598	1	repeat	Run4	repeat/STIM_004.jpg
3363.041	1.093	1	repeat	Run4	repeat/STIM_005.jpg
3366.97	0.957	1	repeat	Run4	repeat/STIM_005.jpg
3371.662	0.655	1	repeat	Run4	repeat/STIM_005.jpg
3375.825	0.643	1	repeat	Run4	repeat/STIM_005.jpg
3380.162	0.676	1	repeat	Run4	repeat/STIM_005.jpg
3383.051	0.86	1	repeat	Run4	repeat/STIM_006.jpg
3387.211	0.719	1	repeat	Run4	repeat/STIM_006.jpg
3391.047	1.01	1	repeat	Run4	repeat/STIM_006.jpg
3394.483	0.65	1	repeat	Run4	repeat/STIM_006.jpg
3397.973	1.065	1	repeat	Run4	repeat/STIM_006.jpg
3401.105	0.855	1	repeat	Run4	repeat/STIM_007.jpg
3404.232	0.698	1	repeat	Run4	repeat/STIM_007.jpg
3408.316	0.722	1	repeat	Run4	repeat/STIM_007.jpg
3412.032	0.984	1	repeat	Run4	repeat/STIM_007.jpg
3415.272	0.945	0	repeat	Run4	repeat/STIM_007.jpg
3418.875	0.671	1	repeat	Run4	repeat/STIM_008.jpg
3422.138	0.675	1	repeat	Run4	repeat/STIM_008.jpg
3425.895	0.675	1	repeat	Run4	repeat/STIM_008.jpg
3429.288	0.825	1	repeat	Run4	repeat/STIM_008.jpg
3432.427	0.99	1	repeat	Run4	repeat/STIM_008.jpg
3437.182	0.98	1	repeat	Run4	repeat/STIM_009.jpg
3442.095	0.803	1	repeat	Run4	repeat/STIM_009.jpg
3445.871	0.794	1	repeat	Run4	repeat/STIM_009.jpg
3448.756	1.106	1	repeat	Run4	repeat/STIM_009.jpg
3453.794	0.916	1	repeat	Run4	repeat/STIM_009.jpg
3458.321	1.02	1	repeat	Run4	repeat/STIM_010.jpg
3462.482	0.767	1	repeat	Run4	repeat/STIM_010.jpg
3465.308	0.767	1	repeat	Run4	repeat/STIM_010.jpg
3468.184	0.958	1	repeat	Run4	repeat/STIM_010.jpg
3472.72	1.073	1	repeat	Run4	repeat/STIM_010.jpg
3477.444	0.825	1	repeat	Run4	repeat/STIM_011.jpg
3480.644	1.008	1	repeat	Run4	repeat/STIM_011.jpg
3484.417	0.79	1	repeat	Run4	repeat/STIM_011.jpg
3488.161	0.883	1	repeat	Run4	repeat/STIM_011.jpg
3491.827	0.882	1	repeat	Run4	repeat/STIM_011.jpg
3496.146	0.99	1	repeat	Run4	repeat/STIM_012.jpg
3501.116	0.976	1	repeat	Run4	repeat/STIM_012.jpg
3505.452	0.732	1	repeat	Run4	repeat/STIM_012.jpg
3508.946	0.717	1	repeat	Run4	repeat/STIM_012.jpg
3513.22	0.809	1	repeat	Run4	repeat/STIM_012.jpg
3517.684	1.034	1	repeat	Run4	repeat/STIM_013.jpg
3521.405	0.822	1	repeat	Run4	repeat/STIM_013.jpg
3524.45	0.963	1	repeat	Run4	repeat/STIM_013.jpg
3528.681	1.074	1	repeat	Run4	repeat/STIM_013.jpg
3531.914	0.831	1	repeat	Run4	repeat/STIM_013.jpg
3536.282	1.119	1	repeat	Run4	repeat/STIM_014.jpg
3540.192	0.604	1	repeat	Run4	repeat/STIM_014.jpg
3543.639	0.758	1	repeat	Run4	repeat/STIM_014.jpg
3546.964	0.578	1	repeat	Run4	repeat/STIM_014.jpg
3550.04	1.051	1	repeat	Run4	repeat/STIM_014.jpg
