onset	duration	response_time_ms	trial_type	learning_stage	stimulus	response_port
0.0	1.8	1799.9	generate	Run1	generate/STIM_000.jpg	99
5.609	1.605	1605.1	generate	Run1	generate/STIM_000.jpg	99
11.015	2.132	2132.3	generate	Run1	generate/STIM_000.jpg	99
15.402	1.748	1748.2	generate	Run1	generate/STIM_000.jpg	99
19.453	1.314	1313.9	generate	Run1	generate/STIM_000.jpg	100
24.368	3.022	3021.6	generate	Run1	generate/STIM_001.jpg	100
30.234	2.042	2042.1	generate	Run1	generate/STIM_001.jpg	99
34.855	1.96	1960.5	generate	Run1	generate/STIM_001.jpg	99
38.847	2.468	2468.5	generate	Run1	generate/STIM_001.jpg	99
44.076	1.938	1937.8	generate	Run1	generate/STIM_001.jpg	99
48.212	1.544	1543.6	generate	Run1	generate/STIM_002.jpg	100
52.778	1.432	1432.2	generate	Run1	generate/STIM_002.jpg	99
56.871	2.229	2228.9	generate	Run1	generate/STIM_002.jpg	99
61.898	1.791	1791.3	generate	Run1	generate/STIM_002.jpg	100
66.764	1.903	1902.9	generate	Run1	generate/STIM_002.jpg	100
71.928	2.48	2479.8	generate	Run1	generate/STIM_003.jpg	99
78.381	1.537	1537.2	generate	Run1	generate/STIM_003.jpg	100
83.474	1.263	1263.4	generate	Run1	generate/STIM_003.jpg	100
88.639	1.152	1152.4	generate	Run1	generate/STIM_003.jpg	100
93.665	2.173	2172.7	generate	Run1	generate/STIM_003.jpg	100
98.89	2.416	2415.5	generate	Run1	generate/STIM_004.jpg	99
103.386	2.439	2438.8	generate	Run1	generate/STIM_004.jpg	100
108.425	2.192	2191.7	generate	Run1	generate/STIM_004.jpg	99
114.034	2.157	2157.1	generate	Run1	generate/STIM_004.jpg	99
119.608	1.879	1879.2	generate	Run1	generate/STIM_004.jpg	100
124.922	3.295	3295.3	generate	Run1	generate/STIM_005.jpg	99
130.717	3.131	3131.2	generate	Run1	generate/STIM_005.jpg	99
137.359	2.928	2927.8	generate	Run1	generate/STIM_005.jpg	99
142.57	1.366	1365.8	generate	Run1	generate/STIM_005.jpg	100
146.905	1.821	1820.8	generate	Run1	generate/STIM_005.jpg	99
152.349	2.806	2806.0	generate	Run1	generate/STIM_006.jpg	99
157.766	1.82	1819.8	generate	Run1	generate/STIM_006.jpg	100
161.882	1.39	1389.6	generate	Run1	generate/STIM_006.jpg	100
166.311	2.65	2650.0	generate	Run1	generate/STIM_006.jpg	100
171.102	2.446	2446.3	generate	Run1	generate/STIM_006.jpg	99
177.022	2.815	2814.9	generate	Run1	generate/STIM_007.jpg	99
183.692	1.481	1481.4	generate	Run1	generate/STIM_007.jpg	99
188.815	1.42	1420.1	generate	Run1	generate/STIM_007.jpg	99
193.236	1.578	1577.7	generate	Run1	generate/STIM_007.jpg	99
197.655	1.885	1885.2	generate	Run1	generate/STIM_007.jpg	99
202.834	2.995	2995.3	generate	Run1	generate/STIM_008.jpg	99
209.14	3.114	3114.0	generate	Run1	generate/STIM_008.jpg	99
215.287	2.722	2721.9	generate	Run1	generate/STIM_008.jpg	99
221.398	2.394	2393.5	generate	Run1	generate/STIM_008.jpg	100
226.1	1.845	1845.3	generate	Run1	generate/STIM_008.jpg	99
231.313	2.945	2944.7	generate	Run1	generate/STIM_009.jpg	100
238.128	1.323	1322.7	generate	Run1	generate/STIM_009.jpg	100
243.047	1.954	1953.8	generate	Run1	generate/STIM_009.jpg	100
247.165	2.314	2314.2	generate	Run1	generate/STIM_009.jpg	100
251.501	2.338	2337.9	generate	Run1	generate/STIM_009.jpg	100
257.34	2.25	2249.7	generate	Run1	generate/STIM_010.jpg	100
262.547	1.811	1811.1	generate	Run1	generate/STIM_010.jpg	99
267.418	1.272	1272.1	generate	Run1	generate/STIM_010.jpg	100
272.623	1.283	1282.7	generate	Run1	generate/STIM_010.jpg	100
276.158	2.427	2427.0	generate	Run1	generate/STIM_010.jpg	100
281.099	2.452	2451.6	generate	Run1	generate/STIM_011.jpg	99
286.165	1.662	1661.8	generate	Run1	generate/STIM_011.jpg	99
290.21	2.531	2530.9	generate	Run1	generate/STIM_011.jpg	100
296.653	2.56	2559.8	generate	Run1	generate/STIM_011.jpg	99
302.567	1.844	1844.3	generate	Run1	generate/STIM_011.jpg	100
308.295	1.653	1653.2	generate	Run1	generate/STIM_012.jpg	99
313.781	1.739	1738.6	generate	Run1	generate/STIM_012.jpg	99
319.424	2.15	2150.3	generate	Run1	generate/STIM_012.jpg	99
324.497	1.424	1424.4	generate	Run1	generate/STIM_012.jpg	100
329.233	2.139	2139.4	generate	Run1	generate/STIM_012.jpg	99
334.915	1.87	1870.3	generate	Run1	generate/STIM_013.jpg	100
340.644	2.342	2341.9	generate	Run1	generate/STIM_013.jpg	99
345.857	2.103	2103.3	generate	Run1	generate/STIM_013.jpg	99
350.708	1.404	1404.1	generate	Run1	generate/STIM_013.jpg	99
355.426	1.598	1597.9	generate	Run1	generate/STIM_013.jpg	99
359.718	2.29	2290.3	generate	Run1	generate/STIM_014.jpg	99
364.097	2.596	2595.6	generate	Run1	generate/STIM_014.jpg	99
370.404	1.85	1850.0	generate	Run1	generate/STIM_014.jpg	100
374.342	1.844	1844.2	generate	Run1	generate/STIM_014.jpg	99
379.662	2.14	2139.9	generate	Run1	generate/STIM_014.jpg	100
384.99	2.165	2165.4	generate	Run1	generate/STIM_015.jpg	99
389.601	2.531	2531.2	generate	Run1	generate/STIM_015.jpg	100
395.318	1.427	1426.7	generate	Run1	generate/STIM_015.jpg	99
400.431	1.345	1344.8	generate	Run1	generate/STIM_015.jpg	100
404.583	2.19	2190.0	generate	Run1	generate/STIM_015.jpg	100
409.683	1.361	1360.6	generate	Run1	generate/STIM_016.jpg	99
414.299	2.081	2080.6	generate	Run1	generate/STIM_016.jpg	100
419.253	1.92	1920.4	generate	Run1	generate/STIM_016.jpg	100
423.653	1.574	1574.2	generate	Run1	generate/STIM_016.jpg	100
428.305	1.367	1366.6	generate	Run1	generate/STIM_016.jpg	99
431.936	1.569	1568.8	generate	Run1	generate/STIM_017.jpg	99
436.164	1.676	1675.9	generate	Run1	generate/STIM_017.jpg	99
440.959	1.736	1736.1	generate	Run1	generate/STIM_017.jpg	99
445.433	2.668	2667.7	generate	Run1	generate/STIM_017.jpg	99
451.745	1.858	1858.5	generate	Run1	generate/STIM_017.jpg	100
457.263	3.313	3312.6	generate	Run1	generate/STIM_018.jpg	100
463.797	2.744	2743.5	generate	Run1	generate/STIM_018.jpg	100
469.969	2.64	2639.5	generate	Run1	generate/STIM_018.jpg	100
476.259	2.738	2737.6	generate	Run1	generate/STIM_018.jpg	99
482.348	1.577	1577.1	generate	Run1	generate/STIM_018.jpg	99
486.676	3.283	3283.0	generate	Run1	generate/STIM_019.jpg	99
493.549	1.508	1508.1	generate	Run1	generate/STIM_019.jpg	99
498.472	2.266	2266.2	generate	Run1	generate/STIM_019.jpg	99
503.635	1.142	1142.1	generate	Run1	generate/STIM_019.jpg	99
507.83	1.409	1409.2	generate	Run1	generate/STIM_019.jpg	99
511.334	2.616	2616.2	generate	Run1	generate/STIM_020.jpg	100
516.367	2.556	2555.5	generate	Run1	generate/STIM_020.jpg	100
521.994	2.423	2422.6	generate	Run1	generate/STIM_020.jpg	99
527.35	2.574	2574.0	generate	Run1	generate/STIM_020.jpg	100
532.733	2.02	2019.7	generate	Run1	generate/STIM_020.jpg	99
538.257	2.322	2321.7	generate	Run1	generate/STIM_021.jpg	99
544.316	1.927	1926.8	generate	Run1	generate/STIM_021.jpg	99
549.878	2.372	2372.2	generate	Run1	generate/STIM_021.jpg	100
556.028	1.305	1305.3	generate	Run1	generate/STIM_021.jpg	100
560.267	1.284	1284.4	generate	Run1	generate/STIM_021.jpg	100
564.422	2.484	2483.8	generate	Run1	generate/STIM_022.jpg	99
569.843	1.667	1667.1	generate	Run1	generate/STIM_022.jpg	99
573.8	2.705	2705.2	generate	Run1	generate/STIM_022.jpg	99
579.232	2.557	2557.3	generate	Run1	generate/STIM_022.jpg	99
585.281	2.375	2375.3	generate	Run1	generate/STIM_022.jpg	99
590.171	2.327	2327.2	generate	Run1	generate/STIM_023.jpg	99
595.803	1.983	1983.0	generate	Run1	generate/STIM_023.jpg	100
600.011	2.564	2563.5	generate	Run1	generate/STIM_023.jpg	100
606.002	1.148	1148.4	generate	Run1	generate/STIM_023.jpg	99
609.21	2.316	2316.4	generate	Run1	generate/STIM_023.jpg	100
614.391	2.101	2100.6	generate	Run1	generate/STIM_024.jpg	100
620.026	2.828	2827.8	generate	Run1	generate/STIM_024.jpg	100
625.726	1.462	1461.7	generate	Run1	generate/STIM_024.jpg	99
629.542	2.377	2376.9	generate	Run1	generate/STIM_024.jpg	99
635.505	2.095	2094.6	generate	Run1	generate/STIM_024.jpg	100
641.228	0.709	709.0	repeat	Run1	repeat/STIM_000.jpg	100
645.484	0.607	607.3	repeat	Run1	repeat/STIM_000.jpg	99
649.796	0.83	829.5	repeat	Run1	repeat/STIM_000.jpg	100
654.041	1.016	1015.9	repeat	Run1	repeat/STIM_000.jpg	99
657.101	1.02	1020.2	repeat	Run1	repeat/STIM_000.jpg	99
660.298	0.796	796.1	repeat	Run1	repeat/STIM_001.jpg	100
663.461	0.896	896.2	repeat	Run1	repeat/STIM_001.jpg	100
668.06	0.999	999.2	repeat	Run1	repeat/STIM_001.jpg	99
671.719	0.922	921.7	repeat	Run1	repeat/STIM_001.jpg	99
676.317	0.728	727.5	repeat	Run1	repeat/STIM_001.jpg	100
679.508	0.59	590.0	repeat	Run1	repeat/STIM_002.jpg	100
683.507	0.985	985.0	repeat	Run1	repeat/STIM_002.jpg	100
686.565	0.599	599.4	repeat	Run1	repeat/STIM_002.jpg	99
689.978	0.961	960.9	repeat	Run1	repeat/STIM_002.jpg	99
693.999	0.715	714.9	repeat	Run1	repeat/STIM_002.jpg	100
698.022	0.738	738.1	repeat	Run1	repeat/STIM_003.jpg	100
702.158	0.824	823.9	repeat	Run1	repeat/STIM_003.jpg	100
706.916	1.031	1030.6	repeat	Run1	repeat/STIM_003.jpg	99
710.961	1.069	1069.2	repeat	Run1	repeat/STIM_003.jpg	99
714.287	0.64	640.3	repeat	Run1	repeat/STIM_003.jpg	100
717.648	0.859	859.4	repeat	Run1	repeat/STIM_004.jpg	100
722.037	0.58	579.6	repeat	Run1	repeat/STIM_004.jpg	100
724.706	0.796	795.8	repeat	Run1	repeat/STIM_004.jpg	100
729.401	0.863	862.6	repeat	Run1	repeat/STIM_004.jpg	99
733.113	0.651	650.6	repeat	Run1	repeat/STIM_004.jpg	99
735.936	0.775	774.8	repeat	Run1	repeat/STIM_005.jpg	99
740.11	0.74	740.1	repeat	Run1	repeat/STIM_005.jpg	99
744.57	1.004	1003.6	repeat	Run1	repeat/STIM_005.jpg	100
748.754	0.683	682.8	repeat	Run1	repeat/STIM_005.jpg	99
753.05	0.668	667.7	repeat	Run1	repeat/STIM_005.jpg	100
757.125	0.691	690.9	repeat	Run1	repeat/STIM_006.jpg	100
760.398	0.704	704.3	repeat	Run1	repeat/STIM_006.jpg	100
764.787	0.986	986.1	repeat	Run1	repeat/STIM_006.jpg	99
768.621	0.983	983.4	repeat	Run1	repeat/STIM_006.jpg	99
772.208	0.993	992.9	repeat	Run1	repeat/STIM_006.jpg	99
775.337	0.68	680.5	repeat	Run1	repeat/STIM_007.jpg	99
779.519	0.751	750.9	repeat	Run1	repeat/STIM_007.jpg	99
783.803	0.942	942.5	repeat	Run1	repeat/STIM_007.jpg	100
787.453	0.696	696.5	repeat	Run1	repeat/STIM_007.jpg	100
790.177	0.972	972.4	repeat	Run1	repeat/STIM_007.jpg	100
793.313	0.686	686.3	repeat	Run1	repeat/STIM_008.jpg	99
797.817	0.649	649.1	repeat	Run1	repeat/STIM_008.jpg	100
802.203	1.043	1042.8	repeat	Run1	repeat/STIM_008.jpg	100
806.66	0.577	577.3	repeat	Run1	repeat/STIM_008.jpg	100
810.756	0.799	798.6	repeat	Run1	repeat/STIM_008.jpg	100
814.798	0.791	790.9	repeat	Run1	repeat/STIM_009.jpg	100
817.921	0.656	656.0	repeat	Run1	repeat/STIM_009.jpg	100
821.04	0.933	933.2	repeat	Run1	repeat/STIM_009.jpg	99
825.831	0.856	855.5	repeat	Run1	repeat/STIM_009.jpg	99
829.87	0.695	695.1	repeat	Run1	repeat/STIM_009.jpg	100
833.002	0.778	777.6	repeat	Run1	repeat/STIM_010.jpg	100
836.311	0.774	773.8	repeat	Run1	repeat/STIM_010.jpg	100
840.422	0.922	922.0	repeat	Run1	repeat/STIM_010.jpg	100
844.043	0.954	954.3	repeat	Run1	repeat/STIM_010.jpg	100
847.427	0.703	703.1	repeat	Run1	repeat/STIM_010.jpg	100
850.885	0.706	706.0	repeat	Run1	repeat/STIM_011.jpg	100
854.933	0.643	643.0	repeat	Run1	repeat/STIM_011.jpg	99
859.213	0.77	769.9	repeat	Run1	repeat/STIM_011.jpg	100
863.221	0.754	753.8	repeat	Run1	repeat/STIM_011.jpg	99
866.948	1.101	1101.0	repeat	Run1	repeat/STIM_011.jpg	100
871.843	1.071	1070.9	repeat	Run1	repeat/STIM_012.jpg	100
876.841	0.685	684.6	repeat	Run1	repeat/STIM_012.jpg	99
879.641	0.693	693.3	repeat	Run1	repeat/STIM_012.jpg	100
883.462	1.073	1073.4	repeat	Run1	repeat/STIM_012.jpg	99
886.671	0.68	680.5	repeat	Run1	repeat/STIM_012.jpg	100
890.615	0.913	913.1	repeat	Run1	repeat/STIM_013.jpg	99
894.459	0.788	787.9	repeat	Run1	repeat/STIM_013.jpg	99
898.076	0.772	772.1	repeat	Run1	repeat/STIM_013.jpg	99
901.307	0.911	910.6	repeat	Run1	repeat/STIM_013.jpg	99
905.506	0.589	588.9	repeat	Run1	repeat/STIM_013.jpg	100
908.637	0.968	967.8	repeat	Run1	repeat/STIM_014.jpg	100
912.016	0.927	926.7	repeat	Run1	repeat/STIM_014.jpg	99
916.547	0.728	728.3	repeat	Run1	repeat/STIM_014.jpg	99
919.353	0.825	825.1	repeat	Run1	repeat/STIM_014.jpg	100
922.873	0.626	625.9	repeat	Run1	repeat/STIM_014.jpg	100
925.783	1.643	1643.4	generate	Run2	generate/STIM_000.jpg	99
930.405	2.469	2469.1	generate	Run2	generate/STIM_000.jpg	99
936.449	2.357	2356.9	generate	Run2	generate/STIM_000.jpg	100
941.848	2.343	2343.3	generate	Run2	generate/STIM_000.jpg	99
947.65	1.892	1892.3	generate	Run2	generate/STIM_000.jpg	99
951.579	1.27	1269.6	generate	Run2	generate/STIM_001.jpg	100
955.188	2.145	2145.3	generate	Run2	generate/STIM_001.jpg	100
959.761	1.758	1757.9	generate	Run2	generate/STIM_001.jpg	100
965.126	1.161	1160.8	generate	Run2	generate/STIM_001.jpg	99
968.711	1.604	1604.3	generate	Run2	generate/STIM_001.jpg	99
973.227	2.732	2731.8	generate	Run2	generate/STIM_002.jpg	99
978.155	2.49	2490.3	generate	Run2	generate/STIM_002.jpg	100
984.006	1.418	1417.9	generate	Run2	generate/STIM_002.jpg	100
988.438	1.149	1149.0	generate	Run2	generate/STIM_002.jpg	100
991.775	1.856	1855.7	generate	Run2	generate/STIM_002.jpg	100
995.732	1.798	1798.2	generate	Run2	generate/STIM_003.jpg	99
1000.242	1.364	1363.5	generate	Run2	generate/STIM_003.jpg	100
1005.442	2.33	2329.5	generate	Run2	generate/STIM_003.jpg	100
1010.823	2.335	2334.8	generate	Run2	generate/STIM_003.jpg	99
1016.778	2.322	2322.5	generate	Run2	generate/STIM_003.jpg	99
1021.88	2.258	2257.6	generate	Run2	generate/STIM_004.jpg	100
1027.756	1.667	1667.3	generate	Run2	generate/STIM_004.jpg	99
1031.76	1.854	1853.8	generate	Run2	generate/STIM_004.jpg	99
1037.024	1.667	1666.6	generate	Run2	generate/STIM_004.jpg	100
1040.76	1.405	1404.8	generate	Run2	generate/STIM_004.jpg	99
1045.076	1.668	1668.5	generate	Run2	generate/STIM_005.jpg	99
1049.257	2.141	2140.9	generate	Run2	generate/STIM_005.jpg	100
1055.087	1.646	1646.5	generate	Run2	generate/STIM_005.jpg	100
1059.921	2.293	2292.8	generate	Run2	generate/STIM_005.jpg	99
1065.851	1.839	1838.9	generate	Run2	generate/STIM_005.jpg	99
1070.486	2.777	2776.9	generate	Run2	generate/STIM_006.jpg	100
1076.008	1.46	1460.0	generate	Run2	generate/STIM_006.jpg	100
1079.473	1.904	1904.3	generate	Run2	generate/STIM_006.jpg	99
1084.445	2.0	2000.0	generate	Run2	generate/STIM_006.jpg	99
1089.243	2.204	2204.5	generate	Run2	generate/STIM_006.jpg	99
1094.068	1.168	1168.5	generate	Run2	generate/STIM_007.jpg	100
1098.1	1.173	1173.2	generate	Run2	generate/STIM_007.jpg	100
1102.741	1.488	1488.5	generate	Run2	generate/STIM_007.jpg	100
1106.577	1.87	1869.7	generate	Run2	generate/STIM_007.jpg	99
1111.612	1.71	1710.4	generate	Run2	generate/STIM_007.jpg	99
1115.842	2.822	2821.9	generate	Run2	generate/STIM_008.jpg	99
1122.099	1.227	1227.4	generate	Run2	generate/STIM_008.jpg	99
1125.508	2.07	2069.5	generate	Run2	generate/STIM_008.jpg	99
1131.318	1.005	1004.7	generate	Run2	generate/STIM_008.jpg	99
1136.282	1.346	1345.8	generate	Run2	generate/STIM_008.jpg	99
1139.651	1.84	1839.8	generate	Run2	generate/STIM_009.jpg	100
1143.858	2.289	2288.8	generate	Run2	generate/STIM_009.jpg	100
1148.343	1.497	1497.2	generate	Run2	generate/STIM_009.jpg	100
1153.597	1.105	1105.1	generate	Run2	generate/STIM_009.jpg	99
1156.727	1.073	1073.2	generate	Run2	generate/STIM_009.jpg	99
1161.73	2.315	2315.1	generate	Run2	generate/STIM_010.jpg	99
1166.528	2.048	2047.7	generate	Run2	generate/STIM_010.jpg	99
1170.975	1.14	1139.7	generate	Run2	generate/STIM_010.jpg	99
1174.845	1.5	1499.7	generate	Run2	generate/STIM_010.jpg	100
1179.224	1.557	1556.6	generate	Run2	generate/STIM_010.jpg	99
1184.328	2.197	2197.1	generate	Run2	generate/STIM_011.jpg	99
1190.471	1.724	1723.7	generate	Run2	generate/STIM_011.jpg	99
1194.229	2.202	2201.7	generate	Run2	generate/STIM_011.jpg	100
1198.676	1.946	1945.7	generate	Run2	generate/STIM_011.jpg	99
1203.781	1.388	1387.8	generate	Run2	generate/STIM_011.jpg	100
1207.609	1.444	1444.2	generate	Run2	generate/STIM_012.jpg	100
1212.027	2.096	2095.6	generate	Run2	generate/STIM_012.jpg	100
1217.79	1.29	1289.5	generate	Run2	generate/STIM_012.jpg	99
1221.684	1.648	1647.9	generate	Run2	generate/STIM_012.jpg	100
1226.95	1.786	1785.9	generate	Run2	generate/STIM_012.jpg	99
1232.548	1.731	1730.9	generate	Run2	generate/STIM_013.jpg	100
1237.948	1.13	1130.5	generate	Run2	generate/STIM_013.jpg	99
1241.416	1.879	1879.2	generate	Run2	generate/STIM_013.jpg	100
1246.016	1.349	1348.6	generate	Run2	generate/STIM_013.jpg	100
1251.075	1.662	1662.5	generate	Run2	generate/STIM_013.jpg	99
1255.213	1.505	1504.9	generate	Run2	generate/STIM_014.jpg	100
1260.623	2.051	2051.0	generate	Run2	generate/STIM_014.jpg	99
1265.258	2.498	2497.8	generate	Run2	generate/STIM_014.jpg	99
1271.311	2.301	2301.4	generate	Run2	generate/STIM_014.jpg	99
1275.959	1.065	1065.2	generate	Run2	generate/STIM_014.jpg	100
1279.031	2.018	2017.6	generate	Run2	generate/STIM_015.jpg	99
1284.866	2.156	2156.0	generate	Run2	generate/STIM_015.jpg	100
1290.306	1.421	1421.4	generate	Run2	generate/STIM_015.jpg	99
1294.855	1.145	1144.9	generate	Run2	generate/STIM_015.jpg	100
1299.541	1.524	1523.7	generate	Run2	generate/STIM_015.jpg	99
1303.914	2.484	2483.9	generate	Run2	generate/STIM_016.jpg	100
1308.976	1.199	1199.1	generate	Run2	generate/STIM_016.jpg	100
1313.811	1.087	1087.2	generate	Run2	generate/STIM_016.jpg	99
1318.563	2.135	2135.0	generate	Run2	generate/STIM_016.jpg	99
1324.311	2.124	2124.2	generate	Run2	generate/STIM_016.jpg	100
1329.573	2.816	2816.4	generate	Run2	generate/STIM_017.jpg	100
1334.714	1.533	1533.4	generate	Run2	generate/STIM_017.jpg	100
1339.323	2.43	2430.0	generate	Run2	generate/STIM_017.jpg	100
1345.678	1.273	1273.1	generate	Run2	generate/STIM_017.jpg	100
1350.915	1.346	1346.1	generate	Run2	generate/STIM_017.jpg	100
1356.206	1.519	1519.0	generate	Run2	generate/STIM_018.jpg	100
1360.487	1.274	1273.8	generate	Run2	generate/STIM_018.jpg	100
1364.381	1.525	1525.2	generate	Run2	generate/STIM_018.jpg	99
1368.376	1.468	1468.0	generate	Run2	generate/STIM_018.jpg	99
1372.34	1.473	1473.0	generate	Run2	generate/STIM_018.jpg	100
1375.998	1.949	1949.3	generate	Run2	generate/STIM_019.jpg	100
1381.015	1.13	1129.7	generate	Run2	generate/STIM_019.jpg	99
1384.797	2.193	2193.0	generate	Run2	generate/STIM_019.jpg	100
1390.175	1.474	1474.4	generate	Run2	generate/STIM_019.jpg	99
1394.319	1.388	1387.6	generate	Run2	generate/STIM_019.jpg	99
1398.831	2.366	2366.4	generate	Run2	generate/STIM_020.jpg	100
1403.418	1.872	1871.8	generate	Run2	generate/STIM_020.jpg	100
1407.94	1.743	1742.6	generate	Run2	generate/STIM_020.jpg	100
1412.58	1.288	1288.2	generate	Run2	generate/STIM_020.jpg	99
1417.735	1.643	1643.4	generate	Run2	generate/STIM_020.jpg	100
1422.715	2.084	2084.2	generate	Run2	generate/STIM_021.jpg	100
1428.195	2.62	2620.5	generate	Run2	generate/STIM_021.jpg	99
1434.695	2.228	2228.3	generate	Run2	generate/STIM_021.jpg	99
1439.507	2.205	2205.2	generate	Run2	generate/STIM_021.jpg	99
1444.886	1.674	1674.3	generate	Run2	generate/STIM_021.jpg	100
1449.637	2.366	2366.1	generate	Run2	generate/STIM_022.jpg	100
1454.618	1.628	1627.5	generate	Run2	generate/STIM_022.jpg	100
1458.823	2.454	2454.5	generate	Run2	generate/STIM_022.jpg	99
1463.426	2.247	2247.2	generate	Run2	generate/STIM_022.jpg	99
1468.638	1.079	1078.6	generate	Run2	generate/STIM_022.jpg	99
1473.691	2.302	2301.8	generate	Run2	generate/STIM_023.jpg	99
1478.795	1.422	1422.4	generate	Run2	generate/STIM_023.jpg	100
1482.643	2.185	2185.1	generate	Run2	generate/STIM_023.jpg	99
1487.776	1.416	1415.6	generate	Run2	generate/STIM_023.jpg	100
1492.941	2.179	2179.4	generate	Run2	generate/STIM_023.jpg	99
1498.315	1.451	1451.0	generate	Run2	generate/STIM_024.jpg	99
1501.945	1.472	1472.3	generate	Run2	generate/STIM_024.jpg	100
1506.154	2.105	2105.0	generate	Run2	generate/STIM_024.jpg	100
1510.476	2.19	2189.6	generate	Run2	generate/STIM_024.jpg	99
1515.818	2.133	2132.6	generate	Run2	generate/STIM_024.jpg	99
1520.977	0.953	952.8	repeat	Run2	repeat/STIM_000.jpg	100
1525.155	0.775	774.8	repeat	Run2	repeat/STIM_000.jpg	100
1529.007	0.696	696.0	repeat	Run2	repeat/STIM_000.jpg	100
1533.163	0.873	873.3	repeat	Run2	repeat/STIM_000.jpg	100
1537.044	0.681	681.1	repeat	Run2	repeat/STIM_000.jpg	99
1540.188	1.03	1030.5	repeat	Run2	repeat/STIM_001.jpg	100
1545.124	0.982	982.1	repeat	Run2	repeat/STIM_001.jpg	99
1550.019	0.71	710.3	repeat	Run2	repeat/STIM_001.jpg	100
1553.597	0.89	890.2	repeat	Run2	repeat/STIM_001.jpg	99
1557.566	0.708	708.1	repeat	Run2	repeat/STIM_001.jpg	100
1560.443	1.028	1028.4	repeat	Run2	repeat/STIM_002.jpg	99
1564.774	1.084	1084.1	repeat	Run2	repeat/STIM_002.jpg	99
1568.147	1.112	1112.2	repeat	Run2	repeat/STIM_002.jpg	100
1572.513	0.671	670.9	repeat	Run2	repeat/STIM_002.jpg	99
1575.402	0.899	898.9	repeat	Run2	repeat/STIM_002.jpg	99
1578.492	0.584	584.3	repeat	Run2	repeat/STIM_003.jpg	99
1582.263	0.835	834.6	repeat	Run2	repeat/STIM_003.jpg	100
1585.647	0.634	633.7	repeat	Run2	repeat/STIM_003.jpg	99
1588.751	1.046	1046.3	repeat	Run2	repeat/STIM_003.jpg	100
1592.53	0.979	979.1	repeat	Run2	repeat/STIM_003.jpg	100
1597.208	0.695	695.0	repeat	Run2	repeat/STIM_004.jpg	99
1600.723	0.597	597.1	repeat	Run2	repeat/STIM_004.jpg	100
1605.169	1.041	1040.9	repeat	Run2	repeat/STIM_004.jpg	100
1609.534	0.815	814.8	repeat	Run2	repeat/STIM_004.jpg	99
1613.883	1.087	1086.8	repeat	Run2	repeat/STIM_004.jpg	99
1618.724	0.769	768.8	repeat	Run2	repeat/STIM_005.jpg	100
1622.469	0.946	946.4	repeat	Run2	repeat/STIM_005.jpg	99
1626.532	0.7	699.9	repeat	Run2	repeat/STIM_005.jpg	100
1631.071	0.914	914.2	repeat	Run2	repeat/STIM_005.jpg	99
1635.875	1.046	1046.1	repeat	Run2	repeat/STIM_005.jpg	99
1639.021	0.747	747.0	repeat	Run2	repeat/STIM_006.jpg	100
1643.301	0.957	957.1	repeat	Run2	repeat/STIM_006.jpg	99
1647.251	0.711	710.9	repeat	Run2	repeat/STIM_006.jpg	100
1650.94	0.983	983.1	repeat	Run2	repeat/STIM_006.jpg	100
1654.682	0.679	679.2	repeat	Run2	repeat/STIM_006.jpg	99
1658.888	1.085	1084.9	repeat	Run2	repeat/STIM_007.jpg	99
1663.049	0.936	936.0	repeat	Run2	repeat/STIM_007.jpg	99
1667.527	0.731	730.9	repeat	Run2	repeat/STIM_007.jpg	100
1670.332	1.046	1046.1	repeat	Run2	repeat/STIM_007.jpg	100
1673.909	1.106	1106.5	repeat	Run2	repeat/STIM_007.jpg	100
1677.641	0.619	619.2	repeat	Run2	repeat/STIM_008.jpg	99
1680.796	1.065	1065.2	repeat	Run2	repeat/STIM_008.jpg	99
1685.76	0.804	803.8	repeat	Run2	repeat/STIM_008.jpg	100
1689.773	1.055	1055.2	repeat	Run2	repeat/STIM_008.jpg	99
1694.411	0.687	686.6	repeat	Run2	repeat/STIM_008.jpg	100
1698.893	0.825	825.1	repeat	Run2	repeat/STIM_009.jpg	100
1702.888	0.878	878.0	repeat	Run2	repeat/STIM_009.jpg	100
1706.238	0.684	683.6	repeat	Run2	repeat/STIM_009.jpg	100
1709.981	0.693	693.1	repeat	Run2	repeat/STIM_009.jpg	100
1713.407	1.072	1071.5	repeat	Run2	repeat/STIM_009.jpg	99
1716.928	0.72	719.8	repeat	Run2	repeat/STIM_010.jpg	99
1721.434	0.583	583.2	repeat	Run2	repeat/STIM_010.jpg	99
1725.66	1.048	1048.4	repeat	Run2	repeat/STIM_010.jpg	100
1729.953	1.105	1105.4	repeat	Run2	repeat/STIM_010.jpg	100
1733.233	1.102	1102.1	repeat	Run2	repeat/STIM_010.jpg	100
1737.284	0.908	908.2	repeat	Run2	repeat/STIM_011.jpg	99
1741.18	0.688	688.5	repeat	Run2	repeat/STIM_011.jpg	99
1744.938	0.706	706.0	repeat	Run2	repeat/STIM_011.jpg	99
1749.511	0.885	885.3	repeat	Run2	repeat/STIM_011.jpg	99
1752.734	1.024	1024.1	repeat	Run2	repeat/STIM_011.jpg	99
1757.649	0.69	690.1	repeat	Run2	repeat/STIM_012.jpg	100
1760.351	0.686	686.5	repeat	Run2	repeat/STIM_012.jpg	100
1764.859	0.875	874.6	repeat	Run2	repeat/STIM_012.jpg	100
1768.222	0.917	917.3	repeat	Run2	repeat/STIM_012.jpg	100
1771.265	0.765	764.7	repeat	Run2	repeat/STIM_012.jpg	99
1775.893	0.75	749.6	repeat	Run2	repeat/STIM_013.jpg	100
1779.599	0.981	981.0	repeat	Run2	repeat/STIM_013.jpg	100
1782.822	0.789	788.6	repeat	Run2	repeat/STIM_013.jpg	100
1787.264	0.824	823.8	repeat	Run2	repeat/STIM_013.jpg	99
1791.903	0.921	921.3	repeat	Run2	repeat/STIM_013.jpg	100
1794.893	0.61	610.4	repeat	Run2	repeat/STIM_014.jpg	99
1798.536	0.706	705.9	repeat	Run2	repeat/STIM_014.jpg	100
1802.069	1.079	1079.3	repeat	Run2	repeat/STIM_014.jpg	100
1805.204	0.794	793.7	repeat	Run2	repeat/STIM_014.jpg	99
1809.818	0.86	859.7	repeat	Run2	repeat/STIM_014.jpg	100
1814.586	1.025	1025.1	generate	Run3	generate/STIM_000.jpg	100
1817.964	1.764	1764.2	generate	Run3	generate/STIM_000.jpg	99
1822.211	1.287	1287.1	generate	Run3	generate/STIM_000.jpg	99
1826.897	1.534	1534.0	generate	Run3	generate/STIM_000.jpg	100
1831.865	1.426	1425.6	generate	Run3	generate/STIM_000.jpg	100
1836.873	1.776	1776.0	generate	Run3	generate/STIM_001.jpg	99
1841.32	1.787	1787.2	generate	Run3	generate/STIM_001.jpg	99
1846.177	1.407	1406.8	generate	Run3	generate/STIM_001.jpg	99
1850.716	2.143	2143.1	generate	Run3	generate/STIM_001.jpg	100
1856.415	1.795	1795.2	generate	Run3	generate/STIM_001.jpg	100
1860.705	1.405	1405.0	generate	Run3	generate/STIM_002.jpg	99
1865.531	1.73	1730.5	generate	Run3	generate/STIM_002.jpg	99
1870.335	0.946	946.2	generate	Run3	generate/STIM_002.jpg	100
1875.269	1.979	1979.2	generate	Run3	generate/STIM_002.jpg	100
1881.009	1.495	1494.7	generate	Run3	generate/STIM_002.jpg	99
1885.167	1.949	1948.6	generate	Run3	generate/STIM_003.jpg	100
1890.612	1.842	1841.8	generate	Run3	generate/STIM_003.jpg	99
1896.212	1.163	1162.6	generate	Run3	generate/STIM_003.jpg	99
1901.203	1.562	1562.1	generate	Run3	generate/STIM_003.jpg	100
1906.255	0.997	997.4	generate	Run3	generate/STIM_003.jpg	99
1910.251	1.045	1044.9	generate	Run3	generate/STIM_004.jpg	100
1914.281	2.138	2138.4	generate	Run3	generate/STIM_004.jpg	100
1918.782	1.796	1796.0	generate	Run3	generate/STIM_004.jpg	99
1924.332	1.286	1286.5	generate	Run3	generate/STIM_004.jpg	100
1928.834	1.457	1456.9	generate	Run3	generate/STIM_004.jpg	100
1933.864	2.304	2303.5	generate	Run3	generate/STIM_005.jpg	99
1939.563	1.296	1295.7	generate	Run3	generate/STIM_005.jpg	99
1944.595	1.917	1916.8	generate	Run3	generate/STIM_005.jpg	99
1948.705	1.206	1205.5	generate	Run3	generate/STIM_005.jpg	100
1952.575	2.032	2032.3	generate	Run3	generate/STIM_005.jpg	99
1956.839	2.229	2228.9	generate	Run3	generate/STIM_006.jpg	99
1962.717	1.927	1927.2	generate	Run3	generate/STIM_006.jpg	99
1966.668	2.001	2000.7	generate	Run3	generate/STIM_006.jpg	99
1971.52	1.278	1278.5	generate	Run3	generate/STIM_006.jpg	100
1975.828	1.341	1341.4	generate	Run3	generate/STIM_006.jpg	99
1980.39	2.141	2141.0	generate	Run3	generate/STIM_007.jpg	99
1984.677	1.705	1705.2	generate	Run3	generate/STIM_007.jpg	100
1989.103	1.608	1608.4	generate	Run3	generate/STIM_007.jpg	99
1993.431	2.045	2045.0	generate	Run3	generate/STIM_007.jpg	100
1999.051	1.757	1757.1	generate	Run3	generate/STIM_007.jpg	100
2003.457	2.112	2111.7	generate	Run3	generate/STIM_008.jpg	100
2008.647	1.053	1053.3	generate	Run3	generate/STIM_008.jpg	99
2012.205	1.19	1190.0	generate	Run3	generate/STIM_008.jpg	99
2017.091	1.802	1802.1	generate	Run3	generate/STIM_008.jpg	100
2021.336	1.826	1826.5	generate	Run3	generate/STIM_008.jpg	99
2026.153	1.608	1608.1	generate	Run3	generate/STIM_009.jpg	100
2031.756	2.092	2091.5	generate	Run3	generate/STIM_009.jpg	100
2037.649	2.241	2241.3	generate	Run3	generate/STIM_009.jpg	99
2042.521	1.541	1541.3	generate	Run3	generate/STIM_009.jpg	100
2047.778	1.531	1530.6	generate	Run3	generate/STIM_009.jpg	99
2051.527	1.752	1752.3	generate	Run3	generate/STIM_010.jpg	99
2056.343	1.484	1483.8	generate	Run3	generate/STIM_010.jpg	99
2060.691	1.9	1899.7	generate	Run3	generate/STIM_010.jpg	100
2065.774	1.218	1217.6	generate	Run3	generate/STIM_010.jpg	100
2070.605	2.033	2033.1	generate	Run3	generate/STIM_010.jpg	100
2076.515	1.896	1896.3	generate	Run3	generate/STIM_011.jpg	99
2081.995	1.858	1858.0	generate	Run3	generate/STIM_011.jpg	99
2087.395	1.365	1364.7	generate	Run3	generate/STIM_011.jpg	99
2090.784	2.148	2147.7	generate	Run3	generate/STIM_011.jpg	99
2096.598	2.19	2190.5	generate	Run3	generate/STIM_011.jpg	100
2102.365	1.895	1895.4	generate	Run3	generate/STIM_012.jpg	100
2107.348	1.827	1827.1	generate	Run3	generate/STIM_012.jpg	100
2112.497	1.584	1584.4	generate	Run3	generate/STIM_012.jpg	100
2116.927	1.662	1661.8	generate	Run3	generate/STIM_012.jpg	99
2121.714	1.968	1967.5	generate	Run3	generate/STIM_012.jpg	99
2126.428	1.016	1015.6	generate	Run3	generate/STIM_013.jpg	100
2130.905	1.585	1585.2	generate	Run3	generate/STIM_013.jpg	99
2134.685	0.984	984.3	generate	Run3	generate/STIM_013.jpg	99
2137.886	2.098	2098.3	generate	Run3	generate/STIM_013.jpg	99
2142.983	2.336	2336.1	generate	Run3	generate/STIM_013.jpg	99
2148.268	2.101	2101.1	generate	Run3	generate/STIM_014.jpg	100
2152.62	0.976	976.5	generate	Run3	generate/STIM_014.jpg	100
2157.43	1.647	1647.0	generate	Run3	generate/STIM_014.jpg	99
2161.588	1.778	1778.5	generate	Run3	generate/STIM_014.jpg	100
2166.885	2.144	2143.8	generate	Run3	generate/STIM_014.jpg	100
2172.894	2.237	2236.7	generate	Run3	generate/STIM_015.jpg	100
2178.01	1.109	1108.7	generate	Run3	generate/STIM_015.jpg	99
2182.96	1.301	1300.6	generate	Run3	generate/STIM_015.jpg	100
2188.167	2.266	2266.0	generate	Run3	generate/STIM_015.jpg	99
2192.919	2.275	2275.1	generate	Run3	generate/STIM_015.jpg	100
2198.593	1.776	1775.5	generate	Run3	generate/STIM_016.jpg	100
2203.774	1.731	1730.7	generate	Run3	generate/STIM_016.jpg	99
2208.174	1.474	1474.2	generate	Run3	generate/STIM_016.jpg	99
2212.937	1.359	1358.6	generate	Run3	generate/STIM_016.jpg	99
2216.524	1.309	1309.1	generate	Run3	generate/STIM_016.jpg	99
2220.302	1.06	1059.7	generate	Run3	generate/STIM_017.jpg	100
2224.24	1.04	1040.2	generate	Run3	generate/STIM_017.jpg	100
2228.998	2.074	2074.4	generate	Run3	generate/STIM_017.jpg	100
2233.521	1.267	1266.8	generate	Run3	generate/STIM_017.jpg	100
2236.824	1.176	1175.8	generate	Run3	generate/STIM_017.jpg	100
2241.462	1.129	1129.4	generate	Run3	generate/STIM_018.jpg	100
2245.84	2.033	2033.2	generate	Run3	generate/STIM_018.jpg	100
2251.501	2.258	2258.2	generate	Run3	generate/STIM_018.jpg	100
2256.779	1.166	1165.5	generate	Run3	generate/STIM_018.jpg	99
2261.581	1.819	1818.8	generate	Run3	generate/STIM_018.jpg	99
2267.279	1.908	1907.9	generate	Run3	generate/STIM_019.jpg	100
2272.096	2.089	2088.7	generate	Run3	generate/STIM_019.jpg	100
2277.6	1.426	1426.2	generate	Run3	generate/STIM_019.jpg	99
2281.035	1.268	1268.5	generate	Run3	generate/STIM_019.jpg	99
2285.099	1.0	1000.3	generate	Run3	generate/STIM_019.jpg	100
2288.137	2.128	2128.4	generate	Run3	generate/STIM_020.jpg	99
2292.361	1.18	1179.5	generate	Run3	generate/STIM_020.jpg	100
2295.606	1.078	1077.9	generate	Run3	generate/STIM_020.jpg	100
2299.695	1.966	1966.2	generate	Run3	generate/STIM_020.jpg	100
2304.867	1.903	1903.3	generate	Run3	generate/STIM_020.jpg	99
2309.982	1.266	1265.9	generate	Run3	generate/STIM_021.jpg	100
2314.107	2.118	2118.0	generate	Run3	generate/STIM_021.jpg	99
2319.687	1.924	1923.9	generate	Run3	generate/STIM_021.jpg	100
2325.571	1.053	1052.9	generate	Run3	generate/STIM_021.jpg	100
2330.605	1.965	1964.9	generate	Run3	generate/STIM_021.jpg	99
2336.008	1.418	1417.9	generate	Run3	generate/STIM_022.jpg	99
2339.952	1.486	1485.5	generate	Run3	generate/STIM_022.jpg	100
2344.056	1.781	1781.4	generate	Run3	generate/STIM_022.jpg	99
2348.919	2.011	2010.9	generate	Run3	generate/STIM_022.jpg	99
2354.115	1.805	1805.1	generate	Run3	generate/STIM_022.jpg	100
2358.662	2.142	2141.6	generate	Run3	generate/STIM_023.jpg	100
2363.037	2.263	2262.8	generate	Run3	generate/STIM_023.jpg	100
2368.22	2.066	2066.5	generate	Run3	generate/STIM_023.jpg	100
2373.482	1.172	1171.7	generate	Run3	generate/STIM_023.jpg	99
2377.692	2.325	2324.9	generate	Run3	generate/STIM_023.jpg	100
2383.377	1.102	1102.0	generate	Run3	generate/STIM_024.jpg	100
2387.151	2.089	2089.0	generate	Run3	generate/STIM_024.jpg	99
2392.998	1.453	1453.1	generate	Run3	generate/STIM_024.jpg	100
2396.686	1.218	1218.3	generate	Run3	generate/STIM_024.jpg	99
2400.497	0.95	950.2	generate	Run3	generate/STIM_024.jpg	99
2403.546	0.735	735.0	repeat	Run3	repeat/STIM_000.jpg	100
2407.035	0.844	844.3	repeat	Run3	repeat/STIM_000.jpg	99
2410.607	0.636	636.2	repeat	Run3	repeat/STIM_000.jpg	100
2413.787	1.099	1098.7	repeat	Run3	repeat/STIM_000.jpg	100
2418.304	0.952	952.4	repeat	Run3	repeat/STIM_000.jpg	99
2423.156	0.633	633.2	repeat	Run3	repeat/STIM_001.jpg	99
2426.231	0.942	942.2	repeat	Run3	repeat/STIM_001.jpg	100
2431.003	0.768	767.5	repeat	Run3	repeat/STIM_001.jpg	100
2435.285	0.6	600.0	repeat	Run3	repeat/STIM_001.jpg	99
2439.608	0.944	943.9	repeat	Run3	repeat/STIM_001.jpg	100
2444.53	0.939	938.6	repeat	Run3	repeat/STIM_002.jpg	99
2448.213	1.073	1072.7	repeat	Run3	repeat/STIM_002.jpg	100
2451.808	1.017	1017.1	repeat	Run3	repeat/STIM_002.jpg	100
2456.446	1.05	1050.1	repeat	Run3	repeat/STIM_002.jpg	99
2461.434	0.627	627.4	repeat	Run3	repeat/STIM_002.jpg	100
2465.494	1.043	1043.2	repeat	Run3	repeat/STIM_003.jpg	100
2469.298	1.018	1017.8	repeat	Run3	repeat/STIM_003.jpg	99
2472.885	0.826	825.5	repeat	Run3	repeat/STIM_003.jpg	99
2476.037	1.032	1032.1	repeat	Run3	repeat/STIM_003.jpg	100
2480.482	0.696	696.5	repeat	Run3	repeat/STIM_003.jpg	99
2484.536	0.973	973.1	repeat	Run3	repeat/STIM_004.jpg	100
2487.999	0.64	640.2	repeat	Run3	repeat/STIM_004.jpg	100
2491.843	0.647	647.2	repeat	Run3	repeat/STIM_004.jpg	100
2495.184	1.012	1011.7	repeat	Run3	repeat/STIM_004.jpg	100
2499.4	1.112	1112.5	repeat	Run3	repeat/STIM_004.jpg	99
2502.548	0.761	760.7	repeat	Run3	repeat/STIM_005.jpg	99
2506.379	0.947	946.6	repeat	Run3	repeat/STIM_005.jpg	99
2511.094	0.578	578.2	repeat	Run3	repeat/STIM_005.jpg	99
2515.583	0.919	918.8	repeat	Run3	repeat/STIM_005.jpg	100
2520.175	0.571	571.4	repeat	Run3	repeat/STIM_005.jpg	100
2522.948	0.581	581.2	repeat	Run3	repeat/STIM_006.jpg	100
2526.162	0.669	668.8	repeat	Run3	repeat/STIM_006.jpg	99
2530.738	0.733	733.1	repeat	Run3	repeat/STIM_006.jpg	99
2534.548	1.102	1102.1	repeat	Run3	repeat/STIM_006.jpg	100
2538.805	0.637	636.7	repeat	Run3	repeat/STIM_006.jpg	100
2542.974	0.972	972.2	repeat	Run3	repeat/STIM_007.jpg	100
2547.004	0.898	897.9	repeat	Run3	repeat/STIM_007.jpg	99
2550.773	0.829	828.6	repeat	Run3	repeat/STIM_007.jpg	100
2554.148	0.891	891.3	repeat	Run3	repeat/STIM_007.jpg	99
2557.61	0.737	737.4	repeat	Run3	repeat/STIM_007.jpg	99
2560.556	0.957	957.0	repeat	Run3	repeat/STIM_008.jpg	99
2565.038	0.777	776.7	repeat	Run3	repeat/STIM_008.jpg	100
2569.3	0.904	904.5	repeat	Run3	repeat/STIM_008.jpg	99
2572.427	0.669	669.1	repeat	Run3	repeat/STIM_008.jpg	99
2575.306	0.651	650.6	repeat	Run3	repeat/STIM_008.jpg	99
2579.298	0.849	849.3	repeat	Run3	repeat/STIM_009.jpg	99
2583.312	0.618	618.5	repeat	Run3	repeat/STIM_009.jpg	100
2587.666	1.089	1088.7	repeat	Run3	repeat/STIM_009.jpg	99
2591.285	0.563	563.1	repeat	Run3	repeat/STIM_009.jpg	100
2594.428	0.983	982.6	repeat	Run3	repeat/STIM_009.jpg	99
2597.55	1.081	1081.2	repeat	Run3	repeat/STIM_010.jpg	100
2601.499	0.648	647.6	repeat	Run3	repeat/STIM_010.jpg	99
2605.907	0.678	677.7	repeat	Run3	repeat/STIM_010.jpg	99
2610.51	0.801	800.9	repeat	Run3	repeat/STIM_010.jpg	100
2614.697	1.047	1046.9	repeat	Run3	repeat/STIM_010.jpg	99
2618.368	1.088	1088.4	repeat	Run3	repeat/STIM_011.jpg	100
2621.484	0.772	771.8	repeat	Run3	repeat/STIM_011.jpg	99
2626.148	0.73	730.1	repeat	Run3	repeat/STIM_011.jpg	99
2629.96	0.583	582.8	repeat	Run3	repeat/STIM_011.jpg	99
2634.351	0.679	678.8	repeat	Run3	repeat/STIM_011.jpg	100
2638.41	0.67	670.5	repeat	Run3	repeat/STIM_012.jpg	99
2641.427	1.088	1088.2	repeat	Run3	repeat/STIM_012.jpg	100
2644.666	0.669	669.4	repeat	Run3	repeat/STIM_012.jpg	99
2647.544	1.0	1000.1	repeat	Run3	repeat/STIM_012.jpg	99
2651.113	0.63	629.6	repeat	Run3	repeat/STIM_012.jpg	100
2654.909	0.957	957.4	repeat	Run3	repeat/STIM_013.jpg	100
2659.532	1.054	1053.7	repeat	Run3	repeat/STIM_013.jpg	100
2663.929	0.95	949.9	repeat	Run3	repeat/STIM_013.jpg	99
2668.132	0.664	664.5	repeat	Run3	repeat/STIM_013.jpg	100
2671.815	0.837	837.0	repeat	Run3	repeat/STIM_013.jpg	99
2674.922	1.022	1022.1	repeat	Run3	repeat/STIM_014.jpg	99
2678.92	0.673	673.4	repeat	Run3	repeat/STIM_014.jpg	99
2681.754	0.848	848.0	repeat	Run3	repeat/STIM_014.jpg	99
2686.466	0.7	699.9	repeat	Run3	repeat/STIM_014.jpg	99
2689.606	0.784	783.8	repeat	Run3	repeat/STIM_014.jpg	99
2692.902	1.182	1182.5	generate	Run4	generate/STIM_000.jpg	99
2697.813	1.284	1284.3	generate	Run4	generate/STIM_000.jpg	100
2702.434	2.346	2345.6	generate	Run4	generate/STIM_000.jpg	99
2707.045	1.17	1170.3	generate	Run4	generate/STIM_000.jpg	99
2711.318	1.03	1030.5	generate	Run4	generate/STIM_000.jpg	99
2715.748	2.11	2110.1	generate	Run4	generate/STIM_001.jpg	100
2721.141	1.168	1167.9	generate	Run4	generate/STIM_001.jpg	100
2724.507	1.427	1426.8	generate	Run4	generate/STIM_001.jpg	100
2728.189	2.325	2324.9	generate	Run4	generate/STIM_001.jpg	99
2732.845	1.693	1693.4	generate	Run4	generate/STIM_001.jpg	99
2736.814	1.948	1948.5	generate	Run4	generate/STIM_002.jpg	99
2740.835	1.792	1791.8	generate	Run4	generate/STIM_002.jpg	100
2744.826	1.962	1961.5	generate	Run4	generate/STIM_002.jpg	99
2749.662	2.2	2200.3	generate	Run4	generate/STIM_002.jpg	100
2753.945	1.306	1306.5	generate	Run4	generate/STIM_002.jpg	99
2757.697	1.047	1047.0	generate	Run4	generate/STIM_003.jpg	99
2760.897	1.173	1173.3	generate	Run4	generate/STIM_003.jpg	100
2764.472	1.396	1395.9	generate	Run4	generate/STIM_003.jpg	99
2768.489	1.751	1750.6	generate	Run4	generate/STIM_003.jpg	100
2773.864	2.015	2015.0	generate	Run4	generate/STIM_003.jpg	100
2779.57	2.097	2097.4	generate	Run4	generate/STIM_004.jpg	99
2784.043	1.949	1949.1	generate	Run4	generate/STIM_004.jpg	99
2789.601	0.994	994.2	generate	Run4	generate/STIM_004.jpg	99
2793.052	1.683	1682.6	generate	Run4	generate/STIM_004.jpg	100
2797.903	2.35	2349.7	generate	Run4	generate/STIM_004.jpg	100
2802.86	2.215	2215.2	generate	Run4	generate/STIM_005.jpg	99
2809.021	2.035	2035.2	generate	Run4	generate/STIM_005.jpg	99
2814.204	1.136	1136.4	generate	Run4	generate/STIM_005.jpg	100
2818.777	2.011	2010.6	generate	Run4	generate/STIM_005.jpg	100
2823.653	1.959	1959.1	generate	Run4	generate/STIM_005.jpg	99
2828.621	1.793	1792.9	generate	Run4	generate/STIM_006.jpg	100
2834.398	1.843	1843.0	generate	Run4	generate/STIM_006.jpg	99
2839.194	1.416	1416.4	generate	Run4	generate/STIM_006.jpg	99
2842.826	1.15	1150.3	generate	Run4	generate/STIM_006.jpg	99
2847.775	2.274	2273.8	generate	Run4	generate/STIM_006.jpg	99
2852.697	1.845	1845.0	generate	Run4	generate/STIM_007.jpg	99
2857.578	2.035	2035.4	generate	Run4	generate/STIM_007.jpg	99
2861.962	1.923	1923.3	generate	Run4	generate/STIM_007.jpg	99
2866.956	1.02	1019.6	generate	Run4	generate/STIM_007.jpg	100
2870.827	1.416	1415.6	generate	Run4	generate/STIM_007.jpg	100
2874.273	1.722	1721.8	generate	Run4	generate/STIM_008.jpg	99
2878.767	1.894	1893.6	generate	Run4	generate/STIM_008.jpg	99
2883.704	2.302	2302.2	generate	Run4	generate/STIM_008.jpg	100
2889.308	0.991	990.6	generate	Run4	generate/STIM_008.jpg	99
2893.91	1.581	1580.7	generate	Run4	generate/STIM_008.jpg	99
2897.915	1.646	1646.2	generate	Run4	generate/STIM_009.jpg	100
2902.713	1.32	1319.8	generate	Run4	generate/STIM_009.jpg	99
2907.648	1.207	1206.7	generate	Run4	generate/STIM_009.jpg	99
2911.073	1.035	1034.7	generate	Run4	generate/STIM_009.jpg	100
2915.808	2.084	2083.5	generate	Run4	generate/STIM_009.jpg	100
2921.275	2.276	2275.5	generate	Run4	generate/STIM_010.jpg	100
2926.231	2.061	2061.4	generate	Run4	generate/STIM_010.jpg	99
2930.746	1.084	1084.4	generate	Run4	generate/STIM_010.jpg	99
2934.558	1.113	1112.7	generate	Run4	generate/STIM_010.jpg	100
2938.427	1.93	1930.2	generate	Run4	generate/STIM_010.jpg	100
2943.728	1.548	1548.3	generate	Run4	generate/STIM_011.jpg	100
2947.453	1.757	1756.9	generate	Run4	generate/STIM_011.jpg	99
2951.842	1.072	1072.3	generate	Run4	generate/STIM_011.jpg	99
2956.859	1.222	1222.2	generate	Run4	generate/STIM_011.jpg	100
2960.72	2.277	2276.8	generate	Run4	generate/STIM_011.jpg	100
2966.159	1.395	1395.1	generate	Run4	generate/STIM_012.jpg	100
2971.547	1.556	1556.4	generate	Run4	generate/STIM_012.jpg	99
2975.551	1.826	1825.9	generate	Run4	generate/STIM_012.jpg	100
2980.788	1.589	1589.0	generate	Run4	generate/STIM_012.jpg	99
2985.094	1.431	1431.0	generate	Run4	generate/STIM_012.jpg	100
2989.305	1.485	1485.2	generate	Run4	generate/STIM_013.jpg	100
2992.948	1.204	1203.6	generate	Run4	generate/STIM_013.jpg	100
2997.617	1.742	1742.1	generate	Run4	generate/STIM_013.jpg	100
3002.625	1.518	1518.5	generate	Run4	generate/STIM_013.jpg	100
3007.667	1.42	1419.8	generate	Run4	generate/STIM_013.jpg	100
3012.55	1.619	1618.7	generate	Run4	generate/STIM_014.jpg	100
3016.78	1.2	1199.8	generate	Run4	generate/STIM_014.jpg	99
3020.365	2.315	2315.4	generate	Run4	generate/STIM_014.jpg	99
3026.289	1.442	1442.4	generate	Run4	generate/STIM_014.jpg	100
3030.76	1.24	1240.1	generate	Run4	generate/STIM_014.jpg	100
3035.595	1.49	1490.2	generate	Run4	generate/STIM_015.jpg	100
3040.013	2.138	2138.2	generate	Run4	generate/STIM_015.jpg	99
3046.071	2.205	2204.8	generate	Run4	generate/STIM_015.jpg	100
3051.317	1.862	1861.7	generate	Run4	generate/STIM_015.jpg	100
3056.565	0.984	984.1	generate	Run4	generate/STIM_015.jpg	100
3059.713	2.173	2173.3	generate	Run4	generate/STIM_016.jpg	100
3065.795	1.507	1507.1	generate	Run4	generate/STIM_016.jpg	99
3069.558	2.284	2283.6	generate	Run4	generate/STIM_016.jpg	99
3074.055	1.729	1729.4	generate	Run4	generate/STIM_016.jpg	100
3078.589	1.553	1553.0	generate	Run4	generate/STIM_016.jpg	100
3083.858	1.058	1057.8	generate	Run4	generate/STIM_017.jpg	99
3088.748	1.6	1600.0	generate	Run4	generate/STIM_017.jpg	100
3092.773	1.202	1201.7	generate	Run4	generate/STIM_017.jpg	99
3097.857	0.995	994.7	generate	Run4	generate/STIM_017.jpg	100
3101.747	0.943	942.9	generate	Run4	generate/STIM_017.jpg	99
3104.882	2.293	2292.9	generate	Run4	generate/STIM_018.jpg	99
3109.528	1.943	1943.3	generate	Run4	generate/STIM_018.jpg	99
3114.159	1.961	1961.2	generate	Run4	generate/STIM_018.jpg	100
3118.229	1.861	1861.2	generate	Run4	generate/STIM_018.jpg	100
3123.453	1.497	1497.4	generate	Run4	generate/STIM_018.jpg	100
3127.054	1.027	1027.0	generate	Run4	generate/STIM_019.jpg	100
3131.66	1.256	1255.7	generate	Run4	generate/STIM_019.jpg	100
3134.94	0.992	991.9	generate	Run4	generate/STIM_019.jpg	99
3139.339	1.364	1363.8	generate	Run4	generate/STIM_019.jpg	100
3144.135	1.596	1595.6	generate	Run4	generate/STIM_019.jpg	99
3148.974	1.114	1114.5	generate	Run4	generate/STIM_020.jpg	100
3152.294	1.213	1212.7	generate	Run4	generate/STIM_020.jpg	100
3155.986	2.196	2195.8	generate	Run4	generate/STIM_020.jpg	100
3160.885	1.214	1213.5	generate	Run4	generate/STIM_020.jpg	99
3165.314	1.978	1977.5	generate	Run4	generate/STIM_020.jpg	100
3170.109	1.434	1434.3	generate	Run4	generate/STIM_021.jpg	99
3175.25	1.908	1908.0	generate	Run4	generate/STIM_021.jpg	99
3180.016	1.199	1199.4	generate	Run4	generate/STIM_021.jpg	99
3184.533	1.068	1067.6	generate	Run4	generate/STIM_021.jpg	99
3188.146	1.597	1597.4	generate	Run4	generate/STIM_021.jpg	99
3192.169	1.85	1849.9	generate	Run4	generate/STIM_022.jpg	100
3197.759	1.219	1219.4	generate	Run4	generate/STIM_022.jpg	100
3202.898	1.625	1625.2	generate	Run4	generate/STIM_022.jpg	99
3206.891	2.04	2040.0	generate	Run4	generate/STIM_022.jpg	99
3212.224	2.187	2186.8	generate	Run4	generate/STIM_022.jpg	99
3217.415	2.033	2033.1	generate	Run4	generate/STIM_023.jpg	100
3222.691	2.308	2308.1	generate	Run4	generate/STIM_023.jpg	100
3227.817	1.54	1539.5	generate	Run4	generate/STIM_023.jpg	99
3231.746	1.607	1607.3	generate	Run4	generate/STIM_023.jpg	99
3236.787	1.555	1554.8	generate	Run4	generate/STIM_023.jpg	100
3241.419	2.06	2060.2	generate	Run4	generate/STIM_024.jpg	100
3246.479	2.165	2165.3	generate	Run4	generate/STIM_024.jpg	100
3252.141	2.157	2156.6	generate	Run4	generate/STIM_024.jpg	100
3256.617	1.676	1675.7	generate	Run4	generate/STIM_024.jpg	100
3260.437	1.996	1995.9	generate	Run4	generate/STIM_024.jpg	100
3264.443	1.08	1079.8	repeat	Run4	repeat/STIM_000.jpg	100
3268.993	0.668	668.5	repeat	Run4	repeat/STIM_000.jpg	99
3272.943	0.825	824.9	repeat	Run4	repeat/STIM_000.jpg	100
3276.714	1.052	1051.7	repeat	Run4	repeat/STIM_000.jpg	100
3281.697	0.735	734.6	repeat	Run4	repeat/STIM_000.jpg	99
3284.914	0.773	772.7	repeat	Run4	repeat/STIM_001.jpg	99
3288.509	1.028	1027.7	repeat	Run4	repeat/STIM_001.jpg	100
3292.3	1.02	1020.5	repeat	Run4	repeat/STIM_001.jpg	99
3295.702	0.8	799.5	repeat	Run4	repeat/STIM_001.jpg	99
3300.339	0.688	687.8	repeat	Run4	repeat/STIM_001.jpg	99
3303.085	1.006	1006.5	repeat	Run4	repeat/STIM_002.jpg	100
3307.752	0.821	820.6	repeat	Run4	repeat/STIM_002.jpg	100
3311.762	0.662	662.2	repeat	Run4	repeat/STIM_002.jpg	100
3315.007	0.948	947.9	repeat	Run4	repeat/STIM_002.jpg	100
3318.481	0.911	910.8	repeat	Run4	repeat/STIM_002.jpg	99
3323.102	1.092	1092.4	repeat	Run4	repeat/STIM_003.jpg	99
3326.392	0.568	567.7	repeat	Run4	repeat/STIM_003.jpg	100
3330.843	0.78	780.4	repeat	Run4	repeat/STIM_003.jpg	99
3334.951	0.798	797.7	repeat	Run4	repeat/STIM_003.jpg	99
3339.427	0.814	813.8	repeat	Run4	repeat/STIM_003.jpg	99
3343.119	0.708	708.4	repeat	Run4	repeat/STIM_004.jpg	100
3346.724	1.018	1018.1	repeat	Run4	repeat/STIM_004.jpg	100
3351.03	1.03	1029.9	repeat	Run4	repeat/STIM_004.jpg	100
3355.828	1.102	1101.9	repeat	Run4	repeat/STIM_004.jpg	100
3359.927	0.598	597.8	repeat	Run4	repeat/STIM_004.jpg	99
3363.041	1.093	1093.0	repeat	Run4	repeat/STIM_005.jpg	100
3366.97	0.957	957.2	repeat	Run4	repeat/STIM_005.jpg	99
3371.662	0.655	655.4	repeat	Run4	repeat/STIM_005.jpg	100
3375.825	0.643	642.7	repeat	Run4	repeat/STIM_005.jpg	99
3380.162	0.676	676.4	repeat	Run4	repeat/STIM_005.jpg	99
3383.051	0.86	860.4	repeat	Run4	repeat/STIM_006.jpg	99
3387.211	0.719	719.0	repeat	Run4	repeat/STIM_006.jpg	100
3391.047	1.01	1010.3	repeat	Run4	repeat/STIM_006.jpg	99
3394.483	0.65	649.9	repeat	Run4	repeat/STIM_006.jpg	99
3397.973	1.065	1064.7	repeat	Run4	repeat/STIM_006.jpg	100
3401.105	0.855	854.9	repeat	Run4	repeat/STIM_007.jpg	99
3404.232	0.698	698.2	repeat	Run4	repeat/STIM_007.jpg	100
3408.316	0.722	721.6	repeat	Run4	repeat/STIM_007.jpg	99
3412.032	0.984	984.0	repeat	Run4	repeat/STIM_007.jpg	100
3415.272	0.945	945.1	repeat	Run4	repeat/STIM_007.jpg	100
3418.875	0.671	671.3	repeat	Run4	repeat/STIM_008.jpg	100
3422.138	0.675	675.0	repeat	Run4	repeat/STIM_008.jpg	99
3425.895	0.675	674.6	repeat	Run4	repeat/STIM_008.jpg	99
3429.288	0.825	825.4	repeat	Run4	repeat/STIM_008.jpg	99
3432.427	0.99	989.5	repeat	Run4	repeat/STIM_008.jpg	100
3437.182	0.98	980.2	repeat	Run4	repeat/STIM_009.jpg	100
3442.095	0.803	803.4	repeat	Run4	repeat/STIM_009.jpg	99
3445.871	0.794	793.9	repeat	Run4	repeat/STIM_009.jpg	99
3448.756	1.106	1105.5	repeat	Run4	repeat/STIM_009.jpg	99
3453.794	0.916	915.9	repeat	Run4	repeat/STIM_009.jpg	100
3458.321	1.02	1019.8	repeat	Run4	repeat/STIM_010.jpg	100
3462.482	0.767	767.2	repeat	Run4	repeat/STIM_010.jpg	100
3465.308	0.767	767.3	repeat	Run4	repeat/STIM_010.jpg	99
3468.184	0.958	958.0	repeat	Run4	repeat/STIM_010.jpg	99
3472.72	1.073	1072.9	repeat	Run4	repeat/STIM_010.jpg	99
3477.444	0.825	825.2	repeat	Run4	repeat/STIM_011.jpg	99
3480.644	1.008	1008.0	repeat	Run4	repeat/STIM_011.jpg	100
3484.417	0.79	790.4	repeat	Run4	repeat/STIM_011.jpg	100
3488.161	0.883	882.9	repeat	Run4	repeat/STIM_011.jpg	100
3491.827	0.882	882.1	repeat	Run4	repeat/STIM_011.jpg	99
3496.146	0.99	990.2	repeat	Run4	repeat/STIM_012.jpg	99
3501.116	0.976	976.1	repeat	Run4	repeat/STIM_012.jpg	99
3505.452	0.732	731.9	repeat	Run4	repeat/STIM_012.jpg	100
3508.946	0.717	717.4	repeat	Run4	repeat/STIM_012.jpg	100
3513.22	0.809	809.1	repeat	Run4	repeat/STIM_012.jpg	99
3517.684	1.034	1034.3	repeat	Run4	repeat/STIM_013.jpg	99
3521.405	0.822	822.4	repeat	Run4	repeat/STIM_013.jpg	99
3524.45	0.963	963.0	repeat	Run4	repeat/STIM_013.jpg	100
3528.681	1.074	1074.4	repeat	Run4	repeat/STIM_013.jpg	100
3531.914	0.831	831.0	repeat	Run4	repeat/STIM_013.jpg	100
3536.282	1.119	1118.7	repeat	Run4	repeat/STIM_014.jpg	99
3540.192	0.604	603.5	repeat	Run4	repeat/STIM_014.jpg	100
3543.639	0.758	758.5	repeat	Run4	repeat/STIM_014.jpg	100
3546.964	0.578	578.3	repeat	Run4	repeat/STIM_014.jpg	99
3550.04	1.051	1050.8	repeat	Run4	repeat/STIM_014.jpg	99
