onset	duration	accuracy_binary	trial_type	learning_stage	stimulus
0.0	4.835	1	navigation	Trial1	navigation/STIM_000.jpg
8.05	2.512	0	navigation	Trial1	navigation/STIM_000.jpg
13.878	3.252	1	navigation	Trial1	navigation/STIM_000.jpg
21.001	3.232	1	navigation	Trial1	navigation/STIM_000.jpg
27.962	3.484	1	navigation	Trial1	navigation/STIM_000.jpg
34.623	2.251	1	navigation	Trial1	navigation/STIM_000.jpg
40.589	2.588	1	navigation	Trial1	navigation/STIM_001.jpg
45.201	4.354	0	navigation	Trial1	navigation/STIM_001.jpg
52.871	4.225	0	navigation	Trial1	navigation/STIM_001.jpg
60.12	2.129	1	navigation	Trial1	navigation/STIM_001.jpg
64.704	2.757	1	navigation	Trial1	navigation/STIM_001.jpg
70.275	2.257	1	navigation	Trial1	navigation/STIM_001.jpg
75.824	3.498	1	navigation	Trial1	navigation/STIM_002.jpg
82.627	4.357	1	navigation	Trial1	navigation/STIM_002.jpg
89.095	2.362	0	navigation	Trial1	navigation/STIM_002.jpg
93.761	3.436	0	navigation	Trial1	navigation/STIM_002.jpg
100.063	1.726	1	navigation	Trial1	navigation/STIM_002.jpg
103.909	1.522	1	navigation	Trial1	navigation/STIM_002.jpg
108.344	4.366	1	navigation	Trial1	navigation/STIM_003.jpg
114.837	3.213	1	navigation	Trial1	navigation/STIM_003.jpg
121.976	3.834	1	navigation	Trial1	navigation/STIM_003.jpg
128.368	2.694	0	navigation	Trial1	navigation/STIM_003.jpg
133.575	2.714	1	navigation	Trial1	navigation/STIM_003.jpg
138.431	2.35	1	navigation	Trial1	navigation/STIM_003.jpg
144.461	4.334	0	navigation	Trial1	navigation/STIM_004.jpg
151.03	4.005	1	navigation	Trial1	navigation/STIM_004.jpg
158.821	4.149	1	navigation	Trial1	navigation/STIM_004.jpg
166.402	2.7	1	navigation	Trial1	navigation/STIM_004.jpg
172.004	3.539	1	navigation	Trial1	navigation/STIM_004.jpg
179.088	3.485	1	navigation	Trial1	navigation/STIM_004.jpg
186.521	4.962	1	navigation	Trial1	navigation/STIM_005.jpg
195.224	2.841	0	navigation	Trial1	navigation/STIM_005.jpg
200.162	3.988	1	navigation	Trial1	navigation/STIM_005.jpg
207.329	4.172	0	navigation	Trial1	navigation/STIM_005.jpg
213.553	3.15	1	navigation	Trial1	navigation/STIM_005.jpg
219.572	1.552	1	navigation	Trial1	navigation/STIM_005.jpg
224.469	2.882	0	navigation	Trial1	navigation/STIM_006.jpg
230.832	3.694	1	navigation	Trial1	navigation/STIM_006.jpg
238.472	3.377	1	navigation	Trial1	navigation/STIM_006.jpg
243.943	2.561	0	navigation	Trial1	navigation/STIM_006.jpg
248.571	3.278	0	navigation	Trial1	navigation/STIM_006.jpg
255.618	3.58	1	navigation	Trial1	navigation/STIM_006.jpg
262.154	4.518	1	navigation	Trial1	navigation/STIM_007.jpg
270.64	4.278	1	navigation	Trial1	navigation/STIM_007.jpg
278.683	4.305	0	navigation	Trial1	navigation/STIM_007.jpg
286.516	2.104	1	navigation	Trial1	navigation/STIM_007.jpg
291.601	3.407	0	navigation	Trial1	navigation/STIM_007.jpg
298.21	2.186	1	navigation	Trial1	navigation/STIM_007.jpg
303.79	3.027	1	navigation	Trial1	navigation/STIM_008.jpg
309.957	3.618	0	navigation	Trial1	navigation/STIM_008.jpg
317.4	3.172	1	navigation	Trial1	navigation/STIM_008.jpg
324.468	1.959	1	navigation	Trial1	navigation/STIM_008.jpg
328.872	2.723	1	navigation	Trial1	navigation/STIM_008.jpg
335.578	2.811	0	navigation	Trial1	navigation/STIM_008.jpg
341.818	2.039	0	navigation	Trial1	navigation/STIM_009.jpg
346.998	4.444	1	navigation	Trial1	navigation/STIM_009.jpg
354.976	1.959	1	navigation	Trial1	navigation/STIM_009.jpg
359.049	3.982	0	navigation	Trial1	navigation/STIM_009.jpg
366.807	3.284	1	navigation	Trial1	navigation/STIM_009.jpg
372.411	1.662	1	navigation	Trial1	navigation/STIM_009.jpg
377.592	3.82	1	navigation	Trial1	navigation/STIM_010.jpg
384.581	2.875	1	navigation	Trial1	navigation/STIM_010.jpg
391.002	2.267	1	navigation	Trial1	navigation/STIM_010.jpg
396.76	1.87	1	navigation	Trial1	navigation/STIM_010.jpg
401.598	1.923	1	navigation	Trial1	navigation/STIM_010.jpg
405.788	2.704	1	navigation	Trial1	navigation/STIM_010.jpg
412.071	2.605	1	navigation	Trial1	navigation/STIM_011.jpg
417.868	4.726	1	navigation	Trial1	navigation/STIM_011.jpg
426.049	3.682	1	navigation	Trial1	navigation/STIM_011.jpg
432.64	3.855	0	navigation	Trial1	navigation/STIM_011.jpg
440.353	2.529	1	navigation	Trial1	navigation/STIM_011.jpg
446.016	2.423	1	navigation	Trial1	navigation/STIM_011.jpg
451.77	1.347	1	pointing	Trial1	pointing/STIM_000.jpg
456.788	0.922	1	pointing	Trial1	pointing/STIM_000.jpg
460.34	1.324	1	pointing	Trial1	pointing/STIM_000.jpg
464.384	1.091	1	pointing	Trial1	pointing/STIM_000.jpg
467.937	1.328	1	pointing	Trial1	pointing/STIM_000.jpg
471.709	1.266	1	pointing	Trial1	pointing/STIM_000.jpg
476.725	1.02	1	pointing	Trial1	pointing/STIM_001.jpg
479.928	0.808	1	pointing	Trial1	pointing/STIM_001.jpg
484.158	0.835	1	pointing	Trial1	pointing/STIM_001.jpg
488.639	0.944	1	pointing	Trial1	pointing/STIM_001.jpg
492.684	1.444	1	pointing	Trial1	pointing/STIM_001.jpg
496.784	1.252	1	pointing	Trial1	pointing/STIM_001.jpg
501.269	1.434	1	pointing	Trial1	pointing/STIM_002.jpg
505.136	0.99	1	pointing	Trial1	pointing/STIM_002.jpg
509.895	1.062	1	pointing	Trial1	pointing/STIM_002.jpg
513.542	1.195	1	pointing	Trial1	pointing/STIM_002.jpg
517.931	1.242	1	pointing	Trial1	pointing/STIM_002.jpg
522.785	1.115	1	pointing	Trial1	pointing/STIM_002.jpg
527.069	1.481	1	pointing	Trial1	pointing/STIM_003.jpg
531.838	1.084	0	pointing	Trial1	pointing/STIM_003.jpg
535.54	1.158	1	pointing	Trial1	pointing/STIM_003.jpg
540.548	1.012	0	pointing	Trial1	pointing/STIM_003.jpg
544.039	0.896	1	pointing	Trial1	pointing/STIM_003.jpg
548.699	1.221	1	pointing	Trial1	pointing/STIM_003.jpg
553.919	1.412	1	pointing	Trial1	pointing/STIM_004.jpg
558.249	1.495	1	pointing	Trial1	pointing/STIM_004.jpg
562.954	0.904	1	pointing	Trial1	pointing/STIM_004.jpg
567.231	1.369	1	pointing	Trial1	pointing/STIM_004.jpg
571.286	1.361	1	pointing	Trial1	pointing/STIM_004.jpg
574.923	1.254	1	pointing	Trial1	pointing/STIM_004.jpg
578.568	0.865	1	pointing	Trial1	pointing/STIM_005.jpg
583.023	1.201	1	pointing	Trial1	pointing/STIM_005.jpg
586.67	0.897	1	pointing	Trial1	pointing/STIM_005.jpg
590.592	1.02	1	pointing	Trial1	pointing/STIM_005.jpg
595.502	1.421	1	pointing	Trial1	pointing/STIM_005.jpg
599.921	0.844	1	pointing	Trial1	pointing/STIM_005.jpg
603.77	1.48	1	pointing	Trial1	pointing/STIM_006.jpg
608.162	0.902	1	pointing	Trial1	pointing/STIM_006.jpg
612.431	1.024	1	pointing	Trial1	pointing/STIM_006.jpg
615.853	0.998	1	pointing	Trial1	pointing/STIM_006.jpg
620.21	1.386	1	pointing	Trial1	pointing/STIM_006.jpg
624.652	1.188	1	pointing	Trial1	pointing/STIM_006.jpg
629.087	0.874	1	pointing	Trial1	pointing/STIM_007.jpg
632.232	1.37	1	pointing	Trial1	pointing/STIM_007.jpg
635.688	0.995	1	pointing	Trial1	pointing/STIM_007.jpg
640.532	1.171	1	pointing	Trial1	pointing/STIM_007.jpg
644.466	1.132	1	pointing	Trial1	pointing/STIM_007.jpg
649.052	0.916	1	pointing	Trial1	pointing/STIM_007.jpg
652.64	0.837	1	pointing	Trial1	pointing/STIM_008.jpg
657.063	1.121	1	pointing	Trial1	pointing/STIM_008.jpg
661.699	1.409	1	pointing	Trial1	pointing/STIM_008.jpg
665.958	1.021	1	pointing	Trial1	pointing/STIM_008.jpg
670.674	1.37	1	pointing	Trial1	pointing/STIM_008.jpg
675.065	1.08	1	pointing	Trial1	pointing/STIM_008.jpg
679.796	1.225	1	pointing	Trial1	pointing/STIM_009.jpg
683.47	0.92	1	pointing	Trial1	pointing/STIM_009.jpg
686.975	1.177	1	pointing	Trial1	pointing/STIM_009.jpg
691.901	1.047	0	pointing	Trial1	pointing/STIM_009.jpg
695.511	1.226	1	pointing	Trial1	pointing/STIM_009.jpg
699.65	1.049	1	pointing	Trial1	pointing/STIM_009.jpg
704.636	1.124	0	pointing	Trial1	pointing/STIM_010.jpg
709.394	1.251	1	pointing	Trial1	pointing/STIM_010.jpg
713.715	1.002	1	pointing	Trial1	pointing/STIM_010.jpg
716.939	1.146	1	pointing	Trial1	pointing/STIM_010.jpg
720.576	1.46	1	pointing	Trial1	pointing/STIM_010.jpg
725.212	0.824	0	pointing	Trial1	pointing/STIM_010.jpg
729.313	1.267	1	pointing	Trial1	pointing/STIM_011.jpg
732.614	1.322	1	pointing	Trial1	pointing/STIM_011.jpg
736.105	0.821	1	pointing	Trial1	pointing/STIM_011.jpg
740.483	1.234	1	pointing	Trial1	pointing/STIM_011.jpg
745.407	1.208	1	pointing	Trial1	pointing/STIM_011.jpg
750.5	1.093	1	pointing	Trial1	pointing/STIM_011.jpg
753.84	3.991	1	navigation	Trial2	navigation/STIM_000.jpg
761.729	2.018	1	navigation	Trial2	navigation/STIM_000.jpg
767.7	2.492	1	navigation	Trial2	navigation/STIM_000.jpg
774.117	2.794	1	navigation	Trial2	navigation/STIM_000.jpg
780.632	3.365	1	navigation	Trial2	navigation/STIM_000.jpg
786.612	3.32	1	navigation	Trial2	navigation/STIM_000.jpg
793.258	4.101	1	navigation	Trial2	navigation/STIM_001.jpg
801.121	1.797	0	navigation	Trial2	navigation/STIM_001.jpg
805.916	2.056	1	navigation	Trial2	navigation/STIM_001.jpg
811.763	2.152	1	navigation	Trial2	navigation/STIM_001.jpg
817.436	2.643	1	navigation	Trial2	navigation/STIM_001.jpg
823.847	1.724	0	navigation	Trial2	navigation/STIM_001.jpg
827.761	1.714	1	navigation	Trial2	navigation/STIM_002.jpg
833.182	3.104	0	navigation	Trial2	navigation/STIM_002.jpg
838.776	1.638	1	navigation	Trial2	navigation/STIM_002.jpg
843.752	1.583	1	navigation	Trial2	navigation/STIM_002.jpg
848.265	1.786	0	navigation	Trial2	navigation/STIM_002.jpg
852.354	2.116	1	navigation	Trial2	navigation/STIM_002.jpg
858.335	2.082	1	navigation	Trial2	navigation/STIM_003.jpg
862.751	1.715	1	navigation	Trial2	navigation/STIM_003.jpg
867.219	1.682	1	navigation	Trial2	navigation/STIM_003.jpg
872.372	2.725	1	navigation	Trial2	navigation/STIM_003.jpg
877.16	3.375	1	navigation	Trial2	navigation/STIM_003.jpg
884.277	3.448	1	navigation	Trial2	navigation/STIM_003.jpg
890.303	1.838	1	navigation	Trial2	navigation/STIM_004.jpg
895.165	1.772	1	navigation	Trial2	navigation/STIM_004.jpg
900.773	2.716	0	navigation	Trial2	navigation/STIM_004.jpg
906.352	2.0	1	navigation	Trial2	navigation/STIM_004.jpg
912.307	2.865	1	navigation	Trial2	navigation/STIM_004.jpg
917.753	1.493	1	navigation	Trial2	navigation/STIM_004.jpg
922.322	3.422	0	navigation	Trial2	navigation/STIM_005.jpg
927.933	2.522	1	navigation	Trial2	navigation/STIM_005.jpg
932.849	1.611	1	navigation	Trial2	navigation/STIM_005.jpg
936.544	1.706	1	navigation	Trial2	navigation/STIM_005.jpg
940.556	2.738	0	navigation	Trial2	navigation/STIM_005.jpg
945.635	1.679	1	navigation	Trial2	navigation/STIM_005.jpg
950.522	2.354	1	navigation	Trial2	navigation/STIM_006.jpg
956.426	2.325	0	navigation	Trial2	navigation/STIM_006.jpg
962.642	2.531	1	navigation	Trial2	navigation/STIM_006.jpg
968.107	2.142	1	navigation	Trial2	navigation/STIM_006.jpg
972.584	3.155	1	navigation	Trial2	navigation/STIM_006.jpg
977.827	2.538	0	navigation	Trial2	navigation/STIM_006.jpg
983.472	2.449	0	navigation	Trial2	navigation/STIM_007.jpg
988.701	2.811	1	navigation	Trial2	navigation/STIM_007.jpg
995.309	3.638	1	navigation	Trial2	navigation/STIM_007.jpg
1002.395	2.384	0	navigation	Trial2	navigation/STIM_007.jpg
1008.134	1.46	1	navigation	Trial2	navigation/STIM_007.jpg
1011.801	3.344	1	navigation	Trial2	navigation/STIM_007.jpg
1017.373	2.168	1	navigation	Trial2	navigation/STIM_008.jpg
1022.569	2.196	0	navigation	Trial2	navigation/STIM_008.jpg
1028.679	3.164	1	navigation	Trial2	navigation/STIM_008.jpg
1035.277	3.087	1	navigation	Trial2	navigation/STIM_008.jpg
1042.009	1.558	1	navigation	Trial2	navigation/STIM_008.jpg
1045.619	1.797	1	navigation	Trial2	navigation/STIM_008.jpg
1050.931	3.43	1	navigation	Trial2	navigation/STIM_009.jpg
1056.815	2.118	1	navigation	Trial2	navigation/STIM_009.jpg
1061.216	1.526	1	navigation	Trial2	navigation/STIM_009.jpg
1066.101	3.141	1	navigation	Trial2	navigation/STIM_009.jpg
1072.41	1.76	1	navigation	Trial2	navigation/STIM_009.jpg
1077.932	3.418	1	navigation	Trial2	navigation/STIM_009.jpg
1084.162	3.307	1	navigation	Trial2	navigation/STIM_010.jpg
1090.409	3.924	1	navigation	Trial2	navigation/STIM_010.jpg
1097.85	2.031	1	navigation	Trial2	navigation/STIM_010.jpg
1102.985	3.394	1	navigation	Trial2	navigation/STIM_010.jpg
1108.388	2.414	1	navigation	Trial2	navigation/STIM_010.jpg
1113.234	1.857	1	navigation	Trial2	navigation/STIM_010.jpg
1118.033	2.828	1	navigation	Trial2	navigation/STIM_011.jpg
1124.204	2.775	1	navigation	Trial2	navigation/STIM_011.jpg
1129.665	2.302	0	navigation	Trial2	navigation/STIM_011.jpg
1134.278	2.372	1	navigation	Trial2	navigation/STIM_011.jpg
1138.871	2.751	1	navigation	Trial2	navigation/STIM_011.jpg
1145.156	1.566	1	navigation	Trial2	navigation/STIM_011.jpg
1150.194	0.898	0	pointing	Trial2	pointing/STIM_000.jpg
1154.13	0.826	1	pointing	Trial2	pointing/STIM_000.jpg
1157.834	1.49	1	pointing	Trial2	pointing/STIM_000.jpg
1162.237	1.308	1	pointing	Trial2	pointing/STIM_000.jpg
1166.99	1.244	1	pointing	Trial2	pointing/STIM_000.jpg
1170.28	0.812	1	pointing	Trial2	pointing/STIM_000.jpg
1173.912	1.415	1	pointing	Trial2	pointing/STIM_001.jpg
1179.225	1.468	1	pointing	Trial2	pointing/STIM_001.jpg
1183.227	0.831	1	pointing	Trial2	pointing/STIM_001.jpg
1186.409	1.261	1	pointing	Trial2	pointing/STIM_001.jpg
1190.96	1.415	1	pointing	Trial2	pointing/STIM_001.jpg
1196.176	1.189	1	pointing	Trial2	pointing/STIM_001.jpg
1201.003	1.09	1	pointing	Trial2	pointing/STIM_002.jpg
1205.813	0.846	1	pointing	Trial2	pointing/STIM_002.jpg
1208.766	1.332	1	pointing	Trial2	pointing/STIM_002.jpg
1213.982	0.978	1	pointing	Trial2	pointing/STIM_002.jpg
1218.108	0.962	1	pointing	Trial2	pointing/STIM_002.jpg
1222.173	0.94	1	pointing	Trial2	pointing/STIM_002.jpg
1226.781	0.968	1	pointing	Trial2	pointing/STIM_003.jpg
1230.893	1.019	1	pointing	Trial2	pointing/STIM_003.jpg
1234.828	1.224	1	pointing	Trial2	pointing/STIM_003.jpg
1238.961	1.336	1	pointing	Trial2	pointing/STIM_003.jpg
1243.453	1.477	0	pointing	Trial2	pointing/STIM_003.jpg
1247.237	1.044	1	pointing	Trial2	pointing/STIM_003.jpg
1250.768	1.356	1	pointing	Trial2	pointing/STIM_004.jpg
1255.888	1.424	1	pointing	Trial2	pointing/STIM_004.jpg
1259.683	0.98	1	pointing	Trial2	pointing/STIM_004.jpg
1263.307	0.986	1	pointing	Trial2	pointing/STIM_004.jpg
1266.303	1.199	1	pointing	Trial2	pointing/STIM_004.jpg
1269.854	1.171	1	pointing	Trial2	pointing/STIM_004.jpg
1273.082	1.033	1	pointing	Trial2	pointing/STIM_005.jpg
1276.254	1.495	1	pointing	Trial2	pointing/STIM_005.jpg
1280.193	1.463	1	pointing	Trial2	pointing/STIM_005.jpg
1283.977	1.073	1	pointing	Trial2	pointing/STIM_005.jpg
1288.931	1.452	1	pointing	Trial2	pointing/STIM_005.jpg
1294.212	0.903	1	pointing	Trial2	pointing/STIM_005.jpg
1297.706	1.086	1	pointing	Trial2	pointing/STIM_006.jpg
1302.646	1.089	1	pointing	Trial2	pointing/STIM_006.jpg
1307.169	1.2	1	pointing	Trial2	pointing/STIM_006.jpg
1312.35	0.914	1	pointing	Trial2	pointing/STIM_006.jpg
1316.908	1.452	1	pointing	Trial2	pointing/STIM_006.jpg
1320.707	1.352	1	pointing	Trial2	pointing/STIM_006.jpg
1325.28	1.474	1	pointing	Trial2	pointing/STIM_007.jpg
1329.608	1.316	1	pointing	Trial2	pointing/STIM_007.jpg
1334.553	1.035	1	pointing	Trial2	pointing/STIM_007.jpg
1338.124	1.035	1	pointing	Trial2	pointing/STIM_007.jpg
1341.982	1.475	1	pointing	Trial2	pointing/STIM_007.jpg
1345.794	0.944	1	pointing	Trial2	pointing/STIM_007.jpg
1350.505	1.26	1	pointing	Trial2	pointing/STIM_008.jpg
1354.363	0.966	0	pointing	Trial2	pointing/STIM_008.jpg
1359.042	0.84	1	pointing	Trial2	pointing/STIM_008.jpg
1362.448	1.474	1	pointing	Trial2	pointing/STIM_008.jpg
1367.089	1.013	1	pointing	Trial2	pointing/STIM_008.jpg
1370.807	1.146	1	pointing	Trial2	pointing/STIM_008.jpg
1375.432	1.038	0	pointing	Trial2	pointing/STIM_009.jpg
1379.431	1.358	1	pointing	Trial2	pointing/STIM_009.jpg
1384.438	1.408	1	pointing	Trial2	pointing/STIM_009.jpg
1389.401	0.808	1	pointing	Trial2	pointing/STIM_009.jpg
1392.24	1.159	1	pointing	Trial2	pointing/STIM_009.jpg
1396.211	1.263	1	pointing	Trial2	pointing/STIM_009.jpg
1399.516	0.821	1	pointing	Trial2	pointing/STIM_010.jpg
1403.052	1.331	1	pointing	Trial2	pointing/STIM_010.jpg
1407.825	1.383	1	pointing	Trial2	pointing/STIM_010.jpg
1411.628	1.019	1	pointing	Trial2	pointing/STIM_010.jpg
1415.16	1.033	1	pointing	Trial2	pointing/STIM_010.jpg
1418.217	1.053	1	pointing	Trial2	pointing/STIM_010.jpg
1423.263	0.848	1	pointing	Trial2	pointing/STIM_011.jpg
1426.857	1.169	1	pointing	Trial2	pointing/STIM_011.jpg
1431.576	1.264	0	pointing	Trial2	pointing/STIM_011.jpg
1436.471	1.085	1	pointing	Trial2	pointing/STIM_011.jpg
1439.569	1.393	1	pointing	Trial2	pointing/STIM_011.jpg
1443.923	1.103	1	pointing	Trial2	pointing/STIM_011.jpg
1447.352	3.265	1	navigation	Trial3	navigation/STIM_000.jpg
1454.616	2.83	1	navigation	Trial3	navigation/STIM_000.jpg
1461.38	3.387	1	navigation	Trial3	navigation/STIM_000.jpg
1466.94	2.928	1	navigation	Trial3	navigation/STIM_000.jpg
1473.126	1.666	1	navigation	Trial3	navigation/STIM_000.jpg
1477.491	2.434	0	navigation	Trial3	navigation/STIM_000.jpg
1483.324	2.256	1	navigation	Trial3	navigation/STIM_001.jpg
1488.657	1.42	1	navigation	Trial3	navigation/STIM_001.jpg
1492.615	3.068	1	navigation	Trial3	navigation/STIM_001.jpg
1498.819	3.219	1	navigation	Trial3	navigation/STIM_001.jpg
1506.019	3.032	1	navigation	Trial3	navigation/STIM_001.jpg
1512.343	2.866	1	navigation	Trial3	navigation/STIM_001.jpg
1518.754	2.796	1	navigation	Trial3	navigation/STIM_002.jpg
1524.587	2.47	1	navigation	Trial3	navigation/STIM_002.jpg
1530.658	1.425	1	navigation	Trial3	navigation/STIM_002.jpg
1535.352	2.255	1	navigation	Trial3	navigation/STIM_002.jpg
1539.809	2.768	1	navigation	Trial3	navigation/STIM_002.jpg
1545.698	2.634	1	navigation	Trial3	navigation/STIM_002.jpg
1552.033	2.362	1	navigation	Trial3	navigation/STIM_003.jpg
1556.696	2.916	1	navigation	Trial3	navigation/STIM_003.jpg
1563.012	2.694	1	navigation	Trial3	navigation/STIM_003.jpg
1568.097	2.017	1	navigation	Trial3	navigation/STIM_003.jpg
1573.308	2.435	1	navigation	Trial3	navigation/STIM_003.jpg
1579.262	1.657	1	navigation	Trial3	navigation/STIM_003.jpg
1584.875	2.807	1	navigation	Trial3	navigation/STIM_004.jpg
1590.569	2.319	1	navigation	Trial3	navigation/STIM_004.jpg
1595.718	2.825	1	navigation	Trial3	navigation/STIM_004.jpg
1602.153	3.184	1	navigation	Trial3	navigation/STIM_004.jpg
1607.523	2.465	1	navigation	Trial3	navigation/STIM_004.jpg
1613.728	2.67	1	navigation	Trial3	navigation/STIM_004.jpg
1618.533	2.472	1	navigation	Trial3	navigation/STIM_005.jpg
1624.018	3.199	0	navigation	Trial3	navigation/STIM_005.jpg
1629.747	2.229	1	navigation	Trial3	navigation/STIM_005.jpg
1634.908	3.276	1	navigation	Trial3	navigation/STIM_005.jpg
1640.707	3.221	1	navigation	Trial3	navigation/STIM_005.jpg
1646.482	3.343	1	navigation	Trial3	navigation/STIM_005.jpg
1651.959	2.111	1	navigation	Trial3	navigation/STIM_006.jpg
1656.815	1.947	0	navigation	Trial3	navigation/STIM_006.jpg
1661.747	1.544	1	navigation	Trial3	navigation/STIM_006.jpg
1666.008	1.569	0	navigation	Trial3	navigation/STIM_006.jpg
1669.706	2.8	1	navigation	Trial3	navigation/STIM_006.jpg
1675.076	1.767	1	navigation	Trial3	navigation/STIM_006.jpg
1680.007	3.433	1	navigation	Trial3	navigation/STIM_007.jpg
1687.021	1.766	1	navigation	Trial3	navigation/STIM_007.jpg
1691.297	3.216	1	navigation	Trial3	navigation/STIM_007.jpg
1696.632	2.939	0	navigation	Trial3	navigation/STIM_007.jpg
1703.567	1.626	1	navigation	Trial3	navigation/STIM_007.jpg
1707.479	2.617	1	navigation	Trial3	navigation/STIM_007.jpg
1712.277	2.789	1	navigation	Trial3	navigation/STIM_008.jpg
1719.065	2.374	1	navigation	Trial3	navigation/STIM_008.jpg
1723.959	1.541	1	navigation	Trial3	navigation/STIM_008.jpg
1729.212	2.407	1	navigation	Trial3	navigation/STIM_008.jpg
1734.995	2.368	1	navigation	Trial3	navigation/STIM_008.jpg
1741.105	3.09	1	navigation	Trial3	navigation/STIM_008.jpg
1747.57	2.915	0	navigation	Trial3	navigation/STIM_009.jpg
1752.658	2.774	1	navigation	Trial3	navigation/STIM_009.jpg
1758.348	2.426	0	navigation	Trial3	navigation/STIM_009.jpg
1763.39	1.932	1	navigation	Trial3	navigation/STIM_009.jpg
1768.476	2.87	1	navigation	Trial3	navigation/STIM_009.jpg
1773.648	3.269	1	navigation	Trial3	navigation/STIM_009.jpg
1780.452	1.99	1	navigation	Trial3	navigation/STIM_010.jpg
1786.31	1.639	1	navigation	Trial3	navigation/STIM_010.jpg
1791.756	1.996	0	navigation	Trial3	navigation/STIM_010.jpg
1796.25	1.459	1	navigation	Trial3	navigation/STIM_010.jpg
1801.544	2.876	1	navigation	Trial3	navigation/STIM_010.jpg
1808.116	1.606	1	navigation	Trial3	navigation/STIM_010.jpg
1811.905	1.47	1	navigation	Trial3	navigation/STIM_011.jpg
1817.288	1.554	1	navigation	Trial3	navigation/STIM_011.jpg
1821.308	1.759	1	navigation	Trial3	navigation/STIM_011.jpg
1826.985	2.91	1	navigation	Trial3	navigation/STIM_011.jpg
1833.811	2.29	1	navigation	Trial3	navigation/STIM_011.jpg
1839.554	2.409	0	navigation	Trial3	navigation/STIM_011.jpg
1845.536	0.926	1	pointing	Trial3	pointing/STIM_000.jpg
1848.714	1.095	1	pointing	Trial3	pointing/STIM_000.jpg
1852.986	0.99	1	pointing	Trial3	pointing/STIM_000.jpg
1857.061	0.878	1	pointing	Trial3	pointing/STIM_000.jpg
1861.484	0.925	1	pointing	Trial3	pointing/STIM_000.jpg
1866.35	0.857	1	pointing	Trial3	pointing/STIM_000.jpg
1871.096	1.409	1	pointing	Trial3	pointing/STIM_001.jpg
1875.459	1.466	1	pointing	Trial3	pointing/STIM_001.jpg
1879.617	1.44	1	pointing	Trial3	pointing/STIM_001.jpg
1885.052	1.157	1	pointing	Trial3	pointing/STIM_001.jpg
1890.203	1.251	1	pointing	Trial3	pointing/STIM_001.jpg
1894.12	1.13	1	pointing	Trial3	pointing/STIM_001.jpg
1898.638	1.292	1	pointing	Trial3	pointing/STIM_002.jpg
1903.537	0.898	1	pointing	Trial3	pointing/STIM_002.jpg
1906.464	0.928	1	pointing	Trial3	pointing/STIM_002.jpg
1910.826	1.305	1	pointing	Trial3	pointing/STIM_002.jpg
1915.552	1.055	1	pointing	Trial3	pointing/STIM_002.jpg
1918.849	0.971	1	pointing	Trial3	pointing/STIM_002.jpg
1922.292	1.311	1	pointing	Trial3	pointing/STIM_003.jpg
1927.221	1.281	1	pointing	Trial3	pointing/STIM_003.jpg
1930.594	1.402	1	pointing	Trial3	pointing/STIM_003.jpg
1935.177	1.489	1	pointing	Trial3	pointing/STIM_003.jpg
1939.298	1.223	1	pointing	Trial3	pointing/STIM_003.jpg
1944.387	1.318	0	pointing	Trial3	pointing/STIM_003.jpg
1948.386	1.485	0	pointing	Trial3	pointing/STIM_004.jpg
1953.032	1.405	1	pointing	Trial3	pointing/STIM_004.jpg
1956.601	1.235	1	pointing	Trial3	pointing/STIM_004.jpg
1961.018	1.155	1	pointing	Trial3	pointing/STIM_004.jpg
1965.263	1.473	1	pointing	Trial3	pointing/STIM_004.jpg
1969.277	1.223	1	pointing	Trial3	pointing/STIM_004.jpg
1973.434	1.001	1	pointing	Trial3	pointing/STIM_005.jpg
1977.184	0.953	0	pointing	Trial3	pointing/STIM_005.jpg
1980.762	1.096	0	pointing	Trial3	pointing/STIM_005.jpg
1985.506	1.152	1	pointing	Trial3	pointing/STIM_005.jpg
1989.017	0.967	1	pointing	Trial3	pointing/STIM_005.jpg
1992.77	1.029	1	pointing	Trial3	pointing/STIM_005.jpg
1996.154	1.016	0	pointing	Trial3	pointing/STIM_006.jpg
2000.621	0.969	1	pointing	Trial3	pointing/STIM_006.jpg
2003.754	1.429	1	pointing	Trial3	pointing/STIM_006.jpg
2007.455	1.3	1	pointing	Trial3	pointing/STIM_006.jpg
2011.94	1.296	1	pointing	Trial3	pointing/STIM_006.jpg
2016.051	1.145	1	pointing	Trial3	pointing/STIM_006.jpg
2020.109	1.039	1	pointing	Trial3	pointing/STIM_007.jpg
2023.595	0.915	1	pointing	Trial3	pointing/STIM_007.jpg
2026.896	1.038	1	pointing	Trial3	pointing/STIM_007.jpg
2031.293	1.247	1	pointing	Trial3	pointing/STIM_007.jpg
2036.491	1.057	1	pointing	Trial3	pointing/STIM_007.jpg
2040.165	1.492	1	pointing	Trial3	pointing/STIM_007.jpg
2044.762	1.426	0	pointing	Trial3	pointing/STIM_008.jpg
2048.558	0.855	1	pointing	Trial3	pointing/STIM_008.jpg
2052.822	1.0	0	pointing	Trial3	pointing/STIM_008.jpg
2056.776	1.128	1	pointing	Trial3	pointing/STIM_008.jpg
2060.873	1.365	1	pointing	Trial3	pointing/STIM_008.jpg
2064.607	1.232	1	pointing	Trial3	pointing/STIM_008.jpg
2069.467	1.381	1	pointing	Trial3	pointing/STIM_009.jpg
2074.076	1.378	1	pointing	Trial3	pointing/STIM_009.jpg
2078.418	1.239	1	pointing	Trial3	pointing/STIM_009.jpg
2083.196	0.873	1	pointing	Trial3	pointing/STIM_009.jpg
2086.654	1.018	1	pointing	Trial3	pointing/STIM_009.jpg
2090.834	1.375	1	pointing	Trial3	pointing/STIM_009.jpg
2095.461	0.988	1	pointing	Trial3	pointing/STIM_010.jpg
2099.768	1.312	1	pointing	Trial3	pointing/STIM_010.jpg
2104.644	1.473	1	pointing	Trial3	pointing/STIM_010.jpg
2110.074	1.221	1	pointing	Trial3	pointing/STIM_010.jpg
2114.143	1.449	0	pointing	Trial3	pointing/STIM_010.jpg
2117.629	1.108	1	pointing	Trial3	pointing/STIM_010.jpg
2121.148	1.284	1	pointing	Trial3	pointing/STIM_011.jpg
2126.185	0.849	1	pointing	Trial3	pointing/STIM_011.jpg
2130.285	1.049	1	pointing	Trial3	pointing/STIM_011.jpg
2133.492	1.056	1	pointing	Trial3	pointing/STIM_011.jpg
2137.009	1.174	1	pointing	Trial3	pointing/STIM_011.jpg
2141.068	0.847	1	pointing	Trial3	pointing/STIM_011.jpg
