onset	duration	response_time_ms	trial_type	learning_stage	stimulus	response_port
0.0	1.884	1884.5	study	Phase1	study/STIM_000.jpg	99
4.21	1.192	1192.0	study	Phase1	study/STIM_000.jpg	100
8.332	0.857	856.9	study	Phase1	study/STIM_000.jpg	100
12.961	1.719	1718.9	study	Phase1	study/STIM_001.jpg	100
17.41	1.576	1575.5	study	Phase1	study/STIM_001.jpg	100
22.389	1.758	1758.4	study	Phase1	study/STIM_001.jpg	100
26.375	0.906	906.5	study	Phase1	study/STIM_002.jpg	99
30.986	1.307	1307.1	study	Phase1	study/STIM_002.jpg	100
34.517	0.905	904.9	study	Phase1	study/STIM_002.jpg	99
37.504	1.006	1006.5	study	Phase1	study/STIM_003.jpg	100
40.488	1.735	1735.2	study	Phase1	study/STIM_003.jpg	100
45.306	1.696	1696.5	study	Phase1	study/STIM_003.jpg	100
49.363	1.405	1405.4	study	Phase1	study/STIM_004.jpg	100
53.897	1.703	1703.2	study	Phase1	study/STIM_004.jpg	100
58.051	0.938	938.5	study	Phase1	study/STIM_004.jpg	99
61.615	1.596	1595.8	study	Phase1	study/STIM_005.jpg	99
66.047	1.146	1145.8	study	Phase1	study/STIM_005.jpg	99
70.313	1.238	1238.4	study	Phase1	study/STIM_005.jpg	99
74.532	0.894	893.5	study	Phase1	study/STIM_006.jpg	99
77.468	1.836	1836.4	study	Phase1	study/STIM_006.jpg	99
81.157	1.272	1272.2	study	Phase1	study/STIM_006.jpg	100
85.912	1.178	1177.9	study	Phase1	study/STIM_007.jpg	99
90.521	1.511	1510.9	study	Phase1	study/STIM_007.jpg	99
94.365	1.528	1527.9	study	Phase1	study/STIM_007.jpg	99
99.689	1.629	1628.9	study	Phase1	study/STIM_008.jpg	99
103.405	1.498	1498.1	study	Phase1	study/STIM_008.jpg	100
107.434	1.44	1439.7	study	Phase1	study/STIM_008.jpg	100
112.497	1.718	1718.4	study	Phase1	study/STIM_009.jpg	100
116.079	1.449	1448.6	study	Phase1	study/STIM_009.jpg	99
120.244	1.416	1416.2	study	Phase1	study/STIM_009.jpg	99
125.353	1.213	1212.6	study	Phase1	study/STIM_010.jpg	99
128.85	1.457	1457.4	study	Phase1	study/STIM_010.jpg	100
132.491	1.464	1463.7	study	Phase1	study/STIM_010.jpg	99
137.259	1.635	1635.2	study	Phase1	study/STIM_011.jpg	100
142.083	0.904	904.1	study	Phase1	study/STIM_011.jpg	99
146.214	0.998	998.5	study	Phase1	study/STIM_011.jpg	99
150.881	1.344	1343.6	study	Phase1	study/STIM_012.jpg	99
155.445	1.715	1714.9	study	Phase1	study/STIM_012.jpg	100
160.363	1.492	1491.9	study	Phase1	study/STIM_012.jpg	99
164.571	1.343	1343.4	study	Phase1	study/STIM_013.jpg	99
168.874	0.881	881.3	study	Phase1	study/STIM_013.jpg	99
172.29	1.325	1324.8	study	Phase1	study/STIM_013.jpg	99
177.369	1.948	1948.2	study	Phase1	study/STIM_014.jpg	99
182.014	1.465	1465.4	study	Phase1	study/STIM_014.jpg	100
185.654	1.168	1167.7	study	Phase1	study/STIM_014.jpg	100
189.693	1.754	1753.7	study	Phase1	study/STIM_015.jpg	100
193.523	1.046	1046.5	study	Phase1	study/STIM_015.jpg	100
196.911	0.821	820.7	study	Phase1	study/STIM_015.jpg	100
201.347	1.488	1487.5	study	Phase1	study/STIM_016.jpg	100
206.702	1.441	1441.0	study	Phase1	study/STIM_016.jpg	99
211.743	1.314	1314.0	study	Phase1	study/STIM_016.jpg	100
215.631	1.666	1666.2	study	Phase1	study/STIM_017.jpg	99
221.137	1.608	1607.5	study	Phase1	study/STIM_017.jpg	100
226.511	0.821	821.1	study	Phase1	study/STIM_017.jpg	100
229.772	1.148	1148.1	study	Phase1	study/STIM_018.jpg	99
232.876	1.127	1126.8	study	Phase1	study/STIM_018.jpg	99
236.713	0.834	834.4	study	Phase1	study/STIM_018.jpg	100
239.83	1.105	1104.9	study	Phase1	study/STIM_019.jpg	99
244.824	1.292	1291.7	study	Phase1	study/STIM_019.jpg	99
249.553	1.615	1614.6	study	Phase1	study/STIM_019.jpg	100
253.928	1.267	1267.2	study	Phase1	study/STIM_020.jpg	100
258.774	1.119	1118.7	study	Phase1	study/STIM_020.jpg	99
263.038	1.267	1266.8	study	Phase1	study/STIM_020.jpg	99
267.848	1.917	1916.7	study	Phase1	study/STIM_021.jpg	100
272.898	1.604	1604.2	study	Phase1	study/STIM_021.jpg	100
278.011	0.808	808.2	study	Phase1	study/STIM_021.jpg	100
281.103	1.316	1316.5	study	Phase1	study/STIM_022.jpg	99
285.912	1.31	1310.2	study	Phase1	study/STIM_022.jpg	100
289.859	1.128	1127.8	study	Phase1	study/STIM_022.jpg	99
293.148	1.226	1225.9	study	Phase1	study/STIM_023.jpg	99
297.72	1.426	1426.2	study	Phase1	study/STIM_023.jpg	100
302.714	1.681	1680.9	study	Phase1	study/STIM_023.jpg	99
307.932	1.779	1778.7	study	Phase1	study/STIM_024.jpg	99
311.652	1.796	1795.6	study	Phase1	study/STIM_024.jpg	100
316.483	1.128	1128.5	study	Phase1	study/STIM_024.jpg	99
319.616	1.703	1703.4	study	Phase1	study/STIM_025.jpg	100
323.36	1.773	1773.4	study	Phase1	study/STIM_025.jpg	100
327.956	1.4	1400.0	study	Phase1	study/STIM_025.jpg	100
331.616	1.11	1109.5	study	Phase1	study/STIM_026.jpg	99
336.279	1.811	1811.1	study	Phase1	study/STIM_026.jpg	100
340.977	1.496	1495.9	study	Phase1	study/STIM_026.jpg	99
345.652	0.963	963.1	study	Phase1	study/STIM_027.jpg	100
349.166	1.396	1395.8	study	Phase1	study/STIM_027.jpg	100
353.535	1.447	1447.3	study	Phase1	study/STIM_027.jpg	99
357.05	1.292	1292.1	study	Phase1	study/STIM_028.jpg	99
361.505	1.019	1019.2	study	Phase1	study/STIM_028.jpg	99
366.267	1.201	1201.1	study	Phase1	study/STIM_028.jpg	99
371.044	1.343	1342.9	study	Phase1	study/STIM_029.jpg	100
376.03	1.483	1483.2	study	Phase1	study/STIM_029.jpg	100
380.683	1.595	1595.1	study	Phase1	study/STIM_029.jpg	99
386.096	1.076	1075.5	test	Phase1	test/STIM_000.jpg	100
389.46	0.975	975.3	test	Phase1	test/STIM_000.jpg	99
394.001	1.253	1253.2	test	Phase1	test/STIM_000.jpg	99
398.753	1.282	1281.9	test	Phase1	test/STIM_001.jpg	100
403.806	1.317	1316.9	test	Phase1	test/STIM_001.jpg	100
407.696	0.756	755.8	test	Phase1	test/STIM_001.jpg	99
411.064	1.261	1261.1	test	Phase1	test/STIM_002.jpg	99
415.127	1.05	1050.4	test	Phase1	test/STIM_002.jpg	100
419.143	1.374	1374.5	test	Phase1	test/STIM_002.jpg	99
423.301	1.377	1377.2	test	Phase1	test/STIM_003.jpg	100
428.47	0.819	819.1	test	Phase1	test/STIM_003.jpg	100
433.058	0.66	660.2	test	Phase1	test/STIM_003.jpg	100
435.902	0.971	970.7	test	Phase1	test/STIM_004.jpg	99
439.744	0.721	721.1	test	Phase1	test/STIM_004.jpg	100
443.101	1.336	1335.7	test	Phase1	test/STIM_004.jpg	100
447.725	1.311	1311.1	test	Phase1	test/STIM_005.jpg	100
452.151	1.073	1073.3	test	Phase1	test/STIM_005.jpg	100
456.174	1.383	1383.0	test	Phase1	test/STIM_005.jpg	100
460.934	0.914	914.0	test	Phase1	test/STIM_006.jpg	100
464.024	0.963	963.2	test	Phase1	test/STIM_006.jpg	100
467.595	0.729	728.6	test	Phase1	test/STIM_006.jpg	100
472.104	1.127	1126.9	test	Phase1	test/STIM_007.jpg	99
476.722	1.355	1354.7	test	Phase1	test/STIM_007.jpg	99
480.822	0.935	935.3	test	Phase1	test/STIM_007.jpg	99
483.784	0.825	825.0	test	Phase1	test/STIM_008.jpg	99
486.639	1.411	1411.0	test	Phase1	test/STIM_008.jpg	99
490.612	0.988	987.6	test	Phase1	test/STIM_008.jpg	100
494.219	0.777	776.7	test	Phase1	test/STIM_009.jpg	99
497.324	1.11	1110.2	test	Phase1	test/STIM_009.jpg	100
500.864	0.884	883.6	test	Phase1	test/STIM_009.jpg	99
504.423	1.38	1379.5	test	Phase1	test/STIM_010.jpg	99
508.805	0.723	723.3	test	Phase1	test/STIM_010.jpg	99
512.513	1.313	1312.9	test	Phase1	test/STIM_010.jpg	99
516.684	1.189	1189.2	test	Phase1	test/STIM_011.jpg	100
519.883	0.932	931.6	test	Phase1	test/STIM_011.jpg	100
524.502	0.889	889.3	test	Phase1	test/STIM_011.jpg	99
529.135	0.706	706.1	test	Phase1	test/STIM_012.jpg	99
531.799	1.318	1318.5	test	Phase1	test/STIM_012.jpg	99
535.463	0.782	782.4	test	Phase1	test/STIM_012.jpg	100
540.078	0.889	888.7	test	Phase1	test/STIM_013.jpg	99
544.128	1.208	1208.0	test	Phase1	test/STIM_013.jpg	99
547.676	1.352	1352.2	test	Phase1	test/STIM_013.jpg	100
552.801	1.025	1025.0	test	Phase1	test/STIM_014.jpg	100
556.468	1.076	1076.1	test	Phase1	test/STIM_014.jpg	100
560.261	0.74	740.4	test	Phase1	test/STIM_014.jpg	100
564.85	1.009	1009.1	test	Phase1	test/STIM_015.jpg	99
568.124	0.712	711.7	test	Phase1	test/STIM_015.jpg	99
571.25	0.84	839.7	test	Phase1	test/STIM_015.jpg	100
575.644	1.091	1091.4	test	Phase1	test/STIM_016.jpg	100
579.205	1.195	1194.9	test	Phase1	test/STIM_016.jpg	99
584.181	0.726	725.6	test	Phase1	test/STIM_016.jpg	100
587.165	0.988	988.0	test	Phase1	test/STIM_017.jpg	99
591.972	1.399	1398.8	test	Phase1	test/STIM_017.jpg	99
595.425	0.896	896.4	test	Phase1	test/STIM_017.jpg	99
600.199	1.263	1262.7	test	Phase1	test/STIM_018.jpg	99
604.118	1.408	1407.5	test	Phase1	test/STIM_018.jpg	100
608.441	1.056	1055.5	test	Phase1	test/STIM_018.jpg	99
612.161	0.764	764.4	test	Phase1	test/STIM_019.jpg	100
616.61	1.374	1373.9	test	Phase1	test/STIM_019.jpg	99
620.292	1.054	1053.6	test	Phase1	test/STIM_019.jpg	100
624.542	1.427	1426.7	test	Phase1	test/STIM_020.jpg	99
629.016	0.867	866.7	test	Phase1	test/STIM_020.jpg	99
632.386	1.215	1215.3	test	Phase1	test/STIM_020.jpg	100
635.841	0.831	831.4	test	Phase1	test/STIM_021.jpg	99
640.004	0.78	779.5	test	Phase1	test/STIM_021.jpg	100
642.962	0.728	727.9	test	Phase1	test/STIM_021.jpg	99
646.072	0.882	882.3	test	Phase1	test/STIM_022.jpg	99
650.23	0.685	684.7	test	Phase1	test/STIM_022.jpg	100
653.572	1.333	1332.7	test	Phase1	test/STIM_022.jpg	99
657.472	0.794	794.1	test	Phase1	test/STIM_023.jpg	100
661.95	1.407	1407.3	test	Phase1	test/STIM_023.jpg	100
666.772	1.038	1038.3	test	Phase1	test/STIM_023.jpg	100
670.92	1.236	1235.6	test	Phase1	test/STIM_024.jpg	100
674.958	1.022	1022.1	test	Phase1	test/STIM_024.jpg	100
679.62	1.007	1006.8	test	Phase1	test/STIM_024.jpg	100
684.242	0.881	881.4	test	Phase1	test/STIM_025.jpg	99
688.125	0.937	937.2	test	Phase1	test/STIM_025.jpg	99
692.069	0.906	905.7	test	Phase1	test/STIM_025.jpg	100
696.857	1.29	1289.6	test	Phase1	test/STIM_026.jpg	99
700.69	1.054	1053.9	test	Phase1	test/STIM_026.jpg	99
704.577	0.906	905.5	test	Phase1	test/STIM_026.jpg	100
708.88	0.767	766.8	test	Phase1	test/STIM_027.jpg	99
712.595	1.318	1317.9	test	Phase1	test/STIM_027.jpg	100
717.063	0.988	987.8	test	Phase1	test/STIM_027.jpg	99
720.903	1.147	1147.1	test	Phase1	test/STIM_028.jpg	99
724.524	1.112	1112.4	test	Phase1	test/STIM_028.jpg	99
728.741	1.356	1355.8	test	Phase1	test/STIM_028.jpg	100
733.196	1.21	1210.4	test	Phase1	test/STIM_029.jpg	99
737.316	1.156	1156.5	test	Phase1	test/STIM_029.jpg	100
740.684	0.892	892.0	test	Phase1	test/STIM_029.jpg	99
743.976	1.341	1341.3	study	Phase2	study/STIM_000.jpg	99
748.844	1.222	1222.2	study	Phase2	study/STIM_000.jpg	100
753.44	1.286	1286.4	study	Phase2	study/STIM_000.jpg	99
758.564	1.597	1596.9	study	Phase2	study/STIM_001.jpg	99
762.675	1.032	1031.8	study	Phase2	study/STIM_001.jpg	99
766.283	1.21	1209.5	study	Phase2	study/STIM_001.jpg	99
770.516	1.326	1325.5	study	Phase2	study/STIM_002.jpg	100
774.029	0.998	997.7	study	Phase2	study/STIM_002.jpg	100
778.004	0.802	801.6	study	Phase2	study/STIM_002.jpg	100
780.929	1.667	1667.2	study	Phase2	study/STIM_003.jpg	99
786.252	1.109	1109.3	study	Phase2	study/STIM_003.jpg	100
791.231	1.05	1049.5	study	Phase2	study/STIM_003.jpg	99
795.528	0.936	935.6	study	Phase2	study/STIM_004.jpg	99
799.814	0.84	840.3	study	Phase2	study/STIM_004.jpg	99
803.236	1.001	1001.1	study	Phase2	study/STIM_004.jpg	100
806.753	0.942	941.9	study	Phase2	study/STIM_005.jpg	99
811.28	1.165	1164.8	study	Phase2	study/STIM_005.jpg	99
816.234	0.981	980.9	study	Phase2	study/STIM_005.jpg	99
819.579	1.334	1333.9	study	Phase2	study/STIM_006.jpg	100
823.809	0.88	879.9	study	Phase2	study/STIM_006.jpg	100
827.987	0.996	995.5	study	Phase2	study/STIM_006.jpg	99
831.008	1.115	1114.6	study	Phase2	study/STIM_007.jpg	100
835.707	0.963	963.0	study	Phase2	study/STIM_007.jpg	99
839.88	1.162	1162.3	study	Phase2	study/STIM_007.jpg	99
844.514	1.159	1159.2	study	Phase2	study/STIM_008.jpg	99
848.56	0.715	715.1	study	Phase2	study/STIM_008.jpg	100
851.403	0.891	891.3	study	Phase2	study/STIM_008.jpg	99
855.924	1.464	1464.1	study	Phase2	study/STIM_009.jpg	99
861.245	1.201	1200.9	study	Phase2	study/STIM_009.jpg	99
865.334	1.36	1359.5	study	Phase2	study/STIM_009.jpg	99
869.725	0.892	891.9	study	Phase2	study/STIM_010.jpg	100
873.743	1.532	1532.2	study	Phase2	study/STIM_010.jpg	99
878.505	1.304	1303.8	study	Phase2	study/STIM_010.jpg	99
882.174	1.497	1496.9	study	Phase2	study/STIM_011.jpg	99
886.189	1.162	1162.3	study	Phase2	study/STIM_011.jpg	99
889.452	1.398	1397.5	study	Phase2	study/STIM_011.jpg	100
893.052	1.653	1652.7	study	Phase2	study/STIM_012.jpg	100
897.108	0.735	735.3	study	Phase2	study/STIM_012.jpg	100
899.983	1.019	1019.1	study	Phase2	study/STIM_012.jpg	100
903.031	1.659	1658.9	study	Phase2	study/STIM_013.jpg	99
907.849	0.935	935.1	study	Phase2	study/STIM_013.jpg	99
911.659	1.363	1363.2	study	Phase2	study/STIM_013.jpg	100
914.907	0.914	914.3	study	Phase2	study/STIM_014.jpg	99
918.619	1.033	1033.3	study	Phase2	study/STIM_014.jpg	99
922.14	0.828	827.5	study	Phase2	study/STIM_014.jpg	99
926.444	0.779	779.0	study	Phase2	study/STIM_015.jpg	100
930.878	1.032	1032.0	study	Phase2	study/STIM_015.jpg	99
935.07	0.758	758.0	study	Phase2	study/STIM_015.jpg	100
938.178	0.85	850.4	study	Phase2	study/STIM_016.jpg	100
941.875	1.03	1030.4	study	Phase2	study/STIM_016.jpg	100
946.709	1.062	1062.2	study	Phase2	study/STIM_016.jpg	99
951.506	1.036	1036.1	study	Phase2	study/STIM_017.jpg	100
955.901	0.965	964.8	study	Phase2	study/STIM_017.jpg	100
959.58	1.055	1055.4	study	Phase2	study/STIM_017.jpg	99
963.094	1.547	1546.8	study	Phase2	study/STIM_018.jpg	99
968.083	0.999	998.6	study	Phase2	study/STIM_018.jpg	100
972.595	1.406	1406.4	study	Phase2	study/STIM_018.jpg	99
976.554	1.623	1623.4	study	Phase2	study/STIM_019.jpg	99
981.258	1.158	1158.4	study	Phase2	study/STIM_019.jpg	99
984.397	1.195	1194.8	study	Phase2	study/STIM_019.jpg	100
988.3	1.287	1287.0	study	Phase2	study/STIM_020.jpg	99
991.868	0.888	887.6	study	Phase2	study/STIM_020.jpg	100
994.983	1.273	1273.3	study	Phase2	study/STIM_020.jpg	99
999.931	1.249	1249.3	study	Phase2	study/STIM_021.jpg	100
1004.023	0.721	721.4	study	Phase2	study/STIM_021.jpg	99
1007.895	1.011	1011.4	study	Phase2	study/STIM_021.jpg	100
1011.163	1.289	1289.3	study	Phase2	study/STIM_022.jpg	100
1014.553	1.119	1118.8	study	Phase2	study/STIM_022.jpg	100
1018.422	0.673	673.4	study	Phase2	study/STIM_022.jpg	99
1021.957	1.443	1442.9	study	Phase2	study/STIM_023.jpg	100
1026.334	1.036	1036.1	study	Phase2	study/STIM_023.jpg	99
1030.918	1.406	1406.0	study	Phase2	study/STIM_023.jpg	100
1035.703	0.853	852.9	study	Phase2	study/STIM_024.jpg	100
1039.477	1.296	1295.6	study	Phase2	study/STIM_024.jpg	99
1043.453	1.138	1138.5	study	Phase2	study/STIM_024.jpg	100
1047.889	1.062	1062.5	study	Phase2	study/STIM_025.jpg	100
1051.003	1.302	1301.9	study	Phase2	study/STIM_025.jpg	100
1054.426	0.908	908.4	study	Phase2	study/STIM_025.jpg	99
1057.82	0.774	774.5	study	Phase2	study/STIM_026.jpg	100
1061.686	1.465	1465.2	study	Phase2	study/STIM_026.jpg	99
1066.918	0.7	699.9	study	Phase2	study/STIM_026.jpg	99
1071.117	1.458	1458.5	study	Phase2	study/STIM_027.jpg	100
1076.371	1.079	1079.1	study	Phase2	study/STIM_027.jpg	99
1079.598	0.951	951.4	study	Phase2	study/STIM_027.jpg	100
1083.601	1.571	1570.6	study	Phase2	study/STIM_028.jpg	100
1088.423	0.923	923.4	study	Phase2	study/STIM_028.jpg	100
1091.554	0.667	666.8	study	Phase2	study/STIM_028.jpg	100
1095.84	1.335	1334.8	study	Phase2	study/STIM_029.jpg	99
1100.546	0.792	792.2	study	Phase2	study/STIM_029.jpg	99
1104.875	1.213	1212.7	study	Phase2	study/STIM_029.jpg	100
1108.128	0.689	689.2	test	Phase2	test/STIM_000.jpg	99
1112.339	0.89	889.6	test	Phase2	test/STIM_000.jpg	100
1115.293	1.162	1162.2	test	Phase2	test/STIM_000.jpg	99
1119.273	0.703	702.7	test	Phase2	test/STIM_001.jpg	100
1123.68	0.937	937.4	test	Phase2	test/STIM_001.jpg	100
1127.195	0.74	740.3	test	Phase2	test/STIM_001.jpg	100
1130.718	0.98	980.1	test	Phase2	test/STIM_002.jpg	99
1134.722	1.074	1073.9	test	Phase2	test/STIM_002.jpg	99
1139.57	1.4	1400.4	test	Phase2	test/STIM_002.jpg	100
1143.416	1.38	1379.6	test	Phase2	test/STIM_003.jpg	99
1147.554	1.334	1334.0	test	Phase2	test/STIM_003.jpg	99
1152.1	0.872	872.2	test	Phase2	test/STIM_003.jpg	99
1155.475	1.104	1103.9	test	Phase2	test/STIM_004.jpg	100
1159.647	0.717	717.1	test	Phase2	test/STIM_004.jpg	100
1163.867	0.87	870.0	test	Phase2	test/STIM_004.jpg	99
1166.737	1.167	1167.0	test	Phase2	test/STIM_005.jpg	100
1171.217	1.312	1312.4	test	Phase2	test/STIM_005.jpg	100
1174.813	1.103	1103.3	test	Phase2	test/STIM_005.jpg	100
1177.996	0.98	980.5	test	Phase2	test/STIM_006.jpg	99
1181.581	1.15	1150.1	test	Phase2	test/STIM_006.jpg	99
1185.499	1.032	1031.6	test	Phase2	test/STIM_006.jpg	99
1190.172	1.415	1414.8	test	Phase2	test/STIM_007.jpg	99
1194.068	0.794	793.7	test	Phase2	test/STIM_007.jpg	99
1197.614	0.919	918.7	test	Phase2	test/STIM_007.jpg	99
1202.073	1.203	1203.2	test	Phase2	test/STIM_008.jpg	100
1206.231	1.101	1101.1	test	Phase2	test/STIM_008.jpg	100
1210.096	1.276	1275.8	test	Phase2	test/STIM_008.jpg	100
1214.641	0.773	773.0	test	Phase2	test/STIM_009.jpg	100
1218.843	1.348	1348.2	test	Phase2	test/STIM_009.jpg	100
1223.24	1.276	1276.1	test	Phase2	test/STIM_009.jpg	99
1227.083	0.97	969.9	test	Phase2	test/STIM_010.jpg	99
1230.705	0.828	827.7	test	Phase2	test/STIM_010.jpg	99
1233.596	1.354	1353.9	test	Phase2	test/STIM_010.jpg	99
1238.798	1.24	1240.2	test	Phase2	test/STIM_011.jpg	100
1243.605	0.792	791.8	test	Phase2	test/STIM_011.jpg	99
1247.966	0.979	979.0	test	Phase2	test/STIM_011.jpg	99
1251.147	0.696	696.2	test	Phase2	test/STIM_012.jpg	99
1254.324	1.282	1282.3	test	Phase2	test/STIM_012.jpg	99
1258.8	0.74	739.6	test	Phase2	test/STIM_012.jpg	99
1263.031	1.328	1328.3	test	Phase2	test/STIM_013.jpg	100
1267.676	0.683	683.1	test	Phase2	test/STIM_013.jpg	100
1271.279	0.692	691.5	test	Phase2	test/STIM_013.jpg	99
1275.436	0.816	816.4	test	Phase2	test/STIM_014.jpg	100
1279.806	1.315	1314.9	test	Phase2	test/STIM_014.jpg	100
1284.573	1.134	1134.4	test	Phase2	test/STIM_014.jpg	99
1288.129	1.068	1068.1	test	Phase2	test/STIM_015.jpg	99
1292.524	0.75	749.5	test	Phase2	test/STIM_015.jpg	99
1295.885	1.056	1056.3	test	Phase2	test/STIM_015.jpg	99
1300.444	0.777	776.9	test	Phase2	test/STIM_016.jpg	100
1304.382	0.694	693.9	test	Phase2	test/STIM_016.jpg	100
1308.407	1.389	1388.9	test	Phase2	test/STIM_016.jpg	100
1312.195	1.173	1172.6	test	Phase2	test/STIM_017.jpg	99
1316.706	0.915	914.6	test	Phase2	test/STIM_017.jpg	99
1319.575	1.063	1062.7	test	Phase2	test/STIM_017.jpg	100
1323.703	1.051	1051.3	test	Phase2	test/STIM_018.jpg	100
1327.149	0.749	749.3	test	Phase2	test/STIM_018.jpg	100
1331.814	0.95	950.4	test	Phase2	test/STIM_018.jpg	99
1336.412	0.792	792.4	test	Phase2	test/STIM_019.jpg	100
1339.691	0.756	755.8	test	Phase2	test/STIM_019.jpg	100
1343.634	1.334	1333.7	test	Phase2	test/STIM_019.jpg	100
1346.949	0.696	696.2	test	Phase2	test/STIM_020.jpg	100
1350.089	0.851	851.3	test	Phase2	test/STIM_020.jpg	99
1352.964	1.127	1127.3	test	Phase2	test/STIM_020.jpg	100
1357.016	0.676	676.3	test	Phase2	test/STIM_021.jpg	100
1360.388	1.003	1003.1	test	Phase2	test/STIM_021.jpg	99
1364.628	0.871	870.9	test	Phase2	test/STIM_021.jpg	100
1369.033	1.24	1239.8	test	Phase2	test/STIM_022.jpg	100
1374.032	0.816	815.7	test	Phase2	test/STIM_022.jpg	99
1378.773	1.326	1325.9	test	Phase2	test/STIM_022.jpg	100
1382.641	1.056	1056.4	test	Phase2	test/STIM_023.jpg	99
1386.437	0.726	725.9	test	Phase2	test/STIM_023.jpg	100
1390.191	0.9	900.4	test	Phase2	test/STIM_023.jpg	100
1394.048	0.872	872.0	test	Phase2	test/STIM_024.jpg	99
1398.29	1.089	1088.6	test	Phase2	test/STIM_024.jpg	99
1402.177	0.718	718.1	test	Phase2	test/STIM_024.jpg	100
1406.022	1.255	1255.4	test	Phase2	test/STIM_025.jpg	100
1410.757	1.053	1052.6	test	Phase2	test/STIM_025.jpg	100
1413.761	1.32	1320.5	test	Phase2	test/STIM_025.jpg	99
1418.443	1.0	1000.3	test	Phase2	test/STIM_026.jpg	100
1421.963	1.406	1405.5	test	Phase2	test/STIM_026.jpg	99
1426.472	1.382	1381.6	test	Phase2	test/STIM_026.jpg	100
1430.458	1.193	1192.6	test	Phase2	test/STIM_027.jpg	100
1434.59	1.346	1345.9	test	Phase2	test/STIM_027.jpg	100
1438.665	0.918	917.7	test	Phase2	test/STIM_027.jpg	99
1442.034	1.279	1279.0	test	Phase2	test/STIM_028.jpg	100
1447.116	1.368	1367.5	test	Phase2	test/STIM_028.jpg	99
1452.007	0.699	699.3	test	Phase2	test/STIM_028.jpg	100
1456.188	0.715	715.1	test	Phase2	test/STIM_029.jpg	100
1460.356	1.202	1202.3	test	Phase2	test/STIM_029.jpg	100
1463.779	0.902	902.5	test	Phase2	test/STIM_029.jpg	100
1467.776	0.681	681.4	study	Phase3	study/STIM_000.jpg	99
1470.738	1.07	1069.6	study	Phase3	study/STIM_000.jpg	99
1475.347	1.062	1061.9	study	Phase3	study/STIM_000.jpg	99
1479.784	0.884	883.9	study	Phase3	study/STIM_001.jpg	99
1482.768	0.661	660.6	study	Phase3	study/STIM_001.jpg	99
1487.19	0.759	759.4	study	Phase3	study/STIM_001.jpg	100
1491.454	1.182	1182.4	study	Phase3	study/STIM_002.jpg	100
1495.483	0.673	673.2	study	Phase3	study/STIM_002.jpg	99
1498.59	0.73	730.0	study	Phase3	study/STIM_002.jpg	100
1501.774	1.026	1025.6	study	Phase3	study/STIM_003.jpg	99
1505.271	1.247	1247.4	study	Phase3	study/STIM_003.jpg	100
1508.469	0.676	676.4	study	Phase3	study/STIM_003.jpg	99
1511.808	0.633	632.7	study	Phase3	study/STIM_004.jpg	100
1515.913	1.308	1308.1	study	Phase3	study/STIM_004.jpg	100
1519.651	1.373	1373.0	study	Phase3	study/STIM_004.jpg	99
1523.638	0.888	888.3	study	Phase3	study/STIM_005.jpg	99
1526.679	1.086	1086.2	study	Phase3	study/STIM_005.jpg	99
1530.575	0.69	690.2	study	Phase3	study/STIM_005.jpg	99
1535.06	0.885	885.4	study	Phase3	study/STIM_006.jpg	100
1539.774	0.721	721.4	study	Phase3	study/STIM_006.jpg	100
1543.819	0.648	648.2	study	Phase3	study/STIM_006.jpg	100
1547.749	1.188	1188.4	study	Phase3	study/STIM_007.jpg	100
1551.371	1.38	1379.5	study	Phase3	study/STIM_007.jpg	100
1554.677	0.887	886.9	study	Phase3	study/STIM_007.jpg	100
1559.253	0.828	828.3	study	Phase3	study/STIM_008.jpg	99
1562.227	1.007	1007.1	study	Phase3	study/STIM_008.jpg	100
1565.798	1.211	1211.1	study	Phase3	study/STIM_008.jpg	99
1570.803	0.892	891.9	study	Phase3	study/STIM_009.jpg	100
1574.089	1.14	1139.6	study	Phase3	study/STIM_009.jpg	99
1578.388	1.167	1167.1	study	Phase3	study/STIM_009.jpg	99
1582.028	1.056	1056.2	study	Phase3	study/STIM_010.jpg	99
1586.005	0.778	778.3	study	Phase3	study/STIM_010.jpg	100
1589.385	1.229	1229.1	study	Phase3	study/STIM_010.jpg	100
1594.499	1.069	1069.4	study	Phase3	study/STIM_011.jpg	99
1597.909	0.808	808.3	study	Phase3	study/STIM_011.jpg	99
1602.483	1.096	1096.4	study	Phase3	study/STIM_011.jpg	100
1606.655	1.273	1273.4	study	Phase3	study/STIM_012.jpg	99
1609.98	0.637	637.2	study	Phase3	study/STIM_012.jpg	99
1613.846	1.265	1265.4	study	Phase3	study/STIM_012.jpg	100
1618.64	0.696	696.2	study	Phase3	study/STIM_013.jpg	99
1621.973	1.274	1273.5	study	Phase3	study/STIM_013.jpg	99
1626.435	1.318	1318.2	study	Phase3	study/STIM_013.jpg	99
1630.119	1.116	1116.5	study	Phase3	study/STIM_014.jpg	99
1634.66	1.29	1290.4	study	Phase3	study/STIM_014.jpg	100
1638.816	1.346	1346.3	study	Phase3	study/STIM_014.jpg	99
1642.964	1.037	1037.1	study	Phase3	study/STIM_015.jpg	99
1646.789	0.924	924.5	study	Phase3	study/STIM_015.jpg	100
1650.353	1.378	1377.5	study	Phase3	study/STIM_015.jpg	100
1655.11	1.006	1005.7	study	Phase3	study/STIM_016.jpg	100
1659.624	1.254	1254.2	study	Phase3	study/STIM_016.jpg	100
1664.609	0.663	662.6	study	Phase3	study/STIM_016.jpg	99
1669.185	1.002	1002.4	study	Phase3	study/STIM_017.jpg	99
1672.828	1.339	1338.9	study	Phase3	study/STIM_017.jpg	100
1676.29	0.81	809.9	study	Phase3	study/STIM_017.jpg	100
1680.752	0.896	895.5	study	Phase3	study/STIM_018.jpg	99
1685.53	1.122	1122.5	study	Phase3	study/STIM_018.jpg	99
1689.54	0.936	935.6	study	Phase3	study/STIM_018.jpg	99
1694.245	0.922	921.5	study	Phase3	study/STIM_019.jpg	99
1698.651	0.793	792.6	study	Phase3	study/STIM_019.jpg	99
1701.669	0.735	734.7	study	Phase3	study/STIM_019.jpg	100
1704.894	1.342	1341.6	study	Phase3	study/STIM_020.jpg	100
1708.21	0.706	705.9	study	Phase3	study/STIM_020.jpg	100
1711.905	0.635	634.9	study	Phase3	study/STIM_020.jpg	100
1715.963	0.693	693.0	study	Phase3	study/STIM_021.jpg	99
1719.224	0.693	692.9	study	Phase3	study/STIM_021.jpg	99
1723.296	1.37	1370.1	study	Phase3	study/STIM_021.jpg	99
1727.7	0.788	787.9	study	Phase3	study/STIM_022.jpg	99
1732.406	1.378	1377.9	study	Phase3	study/STIM_022.jpg	99
1735.993	0.999	999.2	study	Phase3	study/STIM_022.jpg	100
1740.05	1.166	1166.1	study	Phase3	study/STIM_023.jpg	100
1744.023	1.13	1129.7	study	Phase3	study/STIM_023.jpg	100
1747.818	1.006	1006.5	study	Phase3	study/STIM_023.jpg	99
1751.662	1.351	1350.9	study	Phase3	study/STIM_024.jpg	100
1755.249	0.767	767.1	study	Phase3	study/STIM_024.jpg	99
1759.01	0.855	854.7	study	Phase3	study/STIM_024.jpg	100
1763.191	0.818	818.5	study	Phase3	study/STIM_025.jpg	100
1767.09	1.142	1141.5	study	Phase3	study/STIM_025.jpg	100
1770.621	1.321	1321.4	study	Phase3	study/STIM_025.jpg	99
1774.242	1.313	1312.9	study	Phase3	study/STIM_026.jpg	99
1777.853	0.82	819.9	study	Phase3	study/STIM_026.jpg	100
1782.486	0.798	797.7	study	Phase3	study/STIM_026.jpg	99
1785.341	0.71	710.5	study	Phase3	study/STIM_027.jpg	99
1789.164	1.056	1055.5	study	Phase3	study/STIM_027.jpg	100
1792.198	1.121	1121.0	study	Phase3	study/STIM_027.jpg	99
1796.181	0.638	637.8	study	Phase3	study/STIM_028.jpg	100
1799.94	1.317	1317.1	study	Phase3	study/STIM_028.jpg	99
1804.262	0.942	941.6	study	Phase3	study/STIM_028.jpg	100
1807.99	0.796	795.7	study	Phase3	study/STIM_029.jpg	100
1812.221	0.877	877.1	study	Phase3	study/STIM_029.jpg	100
1816.986	0.865	865.1	study	Phase3	study/STIM_029.jpg	99
1821.279	1.1	1100.3	test	Phase3	test/STIM_000.jpg	99
1824.598	1.162	1161.9	test	Phase3	test/STIM_000.jpg	99
1827.925	0.777	776.8	test	Phase3	test/STIM_000.jpg	99
1831.012	1.186	1186.3	test	Phase3	test/STIM_001.jpg	99
1835.748	0.697	697.4	test	Phase3	test/STIM_001.jpg	100
1839.884	1.334	1333.6	test	Phase3	test/STIM_001.jpg	99
1843.866	0.998	998.2	test	Phase3	test/STIM_002.jpg	99
1847.806	1.186	1186.5	test	Phase3	test/STIM_002.jpg	99
1851.436	0.779	778.6	test	Phase3	test/STIM_002.jpg	100
1855.537	1.03	1030.0	test	Phase3	test/STIM_003.jpg	100
1860.294	1.394	1394.1	test	Phase3	test/STIM_003.jpg	100
1865.013	1.408	1407.7	test	Phase3	test/STIM_003.jpg	100
1868.654	0.755	755.0	test	Phase3	test/STIM_004.jpg	99
1872.903	1.074	1074.3	test	Phase3	test/STIM_004.jpg	99
1877.028	0.928	928.2	test	Phase3	test/STIM_004.jpg	100
1880.816	1.362	1362.5	test	Phase3	test/STIM_005.jpg	100
1885.376	0.886	886.3	test	Phase3	test/STIM_005.jpg	100
1890.137	1.127	1126.8	test	Phase3	test/STIM_005.jpg	100
1893.305	1.125	1125.1	test	Phase3	test/STIM_006.jpg	100
1896.654	0.825	824.6	test	Phase3	test/STIM_006.jpg	99
1900.211	1.22	1220.2	test	Phase3	test/STIM_006.jpg	99
1905.091	0.822	821.8	test	Phase3	test/STIM_007.jpg	99
1908.743	0.754	753.8	test	Phase3	test/STIM_007.jpg	100
1913.37	1.274	1274.0	test	Phase3	test/STIM_007.jpg	99
1917.988	0.986	985.6	test	Phase3	test/STIM_008.jpg	99
1922.487	1.245	1244.6	test	Phase3	test/STIM_008.jpg	99
1925.851	1.283	1283.2	test	Phase3	test/STIM_008.jpg	99
1929.747	0.968	967.7	test	Phase3	test/STIM_009.jpg	99
1933.338	1.106	1105.5	test	Phase3	test/STIM_009.jpg	100
1937.497	1.12	1120.1	test	Phase3	test/STIM_009.jpg	99
1941.107	0.804	804.5	test	Phase3	test/STIM_010.jpg	99
1944.703	1.206	1206.4	test	Phase3	test/STIM_010.jpg	100
1949.188	0.808	807.7	test	Phase3	test/STIM_010.jpg	99
1952.383	0.964	964.2	test	Phase3	test/STIM_011.jpg	100
1955.312	1.294	1293.8	test	Phase3	test/STIM_011.jpg	100
1960.252	1.075	1075.3	test	Phase3	test/STIM_011.jpg	99
1964.218	1.348	1347.6	test	Phase3	test/STIM_012.jpg	100
1968.086	0.684	683.6	test	Phase3	test/STIM_012.jpg	99
1972.443	0.783	783.4	test	Phase3	test/STIM_012.jpg	99
1976.224	0.824	824.1	test	Phase3	test/STIM_013.jpg	100
1979.779	1.093	1093.1	test	Phase3	test/STIM_013.jpg	99
1984.532	1.214	1214.4	test	Phase3	test/STIM_013.jpg	99
1988.789	0.76	760.4	test	Phase3	test/STIM_014.jpg	99
1991.87	0.839	839.4	test	Phase3	test/STIM_014.jpg	99
1995.258	1.3	1300.4	test	Phase3	test/STIM_014.jpg	100
1999.082	1.189	1188.6	test	Phase3	test/STIM_015.jpg	100
2003.312	1.295	1294.9	test	Phase3	test/STIM_015.jpg	99
2007.73	0.929	929.4	test	Phase3	test/STIM_015.jpg	99
2012.556	0.678	677.8	test	Phase3	test/STIM_016.jpg	99
2017.126	1.422	1422.1	test	Phase3	test/STIM_016.jpg	100
2020.576	1.162	1162.1	test	Phase3	test/STIM_016.jpg	99
2024.582	1.41	1409.7	test	Phase3	test/STIM_017.jpg	99
2028.118	1.076	1075.6	test	Phase3	test/STIM_017.jpg	99
2031.401	0.755	755.3	test	Phase3	test/STIM_017.jpg	99
2034.498	1.363	1363.1	test	Phase3	test/STIM_018.jpg	100
2039.446	0.688	687.9	test	Phase3	test/STIM_018.jpg	99
2043.232	1.366	1366.3	test	Phase3	test/STIM_018.jpg	100
2047.991	1.265	1264.9	test	Phase3	test/STIM_019.jpg	100
2051.595	0.922	922.2	test	Phase3	test/STIM_019.jpg	100
2055.418	1.196	1196.5	test	Phase3	test/STIM_019.jpg	100
2059.101	1.354	1353.9	test	Phase3	test/STIM_020.jpg	100
2063.045	1.213	1212.6	test	Phase3	test/STIM_020.jpg	99
2066.858	0.768	768.2	test	Phase3	test/STIM_020.jpg	99
2070.687	1.154	1153.8	test	Phase3	test/STIM_021.jpg	99
2074.956	0.886	885.6	test	Phase3	test/STIM_021.jpg	100
2078.54	0.751	751.3	test	Phase3	test/STIM_021.jpg	99
2082.315	0.681	680.9	test	Phase3	test/STIM_022.jpg	99
2085.221	0.992	992.3	test	Phase3	test/STIM_022.jpg	99
2089.635	0.897	897.0	test	Phase3	test/STIM_022.jpg	99
2093.515	1.307	1306.9	test	Phase3	test/STIM_023.jpg	99
2098.324	1.295	1294.9	test	Phase3	test/STIM_023.jpg	99
2101.936	1.312	1311.5	test	Phase3	test/STIM_023.jpg	100
2106.242	0.74	740.5	test	Phase3	test/STIM_024.jpg	100
2109.21	1.299	1298.8	test	Phase3	test/STIM_024.jpg	99
2112.789	1.316	1315.6	test	Phase3	test/STIM_024.jpg	100
2116.141	0.902	901.8	test	Phase3	test/STIM_025.jpg	100
2119.146	1.182	1181.8	test	Phase3	test/STIM_025.jpg	99
2122.517	1.258	1257.8	test	Phase3	test/STIM_025.jpg	100
2126.189	1.388	1387.5	test	Phase3	test/STIM_026.jpg	100
2130.182	1.159	1158.7	test	Phase3	test/STIM_026.jpg	99
2135.212	1.25	1250.2	test	Phase3	test/STIM_026.jpg	100
2138.567	1.14	1139.7	test	Phase3	test/STIM_027.jpg	99
2143.27	1.21	1209.7	test	Phase3	test/STIM_027.jpg	100
2146.632	0.756	755.5	test	Phase3	test/STIM_027.jpg	100
2149.445	0.799	798.6	test	Phase3	test/STIM_028.jpg	99
2152.222	0.783	782.9	test	Phase3	test/STIM_028.jpg	99
2156.784	0.851	850.8	test	Phase3	test/STIM_028.jpg	99
2161.329	1.278	1278.0	test	Phase3	test/STIM_029.jpg	100
2165.138	0.883	883.0	test	Phase3	test/STIM_029.jpg	99
2168.983	1.327	1326.7	test	Phase3	test/STIM_029.jpg	99
